File: Accelerated corrosion test data/2025-10-22_18-00-04/sample_2.csv
Frequency (Hz),Impedance (ohms),Phase (Radians),Temperature (C),Humidity (%)
10000.0,234.35,-11449.5,0,0
10260.325,229.083,-11161.2,0,0
10520.65,223.526,-10887.5,0,0
10780.975,218.111,-10626.7,0,0
11041.3,213.101,-10378.7,0,0
11301.625,208.601,-10140.6,0,0
11561.95,204.66,-9913.08,0,0
11822.275,203.974,-9704.73,0,0
12082.6,196.503,-9493.09,0,0
12342.925,191.89,-9296.25,0,0
12603.25,187.324,-9104.56,0,0
12863.575,183.926,-8920.51,0,0
13123.9,181.488,-8746.76,0,0
13384.225,176.848,-8576.06,0,0
13644.55,174.736,-8410.76,0,0
13904.875,187.297,-8251.77,0,0
14165.2,169.047,-8110.93,0,0
14425.525,166.15,-7962.11,0,0
14685.8,167.279,-7816.2,0,0
14946.175,162.918,-7687.27,0,0
15206.5,170.475,-7563.16,0,0
15466.825,160.685,-7430.71,0,0
15727.15,154.63,-7317.02,0,0
15987.5,151.822,-7195.09,0,0
16247.8,151.241,-7080.63,0,0
16508.125,145.684,-6970.15,0,0
16768.45,143.532,-6862.06,0,0
17028.775,142.26,-6757.22,0,0
17289.1,141.142,-6656.29,0,0
17549.425,137.246,-6557.79,0,0
17809.75,134.934,-6461.41,0,0
18070.075,133.994,-6368.15,0,0
18330.4,131.713,-6277.37,0,0
18590.725,130.534,-6189.48,0,0
18851.05,129.16,-6103.4,0,0
19111.375,130.381,-6021.37,0,0
19371.7,130.488,-5943.85,0,0
19632.025,124.953,-5865.5,0,0
19892.35,122.399,-5787.46,0,0
20152.675,120.893,-5711.59,0,0
20413.0,120.038,-5637.13,0,0
20673.3,119.398,-5564.62,0,0
20933.65,120.088,-5492.67,0,0
21193.975,127.302,-5423.81,0,0
21454.3,131.743,-5362.64,0,0
21714.625,130.117,-5307.57,0,0
21974.9,121.98,-5244.25,0,0
22235.275,120.859,-5188.85,0,0
22495.6,116.529,-5128.07,0,0
22755.925,112.933,-5066.99,0,0
23016.25,114.034,-5011.25,0,0
23276.6,114.853,-4956.44,0,0
23536.9,109.594,-4901.56,0,0
23797.225,108.487,-4846.83,0,0
24057.55,108.173,-4796.22,0,0
24317.875,104.309,-4744.89,0,0
24578.2,102.522,-4694.09,0,0
24838.525,101.619,-4643.78,0,0
25098.85,100.387,-4594.87,0,0
25359.175,99.3468,-4547.57,0,0
25619.5,98.4558,-4500.42,0,0
25879.8,97.2353,-4455.1,0,0
26140.1,97.8896,-4409.02,0,0
26400.5,97.0996,-4366.97,0,0
26660.8,97.5646,-4324.27,0,0
26921.1,96.1584,-4282.01,0,0
27181.4,94.9708,-4242.13,0,0
27441.8,93.0876,-4201.87,0,0
27702.1,91.8557,-4161.77,0,0
27962.4,90.839,-4121.13,0,0
28222.7,90.8371,-4082.55,0,0
28483.1,90.8367,-4044.29,0,0
28743.4,90.3075,-4007.06,0,0
29003.7,91.4643,-3969.44,0,0
29264,91.9552,-3934.86,0,0
29524.4,93.655,-3898.41,0,0
29784.7,98.1088,-3867.7,0,0
30045,94.586,-3837.92,0,0
30305.3,94.5695,-3804.99,0,0
30565.7,92.4185,-3777.34,0,0
30826,88.949,-3744.09,0,0
31086.3,87.4365,-3711.84,0,0
31346.6,85.8793,-3680.91,0,0
31607,85.7692,-3649.67,0,0
31867.3,84.0497,-3620.69,0,0
32127.6,83.0198,-3589.98,0,0
32387.9,83.1276,-3559.52,0,0
32648.3,84.2765,-3531.57,0,0
32908.6,84.6394,-3505.26,0,0
33168.9,82.2006,-3478.45,0,0
33429.2,80.4207,-3451.08,0,0
33689.6,80.3305,-3423.95,0,0
33949.9,79.4387,-3397.68,0,0
34210.2,78.0547,-3372.16,0,0
34470.5,77.0035,-3345.75,0,0
34730.9,76.5647,-3319.96,0,0
34991.2,75.7473,-3294.97,0,0
35251.5,75.4465,-3270.13,0,0
35511.8,74.847,-3245.74,0,0
35772.2,74.359,-3221.83,0,0
36032.5,73.89,-3198.48,0,0
36292.8,72.9566,-3174.95,0,0
36553.1,72.4146,-3151.89,0,0
36813.5,72.0238,-3129.34,0,0
37073.8,71.7959,-3106.84,0,0
37334.1,71.4417,-3084.73,0,0
37594.4,71.4294,-3063.08,0,0
37854.8,70.9051,-3041.71,0,0
38115.1,70.5135,-3020.75,0,0
38375.4,69.773,-3000.19,0,0
38635.7,69.2336,-2979.43,0,0
38896.1,69.0606,-2958.94,0,0
39156.4,68.6259,-2939.05,0,0
39416.7,68.1912,-2919.29,0,0
39677,67.8716,-2899.78,0,0
39937.4,67.4282,-2880.33,0,0
40197.7,67.1915,-2861.12,0,0
40458,66.6186,-2842.44,0,0
40718.3,66.6605,-2823.6,0,0
40978.7,66.6554,-2805.71,0,0
41239,66.0393,-2787.22,0,0
41499.3,66.1962,-2769.46,0,0
41759.6,65.7037,-2751.91,0,0
42020,65.3489,-2734.23,0,0
42280.275,65.6705,-2717.16,0,0
42540.6,65.1555,-2700.52,0,0
42800.925,64.6951,-2683.87,0,0
43061.25,64.249,-2667.17,0,0
43321.575,64.0327,-2650.75,0,0
43581.9,63.856,-2634.46,0,0
43842.225,63.6844,-2618.26,0,0
44102.55,63.1411,-2602.46,0,0
44362.875,63.0648,-2586.91,0,0
44623.2,62.8217,-2571.22,0,0
44883.525,62.5211,-2555.89,0,0
45143.85,62.4914,-2540.59,0,0
45404.175,62.3481,-2525.69,0,0
45664.5,62.2409,-2510.98,0,0
45924.825,62.0329,-2496.12,0,0
46185.15,62.447,-2481.98,0,0
46445.475,61.7771,-2468.02,0,0
46705.8,61.41,-2453.85,0,0
46966.125,60.9209,-2439.33,0,0
47226.45,61.074,-2425.28,0,0
47486.775,61.6486,-2411.84,0,0
47747.1,60.8428,-2398.7,0,0
48007.425,61.009,-2384.85,0,0
48267.75,61.1949,-2371.25,0,0
48528.075,62.3311,-2358.76,0,0
48788.4,61.5769,-2347.2,0,0
49048.725,60.9367,-2334.76,0,0
49309.05,60.1753,-2322.09,0,0
49569.375,59.5891,-2309.47,0,0
49829.7,59.1927,-2297.02,0,0
50090.025,58.6532,-2284.64,0,0
50350.35,58.1946,-2272.51,0,0
50610.675,58.0761,-2259.9,0,0
50871.0,57.9582,-2247.93,0,0
51131.325,57.7577,-2236.25,0,0
51391.65,57.3769,-2224.63,0,0
51651.975,56.8315,-2213.21,0,0
51912.3,56.4424,-2201.32,0,0
52172.625,56.0592,-2189.78,0,0
52432.95,55.8233,-2178.22,0,0
52693.275,55.6353,-2166.91,0,0
52953.6,55.4224,-2155.6,0,0
53213.925,55.1661,-2144.39,0,0
53474.25,55.1569,-2133.56,0,0
53734.575,54.8131,-2122.54,0,0
53994.9,54.7035,-2111.62,0,0
54255.225,54.6245,-2100.92,0,0
54515.55,54.6241,-2090.24,0,0
54775.875,54.5812,-2079.79,0,0
55036.2,54.5286,-2069.46,0,0
55296.525,54.2811,-2059.16,0,0
55556.85,54.1481,-2048.87,0,0
55817.175,54.1278,-2038.64,0,0
56077.5,54.1667,-2028.57,0,0
56337.825,54.0938,-2018.62,0,0
56598.15,54.0251,-2008.71,0,0
56858.475,54.0053,-1998.9,0,0
57118.8,54.1306,-1989.34,0,0
57379.125,54.0911,-1979.56,0,0
57639.45,54.1893,-1970.07,0,0
57899.775,54.3219,-1960.63,0,0
58160.1,54.3051,-1951.47,0,0
58420.4,54.2668,-1942.25,0,0
58680.7,54.1217,-1932.92,0,0
58941.1,54.3192,-1923.58,0,0
59201.4,54.5111,-1914.43,0,0
59461.7,54.9195,-1905.31,0,0
59722,55.129,-1896.44,0,0
59982.4,55.6135,-1887.45,0,0
60242.7,56.5619,-1878.96,0,0
60503,56.791,-1871.25,0,0
60763.3,56.7545,-1862.8,0,0
61023.7,57.103,-1854.52,0,0
61284,57.5615,-1846.22,0,0
61544.3,58.4433,-1838.31,0,0
61804.6,58.9432,-1831.21,0,0
62065,59.1204,-1824.53,0,0
62325.3,58.0678,-1817.32,0,0
62585.6,57.6887,-1809.36,0,0
62845.9,57.9313,-1802.24,0,0
63106.3,57.0795,-1795.58,0,0
63366.6,55.8326,-1787.7,0,0
63626.9,55.1722,-1779.92,0,0
63887.2,54.7486,-1772.33,0,0
64147.6,53.9272,-1764.73,0,0
64407.9,53.584,-1757,0,0
64668.2,52.8781,-1749.61,0,0
64928.5,52.0842,-1741.64,0,0
65188.9,51.6844,-1733.98,0,0
65449.2,50.9522,-1726.03,0,0
65709.5,50.8549,-1717.88,0,0
65969.8,51.0056,-1710.15,0,0
66230.2,50.9973,-1702.47,0,0
66490.5,51.1961,-1695.04,0,0
66750.8,51.4034,-1687.79,0,0
67011.1,51.2881,-1680.32,0,0
67271.5,51.4873,-1672.75,0,0
67531.8,52.0295,-1665.27,0,0
67792.1,52.7114,-1658.27,0,0
68052.4,53.4916,-1651.51,0,0
68312.8,54.0847,-1645.27,0,0
68573.1,54.2001,-1638.86,0,0
68833.4,54.6308,-1632.45,0,0
69093.7,54.8292,-1626.02,0,0
69354.1,55.7069,-1619.98,0,0
69614.4,55.578,-1614.46,0,0
69874.7,55.7636,-1608.34,0,0
70135,55.9429,-1603.22,0,0
70395.4,55.3291,-1597.96,0,0
70655.7,54.5449,-1592.59,0,0
70916,53.2633,-1586.63,0,0
71176.3,52.431,-1580.44,0,0
71436.7,51.58,-1574.22,0,0
71697,51.097,-1567.83,0,0
71957.3,50.4926,-1562.31,0,0
72217.6,49.3204,-1556.33,0,0
72478,47.9923,-1549.88,0,0
72738.3,46.9874,-1542.95,0,0
72998.6,46.6067,-1536.06,0,0
73258.9,46.4915,-1529.6,0,0
73519.3,45.8254,-1523.3,0,0
73779.6,45.4249,-1516.7,0,0
74039.9,45.1447,-1509.96,0,0
74300.225,45.1652,-1503.33,0,0
74560.55,45.2726,-1496.99,0,0
74820.875,45.1661,-1490.64,0,0
75081.2,45.3076,-1484.22,0,0
75341.525,45.6346,-1477.99,0,0
75601.85,45.8932,-1471.87,0,0
75862.175,46.2436,-1465.69,0,0
76122.5,46.653,-1459.7,0,0
76382.825,47.1541,-1453.86,0,0
76643.15,47.5604,-1448.03,0,0
76903.475,47.9999,-1442.32,0,0
77163.8,48.4759,-1436.63,0,0
77424.125,49.0955,-1430.83,0,0
77684.45,49.9822,-1425.48,0,0
77944.775,50.7409,-1420.32,0,0
78205.1,51.5568,-1415.25,0,0
78465.425,52.2886,-1410.48,0,0
78725.75,52.7986,-1405.97,0,0
78986.075,53.096,-1401.43,0,0
79246.4,53.2989,-1396.89,0,0
79506.725,53.6617,-1392.66,0,0
79767.05,53.3566,-1388.7,0,0
80027.375,52.7163,-1384.35,0,0
80287.7,52.0318,-1379.8,0,0
80548.025,51.2447,-1374.92,0,0
80808.35,50.622,-1370,0,0
81068.675,50.0376,-1364.94,0,0
81329.0,49.5776,-1359.73,0,0
81589.325,49.2095,-1354.63,0,0
81849.65,48.905,-1349.48,0,0
82109.975,48.6928,-1344.32,0,0
82370.3,48.4173,-1339.25,0,0
82630.625,48.2675,-1334.02,0,0
82890.95,48.1641,-1328.83,0,0
83151.275,48.2679,-1323.71,0,0
83411.6,48.4024,-1318.67,0,0
83671.925,48.5385,-1313.79,0,0
83932.25,48.75,-1308.87,0,0
84192.575,48.8436,-1304.13,0,0
84452.9,49.0668,-1299.29,0,0
84713.225,49.1869,-1294.7,0,0
84973.55,49.2444,-1289.98,0,0
85233.875,49.4095,-1285.38,0,0
85494.2,49.5086,-1280.56,0,0
85754.525,49.7865,-1276.02,0,0
86014.85,50.0809,-1271.47,0,0
86275.175,50.3108,-1266.97,0,0
86535.5,50.5249,-1262.57,0,0
86795.825,50.6767,-1258.31,0,0
87056.15,50.8977,-1253.92,0,0
87316.475,51.0921,-1249.65,0,0
87576.8,51.1793,-1245.48,0,0
87837.125,51.2053,-1241.32,0,0
88097.45,51.2338,-1237.06,0,0
88357.775,51.1668,-1232.87,0,0
88618.1,51.2233,-1228.46,0,0
88878.425,51.2526,-1224.26,0,0
89138.75,51.2841,-1219.97,0,0
89399.075,51.5549,-1215.72,0,0
89659.4,51.5105,-1211.52,0,0
89919.725,51.9626,-1207.17,0,0
90180,52.1467,-1203.49,0,0
90440.4,51.995,-1199.67,0,0
90700.7,51.5569,-1195.55,0,0
90961,51.3591,-1190.8,0,0
91221.3,51.8525,-1186.14,0,0
91481.7,52.4854,-1181.96,0,0
91742,52.8228,-1178.15,0,0
92002.3,53.0843,-1174.07,0,0
92262.6,53.5252,-1170.06,0,0
92523,54.1314,-1166.31,0,0
92783.3,54.4727,-1162.59,0,0
93043.6,54.8587,-1158.98,0,0
93303.9,54.9842,-1155.17,0,0
93564.3,55.5675,-1151.39,0,0
93824.6,56.3119,-1148.1,0,0
94084.9,56.4929,-1145.35,0,0
94345.2,56.1352,-1142.25,0,0
94605.6,55.5558,-1138.87,0,0
94865.9,55.1449,-1134.96,0,0
95126.2,55.1665,-1131.31,0,0
95386.5,54.799,-1127.66,0,0
95646.9,54.4706,-1123.5,0,0
95907.2,54.6821,-1119.12,0,0
96167.5,55.3492,-1115.05,0,0
96427.8,56.2787,-1111.43,0,0
96688.2,56.8843,-1108.16,0,0
96948.5,57.4489,-1104.94,0,0
97208.8,58.0974,-1101.93,0,0
97469.1,58.7462,-1099.32,0,0
97729.5,58.7221,-1097.25,0,0
97989.8,57.8467,-1094.56,0,0
98250.1,57.407,-1091.16,0,0
98510.4,57.4372,-1088.13,0,0
98770.8,57.1347,-1085.54,0,0
99031.1,56.3796,-1082.82,0,0
99291.4,55.5765,-1079.74,0,0
99551.7,54.5856,-1076.64,0,0
99812.1,53.6099,-1073.01,0,0
100072,53.0817,-1069.2,0,0
100333,52.7555,-1065.77,0,0
100593,52.2082,-1062.51,0,0
100853,51.4886,-1059.21,0,0
101114,50.6301,-1055.81,0,0
101374,49.7371,-1052.13,0,0
101634,48.8242,-1048.39,0,0
101895,47.8778,-1044.31,0,0
102155,47.2602,-1039.97,0,0
102415,46.9948,-1035.75,0,0
102676,46.6892,-1031.81,0,0
102936,46.1683,-1027.56,0,0
103196,46.0025,-1023.15,0,0
103457,46.0191,-1018.79,0,0
103717,46.2274,-1014.45,0,0
103977,46.4715,-1010.13,0,0
104238,47.0065,-1005.85,0,0
104498,47.7707,-1001.66,0,0
104758,48.8024,-997.741,0,0
105019,49.6792,-994.188,0,0
105279,50.3391,-990.866,0,0
105539,50.836,-987.155,0,0
105800,51.8022,-983.363,0,0
106060,53.0284,-979.976,0,0
106320.175,54.2614,-976.905,0,0
106580.5,55.4663,-974.134,0,0
106840.825,56.4278,-971.714,0,0
107101.15,57.1278,-969.386,0,0
107361.475,57.7183,-967.065,0,0
107621.8,58.102,-965.057,0,0
107882.125,57.9528,-962.915,0,0
108142.45,57.9035,-960.555,0,0
108402.775,57.5083,-958.367,0,0
108663.1,56.985,-955.907,0,0
108923.425,56.3191,-953.293,0,0
109183.75,55.587,-950.427,0,0
109444.075,54.9386,-947.419,0,0
109704.4,54.4146,-944.269,0,0
109964.725,53.8442,-941.192,0,0
110225.05,53.0824,-937.901,0,0
110485.375,52.4729,-934.401,0,0
110745.7,52.1729,-930.706,0,0
111006.025,51.9288,-927.127,0,0
111266.35,51.9192,-923.587,0,0
111526.675,51.7631,-919.909,0,0
111787.0,51.9219,-916.481,0,0
112047.325,51.9025,-912.986,0,0
112307.65,52.017,-909.438,0,0
112567.975,52.1518,-905.982,0,0
112828.3,52.3143,-902.492,0,0
113088.625,52.5162,-898.928,0,0
113348.95,52.8505,-895.433,0,0
113609.275,53.2116,-891.889,0,0
113869.6,53.704,-888.637,0,0
114129.925,54.043,-885.29,0,0
114390.25,54.4198,-881.88,0,0
114650.575,54.9964,-878.538,0,0
114910.9,55.5032,-875.272,0,0
115171.225,56.1096,-871.921,0,0
115431.55,56.7723,-868.749,0,0
115691.875,57.4139,-865.545,0,0
115952.2,58.0582,-862.429,0,0
116212.525,58.7996,-859.305,0,0
116472.85,59.5581,-856.249,0,0
116733.175,60.3855,-853.327,0,0
116993.5,61.1728,-850.472,0,0
117253.825,61.8348,-847.656,0,0
117514.15,62.509,-844.741,0,0
117774.475,63.3908,-841.889,0,0
118034.8,64.3047,-839.127,0,0
118295.125,65.2253,-836.517,0,0
118555.45,66.108,-834.081,0,0
118815.775,66.9391,-831.622,0,0
119076.1,67.75,-829.315,0,0
119336.425,68.489,-827.141,0,0
119596.75,69.0911,-824.996,0,0
119857.075,69.6838,-822.887,0,0
120117.4,70.1653,-820.868,0,0
120377.725,70.5458,-818.883,0,0
120638.05,70.7812,-816.976,0,0
120898.375,70.8131,-814.957,0,0
121158.7,70.7711,-812.927,0,0
121419.025,70.5972,-810.754,0,0
121679.35,70.5096,-808.498,0,0
121939.675,70.2951,-806.246,0,0
122200.0,70.0365,-803.87,0,0
122460,69.7226,-801.382,0,0
122721,69.4841,-798.751,0,0
122981,69.3432,-796.114,0,0
123241,69.1954,-793.502,0,0
123502,69.0333,-790.823,0,0
123762,68.9191,-788.132,0,0
124022,68.7797,-785.445,0,0
124283,68.6372,-782.653,0,0
124543,68.5071,-779.882,0,0
124803,68.3646,-777.064,0,0
125064,68.2117,-774.136,0,0
125324,68.0965,-771.182,0,0
125584,68.0728,-768.077,0,0
125845,68.1702,-764.978,0,0
126105,68.3074,-761.891,0,0
126365,68.4996,-758.804,0,0
126626,68.7494,-755.672,0,0
126886,69.1499,-752.538,0,0
127146,69.6385,-749.459,0,0
127406,70.1522,-746.454,0,0
127667,70.7057,-743.606,0,0
127927,71.2211,-740.736,0,0
128187,71.763,-737.966,0,0
128448,72.3251,-735.159,0,0
128708,72.8641,-732.387,0,0
128968,73.416,-729.641,0,0
129229,74.0216,-726.94,0,0
129489,74.5733,-724.342,0,0
129749,75.0707,-721.688,0,0
130010,75.5694,-719.017,0,0
130270,76.1686,-716.352,0,0
130530,76.7647,-713.777,0,0
130791,77.3721,-711.311,0,0
131051,77.8616,-708.915,0,0
131311,78.2636,-706.492,0,0
131572,78.6026,-704.075,0,0
131832,78.8694,-701.624,0,0
132092,79.0434,-699.135,0,0
132353,79.1713,-696.506,0,0
132613,79.3626,-693.739,0,0
132873,79.6897,-690.979,0,0
133134,80.0247,-688.26,0,0
133394,80.3605,-685.527,0,0
133654,80.6885,-682.754,0,0
133915,81.1419,-680.055,0,0
134175,81.4236,-677.451,0,0
134435,81.6104,-674.779,0,0
134696,81.6974,-671.936,0,0
134956,81.8948,-668.856,0,0
135216,82.2692,-665.814,0,0
135477,82.7177,-662.783,0,0
135737,83.1906,-659.74,0,0
135997,83.6781,-656.728,0,0
136258,84.1935,-653.658,0,0
136518,84.8176,-650.601,0,0
136778,85.4401,-647.637,0,0
137039,85.9876,-644.616,0,0
137299,86.6088,-641.491,0,0
137559,87.3808,-638.406,0,0
137819,88.1739,-635.394,0,0
138080,88.9634,-632.438,0,0
138340.125,89.7105,-629.595,0,0
138600.45,90.2829,-626.656,0,0
138860.775,90.839,-623.54,0,0
139121.1,91.5654,-620.38,0,0
139381.425,92.3231,-617.286,0,0
139641.75,92.9693,-614.207,0,0
139902.075,93.4905,-610.957,0,0
140162.4,94.0888,-607.453,0,0
140422.725,94.8749,-603.798,0,0
140683.05,95.8681,-599.968,0,0
140943.375,97.201,-596.234,0,0
141203.7,98.5738,-592.654,0,0
141464.025,99.974,-589.011,0,0
141724.35,101.584,-585.32,0,0
141984.675,103.443,-581.698,0,0
142245.0,105.448,-578.256,0,0
142505.325,107.573,-575.108,0,0
142765.65,109.554,-572.017,0,0
143025.975,111.469,-569.036,0,0
143286.3,113.298,-565.973,0,0
143546.625,115.152,-562.828,0,0
143806.95,117.218,-559.649,0,0
144067.275,119.403,-556.56,0,0
144327.6,121.609,-553.613,0,0
144587.925,123.759,-550.702,0,0
144848.25,125.955,-547.698,0,0
145108.575,128.286,-544.704,0,0
145368.9,130.73,-541.835,0,0
145629.225,133.126,-539.077,0,0
145889.55,135.475,-536.281,0,0
146149.875,137.901,-533.395,0,0
146410.2,140.492,-530.498,0,0
146670.525,143.148,-527.732,0,0
146930.85,145.829,-524.921,0,0
147191.175,148.588,-522.108,0,0
147451.5,151.457,-519.23,0,0
147711.825,154.543,-516.378,0,0
147972.15,157.687,-513.561,0,0
148232.475,161.016,-510.585,0,0
148492.8,164.751,-507.639,0,0
148753.125,168.748,-504.871,0,0
149013.45,173.031,-502.128,0,0
149273.775,177.9,-499.469,0,0
149534.1,183.417,-497.472,0,0
149794.425,188.917,-496.29,0,0
150054.75,194.288,-495.458,0,0
150315.075,200.004,-494.875,0,0
150575.4,205.998,-495.226,0,0
150835.725,211.637,-496.65,0,0
151096.05,216.567,-498.612,0,0
151356.375,220.934,-500.89,0,0
151616.7,224.85,-503.352,0,0
151877.025,228.458,-506.012,0,0
152137.35,231.703,-509.173,0,0
152397.675,233.96,-512.656,0,0
152658.0,235.594,-515.764,0,0
152918.325,236.878,-518.901,0,0
153178.65,237.513,-521.901,0,0
153438.975,237.752,-524.501,0,0
153699.3,237.726,-526.919,0,0
153959.625,237.382,-529.101,0,0
154219.95,236.597,-531.061,0,0
154480,235.554,-532.384,0,0
154741,234.585,-533.197,0,0
155001,233.854,-533.726,0,0
155261,233.161,-534.23,0,0
155522,232.523,-534.533,0,0
155782,232.125,-534.76,0,0
156042,231.647,-535.425,0,0
156303,230.718,-536.095,0,0
156563,229.157,-536.39,0,0
156823,227.641,-535.94,0,0
157084,226.378,-535.02,0,0
157344,225.261,-533.951,0,0
157604,224.537,-532.503,0,0
157864,224.442,-531.156,0,0
158125,224.245,-530.428,0,0
158385,223.734,-529.34,0,0
158645,223.641,-528.2,0,0
158906,223.343,-527.286,0,0
159166,222.919,-526.066,0,0
159426,222.669,-524.776,0,0
159687,222.675,-523.549,0,0
159947,222.653,-522.273,0,0
160207,222.624,-521.09,0,0
160468,222.277,-519.672,0,0
160728,222.414,-517.905,0,0
160988,222.978,-516.236,0,0
161249,223.524,-514.313,0,0
161509,225.271,-512.36,0,0
161769,227.628,-511.799,0,0
162030,229.616,-512.44,0,0
162290,230.693,-513.634,0,0
162550,231.026,-514.944,0,0
162811,230.497,-516.515,0,0
163071,229.383,-517.422,0,0
163331,228.042,-518.171,0,0
163592,226.254,-519.105,0,0
163852,223.856,-519.385,0,0
164112,221.134,-519.233,0,0
164373,218.116,-518.417,0,0
164633,215.487,-517.048,0,0
164893,212.813,-515.428,0,0
165154,210.107,-513.596,0,0
165414,207.306,-511.013,0,0
165674,204.911,-508.23,0,0
165935,202.825,-505.099,0,0
166195,200.859,-501.908,0,0
166455,199.011,-498.575,0,0
166716,197.271,-495.014,0,0
166976,195.879,-491.005,0,0
167236,195.16,-487.069,0,0
167497,194.187,-483.703,0,0
167757,193.017,-480.009,0,0
168017,191.949,-475.845,0,0
168277,191.271,-471.555,0,0
168538,190.675,-467.208,0,0
168798,190.313,-462.9,0,0
169058,190.155,-458.368,0,0
169319,190.168,-453.966,0,0
169579,190.08,-449.258,0,0
169839,190.457,-444.285,0,0
170100,191.419,-439.467,0,0
170360.075,192.524,-434.941,0,0
170620.4,193.556,-430.695,0,0
170880.725,194.366,-426.421,0,0
171141.05,195.165,-421.72,0,0
171401.375,196.365,-416.934,0,0
171661.7,197.8,-412.2,0,0
171922.025,199.337,-407.568,0,0
172182.35,200.944,-402.837,0,0
172442.675,202.584,-398.099,0,0
172703.0,204.434,-393.1,0,0
172963.325,206.752,-388.085,0,0
173223.65,209.34,-383.337,0,0
173483.975,211.904,-378.713,0,0
173744.3,214.405,-374.061,0,0
174004.625,217.051,-369.061,0,0
174264.95,220.357,-363.92,0,0
174525.275,223.846,-359.048,0,0
174785.6,227.804,-354.346,0,0
175045.925,231.893,-349.946,0,0
175306.25,235.951,-345.769,0,0
175566.575,240.243,-341.375,0,0
175826.9,245.167,-337.146,0,0
176087.225,250.261,-333.511,0,0
176347.55,255.267,-330.153,0,0
176607.875,260.518,-326.916,0,0
176868.2,265.901,-324.086,0,0
177128.525,271.428,-321.523,0,0
177388.85,277.114,-319.464,0,0
177649.175,282.665,-317.826,0,0
177909.5,288.271,-316.671,0,0
178169.825,293.381,-316.179,0,0
178430.15,298.146,-315.655,0,0
178690.475,302.798,-315.468,0,0
178950.8,307.117,-315.756,0,0
179211.125,310.793,-316.366,0,0
179471.45,313.336,-315.215,0,0
179731.775,316.507,-315.613,0,0
179992.1,318.893,-316.311,0,0
180252.425,320.066,-316.669,0,0
180512.75,320.286,-316.113,0,0
180773.075,320.305,-314.166,0,0
181033.4,320.609,-310.947,0,0
181293.725,321.901,-306.907,0,0
181554.05,324.07,-302.759,0,0
181814.375,326.759,-298.745,0,0
182074.7,329.723,-294.569,0,0
182335.025,333.42,-290.399,0,0
182595.35,337.371,-287.052,0,0
182855.675,340.815,-283.941,0,0
183116.0,343.801,-280.176,0,0
183376.325,347.256,-275.663,0,0
183636.65,351.541,-270.886,0,0
183896.975,356.32,-266.324,0,0
184157.3,361.275,-261.81,0,0
184417.625,366.857,-257.122,0,0
184677.95,373.054,-252.57,0,0
184938.275,379.791,-248.656,0,0
185198.6,386.443,-245.15,0,0
185458.925,393.193,-241.851,0,0
185719.25,400.008,-238.567,0,0
185979.575,407.034,-235.472,0,0
186239.9,414.194,-232.219,0,0
186500,421.962,-229.062,0,0
186761,430.241,-226.65,0,0
187021,438.274,-224.503,0,0
187281,446.509,-222.405,0,0
187542,454.994,-220.614,0,0
187802,463.684,-219.236,0,0
188062,472.522,-218.359,0,0
188322,481.132,-217.969,0,0
188583,489.4,-217.914,0,0
188843,497.439,-217.927,0,0
189103,505.166,-217.958,0,0
189364,512.363,-217.744,0,0
189624,519.653,-216.755,0,0
189884,527.741,-215.266,0,0
190145,536.154,-213.979,0,0
190405,545.098,-212.506,0,0
190665,554.594,-211.046,0,0
190926,564.516,-209.731,0,0
191186,575.248,-208.382,0,0
191446,586.907,-207.529,0,0
191707,599.041,-207.472,0,0
191967,611.483,-207.848,0,0
192227,624.587,-208.798,0,0
192488,638.008,-210.654,0,0
192748,651.563,-212.981,0,0
193008,665.808,-215.737,0,0
193269,680.88,-219.634,0,0
193529,696.235,-225.023,0,0
193789,711.5,-232.021,0,0
194050,726.042,-240.49,0,0
194310,739.592,-249.874,0,0
194570,752.487,-259.619,0,0
194831,765.097,-269.95,0,0
195091,777.272,-281.186,0,0
195351,788.465,-293.286,0,0
195612,798.633,-305.73,0,0
195872,807.87,-318.032,0,0
196132,816.9,-330.223,0,0
196393,825.746,-342.75,0,0
196653,834.018,-355.635,0,0
196913,841.677,-368.494,0,0
197174,849.365,-381.09,0,0
197434,857.524,-394.023,0,0
197694,865.958,-408.037,0,0
197955,874.015,-423.514,0,0
198215,880.654,-440.25,0,0
198475,885.766,-457.145,0,0
198735,890.031,-473.951,0,0
198996,893.306,-490.947,0,0
199256,895.73,-507.827,0,0
199516,897.569,-524.422,0,0
199777,899.124,-541.166,0,0
200037,899.934,-558.219,0,0
200297,900.029,-575.54,0,0
200558,899.394,-592.867,0,0
200818,897.997,-610.474,0,0
201078,895.619,-628.455,0,0
201339,891.608,-646.653,0,0
201599,885.898,-664.226,0,0
201859,878.771,-680.758,0,0
202120,871.093,-695.598,0,0
202380.025,863.662,-709.419,0,0
202640.35,856.293,-723.036,0,0
202900.675,848.64,-736.404,0,0
203161.0,840.5,-749.682,0,0
203421.325,831.611,-762.2,0,0
203681.65,822.569,-774.467,0,0
203941.975,812.896,-786.11,0,0
204202.3,802.996,-796.919,0,0
204462.625,793.331,-807.415,0,0
204722.95,783.517,-818.222,0,0
204983.275,772.513,-829.055,0,0
205243.6,760.366,-839.297,0,0
205503.925,747.363,-848.237,0,0
205764.25,733.56,-855.807,0,0
206024.575,719.619,-861.553,0,0
206284.9,706.532,-865.646,0,0
206545.225,694.464,-869.217,0,0
206805.55,682.766,-872.573,0,0
207065.875,671.3,-875.262,0,0
207326.2,659.891,-877.329,0,0
207586.525,648.923,-878.545,0,0
207846.85,638.793,-878.677,0,0
208107.175,630.118,-878.575,0,0
208367.5,622.527,-879.048,0,0
208627.825,615.074,-879.994,0,0
208888.15,608.122,-881.032,0,0
209148.475,601.63,-882.65,0,0
209408.8,595.083,-885.084,0,0
209669.125,587.952,-888.139,0,0
209929.45,580.011,-890.982,0,0
210189.775,571.555,-893.535,0,0
210450.1,562.98,-895.691,0,0
210710.425,554.155,-897.657,0,0
210970.75,545.222,-899.316,0,0
211231.075,535.437,-900.772,0,0
211491.4,525.395,-901.193,0,0
211751.725,515.469,-900.58,0,0
212012.05,506.069,-899.036,0,0
212272.375,497.278,-896.94,0,0
212532.7,489.285,-894.706,0,0
212793.025,481.65,-892.473,0,0
213053.35,474.324,-890.075,0,0
213313.675,467.315,-887.539,0,0
213574.0,460.558,-884.959,0,0
213834.325,454.03,-882.301,0,0
214094.65,447.812,-879.454,0,0
214354.975,441.776,-876.482,0,0
214615.3,436.162,-873.614,0,0
214875.625,430.692,-870.493,0,0
215135.95,425.435,-867.732,0,0
215396.275,420.284,-864.677,0,0
215656.6,415.081,-861.551,0,0
215916.925,410.171,-858.145,0,0
216177.25,405.695,-854.469,0,0
216437.575,401.611,-850.852,0,0
216697.9,397.812,-847.301,0,0
216958.225,394.268,-843.767,0,0
217218.55,391.068,-840.326,0,0
217478.875,388.047,-836.933,0,0
217739.2,385.292,-833.772,0,0
217999.525,382.523,-830.725,0,0
218259.85,379.888,-827.662,0,0
218520,377.403,-824.567,0,0
218780,375.167,-821.48,0,0
219041,373.135,-818.577,0,0
219301,371.238,-815.599,0,0
219561,369.464,-812.766,0,0
219822,367.964,-810.148,0,0
220082,366.518,-807.519,0,0
220342,365.361,-805.164,0,0
220603,364.032,-802.903,0,0
220863,362.77,-800.493,0,0
221123,361.722,-798.123,0,0
221384,360.936,-795.821,0,0
221644,360.378,-793.704,0,0
221904,359.956,-791.957,0,0
222165,359.582,-790.327,0,0
222425,359.217,-788.976,0,0
222685,358.821,-787.809,0,0
222946,358.509,-786.738,0,0
223206,358.013,-785.928,0,0
223466,357.38,-785.154,0,0
223727,356.653,-784.309,0,0
223987,356.017,-783.369,0,0
224247,355.733,-782.479,0,0
224508,355.442,-781.948,0,0
224768,355.087,-781.714,0,0
225028,354.315,-781.529,0,0
225289,353.72,-781.135,0,0
225549,353.02,-780.754,0,0
225809,352.489,-780.389,0,0
226070,351.981,-780.001,0,0
226330,351.545,-779.788,0,0
226590,351.244,-779.607,0,0
226851,351.141,-779.601,0,0
227111,351.043,-779.75,0,0
227371,350.879,-780.239,0,0
227632,350.744,-780.814,0,0
227892,350.648,-781.543,0,0
228152,350.578,-782.651,0,0
228413,350.281,-784.072,0,0
228673,349.832,-785.8,0,0
228933,348.993,-787.666,0,0
229193,347.916,-789.683,0,0
229454,346.42,-791.792,0,0
229714,344.702,-793.875,0,0
229974,342.492,-795.93,0,0
230235,340.081,-797.637,0,0
230495,337.605,-799.086,0,0
230755,335.12,-800.47,0,0
231016,332.607,-801.72,0,0
231276,330.066,-803.049,0,0
231536,327.524,-804.406,0,0
231797,324.673,-805.794,0,0
232057,321.685,-807.08,0,0
232317,318.538,-808.281,0,0
232578,315.194,-809.429,0,0
232838,311.674,-810.348,0,0
233098,308.053,-811.105,0,0
233359,304.356,-811.64,0,0
233619,300.602,-811.882,0,0
233879,297.071,-811.97,0,0
234140,293.464,-811.988,0,0
234400,289.793,-811.95,0,0
234660.3,286.192,-811.67,0,0
234920.625,282.736,-811.336,0,0
235180.95,279.176,-810.836,0,0
235441.275,275.845,-810.331,0,0
235701.6,272.464,-809.83,0,0
235961.925,268.999,-809.314,0,0
236222.25,265.627,-808.64,0,0
236482.575,262.215,-807.987,0,0
236742.9,258.74,-807.258,0,0
237003.225,255.191,-806.399,0,0
237263.55,251.642,-805.361,0,0
237523.875,248.081,-804.16,0,0
237784.2,244.684,-802.737,0,0
238044.525,241.399,-801.197,0,0
238304.85,238.245,-799.606,0,0
238565.175,235.27,-798.085,0,0
238825.5,232.307,-796.511,0,0
239085.825,229.388,-794.925,0,0
239346.15,226.507,-793.356,0,0
239606.475,223.578,-791.79,0,0
239866.8,220.736,-790.081,0,0
240127.125,217.832,-788.24,0,0
240387.45,215.007,-786.336,0,0
240647.775,212.416,-784.328,0,0
240908.1,209.822,-782.34,0,0
241168.425,207.359,-780.307,0,0
241428.75,204.984,-778.24,0,0
241689.075,202.635,-776.22,0,0
241949.4,200.395,-774.079,0,0
242209.725,198.232,-771.879,0,0
242470.05,196.246,-769.709,0,0
242730.375,194.414,-767.625,0,0
242990.7,192.615,-765.55,0,0
243251.025,190.969,-763.536,0,0
243511.35,189.358,-761.626,0,0
243771.675,187.824,-759.805,0,0
244032.0,186.251,-758.128,0,0
244292.325,184.801,-756.549,0,0
244552.65,183.248,-755.064,0,0
244812.975,181.718,-753.639,0,0
245073.3,180.08,-752.258,0,0
245333.625,178.382,-751.028,0,0
245593.95,176.65,-749.995,0,0
245854.275,174.595,-748.951,0,0
246114.6,172.382,-747.862,0,0
246374.925,170.04,-746.567,0,0
246635.25,167.486,-745.271,0,0
246895.575,164.838,-743.716,0,0
247155.9,162.213,-742.008,0,0
247416.225,159.51,-740.121,0,0
247676.55,156.885,-737.991,0,0
247936.875,154.337,-735.755,0,0
248197.2,151.89,-733.376,0,0
248457.525,149.409,-731.033,0,0
248717.85,147.055,-728.527,0,0
248978.175,144.659,-725.904,0,0
249238.5,142.419,-723.148,0,0
249498.825,140.117,-720.243,0,0
249759.15,138.033,-717.312,0,0
250019.475,136.096,-714.325,0,0
250279.8,134.177,-711.075,0,0
250540,132.32,-707.978,0,0
250800,130.662,-704.598,0,0
251061,129.102,-701.124,0,0
251321,127.812,-697.674,0,0
251581,126.684,-694.151,0,0
251842,125.736,-690.736,0,0
252102,124.912,-687.326,0,0
252362,124.207,-684.017,0,0
252623,123.599,-680.766,0,0
252883,123.063,-677.522,0,0
253143,122.555,-674.383,0,0
253404,122.16,-671.276,0,0
253664,121.736,-668.179,0,0
253924,121.363,-665.046,0,0
254185,121.09,-661.87,0,0
254445,120.804,-658.804,0,0
254705,120.657,-655.622,0,0
254966,120.465,-652.409,0,0
255226,120.586,-649.126,0,0
255486,120.747,-645.814,0,0
255747,121.118,-642.571,0,0
256007,121.645,-639.359,0,0
256267,122.314,-636.275,0,0
256528,123.125,-633.342,0,0
256788,123.952,-630.531,0,0
257048,124.805,-627.78,0,0
257309,125.656,-625.057,0,0
257569,126.614,-622.398,0,0
257829,127.632,-619.802,0,0
258090,128.746,-617.246,0,0
258350,129.916,-614.742,0,0
258610,131.129,-612.343,0,0
258871,132.447,-609.988,0,0
259131,133.806,-607.742,0,0
259391,135.273,-605.476,0,0
259651,136.782,-603.42,0,0
259912,138.311,-601.425,0,0
260172,139.986,-599.484,0,0
260432,141.663,-597.719,0,0
260693,143.403,-596.037,0,0
260953,145.158,-594.505,0,0
261213,146.927,-593.069,0,0
261474,148.674,-591.749,0,0
261734,150.437,-590.565,0,0
261994,152.187,-589.467,0,0
262255,153.915,-588.474,0,0
262515,155.659,-587.616,0,0
262775,157.358,-586.85,0,0
263036,158.982,-586.186,0,0
263296,160.55,-585.59,0,0
263556,162.084,-585.071,0,0
263817,163.575,-584.513,0,0
264077,165.118,-584.073,0,0
264337,166.553,-583.733,0,0
264598,168.074,-583.528,0,0
264858,169.457,-583.368,0,0
265118,170.793,-583.316,0,0
265379,172.091,-583.357,0,0
265639,173.267,-583.448,0,0
265899,174.319,-583.566,0,0
266160,175.263,-583.698,0,0
266420,176.159,-583.814,0,0
266680.25,177.011,-583.897,0,0
266940.575,177.825,-584.047,0,0
267200.9,178.572,-584.182,0,0
267461.225,179.278,-584.317,0,0
267721.55,179.938,-584.447,0,0
267981.875,180.602,-584.64,0,0
268242.2,181.195,-584.875,0,0
268502.525,181.639,-585.18,0,0
268762.85,182.002,-585.409,0,0
269023.175,182.225,-585.544,0,0
269283.5,182.42,-585.584,0,0
269543.825,182.602,-585.597,0,0
269804.15,182.742,-585.545,0,0
270064.475,182.808,-585.315,0,0
270324.8,182.925,-585.059,0,0
270585.125,182.994,-584.593,0,0
270845.45,183.279,-583.973,0,0
271105.775,183.662,-583.328,0,0
271366.1,184.174,-582.653,0,0
271626.425,184.835,-582.002,0,0
271886.75,185.611,-581.299,0,0
272147.075,186.516,-580.625,0,0
272407.4,187.566,-580,0,0
272667.725,188.788,-579.403,0,0
272928.05,190.11,-578.913,0,0
273188.375,191.586,-578.497,0,0
273448.7,193.194,-578.199,0,0
273709.025,194.934,-577.979,0,0
273969.35,196.876,-577.842,0,0
274229.675,199.11,-577.941,0,0
274490.0,201.578,-578.393,0,0
274750.325,204.177,-579.289,0,0
275010.65,206.784,-580.682,0,0
275270.975,209.268,-582.536,0,0
275531.3,211.59,-584.873,0,0
275791.625,213.591,-587.611,0,0
276051.95,215.212,-590.789,0,0
276312.275,216.341,-594.266,0,0
276572.6,216.863,-597.871,0,0
276832.925,216.884,-601.463,0,0
277093.25,216.464,-604.909,0,0
277353.575,215.716,-608.233,0,0
277613.9,214.654,-611.415,0,0
277874.225,213.277,-614.487,0,0
278134.55,211.643,-617.376,0,0
278394.875,209.742,-620.036,0,0
278655.2,207.668,-622.438,0,0
278915.525,205.476,-624.592,0,0
279175.85,203.191,-626.587,0,0
279436.175,200.776,-628.43,0,0
279696.5,198.236,-630.063,0,0
279956.825,195.635,-631.466,0,0
280217.15,192.992,-632.636,0,0
280477.475,190.36,-633.623,0,0
280737.8,187.782,-634.428,0,0
280998.125,185.23,-635.112,0,0
281258.45,182.749,-635.721,0,0
281518.775,180.288,-636.33,0,0
281779.1,177.764,-636.887,0,0
282039.425,175.125,-637.428,0,0
282299.75,172.341,-637.861,0,0
282560,169.453,-638.142,0,0
282820,166.408,-638.193,0,0
283081,163.261,-637.96,0,0
283341,160.149,-637.396,0,0
283601,157.192,-636.471,0,0
283862,154.535,-635.276,0,0
284122,152.216,-634.051,0,0
284382,150.156,-632.895,0,0
284643,148.21,-632.049,0,0
284903,146.166,-631.3,0,0
285163,143.902,-630.664,0,0
285424,141.386,-629.917,0,0
285684,138.775,-628.936,0,0
285944,136.046,-627.766,0,0
286205,133.256,-626.344,0,0
286465,130.435,-624.636,0,0
286725,127.652,-622.617,0,0
286986,124.997,-620.286,0,0
287246,122.456,-617.634,0,0
287506,120.107,-614.703,0,0
287767,118.008,-611.471,0,0
288027,116.24,-607.969,0,0
288287,114.842,-604.265,0,0
288548,113.851,-600.352,0,0
288808,113.355,-596.387,0,0
289068,113.309,-592.433,0,0
289329,113.712,-588.6,0,0
289589,114.513,-584.865,0,0
289849,115.749,-581.318,0,0
290109,117.322,-578.021,0,0
290370,119.244,-574.957,0,0
290630,121.479,-572.212,0,0
290890,124.043,-569.789,0,0
291151,126.873,-567.78,0,0
291411,129.928,-566.243,0,0
291671,133.189,-565.273,0,0
291932,136.462,-564.961,0,0
292192,139.588,-565.269,0,0
292452,142.436,-566.127,0,0
292713,144.923,-567.526,0,0
292973,146.886,-569.316,0,0
293233,148.298,-571.343,0,0
293494,149.093,-573.441,0,0
293754,149.341,-575.506,0,0
294014,149.057,-577.368,0,0
294275,148.353,-578.845,0,0
294535,147.332,-579.903,0,0
294795,146.279,-580.418,0,0
295056,145.345,-580.504,0,0
295316,144.674,-580.163,0,0
295576,144.422,-579.592,0,0
295837,144.726,-578.968,0,0
296097,145.611,-578.553,0,0
296357,146.951,-578.661,0,0
296618,148.461,-579.509,0,0
296878,149.773,-581.151,0,0
297138,150.527,-583.379,0,0
297399,150.594,-585.911,0,0
297659,149.947,-588.473,0,0
297919,148.702,-590.8,0,0
298180,147.029,-592.828,0,0
298440,145.04,-594.453,0,0
298700.2,142.907,-595.706,0,0
298960.525,140.732,-596.633,0,0
299220.85,138.552,-597.293,0,0
299481.175,136.352,-597.709,0,0
299741.5,134.181,-597.899,0,0
300001.825,132.055,-597.841,0,0
300262.15,130.008,-597.594,0,0
300522.475,128.107,-597.151,0,0
300782.8,126.386,-596.598,0,0
301043.125,124.778,-595.962,0,0
301303.45,123.332,-595.254,0,0
301563.775,122.043,-594.546,0,0
301824.1,120.884,-593.839,0,0
302084.425,119.831,-593.161,0,0
302344.75,118.896,-592.564,0,0
302605.075,118.079,-592.02,0,0
302865.4,117.312,-591.613,0,0
303125.725,116.568,-591.342,0,0
303386.05,115.787,-591.194,0,0
303646.375,114.914,-591.158,0,0
303906.7,113.927,-591.213,0,0
304167.025,112.83,-591.267,0,0
304427.35,111.584,-591.33,0,0
304687.675,110.283,-591.371,0,0
304948.0,108.859,-591.364,0,0
305208.325,107.29,-591.301,0,0
305468.65,105.632,-591.122,0,0
305728.975,103.914,-590.83,0,0
305989.3,102.198,-590.384,0,0
306249.625,100.472,-589.799,0,0
306509.95,98.7783,-589.133,0,0
306770.275,97.133,-588.359,0,0
307030.6,95.5466,-587.53,0,0
307290.925,93.9913,-586.639,0,0
307551.25,92.478,-585.709,0,0
307811.575,91.0055,-584.721,0,0
308071.9,89.569,-583.703,0,0
308332.225,88.1547,-582.638,0,0
308592.55,86.7919,-581.524,0,0
308852.875,85.4706,-580.347,0,0
309113.2,84.2079,-579.161,0,0
309373.525,83.0238,-577.953,0,0
309633.85,81.8568,-576.735,0,0
309894.175,80.7384,-575.509,0,0
310154.5,79.6465,-574.301,0,0
310414.825,78.5694,-573.087,0,0
310675.15,77.5484,-571.811,0,0
310935.475,76.5264,-570.536,0,0
311195.8,75.5561,-569.232,0,0
311456.125,74.6135,-567.923,0,0
311716.45,73.7101,-566.609,0,0
311976.775,72.8459,-565.276,0,0
312237.1,72.019,-563.934,0,0
312497.425,71.2384,-562.587,0,0
312757.75,70.5112,-561.245,0,0
313018.075,69.7913,-559.91,0,0
313278.4,69.1044,-558.597,0,0
313538.725,68.4369,-557.27,0,0
313799.05,67.8183,-555.954,0,0
314059.375,67.2306,-554.622,0,0
314319.7,66.6312,-553.315,0,0
314580,66.022,-552.043,0,0
314840,65.5384,-550.793,0,0
315101,65.134,-549.457,0,0
315361,64.5773,-548.205,0,0
315621,64.0546,-546.985,0,0
315882,63.6056,-545.684,0,0
316142,63.0868,-544.449,0,0
316402,62.6578,-543.12,0,0
316663,62.2453,-541.864,0,0
316923,61.8481,-540.595,0,0
317183,61.473,-539.33,0,0
317444,61.111,-538.035,0,0
317704,60.7825,-536.773,0,0
317964,60.567,-535.524,0,0
318225,60.2901,-534.31,0,0
318485,60.0139,-533.043,0,0
318745,59.8453,-531.818,0,0
319006,59.5859,-530.668,0,0
319266,59.3952,-529.513,0,0
319526,59.1922,-528.393,0,0
319787,58.9889,-527.259,0,0
320047,58.7764,-526.126,0,0
320307,58.5774,-525.022,0,0
320567,58.3618,-523.999,0,0
320828,58.1358,-522.825,0,0
321088,57.9147,-521.682,0,0
321348,57.6995,-520.623,0,0
321609,57.4772,-519.463,0,0
321869,57.3165,-518.353,0,0
322129,57.1414,-517.134,0,0
322390,56.9284,-516.018,0,0
322650,56.7543,-514.887,0,0
322910,56.6435,-513.662,0,0
323171,56.467,-512.492,0,0
323431,56.3355,-511.306,0,0
323691,56.1725,-510.108,0,0
323952,56.1132,-508.834,0,0
324212,56.0187,-507.548,0,0
324472,55.9727,-506.207,0,0
324733,56.0114,-504.851,0,0
324993,56.1539,-503.487,0,0
325253,56.3456,-502.052,0,0
325514,56.6767,-500.655,0,0
325774,57.1535,-499.381,0,0
326034,57.7361,-498.071,0,0
326295,58.2836,-496.94,0,0
326555,58.9206,-495.916,0,0
326815,59.6753,-494.975,0,0
327076,60.3758,-494.172,0,0
327336,61.022,-493.518,0,0
327596,61.6671,-492.924,0,0
327857,62.1507,-492.366,0,0
328117,62.6391,-491.901,0,0
328377,63.0474,-491.385,0,0
328638,63.4587,-490.871,0,0
328898,63.8694,-490.395,0,0
329158,64.2377,-489.967,0,0
329419,64.7031,-489.537,0,0
329679,65.0751,-489.146,0,0
329939,65.4591,-488.854,0,0
330200,65.8638,-488.623,0,0
330460,66.1657,-488.376,0,0
330720.15,66.4401,-488.272,0,0
330980.475,66.7078,-488.096,0,0
331240.8,66.8232,-488.012,0,0
331501.125,66.9487,-487.985,0,0
331761.45,67.027,-487.983,0,0
332021.775,67.0341,-487.962,0,0
332282.1,66.8906,-488.02,0,0
332542.425,66.698,-488.029,0,0
332802.75,66.3564,-488.018,0,0
333063.075,65.9877,-487.98,0,0
333323.4,65.5393,-487.846,0,0
333583.725,65.0261,-487.611,0,0
333844.05,64.4981,-487.381,0,0
334104.375,63.9304,-486.98,0,0
334364.7,63.3651,-486.538,0,0
334625.025,62.8293,-486.062,0,0
334885.35,62.3935,-485.486,0,0
335145.675,61.9236,-484.936,0,0
335406.0,61.4759,-484.335,0,0
335666.325,61.0455,-483.721,0,0
335926.65,60.6171,-483.148,0,0
336186.975,60.1986,-482.507,0,0
336447.3,59.7934,-481.829,0,0
336707.625,59.3712,-481.119,0,0
336967.95,59.0016,-480.467,0,0
337228.275,58.658,-479.756,0,0
337488.6,58.2928,-479.048,0,0
337748.925,57.953,-478.308,0,0
338009.25,57.5678,-477.544,0,0
338269.575,57.2437,-476.82,0,0
338529.9,56.9502,-476.04,0,0
338790.225,56.6804,-475.218,0,0
339050.55,56.3686,-474.393,0,0
339310.875,56.1328,-473.644,0,0
339571.2,55.8419,-472.816,0,0
339831.525,55.5761,-471.963,0,0
340091.85,55.2737,-471.121,0,0
340352.175,55.0736,-470.27,0,0
340612.5,54.8851,-469.392,0,0
340872.825,54.695,-468.518,0,0
341133.15,54.5204,-467.645,0,0
341393.475,54.3574,-466.763,0,0
341653.8,54.255,-465.823,0,0
341914.125,54.1629,-464.939,0,0
342174.45,54.0217,-464.008,0,0
342434.775,53.9263,-463.118,0,0
342695.1,53.9129,-462.205,0,0
342955.425,53.8531,-461.308,0,0
343215.75,53.8469,-460.405,0,0
343476.075,53.8114,-459.503,0,0
343736.4,53.8439,-458.591,0,0
343996.725,53.891,-457.668,0,0
344257.05,53.9116,-456.795,0,0
344517.375,54.0211,-455.895,0,0
344777.7,54.1911,-454.98,0,0
345038.025,54.264,-454.123,0,0
345298.35,54.4164,-453.234,0,0
345558.675,54.5567,-452.416,0,0
345819.0,54.7526,-451.582,0,0
346079.325,54.9519,-450.771,0,0
346339.65,55.14,-449.95,0,0
346599.975,55.3893,-449.195,0,0
346860,55.6188,-448.385,0,0
347121,55.8369,-447.625,0,0
347381,56.0654,-446.827,0,0
347641,56.291,-446.083,0,0
347902,56.6039,-445.345,0,0
348162,56.8415,-444.609,0,0
348422,57.1674,-443.923,0,0
348683,57.4802,-443.17,0,0
348943,57.8379,-442.489,0,0
349203,58.1762,-441.819,0,0
349464,58.5321,-441.205,0,0
349724,58.9642,-440.621,0,0
349984,59.3046,-439.974,0,0
350245,59.7165,-439.409,0,0
350505,60.09,-438.912,0,0
350765,60.4637,-438.46,0,0
351025,60.8318,-438.01,0,0
351286,61.1864,-437.563,0,0
351546,61.5069,-437.189,0,0
351806,61.8034,-436.825,0,0
352067,62.0913,-436.42,0,0
352327,62.3025,-436.087,0,0
352587,62.5669,-435.661,0,0
352848,62.7982,-435.278,0,0
353108,63.003,-434.913,0,0
353368,63.2013,-434.438,0,0
353629,63.4772,-434.012,0,0
353889,63.6695,-433.619,0,0
354149,63.9232,-433.171,0,0
354410,64.1394,-432.77,0,0
354670,64.3943,-432.348,0,0
354930,64.6309,-432.011,0,0
355191,64.8672,-431.632,0,0
355451,65.1137,-431.209,0,0
355711,65.3296,-430.798,0,0
355972,65.5738,-430.39,0,0
356232,65.8265,-430.019,0,0
356492,66.1014,-429.552,0,0
356753,66.4374,-429.209,0,0
357013,66.7967,-428.82,0,0
357273,67.1592,-428.434,0,0
357534,67.5536,-428.16,0,0
357794,67.918,-427.923,0,0
358054,68.2789,-427.648,0,0
358315,68.6337,-427.437,0,0
358575,69.0387,-427.321,0,0
358835,69.3947,-427.177,0,0
359096,69.7274,-427.03,0,0
359356,70.0093,-427.002,0,0
359616,70.2989,-426.985,0,0
359877,70.5873,-426.959,0,0
360137,70.7974,-426.97,0,0
360397,70.9925,-427.03,0,0
360658,71.0957,-427.036,0,0
360918,71.2302,-427.03,0,0
361178,71.329,-427.041,0,0
361438,71.3955,-427.087,0,0
361699,71.4338,-427.137,0,0
361959,71.4456,-427.052,0,0
362219,71.4687,-427.104,0,0
362480,71.48,-427.166,0,0
362740.1,71.3786,-427.179,0,0
363000.425,71.3863,-427.2,0,0
363260.75,71.2653,-427.218,0,0
363521.075,71.1279,-427.204,0,0
363781.4,71.0019,-427.191,0,0
364041.725,70.8325,-427.174,0,0
364302.05,70.6413,-427.087,0,0
364562.375,70.4391,-426.98,0,0
364822.7,70.2275,-426.873,0,0
365083.025,70.0224,-426.775,0,0
365343.35,69.8098,-426.603,0,0
365603.675,69.6028,-426.402,0,0
365864.0,69.3444,-426.219,0,0
366124.325,69.1968,-426.007,0,0
366384.65,68.9339,-425.766,0,0
366644.975,68.7907,-425.522,0,0
366905.3,68.6114,-425.236,0,0
367165.625,68.4522,-424.948,0,0
367425.95,68.2788,-424.636,0,0
367686.275,68.2252,-424.325,0,0
367946.6,68.183,-424.058,0,0
368206.925,68.1075,-423.743,0,0
368467.25,68.1276,-423.517,0,0
368727.575,68.1812,-423.286,0,0
368987.9,68.156,-423.154,0,0
369248.225,68.1394,-423.069,0,0
369508.55,68.0813,-423.017,0,0
369768.875,68.0176,-422.977,0,0
370029.2,67.7886,-422.916,0,0
370289.525,67.588,-422.87,0,0
370549.85,67.3393,-422.763,0,0
370810.175,67.1117,-422.657,0,0
371070.5,66.8439,-422.479,0,0
371330.825,66.5552,-422.296,0,0
371591.15,66.3039,-422.007,0,0
371851.475,66.0802,-421.825,0,0
372111.8,65.9172,-421.559,0,0
372372.125,65.7527,-421.363,0,0
372632.45,65.611,-421.155,0,0
372892.775,65.4136,-420.96,0,0
373153.1,65.2289,-420.843,0,0
373413.425,65.0036,-420.687,0,0
373673.75,64.7899,-420.491,0,0
373934.075,64.5406,-420.347,0,0
374194.4,64.2743,-420.199,0,0
374454.725,63.9852,-420.078,0,0
374715.05,63.7215,-419.889,0,0
374975.375,63.3613,-419.653,0,0
375235.7,63.0561,-419.468,0,0
375496.025,62.7218,-419.304,0,0
375756.35,62.3858,-419.017,0,0
376016.675,62.0657,-418.753,0,0
376277.0,61.7403,-418.49,0,0
376537.325,61.4349,-418.172,0,0
376797.65,61.1109,-417.89,0,0
377057.975,60.8754,-417.634,0,0
377318.3,60.5999,-417.315,0,0
377578.625,60.3437,-417.134,0,0
377838.95,60.0786,-416.942,0,0
378099.275,59.7521,-416.775,0,0
378359.6,59.3935,-416.596,0,0
378619.925,58.9573,-416.469,0,0
378880,58.45,-416.31,0,0
379141,57.8762,-416.113,0,0
379401,57.3128,-415.815,0,0
379661,56.6082,-415.46,0,0
379922,55.9173,-414.942,0,0
380182,55.2897,-414.313,0,0
380442,54.7466,-413.566,0,0
380703,54.3636,-412.758,0,0
380963,54.0556,-411.906,0,0
381223,53.9629,-411.161,0,0
381483,53.9496,-410.449,0,0
381744,53.9794,-409.907,0,0
382004,54.0371,-409.487,0,0
382264,54.0256,-409.163,0,0
382525,53.9385,-408.933,0,0
382785,53.7877,-408.715,0,0
383045,53.4962,-408.506,0,0
383306,53.2298,-408.228,0,0
383566,52.8312,-407.952,0,0
383826,52.4423,-407.649,0,0
384087,52.0467,-407.271,0,0
384347,51.6635,-406.919,0,0
384607,51.2337,-406.488,0,0
384868,50.7874,-406.054,0,0
385128,50.3643,-405.571,0,0
385388,49.9751,-405.035,0,0
385649,49.5529,-404.528,0,0
385909,49.1056,-403.981,0,0
386169,48.7266,-403.361,0,0
386430,48.3552,-402.763,0,0
386690,47.9797,-402.175,0,0
386950,47.6658,-401.461,0,0
387211,47.3186,-400.885,0,0
387471,47.0229,-400.205,0,0
387731,46.6899,-399.54,0,0
387992,46.4177,-398.833,0,0
388252,46.1622,-398.09,0,0
388512,45.902,-397.382,0,0
388773,45.6937,-396.639,0,0
389033,45.5484,-395.857,0,0
389293,45.4271,-395.149,0,0
389554,45.3506,-394.336,0,0
389814,45.3306,-393.614,0,0
390074,45.3255,-392.925,0,0
390335,45.3894,-392.282,0,0
390595,45.458,-391.673,0,0
390855,45.508,-391.128,0,0
391116,45.6227,-390.639,0,0
391376,45.6282,-390.157,0,0
391636,45.684,-389.809,0,0
391896,45.6509,-389.485,0,0
392157,45.563,-389.134,0,0
392417,45.3509,-388.845,0,0
392677,45.1603,-388.488,0,0
392938,44.8925,-388.141,0,0
393198,44.6058,-387.727,0,0
393458,44.2517,-387.297,0,0
393719,43.8398,-386.777,0,0
393979,43.4658,-386.237,0,0
394239,43.0674,-385.646,0,0
394500,42.6876,-385.024,0,0
394760.05,42.3239,-384.295,0,0
395020.375,41.99,-383.549,0,0
395280.7,41.6988,-382.725,0,0
395541.025,41.4372,-381.949,0,0
395801.35,41.2552,-381.056,0,0
396061.675,41.1105,-380.252,0,0
396322.0,40.9383,-379.405,0,0
396582.325,40.8673,-378.567,0,0
396842.65,40.7429,-377.675,0,0
397102.975,40.7368,-376.864,0,0
397363.3,40.7495,-376.022,0,0
397623.625,40.7903,-375.18,0,0
397883.95,40.8294,-374.366,0,0
398144.275,40.9159,-373.574,0,0
398404.6,40.9984,-372.802,0,0
398664.925,41.0993,-372.015,0,0
398925.25,41.2425,-371.265,0,0
399185.575,41.3815,-370.569,0,0
399445.9,41.5101,-369.848,0,0
399706.225,41.6648,-369.146,0,0
399966.55,41.8505,-368.478,0,0
400006.6,41.8897,-368.381,0,0