File: Accelerated corrosion test data/2025-10-22_18-00-04/sample_8.csv
Frequency (Hz),Impedance (ohms),Phase (Radians),Temperature (C),Humidity (%)
10000.0,303.993,-10972.8,0,0
10260.325,295.92,-10697.6,0,0
10520.65,289.13,-10436.4,0,0
10780.975,282.062,-10187.2,0,0
11041.3,276.014,-9949.67,0,0
11301.625,269.365,-9723.83,0,0
11561.95,263.986,-9506.68,0,0
11822.275,258.351,-9299.35,0,0
12082.6,257.062,-9100.08,0,0
12342.925,253.166,-8914.1,0,0
12603.25,248.867,-8732.53,0,0
12863.575,245.265,-8562.32,0,0
13123.9,236.741,-8396.29,0,0
13384.225,230.237,-8235.7,0,0
13644.55,227.732,-8081.19,0,0
13904.875,220.243,-7931.63,0,0
14165.2,216.548,-7786.5,0,0
14425.525,211.948,-7646.56,0,0
14685.8,207.557,-7512.42,0,0
14946.175,203.761,-7382.93,0,0
15206.5,201.155,-7257.27,0,0
15466.825,197.721,-7136.83,0,0
15727.15,194.425,-7019.68,0,0
15987.5,191.016,-6906.79,0,0
16247.8,188.089,-6797.09,0,0
16508.125,185.312,-6690.73,0,0
16768.45,182.035,-6587.61,0,0
17028.775,179.306,-6487.59,0,0
17289.1,176.856,-6390.51,0,0
17549.425,174.394,-6295.8,0,0
17809.75,172.292,-6203.78,0,0
18070.075,169.746,-6116.12,0,0
18330.4,166.95,-6029.14,0,0
18590.725,165.607,-5943.59,0,0
18851.05,166.929,-5860.92,0,0
19111.375,165.082,-5781.16,0,0
19371.7,166.671,-5706.71,0,0
19632.025,164.176,-5632.95,0,0
19892.35,160.447,-5561.97,0,0
20152.675,158.723,-5489.29,0,0
20413.0,158.679,-5419.88,0,0
20673.3,159.318,-5353.4,0,0
20933.65,154.933,-5291.08,0,0
21193.975,150.803,-5226.5,0,0
21454.3,148.857,-5162.62,0,0
21714.625,147.07,-5099.96,0,0
21974.9,146.26,-5039.91,0,0
22235.275,146.267,-4981.42,0,0
22495.6,145.001,-4925.05,0,0
22755.925,143.505,-4870.93,0,0
23016.25,142.01,-4816.65,0,0
23276.6,137.512,-4764.5,0,0
23536.9,136.363,-4711.57,0,0
23797.225,133.606,-4660.02,0,0
24057.55,131.907,-4609.54,0,0
24317.875,130.77,-4560.21,0,0
24578.2,128.429,-4511.37,0,0
24838.525,127.113,-4463.55,0,0
25098.85,126.044,-4417.14,0,0
25359.175,124.427,-4371.95,0,0
25619.5,123.58,-4326.25,0,0
25879.8,122.518,-4283.19,0,0
26140.1,121.626,-4240.89,0,0
26400.5,120.065,-4198.63,0,0
26660.8,118.594,-4157.3,0,0
26921.1,118.882,-4116.1,0,0
27181.4,119,-4077.13,0,0
27441.8,117.71,-4037.84,0,0
27702.1,117.167,-4001.27,0,0
27962.4,114.752,-3963.51,0,0
28222.7,116.275,-3926.31,0,0
28483.1,114.73,-3890.76,0,0
28743.4,114.33,-3854.8,0,0
29003.7,112.893,-3820.78,0,0
29264,113.287,-3786.9,0,0
29524.4,112.194,-3753.82,0,0
29784.7,111.608,-3720.82,0,0
30045,111.478,-3688.88,0,0
30305.3,110.327,-3657.77,0,0
30565.7,109.322,-3626.81,0,0
30826,107.931,-3595.77,0,0
31086.3,106.642,-3565.45,0,0
31346.6,106.261,-3535.09,0,0
31607,105.681,-3505.66,0,0
31867.3,104.793,-3476.3,0,0
32127.6,104.23,-3447.78,0,0
32387.9,104.134,-3419.38,0,0
32648.3,103.815,-3391.22,0,0
32908.6,104.389,-3364.1,0,0
33168.9,104.009,-3337.13,0,0
33429.2,104.391,-3310.57,0,0
33689.6,104.515,-3285.08,0,0
33949.9,104.784,-3259.84,0,0
34210.2,105.042,-3235.08,0,0
34470.5,105.224,-3210.71,0,0
34730.9,105.886,-3186.35,0,0
34991.2,106.911,-3162.75,0,0
35251.5,107.565,-3139.99,0,0
35511.8,108.373,-3118.09,0,0
35772.2,108.721,-3097.15,0,0
36032.5,108.864,-3076.58,0,0
36292.8,108.899,-3055.66,0,0
36553.1,108.265,-3036.08,0,0
36813.5,106.743,-3015.98,0,0
37073.8,106.387,-2996.48,0,0
37334.1,104.836,-2977.39,0,0
37594.4,102.742,-2958.26,0,0
37854.8,100.801,-2938.57,0,0
38115.1,98.3988,-2919.25,0,0
38375.4,96.5584,-2899.67,0,0
38635.7,94.3736,-2880.06,0,0
38896.1,92.3967,-2860.47,0,0
39156.4,90.742,-2840.7,0,0
39416.7,89.4551,-2821.2,0,0
39677,88.2172,-2802.06,0,0
39937.4,86.7652,-2782.81,0,0
40197.7,86.3773,-2763.37,0,0
40458,86.3895,-2745.09,0,0
40718.3,85.9131,-2727.85,0,0
40978.7,85.084,-2710.07,0,0
41239,84.0123,-2692.53,0,0
41499.3,83.5054,-2674.99,0,0
41759.6,83.255,-2658.2,0,0
42020,82.1358,-2641.34,0,0
42280.275,81.4425,-2624.35,0,0
42540.6,81.3204,-2607.41,0,0
42800.925,81.0851,-2590.9,0,0
43061.25,81.5023,-2574.93,0,0
43321.575,81.4122,-2559.87,0,0
43581.9,81.2216,-2545.2,0,0
43842.225,80.1536,-2530.18,0,0
44102.55,78.9457,-2515.16,0,0
44362.875,78.2763,-2499.9,0,0
44623.2,77.4485,-2484.98,0,0
44883.525,76.8916,-2470.11,0,0
45143.85,76.1884,-2455.4,0,0
45404.175,75.6403,-2440.82,0,0
45664.5,74.9856,-2426.75,0,0
45924.825,74.4388,-2412.45,0,0
46185.15,73.9685,-2398.27,0,0
46445.475,73.4605,-2384.42,0,0
46705.8,72.9711,-2370.55,0,0
46966.125,72.6315,-2356.89,0,0
47226.45,72.3436,-2343.38,0,0
47486.775,71.8585,-2330.1,0,0
47747.1,71.5799,-2316.88,0,0
48007.425,71.2272,-2304.02,0,0
48267.75,70.9793,-2291.05,0,0
48528.075,70.5901,-2278.58,0,0
48788.4,69.9677,-2266.01,0,0
49048.725,69.5895,-2253.49,0,0
49309.05,69.1662,-2241.08,0,0
49569.375,68.78,-2228.76,0,0
49829.7,68.3609,-2216.51,0,0
50090.025,68.1283,-2204.34,0,0
50350.35,67.7472,-2192.55,0,0
50610.675,67.4306,-2180.65,0,0
50871.0,67.1714,-2168.98,0,0
51131.325,66.9959,-2157.36,0,0
51391.65,66.736,-2145.84,0,0
51651.975,66.7789,-2134.45,0,0
51912.3,66.6345,-2123.24,0,0
52172.625,66.5113,-2112.24,0,0
52432.95,66.291,-2101.16,0,0
52693.275,66.3291,-2090.28,0,0
52953.6,66.3975,-2079.62,0,0
53213.925,66.5284,-2069.3,0,0
53474.25,66.8508,-2058.96,0,0
53734.575,66.7376,-2049.49,0,0
53994.9,65.8241,-2039.91,0,0
54255.225,65.3309,-2029.55,0,0
54515.55,64.8496,-2019.73,0,0
54775.875,64.2297,-2009.72,0,0
55036.2,63.7502,-1999.96,0,0
55296.525,62.9794,-1990.2,0,0
55556.85,62.3543,-1980.28,0,0
55817.175,61.8474,-1970.42,0,0
56077.5,61.2629,-1960.58,0,0
56337.825,60.9667,-1950.78,0,0
56598.15,60.5829,-1941.02,0,0
56858.475,60.3789,-1931.38,0,0
57118.8,60.0667,-1921.91,0,0
57379.125,59.9923,-1912.61,0,0
57639.45,59.752,-1903.32,0,0
57899.775,59.5882,-1894.1,0,0
58160.1,59.499,-1885.07,0,0
58420.4,59.3432,-1876.16,0,0
58680.7,59.1776,-1867.19,0,0
58941.1,59.0531,-1858.44,0,0
59201.4,58.8554,-1849.82,0,0
59461.7,58.4923,-1841.22,0,0
59722,58.1612,-1832.72,0,0
59982.4,57.8751,-1824.03,0,0
60242.7,57.6206,-1815.36,0,0
60503,57.5181,-1806.79,0,0
60763.3,57.3765,-1798.37,0,0
61023.7,57.4414,-1789.92,0,0
61284,57.3452,-1781.8,0,0
61544.3,57.3341,-1773.79,0,0
61804.6,57.1648,-1765.71,0,0
62065,56.9459,-1757.53,0,0
62325.3,56.9485,-1749.34,0,0
62585.6,57.064,-1741.4,0,0
62845.9,57.1959,-1733.44,0,0
63106.3,57.4743,-1725.83,0,0
63366.6,57.6901,-1718.51,0,0
63626.9,57.649,-1711.05,0,0
63887.2,57.5978,-1703.69,0,0
64147.6,57.5628,-1696.58,0,0
64407.9,57.4093,-1689.23,0,0
64668.2,57.3838,-1682.06,0,0
64928.5,57.1511,-1674.82,0,0
65188.9,57.1462,-1667.78,0,0
65449.2,56.7546,-1660.82,0,0
65709.5,56.6548,-1653.59,0,0
65969.8,56.5719,-1646.9,0,0
66230.2,56.2972,-1640.01,0,0
66490.5,55.8963,-1633.1,0,0
66750.8,55.3742,-1626.21,0,0
67011.1,55.0886,-1619.04,0,0
67271.5,55.0279,-1612.22,0,0
67531.8,54.788,-1605.4,0,0
67792.1,54.6068,-1598.54,0,0
68052.4,54.3371,-1591.87,0,0
68312.8,54.0199,-1585.16,0,0
68573.1,53.8172,-1578.35,0,0
68833.4,53.6931,-1571.52,0,0
69093.7,53.5751,-1564.79,0,0
69354.1,53.735,-1558.16,0,0
69614.4,53.7726,-1551.61,0,0
69874.7,53.8948,-1545.22,0,0
70135,53.8785,-1538.98,0,0
70395.4,53.9048,-1532.72,0,0
70655.7,53.8217,-1526.52,0,0
70916,53.749,-1520.27,0,0
71176.3,53.7323,-1514.1,0,0
71436.7,53.7685,-1507.92,0,0
71697,53.8588,-1502.1,0,0
71957.3,53.6581,-1496.17,0,0
72217.6,53.5914,-1490.27,0,0
72478,53.441,-1484.55,0,0
72738.3,53.1566,-1478.61,0,0
72998.6,52.8809,-1472.7,0,0
73258.9,52.7064,-1466.64,0,0
73519.3,52.7299,-1460.69,0,0
73779.6,52.5774,-1455.05,0,0
74039.9,52.3477,-1449.33,0,0
74300.225,52.2146,-1443.57,0,0
74560.55,51.9928,-1437.84,0,0
74820.875,51.9602,-1432.09,0,0
75081.2,51.8763,-1426.4,0,0
75341.525,51.7672,-1420.74,0,0
75601.85,51.6572,-1415.15,0,0
75862.175,51.6285,-1409.51,0,0
76122.5,51.6223,-1403.95,0,0
76382.825,51.6347,-1398.5,0,0
76643.15,51.6544,-1393.14,0,0
76903.475,51.4614,-1387.85,0,0
77163.8,51.3802,-1382.47,0,0
77424.125,51.2053,-1377.09,0,0
77684.45,51.1342,-1371.76,0,0
77944.775,51.0351,-1366.49,0,0
78205.1,50.9068,-1361.22,0,0
78465.425,50.6744,-1355.99,0,0
78725.75,50.5207,-1350.59,0,0
78986.075,50.4643,-1345.42,0,0
79246.4,50.3496,-1340.16,0,0
79506.725,50.1303,-1334.88,0,0
79767.05,50.0665,-1329.63,0,0
80027.375,50.017,-1324.4,0,0
80287.7,49.9341,-1319.15,0,0
80548.025,49.9166,-1313.98,0,0
80808.35,49.8989,-1308.8,0,0
81068.675,49.9434,-1303.63,0,0
81329.0,50.1146,-1298.43,0,0
81589.325,50.1971,-1293.46,0,0
81849.65,50.3188,-1288.37,0,0
82109.975,50.4666,-1283.4,0,0
82370.3,50.477,-1278.44,0,0
82630.625,50.7259,-1273.38,0,0
82890.95,51.113,-1268.51,0,0
83151.275,51.3362,-1263.84,0,0
83411.6,51.4268,-1259.09,0,0
83671.925,51.7701,-1254.2,0,0
83932.25,52.2067,-1249.71,0,0
84192.575,52.4711,-1245.47,0,0
84452.9,52.6195,-1241.11,0,0
84713.225,52.5035,-1237.04,0,0
84973.55,51.9831,-1232.58,0,0
85233.875,51.6416,-1227.87,0,0
85494.2,51.4663,-1223.05,0,0
85754.525,51.3877,-1218.3,0,0
86014.85,51.3038,-1213.51,0,0
86275.175,51.4326,-1208.77,0,0
86535.5,51.5271,-1204.03,0,0
86795.825,51.7807,-1199.39,0,0
87056.15,52.0107,-1194.85,0,0
87316.475,52.1159,-1190.39,0,0
87576.8,52.17,-1185.86,0,0
87837.125,52.2738,-1181.32,0,0
88097.45,52.4398,-1176.92,0,0
88357.775,52.4673,-1172.34,0,0
88618.1,52.6667,-1167.78,0,0
88878.425,52.849,-1163.33,0,0
89138.75,52.9063,-1158.68,0,0
89399.075,53.1012,-1154.01,0,0
89659.4,53.5103,-1149.38,0,0
89919.725,53.9393,-1144.68,0,0
90180,54.4541,-1140.09,0,0
90440.4,55.1773,-1135.59,0,0
90700.7,55.9708,-1131,0,0
90961,56.8504,-1126.84,0,0
91221.3,57.9235,-1122.94,0,0
91481.7,58.6617,-1119.38,0,0
91742,59.0227,-1115.79,0,0
92002.3,59.2059,-1111.93,0,0
92262.6,59.5208,-1108.07,0,0
92523,59.648,-1104.09,0,0
92783.3,60.0933,-1099.81,0,0
93043.6,60.7756,-1095.71,0,0
93303.9,61.3879,-1091.84,0,0
93564.3,61.9601,-1088.04,0,0
93824.6,62.6556,-1084.3,0,0
94084.9,63.2489,-1080.59,0,0
94345.2,63.6124,-1077.24,0,0
94605.6,63.7304,-1073.61,0,0
94865.9,63.9965,-1069.86,0,0
95126.2,64.174,-1066.02,0,0
95386.5,64.5575,-1062.04,0,0
95646.9,64.9699,-1058.22,0,0
95907.2,65.2665,-1054.26,0,0
96167.5,65.8226,-1050.34,0,0
96427.8,66.3869,-1046.23,0,0
96688.2,67.3077,-1042.33,0,0
96948.5,68.0555,-1038.66,0,0
97208.8,68.7683,-1034.9,0,0
97469.1,69.6266,-1031.16,0,0
97729.5,70.5193,-1027.4,0,0
97989.8,71.6538,-1023.74,0,0
98250.1,72.8007,-1020.25,0,0
98510.4,74.0083,-1016.92,0,0
98770.8,75.235,-1013.87,0,0
99031.1,76.2461,-1011.02,0,0
99291.4,76.9891,-1008.16,0,0
99551.7,77.6746,-1005.04,0,0
99812.1,78.5938,-1001.84,0,0
100072,79.5861,-998.813,0,0
100333,80.7816,-995.99,0,0
100593,81.8441,-993.329,0,0
100853,82.8326,-990.786,0,0
101114,83.8231,-988.386,0,0
101374,84.5724,-986.142,0,0
101634,85.3275,-983.929,0,0
101895,85.8254,-981.842,0,0
102155,86.1161,-979.698,0,0
102415,86.3099,-977.553,0,0
102676,86.3906,-975.208,0,0
102936,86.4507,-972.852,0,0
103196,86.5544,-970.387,0,0
103457,86.725,-967.965,0,0
103717,86.8403,-965.636,0,0
103977,86.906,-963.465,0,0
104238,86.697,-961.26,0,0
104498,86.3597,-958.911,0,0
104758,85.8727,-956.427,0,0
105019,85.4108,-953.67,0,0
105279,85.0836,-950.705,0,0
105539,84.9613,-947.769,0,0
105800,84.9395,-944.915,0,0
106060,84.9136,-942.041,0,0
106320.175,84.9892,-939.186,0,0
106580.5,85.1068,-936.489,0,0
106840.825,85.0811,-933.866,0,0
107101.15,85.0247,-931.123,0,0
107361.475,85.0417,-928.485,0,0
107621.8,84.8546,-925.933,0,0
107882.125,84.4895,-923.004,0,0
108142.45,84.3715,-919.962,0,0
108402.775,84.3836,-916.879,0,0
108663.1,84.5905,-913.826,0,0
108923.425,84.8719,-910.857,0,0
109183.75,85.2875,-908.017,0,0
109444.075,85.6776,-905.297,0,0
109704.4,86.0625,-902.722,0,0
109964.725,86.3723,-900.252,0,0
110225.05,86.5197,-897.771,0,0
110485.375,86.6684,-895.22,0,0
110745.7,86.908,-892.824,0,0
111006.025,86.9213,-890.338,0,0
111266.35,87.0266,-887.734,0,0
111526.675,87.1454,-885.177,0,0
111787.0,87.4381,-882.667,0,0
112047.325,87.5837,-880.276,0,0
112307.65,87.7952,-877.861,0,0
112567.975,87.8307,-875.575,0,0
112828.3,87.8811,-873.213,0,0
113088.625,87.8954,-870.87,0,0
113348.95,87.8697,-868.582,0,0
113609.275,87.8076,-866.185,0,0
113869.6,87.7293,-863.753,0,0
114129.925,87.7055,-861.353,0,0
114390.25,87.6778,-858.878,0,0
114650.575,87.7383,-856.641,0,0
114910.9,87.5833,-854.27,0,0
115171.225,87.5969,-851.963,0,0
115431.55,87.4655,-849.751,0,0
115691.875,87.1391,-847.534,0,0
115952.2,86.7835,-845.077,0,0
116212.525,86.4621,-842.626,0,0
116472.85,86.1104,-840.07,0,0
116733.175,85.8192,-837.335,0,0
116993.5,85.7058,-834.608,0,0
117253.825,85.754,-831.972,0,0
117514.15,85.7967,-829.388,0,0
117774.475,85.8485,-826.948,0,0
118034.8,85.8179,-824.547,0,0
118295.125,85.6835,-822.171,0,0
118555.45,85.5915,-819.688,0,0
118815.775,85.5317,-817.268,0,0
119076.1,85.4197,-814.897,0,0
119336.425,85.2156,-812.487,0,0
119596.75,85.0157,-810.048,0,0
119857.075,84.8983,-807.552,0,0
120117.4,84.6145,-805.071,0,0
120377.725,84.3892,-802.512,0,0
120638.05,84.2321,-799.84,0,0
120898.375,84.2417,-797.169,0,0
121158.7,84.3248,-794.718,0,0
121419.025,84.2995,-792.33,0,0
121679.35,84.1651,-789.932,0,0
121939.675,84.0141,-787.479,0,0
122200.0,83.9019,-784.987,0,0
122460,83.8478,-782.578,0,0
122721,83.7348,-780.181,0,0
122981,83.5351,-777.833,0,0
123241,83.2886,-775.39,0,0
123502,83.0271,-772.893,0,0
123762,82.8286,-770.416,0,0
124022,82.5808,-767.872,0,0
124283,82.3961,-765.359,0,0
124543,82.1545,-762.86,0,0
124803,81.8741,-760.316,0,0
125064,81.5682,-757.706,0,0
125324,81.3639,-755.083,0,0
125584,81.0744,-752.434,0,0
125845,80.7965,-749.769,0,0
126105,80.5738,-747.01,0,0
126365,80.3708,-744.249,0,0
126626,80.2314,-741.475,0,0
126886,80.1258,-738.658,0,0
127146,80.0153,-735.837,0,0
127406,79.9261,-733.096,0,0
127667,79.8145,-730.306,0,0
127927,79.8225,-727.463,0,0
128187,79.9021,-724.641,0,0
128448,79.958,-721.932,0,0
128708,79.9382,-719.246,0,0
128968,79.8968,-716.5,0,0
129229,79.8979,-713.752,0,0
129489,79.8833,-710.985,0,0
129749,79.8059,-708.115,0,0
130010,79.8064,-705.125,0,0
130270,79.943,-702.046,0,0
130530,80.3089,-699.067,0,0
130791,80.7857,-696.237,0,0
131051,81.193,-693.549,0,0
131311,81.5773,-690.969,0,0
131572,81.8551,-688.475,0,0
131832,81.9868,-685.869,0,0
132092,82.1643,-683.229,0,0
132353,82.3678,-680.546,0,0
132613,82.6033,-677.939,0,0
132873,82.7617,-675.372,0,0
133134,82.8215,-672.8,0,0
133394,82.8728,-670.092,0,0
133654,82.9179,-667.301,0,0
133915,83.0352,-664.417,0,0
134175,83.3081,-661.447,0,0
134435,83.6621,-658.648,0,0
134696,83.9701,-655.85,0,0
134956,84.3658,-653.052,0,0
135216,84.8268,-650.31,0,0
135477,85.3018,-647.593,0,0
135737,85.8428,-645.04,0,0
135997,86.3003,-642.668,0,0
136258,86.5035,-640.349,0,0
136518,86.6074,-637.912,0,0
136778,86.6763,-635.417,0,0
137039,86.6122,-632.947,0,0
137299,86.4417,-630.292,0,0
137559,86.2566,-627.518,0,0
137819,86.0731,-624.574,0,0
138080,85.8801,-621.467,0,0
138340.125,85.8621,-618.129,0,0
138600.45,86.1531,-614.748,0,0
138860.775,86.5576,-611.51,0,0
139121.1,87.0143,-608.375,0,0
139381.425,87.428,-605.323,0,0
139641.75,87.7881,-602.161,0,0
139902.075,88.262,-598.941,0,0
140162.4,88.8331,-595.902,0,0
140422.725,89.217,-592.885,0,0
140683.05,89.5547,-589.683,0,0
140943.375,90.1118,-586.397,0,0
141203.7,90.7404,-583.245,0,0
141464.025,91.236,-580.217,0,0
141724.35,91.5156,-577.018,0,0
141984.675,91.9007,-573.512,0,0
142245.0,92.5019,-569.921,0,0
142505.325,93.2518,-566.362,0,0
142765.65,94.0814,-562.829,0,0
143025.975,94.9586,-559.27,0,0
143286.3,95.9912,-555.678,0,0
143546.625,97.1367,-552.244,0,0
143806.95,98.1318,-548.925,0,0
144067.275,99.0426,-545.423,0,0
144327.6,100.048,-541.8,0,0
144587.925,101.189,-538.021,0,0
144848.25,102.659,-534.237,0,0
145108.575,104.161,-530.624,0,0
145368.9,105.8,-526.998,0,0
145629.225,107.464,-523.554,0,0
145889.55,109.095,-520.022,0,0
146149.875,110.847,-516.389,0,0
146410.2,112.852,-512.813,0,0
146670.525,115.047,-509.405,0,0
146930.85,117.274,-506.348,0,0
147191.175,119.224,-503.448,0,0
147451.5,120.929,-500.445,0,0
147711.825,122.564,-497.225,0,0
147972.15,124.249,-493.779,0,0
148232.475,126.078,-490.092,0,0
148492.8,128.172,-486.349,0,0
148753.125,130.485,-482.54,0,0
149013.45,132.977,-478.752,0,0
149273.775,135.587,-474.856,0,0
149534.1,138.47,-470.661,0,0
149794.425,141.82,-466.522,0,0
150054.75,145.916,-462.477,0,0
150315.075,150.476,-458.79,0,0
150575.4,155.353,-455.582,0,0
150835.725,160.629,-452.864,0,0
151096.05,166.194,-450.851,0,0
151356.375,171.669,-449.558,0,0
151616.7,176.981,-449.005,0,0
151877.025,181.931,-449.07,0,0
152137.35,186.346,-449.501,0,0
152397.675,190.188,-450.41,0,0
152658.0,193.483,-450.988,0,0
152918.325,196.597,-451.752,0,0
153178.65,199.215,-452.672,0,0
153438.975,201.233,-453.295,0,0
153699.3,202.925,-453.341,0,0
153959.625,205.171,-452.729,0,0
154219.95,208.101,-452.995,0,0
154480,209.87,-453.504,0,0
154741,211.636,-452.91,0,0
155001,214.642,-452.226,0,0
155261,218.098,-452.499,0,0
155522,221.611,-454.032,0,0
155782,224.296,-456.53,0,0
156042,225.844,-459.664,0,0
156303,225.906,-462.657,0,0
156563,224.682,-464.971,0,0
156823,222.626,-466.253,0,0
157084,220.262,-465.923,0,0
157344,218.35,-464.364,0,0
157604,217.555,-461.822,0,0
157864,218.073,-459.138,0,0
158125,219.52,-457.266,0,0
158385,220.986,-456.014,0,0
158645,222.422,-455.194,0,0
158906,223.664,-454.421,0,0
159166,225.527,-453.869,0,0
159426,227.044,-454.63,0,0
159687,227.302,-456.015,0,0
159947,226.325,-456.79,0,0
160207,224.843,-456.807,0,0
160468,222.739,-456.087,0,0
160728,220.54,-454.025,0,0
160988,218.86,-450.766,0,0
161249,218.196,-446.667,0,0
161509,219.173,-442.28,0,0
161769,221.344,-438.686,0,0
162030,223.828,-435.882,0,0
162290,226.687,-433.857,0,0
162550,229.435,-432.677,0,0
162811,231.736,-432.098,0,0
163071,233.573,-431.594,0,0
163331,235.46,-431.183,0,0
163592,236.791,-431.482,0,0
163852,237.383,-431.13,0,0
164112,238.336,-430.348,0,0
164373,239.778,-429.693,0,0
164633,241.28,-429.769,0,0
164893,242.279,-430.302,0,0
165154,242.779,-431.024,0,0
165414,242.564,-431.788,0,0
165674,242.181,-432.158,0,0
165935,241.362,-432.767,0,0
166195,240.101,-433.042,0,0
166455,238.365,-433.334,0,0
166716,235.679,-433.19,0,0
166976,232.485,-431.833,0,0
167236,229.8,-429.272,0,0
167497,228.04,-426.45,0,0
167757,226.384,-423.923,0,0
168017,224.678,-421.171,0,0
168277,223.038,-418.332,0,0
168538,221.07,-415.359,0,0
168798,218.963,-411.516,0,0
169058,217.422,-407.035,0,0
169319,216.519,-402.51,0,0
169579,215.87,-398.212,0,0
169839,215.091,-393.724,0,0
170100,214.609,-388.969,0,0
170360.075,214.328,-384.159,0,0
170620.4,214.267,-379.079,0,0
170880.725,214.554,-373.992,0,0
171141.05,214.784,-368.92,0,0
171401.375,215.051,-363.402,0,0
171661.7,215.906,-357.35,0,0
171922.025,217.635,-351.391,0,0
172182.35,219.863,-345.861,0,0
172442.675,222.167,-340.875,0,0
172703.0,224.399,-335.783,0,0
172963.325,226.925,-330.865,0,0
173223.65,229.55,-326.224,0,0
173483.975,232.08,-321.726,0,0
173744.3,234.53,-317.355,0,0
174004.625,236.911,-312.919,0,0
174264.95,239.436,-308.466,0,0
174525.275,241.743,-304.301,0,0
174785.6,243.646,-299.882,0,0
175045.925,245.46,-294.928,0,0
175306.25,247.469,-289.425,0,0
175566.575,249.954,-283.585,0,0
175826.9,252.986,-277.649,0,0
176087.225,256.525,-271.711,0,0
176347.55,260.354,-266.108,0,0
176607.875,264.301,-260.729,0,0
176868.2,268.116,-255.51,0,0
177128.525,271.686,-250.206,0,0
177388.85,275.105,-244.307,0,0
177649.175,278.903,-237.618,0,0
177909.5,283.573,-230.533,0,0
178169.825,289.02,-223.325,0,0
178430.15,295.271,-216.636,0,0
178690.475,301.78,-210.052,0,0
178950.8,308.861,-203.364,0,0
179211.125,316.957,-196.937,0,0
179471.45,325.121,-191.73,0,0
179731.775,333.17,-186.348,0,0
179992.1,342.177,-181.09,0,0
180252.425,351.349,-176.924,0,0
180512.75,360.219,-173.041,0,0
180773.075,369.095,-168.997,0,0
181033.4,378.402,-165.07,0,0
181293.725,388.028,-161.23,0,0
181554.05,398.351,-157.373,0,0
181814.375,409.62,-154.161,0,0
182074.7,421.594,-151.985,0,0
182335.025,433.902,-151.12,0,0
182595.35,445.82,-151.732,0,0
182855.675,456.952,-153.266,0,0
183116.0,467.39,-155.595,0,0
183376.325,476.563,-158.376,0,0
183636.65,484.36,-160.971,0,0
183896.975,491.204,-162.493,0,0
184157.3,497.933,-162.473,0,0
184417.625,506.181,-161.401,0,0
184677.95,515.799,-160.616,0,0
184938.275,526.431,-160.889,0,0
185198.6,537.22,-162.47,0,0
185458.925,547.527,-165.163,0,0
185719.25,556.949,-168.407,0,0
185979.575,565.848,-171.113,0,0
186239.9,575.318,-174.008,0,0
186500,584.552,-177.724,0,0
186761,593.147,-181.553,0,0
187021,601.616,-185.479,0,0
187281,609.669,-189.555,0,0
187542,617.546,-193.489,0,0
187802,625.403,-197.202,0,0
188062,633.552,-201.152,0,0
188322,641.606,-205.646,0,0
188583,649.003,-210.557,0,0
188843,655.778,-215.379,0,0
189103,662.13,-219.746,0,0
189364,668.344,-223.515,0,0
189624,674.89,-226.782,0,0
189884,681.836,-230.044,0,0
190145,688.765,-233.029,0,0
190405,696.353,-235.506,0,0
190665,704.967,-238.116,0,0
190926,714.734,-241.449,0,0
191186,724.834,-246.657,0,0
191446,733.807,-253.154,0,0
191707,741.172,-259.923,0,0
191967,747.287,-265.772,0,0
192227,753.229,-270.058,0,0
192488,759.874,-273.338,0,0
192748,767.333,-275.541,0,0
193008,776.794,-277.036,0,0
193269,788.268,-279.485,0,0
193529,800.646,-282.824,0,0
193789,814.633,-286.967,0,0
194050,829.838,-293.211,0,0
194310,845.093,-301.316,0,0
194570,860.373,-311.054,0,0
194831,875.569,-322.107,0,0
195091,890.558,-334.781,0,0
195351,905.483,-348.925,0,0
195612,920.33,-364.774,0,0
195872,934.886,-383.171,0,0
196132,947.391,-403.987,0,0
196393,957.52,-425.88,0,0
196653,966.11,-448.312,0,0
196913,973.363,-471.356,0,0
197174,979.342,-495.121,0,0
197434,983.733,-520.3,0,0
197694,985.88,-546.484,0,0
197955,985.486,-572.965,0,0
198215,982.654,-599.442,0,0
198475,977.497,-625.63,0,0
198735,969.703,-651.023,0,0
198996,959.647,-675.236,0,0
199256,947.659,-697.932,0,0
199516,933.987,-719.022,0,0
199777,918.501,-737.895,0,0
200037,902.658,-754.399,0,0
200297,886.647,-768.727,0,0
200558,870.896,-781.506,0,0
200818,855.92,-792.946,0,0
201078,841.308,-803.992,0,0
201339,826.742,-814.748,0,0
201599,811.621,-825.399,0,0
201859,795.416,-836.391,0,0
202120,776.814,-846.301,0,0
202380.025,756.299,-852.999,0,0
202640.35,735.972,-856.27,0,0
202900.675,717.153,-856.52,0,0
203161.0,700.586,-855.217,0,0
203421.325,685.784,-852.955,0,0
203681.65,672.955,-850.464,0,0
203941.975,661.265,-848.872,0,0
204202.3,649.377,-847.67,0,0
204462.625,637.391,-845.818,0,0
204722.95,625.676,-843.067,0,0
204983.275,614.417,-840.035,0,0
205243.6,603.26,-836.078,0,0
205503.925,592.567,-830.889,0,0
205764.25,583.201,-824.502,0,0
206024.575,575.149,-817.634,0,0
206284.9,568.765,-810.496,0,0
206545.225,563.72,-803.336,0,0
206805.55,560.295,-796.819,0,0
207065.875,557.67,-791.11,0,0
207326.2,555.434,-786.074,0,0
207586.525,553.749,-781.4,0,0
207846.85,552.795,-777.327,0,0
208107.175,552.14,-774.042,0,0
208367.5,551.46,-771.489,0,0
208627.825,550.601,-769.277,0,0
208888.15,549.64,-767.314,0,0
209148.475,548.549,-765.356,0,0
209408.8,547.477,-763.087,0,0
209669.125,546.748,-760.598,0,0
209929.45,546.879,-757.999,0,0
210189.775,547.759,-755.917,0,0
210450.1,548.986,-754.327,0,0
210710.425,550.485,-753.411,0,0
210970.75,552.214,-753.004,0,0
211231.075,553.94,-752.995,0,0
211491.4,556.045,-753.513,0,0
211751.725,558.137,-754.78,0,0
212012.05,560.015,-756.743,0,0
212272.375,561.567,-759.146,0,0
212532.7,562.988,-761.952,0,0
212793.025,564.049,-765.198,0,0
213053.35,564.806,-768.778,0,0
213313.675,565.162,-772.585,0,0
213574.0,565.249,-776.569,0,0
213834.325,565.047,-780.784,0,0
214094.65,564.47,-785.024,0,0
214354.975,563.567,-789.376,0,0
214615.3,562.55,-794.038,0,0
214875.625,561.205,-798.606,0,0
215135.95,559.438,-803.279,0,0
215396.275,557.38,-807.984,0,0
215656.6,555.12,-813.008,0,0
215916.925,552.076,-818.071,0,0
216177.25,548.619,-822.32,0,0
216437.575,545.153,-826.783,0,0
216697.9,541.452,-831.023,0,0
216958.225,537.621,-835.172,0,0
217218.55,533.597,-839.184,0,0
217478.875,529.481,-843.156,0,0
217739.2,525.235,-847.242,0,0
217999.525,520.581,-851.351,0,0
218259.85,515.515,-855.289,0,0
218520,510.039,-859.037,0,0
218780,504.101,-862.376,0,0
219041,497.973,-865.154,0,0
219301,492.044,-867.645,0,0
219561,485.892,-869.864,0,0
219822,479.483,-871.763,0,0
220082,472.933,-873.404,0,0
220342,466.285,-874.567,0,0
220603,459.775,-875.078,0,0
220863,453.305,-875.16,0,0
221123,447.006,-874.659,0,0
221384,441.158,-873.833,0,0
221644,435.728,-872.753,0,0
221904,430.597,-871.636,0,0
222165,425.746,-870.433,0,0
222425,421.085,-868.955,0,0
222685,416.866,-867.284,0,0
222946,412.974,-865.627,0,0
223206,409.576,-863.862,0,0
223466,406.624,-862.376,0,0
223727,403.872,-861.201,0,0
223987,401.365,-860.304,0,0
224247,398.784,-859.723,0,0
224508,396.269,-859.062,0,0
224768,393.953,-858.35,0,0
225028,391.936,-858.14,0,0
225289,389.978,-858.368,0,0
225549,387.84,-858.84,0,0
225809,385.499,-859.72,0,0
226070,382.778,-860.745,0,0
226330,380.002,-861.842,0,0
226590,376.858,-862.985,0,0
226851,373.467,-864.193,0,0
227111,369.703,-865.338,0,0
227371,365.668,-866.206,0,0
227632,361.409,-866.75,0,0
227892,357.168,-866.829,0,0
228152,353.275,-866.6,0,0
228413,349.8,-866.385,0,0
228673,346.455,-866.435,0,0
228933,343.288,-866.78,0,0
229193,339.907,-867.441,0,0
229454,336.316,-868.246,0,0
229714,332.326,-869.173,0,0
229974,328.132,-870.082,0,0
230235,323.535,-870.815,0,0
230495,318.79,-871.527,0,0
230755,313.69,-871.849,0,0
231016,308.556,-872.025,0,0
231276,303.362,-872.023,0,0
231536,297.897,-871.754,0,0
231797,292.435,-871.162,0,0
232057,287.028,-870.308,0,0
232317,281.574,-869.465,0,0
232578,275.942,-868.422,0,0
232838,270.215,-867.075,0,0
233098,264.439,-865.341,0,0
233359,258.64,-863.307,0,0
233619,252.885,-860.841,0,0
233879,247.345,-858.098,0,0
234140,241.89,-855.006,0,0
234400,236.591,-851.666,0,0
234660.3,231.576,-847.889,0,0
234920.625,226.96,-843.885,0,0
235180.95,222.662,-839.856,0,0
235441.275,218.518,-835.657,0,0
235701.6,214.759,-831.354,0,0
235961.925,211.344,-826.856,0,0
236222.25,208.273,-822.449,0,0
236482.575,205.365,-818.118,0,0
236742.9,202.771,-813.754,0,0
237003.225,200.351,-809.471,0,0
237263.55,198.045,-805.239,0,0
237523.875,195.9,-801.018,0,0
237784.2,193.923,-796.741,0,0
238044.525,192.178,-792.346,0,0
238304.85,190.712,-787.943,0,0
238565.175,189.732,-783.508,0,0
238825.5,189.064,-779.365,0,0
239085.825,188.776,-775.45,0,0
239346.15,188.579,-771.87,0,0
239606.475,188.528,-768.633,0,0
239866.8,188.479,-765.518,0,0
240127.125,188.496,-762.809,0,0
240387.45,188.51,-760.275,0,0
240647.775,188.534,-757.973,0,0
240908.1,188.537,-755.987,0,0
241168.425,188.295,-754.252,0,0
241428.75,187.814,-752.727,0,0
241689.075,187.128,-751.184,0,0
241949.4,186.16,-749.641,0,0
242209.725,185.112,-747.983,0,0
242470.05,183.905,-746.225,0,0
242730.375,182.677,-744.327,0,0
242990.7,181.454,-742.343,0,0
243251.025,180.236,-740.393,0,0
243511.35,178.917,-738.35,0,0
243771.675,177.557,-736.081,0,0
244032.0,176.339,-733.652,0,0
244292.325,175.28,-731.142,0,0
244552.65,174.446,-728.628,0,0
244812.975,173.596,-726.192,0,0
245073.3,172.832,-723.712,0,0
245333.625,172.058,-721.211,0,0
245593.95,171.482,-718.604,0,0
245854.275,171.143,-715.967,0,0
246114.6,171.068,-713.538,0,0
246374.925,171.095,-711.318,0,0
246635.25,171.136,-709.396,0,0
246895.575,171.002,-707.616,0,0
247155.9,170.757,-705.823,0,0
247416.225,170.42,-704.069,0,0
247676.55,170.061,-702.269,0,0
247936.875,169.785,-700.459,0,0
248197.2,169.36,-698.72,0,0
248457.525,168.949,-696.93,0,0
248717.85,168.504,-695.162,0,0
248978.175,168.166,-693.286,0,0
249238.5,167.719,-691.423,0,0
249498.825,167.428,-689.469,0,0
249759.15,167.065,-687.495,0,0
250019.475,166.889,-685.513,0,0
250279.8,166.776,-683.489,0,0
250540,166.717,-681.486,0,0
250800,166.714,-679.54,0,0
251061,166.939,-677.574,0,0
251321,167.236,-675.613,0,0
251581,167.673,-673.831,0,0
251842,168.161,-672.124,0,0
252102,168.803,-670.651,0,0
252362,169.471,-669.268,0,0
252623,170.162,-668.143,0,0
252883,170.826,-667.278,0,0
253143,171.252,-666.691,0,0
253404,171.498,-666.125,0,0
253664,171.559,-665.652,0,0
253924,171.458,-665.227,0,0
254185,171.154,-664.814,0,0
254445,170.694,-664.376,0,0
254705,170.095,-663.795,0,0
254966,169.257,-663.261,0,0
255226,168.285,-662.5,0,0
255486,167.153,-661.547,0,0
255747,165.992,-660.335,0,0
256007,164.923,-658.94,0,0
256267,163.897,-657.436,0,0
256528,162.887,-655.808,0,0
256788,161.908,-653.992,0,0
257048,161.014,-651.996,0,0
257309,160.316,-649.843,0,0
257569,159.79,-647.613,0,0
257829,159.423,-645.351,0,0
258090,159.218,-643.013,0,0
258350,159.176,-640.655,0,0
258610,159.305,-638.289,0,0
258871,159.659,-635.931,0,0
259131,160.202,-633.664,0,0
259391,160.993,-631.513,0,0
259651,161.932,-629.583,0,0
259912,162.855,-627.969,0,0
260172,163.742,-626.395,0,0
260432,164.503,-624.977,0,0
260693,165.296,-623.508,0,0
260953,166.136,-622.136,0,0
261213,166.996,-620.869,0,0
261474,167.794,-619.7,0,0
261734,168.53,-618.599,0,0
261994,169.183,-617.531,0,0
262255,169.691,-616.513,0,0
262515,170.103,-615.353,0,0
262775,170.491,-613.989,0,0
263036,171.039,-612.49,0,0
263296,171.66,-611.007,0,0
263556,172.378,-609.536,0,0
263817,173.078,-608.057,0,0
264077,173.845,-606.503,0,0
264337,174.686,-604.918,0,0
264598,175.573,-603.171,0,0
264858,176.577,-601.381,0,0
265118,177.874,-599.439,0,0
265379,179.256,-597.502,0,0
265639,180.958,-595.49,0,0
265899,182.968,-593.498,0,0
266160,185.311,-591.598,0,0
266420,188.006,-589.852,0,0
266680.25,190.936,-588.312,0,0
266940.575,194.218,-587.012,0,0
267200.9,197.711,-586.036,0,0
267461.225,201.493,-585.427,0,0
267721.55,205.416,-585.3,0,0
267981.875,209.423,-585.62,0,0
268242.2,213.424,-586.521,0,0
268502.525,217.234,-587.725,0,0
268762.85,220.974,-589.231,0,0
269023.175,224.615,-591.001,0,0
269283.5,228.18,-593.061,0,0
269543.825,231.739,-595.529,0,0
269804.15,235.258,-598.357,0,0
270064.475,238.74,-601.66,0,0
270324.8,241.872,-605.535,0,0
270585.125,244.72,-609.913,0,0
270845.45,246.986,-614.64,0,0
271105.775,248.78,-619.687,0,0
271366.1,250.064,-624.821,0,0
271626.425,250.943,-630.113,0,0
271886.75,251.45,-635.562,0,0
272147.075,251.51,-641.212,0,0
272407.4,251.103,-647.085,0,0
272667.725,250.025,-653.105,0,0
272928.05,248.274,-659.227,0,0
273188.375,245.684,-665.3,0,0
273448.7,242.302,-671.101,0,0
273709.025,238.164,-676.557,0,0
273969.35,233.433,-681.314,0,0
274229.675,228.247,-685.462,0,0
274490.0,222.789,-688.958,0,0
274750.325,217.115,-691.725,0,0
275010.65,211.366,-693.86,0,0
275270.975,205.718,-695.531,0,0
275531.3,200.068,-696.677,0,0
275791.625,194.538,-697.36,0,0
276051.95,189.08,-697.654,0,0
276312.275,183.703,-697.5,0,0
276572.6,178.567,-696.988,0,0
276832.925,173.59,-696.129,0,0
277093.25,168.88,-695.013,0,0
277353.575,164.364,-693.61,0,0
277613.9,160.081,-692.022,0,0
277874.225,156.002,-690.265,0,0
278134.55,152.081,-688.364,0,0
278394.875,148.295,-686.257,0,0
278655.2,144.699,-683.92,0,0
278915.525,141.359,-681.358,0,0
279175.85,138.362,-678.632,0,0
279436.175,135.622,-675.821,0,0
279696.5,133.195,-672.949,0,0
279956.825,131.084,-670.006,0,0
280217.15,129.261,-667.097,0,0
280477.475,127.727,-664.247,0,0
280737.8,126.486,-661.507,0,0
280998.125,125.416,-658.888,0,0
281258.45,124.519,-656.43,0,0
281518.775,123.754,-654.094,0,0
281779.1,123.069,-651.88,0,0
282039.425,122.534,-649.747,0,0
282299.75,122.133,-647.763,0,0
282560,121.799,-646.013,0,0
282820,121.445,-644.454,0,0
283081,120.971,-643.004,0,0
283341,120.416,-641.517,0,0
283601,119.856,-640.005,0,0
283862,119.39,-638.475,0,0
284122,118.925,-636.921,0,0
284382,118.566,-635.417,0,0
284643,118.224,-633.92,0,0
284903,117.976,-632.376,0,0
285163,117.889,-630.821,0,0
285424,117.943,-629.397,0,0
285684,118.159,-628.04,0,0
285944,118.431,-626.829,0,0
286205,118.828,-625.714,0,0
286465,119.355,-624.697,0,0
286725,120.032,-623.943,0,0
286986,120.808,-623.445,0,0
287246,121.605,-623.339,0,0
287506,122.296,-623.564,0,0
287767,122.822,-624.12,0,0
288027,123.067,-624.97,0,0
288287,122.96,-626.005,0,0
288548,122.515,-627.152,0,0
288808,121.722,-628.325,0,0
289068,120.568,-629.475,0,0
289329,119.074,-630.492,0,0
289589,117.207,-631.369,0,0
289849,115.159,-631.937,0,0
290109,112.947,-632.177,0,0
290370,110.727,-632.114,0,0
290630,108.547,-631.857,0,0
290890,106.406,-631.426,0,0
291151,104.33,-630.851,0,0
291411,102.304,-630.213,0,0
291671,100.293,-629.496,0,0
291932,98.2632,-628.669,0,0
292192,96.221,-627.743,0,0
292452,94.2324,-626.684,0,0
292713,92.2972,-625.501,0,0
292973,90.4169,-624.25,0,0
293233,88.5651,-622.897,0,0
293494,86.7545,-621.484,0,0
293754,85.0161,-619.954,0,0
294014,83.3345,-618.333,0,0
294275,81.7562,-616.628,0,0
294535,80.2595,-614.849,0,0
294795,78.8991,-613.003,0,0
295056,77.714,-611.167,0,0
295316,76.5601,-609.306,0,0
295576,75.5545,-607.479,0,0
295837,74.6009,-605.702,0,0
296097,73.6975,-603.929,0,0
296357,72.8549,-602.21,0,0
296618,72.0165,-600.516,0,0
296878,71.2136,-598.809,0,0
297138,70.4324,-597.088,0,0
297399,69.6825,-595.407,0,0
297659,68.9675,-593.703,0,0
297919,68.2824,-591.983,0,0
298180,67.6187,-590.24,0,0
298440,67.0063,-588.515,0,0
298700.2,66.4571,-586.715,0,0
298960.525,65.8831,-584.973,0,0
299220.85,65.4799,-583.218,0,0
299481.175,65.0228,-581.455,0,0
299741.5,64.576,-579.675,0,0
300001.825,64.232,-577.847,0,0
300262.15,64.0236,-576.037,0,0
300522.475,63.9207,-574.238,0,0
300782.8,63.762,-572.451,0,0
301043.125,63.6934,-570.749,0,0
301303.45,63.7319,-569.025,0,0
301563.775,63.7859,-567.341,0,0
301824.1,64.0518,-565.796,0,0
302084.425,64.2362,-564.218,0,0
302344.75,64.457,-562.717,0,0
302605.075,64.6905,-561.245,0,0
302865.4,65.0083,-559.877,0,0
303125.725,65.2641,-558.588,0,0
303386.05,65.5706,-557.333,0,0
303646.375,65.9277,-556.093,0,0
303906.7,66.3108,-554.877,0,0
304167.025,66.6487,-553.738,0,0
304427.35,67.0457,-552.572,0,0
304687.675,67.4068,-551.533,0,0
304948.0,67.8175,-550.569,0,0
305208.325,68.2297,-549.622,0,0
305468.65,68.683,-548.787,0,0
305728.975,69.0178,-548.037,0,0
305989.3,69.3476,-547.262,0,0
306249.625,69.6835,-546.594,0,0
306509.95,69.9422,-545.83,0,0
306770.275,70.1737,-545.235,0,0
307030.6,70.44,-544.515,0,0
307290.925,70.745,-543.855,0,0
307551.25,71.0439,-543.275,0,0
307811.575,71.3501,-542.796,0,0
308071.9,71.6509,-542.32,0,0
308332.225,71.8866,-541.956,0,0
308592.55,72.0579,-541.723,0,0
308852.875,72.0494,-541.464,0,0
309113.2,71.9307,-541.14,0,0
309373.525,71.8238,-540.824,0,0
309633.85,71.5371,-540.457,0,0
309894.175,71.3616,-540.003,0,0
310154.5,71.1519,-539.44,0,0
310414.825,70.9303,-538.941,0,0
310675.15,70.7967,-538.368,0,0
310935.475,70.585,-537.888,0,0
311195.8,70.3865,-537.319,0,0
311456.125,70.2842,-536.82,0,0
311716.45,70.1905,-536.407,0,0
311976.775,70.0061,-535.896,0,0
312237.1,69.7356,-535.515,0,0
312497.425,69.4801,-534.968,0,0
312757.75,69.1871,-534.6,0,0
313018.075,68.9189,-534.145,0,0
313278.4,68.593,-533.625,0,0
313538.725,68.2218,-533.092,0,0
313799.05,67.8729,-532.566,0,0
314059.375,67.5796,-532.025,0,0
314319.7,67.1896,-531.418,0,0
314580,66.874,-530.867,0,0
314840,66.4718,-530.24,0,0
315101,66.1178,-529.661,0,0
315361,65.6963,-529.049,0,0
315621,65.2885,-528.39,0,0
315882,64.8606,-527.605,0,0
316142,64.5544,-526.88,0,0
316402,64.2712,-526.117,0,0
316663,63.9695,-525.373,0,0
316923,63.7641,-524.663,0,0
317183,63.5247,-523.995,0,0
317444,63.2233,-523.249,0,0
317704,62.9548,-522.573,0,0
317964,62.7478,-521.825,0,0
318225,62.4499,-521.1,0,0
318485,62.1466,-520.383,0,0
318745,62.0113,-519.693,0,0
319006,61.8424,-518.849,0,0
319266,61.7355,-518.104,0,0
319526,61.6433,-517.348,0,0
319787,61.5842,-516.637,0,0
320047,61.5022,-516.062,0,0
320307,61.4518,-515.472,0,0
320567,61.3148,-514.803,0,0
320828,61.243,-514.283,0,0
321088,61.1142,-513.773,0,0
321348,61.0079,-513.177,0,0
321609,60.8642,-512.734,0,0
321869,60.6894,-512.22,0,0
322129,60.5809,-511.729,0,0
322390,60.4602,-511.314,0,0
322650,60.2121,-510.832,0,0
322910,59.9921,-510.438,0,0
323171,59.7082,-510.101,0,0
323431,59.3727,-509.633,0,0
323691,59.0368,-509.241,0,0
323952,58.6325,-508.793,0,0
324212,58.2105,-508.352,0,0
324472,57.8356,-507.821,0,0
324733,57.3831,-507.328,0,0
324993,56.9054,-506.748,0,0
325253,56.411,-506.18,0,0
325514,55.8783,-505.559,0,0
325774,55.4155,-504.895,0,0
326034,55.0617,-504.232,0,0
326295,54.582,-503.488,0,0
326555,54.2248,-502.751,0,0
326815,53.8527,-502.009,0,0
327076,53.4371,-501.275,0,0
327336,53.0869,-500.507,0,0
327596,52.7776,-499.764,0,0
327857,52.4569,-498.998,0,0
328117,52.1607,-498.352,0,0
328377,51.8052,-497.666,0,0
328638,51.4354,-496.977,0,0
328898,51.0925,-496.259,0,0
329158,50.7373,-495.398,0,0
329419,50.3851,-494.668,0,0
329679,50.0565,-493.949,0,0
329939,49.7818,-493.138,0,0
330200,49.4107,-492.352,0,0
330460,49.0566,-491.554,0,0
330720.15,48.7752,-490.716,0,0
330980.475,48.454,-489.997,0,0
331240.8,48.1797,-489.124,0,0
331501.125,47.9013,-488.289,0,0
331761.45,47.6009,-487.44,0,0
332021.775,47.353,-486.514,0,0
332282.1,47.1012,-485.667,0,0
332542.425,46.891,-484.75,0,0
332802.75,46.6901,-483.87,0,0
333063.075,46.5142,-482.943,0,0
333323.4,46.3914,-482.036,0,0
333583.725,46.2264,-481.143,0,0
333844.05,46.1324,-480.211,0,0
334104.375,46.1446,-479.341,0,0
334364.7,46.1383,-478.449,0,0
334625.025,46.0906,-477.538,0,0
334885.35,46.1966,-476.768,0,0
335145.675,46.2284,-475.958,0,0
335406.0,46.3838,-475.195,0,0
335666.325,46.3964,-474.528,0,0
335926.65,46.4985,-473.849,0,0
336186.975,46.4976,-473.222,0,0
336447.3,46.5066,-472.603,0,0
336707.625,46.5405,-471.939,0,0
336967.95,46.5637,-471.393,0,0
337228.275,46.5546,-470.819,0,0
337488.6,46.5176,-470.332,0,0
337748.925,46.3881,-469.722,0,0
338009.25,46.3247,-469.219,0,0
338269.575,46.2454,-468.686,0,0
338529.9,46.0793,-468.128,0,0
338790.225,45.9662,-467.578,0,0
339050.55,45.7757,-467.019,0,0
339310.875,45.5767,-466.432,0,0
339571.2,45.3923,-465.829,0,0
339831.525,45.2084,-465.189,0,0
340091.85,45.0072,-464.613,0,0
340352.175,44.7773,-463.977,0,0
340612.5,44.592,-463.357,0,0
340872.825,44.3567,-462.66,0,0
341133.15,44.0967,-461.983,0,0
341393.475,43.8748,-461.327,0,0
341653.8,43.68,-460.618,0,0
341914.125,43.4804,-459.884,0,0
342174.45,43.2639,-459.137,0,0
342434.775,43.0404,-458.369,0,0
342695.1,42.8826,-457.642,0,0
342955.425,42.7025,-456.843,0,0
343215.75,42.5467,-456.096,0,0
343476.075,42.3444,-455.277,0,0
343736.4,42.2044,-454.497,0,0
343996.725,42.0637,-453.686,0,0
344257.05,41.9379,-452.809,0,0
344517.375,41.8463,-452.056,0,0
344777.7,41.7707,-451.143,0,0
345038.025,41.6811,-450.337,0,0
345298.35,41.6243,-449.501,0,0
345558.675,41.6003,-448.622,0,0
345819.0,41.585,-447.862,0,0
346079.325,41.5765,-446.975,0,0
346339.65,41.6394,-446.121,0,0
346599.975,41.6447,-445.364,0,0
346860,41.7291,-444.559,0,0
347121,41.7612,-443.743,0,0
347381,41.8419,-442.982,0,0
347641,41.9134,-442.223,0,0
347902,41.9942,-441.407,0,0
348162,42.0596,-440.663,0,0
348422,42.1642,-439.848,0,0
348683,42.2552,-439.123,0,0
348943,42.3716,-438.324,0,0
349203,42.5129,-437.546,0,0
349464,42.672,-436.795,0,0
349724,42.7892,-436.013,0,0
349984,43.0121,-435.286,0,0
350245,43.1914,-434.556,0,0
350505,43.4131,-433.877,0,0
350765,43.6369,-433.113,0,0
351025,43.8922,-432.477,0,0
351286,44.1234,-431.843,0,0
351546,44.389,-431.229,0,0
351806,44.6358,-430.622,0,0
352067,44.8336,-430.041,0,0
352327,45.0616,-429.447,0,0
352587,45.3088,-428.903,0,0
352848,45.5544,-428.36,0,0
353108,45.7731,-427.851,0,0
353368,45.999,-427.297,0,0
353629,46.171,-426.793,0,0
353889,46.3834,-426.334,0,0
354149,46.5898,-425.824,0,0
354410,46.7131,-425.334,0,0
354670,46.9423,-424.833,0,0
354930,47.0687,-424.377,0,0
355191,47.2949,-423.911,0,0
355451,47.4634,-423.403,0,0
355711,47.6732,-422.989,0,0
355972,47.8118,-422.578,0,0
356232,47.9474,-422.143,0,0
356492,48.1018,-421.697,0,0
356753,48.247,-421.286,0,0
357013,48.3881,-420.881,0,0
357273,48.4969,-420.448,0,0
357534,48.5948,-420.049,0,0
357794,48.7425,-419.624,0,0
358054,48.8401,-419.188,0,0
358315,48.9764,-418.795,0,0
358575,49.031,-418.357,0,0
358835,49.1351,-417.931,0,0
359096,49.2642,-417.487,0,0
359356,49.341,-417.137,0,0
359616,49.4282,-416.692,0,0
359877,49.5268,-416.297,0,0
360137,49.6492,-415.891,0,0
360397,49.7303,-415.437,0,0
360658,49.8219,-415.089,0,0
360918,49.944,-414.704,0,0
361178,50.0542,-414.298,0,0
361438,50.0908,-413.869,0,0
361699,50.1922,-413.503,0,0
361959,50.2771,-413.127,0,0
362219,50.3523,-412.731,0,0
362480,50.4652,-412.432,0,0
362740.1,50.4739,-412.018,0,0
363000.425,50.587,-411.644,0,0
363260.75,50.6304,-411.312,0,0
363521.075,50.6877,-410.941,0,0
363781.4,50.7285,-410.563,0,0
364041.725,50.7765,-410.178,0,0
364302.05,50.7947,-409.82,0,0
364562.375,50.8199,-409.457,0,0
364822.7,50.8347,-409.126,0,0
365083.025,50.9013,-408.755,0,0
365343.35,50.9017,-408.357,0,0
365603.675,50.935,-408.02,0,0
365864.0,50.9198,-407.587,0,0
366124.325,50.9719,-407.247,0,0
366384.65,50.9404,-406.826,0,0
366644.975,50.9459,-406.409,0,0
366905.3,50.9468,-406.008,0,0
367165.625,50.9684,-405.617,0,0
367425.95,50.9833,-405.193,0,0
367686.275,50.99,-404.813,0,0
367946.6,51.0587,-404.371,0,0
368206.925,51.0398,-403.983,0,0
368467.25,51.0694,-403.495,0,0
368727.575,51.1089,-403.068,0,0
368987.9,51.1619,-402.568,0,0
369248.225,51.2788,-402.079,0,0
369508.55,51.3681,-401.623,0,0
369768.875,51.549,-401.186,0,0
370029.2,51.7329,-400.766,0,0
370289.525,51.9367,-400.358,0,0
370549.85,52.1339,-400.008,0,0
370810.175,52.3494,-399.714,0,0
371070.5,52.5811,-399.457,0,0
371330.825,52.7726,-399.243,0,0
371591.15,52.9385,-399.031,0,0
371851.475,53.0418,-398.893,0,0
372111.8,53.1844,-398.715,0,0
372372.125,53.2527,-398.568,0,0
372632.45,53.3282,-398.431,0,0
372892.775,53.3119,-398.271,0,0
373153.1,53.2921,-398.188,0,0
373413.425,53.2509,-398.048,0,0
373673.75,53.1695,-397.983,0,0
373934.075,53.0969,-397.845,0,0
374194.4,52.8732,-397.713,0,0
374454.725,52.664,-397.58,0,0
374715.05,52.4487,-397.336,0,0
374975.375,52.1873,-397.079,0,0
375235.7,51.9495,-396.78,0,0
375496.025,51.6981,-396.393,0,0
375756.35,51.5121,-396.025,0,0
376016.675,51.3454,-395.603,0,0
376277.0,51.1818,-395.19,0,0
376537.325,51.0838,-394.765,0,0
376797.65,50.9789,-394.384,0,0
377057.975,50.9468,-394.007,0,0
377318.3,50.9065,-393.667,0,0
377578.625,50.8065,-393.335,0,0
377838.95,50.722,-393.057,0,0
378099.275,50.5874,-392.781,0,0
378359.6,50.4072,-392.502,0,0
378619.925,50.174,-392.14,0,0
378880,49.9238,-391.792,0,0
379141,49.6602,-391.382,0,0
379401,49.4558,-390.906,0,0
379661,49.1917,-390.379,0,0
379922,48.9966,-389.795,0,0
380182,48.9249,-389.164,0,0
380442,48.9132,-388.521,0,0
380703,49.0234,-387.947,0,0
380963,49.1007,-387.425,0,0
381223,49.2631,-386.885,0,0
381483,49.5256,-386.524,0,0
381744,49.6684,-386.218,0,0
382004,49.8644,-385.98,0,0
382264,49.924,-385.839,0,0
382525,49.9445,-385.691,0,0
382785,49.9046,-385.53,0,0
383045,49.8222,-385.432,0,0
383306,49.7003,-385.301,0,0
383566,49.5454,-385.133,0,0
383826,49.3079,-384.968,0,0
384087,49.0686,-384.797,0,0
384347,48.7145,-384.582,0,0
384607,48.3838,-384.31,0,0
384868,48.1076,-383.978,0,0
385128,47.7512,-383.59,0,0
385388,47.3622,-383.254,0,0
385649,47.0553,-382.817,0,0
385909,46.7402,-382.395,0,0
386169,46.3918,-381.919,0,0
386430,46.0548,-381.439,0,0
386690,45.7458,-380.929,0,0
386950,45.4147,-380.349,0,0
387211,45.1527,-379.757,0,0
387471,44.8344,-379.186,0,0
387731,44.6187,-378.514,0,0
387992,44.423,-377.932,0,0
388252,44.2287,-377.235,0,0
388512,44.0745,-376.593,0,0
388773,43.9518,-375.91,0,0
389033,43.8307,-375.28,0,0
389293,43.7464,-374.616,0,0
389554,43.6878,-373.986,0,0
389814,43.6358,-373.34,0,0
390074,43.6216,-372.732,0,0
390335,43.5826,-372.157,0,0
390595,43.5473,-371.515,0,0
390855,43.5285,-370.981,0,0
391116,43.5143,-370.387,0,0
391376,43.4842,-369.816,0,0
391636,43.4954,-369.289,0,0
391896,43.4802,-368.715,0,0
392157,43.4537,-368.169,0,0
392417,43.432,-367.609,0,0
392677,43.4185,-367.073,0,0
392938,43.3653,-366.539,0,0
393198,43.3379,-365.945,0,0
393458,43.2937,-365.371,0,0
393719,43.275,-364.841,0,0
393979,43.2627,-364.231,0,0
394239,43.2392,-363.646,0,0
394500,43.2351,-363.051,0,0
394760.05,43.2485,-362.438,0,0
395020.375,43.2862,-361.835,0,0
395280.7,43.3203,-361.244,0,0
395541.025,43.3633,-360.646,0,0
395801.35,43.4379,-360.071,0,0
396061.675,43.4975,-359.5,0,0
396322.0,43.611,-358.94,0,0
396582.325,43.6628,-358.391,0,0
396842.65,43.7653,-357.848,0,0
397102.975,43.8273,-357.3,0,0
397363.3,43.9231,-356.793,0,0
397623.625,43.9821,-356.247,0,0
397883.95,44.0778,-355.681,0,0
398144.275,44.1491,-355.163,0,0
398404.6,44.2392,-354.676,0,0
398664.925,44.3408,-354.127,0,0
398925.25,44.407,-353.624,0,0
399185.575,44.4597,-353.136,0,0
399445.9,44.555,-352.627,0,0
399706.225,44.6205,-352.118,0,0
399966.55,44.644,-351.547,0,0
400006.6,44.6917,-351.518,0,0