File: Accelerated corrosion test data/2025-10-22_18-00-04/sample_1.csv
Frequency (Hz),Impedance (ohms),Phase (Radians),Temperature (C),Humidity (%)
10000.0,242.479,-12194.8,0,0
10260.325,242.892,-11880.5,0,0
10520.65,232.525,-11601.7,0,0
10780.975,229.158,-11316.9,0,0
11041.3,221.729,-11057.9,0,0
11301.625,216.772,-10801.6,0,0
11561.95,212.38,-10557.4,0,0
11822.275,210.12,-10318.9,0,0
12082.6,233.106,-10091.7,0,0
12342.925,211.505,-9918.4,0,0
12603.25,196.598,-9702.24,0,0
12863.575,193.125,-9500.68,0,0
13123.9,201.752,-9307.37,0,0
13384.225,187.923,-9140.82,0,0
13644.55,182.91,-8957.93,0,0
13904.875,184.153,-8779.49,0,0
14165.2,204.357,-8650.55,0,0
14425.525,214.238,-8479.22,0,0
14685.8,201.276,-8317.89,0,0
14946.175,178.492,-8209.45,0,0
15206.5,191.766,-8046.72,0,0
15466.825,174.3,-7937.53,0,0
15727.15,169.636,-7798.48,0,0
15987.5,162.202,-7673.62,0,0
16247.8,158.1,-7547.47,0,0
16508.125,156.068,-7424.54,0,0
16768.45,159.27,-7306.06,0,0
17028.775,163.892,-7196.92,0,0
17289.1,155.902,-7097.61,0,0
17549.425,152.604,-6992.72,0,0
17809.75,146.493,-6887.93,0,0
18070.075,149.601,-6787.88,0,0
18330.4,142.728,-6694.16,0,0
18590.725,138.648,-6598.93,0,0
18851.05,139.091,-6501.25,0,0
19111.375,136.676,-6420.32,0,0
19371.7,133.853,-6327.96,0,0
19632.025,133.042,-6239.26,0,0
19892.35,137.4,-6150.97,0,0
20152.675,136.626,-6066.78,0,0
20413.0,156.87,-5977.34,0,0
20673.3,169.515,-5936.69,0,0
20933.65,149.287,-5870.22,0,0
21193.975,163.267,-5803.99,0,0
21454.3,141.426,-5734.51,0,0
21714.625,135.811,-5659.87,0,0
21974.9,141.753,-5579.69,0,0
22235.275,173.894,-5536.84,0,0
22495.6,142.027,-5495.43,0,0
22755.925,127.515,-5425.88,0,0
23016.25,122.768,-5359.13,0,0
23276.6,119.337,-5297.52,0,0
23536.9,116.272,-5236.48,0,0
23797.225,113.208,-5175.75,0,0
24057.55,115.811,-5115,0,0
24317.875,113.798,-5066.62,0,0
24578.2,111.212,-5007.3,0,0
24838.525,110.961,-4956.82,0,0
25098.85,111.234,-4902.74,0,0
25359.175,106.395,-4853.13,0,0
25619.5,105.577,-4802.28,0,0
25879.8,103.48,-4751.22,0,0
26140.1,103.767,-4701.52,0,0
26400.5,103.308,-4651.99,0,0
26660.8,105.609,-4601.82,0,0
26921.1,114.197,-4552.49,0,0
27181.4,123.298,-4522.48,0,0
27441.8,111.123,-4487.16,0,0
27702.1,104.41,-4438.66,0,0
27962.4,110.854,-4388.43,0,0
28222.7,110.557,-4349.82,0,0
28483.1,121.361,-4306.84,0,0
28743.4,130.901,-4288.5,0,0
29003.7,118.414,-4251.39,0,0
29264,119.147,-4218.17,0,0
29524.4,108.034,-4184.8,0,0
29784.7,106.155,-4141.43,0,0
30045,102.582,-4110.52,0,0
30305.3,100.832,-4071.51,0,0
30565.7,97.3504,-4033.57,0,0
30826,101.685,-3997.17,0,0
31086.3,104.713,-3969.83,0,0
31346.6,100.495,-3940.17,0,0
31607,94.4673,-3902.45,0,0
31867.3,99.1847,-3870.29,0,0
32127.6,98.2789,-3839.61,0,0
32387.9,98.846,-3812.45,0,0
32648.3,94.7201,-3781.38,0,0
32908.6,96.6684,-3753.55,0,0
33168.9,91.7704,-3725.61,0,0
33429.2,89.7258,-3696.39,0,0
33689.6,86.4728,-3666.67,0,0
33949.9,85.152,-3635.69,0,0
34210.2,87.1635,-3609.16,0,0
34470.5,84.3267,-3582.54,0,0
34730.9,82.192,-3554.29,0,0
34991.2,81.7015,-3527.05,0,0
35251.5,80.4717,-3500.38,0,0
35511.8,80.0663,-3474.25,0,0
35772.2,79.3846,-3448.73,0,0
36032.5,78.242,-3423.12,0,0
36292.8,77.8428,-3397.73,0,0
36553.1,76.9923,-3372.94,0,0
36813.5,76.4506,-3348.43,0,0
37073.8,76.1912,-3324.59,0,0
37334.1,75.7313,-3301.25,0,0
37594.4,75.4768,-3277.96,0,0
37854.8,74.4578,-3254.99,0,0
38115.1,73.9216,-3231.96,0,0
38375.4,73.644,-3209.29,0,0
38635.7,73.0553,-3187.35,0,0
38896.1,72.6535,-3165.58,0,0
39156.4,72.8269,-3143.31,0,0
39416.7,72.4374,-3123.12,0,0
39677,71.5925,-3102.17,0,0
39937.4,71.1534,-3080.85,0,0
40197.7,71.356,-3060.16,0,0
40458,71.3165,-3040.01,0,0
40718.3,71.0987,-3019.55,0,0
40978.7,72.6856,-3000.02,0,0
41239,72.527,-2981.92,0,0
41499.3,72.3973,-2963.51,0,0
41759.6,71.3512,-2945.01,0,0
42020,70.909,-2926.19,0,0
42280.275,70.4573,-2908.06,0,0
42540.6,70.5243,-2889.67,0,0
42800.925,70.6675,-2873.21,0,0
43061.25,69.5182,-2855,0,0
43321.575,69.5885,-2838.17,0,0
43581.9,68.7901,-2820.96,0,0
43842.225,68.1355,-2803.15,0,0
44102.55,68.2881,-2785.59,0,0
44362.875,69.0173,-2768.96,0,0
44623.2,69.403,-2753.49,0,0
44883.525,68.8762,-2737.86,0,0
45143.85,68.5999,-2722.14,0,0
45404.175,68.3222,-2706.22,0,0
45664.5,67.6551,-2691.18,0,0
45924.825,66.8227,-2675.85,0,0
46185.15,66.11,-2660.43,0,0
46445.475,65.3573,-2644.92,0,0
46705.8,65.7233,-2629.43,0,0
46966.125,65.3525,-2615.62,0,0
47226.45,64.6408,-2600.32,0,0
47486.775,64.727,-2585.61,0,0
47747.1,64.0894,-2571.81,0,0
48007.425,63.5157,-2557.11,0,0
48267.75,63.6599,-2543.26,0,0
48528.075,63.0895,-2529.89,0,0
48788.4,62.0769,-2515.65,0,0
49048.725,61.7997,-2501.58,0,0
49309.05,61.8425,-2487.77,0,0
49569.375,61.5154,-2474.88,0,0
49829.7,61.1648,-2461.8,0,0
50090.025,60.2817,-2448.5,0,0
50350.35,59.6964,-2435.05,0,0
50610.675,59.7323,-2421.61,0,0
50871.0,59.5671,-2408.84,0,0
51131.325,59.4888,-2396.22,0,0
51391.65,59.6308,-2383.67,0,0
51651.975,59.0006,-2371.5,0,0
51912.3,58.446,-2359.11,0,0
52172.625,58.1387,-2346.79,0,0
52432.95,58.1616,-2334.49,0,0
52693.275,57.8996,-2322.69,0,0
52953.6,57.8181,-2310.5,0,0
53213.925,57.8489,-2298.98,0,0
53474.25,57.5627,-2287.58,0,0
53734.575,57.4184,-2276.08,0,0
53994.9,57.3447,-2264.86,0,0
54255.225,56.8291,-2253.83,0,0
54515.55,56.3799,-2242.36,0,0
54775.875,56.1432,-2231.11,0,0
55036.2,55.9541,-2219.95,0,0
55296.525,55.9487,-2208.91,0,0
55556.85,55.8481,-2198.18,0,0
55817.175,55.4824,-2187.66,0,0
56077.5,55.1261,-2176.95,0,0
56337.825,54.9563,-2166.25,0,0
56598.15,54.8646,-2155.6,0,0
56858.475,54.8904,-2145.19,0,0
57118.8,54.8171,-2135.01,0,0
57379.125,54.6487,-2124.76,0,0
57639.45,54.6791,-2114.64,0,0
57899.775,54.58,-2104.66,0,0
58160.1,54.6648,-2094.69,0,0
58420.4,54.5664,-2085.01,0,0
58680.7,54.4056,-2075.39,0,0
58941.1,54.2114,-2065.48,0,0
59201.4,54.5229,-2055.94,0,0
59461.7,54.337,-2046.79,0,0
59722,54.1841,-2037.25,0,0
59982.4,54.2713,-2027.81,0,0
60242.7,54.2418,-2018.71,0,0
60503,54.505,-2009.63,0,0
60763.3,54.4986,-2000.9,0,0
61023.7,54.0869,-1992.42,0,0
61284,53.6494,-1983.43,0,0
61544.3,53.2732,-1974.35,0,0
61804.6,53.4817,-1965.42,0,0
62065,53.0883,-1957.06,0,0
62325.3,52.7701,-1948.08,0,0
62585.6,52.6388,-1939.12,0,0
62845.9,52.616,-1930.51,0,0
63106.3,52.5684,-1921.86,0,0
63366.6,52.6166,-1913.6,0,0
63626.9,52.5369,-1904.99,0,0
63887.2,52.4505,-1896.68,0,0
64147.6,52.5798,-1888.09,0,0
64407.9,52.6393,-1879.83,0,0
64668.2,53.0029,-1871.26,0,0
64928.5,53.5724,-1863.06,0,0
65188.9,54.1986,-1855.28,0,0
65449.2,54.8146,-1847.66,0,0
65709.5,55.1829,-1840.7,0,0
65969.8,55.0793,-1833.65,0,0
66230.2,54.99,-1826.21,0,0
66490.5,55.0752,-1819.17,0,0
66750.8,54.4548,-1812.07,0,0
67011.1,54.2219,-1804.61,0,0
67271.5,53.8541,-1797.31,0,0
67531.8,53.8283,-1789.45,0,0
67792.1,54.1433,-1782.38,0,0
68052.4,54.2389,-1775.97,0,0
68312.8,53.4019,-1768.92,0,0
68573.1,53.3358,-1761.5,0,0
68833.4,53.2356,-1754.69,0,0
69093.7,53.0535,-1747.92,0,0
69354.1,52.8143,-1740.76,0,0
69614.4,52.6966,-1734.04,0,0
69874.7,52.2542,-1727.58,0,0
70135,51.7761,-1720.81,0,0
70395.4,51.1406,-1714.11,0,0
70655.7,50.4597,-1707.07,0,0
70916,50.1557,-1699.75,0,0
71176.3,50.2157,-1692.77,0,0
71436.7,50.0664,-1686.11,0,0
71697,49.898,-1679.67,0,0
71957.3,49.3938,-1673.1,0,0
72217.6,48.7625,-1666.31,0,0
72478,48.404,-1659.36,0,0
72738.3,48.2688,-1652.36,0,0
72998.6,48.2748,-1645.64,0,0
73258.9,48.305,-1639.02,0,0
73519.3,48.2494,-1632.47,0,0
73779.6,48.0807,-1625.92,0,0
74039.9,48.109,-1619.35,0,0
74300.225,48.1419,-1612.81,0,0
74560.55,48.1361,-1606.32,0,0
74820.875,48.2313,-1599.85,0,0
75081.2,48.4844,-1593.45,0,0
75341.525,48.5815,-1587.35,0,0
75601.85,48.6565,-1581.12,0,0
75862.175,48.8247,-1575,0,0
76122.5,48.8731,-1568.89,0,0
76382.825,49.0398,-1562.74,0,0
76643.15,49.2911,-1556.63,0,0
76903.475,49.6166,-1550.69,0,0
77163.8,49.7657,-1544.84,0,0
77424.125,50.0759,-1539.04,0,0
77684.45,50.2727,-1533.33,0,0
77944.775,50.4439,-1527.51,0,0
78205.1,50.7832,-1521.68,0,0
78465.425,51.3631,-1516.12,0,0
78725.75,51.7945,-1510.99,0,0
78986.075,51.8389,-1505.83,0,0
79246.4,51.8978,-1500.72,0,0
79506.725,51.6177,-1495.67,0,0
79767.05,51.0954,-1490.16,0,0
80027.375,51.076,-1484.54,0,0
80287.7,51.0166,-1479.24,0,0
80548.025,50.7013,-1473.84,0,0
80808.35,50.5854,-1468.34,0,0
81068.675,50.3302,-1462.81,0,0
81329.0,50.3174,-1457.11,0,0
81589.325,50.4169,-1451.54,0,0
81849.65,50.5995,-1446.08,0,0
82109.975,50.8184,-1440.67,0,0
82370.3,50.9365,-1435.41,0,0
82630.625,51.0243,-1430.12,0,0
82890.95,51.084,-1424.74,0,0
83151.275,51.2725,-1419.2,0,0
83411.6,51.6817,-1413.95,0,0
83671.925,52.0647,-1408.86,0,0
83932.25,52.3607,-1403.74,0,0
84192.575,52.6394,-1398.66,0,0
84452.9,53.0092,-1393.66,0,0
84713.225,53.2559,-1388.64,0,0
84973.55,53.4711,-1383.66,0,0
85233.875,53.955,-1378.56,0,0
85494.2,54.5698,-1373.91,0,0
85754.525,54.8517,-1369.19,0,0
86014.85,55.0454,-1364.5,0,0
86275.175,55.4194,-1359.9,0,0
86535.5,55.5278,-1355.27,0,0
86795.825,55.7365,-1350.65,0,0
87056.15,55.8052,-1345.93,0,0
87316.475,56.0617,-1341.21,0,0
87576.8,56.277,-1336.82,0,0
87837.125,56.1155,-1332.16,0,0
88097.45,56.0907,-1327.43,0,0
88357.775,56.078,-1322.5,0,0
88618.1,56.2675,-1317.28,0,0
88878.425,56.8094,-1312.29,0,0
89138.75,57.3059,-1307.51,0,0
89399.075,57.8608,-1302.62,0,0
89659.4,58.6286,-1297.85,0,0
89919.725,59.5336,-1293.44,0,0
90180,60.0388,-1288.88,0,0
90440.4,60.5999,-1284.44,0,0
90700.7,61.1266,-1279.75,0,0
90961,62.1192,-1274.89,0,0
91221.3,63.5082,-1270.19,0,0
91481.7,64.9084,-1266.04,0,0
91742,66.2913,-1262.15,0,0
92002.3,67.4776,-1258.56,0,0
92262.6,68.3013,-1254.62,0,0
92523,69.53,-1250.71,0,0
92783.3,71.0027,-1246.79,0,0
93043.6,73.0806,-1243.54,0,0
93303.9,74.8874,-1240.69,0,0
93564.3,76.9001,-1238.51,0,0
93824.6,78.8679,-1237.39,0,0
94084.9,79.2187,-1238.12,0,0
94345.2,76.529,-1237.8,0,0
94605.6,73.3757,-1234.7,0,0
94865.9,72.0617,-1230.95,0,0
95126.2,70.6377,-1227.38,0,0
95386.5,69.4565,-1223.7,0,0
95646.9,67.9863,-1219.65,0,0
95907.2,67.0424,-1215.26,0,0
96167.5,66.3265,-1210.83,0,0
96427.8,66.175,-1206.45,0,0
96688.2,66.2141,-1202.66,0,0
96948.5,65.7549,-1198.9,0,0
97208.8,65.2728,-1194.93,0,0
97469.1,64.8925,-1190.86,0,0
97729.5,64.668,-1186.8,0,0
97989.8,64.4646,-1182.79,0,0
98250.1,64.4027,-1178.72,0,0
98510.4,64.3156,-1174.83,0,0
98770.8,64.1351,-1170.97,0,0
99031.1,63.9558,-1167.07,0,0
99291.4,63.8372,-1163.17,0,0
99551.7,63.6227,-1159.23,0,0
99812.1,63.4222,-1155.28,0,0
100072,63.2888,-1151.26,0,0
100333,63.237,-1147.22,0,0
100593,63.0941,-1143.18,0,0
100853,63.1103,-1139.07,0,0
101114,63.1147,-1134.96,0,0
101374,63.1331,-1130.96,0,0
101634,63.0144,-1126.75,0,0
101895,62.9323,-1122.41,0,0
102155,63.092,-1117.82,0,0
102415,63.5812,-1113.18,0,0
102676,64.3131,-1108.56,0,0
102936,65.3531,-1104.15,0,0
103196,66.388,-1100.02,0,0
103457,67.5584,-1095.89,0,0
103717,68.7332,-1091.96,0,0
103977,70.0048,-1088.23,0,0
104238,71.4097,-1084.37,0,0
104498,73.0575,-1080.94,0,0
104758,74.5493,-1078.03,0,0
105019,75.3785,-1075.2,0,0
105279,76.1743,-1071.96,0,0
105539,77.1035,-1068.58,0,0
105800,78.3237,-1065.23,0,0
106060,79.6021,-1062.07,0,0
106320.175,80.964,-1058.95,0,0
106580.5,82.3866,-1056.19,0,0
106840.825,83.6452,-1053.5,0,0
107101.15,84.8598,-1050.84,0,0
107361.475,86.2417,-1048.29,0,0
107621.8,87.4459,-1046.15,0,0
107882.125,88.3223,-1044,0,0
108142.45,89.2129,-1041.63,0,0
108402.775,90.2766,-1039.43,0,0
108663.1,91.0982,-1037.39,0,0
108923.425,91.8394,-1035.22,0,0
109183.75,92.7303,-1033.23,0,0
109444.075,93.5497,-1031.43,0,0
109704.4,94.124,-1029.86,0,0
109964.725,94.2873,-1028.41,0,0
110225.05,94.1687,-1026.73,0,0
110485.375,93.8594,-1024.63,0,0
110745.7,93.521,-1022.33,0,0
111006.025,93.497,-1019.77,0,0
111266.35,93.4666,-1017.13,0,0
111526.675,94.0925,-1014.55,0,0
111787.0,94.7579,-1011.91,0,0
112047.325,95.3468,-1009.79,0,0
112307.65,96.1581,-1007.84,0,0
112567.975,96.7674,-1006.09,0,0
112828.3,97.2255,-1004.64,0,0
113088.625,97.3855,-1003.3,0,0
113348.95,97.3427,-1001.9,0,0
113609.275,97.0468,-1000.46,0,0
113869.6,96.6135,-999.105,0,0
114129.925,95.8254,-997.506,0,0
114390.25,95.0612,-995.473,0,0
114650.575,94.6242,-993.455,0,0
114910.9,94.16,-991.728,0,0
115171.225,93.2379,-989.967,0,0
115431.55,92.1732,-987.85,0,0
115691.875,91.3461,-985.607,0,0
115952.2,90.3721,-983.38,0,0
116212.525,89.4625,-980.911,0,0
116472.85,88.6203,-978.37,0,0
116733.175,87.9414,-975.974,0,0
116993.5,86.96,-973.601,0,0
117253.825,85.8751,-970.984,0,0
117514.15,84.8247,-968.075,0,0
117774.475,83.9943,-964.99,0,0
118034.8,83.3303,-961.889,0,0
118295.125,82.797,-958.762,0,0
118555.45,82.4179,-955.749,0,0
118815.775,81.9361,-952.796,0,0
119076.1,81.4968,-949.598,0,0
119336.425,81.2775,-946.431,0,0
119596.75,81.2306,-943.307,0,0
119857.075,81.3031,-940.243,0,0
120117.4,81.4043,-937.416,0,0
120377.725,81.454,-934.762,0,0
120638.05,81.4255,-932.031,0,0
120898.375,81.5758,-929.393,0,0
121158.7,81.5494,-927.039,0,0
121419.025,81.2415,-924.703,0,0
121679.35,80.7359,-922.157,0,0
121939.675,80.2518,-919.407,0,0
122200.0,79.8117,-916.547,0,0
122460,79.4541,-913.635,0,0
122721,79.1447,-910.591,0,0
122981,78.9905,-907.54,0,0
123241,78.9101,-904.59,0,0
123502,78.8149,-901.616,0,0
123762,78.7775,-898.605,0,0
124022,78.8646,-895.64,0,0
124283,78.9252,-892.784,0,0
124543,78.9463,-889.861,0,0
124803,78.9352,-887.002,0,0
125064,79.0335,-883.995,0,0
125324,79.0344,-881.069,0,0
125584,79.2179,-878.072,0,0
125845,79.4986,-875.101,0,0
126105,79.7154,-872.336,0,0
126365,79.8323,-869.441,0,0
126626,80.1673,-866.499,0,0
126886,80.2631,-863.646,0,0
127146,80.6473,-860.681,0,0
127406,80.9122,-857.76,0,0
127667,81.2838,-855.046,0,0
127927,81.5797,-852.052,0,0
128187,81.9804,-849.071,0,0
128448,82.4581,-846.181,0,0
128708,83.0749,-843.248,0,0
128968,83.7646,-840.498,0,0
129229,84.2724,-837.836,0,0
129489,84.7769,-834.996,0,0
129749,85.3845,-832.121,0,0
130010,86.2042,-829.191,0,0
130270,87.2197,-826.462,0,0
130530,88.2136,-823.952,0,0
130791,89.0763,-821.543,0,0
131051,89.9467,-819.162,0,0
131311,90.8659,-816.818,0,0
131572,91.7623,-814.6,0,0
131832,92.5458,-812.398,0,0
132092,93.3479,-810.285,0,0
132353,94.0807,-808.305,0,0
132613,94.6659,-806.29,0,0
132873,95.1719,-804.19,0,0
133134,95.749,-802.022,0,0
133394,96.334,-799.925,0,0
133654,96.8235,-797.8,0,0
133915,97.3171,-795.623,0,0
134175,97.8869,-793.339,0,0
134435,98.5705,-791.081,0,0
134696,99.2002,-788.962,0,0
134956,99.818,-786.945,0,0
135216,100.451,-784.821,0,0
135477,101.074,-782.769,0,0
135737,101.562,-780.657,0,0
135997,102.219,-778.454,0,0
136258,102.96,-776.214,0,0
136518,103.734,-773.992,0,0
136778,104.737,-771.895,0,0
137039,105.817,-769.996,0,0
137299,106.874,-768.255,0,0
137559,108.067,-766.655,0,0
137819,109.095,-765.61,0,0
138080,109.62,-764.695,0,0
138340.125,109.805,-763.469,0,0
138600.45,110.041,-762.13,0,0
138860.775,110.086,-760.919,0,0
139121.1,109.905,-759.535,0,0
139381.425,109.648,-757.871,0,0
139641.75,109.473,-756.052,0,0
139902.075,109.328,-754.059,0,0
140162.4,109.334,-752.112,0,0
140422.725,109.4,-750.179,0,0
140683.05,109.458,-748.238,0,0
140943.375,109.467,-746.299,0,0
141203.7,109.434,-744.272,0,0
141464.025,109.474,-742.171,0,0
141724.35,109.574,-740.105,0,0
141984.675,109.564,-738.015,0,0
142245.0,109.598,-735.741,0,0
142505.325,109.826,-733.474,0,0
142765.65,110.123,-731.381,0,0
143025.975,110.17,-729.301,0,0
143286.3,110.297,-726.969,0,0
143546.625,110.545,-724.496,0,0
143806.95,111.021,-722.143,0,0
144067.275,111.554,-719.962,0,0
144327.6,111.943,-717.875,0,0
144587.925,112.225,-715.693,0,0
144848.25,112.547,-713.232,0,0
145108.575,113.238,-710.81,0,0
145368.9,114.061,-708.548,0,0
145629.225,114.941,-706.622,0,0
145889.55,115.585,-704.779,0,0
146149.875,116.158,-702.835,0,0
146410.2,116.826,-700.91,0,0
146670.525,117.52,-699.004,0,0
146930.85,118.334,-697.367,0,0
147191.175,118.875,-696.048,0,0
147451.5,118.945,-694.661,0,0
147711.825,118.812,-692.897,0,0
147972.15,118.83,-690.956,0,0
148232.475,118.82,-688.806,0,0
148492.8,119.081,-686.522,0,0
148753.125,119.539,-684.382,0,0
149013.45,119.91,-682.403,0,0
149273.775,120.302,-680.31,0,0
149534.1,120.844,-678.336,0,0
149794.425,121.289,-676.689,0,0
150054.75,121.394,-674.932,0,0
150315.075,121.437,-672.998,0,0
150575.4,121.491,-671.082,0,0
150835.725,121.494,-669.13,0,0
151096.05,121.275,-667.108,0,0
151356.375,121.009,-664.776,0,0
151616.7,120.896,-662.299,0,0
151877.025,120.778,-659.836,0,0
152137.35,120.612,-657.202,0,0
152397.675,120.543,-654.421,0,0
152658.0,120.482,-651.503,0,0
152918.325,120.538,-648.374,0,0
153178.65,120.838,-645.046,0,0
153438.975,121.35,-641.697,0,0
153699.3,122.102,-638.386,0,0
153959.625,123.007,-635.193,0,0
154219.95,123.843,-632.055,0,0
154480,124.7,-628.834,0,0
154741,125.838,-625.361,0,0
155001,127.14,-622.162,0,0
155261,128.405,-618.866,0,0
155522,129.867,-615.423,0,0
155782,131.606,-612.082,0,0
156042,133.432,-608.759,0,0
156303,135.499,-605.386,0,0
156563,137.9,-602.104,0,0
156823,140.641,-599.044,0,0
157084,143.66,-596.389,0,0
157344,146.714,-594.26,0,0
157604,149.508,-592.57,0,0
157864,151.933,-591.147,0,0
158125,153.905,-589.611,0,0
158385,155.87,-587.796,0,0
158645,157.871,-586.112,0,0
158906,159.419,-584.4,0,0
159166,160.773,-582.055,0,0
159426,162.494,-579.149,0,0
159687,164.916,-576.084,0,0
159947,167.783,-573.047,0,0
160207,171.226,-570.235,0,0
160468,175.05,-567.967,0,0
160728,178.924,-565.935,0,0
160988,183.161,-564.242,0,0
161249,187.674,-563.095,0,0
161509,192.12,-562.881,0,0
161769,196.11,-563.098,0,0
162030,199.783,-563.619,0,0
162290,202.992,-564.432,0,0
162550,205.606,-565.202,0,0
162811,207.992,-565.855,0,0
163071,210.18,-566.43,0,0
163331,212.116,-566.75,0,0
163592,213.948,-566.861,0,0
163852,215.808,-566.555,0,0
164112,218.284,-565.984,0,0
164373,221.304,-565.737,0,0
164633,224.518,-566.147,0,0
164893,227.344,-566.99,0,0
165154,230.087,-567.792,0,0
165414,233.083,-568.924,0,0
165674,235.747,-570.54,0,0
165935,238.098,-572.315,0,0
166195,240.264,-574.246,0,0
166455,242.088,-576.464,0,0
166716,243.41,-578.563,0,0
166976,244.745,-580.522,0,0
167236,246.066,-582.608,0,0
167497,247.295,-584.988,0,0
167757,248.114,-587.775,0,0
168017,248.256,-590.579,0,0
168277,247.941,-593.153,0,0
168538,247.363,-595.598,0,0
168798,246.394,-597.793,0,0
169058,245.286,-599.689,0,0
169319,244.034,-601.604,0,0
169579,242.216,-603.426,0,0
169839,239.877,-604.663,0,0
170100,237.589,-605.153,0,0
170360.075,235.511,-605.176,0,0
170620.4,233.663,-604.89,0,0
170880.725,232.124,-604.517,0,0
171141.05,230.521,-604.17,0,0
171401.375,228.814,-603.427,0,0
171661.7,227.545,-602.27,0,0
171922.025,226.706,-601.258,0,0
172182.35,225.81,-600.346,0,0
172442.675,225.01,-599.292,0,0
172703.0,224.466,-598.247,0,0
172963.325,224.024,-597.271,0,0
173223.65,223.733,-596.434,0,0
173483.975,223.344,-595.804,0,0
173744.3,222.782,-595.127,0,0
174004.625,222.223,-594.298,0,0
174264.95,221.69,-593.407,0,0
174525.275,221.288,-592.42,0,0
174785.6,220.941,-591.521,0,0
175045.925,220.742,-590.672,0,0
175306.25,220.458,-589.808,0,0
175566.575,220.41,-588.957,0,0
175826.9,220.333,-588.339,0,0
176087.225,220.042,-587.792,0,0
176347.55,219.842,-587.26,0,0
176607.875,219.415,-586.879,0,0
176868.2,218.678,-586.278,0,0
177128.525,218.068,-585.351,0,0
177388.85,217.691,-584.383,0,0
177649.175,217.593,-583.487,0,0
177909.5,217.625,-582.867,0,0
178169.825,217.491,-582.601,0,0
178430.15,217.073,-582.424,0,0
178690.475,216.497,-582.156,0,0
178950.8,215.914,-582.013,0,0
179211.125,215.009,-581.973,0,0
179471.45,213.789,-581.866,0,0
179731.775,212.548,-581.672,0,0
179992.1,210.853,-581.474,0,0
180252.425,208.729,-580.991,0,0
180512.75,206.404,-579.782,0,0
180773.075,204.393,-578.125,0,0
181033.4,202.631,-576.385,0,0
181293.725,200.943,-574.416,0,0
181554.05,199.527,-572.331,0,0
181814.375,198.245,-570.397,0,0
182074.7,196.799,-568.467,0,0
182335.025,195.268,-566.228,0,0
182595.35,194.031,-563.721,0,0
182855.675,192.994,-561.342,0,0
183116.0,191.905,-558.996,0,0
183376.325,190.699,-556.492,0,0
183636.65,189.518,-553.717,0,0
183896.975,188.521,-550.737,0,0
184157.3,187.874,-547.66,0,0
184417.625,187.349,-544.663,0,0
184677.95,186.91,-541.698,0,0
184938.275,186.487,-538.57,0,0
185198.6,186.247,-535.424,0,0
185458.925,186.281,-532.321,0,0
185719.25,186.332,-529.28,0,0
185979.575,186.453,-526.254,0,0
186239.9,186.779,-523.199,0,0
186500,187.09,-520.39,0,0
186761,187.226,-517.62,0,0
187021,187.365,-514.471,0,0
187281,187.567,-511.302,0,0
187542,188.136,-507.877,0,0
187802,189.156,-504.67,0,0
188062,190.196,-501.817,0,0
188322,191.131,-499.239,0,0
188583,191.826,-496.692,0,0
188843,192.537,-494.002,0,0
189103,193.253,-491.277,0,0
189364,194.035,-488.595,0,0
189624,194.714,-485.997,0,0
189884,195.217,-483.278,0,0
190145,195.72,-480.388,0,0
190405,196.279,-477.384,0,0
190665,196.824,-474.19,0,0
190926,197.599,-470.834,0,0
191186,198.576,-467.493,0,0
191446,199.67,-464.044,0,0
191707,200.752,-460.684,0,0
191967,202.03,-457.281,0,0
192227,203.38,-453.867,0,0
192488,204.853,-450.442,0,0
192748,206.277,-446.972,0,0
193008,207.919,-443.412,0,0
193269,209.673,-439.842,0,0
193529,211.697,-436.241,0,0
193789,213.86,-432.726,0,0
194050,216.001,-429.286,0,0
194310,218.272,-425.95,0,0
194570,220.554,-422.658,0,0
194831,222.763,-419.307,0,0
195091,225.115,-415.842,0,0
195351,227.713,-412.28,0,0
195612,230.435,-408.818,0,0
195872,233.284,-405.403,0,0
196132,236.202,-401.969,0,0
196393,239.311,-398.576,0,0
196653,242.644,-395.231,0,0
196913,246.074,-392.116,0,0
197174,249.417,-389.004,0,0
197434,252.901,-385.984,0,0
197694,256.477,-382.908,0,0
197955,260.158,-379.95,0,0
198215,263.878,-377.061,0,0
198475,267.655,-374.172,0,0
198735,271.393,-371.471,0,0
198996,275.108,-368.765,0,0
199256,278.731,-365.82,0,0
199516,282.495,-362.637,0,0
199777,286.584,-359.372,0,0
200037,291.008,-355.92,0,0
200297,295.736,-352.656,0,0
200558,300.695,-349.552,0,0
200818,305.743,-346.695,0,0
201078,310.7,-343.77,0,0
201339,315.692,-340.528,0,0
201599,321.188,-337.044,0,0
201859,327.211,-333.608,0,0
202120,333.632,-330.315,0,0
202380.025,340.599,-327.018,0,0
202640.35,348.108,-324.117,0,0
202900.675,355.977,-321.582,0,0
203161.0,364.184,-319.281,0,0
203421.325,372.73,-317.337,0,0
203681.65,381.856,-315.746,0,0
203941.975,391.625,-314.674,0,0
204202.3,401.794,-314.479,0,0
204462.625,412.105,-315.07,0,0
204722.95,422.57,-316.627,0,0
204983.275,432.886,-319.033,0,0
205243.6,443.142,-322.346,0,0
205503.925,452.921,-326.395,0,0
205764.25,462.265,-331.176,0,0
206024.575,471.154,-336.486,0,0
206284.9,479.745,-342.267,0,0
206545.225,488.01,-348.857,0,0
206805.55,495.339,-356.062,0,0
207065.875,501.585,-363.588,0,0
207326.2,507.112,-370.856,0,0
207586.525,512.319,-377.983,0,0
207846.85,517.266,-385.238,0,0
208107.175,521.92,-392.737,0,0
208367.5,526.055,-400.621,0,0
208627.825,529.53,-408.655,0,0
208888.15,532.215,-416.711,0,0
209148.475,534.405,-424.684,0,0
209408.8,536.157,-432.631,0,0
209669.125,537.362,-440.789,0,0
209929.45,537.476,-449.045,0,0
210189.775,536.317,-456.94,0,0
210450.1,534.105,-463.914,0,0
210710.425,531.112,-469.567,0,0
210970.75,528.249,-473.943,0,0
211231.075,525.642,-477.451,0,0
211491.4,523.097,-480.335,0,0
211751.725,520.643,-482.231,0,0
212012.05,518.742,-483.133,0,0
212272.375,517.618,-483.25,0,0
212532.7,517.671,-482.769,0,0
212793.025,519.059,-482.46,0,0
213053.35,521.38,-482.778,0,0
213313.675,524.16,-483.889,0,0
213574.0,527.161,-485.946,0,0
213834.325,529.658,-488.6,0,0
214094.65,531.866,-490.954,0,0
214354.975,534.378,-493.518,0,0
214615.3,536.92,-496.464,0,0
214875.625,539.031,-499.465,0,0
215135.95,540.91,-502.557,0,0
215396.275,542.742,-505.428,0,0
215656.6,544.861,-508.251,0,0
215916.925,546.906,-511.193,0,0
216177.25,548.908,-514.12,0,0
216437.575,551.168,-517.119,0,0
216697.9,553.253,-520.288,0,0
216958.225,555.367,-523.329,0,0
217218.55,557.739,-526.481,0,0
217478.875,560.145,-529.961,0,0
217739.2,562.34,-533.637,0,0
217999.525,564.244,-537.262,0,0
218259.85,565.962,-540.581,0,0
218520,567.871,-543.498,0,0
218780,570.287,-546.248,0,0
219041,573.236,-549.156,0,0
219301,576.577,-552.43,0,0
219561,580.144,-556.097,0,0
219822,583.723,-560.042,0,0
220082,587.638,-564.466,0,0
220342,591.49,-569.147,0,0
220603,595.578,-574.458,0,0
220863,599.576,-580.16,0,0
221123,603.646,-586.294,0,0
221384,607.742,-593.257,0,0
221644,611.434,-600.813,0,0
221904,614.625,-608.876,0,0
222165,617.566,-617.373,0,0
222425,620.037,-626.277,0,0
222685,621.997,-635.71,0,0
222946,623.417,-645.219,0,0
223206,624.259,-655.271,0,0
223466,624.389,-665.567,0,0
223727,623.61,-675.85,0,0
223987,622.251,-686.151,0,0
224247,620.187,-696.331,0,0
224508,617.517,-706.285,0,0
224768,614.355,-715.514,0,0
225028,610.896,-724.924,0,0
225289,607.263,-733.66,0,0
225549,603.603,-742.318,0,0
225809,599.791,-751.263,0,0
226070,595.619,-760.593,0,0
226330,590.67,-770.013,0,0
226590,584.767,-779.174,0,0
226851,578.377,-787.789,0,0
227111,571.513,-795.945,0,0
227371,564.33,-803.707,0,0
227632,556.95,-811.087,0,0
227892,549.082,-818.271,0,0
228152,540.712,-825.057,0,0
228413,531.802,-831.315,0,0
228673,522.575,-836.879,0,0
228933,513.241,-841.709,0,0
229193,503.74,-845.983,0,0
229454,494.05,-849.437,0,0
229714,484.61,-852.151,0,0
229974,475.108,-854.281,0,0
230235,466.129,-855.911,0,0
230495,457.339,-856.959,0,0
230755,448.778,-857.766,0,0
231016,440.625,-858.242,0,0
231276,432.576,-858.419,0,0
231536,424.916,-858.288,0,0
231797,417.427,-857.893,0,0
232057,410.272,-857.378,0,0
232317,403.345,-856.633,0,0
232578,396.532,-855.747,0,0
232838,390.077,-854.607,0,0
233098,383.874,-853.318,0,0
233359,378.038,-851.93,0,0
233619,372.558,-850.338,0,0
233879,367.383,-848.954,0,0
234140,362.491,-847.532,0,0
234400,357.909,-846.248,0,0
234660.3,353.328,-845.214,0,0
234920.625,349.203,-844.461,0,0
235180.95,344.499,-843.988,0,0
235441.275,340.1,-843.461,0,0
235701.6,335.104,-842.856,0,0
235961.925,330.347,-842.204,0,0
236222.25,325.458,-841.37,0,0
236482.575,320.591,-840.494,0,0
236742.9,315.857,-839.489,0,0
237003.225,310.985,-838.501,0,0
237263.55,306.036,-837.297,0,0
237523.875,301.132,-835.966,0,0
237784.2,296.41,-834.366,0,0
238044.525,291.782,-832.718,0,0
238304.85,287.166,-831.055,0,0
238565.175,282.593,-829.204,0,0
238825.5,278.17,-827.208,0,0
239085.825,274.017,-825.062,0,0
239346.15,269.879,-822.958,0,0
239606.475,266.042,-820.836,0,0
239866.8,262.057,-818.658,0,0
240127.125,258.29,-816.402,0,0
240387.45,254.525,-814.07,0,0
240647.775,251.017,-811.722,0,0
240908.1,247.616,-809.453,0,0
241168.425,244.209,-807.054,0,0
241428.75,240.888,-804.705,0,0
241689.075,237.712,-802.403,0,0
241949.4,234.53,-800.059,0,0
242209.725,231.442,-797.644,0,0
242470.05,228.382,-795.217,0,0
242730.375,225.512,-792.574,0,0
242990.7,222.743,-790.06,0,0
243251.025,220.207,-787.464,0,0
243511.35,217.836,-785.124,0,0
243771.675,215.499,-782.752,0,0
244032.0,213.125,-780.52,0,0
244292.325,210.873,-778.281,0,0
244552.65,208.488,-776.149,0,0
244812.975,206.18,-774.013,0,0
245073.3,203.911,-771.914,0,0
245333.625,201.542,-769.759,0,0
245593.95,199.225,-767.71,0,0
245854.275,196.829,-765.575,0,0
246114.6,194.582,-763.418,0,0
246374.925,192.151,-761.326,0,0
246635.25,189.724,-758.994,0,0
246895.575,187.39,-756.637,0,0
247155.9,185.12,-754.122,0,0
247416.225,182.952,-751.635,0,0
247676.55,180.939,-748.996,0,0
247936.875,179.009,-746.514,0,0
248197.2,177.198,-743.919,0,0
248457.525,175.389,-741.475,0,0
248717.85,173.658,-739.011,0,0
248978.175,171.909,-736.513,0,0
249238.5,170.198,-733.989,0,0
249498.825,168.496,-731.438,0,0
249759.15,166.951,-728.851,0,0
250019.475,165.43,-726.246,0,0
250279.8,164.008,-723.636,0,0
250540,162.722,-721.136,0,0
250800,161.517,-718.52,0,0
251061,160.33,-716.142,0,0
251321,159.195,-713.748,0,0
251581,158.083,-711.511,0,0
251842,156.886,-709.074,0,0
252102,155.61,-706.763,0,0
252362,154.446,-704.427,0,0
252623,153.256,-702,0,0
252883,152.091,-699.522,0,0
253143,150.968,-696.992,0,0
253404,149.94,-694.382,0,0
253664,149.031,-691.737,0,0
253924,148.21,-689.061,0,0
254185,147.494,-686.472,0,0
254445,146.963,-683.894,0,0
254705,146.439,-681.358,0,0
254966,145.986,-678.971,0,0
255226,145.631,-676.601,0,0
255486,145.27,-674.285,0,0
255747,144.883,-672.04,0,0
256007,144.481,-669.777,0,0
256267,144.072,-667.607,0,0
256528,143.702,-665.295,0,0
256788,143.359,-663.012,0,0
257048,143.059,-660.755,0,0
257309,142.779,-658.49,0,0
257569,142.537,-656.233,0,0
257829,142.369,-653.907,0,0
258090,142.176,-651.586,0,0
258350,142.121,-649.223,0,0
258610,142.151,-646.851,0,0
258871,142.283,-644.459,0,0
259131,142.466,-642.132,0,0
259391,142.831,-639.695,0,0
259651,143.319,-637.383,0,0
259912,143.918,-635.243,0,0
260172,144.626,-633.058,0,0
260432,145.373,-631.084,0,0
260693,146.238,-629.154,0,0
260953,147.12,-627.422,0,0
261213,147.94,-625.728,0,0
261474,148.883,-624.147,0,0
261734,149.771,-622.629,0,0
261994,150.664,-621.187,0,0
262255,151.597,-619.78,0,0
262515,152.568,-618.439,0,0
262775,153.516,-617.164,0,0
263036,154.537,-616.03,0,0
263296,155.553,-614.915,0,0
263556,156.605,-613.863,0,0
263817,157.622,-612.906,0,0
264077,158.695,-611.978,0,0
264337,159.773,-611.096,0,0
264598,161.023,-610.306,0,0
264858,162.276,-609.621,0,0
265118,163.636,-609.117,0,0
265379,164.936,-608.704,0,0
265639,166.341,-608.59,0,0
265899,167.781,-608.63,0,0
266160,169.143,-608.967,0,0
266420,170.442,-609.469,0,0
266680.25,171.56,-610.261,0,0
266940.575,172.537,-611.268,0,0
267200.9,173.304,-612.492,0,0
267461.225,173.744,-613.844,0,0
267721.55,173.907,-615.355,0,0
267981.875,173.742,-616.985,0,0
268242.2,173.219,-618.548,0,0
268502.525,172.358,-620.056,0,0
268762.85,171.167,-621.485,0,0
269023.175,169.636,-622.691,0,0
269283.5,167.992,-623.701,0,0
269543.825,166.036,-624.446,0,0
269804.15,164.044,-624.891,0,0
270064.475,161.878,-625.063,0,0
270324.8,159.664,-625.043,0,0
270585.125,157.399,-624.761,0,0
270845.45,155.16,-624.227,0,0
271105.775,152.933,-623.37,0,0
271366.1,150.804,-622.261,0,0
271626.425,148.82,-620.916,0,0
271886.75,147.016,-619.349,0,0
272147.075,145.388,-617.669,0,0
272407.4,143.976,-615.865,0,0
272667.725,142.781,-614.015,0,0
272928.05,141.734,-612.157,0,0
273188.375,140.88,-610.288,0,0
273448.7,140.156,-608.396,0,0
273709.025,139.6,-606.562,0,0
273969.35,139.142,-604.82,0,0
274229.675,138.808,-603.13,0,0
274490.0,138.443,-601.454,0,0
274750.325,138.172,-599.882,0,0
275010.65,137.96,-598.253,0,0
275270.975,137.841,-596.613,0,0
275531.3,137.744,-595.058,0,0
275791.625,137.818,-593.523,0,0
276051.95,137.991,-592.035,0,0
276312.275,138.186,-590.635,0,0
276572.6,138.459,-589.326,0,0
276832.925,138.762,-588.057,0,0
277093.25,139.13,-586.884,0,0
277353.575,139.521,-585.803,0,0
277613.9,139.929,-584.831,0,0
277874.225,140.35,-583.954,0,0
278134.55,140.761,-583.191,0,0
278394.875,141.141,-582.526,0,0
278655.2,141.468,-581.967,0,0
278915.525,141.711,-581.498,0,0
279175.85,141.796,-581.044,0,0
279436.175,141.867,-580.584,0,0
279696.5,141.866,-580.143,0,0
279956.825,141.853,-579.649,0,0
280217.15,141.669,-579.161,0,0
280477.475,141.53,-578.581,0,0
280737.8,141.416,-577.963,0,0
280998.125,141.385,-577.351,0,0
281258.45,141.376,-576.8,0,0
281518.775,141.38,-576.345,0,0
281779.1,141.351,-575.975,0,0
282039.425,141.211,-575.703,0,0
282299.75,140.928,-575.428,0,0
282560,140.481,-575.105,0,0
282820,139.982,-574.804,0,0
283081,139.352,-574.282,0,0
283341,138.792,-573.681,0,0
283601,138.28,-572.786,0,0
283862,137.735,-571.928,0,0
284122,137.457,-571.142,0,0
284382,137.156,-570.354,0,0
284643,136.937,-569.518,0,0
284903,136.728,-568.848,0,0
285163,136.443,-568.202,0,0
285424,136.067,-567.656,0,0
285684,135.774,-567.069,0,0
285944,135.335,-566.474,0,0
286205,134.757,-565.952,0,0
286465,134.046,-565.329,0,0
286725,133.179,-564.547,0,0
286986,132.364,-563.484,0,0
287246,131.542,-562.399,0,0
287506,130.834,-560.987,0,0
287767,130.157,-559.631,0,0
288027,129.772,-557.976,0,0
288287,129.533,-556.301,0,0
288548,129.436,-554.67,0,0
288808,129.457,-553.075,0,0
289068,129.739,-551.374,0,0
289329,130.14,-549.869,0,0
289589,130.66,-548.592,0,0
289849,131.317,-547.413,0,0
290109,131.969,-546.291,0,0
290370,132.616,-545.38,0,0
290630,133.264,-544.724,0,0
290890,133.896,-544.173,0,0
291151,134.212,-543.627,0,0
291411,134.438,-543.176,0,0
291671,134.681,-542.709,0,0
291932,134.712,-542.137,0,0
292192,134.791,-541.604,0,0
292452,134.712,-540.94,0,0
292713,134.707,-540.312,0,0
292973,134.58,-539.6,0,0
293233,134.576,-538.808,0,0
293494,134.442,-537.958,0,0
293754,134.303,-536.993,0,0
294014,134.294,-536.041,0,0
294275,134.334,-535.005,0,0
294535,134.288,-534.006,0,0
294795,134.375,-532.847,0,0
295056,134.482,-531.706,0,0
295316,134.601,-530.41,0,0
295576,134.845,-529.071,0,0
295837,135.267,-527.736,0,0
296097,135.778,-526.46,0,0
296357,136.487,-525.074,0,0
296618,137.258,-523.886,0,0
296878,138.127,-522.737,0,0
297138,139.052,-521.786,0,0
297399,139.997,-520.803,0,0
297659,140.995,-520.02,0,0
297919,141.979,-519.137,0,0
298180,142.955,-518.391,0,0
298440,144.044,-517.802,0,0
298700.2,145.018,-517.156,0,0
298960.525,146.002,-516.615,0,0
299220.85,147.002,-516.11,0,0
299481.175,147.917,-515.603,0,0
299741.5,148.894,-515.053,0,0
300001.825,149.953,-514.503,0,0
300262.15,151.016,-514.03,0,0
300522.475,152.172,-513.57,0,0
300782.8,153.377,-513.101,0,0
301043.125,154.652,-512.717,0,0
301303.45,156.06,-512.364,0,0
301563.775,157.633,-512.222,0,0
301824.1,159.189,-512.315,0,0
302084.425,160.709,-512.61,0,0
302344.75,162.101,-513.1,0,0
302605.075,163.31,-513.674,0,0
302865.4,164.394,-514.267,0,0
303125.725,165.442,-514.869,0,0
303386.05,166.273,-515.425,0,0
303646.375,167.264,-515.928,0,0
303906.7,168.18,-516.469,0,0
304167.025,169.195,-517.121,0,0
304427.35,170.174,-517.81,0,0
304687.675,170.969,-518.725,0,0
304948.0,171.799,-519.526,0,0
305208.325,172.509,-520.3,0,0
305468.65,173.29,-521.121,0,0
305728.975,174.092,-522.065,0,0
305989.3,174.802,-523.053,0,0
306249.625,175.541,-524.057,0,0
306509.95,176.287,-525.137,0,0
306770.275,176.9,-526.421,0,0
307030.6,177.493,-527.806,0,0
307290.925,177.93,-529.24,0,0
307551.25,178.312,-530.731,0,0
307811.575,178.359,-532.354,0,0
308071.9,178.348,-533.874,0,0
308332.225,178.271,-535.438,0,0
308592.55,178.057,-536.893,0,0
308852.875,177.688,-538.387,0,0
309113.2,177.247,-539.744,0,0
309373.525,176.779,-541.062,0,0
309633.85,176.215,-542.324,0,0
309894.175,175.74,-543.578,0,0
310154.5,175.147,-544.79,0,0
310414.825,174.606,-546.09,0,0
310675.15,173.91,-547.321,0,0
310935.475,173.086,-548.587,0,0
311195.8,172.221,-549.815,0,0
311456.125,171.303,-551.079,0,0
311716.45,170.226,-552.163,0,0
311976.775,169.159,-553.227,0,0
312237.1,167.914,-554.217,0,0
312497.425,166.741,-555.183,0,0
312757.75,165.534,-556.039,0,0
313018.075,164.257,-556.917,0,0
313278.4,162.897,-557.541,0,0
313538.725,161.574,-558.219,0,0
313799.05,160.277,-558.763,0,0
314059.375,158.989,-559.255,0,0
314319.7,157.808,-559.744,0,0
314580,156.553,-560.313,0,0
314840,155.296,-560.701,0,0
315101,154.027,-561.221,0,0
315361,152.712,-561.754,0,0
315621,151.431,-562.266,0,0
315882,150.011,-562.755,0,0
316142,148.555,-563.206,0,0
316402,146.984,-563.626,0,0
316663,145.416,-563.998,0,0
316923,143.733,-564.26,0,0
317183,142.193,-564.336,0,0
317444,140.424,-564.466,0,0
317704,138.818,-564.471,0,0
317964,137.15,-564.469,0,0
318225,135.406,-564.427,0,0
318485,133.809,-564.207,0,0
318745,132.096,-563.998,0,0
319006,130.413,-563.686,0,0
319266,128.784,-563.289,0,0
319526,127.111,-562.851,0,0
319787,125.414,-562.378,0,0
320047,123.993,-561.72,0,0
320307,122.376,-561.162,0,0
320567,120.828,-560.527,0,0
320828,119.236,-559.734,0,0
321088,117.798,-558.989,0,0
321348,116.354,-558.124,0,0
321609,114.935,-557.25,0,0
321869,113.48,-556.219,0,0
322129,112.154,-555.212,0,0
322390,110.885,-554.096,0,0
322650,109.725,-552.818,0,0
322910,108.608,-551.678,0,0
323171,107.615,-550.34,0,0
323431,106.808,-549.101,0,0
323691,106.085,-547.796,0,0
323952,105.42,-546.583,0,0
324212,104.788,-545.383,0,0
324472,104.289,-544.252,0,0
324733,103.847,-543.13,0,0
324993,103.309,-542.143,0,0
325253,102.982,-541.044,0,0
325514,102.672,-540.017,0,0
325774,102.438,-539.143,0,0
326034,102.22,-538.253,0,0
326295,102.011,-537.45,0,0
326555,101.843,-536.737,0,0
326815,101.641,-536.044,0,0
327076,101.423,-535.397,0,0
327336,101.218,-534.856,0,0
327596,101.038,-534.367,0,0
327857,100.699,-533.887,0,0
328117,100.443,-533.43,0,0
328377,100.034,-533.03,0,0
328638,99.727,-532.621,0,0
328898,99.4304,-532.178,0,0
329158,99.0593,-531.825,0,0
329419,98.6782,-531.471,0,0
329679,98.1581,-531.138,0,0
329939,97.7005,-530.818,0,0
330200,97.2336,-530.456,0,0
330460,96.7009,-530.076,0,0
330720.15,96.2331,-529.803,0,0
330980.475,95.6832,-529.503,0,0
331240.8,95.0768,-529.171,0,0
331501.125,94.503,-528.882,0,0
331761.45,93.8491,-528.431,0,0
332021.775,93.1957,-528.145,0,0
332282.1,92.4685,-527.714,0,0
332542.425,91.7495,-527.38,0,0
332802.75,91.038,-526.963,0,0
333063.075,90.3331,-526.579,0,0
333323.4,89.6447,-526.13,0,0
333583.725,88.7828,-525.625,0,0
333844.05,88.0384,-525.208,0,0
334104.375,87.2097,-524.698,0,0
334364.7,86.3963,-524.134,0,0
334625.025,85.6187,-523.642,0,0
334885.35,84.7719,-522.916,0,0
335145.675,83.9268,-522.314,0,0
335406.0,83.1246,-521.613,0,0
335666.325,82.3266,-520.812,0,0
335926.65,81.5792,-520.129,0,0
336186.975,80.7942,-519.282,0,0
336447.3,80.1839,-518.516,0,0
336707.625,79.488,-517.694,0,0
336967.95,78.8117,-516.853,0,0
337228.275,78.1835,-516.064,0,0
337488.6,77.5233,-515.316,0,0
337748.925,76.9562,-514.523,0,0
338009.25,76.3966,-513.69,0,0
338269.575,75.8055,-512.834,0,0
338529.9,75.2599,-512.014,0,0
338790.225,74.7625,-511.155,0,0
339050.55,74.1532,-510.33,0,0
339310.875,73.6129,-509.459,0,0
339571.2,73.1543,-508.698,0,0
339831.525,72.6509,-507.873,0,0
340091.85,72.1644,-507.062,0,0
340352.175,71.6873,-506.194,0,0
340612.5,71.2502,-505.364,0,0
340872.825,70.8751,-504.536,0,0
341133.15,70.3953,-503.75,0,0
341393.475,69.9626,-502.949,0,0
341653.8,69.5561,-502.107,0,0
341914.125,69.0939,-501.34,0,0
342174.45,68.6378,-500.606,0,0
342434.775,68.2468,-499.774,0,0
342695.1,67.8536,-498.952,0,0
342955.425,67.3917,-498.173,0,0
343215.75,67.0132,-497.419,0,0
343476.075,66.5426,-496.612,0,0
343736.4,66.1769,-495.834,0,0
343996.725,65.7539,-495.044,0,0
344257.05,65.3462,-494.227,0,0
344517.375,64.8782,-493.411,0,0
344777.7,64.4491,-492.645,0,0
345038.025,64.0453,-491.767,0,0
345298.35,63.5506,-490.936,0,0
345558.675,63.181,-490.1,0,0
345819.0,62.7454,-489.214,0,0
346079.325,62.3429,-488.324,0,0
346339.65,61.9087,-487.466,0,0
346599.975,61.5064,-486.57,0,0
346860,61.219,-485.626,0,0
347121,60.8251,-484.738,0,0
347381,60.4454,-483.777,0,0
347641,60.1524,-482.805,0,0
347902,59.8484,-481.842,0,0
348162,59.555,-480.833,0,0
348422,59.3333,-479.836,0,0
348683,59.1265,-478.904,0,0
348943,58.9327,-477.959,0,0
349203,58.7518,-477.049,0,0
349464,58.5791,-476.123,0,0
349724,58.4213,-475.267,0,0
349984,58.3311,-474.331,0,0
350245,58.1231,-473.503,0,0
350505,57.9761,-472.587,0,0
350765,57.8513,-471.74,0,0
351025,57.7437,-470.85,0,0
351286,57.5859,-469.965,0,0
351546,57.49,-469.129,0,0
351806,57.4075,-468.252,0,0
352067,57.3264,-467.361,0,0
352327,57.2791,-466.555,0,0
352587,57.1794,-465.716,0,0
352848,57.1671,-464.928,0,0
353108,57.0624,-464.114,0,0
353368,56.9818,-463.304,0,0
353629,56.9177,-462.569,0,0
353889,56.8439,-461.732,0,0
354149,56.7246,-460.875,0,0
354410,56.6594,-460.132,0,0
354670,56.5393,-459.31,0,0
354930,56.5467,-458.536,0,0
355191,56.4998,-457.771,0,0
355451,56.4822,-456.948,0,0
355711,56.3948,-456.174,0,0
355972,56.3509,-455.401,0,0
356232,56.2898,-454.587,0,0
356492,56.293,-453.76,0,0
356753,56.2909,-453.026,0,0
357013,56.2461,-452.242,0,0
357273,56.2463,-451.523,0,0
357534,56.2032,-450.755,0,0
357794,56.1884,-449.962,0,0
358054,56.1976,-449.211,0,0
358315,56.1414,-448.461,0,0
358575,56.1365,-447.732,0,0
358835,56.1213,-446.895,0,0
359096,56.1656,-446.113,0,0
359356,56.1359,-445.314,0,0
359616,56.1965,-444.573,0,0
359877,56.2609,-443.775,0,0
360137,56.3102,-443.07,0,0
360397,56.388,-442.315,0,0
360658,56.4346,-441.627,0,0
360918,56.4663,-440.869,0,0
361178,56.5544,-440.245,0,0
361438,56.6231,-439.476,0,0
361699,56.6971,-438.836,0,0
361959,56.6963,-438.139,0,0
362219,56.7227,-437.419,0,0
362480,56.6983,-436.72,0,0
362740.1,56.7337,-436.003,0,0
363000.425,56.7923,-435.245,0,0
363260.75,56.7995,-434.521,0,0
363521.075,56.8696,-433.787,0,0
363781.4,56.9127,-432.99,0,0
364041.725,56.9852,-432.194,0,0
364302.05,57.1583,-431.512,0,0
364562.375,57.2186,-430.767,0,0
364822.7,57.3549,-430.018,0,0
365083.025,57.4933,-429.334,0,0
365343.35,57.6484,-428.649,0,0
365603.675,57.7868,-427.969,0,0
365864.0,57.9151,-427.325,0,0
366124.325,58.0562,-426.685,0,0
366384.65,58.1617,-425.989,0,0
366644.975,58.2196,-425.344,0,0
366905.3,58.2641,-424.663,0,0
367165.625,58.2952,-423.922,0,0
367425.95,58.2991,-423.217,0,0
367686.275,58.3353,-422.433,0,0
367946.6,58.3975,-421.568,0,0
368206.925,58.5582,-420.751,0,0
368467.25,58.6835,-419.882,0,0
368727.575,58.9058,-419.02,0,0
368987.9,59.111,-418.126,0,0
369248.225,59.3682,-417.276,0,0
369508.55,59.6368,-416.401,0,0
369768.875,60.0462,-415.542,0,0
370029.2,60.3821,-414.717,0,0
370289.525,60.7716,-413.894,0,0
370549.85,61.1977,-413.054,0,0
370810.175,61.6683,-412.292,0,0
371070.5,62.1587,-411.474,0,0
371330.825,62.751,-410.738,0,0
371591.15,63.3268,-409.986,0,0
371851.475,63.9505,-409.309,0,0
372111.8,64.6229,-408.673,0,0
372372.125,65.2947,-408.096,0,0
372632.45,65.9491,-407.577,0,0
372892.775,66.5949,-407.085,0,0
373153.1,67.3323,-406.696,0,0
373413.425,68.004,-406.306,0,0
373673.75,68.6332,-405.979,0,0
373934.075,69.2612,-405.708,0,0
374194.4,69.8566,-405.41,0,0
374454.725,70.4816,-405.148,0,0
374715.05,71.022,-404.941,0,0
374975.375,71.6057,-404.724,0,0
375235.7,72.0617,-404.596,0,0
375496.025,72.6313,-404.439,0,0
375756.35,73.1299,-404.267,0,0
376016.675,73.6163,-404.083,0,0
376277.0,74.1116,-403.962,0,0
376537.325,74.5664,-403.883,0,0
376797.65,75.0608,-403.828,0,0
377057.975,75.5581,-403.747,0,0
377318.3,76.0393,-403.67,0,0
377578.625,76.4547,-403.706,0,0
377838.95,76.817,-403.725,0,0
378099.275,77.1955,-403.795,0,0
378359.6,77.5592,-403.824,0,0
378619.925,77.8497,-403.881,0,0
378880,78.1321,-403.932,0,0
379141,78.3555,-403.981,0,0
379401,78.5523,-404.037,0,0
379661,78.7363,-404.04,0,0
379922,79.0003,-404.005,0,0
380182,79.2074,-403.925,0,0
380442,79.4583,-403.845,0,0
380703,79.7905,-403.765,0,0
380963,80.1362,-403.72,0,0
381223,80.572,-403.772,0,0
381483,80.9441,-403.86,0,0
381744,81.3743,-404.096,0,0
382004,81.7134,-404.341,0,0
382264,82.0297,-404.659,0,0
382525,82.3231,-405.046,0,0
382785,82.534,-405.456,0,0
383045,82.6728,-405.936,0,0
383306,82.6799,-406.389,0,0
383566,82.6821,-406.926,0,0
383826,82.569,-407.426,0,0
384087,82.3366,-407.91,0,0
384347,82.0394,-408.336,0,0
384607,81.6702,-408.708,0,0
384868,81.2894,-408.995,0,0
385128,80.8618,-409.304,0,0
385388,80.4683,-409.484,0,0
385649,79.9458,-409.707,0,0
385909,79.471,-409.82,0,0
386169,79.0244,-409.93,0,0
386430,78.4682,-410.042,0,0
386690,77.9372,-410.063,0,0
386950,77.4336,-410.103,0,0
387211,76.8455,-410.094,0,0
387471,76.2533,-409.973,0,0
387731,75.6632,-409.829,0,0
387992,75.0841,-409.673,0,0
388252,74.5049,-409.402,0,0
388512,73.99,-409.151,0,0
388773,73.4926,-408.845,0,0
389033,73.0317,-408.498,0,0
389293,72.6168,-408.145,0,0
389554,72.2252,-407.762,0,0
389814,71.9101,-407.424,0,0
390074,71.5696,-407.061,0,0
390335,71.2292,-406.729,0,0
390595,70.9552,-406.478,0,0
390855,70.6967,-406.156,0,0
391116,70.3698,-405.922,0,0
391376,70.0764,-405.616,0,0
391636,69.7252,-405.409,0,0
391896,69.3317,-405.152,0,0
392157,69.0051,-404.918,0,0
392417,68.6222,-404.644,0,0
392677,68.175,-404.382,0,0
392938,67.725,-404.095,0,0
393198,67.2813,-403.795,0,0
393458,66.8005,-403.511,0,0
393719,66.3168,-403.124,0,0
393979,65.8226,-402.722,0,0
394239,65.3337,-402.27,0,0
394500,64.8641,-401.837,0,0
394760.05,64.4237,-401.363,0,0
395020.375,63.9038,-400.859,0,0
395280.7,63.4922,-400.315,0,0
395541.025,63.0941,-399.8,0,0
395801.35,62.63,-399.226,0,0
396061.675,62.1979,-398.621,0,0
396322.0,61.8327,-398.014,0,0
396582.325,61.4072,-397.427,0,0
396842.65,61.0593,-396.76,0,0
397102.975,60.7326,-396.091,0,0
397363.3,60.374,-395.436,0,0
397623.625,60.0664,-394.757,0,0
397883.95,59.7851,-394.002,0,0
398144.275,59.54,-393.317,0,0
398404.6,59.2921,-392.632,0,0
398664.925,59.1226,-391.863,0,0
398925.25,58.9219,-391.139,0,0
399185.575,58.7483,-390.449,0,0
399445.9,58.6276,-389.744,0,0
399706.225,58.4944,-389.052,0,0
399966.55,58.374,-388.338,0,0
400006.6,58.358,-388.247,0,0