File: Accelerated corrosion test data/2025-10-22_18-00-04/sample_4.csv
Frequency (Hz),Impedance (ohms),Phase (Radians),Temperature (C),Humidity (%)
10000.0,264.23,-11920.4,0,0
10260.325,261.501,-11622.1,0,0
10520.65,251.21,-11336,0,0
10780.975,245.803,-11064,0,0
11041.3,240.538,-10804.1,0,0
11301.625,234.99,-10560.4,0,0
11561.95,229.073,-10323.6,0,0
11822.275,224.758,-10097.8,0,0
12082.6,219.972,-9881.55,0,0
12342.925,215.688,-9674.16,0,0
12603.25,214.336,-9473.61,0,0
12863.575,208.477,-9286.42,0,0
13123.9,206.127,-9107.03,0,0
13384.225,199.787,-8927.7,0,0
13644.55,196.322,-8756.07,0,0
13904.875,193.57,-8589.38,0,0
14165.2,195.159,-8425.31,0,0
14425.525,199.904,-8281.13,0,0
14685.8,196.515,-8163.81,0,0
14946.175,181.939,-8006.89,0,0
15206.5,181.411,-7861.28,0,0
15466.825,197.256,-7715.03,0,0
15727.15,185.666,-7618.91,0,0
15987.5,187.226,-7502.49,0,0
16247.8,171.165,-7371.45,0,0
16508.125,188.722,-7256.53,0,0
16768.45,182.207,-7145.17,0,0
17028.775,168.149,-7054.56,0,0
17289.1,159.976,-6940.64,0,0
17549.425,158.361,-6836.96,0,0
17809.75,156.038,-6736.22,0,0
18070.075,152.378,-6637.3,0,0
18330.4,153.017,-6541.53,0,0
18590.725,152.481,-6451.32,0,0
18851.05,150.619,-6366.95,0,0
19111.375,145.517,-6277.6,0,0
19371.7,142.572,-6191.73,0,0
19632.025,141.741,-6106.92,0,0
19892.35,144.433,-6026.99,0,0
20152.675,143.116,-5949.45,0,0
20413.0,140.55,-5874.63,0,0
20673.3,140.572,-5800.62,0,0
20933.65,137.666,-5725.94,0,0
21193.975,141.287,-5651.43,0,0
21454.3,152.835,-5585.26,0,0
21714.625,148.487,-5529.72,0,0
21974.9,148.824,-5458.92,0,0
22235.275,147.337,-5414.92,0,0
22495.6,134.891,-5355.15,0,0
22755.925,127.648,-5290.29,0,0
23016.25,125.13,-5227.69,0,0
23276.6,123.054,-5167.75,0,0
23536.9,120.737,-5110.03,0,0
23797.225,118.628,-5052.6,0,0
24057.55,116.777,-4996.8,0,0
24317.875,115.887,-4942.42,0,0
24578.2,114.22,-4888.4,0,0
24838.525,113.673,-4836.01,0,0
25098.85,114.613,-4784.37,0,0
25359.175,113.27,-4737.64,0,0
25619.5,112.001,-4688.1,0,0
25879.8,110.04,-4643.28,0,0
26140.1,107.884,-4595.02,0,0
26400.5,107.521,-4548.17,0,0
26660.8,105.97,-4501.34,0,0
26921.1,106.318,-4456.93,0,0
27181.4,105.795,-4412.79,0,0
27441.8,106.118,-4367.18,0,0
27702.1,109.548,-4323.04,0,0
27962.4,115.834,-4282.19,0,0
28222.7,121.171,-4254.31,0,0
28483.1,113.032,-4218.61,0,0
28743.4,108.817,-4178.1,0,0
29003.7,113.077,-4134.26,0,0
29264,118.735,-4106.28,0,0
29524.4,113.415,-4075.12,0,0
29784.7,108.73,-4044.04,0,0
30045,106.083,-4005.55,0,0
30305.3,101.962,-3971.61,0,0
30565.7,99.2069,-3936.37,0,0
30826,98.4045,-3901.33,0,0
31086.3,97.9437,-3866.99,0,0
31346.6,99.0605,-3834.06,0,0
31607,96.8666,-3802.67,0,0
31867.3,97.6695,-3770.12,0,0
32127.6,100.317,-3740.12,0,0
32387.9,98.3186,-3714.67,0,0
32648.3,96.1422,-3684.26,0,0
32908.6,94.4392,-3656.96,0,0
33168.9,92.5749,-3627.86,0,0
33429.2,89.6609,-3598.84,0,0
33689.6,87.9933,-3569.85,0,0
33949.9,87.0329,-3541.28,0,0
34210.2,87.3034,-3513.51,0,0
34470.5,85.7669,-3486.98,0,0
34730.9,84.505,-3459.74,0,0
34991.2,84.1042,-3433,0,0
35251.5,83.8245,-3407.17,0,0
35511.8,83.1047,-3382.01,0,0
35772.2,82.5002,-3356.54,0,0
36032.5,81.3145,-3332.06,0,0
36292.8,80.7114,-3307.13,0,0
36553.1,80.204,-3282.23,0,0
36813.5,80.2563,-3258.48,0,0
37073.8,80.3465,-3235.21,0,0
37334.1,79.3149,-3212.62,0,0
37594.4,78.7153,-3189.21,0,0
37854.8,78.8504,-3166.97,0,0
38115.1,78.1647,-3145.01,0,0
38375.4,77.0235,-3122.7,0,0
38635.7,76.8979,-3100.26,0,0
38896.1,76.691,-3078.96,0,0
39156.4,76.6489,-3057.81,0,0
39416.7,76.1213,-3036.56,0,0
39677,75.9805,-3014.92,0,0
39937.4,77.1313,-2993.63,0,0
40197.7,78.8122,-2973.56,0,0
40458,80.2616,-2955.07,0,0
40718.3,79.4151,-2938.13,0,0
40978.7,78.9895,-2918.2,0,0
41239,79.7348,-2899.9,0,0
41499.3,80.9046,-2882.67,0,0
41759.6,78.5553,-2865.93,0,0
42020,77.5002,-2847.99,0,0
42280.275,76.7774,-2828.32,0,0
42540.6,78.5692,-2811.01,0,0
42800.925,77.9056,-2796.47,0,0
43061.25,75.2273,-2778.81,0,0
43321.575,75.4488,-2761.56,0,0
43581.9,74.1844,-2745.01,0,0
43842.225,73.3104,-2727.4,0,0
44102.55,73.6418,-2711.05,0,0
44362.875,72.1999,-2694.36,0,0
44623.2,72.4423,-2677.21,0,0
44883.525,72.0407,-2662.2,0,0
45143.85,71.0022,-2646.29,0,0
45404.175,70.2555,-2629.46,0,0
45664.5,71.0303,-2612.96,0,0
45924.825,71.8058,-2598.34,0,0
46185.15,71.7407,-2583.85,0,0
46445.475,70.5723,-2568.57,0,0
46705.8,70.8593,-2554.13,0,0
46966.125,71.2468,-2539.32,0,0
47226.45,71.094,-2525.36,0,0
47486.775,70.76,-2512.06,0,0
47747.1,69.9251,-2498.19,0,0
48007.425,69.2032,-2483.96,0,0
48267.75,68.7014,-2470.94,0,0
48528.075,67.6491,-2456.93,0,0
48788.4,66.3154,-2442.87,0,0
49048.725,65.9718,-2428.9,0,0
49309.05,65.8857,-2415.12,0,0
49569.375,65.0109,-2401.95,0,0
49829.7,64.5559,-2387.88,0,0
50090.025,64.516,-2374.62,0,0
50350.35,64.0989,-2361.41,0,0
50610.675,63.8344,-2348.15,0,0
50871.0,63.6369,-2335,0,0
51131.325,63.6529,-2322.26,0,0
51391.65,63.4764,-2309.24,0,0
51651.975,63.3754,-2296.51,0,0
51912.3,63.4028,-2283.72,0,0
52172.625,63.6957,-2270.76,0,0
52432.95,64.1264,-2258.8,0,0
52693.275,64.0316,-2246.04,0,0
52953.6,64.923,-2233.36,0,0
53213.925,66.0069,-2221.12,0,0
53474.25,67.4693,-2209.12,0,0
53734.575,68.7036,-2197.8,0,0
53994.9,71.0637,-2186.31,0,0
54255.225,73.3036,-2176.52,0,0
54515.55,75.3958,-2167.93,0,0
54775.875,75.5541,-2160.24,0,0
55036.2,74.3095,-2151.86,0,0
55296.525,72.9536,-2142.3,0,0
55556.85,71.7868,-2133.15,0,0
55817.175,69.5148,-2123.03,0,0
56077.5,68.0623,-2112.49,0,0
56337.825,66.7917,-2101.7,0,0
56598.15,65.6546,-2090.51,0,0
56858.475,65.1232,-2079.11,0,0
57118.8,65.4295,-2068.03,0,0
57379.125,65.9313,-2057.52,0,0
57639.45,65.8647,-2047.43,0,0
57899.775,66.1416,-2036.87,0,0
58160.1,66.4659,-2026.68,0,0
58420.4,67.2658,-2016.54,0,0
58680.7,67.7674,-2007.42,0,0
58941.1,67.182,-1997.23,0,0
59201.4,68.0355,-1986.23,0,0
59461.7,70.4963,-1975.75,0,0
59722,72.9948,-1967.64,0,0
59982.4,74.8353,-1959.54,0,0
60242.7,75.6282,-1952.13,0,0
60503,77.3744,-1943.93,0,0
60763.3,80.3176,-1937.32,0,0
61023.7,80.5289,-1934.18,0,0
61284,78.1902,-1929.37,0,0
61544.3,73.4286,-1922.57,0,0
61804.6,71.3691,-1912.85,0,0
62065,69.9118,-1904.78,0,0
62325.3,68.219,-1896.66,0,0
62585.6,65.3042,-1887.52,0,0
62845.9,64.5386,-1876.7,0,0
63106.3,64.4446,-1868.35,0,0
63366.6,63.3492,-1858.91,0,0
63626.9,63.737,-1849.38,0,0
63887.2,64.0443,-1841.58,0,0
64147.6,63.0552,-1832.8,0,0
64407.9,63.5075,-1823.67,0,0
64668.2,63.9616,-1815.26,0,0
64928.5,64.2709,-1806.97,0,0
65188.9,64.4974,-1799.24,0,0
65449.2,64.6386,-1791,0,0
65709.5,64.7139,-1782.56,0,0
65969.8,66.0968,-1774.13,0,0
66230.2,67.2125,-1767.13,0,0
66490.5,67.5844,-1759.86,0,0
66750.8,67.9054,-1752.69,0,0
67011.1,68.6393,-1744.99,0,0
67271.5,70.0685,-1737.75,0,0
67531.8,71.2963,-1731.38,0,0
67792.1,72.1758,-1725.34,0,0
68052.4,72.9857,-1719.46,0,0
68312.8,73.4055,-1714.06,0,0
68573.1,73.5643,-1708.65,0,0
68833.4,73.3001,-1704.18,0,0
69093.7,71.5324,-1699.31,0,0
69354.1,69.2138,-1693.54,0,0
69614.4,67.0786,-1686.2,0,0
69874.7,66.266,-1678.84,0,0
70135,65.534,-1672.16,0,0
70395.4,64.0474,-1665.04,0,0
70655.7,63.9578,-1657.02,0,0
70916,64.7283,-1650.58,0,0
71176.3,64.4527,-1644.59,0,0
71436.7,64.128,-1638.82,0,0
71697,63.1536,-1633.27,0,0
71957.3,61.3089,-1627.04,0,0
72217.6,59.7682,-1619.93,0,0
72478,58.8994,-1612.61,0,0
72738.3,58.2301,-1605.73,0,0
72998.6,57.1089,-1598.38,0,0
73258.9,56.9468,-1590.54,0,0
73519.3,57.2712,-1583.34,0,0
73779.6,57.4572,-1576.7,0,0
74039.9,57.5132,-1569.76,0,0
74300.225,57.7695,-1562.97,0,0
74560.55,58.2284,-1556.18,0,0
74820.875,58.7543,-1549.79,0,0
75081.2,59.4628,-1543.24,0,0
75341.525,60.2503,-1537.54,0,0
75601.85,60.506,-1531.65,0,0
75862.175,60.7193,-1525.64,0,0
76122.5,61.3436,-1519.69,0,0
76382.825,61.851,-1514.22,0,0
76643.15,62.0142,-1508.57,0,0
76903.475,62.1511,-1502.57,0,0
77163.8,63.0879,-1496.59,0,0
77424.125,64.2067,-1491.42,0,0
77684.45,65.0293,-1486.59,0,0
77944.775,65.4971,-1482.22,0,0
78205.1,65.3883,-1477.81,0,0
78465.425,65.2111,-1473.36,0,0
78725.75,64.5732,-1468.76,0,0
78986.075,63.7281,-1463.95,0,0
79246.4,62.9422,-1458.82,0,0
79506.725,62.2025,-1453.48,0,0
79767.05,61.5745,-1448.11,0,0
80027.375,61.2017,-1442.52,0,0
80287.7,60.9538,-1437.05,0,0
80548.025,60.7142,-1431.65,0,0
80808.35,60.6967,-1426.27,0,0
81068.675,60.7488,-1421.13,0,0
81329.0,60.6585,-1416.11,0,0
81589.325,60.4192,-1411.1,0,0
81849.65,60.2251,-1406.16,0,0
82109.975,59.8907,-1401.2,0,0
82370.3,59.6179,-1396.14,0,0
82630.625,59.393,-1391.15,0,0
82890.95,59.1729,-1386.18,0,0
83151.275,58.8912,-1381.23,0,0
83411.6,58.5467,-1376.25,0,0
83671.925,58.2873,-1371.22,0,0
83932.25,58.1216,-1366.22,0,0
84192.575,57.8949,-1361.28,0,0
84452.9,57.7225,-1356.37,0,0
84713.225,57.4851,-1351.48,0,0
84973.55,57.2698,-1346.59,0,0
85233.875,57.1194,-1341.78,0,0
85494.2,56.8817,-1336.89,0,0
85754.525,56.6571,-1332.24,0,0
86014.85,56.4003,-1327.36,0,0
86275.175,56.3404,-1322.5,0,0
86535.5,56.348,-1317.87,0,0
86795.825,56.0095,-1313.29,0,0
87056.15,55.8328,-1308.58,0,0
87316.475,55.6229,-1303.98,0,0
87576.8,55.4431,-1299.38,0,0
87837.125,55.1189,-1294.98,0,0
88097.45,54.5837,-1290.35,0,0
88357.775,53.975,-1285.42,0,0
88618.1,53.7926,-1280.42,0,0
88878.425,53.6944,-1275.57,0,0
89138.75,53.6034,-1270.93,0,0
89399.075,53.3645,-1266.19,0,0
89659.4,53.3276,-1261.31,0,0
89919.725,53.2938,-1256.68,0,0
90180,53.3796,-1251.94,0,0
90440.4,53.2219,-1247.43,0,0
90700.7,53.2609,-1242.96,0,0
90961,53.0515,-1238.28,0,0
91221.3,53.0656,-1233.5,0,0
91481.7,53.0898,-1228.82,0,0
91742,53.2647,-1224.29,0,0
92002.3,53.54,-1219.73,0,0
92262.6,53.8801,-1215.27,0,0
92523,54.1401,-1210.99,0,0
92783.3,54.4634,-1206.65,0,0
93043.6,54.7349,-1202.69,0,0
93303.9,54.8658,-1198.69,0,0
93564.3,54.9031,-1194.8,0,0
93824.6,54.8261,-1191.01,0,0
94084.9,54.335,-1187.14,0,0
94345.2,53.8893,-1183.01,0,0
94605.6,53.4509,-1178.71,0,0
94865.9,53.0229,-1174.18,0,0
95126.2,52.8265,-1169.74,0,0
95386.5,52.623,-1165.21,0,0
95646.9,52.5814,-1160.61,0,0
95907.2,52.6789,-1156.11,0,0
96167.5,52.8405,-1151.61,0,0
96427.8,53.0028,-1147.33,0,0
96688.2,53.1673,-1143.01,0,0
96948.5,53.2295,-1138.75,0,0
97208.8,53.322,-1134.39,0,0
97469.1,53.4675,-1130.05,0,0
97729.5,53.6276,-1125.7,0,0
97989.8,53.919,-1121.29,0,0
98250.1,54.3156,-1116.96,0,0
98510.4,54.671,-1112.8,0,0
98770.8,55.0109,-1108.53,0,0
99031.1,55.4495,-1104.29,0,0
99291.4,55.8799,-1100.05,0,0
99551.7,56.4672,-1095.93,0,0
99812.1,57.0369,-1091.77,0,0
100072,57.7075,-1087.66,0,0
100333,58.5015,-1083.63,0,0
100593,59.5766,-1079.88,0,0
100853,60.4484,-1076.61,0,0
101114,61.0103,-1073.38,0,0
101374,61.5819,-1070.07,0,0
101634,62.1416,-1067.17,0,0
101895,62.1234,-1064.7,0,0
102155,61.372,-1061.91,0,0
102415,60.112,-1058.5,0,0
102676,59.1048,-1054.32,0,0
102936,58.4092,-1049.92,0,0
103196,57.9294,-1045.39,0,0
103457,57.5824,-1040.59,0,0
103717,57.6399,-1035.73,0,0
103977,57.9538,-1030.89,0,0
104238,58.4473,-1026.1,0,0
104498,59.1447,-1021.34,0,0
104758,59.9637,-1016.65,0,0
105019,61.0889,-1012.02,0,0
105279,62.2588,-1007.75,0,0
105539,63.4497,-1003.43,0,0
105800,64.7495,-999.228,0,0
106060,66.1485,-995.221,0,0
106320.175,67.5299,-991.264,0,0
106580.5,69.0508,-987.461,0,0
106840.825,70.5295,-983.87,0,0
107101.15,71.86,-980.41,0,0
107361.475,73.051,-976.879,0,0
107621.8,74.3132,-973.167,0,0
107882.125,75.7636,-969.427,0,0
108142.45,77.4815,-965.848,0,0
108402.775,79.2163,-962.518,0,0
108663.1,80.8921,-959.302,0,0
108923.425,82.6697,-956.087,0,0
109183.75,84.6067,-953.105,0,0
109444.075,86.4948,-950.552,0,0
109704.4,88.1275,-948.052,0,0
109964.725,89.6337,-945.537,0,0
110225.05,91.2236,-943.073,0,0
110485.375,92.821,-940.82,0,0
110745.7,94.0907,-938.715,0,0
111006.025,95.412,-936.556,0,0
111266.35,96.3919,-934.467,0,0
111526.675,97.6059,-932.315,0,0
111787.0,98.7482,-930.068,0,0
112047.325,99.9533,-927.984,0,0
112307.65,101.093,-926.072,0,0
112567.975,102.109,-924.146,0,0
112828.3,103.068,-922.262,0,0
113088.625,103.948,-920.518,0,0
113348.95,104.763,-918.798,0,0
113609.275,105.476,-917.048,0,0
113869.6,106.15,-915.35,0,0
114129.925,106.66,-913.56,0,0
114390.25,107.349,-911.76,0,0
114650.575,107.903,-910.18,0,0
114910.9,108.348,-908.654,0,0
115171.225,108.603,-907.042,0,0
115431.55,108.813,-905.453,0,0
115691.875,108.941,-903.784,0,0
115952.2,109.073,-902.154,0,0
116212.525,109.069,-900.506,0,0
116472.85,108.985,-898.812,0,0
116733.175,108.784,-897.084,0,0
116993.5,108.528,-895.301,0,0
117253.825,108.171,-893.391,0,0
117514.15,107.764,-891.303,0,0
117774.475,107.355,-889.116,0,0
118034.8,106.962,-886.689,0,0
118295.125,106.836,-884.171,0,0
118555.45,106.751,-881.592,0,0
118815.775,106.834,-878.819,0,0
119076.1,107.281,-875.979,0,0
119336.425,108.15,-873.236,0,0
119596.75,109.556,-870.902,0,0
119857.075,111.103,-869.408,0,0
120117.4,112.394,-868.661,0,0
120377.725,113.005,-868.304,0,0
120638.05,113.136,-868.315,0,0
120898.375,112.069,-868.298,0,0
121158.7,110.436,-867.504,0,0
121419.025,108.817,-866.057,0,0
121679.35,107.293,-864.242,0,0
121939.675,105.809,-862.104,0,0
122200.0,104.576,-859.765,0,0
122460,103.504,-857.308,0,0
122721,102.604,-854.807,0,0
122981,101.764,-852.316,0,0
123241,101.019,-849.804,0,0
123502,100.269,-847.32,0,0
123762,99.5002,-844.706,0,0
124022,98.9009,-841.989,0,0
124283,98.4284,-839.312,0,0
124543,98.0589,-836.713,0,0
124803,97.7584,-834.13,0,0
125064,97.5428,-831.659,0,0
125324,97.3536,-829.318,0,0
125584,97.0544,-827.145,0,0
125845,96.7365,-824.949,0,0
126105,96.3458,-822.883,0,0
126365,95.774,-820.848,0,0
126626,95.1631,-818.741,0,0
126886,94.4606,-816.669,0,0
127146,93.6868,-814.414,0,0
127406,93.1337,-812.337,0,0
127667,92.249,-810.362,0,0
127927,91.1692,-808.415,0,0
128187,89.9078,-806.456,0,0
128448,88.3084,-804.179,0,0
128708,86.6539,-801.6,0,0
128968,85.103,-798.774,0,0
129229,83.6032,-795.82,0,0
129489,82.1429,-792.652,0,0
129749,80.8119,-789.335,0,0
130010,79.5601,-785.93,0,0
130270,78.453,-782.45,0,0
130530,77.3435,-778.953,0,0
130791,76.3309,-775.274,0,0
131051,75.4862,-771.515,0,0
131311,74.7987,-767.779,0,0
131572,74.1385,-764.106,0,0
131832,73.4992,-760.295,0,0
132092,73.002,-756.486,0,0
132353,72.6594,-752.691,0,0
132613,72.2994,-748.843,0,0
132873,72.0617,-745.118,0,0
133134,71.8656,-741.327,0,0
133394,71.6521,-737.615,0,0
133654,71.4946,-733.782,0,0
133915,71.4683,-729.907,0,0
134175,71.5189,-726.114,0,0
134435,71.6493,-722.381,0,0
134696,71.7534,-718.665,0,0
134956,71.8544,-714.871,0,0
135216,72.0896,-711.067,0,0
135477,72.434,-707.303,0,0
135737,72.7967,-703.626,0,0
135997,73.1984,-699.971,0,0
136258,73.6002,-696.37,0,0
136518,74.0349,-692.74,0,0
136778,74.4876,-689.148,0,0
137039,75.0138,-685.709,0,0
137299,75.3559,-682.345,0,0
137559,75.5685,-678.841,0,0
137819,75.8735,-675.165,0,0
138080,76.2063,-671.48,0,0
138340.125,76.6159,-667.766,0,0
138600.45,77.0611,-664.043,0,0
138860.775,77.518,-660.219,0,0
139121.1,78.1134,-656.377,0,0
139381.425,78.8303,-652.525,0,0
139641.75,79.5565,-648.8,0,0
139902.075,80.2746,-645.034,0,0
140162.4,80.9846,-641.227,0,0
140422.725,81.8411,-637.314,0,0
140683.05,82.7789,-633.466,0,0
140943.375,83.7954,-629.601,0,0
141203.7,84.9215,-625.797,0,0
141464.025,86.0873,-622.105,0,0
141724.35,87.2458,-618.443,0,0
141984.675,88.4099,-614.789,0,0
142245.0,89.5768,-611.165,0,0
142505.325,90.7391,-607.544,0,0
142765.65,91.9379,-603.88,0,0
143025.975,93.2234,-600.224,0,0
143286.3,94.5338,-596.605,0,0
143546.625,95.807,-592.989,0,0
143806.95,97.1284,-589.317,0,0
144067.275,98.4833,-585.673,0,0
144327.6,99.8801,-581.996,0,0
144587.925,101.3,-578.325,0,0
144848.25,102.767,-574.622,0,0
145108.575,104.298,-570.864,0,0
145368.9,105.917,-567.133,0,0
145629.225,107.598,-563.422,0,0
145889.55,109.29,-559.677,0,0
146149.875,111.099,-555.94,0,0
146410.2,112.97,-552.225,0,0
146670.525,114.93,-548.545,0,0
146930.85,116.909,-544.932,0,0
147191.175,118.891,-541.326,0,0
147451.5,120.911,-537.629,0,0
147711.825,123.058,-533.917,0,0
147972.15,125.3,-530.298,0,0
148232.475,127.536,-526.705,0,0
148492.8,129.801,-523.085,0,0
148753.125,132.154,-519.427,0,0
149013.45,134.589,-515.812,0,0
149273.775,137.002,-512.219,0,0
149534.1,139.394,-508.439,0,0
149794.425,142.101,-504.459,0,0
150054.75,145.166,-500.642,0,0
150315.075,148.291,-497.004,0,0
150575.4,151.468,-493.455,0,0
150835.725,154.692,-489.855,0,0
151096.05,158.111,-486.245,0,0
151356.375,161.73,-482.668,0,0
151616.7,165.641,-479.192,0,0
151877.025,169.708,-475.958,0,0
152137.35,173.926,-472.793,0,0
152397.675,178.458,-469.861,0,0
152658.0,183.098,-467.365,0,0
152918.325,187.685,-465.123,0,0
153178.65,192.386,-463.081,0,0
153438.975,197.131,-461.441,0,0
153699.3,201.707,-460.219,0,0
153959.625,206.034,-459.155,0,0
154219.95,210.277,-458.28,0,0
154480,214.25,-457.717,0,0
154741,217.805,-457.207,0,0
155001,221.141,-456.312,0,0
155261,224.559,-455.343,0,0
155522,228.201,-454.405,0,0
155782,231.877,-453.886,0,0
156042,235.042,-453.456,0,0
156303,238.127,-452.745,0,0
156563,241.264,-452.036,0,0
156823,244.385,-451.302,0,0
157084,247.606,-450.576,0,0
157344,250.726,-449.954,0,0
157604,253.678,-449.541,0,0
157864,256.243,-448.792,0,0
158125,259.167,-447.42,0,0
158385,262.637,-446.216,0,0
158645,266.231,-445.189,0,0
158906,270.11,-444.119,0,0
159166,274.724,-443.479,0,0
159426,279.4,-443.968,0,0
159687,283.155,-445.071,0,0
159947,286.542,-445.829,0,0
160207,289.697,-446.78,0,0
160468,292.832,-447.762,0,0
160728,295.472,-449.105,0,0
160988,297.81,-450.054,0,0
161249,300.191,-450.949,0,0
161509,302.394,-451.982,0,0
161769,304.259,-452.853,0,0
162030,306.21,-453.775,0,0
162290,307.921,-454.762,0,0
162550,309.188,-455.824,0,0
162811,309.975,-456.493,0,0
163071,310.717,-456.555,0,0
163331,311.608,-456.526,0,0
163592,312.267,-456.391,0,0
163852,312.554,-455.647,0,0
164112,313.316,-454.112,0,0
164373,314.59,-452.244,0,0
164633,316.471,-450.405,0,0
164893,318.565,-448.774,0,0
165154,320.655,-446.915,0,0
165414,322.991,-444.744,0,0
165674,326.14,-442.005,0,0
165935,330.081,-439.662,0,0
166195,334.775,-437.768,0,0
166455,339.8,-436.288,0,0
166716,345.194,-435.261,0,0
166976,351.293,-434.875,0,0
167236,357.401,-435.58,0,0
167497,363.076,-436.938,0,0
167757,368.667,-438.445,0,0
168017,374.355,-440.5,0,0
168277,379.797,-442.88,0,0
168538,385.357,-445.605,0,0
168798,391.271,-449.052,0,0
169058,397.119,-453.603,0,0
169319,402.125,-459.189,0,0
169579,406.341,-465.069,0,0
169839,410.392,-471.287,0,0
170100,414.011,-478.556,0,0
170360.075,416.328,-486.752,0,0
170620.4,417.166,-495.222,0,0
170880.725,416.647,-503.368,0,0
171141.05,415.225,-510.985,0,0
171401.375,413.254,-518.204,0,0
171661.7,410.66,-525.452,0,0
171922.025,406.91,-532.652,0,0
172182.35,401.953,-539.077,0,0
172442.675,396.228,-544.551,0,0
172703.0,389.994,-548.972,0,0
172963.325,383.601,-552.497,0,0
173223.65,376.877,-555.372,0,0
173483.975,369.8,-557.251,0,0
173744.3,362.811,-558.045,0,0
174004.625,356.188,-558.088,0,0
174264.95,349.69,-557.609,0,0
174525.275,343.378,-556.416,0,0
174785.6,337.308,-554.778,0,0
175045.925,331.307,-552.555,0,0
175306.25,325.606,-549.549,0,0
175566.575,320.405,-545.848,0,0
175826.9,316.014,-541.842,0,0
176087.225,311.954,-537.663,0,0
176347.55,308.36,-533.139,0,0
176607.875,305.337,-528.473,0,0
176868.2,302.753,-523.707,0,0
177128.525,300.698,-518.94,0,0
177388.85,298.93,-514.256,0,0
177649.175,297.433,-509.534,0,0
177909.5,296.214,-504.815,0,0
178169.825,295.306,-500.037,0,0
178430.15,294.808,-495.255,0,0
178690.475,294.658,-490.589,0,0
178950.8,294.734,-486.064,0,0
179211.125,295.077,-481.7,0,0
179471.45,295.668,-477.483,0,0
179731.775,296.45,-473.577,0,0
179992.1,297.257,-469.843,0,0
180252.425,298.067,-466.269,0,0
180512.75,298.837,-462.784,0,0
180773.075,299.684,-459.36,0,0
181033.4,300.569,-456.071,0,0
181293.725,301.42,-452.911,0,0
181554.05,302.16,-449.775,0,0
181814.375,302.866,-446.667,0,0
182074.7,303.521,-443.511,0,0
182335.025,304.094,-440.397,0,0
182595.35,304.504,-437.166,0,0
182855.675,304.851,-433.758,0,0
183116.0,305.221,-430.132,0,0
183376.325,305.691,-426.282,0,0
183636.65,306.294,-422.317,0,0
183896.975,306.984,-418.237,0,0
184157.3,307.828,-413.96,0,0
184417.625,308.885,-409.599,0,0
184677.95,310.131,-405.197,0,0
184938.275,311.537,-400.805,0,0
185198.6,313.053,-396.425,0,0
185458.925,314.642,-392.103,0,0
185719.25,316.156,-387.711,0,0
185979.575,317.702,-383.15,0,0
186239.9,319.336,-378.354,0,0
186500,321.132,-373.374,0,0
186761,323.182,-368.264,0,0
187021,325.418,-363.048,0,0
187281,327.863,-357.649,0,0
187542,330.578,-352.244,0,0
187802,333.546,-346.704,0,0
188062,336.79,-341.133,0,0
188322,340.214,-335.557,0,0
188583,343.846,-329.862,0,0
188843,347.761,-324.09,0,0
189103,351.892,-318.316,0,0
189364,356.317,-312.44,0,0
189624,361.093,-306.417,0,0
189884,366.201,-300.371,0,0
190145,371.84,-294.289,0,0
190405,377.749,-288.4,0,0
190665,383.973,-282.58,0,0
190926,390.499,-276.701,0,0
191186,397.459,-270.854,0,0
191446,404.889,-265.06,0,0
191707,412.752,-259.475,0,0
191967,421.163,-254.029,0,0
192227,429.873,-248.914,0,0
192488,439.079,-243.998,0,0
192748,448.56,-239.467,0,0
193008,458.474,-235.267,0,0
193269,468.602,-231.365,0,0
193529,479.003,-227.868,0,0
193789,489.728,-224.606,0,0
194050,500.589,-221.812,0,0
194310,511.623,-219.342,0,0
194570,522.758,-216.956,0,0
194831,534.213,-214.843,0,0
195091,546.122,-213.123,0,0
195351,558.103,-211.535,0,0
195612,570.418,-210.214,0,0
195872,583.119,-209.106,0,0
196132,596.325,-208.395,0,0
196393,609.957,-208.084,0,0
196653,624.007,-208.259,0,0
196913,638.479,-208.963,0,0
197174,653.449,-210.263,0,0
197434,668.778,-212.249,0,0
197694,684.386,-214.974,0,0
197955,700.316,-218.346,0,0
198215,716.647,-222.308,0,0
198475,733.547,-227.09,0,0
198735,751.208,-232.942,0,0
198996,769.297,-240.499,0,0
199256,787.276,-249.765,0,0
199516,804.718,-260.537,0,0
199777,821.709,-272.726,0,0
200037,838.024,-286.109,0,0
200297,853.661,-300.674,0,0
200558,868.437,-316.544,0,0
200818,882.158,-333.653,0,0
201078,894.815,-351.622,0,0
201339,906.105,-370.634,0,0
201599,915.652,-390.197,0,0
201859,923.887,-409.822,0,0
202120,931.118,-429.48,0,0
202380.025,937.718,-449.263,0,0
202640.35,943.101,-469.53,0,0
202900.675,947.444,-489.95,0,0
203161.0,950.812,-510.835,0,0
203421.325,952.545,-532.146,0,0
203681.65,952.521,-553.438,0,0
203941.975,950.962,-573.577,0,0
204202.3,948.576,-592.741,0,0
204462.625,946.188,-611.315,0,0
204722.95,943.427,-630.048,0,0
204983.275,939.46,-648.966,0,0
205243.6,934.404,-667.115,0,0
205503.925,928.697,-684.388,0,0
205764.25,922.882,-701.446,0,0
206024.575,916.835,-718.404,0,0
206284.9,909.682,-735.543,0,0
206545.225,901.521,-752.502,0,0
206805.55,892.322,-768.896,0,0
207065.875,882.201,-784.809,0,0
207326.2,870.921,-799.821,0,0
207586.525,858.825,-813.696,0,0
207846.85,846.215,-826.607,0,0
208107.175,833.329,-838.57,0,0
208367.5,819.915,-850.013,0,0
208627.825,805.587,-860.214,0,0
208888.15,790.945,-868.849,0,0
209148.475,776.419,-876.229,0,0
209408.8,762.261,-882.288,0,0
209669.125,748.439,-887.494,0,0
209929.45,735.065,-891.709,0,0
210189.775,722.1,-895.516,0,0
210450.1,709.331,-898.53,0,0
210710.425,697.136,-900.813,0,0
210970.75,685.223,-902.521,0,0
211231.075,673.999,-903.782,0,0
211491.4,663.205,-904.853,0,0
211751.725,652.77,-905.542,0,0
212012.05,642.567,-905.832,0,0
212272.375,632.764,-905.767,0,0
212532.7,623.337,-905.574,0,0
212793.025,614.078,-905.102,0,0
213053.35,604.69,-903.814,0,0
213313.675,596.271,-901.704,0,0
213574.0,588.848,-899.374,0,0
213834.325,582.37,-897.023,0,0
214094.65,576.683,-894.832,0,0
214354.975,571.734,-893.094,0,0
214615.3,567.275,-891.901,0,0
214875.625,563.023,-891.237,0,0
215135.95,558.889,-891.216,0,0
215396.275,554.629,-891.634,0,0
215656.6,549.976,-892.484,0,0
215916.925,544.984,-893.045,0,0
216177.25,539.741,-893.698,0,0
216437.575,534.547,-893.954,0,0
216697.9,529.346,-894.036,0,0
216958.225,524.46,-893.822,0,0
217218.55,519.902,-893.904,0,0
217478.875,515.33,-894.113,0,0
217739.2,510.616,-894.273,0,0
217999.525,506.158,-894.424,0,0
218259.85,501.781,-894.611,0,0
218520,497.416,-895.065,0,0
218780,493.04,-895.599,0,0
219041,488.55,-896.305,0,0
219301,483.792,-896.912,0,0
219561,478.957,-897.572,0,0
219822,473.934,-898.125,0,0
220082,468.639,-898.554,0,0
220342,463.285,-898.59,0,0
220603,458.048,-898.389,0,0
220863,452.929,-897.935,0,0
221123,448.144,-897.384,0,0
221384,443.549,-896.845,0,0
221644,438.9,-896.381,0,0
221904,434.268,-895.871,0,0
222165,429.589,-895.215,0,0
222425,424.972,-894.219,0,0
222685,420.825,-893.269,0,0
222946,416.831,-892.221,0,0
223206,413.22,-891.434,0,0
223466,409.664,-890.925,0,0
223727,406.165,-890.646,0,0
223987,402.359,-890.733,0,0
224247,398.441,-890.752,0,0
224508,394.385,-890.689,0,0
224768,390.225,-890.631,0,0
225028,386.069,-890.802,0,0
225289,381.691,-890.982,0,0
225549,377.093,-891.034,0,0
225809,372.399,-891.013,0,0
226070,367.483,-890.873,0,0
226330,362.565,-890.613,0,0
226590,357.413,-890.276,0,0
226851,352.205,-889.732,0,0
227111,346.71,-888.975,0,0
227371,341.207,-887.942,0,0
227632,335.657,-886.623,0,0
227892,330.115,-885.148,0,0
228152,324.594,-883.27,0,0
228413,319.231,-881.03,0,0
228673,314.013,-878.619,0,0
228933,309.013,-876.016,0,0
229193,304.236,-873.318,0,0
229454,299.6,-870.387,0,0
229714,295.082,-867.384,0,0
229974,290.852,-864.273,0,0
230235,286.852,-861.327,0,0
230495,282.715,-858.134,0,0
230755,278.855,-854.977,0,0
231016,275.032,-851.576,0,0
231276,271.514,-848.161,0,0
231536,268.179,-844.645,0,0
231797,265.031,-841.223,0,0
232057,261.987,-837.921,0,0
232317,259.029,-834.539,0,0
232578,256.193,-831.198,0,0
232838,253.421,-827.874,0,0
233098,250.687,-824.442,0,0
233359,248.073,-820.957,0,0
233619,245.644,-817.344,0,0
233879,243.443,-813.749,0,0
234140,241.538,-810.248,0,0
234400,239.641,-806.967,0,0
234660.3,237.865,-803.77,0,0
234920.625,236.098,-800.485,0,0
235180.95,234.467,-797.485,0,0
235441.275,232.801,-794.472,0,0
235701.6,231.056,-791.485,0,0
235961.925,229.325,-788.385,0,0
236222.25,227.656,-785.233,0,0
236482.575,226.084,-781.984,0,0
236742.9,224.703,-778.739,0,0
237003.225,223.496,-775.471,0,0
237263.55,222.393,-772.221,0,0
237523.875,221.475,-769.139,0,0
237784.2,220.641,-766.068,0,0
238044.525,219.908,-763.082,0,0
238304.85,219.28,-760.205,0,0
238565.175,218.697,-757.413,0,0
238825.5,218.199,-754.709,0,0
239085.825,217.797,-752.11,0,0
239346.15,217.452,-749.624,0,0
239606.475,217.085,-747.25,0,0
239866.8,216.636,-744.881,0,0
240127.125,216.252,-742.624,0,0
240387.45,215.977,-740.375,0,0
240647.775,215.722,-738.183,0,0
240908.1,215.535,-736.252,0,0
241168.425,215.381,-734.344,0,0
241428.75,215.13,-732.601,0,0
241689.075,214.867,-730.927,0,0
241949.4,214.56,-729.323,0,0
242209.725,214.161,-727.808,0,0
242470.05,213.734,-726.389,0,0
242730.375,213.194,-725.01,0,0
242990.7,212.668,-723.651,0,0
243251.025,211.997,-722.387,0,0
243511.35,211.21,-721.085,0,0
243771.675,210.317,-719.847,0,0
244032.0,209.33,-718.512,0,0
244292.325,208.209,-717.119,0,0
244552.65,207.159,-715.629,0,0
244812.975,206.062,-714.006,0,0
245073.3,204.839,-712.418,0,0
245333.625,203.792,-710.712,0,0
245593.95,202.629,-708.976,0,0
245854.275,201.393,-707.092,0,0
246114.6,200.238,-705.237,0,0
246374.925,199.182,-703.263,0,0
246635.25,198.097,-701.163,0,0
246895.575,197.063,-699.072,0,0
247155.9,196.191,-696.816,0,0
247416.225,195.32,-694.648,0,0
247676.55,194.55,-692.403,0,0
247936.875,193.862,-690.189,0,0
248197.2,193.281,-687.888,0,0
248457.525,192.778,-685.656,0,0
248717.85,192.35,-683.398,0,0
248978.175,192.076,-681.221,0,0
249238.5,191.791,-679.099,0,0
249498.825,191.587,-677.096,0,0
249759.15,191.363,-675.183,0,0
250019.475,191.293,-673.211,0,0
250279.8,191.237,-671.518,0,0
250540,190.941,-669.865,0,0
250800,190.629,-668.358,0,0
251061,190.166,-666.783,0,0
251321,189.625,-665.183,0,0
251581,188.995,-663.498,0,0
251842,188.326,-661.768,0,0
252102,187.598,-659.969,0,0
252362,186.86,-658.042,0,0
252623,186.132,-656.049,0,0
252883,185.439,-653.933,0,0
253143,184.839,-651.772,0,0
253404,184.269,-649.628,0,0
253664,183.629,-647.518,0,0
253924,182.93,-645.336,0,0
254185,182.166,-643.066,0,0
254445,181.342,-640.555,0,0
254705,180.563,-637.867,0,0
254966,179.832,-634.965,0,0
255226,179.324,-631.911,0,0
255486,178.987,-628.692,0,0
255747,178.791,-625.404,0,0
256007,178.69,-622.023,0,0
256267,178.771,-618.522,0,0
256528,179.103,-614.948,0,0
256788,179.62,-611.316,0,0
257048,180.467,-607.613,0,0
257309,181.449,-603.939,0,0
257569,182.699,-600.276,0,0
257829,184.157,-596.647,0,0
258090,185.808,-593.064,0,0
258350,187.685,-589.456,0,0
258610,189.913,-585.9,0,0
258871,192.425,-582.466,0,0
259131,195.23,-579.261,0,0
259391,198.172,-576.253,0,0
259651,201.323,-573.515,0,0
259912,204.641,-571.033,0,0
260172,207.982,-568.672,0,0
260432,211.357,-566.571,0,0
260693,214.919,-564.467,0,0
260953,218.61,-562.599,0,0
261213,222.444,-560.884,0,0
261474,226.45,-559.379,0,0
261734,230.6,-558.057,0,0
261994,234.953,-556.993,0,0
262255,239.566,-556.233,0,0
262515,244.081,-555.992,0,0
262775,248.893,-556.152,0,0
263036,253.607,-556.925,0,0
263296,258.081,-558.104,0,0
263556,262.193,-559.689,0,0
263817,265.975,-561.477,0,0
264077,269.458,-563.341,0,0
264337,272.713,-565.187,0,0
264598,275.732,-567.04,0,0
264858,278.828,-568.866,0,0
265118,281.981,-570.797,0,0
265379,285.095,-572.856,0,0
265639,288.272,-575.049,0,0
265899,291.564,-577.524,0,0
266160,294.823,-580.383,0,0
266420,297.977,-583.57,0,0
266680.25,300.964,-587.192,0,0
266940.575,303.685,-591.194,0,0
267200.9,306.148,-595.593,0,0
267461.225,308.167,-600.412,0,0
267721.55,309.57,-605.458,0,0
267981.875,310.428,-610.607,0,0
268242.2,310.79,-615.763,0,0
268502.525,310.696,-620.946,0,0
268762.85,309.988,-626.16,0,0
269023.175,308.608,-631.156,0,0
269283.5,306.7,-635.737,0,0
269543.825,304.385,-639.833,0,0
269804.15,302.021,-643.452,0,0
270064.475,299.49,-646.628,0,0
270324.8,296.968,-649.585,0,0
270585.125,294.455,-652.084,0,0
270845.45,292.139,-654.399,0,0
271105.775,289.994,-656.627,0,0
271366.1,287.91,-659.174,0,0
271626.425,285.551,-661.614,0,0
271886.75,282.945,-663.921,0,0
272147.075,280.169,-666.004,0,0
272407.4,277.233,-667.753,0,0
272667.725,274.434,-669.179,0,0
272928.05,271.809,-670.377,0,0
273188.375,269.445,-671.589,0,0
273448.7,267.15,-672.829,0,0
273709.025,264.946,-674.268,0,0
273969.35,262.74,-675.811,0,0
274229.675,260.266,-677.627,0,0
274490.0,257.506,-679.484,0,0
274750.325,254.403,-681.181,0,0
275010.65,251.128,-682.74,0,0
275270.975,247.531,-684.227,0,0
275531.3,243.741,-685.444,0,0
275791.625,239.629,-686.461,0,0
276051.95,235.235,-687.081,0,0
276312.275,230.707,-687.242,0,0
276572.6,226.123,-686.902,0,0
276832.925,221.634,-686.134,0,0
277093.25,217.203,-684.931,0,0
277353.575,212.881,-683.292,0,0
277613.9,208.79,-681.159,0,0
277874.225,205.047,-678.502,0,0
278134.55,201.867,-675.516,0,0
278394.875,199.27,-672.383,0,0
278655.2,197.195,-669.224,0,0
278915.525,195.622,-666.147,0,0
279175.85,194.546,-663.231,0,0
279436.175,193.879,-660.685,0,0
279696.5,193.312,-658.562,0,0
279956.825,192.772,-656.829,0,0
280217.15,192.017,-655.242,0,0
280477.475,191.119,-653.774,0,0
280737.8,190.215,-652.113,0,0
280998.125,189.363,-650.407,0,0
281258.45,188.641,-648.657,0,0
281518.775,188.083,-646.908,0,0
281779.1,187.679,-645.247,0,0
282039.425,187.403,-643.7,0,0
282299.75,187.194,-642.266,0,0
282560,187.089,-640.897,0,0
282820,187.073,-639.68,0,0
283081,187.118,-638.631,0,0
283341,187.207,-637.781,0,0
283601,187.251,-637.12,0,0
283862,187.207,-636.665,0,0
284122,187.037,-636.363,0,0
284382,186.755,-636.189,0,0
284643,186.339,-636.076,0,0
284903,185.62,-636.101,0,0
285163,184.698,-636.179,0,0
285424,183.446,-636.163,0,0
285684,181.878,-636.014,0,0
285944,180.083,-635.471,0,0
286205,178.222,-634.54,0,0
286465,176.565,-633.17,0,0
286725,175.223,-631.676,0,0
286986,174.085,-630.262,0,0
287246,172.89,-628.904,0,0
287506,171.565,-627.476,0,0
287767,170.222,-625.786,0,0
288027,168.922,-623.793,0,0
288287,167.838,-621.543,0,0
288548,167.01,-619.077,0,0
288808,166.445,-616.506,0,0
289068,166.217,-613.812,0,0
289329,166.292,-611.084,0,0
289589,166.719,-608.378,0,0
289849,167.532,-605.75,0,0
290109,168.652,-603.217,0,0
290370,170.117,-600.84,0,0
290630,171.925,-598.767,0,0
290890,174.018,-596.992,0,0
291151,176.29,-595.565,0,0
291411,178.692,-594.569,0,0
291671,181.179,-593.982,0,0
291932,183.612,-593.753,0,0
292192,186.012,-593.904,0,0
292452,188.336,-594.404,0,0
292713,190.52,-595.224,0,0
292973,192.502,-596.364,0,0
293233,194.277,-597.767,0,0
293494,195.867,-599.384,0,0
293754,197.268,-601.245,0,0
294014,198.357,-603.34,0,0
294275,199.175,-605.62,0,0
294535,199.625,-608.104,0,0
294795,199.644,-610.674,0,0
295056,199.284,-613.242,0,0
295316,198.474,-615.782,0,0
295576,197.289,-618.12,0,0
295837,195.799,-620.225,0,0
296097,194.114,-622.065,0,0
296357,192.235,-623.659,0,0
296618,190.255,-625.004,0,0
296878,188.179,-626.111,0,0
297138,186.048,-626.965,0,0
297399,183.968,-627.589,0,0
297659,181.937,-628.029,0,0
297919,179.995,-628.368,0,0
298180,178.074,-628.623,0,0
298440,176.197,-628.802,0,0
298700.2,174.318,-628.882,0,0
298960.525,172.448,-628.908,0,0
299220.85,170.616,-628.861,0,0
299481.175,168.758,-628.729,0,0
299741.5,166.921,-628.553,0,0
300001.825,165.097,-628.298,0,0
300262.15,163.275,-627.943,0,0
300522.475,161.517,-627.492,0,0
300782.8,159.781,-626.964,0,0
301043.125,158.123,-626.374,0,0
301303.45,156.538,-625.747,0,0
301563.775,154.998,-625.134,0,0
301824.1,153.495,-624.479,0,0
302084.425,152.003,-623.845,0,0
302344.75,150.507,-623.22,0,0
302605.075,148.997,-622.522,0,0
302865.4,147.477,-621.802,0,0
303125.725,145.942,-620.995,0,0
303386.05,144.435,-620.112,0,0
303646.375,142.99,-619.162,0,0
303906.7,141.55,-618.182,0,0
304167.025,140.222,-617.151,0,0
304427.35,138.919,-616.059,0,0
304687.675,137.683,-614.968,0,0
304948.0,136.457,-613.828,0,0
305208.325,135.29,-612.691,0,0
305468.65,134.156,-611.5,0,0
305728.975,133.06,-610.276,0,0
305989.3,132.049,-608.985,0,0
306249.625,131.113,-607.675,0,0
306509.95,130.29,-606.361,0,0
306770.275,129.527,-605.053,0,0
307030.6,128.865,-603.775,0,0
307290.925,128.276,-602.502,0,0
307551.25,127.794,-601.286,0,0
307811.575,127.399,-600.153,0,0
308071.9,127.05,-599.12,0,0
308332.225,126.691,-598.187,0,0
308592.55,126.309,-597.347,0,0
308852.875,125.891,-596.601,0,0
309113.2,125.421,-595.866,0,0
309373.525,124.868,-595.187,0,0
309633.85,124.241,-594.493,0,0
309894.175,123.583,-593.742,0,0
310154.5,122.885,-592.954,0,0
310414.825,122.199,-592.141,0,0
310675.15,121.52,-591.267,0,0
310935.475,120.851,-590.391,0,0
311195.8,120.203,-589.475,0,0
311456.125,119.571,-588.527,0,0
311716.45,118.991,-587.564,0,0
311976.775,118.455,-586.572,0,0
312237.1,117.936,-585.594,0,0
312497.425,117.472,-584.596,0,0
312757.75,117.018,-583.592,0,0
313018.075,116.681,-582.606,0,0
313278.4,116.379,-581.665,0,0
313538.725,116.116,-580.8,0,0
313799.05,115.832,-580.012,0,0
314059.375,115.546,-579.243,0,0
314319.7,115.247,-578.508,0,0
314580,114.88,-577.815,0,0
314840,114.598,-577.015,0,0
315101,114.259,-576.276,0,0
315361,113.883,-575.553,0,0
315621,113.678,-574.834,0,0
315882,113.383,-574.175,0,0
316142,113.132,-573.476,0,0
316402,112.804,-572.816,0,0
316663,112.674,-572.231,0,0
316923,112.318,-571.623,0,0
317183,112.148,-571.072,0,0
317444,111.791,-570.479,0,0
317704,111.64,-569.965,0,0
317964,111.428,-569.563,0,0
318225,111.14,-569.106,0,0
318485,110.938,-568.676,0,0
318745,110.721,-568.375,0,0
319006,110.408,-568.243,0,0
319266,110.073,-568.006,0,0
319526,109.603,-567.82,0,0
319787,109.153,-567.705,0,0
320047,108.555,-567.615,0,0
320307,107.793,-567.513,0,0
320567,107.074,-567.437,0,0
320828,106.316,-567.29,0,0
321088,105.344,-567.129,0,0
321348,104.367,-566.959,0,0
321609,103.36,-566.743,0,0
321869,102.29,-566.397,0,0
322129,101.012,-566.087,0,0
322390,99.6514,-565.687,0,0
322650,98.2941,-565.162,0,0
322910,96.9397,-564.404,0,0
323171,95.5431,-563.544,0,0
323431,94.3283,-562.588,0,0
323691,92.9684,-561.496,0,0
323952,91.8211,-560.318,0,0
324212,90.7864,-559.076,0,0
324472,89.7845,-557.866,0,0
324733,88.7499,-556.575,0,0
324993,87.8885,-555.355,0,0
325253,87.0996,-554.103,0,0
325514,86.1981,-552.744,0,0
325774,85.4828,-551.429,0,0
326034,84.7984,-550.093,0,0
326295,84.1246,-548.764,0,0
326555,83.5237,-547.346,0,0
326815,82.9669,-546.125,0,0
327076,82.4487,-544.759,0,0
327336,81.8605,-543.369,0,0
327596,81.335,-542.129,0,0
327857,80.8415,-540.87,0,0
328117,80.3476,-539.479,0,0
328377,79.8265,-538.061,0,0
328638,79.403,-536.667,0,0
328898,79.0016,-535.202,0,0
329158,78.7314,-533.639,0,0
329419,78.4665,-532.105,0,0
329679,78.3425,-530.63,0,0
329939,78.2989,-529.103,0,0
330200,78.3323,-527.694,0,0
330460,78.4527,-526.262,0,0
330720.15,78.5985,-524.862,0,0
330980.475,78.8419,-523.574,0,0
331240.8,79.1998,-522.355,0,0
331501.125,79.512,-521.236,0,0
331761.45,79.9497,-520.195,0,0
332021.775,80.3554,-519.31,0,0
332282.1,80.7743,-518.583,0,0
332542.425,81.0031,-517.911,0,0
332802.75,81.2559,-517.257,0,0
333063.075,81.3963,-516.718,0,0
333323.4,81.4468,-516.205,0,0
333583.725,81.4653,-515.654,0,0
333844.05,81.3815,-515.159,0,0
334104.375,81.256,-514.611,0,0
334364.7,81.0784,-514.084,0,0
334625.025,80.7536,-513.516,0,0
334885.35,80.5046,-512.888,0,0
335145.675,80.1214,-512.198,0,0
335406.0,79.762,-511.479,0,0
335666.325,79.4438,-510.695,0,0
335926.65,79.0507,-509.925,0,0
336186.975,78.6795,-509.115,0,0
336447.3,78.3115,-508.207,0,0
336707.625,77.9669,-507.302,0,0
336967.95,77.656,-506.372,0,0
337228.275,77.2384,-505.417,0,0
337488.6,76.9348,-504.404,0,0
337748.925,76.5605,-503.383,0,0
338009.25,76.2973,-502.224,0,0
338269.575,75.9518,-501.18,0,0
338529.9,75.7269,-499.855,0,0
338790.225,75.4566,-498.56,0,0
339050.55,75.3213,-497.219,0,0
339310.875,75.2653,-495.923,0,0
339571.2,75.2754,-494.565,0,0
339831.525,75.3636,-493.171,0,0
340091.85,75.5482,-491.81,0,0
340352.175,75.8314,-490.46,0,0
340612.5,76.1455,-489.126,0,0
340872.825,76.5491,-487.849,0,0
341133.15,77.0292,-486.588,0,0
341393.475,77.5885,-485.373,0,0
341653.8,78.2407,-484.21,0,0
341914.125,78.944,-483.082,0,0
342174.45,79.7369,-482.108,0,0
342434.775,80.5426,-481.221,0,0
342695.1,81.42,-480.44,0,0
342955.425,82.2304,-479.754,0,0
343215.75,83.052,-479.197,0,0
343476.075,83.9379,-478.714,0,0
343736.4,84.7366,-478.366,0,0
343996.725,85.4111,-478.007,0,0
344257.05,86.138,-477.798,0,0
344517.375,86.7907,-477.714,0,0
344777.7,87.3847,-477.604,0,0
345038.025,87.8486,-477.565,0,0
345298.35,88.2705,-477.48,0,0
345558.675,88.642,-477.51,0,0
345819.0,88.9133,-477.536,0,0
346079.325,89.1805,-477.584,0,0
346339.65,89.3565,-477.676,0,0
346599.975,89.4452,-477.767,0,0
346860,89.4815,-477.758,0,0
347121,89.4482,-477.837,0,0
347381,89.3354,-477.775,0,0
347641,89.2404,-477.734,0,0
347902,89.0363,-477.714,0,0
348162,88.853,-477.538,0,0
348422,88.6391,-477.448,0,0
348683,88.467,-477.281,0,0
348943,88.2039,-477.148,0,0
349203,87.9527,-476.998,0,0
349464,87.5872,-476.748,0,0
349724,87.3119,-476.574,0,0
349984,86.9587,-476.38,0,0
350245,86.4852,-476.145,0,0
350505,86.0322,-475.772,0,0
350765,85.5481,-475.382,0,0
351025,85.1863,-474.985,0,0
351286,84.6738,-474.457,0,0
351546,84.2428,-473.912,0,0
351806,83.8563,-473.294,0,0
352067,83.4584,-472.68,0,0
352327,83.1437,-471.944,0,0
352587,82.832,-471.262,0,0
352848,82.6516,-470.565,0,0
353108,82.4064,-469.921,0,0
353368,82.3355,-469.195,0,0
353629,82.1331,-468.478,0,0
353889,82.0891,-467.882,0,0
354149,81.9065,-467.299,0,0
354410,81.8044,-466.714,0,0
354670,81.6458,-466.142,0,0
354930,81.4581,-465.5,0,0
355191,81.3043,-464.893,0,0
355451,81.1122,-464.209,0,0
355711,80.9786,-463.563,0,0
355972,80.8944,-462.892,0,0
356232,80.883,-462.195,0,0
356492,80.8021,-461.557,0,0
356753,80.8075,-460.89,0,0
357013,80.8677,-460.359,0,0
357273,80.8506,-459.811,0,0
357534,80.8128,-459.256,0,0
357794,80.7626,-458.758,0,0
358054,80.6707,-458.304,0,0
358315,80.5629,-457.811,0,0
358575,80.4363,-457.339,0,0
358835,80.1924,-456.803,0,0
359096,79.9882,-456.272,0,0
359356,79.767,-455.655,0,0
359616,79.524,-455.068,0,0
359877,79.279,-454.432,0,0
360137,79.0164,-453.659,0,0
360397,78.8385,-452.934,0,0
360658,78.6281,-452.185,0,0
360918,78.5647,-451.331,0,0
361178,78.5314,-450.602,0,0
361438,78.4754,-449.781,0,0
361699,78.4741,-449.009,0,0
361959,78.4648,-448.246,0,0
362219,78.4555,-447.537,0,0
362480,78.4302,-446.791,0,0
362740.1,78.4349,-446.007,0,0
363000.425,78.4547,-445.272,0,0
363260.75,78.5224,-444.493,0,0
363521.075,78.5617,-443.733,0,0
363781.4,78.5959,-442.996,0,0
364041.725,78.6693,-442.245,0,0
364302.05,78.7756,-441.478,0,0
364562.375,78.8586,-440.751,0,0
364822.7,78.9672,-439.969,0,0
365083.025,79.0463,-439.269,0,0
365343.35,79.0938,-438.489,0,0
365603.675,79.1432,-437.714,0,0
365864.0,79.2742,-436.914,0,0
366124.325,79.3172,-436.139,0,0
366384.65,79.428,-435.294,0,0
366644.975,79.5259,-434.417,0,0
366905.3,79.7378,-433.511,0,0
367165.625,79.9067,-432.615,0,0
367425.95,80.1838,-431.625,0,0
367686.275,80.5062,-430.61,0,0
367946.6,80.8931,-429.664,0,0
368206.925,81.3338,-428.694,0,0
368467.25,81.8151,-427.802,0,0
368727.575,82.351,-426.866,0,0
368987.9,82.8672,-425.975,0,0
369248.225,83.521,-425.072,0,0
369508.55,84.2066,-424.182,0,0
369768.875,85.0195,-423.256,0,0
370029.2,85.8372,-422.463,0,0
370289.525,86.8151,-421.624,0,0
370549.85,87.8566,-420.919,0,0
370810.175,88.9125,-420.286,0,0
371070.5,90.1611,-419.796,0,0
371330.825,91.3671,-419.408,0,0
371591.15,92.6569,-419.22,0,0
371851.475,93.9082,-419.106,0,0
372111.8,95.1083,-419.224,0,0
372372.125,96.2562,-419.386,0,0
372632.45,97.3118,-419.725,0,0
372892.775,98.3394,-420.151,0,0
373153.1,99.2668,-420.676,0,0
373413.425,100.02,-421.317,0,0
373673.75,100.723,-421.959,0,0
373934.075,101.172,-422.665,0,0
374194.4,101.629,-423.365,0,0
374454.725,101.867,-424.039,0,0
374715.05,102.038,-424.668,0,0
374975.375,102.167,-425.247,0,0
375235.7,102.191,-425.836,0,0
375496.025,102.189,-426.304,0,0
375756.35,102.106,-426.747,0,0
376016.675,102.018,-427.196,0,0
376277.0,101.862,-427.571,0,0
376537.325,101.68,-427.989,0,0
376797.65,101.421,-428.268,0,0
377057.975,101.155,-428.434,0,0
377318.3,100.951,-428.569,0,0
377578.625,100.799,-428.696,0,0
377838.95,100.632,-428.766,0,0
378099.275,100.475,-428.83,0,0
378359.6,100.373,-428.895,0,0
378619.925,100.294,-429.021,0,0
378880,100.192,-429.146,0,0
379141,100.087,-429.333,0,0
379401,99.9328,-429.494,0,0
379661,99.7635,-429.717,0,0
379922,99.5536,-429.883,0,0
380182,99.259,-430.027,0,0
380442,98.9709,-430.078,0,0
380703,98.6309,-430.161,0,0
380963,98.3503,-430.081,0,0
381223,98.1823,-430.012,0,0
381483,97.9887,-429.949,0,0
381744,97.884,-429.86,0,0
382004,97.8306,-429.866,0,0
382264,97.7377,-429.918,0,0
382525,97.6943,-430.021,0,0
382785,97.6702,-430.101,0,0
383045,97.5875,-430.235,0,0
383306,97.5394,-430.389,0,0
383566,97.5257,-430.661,0,0
383826,97.4222,-431.033,0,0
384087,97.3183,-431.435,0,0
384347,97.0821,-431.979,0,0
384607,96.6646,-432.586,0,0
384868,96.1567,-433.114,0,0
385128,95.4932,-433.71,0,0
385388,94.7135,-434.203,0,0
385649,93.8099,-434.567,0,0
385909,92.7977,-434.874,0,0
386169,91.7798,-435.018,0,0
386430,90.6413,-435.094,0,0
386690,89.5043,-434.975,0,0
386950,88.3263,-434.757,0,0
387211,87.2259,-434.369,0,0
387471,86.1695,-433.891,0,0
387731,85.1901,-433.255,0,0
387992,84.3097,-432.61,0,0
388252,83.5927,-431.879,0,0
388512,82.8844,-431.054,0,0
388773,82.3298,-430.267,0,0
389033,81.8583,-429.404,0,0
389293,81.5336,-428.583,0,0
389554,81.313,-427.838,0,0
389814,81.1842,-427.147,0,0
390074,81.1065,-426.527,0,0
390335,81.0782,-426.066,0,0
390595,81.0928,-425.679,0,0
390855,81.0875,-425.438,0,0
391116,81.0185,-425.237,0,0
391376,80.8766,-425.13,0,0
391636,80.6521,-425.132,0,0
391896,80.3168,-425.086,0,0
392157,79.9393,-425.041,0,0
392417,79.4455,-425.044,0,0
392677,78.9487,-424.976,0,0
392938,78.361,-424.91,0,0
393198,77.7187,-424.792,0,0
393458,77.0143,-424.648,0,0
393719,76.2574,-424.402,0,0
393979,75.4926,-424.156,0,0
394239,74.6523,-423.779,0,0
394500,73.8505,-423.407,0,0
394760.05,73.0459,-422.952,0,0
395020.375,72.2667,-422.393,0,0
395280.7,71.5171,-421.833,0,0
395541.025,70.7375,-421.212,0,0
395801.35,69.9957,-420.567,0,0
396061.675,69.2777,-419.901,0,0
396322.0,68.5394,-419.197,0,0
396582.325,67.8342,-418.425,0,0
396842.65,67.1339,-417.635,0,0
397102.975,66.5106,-416.83,0,0
397363.3,65.8733,-415.952,0,0
397623.625,65.2723,-415.057,0,0
397883.95,64.7267,-414.17,0,0
398144.275,64.1492,-413.208,0,0
398404.6,63.6531,-412.243,0,0
398664.925,63.1858,-411.25,0,0
398925.25,62.7535,-410.223,0,0
399185.575,62.3653,-409.179,0,0
399445.9,61.9968,-408.107,0,0
399706.225,61.6679,-407.067,0,0
399966.55,61.4082,-405.997,0,0
400006.6,61.3811,-405.817,0,0