File: Accelerated corrosion test data/2025-10-22_18-00-04/sample_7.csv
Frequency (Hz),Impedance (ohms),Phase (Radians),Temperature (C),Humidity (%)
10000.0,273.205,-12092.2,0,0
10260.325,269.728,-11801.5,0,0
10520.65,257.591,-11502.2,0,0
10780.975,252.157,-11220.8,0,0
11041.3,249.724,-10953.8,0,0
11301.625,246.385,-10697.3,0,0
11561.95,249.478,-10447.9,0,0
11822.275,259.635,-10216.9,0,0
12082.6,267.649,-10000.6,0,0
12342.925,323.42,-9831.67,0,0
12603.25,257.006,-9652.5,0,0
12863.575,272.122,-9452.49,0,0
13123.9,237.166,-9278.48,0,0
13384.225,229.556,-9100.94,0,0
13644.55,224.693,-8916.83,0,0
13904.875,208.235,-8754.83,0,0
14165.2,204.752,-8583.07,0,0
14425.525,205.784,-8445.19,0,0
14685.8,201.42,-8291.2,0,0
14946.175,197.994,-8144.12,0,0
15206.5,195.608,-8014.45,0,0
15466.825,184.094,-7872.07,0,0
15727.15,183.394,-7744.31,0,0
15987.5,179.845,-7615.29,0,0
16247.8,177.608,-7496.23,0,0
16508.125,171.05,-7374.07,0,0
16768.45,170.382,-7255.75,0,0
17028.775,169.189,-7144.75,0,0
17289.1,166.483,-7037.57,0,0
17549.425,166.011,-6928.43,0,0
17809.75,167.415,-6818.56,0,0
18070.075,167.407,-6722.69,0,0
18330.4,174.062,-6616.81,0,0
18590.725,196.633,-6525.53,0,0
18851.05,189.22,-6459.7,0,0
19111.375,186.368,-6380.12,0,0
19371.7,210.411,-6296.63,0,0
19632.025,173.582,-6239.95,0,0
19892.35,157.942,-6140.06,0,0
20152.675,166.867,-6057.03,0,0
20413.0,167.839,-5976.43,0,0
20673.3,172.989,-5900.07,0,0
20933.65,184.236,-5844.4,0,0
21193.975,162.746,-5786.69,0,0
21454.3,152.936,-5711.9,0,0
21714.625,156.478,-5641.61,0,0
21974.9,145.445,-5580.36,0,0
22235.275,139.32,-5510.9,0,0
22495.6,137.911,-5444.77,0,0
22755.925,132.767,-5382.75,0,0
23016.25,129.441,-5319.13,0,0
23276.6,127.371,-5256.12,0,0
23536.9,127.783,-5196.12,0,0
23797.225,127.177,-5139.96,0,0
24057.55,123.618,-5083.24,0,0
24317.875,121.86,-5026.44,0,0
24578.2,122.609,-4970.47,0,0
24838.525,120.615,-4917.73,0,0
25098.85,120.898,-4865.76,0,0
25359.175,118.896,-4813.33,0,0
25619.5,117.868,-4761.97,0,0
25879.8,117.894,-4711.53,0,0
26140.1,117.708,-4660.28,0,0
26400.5,121.554,-4611.35,0,0
26660.8,120.473,-4566.12,0,0
26921.1,120.957,-4517.02,0,0
27181.4,124.904,-4467.76,0,0
27441.8,130.696,-4421.74,0,0
27702.1,138.536,-4373.89,0,0
27962.4,151.577,-4327.13,0,0
28222.7,178.372,-4293.46,0,0
28483.1,190.059,-4279.76,0,0
28743.4,196.989,-4267.16,0,0
29003.7,175.07,-4253.49,0,0
29264,153.277,-4221.16,0,0
29524.4,140.272,-4180.11,0,0
29784.7,132.822,-4140.12,0,0
30045,127.209,-4096.98,0,0
30305.3,126.983,-4059.14,0,0
30565.7,129.463,-4022.5,0,0
30826,131.528,-3990.49,0,0
31086.3,131.568,-3959.83,0,0
31346.6,128.588,-3930.77,0,0
31607,130.082,-3903.37,0,0
31867.3,121.572,-3873.9,0,0
32127.6,117.81,-3842.52,0,0
32387.9,114.09,-3811.83,0,0
32648.3,111.24,-3781.73,0,0
32908.6,107.719,-3752.12,0,0
33168.9,104.183,-3722.16,0,0
33429.2,101.071,-3692.21,0,0
33689.6,98.5183,-3662.08,0,0
33949.9,96.4263,-3632.6,0,0
34210.2,94.6504,-3603.62,0,0
34470.5,92.622,-3575.46,0,0
34730.9,91.4665,-3546.74,0,0
34991.2,90.7729,-3519.43,0,0
35251.5,89.5372,-3492.29,0,0
35511.8,88.2551,-3465.12,0,0
35772.2,88.1323,-3438.67,0,0
36032.5,87.6534,-3412.79,0,0
36292.8,87.6145,-3387.91,0,0
36553.1,86.3002,-3362.87,0,0
36813.5,85.6593,-3337.88,0,0
37073.8,85.3498,-3313.03,0,0
37334.1,85.4194,-3288.81,0,0
37594.4,85.1893,-3265.5,0,0
37854.8,84.6893,-3242.09,0,0
38115.1,84.6696,-3218.17,0,0
38375.4,84.9336,-3194.76,0,0
38635.7,86.1981,-3171.49,0,0
38896.1,87.6757,-3148.84,0,0
39156.4,90.0351,-3127,0,0
39416.7,93.0389,-3106.07,0,0
39677,97.0661,-3087.08,0,0
39937.4,99.6199,-3071.71,0,0
40197.7,99.691,-3056.65,0,0
40458,96.7812,-3041.61,0,0
40718.3,92.9881,-3023.7,0,0
40978.7,89.6086,-3005.86,0,0
41239,86.6256,-2986.08,0,0
41499.3,84.7564,-2966.53,0,0
41759.6,83.5738,-2946.87,0,0
42020,81.8625,-2928.72,0,0
42280.275,80.0822,-2909.36,0,0
42540.6,79.2729,-2889.66,0,0
42800.925,80.0295,-2870.93,0,0
43061.25,79.7609,-2853.21,0,0
43321.575,79.9751,-2836.17,0,0
43581.9,78.823,-2819.04,0,0
43842.225,78.4386,-2800.73,0,0
44102.55,79.2524,-2783.31,0,0
44362.875,81.4104,-2766.62,0,0
44623.2,81.5492,-2752.5,0,0
44883.525,80.7889,-2737.93,0,0
45143.85,80.034,-2722.44,0,0
45404.175,78.1918,-2706.8,0,0
45664.5,79.2863,-2690.14,0,0
45924.825,80.0904,-2676.9,0,0
46185.15,78.707,-2663.83,0,0
46445.475,76.9843,-2649.55,0,0
46705.8,74.5313,-2635.68,0,0
46966.125,72.3517,-2619.98,0,0
47226.45,71.0276,-2604.14,0,0
47486.775,70.6153,-2588.88,0,0
47747.1,69.9136,-2573.93,0,0
48007.425,70.0091,-2559.66,0,0
48267.75,69.2897,-2545.44,0,0
48528.075,68.3202,-2531.35,0,0
48788.4,67.8312,-2517.67,0,0
49048.725,67.3215,-2503.42,0,0
49309.05,66.9765,-2489.83,0,0
49569.375,66.6785,-2476.33,0,0
49829.7,66.2165,-2463,0,0
50090.025,65.8693,-2449.58,0,0
50350.35,65.3418,-2436.4,0,0
50610.675,65.2207,-2423.47,0,0
50871.0,64.9182,-2410.74,0,0
51131.325,64.6236,-2397.75,0,0
51391.65,64.2585,-2385.25,0,0
51651.975,64.1433,-2372.85,0,0
51912.3,63.7835,-2360.53,0,0
52172.625,63.4676,-2348.23,0,0
52432.95,63.5433,-2336.08,0,0
52693.275,63.3965,-2324.19,0,0
52953.6,63.2896,-2312.33,0,0
53213.925,63.2224,-2300.96,0,0
53474.25,62.9765,-2289.75,0,0
53734.575,62.5147,-2278.39,0,0
53994.9,62.2137,-2267.2,0,0
54255.225,61.8656,-2255.71,0,0
54515.55,61.5176,-2244.75,0,0
54775.875,61.111,-2233.64,0,0
55036.2,60.9108,-2222.74,0,0
55296.525,60.5316,-2211.82,0,0
55556.85,60.3463,-2201.01,0,0
55817.175,60.0595,-2190.28,0,0
56077.5,59.9141,-2179.59,0,0
56337.825,60.0328,-2169.13,0,0
56598.15,59.6666,-2158.79,0,0
56858.475,59.6323,-2148.55,0,0
57118.8,59.5132,-2138.54,0,0
57379.125,59.1838,-2128.42,0,0
57639.45,58.9099,-2118.41,0,0
57899.775,58.7852,-2108.33,0,0
58160.1,58.7516,-2098.33,0,0
58420.4,58.8906,-2088.46,0,0
58680.7,59.0002,-2079.06,0,0
58941.1,58.9687,-2069.67,0,0
59201.4,58.8036,-2060.31,0,0
59461.7,58.7701,-2050.72,0,0
59722,59.2474,-2041.83,0,0
59982.4,58.9502,-2032.93,0,0
60242.7,58.8653,-2024,0,0
60503,58.7526,-2015.44,0,0
60763.3,58.3916,-2006.92,0,0
61023.7,57.8472,-1998.16,0,0
61284,57.4807,-1989.35,0,0
61544.3,57.1829,-1980.65,0,0
61804.6,56.7413,-1972.03,0,0
62065,56.2781,-1963.3,0,0
62325.3,55.892,-1954.68,0,0
62585.6,55.6478,-1946.06,0,0
62845.9,55.4633,-1937.57,0,0
63106.3,55.2288,-1929.12,0,0
63366.6,55.2174,-1920.68,0,0
63626.9,55.0898,-1912.53,0,0
63887.2,54.8621,-1904.49,0,0
64147.6,54.5742,-1896.3,0,0
64407.9,54.4056,-1888,0,0
64668.2,54.335,-1880.02,0,0
64928.5,54.306,-1871.9,0,0
65188.9,54.3733,-1864.03,0,0
65449.2,54.6349,-1856.36,0,0
65709.5,54.655,-1849.1,0,0
65969.8,54.3737,-1841.58,0,0
66230.2,54.3056,-1834.34,0,0
66490.5,53.8575,-1827.09,0,0
66750.8,53.6011,-1819.68,0,0
67011.1,53.0367,-1812.25,0,0
67271.5,52.6908,-1804.73,0,0
67531.8,52.4653,-1797.32,0,0
67792.1,52.141,-1789.96,0,0
68052.4,51.8318,-1782.58,0,0
68312.8,51.6733,-1775.31,0,0
68573.1,51.4971,-1767.95,0,0
68833.4,51.4197,-1760.84,0,0
69093.7,51.2867,-1753.75,0,0
69354.1,51.123,-1746.74,0,0
69614.4,51.0045,-1739.81,0,0
69874.7,50.9334,-1732.83,0,0
70135,50.9461,-1725.98,0,0
70395.4,50.8411,-1719.09,0,0
70655.7,50.7068,-1712.36,0,0
70916,50.7319,-1705.64,0,0
71176.3,50.7617,-1699.29,0,0
71436.7,50.5275,-1692.64,0,0
71697,50.3274,-1686.28,0,0
71957.3,50.0756,-1679.84,0,0
72217.6,49.8403,-1673.39,0,0
72478,49.6163,-1666.91,0,0
72738.3,49.4234,-1660.46,0,0
72998.6,49.2083,-1653.99,0,0
73258.9,49.1331,-1647.74,0,0
73519.3,48.9266,-1641.43,0,0
73779.6,48.7781,-1635.03,0,0
74039.9,48.6988,-1628.86,0,0
74300.225,48.5186,-1622.74,0,0
74560.55,48.4065,-1616.57,0,0
74820.875,48.3762,-1610.45,0,0
75081.2,48.2317,-1604.34,0,0
75341.525,48.173,-1598.33,0,0
75601.85,48.0442,-1592.33,0,0
75862.175,47.9601,-1586.34,0,0
76122.5,47.8514,-1580.51,0,0
76382.825,47.7283,-1574.57,0,0
76643.15,47.6986,-1568.67,0,0
76903.475,47.6286,-1562.92,0,0
77163.8,47.6,-1557.06,0,0
77424.125,47.5283,-1551.33,0,0
77684.45,47.461,-1545.71,0,0
77944.775,47.4569,-1540.06,0,0
78205.1,47.2852,-1534.43,0,0
78465.425,47.27,-1528.78,0,0
78725.75,47.2355,-1523.28,0,0
78986.075,47.2174,-1517.78,0,0
79246.4,47.1104,-1512.33,0,0
79506.725,47.1156,-1506.88,0,0
79767.05,47.0584,-1501.44,0,0
80027.375,47.008,-1496.14,0,0
80287.7,46.9609,-1490.87,0,0
80548.025,46.8984,-1485.54,0,0
80808.35,46.8554,-1480.28,0,0
81068.675,46.7774,-1475,0,0
81329.0,46.6293,-1469.82,0,0
81589.325,46.5595,-1464.55,0,0
81849.65,46.4675,-1459.39,0,0
82109.975,46.3776,-1454.17,0,0
82370.3,46.3933,-1449.04,0,0
82630.625,46.3689,-1443.87,0,0
82890.95,46.3766,-1438.82,0,0
83151.275,46.3382,-1433.88,0,0
83411.6,46.2853,-1428.82,0,0
83671.925,46.2082,-1423.71,0,0
83932.25,46.3375,-1418.71,0,0
84192.575,46.3633,-1413.76,0,0
84452.9,46.4789,-1408.83,0,0
84713.225,46.6107,-1404.11,0,0
84973.55,46.6079,-1399.43,0,0
85233.875,46.4582,-1394.67,0,0
85494.2,46.5374,-1389.81,0,0
85754.525,46.4728,-1385.11,0,0
86014.85,46.3445,-1380.42,0,0
86275.175,46.4447,-1375.66,0,0
86535.5,46.5158,-1371.12,0,0
86795.825,46.4199,-1366.47,0,0
87056.15,46.4047,-1361.75,0,0
87316.475,46.5838,-1357.15,0,0
87576.8,46.5662,-1352.74,0,0
87837.125,46.5845,-1348.29,0,0
88097.45,46.6133,-1343.76,0,0
88357.775,46.4507,-1339.4,0,0
88618.1,46.328,-1334.93,0,0
88878.425,46.1919,-1330.46,0,0
89138.75,46.1429,-1326.03,0,0
89399.075,45.9852,-1321.53,0,0
89659.4,46.0208,-1316.94,0,0
89919.725,46.0409,-1312.46,0,0
90180,45.9546,-1308.07,0,0
90440.4,46.1,-1303.56,0,0
90700.7,46.0044,-1299.28,0,0
90961,46.1192,-1294.82,0,0
91221.3,46.1515,-1290.44,0,0
91481.7,46.2022,-1285.98,0,0
91742,46.2925,-1281.83,0,0
92002.3,46.2924,-1277.41,0,0
92262.6,46.3561,-1273.09,0,0
92523,46.5102,-1268.74,0,0
92783.3,46.6364,-1264.5,0,0
93043.6,46.7785,-1260.01,0,0
93303.9,47.0705,-1255.54,0,0
93564.3,47.6462,-1251.14,0,0
93824.6,48.3869,-1246.88,0,0
94084.9,49.4043,-1243.03,0,0
94345.2,50.2587,-1239.63,0,0
94605.6,50.5522,-1236.78,0,0
94865.9,50.3274,-1233.57,0,0
95126.2,50.1845,-1229.98,0,0
95386.5,50.0613,-1226.52,0,0
95646.9,49.591,-1223,0,0
95907.2,48.9638,-1219.13,0,0
96167.5,48.7531,-1215.04,0,0
96427.8,48.5443,-1211.15,0,0
96688.2,48.3767,-1206.99,0,0
96948.5,48.4325,-1202.94,0,0
97208.8,48.6185,-1199.07,0,0
97469.1,48.5312,-1195.22,0,0
97729.5,48.5475,-1191.24,0,0
97989.8,48.7556,-1187.36,0,0
98250.1,48.9178,-1183.61,0,0
98510.4,49.1183,-1179.84,0,0
98770.8,49.2479,-1176.34,0,0
99031.1,49.1747,-1172.79,0,0
99291.4,48.9513,-1169.09,0,0
99551.7,48.7453,-1165.22,0,0
99812.1,48.6222,-1161.17,0,0
100072,48.7135,-1156.98,0,0
100333,49.1824,-1152.87,0,0
100593,49.6636,-1149.28,0,0
100853,49.9092,-1145.56,0,0
101114,50.2806,-1141.93,0,0
101374,50.4874,-1138.39,0,0
101634,50.6308,-1134.57,0,0
101895,51.0154,-1130.74,0,0
102155,51.5527,-1127.02,0,0
102415,52.2025,-1123.41,0,0
102676,52.9912,-1120.08,0,0
102936,53.3767,-1117.09,0,0
103196,53.6217,-1113.68,0,0
103457,54.0163,-1110.28,0,0
103717,54.8146,-1107.02,0,0
103977,55.3515,-1104.32,0,0
104238,55.348,-1101.5,0,0
104498,55.3282,-1098.36,0,0
104758,55.5417,-1095.17,0,0
105019,55.764,-1092.26,0,0
105279,55.5249,-1089.33,0,0
105539,55.3944,-1086.12,0,0
105800,55.4166,-1082.83,0,0
106060,55.3321,-1079.62,0,0
106320.175,55.2607,-1076.29,0,0
106580.5,55.3069,-1072.78,0,0
106840.825,55.5075,-1069.44,0,0
107101.15,55.7636,-1066.17,0,0
107361.475,55.8104,-1063.1,0,0
107621.8,55.8079,-1059.68,0,0
107882.125,55.9748,-1056.3,0,0
108142.45,56.2451,-1053.02,0,0
108402.775,56.4114,-1049.72,0,0
108663.1,56.7024,-1046.44,0,0
108923.425,56.9346,-1043.32,0,0
109183.75,57.0108,-1040.13,0,0
109444.075,57.0472,-1036.73,0,0
109704.4,57.1876,-1033.34,0,0
109964.725,57.4143,-1029.97,0,0
110225.05,57.5629,-1026.41,0,0
110485.375,58.023,-1022.61,0,0
110745.7,58.777,-1018.94,0,0
111006.025,59.541,-1015.68,0,0
111266.35,60.3604,-1012.58,0,0
111526.675,60.8104,-1009.41,0,0
111787.0,61.4228,-1005.96,0,0
112047.325,62.2178,-1002.5,0,0
112307.65,63.2951,-999.057,0,0
112567.975,64.3198,-995.957,0,0
112828.3,65.4004,-992.853,0,0
113088.625,66.5784,-989.885,0,0
113348.95,67.8715,-987.056,0,0
113609.275,68.835,-984.456,0,0
113869.6,69.7634,-981.461,0,0
114129.925,70.9805,-978.606,0,0
114390.25,72.4072,-975.786,0,0
114650.575,73.7836,-973.314,0,0
114910.9,75.135,-970.87,0,0
115171.225,76.4165,-968.414,0,0
115431.55,77.9661,-965.915,0,0
115691.875,79.7208,-963.637,0,0
115952.2,81.6281,-961.746,0,0
116212.525,83.4067,-960.137,0,0
116472.85,85.267,-958.817,0,0
116733.175,86.8793,-958.043,0,0
116993.5,87.7681,-957.485,0,0
117253.825,88.3073,-956.411,0,0
117514.15,89.2795,-955.179,0,0
117774.475,90.2073,-954.399,0,0
118034.8,90.975,-953.735,0,0
118295.125,91.4199,-952.864,0,0
118555.45,92.3769,-951.972,0,0
118815.775,93.4088,-951.93,0,0
119076.1,93.7908,-952.574,0,0
119336.425,93.2299,-953.309,0,0
119596.75,91.9622,-953.428,0,0
119857.075,90.8611,-953.139,0,0
120117.4,89.6195,-953.042,0,0
120377.725,88.012,-953.038,0,0
120638.05,85.421,-952.712,0,0
120898.375,82.7355,-951.36,0,0
121158.7,80.3228,-949.779,0,0
121419.025,77.6565,-947.593,0,0
121679.35,75.6682,-944.793,0,0
121939.675,74.1037,-942.24,0,0
122200.0,72.5978,-939.7,0,0
122460,71.1545,-937.212,0,0
122721,69.6105,-934.583,0,0
122981,68.3325,-931.748,0,0
123241,67.2437,-929.141,0,0
123502,65.8759,-926.518,0,0
123762,64.568,-923.522,0,0
124022,63.764,-920.43,0,0
124283,63.0275,-917.77,0,0
124543,62.0123,-915.129,0,0
124803,61.0778,-912.233,0,0
125064,60.348,-909.498,0,0
125324,59.4526,-906.861,0,0
125584,58.3828,-904.038,0,0
125845,57.5041,-901.024,0,0
126105,56.6994,-898.107,0,0
126365,55.823,-895.116,0,0
126626,55.0779,-892.034,0,0
126886,54.4061,-888.978,0,0
127146,53.7158,-885.882,0,0
127406,53.2926,-882.463,0,0
127667,52.9866,-879.262,0,0
127927,52.8394,-876.139,0,0
128187,52.7333,-873.358,0,0
128448,52.3927,-870.558,0,0
128708,52.0369,-867.672,0,0
128968,51.7823,-864.801,0,0
129229,51.5044,-861.915,0,0
129489,51.2756,-859.066,0,0
129749,50.9641,-856.377,0,0
130010,50.5026,-853.471,0,0
130270,50.2505,-850.492,0,0
130530,50.0132,-847.604,0,0
130791,49.6742,-844.794,0,0
131051,49.295,-841.802,0,0
131311,49.0228,-838.704,0,0
131572,48.8768,-835.614,0,0
131832,48.7672,-832.596,0,0
132092,48.6217,-829.647,0,0
132353,48.405,-826.535,0,0
132613,48.4115,-823.283,0,0
132873,48.4951,-820.149,0,0
133134,48.61,-816.996,0,0
133394,48.7708,-813.836,0,0
133654,49.0699,-810.648,0,0
133915,49.4846,-807.496,0,0
134175,49.9807,-804.372,0,0
134435,50.6935,-801.284,0,0
134696,51.6026,-798.494,0,0
134956,52.3583,-796.049,0,0
135216,52.7978,-793.521,0,0
135477,53.4478,-790.743,0,0
135737,54.3441,-788.101,0,0
135997,55.5143,-785.712,0,0
136258,56.7152,-783.957,0,0
136518,57.4486,-782.669,0,0
136778,57.6732,-781.437,0,0
137039,57.4129,-780.1,0,0
137299,56.7636,-778.482,0,0
137559,55.993,-776.436,0,0
137819,55.3164,-774.063,0,0
138080,54.7748,-771.58,0,0
138340.125,54.2646,-768.97,0,0
138600.45,53.9123,-766.271,0,0
138860.775,53.6264,-763.582,0,0
139121.1,53.2423,-760.753,0,0
139381.425,53.0843,-757.75,0,0
139641.75,53.1744,-754.863,0,0
139902.075,53.3091,-752.123,0,0
140162.4,53.4052,-749.432,0,0
140422.725,53.4792,-746.849,0,0
140683.05,53.4239,-744.237,0,0
140943.375,53.338,-741.516,0,0
141203.7,53.2706,-738.737,0,0
141464.025,53.1704,-735.873,0,0
141724.35,53.179,-732.834,0,0
141984.675,53.3942,-729.759,0,0
142245.0,53.7339,-726.76,0,0
142505.325,54.1325,-723.799,0,0
142765.65,54.6452,-720.931,0,0
143025.975,55.1281,-718.161,0,0
143286.3,55.6275,-715.347,0,0
143546.625,56.3431,-712.636,0,0
143806.95,57.0321,-710.167,0,0
144067.275,57.5654,-707.766,0,0
144327.6,57.9823,-705.512,0,0
144587.925,58.2265,-703.117,0,0
144848.25,58.5217,-700.635,0,0
145108.575,58.7797,-698.207,0,0
145368.9,58.9719,-695.703,0,0
145629.225,59.2118,-693.107,0,0
145889.55,59.4872,-690.554,0,0
146149.875,59.6757,-687.931,0,0
146410.2,60.0025,-685.195,0,0
146670.525,60.499,-682.508,0,0
146930.85,61.0275,-680.1,0,0
147191.175,61.3685,-677.792,0,0
147451.5,61.5512,-675.482,0,0
147711.825,61.6093,-673.006,0,0
147972.15,61.7485,-670.4,0,0
148232.475,61.9364,-667.922,0,0
148492.8,61.9491,-665.427,0,0
148753.125,61.8691,-662.82,0,0
149013.45,61.7907,-660.147,0,0
149273.775,61.6534,-657.29,0,0
149534.1,61.6233,-654.342,0,0
149794.425,61.5739,-651.369,0,0
150054.75,61.5373,-648.303,0,0
150315.075,61.5295,-645.15,0,0
150575.4,61.5258,-641.837,0,0
150835.725,61.651,-638.385,0,0
151096.05,61.8814,-634.942,0,0
151356.375,62.1871,-631.415,0,0
151616.7,62.6308,-627.809,0,0
151877.025,63.262,-624.205,0,0
152137.35,63.9082,-620.693,0,0
152397.675,64.5509,-617.156,0,0
152658.0,65.2908,-613.532,0,0
152918.325,66.142,-609.941,0,0
153178.65,67.0567,-606.351,0,0
153438.975,68.0245,-602.772,0,0
153699.3,69.0214,-599.152,0,0
153959.625,70.0802,-595.489,0,0
154219.95,71.2387,-591.795,0,0
154480,72.5255,-588.108,0,0
154741,73.8139,-584.409,0,0
155001,75.2497,-580.63,0,0
155261,76.8197,-576.878,0,0
155522,78.56,-573.127,0,0
155782,80.4187,-569.432,0,0
156042,82.3704,-565.818,0,0
156303,84.4196,-562.272,0,0
156563,86.5911,-558.792,0,0
156823,88.8554,-555.349,0,0
157084,91.2526,-551.976,0,0
157344,93.8164,-548.703,0,0
157604,96.5657,-545.71,0,0
157864,99.3009,-543.044,0,0
158125,101.924,-540.519,0,0
158385,104.478,-538.171,0,0
158645,107.02,-536.037,0,0
158906,109.389,-534.224,0,0
159166,111.316,-532.623,0,0
159426,112.765,-530.946,0,0
159687,113.93,-528.993,0,0
159947,114.953,-526.867,0,0
160207,115.671,-524.544,0,0
160468,116.234,-521.772,0,0
160728,116.764,-518.619,0,0
160988,117.322,-515.111,0,0
161249,117.88,-511.124,0,0
161509,118.717,-506.585,0,0
161769,120.135,-501.62,0,0
162030,122.186,-496.655,0,0
162290,124.454,-491.835,0,0
162550,126.963,-486.907,0,0
162811,129.718,-481.956,0,0
163071,132.775,-476.851,0,0
163331,136.277,-471.666,0,0
163592,140.265,-466.621,0,0
163852,144.706,-461.892,0,0
164112,149.197,-457.507,0,0
164373,153.601,-453.451,0,0
164633,157.827,-449.204,0,0
164893,162.199,-444.732,0,0
165154,166.758,-440.21,0,0
165414,171.315,-435.303,0,0
165674,176.452,-429.754,0,0
165935,182.539,-423.999,0,0
166195,189.454,-418.47,0,0
166455,197.212,-413.254,0,0
166716,205.413,-408.482,0,0
166976,214.078,-403.933,0,0
167236,223.337,-399.529,0,0
167497,233.669,-395.366,0,0
167757,244.952,-392.189,0,0
168017,256.702,-389.987,0,0
168277,268.948,-388.551,0,0
168538,281.695,-388.151,0,0
168798,294.975,-388.892,0,0
169058,308.168,-390.979,0,0
169319,321.514,-394.265,0,0
169579,334.47,-399.184,0,0
169839,346.388,-404.815,0,0
170100,358.317,-410.71,0,0
170360.075,370.531,-417.626,0,0
170620.4,382.893,-426.024,0,0
170880.725,394.459,-436.594,0,0
171141.05,404.074,-448.38,0,0
171401.375,412.448,-460.158,0,0
171661.7,420.517,-472.421,0,0
171922.025,427.922,-485.831,0,0
172182.35,434.257,-500.416,0,0
172442.675,439.245,-516.384,0,0
172703.0,441.769,-533.59,0,0
172963.325,441.642,-550.472,0,0
173223.65,440.129,-567.351,0,0
173483.975,435.874,-584.716,0,0
173744.3,428.311,-601.033,0,0
174004.625,417.956,-615.198,0,0
174264.95,405.499,-626.175,0,0
174525.275,392.733,-633.724,0,0
174785.6,379.99,-638.828,0,0
175045.925,367.817,-640.587,0,0
175306.25,358.144,-640.127,0,0
175566.575,350.24,-639.683,0,0
175826.9,342.604,-638.475,0,0
176087.225,336.383,-635.629,0,0
176347.55,332.41,-632.254,0,0
176607.875,330.39,-629.325,0,0
176868.2,329.831,-627.633,0,0
177128.525,329.193,-627.039,0,0
177388.85,328.618,-625.994,0,0
177649.175,329.794,-624.666,0,0
177909.5,333.099,-624.599,0,0
178169.825,337.876,-627.188,0,0
178430.15,342.33,-633.643,0,0
178690.475,343.749,-642.996,0,0
178950.8,341.602,-652.673,0,0
179211.125,336.711,-661.209,0,0
179471.45,330.382,-667.339,0,0
179731.775,324.872,-671.741,0,0
179992.1,319.912,-676.52,0,0
180252.425,314.358,-681.665,0,0
180512.75,308.089,-686.491,0,0
180773.075,300.938,-691.172,0,0
181033.4,292.688,-694.901,0,0
181293.725,284.037,-697.358,0,0
181554.05,275.961,-698.453,0,0
181814.375,268.991,-700.013,0,0
182074.7,260.727,-702.575,0,0
182335.025,250.651,-704.028,0,0
182595.35,239.64,-703.504,0,0
182855.675,228.866,-700.499,0,0
183116.0,219.698,-695.674,0,0
183376.325,212.507,-690.402,0,0
183636.65,206.478,-685.729,0,0
183896.975,200.443,-681.453,0,0
184157.3,194.491,-676.456,0,0
184417.625,189.665,-670.952,0,0
184677.95,185.787,-666.051,0,0
184938.275,182.097,-661.894,0,0
185198.6,177.813,-658.068,0,0
185458.925,173.109,-653.665,0,0
185719.25,168.695,-648.576,0,0
185979.575,164.698,-642.954,0,0
186239.9,161.586,-636.989,0,0
186500,159.243,-631.337,0,0
186761,157.068,-625.962,0,0
187021,155.182,-620.498,0,0
187281,153.833,-615.094,0,0
187542,153.03,-610.077,0,0
187802,152.407,-605.506,0,0
188062,151.949,-601.41,0,0
188322,151.399,-597.84,0,0
188583,150.557,-594.711,0,0
188843,148.979,-591.929,0,0
189103,146.665,-588.558,0,0
189364,144.354,-584.466,0,0
189624,142.408,-579.962,0,0
189884,140.725,-575.37,0,0
190145,139.191,-570.647,0,0
190405,137.796,-565.742,0,0
190665,136.622,-560.797,0,0
190926,135.488,-555.588,0,0
191186,134.907,-550.078,0,0
191446,134.87,-544.696,0,0
191707,135.161,-539.867,0,0
191967,135.22,-535.33,0,0
192227,135.025,-530.714,0,0
192488,134.798,-525.753,0,0
192748,134.849,-520.448,0,0
193008,135.388,-515.044,0,0
193269,136.335,-509.781,0,0
193529,137.519,-504.758,0,0
193789,138.862,-499.961,0,0
194050,140.131,-495.334,0,0
194310,141.379,-490.608,0,0
194570,142.897,-485.736,0,0
194831,144.819,-480.989,0,0
195091,146.916,-476.625,0,0
195351,148.956,-472.449,0,0
195612,150.994,-468.24,0,0
195872,153.27,-464.252,0,0
196132,155.453,-460.485,0,0
196393,157.515,-456.765,0,0
196653,159.603,-453.009,0,0
196913,161.971,-449.252,0,0
197174,164.418,-445.747,0,0
197434,166.896,-442.412,0,0
197694,169.184,-439.365,0,0
197955,171.252,-436.454,0,0
198215,172.929,-433.43,0,0
198475,174.487,-430.06,0,0
198735,176.205,-426.416,0,0
198996,178.06,-422.754,0,0
199256,179.914,-419.071,0,0
199516,181.756,-415.251,0,0
199777,183.591,-411.087,0,0
200037,185.736,-406.783,0,0
200297,188.165,-402.433,0,0
200558,190.792,-398.056,0,0
200818,193.617,-393.604,0,0
201078,196.512,-389.277,0,0
201339,199.462,-384.76,0,0
201599,202.799,-379.989,0,0
201859,206.393,-375.276,0,0
202120,210.331,-370.567,0,0
202380.025,214.51,-365.875,0,0
202640.35,219.069,-361.228,0,0
202900.675,223.929,-356.748,0,0
203161.0,228.996,-352.408,0,0
203421.325,234.297,-348.21,0,0
203681.65,239.739,-344.114,0,0
203941.975,245.493,-340.039,0,0
204202.3,251.497,-336.175,0,0
204462.625,257.678,-332.218,0,0
204722.95,264.435,-328.348,0,0
204983.275,271.718,-324.659,0,0
205243.6,279.529,-321.39,0,0
205503.925,287.953,-318.708,0,0
205764.25,296.766,-316.996,0,0
206024.575,305.459,-316.403,0,0
206284.9,313.721,-316.681,0,0
206545.225,320.969,-317.413,0,0
206805.55,327.615,-318.087,0,0
207065.875,333.661,-318.594,0,0
207326.2,339.54,-318.607,0,0
207586.525,345.4,-318.24,0,0
207846.85,351.376,-317.59,0,0
208107.175,357.476,-316.435,0,0
208367.5,364.187,-315.015,0,0
208627.825,371.459,-313.222,0,0
208888.15,379.772,-311.332,0,0
209148.475,389.193,-309.699,0,0
209408.8,399.478,-308.843,0,0
209669.125,410.569,-308.676,0,0
209929.45,422.426,-309.483,0,0
210189.775,435.206,-311.14,0,0
210450.1,449.146,-314.73,0,0
210710.425,462.866,-321.38,0,0
210970.75,474.584,-329.856,0,0
211231.075,484.715,-338.737,0,0
211491.4,494.476,-348.025,0,0
211751.725,503.606,-358.748,0,0
212012.05,510.613,-370.694,0,0
212272.375,515.277,-382.191,0,0
212532.7,518.748,-392.418,0,0
212793.025,522.268,-401.723,0,0
213053.35,525.877,-411.198,0,0
213313.675,528.661,-420.824,0,0
213574.0,530.979,-429.916,0,0
213834.325,533.274,-438.761,0,0
214094.65,535.523,-447.727,0,0
214354.975,537.59,-457.048,0,0
214615.3,538.863,-466.735,0,0
214875.625,539.24,-476.274,0,0
215135.95,539.145,-485.34,0,0
215396.275,538.53,-493.985,0,0
215656.6,537.96,-502.113,0,0
215916.925,537.641,-510.088,0,0
216177.25,537.474,-518.182,0,0
216437.575,537.279,-527.185,0,0
216697.9,536.238,-536.766,0,0
216958.225,534.16,-546.422,0,0
217218.55,531.167,-555.818,0,0
217478.875,527.469,-564.716,0,0
217739.2,523.607,-573.273,0,0
217999.525,519.542,-582.11,0,0
218259.85,514.157,-591.471,0,0
218520,506.993,-600.242,0,0
218780,498.479,-607.621,0,0
219041,489.364,-613.323,0,0
219301,480.341,-617.443,0,0
219561,471.409,-620.452,0,0
219822,462.573,-622.357,0,0
220082,454.225,-622.951,0,0
220342,446.745,-622.614,0,0
220603,439.946,-621.716,0,0
220863,433.942,-620.3,0,0
221123,428.479,-618.557,0,0
221384,423.587,-616.383,0,0
221644,419.703,-613.889,0,0
221904,416.666,-611.506,0,0
222165,414.157,-609.354,0,0
222425,412.164,-607.23,0,0
222685,410.753,-605.515,0,0
222946,409.648,-604.284,0,0
223206,408.338,-603.285,0,0
223466,407.251,-602.238,0,0
223727,406.373,-601.456,0,0
223987,405.411,-600.817,0,0
224247,404.363,-600.295,0,0
224508,403.17,-599.494,0,0
224768,402.113,-598.251,0,0
225028,401.47,-596.82,0,0
225289,401.233,-595.077,0,0
225549,401.753,-593.538,0,0
225809,402.813,-592.073,0,0
226070,404.384,-591.049,0,0
226330,406.455,-590.497,0,0
226590,408.576,-590.605,0,0
226851,410.664,-591.165,0,0
227111,412.681,-591.969,0,0
227371,414.854,-592.814,0,0
227632,417.377,-593.984,0,0
227892,420.228,-595.789,0,0
228152,423.007,-598.468,0,0
228413,425.462,-601.698,0,0
228673,427.533,-605.386,0,0
228933,429.314,-609.554,0,0
229193,430.421,-614.126,0,0
229454,430.826,-618.569,0,0
229714,431.1,-622.671,0,0
229974,431.554,-626.703,0,0
230235,432.139,-631.369,0,0
230495,432.564,-636.724,0,0
230755,431.935,-642.505,0,0
231016,430.47,-648.154,0,0
231276,428.541,-653.234,0,0
231536,426.657,-657.949,0,0
231797,424.983,-662.766,0,0
232057,423.145,-667.867,0,0
232317,421.116,-673.193,0,0
232578,418.763,-679.048,0,0
232838,415.741,-685.169,0,0
233098,412.083,-691.377,0,0
233359,407.735,-697.84,0,0
233619,402.2,-704.521,0,0
233879,395.097,-710.585,0,0
234140,387.111,-715.35,0,0
234400,378.838,-718.891,0,0
234660.3,370.545,-721.727,0,0
234920.625,362.233,-723.495,0,0
235180.95,353.747,-724.726,0,0
235441.275,345.45,-724.803,0,0
235701.6,337.647,-724.242,0,0
235961.925,330.286,-723.132,0,0
236222.25,323.169,-721.653,0,0
236482.575,316.75,-719.766,0,0
236742.9,310.631,-717.811,0,0
237003.225,304.561,-716.084,0,0
237263.55,297.926,-713.958,0,0
237523.875,291.178,-710.674,0,0
237784.2,285.278,-706.292,0,0
238044.525,280.435,-701.42,0,0
238304.85,276.541,-696.493,0,0
238565.175,273.458,-691.575,0,0
238825.5,271.211,-686.816,0,0
239085.825,269.682,-682.506,0,0
239346.15,268.776,-678.63,0,0
239606.475,268.353,-675.311,0,0
239866.8,268.417,-672.691,0,0
240127.125,268.484,-671.172,0,0
240387.45,268.024,-670.602,0,0
240647.775,266.788,-670.388,0,0
240908.1,264.908,-670.142,0,0
241168.425,262.573,-669.821,0,0
241428.75,259.736,-669.46,0,0
241689.075,256.198,-668.696,0,0
241949.4,252.301,-667.227,0,0
242209.725,248.39,-664.95,0,0
242470.05,244.747,-662.005,0,0
242730.375,241.539,-658.498,0,0
242990.7,238.902,-654.634,0,0
243251.025,236.835,-650.695,0,0
243511.35,235.154,-646.748,0,0
243771.675,233.746,-642.65,0,0
244032.0,232.995,-638.227,0,0
244292.325,233.226,-633.941,0,0
244552.65,234.274,-630.244,0,0
244812.975,235.661,-627.61,0,0
245073.3,236.979,-625.991,0,0
245333.625,237.801,-624.856,0,0
245593.95,237.93,-623.992,0,0
245854.275,237.826,-623.123,0,0
246114.6,237.314,-622.39,0,0
246374.925,236.275,-621.539,0,0
246635.25,235.016,-620.271,0,0
246895.575,233.701,-618.589,0,0
247155.9,232.64,-616.643,0,0
247416.225,231.679,-614.671,0,0
247676.55,230.797,-612.59,0,0
247936.875,229.911,-610.484,0,0
248197.2,229.01,-608.196,0,0
248457.525,228.164,-605.643,0,0
248717.85,227.597,-602.823,0,0
248978.175,227.408,-599.972,0,0
249238.5,227.407,-597.107,0,0
249498.825,227.583,-594.251,0,0
249759.15,228.049,-591.416,0,0
250019.475,228.816,-588.508,0,0
250279.8,229.752,-585.79,0,0
250540,230.832,-583.121,0,0
250800,232.307,-580.523,0,0
251061,234.031,-578.136,0,0
251321,235.847,-576.079,0,0
251581,237.664,-574.127,0,0
251842,239.679,-572.103,0,0
252102,242.103,-570.206,0,0
252362,244.913,-568.741,0,0
252623,247.846,-567.762,0,0
252883,250.829,-567.249,0,0
253143,253.792,-567.164,0,0
253404,256.598,-567.515,0,0
253664,259.248,-568.224,0,0
253924,261.748,-569.292,0,0
254185,263.893,-570.71,0,0
254445,265.787,-572.355,0,0
254705,267.2,-574.17,0,0
254966,268.368,-576.098,0,0
255226,269.242,-577.949,0,0
255486,269.91,-580.012,0,0
255747,270.177,-582.192,0,0
256007,269.96,-584.228,0,0
256267,269.468,-586.075,0,0
256528,268.763,-587.696,0,0
256788,267.898,-589.226,0,0
257048,266.774,-590.56,0,0
257309,265.421,-591.62,0,0
257569,263.997,-592.287,0,0
257829,262.649,-592.615,0,0
258090,261.463,-592.706,0,0
258350,260.467,-592.624,0,0
258610,259.741,-592.513,0,0
258871,259.136,-592.55,0,0
259131,258.556,-592.689,0,0
259391,257.933,-592.871,0,0
259651,257.211,-593.115,0,0
259912,256.338,-593.435,0,0
260172,255.23,-593.561,0,0
260432,253.973,-593.438,0,0
260693,252.745,-593.024,0,0
260953,251.722,-592.394,0,0
261213,250.821,-591.59,0,0
261474,250.061,-590.653,0,0
261734,249.481,-589.592,0,0
261994,249.103,-588.37,0,0
262255,249.054,-587.04,0,0
262515,249.425,-585.73,0,0
262775,250.146,-584.612,0,0
263036,251.127,-583.723,0,0
263296,252.33,-583.2,0,0
263556,253.629,-583.037,0,0
263817,254.877,-583.236,0,0
264077,256.063,-583.671,0,0
264337,257.135,-584.383,0,0
264598,258.015,-585.316,0,0
264858,258.672,-586.519,0,0
265118,259.089,-587.584,0,0
265379,259.352,-588.749,0,0
265639,259.493,-589.864,0,0
265899,259.512,-590.899,0,0
266160,259.592,-591.933,0,0
266420,259.744,-592.994,0,0
266680.25,259.931,-594.273,0,0
266940.575,260.023,-595.822,0,0
267200.9,259.857,-597.631,0,0
267461.225,259.261,-599.558,0,0
267721.55,258.298,-601.408,0,0
267981.875,256.973,-603.133,0,0
268242.2,255.261,-604.548,0,0
268502.525,253.427,-605.507,0,0
268762.85,251.696,-606.112,0,0
269023.175,250.005,-606.497,0,0
269283.5,248.291,-606.637,0,0
269543.825,246.71,-606.428,0,0
269804.15,245.238,-605.877,0,0
270064.475,244.288,-604.942,0,0
270324.8,243.916,-603.928,0,0
270585.125,244.103,-603.016,0,0
270845.45,244.61,-602.445,0,0
271105.775,245.441,-602.021,0,0
271366.1,246.881,-601.824,0,0
271626.425,248.775,-602.194,0,0
271886.75,251.139,-603.348,0,0
272147.075,253.583,-605.594,0,0
272407.4,255.744,-608.992,0,0
272667.725,257.11,-613.354,0,0
272928.05,257.422,-618.261,0,0
273188.375,256.875,-623.367,0,0
273448.7,255.458,-628.609,0,0
273709.025,253.291,-633.913,0,0
273969.35,250.121,-639.099,0,0
274229.675,246.105,-643.936,0,0
274490.0,241.452,-648.309,0,0
274750.325,236.207,-652.335,0,0
275010.65,230.253,-655.888,0,0
275270.975,223.639,-658.835,0,0
275531.3,216.484,-660.805,0,0
275791.625,209.047,-661.825,0,0
276051.95,201.62,-661.924,0,0
276312.275,194.226,-661.247,0,0
276572.6,186.937,-659.68,0,0
276832.925,179.964,-657.243,0,0
277093.25,173.455,-654.089,0,0
277353.575,167.593,-650.3,0,0
277613.9,162.342,-646.144,0,0
277874.225,157.692,-641.722,0,0
278134.55,153.544,-637.1,0,0
278394.875,149.98,-632.262,0,0
278655.2,147.038,-627.33,0,0
278915.525,144.711,-622.454,0,0
279175.85,142.908,-617.799,0,0
279436.175,141.43,-613.422,0,0
279696.5,140.164,-609.243,0,0
279956.825,139.048,-605.114,0,0
280217.15,138.22,-601.081,0,0
280477.475,137.735,-597.145,0,0
280737.8,137.662,-593.497,0,0
280998.125,137.747,-590.339,0,0
281258.45,137.714,-587.595,0,0
281518.775,137.469,-585.024,0,0
281779.1,137.057,-582.489,0,0
282039.425,136.588,-579.962,0,0
282299.75,136.026,-577.396,0,0
282560,135.325,-574.9,0,0
282820,134.667,-572.046,0,0
283081,133.972,-569.146,0,0
283341,133.346,-565.794,0,0
283601,133.191,-562.4,0,0
283862,133.209,-558.951,0,0
284122,133.638,-555.573,0,0
284382,134.357,-552.163,0,0
284643,135.324,-549.073,0,0
284903,136.526,-546.013,0,0
285163,137.972,-543.327,0,0
285424,139.515,-540.937,0,0
285684,141.024,-538.761,0,0
285944,142.592,-536.792,0,0
286205,144.136,-535.223,0,0
286465,145.594,-533.767,0,0
286725,146.946,-532.563,0,0
286986,148.279,-531.492,0,0
287246,149.37,-530.549,0,0
287506,150.336,-529.79,0,0
287767,150.964,-529.064,0,0
288027,151.419,-528.237,0,0
288287,151.694,-527.319,0,0
288548,151.866,-526.212,0,0
288808,151.998,-524.988,0,0
289068,152.113,-523.596,0,0
289329,152.335,-522.078,0,0
289589,152.5,-520.533,0,0
289849,152.691,-518.823,0,0
290109,153.062,-516.824,0,0
290370,153.514,-514.745,0,0
290630,154.318,-512.657,0,0
290890,155.383,-510.549,0,0
291151,156.725,-508.579,0,0
291411,158.067,-506.85,0,0
291671,159.388,-505.231,0,0
291932,160.776,-503.716,0,0
292192,162.162,-502.255,0,0
292452,163.659,-500.842,0,0
292713,165.086,-499.398,0,0
292973,166.606,-498.014,0,0
293233,168.119,-496.678,0,0
293494,169.734,-495.363,0,0
293754,171.484,-494.125,0,0
294014,173.186,-492.935,0,0
294275,174.875,-491.803,0,0
294535,176.698,-490.652,0,0
294795,178.589,-489.533,0,0
295056,180.539,-488.445,0,0
295316,182.704,-487.399,0,0
295576,184.892,-486.498,0,0
295837,187.174,-485.629,0,0
296097,189.482,-484.934,0,0
296357,191.798,-484.3,0,0
296618,194.236,-483.689,0,0
296878,196.782,-483.131,0,0
297138,199.5,-482.628,0,0
297399,202.231,-482.292,0,0
297659,205.184,-482.183,0,0
297919,208.196,-482.246,0,0
298180,211.241,-482.565,0,0
298440,214.215,-483.067,0,0
298700.2,217.11,-483.598,0,0
298960.525,220.061,-484.226,0,0
299220.85,223.161,-484.937,0,0
299481.175,226.362,-485.743,0,0
299741.5,229.747,-486.72,0,0
300001.825,233.256,-488.061,0,0
300262.15,236.867,-489.66,0,0
300522.475,240.537,-491.567,0,0
300782.8,244.297,-493.79,0,0
301043.125,248.049,-496.384,0,0
301303.45,251.994,-499.518,0,0
301563.775,255.693,-503.199,0,0
301824.1,259.347,-507.492,0,0
302084.425,262.579,-512.365,0,0
302344.75,265.52,-517.894,0,0
302605.075,267.754,-523.906,0,0
302865.4,269.2,-530.149,0,0
303125.725,269.937,-536.66,0,0
303386.05,269.88,-543.242,0,0
303646.375,269.067,-549.693,0,0
303906.7,267.587,-555.915,0,0
304167.025,265.553,-561.729,0,0
304427.35,263.127,-567.221,0,0
304687.675,260.441,-572.383,0,0
304948.0,257.477,-577.275,0,0
305208.325,254.225,-581.991,0,0
305468.65,250.592,-586.492,0,0
305728.975,246.605,-590.701,0,0
305989.3,242.286,-594.517,0,0
306249.625,237.708,-597.825,0,0
306509.95,233.012,-600.67,0,0
306770.275,228.246,-603.075,0,0
307030.6,223.523,-605.075,0,0
307290.925,218.831,-606.776,0,0
307551.25,214.167,-608.178,0,0
307811.575,209.523,-609.338,0,0
308071.9,204.877,-610.241,0,0
308332.225,200.212,-610.858,0,0
308592.55,195.548,-611.166,0,0
308852.875,190.913,-611.108,0,0
309113.2,186.399,-610.705,0,0
309373.525,182.058,-609.96,0,0
309633.85,177.979,-608.894,0,0
309894.175,174.209,-607.618,0,0
310154.5,170.736,-606.222,0,0
310414.825,167.594,-604.767,0,0
310675.15,164.672,-603.356,0,0
310935.475,161.912,-601.959,0,0
311195.8,159.295,-600.629,0,0
311456.125,156.784,-599.313,0,0
311716.45,154.332,-598.023,0,0
311976.775,151.955,-596.758,0,0
312237.1,149.605,-595.517,0,0
312497.425,147.271,-594.264,0,0
312757.75,144.896,-592.953,0,0
313018.075,142.544,-591.574,0,0
313278.4,140.225,-590.09,0,0
313538.725,137.987,-588.492,0,0
313799.05,135.841,-586.824,0,0
314059.375,133.778,-585.064,0,0
314319.7,131.802,-583.223,0,0
314580,129.951,-581.309,0,0
314840,128.245,-579.321,0,0
315101,126.736,-577.296,0,0
315361,125.347,-575.279,0,0
315621,124.103,-573.262,0,0
315882,122.998,-571.284,0,0
316142,122.037,-569.362,0,0
316402,121.211,-567.518,0,0
316663,120.492,-565.765,0,0
316923,119.79,-564.149,0,0
317183,119.088,-562.561,0,0
317444,118.398,-561.017,0,0
317704,117.743,-559.461,0,0
317964,117.17,-557.951,0,0
318225,116.644,-556.497,0,0
318485,116.151,-555.089,0,0
318745,115.66,-553.726,0,0
319006,115.222,-552.339,0,0
319266,114.843,-551.055,0,0
319526,114.498,-549.812,0,0
319787,114.18,-548.612,0,0
320047,113.861,-547.474,0,0
320307,113.552,-546.368,0,0
320567,113.253,-545.31,0,0
320828,112.955,-544.3,0,0
321088,112.657,-543.336,0,0
321348,112.341,-542.41,0,0
321609,112,-541.486,0,0
321869,111.686,-540.594,0,0
322129,111.381,-539.696,0,0
322390,111.07,-538.837,0,0
322650,110.774,-538.013,0,0
322910,110.452,-537.229,0,0
323171,110.12,-536.473,0,0
323431,109.761,-535.743,0,0
323691,109.355,-535.001,0,0
323952,108.956,-534.241,0,0
324212,108.55,-533.462,0,0
324472,108.14,-532.7,0,0
324733,107.753,-531.864,0,0
324993,107.406,-531.056,0,0
325253,107.058,-530.23,0,0
325514,106.799,-529.401,0,0
325774,106.624,-528.613,0,0
326034,106.486,-527.918,0,0
326295,106.344,-527.268,0,0
326555,106.21,-526.726,0,0
326815,106.063,-526.219,0,0
327076,105.893,-525.808,0,0
327336,105.66,-525.443,0,0
327596,105.376,-525.145,0,0
327857,105.032,-524.845,0,0
328117,104.633,-524.575,0,0
328377,104.155,-524.305,0,0
328638,103.639,-524.028,0,0
328898,103.062,-523.731,0,0
329158,102.477,-523.422,0,0
329419,101.845,-523.077,0,0
329679,101.195,-522.718,0,0
329939,100.549,-522.386,0,0
330200,99.8689,-521.994,0,0
330460,99.2064,-521.661,0,0
330720.15,98.5024,-521.301,0,0
330980.475,97.7765,-520.97,0,0
331240.8,96.976,-520.604,0,0
331501.125,96.1688,-520.283,0,0
331761.45,95.243,-519.965,0,0
332021.775,94.2841,-519.547,0,0
332282.1,93.2855,-519.083,0,0
332542.425,92.3196,-518.612,0,0
332802.75,91.2211,-518.103,0,0
333063.075,90.122,-517.51,0,0
333323.4,89.0595,-516.84,0,0
333583.725,87.9044,-516.09,0,0
333844.05,86.8736,-515.335,0,0
334104.375,85.7903,-514.448,0,0
334364.7,84.7301,-513.611,0,0
334625.025,83.7122,-512.706,0,0
334885.35,82.7362,-511.707,0,0
335145.675,81.6933,-510.775,0,0
335406.0,80.7507,-509.784,0,0
335666.325,79.7803,-508.691,0,0
335926.65,78.7811,-507.591,0,0
336186.975,77.8806,-506.521,0,0
336447.3,76.9718,-505.365,0,0
336707.625,76.0774,-504.192,0,0
336967.95,75.2526,-502.962,0,0
337228.275,74.4024,-501.715,0,0
337488.6,73.6764,-500.452,0,0
337748.925,72.9219,-499.105,0,0
338009.25,72.2123,-497.875,0,0
338269.575,71.6152,-496.605,0,0
338529.9,70.9442,-495.274,0,0
338790.225,70.3936,-493.944,0,0
339050.55,69.7707,-492.632,0,0
339310.875,69.1889,-491.348,0,0
339571.2,68.6771,-490.042,0,0
339831.525,68.214,-488.72,0,0
340091.85,67.6668,-487.395,0,0
340352.175,67.1866,-486.024,0,0
340612.5,66.7624,-484.708,0,0
340872.825,66.2809,-483.329,0,0
341133.15,65.8954,-481.93,0,0
341393.475,65.5417,-480.535,0,0
341653.8,65.1979,-479.096,0,0
341914.125,64.9424,-477.657,0,0
342174.45,64.716,-476.219,0,0
342434.775,64.5764,-474.822,0,0
342695.1,64.4512,-473.362,0,0
342955.425,64.297,-472.012,0,0
343215.75,64.2569,-470.569,0,0
343476.075,64.2563,-469.186,0,0
343736.4,64.3301,-467.828,0,0
343996.725,64.4057,-466.54,0,0
344257.05,64.5681,-465.247,0,0
344517.375,64.7158,-463.991,0,0
344777.7,64.952,-462.806,0,0
345038.025,65.2039,-461.71,0,0
345298.35,65.4513,-460.631,0,0
345558.675,65.6497,-459.661,0,0
345819.0,65.9296,-458.695,0,0
346079.325,66.1408,-457.858,0,0
346339.65,66.3037,-457.096,0,0
346599.975,66.405,-456.3,0,0
346860,66.4477,-455.585,0,0
347121,66.4618,-454.821,0,0
347381,66.3911,-454.129,0,0
347641,66.2388,-453.416,0,0
347902,66.0531,-452.656,0,0
348162,65.8285,-451.843,0,0
348422,65.6395,-450.935,0,0
348683,65.3792,-450.06,0,0
348943,65.1077,-449.048,0,0
349203,64.8749,-448.027,0,0
349464,64.6772,-446.961,0,0
349724,64.4599,-445.86,0,0
349984,64.3825,-444.823,0,0
350245,64.2255,-443.738,0,0
350505,64.0418,-442.596,0,0
350765,63.9108,-441.426,0,0
351025,63.7599,-440.201,0,0
351286,63.7071,-438.895,0,0
351546,63.741,-437.616,0,0
351806,63.8652,-436.263,0,0
352067,64.0483,-434.966,0,0
352327,64.3208,-433.664,0,0
352587,64.6177,-432.473,0,0
352848,64.9887,-431.232,0,0
353108,65.3405,-430.147,0,0
353368,65.775,-429.001,0,0
353629,66.2033,-427.95,0,0
353889,66.6928,-426.964,0,0
354149,67.1991,-425.965,0,0
354410,67.6799,-425.065,0,0
354670,68.2165,-424.21,0,0
354930,68.7177,-423.376,0,0
355191,69.2621,-422.658,0,0
355451,69.8132,-421.983,0,0
355711,70.3281,-421.417,0,0
355972,70.7253,-420.954,0,0
356232,71.1591,-420.494,0,0
356492,71.4433,-420.092,0,0
356753,71.6232,-419.75,0,0
357013,71.7444,-419.366,0,0
357273,71.8443,-418.98,0,0
357534,71.7066,-418.628,0,0
357794,71.5841,-418.122,0,0
358054,71.3618,-417.573,0,0
358315,71.0765,-416.935,0,0
358575,70.8348,-416.209,0,0
358835,70.5399,-415.369,0,0
359096,70.3385,-414.45,0,0
359356,70.0735,-413.408,0,0
359616,69.9658,-412.361,0,0
359877,69.8562,-411.247,0,0
360137,69.8537,-410.126,0,0
360397,69.8941,-408.934,0,0
360658,69.9213,-407.769,0,0
360918,70.1118,-406.551,0,0
361178,70.3247,-405.327,0,0
361438,70.6411,-404.137,0,0
361699,71.0034,-402.947,0,0
361959,71.3819,-401.804,0,0
362219,71.7974,-400.68,0,0
362480,72.3114,-399.659,0,0
362740.1,72.7556,-398.576,0,0
363000.425,73.2357,-397.541,0,0
363260.75,73.7871,-396.544,0,0
363521.075,74.3526,-395.513,0,0
363781.4,74.9693,-394.514,0,0
364041.725,75.5629,-393.551,0,0
364302.05,76.2848,-392.631,0,0
364562.375,76.9943,-391.742,0,0
364822.7,77.6809,-390.832,0,0
365083.025,78.4956,-390.036,0,0
365343.35,79.3126,-389.283,0,0
365603.675,80.1564,-388.654,0,0
365864.0,80.921,-388.054,0,0
366124.325,81.6749,-387.558,0,0
366384.65,82.3794,-387.023,0,0
366644.975,83.024,-386.564,0,0
366905.3,83.688,-386.032,0,0
367165.625,84.3429,-385.535,0,0
367425.95,85.0618,-385.056,0,0
367686.275,85.7516,-384.623,0,0
367946.6,86.435,-384.223,0,0
368206.925,87.1118,-383.883,0,0
368467.25,87.7538,-383.528,0,0
368727.575,88.4015,-383.24,0,0
368987.9,89.0796,-382.968,0,0
369248.225,89.6822,-382.76,0,0
369508.55,90.3058,-382.613,0,0
369768.875,90.8667,-382.514,0,0
370029.2,91.3861,-382.484,0,0
370289.525,91.8394,-382.519,0,0
370549.85,92.1358,-382.529,0,0
370810.175,92.3844,-382.583,0,0
371070.5,92.4747,-382.66,0,0
371330.825,92.4563,-382.576,0,0
371591.15,92.3475,-382.415,0,0
371851.475,92.2185,-382.135,0,0
372111.8,92.1045,-381.709,0,0
372372.125,92.0134,-381.241,0,0
372632.45,91.9843,-380.704,0,0
372892.775,91.9573,-380.062,0,0
373153.1,92.0356,-379.456,0,0
373413.425,92.1617,-378.764,0,0
373673.75,92.3702,-378.07,0,0
373934.075,92.62,-377.382,0,0
374194.4,92.9297,-376.688,0,0
374454.725,93.2723,-376.024,0,0
374715.05,93.6764,-375.445,0,0
374975.375,94.1098,-374.89,0,0
375235.7,94.4387,-374.364,0,0
375496.025,94.9166,-373.914,0,0
375756.35,95.3142,-373.453,0,0
376016.675,95.6648,-373.064,0,0
376277.0,96.0091,-372.675,0,0
376537.325,96.2833,-372.308,0,0
376797.65,96.5391,-371.954,0,0
377057.975,96.6916,-371.561,0,0
377318.3,96.8784,-371.085,0,0
377578.625,97.0248,-370.564,0,0
377838.95,97.1867,-369.986,0,0
378099.275,97.3837,-369.352,0,0
378359.6,97.5879,-368.715,0,0
378619.925,97.8996,-368.004,0,0
378880,98.2394,-367.318,0,0
379141,98.6487,-366.635,0,0
379401,99.0224,-366.036,0,0
379661,99.4987,-365.46,0,0
379922,99.9219,-364.904,0,0
380182,100.346,-364.332,0,0
380442,100.746,-363.779,0,0
380703,101.163,-363.244,0,0
380963,101.562,-362.628,0,0
381223,102.026,-362.019,0,0
381483,102.495,-361.425,0,0
381744,102.953,-360.835,0,0
382004,103.473,-360.262,0,0
382264,103.994,-359.67,0,0
382525,104.55,-359.099,0,0
382785,105.102,-358.529,0,0
383045,105.672,-357.997,0,0
383306,106.269,-357.518,0,0
383566,106.821,-357.053,0,0
383826,107.405,-356.58,0,0
384087,107.968,-356.077,0,0
384347,108.512,-355.618,0,0
384607,109.053,-355.126,0,0
384868,109.679,-354.673,0,0
385128,110.28,-354.23,0,0
385388,110.89,-353.821,0,0
385649,111.466,-353.404,0,0
385909,112.065,-353.027,0,0
386169,112.62,-352.63,0,0
386430,113.171,-352.211,0,0
386690,113.704,-351.846,0,0
386950,114.19,-351.442,0,0
387211,114.683,-351.03,0,0
387471,115.085,-350.55,0,0
387731,115.479,-349.981,0,0
387992,115.938,-349.299,0,0
388252,116.47,-348.536,0,0
388512,117.156,-347.74,0,0
388773,117.972,-346.96,0,0
389033,118.875,-346.186,0,0
389293,119.864,-345.502,0,0
389554,120.955,-344.956,0,0
389814,122.046,-344.43,0,0
390074,123.115,-343.974,0,0
390335,124.247,-343.622,0,0
390595,125.297,-343.212,0,0
390855,126.391,-342.877,0,0
391116,127.541,-342.629,0,0
391376,128.711,-342.398,0,0
391636,129.835,-342.271,0,0
391896,130.969,-342.167,0,0
392157,132.036,-342.146,0,0
392417,133.092,-342.148,0,0
392677,134.087,-342.12,0,0
392938,135.033,-342.155,0,0
393198,135.949,-342.17,0,0
393458,136.85,-342.213,0,0
393719,137.649,-342.132,0,0
393979,138.436,-342.02,0,0
394239,139.297,-341.833,0,0
394500,140.195,-341.608,0,0
394760.05,141.137,-341.306,0,0
395020.375,142.186,-340.985,0,0
395280.7,143.336,-340.651,0,0
395541.025,144.562,-340.354,0,0
395801.35,145.825,-340.031,0,0
396061.675,147.235,-339.805,0,0
396322.0,148.722,-339.492,0,0
396582.325,150.339,-339.305,0,0
396842.65,152.042,-339.146,0,0
397102.975,153.892,-339.041,0,0
397363.3,155.886,-339.039,0,0
397623.625,157.986,-339.168,0,0
397883.95,160.224,-339.474,0,0
398144.275,162.549,-339.94,0,0
398404.6,164.989,-340.663,0,0
398664.925,167.523,-341.587,0,0
398925.25,170.077,-342.833,0,0
399185.575,172.625,-344.429,0,0
399445.9,175.099,-346.342,0,0
399706.225,177.4,-348.554,0,0
399966.55,179.514,-351.079,0,0
400006.6,179.786,-351.473,0,0