File: Accelerated corrosion test data/2025-10-22_18-00-04/sample_3.csv
Frequency (Hz),Impedance (ohms),Phase (Radians),Temperature (C),Humidity (%)
10000.0,253.759,-11884.6,0,0
10260.325,247.377,-11585.2,0,0
10520.65,241.536,-11300.2,0,0
10780.975,237.82,-11027.8,0,0
11041.3,231.169,-10773.6,0,0
11301.625,225.49,-10526.8,0,0
11561.95,221.428,-10291,0,0
11822.275,216.637,-10066,0,0
12082.6,213.492,-9850.37,0,0
12342.925,212.512,-9643.78,0,0
12603.25,204.271,-9447.77,0,0
12863.575,201.125,-9255.89,0,0
13123.9,201.194,-9071.36,0,0
13384.225,194.644,-8902.25,0,0
13644.55,191.772,-8731.77,0,0
13904.875,187.753,-8567.44,0,0
14165.2,186.539,-8411.66,0,0
14425.525,181.701,-8258.5,0,0
14685.8,180.133,-8112.99,0,0
14946.175,177.458,-7971.84,0,0
15206.5,175.516,-7829.62,0,0
15466.825,188.752,-7691.76,0,0
15727.15,191.935,-7590.37,0,0
15987.5,172.341,-7475.62,0,0
16247.8,168.975,-7346.16,0,0
16508.125,162.779,-7231.57,0,0
16768.45,172.398,-7112.48,0,0
17028.775,158.523,-7011.34,0,0
17289.1,164.992,-6898.48,0,0
17549.425,156.903,-6804.76,0,0
17809.75,157.85,-6699.35,0,0
18070.075,162.285,-6615,0,0
18330.4,153.37,-6517.37,0,0
18590.725,149.392,-6426.27,0,0
18851.05,146.933,-6334.15,0,0
19111.375,146.665,-6246.19,0,0
19371.7,145.915,-6159.68,0,0
19632.025,148.704,-6074.7,0,0
19892.35,149.95,-6001.13,0,0
20152.675,149.148,-5915.58,0,0
20413.0,166.962,-5843,0,0
20673.3,162.269,-5779.04,0,0
20933.65,164.617,-5719.37,0,0
21193.975,161.696,-5654.82,0,0
21454.3,145.918,-5593.41,0,0
21714.625,140.172,-5517.35,0,0
21974.9,145.415,-5451.59,0,0
22235.275,139.297,-5392.15,0,0
22495.6,137.612,-5330.35,0,0
22755.925,129.986,-5269.52,0,0
23016.25,128.976,-5209.76,0,0
23276.6,129.414,-5147.15,0,0
23536.9,129.53,-5101.16,0,0
23797.225,122.114,-5041.78,0,0
24057.55,119.963,-4983.92,0,0
24317.875,120.351,-4928.59,0,0
24578.2,117.12,-4878.56,0,0
24838.525,118.648,-4824.66,0,0
25098.85,116.13,-4776.74,0,0
25359.175,114.337,-4726.45,0,0
25619.5,114.477,-4678.36,0,0
25879.8,111.804,-4632.11,0,0
26140.1,109.196,-4584.12,0,0
26400.5,108.749,-4536.65,0,0
26660.8,108.584,-4490.55,0,0
26921.1,109.354,-4446.73,0,0
27181.4,109.641,-4405.89,0,0
27441.8,108.067,-4362.07,0,0
27702.1,108.929,-4322.59,0,0
27962.4,105.833,-4281.07,0,0
28222.7,104.354,-4237.32,0,0
28483.1,112.453,-4195.02,0,0
28743.4,115.392,-4160.52,0,0
29003.7,116.779,-4133.42,0,0
29264,108.974,-4096.99,0,0
29524.4,108.943,-4059.78,0,0
29784.7,105.02,-4024.45,0,0
30045,103.064,-3990.53,0,0
30305.3,102.108,-3952.83,0,0
30565.7,102.533,-3918.94,0,0
30826,102.27,-3886.26,0,0
31086.3,103.147,-3853.06,0,0
31346.6,99.6188,-3823.03,0,0
31607,98.5159,-3788.3,0,0
31867.3,99.2679,-3754.11,0,0
32127.6,102.732,-3720.24,0,0
32387.9,112.254,-3692.78,0,0
32648.3,114.362,-3675.62,0,0
32908.6,104.682,-3650.67,0,0
33168.9,101.54,-3623.33,0,0
33429.2,99.6113,-3596.22,0,0
33689.6,93.1799,-3567.84,0,0
33949.9,91.3041,-3537.18,0,0
34210.2,91.4079,-3509.06,0,0
34470.5,90.6498,-3483.38,0,0
34730.9,88.1299,-3456.65,0,0
34991.2,86.8183,-3429.55,0,0
35251.5,86.2783,-3403.24,0,0
35511.8,85.6674,-3377.98,0,0
35772.2,84.6177,-3352.72,0,0
36032.5,83.8534,-3327.55,0,0
36292.8,83.1848,-3302.9,0,0
36553.1,82.8983,-3278.87,0,0
36813.5,81.9774,-3255.49,0,0
37073.8,81.1138,-3232.01,0,0
37334.1,80.6927,-3208.78,0,0
37594.4,80.365,-3185.87,0,0
37854.8,79.7191,-3163.67,0,0
38115.1,79.3394,-3141.36,0,0
38375.4,78.6502,-3119.6,0,0
38635.7,78.5324,-3098.05,0,0
38896.1,77.8673,-3076.65,0,0
39156.4,77.7974,-3055.58,0,0
39416.7,77.4995,-3035,0,0
39677,76.6846,-3014.76,0,0
39937.4,76.1122,-2994.65,0,0
40197.7,75.8961,-2974.69,0,0
40458,75.1844,-2954.89,0,0
40718.3,75.1121,-2935.16,0,0
40978.7,74.8228,-2916.02,0,0
41239,74.6408,-2896.59,0,0
41499.3,74.8179,-2878.22,0,0
41759.6,74.8324,-2859.75,0,0
42020,74.4108,-2842.16,0,0
42280.275,73.9415,-2824.12,0,0
42540.6,73.6183,-2806.17,0,0
42800.925,73.5796,-2788.95,0,0
43061.25,72.9872,-2772,0,0
43321.575,72.3253,-2754.34,0,0
43581.9,72.3401,-2737.11,0,0
43842.225,72.2052,-2720.38,0,0
44102.55,72.4221,-2703.64,0,0
44362.875,72.2832,-2687.81,0,0
44623.2,71.79,-2671.71,0,0
44883.525,71.5019,-2655.54,0,0
45143.85,71.4738,-2640.07,0,0
45404.175,71.0456,-2624.49,0,0
45664.5,70.2344,-2608.77,0,0
45924.825,71.3672,-2593.21,0,0
46185.15,70.6605,-2578.96,0,0
46445.475,69.9954,-2563.52,0,0
46705.8,70.0078,-2548.23,0,0
46966.125,70.4955,-2534.07,0,0
47226.45,69.9334,-2519.49,0,0
47486.775,69.9183,-2504.96,0,0
47747.1,70.6072,-2490.67,0,0
48007.425,70.5865,-2477.69,0,0
48267.75,70.6573,-2464.12,0,0
48528.075,69.9597,-2450.93,0,0
48788.4,69.5552,-2437.93,0,0
49048.725,68.7847,-2424.46,0,0
49309.05,68.2108,-2411.12,0,0
49569.375,68.1325,-2397.51,0,0
49829.7,67.9623,-2384.96,0,0
50090.025,67.3478,-2372.06,0,0
50350.35,66.7401,-2358.94,0,0
50610.675,66.4899,-2345.85,0,0
50871.0,66.5353,-2333.17,0,0
51131.325,66.4101,-2320.55,0,0
51391.65,66.2052,-2307.94,0,0
51651.975,66.3003,-2295.68,0,0
51912.3,66.2466,-2283.54,0,0
52172.625,66.1105,-2271.45,0,0
52432.95,66.0417,-2259.42,0,0
52693.275,66.3132,-2247.27,0,0
52953.6,66.4795,-2235.64,0,0
53213.925,67.1118,-2223.73,0,0
53474.25,67.9252,-2212.73,0,0
53734.575,68.1962,-2201.89,0,0
53994.9,68.2829,-2190.76,0,0
54255.225,69.3008,-2180.09,0,0
54515.55,70.1133,-2170.62,0,0
54775.875,69.4533,-2161.42,0,0
55036.2,68.7659,-2151.32,0,0
55296.525,68.3022,-2141.82,0,0
55556.85,66.8276,-2131.96,0,0
55817.175,65.363,-2121.5,0,0
56077.5,64.4211,-2110.81,0,0
56337.825,63.4625,-2100.21,0,0
56598.15,62.7011,-2089.69,0,0
56858.475,61.991,-2078.97,0,0
57118.8,61.4138,-2068.02,0,0
57379.125,61.2381,-2057.44,0,0
57639.45,61.1708,-2046.83,0,0
57899.775,61.3366,-2036.5,0,0
58160.1,61.2955,-2026.46,0,0
58420.4,61.1698,-2016.43,0,0
58680.7,61.1101,-2006.44,0,0
58941.1,61.3184,-1996.58,0,0
59201.4,61.4402,-1986.57,0,0
59461.7,61.7116,-1976.92,0,0
59722,61.9295,-1967.34,0,0
59982.4,62.3071,-1957.85,0,0
60242.7,62.5351,-1948.46,0,0
60503,62.8017,-1939.16,0,0
60763.3,63.0585,-1929.95,0,0
61023.7,63.4232,-1920.75,0,0
61284,63.8469,-1911.68,0,0
61544.3,64.1672,-1902.36,0,0
61804.6,64.7254,-1893.81,0,0
62065,64.9131,-1884.58,0,0
62325.3,65.6042,-1875.59,0,0
62585.6,66.3365,-1867.03,0,0
62845.9,66.5302,-1858.23,0,0
63106.3,67.4336,-1848.93,0,0
63366.6,68.9315,-1840.25,0,0
63626.9,70.0024,-1831.72,0,0
63887.2,71.1961,-1823.26,0,0
64147.6,72.4439,-1814.52,0,0
64407.9,75.0769,-1805.86,0,0
64668.2,77.7873,-1798.32,0,0
64928.5,80.571,-1790.9,0,0
65188.9,84.4311,-1784.87,0,0
65449.2,87.2894,-1779.82,0,0
65709.5,89.5067,-1776.49,0,0
65969.8,91.8502,-1773.35,0,0
66230.2,91.5221,-1772.78,0,0
66490.5,85.678,-1771.37,0,0
66750.8,80.4179,-1763.61,0,0
67011.1,77.8071,-1754.95,0,0
67271.5,75.7948,-1746.88,0,0
67531.8,75.075,-1738.35,0,0
67792.1,74.8871,-1729.96,0,0
68052.4,75.1385,-1722.21,0,0
68312.8,76.2993,-1715.26,0,0
68573.1,76.1711,-1708.98,0,0
68833.4,76.5178,-1702.16,0,0
69093.7,77.3723,-1695.94,0,0
69354.1,77.6921,-1690.46,0,0
69614.4,77.3268,-1685,0,0
69874.7,76.8864,-1679.51,0,0
70135,75.8466,-1673.92,0,0
70395.4,75.0598,-1667.75,0,0
70655.7,74.0193,-1662,0,0
70916,72.7641,-1655.77,0,0
71176.3,71.4788,-1649.34,0,0
71436.7,70.6611,-1642.32,0,0
71697,70.1043,-1635.44,0,0
71957.3,70.0471,-1628.48,0,0
72217.6,70.3461,-1622.15,0,0
72478,70.489,-1616.19,0,0
72738.3,70.6449,-1610.44,0,0
72998.6,70.296,-1604.93,0,0
73258.9,69.7771,-1599.22,0,0
73519.3,69.4034,-1593.53,0,0
73779.6,69.0848,-1587.92,0,0
74039.9,68.3984,-1582.48,0,0
74300.225,67.6913,-1576.92,0,0
74560.55,66.9281,-1571.21,0,0
74820.875,66.1394,-1565.58,0,0
75081.2,65.3823,-1559.78,0,0
75341.525,64.6113,-1554.11,0,0
75601.85,63.823,-1548.29,0,0
75862.175,63.017,-1542.46,0,0
76122.5,62.2883,-1536.54,0,0
76382.825,61.6621,-1530.73,0,0
76643.15,61.0044,-1524.83,0,0
76903.475,60.4334,-1518.96,0,0
77163.8,59.9433,-1513.18,0,0
77424.125,59.436,-1507.35,0,0
77684.45,58.853,-1501.69,0,0
77944.775,58.3223,-1495.92,0,0
78205.1,57.7583,-1490.14,0,0
78465.425,57.2816,-1484.42,0,0
78725.75,56.8666,-1478.68,0,0
78986.075,56.3931,-1472.95,0,0
79246.4,55.9968,-1467.23,0,0
79506.725,55.6979,-1461.62,0,0
79767.05,55.2936,-1455.98,0,0
80027.375,54.9592,-1450.26,0,0
80287.7,54.727,-1444.65,0,0
80548.025,54.5313,-1439.17,0,0
80808.35,54.3007,-1433.68,0,0
81068.675,54.0487,-1428.19,0,0
81329.0,53.8385,-1422.71,0,0
81589.325,53.6656,-1417.26,0,0
81849.65,53.4973,-1411.9,0,0
82109.975,53.3322,-1406.48,0,0
82370.3,53.2433,-1401.15,0,0
82630.625,53.1397,-1395.89,0,0
82890.95,53.0356,-1390.67,0,0
83151.275,52.8986,-1385.36,0,0
83411.6,52.8254,-1380.23,0,0
83671.925,52.7861,-1375.01,0,0
83932.25,52.7313,-1369.86,0,0
84192.575,52.732,-1364.74,0,0
84452.9,52.6867,-1359.76,0,0
84713.225,52.5751,-1354.68,0,0
84973.55,52.4822,-1349.65,0,0
85233.875,52.5487,-1344.58,0,0
85494.2,52.5384,-1339.63,0,0
85754.525,52.5441,-1334.69,0,0
86014.85,52.6093,-1329.77,0,0
86275.175,52.595,-1324.93,0,0
86535.5,52.5657,-1320.04,0,0
86795.825,52.606,-1315.14,0,0
87056.15,52.6761,-1310.35,0,0
87316.475,52.7383,-1305.33,0,0
87576.8,52.8476,-1300.56,0,0
87837.125,52.9873,-1295.82,0,0
88097.45,53.0449,-1291.14,0,0
88357.775,53.1657,-1286.29,0,0
88618.1,53.2731,-1281.5,0,0
88878.425,53.4957,-1276.65,0,0
89138.75,53.8443,-1271.84,0,0
89399.075,54.5187,-1267.26,0,0
89659.4,54.9027,-1262.84,0,0
89919.725,55.3174,-1258.38,0,0
90180,55.7253,-1254.08,0,0
90440.4,55.9976,-1249.79,0,0
90700.7,56.4067,-1245.52,0,0
90961,56.7015,-1241.21,0,0
91221.3,57.0705,-1237.1,0,0
91481.7,57.4407,-1232.92,0,0
91742,57.8854,-1228.72,0,0
92002.3,58.2839,-1224.64,0,0
92262.6,58.6842,-1220.53,0,0
92523,59.377,-1216.66,0,0
92783.3,59.8753,-1212.97,0,0
93043.6,60.1567,-1209.08,0,0
93303.9,60.8195,-1205.24,0,0
93564.3,61.632,-1201.84,0,0
93824.6,62.2093,-1198.87,0,0
94084.9,62.5374,-1196.21,0,0
94345.2,61.9768,-1193.52,0,0
94605.6,61.3586,-1190.36,0,0
94865.9,60.8595,-1187.27,0,0
95126.2,59.8116,-1184.24,0,0
95386.5,58.4141,-1180.55,0,0
95646.9,57.2406,-1176.29,0,0
95907.2,56.4403,-1172.02,0,0
96167.5,55.9008,-1167.58,0,0
96427.8,55.5725,-1163.11,0,0
96688.2,55.4462,-1158.82,0,0
96948.5,55.3497,-1154.62,0,0
97208.8,55.2827,-1150.56,0,0
97469.1,55.2403,-1146.49,0,0
97729.5,55.1556,-1142.47,0,0
97989.8,55.1105,-1138.43,0,0
98250.1,55.1013,-1134.45,0,0
98510.4,55.1145,-1130.46,0,0
98770.8,55.1621,-1126.58,0,0
99031.1,55.0888,-1122.77,0,0
99291.4,55.0481,-1118.9,0,0
99551.7,55.0148,-1115,0,0
99812.1,54.9261,-1111.13,0,0
100072,54.8227,-1107.2,0,0
100333,54.854,-1103.32,0,0
100593,54.7732,-1099.37,0,0
100853,54.6712,-1095.39,0,0
101114,54.7081,-1091.24,0,0
101374,54.8843,-1087.17,0,0
101634,55.0437,-1083.08,0,0
101895,55.3989,-1078.91,0,0
102155,55.7668,-1074.9,0,0
102415,56.2952,-1070.72,0,0
102676,57.188,-1066.81,0,0
102936,58.0336,-1063.18,0,0
103196,58.8108,-1059.72,0,0
103457,59.4227,-1056.35,0,0
103717,60.0683,-1052.85,0,0
103977,60.9059,-1049.36,0,0
104238,61.911,-1046.34,0,0
104498,62.6733,-1043.62,0,0
104758,63.0898,-1041.09,0,0
105019,63.2184,-1038.35,0,0
105279,63.2942,-1035.47,0,0
105539,63.4494,-1032.6,0,0
105800,63.5362,-1029.86,0,0
106060,63.4752,-1027.11,0,0
106320.175,63.244,-1024.31,0,0
106580.5,62.9256,-1021.28,0,0
106840.825,62.7371,-1018.3,0,0
107101.15,62.2968,-1015.34,0,0
107361.475,61.9588,-1012.15,0,0
107621.8,61.5734,-1008.94,0,0
107882.125,61.2642,-1005.66,0,0
108142.45,60.8536,-1002.39,0,0
108402.775,60.3881,-999.003,0,0
108663.1,59.9665,-995.506,0,0
108923.425,59.6714,-991.752,0,0
109183.75,59.542,-987.994,0,0
109444.075,59.5667,-984.385,0,0
109704.4,59.5519,-980.859,0,0
109964.725,59.5764,-977.171,0,0
110225.05,59.5469,-973.472,0,0
110485.375,59.687,-969.729,0,0
110745.7,60.0749,-965.92,0,0
111006.025,60.5455,-962.311,0,0
111266.35,61.131,-958.744,0,0
111526.675,61.7235,-955.545,0,0
111787.0,62.1889,-952.181,0,0
112047.325,62.6037,-948.94,0,0
112307.65,63.0049,-945.851,0,0
112567.975,63.389,-942.657,0,0
112828.3,63.7662,-939.46,0,0
113088.625,64.11,-936.409,0,0
113348.95,64.2971,-933.254,0,0
113609.275,64.5713,-930.078,0,0
113869.6,64.7352,-926.872,0,0
114129.925,65.0732,-923.605,0,0
114390.25,65.2855,-920.436,0,0
114650.575,65.4147,-917.035,0,0
114910.9,65.7212,-913.573,0,0
115171.225,66.1448,-910.145,0,0
115431.55,66.7692,-906.61,0,0
115691.875,67.4332,-903.323,0,0
115952.2,67.9526,-900.044,0,0
116212.525,68.4871,-896.572,0,0
116472.85,69.2543,-893.115,0,0
116733.175,70.1735,-889.772,0,0
116993.5,71.0375,-886.479,0,0
117253.825,71.9041,-883.181,0,0
117514.15,72.9267,-879.751,0,0
117774.475,74.2901,-876.261,0,0
118034.8,76.1306,-873.208,0,0
118295.125,77.845,-870.675,0,0
118555.45,79.2873,-868.48,0,0
118815.775,80.1862,-866.289,0,0
119076.1,81.1962,-863.49,0,0
119336.425,82.6731,-860.769,0,0
119596.75,84.5997,-858.308,0,0
119857.075,86.6471,-856.533,0,0
120117.4,88.5562,-855.396,0,0
120377.725,89.8965,-855.058,0,0
120638.05,90.1649,-854.709,0,0
120898.375,89.9131,-854.085,0,0
121158.7,89.1186,-853.151,0,0
121419.025,87.8885,-851.552,0,0
121679.35,86.7925,-849.197,0,0
121939.675,86.0011,-846.389,0,0
122200.0,85.7279,-843.467,0,0
122460,85.6211,-840.624,0,0
122721,85.807,-837.684,0,0
122981,86.2111,-834.952,0,0
123241,86.5938,-832.402,0,0
123502,87.0268,-829.988,0,0
123762,87.3448,-827.542,0,0
124022,87.7437,-825.128,0,0
124283,88.1408,-822.801,0,0
124543,88.5754,-820.521,0,0
124803,88.9533,-818.286,0,0
125064,89.294,-816.006,0,0
125324,89.726,-813.836,0,0
125584,90.2022,-811.71,0,0
125845,90.6244,-809.783,0,0
126105,90.9082,-807.983,0,0
126365,90.9551,-806.125,0,0
126626,90.9122,-804.162,0,0
126886,90.8552,-802.197,0,0
127146,90.8125,-800.105,0,0
127406,90.7549,-798,0,0
127667,90.7083,-796.103,0,0
127927,90.4475,-794.134,0,0
128187,90.1451,-791.949,0,0
128448,89.7644,-789.814,0,0
128708,89.386,-787.402,0,0
128968,89.1477,-785.006,0,0
129229,88.911,-782.501,0,0
129489,88.784,-780.078,0,0
129749,88.5849,-777.544,0,0
130010,88.541,-774.807,0,0
130270,88.7697,-772.275,0,0
130530,89.0082,-769.87,0,0
130791,89.31,-767.587,0,0
131051,89.4711,-765.539,0,0
131311,89.4353,-763.533,0,0
131572,89.3117,-761.451,0,0
131832,89.0137,-759.333,0,0
132092,88.706,-757.026,0,0
132353,88.4968,-754.665,0,0
132613,88.3825,-752.313,0,0
132873,88.1758,-750.1,0,0
133134,87.8634,-747.818,0,0
133394,87.5896,-745.487,0,0
133654,87.1906,-743.109,0,0
133915,86.768,-740.641,0,0
134175,86.4461,-737.945,0,0
134435,86.2819,-735.389,0,0
134696,86.0843,-732.985,0,0
134956,85.6619,-730.423,0,0
135216,85.3201,-727.801,0,0
135477,85.1181,-725.173,0,0
135737,84.7903,-722.499,0,0
135997,84.5216,-719.917,0,0
136258,84.0634,-717.19,0,0
136518,83.6285,-714.272,0,0
136778,83.3493,-711.195,0,0
137039,83.1972,-708.1,0,0
137299,83.1972,-704.992,0,0
137559,83.3976,-701.912,0,0
137819,83.7207,-698.972,0,0
138080,84.0191,-696.275,0,0
138340.125,84.2115,-693.508,0,0
138600.45,84.5164,-690.844,0,0
138860.775,84.731,-688.333,0,0
139121.1,84.7702,-685.902,0,0
139381.425,84.7131,-683.458,0,0
139641.75,84.4571,-680.945,0,0
139902.075,84.2345,-678.076,0,0
140162.4,84.1934,-675.252,0,0
140422.725,84.1498,-672.587,0,0
140683.05,83.9603,-669.921,0,0
140943.375,83.6716,-667.213,0,0
141203.7,83.2674,-664.357,0,0
141464.025,82.887,-661.338,0,0
141724.35,82.5738,-658.164,0,0
141984.675,82.388,-654.931,0,0
142245.0,82.2384,-651.71,0,0
142505.325,82.1015,-648.437,0,0
142765.65,81.9531,-645.125,0,0
143025.975,81.9538,-641.742,0,0
143286.3,81.9523,-638.318,0,0
143546.625,81.9949,-634.888,0,0
143806.95,82.0459,-631.427,0,0
144067.275,82.135,-627.91,0,0
144327.6,82.3051,-624.326,0,0
144587.925,82.5308,-620.697,0,0
144848.25,82.8453,-617.049,0,0
145108.575,83.2567,-613.386,0,0
145368.9,83.6853,-609.82,0,0
145629.225,84.0512,-606.256,0,0
145889.55,84.3501,-602.542,0,0
146149.875,84.7541,-598.666,0,0
146410.2,85.4072,-594.747,0,0
146670.525,86.101,-590.994,0,0
146930.85,86.7289,-587.15,0,0
147191.175,87.4564,-583.236,0,0
147451.5,88.2353,-579.287,0,0
147711.825,89.1494,-575.217,0,0
147972.15,90.2155,-571.208,0,0
148232.475,91.3406,-567.267,0,0
148492.8,92.4385,-563.304,0,0
148753.125,93.5619,-559.238,0,0
149013.45,94.8162,-555.045,0,0
149273.775,96.2854,-550.813,0,0
149534.1,97.9564,-546.517,0,0
149794.425,99.8986,-542.29,0,0
150054.75,102.012,-538.3,0,0
150315.075,104.207,-534.435,0,0
150575.4,106.431,-530.654,0,0
150835.725,108.779,-526.943,0,0
151096.05,111.213,-523.404,0,0
151356.375,113.678,-519.947,0,0
151616.7,116.243,-516.599,0,0
151877.025,118.958,-513.502,0,0
152137.35,121.53,-510.697,0,0
152397.675,123.924,-508.002,0,0
152658.0,126.144,-505.341,0,0
152918.325,128.274,-502.61,0,0
153178.65,130.464,-499.893,0,0
153438.975,132.544,-497.278,0,0
153699.3,134.486,-494.606,0,0
153959.625,136.45,-491.818,0,0
154219.95,138.473,-489.074,0,0
154480,140.34,-486.453,0,0
154741,142.001,-483.656,0,0
155001,143.641,-480.523,0,0
155261,145.623,-477.198,0,0
155522,147.844,-474.042,0,0
155782,149.998,-470.996,0,0
156042,152.023,-467.954,0,0
156303,154.16,-464.826,0,0
156563,156.095,-461.456,0,0
156823,158.471,-457.505,0,0
157084,161.754,-453.82,0,0
157344,165.213,-450.927,0,0
157604,168.483,-448.386,0,0
157864,171.809,-446.246,0,0
158125,174.723,-444.787,0,0
158385,176.725,-443.347,0,0
158645,178.104,-441.523,0,0
158906,179.158,-439.346,0,0
159166,179.708,-436.581,0,0
159426,180.206,-432.769,0,0
159687,181.362,-428.302,0,0
159947,182.766,-423.515,0,0
160207,184.9,-417.98,0,0
160468,188.223,-412.793,0,0
160728,191.483,-408.338,0,0
160988,194.285,-403.753,0,0
161249,197.198,-398.161,0,0
161509,201.428,-392.121,0,0
161769,206.614,-386.731,0,0
162030,211.825,-382.15,0,0
162290,216.71,-377.506,0,0
162550,221.81,-372.266,0,0
162811,227.657,-367.074,0,0
163071,233.99,-361.754,0,0
163331,241.068,-356.606,0,0
163592,248.814,-351.343,0,0
163852,257.911,-346.626,0,0
164112,267.665,-342.941,0,0
164373,277.827,-340.302,0,0
164633,287.964,-338.386,0,0
164893,298.412,-337.044,0,0
165154,309.194,-336.349,0,0
165414,320.403,-336.696,0,0
165674,331.71,-338.337,0,0
165935,342.41,-341.131,0,0
166195,353.097,-344.232,0,0
166455,364.1,-348.919,0,0
166716,374.021,-355.569,0,0
166976,382.202,-363.048,0,0
167236,388.752,-370.323,0,0
167497,395.106,-377.216,0,0
167757,400.642,-384.85,0,0
168017,405.207,-392.373,0,0
168277,409.215,-399.97,0,0
168538,412.184,-407.793,0,0
168798,414.22,-414.82,0,0
169058,416.621,-421.54,0,0
169319,418.459,-429.241,0,0
169579,418.699,-437.113,0,0
169839,417.439,-444.415,0,0
170100,415.116,-450.091,0,0
170360.075,412.472,-454.379,0,0
170620.4,410.333,-457.296,0,0
170880.725,409.081,-459.903,0,0
171141.05,407.615,-462.543,0,0
171401.375,406.173,-464.08,0,0
171661.7,405.727,-465.3,0,0
171922.025,405.331,-466.708,0,0
172182.35,405.019,-467.48,0,0
172442.675,405.758,-467.635,0,0
172703.0,407.783,-468.387,0,0
172963.325,410.338,-470.509,0,0
173223.65,412.173,-473.79,0,0
173483.975,412.74,-477.271,0,0
173744.3,412.587,-479.795,0,0
174004.625,412.843,-481.493,0,0
174264.95,414.106,-482.913,0,0
174525.275,416.379,-485.277,0,0
174785.6,418.106,-489.243,0,0
175045.925,418.35,-493.024,0,0
175306.25,419.039,-495.463,0,0
175566.575,420.964,-498.693,0,0
175826.9,422.807,-503.783,0,0
176087.225,423.406,-509.863,0,0
176347.55,422.669,-516.471,0,0
176607.875,420.364,-523.348,0,0
176868.2,416.311,-529.83,0,0
177128.525,410.571,-535.174,0,0
177388.85,403.862,-538.28,0,0
177649.175,397.892,-539.888,0,0
177909.5,392.247,-540.992,0,0
178169.825,386.208,-541.365,0,0
178430.15,380.004,-540.249,0,0
178690.475,374.823,-537.413,0,0
178950.8,371.326,-533.972,0,0
179211.125,369.094,-530.712,0,0
179471.45,367.652,-528.04,0,0
179731.775,366.212,-525.583,0,0
179992.1,365.231,-522.763,0,0
180252.425,365.25,-520.321,0,0
180512.75,365.335,-518.445,0,0
180773.075,365.635,-516.642,0,0
181033.4,366.484,-515.133,0,0
181293.725,367.595,-514.078,0,0
181554.05,368.98,-513.837,0,0
181814.375,370.082,-514.31,0,0
182074.7,370.567,-515.261,0,0
182335.025,370.713,-516.131,0,0
182595.35,370.905,-517.429,0,0
182855.675,370.448,-519.224,0,0
183116.0,369.458,-521.013,0,0
183376.325,367.791,-523.237,0,0
183636.65,364.585,-525.156,0,0
183896.975,360.734,-525.695,0,0
184157.3,357.133,-525.098,0,0
184417.625,354.321,-524.201,0,0
184677.95,351.347,-523.677,0,0
184938.275,347.703,-522.691,0,0
185198.6,343.96,-520.891,0,0
185458.925,340.462,-518.379,0,0
185719.25,337.074,-515.477,0,0
185979.575,333.819,-511.645,0,0
186239.9,331.384,-507.022,0,0
186500,330.094,-502.052,0,0
186761,329.803,-497.438,0,0
187021,330.026,-493.461,0,0
187281,330.226,-489.998,0,0
187542,330.334,-486.605,0,0
187802,330.613,-483.206,0,0
188062,331.023,-480.055,0,0
188322,331.24,-477.091,0,0
188583,331.137,-473.909,0,0
188843,331.042,-470.311,0,0
189103,331.319,-466.178,0,0
189364,332.29,-461.842,0,0
189624,333.894,-457.751,0,0
189884,335.874,-453.99,0,0
190145,338.189,-450.667,0,0
190405,340.529,-447.903,0,0
190665,342.551,-445.61,0,0
190926,344.037,-443.369,0,0
191186,345.284,-440.675,0,0
191446,346.85,-437.733,0,0
191707,348.476,-434.989,0,0
191967,349.971,-432.156,0,0
192227,351.408,-429.162,0,0
192488,352.776,-425.716,0,0
192748,354.527,-421.787,0,0
193008,356.941,-417.708,0,0
193269,359.871,-413.715,0,0
193529,363.157,-409.993,0,0
193789,366.615,-406.38,0,0
194050,370.397,-402.792,0,0
194310,374.565,-399.258,0,0
194570,379.166,-396.135,0,0
194831,383.699,-393.285,0,0
195091,388.406,-390.307,0,0
195351,393.814,-387.141,0,0
195612,400.149,-384.366,0,0
195872,407.361,-382.641,0,0
196132,414.73,-382.354,0,0
196393,421.546,-383.505,0,0
196653,427.573,-385.129,0,0
196913,432.952,-387.251,0,0
197174,437.547,-389.684,0,0
197434,441.445,-392.333,0,0
197694,444.43,-394.943,0,0
197955,446.765,-396.953,0,0
198215,448.962,-398.608,0,0
198475,450.954,-400.018,0,0
198735,452.46,-401.22,0,0
198996,454.019,-401.816,0,0
199256,455.807,-402.017,0,0
199516,457.638,-402.241,0,0
199777,459.441,-402.444,0,0
200037,460.904,-402.413,0,0
200297,462.234,-402.048,0,0
200558,463.363,-401.088,0,0
200818,464.682,-399.162,0,0
201078,466.967,-396.683,0,0
201339,470.035,-394.173,0,0
201599,473.676,-391.613,0,0
201859,478.014,-389.068,0,0
202120,483.341,-386.877,0,0
202380.025,489.45,-385.43,0,0
202640.35,495.801,-385.298,0,0
202900.675,501.301,-385.967,0,0
203161.0,506.181,-386.249,0,0
203421.325,511.542,-386.092,0,0
203681.65,517.714,-386.221,0,0
203941.975,524.317,-387.258,0,0
204202.3,531.042,-389.38,0,0
204462.625,537.172,-392.593,0,0
204722.95,542.177,-396.347,0,0
204983.275,546.359,-400.015,0,0
205243.6,549.803,-403.76,0,0
205503.925,552.417,-407.125,0,0
205764.25,554.649,-409.862,0,0
206024.575,556.322,-412.036,0,0
206284.9,557.474,-413.121,0,0
206545.225,559.163,-412.603,0,0
206805.55,562.199,-410.985,0,0
207065.875,567.109,-409.59,0,0
207326.2,572.767,-409.129,0,0
207586.525,578.664,-409.209,0,0
207846.85,585.042,-409.42,0,0
208107.175,592.244,-410.168,0,0
208367.5,600.053,-412.009,0,0
208627.825,607.687,-415.044,0,0
208888.15,614.819,-418.679,0,0
209148.475,621.472,-422.705,0,0
209408.8,627.906,-426.86,0,0
209669.125,634.364,-431.218,0,0
209929.45,640.876,-436.029,0,0
210189.775,647.141,-441.375,0,0
210450.1,653.004,-447.005,0,0
210710.425,658.652,-452.791,0,0
210970.75,664.238,-458.771,0,0
211231.075,669.622,-465.196,0,0
211491.4,674.641,-471.891,0,0
211751.725,679.321,-478.578,0,0
212012.05,683.831,-485.352,0,0
212272.375,688.307,-492.248,0,0
212532.7,692.801,-499.313,0,0
212793.025,697.428,-506.87,0,0
213053.35,701.9,-515.134,0,0
213313.675,705.7,-524.114,0,0
213574.0,708.552,-533.404,0,0
213834.325,710.574,-542.585,0,0
214094.65,711.926,-551.424,0,0
214354.975,713.094,-559.673,0,0
214615.3,714.385,-567.779,0,0
214875.625,715.729,-575.848,0,0
215135.95,717.024,-584.23,0,0
215396.275,718.232,-593.084,0,0
215656.6,718.55,-602.155,0,0
215916.925,718.682,-610.994,0,0
216177.25,718.414,-619.921,0,0
216437.575,717.704,-628.855,0,0
216697.9,716.693,-637.483,0,0
216958.225,715.5,-646.018,0,0
217218.55,714.018,-654.365,0,0
217478.875,712.452,-662.757,0,0
217739.2,710.724,-671.174,0,0
217999.525,708.681,-679.853,0,0
218259.85,706.048,-688.336,0,0
218520,703.039,-696.581,0,0
218780,699.705,-704.328,0,0
219041,696.277,-711.891,0,0
219301,692.872,-719.236,0,0
219561,689.514,-726.243,0,0
219822,686.207,-733.192,0,0
220082,683.032,-740.209,0,0
220342,679.99,-747.572,0,0
220603,676.637,-755.381,0,0
220863,672.893,-763.39,0,0
221123,668.916,-771.514,0,0
221384,664.222,-780.197,0,0
221644,658.801,-788.972,0,0
221904,652.105,-797.802,0,0
222165,644.405,-805.989,0,0
222425,635.844,-813.4,0,0
222685,626.797,-819.755,0,0
222946,616.996,-825.284,0,0
223206,606.964,-829.516,0,0
223466,597.205,-832.297,0,0
223727,588.114,-834.095,0,0
223987,579.541,-835.434,0,0
224247,571.512,-835.96,0,0
224508,564.028,-836.25,0,0
224768,557.294,-836.114,0,0
225028,551.282,-835.388,0,0
225289,546.071,-834.969,0,0
225549,541.735,-834.74,0,0
225809,537.64,-834.883,0,0
226070,533.867,-835.36,0,0
226330,530.386,-836.032,0,0
226590,527.244,-837.249,0,0
226851,524.166,-839.19,0,0
227111,520.911,-841.669,0,0
227371,517.019,-844.789,0,0
227632,512.246,-847.884,0,0
227892,506.757,-850.537,0,0
228152,501.236,-852.419,0,0
228413,495.932,-854.082,0,0
228673,490.663,-855.505,0,0
228933,485.507,-856.944,0,0
229193,480.52,-858.179,0,0
229454,475.596,-859.442,0,0
229714,470.556,-861.046,0,0
229974,465.305,-862.679,0,0
230235,459.808,-864.156,0,0
230495,454.067,-865.472,0,0
230755,448.043,-866.442,0,0
231016,442.165,-866.998,0,0
231276,436.204,-867.267,0,0
231536,430.411,-867.27,0,0
231797,424.882,-867.125,0,0
232057,419.444,-866.686,0,0
232317,414.241,-866.226,0,0
232578,409.159,-865.779,0,0
232838,404.208,-865.366,0,0
233098,399.159,-864.9,0,0
233359,394.177,-864.252,0,0
233619,389.388,-863.513,0,0
233879,384.693,-862.824,0,0
234140,380.038,-862.108,0,0
234400,375.556,-861.382,0,0
234660.3,370.983,-860.758,0,0
234920.625,366.497,-860.281,0,0
235180.95,361.815,-859.658,0,0
235441.275,357.128,-859.095,0,0
235701.6,352.176,-858.659,0,0
235961.925,346.947,-857.807,0,0
236222.25,341.794,-856.653,0,0
236482.575,336.704,-855.271,0,0
236742.9,331.821,-853.825,0,0
237003.225,326.924,-852.3,0,0
237263.55,322.02,-850.742,0,0
237523.875,317.035,-848.948,0,0
237784.2,312.036,-846.915,0,0
238044.525,307.149,-844.609,0,0
238304.85,302.424,-842.146,0,0
238565.175,297.979,-839.574,0,0
238825.5,293.567,-836.903,0,0
239085.825,289.161,-834.103,0,0
239346.15,285.011,-831.2,0,0
239606.475,280.935,-828.11,0,0
239866.8,277.08,-824.937,0,0
240127.125,273.521,-821.661,0,0
240387.45,270.004,-818.62,0,0
240647.775,266.272,-815.398,0,0
240908.1,262.831,-811.992,0,0
241168.425,259.395,-808.335,0,0
241428.75,256.313,-804.364,0,0
241689.075,253.58,-800.375,0,0
241949.4,251.1,-796.304,0,0
242209.725,249.046,-792.328,0,0
242470.05,247.345,-788.391,0,0
242730.375,246.026,-784.609,0,0
242990.7,244.956,-781.19,0,0
243251.025,244.055,-778.127,0,0
243511.35,243.139,-775.501,0,0
243771.675,241.91,-773.019,0,0
244032.0,240.612,-770.634,0,0
244292.325,239.145,-768.3,0,0
244552.65,237.455,-765.853,0,0
244812.975,235.921,-763.161,0,0
245073.3,234.336,-760.563,0,0
245333.625,232.967,-757.871,0,0
245593.95,231.622,-755.175,0,0
245854.275,230.506,-752.41,0,0
246114.6,229.424,-749.71,0,0
246374.925,228.395,-747.152,0,0
246635.25,227.514,-744.625,0,0
246895.575,226.573,-742.165,0,0
247155.9,225.622,-739.775,0,0
247416.225,224.666,-737.305,0,0
247676.55,223.729,-734.83,0,0
247936.875,222.918,-732.182,0,0
248197.2,222.172,-729.495,0,0
248457.525,221.84,-726.957,0,0
248717.85,221.716,-724.264,0,0
248978.175,221.839,-722.047,0,0
249238.5,221.877,-720.29,0,0
249498.825,221.758,-718.63,0,0
249759.15,221.535,-717.12,0,0
250019.475,221.147,-715.508,0,0
250279.8,220.949,-714.158,0,0
250540,220.456,-712.906,0,0
250800,219.886,-711.717,0,0
251061,219.091,-710.54,0,0
251321,218.154,-709.3,0,0
251581,217.183,-708.016,0,0
251842,216.079,-706.679,0,0
252102,214.881,-705.3,0,0
252362,213.55,-703.798,0,0
252623,212.16,-702.035,0,0
252883,210.791,-700.18,0,0
253143,209.383,-698.243,0,0
253404,207.92,-696.178,0,0
253664,206.422,-693.887,0,0
253924,205.082,-691.236,0,0
254185,203.934,-688.436,0,0
254445,203.008,-685.491,0,0
254705,202.238,-682.559,0,0
254966,201.68,-679.606,0,0
255226,201.102,-676.472,0,0
255486,200.768,-673.229,0,0
255747,200.78,-669.846,0,0
256007,201.052,-666.409,0,0
256267,201.895,-663.077,0,0
256528,202.968,-659.98,0,0
256788,204.131,-657.173,0,0
257048,205.372,-654.588,0,0
257309,206.58,-652.093,0,0
257569,207.945,-649.614,0,0
257829,209.494,-647.234,0,0
258090,211.136,-644.925,0,0
258350,212.913,-642.783,0,0
258610,214.809,-640.727,0,0
258871,216.869,-638.793,0,0
259131,219.137,-636.997,0,0
259391,221.6,-635.28,0,0
259651,224.322,-633.821,0,0
259912,227.301,-632.607,0,0
260172,230.502,-631.766,0,0
260432,233.94,-631.397,0,0
260693,237.673,-631.694,0,0
260953,241.307,-632.588,0,0
261213,244.697,-634.362,0,0
261474,247.482,-636.741,0,0
261734,249.577,-639.444,0,0
261994,251.188,-642.26,0,0
262255,252.237,-645.223,0,0
262515,252.905,-648.219,0,0
262775,253.003,-651.195,0,0
263036,252.704,-654.041,0,0
263296,252.022,-656.768,0,0
263556,251.028,-659.326,0,0
263817,249.757,-661.704,0,0
264077,248.214,-663.805,0,0
264337,246.539,-665.709,0,0
264598,244.756,-667.472,0,0
264858,242.895,-669.096,0,0
265118,240.792,-670.748,0,0
265379,238.405,-672.165,0,0
265639,235.871,-673.433,0,0
265899,233.025,-674.452,0,0
266160,230.018,-675.133,0,0
266420,226.892,-675.443,0,0
266680.25,223.757,-675.402,0,0
266940.575,220.601,-674.974,0,0
267200.9,217.559,-674.188,0,0
267461.225,214.748,-673.128,0,0
267721.55,212.122,-671.906,0,0
267981.875,209.602,-670.537,0,0
268242.2,207.156,-668.987,0,0
268502.525,204.934,-667.184,0,0
268762.85,202.827,-665.266,0,0
269023.175,201.039,-663.251,0,0
269283.5,199.425,-661.167,0,0
269543.825,197.997,-659.078,0,0
269804.15,196.746,-656.964,0,0
270064.475,195.724,-654.861,0,0
270324.8,194.801,-652.705,0,0
270585.125,194.145,-650.568,0,0
270845.45,193.684,-648.531,0,0
271105.775,193.398,-646.709,0,0
271366.1,193.068,-645.06,0,0
271626.425,192.674,-643.468,0,0
271886.75,192.277,-641.914,0,0
272147.075,191.925,-640.337,0,0
272407.4,191.548,-638.843,0,0
272667.725,191.076,-637.273,0,0
272928.05,190.605,-635.58,0,0
273188.375,190.196,-633.791,0,0
273448.7,189.985,-631.899,0,0
273709.025,189.92,-629.938,0,0
273969.35,190.073,-628.059,0,0
274229.675,190.281,-626.26,0,0
274490.0,190.597,-624.434,0,0
274750.325,190.942,-622.547,0,0
275010.65,191.523,-620.675,0,0
275270.975,192.309,-618.85,0,0
275531.3,193.34,-617.145,0,0
275791.625,194.461,-615.652,0,0
276051.95,195.709,-614.205,0,0
276312.275,197.123,-612.954,0,0
276572.6,198.691,-611.901,0,0
276832.925,200.294,-611.164,0,0
277093.25,201.896,-610.622,0,0
277353.575,203.445,-610.255,0,0
277613.9,205.02,-610.053,0,0
277874.225,206.6,-610,0,0
278134.55,208.235,-610.205,0,0
278394.875,209.833,-610.651,0,0
278655.2,211.348,-611.376,0,0
278915.525,212.649,-612.384,0,0
279175.85,213.755,-613.527,0,0
279436.175,214.715,-614.87,0,0
279696.5,215.419,-616.404,0,0
279956.825,215.861,-618.068,0,0
280217.15,215.98,-619.734,0,0
280477.475,215.803,-621.428,0,0
280737.8,215.429,-623.006,0,0
280998.125,214.851,-624.567,0,0
281258.45,214.081,-626.042,0,0
281518.775,213.07,-627.474,0,0
281779.1,211.847,-628.757,0,0
282039.425,210.483,-629.865,0,0
282299.75,209.033,-630.75,0,0
282560,207.534,-631.525,0,0
282820,205.961,-632.178,0,0
283081,204.318,-632.66,0,0
283341,202.659,-633.004,0,0
283601,200.97,-633.214,0,0
283862,199.301,-633.303,0,0
284122,197.604,-633.27,0,0
284382,195.854,-633.091,0,0
284643,194.196,-632.777,0,0
284903,192.555,-632.298,0,0
285163,191.016,-631.743,0,0
285424,189.599,-631.107,0,0
285684,188.197,-630.423,0,0
285944,186.868,-629.703,0,0
286205,185.546,-628.864,0,0
286465,184.309,-627.983,0,0
286725,183.186,-627.053,0,0
286986,182.111,-626.072,0,0
287246,181.145,-625.072,0,0
287506,180.249,-624.052,0,0
287767,179.436,-623.001,0,0
288027,178.696,-621.972,0,0
288287,178.015,-620.867,0,0
288548,177.468,-619.767,0,0
288808,177.096,-618.683,0,0
289068,176.828,-617.687,0,0
289329,176.633,-616.85,0,0
289589,176.512,-616.144,0,0
289849,176.362,-615.61,0,0
290109,176.159,-615.156,0,0
290370,175.87,-614.724,0,0
290630,175.518,-614.394,0,0
290890,175.121,-614.122,0,0
291151,174.603,-613.863,0,0
291411,173.972,-613.609,0,0
291671,173.217,-613.301,0,0
291932,172.411,-612.932,0,0
292192,171.484,-612.414,0,0
292452,170.558,-611.731,0,0
292713,169.67,-610.925,0,0
292973,168.896,-610.011,0,0
293233,168.191,-608.949,0,0
293494,167.585,-607.91,0,0
293754,167.058,-606.748,0,0
294014,166.721,-605.535,0,0
294275,166.543,-604.275,0,0
294535,166.656,-603.051,0,0
294795,166.911,-601.993,0,0
295056,167.339,-601.073,0,0
295316,167.828,-600.395,0,0
295576,168.359,-599.871,0,0
295837,168.858,-599.558,0,0
296097,169.345,-599.387,0,0
296357,169.745,-599.397,0,0
296618,170.077,-599.526,0,0
296878,170.263,-599.74,0,0
297138,170.353,-600.065,0,0
297399,170.331,-600.415,0,0
297659,170.203,-600.789,0,0
297919,169.982,-601.198,0,0
298180,169.66,-601.602,0,0
298440,169.265,-602.031,0,0
298700.2,168.775,-602.453,0,0
298960.525,168.213,-602.901,0,0
299220.85,167.543,-603.344,0,0
299481.175,166.773,-603.79,0,0
299741.5,165.908,-604.147,0,0
300001.825,164.976,-604.473,0,0
300262.15,163.931,-604.741,0,0
300522.475,162.89,-604.959,0,0
300782.8,161.74,-605.129,0,0
301043.125,160.523,-605.218,0,0
301303.45,159.255,-605.239,0,0
301563.775,157.93,-605.148,0,0
301824.1,156.595,-604.971,0,0
302084.425,155.27,-604.669,0,0
302344.75,153.961,-604.285,0,0
302605.075,152.688,-603.84,0,0
302865.4,151.455,-603.319,0,0
303125.725,150.254,-602.765,0,0
303386.05,149.078,-602.165,0,0
303646.375,147.9,-601.542,0,0
303906.7,146.745,-600.864,0,0
304167.025,145.614,-600.158,0,0
304427.35,144.528,-599.366,0,0
304687.675,143.477,-598.535,0,0
304948.0,142.47,-597.669,0,0
305208.325,141.574,-596.769,0,0
305468.65,140.684,-595.895,0,0
305728.975,139.82,-595.009,0,0
305989.3,138.978,-594.089,0,0
306249.625,138.165,-593.177,0,0
306509.95,137.396,-592.246,0,0
306770.275,136.67,-591.273,0,0
307030.6,136.006,-590.299,0,0
307290.925,135.398,-589.337,0,0
307551.25,134.824,-588.387,0,0
307811.575,134.275,-587.426,0,0
308071.9,133.792,-586.458,0,0
308332.225,133.382,-585.532,0,0
308592.55,133.02,-584.666,0,0
308852.875,132.694,-583.823,0,0
309113.2,132.422,-583.046,0,0
309373.525,132.147,-582.35,0,0
309633.85,131.869,-581.725,0,0
309894.175,131.601,-581.171,0,0
310154.5,131.273,-580.672,0,0
310414.825,130.918,-580.262,0,0
310675.15,130.484,-579.889,0,0
310935.475,129.973,-579.544,0,0
311195.8,129.361,-579.213,0,0
311456.125,128.673,-578.845,0,0
311716.45,127.921,-578.442,0,0
311976.775,127.093,-577.998,0,0
312237.1,126.202,-577.484,0,0
312497.425,125.26,-576.92,0,0
312757.75,124.285,-576.248,0,0
313018.075,123.272,-575.472,0,0
313278.4,122.282,-574.592,0,0
313538.725,121.347,-573.606,0,0
313799.05,120.473,-572.528,0,0
314059.375,119.636,-571.385,0,0
314319.7,118.9,-570.188,0,0
314580,118.17,-568.986,0,0
314840,117.624,-567.617,0,0
315101,117.143,-566.291,0,0
315361,116.784,-564.91,0,0
315621,116.58,-563.654,0,0
315882,116.327,-562.394,0,0
316142,116.334,-561.201,0,0
316402,116.365,-560.036,0,0
316663,116.4,-558.912,0,0
316923,116.394,-557.951,0,0
317183,116.445,-556.96,0,0
317444,116.561,-556.084,0,0
317704,116.722,-555.256,0,0
317964,116.749,-554.399,0,0
318225,116.96,-553.583,0,0
318485,116.985,-552.961,0,0
318745,117.155,-552.255,0,0
319006,117.181,-551.692,0,0
319266,117.27,-551.083,0,0
319526,117.226,-550.597,0,0
319787,117.218,-550.059,0,0
320047,117.094,-549.458,0,0
320307,117.092,-548.83,0,0
320567,117.038,-548.008,0,0
320828,117.135,-547.415,0,0
321088,117.278,-546.721,0,0
321348,117.439,-546.078,0,0
321609,117.675,-545.458,0,0
321869,118.005,-544.946,0,0
322129,118.312,-544.554,0,0
322390,118.64,-544.279,0,0
322650,119.054,-544.086,0,0
322910,119.379,-544.022,0,0
323171,119.693,-543.915,0,0
323431,119.932,-544.125,0,0
323691,119.958,-544.272,0,0
323952,119.931,-544.484,0,0
324212,119.911,-544.766,0,0
324472,119.749,-545.088,0,0
324733,119.469,-545.41,0,0
324993,119.032,-545.764,0,0
325253,118.58,-546.012,0,0
325514,118.104,-546.286,0,0
325774,117.435,-546.494,0,0
326034,116.678,-546.74,0,0
326295,116.002,-546.81,0,0
326555,115.055,-546.933,0,0
326815,114.28,-546.939,0,0
327076,113.381,-546.901,0,0
327336,112.399,-546.855,0,0
327596,111.358,-546.575,0,0
327857,110.444,-546.342,0,0
328117,109.469,-546.061,0,0
328377,108.46,-545.659,0,0
328638,107.513,-545.188,0,0
328898,106.611,-544.707,0,0
329158,105.783,-544.227,0,0
329419,104.967,-543.759,0,0
329679,104.098,-543.227,0,0
329939,103.271,-542.77,0,0
330200,102.471,-542.233,0,0
330460,101.601,-541.647,0,0
330720.15,100.822,-541.086,0,0
330980.475,99.8859,-540.56,0,0
331240.8,99.0378,-540.042,0,0
331501.125,98.1144,-539.375,0,0
331761.45,97.3001,-538.733,0,0
332021.775,96.3851,-538.025,0,0
332282.1,95.5024,-537.347,0,0
332542.425,94.5938,-536.591,0,0
332802.75,93.7471,-535.809,0,0
333063.075,92.8238,-535.012,0,0
333323.4,91.9655,-534.125,0,0
333583.725,91.0962,-533.354,0,0
333844.05,90.2443,-532.371,0,0
334104.375,89.4019,-531.503,0,0
334364.7,88.5833,-530.592,0,0
334625.025,87.7618,-529.61,0,0
334885.35,86.914,-528.52,0,0
335145.675,86.1531,-527.421,0,0
335406.0,85.3912,-526.389,0,0
335666.325,84.6521,-525.171,0,0
335926.65,83.9746,-523.869,0,0
336186.975,83.3847,-522.706,0,0
336447.3,82.7902,-521.446,0,0
336707.625,82.3744,-520.146,0,0
336967.95,81.9109,-518.909,0,0
337228.275,81.4495,-517.679,0,0
337488.6,81.1209,-516.491,0,0
337748.925,80.7696,-515.231,0,0
338009.25,80.4597,-514.085,0,0
338269.575,80.0854,-512.898,0,0
338529.9,79.7865,-511.69,0,0
338790.225,79.4692,-510.467,0,0
339050.55,79.1652,-509.243,0,0
339310.875,78.8544,-507.995,0,0
339571.2,78.5752,-506.644,0,0
339831.525,78.3773,-505.282,0,0
340091.85,78.3239,-503.866,0,0
340352.175,78.2927,-502.395,0,0
340612.5,78.3565,-501.028,0,0
340872.825,78.5617,-499.676,0,0
341133.15,78.7345,-498.296,0,0
341393.475,79.1794,-497.024,0,0
341653.8,79.4942,-495.74,0,0
341914.125,79.9936,-494.542,0,0
342174.45,80.5866,-493.465,0,0
342434.775,81.1487,-492.544,0,0
342695.1,81.7631,-491.683,0,0
342955.425,82.3365,-490.929,0,0
343215.75,82.8936,-490.3,0,0
343476.075,83.535,-489.711,0,0
343736.4,84.0358,-489.271,0,0
343996.725,84.4336,-488.817,0,0
344257.05,84.9159,-488.457,0,0
344517.375,85.2154,-488.219,0,0
344777.7,85.4709,-487.923,0,0
345038.025,85.6293,-487.692,0,0
345298.35,85.7273,-487.452,0,0
345558.675,85.7886,-487.216,0,0
345819.0,85.7928,-486.941,0,0
346079.325,85.7927,-486.656,0,0
346339.65,85.5967,-486.398,0,0
346599.975,85.5265,-486.11,0,0
346860,85.2379,-485.711,0,0
347121,84.9951,-485.385,0,0
347381,84.7419,-484.928,0,0
347641,84.4215,-484.41,0,0
347902,84.1236,-483.816,0,0
348162,83.8568,-483.197,0,0
348422,83.6113,-482.565,0,0
348683,83.3732,-481.865,0,0
348943,83.1597,-481.065,0,0
349203,82.966,-480.234,0,0
349464,82.8589,-479.333,0,0
349724,82.8478,-478.472,0,0
349984,82.9556,-477.565,0,0
350245,83.1153,-476.815,0,0
350505,83.362,-475.961,0,0
350765,83.6068,-475.24,0,0
351025,83.9875,-474.601,0,0
351286,84.3463,-474.017,0,0
351546,84.7229,-473.541,0,0
351806,85.0314,-473.174,0,0
352067,85.3168,-472.766,0,0
352327,85.5623,-472.507,0,0
352587,85.8461,-472.279,0,0
352848,85.9898,-472.118,0,0
353108,86.0971,-472.009,0,0
353368,86.1255,-471.927,0,0
353629,86.0576,-471.852,0,0
353889,85.8571,-471.701,0,0
354149,85.6718,-471.461,0,0
354410,85.5101,-471.213,0,0
354670,85.2492,-470.984,0,0
354930,84.9964,-470.696,0,0
355191,84.7845,-470.475,0,0
355451,84.4537,-470.096,0,0
355711,84.1486,-469.785,0,0
355972,83.8315,-469.357,0,0
356232,83.4124,-468.966,0,0
356492,83.0272,-468.468,0,0
356753,82.6111,-467.913,0,0
357013,82.2555,-467.373,0,0
357273,81.9778,-466.64,0,0
357534,81.7185,-465.96,0,0
357794,81.4226,-465.274,0,0
358054,81.2772,-464.578,0,0
358315,81.1487,-463.817,0,0
358575,81.0576,-463.089,0,0
358835,81.0466,-462.447,0,0
359096,81.0754,-461.805,0,0
359356,81.0539,-461.166,0,0
359616,81.0829,-460.597,0,0
359877,81.1333,-460.042,0,0
360137,81.1032,-459.531,0,0
360397,81.1164,-459.036,0,0
360658,81.0649,-458.541,0,0
360918,80.9165,-458.166,0,0
361178,80.8669,-457.648,0,0
361438,80.6823,-457.148,0,0
361699,80.5432,-456.613,0,0
361959,80.3659,-455.985,0,0
362219,80.203,-455.411,0,0
362480,80.0207,-454.657,0,0
362740.1,79.9721,-453.908,0,0
363000.425,79.9626,-453.092,0,0
363260.75,80.0133,-452.31,0,0
363521.075,80.2273,-451.586,0,0
363781.4,80.4321,-450.892,0,0
364041.725,80.6959,-450.222,0,0
364302.05,81.0182,-449.658,0,0
364562.375,81.3675,-449.102,0,0
364822.7,81.7418,-448.677,0,0
365083.025,82.0733,-448.273,0,0
365343.35,82.4535,-448.051,0,0
365603.675,82.7432,-447.788,0,0
365864.0,83.0019,-447.662,0,0
366124.325,83.2262,-447.645,0,0
366384.65,83.3853,-447.64,0,0
366644.975,83.4226,-447.645,0,0
366905.3,83.3149,-447.729,0,0
367165.625,83.2095,-447.801,0,0
367425.95,82.8911,-447.815,0,0
367686.275,82.529,-447.795,0,0
367946.6,82.006,-447.675,0,0
368206.925,81.432,-447.424,0,0
368467.25,80.8652,-447.056,0,0
368727.575,80.2808,-446.56,0,0
368987.9,79.7265,-445.88,0,0
369248.225,79.3289,-445.17,0,0
369508.55,78.9885,-444.312,0,0
369768.875,78.7648,-443.398,0,0
370029.2,78.7121,-442.556,0,0
370289.525,78.8044,-441.783,0,0
370549.85,78.9355,-441,0,0
370810.175,79.1247,-440.352,0,0
371070.5,79.4743,-439.732,0,0
371330.825,79.7254,-439.257,0,0
371591.15,80.0704,-438.904,0,0
371851.475,80.2553,-438.65,0,0
372111.8,80.4624,-438.41,0,0
372372.125,80.5765,-438.306,0,0
372632.45,80.5966,-438.175,0,0
372892.775,80.4848,-438.187,0,0
373153.1,80.3048,-438.073,0,0
373413.425,80.0165,-437.973,0,0
373673.75,79.6864,-437.747,0,0
373934.075,79.3666,-437.508,0,0
374194.4,78.9675,-437.154,0,0
374454.725,78.6303,-436.735,0,0
374715.05,78.2209,-436.278,0,0
374975.375,77.8322,-435.765,0,0
375235.7,77.5035,-435.181,0,0
375496.025,77.1846,-434.596,0,0
375756.35,76.9202,-433.943,0,0
376016.675,76.6587,-433.288,0,0
376277.0,76.4567,-432.575,0,0
376537.325,76.3183,-431.93,0,0
376797.65,76.2003,-431.252,0,0
377057.975,76.089,-430.521,0,0
377318.3,76.0095,-429.806,0,0
377578.625,75.9613,-429.029,0,0
377838.95,76.0003,-428.37,0,0
378099.275,76.0305,-427.578,0,0
378359.6,76.2112,-426.862,0,0
378619.925,76.4055,-426.218,0,0
378880,76.6274,-425.598,0,0
379141,76.9928,-425.065,0,0
379401,77.251,-424.614,0,0
379661,77.5649,-424.243,0,0
379922,77.7573,-423.939,0,0
380182,77.9428,-423.692,0,0
380442,78.06,-423.462,0,0
380703,78.1224,-423.26,0,0
380963,78.1367,-423.023,0,0
381223,78.1465,-422.745,0,0
381483,78.0991,-422.491,0,0
381744,77.9975,-422.156,0,0
382004,77.9581,-421.823,0,0
382264,77.9678,-421.513,0,0
382525,77.949,-421.215,0,0
382785,77.9024,-420.963,0,0
383045,77.8779,-420.716,0,0
383306,77.7953,-420.499,0,0
383566,77.6588,-420.283,0,0
383826,77.4949,-420.089,0,0
384087,77.242,-419.781,0,0
384347,77.0079,-419.461,0,0
384607,76.7675,-419.148,0,0
384868,76.4571,-418.789,0,0
385128,76.2179,-418.379,0,0
385388,75.9342,-418.02,0,0
385649,75.6663,-417.56,0,0
385909,75.4162,-417.127,0,0
386169,75.0851,-416.677,0,0
386430,74.7644,-416.174,0,0
386690,74.5116,-415.673,0,0
386950,74.2052,-415.099,0,0
387211,73.9099,-414.5,0,0
387471,73.5874,-413.86,0,0
387731,73.3232,-413.155,0,0
387992,73.0214,-412.449,0,0
388252,72.852,-411.675,0,0
388512,72.6731,-410.927,0,0
388773,72.51,-410.109,0,0
389033,72.3818,-409.289,0,0
389293,72.3307,-408.424,0,0
389554,72.2668,-407.593,0,0
389814,72.2912,-406.696,0,0
390074,72.3688,-405.834,0,0
390335,72.4778,-404.961,0,0
390595,72.6813,-404.057,0,0
390855,72.9697,-403.127,0,0
391116,73.2819,-402.352,0,0
391376,73.6511,-401.582,0,0
391636,74.0634,-400.864,0,0
391896,74.5059,-400.191,0,0
392157,74.9778,-399.605,0,0
392417,75.4118,-399.021,0,0
392677,75.8629,-398.514,0,0
392938,76.3173,-398.037,0,0
393198,76.7374,-397.552,0,0
393458,77.164,-397.113,0,0
393719,77.5726,-396.741,0,0
393979,77.9989,-396.357,0,0
394239,78.3994,-396.002,0,0
394500,78.834,-395.635,0,0
394760.05,79.3017,-395.33,0,0
395020.375,79.7685,-395.079,0,0
395280.7,80.2492,-394.842,0,0
395541.025,80.6513,-394.668,0,0
395801.35,81.0774,-394.512,0,0
396061.675,81.5371,-394.449,0,0
396322.0,81.9316,-394.371,0,0
396582.325,82.2598,-394.386,0,0
396842.65,82.5764,-394.391,0,0
397102.975,82.8831,-394.437,0,0
397363.3,83.0667,-394.467,0,0
397623.625,83.326,-394.52,0,0
397883.95,83.4891,-394.616,0,0
398144.275,83.69,-394.682,0,0
398404.6,83.7827,-394.774,0,0
398664.925,83.8731,-394.885,0,0
398925.25,83.9085,-395.063,0,0
399185.575,83.9137,-395.155,0,0
399445.9,83.8777,-395.311,0,0
399706.225,83.7859,-395.446,0,0
399966.55,83.6189,-395.549,0,0
400006.6,83.5554,-395.566,0,0