File: Accelerated corrosion test data/2025-10-22_18-00-04/sample_5.csv
Frequency (Hz),Impedance (ohms),Phase (Radians),Temperature (C),Humidity (%)
10000.0,3701.64,-3102.19,0,0
10260.325,3638.67,-3090.86,0,0
10520.65,3580.36,-3090.56,0,0
10780.975,3521.84,-3083.36,0,0
11041.3,3466.95,-3080.35,0,0
11301.625,3412.31,-3073.23,0,0
11561.95,3355.08,-3034.23,0,0
11822.275,3302.03,-3028.86,0,0
12082.6,3249.63,-3001.74,0,0
12342.925,3200.53,-3000.39,0,0
12603.25,3153.62,-3016.81,0,0
12863.575,3105.08,-2986.61,0,0
13123.9,3060.12,-3019.56,0,0
13384.225,3013.2,-3003.78,0,0
13644.55,2968.71,-3005.4,0,0
13904.875,2924.54,-2996.12,0,0
14165.2,2882.06,-2972.76,0,0
14425.525,2839.74,-2961.45,0,0
14685.8,2797.52,-2969.99,0,0
14946.175,2758.43,-2952.31,0,0
15206.5,2718.63,-2940.32,0,0
15466.825,2678.63,-2943.37,0,0
15727.15,2641.92,-2921.58,0,0
15987.5,2603.27,-2922.4,0,0
16247.8,2567.11,-2909.42,0,0
16508.125,2531.32,-2897.09,0,0
16768.45,2495.7,-2890.51,0,0
17028.775,2462.07,-2872.36,0,0
17289.1,2429.2,-2856.9,0,0
17549.425,2395,-2847.2,0,0
17809.75,2362.98,-2838.29,0,0
18070.075,2331.58,-2822.36,0,0
18330.4,2302.49,-2802.8,0,0
18590.725,2271.81,-2788.49,0,0
18851.05,2243.24,-2772.36,0,0
19111.375,2215.11,-2754.25,0,0
19371.7,2186.98,-2739.14,0,0
19632.025,2157.15,-2736.93,0,0
19892.35,2129.9,-2723.79,0,0
20152.675,2102.47,-2712.36,0,0
20413.0,2078.38,-2688.33,0,0
20673.3,2056.89,-2661.46,0,0
20933.65,2023.79,-2676.38,0,0
21193.975,1998.96,-2662.06,0,0
21454.3,1973.49,-2653.59,0,0
21714.625,1950.42,-2637.45,0,0
21974.9,1927.41,-2623.39,0,0
22235.275,1902.97,-2614.4,0,0
22495.6,1878.72,-2604.58,0,0
22755.925,1877.64,-2525.83,0,0
23016.25,1841.97,-2559.05,0,0
23276.6,1818.1,-2552.55,0,0
23536.9,1794.25,-2548.24,0,0
23797.225,1776.88,-2524.39,0,0
24057.55,1755.84,-2514.38,0,0
24317.875,1734.44,-2506.43,0,0
24578.2,1710.32,-2505.79,0,0
24838.525,1694.87,-2483.78,0,0
25098.85,1666.04,-2495.34,0,0
25359.175,1647.12,-2484.06,0,0
25619.5,1628.28,-2472.45,0,0
25879.8,1610.59,-2459.2,0,0
26140.1,1592.17,-2452.34,0,0
26400.5,1573.84,-2441.76,0,0
26660.8,1556.49,-2429.9,0,0
26921.1,1539.48,-2417.84,0,0
27181.4,1523.21,-2404.78,0,0
27441.8,1504.86,-2397.01,0,0
27702.1,1488.52,-2385.4,0,0
27962.4,1472.72,-2373.28,0,0
28222.7,1454.92,-2365.85,0,0
28483.1,1437.4,-2358.26,0,0
28743.4,1420.63,-2349.96,0,0
29003.7,1405.22,-2338.71,0,0
29264,1388.66,-2330.81,0,0
29524.4,1373.51,-2321.13,0,0
29784.7,1360.31,-2307.11,0,0
30045,1347.45,-2294.08,0,0
30305.3,1332.84,-2284.24,0,0
30565.7,1317.14,-2276.62,0,0
30826,1303.73,-2265.56,0,0
31086.3,1290.31,-2254.73,0,0
31346.6,1278.86,-2241.74,0,0
31607,1266.48,-2230.53,0,0
31867.3,1251.5,-2223.27,0,0
32127.6,1240.29,-2210.65,0,0
32387.9,1227.27,-2201.77,0,0
32648.3,1218.1,-2186.32,0,0
32908.6,1205.62,-2176.96,0,0
33168.9,1191,-2171.2,0,0
33429.2,1178.96,-2161.94,0,0
33689.6,1166.03,-2154.18,0,0
33949.9,1154.73,-2144.26,0,0
34210.2,1144.12,-2133.54,0,0
34470.5,1133.32,-2123.33,0,0
34730.9,1122.48,-2113.75,0,0
34991.2,1112.69,-2102.71,0,0
35251.5,1102.51,-2092.46,0,0
35511.8,1091.67,-2084,0,0
35772.2,1081.08,-2074.79,0,0
36032.5,1070.16,-2066.55,0,0
36292.8,1062.27,-2053.99,0,0
36553.1,1051.83,-2045.48,0,0
36813.5,1041.66,-2037.06,0,0
37073.8,1032.49,-2027.5,0,0
37334.1,1022.87,-2018.7,0,0
37594.4,1013.98,-2009.19,0,0
37854.8,1005.86,-1998.59,0,0
38115.1,997.48,-1988.8,0,0
38375.4,988.82,-1979.84,0,0
38635.7,980.482,-1970.56,0,0
38896.1,971.893,-1961.46,0,0
39156.4,964.039,-1952.11,0,0
39416.7,955.146,-1943.99,0,0
39677,947.686,-1934.45,0,0
39937.4,939.499,-1925.89,0,0
40197.7,931.988,-1916.37,0,0
40458,928.603,-1902.47,0,0
40718.3,917.784,-1897.97,0,0
40978.7,902.87,-1898.53,0,0
41239,895.268,-1890.14,0,0
41499.3,887.677,-1881.88,0,0
41759.6,878.06,-1876.28,0,0
42020,871.695,-1866.95,0,0
42280.275,868.317,-1855.64,0,0
42540.6,857.806,-1851.39,0,0
42800.925,850.434,-1843.56,0,0
43061.25,844.172,-1834.97,0,0
43321.575,839.248,-1824.8,0,0
43581.9,830.417,-1819.29,0,0
43842.225,822.635,-1812.79,0,0
44102.55,815.78,-1805.18,0,0
44362.875,811.427,-1794.63,0,0
44623.2,804.51,-1787.73,0,0
44883.525,799.287,-1778.71,0,0
45143.85,793.852,-1770.28,0,0
45404.175,791.45,-1758.58,0,0
45664.5,792.018,-1743.79,0,0
45924.825,787.529,-1734.46,0,0
46185.15,782.168,-1726.85,0,0
46445.475,773.213,-1723.16,0,0
46705.8,764.176,-1719.35,0,0
46966.125,762.361,-1707.84,0,0
47226.45,746.627,-1711.98,0,0
47486.775,747.595,-1697.74,0,0
47747.1,730.323,-1703.27,0,0
48007.425,725.671,-1695.56,0,0
48267.75,723.959,-1684.86,0,0
48528.075,725.477,-1670.5,0,0
48788.4,711.476,-1673.03,0,0
49048.725,705.075,-1667.89,0,0
49309.05,703.645,-1657.44,0,0
49569.375,702.939,-1646.36,0,0
49829.7,690.476,-1647.69,0,0
50090.025,684.73,-1642.25,0,0
50350.35,680.432,-1635.53,0,0
50610.675,677.108,-1627.57,0,0
50871.0,672.545,-1621.19,0,0
51131.325,667.332,-1615.37,0,0
51391.65,663.64,-1608.09,0,0
51651.975,659.621,-1601.22,0,0
51912.3,654.545,-1595.6,0,0
52172.625,649.306,-1590.06,0,0
52432.95,648.773,-1579.89,0,0
52693.275,637.123,-1580.58,0,0
52953.6,630.38,-1576.63,0,0
53213.925,633.03,-1563.63,0,0
53474.25,631.545,-1555.11,0,0
53734.575,619.873,-1556.08,0,0
53994.9,614.949,-1550.65,0,0
54255.225,619.561,-1536.48,0,0
54515.55,616.486,-1529.47,0,0
54775.875,638.09,-1497.97,0,0
55036.2,625.174,-1502.12,0,0
55296.525,615.298,-1502.36,0,0
55556.85,607.34,-1500.32,0,0
55817.175,608.081,-1489.68,0,0
56077.5,607.077,-1481.52,0,0
56337.825,590.686,-1488.18,0,0
56598.15,575.872,-1492.8,0,0
56858.475,572.214,-1487.35,0,0
57118.8,567.76,-1482.8,0,0
57379.125,566.614,-1475.16,0,0
57639.45,565.78,-1467.12,0,0
57899.775,560.632,-1463.09,0,0
58160.1,555.125,-1460.18,0,0
58420.4,554.216,-1452.44,0,0
58680.7,550.029,-1447.72,0,0
58941.1,539.789,-1448.22,0,0
59201.4,536.578,-1442.61,0,0
59461.7,530.325,-1439.39,0,0
59722,527.387,-1433.62,0,0
59982.4,523.711,-1428.44,0,0
60242.7,521.589,-1422.16,0,0
60503,520.923,-1414.59,0,0
60763.3,517.631,-1409.02,0,0
61023.7,514.482,-1403.65,0,0
61284,511.297,-1398.41,0,0
61544.3,507.677,-1393.66,0,0
61804.6,504.265,-1388.67,0,0
62065,499.363,-1384.89,0,0
62325.3,492.745,-1382.86,0,0
62585.6,498.722,-1370.43,0,0
62845.9,489.561,-1370.72,0,0
63106.3,487.223,-1365.46,0,0
63366.6,486.008,-1359.3,0,0
63626.9,484.385,-1353.38,0,0
63887.2,484.099,-1346.79,0,0
64147.6,479.229,-1343.64,0,0
64407.9,476.309,-1338.91,0,0
64668.2,473.626,-1334.11,0,0
64928.5,473.28,-1327.47,0,0
65188.9,471.506,-1322.1,0,0
65449.2,468.403,-1317.52,0,0
65709.5,466.587,-1311.93,0,0
65969.8,463.847,-1307.18,0,0
66230.2,460.709,-1302.82,0,0
66490.5,458.186,-1298.22,0,0
66750.8,455.446,-1293.43,0,0
67011.1,452.702,-1289.31,0,0
67271.5,450.306,-1284.92,0,0
67531.8,447.827,-1280.32,0,0
67792.1,446.243,-1275.14,0,0
68052.4,443.365,-1271.37,0,0
68312.8,440.394,-1267.63,0,0
68573.1,438.124,-1263.05,0,0
68833.4,435.446,-1258.83,0,0
69093.7,432.235,-1255.18,0,0
69354.1,430.441,-1250.67,0,0
69614.4,427.879,-1246.51,0,0
69874.7,426.141,-1242.03,0,0
70135,421.789,-1239.58,0,0
70395.4,417.794,-1236.92,0,0
70655.7,416.312,-1232.48,0,0
70916,414.772,-1227.85,0,0
71176.3,412.719,-1223.6,0,0
71436.7,411.59,-1218.83,0,0
71697,410.427,-1214.37,0,0
71957.3,409.576,-1209.23,0,0
72217.6,408.252,-1204.62,0,0
72478,405.086,-1201.43,0,0
72738.3,401.814,-1198.48,0,0
72998.6,400.045,-1194.48,0,0
73258.9,398.28,-1190.39,0,0
73519.3,395.165,-1187.54,0,0
73779.6,394.093,-1182.93,0,0
74039.9,394.387,-1177.69,0,0
74300.225,383.465,-1181.09,0,0
74560.55,391.428,-1170.21,0,0
74820.875,390.773,-1165.67,0,0
75081.2,388.632,-1162.27,0,0
75341.525,385.212,-1159.77,0,0
75601.85,383.863,-1155.58,0,0
75862.175,380.222,-1153.04,0,0
76122.5,377.417,-1149.87,0,0
76382.825,373.301,-1147.73,0,0
76643.15,371.388,-1143.91,0,0
76903.475,368.82,-1140.67,0,0
77163.8,366.522,-1137.2,0,0
77424.125,364.079,-1133.71,0,0
77684.45,362.063,-1130.04,0,0
77944.775,360.643,-1126.04,0,0
78205.1,354.439,-1125.46,0,0
78465.425,351.484,-1122.61,0,0
78725.75,352.355,-1117.17,0,0
78986.075,351.943,-1112.64,0,0
79246.4,345.669,-1112.15,0,0
79506.725,350.898,-1103.81,0,0
79767.05,348.631,-1100.79,0,0
80027.375,348.581,-1096.27,0,0
80287.7,348.373,-1091.75,0,0
80548.025,348.153,-1087.26,0,0
80808.35,342.794,-1086.22,0,0
81068.675,340.568,-1083.2,0,0
81329.0,338.96,-1079.58,0,0
81589.325,337.466,-1075.77,0,0
81849.65,344.255,-1066.34,0,0
82109.975,331.299,-1070.62,0,0
82370.3,331.694,-1065.7,0,0
82630.625,330.785,-1061.62,0,0
82890.95,332.695,-1055.46,0,0
83151.275,327.111,-1054.62,0,0
83411.6,324.566,-1051.79,0,0
83671.925,322.395,-1048.66,0,0
83932.25,320.192,-1045.55,0,0
84192.575,319.031,-1041.89,0,0
84452.9,317.674,-1038.36,0,0
84713.225,316.38,-1034.85,0,0
84973.55,314.767,-1031.35,0,0
85233.875,313.662,-1027.84,0,0
85494.2,312.33,-1024.52,0,0
85754.525,311.248,-1021.03,0,0
86014.85,309.807,-1017.74,0,0
86275.175,309.758,-1013.37,0,0
86535.5,308.55,-1009.89,0,0
86795.825,307.142,-1006.54,0,0
87056.15,298.624,-1007.69,0,0
87316.475,301.613,-1001.52,0,0
87576.8,300.527,-997.743,0,0
87837.125,300.113,-993.58,0,0
88097.45,296.838,-991.282,0,0
88357.775,295.396,-987.788,0,0
88618.1,294.131,-984.143,0,0
88878.425,292.885,-980.864,0,0
89138.75,291.921,-977.324,0,0
89399.075,290.699,-973.966,0,0
89659.4,290.078,-970.556,0,0
89919.725,289.366,-967.094,0,0
90180,286.125,-965.608,0,0
90440.4,284.624,-962.757,0,0
90700.7,286.068,-958.318,0,0
90961,290.242,-951.964,0,0
91221.3,285.664,-951.336,0,0
91481.7,286.131,-947.573,0,0
91742,285.185,-944.644,0,0
92002.3,284.209,-941.73,0,0
92262.6,284.233,-938.301,0,0
92523,282.488,-936.028,0,0
92783.3,281.426,-933.163,0,0
93043.6,282.189,-929.02,0,0
93303.9,282.448,-925.075,0,0
93564.3,278.384,-924.078,0,0
93824.6,277.151,-921.235,0,0
94084.9,275.799,-918.296,0,0
94345.2,274.959,-915.052,0,0
94605.6,275.526,-910.922,0,0
94865.9,275.242,-907.355,0,0
95126.2,274.517,-904.273,0,0
95386.5,273.255,-901.485,0,0
95646.9,271.144,-899.229,0,0
95907.2,270.061,-896.364,0,0
96167.5,269.405,-893.239,0,0
96427.8,268.769,-890.071,0,0
96688.2,267.807,-887.107,0,0
96948.5,267.357,-883.728,0,0
97208.8,266.297,-880.753,0,0
97469.1,265.491,-877.626,0,0
97729.5,266.171,-873.477,0,0
97989.8,265.618,-870.141,0,0
98250.1,268.369,-864.691,0,0
98510.4,268.629,-860.918,0,0
98770.8,267.862,-857.807,0,0
99031.1,267.598,-854.405,0,0
99291.4,266.719,-851.518,0,0
99551.7,265.521,-848.799,0,0
99812.1,264.901,-845.704,0,0
100072,265.026,-842.188,0,0
100333,264.325,-839.341,0,0
100593,263.84,-836.395,0,0
100853,262.596,-834.068,0,0
101114,262.557,-830.976,0,0
101374,260.737,-829.154,0,0
101634,260.606,-826.127,0,0
101895,261.245,-822.475,0,0
102155,260.951,-819.608,0,0
102415,261.042,-816.402,0,0
102676,260.393,-813.562,0,0
102936,258.742,-811.474,0,0
103196,257.513,-809.075,0,0
103457,256.864,-806.212,0,0
103717,257.18,-802.754,0,0
103977,256.775,-799.766,0,0
104238,255.829,-797.2,0,0
104498,254.457,-794.907,0,0
104758,253.48,-792.439,0,0
105019,252.344,-789.975,0,0
105279,251.487,-787.286,0,0
105539,249.715,-785.178,0,0
105800,248.907,-782.49,0,0
106060,248.034,-779.693,0,0
106320.175,246.928,-777.142,0,0
106580.5,246.386,-774.128,0,0
106840.825,245.407,-771.374,0,0
107101.15,244.792,-768.467,0,0
107361.475,243.699,-765.867,0,0
107621.8,242.454,-763.346,0,0
107882.125,242.151,-760.27,0,0
108142.45,240.561,-758.06,0,0
108402.775,239.852,-755.171,0,0
108663.1,238.452,-753.027,0,0
108923.425,238.081,-750.025,0,0
109183.75,237.296,-747.297,0,0
109444.075,235.969,-745.048,0,0
109704.4,235.144,-742.416,0,0
109964.725,234.323,-739.685,0,0
110225.05,233.042,-737.22,0,0
110485.375,231.097,-735.436,0,0
110745.7,230.2,-732.715,0,0
111006.025,225.9,-732.399,0,0
111266.35,226.703,-728.691,0,0
111526.675,225.586,-726.081,0,0
111787.0,224.867,-723.469,0,0
112047.325,222.71,-721.627,0,0
112307.65,223.262,-718.02,0,0
112567.975,222.523,-715.336,0,0
112828.3,222.309,-712.239,0,0
113088.625,221.461,-709.786,0,0
113348.95,220.889,-706.976,0,0
113609.275,220.96,-703.925,0,0
113869.6,220.081,-701.586,0,0
114129.925,220.215,-698.438,0,0
114390.25,219.749,-695.69,0,0
114650.575,219.943,-692.738,0,0
114910.9,218.387,-691.026,0,0
115171.225,217.45,-688.498,0,0
115431.55,216.457,-685.907,0,0
115691.875,215.894,-683.187,0,0
115952.2,215.547,-680.362,0,0
116212.525,215.446,-677.573,0,0
116472.85,215.193,-674.871,0,0
116733.175,211.792,-674.196,0,0
116993.5,210.146,-672.263,0,0
117253.825,209.764,-669.55,0,0
117514.15,207.071,-668.53,0,0
117774.475,204.589,-667.471,0,0
118034.8,203.529,-665.389,0,0
118295.125,203.058,-663.075,0,0
118555.45,203.033,-660.445,0,0
118815.775,202.492,-658.212,0,0
119076.1,202.311,-655.741,0,0
119336.425,201.84,-653.586,0,0
119596.75,201.429,-651.255,0,0
119857.075,201.222,-648.832,0,0
120117.4,200.457,-646.926,0,0
120377.725,200.207,-644.55,0,0
120638.05,199.542,-642.412,0,0
120898.375,198.935,-640.272,0,0
121158.7,198.661,-637.913,0,0
121419.025,197.769,-635.948,0,0
121679.35,197.311,-633.699,0,0
121939.675,196.907,-631.332,0,0
122200.0,196.289,-629.119,0,0
122460,194.965,-627.531,0,0
122721,194.502,-625.175,0,0
122981,194.011,-622.757,0,0
123241,193.275,-620.31,0,0
123502,192.573,-617.849,0,0
123762,192.333,-615.064,0,0
124022,191.542,-612.679,0,0
124283,191.411,-609.908,0,0
124543,191.079,-607.349,0,0
124803,190.924,-604.707,0,0
125064,190.799,-602.023,0,0
125324,190.668,-599.494,0,0
125584,190.647,-596.936,0,0
125845,190.38,-594.736,0,0
126105,190.442,-592.197,0,0
126365,190.324,-589.804,0,0
126626,190.026,-587.409,0,0
126886,189.743,-585.098,0,0
127146,189.043,-583.076,0,0
127406,189.542,-580.166,0,0
127667,189.491,-577.713,0,0
127927,188.64,-575.794,0,0
128187,188.104,-573.59,0,0
128448,187.868,-571.173,0,0
128708,187.434,-568.802,0,0
128968,187.07,-566.385,0,0
129229,187.304,-563.551,0,0
129489,185.567,-562.172,0,0
129749,184.89,-559.934,0,0
130010,184.303,-557.561,0,0
130270,183.787,-555.026,0,0
130530,183.095,-552.696,0,0
130791,182.685,-550.111,0,0
131051,182.545,-547.21,0,0
131311,181.763,-544.709,0,0
131572,181.238,-541.981,0,0
131832,180.839,-539.125,0,0
132092,180.559,-536.243,0,0
132353,180.352,-533.371,0,0
132613,180.409,-530.321,0,0
132873,180.507,-527.208,0,0
133134,180.299,-524.4,0,0
133394,180.213,-521.512,0,0
133654,180.134,-518.586,0,0
133915,180.338,-515.452,0,0
134175,180.329,-512.569,0,0
134435,180.636,-509.526,0,0
134696,180.521,-506.865,0,0
134956,180.657,-503.891,0,0
135216,180.832,-500.854,0,0
135477,180.898,-497.816,0,0
135737,181.071,-494.852,0,0
135997,181.327,-491.973,0,0
136258,181.799,-488.967,0,0
136518,182.202,-486.059,0,0
136778,182.697,-483.125,0,0
137039,183.189,-480.226,0,0
137299,183.704,-477.405,0,0
137559,184.304,-474.593,0,0
137819,184.972,-471.71,0,0
138080,185.497,-468.928,0,0
138340.125,186.305,-466.073,0,0
138600.45,186.792,-463.53,0,0
138860.775,187.566,-460.768,0,0
139121.1,188.1,-458.305,0,0
139381.425,188.621,-455.586,0,0
139641.75,189.148,-452.83,0,0
139902.075,189.709,-450.22,0,0
140162.4,190.247,-447.62,0,0
140422.725,190.851,-444.949,0,0
140683.05,191.268,-442.427,0,0
140943.375,191.77,-439.801,0,0
141203.7,192.191,-437.341,0,0
141464.025,192.63,-434.758,0,0
141724.35,193.151,-432.031,0,0
141984.675,193.644,-429.328,0,0
142245.0,194.177,-426.628,0,0
142505.325,194.708,-424.09,0,0
142765.65,195.317,-421.364,0,0
143025.975,195.71,-418.699,0,0
143286.3,196.29,-415.841,0,0
143546.625,196.744,-413.141,0,0
143806.95,197.219,-410.546,0,0
144067.275,197.562,-407.9,0,0
144327.6,197.882,-405.219,0,0
144587.925,198.403,-402.103,0,0
144848.25,199.161,-398.865,0,0
145108.575,199.58,-396.13,0,0
145368.9,199.944,-393.395,0,0
145629.225,200.414,-390.461,0,0
145889.55,200.954,-387.493,0,0
146149.875,201.531,-384.488,0,0
146410.2,202.149,-381.325,0,0
146670.525,202.697,-378.207,0,0
146930.85,203.406,-374.968,0,0
147191.175,204.209,-371.664,0,0
147451.5,205.092,-368.387,0,0
147711.825,206.02,-365.123,0,0
147972.15,206.909,-361.936,0,0
148232.475,207.974,-358.729,0,0
148492.8,208.912,-355.597,0,0
148753.125,209.849,-352.387,0,0
149013.45,210.873,-349.029,0,0
149273.775,211.761,-345.742,0,0
149534.1,212.777,-342.191,0,0
149794.425,213.869,-338.526,0,0
150054.75,214.904,-335.185,0,0
150315.075,216.064,-331.584,0,0
150575.4,217.289,-327.746,0,0
150835.725,218.763,-323.861,0,0
151096.05,220.484,-319.962,0,0
151356.375,222.224,-316.207,0,0
151616.7,224.027,-312.584,0,0
151877.025,225.963,-308.758,0,0
152137.35,228.043,-305,0,0
152397.675,230.024,-301.333,0,0
152658.0,232.175,-297.59,0,0
152918.325,234.4,-293.888,0,0
153178.65,236.799,-290.018,0,0
153438.975,239.292,-286.444,0,0
153699.3,241.91,-282.847,0,0
153959.625,244.628,-279.226,0,0
154219.95,247.329,-275.598,0,0
154480,250.275,-272.226,0,0
154741,253.397,-268.573,0,0
155001,256.698,-265.187,0,0
155261,260.046,-261.812,0,0
155522,263.557,-258.414,0,0
155782,267.105,-255.575,0,0
156042,270.716,-252.764,0,0
156303,274.295,-250.101,0,0
156563,277.902,-247.564,0,0
156823,281.538,-245.131,0,0
157084,285.08,-242.839,0,0
157344,288.54,-240.663,0,0
157604,291.859,-238.452,0,0
157864,295.128,-236.154,0,0
158125,298.459,-233.878,0,0
158385,301.784,-231.507,0,0
158645,305.17,-229.058,0,0
158906,308.743,-226.711,0,0
159166,312.366,-224.162,0,0
159426,316.178,-221.876,0,0
159687,320.17,-219.478,0,0
159947,324.282,-217.286,0,0
160207,328.398,-215.253,0,0
160468,332.525,-213.203,0,0
160728,336.735,-211.469,0,0
160988,341.082,-209.698,0,0
161249,345.569,-207.955,0,0
161509,350.128,-206.683,0,0
161769,354.526,-205.337,0,0
162030,358.928,-204.143,0,0
162290,363.411,-203.11,0,0
162550,367.85,-202.126,0,0
162811,372.286,-201.392,0,0
163071,376.735,-200.952,0,0
163331,381.127,-200.533,0,0
163592,385.436,-200.261,0,0
163852,389.728,-200.226,0,0
164112,393.801,-200.381,0,0
164373,397.654,-200.519,0,0
164633,401.346,-200.527,0,0
164893,404.89,-200.692,0,0
165154,408.411,-200.668,0,0
165414,411.849,-200.732,0,0
165674,415.28,-200.774,0,0
165935,418.836,-200.867,0,0
166195,422.336,-200.931,0,0
166455,425.594,-201.094,0,0
166716,428.778,-201.043,0,0
166976,431.766,-200.694,0,0
167236,435.495,-201.189,0,0
167497,438.749,-201.096,0,0
167757,442.14,-201.414,0,0
168017,445.474,-201.718,0,0
168277,448.613,-202.01,0,0
168538,451.842,-202.309,0,0
168798,455.088,-202.545,0,0
169058,458.187,-202.666,0,0
169319,461.428,-202.922,0,0
169579,464.443,-203.058,0,0
169839,467.679,-203.367,0,0
170100,470.879,-203.414,0,0
170360.075,474.266,-203.721,0,0
170620.4,477.702,-204.065,0,0
170880.725,481.268,-204.566,0,0
171141.05,484.537,-204.984,0,0
171401.375,487.68,-205.676,0,0
171661.7,490.781,-206.58,0,0
171922.025,493.669,-207.116,0,0
172182.35,496.778,-207.948,0,0
172442.675,499.732,-208.672,0,0
172703.0,502.192,-208.778,0,0
172963.325,505.727,-210.161,0,0
173223.65,508.626,-211.011,0,0
173483.975,511.416,-211.914,0,0
173744.3,513.918,-212.588,0,0
174004.625,516.65,-213.374,0,0
174264.95,519.115,-213.853,0,0
174525.275,521.715,-214.33,0,0
174785.6,524.505,-214.734,0,0
175045.925,526.974,-215.013,0,0
175306.25,530.006,-215.513,0,0
175566.575,532.64,-215.702,0,0
175826.9,535.573,-216.089,0,0
176087.225,538.635,-216.513,0,0
176347.55,541.659,-216.824,0,0
176607.875,544.693,-217.235,0,0
176868.2,547.598,-217.507,0,0
177128.525,550.96,-218.314,0,0
177388.85,554.118,-218.838,0,0
177649.175,557.369,-219.563,0,0
177909.5,560.492,-220.322,0,0
178169.825,563.692,-221.202,0,0
178430.15,566.715,-222.066,0,0
178690.475,569.722,-223.078,0,0
178950.8,572.464,-223.862,0,0
179211.125,575.605,-224.963,0,0
179471.45,578.36,-225.75,0,0
179731.775,581.304,-226.685,0,0
179992.1,583.971,-227.336,0,0
180252.425,586.701,-228.026,0,0
180512.75,589.519,-228.677,0,0
180773.075,592.561,-229.325,0,0
181033.4,595.668,-230.023,0,0
181293.725,598.771,-230.67,0,0
181554.05,602.08,-231.075,0,0
181814.375,605.246,-231.462,0,0
182074.7,608.872,-232.151,0,0
182335.025,612.541,-232.871,0,0
182595.35,616.172,-233.647,0,0
182855.675,619.988,-234.666,0,0
183116.0,623.654,-235.574,0,0
183376.325,627.231,-236.599,0,0
183636.65,630.829,-237.719,0,0
183896.975,634.92,-239.441,0,0
184157.3,638.717,-241.103,0,0
184417.625,642.548,-242.856,0,0
184677.95,646.16,-244.565,0,0
184938.275,649.517,-246.031,0,0
185198.6,652.663,-247.48,0,0
185458.925,656.127,-249.07,0,0
185719.25,659.422,-250.458,0,0
185979.575,663.229,-252.089,0,0
186239.9,666.588,-253.675,0,0
186500,669.845,-254.733,0,0
186761,673.145,-256.019,0,0
187021,676.899,-257.561,0,0
187281,680.564,-258.869,0,0
187542,684.492,-260.354,0,0
187802,688.531,-261.782,0,0
188062,692.548,-263.145,0,0
188322,696.231,-263.944,0,0
188583,701.383,-265.931,0,0
188843,706.013,-267.496,0,0
189103,710.989,-269.36,0,0
189364,716.052,-271.383,0,0
189624,720.994,-273.221,0,0
189884,725.93,-275.438,0,0
190145,731.442,-277.953,0,0
190405,737.319,-280.945,0,0
190665,742.635,-283.541,0,0
190926,748.095,-286.565,0,0
191186,752.823,-288.834,0,0
191446,758.733,-292.364,0,0
191707,764.47,-296.06,0,0
191967,770.11,-299.93,0,0
192227,776.493,-304.528,0,0
192488,782.084,-309.145,0,0
192748,787.913,-314.031,0,0
193008,794.144,-319.634,0,0
193269,799.23,-324.443,0,0
193529,805.151,-330.469,0,0
193789,809.94,-335.7,0,0
194050,816.152,-342.948,0,0
194310,821.328,-349.727,0,0
194570,825.568,-355.616,0,0
194831,830.521,-362.879,0,0
195091,835.131,-370.151,0,0
195351,839.569,-377.754,0,0
195612,843.64,-385.26,0,0
195872,847.794,-393.522,0,0
196132,852.046,-402.193,0,0
196393,856.044,-411.592,0,0
196653,859.18,-420.077,0,0
196913,862.988,-430.446,0,0
197174,865.151,-439.274,0,0
197434,866.782,-447.88,0,0
197694,869.257,-458.279,0,0
197955,870.381,-467.292,0,0
198215,871.867,-477.286,0,0
198475,872.345,-486.479,0,0
198735,873.287,-497.172,0,0
198996,873.467,-506.96,0,0
199256,873.102,-516.511,0,0
199516,872.803,-526.991,0,0
199777,871.922,-536.488,0,0
200037,871.028,-546.286,0,0
200297,869.578,-556.25,0,0
200558,867.739,-566.078,0,0
200818,866.503,-578.04,0,0
201078,863.492,-586.058,0,0
201339,860.375,-594.449,0,0
201599,857.563,-604.56,0,0
201859,854.427,-613.858,0,0
202120,850.414,-622.835,0,0
202380.025,847.016,-632.239,0,0
202640.35,842.873,-641.154,0,0
202900.675,838.568,-649.525,0,0
203161.0,834.239,-659.773,0,0
203421.325,829.134,-667.274,0,0
203681.65,824.048,-675.814,0,0
203941.975,818.336,-681.953,0,0
204202.3,812.652,-689.586,0,0
204462.625,807.342,-698.345,0,0
204722.95,801.114,-704.999,0,0
204983.275,794.9,-711.613,0,0
205243.6,788.725,-719.886,0,0
205503.925,782.141,-728.317,0,0
205764.25,775.414,-733.745,0,0
206024.575,768.469,-738.291,0,0
206284.9,761.37,-744.213,0,0
206545.225,754.257,-750.19,0,0
206805.55,747.078,-756.212,0,0
207065.875,739.763,-762.674,0,0
207326.2,732.318,-766.863,0,0
207586.525,724.868,-770.835,0,0
207846.85,717.277,-775.309,0,0
208107.175,709.692,-779.115,0,0
208367.5,702.282,-784.025,0,0
208627.825,694.198,-788.631,0,0
208888.15,687.142,-789.904,0,0
209148.475,679.44,-793.267,0,0
209408.8,672.072,-794.594,0,0
209669.125,664.402,-797.439,0,0
209929.45,656.729,-800.28,0,0
210189.775,649.143,-802.291,0,0
210450.1,641.799,-804.14,0,0
210710.425,634.132,-806.881,0,0
210970.75,627.046,-807.397,0,0
211231.075,619.875,-807.97,0,0
211491.4,612.401,-809.523,0,0
211751.725,605.201,-810.627,0,0
212012.05,598.203,-811.087,0,0
212272.375,591.409,-811.073,0,0
212532.7,584.337,-811.973,0,0
212793.025,577.774,-811.669,0,0
213053.35,571.524,-810.401,0,0
213313.675,564.554,-811.47,0,0
213574.0,558.377,-810.138,0,0
213834.325,551.568,-810.955,0,0
214094.65,545.362,-809.869,0,0
214354.975,539.161,-808.73,0,0
214615.3,533.209,-807.867,0,0
214875.625,527.02,-807.853,0,0
215135.95,521.094,-806.62,0,0
215396.275,515.126,-805.73,0,0
215656.6,509.248,-804.784,0,0
215916.925,503.895,-802.605,0,0
216177.25,498.12,-801.836,0,0
216437.575,492.92,-799.73,0,0
216697.9,487.404,-798.717,0,0
216958.225,482.509,-796.299,0,0
217218.55,476.911,-795.351,0,0
217478.875,471.642,-793.901,0,0
217739.2,467.204,-791.291,0,0
217999.525,462.133,-789.732,0,0
218259.85,457.229,-787.8,0,0
218520,452.142,-786.8,0,0
218780,447.443,-784.677,0,0
219041,442.493,-782.976,0,0
219301,438.369,-780.204,0,0
219561,433.937,-777.959,0,0
219822,429.802,-775.355,0,0
220082,425.623,-772.805,0,0
220342,421.712,-770.531,0,0
220603,417.756,-767.762,0,0
220863,413.777,-765.13,0,0
221123,410.169,-762.305,0,0
221384,405.909,-760.558,0,0
221644,402.636,-757.461,0,0
221904,398.907,-755.206,0,0
222165,396.201,-751.718,0,0
222425,393.003,-748.958,0,0
222685,389.998,-746.147,0,0
222946,386.591,-743.902,0,0
223206,383.95,-740.998,0,0
223466,381.874,-737.248,0,0
223727,379.368,-734.535,0,0
223987,377.032,-731.352,0,0
224247,373.993,-729.391,0,0
224508,371.939,-726.435,0,0
224768,370.072,-723.013,0,0
225028,368.026,-720.373,0,0
225289,366.01,-717.83,0,0
225549,364.648,-714.424,0,0
225809,362.402,-712.123,0,0
226070,360.773,-709.299,0,0
226330,359.942,-705.967,0,0
226590,358.098,-703.62,0,0
226851,356.706,-700.699,0,0
227111,355.305,-698.368,0,0
227371,353.759,-696.218,0,0
227632,352.84,-693.115,0,0
227892,351.618,-690.775,0,0
228152,350.964,-687.962,0,0
228413,350.24,-685.073,0,0
228673,348.583,-683.633,0,0
228933,348.041,-680.85,0,0
229193,347.852,-677.748,0,0
229454,346.546,-675.915,0,0
229714,346.381,-673.124,0,0
229974,345.516,-671.026,0,0
230235,344.466,-669.691,0,0
230495,343.604,-667.857,0,0
230755,343.396,-665.275,0,0
231016,342.876,-663.32,0,0
231276,342.311,-661.407,0,0
231536,342.315,-658.864,0,0
231797,341.656,-657.261,0,0
232057,341.246,-655.536,0,0
232317,341.206,-653.393,0,0
232578,340.727,-651.867,0,0
232838,340.686,-649.931,0,0
233098,340.569,-648.108,0,0
233359,340.421,-646.429,0,0
233619,340.579,-644.428,0,0
233879,339.993,-643.477,0,0
234140,340.48,-641.249,0,0
234400,340.206,-640.263,0,0
234660.3,340.22,-638.892,0,0
234920.625,340.391,-637.386,0,0
235180.95,340.609,-636.077,0,0
235441.275,340.915,-634.657,0,0
235701.6,341.007,-633.409,0,0
235961.925,341.445,-632.067,0,0
236222.25,341.919,-630.665,0,0
236482.575,342.209,-629.646,0,0
236742.9,342.623,-628.554,0,0
237003.225,343.022,-627.555,0,0
237263.55,343.375,-626.816,0,0
237523.875,344.32,-625.409,0,0
237784.2,344.907,-624.324,0,0
238044.525,345.496,-623.52,0,0
238304.85,345.86,-623.177,0,0
238565.175,346.195,-622.882,0,0
238825.5,346.622,-622.469,0,0
239085.825,346.891,-622.385,0,0
239346.15,347.363,-622.145,0,0
239606.475,347.698,-622.185,0,0
239866.8,348.226,-621.951,0,0
240127.125,348.585,-621.772,0,0
240387.45,349.404,-620.871,0,0
240647.775,349.57,-621.394,0,0
240908.1,349.864,-621.438,0,0
241168.425,350.213,-621.458,0,0
241428.75,350.594,-621.463,0,0
241689.075,350.666,-621.841,0,0
241949.4,350.642,-622.426,0,0
242209.725,350.995,-622.284,0,0
242470.05,351.137,-622.658,0,0
242730.375,351.182,-622.887,0,0
242990.7,350.89,-623.646,0,0
243251.025,350.895,-623.854,0,0
243511.35,350.787,-624.079,0,0
243771.675,350.697,-624.332,0,0
244032.0,350.344,-624.872,0,0
244292.325,349.799,-625.492,0,0
244552.65,349.502,-625.747,0,0
244812.975,349.081,-626.212,0,0
245073.3,348.205,-627.226,0,0
245333.625,347.66,-627.271,0,0
245593.95,346.83,-627.699,0,0
245854.275,346.275,-627.692,0,0
246114.6,345.474,-627.991,0,0
246374.925,344.576,-628.417,0,0
246635.25,344.086,-627.921,0,0
246895.575,343.138,-628.04,0,0
247155.9,342.438,-627.661,0,0
247416.225,341.553,-627.445,0,0
247676.55,340.722,-626.977,0,0
247936.875,339.405,-627.015,0,0
248197.2,339.034,-625.813,0,0
248457.525,338.113,-625.209,0,0
248717.85,337.341,-624.252,0,0
248978.175,336.691,-623.164,0,0
249238.5,336.36,-621.918,0,0
249498.825,336.27,-620.575,0,0
249759.15,336.583,-619.259,0,0
250019.475,337.107,-617.442,0,0
250279.8,337.445,-616.766,0,0
250540,338.59,-615.664,0,0
250800,339.841,-615.004,0,0
251061,340.963,-614.948,0,0
251321,342.893,-614.237,0,0
251581,344.844,-614.062,0,0
251842,346.381,-614.996,0,0
252102,347.915,-616.246,0,0
252362,349.925,-616.944,0,0
252623,351.187,-618.726,0,0
252883,351.868,-621.517,0,0
253143,353.415,-622.626,0,0
253404,353.439,-625.857,0,0
253664,353.279,-629.06,0,0
253924,353.549,-631.422,0,0
254185,353.272,-633.909,0,0
254445,353.198,-636.06,0,0
254705,350.853,-641.171,0,0
254966,349.628,-644.012,0,0
255226,336.051,-663.911,0,0
255486,346.373,-649.795,0,0
255747,340.866,-657.62,0,0
256007,328.259,-673.64,0,0
256267,325.89,-675.904,0,0
256528,323.591,-677.706,0,0
256788,328.347,-670.703,0,0
257048,326.388,-671.592,0,0
257309,323.695,-673.198,0,0
257569,321.474,-673.965,0,0
257829,317.164,-676.992,0,0
258090,316.518,-675.491,0,0
258350,313.351,-676.829,0,0
258610,310.51,-677.458,0,0
258871,307.617,-678.177,0,0
259131,305.219,-678.134,0,0
259391,302.798,-678.086,0,0
259651,300.062,-678.252,0,0
259912,297.332,-678.304,0,0
260172,294.64,-678.342,0,0
260432,291.742,-678.31,0,0
260693,289.169,-678.029,0,0
260953,287.198,-677.08,0,0
261213,283.128,-678.4,0,0
261474,280.392,-678.119,0,0
261734,277.417,-678.144,0,0
261994,272.801,-679.671,0,0
262255,274.489,-675.2,0,0
262515,271.98,-674.74,0,0
262775,269.355,-674.345,0,0
263036,266.83,-673.824,0,0
263296,264.114,-673.52,0,0
263556,261.589,-673.067,0,0
263817,259.151,-672.384,0,0
264077,257.203,-671.459,0,0
264337,254.785,-670.891,0,0
264598,252.755,-669.92,0,0
264858,250.556,-669.269,0,0
265118,248.041,-668.743,0,0
265379,246.138,-667.849,0,0
265639,244.634,-666.452,0,0
265899,242.835,-665.519,0,0
266160,240.841,-664.73,0,0
266420,238.722,-664.026,0,0
266680.25,237.132,-663.157,0,0
266940.575,235.566,-661.968,0,0
267200.9,233.747,-661.205,0,0
267461.225,232.585,-659.881,0,0
267721.55,231.097,-658.906,0,0
267981.875,229.863,-657.771,0,0
268242.2,228.616,-656.615,0,0
268502.525,226.68,-656.041,0,0
268762.85,225.268,-655.069,0,0
269023.175,223.412,-654.476,0,0
269283.5,221.951,-653.62,0,0
269543.825,220.571,-652.6,0,0
269804.15,219.176,-651.777,0,0
270064.475,217.726,-650.901,0,0
270324.8,215.814,-650.364,0,0
270585.125,214.835,-649.136,0,0
270845.45,213.155,-648.3,0,0
271105.775,211.933,-647.161,0,0
271366.1,209.989,-646.538,0,0
271626.425,208.743,-645.349,0,0
271886.75,207.426,-644.234,0,0
272147.075,205.298,-643.672,0,0
272407.4,203.719,-642.703,0,0
272667.725,202.707,-641.317,0,0
272928.05,200.795,-640.542,0,0
273188.375,199.281,-639.469,0,0
273448.7,197.918,-638.289,0,0
273709.025,196.224,-637.329,0,0
273969.35,194.316,-636.403,0,0
274229.675,193.018,-635.221,0,0
274490.0,191.243,-634.23,0,0
274750.325,189.864,-632.933,0,0
275010.65,188.692,-631.597,0,0
275270.975,187.76,-630.01,0,0
275531.3,185.997,-628.986,0,0
275791.625,184.677,-627.644,0,0
276051.95,183.676,-626.093,0,0
276312.275,182.577,-624.618,0,0
276572.6,181.208,-623.271,0,0
276832.925,179.813,-621.933,0,0
277093.25,174.972,-622.651,0,0
277353.575,174.173,-620.935,0,0
277613.9,172.551,-619.668,0,0
277874.225,162.13,-623.346,0,0
278134.55,171.242,-616.072,0,0
278394.875,170.45,-614.307,0,0
278655.2,169.241,-612.87,0,0
278915.525,168.23,-611.316,0,0
279175.85,166.795,-609.958,0,0
279436.175,165.641,-608.472,0,0
279696.5,165.551,-606.504,0,0
279956.825,163.537,-605.661,0,0
280217.15,164.005,-603.427,0,0
280477.475,162.339,-602.383,0,0
280737.8,161.004,-601.315,0,0
280998.125,162.996,-598.411,0,0
281258.45,162.522,-596.941,0,0
281518.775,162.325,-595.405,0,0
281779.1,162.013,-593.982,0,0
282039.425,158.782,-594.251,0,0
282299.75,162.403,-590.685,0,0
282560,160.953,-590.183,0,0
282820,160.542,-589.012,0,0
283081,159.956,-587.951,0,0
283341,160.47,-586.293,0,0
283601,160.227,-585.139,0,0
283862,159.042,-584.483,0,0
284122,158.15,-583.731,0,0
284382,159.876,-581.471,0,0
284643,159.04,-580.76,0,0
284903,158.085,-580.046,0,0
285163,157.852,-578.932,0,0
285424,157.418,-577.947,0,0
285684,157.329,-576.853,0,0
285944,157.142,-575.795,0,0
286205,156.751,-574.859,0,0
286465,156.178,-573.998,0,0
286725,155.936,-573.04,0,0
286986,155.383,-572.238,0,0
287246,155.172,-571.268,0,0
287506,154.83,-570.386,0,0
287767,154.981,-569.256,0,0
288027,154.893,-568.274,0,0
288287,154.39,-567.622,0,0
288548,153.187,-567.28,0,0
288808,151.72,-567.226,0,0
289068,151.582,-566.384,0,0
289329,148.104,-567.486,0,0
289589,141.682,-569.948,0,0
289849,141.344,-569.288,0,0
290109,140.908,-568.614,0,0
290370,140.452,-567.958,0,0
290630,145.204,-564.636,0,0
290890,139.507,-566.657,0,0
291151,139.027,-565.96,0,0
291411,138.485,-565.285,0,0
291671,137.948,-564.583,0,0
291932,137.391,-563.871,0,0
292192,136.86,-563.114,0,0
292452,136.272,-562.369,0,0
292713,135.692,-561.574,0,0
292973,145.313,-555.564,0,0
293233,144.826,-554.749,0,0
293494,145.561,-553.257,0,0
293754,135.073,-557.596,0,0
294014,144.535,-551.553,0,0
294275,144.429,-550.455,0,0
294535,143.692,-549.759,0,0
294795,141.964,-549.471,0,0
295056,141.233,-548.635,0,0
295316,130.04,-553.128,0,0
295576,129.967,-551.951,0,0
295837,141.497,-544.868,0,0
296097,130.734,-549.096,0,0
296357,138.499,-543.982,0,0
296618,139.21,-542.362,0,0
296878,139.436,-541.014,0,0
297138,137.512,-540.796,0,0
297399,126.511,-545.039,0,0
297659,138.477,-537.884,0,0
297919,138.408,-536.765,0,0
298180,138.001,-535.932,0,0
298440,137.912,-534.898,0,0
298700.2,125.497,-540.153,0,0
298960.525,125.367,-539.302,0,0
299220.85,125.374,-538.436,0,0
299481.175,126.473,-537.092,0,0
299741.5,135.683,-531.633,0,0
300001.825,136.405,-530.463,0,0
300262.15,134.237,-530.941,0,0
300522.475,137.934,-528.291,0,0
300782.8,133.451,-529.896,0,0
301043.125,129.241,-531.357,0,0
301303.45,124.421,-533.053,0,0
301563.775,137.245,-525.869,0,0
301824.1,136.335,-525.674,0,0
302084.425,123.901,-531.278,0,0
302344.75,132.425,-526.398,0,0
302605.075,126.936,-528.461,0,0
302865.4,130.132,-526.21,0,0
303125.725,134.202,-523.393,0,0
303386.05,133.822,-522.898,0,0
303646.375,134.011,-522.035,0,0
303906.7,133.498,-521.562,0,0
304167.025,133.53,-520.781,0,0
304427.35,120.383,-526.541,0,0
304687.675,133.571,-519.187,0,0
304948.0,131.052,-519.647,0,0
305208.325,133.615,-517.465,0,0
305468.65,132.231,-517.511,0,0
305728.975,132.755,-516.349,0,0
305989.3,131.529,-516.134,0,0
306249.625,131.131,-515.479,0,0
306509.95,130.294,-514.968,0,0
306770.275,129.024,-514.801,0,0
307030.6,128.377,-514.323,0,0
307290.925,127.807,-513.711,0,0
307551.25,127.522,-512.96,0,0
307811.575,126.926,-512.391,0,0
308071.9,125.945,-511.956,0,0
308332.225,125.197,-511.494,0,0
308592.55,124.908,-510.747,0,0
308852.875,124.836,-509.917,0,0
309113.2,124.581,-509.109,0,0
309373.525,123.565,-508.794,0,0
309633.85,122.724,-508.231,0,0
309894.175,122.833,-507.299,0,0
310154.5,122.694,-506.591,0,0
310414.825,122.013,-505.963,0,0
310675.15,121.24,-505.558,0,0
310935.475,121.033,-504.702,0,0
311195.8,120.33,-504.284,0,0
311456.125,119.78,-503.652,0,0
311716.45,119.438,-502.939,0,0
311976.775,118.871,-502.397,0,0
312237.1,118.98,-501.433,0,0
312497.425,118.218,-500.892,0,0
312757.75,118.391,-499.993,0,0
313018.075,117.922,-499.299,0,0
313278.4,117.623,-498.613,0,0
313538.725,117.392,-497.823,0,0
313799.05,117.167,-497.103,0,0
314059.375,116.29,-496.653,0,0
314319.7,115.941,-495.935,0,0
314580,113.571,-496.234,0,0
314840,113.601,-495.403,0,0
315101,113.064,-494.78,0,0
315361,113.428,-493.768,0,0
315621,113.456,-492.908,0,0
315882,112.673,-492.443,0,0
316142,112.527,-491.685,0,0
316402,112.151,-491.022,0,0
316663,112.748,-489.971,0,0
316923,111.69,-489.614,0,0
317183,110.837,-489.204,0,0
317444,110.752,-488.495,0,0
317704,111.037,-487.533,0,0
317964,111.443,-486.529,0,0
318225,111.821,-485.577,0,0
318485,109.422,-485.945,0,0
318745,109.823,-484.939,0,0
319006,109.85,-484.177,0,0
319266,109.579,-483.541,0,0
319526,108.778,-483.124,0,0
319787,109.016,-482.312,0,0
320047,108.009,-482.032,0,0
320307,108.218,-481.196,0,0
320567,107.257,-480.895,0,0
320828,106.898,-480.375,0,0
321088,106.829,-479.702,0,0
321348,106.911,-478.965,0,0
321609,106.402,-478.398,0,0
321869,105.692,-478.078,0,0
322129,105.946,-477.256,0,0
322390,105.39,-476.78,0,0
322650,105.039,-476.208,0,0
322910,104.569,-475.739,0,0
323171,104.661,-475.06,0,0
323431,104.885,-474.287,0,0
323691,104.166,-473.902,0,0
323952,103.922,-473.308,0,0
324212,103.838,-472.694,0,0
324472,102.895,-472.406,0,0
324733,102.716,-471.789,0,0
324993,103.045,-470.873,0,0
325253,102.133,-470.604,0,0
325514,102.266,-469.864,0,0
325774,102.076,-469.172,0,0
326034,101.469,-468.716,0,0
326295,101.02,-468.226,0,0
326555,101.243,-467.391,0,0
326815,100.653,-466.861,0,0
327076,100.162,-466.354,0,0
327336,99.8099,-465.766,0,0
327596,99.5595,-465.114,0,0
327857,99.3083,-464.489,0,0
328117,98.7484,-463.987,0,0
328377,98.1355,-463.482,0,0
328638,97.8687,-462.85,0,0
328898,97.6491,-462.185,0,0
329158,97.8552,-461.293,0,0
329419,97.5819,-460.7,0,0
329679,96.8642,-460.213,0,0
329939,96.4249,-459.639,0,0
330200,96.7834,-458.818,0,0
330460,96.2384,-458.215,0,0
330720.15,95.7593,-457.755,0,0
330980.475,95.7703,-456.99,0,0
331240.8,95.1911,-456.461,0,0
331501.125,95.2845,-455.708,0,0
331761.45,94.6352,-455.251,0,0
332021.775,94.9506,-454.364,0,0
332282.1,94.5085,-453.838,0,0
332542.425,94.5892,-453.131,0,0
332802.75,94.5891,-452.313,0,0
333063.075,94.1012,-451.855,0,0
333323.4,93.78,-451.321,0,0
333583.725,93.5748,-450.674,0,0
333844.05,93.6295,-449.963,0,0
334104.375,93.6411,-449.239,0,0
334364.7,93.1009,-448.801,0,0
334625.025,92.6746,-448.253,0,0
334885.35,92.2509,-447.702,0,0
335145.675,92.1179,-447.12,0,0
335406.0,91.8856,-446.451,0,0
335666.325,91.7227,-445.884,0,0
335926.65,92.0101,-445.142,0,0
336186.975,91.0531,-444.765,0,0
336447.3,91.1474,-444.08,0,0
336707.625,90.8801,-443.526,0,0
336967.95,91.029,-442.799,0,0
337228.275,90.8967,-442.195,0,0
337488.6,90.3116,-441.684,0,0
337748.925,90.5521,-440.988,0,0
338009.25,90.5536,-440.237,0,0
338269.575,90.5101,-439.607,0,0
338529.9,90.1736,-439.076,0,0
338790.225,89.8748,-438.576,0,0
339050.55,89.9383,-437.872,0,0
339310.875,89.7722,-437.3,0,0
339571.2,89.2704,-436.848,0,0
339831.525,89.4137,-436.105,0,0
340091.85,89.7383,-435.318,0,0
340352.175,89.2193,-434.85,0,0
340612.5,89.1286,-434.282,0,0
340872.825,88.9561,-433.673,0,0
341133.15,88.7567,-433.148,0,0
341393.475,88.4849,-432.614,0,0
341653.8,88.3079,-432.012,0,0
341914.125,88.3053,-431.328,0,0
342174.45,87.5071,-431.06,0,0
342434.775,87.3253,-430.48,0,0
342695.1,87.3071,-429.88,0,0
342955.425,86.9941,-429.423,0,0
343215.75,86.7632,-428.792,0,0
343476.075,86.978,-428.1,0,0
343736.4,86.6678,-427.587,0,0
343996.725,86.3819,-427.107,0,0
344257.05,86.3748,-426.465,0,0
344517.375,86.2134,-425.93,0,0
344777.7,86.0859,-425.368,0,0
345038.025,85.5419,-424.951,0,0
345298.35,85.4505,-424.384,0,0
345558.675,85.6917,-423.709,0,0
345819.0,85.2853,-423.272,0,0
346079.325,85.0411,-422.787,0,0
346339.65,85.3467,-422.04,0,0
346599.975,84.7355,-421.664,0,0
346860,83.759,-421.487,0,0
347121,83.7449,-420.838,0,0
347381,83.3979,-420.406,0,0
347641,83.2644,-419.873,0,0
347902,82.984,-419.355,0,0
348162,83.0641,-418.734,0,0
348422,82.9521,-418.19,0,0
348683,82.6984,-417.66,0,0
348943,82.5596,-417.115,0,0
349203,82.4375,-416.559,0,0
349464,82.2906,-416.007,0,0
349724,82.0868,-415.467,0,0
349984,81.8817,-414.941,0,0
350245,81.7189,-414.401,0,0
350505,81.6498,-413.829,0,0
350765,81.3941,-413.294,0,0
351025,81.4186,-412.698,0,0
351286,81.1945,-412.155,0,0
351546,81.0383,-411.603,0,0
351806,80.9468,-411.04,0,0
352067,80.7862,-410.491,0,0
352327,80.6367,-409.945,0,0
352587,80.4479,-409.363,0,0
352848,80.2146,-408.869,0,0
353108,80.2056,-408.241,0,0
353368,80.1208,-407.706,0,0
353629,79.7841,-407.21,0,0
353889,79.6336,-406.655,0,0
354149,79.4443,-406.128,0,0
354410,79.4899,-405.498,0,0
354670,79.3558,-404.888,0,0
354930,79.3225,-404.312,0,0
355191,79.2889,-403.71,0,0
355451,78.9036,-403.205,0,0
355711,78.5821,-402.727,0,0
355972,78.4876,-402.146,0,0
356232,78.4498,-401.548,0,0
356492,78.3696,-400.979,0,0
356753,78.383,-400.35,0,0
357013,78.3085,-399.779,0,0
357273,78.3925,-399.154,0,0
357534,78.108,-398.656,0,0
357794,78.3565,-397.93,0,0
358054,77.823,-397.529,0,0
358315,77.5834,-396.997,0,0
358575,77.5431,-396.395,0,0
358835,77.8479,-395.63,0,0
359096,77.5832,-395.156,0,0
359356,77.3276,-394.666,0,0
359616,77.2209,-394.079,0,0
359877,76.9604,-393.571,0,0
360137,76.6256,-393.011,0,0
360397,76.5622,-392.47,0,0
360658,76.617,-391.788,0,0
360918,76.4012,-391.272,0,0
361178,76.193,-390.787,0,0
361438,76.0399,-390.148,0,0
361699,76.1208,-389.506,0,0
361959,75.7173,-389.086,0,0
362219,75.7515,-388.437,0,0
362480,75.6455,-387.866,0,0
362740.1,75.0991,-387.543,0,0
363000.425,75.1066,-386.88,0,0
363260.75,74.8875,-386.317,0,0
363521.075,74.9619,-385.685,0,0
363781.4,75.2416,-385.021,0,0
364041.725,75.156,-384.373,0,0
364302.05,75.0002,-383.864,0,0
364562.375,74.8011,-383.252,0,0
364822.7,74.7639,-382.698,0,0
365083.025,74.7161,-382.106,0,0
365343.35,74.4906,-381.595,0,0
365603.675,74.5541,-380.95,0,0
365864.0,74.5303,-380.356,0,0
366124.325,74.5196,-379.77,0,0
366384.65,74.4637,-379.177,0,0
366644.975,74.227,-378.683,0,0
366905.3,74.1194,-378.108,0,0
367165.625,74.0989,-377.511,0,0
367425.95,74.1323,-376.948,0,0
367686.275,73.9539,-376.388,0,0
367946.6,73.9478,-375.849,0,0
368206.925,74.0495,-375.173,0,0
368467.25,74.1395,-374.585,0,0
368727.575,74.1345,-373.995,0,0
368987.9,74.2391,-373.425,0,0
369248.225,74.234,-372.865,0,0
369508.55,73.934,-372.405,0,0
369768.875,74.0791,-371.783,0,0
370029.2,74.1118,-371.211,0,0
370289.525,73.952,-370.766,0,0
370549.85,73.9362,-370.222,0,0
370810.175,74.1104,-369.61,0,0
371070.5,74.0714,-369.063,0,0
371330.825,74.1392,-368.528,0,0
371591.15,74.3044,-367.934,0,0
371851.475,74.225,-367.485,0,0
372111.8,74.4207,-366.861,0,0
372372.125,74.3857,-366.381,0,0
372632.45,74.4946,-365.867,0,0
372892.775,74.4522,-365.413,0,0
373153.1,74.5636,-364.892,0,0
373413.425,75.3133,-364.117,0,0
373673.75,74.7414,-363.896,0,0
373934.075,74.8325,-363.418,0,0
374194.4,74.8186,-363.025,0,0
374454.725,74.6707,-362.622,0,0
374715.05,74.6987,-362.186,0,0
374975.375,74.6591,-361.822,0,0
375235.7,74.8237,-361.334,0,0
375496.025,74.6329,-361.017,0,0
375756.35,74.6209,-360.621,0,0
376016.675,74.5941,-360.247,0,0
376277.0,74.6118,-359.836,0,0
376537.325,74.4659,-359.506,0,0
376797.65,74.3836,-359.101,0,0
377057.975,74.3421,-358.717,0,0
377318.3,74.2922,-358.346,0,0
377578.625,74.1219,-357.939,0,0
377838.95,74.2089,-357.479,0,0
378099.275,74.3489,-356.929,0,0
378359.6,74.0717,-356.608,0,0
378619.925,73.7458,-356.244,0,0
378880,73.3878,-355.91,0,0
379141,73.3264,-355.444,0,0
379401,73.223,-354.978,0,0
379661,73.1363,-354.506,0,0
379922,73.0777,-353.941,0,0
380182,73.0028,-353.444,0,0
380442,72.8399,-352.966,0,0
380703,72.8364,-352.412,0,0
380963,72.9177,-351.83,0,0
381223,72.8456,-351.321,0,0
381483,72.8421,-350.818,0,0
381744,72.9808,-350.214,0,0
382004,72.9641,-349.714,0,0
382264,73.6034,-348.968,0,0
382525,73.1455,-348.653,0,0
382785,73.0168,-348.277,0,0
383045,72.8902,-347.79,0,0
383306,73.1227,-347.232,0,0
383566,72.7742,-346.875,0,0
383826,72.6764,-346.45,0,0
384087,72.6909,-345.912,0,0
384347,72.6543,-345.474,0,0
384607,72.1987,-345.061,0,0
384868,72.0954,-344.584,0,0
385128,71.8952,-344.163,0,0
385388,71.7226,-343.675,0,0
385649,71.7091,-343.13,0,0
385909,71.5623,-342.603,0,0
386169,71.4532,-342.088,0,0
386430,71.3791,-341.579,0,0
386690,71.247,-340.999,0,0
386950,71.1975,-340.467,0,0
387211,71.1188,-339.94,0,0
387471,71.1006,-339.375,0,0
387731,71.068,-338.818,0,0
387992,70.988,-338.278,0,0
388252,71.1718,-337.631,0,0
388512,70.9501,-337.129,0,0
388773,70.9042,-336.57,0,0
389033,71.1647,-335.848,0,0
389293,70.8319,-335.414,0,0
389554,70.7764,-334.856,0,0
389814,70.7289,-334.246,0,0
390074,70.6444,-333.723,0,0
390335,70.6276,-333.169,0,0
390595,70.4985,-332.602,0,0
390855,70.6339,-331.999,0,0
391116,70.6003,-331.421,0,0
391376,70.607,-330.834,0,0
391636,70.5752,-330.299,0,0
391896,70.6078,-329.699,0,0
392157,70.632,-329.118,0,0
392417,70.7118,-328.524,0,0
392677,70.716,-327.958,0,0
392938,70.7709,-327.303,0,0
393198,70.6841,-326.799,0,0
393458,70.747,-326.185,0,0
393719,70.7493,-325.626,0,0
393979,70.7111,-325.086,0,0
394239,70.6873,-324.51,0,0
394500,70.7191,-323.935,0,0
394760.05,70.8918,-323.323,0,0
395020.375,70.9884,-322.672,0,0
395280.7,71.1801,-322.051,0,0
395541.025,71.0961,-321.517,0,0
395801.35,71.2684,-320.803,0,0
396061.675,71.2244,-320.309,0,0
396322.0,71.222,-319.731,0,0
396582.325,71.9409,-318.866,0,0
396842.65,71.6376,-318.412,0,0
397102.975,71.6345,-317.852,0,0
397363.3,71.6833,-317.253,0,0
397623.625,71.7187,-316.669,0,0
397883.95,71.7272,-316.117,0,0
398144.275,71.856,-315.488,0,0
398404.6,71.8728,-314.936,0,0
398664.925,71.9399,-314.353,0,0
398925.25,72.0592,-313.732,0,0
399185.575,72.0985,-313.16,0,0
399445.9,72.2113,-312.566,0,0
399706.225,72.3245,-312.008,0,0
399966.55,72.4577,-311.369,0,0
400006.6,72.529,-311.246,0,0