File: Accelerated corrosion test data/2025-10-22_18-00-04/sample_6.csv
Frequency (Hz),Impedance (ohms),Phase (Radians),Temperature (C),Humidity (%)
10000.0,4149.5,-6633.4,0,0
10260.325,4012.21,-6552.37,0,0
10520.65,3881.21,-6471.61,0,0
10780.975,3756.45,-6391.22,0,0
11041.3,3637.52,-6311.63,0,0
11301.625,3523.85,-6233.39,0,0
11561.95,3415.4,-6155.84,0,0
11822.275,3311.99,-6079.51,0,0
12082.6,3212.25,-6003.8,0,0
12342.925,3117.54,-5929.2,0,0
12603.25,3027.62,-5853.48,0,0
12863.575,2941.36,-5782.67,0,0
13123.9,2859.7,-5712.48,0,0
13384.225,2780.03,-5645.35,0,0
13644.55,2702.4,-5576.84,0,0
13904.875,2628.61,-5509.4,0,0
14165.2,2558.15,-5443.03,0,0
14425.525,2489.73,-5377.26,0,0
14685.8,2424.37,-5313.63,0,0
14946.175,2362.7,-5250.69,0,0
15206.5,2302.74,-5189.7,0,0
15466.825,2245.25,-5127.06,0,0
15727.15,2189.1,-5069.55,0,0
15987.5,2135.63,-5011.19,0,0
16247.8,2084.08,-4954.01,0,0
16508.125,2034.59,-4896.93,0,0
16768.45,1986.84,-4841.85,0,0
17028.775,1941.11,-4788.13,0,0
17289.1,1896.19,-4734.83,0,0
17549.425,1853.13,-4683.39,0,0
17809.75,1811.94,-4631.29,0,0
18070.075,1771.21,-4582.62,0,0
18330.4,1732.65,-4531.53,0,0
18590.725,1694.28,-4482.81,0,0
18851.05,1659.09,-4434.75,0,0
19111.375,1624.26,-4389.12,0,0
19371.7,1590.65,-4343.8,0,0
19632.025,1558.36,-4299.74,0,0
19892.35,1524.93,-4256.19,0,0
20152.675,1493.92,-4211.66,0,0
20413.0,1464.2,-4169.94,0,0
20673.3,1435.53,-4128.33,0,0
20933.65,1407.31,-4086.67,0,0
21193.975,1379.63,-4046.42,0,0
21454.3,1353.33,-4006.66,0,0
21714.625,1327.98,-3967.18,0,0
21974.9,1302.9,-3928.71,0,0
22235.275,1277.85,-3891.68,0,0
22495.6,1255.23,-3853.82,0,0
22755.925,1231.57,-3816.29,0,0
23016.25,1210.17,-3779.67,0,0
23276.6,1191.82,-3744.54,0,0
23536.9,1171.97,-3712.03,0,0
23797.225,1151.33,-3678.7,0,0
24057.55,1131.26,-3645.85,0,0
24317.875,1111.71,-3613.47,0,0
24578.2,1093.17,-3580.56,0,0
24838.525,1074.62,-3548.39,0,0
25098.85,1056.41,-3518.12,0,0
25359.175,1039.58,-3487.58,0,0
25619.5,1023.08,-3457.49,0,0
25879.8,1006.16,-3428.24,0,0
26140.1,989.444,-3398.69,0,0
26400.5,974.46,-3369.37,0,0
26660.8,959.677,-3340.82,0,0
26921.1,945.308,-3312.67,0,0
27181.4,931.252,-3285.48,0,0
27441.8,917.028,-3258.48,0,0
27702.1,904.521,-3232.05,0,0
27962.4,891.233,-3207.35,0,0
28222.7,876.901,-3181.71,0,0
28483.1,863.674,-3156.34,0,0
28743.4,850.036,-3131.17,0,0
29003.7,837.255,-3105.57,0,0
29264,825.189,-3080.08,0,0
29524.4,813.819,-3054.52,0,0
29784.7,803.048,-3029.38,0,0
30045,793.775,-3006.44,0,0
30305.3,783.132,-2983.07,0,0
30565.7,775.338,-2960.32,0,0
30826,765.734,-2940.69,0,0
31086.3,754.833,-2920.16,0,0
31346.6,743.786,-2898.33,0,0
31607,733.549,-2877.18,0,0
31867.3,723.851,-2855.19,0,0
32127.6,715.07,-2834.53,0,0
32387.9,705.354,-2813.84,0,0
32648.3,698.043,-2792.43,0,0
32908.6,690.749,-2773.21,0,0
33168.9,682.787,-2755.18,0,0
33429.2,674.169,-2737.2,0,0
33689.6,665.508,-2719.08,0,0
33949.9,656.207,-2701.37,0,0
34210.2,646.86,-2682.73,0,0
34470.5,637.916,-2663.49,0,0
34730.9,630.416,-2644.7,0,0
34991.2,622.692,-2626.63,0,0
35251.5,615.07,-2608.82,0,0
35511.8,607.751,-2591.26,0,0
35772.2,599.797,-2574.4,0,0
36032.5,592.311,-2556.65,0,0
36292.8,584.938,-2539.04,0,0
36553.1,578.403,-2521.64,0,0
36813.5,571.65,-2504.67,0,0
37073.8,565.153,-2487.61,0,0
37334.1,559.007,-2470.83,0,0
37594.4,553.163,-2454.56,0,0
37854.8,547.096,-2438.37,0,0
38115.1,541.246,-2422.35,0,0
38375.4,535.704,-2406.06,0,0
38635.7,530.234,-2390.16,0,0
38896.1,525.362,-2374.45,0,0
39156.4,520.352,-2358.97,0,0
39416.7,516.158,-2343.94,0,0
39677,511.916,-2329.2,0,0
39937.4,507.569,-2314.95,0,0
40197.7,503.268,-2301.09,0,0
40458,499.467,-2287.33,0,0
40718.3,495.299,-2274.38,0,0
40978.7,490.498,-2261.75,0,0
41239,485.655,-2248.86,0,0
41499.3,481.195,-2235.21,0,0
41759.6,476.919,-2222.87,0,0
42020,472.327,-2210.97,0,0
42280.275,466.683,-2198.8,0,0
42540.6,461.335,-2185.78,0,0
42800.925,456.374,-2172.43,0,0
43061.25,451.472,-2159.14,0,0
43321.575,447.172,-2145.3,0,0
43581.9,443.869,-2131.8,0,0
43842.225,440.889,-2118.97,0,0
44102.55,437.72,-2106.66,0,0
44362.875,435.032,-2094.38,0,0
44623.2,431.814,-2082.4,0,0
44883.525,429.116,-2071.06,0,0
45143.85,426.198,-2059.77,0,0
45404.175,423.569,-2048.5,0,0
45664.5,420.969,-2037.07,0,0
45924.825,418.237,-2026.78,0,0
46185.15,416.229,-2016.13,0,0
46445.475,413.009,-2006.85,0,0
46705.8,409.99,-1996.53,0,0
46966.125,407.424,-1986.71,0,0
47226.45,404.733,-1977.1,0,0
47486.775,401.246,-1967.48,0,0
47747.1,398.599,-1957.53,0,0
48007.425,396.256,-1948.18,0,0
48267.75,393.177,-1939.36,0,0
48528.075,389.974,-1930.12,0,0
48788.4,386.979,-1920.66,0,0
49048.725,384.491,-1911.91,0,0
49309.05,381.692,-1903.86,0,0
49569.375,377.847,-1895.75,0,0
49829.7,373.986,-1886.9,0,0
50090.025,370.741,-1878.28,0,0
50350.35,366.793,-1870.08,0,0
50610.675,362.393,-1861.23,0,0
50871.0,358.5,-1852.2,0,0
51131.325,354.858,-1842.77,0,0
51391.65,351.302,-1833.72,0,0
51651.975,347.58,-1824.23,0,0
51912.3,344.804,-1814.83,0,0
52172.625,341.404,-1805.85,0,0
52432.95,338.307,-1796.31,0,0
52693.275,335.863,-1787.02,0,0
52953.6,333.619,-1777.97,0,0
53213.925,331.34,-1769.86,0,0
53474.25,328.391,-1761.7,0,0
53734.575,325.244,-1753.21,0,0
53994.9,321.959,-1744.33,0,0
54255.225,319.295,-1734.96,0,0
54515.55,317.188,-1725.86,0,0
54775.875,315.433,-1717.24,0,0
55036.2,313.543,-1708.96,0,0
55296.525,311.595,-1700.79,0,0
55556.85,309.589,-1692.87,0,0
55817.175,307.127,-1684.93,0,0
56077.5,304.735,-1676.69,0,0
56337.825,302.577,-1668.2,0,0
56598.15,300.834,-1659.34,0,0
56858.475,299.763,-1650.77,0,0
57118.8,299.123,-1642.55,0,0
57379.125,298.583,-1635.16,0,0
57639.45,297.986,-1628.11,0,0
57899.775,297.222,-1621.29,0,0
58160.1,296.505,-1615.09,0,0
58420.4,295.323,-1609.15,0,0
58680.7,293.87,-1603.54,0,0
58941.1,291.919,-1597.7,0,0
59201.4,289.985,-1591.94,0,0
59461.7,287.639,-1585.91,0,0
59722,285.341,-1580.06,0,0
59982.4,282.813,-1574.02,0,0
60242.7,280.177,-1567.77,0,0
60503,277.708,-1561.53,0,0
60763.3,275.018,-1555.3,0,0
61023.7,272.283,-1548.97,0,0
61284,269.225,-1542.39,0,0
61544.3,266.114,-1535.59,0,0
61804.6,263.035,-1528.18,0,0
62065,260.459,-1520.26,0,0
62325.3,258.343,-1512.29,0,0
62585.6,256.939,-1503.88,0,0
62845.9,256.351,-1496.14,0,0
63106.3,256.374,-1488.96,0,0
63366.6,256.428,-1482.78,0,0
63626.9,256.05,-1477.03,0,0
63887.2,255.475,-1471.81,0,0
64147.6,254.205,-1467.01,0,0
64407.9,252.236,-1461.8,0,0
64668.2,250.062,-1456.24,0,0
64928.5,247.853,-1450.14,0,0
65188.9,246.047,-1443.75,0,0
65449.2,244.52,-1437.42,0,0
65709.5,243.334,-1431.22,0,0
65969.8,242.424,-1425.15,0,0
66230.2,241.452,-1419.55,0,0
66490.5,240.33,-1413.98,0,0
66750.8,239.139,-1408.4,0,0
67011.1,237.934,-1403.18,0,0
67271.5,236.785,-1397.81,0,0
67531.8,235.256,-1392.54,0,0
67792.1,234.044,-1386.88,0,0
68052.4,232.619,-1381.8,0,0
68312.8,231.228,-1376.54,0,0
68573.1,230.003,-1371.1,0,0
68833.4,228.685,-1365.79,0,0
69093.7,227.494,-1360.6,0,0
69354.1,226.228,-1355.5,0,0
69614.4,224.976,-1350.46,0,0
69874.7,223.543,-1345.5,0,0
70135,222.371,-1340.35,0,0
70395.4,220.885,-1335.54,0,0
70655.7,219.411,-1330.56,0,0
70916,217.826,-1325.54,0,0
71176.3,216.38,-1320.54,0,0
71436.7,214.895,-1315.37,0,0
71697,213.464,-1310.29,0,0
71957.3,212.1,-1305.11,0,0
72217.6,210.875,-1300.06,0,0
72478,209.696,-1295.01,0,0
72738.3,208.477,-1290.05,0,0
72998.6,207.198,-1285.09,0,0
73258.9,205.953,-1280.17,0,0
73519.3,204.763,-1275.29,0,0
73779.6,203.517,-1270.43,0,0
74039.9,202.361,-1265.56,0,0
74300.225,201.126,-1260.73,0,0
74560.55,200.086,-1256.02,0,0
74820.875,198.904,-1251.26,0,0
75081.2,197.784,-1246.71,0,0
75341.525,196.657,-1242.04,0,0
75601.85,195.36,-1237.45,0,0
75862.175,194.083,-1232.82,0,0
76122.5,192.896,-1228.13,0,0
76382.825,191.664,-1223.52,0,0
76643.15,190.438,-1218.84,0,0
76903.475,189.232,-1214.18,0,0
77163.8,188,-1209.52,0,0
77424.125,186.861,-1204.88,0,0
77684.45,185.713,-1200.25,0,0
77944.775,184.582,-1195.56,0,0
78205.1,183.439,-1190.9,0,0
78465.425,182.346,-1186.28,0,0
78725.75,181.222,-1181.66,0,0
78986.075,180.154,-1177.05,0,0
79246.4,179.072,-1172.4,0,0
79506.725,178.081,-1167.76,0,0
79767.05,177.072,-1163.11,0,0
80027.375,176.103,-1158.51,0,0
80287.7,175.076,-1153.96,0,0
80548.025,174.122,-1149.24,0,0
80808.35,173.287,-1144.5,0,0
81068.675,172.454,-1139.82,0,0
81329.0,171.723,-1135.19,0,0
81589.325,171.054,-1130.59,0,0
81849.65,170.445,-1126.05,0,0
82109.975,169.811,-1121.59,0,0
82370.3,169.169,-1117.14,0,0
82630.625,168.529,-1112.71,0,0
82890.95,167.874,-1108.32,0,0
83151.275,167.249,-1103.88,0,0
83411.6,166.614,-1099.47,0,0
83671.925,166.067,-1094.96,0,0
83932.25,165.57,-1090.55,0,0
84192.575,165.096,-1086.02,0,0
84452.9,164.72,-1081.55,0,0
84713.225,164.439,-1077.14,0,0
84973.55,164.228,-1072.76,0,0
85233.875,164.121,-1068.36,0,0
85494.2,164.077,-1064.07,0,0
85754.525,164.13,-1060.01,0,0
86014.85,164.049,-1056.11,0,0
86275.175,164.063,-1052.13,0,0
86535.5,164.038,-1048.16,0,0
86795.825,163.941,-1044.33,0,0
87056.15,163.706,-1040.46,0,0
87316.475,163.772,-1036.55,0,0
87576.8,163.764,-1032.78,0,0
87837.125,163.772,-1029.07,0,0
88097.45,163.747,-1025.45,0,0
88357.775,163.647,-1021.58,0,0
88618.1,163.708,-1017.91,0,0
88878.425,163.983,-1014.28,0,0
89138.75,164.3,-1010.55,0,0
89399.075,164.446,-1007.13,0,0
89659.4,164.989,-1003.92,0,0
89919.725,165.327,-1001.12,0,0
90180,165.544,-998.191,0,0
90440.4,165.435,-995.574,0,0
90700.7,165.165,-992.806,0,0
90961,164.819,-990.193,0,0
91221.3,163.961,-987.367,0,0
91481.7,163.294,-984.432,0,0
91742,162.441,-980.974,0,0
92002.3,162.142,-977.351,0,0
92262.6,162.064,-974.014,0,0
92523,161.93,-971.11,0,0
92783.3,161.492,-968.041,0,0
93043.6,160.977,-964.931,0,0
93303.9,160.41,-961.756,0,0
93564.3,159.924,-958.244,0,0
93824.6,159.774,-954.986,0,0
94084.9,159.597,-951.5,0,0
94345.2,159.672,-948.226,0,0
94605.6,159.637,-945.418,0,0
94865.9,159.367,-942.35,0,0
95126.2,159.203,-939.228,0,0
95386.5,159.113,-936.042,0,0
95646.9,159.262,-933.039,0,0
95907.2,159.372,-930.299,0,0
96167.5,159.463,-927.699,0,0
96427.8,159.326,-925.176,0,0
96688.2,158.961,-922.681,0,0
96948.5,158.545,-920.124,0,0
97208.8,158.068,-917.533,0,0
97469.1,157.536,-914.917,0,0
97729.5,156.787,-912.14,0,0
97989.8,156.154,-909.038,0,0
98250.1,155.808,-905.913,0,0
98510.4,155.593,-902.954,0,0
98770.8,155.286,-899.941,0,0
99031.1,155.139,-896.888,0,0
99291.4,155.165,-894.037,0,0
99551.7,155.159,-891.273,0,0
99812.1,155.096,-888.658,0,0
100072,155.079,-886.127,0,0
100333,155.093,-883.639,0,0
100593,154.952,-881.293,0,0
100853,154.747,-879.015,0,0
101114,154.421,-876.739,0,0
101374,153.975,-874.582,0,0
101634,153.376,-872.329,0,0
101895,152.719,-869.882,0,0
102155,152.141,-867.401,0,0
102415,151.641,-864.941,0,0
102676,151.209,-862.507,0,0
102936,150.744,-860.328,0,0
103196,150.036,-858.195,0,0
103457,149.177,-855.932,0,0
103717,148.328,-853.551,0,0
103977,147.521,-851.128,0,0
104238,146.759,-848.922,0,0
104498,145.654,-846.909,0,0
104758,144.245,-844.613,0,0
105019,142.727,-842.128,0,0
105279,141.159,-839.494,0,0
105539,139.527,-836.711,0,0
105800,137.724,-833.659,0,0
106060,135.944,-830.203,0,0
106320.175,134.24,-826.575,0,0
106580.5,132.734,-822.368,0,0
106840.825,131.655,-817.996,0,0
107101.15,130.978,-813.572,0,0
107361.475,130.754,-809.238,0,0
107621.8,130.588,-805.23,0,0
107882.125,130.443,-801.131,0,0
108142.45,130.635,-797.01,0,0
108402.775,130.965,-793.071,0,0
108663.1,131.454,-789.226,0,0
108923.425,132.106,-785.603,0,0
109183.75,132.625,-782.113,0,0
109444.075,133.155,-778.632,0,0
109704.4,133.845,-775.174,0,0
109964.725,134.654,-771.914,0,0
110225.05,135.327,-768.604,0,0
110485.375,136.254,-765.225,0,0
110745.7,137.361,-761.945,0,0
111006.025,138.587,-758.898,0,0
111266.35,140.078,-755.955,0,0
111526.675,141.663,-753.308,0,0
111787.0,143.13,-751.037,0,0
112047.325,144.628,-749.084,0,0
112307.65,146.06,-747.291,0,0
112567.975,147.276,-746,0,0
112828.3,148.045,-744.821,0,0
113088.625,148.421,-743.635,0,0
113348.95,148.485,-742.242,0,0
113609.275,148.711,-740.688,0,0
113869.6,148.765,-739.123,0,0
114129.925,148.726,-737.497,0,0
114390.25,148.783,-735.713,0,0
114650.575,148.76,-733.999,0,0
114910.9,148.714,-732.361,0,0
115171.225,148.587,-730.399,0,0
115431.55,148.766,-728.387,0,0
115691.875,149.184,-726.489,0,0
115952.2,149.924,-725.242,0,0
116212.525,150.06,-724.561,0,0
116472.85,149.644,-723.906,0,0
116733.175,148.876,-723.003,0,0
116993.5,147.857,-722.114,0,0
117253.825,146.383,-721.017,0,0
117514.15,144.616,-719.548,0,0
117774.475,142.749,-717.614,0,0
118034.8,140.882,-715.18,0,0
118295.125,139.253,-712.344,0,0
118555.45,137.965,-709.317,0,0
118815.775,136.86,-706.24,0,0
119076.1,135.891,-703.01,0,0
119336.425,135.06,-699.617,0,0
119596.75,134.681,-696.231,0,0
119857.075,134.472,-692.878,0,0
120117.4,134.408,-689.604,0,0
120377.725,134.585,-686.329,0,0
120638.05,134.957,-683.226,0,0
120898.375,135.524,-680.365,0,0
121158.7,136.209,-677.61,0,0
121419.025,137.004,-675.339,0,0
121679.35,137.566,-673.466,0,0
121939.675,137.721,-671.726,0,0
122200.0,137.611,-669.824,0,0
122460,137.371,-667.843,0,0
122721,137.022,-665.69,0,0
122981,136.709,-663.392,0,0
123241,136.481,-660.992,0,0
123502,136.295,-658.627,0,0
123762,136.109,-656.261,0,0
124022,136.026,-653.853,0,0
124283,135.869,-651.562,0,0
124543,135.706,-649.23,0,0
124803,135.562,-646.916,0,0
125064,135.361,-644.616,0,0
125324,135.066,-642.267,0,0
125584,134.763,-639.845,0,0
125845,134.473,-637.291,0,0
126105,134.214,-634.768,0,0
126365,133.95,-632.197,0,0
126626,133.703,-629.585,0,0
126886,133.447,-626.87,0,0
127146,133.279,-624.071,0,0
127406,133.124,-621.249,0,0
127667,133.05,-618.339,0,0
127927,133.095,-615.341,0,0
128187,133.327,-612.307,0,0
128448,133.742,-609.392,0,0
128708,134.224,-606.576,0,0
128968,134.751,-603.852,0,0
129229,135.326,-601.171,0,0
129489,135.868,-598.637,0,0
129749,136.406,-596.127,0,0
130010,136.908,-593.652,0,0
130270,137.431,-591.212,0,0
130530,137.931,-588.772,0,0
130791,138.415,-586.367,0,0
131051,138.898,-583.96,0,0
131311,139.358,-581.543,0,0
131572,139.869,-579.057,0,0
131832,140.444,-576.662,0,0
132092,141.041,-574.202,0,0
132353,141.641,-571.833,0,0
132613,142.299,-569.496,0,0
132873,142.941,-567.17,0,0
133134,143.631,-564.899,0,0
133394,144.329,-562.637,0,0
133654,145.033,-560.446,0,0
133915,145.657,-558.285,0,0
134175,146.328,-556.108,0,0
134435,146.988,-553.949,0,0
134696,147.624,-551.761,0,0
134956,148.37,-549.587,0,0
135216,149.089,-547.492,0,0
135477,149.874,-545.407,0,0
135737,150.669,-543.306,0,0
135997,151.477,-541.322,0,0
136258,152.276,-539.366,0,0
136518,153.098,-537.478,0,0
136778,153.948,-535.727,0,0
137039,154.727,-533.979,0,0
137299,155.38,-532.313,0,0
137559,156.053,-530.658,0,0
137819,156.622,-529.024,0,0
138080,157.14,-527.396,0,0
138340.125,157.523,-525.69,0,0
138600.45,158.055,-524.036,0,0
138860.775,158.565,-522.425,0,0
139121.1,158.92,-520.743,0,0
139381.425,159.212,-519.131,0,0
139641.75,159.551,-517.424,0,0
139902.075,159.739,-515.708,0,0
140162.4,160.03,-513.871,0,0
140422.725,160.255,-511.97,0,0
140683.05,160.581,-510.167,0,0
140943.375,160.927,-508.279,0,0
141203.7,161.363,-506.507,0,0
141464.025,161.737,-504.673,0,0
141724.35,162.119,-503.081,0,0
141984.675,162.322,-501.452,0,0
142245.0,162.427,-499.802,0,0
142505.325,162.429,-498.051,0,0
142765.65,162.34,-496.169,0,0
143025.975,162.215,-494.169,0,0
143286.3,162.23,-491.911,0,0
143546.625,162.337,-489.655,0,0
143806.95,162.589,-487.2,0,0
144067.275,163.008,-484.865,0,0
144327.6,163.586,-482.622,0,0
144587.925,164.259,-480.541,0,0
144848.25,164.889,-478.493,0,0
145108.575,165.522,-476.556,0,0
145368.9,166.132,-474.821,0,0
145629.225,166.578,-473.118,0,0
145889.55,166.929,-471.429,0,0
146149.875,167.108,-469.65,0,0
146410.2,167.398,-467.86,0,0
146670.525,167.612,-466.031,0,0
146930.85,167.701,-464.317,0,0
147191.175,167.796,-462.481,0,0
147451.5,167.658,-460.573,0,0
147711.825,167.534,-458.499,0,0
147972.15,167.365,-456.388,0,0
148232.475,167.221,-454.038,0,0
148492.8,167.141,-451.556,0,0
148753.125,167.062,-449.059,0,0
149013.45,167.208,-446.493,0,0
149273.775,167.325,-443.911,0,0
149534.1,167.558,-441.141,0,0
149794.425,167.834,-438.388,0,0
150054.75,168.333,-435.626,0,0
150315.075,168.851,-432.953,0,0
150575.4,169.305,-430.276,0,0
150835.725,169.771,-427.489,0,0
151096.05,170.455,-424.665,0,0
151356.375,171.152,-421.939,0,0
151616.7,171.827,-419.122,0,0
151877.025,172.634,-416.112,0,0
152137.35,173.712,-413.115,0,0
152397.675,175.02,-410.265,0,0
152658.0,176.484,-407.63,0,0
152918.325,177.979,-405.242,0,0
153178.65,179.407,-402.975,0,0
153438.975,180.774,-400.982,0,0
153699.3,181.896,-399.045,0,0
153959.625,182.815,-397.109,0,0
154219.95,183.571,-395.064,0,0
154480,184.273,-392.865,0,0
154741,185.016,-390.45,0,0
155001,185.759,-387.964,0,0
155261,186.667,-385.286,0,0
155522,187.784,-382.546,0,0
155782,189.169,-379.827,0,0
156042,190.704,-377.229,0,0
156303,192.372,-374.97,0,0
156563,194.053,-372.873,0,0
156823,195.54,-370.865,0,0
157084,197.081,-368.942,0,0
157344,198.522,-367.216,0,0
157604,199.866,-365.572,0,0
157864,200.985,-364.049,0,0
158125,201.929,-362.377,0,0
158385,202.606,-360.611,0,0
158645,203.366,-358.685,0,0
158906,204.121,-356.578,0,0
159166,204.973,-354.395,0,0
159426,205.92,-352.245,0,0
159687,206.86,-350.074,0,0
159947,207.715,-348.016,0,0
160207,208.576,-345.819,0,0
160468,209.451,-343.514,0,0
160728,210.394,-341.315,0,0
160988,211.291,-338.988,0,0
161249,212.174,-336.663,0,0
161509,213.121,-334.19,0,0
161769,214.14,-331.758,0,0
162030,215.18,-329.32,0,0
162290,216.25,-326.784,0,0
162550,217.385,-324.308,0,0
162811,218.63,-321.812,0,0
163071,219.889,-319.425,0,0
163331,221.158,-317.021,0,0
163592,222.421,-314.715,0,0
163852,223.634,-312.416,0,0
164112,224.788,-310.165,0,0
164373,225.914,-307.898,0,0
164633,226.908,-305.604,0,0
164893,227.842,-303.274,0,0
165154,228.66,-300.804,0,0
165414,229.507,-298.192,0,0
165674,230.36,-295.444,0,0
165935,231.217,-292.639,0,0
166195,232.149,-289.619,0,0
166455,233.16,-286.57,0,0
166716,234.284,-283.409,0,0
166976,235.482,-280.201,0,0
167236,236.762,-276.972,0,0
167497,238.116,-273.629,0,0
167757,239.621,-270.258,0,0
168017,241.25,-266.898,0,0
168277,242.936,-263.522,0,0
168538,244.75,-260.213,0,0
168798,246.616,-256.928,0,0
169058,248.507,-253.702,0,0
169319,250.415,-250.475,0,0
169579,252.316,-247.262,0,0
169839,254.21,-244.03,0,0
170100,256.102,-240.742,0,0
170360.075,258.036,-237.422,0,0
170620.4,260.056,-234.052,0,0
170880.725,262.108,-230.685,0,0
171141.05,264.116,-227.327,0,0
171401.375,266.118,-223.912,0,0
171661.7,268.084,-220.379,0,0
171922.025,270.132,-216.736,0,0
172182.35,272.241,-212.977,0,0
172442.675,274.45,-209.189,0,0
172703.0,276.702,-205.339,0,0
172963.325,279.021,-201.39,0,0
173223.65,281.387,-197.38,0,0
173483.975,283.854,-193.213,0,0
173744.3,286.368,-188.93,0,0
174004.625,289.075,-184.564,0,0
174264.95,291.903,-180.095,0,0
174525.275,294.86,-175.596,0,0
174785.6,298.031,-170.926,0,0
175045.925,301.321,-166.341,0,0
175306.25,304.783,-161.655,0,0
175566.575,308.364,-156.924,0,0
175826.9,312.093,-152.149,0,0
176087.225,315.985,-147.282,0,0
176347.55,320.081,-142.386,0,0
176607.875,324.321,-137.471,0,0
176868.2,328.797,-132.495,0,0
177128.525,333.441,-127.514,0,0
177388.85,338.369,-122.484,0,0
177649.175,343.474,-117.506,0,0
177909.5,348.786,-112.512,0,0
178169.825,354.27,-107.569,0,0
178430.15,359.965,-102.62,0,0
178690.475,365.867,-97.6388,0,0
178950.8,372.075,-92.687,0,0
179211.125,378.532,-87.8382,0,0
179471.45,385.28,-83.089,0,0
179731.775,392.289,-78.4788,0,0
179992.1,399.44,-74.1004,0,0
180252.425,406.767,-69.8585,0,0
180512.75,414.184,-65.7591,0,0
180773.075,421.635,-61.7887,0,0
181033.4,429.182,-57.7706,0,0
181293.725,436.839,-53.7394,0,0
181554.05,444.798,-49.7992,0,0
181814.375,452.84,-45.8155,0,0
182074.7,461.12,-42.0825,0,0
182335.025,469.477,-38.3219,0,0
182595.35,477.994,-34.5853,0,0
182855.675,486.637,-30.821,0,0
183116.0,495.502,-26.9904,0,0
183376.325,504.649,-23.0696,0,0
183636.65,514.062,-19.0712,0,0
183896.975,523.937,-15.1481,0,0
184157.3,534.111,-11.2774,0,0
184417.625,544.722,-7.52106,0,0
184677.95,555.605,-3.81333,0,0
184938.275,566.869,-0.170259,0,0
185198.6,578.615,3.39422,0,0
185458.925,590.789,6.93279,0,0
185719.25,603.472,10.3289,0,0
185979.575,616.721,13.5068,0,0
186239.9,630.586,16.5058,0,0
186500,644.924,19.1466,0,0
186761,659.976,21.4971,0,0
187021,675.661,23.4019,0,0
187281,691.913,24.8352,0,0
187542,708.793,25.7363,0,0
187802,726.269,26.0732,0,0
188062,744.415,25.7344,0,0
188322,763.096,24.668,0,0
188583,782.445,22.7457,0,0
188843,802.317,19.8364,0,0
189103,822.663,15.9108,0,0
189364,843.421,10.7345,0,0
189624,864.326,4.31919,0,0
189884,885.273,-3.08812,0,0
190145,906.49,-12.0225,0,0
190405,927.361,-22.1205,0,0
190665,948.145,-33.359,0,0
190926,968.808,-45.5966,0,0
191186,989.216,-59.3948,0,0
191446,1009.13,-74.4102,0,0
191707,1028.45,-90.6357,0,0
191967,1047.29,-107.963,0,0
192227,1065.47,-126.499,0,0
192488,1082.86,-146.153,0,0
192748,1099.45,-166.965,0,0
193008,1115.03,-188.784,0,0
193269,1129.63,-211.597,0,0
193529,1143.08,-235.279,0,0
193789,1155.29,-259.836,0,0
194050,1166.54,-285.095,0,0
194310,1176.42,-311.089,0,0
194570,1184.82,-337.578,0,0
194831,1191.89,-364.759,0,0
195091,1197.84,-392.152,0,0
195351,1202.15,-420.005,0,0
195612,1204.91,-447.881,0,0
195872,1206.23,-476.181,0,0
196132,1206.09,-504.287,0,0
196393,1204.24,-532.29,0,0
196653,1200.89,-559.962,0,0
196913,1196.3,-587.124,0,0
197174,1190.26,-613.949,0,0
197434,1182.77,-640.106,0,0
197694,1174.21,-665.381,0,0
197955,1164.51,-690.134,0,0
198215,1153.84,-713.94,0,0
198475,1141.96,-736.934,0,0
198735,1129.53,-758.998,0,0
198996,1116.1,-780.015,0,0
199256,1102.09,-800.042,0,0
199516,1087.27,-819.234,0,0
199777,1072.32,-837.737,0,0
200037,1056.56,-855.144,0,0
200297,1040.31,-871.575,0,0
200558,1024.14,-887.349,0,0
200818,1007.23,-901.755,0,0
201078,989.679,-915.742,0,0
201339,971.95,-928.571,0,0
201599,954.022,-940.689,0,0
201859,936.019,-951.556,0,0
202120,918.066,-961.064,0,0
202380.025,899.936,-970.072,0,0
202640.35,881.848,-978.181,0,0
202900.675,864.043,-985.247,0,0
203161.0,846.384,-991.484,0,0
203421.325,828.789,-996.923,0,0
203681.65,811.763,-1001.5,0,0
203941.975,794.649,-1005.77,0,0
204202.3,778.321,-1009.09,0,0
204462.625,762.204,-1012.05,0,0
204722.95,746.181,-1014.3,0,0
204983.275,730.779,-1016.05,0,0
205243.6,715.501,-1017.61,0,0
205503.925,700.521,-1018.27,0,0
205764.25,686.048,-1018.75,0,0
206024.575,671.73,-1018.87,0,0
206284.9,657.975,-1018.72,0,0
206545.225,644.359,-1017.98,0,0
206805.55,631.402,-1017.03,0,0
207065.875,618.641,-1015.78,0,0
207326.2,606.057,-1014.33,0,0
207586.525,593.917,-1012.6,0,0
207846.85,581.9,-1010.79,0,0
208107.175,570.631,-1008.81,0,0
208367.5,559.325,-1006.36,0,0
208627.825,548.368,-1003.89,0,0
208888.15,537.805,-1001.33,0,0
209148.475,527.632,-998.614,0,0
209408.8,517.737,-995.669,0,0
209669.125,508.039,-992.545,0,0
209929.45,498.627,-989.667,0,0
210189.775,489.328,-986.87,0,0
210450.1,480.253,-983.83,0,0
210710.425,471.323,-980.918,0,0
210970.75,462.607,-977.845,0,0
211231.075,453.863,-974.586,0,0
211491.4,445.246,-971.228,0,0
211751.725,436.799,-967.711,0,0
212012.05,428.645,-963.918,0,0
212272.375,420.586,-960.003,0,0
212532.7,412.962,-956.001,0,0
212793.025,405.459,-951.926,0,0
213053.35,398.279,-947.824,0,0
213313.675,391.25,-943.686,0,0
213574.0,384.427,-939.534,0,0
213834.325,377.793,-935.372,0,0
214094.65,371.218,-931.187,0,0
214354.975,364.861,-926.775,0,0
214615.3,358.712,-922.567,0,0
214875.625,352.818,-917.952,0,0
215135.95,347.135,-913.664,0,0
215396.275,341.256,-909.215,0,0
215656.6,336.021,-904.572,0,0
215916.925,330.77,-900.176,0,0
216177.25,325.795,-895.673,0,0
216437.575,320.935,-891.256,0,0
216697.9,316.244,-886.8,0,0
216958.225,311.611,-882.456,0,0
217218.55,307.077,-878.046,0,0
217478.875,302.767,-873.762,0,0
217739.2,298.581,-869.386,0,0
217999.525,294.398,-865.121,0,0
218259.85,290.365,-860.798,0,0
218520,286.445,-856.534,0,0
218780,282.612,-852.236,0,0
219041,278.938,-847.921,0,0
219301,275.351,-843.679,0,0
219561,271.799,-839.426,0,0
219822,268.401,-835.078,0,0
220082,265.104,-830.768,0,0
220342,261.956,-826.643,0,0
220603,258.906,-822.434,0,0
220863,255.817,-818.231,0,0
221123,252.849,-814.065,0,0
221384,250.012,-809.784,0,0
221644,247.286,-805.542,0,0
221904,244.649,-801.333,0,0
222165,241.954,-797.117,0,0
222425,239.445,-792.929,0,0
222685,237.136,-788.674,0,0
222946,234.844,-784.391,0,0
223206,232.614,-780.127,0,0
223466,230.549,-775.887,0,0
223727,228.576,-771.634,0,0
223987,226.869,-767.49,0,0
224247,224.981,-763.183,0,0
224508,223.472,-759.087,0,0
224768,221.814,-754.905,0,0
225028,220.486,-750.769,0,0
225289,219.265,-746.509,0,0
225549,218.153,-742.616,0,0
225809,217.246,-738.774,0,0
226070,216.246,-734.794,0,0
226330,215.428,-731.031,0,0
226590,214.665,-727.41,0,0
226851,213.999,-723.846,0,0
227111,213.267,-720.356,0,0
227371,212.629,-716.957,0,0
227632,212.015,-713.671,0,0
227892,211.249,-710.388,0,0
228152,210.583,-707.151,0,0
228413,209.947,-703.909,0,0
228673,209.314,-700.673,0,0
228933,208.716,-697.337,0,0
229193,208.026,-694.101,0,0
229454,207.488,-690.854,0,0
229714,206.934,-687.562,0,0
229974,206.521,-684.296,0,0
230235,206.052,-681.093,0,0
230495,205.799,-677.709,0,0
230755,205.484,-674.44,0,0
231016,205.219,-671.183,0,0
231276,205.098,-667.891,0,0
231536,205.019,-664.663,0,0
231797,205.021,-661.435,0,0
232057,205.103,-658.189,0,0
232317,205.247,-654.958,0,0
232578,205.457,-651.767,0,0
232838,205.763,-648.576,0,0
233098,206.148,-645.404,0,0
233359,206.617,-642.279,0,0
233619,207.137,-639.178,0,0
233879,207.798,-636.059,0,0
234140,208.494,-633.009,0,0
234400,209.328,-630.043,0,0
234660.3,210.242,-627.07,0,0
234920.625,211.229,-624.116,0,0
235180.95,212.359,-621.314,0,0
235441.275,213.37,-618.502,0,0
235701.6,214.619,-615.677,0,0
235961.925,215.929,-613.039,0,0
236222.25,217.313,-610.384,0,0
236482.575,218.786,-607.806,0,0
236742.9,220.369,-605.301,0,0
237003.225,222.02,-602.891,0,0
237263.55,223.738,-600.49,0,0
237523.875,225.549,-598.224,0,0
237784.2,227.448,-596.022,0,0
238044.525,229.432,-593.933,0,0
238304.85,231.49,-591.926,0,0
238565.175,233.634,-589.972,0,0
238825.5,235.835,-588.227,0,0
239085.825,238.084,-586.513,0,0
239346.15,240.475,-584.948,0,0
239606.475,242.889,-583.505,0,0
239866.8,245.3,-582.199,0,0
240127.125,247.768,-581.042,0,0
240387.45,250.307,-579.942,0,0
240647.775,252.943,-579.11,0,0
240908.1,255.558,-578.309,0,0
241168.425,258.198,-577.685,0,0
241428.75,260.865,-577.211,0,0
241689.075,263.562,-576.855,0,0
241949.4,266.224,-576.705,0,0
242209.725,268.91,-576.684,0,0
242470.05,271.586,-576.793,0,0
242730.375,274.245,-577.083,0,0
242990.7,276.933,-577.507,0,0
243251.025,279.593,-578.067,0,0
243511.35,282.251,-578.804,0,0
243771.675,284.899,-579.783,0,0
244032.0,287.509,-580.986,0,0
244292.325,289.98,-582.333,0,0
244552.65,292.365,-584.016,0,0
244812.975,294.665,-585.829,0,0
245073.3,296.618,-587.858,0,0
245333.625,298.554,-590.04,0,0
245593.95,300.187,-592.242,0,0
245854.275,301.625,-594.604,0,0
246114.6,302.825,-596.916,0,0
246374.925,303.779,-599.373,0,0
246635.25,304.661,-601.742,0,0
246895.575,305.375,-604.136,0,0
247155.9,305.93,-606.539,0,0
247416.225,306.333,-608.81,0,0
247676.55,306.613,-611.124,0,0
247936.875,306.879,-613.415,0,0
248197.2,306.988,-615.65,0,0
248457.525,306.894,-618.011,0,0
248717.85,306.762,-620.094,0,0
248978.175,306.525,-622.114,0,0
249238.5,306.23,-624.162,0,0
249498.825,305.92,-625.936,0,0
249759.15,305.838,-627.784,0,0
250019.475,305.758,-629.642,0,0
250279.8,305.747,-631.442,0,0
250540,305.863,-633.598,0,0
250800,306.004,-635.832,0,0
251061,305.929,-638.309,0,0
251321,305.744,-641.06,0,0
251581,305.35,-643.766,0,0
251842,304.792,-646.654,0,0
252102,303.978,-649.557,0,0
252362,302.955,-652.402,0,0
252623,301.824,-655.311,0,0
252883,300.453,-658.215,0,0
253143,298.944,-661.149,0,0
253404,297.251,-664.022,0,0
253664,295.301,-666.889,0,0
253924,293.191,-669.688,0,0
254185,290.807,-672.347,0,0
254445,288.349,-675.112,0,0
254705,285.55,-677.491,0,0
254966,282.617,-679.95,0,0
255226,279.541,-681.944,0,0
255486,276.395,-683.903,0,0
255747,273.13,-685.807,0,0
256007,269.746,-687.306,0,0
256267,266.326,-688.749,0,0
256528,262.85,-689.98,0,0
256788,259.387,-690.938,0,0
257048,255.898,-691.859,0,0
257309,252.437,-692.594,0,0
257569,249.036,-693.05,0,0
257829,245.55,-693.498,0,0
258090,242.136,-693.777,0,0
258350,238.798,-693.916,0,0
258610,235.463,-693.948,0,0
258871,232.203,-693.831,0,0
259131,228.995,-693.717,0,0
259391,225.755,-693.308,0,0
259651,222.736,-692.989,0,0
259912,219.73,-692.662,0,0
260172,216.52,-692.033,0,0
260432,213.614,-691.425,0,0
260693,210.759,-690.752,0,0
260953,207.856,-689.996,0,0
261213,205.055,-689.244,0,0
261474,202.249,-688.328,0,0
261734,199.541,-687.336,0,0
261994,196.889,-686.364,0,0
262255,194.306,-685.285,0,0
262515,191.833,-684.206,0,0
262775,189.359,-683.051,0,0
263036,186.986,-681.888,0,0
263296,184.662,-680.707,0,0
263556,182.349,-679.486,0,0
263817,180.184,-678.238,0,0
264077,177.983,-676.982,0,0
264337,175.909,-675.752,0,0
264598,173.794,-674.542,0,0
264858,171.794,-673.161,0,0
265118,169.761,-671.83,0,0
265379,167.894,-670.408,0,0
265639,165.992,-669.077,0,0
265899,164.089,-667.724,0,0
266160,162.296,-666.359,0,0
266420,160.567,-664.994,0,0
266680.25,158.855,-663.609,0,0
266940.575,157.176,-662.196,0,0
267200.9,155.54,-660.843,0,0
267461.225,153.931,-659.447,0,0
267721.55,152.378,-658.05,0,0
267981.875,150.806,-656.657,0,0
268242.2,149.298,-655.3,0,0
268502.525,147.817,-653.94,0,0
268762.85,146.335,-652.538,0,0
269023.175,144.935,-651.173,0,0
269283.5,143.566,-649.782,0,0
269543.825,142.102,-648.375,0,0
269804.15,140.724,-646.981,0,0
270064.475,139.401,-645.656,0,0
270324.8,138.105,-644.234,0,0
270585.125,136.862,-642.802,0,0
270845.45,135.575,-641.44,0,0
271105.775,134.331,-640.042,0,0
271366.1,133.108,-638.688,0,0
271626.425,131.945,-637.349,0,0
271886.75,130.72,-635.911,0,0
272147.075,129.587,-634.461,0,0
272407.4,128.48,-633.15,0,0
272667.725,127.341,-631.785,0,0
272928.05,126.245,-630.403,0,0
273188.375,125.183,-629.022,0,0
273448.7,124.124,-627.628,0,0
273709.025,123.046,-626.279,0,0
273969.35,122.077,-624.907,0,0
274229.675,121.044,-623.515,0,0
274490.0,120.07,-622.13,0,0
274750.325,119.144,-620.78,0,0
275010.65,118.062,-619.45,0,0
275270.975,117.185,-618.085,0,0
275531.3,116.27,-616.692,0,0
275791.625,115.387,-615.31,0,0
276051.95,114.499,-613.996,0,0
276312.275,113.622,-612.602,0,0
276572.6,112.744,-611.246,0,0
276832.925,111.912,-609.89,0,0
277093.25,111.077,-608.507,0,0
277353.575,110.258,-607.143,0,0
277613.9,109.483,-605.762,0,0
277874.225,108.709,-604.405,0,0
278134.55,107.943,-603.05,0,0
278394.875,107.203,-601.655,0,0
278655.2,106.475,-600.265,0,0
278915.525,105.783,-598.841,0,0
279175.85,105.085,-597.479,0,0
279436.175,104.428,-596.031,0,0
279696.5,103.885,-594.621,0,0
279956.825,103.352,-593.239,0,0
280217.15,102.846,-591.797,0,0
280477.475,102.397,-590.454,0,0
280737.8,102.012,-589.122,0,0
280998.125,101.591,-587.803,0,0
281258.45,101.252,-586.583,0,0
281518.775,100.896,-585.421,0,0
281779.1,100.53,-584.276,0,0
282039.425,100.128,-583.181,0,0
282299.75,99.7065,-582.102,0,0
282560,99.2703,-581.017,0,0
282820,98.8134,-579.95,0,0
283081,98.3791,-578.843,0,0
283341,97.859,-577.78,0,0
283601,97.3603,-576.62,0,0
283862,96.9561,-575.526,0,0
284122,96.4591,-574.403,0,0
284382,96.1489,-573.252,0,0
284643,95.7428,-572.141,0,0
284903,95.3591,-571.061,0,0
285163,95.0977,-569.873,0,0
285424,94.7503,-568.835,0,0
285684,94.4716,-567.676,0,0
285944,94.2987,-566.785,0,0
286205,94.0229,-565.829,0,0
286465,93.6867,-564.867,0,0
286725,93.527,-563.98,0,0
286986,93.208,-563.186,0,0
287246,92.8891,-562.35,0,0
287506,92.4952,-561.475,0,0
287767,92.0626,-560.701,0,0
288027,91.7068,-559.851,0,0
288287,91.221,-559.028,0,0
288548,90.7421,-558.137,0,0
288808,90.2932,-557.285,0,0
289068,89.8828,-556.452,0,0
289329,89.4033,-555.519,0,0
289589,88.9125,-554.599,0,0
289849,88.5149,-553.612,0,0
290109,88.1361,-552.752,0,0
290370,87.6564,-551.814,0,0
290630,87.3009,-550.913,0,0
290890,86.8899,-549.969,0,0
291151,86.4999,-549.099,0,0
291411,86.1783,-548.163,0,0
291671,85.7582,-547.292,0,0
291932,85.4603,-546.474,0,0
292192,85.1205,-545.596,0,0
292452,84.6421,-544.743,0,0
292713,84.3775,-543.975,0,0
292973,83.8978,-543.16,0,0
293233,83.5641,-542.316,0,0
293494,83.1227,-541.54,0,0
293754,82.6467,-540.725,0,0
294014,82.1779,-539.844,0,0
294275,81.7167,-539.059,0,0
294535,81.2239,-538.159,0,0
294795,80.7662,-537.297,0,0
295056,80.2883,-536.351,0,0
295316,79.8515,-535.46,0,0
295576,79.3321,-534.577,0,0
295837,78.9034,-533.565,0,0
296097,78.4065,-532.637,0,0
296357,78.0579,-531.579,0,0
296618,77.6784,-530.597,0,0
296878,77.2965,-529.56,0,0
297138,76.8804,-528.566,0,0
297399,76.6205,-527.501,0,0
297659,76.3629,-526.538,0,0
297919,76.084,-525.469,0,0
298180,75.9336,-524.472,0,0
298440,75.7743,-523.521,0,0
298700.2,75.6357,-522.624,0,0
298960.525,75.4426,-521.774,0,0
299220.85,75.3034,-520.934,0,0
299481.175,75.0979,-520.155,0,0
299741.5,74.9345,-519.406,0,0
300001.825,74.677,-518.583,0,0
300262.15,74.455,-517.844,0,0
300522.475,74.1955,-517.078,0,0
300782.8,73.9307,-516.352,0,0
301043.125,73.629,-515.54,0,0
301303.45,73.3579,-514.754,0,0
301563.775,73.0239,-513.96,0,0
301824.1,72.7325,-513.106,0,0
302084.425,72.4886,-512.31,0,0
302344.75,72.1598,-511.563,0,0
302605.075,71.8878,-510.726,0,0
302865.4,71.613,-509.972,0,0
303125.725,71.301,-509.084,0,0
303386.05,71.0505,-508.253,0,0
303646.375,70.7853,-507.383,0,0
303906.7,70.604,-506.555,0,0
304167.025,70.3681,-505.718,0,0
304427.35,70.1039,-504.853,0,0
304687.675,69.9127,-504.076,0,0
304948.0,69.692,-503.266,0,0
305208.325,69.5454,-502.533,0,0
305468.65,69.3654,-501.71,0,0
305728.975,69.1659,-500.983,0,0
305989.3,68.9838,-500.196,0,0
306249.625,68.7741,-499.407,0,0
306509.95,68.5656,-498.713,0,0
306770.275,68.3402,-497.983,0,0
307030.6,68.125,-497.319,0,0
307290.925,67.8717,-496.551,0,0
307551.25,67.6411,-495.833,0,0
307811.575,67.4237,-495.054,0,0
308071.9,67.1332,-494.337,0,0
308332.225,66.8803,-493.511,0,0
308592.55,66.7389,-492.797,0,0
308852.875,66.4436,-492.062,0,0
309113.2,66.2139,-491.271,0,0
309373.525,66.0056,-490.489,0,0
309633.85,65.8414,-489.786,0,0
309894.175,65.6319,-489.051,0,0
310154.5,65.3987,-488.328,0,0
310414.825,65.1904,-487.519,0,0
310675.15,65.0156,-486.871,0,0
310935.475,64.8502,-486.066,0,0
311195.8,64.6013,-485.424,0,0
311456.125,64.4066,-484.68,0,0
311716.45,64.2239,-483.938,0,0
311976.775,63.9847,-483.267,0,0
312237.1,63.7521,-482.556,0,0
312497.425,63.5805,-481.833,0,0
312757.75,63.4262,-481.109,0,0
313018.075,63.1613,-480.33,0,0
313278.4,62.909,-479.611,0,0
313538.725,62.7436,-479.03,0,0
313799.05,62.5164,-478.233,0,0
314059.375,62.3082,-477.532,0,0
314319.7,62.1418,-476.74,0,0
314580,61.9036,-476.037,0,0
314840,61.7511,-475.348,0,0
315101,61.5341,-474.614,0,0
315361,61.3741,-473.898,0,0
315621,61.165,-473.199,0,0
315882,61.0021,-472.45,0,0
316142,60.8159,-471.748,0,0
316402,60.6358,-471.047,0,0
316663,60.4206,-470.351,0,0
316923,60.2805,-469.632,0,0
317183,60.0828,-468.936,0,0
317444,59.9091,-468.217,0,0
317704,59.7548,-467.539,0,0
317964,59.5861,-466.851,0,0
318225,59.4404,-466.146,0,0
318485,59.1901,-465.385,0,0
318745,59.0213,-464.716,0,0
319006,58.8761,-463.969,0,0
319266,58.7082,-463.313,0,0
319526,58.5552,-462.594,0,0
319787,58.3975,-461.846,0,0
320047,58.2684,-461.13,0,0
320307,58.1083,-460.465,0,0
320567,58.0004,-459.827,0,0
320828,57.7929,-459.078,0,0
321088,57.6715,-458.417,0,0
321348,57.5358,-457.718,0,0
321609,57.3732,-457.063,0,0
321869,57.2689,-456.332,0,0
322129,57.1122,-455.678,0,0
322390,56.9804,-455.008,0,0
322650,56.8535,-454.349,0,0
322910,56.7679,-453.689,0,0
323171,56.6266,-453.041,0,0
323431,56.5025,-452.361,0,0
323691,56.3849,-451.698,0,0
323952,56.2661,-451.034,0,0
324212,56.1044,-450.368,0,0
324472,55.9336,-449.779,0,0
324733,55.7899,-449.144,0,0
324993,55.6807,-448.467,0,0
325253,55.584,-447.814,0,0
325514,55.392,-447.122,0,0
325774,55.2298,-446.499,0,0
326034,55.0802,-445.858,0,0
326295,54.9091,-445.177,0,0
326555,54.7927,-444.497,0,0
326815,54.6619,-443.849,0,0
327076,54.5238,-443.226,0,0
327336,54.3913,-442.591,0,0
327596,54.2706,-441.87,0,0
327857,54.146,-441.243,0,0
328117,53.9741,-440.546,0,0
328377,53.8908,-439.862,0,0
328638,53.7521,-439.219,0,0
328898,53.6325,-438.582,0,0
329158,53.5355,-437.895,0,0
329419,53.4311,-437.26,0,0
329679,53.2679,-436.57,0,0
329939,53.1887,-435.916,0,0
330200,53.1533,-435.255,0,0
330460,53.0355,-434.582,0,0
330720.15,52.9471,-433.929,0,0
330980.475,52.8285,-433.275,0,0
331240.8,52.7948,-432.605,0,0
331501.125,52.6651,-432.003,0,0
331761.45,52.6152,-431.337,0,0
332021.775,52.4921,-430.683,0,0
332282.1,52.4131,-430.103,0,0
332542.425,52.363,-429.455,0,0
332802.75,52.2907,-428.797,0,0
333063.075,52.1996,-428.186,0,0
333323.4,52.125,-427.565,0,0
333583.725,52.0781,-426.948,0,0
333844.05,51.9957,-426.295,0,0
334104.375,51.9239,-425.705,0,0
334364.7,51.7806,-425.041,0,0
334625.025,51.7563,-424.418,0,0
334885.35,51.7052,-423.799,0,0
335145.675,51.6117,-423.161,0,0
335406.0,51.5394,-422.599,0,0
335666.325,51.4719,-421.948,0,0
335926.65,51.3611,-421.344,0,0
336186.975,51.3074,-420.758,0,0
336447.3,51.2586,-420.144,0,0
336707.625,51.1599,-419.525,0,0
336967.95,51.1634,-418.965,0,0
337228.275,51.0301,-418.319,0,0
337488.6,50.9573,-417.684,0,0
337748.925,50.9136,-417.069,0,0
338009.25,50.89,-416.488,0,0
338269.575,50.7986,-415.914,0,0
338529.9,50.7016,-415.295,0,0
338790.225,50.6714,-414.687,0,0
339050.55,50.5981,-414.076,0,0
339310.875,50.5457,-413.482,0,0
339571.2,50.4604,-412.882,0,0
339831.525,50.3903,-412.256,0,0
340091.85,50.3919,-411.626,0,0
340352.175,50.3469,-411.04,0,0
340612.5,50.2671,-410.412,0,0
340872.825,50.2097,-409.806,0,0
341133.15,50.1612,-409.21,0,0
341393.475,50.132,-408.612,0,0
341653.8,50.1192,-407.999,0,0
341914.125,50.062,-407.397,0,0
342174.45,50.0588,-406.809,0,0
342434.775,50.0216,-406.189,0,0
342695.1,50.0312,-405.619,0,0
342955.425,49.9903,-404.997,0,0
343215.75,50.0199,-404.402,0,0
343476.075,50.0129,-403.849,0,0
343736.4,50.003,-403.274,0,0
343996.725,50.004,-402.774,0,0
344257.05,49.9529,-402.231,0,0
344517.375,49.8892,-401.63,0,0
344777.7,49.8582,-401.081,0,0
345038.025,49.8745,-400.524,0,0
345298.35,49.8011,-399.923,0,0
345558.675,49.7871,-399.33,0,0
345819.0,49.7535,-398.778,0,0
346079.325,49.7579,-398.18,0,0
346339.65,49.6995,-397.634,0,0
346599.975,49.6703,-397.078,0,0
346860,49.6917,-396.438,0,0
347121,49.6895,-395.892,0,0
347381,49.6587,-395.333,0,0
347641,49.6875,-394.741,0,0
347902,49.7135,-394.18,0,0
348162,49.7537,-393.578,0,0
348422,49.7436,-393.042,0,0
348683,49.7823,-392.494,0,0
348943,49.8361,-391.93,0,0
349203,49.807,-391.363,0,0
349464,49.8154,-390.824,0,0
349724,49.9247,-390.31,0,0
349984,49.937,-389.78,0,0
350245,49.9251,-389.242,0,0
350505,50.012,-388.718,0,0
350765,50.0374,-388.219,0,0
351025,50.0627,-387.699,0,0
351286,50.1244,-387.202,0,0
351546,50.1439,-386.676,0,0
351806,50.2058,-386.214,0,0
352067,50.226,-385.667,0,0
352327,50.2735,-385.21,0,0
352587,50.2923,-384.733,0,0
352848,50.3208,-384.25,0,0
353108,50.3706,-383.78,0,0
353368,50.3676,-383.297,0,0
353629,50.4213,-382.85,0,0
353889,50.4428,-382.39,0,0
354149,50.5135,-381.923,0,0
354410,50.5033,-381.487,0,0
354670,50.4982,-381.048,0,0
354930,50.527,-380.603,0,0
355191,50.4718,-380.146,0,0
355451,50.4911,-379.719,0,0
355711,50.4807,-379.267,0,0
355972,50.4449,-378.854,0,0
356232,50.4367,-378.409,0,0
356492,50.455,-377.981,0,0
356753,50.4125,-377.498,0,0
357013,50.3885,-377.059,0,0
357273,50.3406,-376.625,0,0
357534,50.2735,-376.168,0,0
357794,50.2761,-375.693,0,0
358054,50.2269,-375.206,0,0
358315,50.1719,-374.76,0,0
358575,50.1738,-374.306,0,0
358835,50.114,-373.855,0,0
359096,50.1099,-373.373,0,0
359356,50.0708,-372.883,0,0
359616,50.013,-372.48,0,0
359877,49.9629,-371.986,0,0
360137,49.9892,-371.531,0,0
360397,49.9406,-371.083,0,0
360658,49.878,-370.624,0,0
360918,49.8388,-370.189,0,0
361178,49.807,-369.696,0,0
361438,49.7687,-369.265,0,0
361699,49.7179,-368.777,0,0
361959,49.622,-368.279,0,0
362219,49.6088,-367.788,0,0
362480,49.5808,-367.345,0,0
362740.1,49.5705,-366.886,0,0
363000.425,49.492,-366.381,0,0
363260.75,49.4579,-365.875,0,0
363521.075,49.489,-365.425,0,0
363781.4,49.4195,-364.938,0,0
364041.725,49.3839,-364.438,0,0
364302.05,49.365,-363.989,0,0
364562.375,49.3697,-363.483,0,0
364822.7,49.342,-363.012,0,0
365083.025,49.2715,-362.481,0,0
365343.35,49.2837,-362.047,0,0
365603.675,49.2834,-361.532,0,0
365864.0,49.2894,-361.06,0,0
366124.325,49.2823,-360.529,0,0
366384.65,49.242,-360.099,0,0
366644.975,49.282,-359.641,0,0
366905.3,49.2772,-359.152,0,0
367165.625,49.221,-358.694,0,0
367425.95,49.2408,-358.224,0,0
367686.275,49.2432,-357.749,0,0
367946.6,49.223,-357.273,0,0
368206.925,49.2429,-356.845,0,0
368467.25,49.2208,-356.437,0,0
368727.575,49.1818,-355.939,0,0
368987.9,49.1736,-355.432,0,0
369248.225,49.1682,-355.009,0,0
369508.55,49.1748,-354.532,0,0
369768.875,49.1257,-354.037,0,0
370029.2,49.1185,-353.576,0,0
370289.525,49.1412,-353.108,0,0
370549.85,49.1609,-352.61,0,0
370810.175,49.1685,-352.148,0,0
371070.5,49.1749,-351.694,0,0
371330.825,49.2162,-351.217,0,0
371591.15,49.2216,-350.748,0,0
371851.475,49.236,-350.301,0,0
372111.8,49.2763,-349.851,0,0
372372.125,49.3076,-349.414,0,0
372632.45,49.3139,-348.991,0,0
372892.775,49.3592,-348.563,0,0
373153.1,49.3943,-348.113,0,0
373413.425,49.422,-347.714,0,0
373673.75,49.4033,-347.354,0,0
373934.075,49.3784,-346.935,0,0
374194.4,49.4135,-346.596,0,0
374454.725,49.3621,-346.153,0,0
374715.05,49.3589,-345.81,0,0
374975.375,49.2866,-345.389,0,0
375235.7,49.2775,-345.021,0,0
375496.025,49.1988,-344.613,0,0
375756.35,49.1105,-344.198,0,0
376016.675,49.0256,-343.778,0,0
376277.0,48.9641,-343.34,0,0
376537.325,48.8728,-342.918,0,0
376797.65,48.7859,-342.447,0,0
377057.975,48.7098,-341.991,0,0
377318.3,48.6462,-341.51,0,0
377578.625,48.5983,-341.027,0,0
377838.95,48.5227,-340.596,0,0
378099.275,48.495,-340.13,0,0
378359.6,48.4087,-339.643,0,0
378619.925,48.365,-339.186,0,0
378880,48.282,-338.673,0,0
379141,48.2359,-338.206,0,0
379401,48.1823,-337.742,0,0
379661,48.1513,-337.22,0,0
379922,48.0735,-336.745,0,0
380182,48.035,-336.199,0,0
380442,48.0129,-335.72,0,0
380703,47.9632,-335.209,0,0
380963,47.9441,-334.677,0,0
381223,47.901,-334.173,0,0
381483,47.8456,-333.629,0,0
381744,47.8575,-333.096,0,0
382004,47.8654,-332.576,0,0
382264,47.882,-332.052,0,0
382525,47.8861,-331.504,0,0
382785,47.9688,-330.986,0,0
383045,48.0284,-330.51,0,0
383306,48.0936,-330.058,0,0
383566,48.1483,-329.61,0,0
383826,48.1685,-329.155,0,0
384087,48.1636,-328.734,0,0
384347,48.1339,-328.32,0,0
384607,48.1294,-327.888,0,0
384868,48.0947,-327.459,0,0
385128,48.0458,-326.944,0,0
385388,48.0437,-326.486,0,0
385649,48.0526,-325.954,0,0
385909,48.0087,-325.48,0,0
386169,48.0074,-325.009,0,0
386430,47.9733,-324.558,0,0
386690,47.9764,-324.053,0,0
386950,47.9611,-323.56,0,0
387211,47.9558,-323.092,0,0
387471,47.9175,-322.572,0,0
387731,47.9135,-322.071,0,0
387992,47.9018,-321.581,0,0
388252,47.8855,-321.079,0,0
388512,47.8974,-320.588,0,0
388773,47.8768,-320.093,0,0
389033,47.8937,-319.591,0,0
389293,47.9028,-319.073,0,0
389554,47.8858,-318.555,0,0
389814,47.872,-318.038,0,0
390074,47.9091,-317.539,0,0
390335,47.9127,-317.035,0,0
390595,47.944,-316.54,0,0
390855,47.9357,-316.046,0,0
391116,47.9511,-315.525,0,0
391376,47.9538,-314.969,0,0
391636,47.9724,-314.487,0,0
391896,47.9802,-313.975,0,0
392157,48.0311,-313.475,0,0
392417,48.0267,-312.958,0,0
392677,48.0437,-312.464,0,0
392938,48.0583,-311.932,0,0
393198,48.0935,-311.416,0,0
393458,48.1018,-310.903,0,0
393719,48.1268,-310.374,0,0
393979,48.1496,-309.852,0,0
394239,48.1817,-309.361,0,0
394500,48.2053,-308.813,0,0
394760.05,48.2581,-308.284,0,0
395020.375,48.2857,-307.79,0,0
395280.7,48.2952,-307.248,0,0
395541.025,48.3425,-306.71,0,0
395801.35,48.3833,-306.196,0,0
396061.675,48.4111,-305.67,0,0
396322.0,48.4511,-305.137,0,0
396582.325,48.5049,-304.616,0,0
396842.65,48.5288,-304.079,0,0
397102.975,48.572,-303.552,0,0
397363.3,48.6073,-303.017,0,0
397623.625,48.6593,-302.476,0,0
397883.95,48.7063,-301.932,0,0
398144.275,48.7575,-301.406,0,0
398404.6,48.8111,-300.884,0,0
398664.925,48.8568,-300.336,0,0
398925.25,48.924,-299.775,0,0
399185.575,48.993,-299.231,0,0
399445.9,49.0273,-298.683,0,0
399706.225,49.0854,-298.131,0,0
399966.55,49.1631,-297.598,0,0
400006.6,49.1573,-297.531,0,0