File: Accelerated corrosion test data/2025-10-15_15-08-31/sample_1.csv
Frequency (Hz),Impedance (ohms),Phase (Radians),Temperature (C),Humidity (%)
10000.0,240.003,-12187.3,0,0
10260.325,242.553,-11873.8,0,0
10520.65,254.882,-11594.2,0,0
10780.975,226.074,-11310.6,0,0
11041.3,218.942,-11051.3,0,0
11301.625,215.696,-10794.1,0,0
11561.95,211.278,-10551.3,0,0
11822.275,208.66,-10312.8,0,0
12082.6,229.125,-10082.8,0,0
12342.925,220.769,-9908.68,0,0
12603.25,202.909,-9695.67,0,0
12863.575,194.022,-9494.7,0,0
13123.9,203.11,-9301.87,0,0
13384.225,188.185,-9132.05,0,0
13644.55,192.735,-8950.5,0,0
13904.875,183.273,-8773.5,0,0
14165.2,194.697,-8640.25,0,0
14425.525,212.872,-8471.88,0,0
14685.8,204.918,-8306.04,0,0
14946.175,179.617,-8206.29,0,0
15206.5,187.367,-8042.09,0,0
15466.825,174.926,-7929.93,0,0
15727.15,174.165,-7794.07,0,0
15987.5,163.308,-7667.95,0,0
16247.8,162.214,-7541.68,0,0
16508.125,161.642,-7417.73,0,0
16768.45,162.16,-7301.98,0,0
17028.775,164.923,-7193.53,0,0
17289.1,155.661,-7090.87,0,0
17549.425,153.05,-6988.41,0,0
17809.75,147.422,-6883.08,0,0
18070.075,150.072,-6783.82,0,0
18330.4,143.022,-6687.89,0,0
18590.725,138.622,-6594.22,0,0
18851.05,138.524,-6495.74,0,0
19111.375,136.028,-6415.6,0,0
19371.7,134.922,-6323.41,0,0
19632.025,133.206,-6234.7,0,0
19892.35,136.991,-6148.09,0,0
20152.675,137.156,-6061.62,0,0
20413.0,157.367,-5973.16,0,0
20673.3,166.993,-5932.17,0,0
20933.65,149.505,-5862.88,0,0
21193.975,161.328,-5801.83,0,0
21454.3,141.632,-5727.73,0,0
21714.625,137.573,-5656.25,0,0
21974.9,139.368,-5574.86,0,0
22235.275,172.412,-5532.12,0,0
22495.6,140.142,-5489.44,0,0
22755.925,126.354,-5420.61,0,0
23016.25,122.723,-5353.86,0,0
23276.6,118.405,-5292.7,0,0
23536.9,115.537,-5232.01,0,0
23797.225,112.238,-5171.19,0,0
24057.55,116.525,-5110.62,0,0
24317.875,111.973,-5062.16,0,0
24578.2,111.448,-5002.69,0,0
24838.525,110.099,-4952.17,0,0
25098.85,110.332,-4898.8,0,0
25359.175,105.298,-4849.57,0,0
25619.5,105.219,-4798.22,0,0
25879.8,104.62,-4747.51,0,0
26140.1,103.717,-4697.46,0,0
26400.5,102.685,-4647.9,0,0
26660.8,105.591,-4597.79,0,0
26921.1,113.683,-4549.68,0,0
27181.4,121.289,-4517.92,0,0
27441.8,109.882,-4483.16,0,0
27702.1,103.525,-4434.1,0,0
27962.4,110.417,-4384.81,0,0
28222.7,110.305,-4346.03,0,0
28483.1,120.741,-4303.65,0,0
28743.4,128.848,-4284.77,0,0
29003.7,118.185,-4247.64,0,0
29264,117.873,-4214.18,0,0
29524.4,106.799,-4180.11,0,0
29784.7,104.878,-4138.03,0,0
30045,101.248,-4105.77,0,0
30305.3,99.3642,-4068.04,0,0
30565.7,98.3241,-4029.12,0,0
30826,100.105,-3993.44,0,0
31086.3,103.094,-3965.31,0,0
31346.6,99.3112,-3936.55,0,0
31607,93.467,-3898.91,0,0
31867.3,97.5602,-3866.27,0,0
32127.6,97.3222,-3835.62,0,0
32387.9,97.394,-3809.1,0,0
32648.3,92.9922,-3777.29,0,0
32908.6,95.367,-3749.37,0,0
33168.9,90.7651,-3721.34,0,0
33429.2,88.4799,-3692.2,0,0
33689.6,85.6879,-3662.69,0,0
33949.9,85.0557,-3631.76,0,0
34210.2,87.6836,-3605.89,0,0
34470.5,85.8815,-3578.76,0,0
34730.9,84.2801,-3550.51,0,0
34991.2,81.6188,-3523.57,0,0
35251.5,80.3083,-3496.87,0,0
35511.8,79.4682,-3470.32,0,0
35772.2,79.0402,-3445.06,0,0
36032.5,78.2605,-3419.69,0,0
36292.8,78.6273,-3394.43,0,0
36553.1,78.931,-3369.56,0,0
36813.5,78.4407,-3345.16,0,0
37073.8,79.3125,-3321.16,0,0
37334.1,78.0422,-3297.51,0,0
37594.4,75.0775,-3274.34,0,0
37854.8,74.1029,-3251.76,0,0
38115.1,73.5849,-3228.84,0,0
38375.4,73.1275,-3206.04,0,0
38635.7,72.6569,-3184.14,0,0
38896.1,72.4694,-3162.22,0,0
39156.4,72.2077,-3140.31,0,0
39416.7,72.0375,-3119.89,0,0
39677,70.9276,-3098.56,0,0
39937.4,70.918,-3077.69,0,0
40197.7,71.0705,-3057.05,0,0
40458,70.76,-3037.02,0,0
40718.3,70.7974,-3016.42,0,0
40978.7,72.192,-2997.03,0,0
41239,72.036,-2979.09,0,0
41499.3,71.347,-2960.68,0,0
41759.6,70.7817,-2942.17,0,0
42020,70.1267,-2922.95,0,0
42280.275,69.9265,-2904.75,0,0
42540.6,70.4006,-2886.82,0,0
42800.925,69.5713,-2869.85,0,0
43061.25,69.0955,-2851.97,0,0
43321.575,68.7422,-2834.69,0,0
43581.9,68.68,-2817.69,0,0
43842.225,68.0463,-2800.17,0,0
44102.55,67.7383,-2782.65,0,0
44362.875,68.8897,-2765.86,0,0
44623.2,68.6471,-2750.26,0,0
44883.525,68.0753,-2734.71,0,0
45143.85,68.3058,-2718.82,0,0
45404.175,68.4524,-2702.89,0,0
45664.5,67.2817,-2688.34,0,0
45924.825,66.5239,-2672.8,0,0
46185.15,65.983,-2657.22,0,0
46445.475,65.0808,-2642.22,0,0
46705.8,65.1057,-2626.67,0,0
46966.125,64.8308,-2612.44,0,0
47226.45,64.0793,-2597.34,0,0
47486.775,64.2869,-2582.74,0,0
47747.1,63.8426,-2569.05,0,0
48007.425,63.3866,-2554.4,0,0
48267.75,63.4015,-2540.36,0,0
48528.075,62.4329,-2527,0,0
48788.4,61.781,-2513.02,0,0
49048.725,61.6004,-2498.73,0,0
49309.05,61.2844,-2484.88,0,0
49569.375,61.1905,-2471.82,0,0
49829.7,60.8428,-2458.97,0,0
50090.025,60.1761,-2445.66,0,0
50350.35,59.504,-2432.3,0,0
50610.675,59.7188,-2419.11,0,0
50871.0,59.2216,-2406.09,0,0
51131.325,59.1437,-2393.35,0,0
51391.65,59.0008,-2381.09,0,0
51651.975,58.5208,-2368.8,0,0
51912.3,58.2296,-2356.25,0,0
52172.625,57.9296,-2344.07,0,0
52432.95,57.9833,-2331.88,0,0
52693.275,57.6826,-2319.96,0,0
52953.6,57.5364,-2307.94,0,0
53213.925,57.649,-2296.27,0,0
53474.25,57.2619,-2284.79,0,0
53734.575,57.177,-2273.18,0,0
53994.9,57.1405,-2262.06,0,0
54255.225,57.4653,-2251.09,0,0
54515.55,56.2952,-2239.62,0,0
54775.875,55.9252,-2228.43,0,0
55036.2,55.8005,-2217.18,0,0
55296.525,55.8987,-2206.22,0,0
55556.85,55.6735,-2195.61,0,0
55817.175,55.4509,-2185.18,0,0
56077.5,55.044,-2174.34,0,0
56337.825,54.8154,-2163.45,0,0
56598.15,54.8315,-2153.01,0,0
56858.475,54.8116,-2142.73,0,0
57118.8,54.5485,-2132.54,0,0
57379.125,54.4145,-2122.07,0,0
57639.45,54.6313,-2112.09,0,0
57899.775,54.4578,-2101.92,0,0
58160.1,54.6334,-2092.23,0,0
58420.4,54.347,-2082.59,0,0
58680.7,54.2291,-2072.84,0,0
58941.1,54.1453,-2063.01,0,0
59201.4,54.4026,-2053.34,0,0
59461.7,54.2022,-2044.25,0,0
59722,54.0561,-2034.8,0,0
59982.4,54.1712,-2025.44,0,0
60242.7,54.0805,-2016.3,0,0
60503,54.1807,-2007.09,0,0
60763.3,54.4153,-1998.45,0,0
61023.7,53.9412,-1989.94,0,0
61284,53.5828,-1981.05,0,0
61544.3,53.184,-1971.89,0,0
61804.6,53.4267,-1962.97,0,0
62065,53.0527,-1954.65,0,0
62325.3,52.6104,-1945.67,0,0
62585.6,52.5135,-1936.84,0,0
62845.9,52.4078,-1928.07,0,0
63106.3,52.5213,-1919.47,0,0
63366.6,52.3994,-1911.02,0,0
63626.9,52.374,-1902.56,0,0
63887.2,52.4584,-1894.23,0,0
64147.6,52.6601,-1885.74,0,0
64407.9,52.5853,-1877.39,0,0
64668.2,53.0321,-1869.06,0,0
64928.5,53.3891,-1860.64,0,0
65188.9,54.0921,-1852.9,0,0
65449.2,54.7726,-1845.33,0,0
65709.5,55.2633,-1838.34,0,0
65969.8,55.0405,-1831.42,0,0
66230.2,54.8733,-1824.06,0,0
66490.5,54.8459,-1816.66,0,0
66750.8,54.6318,-1809.98,0,0
67011.1,54.2165,-1802.29,0,0
67271.5,53.9099,-1794.74,0,0
67531.8,54.1208,-1787.29,0,0
67792.1,54.528,-1780.01,0,0
68052.4,54.2429,-1773.92,0,0
68312.8,53.4808,-1766.47,0,0
68573.1,53.1157,-1759.17,0,0
68833.4,53.5487,-1752.33,0,0
69093.7,53.3423,-1745.59,0,0
69354.1,52.8441,-1738.72,0,0
69614.4,52.7831,-1732.17,0,0
69874.7,52.0655,-1725.35,0,0
70135,51.7184,-1718.6,0,0
70395.4,51.0325,-1711.75,0,0
70655.7,50.688,-1704.57,0,0
70916,50.4302,-1697.57,0,0
71176.3,50.3719,-1690.85,0,0
71436.7,50.2253,-1684.34,0,0
71697,49.8308,-1677.76,0,0
71957.3,49.2367,-1671.06,0,0
72217.6,48.7336,-1664.22,0,0
72478,48.3146,-1657.17,0,0
72738.3,48.2539,-1650.34,0,0
72998.6,48.1727,-1643.43,0,0
73258.9,48.3493,-1636.83,0,0
73519.3,48.1838,-1630.43,0,0
73779.6,48.0076,-1623.81,0,0
74039.9,48.0427,-1617.16,0,0
74300.225,48.106,-1610.69,0,0
74560.55,48.1382,-1604.23,0,0
74820.875,48.3068,-1597.74,0,0
75081.2,48.4709,-1591.57,0,0
75341.525,48.5639,-1585.33,0,0
75601.85,48.5352,-1579.13,0,0
75862.175,48.633,-1572.79,0,0
76122.5,48.9101,-1566.61,0,0
76382.825,49.2046,-1560.63,0,0
76643.15,49.4128,-1554.65,0,0
76903.475,49.5681,-1548.71,0,0
77163.8,49.8037,-1542.76,0,0
77424.125,50.0977,-1536.98,0,0
77684.45,50.3226,-1531.19,0,0
77944.775,50.4145,-1525.46,0,0
78205.1,50.8635,-1519.65,0,0
78465.425,51.4198,-1514.05,0,0
78725.75,51.8418,-1508.89,0,0
78986.075,51.7888,-1503.8,0,0
79246.4,51.8241,-1498.69,0,0
79506.725,51.6426,-1493.54,0,0
79767.05,51.3323,-1487.98,0,0
80027.375,51.361,-1482.52,0,0
80287.7,51.1572,-1477.32,0,0
80548.025,50.7678,-1471.89,0,0
80808.35,50.5788,-1466.28,0,0
81068.675,50.4148,-1460.66,0,0
81329.0,50.4665,-1454.98,0,0
81589.325,50.5516,-1449.47,0,0
81849.65,50.7685,-1443.9,0,0
82109.975,50.9735,-1438.62,0,0
82370.3,51.1147,-1433.32,0,0
82630.625,51.1656,-1428.08,0,0
82890.95,51.2626,-1422.61,0,0
83151.275,51.5875,-1417.2,0,0
83411.6,51.9838,-1412.03,0,0
83671.925,52.1755,-1406.97,0,0
83932.25,52.3893,-1401.83,0,0
84192.575,52.8016,-1396.61,0,0
84452.9,53.1137,-1391.61,0,0
84713.225,53.4276,-1386.55,0,0
84973.55,53.8012,-1381.42,0,0
85233.875,54.4249,-1376.47,0,0
85494.2,55.061,-1371.97,0,0
85754.525,55.3143,-1367.42,0,0
86014.85,55.5365,-1362.82,0,0
86275.175,55.6687,-1358.18,0,0
86535.5,55.7878,-1353.49,0,0
86795.825,56.0255,-1348.98,0,0
87056.15,56.0925,-1344.17,0,0
87316.475,56.4281,-1339.55,0,0
87576.8,56.5171,-1335.05,0,0
87837.125,56.4049,-1330.49,0,0
88097.45,56.3066,-1325.66,0,0
88357.775,56.3117,-1320.56,0,0
88618.1,56.642,-1315.5,0,0
88878.425,57.1623,-1310.74,0,0
89138.75,57.5597,-1305.94,0,0
89399.075,58.0323,-1300.99,0,0
89659.4,58.8317,-1296.24,0,0
89919.725,59.5126,-1291.57,0,0
90180,60.3673,-1287.17,0,0
90440.4,60.7774,-1282.63,0,0
90700.7,61.3668,-1277.82,0,0
90961,62.5028,-1272.94,0,0
91221.3,63.8451,-1268.37,0,0
91481.7,65.2658,-1264.34,0,0
91742,66.82,-1260.45,0,0
92002.3,67.8059,-1256.83,0,0
92262.6,68.9879,-1253.03,0,0
92523,70.3581,-1249.07,0,0
92783.3,72.1324,-1245.48,0,0
93043.6,73.9278,-1242.72,0,0
93303.9,75.3145,-1240.16,0,0
93564.3,76.6697,-1237.55,0,0
93824.6,78.9244,-1236.31,0,0
94084.9,79.0004,-1237.06,0,0
94345.2,76.2098,-1236.39,0,0
94605.6,73.6903,-1233.14,0,0
94865.9,72.4633,-1229.82,0,0
95126.2,70.6281,-1226.39,0,0
95386.5,69.2376,-1222.59,0,0
95646.9,67.8678,-1218.59,0,0
95907.2,66.6518,-1214.22,0,0
96167.5,66.0451,-1209.47,0,0
96427.8,66.1514,-1205.24,0,0
96688.2,65.8772,-1201.68,0,0
96948.5,65.1541,-1197.75,0,0
97208.8,64.6067,-1193.59,0,0
97469.1,64.2293,-1189.29,0,0
97729.5,64.0015,-1185.01,0,0
97989.8,63.9776,-1180.89,0,0
98250.1,63.9679,-1176.77,0,0
98510.4,64.1273,-1172.87,0,0
98770.8,64.0951,-1169.13,0,0
99031.1,63.8249,-1165.37,0,0
99291.4,63.5772,-1161.38,0,0
99551.7,63.407,-1157.45,0,0
99812.1,63.2821,-1153.37,0,0
100072,63.3124,-1149.36,0,0
100333,63.2372,-1145.4,0,0
100593,63.1271,-1141.38,0,0
100853,63.2333,-1137.3,0,0
101114,63.2617,-1133.33,0,0
101374,63.191,-1129.35,0,0
101634,63.1356,-1125.15,0,0
101895,63.1015,-1120.98,0,0
102155,63.1174,-1116.43,0,0
102415,63.4827,-1111.76,0,0
102676,64.1601,-1107.02,0,0
102936,65.2765,-1102.7,0,0
103196,66.2334,-1098.53,0,0
103457,67.2708,-1094.54,0,0
103717,68.2944,-1090.49,0,0
103977,69.4151,-1086.36,0,0
104238,71.1098,-1082.26,0,0
104498,73.0438,-1078.96,0,0
104758,74.3794,-1076.12,0,0
105019,75.2967,-1073.25,0,0
105279,76.0759,-1069.93,0,0
105539,77.218,-1066.31,0,0
105800,78.6727,-1063.02,0,0
106060,80.1443,-1059.93,0,0
106320.175,81.707,-1057.01,0,0
106580.5,83.2081,-1054.42,0,0
106840.825,84.4579,-1051.97,0,0
107101.15,85.6678,-1049.48,0,0
107361.475,86.9874,-1047.07,0,0
107621.8,88.2045,-1044.98,0,0
107882.125,89.0922,-1042.96,0,0
108142.45,89.8439,-1040.78,0,0
108402.775,90.629,-1038.6,0,0
108663.1,91.6267,-1036.47,0,0
108923.425,92.34,-1034.55,0,0
109183.75,93.1663,-1032.64,0,0
109444.075,93.8942,-1030.99,0,0
109704.4,94.2317,-1029.58,0,0
109964.725,94.2972,-1028.11,0,0
110225.05,93.8776,-1026.37,0,0
110485.375,93.3038,-1024.37,0,0
110745.7,92.9553,-1021.67,0,0
111006.025,93.0157,-1018.97,0,0
111266.35,93.2104,-1016.35,0,0
111526.675,93.6675,-1013.63,0,0
111787.0,94.2232,-1011.59,0,0
112047.325,94.8822,-1009.53,0,0
112307.65,95.209,-1007.7,0,0
112567.975,95.5241,-1005.94,0,0
112828.3,95.7113,-1004.19,0,0
113088.625,95.6618,-1002.58,0,0
113348.95,95.613,-1000.98,0,0
113609.275,95.3809,-999.494,0,0
113869.6,94.8689,-997.946,0,0
114129.925,94.1447,-996.13,0,0
114390.25,93.5151,-994.002,0,0
114650.575,92.8364,-992.021,0,0
114910.9,92.3413,-990.103,0,0
115171.225,91.5866,-988.147,0,0
115431.55,90.6542,-986.025,0,0
115691.875,89.6351,-983.916,0,0
115952.2,88.5443,-981.448,0,0
116212.525,87.6707,-978.834,0,0
116472.85,86.8958,-976.156,0,0
116733.175,86.1456,-973.59,0,0
116993.5,85.2253,-971.02,0,0
117253.825,84.3135,-968.182,0,0
117514.15,83.4616,-965.208,0,0
117774.475,82.8552,-962.106,0,0
118034.8,82.14,-958.984,0,0
118295.125,81.7562,-955.827,0,0
118555.45,81.3778,-952.76,0,0
118815.775,80.9765,-949.66,0,0
119076.1,80.7796,-946.456,0,0
119336.425,80.7304,-943.295,0,0
119596.75,80.6286,-940.304,0,0
119857.075,80.7232,-937.202,0,0
120117.4,80.9809,-934.352,0,0
120377.725,81.0959,-931.588,0,0
120638.05,81.3444,-928.893,0,0
120898.375,81.4916,-926.468,0,0
121158.7,81.4124,-924.179,0,0
121419.025,81.1226,-921.681,0,0
121679.35,80.8375,-919.13,0,0
121939.675,80.4129,-916.497,0,0
122200.0,80.0159,-913.753,0,0
122460,79.6948,-910.816,0,0
122721,79.479,-907.903,0,0
122981,79.3475,-905.061,0,0
123241,79.0535,-902.201,0,0
123502,78.9141,-899.197,0,0
123762,78.8199,-896.206,0,0
124022,78.8076,-893.173,0,0
124283,78.8443,-890.144,0,0
124543,78.9139,-887.179,0,0
124803,79.0423,-884.237,0,0
125064,79.1706,-881.388,0,0
125324,79.2463,-878.391,0,0
125584,79.4695,-875.369,0,0
125845,79.7788,-872.484,0,0
126105,80.0039,-869.675,0,0
126365,80.288,-866.758,0,0
126626,80.5722,-863.913,0,0
126886,80.8453,-861.161,0,0
127146,80.979,-858.161,0,0
127406,81.6074,-855.365,0,0
127667,81.8405,-852.488,0,0
127927,82.1738,-849.609,0,0
128187,82.6219,-846.68,0,0
128448,83.212,-843.771,0,0
128708,83.8911,-841.04,0,0
128968,84.3644,-838.426,0,0
129229,84.7762,-835.736,0,0
129489,85.2473,-832.838,0,0
129749,85.7988,-829.886,0,0
130010,86.6387,-826.909,0,0
130270,87.7425,-824.093,0,0
130530,88.8117,-821.538,0,0
130791,89.828,-819.144,0,0
131051,90.8379,-816.771,0,0
131311,91.8774,-814.578,0,0
131572,92.8288,-812.507,0,0
131832,93.637,-810.541,0,0
132092,94.4005,-808.579,0,0
132353,94.9957,-806.659,0,0
132613,95.4614,-804.62,0,0
132873,95.9402,-802.499,0,0
133134,96.5795,-800.399,0,0
133394,97.1694,-798.377,0,0
133654,97.5777,-796.322,0,0
133915,98.0322,-794.16,0,0
134175,98.5998,-791.947,0,0
134435,99.2048,-789.909,0,0
134696,99.7047,-787.887,0,0
134956,100.207,-785.806,0,0
135216,100.681,-783.684,0,0
135477,101.225,-781.541,0,0
135737,101.668,-779.423,0,0
135997,102.243,-777.281,0,0
136258,102.876,-775.068,0,0
136518,103.533,-772.824,0,0
136778,104.516,-770.648,0,0
137039,105.434,-768.658,0,0
137299,106.453,-766.867,0,0
137559,107.495,-765.222,0,0
137819,108.43,-763.953,0,0
138080,108.99,-762.768,0,0
138340.125,109.292,-761.548,0,0
138600.45,109.554,-760.204,0,0
138860.775,109.602,-758.837,0,0
139121.1,109.416,-757.31,0,0
139381.425,109.292,-755.524,0,0
139641.75,109.353,-753.712,0,0
139902.075,109.358,-751.967,0,0
140162.4,109.286,-750.142,0,0
140422.725,109.21,-748.262,0,0
140683.05,109.13,-746.297,0,0
140943.375,109.062,-744.184,0,0
141203.7,109.075,-742.03,0,0
141464.025,109.258,-739.897,0,0
141724.35,109.374,-737.931,0,0
141984.675,109.256,-735.834,0,0
142245.0,109.304,-733.416,0,0
142505.325,109.65,-731.122,0,0
142765.65,109.915,-729.023,0,0
143025.975,110.141,-726.85,0,0
143286.3,110.259,-724.587,0,0
143546.625,110.479,-722.23,0,0
143806.95,110.895,-719.858,0,0
144067.275,111.37,-717.649,0,0
144327.6,111.86,-715.5,0,0
144587.925,112.115,-713.299,0,0
144848.25,112.6,-710.879,0,0
145108.575,113.326,-708.648,0,0
145368.9,113.954,-706.555,0,0
145629.225,114.547,-704.552,0,0
145889.55,115.09,-702.536,0,0
146149.875,115.708,-700.546,0,0
146410.2,116.198,-698.659,0,0
146670.525,116.608,-696.629,0,0
146930.85,117.227,-694.612,0,0
147191.175,117.883,-692.805,0,0
147451.5,118.321,-691.078,0,0
147711.825,118.639,-689.36,0,0
147972.15,118.787,-687.577,0,0
148232.475,118.797,-685.536,0,0
148492.8,118.993,-683.239,0,0
148753.125,119.372,-681.043,0,0
149013.45,119.785,-678.713,0,0
149273.775,120.477,-676.438,0,0
149534.1,121.391,-674.437,0,0
149794.425,122.129,-672.872,0,0
150054.75,122.49,-671.418,0,0
150315.075,122.592,-669.853,0,0
150575.4,122.53,-668.187,0,0
150835.725,122.247,-666.417,0,0
151096.05,121.74,-664.355,0,0
151356.375,121.323,-661.857,0,0
151616.7,121.16,-659.172,0,0
151877.025,121.186,-656.541,0,0
152137.35,121.177,-653.935,0,0
152397.675,121.004,-651.146,0,0
152658.0,120.91,-648.029,0,0
152918.325,121.077,-644.685,0,0
153178.65,121.584,-641.267,0,0
153438.975,122.27,-637.992,0,0
153699.3,123.05,-634.74,0,0
153959.625,123.9,-631.491,0,0
154219.95,124.823,-628.12,0,0
154480,125.955,-624.688,0,0
154741,127.356,-621.29,0,0
155001,128.895,-618.086,0,0
155261,130.363,-614.94,0,0
155522,131.852,-611.642,0,0
155782,133.694,-608.14,0,0
156042,135.933,-604.818,0,0
156303,138.407,-601.766,0,0
156563,140.946,-599.022,0,0
156823,143.437,-596.337,0,0
157084,146.135,-593.747,0,0
157344,149.076,-591.476,0,0
157604,151.963,-589.699,0,0
157864,154.42,-588.249,0,0
158125,156.473,-586.607,0,0
158385,158.635,-584.778,0,0
158645,160.823,-583.13,0,0
158906,162.582,-581.446,0,0
159166,164.195,-579.261,0,0
159426,166.177,-576.649,0,0
159687,168.522,-573.805,0,0
159947,171.585,-570.868,0,0
160207,175.256,-568.435,0,0
160468,179.062,-566.472,0,0
160728,182.917,-564.735,0,0
160988,187.102,-563.406,0,0
161249,191.357,-562.622,0,0
161509,195.528,-562.306,0,0
161769,199.43,-562.473,0,0
162030,203.203,-563.023,0,0
162290,206.448,-563.984,0,0
162550,209.162,-564.919,0,0
162811,211.593,-565.829,0,0
163071,213.682,-566.592,0,0
163331,215.597,-567.089,0,0
163592,217.555,-567.273,0,0
163852,219.875,-567.456,0,0
164112,222.198,-567.776,0,0
164373,224.661,-568.24,0,0
164633,226.969,-568.981,0,0
164893,229.198,-569.589,0,0
165154,231.733,-570.334,0,0
165414,234.215,-571.481,0,0
165674,236.572,-572.783,0,0
165935,239.045,-574.444,0,0
166195,241.169,-576.661,0,0
166455,242.703,-579.083,0,0
166716,243.764,-581.37,0,0
166976,244.654,-583.551,0,0
167236,245.449,-585.68,0,0
167497,246.111,-588.057,0,0
167757,246.334,-590.526,0,0
168017,246.222,-592.944,0,0
168277,245.704,-595.367,0,0
168538,244.784,-597.576,0,0
168798,243.608,-599.551,0,0
169058,242.191,-601.316,0,0
169319,240.445,-602.887,0,0
169579,238.338,-604.164,0,0
169839,235.997,-604.819,0,0
170100,233.714,-604.938,0,0
170360.075,231.56,-604.571,0,0
170620.4,229.931,-603.903,0,0
170880.725,228.483,-603.366,0,0
171141.05,226.863,-602.757,0,0
171401.375,225.265,-601.622,0,0
171661.7,224.229,-600.31,0,0
171922.025,223.439,-599.113,0,0
172182.35,222.8,-597.902,0,0
172442.675,222.449,-596.81,0,0
172703.0,222.181,-596.065,0,0
172963.325,221.619,-595.559,0,0
173223.65,220.835,-594.878,0,0
173483.975,219.931,-594.01,0,0
173744.3,219.146,-592.899,0,0
174004.625,218.418,-591.646,0,0
174264.95,217.945,-590.252,0,0
174525.275,217.74,-588.96,0,0
174785.6,217.595,-587.776,0,0
175045.925,217.443,-586.681,0,0
175306.25,217.272,-585.405,0,0
175566.575,217.488,-584.216,0,0
175826.9,217.915,-583.464,0,0
176087.225,218.063,-583.023,0,0
176347.55,217.853,-582.62,0,0
176607.875,217.474,-582.052,0,0
176868.2,217.124,-581.305,0,0
177128.525,216.91,-580.562,0,0
177388.85,216.749,-579.763,0,0
177649.175,216.762,-579.155,0,0
177909.5,216.714,-578.922,0,0
178169.825,216.298,-578.868,0,0
178430.15,215.566,-578.716,0,0
178690.475,214.661,-578.41,0,0
178950.8,213.657,-578.007,0,0
179211.125,212.453,-577.416,0,0
179471.45,211.336,-576.67,0,0
179731.775,210.303,-575.974,0,0
179992.1,208.937,-575.402,0,0
180252.425,207.206,-574.531,0,0
180512.75,205.483,-573.233,0,0
180773.075,203.936,-571.694,0,0
181033.4,202.499,-570.112,0,0
181293.725,201.05,-568.316,0,0
181554.05,199.731,-566.415,0,0
181814.375,198.571,-564.507,0,0
182074.7,197.324,-562.66,0,0
182335.025,195.976,-560.55,0,0
182595.35,194.761,-558.322,0,0
182855.675,193.666,-556.008,0,0
183116.0,192.599,-553.69,0,0
183376.325,191.465,-551.271,0,0
183636.65,190.359,-548.637,0,0
183896.975,189.383,-545.853,0,0
184157.3,188.488,-542.955,0,0
184417.625,187.727,-539.974,0,0
184677.95,187.034,-536.909,0,0
184938.275,186.348,-533.551,0,0
185198.6,186.157,-529.938,0,0
185458.925,186.401,-526.511,0,0
185719.25,186.777,-523.423,0,0
185979.575,187.052,-520.41,0,0
186239.9,187.377,-517.443,0,0
186500,187.705,-514.525,0,0
186761,188.025,-511.637,0,0
187021,188.345,-508.619,0,0
187281,188.761,-505.41,0,0
187542,189.47,-502.151,0,0
187802,190.414,-499.203,0,0
188062,191.19,-496.456,0,0
188322,191.865,-493.662,0,0
188583,192.453,-490.794,0,0
188843,193.153,-487.811,0,0
189103,194.066,-484.938,0,0
189364,194.893,-481.994,0,0
189624,195.784,-479.141,0,0
189884,196.598,-476.274,0,0
190145,197.432,-473.297,0,0
190405,198.317,-470.157,0,0
190665,199.324,-467.077,0,0
190926,200.426,-463.955,0,0
191186,201.445,-460.957,0,0
191446,202.418,-457.758,0,0
191707,203.507,-454.402,0,0
191967,204.719,-450.948,0,0
192227,206.136,-447.427,0,0
192488,207.765,-443.924,0,0
192748,209.395,-440.573,0,0
193008,211.105,-437.062,0,0
193269,213.024,-433.619,0,0
193529,214.967,-430.227,0,0
193789,217.01,-426.837,0,0
194050,219.109,-423.478,0,0
194310,221.226,-420.145,0,0
194570,223.27,-416.786,0,0
194831,225.516,-413.194,0,0
195091,227.874,-409.543,0,0
195351,230.508,-405.863,0,0
195612,233.338,-402.308,0,0
195872,236.254,-398.901,0,0
196132,239.065,-395.541,0,0
196393,242.042,-392.003,0,0
196653,245.09,-388.374,0,0
196913,248.449,-384.679,0,0
197174,251.94,-381.131,0,0
197434,255.574,-377.635,0,0
197694,259.425,-374.132,0,0
197955,263.436,-370.673,0,0
198215,267.685,-367.334,0,0
198475,272.036,-364.19,0,0
198735,276.497,-361.202,0,0
198996,280.986,-358.388,0,0
199256,285.336,-355.584,0,0
199516,289.583,-352.689,0,0
199777,293.988,-349.539,0,0
200037,298.647,-346.247,0,0
200297,303.713,-343.011,0,0
200558,308.986,-339.795,0,0
200818,314.438,-336.674,0,0
201078,320.284,-333.548,0,0
201339,326.279,-330.488,0,0
201599,332.623,-327.43,0,0
201859,339.282,-324.44,0,0
202120,346.5,-321.431,0,0
202380.025,354.294,-318.754,0,0
202640.35,362.598,-316.592,0,0
202900.675,371.175,-315.118,0,0
203161.0,379.775,-314.202,0,0
203421.325,388.236,-313.386,0,0
203681.65,397.09,-312.595,0,0
203941.975,406.477,-312.148,0,0
204202.3,416.402,-312.392,0,0
204462.625,426.799,-313.554,0,0
204722.95,437.339,-315.567,0,0
204983.275,447.828,-318.68,0,0
205243.6,457.95,-322.685,0,0
205503.925,467.596,-327.596,0,0
205764.25,476.804,-333.161,0,0
206024.575,485.255,-339.274,0,0
206284.9,493.232,-345.773,0,0
206545.225,500.766,-352.751,0,0
206805.55,507.695,-360.305,0,0
207065.875,513.69,-368.267,0,0
207326.2,518.823,-376.229,0,0
207586.525,523.444,-384.006,0,0
207846.85,527.649,-391.87,0,0
208107.175,531.329,-400.079,0,0
208367.5,534.168,-408.236,0,0
208627.825,536.337,-416.01,0,0
208888.15,538.196,-423.725,0,0
209148.475,539.501,-431.357,0,0
209408.8,540.333,-438.79,0,0
209669.125,540.674,-446.212,0,0
209929.45,540.329,-453.6,0,0
210189.775,538.854,-460.511,0,0
210450.1,536.552,-466.466,0,0
210710.425,533.984,-471.161,0,0
210970.75,531.692,-475.046,0,0
211231.075,529.565,-478.134,0,0
211491.4,527.719,-480.633,0,0
211751.725,526.188,-482.862,0,0
212012.05,524.731,-484.417,0,0
212272.375,523.507,-485.327,0,0
212532.7,523.008,-485.542,0,0
212793.025,523.563,-485.425,0,0
213053.35,525.016,-485.553,0,0
213313.675,527.078,-486.057,0,0
213574.0,529.612,-486.988,0,0
213834.325,532.427,-488.462,0,0
214094.65,535.266,-490.504,0,0
214354.975,537.884,-492.853,0,0
214615.3,540.479,-495.195,0,0
214875.625,543.069,-497.908,0,0
215135.95,545.542,-500.564,0,0
215396.275,548.069,-503.212,0,0
215656.6,550.869,-506.212,0,0
215916.925,553.463,-509.584,0,0
216177.25,555.668,-513.028,0,0
216437.575,557.655,-516.217,0,0
216697.9,559.702,-519.286,0,0
216958.225,561.923,-522.176,0,0
217218.55,564.304,-525.103,0,0
217478.875,566.821,-528.1,0,0
217739.2,569.583,-531.292,0,0
217999.525,572.318,-534.652,0,0
218259.85,575.038,-538.106,0,0
218520,577.805,-541.483,0,0
218780,580.824,-544.837,0,0
219041,584.109,-548.268,0,0
219301,587.752,-551.929,0,0
219561,591.755,-555.957,0,0
219822,596.141,-560.644,0,0
220082,600.316,-565.891,0,0
220342,604.497,-571.477,0,0
220603,608.344,-577.537,0,0
220863,612.181,-583.782,0,0
221123,616.36,-590.492,0,0
221384,620.403,-598.017,0,0
221644,624.173,-606.207,0,0
221904,627.381,-615.084,0,0
222165,630.155,-624.484,0,0
222425,632.293,-634.192,0,0
222685,633.833,-644.378,0,0
222946,634.522,-654.954,0,0
223206,634.419,-665.597,0,0
223466,633.517,-675.938,0,0
223727,632.141,-686.403,0,0
223987,630.332,-696.557,0,0
224247,627.794,-706.645,0,0
224508,625.024,-716.554,0,0
224768,621.914,-726.337,0,0
225028,618.349,-736.128,0,0
225289,614.216,-745.568,0,0
225549,609.594,-755.219,0,0
225809,604.455,-764.333,0,0
226070,598.871,-773.337,0,0
226330,593.047,-781.922,0,0
226590,586.907,-790.318,0,0
226851,580.405,-798.405,0,0
227111,573.672,-806.366,0,0
227371,566.482,-814.325,0,0
227632,558.698,-822.001,0,0
227892,550.137,-829.292,0,0
228152,541.059,-835.871,0,0
228413,531.62,-841.827,0,0
228673,522.052,-846.88,0,0
228933,512.391,-851.23,0,0
229193,502.641,-854.983,0,0
229454,493.036,-858.198,0,0
229714,483.604,-860.647,0,0
229974,474.166,-862.793,0,0
230235,464.814,-864.35,0,0
230495,455.702,-865.344,0,0
230755,446.944,-865.866,0,0
231016,438.464,-865.996,0,0
231276,430.228,-865.793,0,0
231536,422.483,-865.334,0,0
231797,414.945,-864.574,0,0
232057,407.628,-863.571,0,0
232317,400.851,-862.479,0,0
232578,394.332,-861.201,0,0
232838,388.21,-859.902,0,0
233098,382.434,-858.538,0,0
233359,376.863,-857.403,0,0
233619,371.391,-856.256,0,0
233879,366.058,-855.145,0,0
234140,360.86,-853.998,0,0
234400,355.828,-852.764,0,0
234660.3,351.094,-851.693,0,0
234920.625,346.495,-850.9,0,0
235180.95,341.541,-849.971,0,0
235441.275,336.583,-849.359,0,0
235701.6,331.596,-848.516,0,0
235961.925,326.495,-847.532,0,0
236222.25,321.532,-846.397,0,0
236482.575,316.468,-845.239,0,0
236742.9,311.54,-843.809,0,0
237003.225,306.702,-842.398,0,0
237263.55,301.862,-840.864,0,0
237523.875,297.092,-839.127,0,0
237784.2,292.448,-837.334,0,0
238044.525,288.026,-835.52,0,0
238304.85,283.503,-833.702,0,0
238565.175,279.129,-831.697,0,0
238825.5,274.681,-829.613,0,0
239085.825,270.605,-827.431,0,0
239346.15,266.488,-825.168,0,0
239606.475,262.457,-822.797,0,0
239866.8,258.628,-820.442,0,0
240127.125,254.864,-817.919,0,0
240387.45,251.413,-815.442,0,0
240647.775,248.082,-813,0,0
240908.1,244.68,-810.64,0,0
241168.425,241.437,-808.199,0,0
241428.75,238.261,-805.878,0,0
241689.075,235.075,-803.472,0,0
241949.4,231.976,-800.957,0,0
242209.725,229.154,-798.383,0,0
242470.05,226.33,-795.932,0,0
242730.375,223.692,-793.476,0,0
242990.7,221.058,-791.015,0,0
243251.025,218.61,-788.541,0,0
243511.35,216.115,-786.206,0,0
243771.675,213.78,-783.964,0,0
244032.0,211.329,-781.829,0,0
244292.325,208.94,-779.562,0,0
244552.65,206.607,-777.36,0,0
244812.975,204.267,-775.197,0,0
245073.3,201.893,-773.002,0,0
245333.625,199.538,-770.924,0,0
245593.95,197.151,-768.7,0,0
245854.275,194.822,-766.474,0,0
246114.6,192.494,-764.243,0,0
246374.925,190.048,-761.945,0,0
246635.25,187.728,-759.513,0,0
246895.575,185.424,-757.031,0,0
247155.9,183.301,-754.488,0,0
247416.225,181.232,-751.884,0,0
247676.55,179.188,-749.336,0,0
247936.875,177.261,-746.689,0,0
248197.2,175.464,-744.111,0,0
248457.525,173.769,-741.422,0,0
248717.85,172.113,-738.974,0,0
248978.175,170.524,-736.39,0,0
249238.5,169.027,-733.901,0,0
249498.825,167.419,-731.379,0,0
249759.15,165.971,-728.928,0,0
250019.475,164.588,-726.482,0,0
250279.8,163.172,-723.921,0,0
250540,161.849,-721.513,0,0
250800,160.442,-719.067,0,0
251061,159.168,-716.626,0,0
251321,157.898,-714.129,0,0
251581,156.696,-711.654,0,0
251842,155.523,-709.242,0,0
252102,154.407,-706.817,0,0
252362,153.291,-704.375,0,0
252623,152.159,-701.938,0,0
252883,151.045,-699.477,0,0
253143,149.976,-696.937,0,0
253404,149.001,-694.354,0,0
253664,148.105,-691.786,0,0
253924,147.259,-689.183,0,0
254185,146.576,-686.594,0,0
254445,145.905,-684.02,0,0
254705,145.385,-681.433,0,0
254966,144.841,-678.991,0,0
255226,144.394,-676.399,0,0
255486,144.042,-673.976,0,0
255747,143.745,-671.587,0,0
256007,143.452,-669.314,0,0
256267,143.102,-667.03,0,0
256528,142.711,-664.717,0,0
256788,142.455,-662.373,0,0
257048,142.279,-660.036,0,0
257309,142.106,-657.746,0,0
257569,141.948,-655.488,0,0
257829,141.835,-653.223,0,0
258090,141.734,-650.943,0,0
258350,141.699,-648.593,0,0
258610,141.75,-646.227,0,0
258871,141.805,-643.848,0,0
259131,142.042,-641.445,0,0
259391,142.444,-639.052,0,0
259651,142.991,-636.69,0,0
259912,143.582,-634.433,0,0
260172,144.337,-632.253,0,0
260432,145.105,-630.193,0,0
260693,146.058,-628.25,0,0
260953,147.028,-626.405,0,0
261213,148.015,-624.67,0,0
261474,149.034,-623.069,0,0
261734,150.06,-621.535,0,0
261994,151.109,-620.114,0,0
262255,152.18,-618.749,0,0
262515,153.312,-617.491,0,0
262775,154.438,-616.334,0,0
263036,155.585,-615.326,0,0
263296,156.709,-614.302,0,0
263556,157.765,-613.386,0,0
263817,158.894,-612.552,0,0
264077,160.068,-611.821,0,0
264337,161.177,-611.122,0,0
264598,162.353,-610.556,0,0
264858,163.536,-610.088,0,0
265118,164.818,-609.757,0,0
265379,166.175,-609.515,0,0
265639,167.536,-609.503,0,0
265899,168.874,-609.785,0,0
266160,170.123,-610.281,0,0
266420,171.208,-611.056,0,0
266680.25,172.121,-612.065,0,0
266940.575,172.75,-613.274,0,0
267200.9,173.086,-614.612,0,0
267461.225,173.1,-616.001,0,0
267721.55,172.799,-617.357,0,0
267981.875,172.289,-618.706,0,0
268242.2,171.474,-620.016,0,0
268502.525,170.379,-621.232,0,0
268762.85,169.033,-622.348,0,0
269023.175,167.41,-623.245,0,0
269283.5,165.597,-623.906,0,0
269543.825,163.614,-624.367,0,0
269804.15,161.527,-624.461,0,0
270064.475,159.311,-624.386,0,0
270324.8,157.161,-623.96,0,0
270585.125,155.058,-623.267,0,0
270845.45,152.916,-622.307,0,0
271105.775,150.991,-621.07,0,0
271366.1,149.15,-619.748,0,0
271626.425,147.474,-618.175,0,0
271886.75,145.958,-616.501,0,0
272147.075,144.636,-614.714,0,0
272407.4,143.483,-612.908,0,0
272667.725,142.538,-610.97,0,0
272928.05,141.713,-609.061,0,0
273188.375,141.116,-607.132,0,0
273448.7,140.683,-605.25,0,0
273709.025,140.378,-603.422,0,0
273969.35,140.15,-601.715,0,0
274229.675,140.067,-599.992,0,0
274490.0,140.044,-598.401,0,0
274750.325,140.113,-596.885,0,0
275010.65,140.177,-595.417,0,0
275270.975,140.278,-594.034,0,0
275531.3,140.435,-592.734,0,0
275791.625,140.578,-591.439,0,0
276051.95,140.758,-590.195,0,0
276312.275,140.988,-588.951,0,0
276572.6,141.216,-587.767,0,0
276832.925,141.567,-586.626,0,0
277093.25,141.935,-585.539,0,0
277353.575,142.416,-584.53,0,0
277613.9,142.87,-583.571,0,0
277874.225,143.386,-582.793,0,0
278134.55,143.846,-582.087,0,0
278394.875,144.371,-581.461,0,0
278655.2,144.803,-580.971,0,0
278915.525,145.174,-580.556,0,0
279175.85,145.53,-580.254,0,0
279436.175,145.757,-579.984,0,0
279696.5,145.925,-579.721,0,0
279956.825,145.993,-579.49,0,0
280217.15,146.092,-579.262,0,0
280477.475,146.058,-579.097,0,0
280737.8,146.035,-578.949,0,0
280998.125,145.946,-578.812,0,0
281258.45,145.832,-578.7,0,0
281518.775,145.57,-578.697,0,0
281779.1,145.224,-578.616,0,0
282039.425,144.667,-578.564,0,0
282299.75,144.085,-578.401,0,0
282560,143.427,-578.151,0,0
282820,142.702,-577.838,0,0
283081,141.947,-577.424,0,0
283341,141.137,-576.895,0,0
283601,140.329,-576.233,0,0
283862,139.596,-575.498,0,0
284122,138.952,-574.718,0,0
284382,138.353,-573.905,0,0
284643,137.828,-573.087,0,0
284903,137.28,-572.216,0,0
285163,136.835,-571.454,0,0
285424,136.403,-570.694,0,0
285684,135.912,-570.016,0,0
285944,135.309,-569.379,0,0
286205,134.649,-568.707,0,0
286465,133.837,-567.993,0,0
286725,132.889,-567.166,0,0
286986,131.874,-566.074,0,0
287246,130.901,-564.792,0,0
287506,130.041,-563.306,0,0
287767,129.303,-561.652,0,0
288027,128.748,-559.883,0,0
288287,128.391,-557.974,0,0
288548,128.296,-555.988,0,0
288808,128.475,-554.134,0,0
289068,128.861,-552.39,0,0
289329,129.394,-550.797,0,0
289589,129.993,-549.333,0,0
289849,130.67,-548.112,0,0
290109,131.411,-547.003,0,0
290370,132.144,-546.075,0,0
290630,132.769,-545.362,0,0
290890,133.269,-544.631,0,0
291151,133.717,-543.97,0,0
291411,134.175,-543.358,0,0
291671,134.59,-542.737,0,0
291932,134.95,-542.252,0,0
292192,135.248,-541.824,0,0
292452,135.374,-541.467,0,0
292713,135.355,-541.046,0,0
292973,135.191,-540.58,0,0
293233,134.961,-539.977,0,0
293494,134.709,-539.267,0,0
293754,134.403,-538.472,0,0
294014,134.063,-537.51,0,0
294275,133.772,-536.38,0,0
294535,133.541,-535.162,0,0
294795,133.431,-533.733,0,0
295056,133.472,-532.262,0,0
295316,133.651,-530.692,0,0
295576,134.076,-529.1,0,0
295837,134.673,-527.578,0,0
296097,135.43,-526.113,0,0
296357,136.377,-524.739,0,0
296618,137.413,-523.535,0,0
296878,138.503,-522.498,0,0
297138,139.562,-521.635,0,0
297399,140.577,-520.874,0,0
297659,141.527,-520.16,0,0
297919,142.438,-519.45,0,0
298180,143.353,-518.729,0,0
298440,144.331,-517.988,0,0
298700.2,145.319,-517.288,0,0
298960.525,146.445,-516.671,0,0
299220.85,147.515,-516.191,0,0
299481.175,148.611,-515.683,0,0
299741.5,149.644,-515.132,0,0
300001.825,150.74,-514.704,0,0
300262.15,151.905,-514.314,0,0
300522.475,153.052,-513.934,0,0
300782.8,154.123,-513.597,0,0
301043.125,155.415,-513.289,0,0
301303.45,156.778,-512.938,0,0
301563.775,158.274,-512.733,0,0
301824.1,159.846,-512.761,0,0
302084.425,161.369,-512.969,0,0
302344.75,162.912,-513.368,0,0
302605.075,164.252,-513.886,0,0
302865.4,165.54,-514.483,0,0
303125.725,166.701,-515.179,0,0
303386.05,167.779,-515.923,0,0
303646.375,168.773,-516.681,0,0
303906.7,169.616,-517.465,0,0
304167.025,170.594,-518.221,0,0
304427.35,171.463,-519.06,0,0
304687.675,172.255,-519.871,0,0
304948.0,173.06,-520.787,0,0
305208.325,173.863,-521.664,0,0
305468.65,174.6,-522.629,0,0
305728.975,175.341,-523.664,0,0
305989.3,175.972,-524.747,0,0
306249.625,176.61,-525.849,0,0
306509.95,177.232,-527.185,0,0
306770.275,177.846,-528.503,0,0
307030.6,178.216,-529.917,0,0
307290.925,178.593,-531.505,0,0
307551.25,178.791,-533.002,0,0
307811.575,178.72,-534.593,0,0
308071.9,178.494,-536.15,0,0
308332.225,178.19,-537.603,0,0
308592.55,177.753,-538.991,0,0
308852.875,177.251,-540.187,0,0
309113.2,176.843,-541.375,0,0
309373.525,176.384,-542.452,0,0
309633.85,175.938,-543.539,0,0
309894.175,175.59,-544.573,0,0
310154.5,175.247,-545.782,0,0
310414.825,174.883,-547.091,0,0
310675.15,174.394,-548.371,0,0
310935.475,173.862,-549.824,0,0
311195.8,173.225,-551.186,0,0
311456.125,172.398,-552.607,0,0
311716.45,171.578,-554.022,0,0
311976.775,170.445,-555.539,0,0
312237.1,169.143,-556.998,0,0
312497.425,167.764,-558.264,0,0
312757.75,166.247,-559.514,0,0
313018.075,164.646,-560.608,0,0
313278.4,162.906,-561.57,0,0
313538.725,161.126,-562.34,0,0
313799.05,159.415,-562.948,0,0
314059.375,157.644,-563.406,0,0
314319.7,155.938,-563.789,0,0
314580,154.369,-563.983,0,0
314840,152.79,-564.305,0,0
315101,151.308,-564.526,0,0
315361,149.773,-564.797,0,0
315621,148.278,-565.027,0,0
315882,146.604,-565.227,0,0
316142,145.135,-565.453,0,0
316402,143.544,-565.61,0,0
316663,141.823,-565.657,0,0
316923,140.146,-565.587,0,0
317183,138.455,-565.408,0,0
317444,136.766,-565.246,0,0
317704,135.208,-565.015,0,0
317964,133.641,-564.657,0,0
318225,132.067,-564.317,0,0
318485,130.548,-564.01,0,0
318745,129.07,-563.513,0,0
319006,127.468,-563.087,0,0
319266,125.97,-562.57,0,0
319526,124.49,-562.04,0,0
319787,122.945,-561.458,0,0
320047,121.525,-560.89,0,0
320307,120.066,-560.112,0,0
320567,118.658,-559.324,0,0
320828,117.359,-558.521,0,0
321088,116.021,-557.665,0,0
321348,114.736,-556.735,0,0
321609,113.588,-555.879,0,0
321869,112.326,-554.967,0,0
322129,111.17,-553.985,0,0
322390,110.095,-552.947,0,0
322650,108.944,-551.873,0,0
322910,107.877,-550.775,0,0
323171,107.039,-549.588,0,0
323431,106.179,-548.435,0,0
323691,105.463,-547.259,0,0
323952,104.808,-546.137,0,0
324212,104.114,-545.052,0,0
324472,103.521,-543.916,0,0
324733,103.022,-542.939,0,0
324993,102.513,-541.891,0,0
325253,102.092,-540.88,0,0
325514,101.762,-539.842,0,0
325774,101.448,-538.843,0,0
326034,101.043,-537.994,0,0
326295,100.769,-537.163,0,0
326555,100.572,-536.372,0,0
326815,100.307,-535.672,0,0
327076,100.112,-534.901,0,0
327336,99.7995,-534.293,0,0
327596,99.5606,-533.605,0,0
327857,99.3686,-533.067,0,0
328117,99.1063,-532.524,0,0
328377,98.8253,-531.957,0,0
328638,98.5823,-531.458,0,0
328898,98.2842,-531.01,0,0
329158,98.0659,-530.558,0,0
329419,97.6832,-530.17,0,0
329679,97.3489,-529.824,0,0
329939,97.0723,-529.46,0,0
330200,96.6116,-529.181,0,0
330460,96.1408,-528.869,0,0
330720.15,95.7615,-528.572,0,0
330980.475,95.2727,-528.264,0,0
331240.8,94.7635,-527.895,0,0
331501.125,94.0839,-527.621,0,0
331761.45,93.5966,-527.322,0,0
332021.775,92.9589,-526.993,0,0
332282.1,92.2604,-526.677,0,0
332542.425,91.5738,-526.258,0,0
332802.75,90.9461,-525.941,0,0
333063.075,90.1421,-525.459,0,0
333323.4,89.4447,-525.019,0,0
333583.725,88.757,-524.571,0,0
333844.05,87.9789,-524.113,0,0
334104.375,87.1852,-523.6,0,0
334364.7,86.4101,-523.063,0,0
334625.025,85.6275,-522.51,0,0
334885.35,84.9346,-521.931,0,0
335145.675,84.096,-521.349,0,0
335406.0,83.3918,-520.611,0,0
335666.325,82.6181,-519.986,0,0
335926.65,81.9032,-519.259,0,0
336186.975,81.2356,-518.51,0,0
336447.3,80.4691,-517.858,0,0
336707.625,79.8655,-517.121,0,0
336967.95,79.2366,-516.364,0,0
337228.275,78.4795,-515.577,0,0
337488.6,77.8446,-514.889,0,0
337748.925,77.2391,-514.054,0,0
338009.25,76.6046,-513.334,0,0
338269.575,75.9684,-512.547,0,0
338529.9,75.3668,-511.672,0,0
338790.225,74.7709,-510.839,0,0
339050.55,74.2073,-510.04,0,0
339310.875,73.5906,-509.185,0,0
339571.2,73.0843,-508.287,0,0
339831.525,72.5717,-507.479,0,0
340091.85,72.1267,-506.576,0,0
340352.175,71.6206,-505.736,0,0
340612.5,71.1843,-504.97,0,0
340872.825,70.7447,-504.148,0,0
341133.15,70.3353,-503.292,0,0
341393.475,69.8576,-502.507,0,0
341653.8,69.3889,-501.683,0,0
341914.125,68.9711,-500.882,0,0
342174.45,68.5572,-500.089,0,0
342434.775,68.1371,-499.309,0,0
342695.1,67.735,-498.531,0,0
342955.425,67.2298,-497.713,0,0
343215.75,66.8416,-496.926,0,0
343476.075,66.3913,-496.13,0,0
343736.4,65.9362,-495.314,0,0
343996.725,65.5354,-494.474,0,0
344257.05,65.0969,-493.662,0,0
344517.375,64.6206,-492.884,0,0
344777.7,64.2623,-491.982,0,0
345038.025,63.808,-491.141,0,0
345298.35,63.4201,-490.257,0,0
345558.675,62.9553,-489.386,0,0
345819.0,62.6229,-488.472,0,0
346079.325,62.2077,-487.606,0,0
346339.65,61.8367,-486.677,0,0
346599.975,61.4509,-485.772,0,0
346860,61.0739,-484.921,0,0
347121,60.783,-483.842,0,0
347381,60.4566,-483.025,0,0
347641,60.1528,-482.006,0,0
347902,59.8336,-481.05,0,0
348162,59.6193,-480.112,0,0
348422,59.3979,-479.097,0,0
348683,59.2086,-478.198,0,0
348943,58.9995,-477.227,0,0
349203,58.8585,-476.308,0,0
349464,58.6696,-475.349,0,0
349724,58.5114,-474.507,0,0
349984,58.3778,-473.607,0,0
350245,58.2306,-472.716,0,0
350505,58.0714,-471.762,0,0
350765,57.9338,-470.881,0,0
351025,57.8101,-470.003,0,0
351286,57.7017,-469.084,0,0
351546,57.6491,-468.256,0,0
351806,57.5177,-467.386,0,0
352067,57.4484,-466.496,0,0
352327,57.4601,-465.657,0,0
352587,57.2913,-464.771,0,0
352848,57.2923,-463.969,0,0
353108,57.1955,-463.143,0,0
353368,57.1784,-462.308,0,0
353629,57.1477,-461.514,0,0
353889,57.0806,-460.701,0,0
354149,57.014,-459.916,0,0
354410,56.9923,-459.087,0,0
354670,56.9666,-458.274,0,0
354930,56.8883,-457.459,0,0
355191,56.8989,-456.656,0,0
355451,56.8474,-455.868,0,0
355711,56.8395,-455.039,0,0
355972,56.8436,-454.292,0,0
356232,56.8922,-453.497,0,0
356492,56.9262,-452.715,0,0
356753,56.9258,-451.935,0,0
357013,56.9763,-451.185,0,0
357273,56.9962,-450.413,0,0
357534,57.0125,-449.691,0,0
357794,57.0244,-448.997,0,0
358054,57.0256,-448.24,0,0
358315,57.0714,-447.516,0,0
358575,57.0758,-446.749,0,0
358835,57.0565,-446.047,0,0
359096,57.0771,-445.294,0,0
359356,57.1241,-444.526,0,0
359616,57.1214,-443.794,0,0
359877,57.1955,-443.045,0,0
360137,57.2959,-442.301,0,0
360397,57.398,-441.553,0,0
360658,57.5058,-440.804,0,0
360918,57.5378,-440.172,0,0
361178,57.6532,-439.441,0,0
361438,57.7205,-438.792,0,0
361699,57.7861,-438.119,0,0
361959,57.853,-437.427,0,0
362219,57.8827,-436.746,0,0
362480,57.9463,-436.087,0,0
362740.1,57.9812,-435.397,0,0
363000.425,58.0656,-434.709,0,0
363260.75,58.1098,-433.983,0,0
363521.075,58.1566,-433.26,0,0
363781.4,58.2461,-432.551,0,0
364041.725,58.3551,-431.86,0,0
364302.05,58.4475,-431.155,0,0
364562.375,58.5767,-430.471,0,0
364822.7,58.6826,-429.818,0,0
365083.025,58.8584,-429.129,0,0
365343.35,58.9686,-428.462,0,0
365603.675,59.0758,-427.81,0,0
365864.0,59.218,-427.167,0,0
366124.325,59.3226,-426.55,0,0
366384.65,59.403,-425.901,0,0
366644.975,59.4485,-425.297,0,0
366905.3,59.5101,-424.639,0,0
367165.625,59.5516,-423.967,0,0
367425.95,59.52,-423.249,0,0
367686.275,59.5382,-422.531,0,0
367946.6,59.6039,-421.734,0,0
368206.925,59.636,-420.896,0,0
368467.25,59.7362,-420.018,0,0
368727.575,59.8823,-419.159,0,0
368987.9,60.0647,-418.214,0,0
369248.225,60.337,-417.287,0,0
369508.55,60.6003,-416.378,0,0
369768.875,60.9478,-415.479,0,0
370029.2,61.3853,-414.576,0,0
370289.525,61.8155,-413.648,0,0
370549.85,62.3321,-412.853,0,0
370810.175,62.921,-412.041,0,0
371070.5,63.4878,-411.24,0,0
371330.825,64.0748,-410.503,0,0
371591.15,64.7679,-409.833,0,0
371851.475,65.5072,-409.145,0,0
372111.8,66.2003,-408.626,0,0
372372.125,66.8768,-408.086,0,0
372632.45,67.6041,-407.588,0,0
372892.775,68.3258,-407.176,0,0
373153.1,69.0584,-406.814,0,0
373413.425,69.7623,-406.516,0,0
373673.75,70.4735,-406.221,0,0
373934.075,71.1694,-406.06,0,0
374194.4,71.8453,-405.887,0,0
374454.725,72.4375,-405.79,0,0
374715.05,73.0564,-405.717,0,0
374975.375,73.5925,-405.657,0,0
375235.7,74.0727,-405.656,0,0
375496.025,74.5461,-405.598,0,0
375756.35,74.9475,-405.627,0,0
376016.675,75.3659,-405.584,0,0
376277.0,75.6911,-405.548,0,0
376537.325,76.0729,-405.469,0,0
376797.65,76.4289,-405.398,0,0
377057.975,76.8213,-405.364,0,0
377318.3,77.1445,-405.322,0,0
377578.625,77.5297,-405.289,0,0
377838.95,77.9047,-405.301,0,0
378099.275,78.2568,-405.342,0,0
378359.6,78.5827,-405.416,0,0
378619.925,78.8701,-405.524,0,0
378880,79.1296,-405.615,0,0
379141,79.3518,-405.669,0,0
379401,79.494,-405.759,0,0
379661,79.675,-405.782,0,0
379922,79.8119,-405.84,0,0
380182,80.042,-405.769,0,0
380442,80.2788,-405.759,0,0
380703,80.5449,-405.806,0,0
380963,80.8959,-405.803,0,0
381223,81.2628,-405.955,0,0
381483,81.5716,-406.197,0,0
381744,81.9171,-406.484,0,0
382004,82.1502,-406.871,0,0
382264,82.2542,-407.311,0,0
382525,82.3836,-407.74,0,0
382785,82.3547,-408.191,0,0
383045,82.2601,-408.635,0,0
383306,82.1364,-409.077,0,0
383566,81.9007,-409.575,0,0
383826,81.6153,-409.93,0,0
384087,81.2555,-410.239,0,0
384347,80.8502,-410.633,0,0
384607,80.3833,-410.915,0,0
384868,79.9249,-411.157,0,0
385128,79.4384,-411.308,0,0
385388,78.9114,-411.484,0,0
385649,78.3424,-411.569,0,0
385909,77.7529,-411.685,0,0
386169,77.1346,-411.758,0,0
386430,76.4958,-411.676,0,0
386690,75.867,-411.594,0,0
386950,75.2042,-411.4,0,0
387211,74.6252,-411.256,0,0
387471,73.9887,-410.972,0,0
387731,73.401,-410.667,0,0
387992,72.8451,-410.287,0,0
388252,72.3145,-409.922,0,0
388512,71.8291,-409.49,0,0
388773,71.3528,-409.038,0,0
389033,70.9362,-408.646,0,0
389293,70.5756,-408.165,0,0
389554,70.2804,-407.714,0,0
389814,69.9495,-407.301,0,0
390074,69.6757,-406.899,0,0
390335,69.3916,-406.479,0,0
390595,69.1046,-406.089,0,0
390855,68.8771,-405.679,0,0
391116,68.6547,-405.304,0,0
391376,68.4205,-404.969,0,0
391636,68.1848,-404.655,0,0
391896,67.909,-404.316,0,0
392157,67.6916,-404.009,0,0
392417,67.4205,-403.787,0,0
392677,67.1482,-403.508,0,0
392938,66.758,-403.268,0,0
393198,66.3678,-403.018,0,0
393458,65.9868,-402.744,0,0
393719,65.5239,-402.397,0,0
393979,65.0766,-402.055,0,0
394239,64.6447,-401.714,0,0
394500,64.1509,-401.258,0,0
394760.05,63.6647,-400.801,0,0
395020.375,63.1806,-400.307,0,0
395280.7,62.759,-399.777,0,0
395541.025,62.2848,-399.224,0,0
395801.35,61.8206,-398.624,0,0
396061.675,61.4562,-398.009,0,0
396322.0,61.033,-397.39,0,0
396582.325,60.7178,-396.746,0,0
396842.65,60.3419,-396.093,0,0
397102.975,60.0224,-395.436,0,0
397363.3,59.7299,-394.74,0,0
397623.625,59.4758,-394.052,0,0
397883.95,59.1947,-393.385,0,0
398144.275,58.9745,-392.696,0,0
398404.6,58.7168,-391.995,0,0
398664.925,58.507,-391.283,0,0
398925.25,58.3186,-390.574,0,0
399185.575,58.1126,-389.862,0,0
399445.9,57.9681,-389.154,0,0
399706.225,57.8313,-388.416,0,0
399966.55,57.6878,-387.716,0,0
400006.6,57.6792,-387.597,0,0