File: Accelerated corrosion test data/2025-10-15_15-08-31/sample_8.csv
Frequency (Hz),Impedance (ohms),Phase (Radians),Temperature (C),Humidity (%)
10000.0,311.99,-10933.8,0,0
10260.325,304.351,-10659.9,0,0
10520.65,297.324,-10399.4,0,0
10780.975,289.648,-10151.2,0,0
11041.3,283.316,-9914.75,0,0
11301.625,276.727,-9690.17,0,0
11561.95,270.599,-9473.32,0,0
11822.275,265.05,-9267.41,0,0
12082.6,263.359,-9068.43,0,0
12342.925,259.457,-8882.93,0,0
12603.25,254.553,-8701.9,0,0
12863.575,250.67,-8532.31,0,0
13123.9,241.93,-8367.25,0,0
13384.225,236.408,-8206.29,0,0
13644.55,233.17,-8052.48,0,0
13904.875,225.864,-7903.36,0,0
14165.2,220.468,-7759.75,0,0
14425.525,215.918,-7620.17,0,0
14685.8,212.889,-7486.78,0,0
14946.175,208.876,-7357.04,0,0
15206.5,205.902,-7232.24,0,0
15466.825,202.296,-7112.08,0,0
15727.15,199.015,-6995.74,0,0
15987.5,195.593,-6882.79,0,0
16247.8,192.769,-6773.78,0,0
16508.125,189.638,-6667.75,0,0
16768.45,186.234,-6565.08,0,0
17028.775,183.509,-6465.66,0,0
17289.1,180.967,-6368.75,0,0
17549.425,177.944,-6274.43,0,0
17809.75,175.923,-6183.17,0,0
18070.075,173.769,-6095.74,0,0
18330.4,171.03,-6008.4,0,0
18590.725,169.193,-5923.57,0,0
18851.05,169.877,-5840.87,0,0
19111.375,168.175,-5762.04,0,0
19371.7,169.237,-5686.3,0,0
19632.025,167.193,-5613.95,0,0
19892.35,163.233,-5543.1,0,0
20152.675,161.022,-5470.63,0,0
20413.0,161.083,-5401.33,0,0
20673.3,161.643,-5334.85,0,0
20933.65,157.635,-5272.07,0,0
21193.975,154.144,-5208.38,0,0
21454.3,151.947,-5144.55,0,0
21714.625,151.162,-5082.95,0,0
21974.9,149.727,-5022.83,0,0
22235.275,149.323,-4964.99,0,0
22495.6,148.43,-4908.63,0,0
22755.925,146.437,-4854.81,0,0
23016.25,144.143,-4801.08,0,0
23276.6,139.578,-4747.95,0,0
23536.9,138.394,-4695.36,0,0
23797.225,136.744,-4643.68,0,0
24057.55,134.101,-4593.94,0,0
24317.875,133.067,-4544.51,0,0
24578.2,130.98,-4496.65,0,0
24838.525,129.52,-4448.57,0,0
25098.85,128.234,-4402.79,0,0
25359.175,126.347,-4357.22,0,0
25619.5,125.78,-4312.84,0,0
25879.8,124.609,-4268.89,0,0
26140.1,123.996,-4226.67,0,0
26400.5,122.42,-4185.12,0,0
26660.8,120.636,-4143.87,0,0
26921.1,120.442,-4102.45,0,0
27181.4,120.937,-4063.66,0,0
27441.8,120.037,-4024.69,0,0
27702.1,119.105,-3987.51,0,0
27962.4,116.61,-3950.35,0,0
28222.7,117.496,-3913.2,0,0
28483.1,116.407,-3877.21,0,0
28743.4,116.08,-3842.01,0,0
29003.7,115.246,-3808.43,0,0
29264,115.303,-3774.3,0,0
29524.4,114.306,-3741.01,0,0
29784.7,114.016,-3708.02,0,0
30045,113.01,-3676.76,0,0
30305.3,112.261,-3645.82,0,0
30565.7,110.816,-3614.6,0,0
30826,109.451,-3584.1,0,0
31086.3,108.509,-3553.75,0,0
31346.6,107.455,-3523.72,0,0
31607,106.922,-3494.35,0,0
31867.3,106.657,-3465.19,0,0
32127.6,105.724,-3436.62,0,0
32387.9,105.334,-3408.19,0,0
32648.3,105.136,-3380.56,0,0
32908.6,105.62,-3353.19,0,0
33168.9,105.003,-3326.59,0,0
33429.2,105.357,-3300.23,0,0
33689.6,105.667,-3274.72,0,0
33949.9,105.387,-3249.39,0,0
34210.2,105.612,-3224.57,0,0
34470.5,105.63,-3200.26,0,0
34730.9,105.993,-3175.82,0,0
34991.2,106.89,-3152.42,0,0
35251.5,107.782,-3129.55,0,0
35511.8,108.218,-3107.41,0,0
35772.2,108.7,-3085.85,0,0
36032.5,108.867,-3065.15,0,0
36292.8,109.061,-3044.19,0,0
36553.1,108.502,-3024.36,0,0
36813.5,107.461,-3004.28,0,0
37073.8,107.253,-2984.81,0,0
37334.1,105.881,-2965.64,0,0
37594.4,104.121,-2946.7,0,0
37854.8,102.526,-2927.44,0,0
38115.1,100.404,-2908.2,0,0
38375.4,98.3923,-2888.89,0,0
38635.7,96.3255,-2869.45,0,0
38896.1,94.5451,-2850.28,0,0
39156.4,92.5882,-2830.69,0,0
39416.7,91.3016,-2811.32,0,0
39677,89.9884,-2792.46,0,0
39937.4,88.4773,-2773.27,0,0
40197.7,87.7896,-2753.94,0,0
40458,87.8076,-2735.55,0,0
40718.3,87.3878,-2718.14,0,0
40978.7,86.2982,-2700.38,0,0
41239,85.5812,-2682.84,0,0
41499.3,85.0448,-2665.71,0,0
41759.6,84.5492,-2648.95,0,0
42020,83.7728,-2632.11,0,0
42280.275,82.7894,-2615.15,0,0
42540.6,82.7099,-2598.36,0,0
42800.925,82.352,-2581.84,0,0
43061.25,82.528,-2565.85,0,0
43321.575,82.5253,-2550.65,0,0
43581.9,82.3381,-2535.81,0,0
43842.225,81.6582,-2521.04,0,0
44102.55,80.5391,-2505.96,0,0
44362.875,79.8005,-2490.95,0,0
44623.2,79.0276,-2476.11,0,0
44883.525,78.4271,-2461.27,0,0
45143.85,78.0759,-2446.66,0,0
45404.175,77.1553,-2432.12,0,0
45664.5,76.6337,-2417.96,0,0
45924.825,76.1347,-2403.76,0,0
46185.15,75.5597,-2389.91,0,0
46445.475,75.0994,-2375.91,0,0
46705.8,74.5844,-2362.18,0,0
46966.125,74.2095,-2348.62,0,0
47226.45,73.8818,-2335.02,0,0
47486.775,73.5177,-2321.87,0,0
47747.1,73.1363,-2308.82,0,0
48007.425,72.9299,-2295.96,0,0
48267.75,72.5818,-2283.02,0,0
48528.075,72.0662,-2270.62,0,0
48788.4,71.6122,-2258.15,0,0
49048.725,71.0919,-2245.55,0,0
49309.05,70.616,-2233.18,0,0
49569.375,70.379,-2221.04,0,0
49829.7,69.8908,-2208.92,0,0
50090.025,69.4899,-2196.82,0,0
50350.35,69.2801,-2184.81,0,0
50610.675,68.9228,-2173.15,0,0
50871.0,68.6167,-2161.55,0,0
51131.325,68.4615,-2149.74,0,0
51391.65,68.2549,-2138.32,0,0
51651.975,68.2859,-2127,0,0
51912.3,68.1591,-2116.02,0,0
52172.625,68.0334,-2104.92,0,0
52432.95,67.7126,-2094.09,0,0
52693.275,67.7366,-2083.08,0,0
52953.6,67.7695,-2072.58,0,0
53213.925,67.7668,-2062.08,0,0
53474.25,67.9063,-2051.79,0,0
53734.575,67.9469,-2042.12,0,0
53994.9,67.4257,-2032.57,0,0
54255.225,66.7407,-2022.53,0,0
54515.55,66.1268,-2012.77,0,0
54775.875,65.6313,-2002.73,0,0
55036.2,65.0985,-1993.17,0,0
55296.525,64.2329,-1983.3,0,0
55556.85,63.6745,-1973.38,0,0
55817.175,63.0282,-1963.64,0,0
56077.5,62.5197,-1953.77,0,0
56337.825,62.1906,-1943.9,0,0
56598.15,61.7781,-1934.22,0,0
56858.475,61.5458,-1924.7,0,0
57118.8,61.3382,-1915.14,0,0
57379.125,61.127,-1905.82,0,0
57639.45,60.8625,-1896.51,0,0
57899.775,60.7102,-1887.32,0,0
58160.1,60.5751,-1878.32,0,0
58420.4,60.389,-1869.31,0,0
58680.7,60.369,-1860.31,0,0
58941.1,60.3514,-1851.6,0,0
59201.4,60.2341,-1843.02,0,0
59461.7,59.9021,-1834.56,0,0
59722,59.5971,-1826.05,0,0
59982.4,59.2443,-1817.54,0,0
60242.7,58.9544,-1809.06,0,0
60503,58.7434,-1800.52,0,0
60763.3,58.5347,-1792.04,0,0
61023.7,58.4244,-1783.54,0,0
61284,58.3952,-1775.34,0,0
61544.3,58.4003,-1767.08,0,0
61804.6,58.4617,-1759.2,0,0
62065,58.2019,-1751.24,0,0
62325.3,58.0822,-1743.17,0,0
62585.6,58.0254,-1735.12,0,0
62845.9,58.0591,-1727.13,0,0
63106.3,58.1776,-1719.32,0,0
63366.6,58.3346,-1711.67,0,0
63626.9,58.4211,-1704.17,0,0
63887.2,58.4636,-1696.6,0,0
64147.6,58.7772,-1689.31,0,0
64407.9,59.0282,-1682.22,0,0
64668.2,59.0927,-1675.31,0,0
64928.5,59.058,-1668.31,0,0
65188.9,58.9689,-1661.5,0,0
65449.2,58.4974,-1654.68,0,0
65709.5,58.2301,-1647.41,0,0
65969.8,58.2952,-1640.7,0,0
66230.2,57.9156,-1634.01,0,0
66490.5,57.4179,-1627.31,0,0
66750.8,56.727,-1620.4,0,0
67011.1,56.3356,-1613.13,0,0
67271.5,56.1782,-1606.23,0,0
67531.8,56.0108,-1599.32,0,0
67792.1,55.8335,-1592.47,0,0
68052.4,55.6388,-1585.75,0,0
68312.8,55.4958,-1579.01,0,0
68573.1,55.3296,-1572.35,0,0
68833.4,55.0892,-1565.59,0,0
69093.7,55.0334,-1558.85,0,0
69354.1,54.8836,-1552.27,0,0
69614.4,55.0567,-1545.76,0,0
69874.7,55.1246,-1539.32,0,0
70135,55.0185,-1532.95,0,0
70395.4,55.0021,-1526.66,0,0
70655.7,54.9655,-1520.46,0,0
70916,54.9183,-1514.12,0,0
71176.3,55.0256,-1507.87,0,0
71436.7,55.0091,-1501.72,0,0
71697,55.2306,-1495.6,0,0
71957.3,55.32,-1489.85,0,0
72217.6,55.2414,-1484.09,0,0
72478,55.1877,-1478.19,0,0
72738.3,55.097,-1472.53,0,0
72998.6,54.7974,-1466.76,0,0
73258.9,54.5351,-1460.84,0,0
73519.3,54.5982,-1455.04,0,0
73779.6,54.4627,-1449.24,0,0
74039.9,54.3465,-1443.57,0,0
74300.225,54.1373,-1437.94,0,0
74560.55,53.9328,-1432.29,0,0
74820.875,53.7351,-1426.53,0,0
75081.2,53.6407,-1420.81,0,0
75341.525,53.5356,-1415.14,0,0
75601.85,53.4824,-1409.53,0,0
75862.175,53.4676,-1404.02,0,0
76122.5,53.3336,-1398.45,0,0
76382.825,53.3836,-1392.98,0,0
76643.15,53.3915,-1387.61,0,0
76903.475,53.3214,-1382.22,0,0
77163.8,53.1896,-1376.95,0,0
77424.125,53.0765,-1371.6,0,0
77684.45,53.0093,-1366.3,0,0
77944.775,52.8735,-1361.01,0,0
78205.1,52.7686,-1355.76,0,0
78465.425,52.6265,-1350.59,0,0
78725.75,52.4546,-1345.26,0,0
78986.075,52.3647,-1340.06,0,0
79246.4,52.2667,-1334.84,0,0
79506.725,52.0863,-1329.59,0,0
79767.05,52.0238,-1324.32,0,0
80027.375,51.9925,-1319.09,0,0
80287.7,51.9984,-1313.97,0,0
80548.025,51.909,-1308.79,0,0
80808.35,51.8725,-1303.64,0,0
81068.675,51.9124,-1298.49,0,0
81329.0,52.0066,-1293.35,0,0
81589.325,52.0408,-1288.27,0,0
81849.65,52.1229,-1283.16,0,0
82109.975,52.3232,-1278.07,0,0
82370.3,52.5812,-1273.22,0,0
82630.625,52.706,-1268.28,0,0
82890.95,52.9479,-1263.37,0,0
83151.275,53.1585,-1258.62,0,0
83411.6,53.2469,-1253.8,0,0
83671.925,53.5591,-1248.91,0,0
83932.25,53.9037,-1244.17,0,0
84192.575,54.2409,-1239.63,0,0
84452.9,54.523,-1234.94,0,0
84713.225,54.9883,-1230.42,0,0
84973.55,55.4488,-1226.29,0,0
85233.875,55.4074,-1222.34,0,0
85494.2,55.0788,-1218.06,0,0
85754.525,54.9414,-1213.61,0,0
86014.85,54.7012,-1209.01,0,0
86275.175,54.5378,-1204.43,0,0
86535.5,54.4357,-1199.69,0,0
86795.825,54.5853,-1194.97,0,0
87056.15,54.9004,-1190.37,0,0
87316.475,55.1242,-1185.94,0,0
87576.8,55.1729,-1181.55,0,0
87837.125,55.2803,-1177,0,0
88097.45,55.38,-1172.55,0,0
88357.775,55.58,-1168.06,0,0
88618.1,55.7998,-1163.64,0,0
88878.425,55.9454,-1159.27,0,0
89138.75,56.0923,-1154.74,0,0
89399.075,56.24,-1150.24,0,0
89659.4,56.5254,-1145.76,0,0
89919.725,56.8457,-1141.05,0,0
90180,57.3152,-1136.66,0,0
90440.4,57.7112,-1132.28,0,0
90700.7,58.183,-1127.78,0,0
90961,58.7837,-1123.29,0,0
91221.3,59.6314,-1118.72,0,0
91481.7,60.6999,-1114.59,0,0
91742,61.6437,-1110.65,0,0
92002.3,62.5299,-1106.9,0,0
92262.6,63.1908,-1103.13,0,0
92523,63.9272,-1099.44,0,0
92783.3,64.6359,-1095.7,0,0
93043.6,65.6185,-1092.21,0,0
93303.9,66.2669,-1089.13,0,0
93564.3,66.6175,-1086.09,0,0
93824.6,66.3966,-1082.96,0,0
94084.9,66.0839,-1079.23,0,0
94345.2,66.1899,-1075.42,0,0
94605.6,66.1023,-1071.46,0,0
94865.9,66.4947,-1067.44,0,0
95126.2,66.7243,-1063.67,0,0
95386.5,67.0839,-1059.56,0,0
95646.9,67.5501,-1055.77,0,0
95907.2,67.9699,-1051.76,0,0
96167.5,68.5709,-1047.87,0,0
96427.8,69.096,-1043.89,0,0
96688.2,70.0343,-1040.01,0,0
96948.5,70.8685,-1036.33,0,0
97208.8,71.7293,-1032.68,0,0
97469.1,72.6493,-1029.16,0,0
97729.5,73.5935,-1025.6,0,0
97989.8,74.5469,-1022.19,0,0
98250.1,75.507,-1018.83,0,0
98510.4,76.5484,-1015.48,0,0
98770.8,77.8412,-1012.33,0,0
99031.1,79.0259,-1009.52,0,0
99291.4,80.0049,-1006.96,0,0
99551.7,80.5911,-1004.33,0,0
99812.1,81.2355,-1001.42,0,0
100072,81.996,-998.659,0,0
100333,82.7959,-995.937,0,0
100593,83.5603,-993.383,0,0
100853,84.3078,-990.877,0,0
101114,84.9387,-988.527,0,0
101374,85.4167,-986.163,0,0
101634,85.8507,-983.843,0,0
101895,86.1897,-981.626,0,0
102155,86.3704,-979.329,0,0
102415,86.5331,-977.01,0,0
102676,86.6862,-974.775,0,0
102936,86.6247,-972.602,0,0
103196,86.3339,-970.331,0,0
103457,85.9166,-967.846,0,0
103717,85.5543,-965.081,0,0
103977,85.3758,-962.22,0,0
104238,85.4339,-959.438,0,0
104498,85.417,-956.866,0,0
104758,85.2428,-954.311,0,0
105019,84.9792,-951.666,0,0
105279,84.6077,-948.861,0,0
105539,84.4775,-945.916,0,0
105800,84.3919,-942.986,0,0
106060,84.3933,-940.109,0,0
106320.175,84.3746,-937.299,0,0
106580.5,84.4311,-934.492,0,0
106840.825,84.488,-931.679,0,0
107101.15,84.5594,-928.949,0,0
107361.475,84.6538,-926.333,0,0
107621.8,84.6015,-923.773,0,0
107882.125,84.3351,-921.088,0,0
108142.45,84.1466,-918.244,0,0
108402.775,84.0355,-915.381,0,0
108663.1,83.9463,-912.52,0,0
108923.425,83.9111,-909.589,0,0
109183.75,83.967,-906.595,0,0
109444.075,84.1882,-903.679,0,0
109704.4,84.4367,-900.846,0,0
109964.725,84.7308,-898.036,0,0
110225.05,85.0756,-895.459,0,0
110485.375,85.2268,-892.886,0,0
110745.7,85.3767,-890.405,0,0
111006.025,85.4536,-887.934,0,0
111266.35,85.5669,-885.406,0,0
111526.675,85.659,-882.635,0,0
111787.0,85.8537,-880.117,0,0
112047.325,85.9519,-877.749,0,0
112307.65,86.0699,-875.278,0,0
112567.975,86.067,-872.821,0,0
112828.3,86.136,-870.381,0,0
113088.625,86.2161,-867.945,0,0
113348.95,86.222,-865.574,0,0
113609.275,86.2175,-863.223,0,0
113869.6,86.1357,-860.93,0,0
114129.925,85.9435,-858.554,0,0
114390.25,85.7618,-856.096,0,0
114650.575,85.6627,-853.614,0,0
114910.9,85.5417,-851.191,0,0
115171.225,85.5005,-848.697,0,0
115431.55,85.4295,-846.48,0,0
115691.875,85.1541,-844.202,0,0
115952.2,84.7216,-841.824,0,0
116212.525,84.3362,-839.338,0,0
116472.85,83.947,-836.764,0,0
116733.175,83.532,-834.07,0,0
116993.5,83.2247,-831.252,0,0
117253.825,83.0942,-828.442,0,0
117514.15,83.0993,-825.722,0,0
117774.475,83.0815,-823.17,0,0
118034.8,82.989,-820.629,0,0
118295.125,82.8735,-818.127,0,0
118555.45,82.6992,-815.553,0,0
118815.775,82.5774,-812.927,0,0
119076.1,82.531,-810.367,0,0
119336.425,82.37,-807.979,0,0
119596.75,82.0805,-805.452,0,0
119857.075,81.8451,-802.881,0,0
120117.4,81.5635,-800.279,0,0
120377.725,81.2484,-797.582,0,0
120638.05,81.0468,-794.869,0,0
120898.375,80.871,-792.087,0,0
121158.7,80.8073,-789.395,0,0
121419.025,80.6316,-786.737,0,0
121679.35,80.4657,-784.025,0,0
121939.675,80.3313,-781.307,0,0
122200.0,80.2338,-778.532,0,0
122460,80.2071,-775.813,0,0
122721,80.1341,-773.185,0,0
122981,79.997,-770.508,0,0
123241,79.8498,-767.78,0,0
123502,79.7052,-765.034,0,0
123762,79.5835,-762.243,0,0
124022,79.4741,-759.394,0,0
124283,79.4506,-756.474,0,0
124543,79.5362,-753.664,0,0
124803,79.5905,-750.851,0,0
125064,79.6722,-748.057,0,0
125324,79.7442,-745.299,0,0
125584,79.8144,-742.539,0,0
125845,79.8624,-739.752,0,0
126105,79.9502,-736.933,0,0
126365,80.1194,-734.094,0,0
126626,80.3749,-731.24,0,0
126886,80.6441,-728.498,0,0
127146,80.8857,-725.822,0,0
127406,81.0773,-723.163,0,0
127667,81.2493,-720.445,0,0
127927,81.5052,-717.718,0,0
128187,81.7712,-715.116,0,0
128448,81.9837,-712.505,0,0
128708,82.1239,-709.905,0,0
128968,82.3489,-707.103,0,0
129229,82.6426,-704.431,0,0
129489,82.9332,-701.87,0,0
129749,83.1141,-699.361,0,0
130010,83.1252,-696.752,0,0
130270,83.2363,-694.008,0,0
130530,83.4018,-691.187,0,0
130791,83.7252,-688.367,0,0
131051,84.1155,-685.648,0,0
131311,84.5373,-682.955,0,0
131572,84.9328,-680.473,0,0
131832,85.2023,-677.958,0,0
132092,85.4525,-675.42,0,0
132353,85.6544,-672.916,0,0
132613,85.8673,-670.344,0,0
132873,86.012,-667.784,0,0
133134,86.1694,-665.158,0,0
133394,86.2907,-662.469,0,0
133654,86.4284,-659.689,0,0
133915,86.6912,-656.873,0,0
134175,86.996,-654.093,0,0
134435,87.3197,-651.374,0,0
134696,87.5659,-648.618,0,0
134956,87.8843,-645.681,0,0
135216,88.4269,-642.875,0,0
135477,88.9675,-640.15,0,0
135737,89.5467,-637.413,0,0
135997,90.292,-634.848,0,0
136258,90.9487,-632.543,0,0
136518,91.3972,-630.325,0,0
136778,91.7201,-628.212,0,0
137039,91.6763,-626.03,0,0
137299,91.5378,-623.639,0,0
137559,91.3713,-621.119,0,0
137819,91.1033,-618.466,0,0
138080,90.8088,-615.598,0,0
138340.125,90.5515,-612.46,0,0
138600.45,90.56,-609.164,0,0
138860.775,90.7161,-605.869,0,0
139121.1,91.0332,-602.542,0,0
139381.425,91.4637,-599.368,0,0
139641.75,91.8076,-596.258,0,0
139902.075,92.1895,-592.985,0,0
140162.4,92.7319,-589.761,0,0
140422.725,93.2544,-586.589,0,0
140683.05,93.7359,-583.373,0,0
140943.375,94.3309,-580.105,0,0
141203.7,95.0048,-576.926,0,0
141464.025,95.6062,-573.79,0,0
141724.35,96.1203,-570.598,0,0
141984.675,96.6605,-567.267,0,0
142245.0,97.3096,-563.88,0,0
142505.325,98.0195,-560.466,0,0
142765.65,98.7563,-557.054,0,0
143025.975,99.5081,-553.572,0,0
143286.3,100.35,-549.898,0,0
143546.625,101.499,-546.309,0,0
143806.95,102.567,-542.906,0,0
144067.275,103.573,-539.377,0,0
144327.6,104.647,-535.75,0,0
144587.925,105.786,-532.002,0,0
144848.25,107.199,-528.174,0,0
145108.575,108.859,-524.403,0,0
145368.9,110.541,-520.789,0,0
145629.225,112.397,-517.154,0,0
145889.55,114.33,-513.74,0,0
146149.875,116.188,-510.361,0,0
146410.2,118.087,-506.888,0,0
146670.525,120.215,-503.469,0,0
146930.85,122.411,-500.24,0,0
147191.175,124.554,-497.13,0,0
147451.5,126.696,-494.09,0,0
147711.825,128.622,-491.175,0,0
147972.15,130.347,-487.998,0,0
148232.475,132.184,-484.501,0,0
148492.8,134.277,-480.746,0,0
148753.125,136.743,-476.891,0,0
149013.45,139.473,-473.123,0,0
149273.775,142.523,-469.418,0,0
149534.1,145.818,-465.979,0,0
149794.425,149.384,-462.573,0,0
150054.75,153.088,-459.354,0,0
150315.075,157.046,-456.296,0,0
150575.4,161.222,-453.33,0,0
150835.725,165.72,-450.585,0,0
151096.05,170.831,-448.365,0,0
151356.375,176.153,-446.953,0,0
151616.7,181.241,-446.424,0,0
151877.025,185.868,-446.482,0,0
152137.35,190.105,-447.015,0,0
152397.675,193.602,-447.944,0,0
152658.0,196.35,-448.899,0,0
152918.325,198.637,-449.29,0,0
153178.65,201.509,-449.606,0,0
153438.975,203.474,-450.386,0,0
153699.3,204.88,-450.958,0,0
153959.625,206.263,-450.941,0,0
154219.95,207.655,-451.11,0,0
154480,208.194,-451.018,0,0
154741,208.615,-449.733,0,0
155001,210.13,-447.64,0,0
155261,212.712,-445.843,0,0
155522,215.88,-444.732,0,0
155782,219.394,-444.624,0,0
156042,222.403,-445.678,0,0
156303,224.802,-447.427,0,0
156563,226.013,-449.825,0,0
156823,225.483,-451.919,0,0
157084,223.983,-452.634,0,0
157344,222.272,-452.113,0,0
157604,220.924,-450.514,0,0
157864,220.222,-448.206,0,0
158125,220.131,-445.288,0,0
158385,220.958,-442.251,0,0
158645,222.687,-439.416,0,0
158906,225.043,-436.995,0,0
159166,228.028,-435.288,0,0
159426,230.993,-434.848,0,0
159687,233.32,-435.245,0,0
159947,234.486,-436.045,0,0
160207,234.909,-436.513,0,0
160468,234.432,-436.607,0,0
160728,233.276,-435.641,0,0
160988,232.418,-433.532,0,0
161249,232.35,-430.499,0,0
161509,233.046,-427.184,0,0
161769,234.703,-424.089,0,0
162030,236.905,-421.374,0,0
162290,239.524,-419.084,0,0
162550,242.348,-417.253,0,0
162811,245.267,-416.008,0,0
163071,247.995,-415.153,0,0
163331,250.649,-414.759,0,0
163592,252.894,-414.811,0,0
163852,254.675,-414.735,0,0
164112,256.421,-414.672,0,0
164373,258.032,-414.563,0,0
164633,259.656,-414.547,0,0
164893,261.101,-414.901,0,0
165154,262.682,-415.428,0,0
165414,263.903,-416.43,0,0
165674,264.35,-418.151,0,0
165935,263.788,-419.582,0,0
166195,262.348,-420.414,0,0
166455,260.67,-420.787,0,0
166716,258.366,-420.655,0,0
166976,255.651,-419.428,0,0
167236,253.2,-416.931,0,0
167497,251.689,-414.014,0,0
167757,250.698,-411.128,0,0
168017,249.954,-408.11,0,0
168277,249.623,-405.236,0,0
168538,248.962,-402.568,0,0
168798,248.082,-399.499,0,0
169058,247.426,-395.792,0,0
169319,247.376,-391.737,0,0
169579,247.938,-387.76,0,0
169839,248.749,-384.168,0,0
170100,249.286,-380.878,0,0
170360.075,249.88,-377.329,0,0
170620.4,250.58,-373.716,0,0
170880.725,251.323,-370.286,0,0
171141.05,251.602,-366.661,0,0
171401.375,251.705,-362.326,0,0
171661.7,252.304,-357.047,0,0
171922.025,254.164,-351.512,0,0
172182.35,256.815,-346.414,0,0
172442.675,259.865,-342.07,0,0
172703.0,262.913,-338.166,0,0
172963.325,265.805,-334.367,0,0
173223.65,269.099,-330.663,0,0
173483.975,272.541,-327.377,0,0
173744.3,275.999,-324.562,0,0
174004.625,279.196,-322.373,0,0
174264.95,281.831,-320.632,0,0
174525.275,283.524,-318.936,0,0
174785.6,284.346,-316.494,0,0
175045.925,285.063,-313.099,0,0
175306.25,285.959,-309.173,0,0
175566.575,286.783,-304.615,0,0
175826.9,288.059,-299.042,0,0
176087.225,290.372,-292.849,0,0
176347.55,293.605,-286.915,0,0
176607.875,297.496,-281.194,0,0
176868.2,301.938,-275.827,0,0
177128.525,306.45,-271.042,0,0
177388.85,310.659,-266.359,0,0
177649.175,314.843,-261.285,0,0
177909.5,319.552,-255.865,0,0
178169.825,324.934,-250.473,0,0
178430.15,330.47,-245.336,0,0
178690.475,336.262,-240.114,0,0
178950.8,342.699,-234.837,0,0
179211.125,349.68,-229.656,0,0
179471.45,357.213,-224.901,0,0
179731.775,365.288,-220.466,0,0
179992.1,373.857,-216.25,0,0
180252.425,383.192,-212.802,0,0
180512.75,392.613,-210.325,0,0
180773.075,401.998,-208.391,0,0
181033.4,411.524,-207.353,0,0
181293.725,420.4,-206.687,0,0
181554.05,429.35,-206.165,0,0
181814.375,438.496,-205.925,0,0
182074.7,447.737,-206.525,0,0
182335.025,456.684,-207.762,0,0
182595.35,465.173,-209.543,0,0
182855.675,473.154,-211.762,0,0
183116.0,480.611,-214.262,0,0
183376.325,487.519,-217.219,0,0
183636.65,493.388,-219.971,0,0
183896.975,498.784,-222.255,0,0
184157.3,503.793,-224.255,0,0
184417.625,508.657,-225.36,0,0
184677.95,513.713,-226.153,0,0
184938.275,518.992,-226.648,0,0
185198.6,524.689,-226.913,0,0
185458.925,530.935,-227.175,0,0
185719.25,537.081,-227.709,0,0
185979.575,543.371,-227.767,0,0
186239.9,550.653,-228.069,0,0
186500,558.121,-229.4,0,0
186761,564.841,-231.083,0,0
187021,571.4,-232.439,0,0
187281,578.035,-233.745,0,0
187542,584.7,-234.896,0,0
187802,591.707,-235.754,0,0
188062,599.591,-236.538,0,0
188322,608.109,-238.224,0,0
188583,616.71,-240.941,0,0
188843,624.833,-244.582,0,0
189103,631.798,-248.772,0,0
189364,637.877,-252.397,0,0
189624,643.689,-255.332,0,0
189884,649.685,-257.801,0,0
190145,655.675,-259.955,0,0
190405,661.742,-261.375,0,0
190665,668.6,-261.308,0,0
190926,677.576,-261.701,0,0
191186,687.877,-263.538,0,0
191446,698.07,-266.965,0,0
191707,707.752,-271.188,0,0
191967,716.885,-275.779,0,0
192227,725.784,-280.324,0,0
192488,734.204,-284.76,0,0
192748,742.037,-288.606,0,0
193008,751.184,-290.631,0,0
193269,762.726,-293.075,0,0
193529,775.319,-296.845,0,0
193789,789.051,-301.571,0,0
194050,803.91,-308.428,0,0
194310,818.766,-317.171,0,0
194570,833.846,-327.824,0,0
194831,847.506,-341.052,0,0
195091,859.363,-355.031,0,0
195351,870.243,-368.929,0,0
195612,881.102,-382.884,0,0
195872,892.625,-397.988,0,0
196132,903.569,-415.304,0,0
196393,912.832,-434.437,0,0
196653,920.471,-454.381,0,0
196913,926.479,-475.195,0,0
197174,930.166,-496.449,0,0
197434,932.632,-517.427,0,0
197694,933.396,-538.773,0,0
197955,932.466,-559.525,0,0
198215,930.031,-579.862,0,0
198475,926.437,-599.318,0,0
198735,921.96,-617.974,0,0
198996,916.962,-635.753,0,0
199256,912.159,-653.502,0,0
199516,906.683,-671.965,0,0
199777,899.3,-691.065,0,0
200037,889.695,-709.352,0,0
200297,878.242,-725.805,0,0
200558,866.491,-740.475,0,0
200818,854.529,-753.811,0,0
201078,843.061,-765.86,0,0
201339,832.154,-778.076,0,0
201599,820.43,-790.856,0,0
201859,807.256,-803.411,0,0
202120,792.474,-815.394,0,0
202380.025,775.407,-825.511,0,0
202640.35,757.285,-832.735,0,0
202900.675,739.975,-836.681,0,0
203161.0,724.452,-838.687,0,0
203421.325,710.441,-839.683,0,0
203681.65,697.691,-840.273,0,0
203941.975,685.963,-841.158,0,0
204202.3,674.472,-841.836,0,0
204462.625,663.456,-842.094,0,0
204722.95,652.882,-842.328,0,0
204983.275,642.359,-842.514,0,0
205243.6,631.72,-842.538,0,0
205503.925,620.613,-841.916,0,0
205764.25,609.389,-840.296,0,0
206024.575,598.21,-837.196,0,0
206284.9,587.834,-832.593,0,0
206545.225,578.853,-826.458,0,0
206805.55,572.058,-819.669,0,0
207065.875,567.336,-813.006,0,0
207326.2,564.265,-807.359,0,0
207586.525,562.06,-802.764,0,0
207846.85,560.42,-798.964,0,0
208107.175,559.432,-796.053,0,0
208367.5,558.368,-794.524,0,0
208627.825,556.859,-793.613,0,0
208888.15,554.756,-792.957,0,0
209148.475,552.308,-792.103,0,0
209408.8,549.981,-791.049,0,0
209669.125,547.748,-789.559,0,0
209929.45,546.149,-788.13,0,0
210189.775,545.237,-786.869,0,0
210450.1,544.423,-786.284,0,0
210710.425,543.707,-786.105,0,0
210970.75,542.86,-785.973,0,0
211231.075,542.107,-786.076,0,0
211491.4,541.486,-786.304,0,0
211751.725,541.173,-786.748,0,0
212012.05,541.004,-787.761,0,0
212272.375,540.802,-789.116,0,0
212532.7,540.544,-790.809,0,0
212793.025,540.125,-792.933,0,0
213053.35,539.372,-795.412,0,0
213313.675,538.343,-797.976,0,0
213574.0,537.283,-800.665,0,0
213834.325,535.951,-803.553,0,0
214094.65,534.503,-806.74,0,0
214354.975,532.721,-810.009,0,0
214615.3,530.801,-813.468,0,0
214875.625,528.54,-817.135,0,0
215135.95,525.826,-820.917,0,0
215396.275,522.749,-824.77,0,0
215656.6,519.152,-828.483,0,0
215916.925,514.987,-832.048,0,0
216177.25,510.614,-835.283,0,0
216437.575,505.926,-838.126,0,0
216697.9,501.082,-840.579,0,0
216958.225,496.389,-842.614,0,0
217218.55,491.697,-844.653,0,0
217478.875,486.931,-846.479,0,0
217739.2,482.087,-848.142,0,0
217999.525,477.159,-849.617,0,0
218259.85,472.11,-850.802,0,0
218520,467.29,-851.778,0,0
218780,462.445,-852.687,0,0
219041,457.655,-853.237,0,0
219301,453.025,-853.816,0,0
219561,448.364,-854.279,0,0
219822,443.662,-854.782,0,0
220082,438.844,-855.064,0,0
220342,433.875,-855.109,0,0
220603,428.788,-854.805,0,0
220863,423.846,-854.106,0,0
221123,419.027,-853.057,0,0
221384,414.544,-851.598,0,0
221644,410.591,-849.848,0,0
221904,407.124,-848.154,0,0
222165,404.008,-846.526,0,0
222425,401.298,-845.088,0,0
222685,398.623,-843.929,0,0
222946,396.005,-842.742,0,0
223206,393.632,-841.557,0,0
223466,391.558,-840.624,0,0
223727,389.575,-839.754,0,0
223987,387.817,-839.056,0,0
224247,386.133,-838.62,0,0
224508,384.499,-838.399,0,0
224768,383.085,-838.37,0,0
225028,381.776,-838.653,0,0
225289,380.46,-839.49,0,0
225549,378.802,-840.816,0,0
225809,376.776,-842.495,0,0
226070,374.324,-844.202,0,0
226330,371.429,-845.928,0,0
226590,368.179,-847.53,0,0
226851,364.786,-849.027,0,0
227111,361.061,-850.493,0,0
227371,357.119,-851.725,0,0
227632,352.839,-852.812,0,0
227892,348.42,-853.538,0,0
228152,343.958,-853.968,0,0
228413,339.657,-854.035,0,0
228673,335.469,-854.061,0,0
228933,331.365,-853.985,0,0
229193,327.326,-853.893,0,0
229454,323.318,-853.798,0,0
229714,319.264,-853.776,0,0
229974,315.18,-853.734,0,0
230235,310.861,-853.919,0,0
230495,306.173,-853.959,0,0
230755,301.289,-853.53,0,0
231016,296.439,-852.814,0,0
231276,291.652,-851.973,0,0
231536,286.772,-850.854,0,0
231797,282.034,-849.615,0,0
232057,277.345,-848.205,0,0
232317,272.707,-846.664,0,0
232578,268.142,-844.939,0,0
232838,263.627,-843.128,0,0
233098,259.108,-841.18,0,0
233359,254.64,-839.2,0,0
233619,250.044,-836.895,0,0
233879,245.501,-834.352,0,0
234140,241.141,-831.643,0,0
234400,236.834,-828.818,0,0
234660.3,232.606,-825.647,0,0
234920.625,228.593,-822.169,0,0
235180.95,224.937,-818.567,0,0
235441.275,221.497,-814.849,0,0
235701.6,218.378,-811.164,0,0
235961.925,215.448,-807.305,0,0
236222.25,212.683,-803.457,0,0
236482.575,210.233,-799.606,0,0
236742.9,207.997,-795.788,0,0
237003.225,205.979,-792.055,0,0
237263.55,204.109,-788.376,0,0
237523.875,202.363,-784.667,0,0
237784.2,200.838,-781.019,0,0
238044.525,199.431,-777.384,0,0
238304.85,198.285,-773.817,0,0
238565.175,197.316,-770.232,0,0
238825.5,196.569,-766.804,0,0
239085.825,196.297,-763.562,0,0
239346.15,196.15,-760.688,0,0
239606.475,195.947,-758.075,0,0
239866.8,195.859,-756.01,0,0
240127.125,195.477,-754.107,0,0
240387.45,194.95,-752.189,0,0
240647.775,194.383,-750.438,0,0
240908.1,193.751,-748.783,0,0
241168.425,192.87,-747.354,0,0
241428.75,191.818,-745.882,0,0
241689.075,190.586,-744.407,0,0
241949.4,189.213,-742.829,0,0
242209.725,187.616,-741.011,0,0
242470.05,186.151,-739.149,0,0
242730.375,184.53,-737.062,0,0
242990.7,183.021,-734.778,0,0
243251.025,181.708,-732.484,0,0
243511.35,180.464,-730.067,0,0
243771.675,179.278,-727.598,0,0
244032.0,178.242,-725.079,0,0
244292.325,177.376,-722.574,0,0
244552.65,176.667,-720.094,0,0
244812.975,176.208,-717.815,0,0
245073.3,175.589,-715.679,0,0
245333.625,174.927,-713.608,0,0
245593.95,174.202,-711.458,0,0
245854.275,173.507,-709.294,0,0
246114.6,172.893,-707.026,0,0
246374.925,172.474,-704.821,0,0
246635.25,172.169,-702.712,0,0
246895.575,171.784,-700.81,0,0
247155.9,171.365,-699.007,0,0
247416.225,170.888,-697.203,0,0
247676.55,170.312,-695.382,0,0
247936.875,169.678,-693.634,0,0
248197.2,168.969,-691.761,0,0
248457.525,168.157,-689.909,0,0
248717.85,167.384,-687.815,0,0
248978.175,166.62,-685.602,0,0
249238.5,166.048,-683.286,0,0
249498.825,165.546,-680.97,0,0
249759.15,165.08,-678.565,0,0
250019.475,164.745,-676.126,0,0
250279.8,164.484,-673.643,0,0
250540,164.358,-671.104,0,0
250800,164.415,-668.561,0,0
251061,164.726,-665.967,0,0
251321,165.193,-663.51,0,0
251581,165.943,-661.198,0,0
251842,166.777,-659.054,0,0
252102,167.723,-657.13,0,0
252362,168.801,-655.377,0,0
252623,169.924,-653.956,0,0
252883,170.947,-652.868,0,0
253143,171.836,-652.036,0,0
253404,172.386,-651.322,0,0
253664,172.735,-650.637,0,0
253924,172.83,-649.907,0,0
254185,172.834,-649.095,0,0
254445,172.701,-648.219,0,0
254705,172.525,-647.201,0,0
254966,172.42,-646.186,0,0
255226,172.152,-645.034,0,0
255486,171.855,-643.851,0,0
255747,171.518,-642.484,0,0
256007,171.309,-640.973,0,0
256267,171.149,-639.501,0,0
256528,171.033,-637.959,0,0
256788,170.888,-636.359,0,0
257048,170.815,-634.615,0,0
257309,170.868,-632.76,0,0
257569,171.075,-630.911,0,0
257829,171.425,-629.055,0,0
258090,171.877,-627.195,0,0
258350,172.468,-625.364,0,0
258610,173.13,-623.595,0,0
258871,173.913,-621.798,0,0
259131,174.84,-620.115,0,0
259391,175.916,-618.481,0,0
259651,177.121,-616.995,0,0
259912,178.39,-615.739,0,0
260172,179.734,-614.538,0,0
260432,180.929,-613.559,0,0
260693,182.078,-612.638,0,0
260953,183.244,-611.761,0,0
261213,184.447,-610.949,0,0
261474,185.556,-610.211,0,0
261734,186.72,-609.515,0,0
261994,187.936,-608.902,0,0
262255,189.108,-608.549,0,0
262515,190.032,-608.312,0,0
262775,190.784,-607.977,0,0
263036,191.467,-607.509,0,0
263296,192.172,-607.025,0,0
263556,192.791,-606.506,0,0
263817,193.411,-605.877,0,0
264077,193.915,-605.139,0,0
264337,194.499,-604.243,0,0
264598,195.164,-603.124,0,0
264858,195.987,-601.881,0,0
265118,197.076,-600.523,0,0
265379,198.454,-599.101,0,0
265639,200.012,-597.723,0,0
265899,201.83,-596.276,0,0
266160,204.039,-594.9,0,0
266420,206.619,-593.68,0,0
266680.25,209.534,-592.634,0,0
266940.575,212.786,-591.925,0,0
267200.9,216.353,-591.574,0,0
267461.225,220.193,-591.662,0,0
267721.55,224.214,-592.296,0,0
267981.875,228.338,-593.514,0,0
268242.2,232.445,-595.318,0,0
268502.525,236.422,-597.784,0,0
268762.85,240.206,-600.799,0,0
269023.175,243.597,-604.365,0,0
269283.5,246.544,-608.446,0,0
269543.825,248.868,-612.893,0,0
269804.15,250.824,-617.375,0,0
270064.475,252.434,-622.116,0,0
270324.8,253.642,-627.14,0,0
270585.125,254.388,-632.358,0,0
270845.45,254.591,-637.778,0,0
271105.775,254.126,-643.235,0,0
271366.1,253.247,-648.723,0,0
271626.425,251.767,-654.107,0,0
271886.75,249.776,-659.395,0,0
272147.075,247.282,-664.544,0,0
272407.4,244.253,-669.509,0,0
272667.725,240.799,-674.213,0,0
272928.05,236.815,-678.649,0,0
273188.375,232.316,-682.693,0,0
273448.7,227.444,-686.291,0,0
273709.025,222.172,-689.406,0,0
273969.35,216.634,-691.888,0,0
274229.675,210.908,-693.647,0,0
274490.0,205.245,-694.806,0,0
274750.325,199.59,-695.461,0,0
275010.65,194.101,-695.557,0,0
275270.975,188.817,-695.129,0,0
275531.3,183.777,-694.256,0,0
275791.625,179.092,-693.079,0,0
276051.95,174.78,-691.652,0,0
276312.275,170.705,-690.077,0,0
276572.6,166.899,-688.375,0,0
276832.925,163.385,-686.538,0,0
277093.25,160.063,-684.644,0,0
277353.575,156.952,-682.671,0,0
277613.9,154.052,-680.674,0,0
277874.225,151.338,-678.669,0,0
278134.55,148.75,-676.638,0,0
278394.875,146.2,-674.564,0,0
278655.2,143.762,-672.456,0,0
278915.525,141.438,-670.165,0,0
279175.85,139.337,-667.777,0,0
279436.175,137.432,-665.302,0,0
279696.5,135.838,-662.776,0,0
279956.825,134.436,-660.257,0,0
280217.15,133.248,-657.84,0,0
280477.475,132.296,-655.476,0,0
280737.8,131.532,-653.189,0,0
280998.125,130.923,-651.098,0,0
281258.45,130.403,-649.133,0,0
281518.775,130.027,-647.268,0,0
281779.1,129.706,-645.602,0,0
282039.425,129.45,-644.031,0,0
282299.75,129.246,-642.64,0,0
282560,129.05,-641.435,0,0
282820,128.796,-640.375,0,0
283081,128.393,-639.426,0,0
283341,127.874,-638.563,0,0
283601,127.27,-637.633,0,0
283862,126.569,-636.679,0,0
284122,125.87,-635.597,0,0
284382,125.134,-634.505,0,0
284643,124.431,-633.258,0,0
284903,123.816,-631.945,0,0
285163,123.341,-630.473,0,0
285424,123.08,-629.045,0,0
285684,123.048,-627.628,0,0
285944,123.203,-626.292,0,0
286205,123.583,-625.173,0,0
286465,124.096,-624.231,0,0
286725,124.705,-623.598,0,0
286986,125.378,-623.232,0,0
287246,126.031,-623.215,0,0
287506,126.574,-623.569,0,0
287767,126.873,-624.243,0,0
288027,126.83,-625.17,0,0
288287,126.401,-626.248,0,0
288548,125.559,-627.278,0,0
288808,124.387,-628.185,0,0
289068,122.96,-628.945,0,0
289329,121.376,-629.572,0,0
289589,119.599,-630.004,0,0
289849,117.657,-630.254,0,0
290109,115.534,-630.283,0,0
290370,113.498,-629.979,0,0
290630,111.474,-629.477,0,0
290890,109.557,-628.851,0,0
291151,107.681,-628.083,0,0
291411,105.896,-627.3,0,0
291671,104.168,-626.457,0,0
291932,102.42,-625.565,0,0
292192,100.696,-624.601,0,0
292452,98.989,-623.529,0,0
292713,97.3399,-622.377,0,0
292973,95.7379,-621.142,0,0
293233,94.2269,-619.86,0,0
293494,92.7707,-618.535,0,0
293754,91.3441,-617.257,0,0
294014,89.9445,-615.885,0,0
294275,88.5544,-614.485,0,0
294535,87.2064,-612.985,0,0
294795,85.9399,-611.448,0,0
295056,84.7245,-609.789,0,0
295316,83.6232,-608.136,0,0
295576,82.6286,-606.504,0,0
295837,81.7255,-604.846,0,0
296097,80.9036,-603.211,0,0
296357,80.1262,-601.652,0,0
296618,79.3655,-600.104,0,0
296878,78.6413,-598.601,0,0
297138,77.9147,-597.113,0,0
297399,77.1815,-595.605,0,0
297659,76.4727,-594.083,0,0
297919,75.7982,-592.525,0,0
298180,75.138,-590.961,0,0
298440,74.532,-589.381,0,0
298700.2,73.9829,-587.807,0,0
298960.525,73.4498,-586.192,0,0
299220.85,72.9736,-584.594,0,0
299481.175,72.5341,-582.959,0,0
299741.5,72.1447,-581.352,0,0
300001.825,71.7926,-579.711,0,0
300262.15,71.5433,-578.071,0,0
300522.475,71.3649,-576.44,0,0
300782.8,71.2325,-574.837,0,0
301043.125,71.186,-573.252,0,0
301303.45,71.2142,-571.724,0,0
301563.775,71.2902,-570.251,0,0
301824.1,71.4195,-568.832,0,0
302084.425,71.5714,-567.444,0,0
302344.75,71.7673,-566.15,0,0
302605.075,71.9669,-564.909,0,0
302865.4,72.2049,-563.719,0,0
303125.725,72.4542,-562.576,0,0
303386.05,72.7076,-561.488,0,0
303646.375,72.9755,-560.472,0,0
303906.7,73.2203,-559.492,0,0
304167.025,73.4719,-558.578,0,0
304427.35,73.7166,-557.705,0,0
304687.675,73.9369,-556.843,0,0
304948.0,74.1695,-556.006,0,0
305208.325,74.3918,-555.239,0,0
305468.65,74.6165,-554.496,0,0
305728.975,74.8381,-553.799,0,0
305989.3,75.0355,-553.142,0,0
306249.625,75.2225,-552.535,0,0
306509.95,75.3905,-551.936,0,0
306770.275,75.5276,-551.409,0,0
307030.6,75.6434,-550.877,0,0
307290.925,75.7273,-550.369,0,0
307551.25,75.8148,-549.883,0,0
307811.575,75.915,-549.424,0,0
308071.9,76.0168,-549.025,0,0
308332.225,76.0887,-548.707,0,0
308592.55,76.0798,-548.475,0,0
308852.875,75.9701,-548.252,0,0
309113.2,75.7632,-548.06,0,0
309373.525,75.4428,-547.822,0,0
309633.85,75.0747,-547.518,0,0
309894.175,74.6805,-547.151,0,0
310154.5,74.269,-546.729,0,0
310414.825,73.8557,-546.259,0,0
310675.15,73.4729,-545.793,0,0
310935.475,73.0636,-545.313,0,0
311195.8,72.6726,-544.798,0,0
311456.125,72.2865,-544.276,0,0
311716.45,71.91,-543.75,0,0
311976.775,71.5402,-543.245,0,0
312237.1,71.1366,-542.759,0,0
312497.425,70.7104,-542.251,0,0
312757.75,70.2915,-541.724,0,0
313018.075,69.8073,-541.214,0,0
313278.4,69.3449,-540.68,0,0
313538.725,68.8215,-540.13,0,0
313799.05,68.3241,-539.547,0,0
314059.375,67.7725,-538.927,0,0
314319.7,67.2545,-538.259,0,0
314580,66.7064,-537.528,0,0
314840,66.2193,-536.85,0,0
315101,65.7113,-536.157,0,0
315361,65.1472,-535.348,0,0
315621,64.7173,-534.589,0,0
315882,64.2099,-533.775,0,0
316142,63.8685,-532.909,0,0
316402,63.4473,-532.044,0,0
316663,63.1383,-531.224,0,0
316923,62.7913,-530.353,0,0
317183,62.5128,-529.472,0,0
317444,62.2778,-528.717,0,0
317704,61.9736,-527.849,0,0
317964,61.7239,-527.104,0,0
318225,61.5687,-526.292,0,0
318485,61.3259,-525.465,0,0
318745,61.1736,-524.75,0,0
319006,61.0434,-523.982,0,0
319266,60.8912,-523.2,0,0
319526,60.7896,-522.494,0,0
319787,60.6822,-521.863,0,0
320047,60.5804,-521.312,0,0
320307,60.4673,-520.718,0,0
320567,60.3038,-520.189,0,0
320828,60.0528,-519.628,0,0
321088,59.8374,-519.141,0,0
321348,59.5835,-518.645,0,0
321609,59.2982,-518.167,0,0
321869,59.0058,-517.656,0,0
322129,58.7506,-517.147,0,0
322390,58.3645,-516.629,0,0
322650,58.0444,-516.081,0,0
322910,57.6935,-515.57,0,0
323171,57.3459,-515.001,0,0
323431,56.9629,-514.519,0,0
323691,56.5447,-514.028,0,0
323952,56.0641,-513.529,0,0
324212,55.5416,-513.037,0,0
324472,55.1265,-512.358,0,0
324733,54.4872,-511.681,0,0
324993,54.0375,-511.029,0,0
325253,53.4582,-510.357,0,0
325514,52.9737,-509.634,0,0
325774,52.4881,-508.893,0,0
326034,52.0128,-508.12,0,0
326295,51.5188,-507.306,0,0
326555,51.0798,-506.448,0,0
326815,50.6781,-505.641,0,0
327076,50.2482,-504.776,0,0
327336,49.9204,-503.889,0,0
327596,49.5372,-503.054,0,0
327857,49.2119,-502.208,0,0
328117,48.8346,-501.424,0,0
328377,48.5562,-500.569,0,0
328638,48.2242,-499.708,0,0
328898,47.9149,-498.877,0,0
329158,47.5879,-498.013,0,0
329419,47.2551,-497.2,0,0
329679,46.995,-496.321,0,0
329939,46.776,-495.46,0,0
330200,46.5044,-494.561,0,0
330460,46.2499,-493.75,0,0
330720.15,45.9826,-492.868,0,0
330980.475,45.7754,-492.033,0,0
331240.8,45.5284,-491.182,0,0
331501.125,45.3127,-490.317,0,0
331761.45,45.1046,-489.472,0,0
332021.775,44.8492,-488.584,0,0
332282.1,44.6614,-487.68,0,0
332542.425,44.4946,-486.857,0,0
332802.75,44.3287,-485.983,0,0
333063.075,44.126,-485.07,0,0
333323.4,44.0517,-484.171,0,0
333583.725,43.9441,-483.248,0,0
333844.05,43.8472,-482.391,0,0
334104.375,43.8049,-481.573,0,0
334364.7,43.7308,-480.723,0,0
334625.025,43.7081,-479.872,0,0
334885.35,43.7165,-479.07,0,0
335145.675,43.72,-478.295,0,0
335406.0,43.699,-477.56,0,0
335666.325,43.6917,-476.807,0,0
335926.65,43.6187,-476.093,0,0
336186.975,43.6257,-475.369,0,0
336447.3,43.6026,-474.577,0,0
336707.625,43.5657,-473.938,0,0
336967.95,43.5869,-473.15,0,0
337228.275,43.4862,-472.575,0,0
337488.6,43.4879,-471.898,0,0
337748.925,43.4463,-471.255,0,0
338009.25,43.4003,-470.635,0,0
338269.575,43.3284,-469.997,0,0
338529.9,43.2168,-469.377,0,0
338790.225,43.1792,-468.783,0,0
339050.55,43.1004,-468.126,0,0
339310.875,42.9981,-467.44,0,0
339571.2,42.8903,-466.84,0,0
339831.525,42.7488,-466.215,0,0
340091.85,42.6301,-465.651,0,0
340352.175,42.457,-465.019,0,0
340612.5,42.338,-464.391,0,0
340872.825,42.1578,-463.74,0,0
341133.15,41.9774,-463.096,0,0
341393.475,41.7673,-462.419,0,0
341653.8,41.5901,-461.701,0,0
341914.125,41.3894,-461.002,0,0
342174.45,41.217,-460.254,0,0
342434.775,41.0264,-459.538,0,0
342695.1,40.8963,-458.745,0,0
342955.425,40.8006,-458.004,0,0
343215.75,40.6738,-457.261,0,0
343476.075,40.5277,-456.515,0,0
343736.4,40.442,-455.781,0,0
343996.725,40.2784,-455.006,0,0
344257.05,40.2242,-454.2,0,0
344517.375,40.0925,-453.419,0,0
344777.7,40.0267,-452.68,0,0
345038.025,39.9478,-451.858,0,0
345298.35,39.9066,-451.079,0,0
345558.675,39.8194,-450.305,0,0
345819.0,39.7928,-449.496,0,0
346079.325,39.7831,-448.654,0,0
346339.65,39.7492,-447.903,0,0
346599.975,39.7716,-447.102,0,0
346860,39.7984,-446.293,0,0
347121,39.8528,-445.52,0,0
347381,39.917,-444.766,0,0
347641,39.9852,-443.978,0,0
347902,40.056,-443.22,0,0
348162,40.13,-442.493,0,0
348422,40.2002,-441.767,0,0
348683,40.2885,-441.034,0,0
348943,40.4355,-440.316,0,0
349203,40.5246,-439.622,0,0
349464,40.5925,-438.926,0,0
349724,40.7346,-438.193,0,0
349984,40.8839,-437.502,0,0
350245,41.0322,-436.852,0,0
350505,41.1273,-436.136,0,0
350765,41.2802,-435.547,0,0
351025,41.465,-434.865,0,0
351286,41.5913,-434.274,0,0
351546,41.7439,-433.644,0,0
351806,41.9644,-433.08,0,0
352067,42.0586,-432.439,0,0
352327,42.1872,-431.889,0,0
352587,42.3504,-431.328,0,0
352848,42.5108,-430.802,0,0
353108,42.6473,-430.244,0,0
353368,42.7903,-429.688,0,0
353629,42.9459,-429.179,0,0
353889,43.0503,-428.635,0,0
354149,43.1058,-428.142,0,0
354410,43.2785,-427.607,0,0
354670,43.3278,-427.129,0,0
354930,43.4477,-426.637,0,0
355191,43.5666,-426.108,0,0
355451,43.6398,-425.604,0,0
355711,43.7747,-425.085,0,0
355972,43.8601,-424.611,0,0
356232,43.9047,-424.15,0,0
356492,43.9822,-423.677,0,0
356753,44.0528,-423.168,0,0
357013,44.1252,-422.694,0,0
357273,44.1668,-422.233,0,0
357534,44.2172,-421.735,0,0
357794,44.2471,-421.257,0,0
358054,44.2969,-420.744,0,0
358315,44.3394,-420.26,0,0
358575,44.3831,-419.727,0,0
358835,44.4396,-419.214,0,0
359096,44.5331,-418.775,0,0
359356,44.5788,-418.187,0,0
359616,44.6803,-417.754,0,0
359877,44.7073,-417.273,0,0
360137,44.777,-416.805,0,0
360397,44.8369,-416.328,0,0
360658,44.8583,-415.841,0,0
360918,44.9251,-415.389,0,0
361178,44.9964,-414.859,0,0
361438,45.0443,-414.412,0,0
361699,45.0864,-413.95,0,0
361959,45.1141,-413.487,0,0
362219,45.156,-413.017,0,0
362480,45.2189,-412.527,0,0
362740.1,45.2614,-412.014,0,0
363000.425,45.2808,-411.516,0,0
363260.75,45.3577,-411.043,0,0
363521.075,45.4139,-410.553,0,0
363781.4,45.4857,-410.067,0,0
364041.725,45.514,-409.617,0,0
364302.05,45.5175,-409.12,0,0
364562.375,45.6316,-408.619,0,0
364822.7,45.6874,-408.131,0,0
365083.025,45.7887,-407.644,0,0
365343.35,45.8817,-407.125,0,0
365603.675,45.9569,-406.673,0,0
365864.0,46.0925,-406.206,0,0
366124.325,46.1751,-405.761,0,0
366384.65,46.2588,-405.3,0,0
366644.975,46.315,-404.854,0,0
366905.3,46.426,-404.446,0,0
367165.625,46.4867,-403.979,0,0
367425.95,46.5696,-403.551,0,0
367686.275,46.589,-403.142,0,0
367946.6,46.6371,-402.657,0,0
368206.925,46.73,-402.16,0,0
368467.25,46.7803,-401.719,0,0
368727.575,46.9024,-401.251,0,0
368987.9,46.9858,-400.736,0,0
369248.225,47.1032,-400.274,0,0
369508.55,47.2651,-399.778,0,0
369768.875,47.4485,-399.313,0,0
370029.2,47.6512,-398.89,0,0
370289.525,47.8838,-398.513,0,0
370549.85,48.1229,-398.118,0,0
370810.175,48.2887,-397.809,0,0
371070.5,48.5318,-397.514,0,0
371330.825,48.663,-397.26,0,0
371591.15,48.788,-397.03,0,0
371851.475,48.9218,-396.777,0,0
372111.8,49.0251,-396.527,0,0
372372.125,49.121,-396.329,0,0
372632.45,49.1217,-396.124,0,0
372892.775,49.1706,-395.882,0,0
373153.1,49.1859,-395.669,0,0
373413.425,49.156,-395.456,0,0
373673.75,49.0751,-395.207,0,0
373934.075,49.0432,-394.94,0,0
374194.4,48.9661,-394.679,0,0
374454.725,48.8579,-394.431,0,0
374715.05,48.7524,-394.114,0,0
374975.375,48.6122,-393.781,0,0
375235.7,48.4775,-393.413,0,0
375496.025,48.3851,-393.05,0,0
375756.35,48.3167,-392.639,0,0
376016.675,48.2196,-392.166,0,0
376277.0,48.1942,-391.739,0,0
376537.325,48.2205,-391.295,0,0
376797.65,48.2368,-390.917,0,0
377057.975,48.2768,-390.52,0,0
377318.3,48.3364,-390.169,0,0
377578.625,48.3938,-389.884,0,0
377838.95,48.4173,-389.624,0,0
378099.275,48.4273,-389.363,0,0
378359.6,48.3363,-389.145,0,0
378619.925,48.258,-388.902,0,0
378880,48.0941,-388.634,0,0
379141,47.9074,-388.331,0,0
379401,47.743,-387.907,0,0
379661,47.5589,-387.475,0,0
379922,47.3697,-387.003,0,0
380182,47.3097,-386.528,0,0
380442,47.2588,-385.927,0,0
380703,47.3118,-385.466,0,0
380963,47.4197,-385.003,0,0
381223,47.5791,-384.595,0,0
381483,47.6783,-384.273,0,0
381744,47.8203,-384.003,0,0
382004,47.889,-383.817,0,0
382264,47.9298,-383.67,0,0
382525,47.8345,-383.551,0,0
382785,47.7085,-383.383,0,0
383045,47.5397,-383.218,0,0
383306,47.3027,-382.983,0,0
383566,47.0695,-382.752,0,0
383826,46.8278,-382.505,0,0
384087,46.4959,-382.2,0,0
384347,46.2644,-381.841,0,0
384607,45.9752,-381.462,0,0
384868,45.6378,-381.066,0,0
385128,45.3721,-380.627,0,0
385388,45.1052,-380.191,0,0
385649,44.849,-379.706,0,0
385909,44.6034,-379.215,0,0
386169,44.3592,-378.673,0,0
386430,44.1153,-378.138,0,0
386690,43.8589,-377.584,0,0
386950,43.6872,-377.007,0,0
387211,43.4909,-376.413,0,0
387471,43.3051,-375.828,0,0
387731,43.1321,-375.194,0,0
387992,43.0291,-374.591,0,0
388252,42.8863,-373.912,0,0
388512,42.8622,-373.33,0,0
388773,42.7694,-372.693,0,0
389033,42.7389,-372.048,0,0
389293,42.7383,-371.443,0,0
389554,42.7296,-370.821,0,0
389814,42.7524,-370.299,0,0
390074,42.7827,-369.731,0,0
390335,42.7893,-369.18,0,0
390595,42.8302,-368.637,0,0
390855,42.839,-368.119,0,0
391116,42.8289,-367.639,0,0
391376,42.8438,-367.159,0,0
391636,42.8412,-366.616,0,0
391896,42.8231,-366.153,0,0
392157,42.8281,-365.616,0,0
392417,42.7841,-365.129,0,0
392677,42.7878,-364.616,0,0
392938,42.7448,-364.098,0,0
393198,42.7107,-363.583,0,0
393458,42.6996,-363.059,0,0
393719,42.6413,-362.512,0,0
393979,42.6223,-362.004,0,0
394239,42.5752,-361.441,0,0
394500,42.5661,-360.892,0,0
394760.05,42.5562,-360.34,0,0
395020.375,42.5556,-359.761,0,0
395280.7,42.6084,-359.184,0,0
395541.025,42.6091,-358.588,0,0
395801.35,42.6354,-358.035,0,0
396061.675,42.7281,-357.459,0,0
396322.0,42.7679,-356.886,0,0
396582.325,42.8565,-356.382,0,0
396842.65,42.9179,-355.804,0,0
397102.975,43.012,-355.307,0,0
397363.3,43.0765,-354.791,0,0
397623.625,43.139,-354.272,0,0
397883.95,43.2156,-353.781,0,0
398144.275,43.3143,-353.252,0,0
398404.6,43.3381,-352.749,0,0
398664.925,43.4196,-352.237,0,0
398925.25,43.5168,-351.724,0,0
399185.575,43.5544,-351.251,0,0
399445.9,43.6266,-350.767,0,0
399706.225,43.6632,-350.236,0,0
399966.55,43.7331,-349.759,0,0
400006.6,43.7394,-349.695,0,0