File: Accelerated corrosion test data/2025-10-15_15-08-31/sample_3.csv
Frequency (Hz),Impedance (ohms),Phase (Radians),Temperature (C),Humidity (%)
10000.0,251.812,-11845.4,0,0
10260.325,245.496,-11547,0,0
10520.65,239.644,-11263,0,0
10780.975,235.761,-10991.7,0,0
11041.3,230.007,-10739,0,0
11301.625,224.392,-10492.1,0,0
11561.95,219.289,-10257.4,0,0
11822.275,215.108,-10032.3,0,0
12082.6,212.02,-9818.77,0,0
12342.925,210.363,-9611.97,0,0
12603.25,202.685,-9416.6,0,0
12863.575,199.787,-9225.95,0,0
13123.9,199.768,-9041.71,0,0
13384.225,192.962,-8872.54,0,0
13644.55,189.461,-8704.06,0,0
13904.875,185.321,-8539.47,0,0
14165.2,185.682,-8382.78,0,0
14425.525,180.299,-8231.81,0,0
14685.8,177.593,-8086.61,0,0
14946.175,175.828,-7947.14,0,0
15206.5,173.898,-7805.51,0,0
15466.825,183.467,-7665.5,0,0
15727.15,190.693,-7565.34,0,0
15987.5,172.796,-7451.08,0,0
16247.8,168.261,-7321.66,0,0
16508.125,161.828,-7208.32,0,0
16768.45,168.175,-7087.94,0,0
17028.775,157.895,-6988.74,0,0
17289.1,162.349,-6874.94,0,0
17549.425,156.275,-6782.93,0,0
17809.75,157.258,-6677.3,0,0
18070.075,162.41,-6591.81,0,0
18330.4,151.451,-6496.26,0,0
18590.725,148.489,-6404.33,0,0
18851.05,145.405,-6313.78,0,0
19111.375,146.643,-6224.96,0,0
19371.7,145.039,-6140.47,0,0
19632.025,145.937,-6055.58,0,0
19892.35,151.726,-5977.55,0,0
20152.675,147.684,-5898.38,0,0
20413.0,162.028,-5820.68,0,0
20673.3,162.949,-5756.88,0,0
20933.65,163.444,-5702.13,0,0
21193.975,159.969,-5634.88,0,0
21454.3,145.213,-5574.25,0,0
21714.625,138.677,-5498.65,0,0
21974.9,143.35,-5432.67,0,0
22235.275,139.145,-5374.04,0,0
22495.6,136.94,-5311.96,0,0
22755.925,129.793,-5250.86,0,0
23016.25,128.264,-5192.35,0,0
23276.6,128.735,-5129.56,0,0
23536.9,128.537,-5083.81,0,0
23797.225,121.39,-5024.56,0,0
24057.55,119.369,-4967.18,0,0
24317.875,119.057,-4911.39,0,0
24578.2,117.028,-4861.65,0,0
24838.525,117.951,-4808.18,0,0
25098.85,115.88,-4760.71,0,0
25359.175,114.046,-4710.88,0,0
25619.5,113.547,-4663.15,0,0
25879.8,111.063,-4616.05,0,0
26140.1,108.83,-4568.18,0,0
26400.5,107.811,-4521.25,0,0
26660.8,108.092,-4475.67,0,0
26921.1,108.426,-4431.65,0,0
27181.4,108.651,-4391.04,0,0
27441.8,107.857,-4347.34,0,0
27702.1,107.991,-4307.03,0,0
27962.4,105.625,-4266.66,0,0
28222.7,104.072,-4223.85,0,0
28483.1,111.49,-4181.44,0,0
28743.4,113.745,-4146.41,0,0
29003.7,115.508,-4117.31,0,0
29264,108.259,-4083.43,0,0
29524.4,108.977,-4045.84,0,0
29784.7,103.943,-4010.82,0,0
30045,102.115,-3977.19,0,0
30305.3,101.006,-3939.49,0,0
30565.7,102.371,-3905.76,0,0
30826,101.186,-3873.14,0,0
31086.3,102.606,-3839.91,0,0
31346.6,99.1757,-3809.75,0,0
31607,97.9321,-3775.57,0,0
31867.3,98.3823,-3741.7,0,0
32127.6,101.595,-3707.71,0,0
32387.9,110.633,-3679.7,0,0
32648.3,112.294,-3661.29,0,0
32908.6,104.164,-3637.65,0,0
33168.9,100.904,-3609.98,0,0
33429.2,99.0871,-3583.04,0,0
33689.6,93.3923,-3555.25,0,0
33949.9,90.9465,-3524.96,0,0
34210.2,90.7607,-3496.99,0,0
34470.5,90.1258,-3470.3,0,0
34730.9,88.0359,-3444.7,0,0
34991.2,86.6491,-3417.47,0,0
35251.5,85.7591,-3391.01,0,0
35511.8,85.1214,-3366.03,0,0
35772.2,84.557,-3340.78,0,0
36032.5,83.4594,-3315.92,0,0
36292.8,82.8812,-3291.11,0,0
36553.1,82.4727,-3267.69,0,0
36813.5,81.6064,-3244.03,0,0
37073.8,81.1967,-3220.6,0,0
37334.1,80.3136,-3197.47,0,0
37594.4,80.1196,-3174.61,0,0
37854.8,79.6237,-3152.58,0,0
38115.1,79.0145,-3130.33,0,0
38375.4,78.5514,-3108.44,0,0
38635.7,78.0181,-3087.25,0,0
38896.1,77.5028,-3065.84,0,0
39156.4,77.4638,-3044.88,0,0
39416.7,76.9753,-3024.46,0,0
39677,76.4485,-3004.38,0,0
39937.4,76.1289,-2984.18,0,0
40197.7,75.5275,-2964.14,0,0
40458,75.0421,-2944.71,0,0
40718.3,74.6451,-2925.21,0,0
40978.7,74.3199,-2905.76,0,0
41239,74.251,-2886.52,0,0
41499.3,74.2977,-2868.19,0,0
41759.6,74.6344,-2849.7,0,0
42020,73.823,-2832.08,0,0
42280.275,73.4852,-2814.14,0,0
42540.6,73.068,-2796.7,0,0
42800.925,73.3034,-2778.98,0,0
43061.25,72.6992,-2762.13,0,0
43321.575,71.9759,-2744.75,0,0
43581.9,71.8658,-2727.53,0,0
43842.225,71.9422,-2710.73,0,0
44102.55,72.0132,-2694,0,0
44362.875,72.1455,-2678.44,0,0
44623.2,71.5066,-2662.35,0,0
44883.525,71.4111,-2646.35,0,0
45143.85,70.9917,-2630.41,0,0
45404.175,70.4597,-2615.21,0,0
45664.5,70.1763,-2599.21,0,0
45924.825,71.1196,-2583.81,0,0
46185.15,70.3986,-2569.88,0,0
46445.475,69.9431,-2554.37,0,0
46705.8,69.7739,-2539.29,0,0
46966.125,69.8442,-2525.03,0,0
47226.45,69.6373,-2510.57,0,0
47486.775,69.6635,-2495.91,0,0
47747.1,70.3029,-2481.51,0,0
48007.425,70.4054,-2468.62,0,0
48267.75,70.4818,-2455.21,0,0
48528.075,69.7861,-2442.03,0,0
48788.4,69.5018,-2428.94,0,0
49048.725,68.6745,-2415.64,0,0
49309.05,68.0074,-2402.28,0,0
49569.375,67.9472,-2388.76,0,0
49829.7,67.8894,-2376.13,0,0
50090.025,67.1343,-2363.38,0,0
50350.35,66.6736,-2350.35,0,0
50610.675,66.4156,-2337.31,0,0
50871.0,66.2754,-2324.61,0,0
51131.325,66.3008,-2312.17,0,0
51391.65,66.0439,-2299.75,0,0
51651.975,66.2928,-2287.25,0,0
51912.3,66.3649,-2275.35,0,0
52172.625,66.0173,-2263.31,0,0
52432.95,65.9827,-2251.11,0,0
52693.275,66.1305,-2239.09,0,0
52953.6,66.5793,-2227.23,0,0
53213.925,67.1515,-2215.56,0,0
53474.25,68.1492,-2204.73,0,0
53734.575,68.2434,-2193.83,0,0
53994.9,68.3902,-2182.88,0,0
54255.225,69.574,-2172.06,0,0
54515.55,70.5309,-2162.94,0,0
54775.875,69.6029,-2153.68,0,0
55036.2,68.9357,-2143.78,0,0
55296.525,68.153,-2134.3,0,0
55556.85,66.7246,-2124.54,0,0
55817.175,65.3391,-2113.95,0,0
56077.5,64.4039,-2103.32,0,0
56337.825,63.5971,-2092.66,0,0
56598.15,62.6031,-2082.14,0,0
56858.475,61.8012,-2071.41,0,0
57118.8,61.2934,-2060.56,0,0
57379.125,61.2081,-2049.9,0,0
57639.45,61.1685,-2039.31,0,0
57899.775,61.337,-2029.25,0,0
58160.1,61.2751,-2019.28,0,0
58420.4,61.0449,-2009.27,0,0
58680.7,61.123,-1999.15,0,0
58941.1,61.3233,-1989.18,0,0
59201.4,61.4442,-1979.29,0,0
59461.7,61.8068,-1969.7,0,0
59722,62.0165,-1960.12,0,0
59982.4,62.305,-1950.73,0,0
60242.7,62.5888,-1941.37,0,0
60503,62.8403,-1932.13,0,0
60763.3,63.1299,-1922.86,0,0
61023.7,63.4505,-1913.68,0,0
61284,63.8904,-1904.61,0,0
61544.3,64.5107,-1895.38,0,0
61804.6,64.945,-1886.95,0,0
62065,65.1367,-1877.85,0,0
62325.3,65.8848,-1868.93,0,0
62585.6,66.3098,-1860.23,0,0
62845.9,66.9482,-1851.11,0,0
63106.3,68.0641,-1842.18,0,0
63366.6,69.2412,-1833.93,0,0
63626.9,69.9915,-1825.02,0,0
63887.2,71.5433,-1816.82,0,0
64147.6,72.8896,-1808.04,0,0
64407.9,75.4298,-1799.5,0,0
64668.2,78.1357,-1791.98,0,0
64928.5,81.0558,-1784.5,0,0
65188.9,84.8007,-1779,0,0
65449.2,87.4695,-1773.71,0,0
65709.5,89.5946,-1769.96,0,0
65969.8,92.412,-1766.97,0,0
66230.2,91.8388,-1767.37,0,0
66490.5,85.8747,-1764.75,0,0
66750.8,81.1432,-1757.78,0,0
67011.1,78.4062,-1749.51,0,0
67271.5,76.2099,-1741.32,0,0
67531.8,74.95,-1732.88,0,0
67792.1,75.0224,-1724.37,0,0
68052.4,75.1677,-1716.71,0,0
68312.8,76.2661,-1709.58,0,0
68573.1,76.4504,-1703.67,0,0
68833.4,76.3064,-1696.96,0,0
69093.7,77.0571,-1690.36,0,0
69354.1,77.4842,-1685.15,0,0
69614.4,77.0472,-1679.9,0,0
69874.7,76.1106,-1674.31,0,0
70135,75.2456,-1668.52,0,0
70395.4,74.3559,-1662.52,0,0
70655.7,73.1346,-1656.61,0,0
70916,71.8253,-1650.31,0,0
71176.3,70.894,-1643.42,0,0
71436.7,70.0887,-1636.85,0,0
71697,69.3399,-1629.93,0,0
71957.3,69.4702,-1623.02,0,0
72217.6,69.513,-1616.73,0,0
72478,69.5767,-1610.61,0,0
72738.3,69.6399,-1604.9,0,0
72998.6,69.4413,-1599.44,0,0
73258.9,68.8077,-1593.69,0,0
73519.3,68.3888,-1587.9,0,0
73779.6,68.0348,-1582.29,0,0
74039.9,67.382,-1576.76,0,0
74300.225,66.5165,-1571.11,0,0
74560.55,65.813,-1565.41,0,0
74820.875,65.0569,-1559.54,0,0
75081.2,64.2694,-1553.82,0,0
75341.525,63.5441,-1548,0,0
75601.85,62.7158,-1542.16,0,0
75862.175,62.0936,-1536.24,0,0
76122.5,61.3041,-1530.39,0,0
76382.825,60.7717,-1524.44,0,0
76643.15,60.2189,-1518.59,0,0
76903.475,59.6612,-1512.64,0,0
77163.8,59.2162,-1506.84,0,0
77424.125,58.7103,-1501.07,0,0
77684.45,58.2088,-1495.37,0,0
77944.775,57.7566,-1489.67,0,0
78205.1,57.2834,-1483.9,0,0
78465.425,56.789,-1478.12,0,0
78725.75,56.428,-1472.48,0,0
78986.075,56.0033,-1466.72,0,0
79246.4,55.6374,-1461.08,0,0
79506.725,55.3113,-1455.4,0,0
79767.05,55.0173,-1449.76,0,0
80027.375,54.7478,-1444.19,0,0
80287.7,54.5183,-1438.45,0,0
80548.025,54.3188,-1433.02,0,0
80808.35,54.1179,-1427.57,0,0
81068.675,53.8966,-1422.08,0,0
81329.0,53.6375,-1416.64,0,0
81589.325,53.5192,-1411.19,0,0
81849.65,53.3516,-1405.85,0,0
82109.975,53.2645,-1400.49,0,0
82370.3,53.1925,-1395.17,0,0
82630.625,52.9996,-1389.89,0,0
82890.95,52.9645,-1384.65,0,0
83151.275,52.8592,-1379.4,0,0
83411.6,52.8279,-1374.22,0,0
83671.925,52.7058,-1369.06,0,0
83932.25,52.73,-1363.94,0,0
84192.575,52.7288,-1358.85,0,0
84452.9,52.6857,-1353.78,0,0
84713.225,52.6363,-1348.78,0,0
84973.55,52.6168,-1343.7,0,0
85233.875,52.633,-1338.73,0,0
85494.2,52.6262,-1333.79,0,0
85754.525,52.6965,-1328.8,0,0
86014.85,52.7399,-1323.94,0,0
86275.175,52.6817,-1319.14,0,0
86535.5,52.7713,-1314.2,0,0
86795.825,52.8604,-1309.39,0,0
87056.15,52.8274,-1304.5,0,0
87316.475,52.8845,-1299.66,0,0
87576.8,53.0008,-1294.86,0,0
87837.125,53.1769,-1290.07,0,0
88097.45,53.3691,-1285.34,0,0
88357.775,53.4394,-1280.62,0,0
88618.1,53.5648,-1275.81,0,0
88878.425,53.8224,-1270.9,0,0
89138.75,54.2542,-1266.17,0,0
89399.075,54.7381,-1261.49,0,0
89659.4,55.2978,-1256.98,0,0
89919.725,55.7822,-1252.66,0,0
90180,56.2542,-1248.29,0,0
90440.4,56.6281,-1244.07,0,0
90700.7,57.0205,-1239.74,0,0
90961,57.4021,-1235.43,0,0
91221.3,57.957,-1231.33,0,0
91481.7,58.3003,-1227.19,0,0
91742,58.7684,-1223.16,0,0
92002.3,59.2607,-1219.04,0,0
92262.6,59.8541,-1214.91,0,0
92523,60.5793,-1211.04,0,0
92783.3,61.1151,-1207.49,0,0
93043.6,61.5091,-1203.83,0,0
93303.9,62.1543,-1200.21,0,0
93564.3,62.854,-1196.84,0,0
93824.6,63.4643,-1193.88,0,0
94084.9,63.7408,-1191.29,0,0
94345.2,63.2639,-1188.61,0,0
94605.6,62.6666,-1185.58,0,0
94865.9,62.1894,-1182.63,0,0
95126.2,60.982,-1179.73,0,0
95386.5,59.4317,-1176.04,0,0
95646.9,58.3567,-1171.8,0,0
95907.2,57.6301,-1167.55,0,0
96167.5,56.8767,-1163.23,0,0
96427.8,56.521,-1158.64,0,0
96688.2,56.4123,-1154.34,0,0
96948.5,56.4312,-1150.2,0,0
97208.8,56.3123,-1146.18,0,0
97469.1,56.2945,-1142.21,0,0
97729.5,56.2552,-1138.25,0,0
97989.8,56.1702,-1134.3,0,0
98250.1,56.0762,-1130.38,0,0
98510.4,56.0795,-1126.45,0,0
98770.8,56.1561,-1122.61,0,0
99031.1,56.0817,-1118.88,0,0
99291.4,55.8793,-1115.14,0,0
99551.7,55.703,-1111.25,0,0
99812.1,55.5328,-1107.33,0,0
100072,55.4928,-1103.42,0,0
100333,55.4211,-1099.51,0,0
100593,55.2977,-1095.6,0,0
100853,55.1703,-1091.57,0,0
101114,55.2148,-1087.41,0,0
101374,55.2906,-1083.32,0,0
101634,55.4984,-1079.23,0,0
101895,55.7672,-1075.14,0,0
102155,56.0892,-1071.06,0,0
102415,56.6516,-1066.82,0,0
102676,57.5606,-1062.78,0,0
102936,58.5861,-1059.16,0,0
103196,59.374,-1055.92,0,0
103457,59.9747,-1052.6,0,0
103717,60.5226,-1049.2,0,0
103977,61.2518,-1045.77,0,0
104238,62.2148,-1042.55,0,0
104498,63.2223,-1039.84,0,0
104758,63.649,-1037.53,0,0
105019,63.6538,-1034.89,0,0
105279,63.5701,-1032.14,0,0
105539,63.6402,-1029.23,0,0
105800,63.602,-1026.52,0,0
106060,63.3986,-1023.81,0,0
106320.175,63.051,-1020.91,0,0
106580.5,62.7106,-1017.88,0,0
106840.825,62.3395,-1014.91,0,0
107101.15,61.8446,-1011.77,0,0
107361.475,61.4533,-1008.48,0,0
107621.8,61.0397,-1005.21,0,0
107882.125,60.6486,-1001.81,0,0
108142.45,60.2933,-998.397,0,0
108402.775,59.9273,-994.939,0,0
108663.1,59.5382,-991.386,0,0
108923.425,59.2586,-987.664,0,0
109183.75,59.0512,-983.862,0,0
109444.075,59.1442,-980.079,0,0
109704.4,59.1929,-976.458,0,0
109964.725,59.2545,-972.775,0,0
110225.05,59.3426,-969.025,0,0
110485.375,59.5023,-965.208,0,0
110745.7,60.0024,-961.378,0,0
111006.025,60.6301,-957.804,0,0
111266.35,61.06,-954.497,0,0
111526.675,61.5254,-951.171,0,0
111787.0,62.0167,-947.755,0,0
112047.325,62.5777,-944.513,0,0
112307.65,63.0222,-941.372,0,0
112567.975,63.4866,-938.267,0,0
112828.3,63.7501,-935.115,0,0
113088.625,64.1019,-931.867,0,0
113348.95,64.4708,-928.706,0,0
113609.275,64.8017,-925.579,0,0
113869.6,65.0645,-922.289,0,0
114129.925,65.413,-919.099,0,0
114390.25,65.6231,-915.812,0,0
114650.575,65.9645,-912.382,0,0
114910.9,66.3406,-908.991,0,0
115171.225,66.8971,-905.557,0,0
115431.55,67.5775,-902.12,0,0
115691.875,68.2594,-898.993,0,0
115952.2,68.7686,-895.685,0,0
116212.525,69.3813,-892.26,0,0
116472.85,70.2289,-888.789,0,0
116733.175,71.3064,-885.507,0,0
116993.5,72.2658,-882.415,0,0
117253.825,73.1641,-879.302,0,0
117514.15,74.0708,-875.996,0,0
117774.475,75.4424,-872.48,0,0
118034.8,77.3438,-869.549,0,0
118295.125,79.0149,-867.159,0,0
118555.45,80.474,-865.038,0,0
118815.775,81.4377,-862.876,0,0
119076.1,82.3646,-860.308,0,0
119336.425,83.794,-857.585,0,0
119596.75,85.7348,-855.391,0,0
119857.075,87.5409,-853.856,0,0
120117.4,89.1252,-852.782,0,0
120377.725,90.0585,-852.367,0,0
120638.05,90.0504,-851.644,0,0
120898.375,89.9435,-850.551,0,0
121158.7,89.4594,-849.4,0,0
121419.025,88.6025,-847.842,0,0
121679.35,87.6642,-845.723,0,0
121939.675,86.9685,-843.095,0,0
122200.0,86.6961,-840.275,0,0
122460,86.7438,-837.582,0,0
122721,86.7649,-834.955,0,0
122981,86.9765,-832.276,0,0
123241,87.3754,-829.671,0,0
123502,87.8636,-827.381,0,0
123762,88.1051,-825.146,0,0
124022,88.3673,-822.822,0,0
124283,88.6612,-820.549,0,0
124543,88.9651,-818.319,0,0
124803,89.2385,-816.121,0,0
125064,89.5776,-813.967,0,0
125324,89.8423,-811.905,0,0
125584,90.0958,-809.841,0,0
125845,90.3705,-807.891,0,0
126105,90.5093,-806.082,0,0
126365,90.4119,-804.328,0,0
126626,90.1444,-802.39,0,0
126886,89.9536,-800.308,0,0
127146,89.7493,-798.189,0,0
127406,89.46,-795.951,0,0
127667,89.1847,-793.878,0,0
127927,88.915,-791.738,0,0
128187,88.5389,-789.535,0,0
128448,88.0887,-787.265,0,0
128708,87.5515,-784.826,0,0
128968,87.1698,-782.196,0,0
129229,86.9018,-779.533,0,0
129489,86.7678,-776.869,0,0
129749,86.5559,-774.212,0,0
130010,86.4038,-771.435,0,0
130270,86.5448,-768.53,0,0
130530,86.9393,-765.808,0,0
130791,87.3692,-763.447,0,0
131051,87.6876,-761.258,0,0
131311,87.7869,-759.157,0,0
131572,87.7802,-757.106,0,0
131832,87.5891,-754.954,0,0
132092,87.3151,-752.685,0,0
132353,87.0706,-750.282,0,0
132613,86.9395,-747.807,0,0
132873,86.8512,-745.439,0,0
133134,86.7271,-743.163,0,0
133394,86.5352,-740.846,0,0
133654,86.2615,-738.507,0,0
133915,85.8294,-736.131,0,0
134175,85.4541,-733.524,0,0
134435,85.2262,-730.896,0,0
134696,84.9778,-728.43,0,0
134956,84.5963,-725.836,0,0
135216,84.3233,-723.112,0,0
135477,84.0859,-720.414,0,0
135737,83.9298,-717.756,0,0
135997,83.598,-715.137,0,0
136258,83.09,-712.372,0,0
136518,82.6803,-709.357,0,0
136778,82.4849,-706.204,0,0
137039,82.5244,-703.071,0,0
137299,82.5915,-700.093,0,0
137559,82.7162,-697.069,0,0
137819,82.9495,-694.113,0,0
138080,83.1505,-691.268,0,0
138340.125,83.4357,-688.423,0,0
138600.45,83.7908,-685.764,0,0
138860.775,84.0197,-683.268,0,0
139121.1,84.0164,-680.788,0,0
139381.425,83.91,-678.226,0,0
139641.75,83.6877,-675.579,0,0
139902.075,83.4695,-672.728,0,0
140162.4,83.3843,-669.764,0,0
140422.725,83.4125,-666.845,0,0
140683.05,83.4365,-664.11,0,0
140943.375,83.2811,-661.318,0,0
141203.7,83.0917,-658.411,0,0
141464.025,82.8833,-655.461,0,0
141724.35,82.6152,-652.379,0,0
141984.675,82.4175,-649.13,0,0
142245.0,82.3636,-645.864,0,0
142505.325,82.3002,-642.669,0,0
142765.65,82.1815,-639.343,0,0
143025.975,82.1839,-635.909,0,0
143286.3,82.2269,-632.541,0,0
143546.625,82.3212,-629.066,0,0
143806.95,82.4635,-625.586,0,0
144067.275,82.5994,-622.093,0,0
144327.6,82.7641,-618.465,0,0
144587.925,83.0616,-614.769,0,0
144848.25,83.4316,-611.114,0,0
145108.575,83.8917,-607.486,0,0
145368.9,84.379,-603.875,0,0
145629.225,84.7899,-600.255,0,0
145889.55,85.1829,-596.562,0,0
146149.875,85.6667,-592.688,0,0
146410.2,86.3435,-588.781,0,0
146670.525,87.0597,-584.991,0,0
146930.85,87.7424,-581.104,0,0
147191.175,88.4652,-577.159,0,0
147451.5,89.3077,-573.133,0,0
147711.825,90.2808,-568.994,0,0
147972.15,91.4624,-564.896,0,0
148232.475,92.6941,-560.899,0,0
148492.8,93.9638,-556.908,0,0
148753.125,95.2768,-552.877,0,0
149013.45,96.618,-548.786,0,0
149273.775,98.0925,-544.553,0,0
149534.1,99.8336,-540.229,0,0
149794.425,101.895,-535.98,0,0
150054.75,104.142,-531.955,0,0
150315.075,106.479,-528.083,0,0
150575.4,108.879,-524.376,0,0
150835.725,111.331,-520.787,0,0
151096.05,113.803,-517.281,0,0
151356.375,116.382,-513.869,0,0
151616.7,119.038,-510.596,0,0
151877.025,121.751,-507.505,0,0
152137.35,124.458,-504.703,0,0
152397.675,126.943,-502.044,0,0
152658.0,129.293,-499.388,0,0
152918.325,131.663,-496.695,0,0
153178.65,134.06,-494.188,0,0
153438.975,136.22,-491.824,0,0
153699.3,138.193,-489.332,0,0
153959.625,140.209,-486.733,0,0
154219.95,142.309,-484.332,0,0
154480,143.989,-482.098,0,0
154741,145.2,-479.619,0,0
155001,146.2,-476.453,0,0
155261,147.683,-472.744,0,0
155522,149.853,-468.954,0,0
155782,152.288,-465.577,0,0
156042,154.673,-462.356,0,0
156303,156.949,-459.351,0,0
156563,158.885,-455.911,0,0
156823,161.158,-452.005,0,0
157084,164.289,-448.027,0,0
157344,167.95,-444.688,0,0
157604,171.739,-442.077,0,0
157864,175.109,-439.989,0,0
158125,178.267,-438.241,0,0
158385,180.699,-437.076,0,0
158645,182.011,-435.436,0,0
158906,183.084,-433.205,0,0
159166,183.709,-430.338,0,0
159426,184.324,-426.655,0,0
159687,185.026,-422.213,0,0
159947,186.121,-416.733,0,0
160207,188.538,-410.47,0,0
160468,192.18,-404.403,0,0
160728,196.562,-398.999,0,0
160988,200.952,-394.638,0,0
161249,204.487,-389.769,0,0
161509,208.661,-383.782,0,0
161769,214.605,-377.796,0,0
162030,221.207,-373.254,0,0
162290,227.07,-369.275,0,0
162550,233.276,-364.607,0,0
162811,239.924,-360.398,0,0
163071,246.76,-356.25,0,0
163331,254.06,-351.74,0,0
163592,262.538,-347.475,0,0
163852,271.651,-344.059,0,0
164112,281.228,-341.345,0,0
164373,291.004,-339.349,0,0
164633,301.189,-337.76,0,0
164893,312.146,-336.871,0,0
165154,323.77,-337.623,0,0
165414,334.603,-340.304,0,0
165674,344.299,-343.226,0,0
165935,354.038,-346.234,0,0
166195,363.741,-350.123,0,0
166455,373.484,-354.845,0,0
166716,382.639,-361.075,0,0
166976,390.441,-368.139,0,0
167236,397.13,-375.368,0,0
167497,403.066,-382.481,0,0
167757,408.36,-389.75,0,0
168017,413.132,-397.17,0,0
168277,417.297,-404.879,0,0
168538,420.897,-412.514,0,0
168798,423.95,-420.222,0,0
169058,426.772,-428.635,0,0
169319,428.3,-438.073,0,0
169579,427.574,-447.518,0,0
169839,424.866,-455.853,0,0
170100,421.1,-462.275,0,0
170360.075,417.329,-466.997,0,0
170620.4,413.737,-470.583,0,0
170880.725,410.533,-473.285,0,0
171141.05,407.5,-475.311,0,0
171401.375,404.654,-476.267,0,0
171661.7,403.062,-476.386,0,0
171922.025,402.313,-476.896,0,0
172182.35,401.504,-477.419,0,0
172442.675,401.028,-477.223,0,0
172703.0,401.692,-476.529,0,0
172963.325,403.998,-476.318,0,0
173223.65,407.231,-477.931,0,0
173483.975,409.526,-481.309,0,0
173744.3,410.252,-484.939,0,0
174004.625,410.217,-487.577,0,0
174264.95,410.909,-489.47,0,0
174525.275,412.592,-492.216,0,0
174785.6,413.552,-496.51,0,0
175045.925,412.882,-500.699,0,0
175306.25,411.455,-503.656,0,0
175566.575,411.029,-505.697,0,0
175826.9,411.588,-508.481,0,0
176087.225,411.77,-512.501,0,0
176347.55,410.832,-516.913,0,0
176607.875,409.472,-521.125,0,0
176868.2,407.622,-526.044,0,0
177128.525,403.873,-531.262,0,0
177388.85,398.426,-534.892,0,0
177649.175,392.985,-536.775,0,0
177909.5,387.983,-537.94,0,0
178169.825,382.572,-538.762,0,0
178430.15,376.879,-537.919,0,0
178690.475,372.091,-535.729,0,0
178950.8,368.533,-532.922,0,0
179211.125,366.033,-530.182,0,0
179471.45,363.701,-527.615,0,0
179731.775,361.975,-524.483,0,0
179992.1,361.465,-521.384,0,0
180252.425,361.77,-519.18,0,0
180512.75,361.853,-517.584,0,0
180773.075,362.054,-515.935,0,0
181033.4,362.642,-514.46,0,0
181293.725,363.833,-513.367,0,0
181554.05,365.309,-513.338,0,0
181814.375,366.514,-514.49,0,0
182074.7,366.505,-516.472,0,0
182335.025,365.011,-518.345,0,0
182595.35,363.125,-519.177,0,0
182855.675,361.218,-519.649,0,0
183116.0,359.388,-520.122,0,0
183376.325,357.121,-520.732,0,0
183636.65,354.145,-521.012,0,0
183896.975,350.678,-520.596,0,0
184157.3,347.247,-519.146,0,0
184417.625,344.508,-517.244,0,0
184677.95,341.815,-515.573,0,0
184938.275,338.641,-513.508,0,0
185198.6,335.557,-510.667,0,0
185458.925,332.837,-507.107,0,0
185719.25,330.687,-503.193,0,0
185979.575,328.955,-499.128,0,0
186239.9,327.568,-494.83,0,0
186500,326.589,-490.194,0,0
186761,326.384,-485.186,0,0
187021,327.178,-480.56,0,0
187281,328.162,-476.491,0,0
187542,329.403,-472.625,0,0
187802,330.924,-469.102,0,0
188062,332.511,-466.065,0,0
188322,334.07,-463.165,0,0
188583,335.57,-460.758,0,0
188843,336.526,-458.677,0,0
189103,336.883,-456.03,0,0
189364,337.433,-452.551,0,0
189624,338.721,-448.724,0,0
189884,340.81,-445.151,0,0
190145,343.242,-442.321,0,0
190405,345.246,-439.749,0,0
190665,347.092,-437.362,0,0
190926,348.871,-434.857,0,0
191186,350.596,-432.544,0,0
191446,352.225,-429.992,0,0
191707,353.859,-427.295,0,0
191967,355.568,-424.399,0,0
192227,357.364,-421.564,0,0
192488,358.952,-418.651,0,0
192748,360.541,-415.218,0,0
193008,362.405,-411.129,0,0
193269,365.172,-406.63,0,0
193529,368.77,-402.312,0,0
193789,372.924,-398.32,0,0
194050,377.221,-394.64,0,0
194310,382.061,-391.224,0,0
194570,387.316,-388.036,0,0
194831,392.877,-385.277,0,0
195091,398.696,-382.802,0,0
195351,405.101,-380.779,0,0
195612,411.838,-379.402,0,0
195872,418.876,-378.949,0,0
196132,425.73,-379.526,0,0
196393,432.281,-380.877,0,0
196653,438.341,-383.184,0,0
196913,443.331,-386.508,0,0
197174,446.643,-389.783,0,0
197434,449.072,-391.924,0,0
197694,451.632,-393.341,0,0
197955,454.418,-394.619,0,0
198215,457.14,-395.868,0,0
198475,459.983,-397.013,0,0
198735,462.82,-398.557,0,0
198996,464.943,-400.167,0,0
199256,466.893,-401.321,0,0
199516,468.929,-402.233,0,0
199777,471.004,-403.479,0,0
200037,472.294,-404.868,0,0
200297,472.734,-405.609,0,0
200558,472.765,-405.16,0,0
200818,473.328,-403.415,0,0
201078,475.096,-401.028,0,0
201339,477.76,-398.754,0,0
201599,480.947,-396.645,0,0
201859,484.493,-394.593,0,0
202120,488.561,-392.565,0,0
202380.025,493.205,-390.561,0,0
202640.35,498.63,-389.066,0,0
202900.675,504.451,-388.233,0,0
203161.0,510.295,-387.962,0,0
203421.325,516.321,-388.016,0,0
203681.65,522.443,-388.641,0,0
203941.975,528.568,-389.716,0,0
204202.3,534.817,-391.238,0,0
204462.625,541.014,-393.519,0,0
204722.95,546.7,-396.453,0,0
204983.275,551.94,-399.665,0,0
205243.6,556.769,-403.341,0,0
205503.925,560.664,-407.093,0,0
205764.25,564.139,-410.926,0,0
206024.575,566.544,-414.779,0,0
206284.9,567.789,-417.627,0,0
206545.225,569.077,-418.852,0,0
206805.55,571.094,-419.028,0,0
207065.875,574.043,-418.46,0,0
207326.2,578.434,-417.831,0,0
207586.525,583.729,-417.929,0,0
207846.85,589.295,-418.603,0,0
208107.175,595.151,-419.418,0,0
208367.5,601.653,-420.795,0,0
208627.825,608.361,-422.859,0,0
208888.15,615.061,-425.548,0,0
209148.475,621.785,-428.661,0,0
209408.8,628.469,-432.355,0,0
209669.125,635.112,-436.485,0,0
209929.45,641.645,-441.064,0,0
210189.775,647.972,-446.146,0,0
210450.1,654.104,-451.6,0,0
210710.425,660,-457.416,0,0
210970.75,665.667,-463.774,0,0
211231.075,670.867,-470.312,0,0
211491.4,675.669,-477.13,0,0
211751.725,679.994,-483.967,0,0
212012.05,684.081,-490.614,0,0
212272.375,688.206,-497.46,0,0
212532.7,692.342,-504.132,0,0
212793.025,696.575,-511.158,0,0
213053.35,700.845,-518.752,0,0
213313.675,704.873,-526.916,0,0
213574.0,708.258,-535.672,0,0
213834.325,710.849,-544.47,0,0
214094.65,712.969,-553.03,0,0
214354.975,715.074,-561.272,0,0
214615.3,717.108,-569.812,0,0
214875.625,719.072,-578.58,0,0
215135.95,720.599,-587.633,0,0
215396.275,721.844,-597.291,0,0
215656.6,722.15,-606.972,0,0
215916.925,721.984,-616.48,0,0
216177.25,721.362,-625.584,0,0
216437.575,720.72,-634.65,0,0
216697.9,719.874,-643.874,0,0
216958.225,718.409,-653.294,0,0
217218.55,716.345,-662.486,0,0
217478.875,714.006,-671.136,0,0
217739.2,711.583,-679.934,0,0
217999.525,708.842,-688.567,0,0
218259.85,705.654,-697.161,0,0
218520,702.076,-705.468,0,0
218780,697.946,-713.152,0,0
219041,693.87,-720.172,0,0
219301,690.234,-726.945,0,0
219561,686.885,-733.692,0,0
219822,683.659,-740.848,0,0
220082,680.29,-748.237,0,0
220342,676.331,-756.168,0,0
220603,671.949,-763.767,0,0
220863,667.241,-771.396,0,0
221123,662.215,-778.876,0,0
221384,656.993,-786.334,0,0
221644,651.539,-793.937,0,0
221904,645.314,-801.848,0,0
222165,638.017,-809.587,0,0
222425,629.821,-816.746,0,0
222685,620.771,-822.974,0,0
222946,611.449,-828.322,0,0
223206,601.69,-832.782,0,0
223466,591.451,-835.828,0,0
223727,581.784,-837.413,0,0
223987,573.015,-838.195,0,0
224247,565,-838.384,0,0
224508,557.443,-837.874,0,0
224768,550.863,-837.12,0,0
225028,545.254,-835.895,0,0
225289,540.551,-834.981,0,0
225549,536.72,-834.598,0,0
225809,533.307,-834.733,0,0
226070,530.284,-835.711,0,0
226330,526.93,-837.24,0,0
226590,523.376,-838.941,0,0
226851,519.69,-840.555,0,0
227111,516.209,-842.625,0,0
227371,512.638,-845.229,0,0
227632,508.429,-848.355,0,0
227892,503.385,-851.171,0,0
228152,498.026,-853.678,0,0
228413,492.484,-855.828,0,0
228673,486.742,-857.686,0,0
228933,481.188,-859.113,0,0
229193,475.726,-860.238,0,0
229454,470.496,-861.453,0,0
229714,465.135,-862.706,0,0
229974,459.715,-863.877,0,0
230235,454.266,-864.947,0,0
230495,448.661,-865.909,0,0
230755,442.909,-866.732,0,0
231016,437.141,-867.1,0,0
231276,431.424,-867.361,0,0
231536,425.857,-867.516,0,0
231797,420.289,-867.472,0,0
232057,414.856,-867.307,0,0
232317,409.372,-866.908,0,0
232578,404.056,-866.405,0,0
232838,398.934,-865.862,0,0
233098,393.891,-865.209,0,0
233359,388.83,-864.54,0,0
233619,383.923,-863.816,0,0
233879,379.002,-863.156,0,0
234140,374.078,-862.281,0,0
234400,369.184,-861.302,0,0
234660.3,364.497,-860.224,0,0
234920.625,360.001,-859.221,0,0
235180.95,355.64,-858.439,0,0
235441.275,350.947,-857.785,0,0
235701.6,346.122,-857.102,0,0
235961.925,341.047,-856.182,0,0
236222.25,335.935,-854.991,0,0
236482.575,330.805,-853.651,0,0
236742.9,325.735,-851.955,0,0
237003.225,320.852,-850.293,0,0
237263.55,315.984,-848.529,0,0
237523.875,311.046,-846.698,0,0
237784.2,305.957,-844.703,0,0
238044.525,300.828,-842.337,0,0
238304.85,295.758,-839.636,0,0
238565.175,290.934,-836.484,0,0
238825.5,286.308,-833.244,0,0
239085.825,282.072,-829.703,0,0
239346.15,278.205,-826.07,0,0
239606.475,274.629,-822.601,0,0
239866.8,271.232,-819.146,0,0
240127.125,268.129,-815.554,0,0
240387.45,264.948,-812.27,0,0
240647.775,261.869,-808.922,0,0
240908.1,258.871,-805.443,0,0
241168.425,255.979,-801.906,0,0
241428.75,253.213,-798.211,0,0
241689.075,250.639,-794.298,0,0
241949.4,248.426,-790.365,0,0
242209.725,246.56,-786.48,0,0
242470.05,245.058,-782.811,0,0
242730.375,243.566,-779.249,0,0
242990.7,242.277,-775.769,0,0
243251.025,241.173,-772.37,0,0
243511.35,240.285,-769.237,0,0
243771.675,239.547,-766.345,0,0
244032.0,238.831,-763.653,0,0
244292.325,238,-761.194,0,0
244552.65,236.918,-758.813,0,0
244812.975,235.987,-756.403,0,0
245073.3,234.963,-754.257,0,0
245333.625,233.869,-752.109,0,0
245593.95,232.624,-749.813,0,0
245854.275,231.464,-747.423,0,0
246114.6,230.409,-745.088,0,0
246374.925,229.281,-742.676,0,0
246635.25,228.33,-740.232,0,0
246895.575,227.476,-737.791,0,0
247155.9,226.781,-735.491,0,0
247416.225,225.93,-733.253,0,0
247676.55,225.065,-731.078,0,0
247936.875,224.212,-728.829,0,0
248197.2,223.513,-726.407,0,0
248457.525,222.867,-723.969,0,0
248717.85,222.636,-721.534,0,0
248978.175,222.563,-719.317,0,0
249238.5,222.738,-717.461,0,0
249498.825,222.724,-715.938,0,0
249759.15,222.661,-714.58,0,0
250019.475,222.382,-713.461,0,0
250279.8,221.929,-712.491,0,0
250540,221.162,-711.549,0,0
250800,220.216,-710.579,0,0
251061,219.013,-709.542,0,0
251321,217.752,-708.29,0,0
251581,216.336,-706.962,0,0
251842,214.876,-705.502,0,0
252102,213.344,-703.923,0,0
252362,211.674,-702.224,0,0
252623,209.895,-700.215,0,0
252883,208.23,-697.871,0,0
253143,206.727,-695.393,0,0
253404,205.382,-692.669,0,0
253664,204.127,-689.89,0,0
253924,203.037,-686.983,0,0
254185,202.124,-683.927,0,0
254445,201.443,-680.711,0,0
254705,201.009,-677.487,0,0
254966,200.73,-674.25,0,0
255226,200.692,-670.994,0,0
255486,200.783,-667.735,0,0
255747,201.135,-664.351,0,0
256007,201.864,-660.998,0,0
256267,202.986,-657.724,0,0
256528,204.492,-654.747,0,0
256788,206.105,-652.125,0,0
257048,207.873,-649.822,0,0
257309,209.577,-647.843,0,0
257569,211.174,-646.033,0,0
257829,212.719,-644.436,0,0
258090,214.078,-642.793,0,0
258350,215.429,-641.082,0,0
258610,216.874,-639.214,0,0
258871,218.518,-637.253,0,0
259131,220.486,-635.39,0,0
259391,222.823,-633.567,0,0
259651,225.532,-632.016,0,0
259912,228.558,-630.946,0,0
260172,231.687,-630.435,0,0
260432,234.764,-630.162,0,0
260693,237.91,-630.284,0,0
260953,241.193,-630.904,0,0
261213,244.455,-632.292,0,0
261474,247.285,-634.258,0,0
261734,249.605,-636.642,0,0
261994,251.489,-639.297,0,0
262255,252.933,-642.19,0,0
262515,253.796,-645.289,0,0
262775,254.107,-648.455,0,0
263036,253.899,-651.481,0,0
263296,253.272,-654.342,0,0
263556,252.353,-657.119,0,0
263817,251.104,-659.73,0,0
264077,249.495,-662.286,0,0
264337,247.514,-664.539,0,0
264598,245.243,-666.497,0,0
264858,242.732,-668.118,0,0
265118,240.095,-669.451,0,0
265379,237.37,-670.502,0,0
265639,234.477,-671.266,0,0
265899,231.604,-671.751,0,0
266160,228.714,-671.899,0,0
266420,225.726,-671.851,0,0
266680.25,222.722,-671.429,0,0
266940.575,219.816,-670.66,0,0
267200.9,217.06,-669.585,0,0
267461.225,214.479,-668.29,0,0
267721.55,212.059,-666.792,0,0
267981.875,209.857,-665.132,0,0
268242.2,207.884,-663.356,0,0
268502.525,206.134,-661.426,0,0
268762.85,204.636,-659.574,0,0
269023.175,203.336,-657.668,0,0
269283.5,202.072,-655.814,0,0
269543.825,200.908,-653.979,0,0
269804.15,199.723,-652.102,0,0
270064.475,198.844,-649.984,0,0
270324.8,197.997,-647.97,0,0
270585.125,197.492,-645.851,0,0
270845.45,197.056,-643.783,0,0
271105.775,196.92,-641.819,0,0
271366.1,196.878,-640.022,0,0
271626.425,197.005,-638.32,0,0
271886.75,197.182,-636.797,0,0
272147.075,197.373,-635.485,0,0
272407.4,197.521,-634.396,0,0
272667.725,197.491,-633.331,0,0
272928.05,197.148,-632.253,0,0
273188.375,196.789,-630.797,0,0
273448.7,196.577,-629.316,0,0
273709.025,196.488,-627.593,0,0
273969.35,196.602,-625.862,0,0
274229.675,196.925,-624.157,0,0
274490.0,197.513,-622.462,0,0
274750.325,198.195,-620.901,0,0
275010.65,199.033,-619.417,0,0
275270.975,200.007,-617.997,0,0
275531.3,201.152,-616.744,0,0
275791.625,202.413,-615.661,0,0
276051.95,203.774,-614.721,0,0
276312.275,205.3,-613.898,0,0
276572.6,206.913,-613.402,0,0
276832.925,208.572,-613.124,0,0
277093.25,210.226,-613.2,0,0
277353.575,211.812,-613.538,0,0
277613.9,213.275,-614.076,0,0
277874.225,214.63,-614.84,0,0
278134.55,215.89,-615.783,0,0
278394.875,216.924,-616.958,0,0
278655.2,217.762,-618.333,0,0
278915.525,218.373,-619.817,0,0
279175.85,218.742,-621.382,0,0
279436.175,218.908,-623.01,0,0
279696.5,218.891,-624.618,0,0
279956.825,218.598,-626.412,0,0
280217.15,217.985,-628.201,0,0
280477.475,217.056,-629.884,0,0
280737.8,215.891,-631.376,0,0
280998.125,214.576,-632.67,0,0
281258.45,213.196,-633.797,0,0
281518.775,211.713,-634.839,0,0
281779.1,210.064,-635.786,0,0
282039.425,208.316,-636.606,0,0
282299.75,206.464,-637.177,0,0
282560,204.612,-637.518,0,0
282820,202.784,-637.839,0,0
283081,200.924,-638.009,0,0
283341,198.975,-638.096,0,0
283601,197.001,-638,0,0
283862,195.021,-637.716,0,0
284122,193.1,-637.29,0,0
284382,191.306,-636.741,0,0
284643,189.533,-636.085,0,0
284903,187.756,-635.356,0,0
285163,185.992,-634.542,0,0
285424,184.328,-633.569,0,0
285684,182.706,-632.457,0,0
285944,181.223,-631.16,0,0
286205,179.843,-629.9,0,0
286465,178.627,-628.546,0,0
286725,177.446,-627.091,0,0
286986,176.444,-625.615,0,0
287246,175.588,-624.011,0,0
287506,174.929,-622.442,0,0
287767,174.462,-620.893,0,0
288027,174.18,-619.432,0,0
288287,174.027,-618.143,0,0
288548,173.936,-616.979,0,0
288808,173.884,-615.923,0,0
289068,173.844,-614.96,0,0
289329,173.834,-614.135,0,0
289589,173.74,-613.428,0,0
289849,173.614,-612.764,0,0
290109,173.435,-612.051,0,0
290370,173.347,-611.459,0,0
290630,173.188,-610.907,0,0
290890,172.987,-610.459,0,0
291151,172.692,-610.054,0,0
291411,172.25,-609.618,0,0
291671,171.75,-609.089,0,0
291932,171.204,-608.484,0,0
292192,170.649,-607.806,0,0
292452,170.098,-607.008,0,0
292713,169.591,-606.1,0,0
292973,169.205,-605.085,0,0
293233,168.956,-603.974,0,0
293494,168.881,-602.868,0,0
293754,168.964,-601.78,0,0
294014,169.218,-600.788,0,0
294275,169.59,-599.908,0,0
294535,170.037,-599.143,0,0
294795,170.575,-598.523,0,0
295056,171.179,-598.015,0,0
295316,171.853,-597.7,0,0
295576,172.505,-597.576,0,0
295837,173.145,-597.627,0,0
296097,173.695,-597.835,0,0
296357,174.164,-598.18,0,0
296618,174.508,-598.66,0,0
296878,174.748,-599.287,0,0
297138,174.833,-599.963,0,0
297399,174.765,-600.735,0,0
297659,174.529,-601.535,0,0
297919,174.145,-602.342,0,0
298180,173.575,-603.084,0,0
298440,172.883,-603.8,0,0
298700.2,172.081,-604.439,0,0
298960.525,171.266,-605.028,0,0
299220.85,170.294,-605.55,0,0
299481.175,169.351,-606.055,0,0
299741.5,168.241,-606.411,0,0
300001.825,167.118,-606.837,0,0
300262.15,165.931,-607.157,0,0
300522.475,164.648,-607.389,0,0
300782.8,163.348,-607.58,0,0
301043.125,161.985,-607.673,0,0
301303.45,160.602,-607.669,0,0
301563.775,159.177,-607.619,0,0
301824.1,157.714,-607.46,0,0
302084.425,156.267,-607.181,0,0
302344.75,154.833,-606.782,0,0
302605.075,153.426,-606.333,0,0
302865.4,152.078,-605.824,0,0
303125.725,150.755,-605.244,0,0
303386.05,149.46,-604.632,0,0
303646.375,148.207,-603.974,0,0
303906.7,146.962,-603.334,0,0
304167.025,145.746,-602.565,0,0
304427.35,144.513,-601.773,0,0
304687.675,143.368,-600.904,0,0
304948.0,142.243,-599.987,0,0
305208.325,141.179,-599.03,0,0
305468.65,140.18,-598.015,0,0
305728.975,139.272,-597.014,0,0
305989.3,138.421,-595.992,0,0
306249.625,137.656,-594.952,0,0
306509.95,136.941,-593.93,0,0
306770.275,136.287,-592.937,0,0
307030.6,135.674,-591.934,0,0
307290.925,135.128,-590.987,0,0
307551.25,134.638,-590.046,0,0
307811.575,134.186,-589.177,0,0
308071.9,133.778,-588.39,0,0
308332.225,133.365,-587.624,0,0
308592.55,132.965,-586.951,0,0
308852.875,132.496,-586.334,0,0
309113.2,132.036,-585.709,0,0
309373.525,131.53,-585.123,0,0
309633.85,131.029,-584.561,0,0
309894.175,130.47,-584.009,0,0
310154.5,129.917,-583.501,0,0
310414.825,129.287,-583.006,0,0
310675.15,128.635,-582.519,0,0
310935.475,127.939,-582.028,0,0
311195.8,127.139,-581.522,0,0
311456.125,126.299,-580.995,0,0
311716.45,125.39,-580.386,0,0
311976.775,124.452,-579.716,0,0
312237.1,123.487,-578.969,0,0
312497.425,122.549,-578.158,0,0
312757.75,121.592,-577.257,0,0
313018.075,120.652,-576.278,0,0
313278.4,119.755,-575.226,0,0
313538.725,118.91,-574.1,0,0
313799.05,118.106,-572.889,0,0
314059.375,117.37,-571.634,0,0
314319.7,116.697,-570.328,0,0
314580,116.145,-568.995,0,0
314840,115.7,-567.513,0,0
315101,115.254,-566.097,0,0
315361,115.055,-564.701,0,0
315621,114.944,-563.279,0,0
315882,114.997,-562.038,0,0
316142,115.091,-560.854,0,0
316402,115.164,-559.686,0,0
316663,115.366,-558.718,0,0
316923,115.616,-557.683,0,0
317183,115.743,-556.912,0,0
317444,115.961,-556.164,0,0
317704,116.147,-555.467,0,0
317964,116.203,-554.848,0,0
318225,116.179,-554.26,0,0
318485,116.256,-553.624,0,0
318745,116.344,-552.998,0,0
319006,116.306,-552.439,0,0
319266,116.256,-551.865,0,0
319526,116.254,-551.205,0,0
319787,116.268,-550.586,0,0
320047,116.202,-550.035,0,0
320307,116.286,-549.443,0,0
320567,116.33,-548.829,0,0
320828,116.364,-548.283,0,0
321088,116.46,-547.767,0,0
321348,116.657,-547.221,0,0
321609,116.832,-546.774,0,0
321869,116.991,-546.374,0,0
322129,117.251,-546.092,0,0
322390,117.424,-545.85,0,0
322650,117.608,-545.76,0,0
322910,117.802,-545.632,0,0
323171,117.887,-545.639,0,0
323431,117.925,-545.662,0,0
323691,117.876,-545.767,0,0
323952,117.714,-545.933,0,0
324212,117.569,-546.106,0,0
324472,117.373,-546.346,0,0
324733,117.019,-546.592,0,0
324993,116.525,-546.795,0,0
325253,116.051,-547.04,0,0
325514,115.376,-547.222,0,0
325774,114.656,-547.324,0,0
326034,113.949,-547.443,0,0
326295,113.09,-547.355,0,0
326555,112.256,-547.307,0,0
326815,111.355,-547.237,0,0
327076,110.486,-547.042,0,0
327336,109.571,-546.81,0,0
327596,108.647,-546.499,0,0
327857,107.742,-546.219,0,0
328117,106.809,-545.869,0,0
328377,105.922,-545.456,0,0
328638,104.973,-544.973,0,0
328898,104.101,-544.466,0,0
329158,103.255,-543.967,0,0
329419,102.396,-543.43,0,0
329679,101.608,-542.912,0,0
329939,100.776,-542.318,0,0
330200,99.9451,-541.764,0,0
330460,99.1496,-541.177,0,0
330720.15,98.313,-540.634,0,0
330980.475,97.464,-539.98,0,0
331240.8,96.5393,-539.398,0,0
331501.125,95.6596,-538.72,0,0
331761.45,94.836,-538.064,0,0
332021.775,93.9492,-537.338,0,0
332282.1,93.1057,-536.566,0,0
332542.425,92.2073,-535.842,0,0
332802.75,91.3223,-535.036,0,0
333063.075,90.5486,-534.241,0,0
333323.4,89.6016,-533.333,0,0
333583.725,88.769,-532.449,0,0
333844.05,87.8742,-531.502,0,0
334104.375,87.0218,-530.533,0,0
334364.7,86.2687,-529.447,0,0
334625.025,85.4312,-528.381,0,0
334885.35,84.6667,-527.287,0,0
335145.675,83.9976,-526.189,0,0
335406.0,83.3297,-524.969,0,0
335666.325,82.6392,-523.79,0,0
335926.65,82.0835,-522.575,0,0
336186.975,81.5576,-521.346,0,0
336447.3,81.0107,-520.084,0,0
336707.625,80.5019,-518.846,0,0
336967.95,80.0307,-517.542,0,0
337228.275,79.6599,-516.354,0,0
337488.6,79.2855,-515.089,0,0
337748.925,78.8463,-513.865,0,0
338009.25,78.5334,-512.585,0,0
338269.575,78.2974,-511.312,0,0
338529.9,77.9748,-509.98,0,0
338790.225,77.7318,-508.67,0,0
339050.55,77.483,-507.322,0,0
339310.875,77.3179,-506.014,0,0
339571.2,77.3168,-504.556,0,0
339831.525,77.2634,-503.206,0,0
340091.85,77.3418,-501.865,0,0
340352.175,77.4843,-500.461,0,0
340612.5,77.7309,-499.194,0,0
340872.825,78.0023,-497.857,0,0
341133.15,78.3171,-496.648,0,0
341393.475,78.7395,-495.529,0,0
341653.8,79.1612,-494.371,0,0
341914.125,79.6948,-493.332,0,0
342174.45,80.2021,-492.423,0,0
342434.775,80.7565,-491.558,0,0
342695.1,81.379,-490.777,0,0
342955.425,81.8806,-490.118,0,0
343215.75,82.4164,-489.499,0,0
343476.075,82.9198,-489.044,0,0
343736.4,83.3868,-488.607,0,0
343996.725,83.7318,-488.266,0,0
344257.05,84.0582,-487.942,0,0
344517.375,84.2609,-487.668,0,0
344777.7,84.3847,-487.378,0,0
345038.025,84.4787,-487.051,0,0
345298.35,84.4816,-486.751,0,0
345558.675,84.5184,-486.417,0,0
345819.0,84.4229,-485.982,0,0
346079.325,84.3401,-485.559,0,0
346339.65,84.3795,-485.126,0,0
346599.975,84.2495,-484.709,0,0
346860,84.2138,-484.215,0,0
347121,84.1013,-483.789,0,0
347381,83.978,-483.359,0,0
347641,83.9026,-482.877,0,0
347902,83.7699,-482.35,0,0
348162,83.539,-481.866,0,0
348422,83.3302,-481.3,0,0
348683,83.1122,-480.692,0,0
348943,82.9249,-479.977,0,0
349203,82.859,-479.209,0,0
349464,82.7828,-478.524,0,0
349724,82.7886,-477.652,0,0
349984,82.7581,-476.903,0,0
350245,82.9578,-476.14,0,0
350505,83.1065,-475.343,0,0
350765,83.3778,-474.682,0,0
351025,83.7893,-473.985,0,0
351286,84.0992,-473.438,0,0
351546,84.4973,-472.999,0,0
351806,84.9605,-472.704,0,0
352067,85.2998,-472.401,0,0
352327,85.549,-472.259,0,0
352587,85.7633,-472.178,0,0
352848,85.8507,-472.154,0,0
353108,85.855,-472.039,0,0
353368,85.8291,-472.074,0,0
353629,85.6377,-472.005,0,0
353889,85.4361,-471.911,0,0
354149,85.1699,-471.72,0,0
354410,84.8236,-471.499,0,0
354670,84.5167,-471.264,0,0
354930,84.1514,-470.939,0,0
355191,83.7881,-470.624,0,0
355451,83.4147,-470.277,0,0
355711,83.1434,-469.834,0,0
355972,82.7394,-469.395,0,0
356232,82.3873,-468.95,0,0
356492,82.0623,-468.452,0,0
356753,81.6831,-467.958,0,0
357013,81.3509,-467.376,0,0
357273,80.9298,-466.827,0,0
357534,80.6628,-466.206,0,0
357794,80.2904,-465.505,0,0
358054,80.0249,-464.795,0,0
358315,79.813,-463.985,0,0
358575,79.6431,-463.279,0,0
358835,79.5652,-462.543,0,0
359096,79.4221,-461.745,0,0
359356,79.4278,-461.102,0,0
359616,79.4008,-460.453,0,0
359877,79.3968,-459.766,0,0
360137,79.4687,-459.2,0,0
360397,79.4471,-458.565,0,0
360658,79.4908,-458.06,0,0
360918,79.4589,-457.444,0,0
361178,79.4478,-456.876,0,0
361438,79.3516,-456.395,0,0
361699,79.3076,-455.811,0,0
361959,79.2379,-455.274,0,0
362219,79.1937,-454.657,0,0
362480,79.0958,-453.999,0,0
362740.1,79.0752,-453.34,0,0
363000.425,79.0943,-452.639,0,0
363260.75,79.1772,-451.967,0,0
363521.075,79.29,-451.305,0,0
363781.4,79.5382,-450.583,0,0
364041.725,79.8314,-449.98,0,0
364302.05,80.0971,-449.495,0,0
364562.375,80.4173,-449.017,0,0
364822.7,80.7359,-448.634,0,0
365083.025,81.0618,-448.325,0,0
365343.35,81.3548,-448.092,0,0
365603.675,81.6157,-447.981,0,0
365864.0,81.7849,-447.933,0,0
366124.325,81.8878,-447.928,0,0
366384.65,81.8881,-447.888,0,0
366644.975,81.7389,-447.937,0,0
366905.3,81.5384,-447.946,0,0
367165.625,81.29,-447.857,0,0
367425.95,80.9438,-447.765,0,0
367686.275,80.5341,-447.597,0,0
367946.6,80.0908,-447.349,0,0
368206.925,79.5342,-447.068,0,0
368467.25,79.0356,-446.652,0,0
368727.575,78.4292,-446.193,0,0
368987.9,77.925,-445.521,0,0
369248.225,77.4249,-444.728,0,0
369508.55,77.0446,-443.839,0,0
369768.875,76.8394,-442.917,0,0
370029.2,76.7533,-441.938,0,0
370289.525,76.789,-441.04,0,0
370549.85,76.9903,-440.159,0,0
370810.175,77.2832,-439.426,0,0
371070.5,77.6214,-438.791,0,0
371330.825,78.0145,-438.294,0,0
371591.15,78.3781,-437.894,0,0
371851.475,78.7097,-437.619,0,0
372111.8,79.008,-437.498,0,0
372372.125,79.1393,-437.431,0,0
372632.45,79.1449,-437.414,0,0
372892.775,79.098,-437.389,0,0
373153.1,78.9625,-437.321,0,0
373413.425,78.6148,-437.242,0,0
373673.75,78.3063,-437.11,0,0
373934.075,77.878,-436.811,0,0
374194.4,77.4502,-436.47,0,0
374454.725,77.0819,-436.094,0,0
374715.05,76.6598,-435.598,0,0
374975.375,76.254,-435.145,0,0
375235.7,75.8555,-434.591,0,0
375496.025,75.4576,-433.934,0,0
375756.35,75.1134,-433.243,0,0
376016.675,74.8695,-432.493,0,0
376277.0,74.6212,-431.76,0,0
376537.325,74.4953,-430.97,0,0
376797.65,74.4214,-430.216,0,0
377057.975,74.3667,-429.442,0,0
377318.3,74.375,-428.695,0,0
377578.625,74.426,-427.965,0,0
377838.95,74.5202,-427.326,0,0
378099.275,74.6442,-426.626,0,0
378359.6,74.7872,-425.991,0,0
378619.925,74.9098,-425.421,0,0
378880,75.113,-424.878,0,0
379141,75.2362,-424.266,0,0
379401,75.5002,-423.78,0,0
379661,75.7103,-423.325,0,0
379922,75.9837,-422.89,0,0
380182,76.1341,-422.529,0,0
380442,76.3407,-422.208,0,0
380703,76.4142,-421.934,0,0
380963,76.4721,-421.716,0,0
381223,76.4945,-421.445,0,0
381483,76.528,-421.155,0,0
381744,76.5238,-420.837,0,0
382004,76.4793,-420.511,0,0
382264,76.4962,-420.15,0,0
382525,76.4623,-419.85,0,0
382785,76.4828,-419.558,0,0
383045,76.5097,-419.288,0,0
383306,76.4867,-418.971,0,0
383566,76.4548,-418.72,0,0
383826,76.3444,-418.524,0,0
384087,76.2152,-418.303,0,0
384347,76.0562,-418.042,0,0
384607,75.8489,-417.742,0,0
384868,75.6075,-417.474,0,0
385128,75.3355,-417.155,0,0
385388,75.1139,-416.752,0,0
385649,74.8746,-416.342,0,0
385909,74.6219,-415.955,0,0
386169,74.355,-415.53,0,0
386430,74.0516,-415.044,0,0
386690,73.8381,-414.594,0,0
386950,73.5988,-414.102,0,0
387211,73.2438,-413.569,0,0
387471,72.9384,-413.028,0,0
387731,72.6982,-412.425,0,0
387992,72.4223,-411.774,0,0
388252,72.1965,-411.142,0,0
388512,71.9407,-410.465,0,0
388773,71.7497,-409.715,0,0
389033,71.5613,-408.925,0,0
389293,71.4297,-408.142,0,0
389554,71.3129,-407.322,0,0
389814,71.2765,-406.496,0,0
390074,71.2586,-405.664,0,0
390335,71.2886,-404.787,0,0
390595,71.3804,-403.922,0,0
390855,71.5203,-403.062,0,0
391116,71.7349,-402.245,0,0
391376,71.9413,-401.356,0,0
391636,72.2891,-400.515,0,0
391896,72.6424,-399.735,0,0
392157,73.0467,-399.013,0,0
392417,73.4878,-398.296,0,0
392677,73.9507,-397.724,0,0
392938,74.505,-397.149,0,0
393198,75.028,-396.643,0,0
393458,75.5143,-396.169,0,0
393719,76.0176,-395.756,0,0
393979,76.5149,-395.368,0,0
394239,76.968,-395.063,0,0
394500,77.453,-394.808,0,0
394760.05,77.8928,-394.508,0,0
395020.375,78.3496,-394.307,0,0
395280.7,78.8131,-394.117,0,0
395541.025,79.2249,-394.018,0,0
395801.35,79.6347,-393.85,0,0
396061.675,79.9634,-393.787,0,0
396322.0,80.3696,-393.754,0,0
396582.325,80.701,-393.761,0,0
396842.65,80.9878,-393.791,0,0
397102.975,81.2293,-393.829,0,0
397363.3,81.4667,-393.944,0,0
397623.625,81.6075,-394.024,0,0
397883.95,81.7718,-394.141,0,0
398144.275,81.7831,-394.244,0,0
398404.6,81.8282,-394.335,0,0
398664.925,81.7433,-394.407,0,0
398925.25,81.7197,-394.53,0,0
399185.575,81.6131,-394.569,0,0
399445.9,81.5161,-394.614,0,0
399706.225,81.3443,-394.649,0,0
399966.55,81.1585,-394.671,0,0
400006.6,81.1697,-394.647,0,0