File: Accelerated corrosion test data/2025-10-15_15-08-31/sample_7.csv
Frequency (Hz),Impedance (ohms),Phase (Radians),Temperature (C),Humidity (%)
10000.0,273.899,-12065.1,0,0
10260.325,269.656,-11776,0,0
10520.65,258.191,-11477.4,0,0
10780.975,252.905,-11196.6,0,0
11041.3,250.282,-10930.3,0,0
11301.625,247.122,-10674.3,0,0
11561.95,249.986,-10425.6,0,0
11822.275,259.817,-10193.8,0,0
12082.6,269.537,-9970.94,0,0
12342.925,318.063,-9821.98,0,0
12603.25,255.94,-9625.08,0,0
12863.575,267.378,-9442.21,0,0
13123.9,236.957,-9255.4,0,0
13384.225,227.589,-9080.25,0,0
13644.55,227.405,-8901.2,0,0
13904.875,209.294,-8733.77,0,0
14165.2,209.008,-8561.37,0,0
14425.525,205.67,-8422.53,0,0
14685.8,201.781,-8274.03,0,0
14946.175,199.079,-8126.7,0,0
15206.5,195.535,-7997.58,0,0
15466.825,185.874,-7855.01,0,0
15727.15,183.364,-7727.83,0,0
15987.5,180.04,-7598.25,0,0
16247.8,177.405,-7479.91,0,0
16508.125,171.875,-7357.8,0,0
16768.45,171.586,-7239.92,0,0
17028.775,170.69,-7128.8,0,0
17289.1,166.257,-7021.29,0,0
17549.425,165.987,-6913.22,0,0
17809.75,171.273,-6803.63,0,0
18070.075,169.809,-6707.81,0,0
18330.4,180.325,-6602.14,0,0
18590.725,200.52,-6519.33,0,0
18851.05,190.968,-6446.41,0,0
19111.375,180.596,-6363.31,0,0
19371.7,202.548,-6295.56,0,0
19632.025,168.427,-6221.06,0,0
19892.35,159.191,-6121.5,0,0
20152.675,168.763,-6043.46,0,0
20413.0,168.546,-5969.84,0,0
20673.3,171.338,-5889.39,0,0
20933.65,179.666,-5832.68,0,0
21193.975,160.999,-5768.63,0,0
21454.3,153.548,-5694.23,0,0
21714.625,157.159,-5629.54,0,0
21974.9,146.776,-5565.89,0,0
22235.275,141.566,-5497.26,0,0
22495.6,140.018,-5434.19,0,0
22755.925,134.167,-5370.8,0,0
23016.25,130.514,-5307.27,0,0
23276.6,128.701,-5244.58,0,0
23536.9,129.856,-5184.41,0,0
23797.225,128.081,-5129.46,0,0
24057.55,124.651,-5072.24,0,0
24317.875,123.035,-5014.84,0,0
24578.2,123.653,-4960.3,0,0
24838.525,122.953,-4907.1,0,0
25098.85,121.36,-4855.62,0,0
25359.175,120.36,-4803.61,0,0
25619.5,118.823,-4751.32,0,0
25879.8,118.851,-4702.09,0,0
26140.1,119.666,-4649.88,0,0
26400.5,124.233,-4603.39,0,0
26660.8,122.219,-4557.09,0,0
26921.1,123.031,-4507.63,0,0
27181.4,128.83,-4459.84,0,0
27441.8,131.372,-4413.47,0,0
27702.1,142.81,-4367.14,0,0
27962.4,156.492,-4324.3,0,0
28222.7,177.66,-4296.82,0,0
28483.1,181.05,-4276.87,0,0
28743.4,181.684,-4261.36,0,0
29003.7,165.819,-4238.36,0,0
29264,148.493,-4203.85,0,0
29524.4,139.758,-4164.43,0,0
29784.7,132.752,-4126.5,0,0
30045,129.622,-4083.26,0,0
30305.3,130.699,-4046.68,0,0
30565.7,132.579,-4013.15,0,0
30826,132.927,-3981.65,0,0
31086.3,133.531,-3951.23,0,0
31346.6,131.087,-3921.98,0,0
31607,128.625,-3897.45,0,0
31867.3,121.327,-3865.18,0,0
32127.6,117.34,-3833.99,0,0
32387.9,114.692,-3802.94,0,0
32648.3,111.133,-3773.35,0,0
32908.6,107.968,-3743.18,0,0
33168.9,104.737,-3713.16,0,0
33429.2,101.855,-3683.39,0,0
33689.6,99.6523,-3653.34,0,0
33949.9,97.7963,-3624.41,0,0
34210.2,95.719,-3595.88,0,0
34470.5,93.8944,-3567.01,0,0
34730.9,92.746,-3539.17,0,0
34991.2,91.6281,-3511.26,0,0
35251.5,90.32,-3484.54,0,0
35511.8,89.5349,-3457.52,0,0
35772.2,89.0364,-3431.15,0,0
36032.5,88.836,-3405.36,0,0
36292.8,88.1352,-3380.75,0,0
36553.1,87.3247,-3355.46,0,0
36813.5,86.6329,-3330.71,0,0
37073.8,86.3646,-3305.78,0,0
37334.1,86.1965,-3281.8,0,0
37594.4,86.0001,-3258.67,0,0
37854.8,85.6264,-3235.1,0,0
38115.1,85.5569,-3211.24,0,0
38375.4,85.9567,-3188.06,0,0
38635.7,86.7946,-3164.98,0,0
38896.1,88.2281,-3142.42,0,0
39156.4,90.3821,-3121.12,0,0
39416.7,93.3447,-3099.93,0,0
39677,97.1623,-3081.63,0,0
39937.4,98.5963,-3065.57,0,0
40197.7,98.5853,-3049.97,0,0
40458,95.7711,-3034.81,0,0
40718.3,92.8489,-3016.41,0,0
40978.7,89.2747,-2997.87,0,0
41239,87.0629,-2978.42,0,0
41499.3,85.2499,-2958.9,0,0
41759.6,84.2197,-2940.17,0,0
42020,82.0858,-2921.79,0,0
42280.275,80.8646,-2902.15,0,0
42540.6,80.4576,-2882.69,0,0
42800.925,80.8595,-2864.46,0,0
43061.25,80.7078,-2846.48,0,0
43321.575,80.6692,-2829.99,0,0
43581.9,79.4212,-2812.37,0,0
43842.225,78.9979,-2794.06,0,0
44102.55,80.2768,-2776.62,0,0
44362.875,82.0232,-2760.75,0,0
44623.2,82.4379,-2746,0,0
44883.525,81.412,-2731.86,0,0
45143.85,80.6979,-2716.51,0,0
45404.175,78.968,-2700.66,0,0
45664.5,79.8467,-2683.86,0,0
45924.825,80.9602,-2670.4,0,0
46185.15,79.8882,-2657.75,0,0
46445.475,77.6634,-2644.23,0,0
46705.8,74.7742,-2629.2,0,0
46966.125,72.7588,-2613.9,0,0
47226.45,71.7569,-2598.03,0,0
47486.775,71.2609,-2582.8,0,0
47747.1,70.8428,-2568.18,0,0
48007.425,70.5591,-2553.75,0,0
48267.75,70.2498,-2539.81,0,0
48528.075,69.2131,-2525.8,0,0
48788.4,68.6627,-2511.82,0,0
49048.725,68.2018,-2498.01,0,0
49309.05,67.9476,-2484.17,0,0
49569.375,67.2779,-2470.72,0,0
49829.7,66.9005,-2457.29,0,0
50090.025,66.6068,-2444.11,0,0
50350.35,66.2268,-2430.91,0,0
50610.675,65.9625,-2418.02,0,0
50871.0,65.6687,-2405.22,0,0
51131.325,65.3256,-2392.58,0,0
51391.65,64.931,-2380,0,0
51651.975,64.6742,-2367.41,0,0
51912.3,64.314,-2355.18,0,0
52172.625,64.1766,-2342.92,0,0
52432.95,63.9737,-2330.95,0,0
52693.275,63.8775,-2318.94,0,0
52953.6,63.8189,-2307.17,0,0
53213.925,63.7753,-2295.64,0,0
53474.25,63.5669,-2284.32,0,0
53734.575,63.0941,-2273.07,0,0
53994.9,62.7347,-2261.73,0,0
54255.225,62.5077,-2250.55,0,0
54515.55,62.2229,-2239.5,0,0
54775.875,61.9466,-2228.41,0,0
55036.2,61.5955,-2217.54,0,0
55296.525,61.3459,-2206.59,0,0
55556.85,61.1339,-2195.91,0,0
55817.175,60.8921,-2185.12,0,0
56077.5,60.707,-2174.5,0,0
56337.825,60.7118,-2164.1,0,0
56598.15,60.4724,-2153.83,0,0
56858.475,60.3643,-2143.6,0,0
57118.8,60.1751,-2133.53,0,0
57379.125,59.9359,-2123.54,0,0
57639.45,59.6231,-2113.38,0,0
57899.775,59.4459,-2103.34,0,0
58160.1,59.5298,-2093.24,0,0
58420.4,59.7501,-2083.42,0,0
58680.7,59.9069,-2074.13,0,0
58941.1,59.7822,-2064.98,0,0
59201.4,59.4735,-2055.42,0,0
59461.7,59.6501,-2045.86,0,0
59722,59.7819,-2036.99,0,0
59982.4,59.7165,-2027.99,0,0
60242.7,59.776,-2019.11,0,0
60503,59.5425,-2010.66,0,0
60763.3,59.205,-2002.07,0,0
61023.7,58.6879,-1993.28,0,0
61284,58.4725,-1984.71,0,0
61544.3,58.089,-1976.15,0,0
61804.6,57.5701,-1967.52,0,0
62065,57.084,-1958.91,0,0
62325.3,56.8116,-1950.14,0,0
62585.6,56.4913,-1941.65,0,0
62845.9,56.2634,-1933.1,0,0
63106.3,55.9427,-1924.58,0,0
63366.6,55.8791,-1916.09,0,0
63626.9,56.0451,-1907.85,0,0
63887.2,55.7047,-1899.77,0,0
64147.6,55.569,-1891.81,0,0
64407.9,55.253,-1883.76,0,0
64668.2,55.1994,-1875.64,0,0
64928.5,55.0735,-1867.67,0,0
65188.9,55.2519,-1859.8,0,0
65449.2,55.3405,-1852.11,0,0
65709.5,55.2178,-1844.79,0,0
65969.8,55.0783,-1837.17,0,0
66230.2,55.06,-1830.01,0,0
66490.5,54.7744,-1822.66,0,0
66750.8,54.3341,-1815.37,0,0
67011.1,53.8224,-1808.03,0,0
67271.5,53.4643,-1800.51,0,0
67531.8,53.1697,-1793.06,0,0
67792.1,52.914,-1785.79,0,0
68052.4,52.5306,-1778.41,0,0
68312.8,52.421,-1771.01,0,0
68573.1,52.2677,-1763.88,0,0
68833.4,52.113,-1756.56,0,0
69093.7,51.9266,-1749.58,0,0
69354.1,51.8465,-1742.54,0,0
69614.4,51.7142,-1735.55,0,0
69874.7,51.6034,-1728.55,0,0
70135,51.5467,-1721.73,0,0
70395.4,51.4545,-1714.92,0,0
70655.7,51.4991,-1708.12,0,0
70916,51.4968,-1701.5,0,0
71176.3,51.4314,-1694.94,0,0
71436.7,51.365,-1688.55,0,0
71697,51.1485,-1682.03,0,0
71957.3,50.8995,-1675.7,0,0
72217.6,50.645,-1669.27,0,0
72478,50.4322,-1662.82,0,0
72738.3,50.2137,-1656.37,0,0
72998.6,50.0601,-1649.97,0,0
73258.9,49.9368,-1643.65,0,0
73519.3,49.7662,-1637.37,0,0
73779.6,49.7171,-1631.08,0,0
74039.9,49.5223,-1624.88,0,0
74300.225,49.361,-1618.67,0,0
74560.55,49.3209,-1612.53,0,0
74820.875,49.1862,-1606.5,0,0
75081.2,49.0915,-1600.33,0,0
75341.525,49.0061,-1594.36,0,0
75601.85,48.8836,-1588.41,0,0
75862.175,48.7988,-1582.45,0,0
76122.5,48.632,-1576.54,0,0
76382.825,48.5615,-1570.66,0,0
76643.15,48.459,-1564.79,0,0
76903.475,48.4703,-1558.98,0,0
77163.8,48.3529,-1553.24,0,0
77424.125,48.3182,-1547.43,0,0
77684.45,48.3331,-1541.85,0,0
77944.775,48.1663,-1536.25,0,0
78205.1,48.0731,-1530.65,0,0
78465.425,48.0993,-1525.03,0,0
78725.75,48.0132,-1519.45,0,0
78986.075,47.9565,-1513.98,0,0
79246.4,47.9012,-1508.5,0,0
79506.725,47.8622,-1503.06,0,0
79767.05,47.8211,-1497.65,0,0
80027.375,47.8266,-1492.23,0,0
80287.7,47.8619,-1487.03,0,0
80548.025,47.701,-1481.71,0,0
80808.35,47.6492,-1476.49,0,0
81068.675,47.505,-1471.19,0,0
81329.0,47.4415,-1465.95,0,0
81589.325,47.4355,-1460.7,0,0
81849.65,47.3442,-1455.56,0,0
82109.975,47.2562,-1450.44,0,0
82370.3,47.23,-1445.29,0,0
82630.625,47.2188,-1440.24,0,0
82890.95,47.2225,-1435.21,0,0
83151.275,47.0964,-1430.13,0,0
83411.6,47.027,-1425.02,0,0
83671.925,47.0715,-1419.92,0,0
83932.25,47.1426,-1414.96,0,0
84192.575,47.2065,-1410.08,0,0
84452.9,47.2891,-1405.08,0,0
84713.225,47.3603,-1400.36,0,0
84973.55,47.3553,-1395.58,0,0
85233.875,47.3857,-1390.75,0,0
85494.2,47.4195,-1386.05,0,0
85754.525,47.3143,-1381.33,0,0
86014.85,47.3744,-1376.51,0,0
86275.175,47.5052,-1371.86,0,0
86535.5,47.4832,-1367.32,0,0
86795.825,47.4244,-1362.66,0,0
87056.15,47.5223,-1358.03,0,0
87316.475,47.6484,-1353.45,0,0
87576.8,47.6757,-1348.98,0,0
87837.125,47.6392,-1344.54,0,0
88097.45,47.6544,-1340.17,0,0
88357.775,47.5827,-1335.75,0,0
88618.1,47.5328,-1331.3,0,0
88878.425,47.4087,-1326.88,0,0
89138.75,47.305,-1322.43,0,0
89399.075,47.1656,-1317.96,0,0
89659.4,47.1411,-1313.24,0,0
89919.725,47.1184,-1308.99,0,0
90180,47.082,-1304.49,0,0
90440.4,47.1364,-1299.87,0,0
90700.7,47.2598,-1295.65,0,0
90961,47.4026,-1291.37,0,0
91221.3,47.3359,-1287,0,0
91481.7,47.5282,-1282.6,0,0
91742,47.6888,-1278.32,0,0
92002.3,47.7204,-1274.1,0,0
92262.6,47.9767,-1269.87,0,0
92523,48.0636,-1265.8,0,0
92783.3,48.0754,-1261.65,0,0
93043.6,48.1166,-1257.27,0,0
93303.9,48.2856,-1253,0,0
93564.3,48.5944,-1248.81,0,0
93824.6,49.0358,-1244.6,0,0
94084.9,49.5576,-1240.66,0,0
94345.2,49.8825,-1236.92,0,0
94605.6,50.1802,-1233.26,0,0
94865.9,50.3725,-1229.41,0,0
95126.2,50.8125,-1225.88,0,0
95386.5,50.804,-1222.66,0,0
95646.9,50.3813,-1219.14,0,0
95907.2,50.0764,-1215.29,0,0
96167.5,49.9261,-1211.37,0,0
96427.8,49.8426,-1207.49,0,0
96688.2,49.7575,-1203.55,0,0
96948.5,49.673,-1199.73,0,0
97208.8,49.5972,-1195.85,0,0
97469.1,49.4515,-1191.81,0,0
97729.5,49.6443,-1187.69,0,0
97989.8,49.9828,-1183.87,0,0
98250.1,50.1083,-1180.14,0,0
98510.4,50.3917,-1176.45,0,0
98770.8,50.4565,-1172.91,0,0
99031.1,50.434,-1169.39,0,0
99291.4,50.2042,-1165.75,0,0
99551.7,50.0149,-1161.91,0,0
99812.1,49.9623,-1157.86,0,0
100072,50.1633,-1153.76,0,0
100333,50.5925,-1149.85,0,0
100593,50.9238,-1146.2,0,0
100853,51.2274,-1142.47,0,0
101114,51.5595,-1138.87,0,0
101374,51.8547,-1135.33,0,0
101634,51.9729,-1131.73,0,0
101895,52.2785,-1127.94,0,0
102155,52.6955,-1124.3,0,0
102415,53.2199,-1120.72,0,0
102676,53.6864,-1117.3,0,0
102936,54.152,-1113.82,0,0
103196,54.771,-1110.52,0,0
103457,55.2198,-1107.32,0,0
103717,55.8454,-1104.19,0,0
103977,56.1318,-1101.48,0,0
104238,56.0495,-1098.35,0,0
104498,56.2573,-1095.04,0,0
104758,56.6772,-1091.93,0,0
105019,56.874,-1089.11,0,0
105279,56.7828,-1086.23,0,0
105539,56.5397,-1083.07,0,0
105800,56.4351,-1079.79,0,0
106060,56.2675,-1076.46,0,0
106320.175,56.2321,-1072.89,0,0
106580.5,56.5343,-1069.38,0,0
106840.825,56.8767,-1066.02,0,0
107101.15,57.2832,-1062.95,0,0
107361.475,57.353,-1059.89,0,0
107621.8,57.3904,-1056.66,0,0
107882.125,57.5636,-1053.31,0,0
108142.45,57.7856,-1050.09,0,0
108402.775,58.0039,-1046.79,0,0
108663.1,58.2779,-1043.55,0,0
108923.425,58.5361,-1040.45,0,0
109183.75,58.7147,-1037.34,0,0
109444.075,58.7158,-1034.22,0,0
109704.4,58.7495,-1030.8,0,0
109964.725,58.9078,-1027.41,0,0
110225.05,59.0458,-1023.82,0,0
110485.375,59.546,-1020.08,0,0
110745.7,60.2521,-1016.6,0,0
111006.025,61.1401,-1013.18,0,0
111266.35,61.9077,-1010.14,0,0
111526.675,62.3815,-1007.06,0,0
111787.0,62.8777,-1003.65,0,0
112047.325,63.8356,-1000.26,0,0
112307.65,64.7633,-997.131,0,0
112567.975,65.7682,-994.007,0,0
112828.3,66.8341,-990.864,0,0
113088.625,68.0157,-988.007,0,0
113348.95,69.2128,-985.433,0,0
113609.275,70.004,-982.795,0,0
113869.6,70.9677,-979.901,0,0
114129.925,72.1161,-977.194,0,0
114390.25,73.3508,-974.56,0,0
114650.575,74.629,-972.128,0,0
114910.9,75.6879,-969.805,0,0
115171.225,76.91,-967.285,0,0
115431.55,78.2414,-965.024,0,0
115691.875,79.6572,-962.62,0,0
115952.2,81.2787,-960.591,0,0
116212.525,82.9914,-958.865,0,0
116472.85,84.7054,-957.579,0,0
116733.175,85.9472,-956.748,0,0
116993.5,86.6702,-955.749,0,0
117253.825,87.4145,-954.638,0,0
117514.15,88.2093,-953.538,0,0
117774.475,88.7758,-952.682,0,0
118034.8,89.0285,-951.599,0,0
118295.125,89.6944,-950.263,0,0
118555.45,90.6344,-949.47,0,0
118815.775,91.293,-949.183,0,0
119076.1,91.4793,-949.185,0,0
119336.425,91.2711,-949.174,0,0
119596.75,90.7069,-949.091,0,0
119857.075,89.9507,-949.18,0,0
120117.4,88.5059,-949.203,0,0
120377.725,86.6681,-949.049,0,0
120638.05,84.1722,-948.245,0,0
120898.375,81.8694,-946.865,0,0
121158.7,79.3615,-945.284,0,0
121419.025,76.8793,-942.772,0,0
121679.35,75.2368,-939.982,0,0
121939.675,73.8417,-937.465,0,0
122200.0,72.4855,-935.031,0,0
122460,71.0139,-932.62,0,0
122721,69.5459,-929.972,0,0
122981,68.2217,-927.269,0,0
123241,66.875,-924.533,0,0
123502,65.5569,-921.567,0,0
123762,64.5409,-918.36,0,0
124022,63.8676,-915.361,0,0
124283,63.1201,-912.566,0,0
124543,62.3955,-909.682,0,0
124803,61.8099,-906.907,0,0
125064,61.1592,-904.319,0,0
125324,60.2424,-901.718,0,0
125584,59.3159,-898.773,0,0
125845,58.6548,-895.796,0,0
126105,58.0117,-892.952,0,0
126365,57.2456,-890.103,0,0
126626,56.5212,-887.104,0,0
126886,55.9837,-884.099,0,0
127146,55.3562,-881.05,0,0
127406,54.9116,-877.896,0,0
127667,54.5956,-874.801,0,0
127927,54.4081,-871.839,0,0
128187,54.1371,-869.078,0,0
128448,53.7338,-866.211,0,0
128708,53.3461,-863.31,0,0
128968,52.9993,-860.359,0,0
129229,52.8538,-857.35,0,0
129489,52.667,-854.565,0,0
129749,52.3002,-851.746,0,0
130010,51.9499,-848.745,0,0
130270,51.8531,-845.779,0,0
130530,51.73,-842.965,0,0
130791,51.4037,-840.156,0,0
131051,51.1035,-837.265,0,0
131311,50.7683,-834.255,0,0
131572,50.6005,-831.101,0,0
131832,50.5407,-827.979,0,0
132092,50.5624,-825.057,0,0
132353,50.4277,-822.04,0,0
132613,50.411,-818.913,0,0
132873,50.4689,-815.813,0,0
133134,50.6064,-812.737,0,0
133394,50.7193,-809.657,0,0
133654,50.9291,-806.444,0,0
133915,51.2757,-803.294,0,0
134175,51.7941,-800.128,0,0
134435,52.5045,-797.136,0,0
134696,53.185,-794.433,0,0
134956,53.7272,-791.762,0,0
135216,54.16,-788.95,0,0
135477,54.8393,-786.023,0,0
135737,55.8329,-783.215,0,0
135997,57.1155,-780.748,0,0
136258,58.2325,-778.756,0,0
136518,59.2501,-777.037,0,0
136778,59.9772,-775.717,0,0
137039,60.0347,-774.658,0,0
137299,59.5209,-773.207,0,0
137559,58.8617,-771.227,0,0
137819,58.3333,-768.981,0,0
138080,57.9425,-766.675,0,0
138340.125,57.4396,-764.279,0,0
138600.45,56.9377,-761.747,0,0
138860.775,56.5438,-758.967,0,0
139121.1,56.2817,-756.071,0,0
139381.425,56.2735,-753.154,0,0
139641.75,56.4007,-750.38,0,0
139902.075,56.515,-747.712,0,0
140162.4,56.6535,-745.078,0,0
140422.725,56.7076,-742.539,0,0
140683.05,56.6443,-739.932,0,0
140943.375,56.6202,-737.22,0,0
141203.7,56.6303,-734.533,0,0
141464.025,56.5629,-731.763,0,0
141724.35,56.5823,-728.825,0,0
141984.675,56.7518,-725.891,0,0
142245.0,56.9774,-722.99,0,0
142505.325,57.3015,-720.095,0,0
142765.65,57.6866,-717.274,0,0
143025.975,58.0727,-714.392,0,0
143286.3,58.6137,-711.551,0,0
143546.625,59.247,-708.876,0,0
143806.95,59.7783,-706.379,0,0
144067.275,60.303,-703.934,0,0
144327.6,60.6574,-701.508,0,0
144587.925,60.98,-699.043,0,0
144848.25,61.1978,-696.567,0,0
145108.575,61.4794,-693.963,0,0
145368.9,61.7971,-691.446,0,0
145629.225,62.0489,-688.964,0,0
145889.55,62.143,-686.397,0,0
146149.875,62.2993,-683.677,0,0
146410.2,62.5781,-680.859,0,0
146670.525,62.9708,-678.123,0,0
146930.85,63.3591,-675.465,0,0
147191.175,63.7297,-672.868,0,0
147451.5,63.9898,-670.279,0,0
147711.825,64.2377,-667.498,0,0
147972.15,64.7007,-664.725,0,0
148232.475,65.1356,-662.217,0,0
148492.8,65.4129,-659.718,0,0
148753.125,65.5173,-657.17,0,0
149013.45,65.5354,-654.478,0,0
149273.775,65.5377,-651.652,0,0
149534.1,65.5599,-648.722,0,0
149794.425,65.6354,-645.68,0,0
150054.75,65.7141,-642.546,0,0
150315.075,65.8687,-639.323,0,0
150575.4,66.1107,-635.987,0,0
150835.725,66.437,-632.621,0,0
151096.05,66.8006,-629.214,0,0
151356.375,67.294,-625.753,0,0
151616.7,67.8328,-622.237,0,0
151877.025,68.4678,-618.688,0,0
152137.35,69.2072,-615.127,0,0
152397.675,70.0096,-611.522,0,0
152658.0,70.95,-607.899,0,0
152918.325,71.992,-604.343,0,0
153178.65,73.0388,-600.811,0,0
153438.975,74.1618,-597.285,0,0
153699.3,75.2994,-593.732,0,0
153959.625,76.5039,-590.128,0,0
154219.95,77.8448,-586.454,0,0
154480,79.2623,-582.81,0,0
154741,80.824,-579.196,0,0
155001,82.5048,-575.576,0,0
155261,84.232,-571.915,0,0
155522,86.0647,-568.498,0,0
155782,87.976,-564.888,0,0
156042,90.0405,-561.446,0,0
156303,92.0427,-558.028,0,0
156563,94.296,-554.722,0,0
156823,96.6194,-551.417,0,0
157084,99.0925,-548.139,0,0
157344,101.686,-544.982,0,0
157604,104.353,-542.212,0,0
157864,107.015,-539.646,0,0
158125,109.486,-537.092,0,0
158385,112.129,-534.742,0,0
158645,114.731,-532.646,0,0
158906,116.914,-530.923,0,0
159166,118.724,-529.119,0,0
159426,120.157,-527.253,0,0
159687,121.449,-525.181,0,0
159947,122.555,-522.961,0,0
160207,123.275,-520.345,0,0
160468,124.034,-517.45,0,0
160728,124.799,-514.072,0,0
160988,125.555,-510.524,0,0
161249,126.342,-506.186,0,0
161509,127.668,-501.347,0,0
161769,129.526,-496.355,0,0
162030,131.815,-491.321,0,0
162290,134.655,-486.295,0,0
162550,137.74,-481.408,0,0
162811,140.935,-476.472,0,0
163071,144.475,-471.287,0,0
163331,148.518,-466.026,0,0
163592,153.296,-460.816,0,0
163852,158.501,-456.085,0,0
164112,163.971,-451.927,0,0
164373,169.269,-448.008,0,0
164633,174.68,-444.027,0,0
164893,180.279,-440.318,0,0
165154,185.683,-436.765,0,0
165414,191.035,-432.648,0,0
165674,196.896,-428.109,0,0
165935,203.515,-423.339,0,0
166195,211.024,-418.619,0,0
166455,219.499,-414.143,0,0
166716,228.646,-410.364,0,0
166976,238.4,-407.14,0,0
167236,248.707,-404.221,0,0
167497,259.96,-402.263,0,0
167757,271.518,-401.329,0,0
168017,283.236,-401.264,0,0
168277,295.584,-401.901,0,0
168538,308.402,-403.83,0,0
168798,321.234,-407.213,0,0
169058,333.931,-412.009,0,0
169319,346.147,-418.54,0,0
169579,356.912,-426.184,0,0
169839,366.892,-433.785,0,0
170100,376.825,-441.923,0,0
170360.075,386.656,-451.388,0,0
170620.4,395.552,-462.459,0,0
170880.725,402.621,-474.363,0,0
171141.05,408.271,-486.216,0,0
171401.375,413.163,-498.103,0,0
171661.7,417.196,-510.293,0,0
171922.025,420.619,-522.623,0,0
172182.35,423.521,-535.734,0,0
172442.675,425.109,-550.238,0,0
172703.0,424.039,-565.168,0,0
172963.325,421.068,-579.491,0,0
173223.65,416.084,-593.139,0,0
173483.975,409.599,-605.964,0,0
173744.3,400.828,-617.635,0,0
174004.625,390.296,-626.836,0,0
174264.95,379.428,-633.209,0,0
174525.275,368.974,-637.546,0,0
174785.6,358.586,-640.311,0,0
175045.925,348.832,-640.407,0,0
175306.25,341.516,-639.241,0,0
175566.575,335.133,-638.424,0,0
175826.9,328.87,-636.49,0,0
176087.225,324.4,-633.212,0,0
176347.55,321.915,-629.926,0,0
176607.875,320.826,-627.076,0,0
176868.2,321.346,-624.883,0,0
177128.525,322.819,-624.093,0,0
177388.85,324.467,-624.579,0,0
177649.175,326.249,-625.501,0,0
177909.5,329.258,-627.276,0,0
178169.825,332.889,-631.402,0,0
178430.15,335.736,-638.264,0,0
178690.475,336.161,-647.25,0,0
178950.8,333.552,-656.68,0,0
179211.125,328.226,-665.327,0,0
179471.45,320.989,-671.811,0,0
179731.775,313.713,-676.193,0,0
179992.1,306.999,-679.619,0,0
180252.425,300.42,-682.3,0,0
180512.75,294.745,-684.798,0,0
180773.075,289.041,-687.967,0,0
181033.4,282.46,-691.511,0,0
181293.725,274.472,-694.909,0,0
181554.05,265.448,-696.647,0,0
181814.375,256.839,-697.171,0,0
182074.7,248.272,-697.357,0,0
182335.025,239.118,-696.79,0,0
182595.35,229.838,-694.767,0,0
182855.675,221.141,-691.238,0,0
183116.0,213.762,-686.77,0,0
183376.325,207.655,-682.385,0,0
183636.65,201.961,-678.498,0,0
183896.975,196.044,-674.473,0,0
184157.3,190.383,-669.694,0,0
184417.625,185.521,-664.5,0,0
184677.95,181.563,-659.345,0,0
184938.275,178.123,-654.833,0,0
185198.6,174.456,-650.657,0,0
185458.925,170.613,-646.391,0,0
185719.25,166.678,-641.819,0,0
185979.575,162.892,-636.672,0,0
186239.9,159.73,-631.179,0,0
186500,157.003,-625.698,0,0
186761,154.704,-620.144,0,0
187021,152.837,-614.616,0,0
187281,151.371,-609.154,0,0
187542,150.328,-603.857,0,0
187802,149.661,-598.77,0,0
188062,149.408,-594.075,0,0
188322,149.33,-589.9,0,0
188583,149.204,-586.478,0,0
188843,148.341,-583.431,0,0
189103,146.892,-580.148,0,0
189364,145.215,-576.317,0,0
189624,143.837,-572.155,0,0
189884,142.54,-567.991,0,0
190145,141.269,-563.568,0,0
190405,140.288,-559.054,0,0
190665,139.278,-554.625,0,0
190926,138.208,-549.808,0,0
191186,137.581,-544.583,0,0
191446,137.6,-539.513,0,0
191707,137.819,-534.886,0,0
191967,137.756,-530.488,0,0
192227,137.613,-525.865,0,0
192488,137.589,-521.01,0,0
192748,137.829,-516.051,0,0
193008,138.321,-511.087,0,0
193269,139.039,-506.159,0,0
193529,139.959,-501.338,0,0
193789,140.928,-496.692,0,0
194050,141.869,-491.983,0,0
194310,142.945,-487.112,0,0
194570,144.287,-482.155,0,0
194831,146.004,-477.183,0,0
195091,148.121,-472.476,0,0
195351,150.353,-468.159,0,0
195612,152.486,-463.962,0,0
195872,154.732,-459.914,0,0
196132,156.992,-456.081,0,0
196393,159.062,-452.282,0,0
196653,161.308,-448.326,0,0
196913,163.763,-444.593,0,0
197174,166.315,-441.113,0,0
197434,168.763,-437.9,0,0
197694,170.838,-434.951,0,0
197955,172.537,-431.953,0,0
198215,174.04,-428.472,0,0
198475,175.695,-424.74,0,0
198735,177.453,-420.849,0,0
198996,179.483,-416.967,0,0
199256,181.372,-412.929,0,0
199516,183.241,-408.709,0,0
199777,185.392,-404.148,0,0
200037,187.9,-399.521,0,0
200297,190.645,-394.841,0,0
200558,193.647,-390.186,0,0
200818,196.863,-385.638,0,0
201078,200.092,-381.139,0,0
201339,203.388,-376.441,0,0
201599,207.056,-371.489,0,0
201859,210.993,-366.55,0,0
202120,215.318,-361.492,0,0
202380.025,220.209,-356.446,0,0
202640.35,225.511,-351.707,0,0
202900.675,230.997,-347.292,0,0
203161.0,236.694,-342.947,0,0
203421.325,242.633,-338.749,0,0
203681.65,248.845,-334.815,0,0
203941.975,255.191,-331.05,0,0
204202.3,261.701,-327.289,0,0
204462.625,268.589,-323.604,0,0
204722.95,275.838,-320.062,0,0
204983.275,283.488,-316.572,0,0
205243.6,291.801,-313.222,0,0
205503.925,301.031,-310.597,0,0
205764.25,310.706,-309.076,0,0
206024.575,320.347,-308.645,0,0
206284.9,329.58,-309.139,0,0
206545.225,338.242,-310.259,0,0
206805.55,346.466,-311.858,0,0
207065.875,353.941,-313.828,0,0
207326.2,360.579,-315.745,0,0
207586.525,366.735,-317.343,0,0
207846.85,372.442,-318.261,0,0
208107.175,378.316,-318.374,0,0
208367.5,384.642,-317.928,0,0
208627.825,391.734,-316.832,0,0
208888.15,400.198,-315.337,0,0
209148.475,410.235,-314.626,0,0
209408.8,421.345,-315.062,0,0
209669.125,432.82,-316.715,0,0
209929.45,444.832,-319.365,0,0
210189.775,457.484,-323.401,0,0
210450.1,470.478,-329.504,0,0
210710.425,482.78,-338.101,0,0
210970.75,492.768,-348.469,0,0
211231.075,501.054,-358.716,0,0
211491.4,508.535,-369.135,0,0
211751.725,515.025,-379.996,0,0
212012.05,520.264,-391.047,0,0
212272.375,524.387,-401.743,0,0
212532.7,528.095,-411.946,0,0
212793.025,531.793,-422.486,0,0
213053.35,534.324,-433.952,0,0
213313.675,534.888,-445.005,0,0
213574.0,534.763,-454.528,0,0
213834.325,534.998,-463.263,0,0
214094.65,535.506,-472.162,0,0
214354.975,535.483,-481.535,0,0
214615.3,534.427,-490.692,0,0
214875.625,532.987,-499.061,0,0
215135.95,531.211,-507.179,0,0
215396.275,529.158,-514.806,0,0
215656.6,526.98,-521.728,0,0
215916.925,525.259,-527.974,0,0
216177.25,524.323,-534.319,0,0
216437.575,523.927,-541.628,0,0
216697.9,522.915,-550.239,0,0
216958.225,520.406,-559.516,0,0
217218.55,516.265,-568.442,0,0
217478.875,511.022,-576.238,0,0
217739.2,505.613,-582.834,0,0
217999.525,500.429,-589.041,0,0
218259.85,495.045,-595.195,0,0
218520,488.986,-601.096,0,0
218780,482.438,-606.512,0,0
219041,475.085,-611.293,0,0
219301,467.288,-614.99,0,0
219561,459.322,-617.384,0,0
219822,451.627,-618.705,0,0
220082,444.274,-619.152,0,0
220342,437.488,-618.686,0,0
220603,431.338,-617.678,0,0
220863,425.815,-616.121,0,0
221123,420.843,-614.12,0,0
221384,416.637,-611.727,0,0
221644,413.247,-609.161,0,0
221904,410.542,-606.614,0,0
222165,408.406,-604.18,0,0
222425,406.942,-601.82,0,0
222685,406.055,-599.907,0,0
222946,405.342,-598.431,0,0
223206,404.702,-597.097,0,0
223466,404.346,-595.929,0,0
223727,404.177,-595.1,0,0
223987,403.895,-594.596,0,0
224247,403.39,-594.152,0,0
224508,402.784,-593.633,0,0
224768,402.065,-592.695,0,0
225028,401.695,-591.346,0,0
225289,401.907,-589.535,0,0
225549,402.924,-587.744,0,0
225809,404.897,-586.393,0,0
226070,407.426,-585.72,0,0
226330,410.191,-585.865,0,0
226590,412.765,-586.813,0,0
226851,415.04,-588.12,0,0
227111,417.12,-589.502,0,0
227371,419.311,-590.971,0,0
227632,421.641,-592.557,0,0
227892,424.45,-594.595,0,0
228152,427.309,-597.432,0,0
228413,430.041,-600.967,0,0
228673,432.36,-605.077,0,0
228933,434.109,-609.664,0,0
229193,435.354,-614.634,0,0
229454,435.868,-619.454,0,0
229714,436.283,-623.96,0,0
229974,437.058,-628.525,0,0
230235,437.998,-633.934,0,0
230495,438.307,-640.304,0,0
230755,437.432,-647.053,0,0
231016,435.522,-653.557,0,0
231276,433.066,-659.484,0,0
231536,430.516,-665.003,0,0
231797,427.948,-670.412,0,0
232057,425.415,-676.113,0,0
232317,422.495,-682.192,0,0
232578,418.798,-688.62,0,0
232838,414.161,-694.875,0,0
233098,409.03,-700.737,0,0
233359,403.422,-706.643,0,0
233619,396.86,-712.553,0,0
233879,389.021,-717.835,0,0
234140,380.311,-721.87,0,0
234400,371.375,-724.785,0,0
234660.3,362.41,-726.679,0,0
234920.625,353.275,-727.636,0,0
235180.95,344.242,-727.449,0,0
235441.275,335.675,-726.087,0,0
235701.6,327.865,-723.935,0,0
235961.925,320.98,-721.174,0,0
236222.25,315.017,-718.115,0,0
236482.575,309.955,-715.218,0,0
236742.9,305.515,-712.902,0,0
237003.225,300.993,-711.222,0,0
237263.55,295.91,-709.54,0,0
237523.875,290.682,-707.372,0,0
237784.2,285.578,-704.904,0,0
238044.525,280.572,-702.176,0,0
238304.85,275.453,-699.068,0,0
238565.175,270.43,-695.254,0,0
238825.5,265.864,-690.647,0,0
239085.825,262.304,-685.41,0,0
239346.15,259.736,-679.969,0,0
239606.475,258.538,-674.709,0,0
239866.8,258.371,-670.344,0,0
240127.125,258.607,-667.026,0,0
240387.45,258.989,-664.778,0,0
240647.775,258.856,-663.316,0,0
240908.1,257.991,-662.408,0,0
241168.425,256.6,-661.542,0,0
241428.75,254.809,-660.577,0,0
241689.075,252.576,-659.418,0,0
241949.4,250.113,-658.079,0,0
242209.725,247.242,-656.482,0,0
242470.05,244.227,-654.212,0,0
242730.375,241.35,-651.319,0,0
242990.7,238.918,-647.991,0,0
243251.025,236.934,-644.568,0,0
243511.35,235.12,-641.142,0,0
243771.675,233.379,-637.33,0,0
244032.0,232.229,-633.14,0,0
244292.325,231.839,-628.709,0,0
244552.65,232.376,-624.704,0,0
244812.975,233.46,-621.381,0,0
245073.3,234.614,-618.83,0,0
245333.625,235.516,-616.821,0,0
245593.95,236.193,-615.057,0,0
245854.275,236.711,-613.515,0,0
246114.6,236.918,-612.108,0,0
246374.925,236.921,-610.622,0,0
246635.25,236.778,-609.099,0,0
246895.575,236.582,-607.532,0,0
247155.9,236.296,-605.773,0,0
247416.225,236.008,-603.832,0,0
247676.55,235.886,-601.787,0,0
247936.875,235.923,-599.745,0,0
248197.2,236.098,-597.653,0,0
248457.525,236.255,-595.531,0,0
248717.85,236.571,-593.369,0,0
248978.175,237.073,-591.227,0,0
249238.5,237.639,-589.102,0,0
249498.825,238.392,-586.99,0,0
249759.15,239.264,-584.882,0,0
250019.475,240.304,-582.77,0,0
250279.8,241.57,-580.742,0,0
250540,243.066,-578.813,0,0
250800,244.77,-577.077,0,0
251061,246.626,-575.481,0,0
251321,248.538,-574.176,0,0
251581,250.495,-572.923,0,0
251842,252.636,-571.737,0,0
252102,255.072,-570.724,0,0
252362,257.78,-570.148,0,0
252623,260.558,-570.018,0,0
252883,263.334,-570.276,0,0
253143,266.038,-571.058,0,0
253404,268.634,-572.295,0,0
253664,270.921,-573.938,0,0
253924,272.803,-575.97,0,0
254185,274.254,-578.275,0,0
254445,275.185,-580.632,0,0
254705,275.732,-583.01,0,0
254966,275.99,-585.307,0,0
255226,275.807,-587.641,0,0
255486,275.343,-589.831,0,0
255747,274.518,-591.872,0,0
256007,273.398,-593.708,0,0
256267,272.145,-595.244,0,0
256528,270.753,-596.624,0,0
256788,269.212,-597.801,0,0
257048,267.525,-598.725,0,0
257309,265.754,-599.347,0,0
257569,264.012,-599.671,0,0
257829,262.353,-599.746,0,0
258090,260.795,-599.599,0,0
258350,259.417,-599.263,0,0
258610,258.293,-598.825,0,0
258871,257.363,-598.505,0,0
259131,256.531,-598.266,0,0
259391,255.646,-598.24,0,0
259651,254.518,-598.243,0,0
259912,253.149,-598.14,0,0
260172,251.596,-597.69,0,0
260432,250.171,-596.872,0,0
260693,248.888,-595.789,0,0
260953,247.844,-594.536,0,0
261213,247.01,-593.157,0,0
261474,246.343,-591.642,0,0
261734,245.879,-589.988,0,0
261994,245.775,-588.178,0,0
262255,246.105,-586.336,0,0
262515,246.968,-584.605,0,0
262775,248.177,-583.189,0,0
263036,249.702,-582.119,0,0
263296,251.419,-581.488,0,0
263556,253.219,-581.377,0,0
263817,254.868,-581.673,0,0
264077,256.439,-582.347,0,0
264337,257.787,-583.394,0,0
264598,258.817,-584.721,0,0
264858,259.472,-586.163,0,0
265118,259.742,-587.754,0,0
265379,259.575,-589.129,0,0
265639,259.215,-590.235,0,0
265899,258.853,-591.099,0,0
266160,258.57,-591.818,0,0
266420,258.342,-592.472,0,0
266680.25,258.294,-593.174,0,0
266940.575,258.328,-594.047,0,0
267200.9,258.213,-595.138,0,0
267461.225,257.884,-596.268,0,0
267721.55,257.377,-597.424,0,0
267981.875,256.658,-598.508,0,0
268242.2,255.712,-599.435,0,0
268502.525,254.748,-600.074,0,0
268762.85,253.733,-600.507,0,0
269023.175,252.807,-600.682,0,0
269283.5,252.019,-600.6,0,0
269543.825,251.532,-600.403,0,0
269804.15,251.367,-600.022,0,0
270064.475,251.653,-599.675,0,0
270324.8,252.282,-599.471,0,0
270585.125,253.301,-599.625,0,0
270845.45,254.492,-600.131,0,0
271105.775,255.898,-600.854,0,0
271366.1,257.554,-601.962,0,0
271626.425,259.557,-603.59,0,0
271886.75,261.776,-606.063,0,0
272147.075,263.925,-609.555,0,0
272407.4,265.563,-614.133,0,0
272667.725,266.29,-619.544,0,0
272928.05,265.85,-625.461,0,0
273188.375,264.352,-631.488,0,0
273448.7,261.827,-637.493,0,0
273709.025,258.292,-643.317,0,0
273969.35,253.753,-648.762,0,0
274229.675,248.433,-653.45,0,0
274490.0,242.52,-657.588,0,0
274750.325,236.174,-661.066,0,0
275010.65,229.245,-664.004,0,0
275270.975,221.831,-666.134,0,0
275531.3,214.067,-667.17,0,0
275791.625,206.231,-667.146,0,0
276051.95,198.685,-666.287,0,0
276312.275,191.401,-664.63,0,0
276572.6,184.475,-662.308,0,0
276832.925,177.929,-659.368,0,0
277093.25,171.84,-655.855,0,0
277353.575,166.213,-651.879,0,0
277613.9,161.164,-647.476,0,0
277874.225,156.775,-642.738,0,0
278134.55,153.001,-637.853,0,0
278394.875,149.857,-632.907,0,0
278655.2,147.25,-628.007,0,0
278915.525,145.178,-623.242,0,0
279175.85,143.509,-618.717,0,0
279436.175,142.061,-614.369,0,0
279696.5,140.837,-610.152,0,0
279956.825,139.91,-605.907,0,0
280217.15,139.301,-601.796,0,0
280477.475,139.108,-597.855,0,0
280737.8,139.227,-594.307,0,0
280998.125,139.472,-591.234,0,0
281258.45,139.735,-588.541,0,0
281518.775,139.729,-586.157,0,0
281779.1,139.523,-583.889,0,0
282039.425,139.152,-581.636,0,0
282299.75,138.638,-579.365,0,0
282560,137.983,-577.03,0,0
282820,137.243,-574.482,0,0
283081,136.548,-571.71,0,0
283341,136.009,-568.753,0,0
283601,135.67,-565.645,0,0
283862,135.585,-562.47,0,0
284122,135.779,-559.305,0,0
284382,136.29,-556.18,0,0
284643,137.028,-553.234,0,0
284903,137.915,-550.473,0,0
285163,138.905,-547.886,0,0
285424,140.014,-545.498,0,0
285684,141.176,-543.301,0,0
285944,142.367,-541.264,0,0
286205,143.576,-539.458,0,0
286465,144.723,-537.794,0,0
286725,145.831,-536.287,0,0
286986,146.859,-534.931,0,0
287246,147.742,-533.713,0,0
287506,148.447,-532.541,0,0
287767,148.979,-531.335,0,0
288027,149.371,-530.026,0,0
288287,149.712,-528.585,0,0
288548,150.068,-526.977,0,0
288808,150.484,-525.257,0,0
289068,151.044,-523.474,0,0
289329,151.707,-521.647,0,0
289589,152.436,-519.832,0,0
289849,153.284,-518.002,0,0
290109,154.146,-516.139,0,0
290370,155.176,-514.195,0,0
290630,156.428,-512.282,0,0
290890,157.908,-510.483,0,0
291151,159.488,-508.886,0,0
291411,161.123,-507.499,0,0
291671,162.697,-506.263,0,0
291932,164.202,-505.119,0,0
292192,165.641,-503.991,0,0
292452,167.11,-502.802,0,0
292713,168.665,-501.645,0,0
292973,170.287,-500.552,0,0
293233,171.931,-499.566,0,0
293494,173.598,-498.613,0,0
293754,175.246,-497.753,0,0
294014,176.93,-496.9,0,0
294275,178.584,-496.098,0,0
294535,180.249,-495.255,0,0
294795,182.015,-494.414,0,0
295056,183.879,-493.552,0,0
295316,185.892,-492.78,0,0
295576,187.958,-492.125,0,0
295837,190.089,-491.568,0,0
296097,192.259,-491.095,0,0
296357,194.505,-490.67,0,0
296618,196.821,-490.339,0,0
296878,199.256,-490.083,0,0
297138,201.789,-489.958,0,0
297399,204.439,-490.024,0,0
297659,207.149,-490.271,0,0
297919,209.863,-490.777,0,0
298180,212.517,-491.483,0,0
298440,215.069,-492.325,0,0
298700.2,217.541,-493.203,0,0
298960.525,220.071,-494.162,0,0
299220.85,222.652,-495.281,0,0
299481.175,225.301,-496.418,0,0
299741.5,228.045,-497.749,0,0
300001.825,230.857,-499.327,0,0
300262.15,233.599,-501.25,0,0
300522.475,236.348,-503.14,0,0
300782.8,239.175,-505.372,0,0
301043.125,242.053,-507.782,0,0
301303.45,244.978,-510.674,0,0
301563.775,247.837,-513.892,0,0
301824.1,250.616,-517.588,0,0
302084.425,253.274,-521.815,0,0
302344.75,255.643,-526.64,0,0
302605.075,257.459,-532.183,0,0
302865.4,258.46,-538.046,0,0
303125.725,258.643,-544.125,0,0
303386.05,257.97,-550.143,0,0
303646.375,256.536,-555.917,0,0
303906.7,254.519,-561.311,0,0
304167.025,252.054,-566.299,0,0
304427.35,249.315,-570.896,0,0
304687.675,246.277,-575.167,0,0
304948.0,243.024,-579.04,0,0
305208.325,239.645,-582.639,0,0
305468.65,236.098,-586,0,0
305728.975,232.327,-589.096,0,0
305989.3,228.369,-591.93,0,0
306249.625,224.235,-594.386,0,0
306509.95,220.012,-596.442,0,0
306770.275,215.745,-598.122,0,0
307030.6,211.536,-599.471,0,0
307290.925,207.368,-600.566,0,0
307551.25,203.278,-601.407,0,0
307811.575,199.188,-602.009,0,0
308071.9,195.123,-602.391,0,0
308332.225,191.129,-602.532,0,0
308592.55,187.19,-602.399,0,0
308852.875,183.323,-602.024,0,0
309113.2,179.57,-601.401,0,0
309373.525,175.996,-600.546,0,0
309633.85,172.635,-599.431,0,0
309894.175,169.52,-598.162,0,0
310154.5,166.676,-596.872,0,0
310414.825,164.082,-595.571,0,0
310675.15,161.602,-594.266,0,0
310935.475,159.303,-592.958,0,0
311195.8,157.095,-591.718,0,0
311456.125,154.975,-590.495,0,0
311716.45,152.925,-589.315,0,0
311976.775,150.885,-588.143,0,0
312237.1,148.933,-586.979,0,0
312497.425,146.946,-585.805,0,0
312757.75,145.007,-584.589,0,0
313018.075,143.097,-583.338,0,0
313278.4,141.191,-582.016,0,0
313538.725,139.324,-580.659,0,0
313799.05,137.487,-579.238,0,0
314059.375,135.718,-577.71,0,0
314319.7,134.029,-576.087,0,0
314580,132.495,-574.404,0,0
314840,131.031,-572.661,0,0
315101,129.812,-570.758,0,0
315361,128.693,-569.044,0,0
315621,127.793,-567.254,0,0
315882,126.926,-565.583,0,0
316142,126.338,-564.067,0,0
316402,125.64,-562.568,0,0
316663,125.016,-561.178,0,0
316923,124.391,-559.913,0,0
317183,123.87,-558.682,0,0
317444,123.215,-557.457,0,0
317704,122.661,-556.215,0,0
317964,122.147,-555.127,0,0
318225,121.642,-554.06,0,0
318485,121.093,-552.941,0,0
318745,120.513,-551.86,0,0
319006,119.985,-550.786,0,0
319266,119.564,-549.75,0,0
319526,119.185,-548.706,0,0
319787,118.796,-547.764,0,0
320047,118.472,-546.901,0,0
320307,118.082,-546.009,0,0
320567,117.629,-545.273,0,0
320828,117.239,-544.408,0,0
321088,116.87,-543.748,0,0
321348,116.351,-542.915,0,0
321609,115.883,-542.294,0,0
321869,115.401,-541.512,0,0
322129,114.911,-540.785,0,0
322390,114.472,-540.169,0,0
322650,113.927,-539.49,0,0
322910,113.486,-538.853,0,0
323171,112.938,-538.242,0,0
323431,112.341,-537.554,0,0
323691,111.845,-536.928,0,0
323952,111.203,-536.247,0,0
324212,110.613,-535.521,0,0
324472,110.038,-534.794,0,0
324733,109.422,-533.956,0,0
324993,108.933,-533.264,0,0
325253,108.429,-532.385,0,0
325514,108.064,-531.651,0,0
325774,107.746,-530.979,0,0
326034,107.414,-530.276,0,0
326295,107.015,-529.743,0,0
326555,106.685,-529.192,0,0
326815,106.254,-528.676,0,0
327076,105.791,-528.272,0,0
327336,105.288,-527.835,0,0
327596,104.736,-527.382,0,0
327857,104.14,-526.984,0,0
328117,103.511,-526.48,0,0
328377,102.824,-526.048,0,0
328638,102.201,-525.551,0,0
328898,101.501,-525.026,0,0
329158,100.823,-524.529,0,0
329419,100.126,-523.999,0,0
329679,99.4299,-523.463,0,0
329939,98.7011,-522.883,0,0
330200,98.0289,-522.293,0,0
330460,97.3199,-521.778,0,0
330720.15,96.5971,-521.226,0,0
330980.475,95.8499,-520.64,0,0
331240.8,95.145,-520.151,0,0
331501.125,94.3022,-519.621,0,0
331761.45,93.494,-519.054,0,0
332021.775,92.6505,-518.524,0,0
332282.1,91.7324,-517.949,0,0
332542.425,90.8109,-517.417,0,0
332802.75,89.9127,-516.703,0,0
333063.075,88.8532,-516.036,0,0
333323.4,87.9155,-515.38,0,0
333583.725,86.8206,-514.528,0,0
333844.05,85.8023,-513.65,0,0
334104.375,84.8061,-512.739,0,0
334364.7,83.8836,-511.8,0,0
334625.025,82.835,-510.842,0,0
334885.35,81.9185,-509.885,0,0
335145.675,81.0596,-508.802,0,0
335406.0,80.1777,-507.695,0,0
335666.325,79.2295,-506.655,0,0
335926.65,78.356,-505.543,0,0
336186.975,77.4266,-504.313,0,0
336447.3,76.6116,-503.186,0,0
336707.625,75.8432,-501.859,0,0
336967.95,74.987,-500.608,0,0
337228.275,74.3819,-499.274,0,0
337488.6,73.6168,-497.949,0,0
337748.925,72.9866,-496.646,0,0
338009.25,72.4143,-495.327,0,0
338269.575,71.8757,-493.987,0,0
338529.9,71.2698,-492.663,0,0
338790.225,70.8056,-491.314,0,0
339050.55,70.2906,-490.04,0,0
339310.875,69.8289,-488.653,0,0
339571.2,69.354,-487.337,0,0
339831.525,69.0139,-485.963,0,0
340091.85,68.5734,-484.62,0,0
340352.175,68.1943,-483.193,0,0
340612.5,67.8185,-481.767,0,0
340872.825,67.5147,-480.402,0,0
341133.15,67.2907,-478.996,0,0
341393.475,67.0548,-477.649,0,0
341653.8,66.8982,-476.131,0,0
341914.125,66.7174,-474.755,0,0
342174.45,66.6324,-473.353,0,0
342434.775,66.5552,-471.966,0,0
342695.1,66.5144,-470.603,0,0
342955.425,66.5516,-469.333,0,0
343215.75,66.5962,-467.935,0,0
343476.075,66.7109,-466.628,0,0
343736.4,66.8118,-465.332,0,0
343996.725,66.9947,-464.102,0,0
344257.05,67.1953,-462.881,0,0
344517.375,67.4231,-461.779,0,0
344777.7,67.6592,-460.658,0,0
345038.025,67.9258,-459.566,0,0
345298.35,68.1431,-458.548,0,0
345558.675,68.425,-457.578,0,0
345819.0,68.6997,-456.699,0,0
346079.325,68.884,-455.79,0,0
346339.65,69.1552,-454.991,0,0
346599.975,69.3045,-454.222,0,0
346860,69.412,-453.443,0,0
347121,69.5174,-452.711,0,0
347381,69.5672,-451.95,0,0
347641,69.5796,-451.276,0,0
347902,69.5082,-450.529,0,0
348162,69.4385,-449.748,0,0
348422,69.2569,-448.932,0,0
348683,69.1245,-448.121,0,0
348943,68.9749,-447.229,0,0
349203,68.8135,-446.314,0,0
349464,68.7086,-445.257,0,0
349724,68.6121,-444.287,0,0
349984,68.549,-443.3,0,0
350245,68.4483,-442.261,0,0
350505,68.3637,-441.236,0,0
350765,68.3002,-440.155,0,0
351025,68.2279,-438.982,0,0
351286,68.2619,-437.786,0,0
351546,68.3488,-436.573,0,0
351806,68.5264,-435.373,0,0
352067,68.7622,-434.161,0,0
352327,69.0609,-432.967,0,0
352587,69.4463,-431.853,0,0
352848,69.855,-430.739,0,0
353108,70.2916,-429.698,0,0
353368,70.7135,-428.706,0,0
353629,71.2318,-427.768,0,0
353889,71.7285,-426.899,0,0
354149,72.2654,-426.048,0,0
354410,72.7532,-425.249,0,0
354670,73.2468,-424.53,0,0
354930,73.7442,-423.783,0,0
355191,74.3153,-423.113,0,0
355451,74.8939,-422.542,0,0
355711,75.369,-422.047,0,0
355972,75.8281,-421.639,0,0
356232,76.2406,-421.358,0,0
356492,76.4507,-421.039,0,0
356753,76.6375,-420.72,0,0
357013,76.7329,-420.397,0,0
357273,76.7284,-420.015,0,0
357534,76.6717,-419.651,0,0
357794,76.5958,-419.167,0,0
358054,76.4113,-418.686,0,0
358315,76.2189,-418.074,0,0
358575,76.0248,-417.395,0,0
358835,75.8246,-416.676,0,0
359096,75.6786,-415.82,0,0
359356,75.532,-414.956,0,0
359616,75.4195,-414.008,0,0
359877,75.382,-413.022,0,0
360137,75.4251,-411.998,0,0
360397,75.4993,-410.952,0,0
360658,75.6633,-409.915,0,0
360918,75.8132,-408.882,0,0
361178,76.067,-407.83,0,0
361438,76.3574,-406.787,0,0
361699,76.7291,-405.787,0,0
361959,77.0852,-404.834,0,0
362219,77.5174,-403.87,0,0
362480,77.9096,-402.983,0,0
362740.1,78.387,-402.11,0,0
363000.425,78.8479,-401.258,0,0
363260.75,79.277,-400.396,0,0
363521.075,79.783,-399.601,0,0
363781.4,80.2329,-398.708,0,0
364041.725,80.7746,-397.86,0,0
364302.05,81.3354,-397.039,0,0
364562.375,81.9347,-396.201,0,0
364822.7,82.6024,-395.449,0,0
365083.025,83.3143,-394.714,0,0
365343.35,84.095,-394.047,0,0
365603.675,84.8269,-393.496,0,0
365864.0,85.5956,-392.998,0,0
366124.325,86.2763,-392.622,0,0
366384.65,86.9121,-392.247,0,0
366644.975,87.5231,-391.873,0,0
366905.3,88.074,-391.483,0,0
367165.625,88.6655,-391.135,0,0
367425.95,89.2001,-390.813,0,0
367686.275,89.7661,-390.496,0,0
367946.6,90.2901,-390.204,0,0
368206.925,90.7884,-389.958,0,0
368467.25,91.3688,-389.72,0,0
368727.575,91.8777,-389.531,0,0
368987.9,92.3516,-389.346,0,0
369248.225,92.8624,-389.217,0,0
369508.55,93.2992,-389.174,0,0
369768.875,93.7318,-389.16,0,0
370029.2,94.0588,-389.256,0,0
370289.525,94.2808,-389.312,0,0
370549.85,94.3694,-389.446,0,0
370810.175,94.4008,-389.524,0,0
371070.5,94.2279,-389.553,0,0
371330.825,94.0033,-389.448,0,0
371591.15,93.7245,-389.263,0,0
371851.475,93.4036,-388.952,0,0
372111.8,93.0864,-388.506,0,0
372372.125,92.8609,-387.979,0,0
372632.45,92.6527,-387.314,0,0
372892.775,92.4869,-386.649,0,0
373153.1,92.4056,-385.879,0,0
373413.425,92.4368,-385.135,0,0
373673.75,92.4895,-384.347,0,0
373934.075,92.6255,-383.569,0,0
374194.4,92.8132,-382.833,0,0
374454.725,93.0514,-382.118,0,0
374715.05,93.2894,-381.455,0,0
374975.375,93.6154,-380.731,0,0
375235.7,93.8741,-380.102,0,0
375496.025,94.197,-379.492,0,0
375756.35,94.5293,-378.904,0,0
376016.675,94.8389,-378.35,0,0
376277.0,95.1045,-377.859,0,0
376537.325,95.3503,-377.359,0,0
376797.65,95.5194,-376.84,0,0
377057.975,95.6736,-376.258,0,0
377318.3,95.8116,-375.668,0,0
377578.625,95.9738,-374.977,0,0
377838.95,96.1696,-374.24,0,0
378099.275,96.4556,-373.46,0,0
378359.6,96.7433,-372.692,0,0
378619.925,97.1375,-371.91,0,0
378880,97.535,-371.127,0,0
379141,98.0303,-370.412,0,0
379401,98.5478,-369.721,0,0
379661,99.0842,-369.058,0,0
379922,99.5737,-368.466,0,0
380182,100.087,-367.808,0,0
380442,100.637,-367.236,0,0
380703,101.163,-366.652,0,0
380963,101.696,-366.143,0,0
381223,102.228,-365.579,0,0
381483,102.702,-365.045,0,0
381744,103.234,-364.512,0,0
382004,103.741,-363.935,0,0
382264,104.264,-363.344,0,0
382525,104.852,-362.761,0,0
382785,105.454,-362.19,0,0
383045,106.076,-361.661,0,0
383306,106.747,-361.115,0,0
383566,107.42,-360.641,0,0
383826,108.068,-360.195,0,0
384087,108.757,-359.728,0,0
384347,109.488,-359.297,0,0
384607,110.185,-358.912,0,0
384868,110.91,-358.589,0,0
385128,111.559,-358.286,0,0
385388,112.142,-358.02,0,0
385649,112.741,-357.741,0,0
385909,113.289,-357.41,0,0
386169,113.879,-357.026,0,0
386430,114.427,-356.625,0,0
386690,115.044,-356.281,0,0
386950,115.696,-355.925,0,0
387211,116.305,-355.603,0,0
387471,116.901,-355.231,0,0
387731,117.439,-354.883,0,0
387992,118.01,-354.482,0,0
388252,118.575,-354.021,0,0
388512,119.236,-353.466,0,0
388773,119.962,-352.927,0,0
389033,120.802,-352.385,0,0
389293,121.686,-351.893,0,0
389554,122.713,-351.447,0,0
389814,123.734,-351.096,0,0
390074,124.785,-350.853,0,0
390335,125.834,-350.675,0,0
390595,126.827,-350.547,0,0
390855,127.774,-350.488,0,0
391116,128.776,-350.464,0,0
391376,129.683,-350.438,0,0
391636,130.573,-350.46,0,0
391896,131.387,-350.455,0,0
392157,132.247,-350.47,0,0
392417,133.082,-350.456,0,0
392677,133.92,-350.469,0,0
392938,134.756,-350.473,0,0
393198,135.574,-350.504,0,0
393458,136.376,-350.513,0,0
393719,137.203,-350.48,0,0
393979,137.975,-350.43,0,0
394239,138.828,-350.341,0,0
394500,139.653,-350.203,0,0
394760.05,140.612,-350.083,0,0
395020.375,141.619,-349.907,0,0
395280.7,142.733,-349.798,0,0
395541.025,143.885,-349.692,0,0
395801.35,145.17,-349.623,0,0
396061.675,146.542,-349.562,0,0
396322.0,147.955,-349.633,0,0
396582.325,149.491,-349.797,0,0
396842.65,151.144,-350.051,0,0
397102.975,152.778,-350.472,0,0
397363.3,154.464,-351.057,0,0
397623.625,156.253,-351.774,0,0
397883.95,157.925,-352.617,0,0
398144.275,159.622,-353.643,0,0
398404.6,161.318,-354.853,0,0
398664.925,162.96,-356.202,0,0
398925.25,164.523,-357.76,0,0
399185.575,165.99,-359.471,0,0
399445.9,167.344,-361.393,0,0
399706.225,168.539,-363.478,0,0
399966.55,169.49,-365.768,0,0
400006.6,169.655,-366.15,0,0