File: Accelerated corrosion test data/2025-10-15_15-08-31/sample_4.csv
Frequency (Hz),Impedance (ohms),Phase (Radians),Temperature (C),Humidity (%)
10000.0,264.154,-11883.3,0,0
10260.325,260.839,-11585.1,0,0
10520.65,250.872,-11300.8,0,0
10780.975,245.184,-11029.6,0,0
11041.3,240.209,-10770.8,0,0
11301.625,234.499,-10527.7,0,0
11561.95,229.543,-10291.7,0,0
11822.275,224.959,-10066.4,0,0
12082.6,219.854,-9851.15,0,0
12342.925,215.485,-9644.37,0,0
12603.25,213.692,-9445.13,0,0
12863.575,208.473,-9257.81,0,0
13123.9,206.734,-9078.84,0,0
13384.225,199.836,-8900.47,0,0
13644.55,196.358,-8729.42,0,0
13904.875,193.436,-8563.97,0,0
14165.2,194.378,-8399.98,0,0
14425.525,198.67,-8254.33,0,0
14685.8,200.236,-8138.09,0,0
14946.175,181.932,-7982.16,0,0
15206.5,181.5,-7837.83,0,0
15466.825,189.571,-7693.56,0,0
15727.15,187.703,-7596.44,0,0
15987.5,186.042,-7479.01,0,0
16247.8,170.908,-7349.48,0,0
16508.125,192.819,-7223.58,0,0
16768.45,179.239,-7121.74,0,0
17028.775,170.825,-7033.66,0,0
17289.1,160.746,-6920.61,0,0
17549.425,159.275,-6816.26,0,0
17809.75,156.138,-6715.33,0,0
18070.075,152.492,-6616.24,0,0
18330.4,153.631,-6520.97,0,0
18590.725,152.66,-6431.99,0,0
18851.05,150.079,-6347.83,0,0
19111.375,145.312,-6258.07,0,0
19371.7,142.883,-6172.63,0,0
19632.025,141.875,-6088.52,0,0
19892.35,144.124,-6008.27,0,0
20152.675,143.723,-5931.18,0,0
20413.0,140.827,-5857.15,0,0
20673.3,140.972,-5782.55,0,0
20933.65,137.244,-5709.26,0,0
21193.975,140.082,-5634.35,0,0
21454.3,152.351,-5568.63,0,0
21714.625,146.761,-5512.28,0,0
21974.9,148.566,-5440.91,0,0
22235.275,148.779,-5396,0,0
22495.6,135.531,-5338.74,0,0
22755.925,128.252,-5273.51,0,0
23016.25,125.236,-5211.57,0,0
23276.6,122.872,-5151.48,0,0
23536.9,120.934,-5094.14,0,0
23797.225,118.975,-5037.11,0,0
24057.55,117.295,-4981.4,0,0
24317.875,115.865,-4927.44,0,0
24578.2,114.624,-4873.51,0,0
24838.525,114.254,-4821.19,0,0
25098.85,114.465,-4770.09,0,0
25359.175,113.45,-4722.98,0,0
25619.5,112.184,-4673.48,0,0
25879.8,110.299,-4629.07,0,0
26140.1,108.349,-4580.59,0,0
26400.5,107.349,-4534.43,0,0
26660.8,106.296,-4488.22,0,0
26921.1,106.395,-4443.24,0,0
27181.4,105.792,-4398.91,0,0
27441.8,106.128,-4354.21,0,0
27702.1,109.971,-4309.62,0,0
27962.4,116.259,-4269.28,0,0
28222.7,119.221,-4241.56,0,0
28483.1,113.166,-4206.05,0,0
28743.4,109.984,-4165.84,0,0
29003.7,111.139,-4124.1,0,0
29264,118.162,-4092.94,0,0
29524.4,111.338,-4060.67,0,0
29784.7,110.525,-4029.5,0,0
30045,105.597,-3994.92,0,0
30305.3,100.906,-3959.3,0,0
30565.7,99.4581,-3923.54,0,0
30826,98.7602,-3888.45,0,0
31086.3,97.951,-3855.09,0,0
31346.6,98.9474,-3821.7,0,0
31607,97.1916,-3791.04,0,0
31867.3,97.5903,-3759.07,0,0
32127.6,99.7954,-3728.48,0,0
32387.9,98.7213,-3702.52,0,0
32648.3,96.4127,-3672.35,0,0
32908.6,94.719,-3645.43,0,0
33168.9,92.4827,-3616.01,0,0
33429.2,89.8026,-3587.63,0,0
33689.6,88.4202,-3558.58,0,0
33949.9,87.4042,-3530.23,0,0
34210.2,87.7285,-3502.17,0,0
34470.5,86.1956,-3476.19,0,0
34730.9,84.8225,-3449.03,0,0
34991.2,84.4773,-3422.42,0,0
35251.5,83.878,-3396.4,0,0
35511.8,83.3982,-3371.13,0,0
35772.2,82.8368,-3346.07,0,0
36032.5,81.9591,-3321.43,0,0
36292.8,81.0208,-3296.91,0,0
36553.1,80.6682,-3272.27,0,0
36813.5,80.5806,-3248.1,0,0
37073.8,80.8657,-3225.09,0,0
37334.1,79.3921,-3202.44,0,0
37594.4,79.1207,-3179.23,0,0
37854.8,78.8537,-3156.98,0,0
38115.1,78.2645,-3134.99,0,0
38375.4,77.508,-3112.93,0,0
38635.7,77.1991,-3090.71,0,0
38896.1,77.3136,-3069.12,0,0
39156.4,77.1364,-3048.51,0,0
39416.7,76.3425,-3027.1,0,0
39677,76.2495,-3005.79,0,0
39937.4,77.0682,-2984.75,0,0
40197.7,78.787,-2964.52,0,0
40458,80.2635,-2945.99,0,0
40718.3,79.2352,-2928.65,0,0
40978.7,79.0026,-2908.53,0,0
41239,80.3588,-2890.54,0,0
41499.3,81.8106,-2873.72,0,0
41759.6,78.9239,-2857.24,0,0
42020,77.5753,-2839.18,0,0
42280.275,76.5479,-2819.65,0,0
42540.6,78.7214,-2801.98,0,0
42800.925,78.1127,-2787.46,0,0
43061.25,75.4767,-2769.95,0,0
43321.575,75.8133,-2752.59,0,0
43581.9,74.4566,-2736.17,0,0
43842.225,73.587,-2719.06,0,0
44102.55,73.6035,-2702.41,0,0
44362.875,72.2757,-2685.96,0,0
44623.2,72.4664,-2668.82,0,0
44883.525,72.3206,-2653.55,0,0
45143.85,71.3703,-2637.55,0,0
45404.175,70.4831,-2621.27,0,0
45664.5,71.5065,-2604.22,0,0
45924.825,72.7321,-2589.97,0,0
46185.15,71.5243,-2576.7,0,0
46445.475,70.3191,-2560.33,0,0
46705.8,71.3254,-2545.24,0,0
46966.125,71.6307,-2531.26,0,0
47226.45,71.6935,-2517.16,0,0
47486.775,71.3804,-2504.01,0,0
47747.1,70.2303,-2490.12,0,0
48007.425,69.4814,-2476.11,0,0
48267.75,68.3965,-2462.87,0,0
48528.075,67.9546,-2448.82,0,0
48788.4,66.918,-2435,0,0
49048.725,66.26,-2421.01,0,0
49309.05,66.1439,-2407.15,0,0
49569.375,65.4969,-2394.06,0,0
49829.7,64.9583,-2380.27,0,0
50090.025,64.8297,-2366.98,0,0
50350.35,64.4117,-2353.57,0,0
50610.675,64.3608,-2340.45,0,0
50871.0,64.2914,-2327.31,0,0
51131.325,64.13,-2314.57,0,0
51391.65,63.9086,-2301.81,0,0
51651.975,63.8151,-2288.83,0,0
51912.3,63.8333,-2276.36,0,0
52172.625,64.3198,-2263.43,0,0
52432.95,64.5341,-2251.49,0,0
52693.275,64.5514,-2238.76,0,0
52953.6,65.3607,-2226.02,0,0
53213.925,66.4928,-2213.89,0,0
53474.25,67.869,-2201.99,0,0
53734.575,69.3007,-2190.4,0,0
53994.9,71.6851,-2179.25,0,0
54255.225,73.7984,-2169.52,0,0
54515.55,75.7325,-2160.85,0,0
54775.875,75.876,-2153.36,0,0
55036.2,74.5418,-2144.81,0,0
55296.525,73.7013,-2135.36,0,0
55556.85,72.0745,-2126.35,0,0
55817.175,70.0219,-2115.98,0,0
56077.5,68.5995,-2105.48,0,0
56337.825,67.3493,-2094.93,0,0
56598.15,66.0652,-2083.64,0,0
56858.475,65.7,-2072.25,0,0
57118.8,66.0642,-2061.29,0,0
57379.125,66.2266,-2050.83,0,0
57639.45,66.4061,-2040.64,0,0
57899.775,66.5941,-2030.28,0,0
58160.1,66.7143,-2019.94,0,0
58420.4,67.8598,-2009.65,0,0
58680.7,68.4038,-2001.06,0,0
58941.1,67.4962,-1990.39,0,0
59201.4,69.0618,-1979.64,0,0
59461.7,71.0206,-1969.62,0,0
59722,73.537,-1960.86,0,0
59982.4,75.8114,-1953.17,0,0
60242.7,76.8199,-1945.98,0,0
60503,77.7295,-1938.41,0,0
60763.3,80.2005,-1931.19,0,0
61023.7,80.8002,-1927.69,0,0
61284,78.793,-1922.72,0,0
61544.3,74.6688,-1916.6,0,0
61804.6,71.8544,-1906.97,0,0
62065,70.139,-1898.47,0,0
62325.3,68.8484,-1890.15,0,0
62585.6,66.2108,-1881.37,0,0
62845.9,65.2942,-1870.94,0,0
63106.3,64.8864,-1862.15,0,0
63366.6,64.2979,-1852.79,0,0
63626.9,64.617,-1843.64,0,0
63887.2,64.7843,-1835.82,0,0
64147.6,63.4925,-1826.99,0,0
64407.9,64.0014,-1817.73,0,0
64668.2,64.6438,-1809.28,0,0
64928.5,65.2034,-1801.19,0,0
65188.9,65.3625,-1793.47,0,0
65449.2,65.467,-1785.54,0,0
65709.5,65.4252,-1777.11,0,0
65969.8,66.6905,-1768.58,0,0
66230.2,67.8262,-1761.49,0,0
66490.5,68.3314,-1754.24,0,0
66750.8,69.1082,-1747.12,0,0
67011.1,69.4704,-1739.68,0,0
67271.5,70.8109,-1732.59,0,0
67531.8,72.0439,-1726.43,0,0
67792.1,72.8751,-1720.2,0,0
68052.4,73.5595,-1714.67,0,0
68312.8,73.6019,-1709.04,0,0
68573.1,73.9011,-1703.8,0,0
68833.4,73.2533,-1699.34,0,0
69093.7,71.3978,-1694.05,0,0
69354.1,69.2367,-1687.97,0,0
69614.4,67.1307,-1680.92,0,0
69874.7,66.3888,-1673.49,0,0
70135,65.6785,-1666.73,0,0
70395.4,64.1644,-1659.46,0,0
70655.7,64.2165,-1651.36,0,0
70916,65.27,-1645.05,0,0
71176.3,64.918,-1639.21,0,0
71436.7,64.5257,-1633.31,0,0
71697,63.8487,-1627.67,0,0
71957.3,62.1745,-1621.74,0,0
72217.6,60.5882,-1614.92,0,0
72478,59.4657,-1607.68,0,0
72738.3,58.5943,-1600.59,0,0
72998.6,57.7441,-1593.26,0,0
73258.9,57.4314,-1585.6,0,0
73519.3,57.699,-1578.29,0,0
73779.6,57.9172,-1571.48,0,0
74039.9,58.3217,-1564.58,0,0
74300.225,58.6076,-1558.2,0,0
74560.55,58.885,-1551.43,0,0
74820.875,59.295,-1545.06,0,0
75081.2,60.0193,-1538.49,0,0
75341.525,60.8488,-1532.73,0,0
75601.85,61.0912,-1526.93,0,0
75862.175,61.4869,-1521.05,0,0
76122.5,61.843,-1515.14,0,0
76382.825,62.3792,-1509.68,0,0
76643.15,62.4068,-1504.23,0,0
76903.475,62.3735,-1498.31,0,0
77163.8,63.245,-1492.04,0,0
77424.125,64.36,-1486.89,0,0
77684.45,65.1818,-1482.08,0,0
77944.775,65.6919,-1477.7,0,0
78205.1,65.5673,-1473.36,0,0
78465.425,65.2781,-1468.87,0,0
78725.75,64.6456,-1464.36,0,0
78986.075,63.8268,-1459.51,0,0
79246.4,62.9804,-1454.31,0,0
79506.725,62.2253,-1449.03,0,0
79767.05,61.5682,-1443.56,0,0
80027.375,61.1889,-1438,0,0
80287.7,60.8659,-1432.53,0,0
80548.025,60.6409,-1427.09,0,0
80808.35,60.5939,-1421.73,0,0
81068.675,60.5828,-1416.56,0,0
81329.0,60.4558,-1411.51,0,0
81589.325,60.3077,-1406.48,0,0
81849.65,60.0576,-1401.49,0,0
82109.975,59.7401,-1396.46,0,0
82370.3,59.5363,-1391.38,0,0
82630.625,59.2768,-1386.39,0,0
82890.95,59.0395,-1381.36,0,0
83151.275,58.8156,-1376.4,0,0
83411.6,58.5187,-1371.4,0,0
83671.925,58.2718,-1366.33,0,0
83932.25,58.0774,-1361.43,0,0
84192.575,57.9229,-1356.43,0,0
84452.9,57.7142,-1351.55,0,0
84713.225,57.5656,-1346.63,0,0
84973.55,57.3651,-1341.72,0,0
85233.875,57.2479,-1336.9,0,0
85494.2,57.1463,-1332.15,0,0
85754.525,56.9497,-1327.37,0,0
86014.85,56.7008,-1322.58,0,0
86275.175,56.6673,-1317.72,0,0
86535.5,56.6572,-1313.04,0,0
86795.825,56.4445,-1308.48,0,0
87056.15,56.1855,-1303.87,0,0
87316.475,56.0699,-1299.24,0,0
87576.8,55.876,-1294.77,0,0
87837.125,55.5459,-1290.34,0,0
88097.45,55.0199,-1285.9,0,0
88357.775,54.3971,-1281.09,0,0
88618.1,54.0283,-1276.04,0,0
88878.425,53.9035,-1271.21,0,0
89138.75,53.8003,-1266.47,0,0
89399.075,53.6423,-1261.67,0,0
89659.4,53.5662,-1256.85,0,0
89919.725,53.6211,-1252.2,0,0
90180,53.5601,-1247.63,0,0
90440.4,53.5348,-1243,0,0
90700.7,53.493,-1238.4,0,0
90961,53.3013,-1233.86,0,0
91221.3,53.3007,-1229.12,0,0
91481.7,53.3274,-1224.47,0,0
91742,53.4365,-1219.9,0,0
92002.3,53.7824,-1215.23,0,0
92262.6,54.0766,-1210.8,0,0
92523,54.3335,-1206.5,0,0
92783.3,54.6821,-1202.29,0,0
93043.6,54.9096,-1198.27,0,0
93303.9,54.9921,-1194.49,0,0
93564.3,54.852,-1190.4,0,0
93824.6,54.6943,-1186.44,0,0
94084.9,54.4492,-1182.37,0,0
94345.2,54.0372,-1178.22,0,0
94605.6,53.5727,-1173.87,0,0
94865.9,53.2288,-1169.35,0,0
95126.2,53.167,-1164.81,0,0
95386.5,53.0667,-1160.38,0,0
95646.9,53.0186,-1155.74,0,0
95907.2,53.1519,-1151.32,0,0
96167.5,53.3169,-1146.83,0,0
96427.8,53.5078,-1142.45,0,0
96688.2,53.7244,-1138.17,0,0
96948.5,53.8699,-1133.9,0,0
97208.8,54.0582,-1129.58,0,0
97469.1,54.2885,-1125.31,0,0
97729.5,54.38,-1121,0,0
97989.8,54.6422,-1116.6,0,0
98250.1,55.0145,-1112.23,0,0
98510.4,55.4572,-1107.99,0,0
98770.8,55.8186,-1103.7,0,0
99031.1,56.3473,-1099.4,0,0
99291.4,56.9779,-1095.21,0,0
99551.7,57.6265,-1091.18,0,0
99812.1,58.154,-1087.2,0,0
100072,58.7653,-1083.03,0,0
100333,59.7141,-1078.88,0,0
100593,60.9258,-1075.18,0,0
100853,62.0516,-1071.98,0,0
101114,62.6126,-1068.94,0,0
101374,63.2116,-1065.74,0,0
101634,63.8069,-1063.02,0,0
101895,63.6465,-1060.64,0,0
102155,62.8159,-1057.9,0,0
102415,61.6191,-1054.53,0,0
102676,60.5073,-1050.47,0,0
102936,59.6544,-1046.09,0,0
103196,59.0959,-1041.48,0,0
103457,58.7309,-1036.61,0,0
103717,58.8093,-1031.59,0,0
103977,59.2401,-1026.69,0,0
104238,59.8391,-1021.88,0,0
104498,60.6145,-1017.11,0,0
104758,61.5835,-1012.46,0,0
105019,62.7755,-1007.96,0,0
105279,64.0473,-1003.65,0,0
105539,65.3489,-999.482,0,0
105800,66.6806,-995.385,0,0
106060,68.1286,-991.399,0,0
106320.175,69.5435,-987.558,0,0
106580.5,71.0745,-983.826,0,0
106840.825,72.5761,-980.273,0,0
107101.15,73.9477,-976.816,0,0
107361.475,75.2481,-973.404,0,0
107621.8,76.5687,-969.825,0,0
107882.125,78.1065,-966.234,0,0
108142.45,79.7787,-962.806,0,0
108402.775,81.5713,-959.526,0,0
108663.1,83.3829,-956.446,0,0
108923.425,85.1561,-953.529,0,0
109183.75,87.0392,-950.701,0,0
109444.075,88.8604,-948.25,0,0
109704.4,90.481,-945.95,0,0
109964.725,91.942,-943.596,0,0
110225.05,93.3853,-941.301,0,0
110485.375,94.843,-939.167,0,0
110745.7,96.0226,-937.104,0,0
111006.025,97.2351,-934.967,0,0
111266.35,98.468,-933.07,0,0
111526.675,99.3124,-930.975,0,0
111787.0,100.352,-928.997,0,0
112047.325,101.367,-927.018,0,0
112307.65,102.353,-925.08,0,0
112567.975,103.216,-923.324,0,0
112828.3,104.004,-921.535,0,0
113088.625,104.781,-919.748,0,0
113348.95,105.453,-918.081,0,0
113609.275,105.981,-916.354,0,0
113869.6,106.487,-914.668,0,0
114129.925,106.879,-913.011,0,0
114390.25,107.289,-911.274,0,0
114650.575,107.651,-909.513,0,0
114910.9,107.991,-907.88,0,0
115171.225,108.266,-906.276,0,0
115431.55,108.37,-904.715,0,0
115691.875,108.366,-903.097,0,0
115952.2,108.248,-901.412,0,0
116212.525,108.079,-899.711,0,0
116472.85,107.85,-898,0,0
116733.175,107.509,-896.209,0,0
116993.5,107.072,-894.323,0,0
117253.825,106.555,-892.28,0,0
117514.15,105.996,-890.113,0,0
117774.475,105.481,-887.746,0,0
118034.8,105.029,-885.189,0,0
118295.125,104.73,-882.5,0,0
118555.45,104.589,-879.771,0,0
118815.775,104.552,-876.881,0,0
119076.1,104.847,-873.783,0,0
119336.425,105.786,-870.743,0,0
119596.75,107.392,-868.247,0,0
119857.075,109.065,-866.708,0,0
120117.4,110.338,-865.953,0,0
120377.725,110.909,-865.52,0,0
120638.05,110.989,-865.375,0,0
120898.375,110.05,-865.26,0,0
121158.7,108.446,-864.433,0,0
121419.025,106.794,-862.883,0,0
121679.35,105.303,-860.988,0,0
121939.675,103.922,-858.841,0,0
122200.0,102.718,-856.442,0,0
122460,101.592,-853.964,0,0
122721,100.698,-851.339,0,0
122981,99.9843,-848.819,0,0
123241,99.2822,-846.311,0,0
123502,98.585,-843.803,0,0
123762,97.9024,-841.279,0,0
124022,97.23,-838.696,0,0
124283,96.6473,-836.094,0,0
124543,96.1192,-833.507,0,0
124803,95.6446,-830.912,0,0
125064,95.2867,-828.312,0,0
125324,94.9422,-825.865,0,0
125584,94.5301,-823.522,0,0
125845,94.1223,-821.186,0,0
126105,93.6931,-818.98,0,0
126365,93.0388,-816.844,0,0
126626,92.2752,-814.612,0,0
126886,91.461,-812.235,0,0
127146,90.5904,-809.846,0,0
127406,89.8362,-807.369,0,0
127667,89.0804,-804.916,0,0
127927,88.2808,-802.588,0,0
128187,87.188,-800.291,0,0
128448,85.9216,-797.788,0,0
128708,84.6806,-795.066,0,0
128968,83.4035,-792.264,0,0
129229,82.0727,-789.274,0,0
129489,80.8068,-786.088,0,0
129749,79.5667,-782.785,0,0
130010,78.4021,-779.307,0,0
130270,77.4891,-775.72,0,0
130530,76.6693,-772.174,0,0
130791,75.845,-768.595,0,0
131051,75.0817,-764.884,0,0
131311,74.462,-761.128,0,0
131572,73.9979,-757.359,0,0
131832,73.6046,-753.67,0,0
132092,73.1453,-749.964,0,0
132353,72.83,-746.164,0,0
132613,72.5759,-742.361,0,0
132873,72.4434,-738.564,0,0
133134,72.3723,-734.819,0,0
133394,72.3251,-731.096,0,0
133654,72.2486,-727.361,0,0
133915,72.2424,-723.514,0,0
134175,72.4128,-719.751,0,0
134435,72.6006,-716.006,0,0
134696,72.7802,-712.288,0,0
134956,73.0175,-708.563,0,0
135216,73.3146,-704.769,0,0
135477,73.7425,-701.05,0,0
135737,74.1956,-697.358,0,0
135997,74.6703,-693.725,0,0
136258,75.2014,-690.143,0,0
136518,75.7301,-686.561,0,0
136778,76.3269,-683.032,0,0
137039,76.9562,-679.643,0,0
137299,77.4354,-676.323,0,0
137559,77.7852,-672.927,0,0
137819,78.1462,-669.486,0,0
138080,78.497,-665.95,0,0
138340.125,78.8399,-662.324,0,0
138600.45,79.2919,-658.597,0,0
138860.775,79.7688,-654.907,0,0
139121.1,80.2775,-651.136,0,0
139381.425,80.9205,-647.297,0,0
139641.75,81.6789,-643.528,0,0
139902.075,82.4251,-639.788,0,0
140162.4,83.1813,-636.009,0,0
140422.725,84.0255,-632.179,0,0
140683.05,84.9809,-628.323,0,0
140943.375,85.9827,-624.503,0,0
141203.7,87.0816,-620.732,0,0
141464.025,88.1962,-617.031,0,0
141724.35,89.3318,-613.323,0,0
141984.675,90.4942,-609.626,0,0
142245.0,91.7031,-605.939,0,0
142505.325,92.9215,-602.306,0,0
142765.65,94.119,-598.645,0,0
143025.975,95.3866,-594.926,0,0
143286.3,96.727,-591.219,0,0
143546.625,98.0853,-587.567,0,0
143806.95,99.4473,-583.873,0,0
144067.275,100.842,-580.155,0,0
144327.6,102.323,-576.385,0,0
144587.925,103.872,-572.644,0,0
144848.25,105.444,-568.905,0,0
145108.575,107.076,-565.146,0,0
145368.9,108.793,-561.332,0,0
145629.225,110.63,-557.558,0,0
145889.55,112.514,-553.835,0,0
146149.875,114.458,-550.094,0,0
146410.2,116.53,-546.394,0,0
146670.525,118.639,-542.759,0,0
146930.85,120.764,-539.184,0,0
147191.175,122.892,-535.608,0,0
147451.5,125.077,-532,0,0
147711.825,127.309,-528.414,0,0
147972.15,129.582,-524.83,0,0
148232.475,131.954,-521.181,0,0
148492.8,134.428,-517.593,0,0
148753.125,136.942,-514.015,0,0
149013.45,139.588,-510.476,0,0
149273.775,142.222,-506.995,0,0
149534.1,144.809,-503.433,0,0
149794.425,147.573,-499.684,0,0
150054.75,150.653,-495.955,0,0
150315.075,153.915,-492.38,0,0
150575.4,157.237,-488.924,0,0
150835.725,160.641,-485.472,0,0
151096.05,164.28,-482.004,0,0
151356.375,168.149,-478.736,0,0
151616.7,172.145,-475.645,0,0
151877.025,176.187,-472.742,0,0
152137.35,180.314,-469.842,0,0
152397.675,184.822,-467.058,0,0
152658.0,189.535,-464.801,0,0
152918.325,194.08,-462.927,0,0
153178.65,198.554,-461.161,0,0
153438.975,203.124,-459.631,0,0
153699.3,207.621,-458.473,0,0
153959.625,211.935,-457.584,0,0
154219.95,216.044,-456.901,0,0
154480,219.912,-456.436,0,0
154741,223.403,-456.116,0,0
155001,226.44,-455.473,0,0
155261,229.597,-454.487,0,0
155522,233.072,-453.525,0,0
155782,236.661,-452.782,0,0
156042,240.066,-452.472,0,0
156303,243.071,-452.101,0,0
156563,245.944,-451.7,0,0
156823,248.537,-451.04,0,0
157084,251.195,-450.07,0,0
157344,254.122,-449.049,0,0
157604,256.948,-448.078,0,0
157864,259.859,-446.76,0,0
158125,263.085,-445.309,0,0
158385,266.863,-444.049,0,0
158645,270.674,-443.183,0,0
158906,274.446,-442.108,0,0
159166,279.048,-441.129,0,0
159426,284.082,-441.233,0,0
159687,288.526,-441.994,0,0
159947,292.759,-443.04,0,0
160207,296.573,-444.642,0,0
160468,299.983,-446.394,0,0
160728,302.843,-448.357,0,0
160988,304.987,-450.402,0,0
161249,306.762,-452.043,0,0
161509,308.005,-453.442,0,0
161769,309.411,-454.221,0,0
162030,310.674,-454.953,0,0
162290,311.939,-455.457,0,0
162550,313.219,-455.883,0,0
162811,314.157,-456.224,0,0
163071,315.041,-456.05,0,0
163331,316.179,-455.624,0,0
163592,317.347,-455.109,0,0
163852,318.602,-454.306,0,0
164112,320.064,-453.36,0,0
164373,321.64,-451.91,0,0
164633,323.821,-450.462,0,0
164893,326.271,-449.069,0,0
165154,328.912,-447.947,0,0
165414,331.477,-446.622,0,0
165674,334.532,-445.099,0,0
165935,338.009,-443.482,0,0
166195,342.227,-442.096,0,0
166455,346.832,-441.066,0,0
166716,351.962,-440.363,0,0
166976,357.561,-440.275,0,0
167236,363.465,-441.027,0,0
167497,369.302,-442.582,0,0
167757,375.04,-444.783,0,0
168017,380.514,-447.701,0,0
168277,385.683,-451.232,0,0
168538,390.369,-455.172,0,0
168798,394.853,-459.275,0,0
169058,399.363,-463.918,0,0
169319,403.513,-469.622,0,0
169579,406.538,-475.84,0,0
169839,409.139,-481.898,0,0
170100,411.579,-488.627,0,0
170360.075,413.012,-496.202,0,0
170620.4,413.262,-504.134,0,0
170880.725,412.139,-512.12,0,0
171141.05,409.619,-519.651,0,0
171401.375,406.189,-526.247,0,0
171661.7,402.451,-532.241,0,0
171922.025,398.083,-538.047,0,0
172182.35,392.776,-543.216,0,0
172442.675,386.94,-547.418,0,0
172703.0,380.768,-550.934,0,0
172963.325,374.16,-553.57,0,0
173223.65,367.383,-555.214,0,0
173483.975,360.65,-556.048,0,0
173744.3,353.888,-555.983,0,0
174004.625,347.548,-555.045,0,0
174264.95,341.535,-553.668,0,0
174525.275,335.653,-551.669,0,0
174785.6,330.317,-549.093,0,0
175045.925,325.263,-546.329,0,0
175306.25,320.284,-542.999,0,0
175566.575,315.746,-539.061,0,0
175826.9,311.858,-534.687,0,0
176087.225,308.526,-530.204,0,0
176347.55,305.616,-525.505,0,0
176607.875,303.263,-520.692,0,0
176868.2,301.357,-515.879,0,0
177128.525,299.915,-511.114,0,0
177388.85,298.808,-506.455,0,0
177649.175,298.015,-501.838,0,0
177909.5,297.51,-497.418,0,0
178169.825,297.198,-493.177,0,0
178430.15,296.964,-488.994,0,0
178690.475,296.788,-484.813,0,0
178950.8,296.893,-480.61,0,0
179211.125,297.19,-476.399,0,0
179471.45,297.725,-472.305,0,0
179731.775,298.526,-468.431,0,0
179992.1,299.331,-464.768,0,0
180252.425,300.135,-461.227,0,0
180512.75,300.996,-457.784,0,0
180773.075,301.806,-454.417,0,0
181033.4,302.608,-451.08,0,0
181293.725,303.375,-447.749,0,0
181554.05,304.187,-444.433,0,0
181814.375,304.922,-441.134,0,0
182074.7,305.639,-437.825,0,0
182335.025,306.314,-434.424,0,0
182595.35,306.907,-430.929,0,0
182855.675,307.513,-427.264,0,0
183116.0,308.17,-423.447,0,0
183376.325,308.875,-419.472,0,0
183636.65,309.687,-415.335,0,0
183896.975,310.628,-411.022,0,0
184157.3,311.75,-406.575,0,0
184417.625,313.04,-402.002,0,0
184677.95,314.516,-397.39,0,0
184938.275,316.148,-392.639,0,0
185198.6,317.998,-387.766,0,0
185458.925,320.087,-382.922,0,0
185719.25,322.327,-378.071,0,0
185979.575,324.704,-373.184,0,0
186239.9,327.207,-368.157,0,0
186500,329.9,-363.109,0,0
186761,332.802,-357.913,0,0
187021,335.973,-352.722,0,0
187281,339.293,-347.404,0,0
187542,342.861,-342.102,0,0
187802,346.744,-336.643,0,0
188062,350.899,-331.277,0,0
188322,355.356,-325.806,0,0
188583,360.052,-320.435,0,0
188843,365.09,-314.988,0,0
189103,370.452,-309.579,0,0
189364,376.079,-304.231,0,0
189624,382.073,-298.867,0,0
189884,388.378,-293.637,0,0
190145,395.083,-288.488,0,0
190405,402.207,-283.53,0,0
190665,409.703,-278.705,0,0
190926,417.351,-274.186,0,0
191186,425.433,-269.701,0,0
191446,433.803,-265.472,0,0
191707,442.528,-261.412,0,0
191967,451.713,-257.704,0,0
192227,461.135,-254.252,0,0
192488,470.869,-251.255,0,0
192748,480.952,-248.586,0,0
193008,491.158,-246.301,0,0
193269,501.673,-244.507,0,0
193529,512.202,-243.043,0,0
193789,522.92,-241.925,0,0
194050,533.967,-241.052,0,0
194310,544.966,-240.872,0,0
194570,556.029,-240.947,0,0
194831,567.158,-241.316,0,0
195091,578.38,-241.976,0,0
195351,589.679,-242.942,0,0
195612,601.121,-244.096,0,0
195872,612.843,-245.533,0,0
196132,624.824,-247.332,0,0
196393,637.08,-249.526,0,0
196653,649.548,-252.197,0,0
196913,662.343,-255.284,0,0
197174,675.506,-259.001,0,0
197434,688.884,-263.438,0,0
197694,702.415,-268.646,0,0
197955,716.038,-274.669,0,0
198215,729.619,-281.502,0,0
198475,743.193,-289.038,0,0
198735,756.909,-297.365,0,0
198996,770.722,-306.822,0,0
199256,784.175,-317.485,0,0
199516,797.227,-329.414,0,0
199777,809.494,-342.409,0,0
200037,820.862,-356.327,0,0
200297,831.467,-370.943,0,0
200558,841.243,-386.471,0,0
200818,849.684,-402.738,0,0
201078,856.878,-419.283,0,0
201339,863.079,-436.098,0,0
201599,868.207,-453.293,0,0
201859,871.883,-470.498,0,0
202120,874.346,-487.358,0,0
202380.025,876.249,-503.852,0,0
202640.35,877.057,-520.069,0,0
202900.675,877.089,-535.658,0,0
203161.0,877.022,-550.609,0,0
203421.325,876.95,-565.837,0,0
203681.65,876.273,-581.57,0,0
203941.975,874.27,-597.399,0,0
204202.3,871.247,-612.642,0,0
204462.625,867.226,-627.113,0,0
204722.95,863.108,-640.808,0,0
204983.275,858.74,-654.135,0,0
205243.6,854.053,-667.311,0,0
205503.925,848.791,-679.759,0,0
205764.25,843.572,-691.56,0,0
206024.575,838.529,-703.249,0,0
206284.9,833.178,-714.919,0,0
206545.225,827.863,-726.519,0,0
206805.55,822.275,-738.3,0,0
207065.875,816.279,-750.461,0,0
207326.2,809.397,-763.047,0,0
207586.525,801.067,-775.416,0,0
207846.85,791.658,-787.022,0,0
208107.175,781.381,-797.516,0,0
208367.5,770.757,-807.064,0,0
208627.825,759.747,-815.798,0,0
208888.15,748.365,-823.699,0,0
209148.475,736.604,-830.319,0,0
209408.8,725.264,-835.905,0,0
209669.125,714.098,-840.656,0,0
209929.45,703.34,-844.809,0,0
210189.775,692.6,-848.456,0,0
210450.1,682.179,-851.417,0,0
210710.425,671.911,-853.674,0,0
210970.75,661.862,-855.455,0,0
211231.075,652.519,-856.571,0,0
211491.4,643.448,-857.52,0,0
211751.725,634.757,-857.888,0,0
212012.05,626.498,-857.914,0,0
212272.375,618.783,-857.61,0,0
212532.7,611.779,-857.132,0,0
212793.025,605.201,-856.857,0,0
213053.35,598.562,-856.619,0,0
213313.675,592.099,-856,0,0
213574.0,585.935,-854.811,0,0
213834.325,580.496,-853.43,0,0
214094.65,575.726,-851.787,0,0
214354.975,571.849,-850.438,0,0
214615.3,568.702,-849.407,0,0
214875.625,566.054,-849.065,0,0
215135.95,563.509,-849.439,0,0
215396.275,560.866,-850.436,0,0
215656.6,558.184,-851.862,0,0
215916.925,555.087,-853.82,0,0
216177.25,551.54,-855.908,0,0
216437.575,547.452,-857.957,0,0
216697.9,542.977,-859.774,0,0
216958.225,538.465,-861.007,0,0
217218.55,534.277,-862.019,0,0
217478.875,530.284,-863.104,0,0
217739.2,526.286,-864.389,0,0
217999.525,522.284,-865.577,0,0
218259.85,518.288,-866.826,0,0
218520,514.193,-868.114,0,0
218780,510.196,-869.372,0,0
219041,506.381,-870.634,0,0
219301,502.398,-872,0,0
219561,498.422,-873.625,0,0
219822,494.257,-875.235,0,0
220082,489.844,-876.985,0,0
220342,485.132,-878.553,0,0
220603,480.363,-880.041,0,0
220863,475.344,-881.261,0,0
221123,470.355,-882.19,0,0
221384,465.564,-882.947,0,0
221644,460.812,-883.824,0,0
221904,455.886,-884.616,0,0
222165,451.013,-885.243,0,0
222425,446.016,-885.741,0,0
222685,441.201,-886.226,0,0
222946,436.434,-886.479,0,0
223206,431.593,-886.719,0,0
223466,426.947,-887.002,0,0
223727,422.228,-887.196,0,0
223987,417.602,-887.415,0,0
224247,413.01,-887.821,0,0
224508,408.379,-888.283,0,0
224768,403.552,-888.847,0,0
225028,398.406,-889.109,0,0
225289,393.167,-889.38,0,0
225549,387.746,-889.605,0,0
225809,382.12,-889.622,0,0
226070,376.496,-889.498,0,0
226330,370.741,-889.057,0,0
226590,364.888,-888.392,0,0
226851,359.081,-887.508,0,0
227111,353.277,-886.396,0,0
227371,347.357,-885.062,0,0
227632,341.501,-883.514,0,0
227892,335.654,-881.721,0,0
228152,329.787,-879.619,0,0
228413,324.056,-877.175,0,0
228673,318.486,-874.338,0,0
228933,313.202,-871.248,0,0
229193,308.162,-867.985,0,0
229454,303.456,-864.605,0,0
229714,298.968,-861.222,0,0
229974,294.831,-857.665,0,0
230235,290.775,-854.171,0,0
230495,286.937,-850.544,0,0
230755,283.246,-846.945,0,0
231016,279.764,-843.307,0,0
231276,276.45,-839.636,0,0
231536,273.418,-835.944,0,0
231797,270.439,-832.378,0,0
232057,267.636,-828.761,0,0
232317,264.98,-825.19,0,0
232578,262.437,-821.597,0,0
232838,260.061,-817.975,0,0
233098,257.9,-814.358,0,0
233359,255.845,-810.92,0,0
233619,253.949,-807.456,0,0
233879,252.055,-804.053,0,0
234140,250.337,-800.632,0,0
234400,248.728,-797.373,0,0
234660.3,247.27,-794.164,0,0
234920.625,245.886,-790.94,0,0
235180.95,244.622,-787.954,0,0
235441.275,243.434,-784.979,0,0
235701.6,242.216,-782.226,0,0
235961.925,240.96,-779.49,0,0
236222.25,239.667,-776.623,0,0
236482.575,238.442,-773.791,0,0
236742.9,237.331,-770.912,0,0
237003.225,236.263,-768.035,0,0
237263.55,235.29,-765.17,0,0
237523.875,234.496,-762.305,0,0
237784.2,233.856,-759.356,0,0
238044.525,233.459,-756.62,0,0
238304.85,233.142,-754.064,0,0
238565.175,232.914,-751.638,0,0
238825.5,232.659,-749.323,0,0
239085.825,232.478,-747.158,0,0
239346.15,232.219,-745.169,0,0
239606.475,232.066,-743.237,0,0
239866.8,231.871,-741.45,0,0
240127.125,231.603,-739.723,0,0
240387.45,231.364,-738.185,0,0
240647.775,230.995,-736.628,0,0
240908.1,230.666,-735.161,0,0
241168.425,230.209,-733.801,0,0
241428.75,229.814,-732.458,0,0
241689.075,229.304,-731.234,0,0
241949.4,228.73,-730.017,0,0
242209.725,228.125,-728.85,0,0
242470.05,227.387,-727.735,0,0
242730.375,226.607,-726.679,0,0
242990.7,225.671,-725.56,0,0
243251.025,224.737,-724.429,0,0
243511.35,223.677,-723.292,0,0
243771.675,222.567,-722.099,0,0
244032.0,221.362,-720.919,0,0
244292.325,220.161,-719.705,0,0
244552.65,218.749,-718.328,0,0
244812.975,217.295,-716.814,0,0
245073.3,215.938,-715.175,0,0
245333.625,214.634,-713.446,0,0
245593.95,213.378,-711.619,0,0
245854.275,212.222,-709.707,0,0
246114.6,211.093,-707.825,0,0
246374.925,210.058,-705.839,0,0
246635.25,209.039,-703.831,0,0
246895.575,208.129,-701.757,0,0
247155.9,207.38,-699.644,0,0
247416.225,206.753,-697.542,0,0
247676.55,206.251,-695.588,0,0
247936.875,205.796,-693.784,0,0
248197.2,205.252,-692.076,0,0
248457.525,204.672,-690.387,0,0
248717.85,204.058,-688.687,0,0
248978.175,203.44,-686.927,0,0
249238.5,202.878,-685.179,0,0
249498.825,202.403,-683.43,0,0
249759.15,201.955,-681.783,0,0
250019.475,201.473,-680.188,0,0
250279.8,200.93,-678.612,0,0
250540,200.424,-677.125,0,0
250800,199.844,-675.716,0,0
251061,199.157,-674.319,0,0
251321,198.349,-672.987,0,0
251581,197.381,-671.634,0,0
251842,196.325,-670.133,0,0
252102,195.106,-668.555,0,0
252362,193.796,-666.849,0,0
252623,192.452,-664.902,0,0
252883,191.068,-662.755,0,0
253143,189.751,-660.374,0,0
253404,188.566,-657.8,0,0
253664,187.577,-655.119,0,0
253924,186.741,-652.41,0,0
254185,185.956,-649.687,0,0
254445,185.15,-646.924,0,0
254705,184.4,-644.001,0,0
254966,183.651,-640.937,0,0
255226,183.072,-637.68,0,0
255486,182.61,-634.297,0,0
255747,182.337,-630.69,0,0
256007,182.301,-626.965,0,0
256267,182.641,-623.214,0,0
256528,183.133,-619.443,0,0
256788,183.864,-615.691,0,0
257048,184.833,-611.916,0,0
257309,186.034,-608.142,0,0
257569,187.522,-604.396,0,0
257829,189.234,-600.749,0,0
258090,191.171,-597.262,0,0
258350,193.23,-593.809,0,0
258610,195.557,-590.338,0,0
258871,198.243,-586.963,0,0
259131,201.314,-583.803,0,0
259391,204.655,-581.039,0,0
259651,208.045,-578.663,0,0
259912,211.425,-576.519,0,0
260172,214.71,-574.484,0,0
260432,218.13,-572.53,0,0
260693,221.797,-570.652,0,0
260953,225.713,-569.001,0,0
261213,229.77,-567.714,0,0
261474,233.916,-566.763,0,0
261734,238.031,-566.179,0,0
261994,242.047,-565.806,0,0
262255,245.994,-565.557,0,0
262515,250.096,-565.384,0,0
262775,254.382,-565.47,0,0
263036,258.848,-565.99,0,0
263296,263.311,-566.914,0,0
263556,267.734,-568.305,0,0
263817,271.941,-570.161,0,0
264077,275.901,-572.378,0,0
264337,279.547,-574.852,0,0
264598,283.06,-577.542,0,0
264858,286.307,-580.556,0,0
265118,289.162,-583.787,0,0
265379,291.643,-586.988,0,0
265639,294.062,-590.223,0,0
265899,296.284,-593.636,0,0
266160,298.425,-597.222,0,0
266420,300.217,-601.004,0,0
266680.25,301.761,-604.916,0,0
266940.575,303.008,-608.812,0,0
267200.9,304.158,-612.829,0,0
267461.225,305.126,-617.168,0,0
267721.55,305.638,-621.719,0,0
267981.875,305.706,-626.259,0,0
268242.2,305.433,-630.956,0,0
268502.525,304.713,-635.714,0,0
268762.85,303.369,-640.508,0,0
269023.175,301.291,-645.075,0,0
269283.5,298.71,-649.298,0,0
269543.825,295.599,-652.819,0,0
269804.15,292.254,-655.596,0,0
270064.475,289.16,-657.737,0,0
270324.8,286.342,-659.478,0,0
270585.125,283.733,-661.064,0,0
270845.45,281.358,-662.467,0,0
271105.775,279.125,-663.742,0,0
271366.1,277.078,-665.065,0,0
271626.425,275.129,-666.463,0,0
271886.75,273.21,-667.875,0,0
272147.075,271.301,-669.289,0,0
272407.4,269.481,-670.807,0,0
272667.725,267.534,-672.511,0,0
272928.05,265.371,-674.262,0,0
273188.375,263.086,-675.904,0,0
273448.7,260.732,-677.565,0,0
273709.025,258.311,-679.191,0,0
273969.35,255.656,-680.911,0,0
274229.675,252.789,-682.543,0,0
274490.0,249.765,-684.128,0,0
274750.325,246.383,-685.612,0,0
275010.65,242.693,-686.939,0,0
275270.975,238.785,-687.925,0,0
275531.3,234.729,-688.528,0,0
275791.625,230.701,-688.756,0,0
276051.95,226.656,-688.731,0,0
276312.275,222.661,-688.599,0,0
276572.6,218.502,-688.148,0,0
276832.925,214.22,-687.37,0,0
277093.25,209.967,-686.121,0,0
277353.575,205.811,-684.423,0,0
277613.9,201.895,-682.312,0,0
277874.225,198.254,-679.798,0,0
278134.55,194.928,-677.046,0,0
278394.875,191.972,-673.949,0,0
278655.2,189.508,-670.615,0,0
278915.525,187.582,-667.201,0,0
279175.85,186.165,-663.842,0,0
279436.175,185.242,-660.62,0,0
279696.5,184.631,-657.679,0,0
279956.825,184.44,-654.976,0,0
280217.15,184.384,-652.722,0,0
280477.475,184.41,-650.87,0,0
280737.8,184.323,-649.307,0,0
280998.125,184.069,-647.921,0,0
281258.45,183.664,-646.609,0,0
281518.775,183.115,-645.352,0,0
281779.1,182.467,-643.97,0,0
282039.425,181.861,-642.414,0,0
282299.75,181.385,-640.7,0,0
282560,181.197,-638.981,0,0
282820,181.263,-637.402,0,0
283081,181.467,-636.05,0,0
283341,181.792,-635.007,0,0
283601,182.063,-634.264,0,0
283862,182.136,-633.726,0,0
284122,181.971,-633.34,0,0
284382,181.666,-632.878,0,0
284643,181.207,-632.453,0,0
284903,180.758,-632.037,0,0
285163,180.138,-631.651,0,0
285424,179.376,-631.298,0,0
285684,178.484,-630.853,0,0
285944,177.426,-630.332,0,0
286205,176.176,-629.672,0,0
286465,174.822,-628.727,0,0
286725,173.552,-627.54,0,0
286986,172.402,-626.146,0,0
287246,171.363,-624.757,0,0
287506,170.258,-623.312,0,0
287767,169.122,-621.685,0,0
288027,168.053,-619.794,0,0
288287,167.095,-617.641,0,0
288548,166.34,-615.19,0,0
288808,165.938,-612.538,0,0
289068,165.92,-609.736,0,0
289329,166.383,-606.868,0,0
289589,167.309,-604.128,0,0
289849,168.592,-601.615,0,0
290109,170.25,-599.311,0,0
290370,172.173,-597.374,0,0
290630,174.285,-595.711,0,0
290890,176.558,-594.406,0,0
291151,178.968,-593.401,0,0
291411,181.484,-592.81,0,0
291671,184.056,-592.517,0,0
291932,186.594,-592.684,0,0
292192,189.116,-593.213,0,0
292452,191.504,-594.097,0,0
292713,193.754,-595.438,0,0
292973,195.731,-597.094,0,0
293233,197.414,-599.054,0,0
293494,198.707,-601.25,0,0
293754,199.686,-603.591,0,0
294014,200.363,-606.017,0,0
294275,200.727,-608.54,0,0
294535,200.749,-611.165,0,0
294795,200.384,-613.857,0,0
295056,199.639,-616.486,0,0
295316,198.523,-619.031,0,0
295576,197.058,-621.44,0,0
295837,195.244,-623.616,0,0
296097,193.18,-625.496,0,0
296357,190.893,-627.097,0,0
296618,188.471,-628.355,0,0
296878,186.001,-629.304,0,0
297138,183.596,-629.928,0,0
297399,181.249,-630.313,0,0
297659,178.956,-630.522,0,0
297919,176.739,-630.595,0,0
298180,174.629,-630.489,0,0
298440,172.646,-630.29,0,0
298700.2,170.759,-630.033,0,0
298960.525,168.965,-629.756,0,0
299220.85,167.218,-629.462,0,0
299481.175,165.501,-629.149,0,0
299741.5,163.803,-628.842,0,0
300001.825,162.053,-628.503,0,0
300262.15,160.351,-628.059,0,0
300522.475,158.629,-627.581,0,0
300782.8,156.933,-627.067,0,0
301043.125,155.22,-626.492,0,0
301303.45,153.529,-625.807,0,0
301563.775,151.887,-625.073,0,0
301824.1,150.319,-624.258,0,0
302084.425,148.815,-623.4,0,0
302344.75,147.355,-622.54,0,0
302605.075,145.93,-621.682,0,0
302865.4,144.51,-620.802,0,0
303125.725,143.082,-619.901,0,0
303386.05,141.668,-618.945,0,0
303646.375,140.293,-617.888,0,0
303906.7,138.967,-616.779,0,0
304167.025,137.702,-615.615,0,0
304427.35,136.495,-614.438,0,0
304687.675,135.368,-613.209,0,0
304948.0,134.319,-611.937,0,0
305208.325,133.325,-610.686,0,0
305468.65,132.444,-609.449,0,0
305728.975,131.598,-608.216,0,0
305989.3,130.793,-607.002,0,0
306249.625,130.002,-605.757,0,0
306509.95,129.311,-604.51,0,0
306770.275,128.68,-603.257,0,0
307030.6,128.2,-602.037,0,0
307290.925,127.741,-600.903,0,0
307551.25,127.327,-599.818,0,0
307811.575,126.942,-598.807,0,0
308071.9,126.607,-597.842,0,0
308332.225,126.284,-596.925,0,0
308592.55,125.995,-596.1,0,0
308852.875,125.707,-595.37,0,0
309113.2,125.351,-594.721,0,0
309373.525,124.935,-594.126,0,0
309633.85,124.46,-593.547,0,0
309894.175,123.926,-592.997,0,0
310154.5,123.32,-592.468,0,0
310414.825,122.633,-591.88,0,0
310675.15,121.897,-591.269,0,0
310935.475,121.138,-590.581,0,0
311195.8,120.402,-589.82,0,0
311456.125,119.648,-589.006,0,0
311716.45,118.954,-588.15,0,0
311976.775,118.284,-587.297,0,0
312237.1,117.65,-586.411,0,0
312497.425,117.024,-585.536,0,0
312757.75,116.417,-584.641,0,0
313018.075,115.848,-583.685,0,0
313278.4,115.31,-582.744,0,0
313538.725,114.864,-581.792,0,0
313799.05,114.458,-580.86,0,0
314059.375,114.052,-579.928,0,0
314319.7,113.743,-579.067,0,0
314580,113.426,-578.208,0,0
314840,113.086,-577.44,0,0
315101,112.851,-576.755,0,0
315361,112.502,-575.977,0,0
315621,112.19,-575.26,0,0
315882,112.015,-574.557,0,0
316142,111.722,-573.972,0,0
316402,111.482,-573.315,0,0
316663,111.207,-572.777,0,0
316923,110.97,-572.225,0,0
317183,110.687,-571.701,0,0
317444,110.327,-571.239,0,0
317704,110.118,-570.78,0,0
317964,109.664,-570.408,0,0
318225,109.294,-570,0,0
318485,108.968,-569.669,0,0
318745,108.569,-569.242,0,0
319006,108.192,-569.042,0,0
319266,107.703,-568.771,0,0
319526,107.137,-568.556,0,0
319787,106.508,-568.394,0,0
320047,105.806,-568.211,0,0
320307,105.108,-568.1,0,0
320567,104.298,-567.967,0,0
320828,103.35,-567.736,0,0
321088,102.403,-567.516,0,0
321348,101.302,-567.25,0,0
321609,100.108,-566.912,0,0
321869,98.8354,-566.596,0,0
322129,97.483,-566.142,0,0
322390,96.0225,-565.479,0,0
322650,94.6029,-564.705,0,0
322910,93.1445,-563.774,0,0
323171,91.7405,-562.717,0,0
323431,90.415,-561.413,0,0
323691,89.0936,-560.086,0,0
323952,88.056,-558.674,0,0
324212,87.0655,-557.301,0,0
324472,86.1933,-555.813,0,0
324733,85.4943,-554.389,0,0
324993,84.7297,-552.933,0,0
325253,84.1212,-551.543,0,0
325514,83.491,-550.159,0,0
325774,82.9802,-548.89,0,0
326034,82.3837,-547.579,0,0
326295,81.843,-546.286,0,0
326555,81.317,-544.942,0,0
326815,80.7947,-543.695,0,0
327076,80.2893,-542.294,0,0
327336,79.7549,-540.936,0,0
327596,79.2519,-539.569,0,0
327857,78.8831,-538.128,0,0
328117,78.4754,-536.677,0,0
328377,78.1574,-535.3,0,0
328638,77.8596,-533.823,0,0
328898,77.7091,-532.331,0,0
329158,77.5485,-530.908,0,0
329419,77.4134,-529.454,0,0
329679,77.3933,-527.965,0,0
329939,77.4667,-526.54,0,0
330200,77.5735,-525.153,0,0
330460,77.7791,-523.863,0,0
330720.15,77.9553,-522.616,0,0
330980.475,78.305,-521.445,0,0
331240.8,78.6248,-520.338,0,0
331501.125,78.8689,-519.299,0,0
331761.45,79.2394,-518.298,0,0
332021.775,79.5249,-517.413,0,0
332282.1,79.8649,-516.631,0,0
332542.425,80.2006,-515.831,0,0
332802.75,80.4403,-515.216,0,0
333063.075,80.6465,-514.657,0,0
333323.4,80.7121,-514.085,0,0
333583.725,80.8157,-513.612,0,0
333844.05,80.7743,-513.099,0,0
334104.375,80.6229,-512.633,0,0
334364.7,80.4768,-512.054,0,0
334625.025,80.1865,-511.474,0,0
334885.35,80.0082,-510.898,0,0
335145.675,79.688,-510.31,0,0
335406.0,79.3179,-509.609,0,0
335666.325,78.8991,-508.946,0,0
335926.65,78.5076,-508.173,0,0
336186.975,78.1222,-507.31,0,0
336447.3,77.5521,-506.431,0,0
336707.625,77.1591,-505.426,0,0
336967.95,76.8329,-504.339,0,0
337228.275,76.4457,-503.249,0,0
337488.6,76.1188,-501.994,0,0
337748.925,75.9325,-500.948,0,0
338009.25,75.7768,-499.688,0,0
338269.575,75.6797,-498.496,0,0
338529.9,75.5655,-497.299,0,0
338790.225,75.5173,-496.067,0,0
339050.55,75.4643,-494.781,0,0
339310.875,75.4859,-493.506,0,0
339571.2,75.6763,-492.212,0,0
339831.525,75.7783,-490.904,0,0
340091.85,76.092,-489.564,0,0
340352.175,76.4034,-488.333,0,0
340612.5,76.7797,-486.95,0,0
340872.825,77.2306,-485.743,0,0
341133.15,77.8464,-484.536,0,0
341393.475,78.5126,-483.374,0,0
341653.8,79.2169,-482.262,0,0
341914.125,80.053,-481.253,0,0
342174.45,80.9276,-480.297,0,0
342434.775,81.8585,-479.555,0,0
342695.1,82.8245,-478.886,0,0
342955.425,83.756,-478.427,0,0
343215.75,84.68,-477.95,0,0
343476.075,85.4946,-477.737,0,0
343736.4,86.3052,-477.496,0,0
343996.725,87.0497,-477.436,0,0
344257.05,87.7113,-477.395,0,0
344517.375,88.3136,-477.491,0,0
344777.7,88.8248,-477.505,0,0
345038.025,89.1587,-477.68,0,0
345298.35,89.4983,-477.794,0,0
345558.675,89.7093,-477.9,0,0
345819.0,89.8838,-478.081,0,0
346079.325,89.9249,-478.211,0,0
346339.65,89.9481,-478.311,0,0
346599.975,89.9074,-478.421,0,0
346860,89.7641,-478.508,0,0
347121,89.5942,-478.511,0,0
347381,89.3796,-478.531,0,0
347641,89.1322,-478.495,0,0
347902,88.8106,-478.455,0,0
348162,88.4908,-478.38,0,0
348422,88.0809,-478.212,0,0
348683,87.6542,-478.008,0,0
348943,87.2908,-477.802,0,0
349203,86.845,-477.48,0,0
349464,86.4202,-477.119,0,0
349724,85.9988,-476.757,0,0
349984,85.5507,-476.333,0,0
350245,85.1363,-475.895,0,0
350505,84.7624,-475.448,0,0
350765,84.4087,-474.928,0,0
351025,83.9123,-474.421,0,0
351286,83.5283,-473.865,0,0
351546,83.1284,-473.235,0,0
351806,82.7097,-472.622,0,0
352067,82.341,-471.928,0,0
352327,81.9794,-471.185,0,0
352587,81.6841,-470.436,0,0
352848,81.4919,-469.594,0,0
353108,81.3073,-468.754,0,0
353368,81.2329,-467.946,0,0
353629,81.1344,-467.148,0,0
353889,81.1454,-466.444,0,0
354149,81.2346,-465.667,0,0
354410,81.2824,-465.026,0,0
354670,81.3659,-464.443,0,0
354930,81.4037,-463.903,0,0
355191,81.431,-463.349,0,0
355451,81.3963,-462.813,0,0
355711,81.4549,-462.385,0,0
355972,81.3891,-461.873,0,0
356232,81.3392,-461.412,0,0
356492,81.2594,-460.908,0,0
356753,81.1766,-460.482,0,0
357013,81.0638,-459.994,0,0
357273,80.9409,-459.576,0,0
357534,80.7538,-459.067,0,0
357794,80.5787,-458.634,0,0
358054,80.3412,-458.117,0,0
358315,80.0707,-457.495,0,0
358575,79.837,-456.988,0,0
358835,79.6182,-456.34,0,0
359096,79.3828,-455.646,0,0
359356,79.0981,-454.964,0,0
359616,78.8976,-454.292,0,0
359877,78.7518,-453.518,0,0
360137,78.5378,-452.743,0,0
360397,78.3917,-451.968,0,0
360658,78.2512,-451.134,0,0
360918,78.1743,-450.232,0,0
361178,78.1361,-449.333,0,0
361438,78.2224,-448.461,0,0
361699,78.3336,-447.644,0,0
361959,78.411,-446.797,0,0
362219,78.64,-446.001,0,0
362480,78.7941,-445.277,0,0
362740.1,79.0153,-444.603,0,0
363000.425,79.1756,-443.926,0,0
363260.75,79.3823,-443.337,0,0
363521.075,79.5088,-442.72,0,0
363781.4,79.6354,-442.157,0,0
364041.725,79.7712,-441.585,0,0
364302.05,79.8273,-440.962,0,0
364562.375,79.8536,-440.398,0,0
364822.7,79.8231,-439.76,0,0
365083.025,79.8513,-439.132,0,0
365343.35,79.8036,-438.419,0,0
365603.675,79.7703,-437.67,0,0
365864.0,79.7462,-436.853,0,0
366124.325,79.8548,-435.961,0,0
366384.65,79.9478,-435.035,0,0
366644.975,80.103,-434.094,0,0
366905.3,80.3614,-433.172,0,0
367165.625,80.6575,-432.226,0,0
367425.95,80.9873,-431.309,0,0
367686.275,81.4072,-430.407,0,0
367946.6,81.8556,-429.525,0,0
368206.925,82.378,-428.608,0,0
368467.25,82.974,-427.723,0,0
368727.575,83.5912,-426.93,0,0
368987.9,84.286,-426.086,0,0
369248.225,84.9799,-425.345,0,0
369508.55,85.7986,-424.64,0,0
369768.875,86.5561,-424.002,0,0
370029.2,87.4494,-423.407,0,0
370289.525,88.2558,-422.851,0,0
370549.85,89.2012,-422.271,0,0
370810.175,90.2333,-421.806,0,0
371070.5,91.2989,-421.438,0,0
371330.825,92.4509,-421.226,0,0
371591.15,93.5699,-421.119,0,0
371851.475,94.7044,-421.19,0,0
372111.8,95.7358,-421.29,0,0
372372.125,96.7657,-421.605,0,0
372632.45,97.7338,-421.936,0,0
372892.775,98.6682,-422.443,0,0
373153.1,99.4289,-423.016,0,0
373413.425,100.138,-423.73,0,0
373673.75,100.661,-424.456,0,0
373934.075,101.073,-425.29,0,0
374194.4,101.32,-426.077,0,0
374454.725,101.432,-426.863,0,0
374715.05,101.39,-427.607,0,0
374975.375,101.226,-428.236,0,0
375235.7,100.978,-428.719,0,0
375496.025,100.719,-429.122,0,0
375756.35,100.47,-429.435,0,0
376016.675,100.231,-429.764,0,0
376277.0,99.9551,-429.975,0,0
376537.325,99.7491,-430.194,0,0
376797.65,99.537,-430.366,0,0
377057.975,99.284,-430.519,0,0
377318.3,99.0618,-430.696,0,0
377578.625,98.8304,-430.779,0,0
377838.95,98.6872,-430.982,0,0
378099.275,98.4286,-431.104,0,0
378359.6,98.1798,-431.218,0,0
378619.925,97.8948,-431.354,0,0
378880,97.6089,-431.461,0,0
379141,97.3178,-431.524,0,0
379401,97.009,-431.648,0,0
379661,96.6552,-431.656,0,0
379922,96.3162,-431.69,0,0
380182,95.9915,-431.687,0,0
380442,95.6588,-431.647,0,0
380703,95.2168,-431.573,0,0
380963,94.863,-431.46,0,0
381223,94.5353,-431.258,0,0
381483,94.1905,-430.99,0,0
381744,93.993,-430.711,0,0
382004,93.9566,-430.346,0,0
382264,94.0625,-430.084,0,0
382525,94.1883,-430.015,0,0
382785,94.3861,-430.036,0,0
383045,94.5574,-430.22,0,0
383306,94.6761,-430.553,0,0
383566,94.712,-431.024,0,0
383826,94.5555,-431.621,0,0
384087,94.2297,-432.168,0,0
384347,93.78,-432.819,0,0
384607,93.2097,-433.317,0,0
384868,92.4784,-433.81,0,0
385128,91.6715,-434.22,0,0
385388,90.739,-434.612,0,0
385649,89.7188,-434.871,0,0
385909,88.6296,-435.011,0,0
386169,87.4887,-434.999,0,0
386430,86.3359,-434.871,0,0
386690,85.1175,-434.631,0,0
386950,83.9735,-434.23,0,0
387211,82.886,-433.714,0,0
387471,81.7853,-433.056,0,0
387731,80.8503,-432.298,0,0
387992,79.9381,-431.432,0,0
388252,79.149,-430.433,0,0
388512,78.5239,-429.465,0,0
388773,78.0399,-428.509,0,0
389033,77.6649,-427.464,0,0
389293,77.3624,-426.429,0,0
389554,77.2866,-425.484,0,0
389814,77.3264,-424.595,0,0
390074,77.4336,-423.861,0,0
390335,77.6362,-423.231,0,0
390595,77.8799,-422.732,0,0
390855,78.1074,-422.446,0,0
391116,78.3197,-422.202,0,0
391376,78.4554,-422.196,0,0
391636,78.4858,-422.274,0,0
391896,78.3564,-422.461,0,0
392157,78.1041,-422.68,0,0
392417,77.6608,-422.898,0,0
392677,77.0717,-423.067,0,0
392938,76.4096,-423.173,0,0
393198,75.5895,-423.162,0,0
393458,74.7534,-423.063,0,0
393719,73.8084,-422.82,0,0
393979,72.9182,-422.504,0,0
394239,71.9807,-422.13,0,0
394500,71.0796,-421.63,0,0
394760.05,70.1934,-421.011,0,0
395020.375,69.3328,-420.349,0,0
395280.7,68.5156,-419.587,0,0
395541.025,67.7796,-418.849,0,0
395801.35,67.0728,-417.97,0,0
396061.675,66.4174,-417.093,0,0
396322.0,65.8526,-416.243,0,0
396582.325,65.3509,-415.383,0,0
396842.65,64.8088,-414.559,0,0
397102.975,64.2943,-413.689,0,0
397363.3,63.8489,-412.808,0,0
397623.625,63.3843,-411.894,0,0
397883.95,62.9553,-410.984,0,0
398144.275,62.5028,-410.074,0,0
398404.6,62.1294,-409.162,0,0
398664.925,61.7547,-408.206,0,0
398925.25,61.4243,-407.231,0,0
399185.575,61.0637,-406.216,0,0
399445.9,60.7461,-405.226,0,0
399706.225,60.5367,-404.218,0,0
399966.55,60.3206,-403.193,0,0
400006.6,60.2596,-403.053,0,0