File: Accelerated corrosion test data/2025-10-15_15-08-31/sample_2.csv
Frequency (Hz),Impedance (ohms),Phase (Radians),Temperature (C),Humidity (%)
10000.0,231.241,-11421.1,0,0
10260.325,224.931,-11133.9,0,0
10520.65,219.518,-10860.8,0,0
10780.975,214.679,-10600,0,0
11041.3,209.485,-10352.9,0,0
11301.625,205.007,-10115.4,0,0
11561.95,201.469,-9888.76,0,0
11822.275,199.835,-9679.42,0,0
12082.6,193.984,-9469.02,0,0
12342.925,188.777,-9273.08,0,0
12603.25,184.655,-9081.27,0,0
12863.575,180.941,-8897.86,0,0
13123.9,178.168,-8724.38,0,0
13384.225,174.079,-8553.86,0,0
13644.55,172.172,-8388.54,0,0
13904.875,187.385,-8235.48,0,0
14165.2,167.067,-8090.14,0,0
14425.525,162.307,-7940.76,0,0
14685.8,164.233,-7796.31,0,0
14946.175,160.198,-7666.9,0,0
15206.5,164.414,-7545.83,0,0
15466.825,160.986,-7410.62,0,0
15727.15,152.051,-7297.81,0,0
15987.5,148.924,-7176.42,0,0
16247.8,149.136,-7062.26,0,0
16508.125,143.62,-6952.21,0,0
16768.45,141.436,-6844.2,0,0
17028.775,139.847,-6740.09,0,0
17289.1,138.566,-6639.69,0,0
17549.425,135.015,-6540.65,0,0
17809.75,133.348,-6445.12,0,0
18070.075,131.294,-6352.92,0,0
18330.4,129.743,-6261.87,0,0
18590.725,128.779,-6173.2,0,0
18851.05,127.374,-6087.66,0,0
19111.375,128.698,-6005.73,0,0
19371.7,128.546,-5928.31,0,0
19632.025,123.266,-5850.38,0,0
19892.35,120.755,-5772.55,0,0
20152.675,119.307,-5696.84,0,0
20413.0,118.496,-5622.87,0,0
20673.3,117.822,-5550.14,0,0
20933.65,118.336,-5479.08,0,0
21193.975,123.514,-5411.4,0,0
21454.3,130.118,-5349.85,0,0
21714.625,127.105,-5294.06,0,0
21974.9,121.218,-5229.24,0,0
22235.275,118.931,-5174.64,0,0
22495.6,115.073,-5114.11,0,0
22755.925,111.75,-5053.15,0,0
23016.25,112.562,-4997.84,0,0
23276.6,112.505,-4943.22,0,0
23536.9,108.575,-4889.03,0,0
23797.225,107.189,-4833.66,0,0
24057.55,106.164,-4783,0,0
24317.875,102.392,-4732.16,0,0
24578.2,101.279,-4681.26,0,0
24838.525,100.022,-4630.94,0,0
25098.85,99.1869,-4582.25,0,0
25359.175,97.8339,-4535.24,0,0
25619.5,97.7578,-4488.84,0,0
25879.8,96.0941,-4442.94,0,0
26140.1,96.5821,-4398.52,0,0
26400.5,95.5901,-4354.72,0,0
26660.8,96.2965,-4312.87,0,0
26921.1,95.232,-4271.06,0,0
27181.4,93.9915,-4230.9,0,0
27441.8,91.7853,-4190.61,0,0
27702.1,90.3706,-4150.74,0,0
27962.4,89.9848,-4110.04,0,0
28222.7,89.9234,-4071.94,0,0
28483.1,89.688,-4034.62,0,0
28743.4,89.0645,-3996.72,0,0
29003.7,90.7001,-3959.54,0,0
29264,90.3573,-3923.6,0,0
29524.4,93.2484,-3888.14,0,0
29784.7,96.2047,-3858.84,0,0
30045,92.6443,-3827.28,0,0
30305.3,93.9225,-3794.26,0,0
30565.7,90.8599,-3766.54,0,0
30826,87.9272,-3733.7,0,0
31086.3,86.4041,-3701.85,0,0
31346.6,84.9069,-3670.47,0,0
31607,85.1617,-3639.58,0,0
31867.3,83.0579,-3610.44,0,0
32127.6,81.9516,-3580.05,0,0
32387.9,82.3757,-3549.7,0,0
32648.3,83.2392,-3521.91,0,0
32908.6,82.9308,-3495.56,0,0
33168.9,81.8071,-3468.44,0,0
33429.2,79.7563,-3441.64,0,0
33689.6,79.4813,-3414.86,0,0
33949.9,78.5211,-3388.59,0,0
34210.2,77.0805,-3362.57,0,0
34470.5,76.1891,-3336.61,0,0
34730.9,75.4639,-3310.75,0,0
34991.2,75.1845,-3285.71,0,0
35251.5,74.7403,-3261.33,0,0
35511.8,74.0252,-3236.77,0,0
35772.2,73.7069,-3213.06,0,0
36032.5,72.7487,-3189.64,0,0
36292.8,72.3039,-3166.05,0,0
36553.1,71.8987,-3143.28,0,0
36813.5,71.389,-3120.5,0,0
37073.8,71.0753,-3098.32,0,0
37334.1,70.9022,-3076.1,0,0
37594.4,70.5228,-3054.7,0,0
37854.8,70.3229,-3033.17,0,0
38115.1,69.9105,-3012.56,0,0
38375.4,69.2619,-2991.79,0,0
38635.7,68.6581,-2970.97,0,0
38896.1,68.3902,-2950.92,0,0
39156.4,68.2462,-2930.97,0,0
39416.7,67.614,-2911.26,0,0
39677,67.1166,-2891.62,0,0
39937.4,66.7974,-2872.37,0,0
40197.7,66.7419,-2853.22,0,0
40458,66.0628,-2834.43,0,0
40718.3,66.0907,-2815.72,0,0
40978.7,65.8957,-2797.82,0,0
41239,65.3877,-2779.65,0,0
41499.3,65.5958,-2761.74,0,0
41759.6,65.0794,-2744.3,0,0
42020,64.9262,-2726.65,0,0
42280.275,64.9174,-2709.95,0,0
42540.6,64.2546,-2693.22,0,0
42800.925,63.9416,-2676.28,0,0
43061.25,63.9223,-2659.57,0,0
43321.575,63.3115,-2643.16,0,0
43581.9,63.0157,-2627.11,0,0
43842.225,62.8917,-2611.03,0,0
44102.55,62.72,-2595.28,0,0
44362.875,62.8349,-2579.48,0,0
44623.2,62.4604,-2564.42,0,0
44883.525,61.9164,-2549.03,0,0
45143.85,61.9444,-2533.3,0,0
45404.175,62.0097,-2518.52,0,0
45664.5,61.5348,-2504,0,0
45924.825,61.645,-2489.02,0,0
46185.15,61.6173,-2475.26,0,0
46445.475,61.1869,-2461.28,0,0
46705.8,60.5004,-2446.71,0,0
46966.125,60.7761,-2432.35,0,0
47226.45,60.7729,-2418.64,0,0
47486.775,60.9476,-2405.21,0,0
47747.1,60.2201,-2391.78,0,0
48007.425,60.4695,-2377.99,0,0
48267.75,61.0045,-2364.42,0,0
48528.075,61.506,-2352.77,0,0
48788.4,60.8426,-2340.27,0,0
49048.725,60.5515,-2327.72,0,0
49309.05,59.9404,-2315.57,0,0
49569.375,59.1962,-2303,0,0
49829.7,58.5967,-2290.51,0,0
50090.025,58.3228,-2278.11,0,0
50350.35,57.7425,-2265.9,0,0
50610.675,57.6032,-2253.54,0,0
50871.0,57.6944,-2241.44,0,0
51131.325,57.3966,-2229.91,0,0
51391.65,57.0303,-2218.31,0,0
51651.975,56.6389,-2206.62,0,0
51912.3,56.133,-2195.13,0,0
52172.625,55.6792,-2183.56,0,0
52432.95,55.5886,-2172.15,0,0
52693.275,55.1715,-2160.75,0,0
52953.6,54.9459,-2149.42,0,0
53213.925,54.9719,-2138.33,0,0
53474.25,54.7373,-2127.4,0,0
53734.575,54.4759,-2116.48,0,0
53994.9,54.3411,-2105.63,0,0
54255.225,54.2455,-2094.87,0,0
54515.55,54.3089,-2084.21,0,0
54775.875,54.1788,-2073.9,0,0
55036.2,54.0007,-2063.5,0,0
55296.525,53.9344,-2053.2,0,0
55556.85,53.8239,-2042.73,0,0
55817.175,53.8432,-2032.73,0,0
56077.5,53.7984,-2022.7,0,0
56337.825,53.7555,-2012.84,0,0
56598.15,53.8245,-2002.93,0,0
56858.475,53.6971,-1993.17,0,0
57118.8,53.9189,-1983.4,0,0
57379.125,53.7732,-1973.95,0,0
57639.45,53.9198,-1964.36,0,0
57899.775,54.0204,-1954.96,0,0
58160.1,54.0602,-1945.76,0,0
58420.4,53.877,-1936.61,0,0
58680.7,53.8301,-1927.2,0,0
58941.1,54.1271,-1917.93,0,0
59201.4,54.2186,-1908.93,0,0
59461.7,54.4909,-1899.93,0,0
59722,54.8636,-1890.92,0,0
59982.4,55.4839,-1882.13,0,0
60242.7,56.2588,-1873.88,0,0
60503,56.2714,-1865.84,0,0
60763.3,56.3222,-1857.49,0,0
61023.7,56.5749,-1849.01,0,0
61284,57.1688,-1840.72,0,0
61544.3,58.0414,-1833.02,0,0
61804.6,58.7169,-1825.66,0,0
62065,58.7554,-1819.2,0,0
62325.3,57.983,-1811.76,0,0
62585.6,57.8089,-1804.3,0,0
62845.9,57.6359,-1797.18,0,0
63106.3,56.6404,-1790.5,0,0
63366.6,55.3549,-1782.53,0,0
63626.9,54.8664,-1774.77,0,0
63887.2,54.302,-1767.03,0,0
64147.6,53.8985,-1759.41,0,0
64407.9,53.3189,-1751.88,0,0
64668.2,52.7778,-1744.11,0,0
64928.5,52.3883,-1736.95,0,0
65188.9,51.2812,-1729.29,0,0
65449.2,50.5382,-1721,0,0
65709.5,50.4617,-1712.93,0,0
65969.8,50.713,-1705.15,0,0
66230.2,50.7108,-1697.59,0,0
66490.5,51.0437,-1690.03,0,0
66750.8,51.0464,-1682.88,0,0
67011.1,50.9468,-1675.38,0,0
67271.5,51.3066,-1667.75,0,0
67531.8,51.9024,-1660.59,0,0
67792.1,52.3897,-1653.77,0,0
68052.4,53.2158,-1646.95,0,0
68312.8,53.4952,-1640.68,0,0
68573.1,53.3416,-1633.95,0,0
68833.4,53.9463,-1627.2,0,0
69093.7,54.7821,-1620.92,0,0
69354.1,55.1875,-1615.23,0,0
69614.4,55.3144,-1609.25,0,0
69874.7,55.8517,-1603.82,0,0
70135,55.4578,-1598.48,0,0
70395.4,55.2581,-1593.11,0,0
70655.7,54.1994,-1587.78,0,0
70916,53.0639,-1581.7,0,0
71176.3,52.3931,-1575.54,0,0
71436.7,51.7688,-1569.45,0,0
71697,51.1297,-1563.57,0,0
71957.3,50.0612,-1557.91,0,0
72217.6,48.8561,-1551.65,0,0
72478,47.757,-1544.99,0,0
72738.3,47.0563,-1538.35,0,0
72998.6,46.5299,-1531.63,0,0
73258.9,46.1563,-1525.19,0,0
73519.3,45.6278,-1518.81,0,0
73779.6,45.1577,-1512.17,0,0
74039.9,44.9111,-1505.38,0,0
74300.225,45.0004,-1498.79,0,0
74560.55,45.064,-1492.5,0,0
74820.875,45.115,-1486.11,0,0
75081.2,45.2544,-1479.84,0,0
75341.525,45.47,-1473.55,0,0
75601.85,45.7021,-1467.4,0,0
75862.175,46.0358,-1461.28,0,0
76122.5,46.5019,-1455.28,0,0
76382.825,47.0136,-1449.47,0,0
76643.15,47.3683,-1443.73,0,0
76903.475,47.8054,-1437.97,0,0
77163.8,48.3532,-1432.16,0,0
77424.125,49.1143,-1426.6,0,0
77684.45,49.7716,-1421.26,0,0
77944.775,50.5531,-1415.99,0,0
78205.1,51.2559,-1410.95,0,0
78465.425,52.0268,-1406.06,0,0
78725.75,52.5275,-1401.59,0,0
78986.075,53.0435,-1397.05,0,0
79246.4,53.2447,-1392.71,0,0
79506.725,53.345,-1388.53,0,0
79767.05,53.0678,-1384.38,0,0
80027.375,52.5043,-1380.02,0,0
80287.7,51.7666,-1375.47,0,0
80548.025,51.0607,-1370.56,0,0
80808.35,50.4751,-1365.64,0,0
81068.675,50.0087,-1360.56,0,0
81329.0,49.5337,-1355.46,0,0
81589.325,49.1653,-1350.42,0,0
81849.65,48.8793,-1345.36,0,0
82109.975,48.4774,-1340.21,0,0
82370.3,48.3421,-1335.02,0,0
82630.625,48.1915,-1329.91,0,0
82890.95,48.0826,-1324.76,0,0
83151.275,48.1382,-1319.6,0,0
83411.6,48.2892,-1314.56,0,0
83671.925,48.3937,-1309.59,0,0
83932.25,48.5857,-1304.73,0,0
84192.575,48.8165,-1299.94,0,0
84452.9,49.0398,-1295.25,0,0
84713.225,49.11,-1290.63,0,0
84973.55,49.1817,-1285.91,0,0
85233.875,49.2944,-1281.19,0,0
85494.2,49.5352,-1276.46,0,0
85754.525,49.9557,-1271.88,0,0
86014.85,50.1835,-1267.48,0,0
86275.175,50.3706,-1263.14,0,0
86535.5,50.5281,-1258.86,0,0
86795.825,50.6246,-1254.45,0,0
87056.15,50.7422,-1249.96,0,0
87316.475,51.1101,-1245.73,0,0
87576.8,51.205,-1241.7,0,0
87837.125,51.1933,-1237.5,0,0
88097.45,51.1518,-1233.25,0,0
88357.775,51.256,-1228.94,0,0
88618.1,51.4006,-1224.93,0,0
88878.425,50.9748,-1220.66,0,0
89138.75,51,-1216.05,0,0
89399.075,51.3965,-1211.73,0,0
89659.4,51.5856,-1207.46,0,0
89919.725,51.9769,-1203.36,0,0
90180,52.2318,-1199.61,0,0
90440.4,51.9406,-1196.02,0,0
90700.7,51.4729,-1191.69,0,0
90961,51.4276,-1186.84,0,0
91221.3,52.0998,-1182.47,0,0
91481.7,52.5632,-1178.59,0,0
91742,52.7616,-1174.55,0,0
92002.3,52.9952,-1170.43,0,0
92262.6,53.4157,-1166.31,0,0
92523,54.1654,-1162.47,0,0
92783.3,54.5892,-1158.89,0,0
93043.6,54.8591,-1155.22,0,0
93303.9,55.3585,-1151.51,0,0
93564.3,55.9224,-1148.12,0,0
93824.6,56.3163,-1144.99,0,0
94084.9,56.2344,-1142,0,0
94345.2,55.8566,-1138.78,0,0
94605.6,55.3464,-1134.97,0,0
94865.9,55.5438,-1131.25,0,0
95126.2,55.3977,-1128.06,0,0
95386.5,54.6141,-1124.4,0,0
95646.9,54.2805,-1120.08,0,0
95907.2,54.4475,-1115.63,0,0
96167.5,55.3472,-1111.43,0,0
96427.8,56.2483,-1107.99,0,0
96688.2,56.8582,-1104.77,0,0
96948.5,57.3988,-1101.55,0,0
97208.8,58.0867,-1098.54,0,0
97469.1,58.5322,-1096.02,0,0
97729.5,58.3272,-1093.54,0,0
97989.8,58.0417,-1090.73,0,0
98250.1,57.8018,-1087.74,0,0
98510.4,57.6652,-1084.97,0,0
98770.8,57.2385,-1082.31,0,0
99031.1,56.5258,-1079.5,0,0
99291.4,55.6962,-1076.69,0,0
99551.7,54.5718,-1073.66,0,0
99812.1,53.3243,-1070.09,0,0
100072,52.5704,-1066.14,0,0
100333,52.3593,-1062.38,0,0
100593,52.0737,-1059.13,0,0
100853,51.3362,-1055.98,0,0
101114,50.4742,-1052.52,0,0
101374,49.5733,-1049.04,0,0
101634,48.401,-1045.25,0,0
101895,47.5064,-1040.94,0,0
102155,47.0525,-1036.54,0,0
102415,46.8647,-1032.32,0,0
102676,46.6119,-1028.41,0,0
102936,46.1977,-1024.3,0,0
103196,45.9169,-1019.95,0,0
103457,45.8834,-1015.6,0,0
103717,46.0686,-1011.23,0,0
103977,46.4175,-1006.96,0,0
104238,46.9091,-1002.69,0,0
104498,47.6371,-998.543,0,0
104758,48.504,-994.636,0,0
105019,49.4109,-991,0,0
105279,50.0989,-987.451,0,0
105539,50.9153,-983.787,0,0
105800,51.966,-980.265,0,0
106060,53.0556,-977.067,0,0
106320.175,54.097,-974.021,0,0
106580.5,55.2003,-971.207,0,0
106840.825,56.2065,-968.643,0,0
107101.15,56.9392,-966.391,0,0
107361.475,57.4386,-964.193,0,0
107621.8,57.6296,-962.137,0,0
107882.125,57.5798,-959.869,0,0
108142.45,57.4324,-957.665,0,0
108402.775,56.8391,-955.278,0,0
108663.1,56.3736,-952.593,0,0
108923.425,55.9341,-949.893,0,0
109183.75,55.2783,-947.148,0,0
109444.075,54.5931,-944.153,0,0
109704.4,54.0467,-941.145,0,0
109964.725,53.4061,-937.908,0,0
110225.05,52.7655,-934.567,0,0
110485.375,52.1855,-931.075,0,0
110745.7,51.8229,-927.359,0,0
111006.025,51.6717,-923.786,0,0
111266.35,51.6316,-920.029,0,0
111526.675,51.8026,-916.68,0,0
111787.0,51.6277,-913.225,0,0
112047.325,51.6793,-909.511,0,0
112307.65,51.9485,-906.16,0,0
112567.975,52.0475,-902.759,0,0
112828.3,52.2295,-899.231,0,0
113088.625,52.5403,-895.725,0,0
113348.95,52.7346,-892.25,0,0
113609.275,53.2016,-888.789,0,0
113869.6,53.6002,-885.469,0,0
114129.925,53.9125,-882.069,0,0
114390.25,54.4382,-878.708,0,0
114650.575,54.8844,-875.404,0,0
114910.9,55.455,-872.075,0,0
115171.225,56.1112,-868.745,0,0
115431.55,56.8492,-865.601,0,0
115691.875,57.4902,-862.538,0,0
115952.2,58.1104,-859.451,0,0
116212.525,58.8398,-856.315,0,0
116472.85,59.5973,-853.341,0,0
116733.175,60.4172,-850.414,0,0
116993.5,61.1814,-847.577,0,0
117253.825,61.8653,-844.783,0,0
117514.15,62.6376,-841.909,0,0
117774.475,63.4878,-839.144,0,0
118034.8,64.4506,-836.535,0,0
118295.125,65.2758,-834.132,0,0
118555.45,65.8933,-831.71,0,0
118815.775,66.6214,-829.222,0,0
119076.1,67.3866,-826.945,0,0
119336.425,67.9583,-824.777,0,0
119596.75,68.5251,-822.493,0,0
119857.075,69.0305,-820.393,0,0
120117.4,69.482,-818.324,0,0
120377.725,69.7487,-816.296,0,0
120638.05,69.9045,-814.286,0,0
120898.375,69.9342,-812.272,0,0
121158.7,69.7583,-810.145,0,0
121419.025,69.5718,-807.795,0,0
121679.35,69.4665,-805.459,0,0
121939.675,69.2936,-803.095,0,0
122200.0,69.0617,-800.665,0,0
122460,68.8048,-798.066,0,0
122721,68.6357,-795.398,0,0
122981,68.5103,-792.74,0,0
123241,68.3802,-790.061,0,0
123502,68.3014,-787.356,0,0
123762,68.1732,-784.698,0,0
124022,68.0048,-781.921,0,0
124283,67.8838,-779.052,0,0
124543,67.7961,-776.186,0,0
124803,67.7465,-773.253,0,0
125064,67.6798,-770.264,0,0
125324,67.7697,-767.22,0,0
125584,67.9121,-764.214,0,0
125845,68.0663,-761.188,0,0
126105,68.278,-758.171,0,0
126365,68.5355,-755.124,0,0
126626,68.8934,-752.121,0,0
126886,69.2103,-749.108,0,0
127146,69.6524,-746.066,0,0
127406,70.1663,-743.073,0,0
127667,70.7384,-740.122,0,0
127927,71.3931,-737.304,0,0
128187,71.9749,-734.545,0,0
128448,72.5702,-731.836,0,0
128708,73.1532,-729.152,0,0
128968,73.7407,-726.494,0,0
129229,74.2921,-723.953,0,0
129489,74.7763,-721.449,0,0
129749,75.1609,-718.895,0,0
130010,75.531,-716.203,0,0
130270,76.014,-713.501,0,0
130530,76.5428,-710.885,0,0
130791,77.0888,-708.314,0,0
131051,77.6204,-705.834,0,0
131311,78.0451,-703.436,0,0
131572,78.3892,-701.015,0,0
131832,78.6601,-698.537,0,0
132092,78.8463,-696.055,0,0
132353,78.9908,-693.502,0,0
132613,79.0855,-690.765,0,0
132873,79.3001,-687.943,0,0
133134,79.6051,-685.152,0,0
133394,79.9297,-682.33,0,0
133654,80.2889,-679.525,0,0
133915,80.6556,-676.785,0,0
134175,80.9519,-674.058,0,0
134435,81.1675,-671.29,0,0
134696,81.4059,-668.344,0,0
134956,81.7217,-665.351,0,0
135216,82.0964,-662.369,0,0
135477,82.4895,-659.266,0,0
135737,83.0303,-656.215,0,0
135997,83.6142,-653.216,0,0
136258,84.1865,-650.207,0,0
136518,84.8412,-647.206,0,0
136778,85.4782,-644.272,0,0
137039,86.009,-641.274,0,0
137299,86.5936,-638.208,0,0
137559,87.2831,-635.12,0,0
137819,88.05,-632.072,0,0
138080,88.842,-629.148,0,0
138340.125,89.4667,-626.254,0,0
138600.45,90.051,-623.235,0,0
138860.775,90.6453,-620.085,0,0
139121.1,91.3391,-616.921,0,0
139381.425,92.0737,-613.746,0,0
139641.75,92.7663,-610.616,0,0
139902.075,93.3292,-607.357,0,0
140162.4,93.9198,-603.853,0,0
140422.725,94.6745,-600.148,0,0
140683.05,95.6814,-596.314,0,0
140943.375,96.8947,-592.542,0,0
141203.7,98.2167,-588.73,0,0
141464.025,99.7959,-584.896,0,0
141724.35,101.555,-581.234,0,0
141984.675,103.397,-577.636,0,0
142245.0,105.371,-574.116,0,0
142505.325,107.467,-570.742,0,0
142765.65,109.565,-567.501,0,0
143025.975,111.736,-564.37,0,0
143286.3,113.83,-561.35,0,0
143546.625,115.845,-558.283,0,0
143806.95,117.974,-555.168,0,0
144067.275,120.191,-552.133,0,0
144327.6,122.429,-549.161,0,0
144587.925,124.603,-546.241,0,0
144848.25,126.778,-543.115,0,0
145108.575,129.254,-539.917,0,0
145368.9,131.906,-536.919,0,0
145629.225,134.574,-534.031,0,0
145889.55,137.318,-531.256,0,0
146149.875,140.009,-528.514,0,0
146410.2,142.761,-525.722,0,0
146670.525,145.665,-522.961,0,0
146930.85,148.659,-520.277,0,0
147191.175,151.644,-517.603,0,0
147451.5,154.833,-514.822,0,0
147711.825,158.29,-512.19,0,0
147972.15,161.799,-509.719,0,0
148232.475,165.37,-507.222,0,0
148492.8,169.229,-504.698,0,0
148753.125,173.367,-502.33,0,0
149013.45,177.818,-500.053,0,0
149273.775,182.767,-498.056,0,0
149534.1,188.028,-496.681,0,0
149794.425,193.327,-495.875,0,0
150054.75,198.599,-495.5,0,0
150315.075,203.963,-495.497,0,0
150575.4,209.575,-496.176,0,0
150835.725,214.92,-497.934,0,0
151096.05,219.419,-500.357,0,0
151356.375,223.191,-502.832,0,0
151616.7,226.704,-505.369,0,0
151877.025,229.907,-508.378,0,0
152137.35,232.329,-511.689,0,0
152397.675,234.05,-514.902,0,0
152658.0,235.227,-518.005,0,0
152918.325,235.889,-520.83,0,0
153178.65,236.321,-523.33,0,0
153438.975,236.608,-525.779,0,0
153699.3,236.399,-528.302,0,0
153959.625,235.615,-530.497,0,0
154219.95,234.424,-532.156,0,0
154480,233.111,-533.199,0,0
154741,232.013,-533.905,0,0
155001,230.976,-534.336,0,0
155261,229.916,-534.56,0,0
155522,229.256,-534.648,0,0
155782,228.443,-534.835,0,0
156042,227.431,-535.048,0,0
156303,226.132,-534.953,0,0
156563,224.906,-534.394,0,0
156823,223.769,-533.821,0,0
157084,222.563,-533.125,0,0
157344,221.05,-531.935,0,0
157604,219.964,-530.137,0,0
157864,219.465,-528.096,0,0
158125,219.282,-526.508,0,0
158385,219.129,-524.814,0,0
158645,219.294,-522.968,0,0
158906,219.745,-521.416,0,0
159166,220.303,-520.046,0,0
159426,220.664,-518.945,0,0
159687,220.956,-517.844,0,0
159947,221.287,-516.707,0,0
160207,221.608,-515.632,0,0
160468,221.923,-514.641,0,0
160728,221.879,-513.491,0,0
160988,221.97,-512.007,0,0
161249,222.645,-509.985,0,0
161509,224.163,-508.408,0,0
161769,225.94,-507.538,0,0
162030,227.855,-507.298,0,0
162290,229.703,-508.171,0,0
162550,230.488,-509.946,0,0
162811,230.179,-511.68,0,0
163071,229.128,-513.086,0,0
163331,227.515,-514.271,0,0
163592,225.363,-514.784,0,0
163852,223.007,-514.858,0,0
164112,220.464,-514.75,0,0
164373,217.547,-514.09,0,0
164633,214.716,-512.787,0,0
164893,211.861,-511.124,0,0
165154,209.103,-509.201,0,0
165414,206.264,-506.861,0,0
165674,203.46,-503.988,0,0
165935,201.009,-500.467,0,0
166195,199.132,-496.897,0,0
166455,197.384,-493.362,0,0
166716,195.634,-489.54,0,0
166976,194.328,-485.42,0,0
167236,193.415,-481.282,0,0
167497,192.443,-477.456,0,0
167757,191.434,-473.299,0,0
168017,190.669,-468.873,0,0
168277,190.222,-464.238,0,0
168538,190.178,-459.6,0,0
168798,190.404,-455.091,0,0
169058,190.797,-450.842,0,0
169319,191.069,-446.685,0,0
169579,191.082,-442.217,0,0
169839,191.561,-437.318,0,0
170100,192.636,-432.58,0,0
170360.075,193.839,-428.207,0,0
170620.4,194.8,-424.152,0,0
170880.725,195.414,-419.866,0,0
171141.05,196.198,-414.992,0,0
171401.375,197.47,-409.973,0,0
171661.7,199.068,-405.082,0,0
171922.025,200.836,-400.249,0,0
172182.35,202.759,-395.568,0,0
172442.675,204.671,-390.825,0,0
172703.0,206.816,-385.936,0,0
172963.325,209.276,-381.171,0,0
173223.65,211.761,-376.544,0,0
173483.975,214.134,-371.825,0,0
173744.3,216.722,-366.822,0,0
174004.625,219.742,-361.741,0,0
174264.95,222.978,-356.697,0,0
174525.275,226.656,-351.587,0,0
174785.6,230.743,-346.552,0,0
175045.925,235.282,-341.836,0,0
175306.25,239.975,-337.392,0,0
175566.575,245.081,-333.103,0,0
175826.9,250.546,-329.261,0,0
176087.225,256.194,-326.09,0,0
176347.55,261.63,-323.43,0,0
176607.875,266.816,-321.092,0,0
176868.2,271.719,-318.678,0,0
177128.525,276.732,-316.002,0,0
177388.85,282.413,-313.54,0,0
177649.175,288.613,-311.721,0,0
177909.5,294.668,-310.99,0,0
178169.825,300.098,-311.034,0,0
178430.15,304.73,-311.221,0,0
178690.475,309.181,-311.315,0,0
178950.8,313.369,-311.901,0,0
179211.125,316.73,-312.7,0,0
179471.45,319.481,-312.107,0,0
179731.775,322.07,-313.01,0,0
179992.1,323.477,-313.473,0,0
180252.425,324.295,-313.145,0,0
180512.75,324.95,-311.764,0,0
180773.075,325.773,-309.813,0,0
181033.4,326.522,-307.436,0,0
181293.725,327.249,-304.116,0,0
181554.05,328.648,-299.952,0,0
181814.375,330.948,-295.395,0,0
182074.7,334.028,-290.774,0,0
182335.025,337.756,-286.74,0,0
182595.35,341.339,-283.153,0,0
182855.675,344.548,-279.291,0,0
183116.0,347.877,-274.892,0,0
183376.325,351.876,-269.924,0,0
183636.65,356.749,-264.962,0,0
183896.975,362.065,-260.447,0,0
184157.3,367.451,-256.019,0,0
184417.625,373.194,-251.4,0,0
184677.95,379.654,-246.803,0,0
184938.275,386.862,-242.697,0,0
185198.6,394.221,-239.249,0,0
185458.925,401.504,-236.175,0,0
185719.25,408.842,-233.262,0,0
185979.575,416.267,-230.51,0,0
186239.9,424.022,-227.8,0,0
186500,432.012,-225.593,0,0
186761,439.902,-223.966,0,0
187021,447.235,-222.157,0,0
187281,455.104,-219.757,0,0
187542,463.75,-217.697,0,0
187802,472.713,-216.287,0,0
188062,481.514,-215.471,0,0
188322,490.21,-214.777,0,0
188583,499.149,-214.319,0,0
188843,507.917,-214.748,0,0
189103,515.94,-215.238,0,0
189364,523.431,-214.964,0,0
189624,531.354,-214.215,0,0
189884,539.675,-213.28,0,0
190145,548.701,-212.31,0,0
190405,558.16,-211.436,0,0
190665,567.874,-210.904,0,0
190926,577.789,-210.262,0,0
191186,588.296,-209.417,0,0
191446,599.949,-208.753,0,0
191707,612.311,-208.988,0,0
191967,625.01,-209.779,0,0
192227,638.294,-211.188,0,0
192488,651.946,-213.341,0,0
192748,666.007,-216.096,0,0
193008,680.766,-219.655,0,0
193269,696.201,-224.54,0,0
193529,711.708,-231.099,0,0
193789,726.822,-239.145,0,0
194050,741.271,-248.608,0,0
194310,754.644,-259.086,0,0
194570,767.061,-269.977,0,0
194831,778.965,-281.295,0,0
195091,790.323,-293.337,0,0
195351,800.819,-306.014,0,0
195612,810.307,-318.909,0,0
195872,819.116,-331.68,0,0
196132,827.616,-344.521,0,0
196393,835.855,-357.733,0,0
196653,843.395,-371.213,0,0
196913,850.403,-384.58,0,0
197174,857.396,-397.91,0,0
197434,864.469,-411.611,0,0
197694,871.516,-425.949,0,0
197955,878.328,-441.157,0,0
198215,884.592,-457.464,0,0
198475,889.682,-474.759,0,0
198735,893.272,-492.634,0,0
198996,895.354,-510.3,0,0
199256,896.227,-527.529,0,0
199516,896.514,-544.093,0,0
199777,896.609,-560.123,0,0
200037,896.776,-576.477,0,0
200297,896.5,-593.193,0,0
200558,895.452,-610.523,0,0
200818,893.374,-628.184,0,0
201078,890.422,-646.274,0,0
201339,885.526,-664.592,0,0
201599,878.649,-682.015,0,0
201859,870.691,-697.85,0,0
202120,862.722,-712.487,0,0
202380.025,854.878,-726.763,0,0
202640.35,846.469,-741.086,0,0
202900.675,836.741,-755.058,0,0
203161.0,825.974,-767.923,0,0
203421.325,814.994,-779.404,0,0
203681.65,803.884,-789.582,0,0
203941.975,793.229,-799.219,0,0
204202.3,782.808,-808.603,0,0
204462.625,772.136,-817.39,0,0
204722.95,761.544,-825.787,0,0
204983.275,750.893,-834.438,0,0
205243.6,739.24,-843.086,0,0
205503.925,726.235,-850.87,0,0
205764.25,712.47,-856.65,0,0
206024.575,699.36,-860.719,0,0
206284.9,687.186,-863.629,0,0
206545.225,675.703,-866.283,0,0
206805.55,664.547,-868.344,0,0
207065.875,653.832,-869.942,0,0
207326.2,643.571,-870.861,0,0
207586.525,634.068,-871.341,0,0
207846.85,625.292,-871.532,0,0
208107.175,617.341,-871.702,0,0
208367.5,610.133,-872.14,0,0
208627.825,603.203,-872.865,0,0
208888.15,596.649,-873.793,0,0
209148.475,590.519,-875.318,0,0
209408.8,584.239,-877.626,0,0
209669.125,577.393,-880.44,0,0
209929.45,569.567,-883.207,0,0
210189.775,561.064,-885.506,0,0
210450.1,552.741,-887.185,0,0
210710.425,544.06,-888.554,0,0
210970.75,535.328,-889.585,0,0
211231.075,526.217,-890.21,0,0
211491.4,517.042,-890.094,0,0
211751.725,507.767,-889.224,0,0
212012.05,498.954,-887.287,0,0
212272.375,491.076,-884.833,0,0
212532.7,483.859,-882.546,0,0
212793.025,476.919,-880.204,0,0
213053.35,470.198,-877.769,0,0
213313.675,463.739,-875.21,0,0
213574.0,457.564,-872.491,0,0
213834.325,451.733,-869.597,0,0
214094.65,446.292,-866.779,0,0
214354.975,441.08,-864.045,0,0
214615.3,436.021,-861.204,0,0
214875.625,431.359,-858.374,0,0
215135.95,426.671,-855.67,0,0
215396.275,422.082,-853,0,0
215656.6,417.581,-850.1,0,0
215916.925,413.325,-846.935,0,0
216177.25,409.442,-843.79,0,0
216437.575,405.738,-840.772,0,0
216697.9,402.291,-837.71,0,0
216958.225,399.091,-834.722,0,0
217218.55,395.955,-831.663,0,0
217478.875,393.136,-828.664,0,0
217739.2,390.588,-825.776,0,0
217999.525,388.084,-823.019,0,0
218259.85,385.636,-820.385,0,0
218520,383.259,-817.645,0,0
218780,381.106,-814.839,0,0
219041,379.214,-812.013,0,0
219301,377.524,-809.367,0,0
219561,376.087,-806.754,0,0
219822,374.905,-804.333,0,0
220082,373.755,-802.204,0,0
220342,372.527,-800.167,0,0
220603,371.371,-798.268,0,0
220863,370.163,-796.232,0,0
221123,369.252,-794.122,0,0
221384,368.659,-792.137,0,0
221644,368.18,-790.432,0,0
221904,367.824,-788.829,0,0
222165,367.643,-787.362,0,0
222425,367.67,-786.193,0,0
222685,367.725,-785.332,0,0
222946,367.729,-784.935,0,0
223206,367.489,-784.771,0,0
223466,367.123,-784.868,0,0
223727,366.419,-784.872,0,0
223987,365.598,-784.693,0,0
224247,365.004,-784.635,0,0
224508,364.398,-784.757,0,0
224768,363.444,-785.011,0,0
225028,362.275,-785.263,0,0
225289,361.182,-785.362,0,0
225549,360.022,-785.185,0,0
225809,359.004,-784.973,0,0
226070,358.283,-784.754,0,0
226330,357.632,-784.702,0,0
226590,357.133,-784.673,0,0
226851,356.743,-784.852,0,0
227111,356.561,-785.289,0,0
227371,356.172,-786.103,0,0
227632,355.754,-787.033,0,0
227892,355.26,-788.149,0,0
228152,354.786,-789.486,0,0
228413,354.125,-791.168,0,0
228673,353.186,-793.082,0,0
228933,351.971,-795.165,0,0
229193,350.406,-797.341,0,0
229454,348.467,-799.531,0,0
229714,346.272,-801.731,0,0
229974,343.741,-803.828,0,0
230235,341.002,-805.77,0,0
230495,338.01,-807.468,0,0
230755,334.822,-809.062,0,0
231016,331.543,-810.451,0,0
231276,328.135,-811.636,0,0
231536,324.738,-812.685,0,0
231797,321.329,-813.583,0,0
232057,317.902,-814.43,0,0
232317,314.36,-815.165,0,0
232578,310.67,-815.784,0,0
232838,306.929,-816.266,0,0
233098,303.181,-816.533,0,0
233359,299.395,-816.656,0,0
233619,295.617,-816.608,0,0
233879,291.869,-816.41,0,0
234140,288.217,-816.179,0,0
234400,284.488,-815.841,0,0
234660.3,280.78,-815.321,0,0
234920.625,277.205,-814.727,0,0
235180.95,273.655,-813.983,0,0
235441.275,270.176,-813.231,0,0
235701.6,266.616,-812.422,0,0
235961.925,263.167,-811.552,0,0
236222.25,259.677,-810.667,0,0
236482.575,256.301,-809.71,0,0
236742.9,252.86,-808.649,0,0
237003.225,249.398,-807.498,0,0
237263.55,245.911,-806.219,0,0
237523.875,242.529,-804.856,0,0
237784.2,239.181,-803.372,0,0
238044.525,235.847,-801.768,0,0
238304.85,232.701,-800.029,0,0
238565.175,229.593,-798.287,0,0
238825.5,226.562,-796.523,0,0
239085.825,223.678,-794.654,0,0
239346.15,220.821,-792.867,0,0
239606.475,217.94,-790.802,0,0
239866.8,215.19,-788.878,0,0
240127.125,212.64,-786.816,0,0
240387.45,210.104,-784.706,0,0
240647.775,207.641,-782.58,0,0
240908.1,205.319,-780.575,0,0
241168.425,203.053,-778.507,0,0
241428.75,200.782,-776.492,0,0
241689.075,198.553,-774.507,0,0
241949.4,196.312,-772.419,0,0
242209.725,194.202,-770.274,0,0
242470.05,192.229,-768.047,0,0
242730.375,190.424,-765.933,0,0
242990.7,188.718,-763.957,0,0
243251.025,187.02,-761.982,0,0
243511.35,185.357,-760.225,0,0
243771.675,183.665,-758.497,0,0
244032.0,181.907,-756.694,0,0
244292.325,180.157,-754.981,0,0
244552.65,178.412,-753.302,0,0
244812.975,176.654,-751.672,0,0
245073.3,174.96,-749.98,0,0
245333.625,173.194,-748.492,0,0
245593.95,171.319,-746.968,0,0
245854.275,169.443,-745.509,0,0
246114.6,167.395,-744.087,0,0
246374.925,165.232,-742.635,0,0
246635.25,162.824,-741.201,0,0
246895.575,160.322,-739.489,0,0
247155.9,157.775,-737.554,0,0
247416.225,155.212,-735.424,0,0
247676.55,152.727,-733.116,0,0
247936.875,150.321,-730.665,0,0
248197.2,147.894,-728.042,0,0
248457.525,145.758,-725.404,0,0
248717.85,143.69,-722.598,0,0
248978.175,141.617,-719.787,0,0
249238.5,139.679,-716.934,0,0
249498.825,137.815,-714.007,0,0
249759.15,136.012,-710.951,0,0
250019.475,134.275,-707.91,0,0
250279.8,132.749,-704.798,0,0
250540,131.145,-701.618,0,0
250800,129.737,-698.335,0,0
251061,128.412,-694.968,0,0
251321,127.342,-691.544,0,0
251581,126.36,-688.113,0,0
251842,125.563,-684.681,0,0
252102,124.959,-681.317,0,0
252362,124.459,-678.027,0,0
252623,124.023,-674.791,0,0
252883,123.702,-671.65,0,0
253143,123.407,-668.502,0,0
253404,123.161,-665.433,0,0
253664,122.987,-662.367,0,0
253924,122.851,-659.321,0,0
254185,122.713,-656.319,0,0
254445,122.708,-653.258,0,0
254705,122.686,-650.239,0,0
254966,122.734,-647.195,0,0
255226,122.916,-644.059,0,0
255486,123.196,-640.915,0,0
255747,123.635,-637.737,0,0
256007,124.226,-634.632,0,0
256267,125.041,-631.621,0,0
256528,125.981,-628.693,0,0
256788,126.998,-625.886,0,0
257048,128.11,-623.216,0,0
257309,129.278,-620.687,0,0
257569,130.462,-618.232,0,0
257829,131.647,-615.894,0,0
258090,132.906,-613.574,0,0
258350,134.149,-611.379,0,0
258610,135.443,-609.242,0,0
258871,136.727,-607.124,0,0
259131,138.079,-605.044,0,0
259391,139.481,-603.005,0,0
259651,141.008,-601.012,0,0
259912,142.633,-599.08,0,0
260172,144.312,-597.299,0,0
260432,146.082,-595.628,0,0
260693,147.91,-594.147,0,0
260953,149.746,-592.741,0,0
261213,151.593,-591.529,0,0
261474,153.412,-590.384,0,0
261734,155.243,-589.379,0,0
261994,157.067,-588.472,0,0
262255,158.852,-587.668,0,0
262515,160.652,-586.997,0,0
262775,162.447,-586.438,0,0
263036,164.221,-586.026,0,0
263296,165.908,-585.736,0,0
263556,167.472,-585.61,0,0
263817,169.009,-585.499,0,0
264077,170.429,-585.519,0,0
264337,171.837,-585.577,0,0
264598,173.104,-585.78,0,0
264858,174.285,-586.032,0,0
265118,175.389,-586.357,0,0
265379,176.3,-586.685,0,0
265639,177.083,-587.063,0,0
265899,177.743,-587.444,0,0
266160,178.314,-587.717,0,0
266420,178.802,-587.954,0,0
266680.25,179.275,-588.203,0,0
266940.575,179.691,-588.418,0,0
267200.9,180.063,-588.63,0,0
267461.225,180.33,-588.788,0,0
267721.55,180.574,-588.97,0,0
267981.875,180.733,-589.119,0,0
268242.2,180.81,-589.216,0,0
268502.525,180.804,-589.251,0,0
268762.85,180.736,-589.161,0,0
269023.175,180.636,-589.03,0,0
269283.5,180.5,-588.719,0,0
269543.825,180.357,-588.231,0,0
269804.15,180.33,-587.674,0,0
270064.475,180.343,-586.898,0,0
270324.8,180.499,-586.123,0,0
270585.125,180.697,-585.18,0,0
270845.45,181.203,-584.17,0,0
271105.775,181.837,-583.118,0,0
271366.1,182.684,-582.183,0,0
271626.425,183.707,-581.354,0,0
271886.75,184.788,-580.515,0,0
272147.075,185.991,-579.822,0,0
272407.4,187.333,-579.076,0,0
272667.725,188.796,-578.448,0,0
272928.05,190.526,-577.902,0,0
273188.375,192.448,-577.513,0,0
273448.7,194.473,-577.377,0,0
273709.025,196.63,-577.435,0,0
273969.35,198.894,-577.728,0,0
274229.675,201.353,-578.226,0,0
274490.0,203.895,-579.123,0,0
274750.325,206.532,-580.439,0,0
275010.65,209.155,-582.22,0,0
275270.975,211.611,-584.568,0,0
275531.3,213.779,-587.355,0,0
275791.625,215.565,-590.598,0,0
276051.95,216.842,-594.164,0,0
276312.275,217.622,-597.953,0,0
276572.6,217.745,-601.856,0,0
276832.925,217.261,-605.67,0,0
277093.25,216.292,-609.3,0,0
277353.575,214.968,-612.624,0,0
277613.9,213.33,-615.699,0,0
277874.225,211.479,-618.525,0,0
278134.55,209.46,-621.067,0,0
278394.875,207.315,-623.394,0,0
278655.2,205.095,-625.483,0,0
278915.525,202.738,-627.462,0,0
279175.85,200.325,-629.21,0,0
279436.175,197.817,-630.779,0,0
279696.5,195.311,-632.213,0,0
279956.825,192.646,-633.428,0,0
280217.15,189.96,-634.536,0,0
280477.475,187.215,-635.403,0,0
280737.8,184.523,-636.019,0,0
280998.125,181.904,-636.532,0,0
281258.45,179.376,-636.918,0,0
281518.775,176.887,-637.352,0,0
281779.1,174.327,-637.755,0,0
282039.425,171.639,-638.144,0,0
282299.75,168.808,-638.383,0,0
282560,165.853,-638.465,0,0
282820,162.785,-638.252,0,0
283081,159.67,-637.745,0,0
283341,156.713,-636.871,0,0
283601,153.976,-635.711,0,0
283862,151.542,-634.377,0,0
284122,149.448,-633.132,0,0
284382,147.559,-632.053,0,0
284643,145.706,-631.254,0,0
284903,143.645,-630.599,0,0
285163,141.389,-629.937,0,0
285424,138.816,-629.185,0,0
285684,136.117,-628.144,0,0
285944,133.26,-626.882,0,0
286205,130.341,-625.246,0,0
286465,127.457,-623.267,0,0
286725,124.712,-620.866,0,0
286986,122.209,-618.131,0,0
287246,120.009,-615.188,0,0
287506,118.08,-612.062,0,0
287767,116.396,-608.757,0,0
288027,115.046,-605.334,0,0
288287,113.947,-601.774,0,0
288548,113.164,-598.091,0,0
288808,112.743,-594.263,0,0
289068,112.785,-590.318,0,0
289329,113.326,-586.418,0,0
289589,114.394,-582.695,0,0
289849,115.927,-579.207,0,0
290109,117.791,-576.091,0,0
290370,119.978,-573.262,0,0
290630,122.436,-570.739,0,0
290890,125.189,-568.649,0,0
291151,128.199,-567.027,0,0
291411,131.353,-565.915,0,0
291671,134.551,-565.348,0,0
291932,137.719,-565.434,0,0
292192,140.695,-566.092,0,0
292452,143.391,-567.31,0,0
292713,145.615,-569.065,0,0
292973,147.18,-571.148,0,0
293233,148.114,-573.334,0,0
293494,148.448,-575.457,0,0
293754,148.25,-577.37,0,0
294014,147.66,-578.984,0,0
294275,146.792,-580.176,0,0
294535,145.837,-580.933,0,0
294795,144.943,-581.28,0,0
295056,144.243,-581.292,0,0
295316,143.798,-581.131,0,0
295576,143.671,-580.876,0,0
295837,143.932,-580.643,0,0
296097,144.595,-580.639,0,0
296357,145.585,-581.146,0,0
296618,146.548,-582.286,0,0
296878,147.171,-584.031,0,0
297138,147.235,-586.094,0,0
297399,146.681,-588.273,0,0
297659,145.575,-590.298,0,0
297919,144.058,-592.058,0,0
298180,142.282,-593.5,0,0
298440,140.345,-594.613,0,0
298700.2,138.332,-595.406,0,0
298960.525,136.396,-595.954,0,0
299220.85,134.431,-596.32,0,0
299481.175,132.53,-596.552,0,0
299741.5,130.591,-596.696,0,0
300001.825,128.678,-596.67,0,0
300262.15,126.725,-596.452,0,0
300522.475,124.837,-596.071,0,0
300782.8,123.036,-595.509,0,0
301043.125,121.363,-594.771,0,0
301303.45,119.878,-593.902,0,0
301563.775,118.588,-592.958,0,0
301824.1,117.559,-592.07,0,0
302084.425,116.686,-591.255,0,0
302344.75,115.96,-590.561,0,0
302605.075,115.328,-590.019,0,0
302865.4,114.683,-589.679,0,0
303125.725,113.996,-589.482,0,0
303386.05,113.271,-589.385,0,0
303646.375,112.413,-589.385,0,0
303906.7,111.459,-589.431,0,0
304167.025,110.355,-589.546,0,0
304427.35,109.133,-589.602,0,0
304687.675,107.75,-589.651,0,0
304948.0,106.283,-589.657,0,0
305208.325,104.67,-589.529,0,0
305468.65,102.993,-589.276,0,0
305728.975,101.284,-588.918,0,0
305989.3,99.5266,-588.395,0,0
306249.625,97.8297,-587.797,0,0
306509.95,96.1219,-587.094,0,0
306770.275,94.4475,-586.302,0,0
307030.6,92.7996,-585.416,0,0
307290.925,91.1655,-584.412,0,0
307551.25,89.6154,-583.337,0,0
307811.575,88.1384,-582.182,0,0
308071.9,86.723,-580.994,0,0
308332.225,85.3863,-579.76,0,0
308592.55,84.1011,-578.497,0,0
308852.875,82.8903,-577.19,0,0
309113.2,81.7558,-575.849,0,0
309373.525,80.6944,-574.543,0,0
309633.85,79.711,-573.229,0,0
309894.175,78.7507,-571.96,0,0
310154.5,77.8174,-570.71,0,0
310414.825,76.8877,-569.438,0,0
310675.15,76.0011,-568.178,0,0
310935.475,75.1276,-566.919,0,0
311195.8,74.2819,-565.632,0,0
311456.125,73.444,-564.364,0,0
311716.45,72.6421,-563.07,0,0
311976.775,71.856,-561.761,0,0
312237.1,71.0889,-560.453,0,0
312497.425,70.368,-559.112,0,0
312757.75,69.6914,-557.779,0,0
313018.075,69.0714,-556.428,0,0
313278.4,68.4701,-555.103,0,0
313538.725,67.9094,-553.781,0,0
313799.05,67.3763,-552.474,0,0
314059.375,66.8946,-551.213,0,0
314319.7,66.3945,-549.949,0,0
314580,65.9002,-548.69,0,0
314840,65.3625,-547.405,0,0
315101,64.9828,-546.241,0,0
315361,64.557,-544.942,0,0
315621,64.0918,-543.747,0,0
315882,63.7763,-542.492,0,0
316142,63.3655,-541.264,0,0
316402,62.9069,-539.988,0,0
316663,62.6008,-538.77,0,0
316923,62.3221,-537.487,0,0
317183,62.0453,-536.293,0,0
317444,61.7602,-535.134,0,0
317704,61.5561,-533.871,0,0
317964,61.3575,-532.691,0,0
318225,61.1705,-531.529,0,0
318485,61.0246,-530.431,0,0
318745,60.8196,-529.304,0,0
319006,60.6717,-528.181,0,0
319266,60.5006,-527.215,0,0
319526,60.2973,-526.145,0,0
319787,60.0311,-525.099,0,0
320047,59.9307,-524.123,0,0
320307,59.7216,-523.029,0,0
320567,59.4385,-522.069,0,0
320828,59.2826,-521.034,0,0
321088,59.0659,-519.989,0,0
321348,58.7963,-518.99,0,0
321609,58.5737,-517.925,0,0
321869,58.47,-516.879,0,0
322129,58.1494,-515.852,0,0
322390,58.006,-514.791,0,0
322650,57.7089,-513.702,0,0
322910,57.5965,-512.574,0,0
323171,57.3619,-511.47,0,0
323431,57.1772,-510.277,0,0
323691,56.963,-509.077,0,0
323952,56.7848,-507.813,0,0
324212,56.6755,-506.511,0,0
324472,56.6154,-505.159,0,0
324733,56.6804,-503.84,0,0
324993,56.7681,-502.445,0,0
325253,56.9693,-501.127,0,0
325514,57.3188,-499.733,0,0
325774,57.7633,-498.458,0,0
326034,58.2875,-497.242,0,0
326295,58.8922,-496.127,0,0
326555,59.5698,-495.12,0,0
326815,60.2837,-494.25,0,0
327076,60.962,-493.462,0,0
327336,61.5563,-492.836,0,0
327596,62.1821,-492.323,0,0
327857,62.6932,-491.837,0,0
328117,63.0807,-491.462,0,0
328377,63.5377,-491.044,0,0
328638,63.8528,-490.651,0,0
328898,64.1958,-490.24,0,0
329158,64.4873,-489.818,0,0
329419,64.7566,-489.493,0,0
329679,65.0248,-489.172,0,0
329939,65.2687,-488.844,0,0
330200,65.5186,-488.525,0,0
330460,65.7256,-488.297,0,0
330720.15,65.9346,-488.111,0,0
330980.475,66.0641,-487.943,0,0
331240.8,66.1425,-487.807,0,0
331501.125,66.1794,-487.679,0,0
331761.45,66.1318,-487.597,0,0
332021.775,66.0215,-487.518,0,0
332282.1,65.8331,-487.506,0,0
332542.425,65.6372,-487.364,0,0
332802.75,65.2549,-487.268,0,0
333063.075,64.8655,-487.124,0,0
333323.4,64.4144,-486.927,0,0
333583.725,63.937,-486.595,0,0
333844.05,63.3978,-486.263,0,0
334104.375,62.8611,-485.788,0,0
334364.7,62.3256,-485.283,0,0
334625.025,61.8682,-484.768,0,0
334885.35,61.308,-484.167,0,0
335145.675,60.8917,-483.529,0,0
335406.0,60.4075,-482.852,0,0
335666.325,60.0317,-482.241,0,0
335926.65,59.6158,-481.55,0,0
336186.975,59.2615,-480.864,0,0
336447.3,58.8792,-480.131,0,0
336707.625,58.4874,-479.453,0,0
336967.95,58.1194,-478.656,0,0
337228.275,57.7763,-477.883,0,0
337488.6,57.4522,-477.053,0,0
337748.925,57.2016,-476.259,0,0
338009.25,56.8694,-475.472,0,0
338269.575,56.644,-474.619,0,0
338529.9,56.3987,-473.809,0,0
338790.225,56.1419,-472.978,0,0
339050.55,55.9165,-472.079,0,0
339310.875,55.6869,-471.251,0,0
339571.2,55.495,-470.409,0,0
339831.525,55.3281,-469.571,0,0
340091.85,55.1718,-468.644,0,0
340352.175,55.0274,-467.78,0,0
340612.5,54.9263,-466.898,0,0
340872.825,54.8761,-465.963,0,0
341133.15,54.7927,-465.088,0,0
341393.475,54.7531,-464.216,0,0
341653.8,54.7324,-463.379,0,0
341914.125,54.7385,-462.467,0,0
342174.45,54.7407,-461.619,0,0
342434.775,54.7588,-460.752,0,0
342695.1,54.7726,-459.949,0,0
342955.425,54.8312,-459.047,0,0
343215.75,54.8592,-458.201,0,0
343476.075,54.8989,-457.373,0,0
343736.4,54.9894,-456.518,0,0
343996.725,55.0722,-455.64,0,0
344257.05,55.1997,-454.818,0,0
344517.375,55.351,-453.989,0,0
344777.7,55.5639,-453.192,0,0
345038.025,55.6728,-452.347,0,0
345298.35,55.89,-451.638,0,0
345558.675,56.0865,-450.742,0,0
345819.0,56.3422,-450.04,0,0
346079.325,56.5623,-449.334,0,0
346339.65,56.7762,-448.557,0,0
346599.975,57.061,-447.827,0,0
346860,57.3153,-447.139,0,0
347121,57.5756,-446.477,0,0
347381,57.859,-445.818,0,0
347641,58.0828,-445.168,0,0
347902,58.3809,-444.522,0,0
348162,58.6962,-443.883,0,0
348422,58.9736,-443.258,0,0
348683,59.2733,-442.682,0,0
348943,59.6058,-442.074,0,0
349203,59.9017,-441.464,0,0
349464,60.2565,-440.974,0,0
349724,60.5552,-440.418,0,0
349984,60.9286,-439.89,0,0
350245,61.2225,-439.449,0,0
350505,61.5652,-438.961,0,0
350765,61.8816,-438.461,0,0
351025,62.2071,-438.093,0,0
351286,62.5191,-437.663,0,0
351546,62.8033,-437.317,0,0
351806,63.1247,-436.935,0,0
352067,63.3589,-436.599,0,0
352327,63.5896,-436.316,0,0
352587,63.8294,-435.967,0,0
352848,64.0057,-435.606,0,0
353108,64.1631,-435.254,0,0
353368,64.3365,-434.92,0,0
353629,64.5145,-434.56,0,0
353889,64.6923,-434.123,0,0
354149,64.9311,-433.719,0,0
354410,65.1027,-433.352,0,0
354670,65.3229,-432.974,0,0
354930,65.5549,-432.615,0,0
355191,65.7501,-432.227,0,0
355451,65.979,-431.912,0,0
355711,66.2266,-431.534,0,0
355972,66.4739,-431.193,0,0
356232,66.6975,-430.864,0,0
356492,66.9421,-430.517,0,0
356753,67.1277,-430.195,0,0
357013,67.4792,-429.836,0,0
357273,67.7353,-429.531,0,0
357534,68.0861,-429.233,0,0
357794,68.3936,-428.991,0,0
358054,68.72,-428.756,0,0
358315,69.0519,-428.638,0,0
358575,69.3705,-428.495,0,0
358835,69.7079,-428.409,0,0
359096,69.9784,-428.335,0,0
359356,70.2769,-428.278,0,0
359616,70.5018,-428.297,0,0
359877,70.6598,-428.315,0,0
360137,70.8701,-428.379,0,0
360397,70.9886,-428.443,0,0
360658,71.0691,-428.475,0,0
360918,71.1328,-428.514,0,0
361178,71.1486,-428.563,0,0
361438,71.194,-428.685,0,0
361699,71.1282,-428.706,0,0
361959,71.0606,-428.825,0,0
362219,70.9472,-428.873,0,0
362480,70.8055,-428.864,0,0
362740.1,70.6891,-428.899,0,0
363000.425,70.4904,-428.892,0,0
363260.75,70.2979,-428.837,0,0
363521.075,70.072,-428.802,0,0
363781.4,69.915,-428.778,0,0
364041.725,69.6482,-428.729,0,0
364302.05,69.4288,-428.661,0,0
364562.375,69.1454,-428.542,0,0
364822.7,68.9133,-428.42,0,0
365083.025,68.6074,-428.239,0,0
365343.35,68.2938,-428.095,0,0
365603.675,67.9693,-427.909,0,0
365864.0,67.6852,-427.691,0,0
366124.325,67.369,-427.506,0,0
366384.65,67.0513,-427.165,0,0
366644.975,66.7709,-426.863,0,0
366905.3,66.4517,-426.523,0,0
367165.625,66.2664,-426.108,0,0
367425.95,66.0339,-425.696,0,0
367686.275,65.8871,-425.313,0,0
367946.6,65.7637,-424.886,0,0
368206.925,65.7008,-424.528,0,0
368467.25,65.6643,-424.178,0,0
368727.575,65.6686,-423.857,0,0
368987.9,65.6995,-423.634,0,0
369248.225,65.706,-423.44,0,0
369508.55,65.6662,-423.357,0,0
369768.875,65.5833,-423.202,0,0
370029.2,65.4425,-423.106,0,0
370289.525,65.2903,-423.047,0,0
370549.85,65.0554,-422.921,0,0
370810.175,64.8335,-422.789,0,0
371070.5,64.5451,-422.695,0,0
371330.825,64.255,-422.48,0,0
371591.15,63.9955,-422.259,0,0
371851.475,63.6886,-422.01,0,0
372111.8,63.3948,-421.754,0,0
372372.125,63.1498,-421.489,0,0
372632.45,62.9029,-421.202,0,0
372892.775,62.6426,-420.921,0,0
373153.1,62.4022,-420.647,0,0
373413.425,62.1794,-420.385,0,0
373673.75,61.9512,-420.124,0,0
373934.075,61.7416,-419.886,0,0
374194.4,61.5446,-419.63,0,0
374454.725,61.2385,-419.413,0,0
374715.05,61.0391,-419.18,0,0
374975.375,60.7415,-418.944,0,0
375235.7,60.4012,-418.715,0,0
375496.025,60.1089,-418.504,0,0
375756.35,59.7614,-418.197,0,0
376016.675,59.469,-417.882,0,0
376277.0,59.1231,-417.586,0,0
376537.325,58.7871,-417.264,0,0
376797.65,58.5236,-416.962,0,0
377057.975,58.224,-416.558,0,0
377318.3,57.9661,-416.289,0,0
377578.625,57.6797,-415.955,0,0
377838.95,57.4791,-415.743,0,0
378099.275,57.1332,-415.455,0,0
378359.6,56.8564,-415.279,0,0
378619.925,56.4629,-415.101,0,0
378880,55.971,-414.944,0,0
379141,55.3843,-414.685,0,0
379401,54.7498,-414.329,0,0
379661,54.1239,-413.914,0,0
379922,53.47,-413.314,0,0
380182,52.881,-412.631,0,0
380442,52.3816,-411.849,0,0
380703,51.9941,-410.984,0,0
380963,51.7623,-410.113,0,0
381223,51.6767,-409.352,0,0
381483,51.6824,-408.629,0,0
381744,51.7856,-408.036,0,0
382004,51.8832,-407.582,0,0
382264,51.8848,-407.207,0,0
382525,51.7863,-406.956,0,0
382785,51.693,-406.655,0,0
383045,51.4473,-406.42,0,0
383306,51.233,-406.107,0,0
383566,50.9224,-405.8,0,0
383826,50.5843,-405.496,0,0
384087,50.2629,-405.076,0,0
384347,49.8078,-404.731,0,0
384607,49.4555,-404.306,0,0
384868,49.0218,-403.807,0,0
385128,48.6349,-403.381,0,0
385388,48.2262,-402.853,0,0
385649,47.8365,-402.269,0,0
385909,47.4551,-401.672,0,0
386169,47.1059,-401.05,0,0
386430,46.7761,-400.415,0,0
386690,46.4707,-399.731,0,0
386950,46.1611,-399.048,0,0
387211,45.9358,-398.364,0,0
387471,45.6742,-397.718,0,0
387731,45.4633,-396.992,0,0
387992,45.2637,-396.316,0,0
388252,45.0517,-395.67,0,0
388512,44.8711,-394.958,0,0
388773,44.7301,-394.229,0,0
389033,44.6568,-393.552,0,0
389293,44.5168,-392.85,0,0
389554,44.4267,-392.131,0,0
389814,44.4331,-391.436,0,0
390074,44.4656,-390.781,0,0
390335,44.492,-390.119,0,0
390595,44.5659,-389.542,0,0
390855,44.5832,-389.023,0,0
391116,44.6623,-388.486,0,0
391376,44.7358,-388.064,0,0
391636,44.7567,-387.612,0,0
391896,44.753,-387.231,0,0
392157,44.6728,-386.934,0,0
392417,44.567,-386.612,0,0
392677,44.3316,-386.263,0,0
392938,44.1014,-385.866,0,0
393198,43.8398,-385.492,0,0
393458,43.5139,-385.01,0,0
393719,43.1938,-384.511,0,0
393979,42.8602,-383.957,0,0
394239,42.5242,-383.368,0,0
394500,42.2079,-382.7,0,0
394760.05,41.8954,-382.039,0,0
395020.375,41.6184,-381.298,0,0
395280.7,41.3561,-380.58,0,0
395541.025,41.1265,-379.791,0,0
395801.35,40.9881,-378.982,0,0
396061.675,40.8147,-378.203,0,0
396322.0,40.7218,-377.386,0,0
396582.325,40.6132,-376.588,0,0
396842.65,40.5681,-375.806,0,0
397102.975,40.5475,-375.012,0,0
397363.3,40.5323,-374.229,0,0
397623.625,40.5518,-373.398,0,0
397883.95,40.5984,-372.652,0,0
398144.275,40.6778,-371.871,0,0
398404.6,40.7574,-371.143,0,0
398664.925,40.8616,-370.401,0,0
398925.25,40.9489,-369.673,0,0
399185.575,41.0879,-368.989,0,0
399445.9,41.2177,-368.309,0,0
399706.225,41.3417,-367.636,0,0
399966.55,41.4692,-366.994,0,0
400006.6,41.4945,-366.903,0,0