File: Accelerated corrosion test data/2025-10-09_18-00-04/sample_4.csv
Frequency (Hz),Impedance (ohms),Phase (Radians),Temperature (C),Humidity (%)
10000.0,264.017,-11854,0,0
10260.325,261.032,-11555.8,0,0
10520.65,250.39,-11272.2,0,0
10780.975,245.458,-11001.8,0,0
11041.3,240.441,-10743.7,0,0
11301.625,234.642,-10501.5,0,0
11561.95,229.001,-10265.9,0,0
11822.275,224.45,-10040.7,0,0
12082.6,220.15,-9826.32,0,0
12342.925,215.548,-9620.14,0,0
12603.25,213.241,-9421.33,0,0
12863.575,208.703,-9234.4,0,0
13123.9,207.614,-9055.81,0,0
13384.225,199.527,-8877.57,0,0
13644.55,196.029,-8707.44,0,0
13904.875,193.806,-8542.07,0,0
14165.2,193.926,-8380.19,0,0
14425.525,198.925,-8232.6,0,0
14685.8,200.37,-8116.82,0,0
14946.175,181.642,-7962.29,0,0
15206.5,181.654,-7818.13,0,0
15466.825,187.496,-7677.22,0,0
15727.15,190.361,-7577.11,0,0
15987.5,187.451,-7460.47,0,0
16247.8,171.032,-7331.53,0,0
16508.125,188.354,-7203.71,0,0
16768.45,178.649,-7103.53,0,0
17028.775,171.965,-7016.81,0,0
17289.1,160.717,-6903.64,0,0
17549.425,158.61,-6799,0,0
17809.75,155.549,-6698.79,0,0
18070.075,153.078,-6600.49,0,0
18330.4,154.439,-6504.36,0,0
18590.725,153.075,-6415.5,0,0
18851.05,149.828,-6331.91,0,0
19111.375,145.283,-6242.53,0,0
19371.7,142.987,-6157.35,0,0
19632.025,141.876,-6073.32,0,0
19892.35,144.104,-5992.79,0,0
20152.675,143.835,-5915.95,0,0
20413.0,140.872,-5843.02,0,0
20673.3,140.77,-5768.4,0,0
20933.65,137.365,-5695.05,0,0
21193.975,140.223,-5620.08,0,0
21454.3,152.213,-5554.69,0,0
21714.625,145.634,-5498.14,0,0
21974.9,149.015,-5427.06,0,0
22235.275,148.865,-5380.73,0,0
22495.6,135.774,-5325.22,0,0
22755.925,128.651,-5260.32,0,0
23016.25,125.129,-5199.1,0,0
23276.6,122.839,-5138.99,0,0
23536.9,120.959,-5081.36,0,0
23797.225,119.328,-5024.64,0,0
24057.55,117.431,-4969.04,0,0
24317.875,116.827,-4914.77,0,0
24578.2,114.641,-4862.01,0,0
24838.525,114.529,-4809.26,0,0
25098.85,114.544,-4758.42,0,0
25359.175,112.688,-4711.46,0,0
25619.5,112.325,-4661.61,0,0
25879.8,111.338,-4617.46,0,0
26140.1,108.129,-4569.41,0,0
26400.5,107.217,-4522.74,0,0
26660.8,106.151,-4476.81,0,0
26921.1,106.695,-4432.98,0,0
27181.4,105.359,-4388.36,0,0
27441.8,105.525,-4343.78,0,0
27702.1,108.91,-4299.95,0,0
27962.4,116.814,-4258.12,0,0
28222.7,120.174,-4230.22,0,0
28483.1,113.575,-4195.04,0,0
28743.4,110.181,-4154.73,0,0
29003.7,112.797,-4114.08,0,0
29264,116.645,-4082.21,0,0
29524.4,112.178,-4050.23,0,0
29784.7,109.219,-4019.41,0,0
30045,107.172,-3983.71,0,0
30305.3,101.619,-3949.26,0,0
30565.7,99.4245,-3913.86,0,0
30826,98.6379,-3879.46,0,0
31086.3,98.2838,-3845.8,0,0
31346.6,99.2367,-3812.68,0,0
31607,97.6938,-3781.74,0,0
31867.3,97.5443,-3749.63,0,0
32127.6,99.8095,-3719.53,0,0
32387.9,98.1748,-3693.31,0,0
32648.3,96.8491,-3662.92,0,0
32908.6,94.9144,-3636.26,0,0
33168.9,92.3646,-3607.72,0,0
33429.2,90.2268,-3578.83,0,0
33689.6,88.512,-3549.68,0,0
33949.9,87.6145,-3521.32,0,0
34210.2,87.632,-3493.62,0,0
34470.5,86.2286,-3467.84,0,0
34730.9,85.1588,-3440.65,0,0
34991.2,84.8196,-3414.14,0,0
35251.5,84.0163,-3388.6,0,0
35511.8,83.3486,-3363.07,0,0
35772.2,82.4681,-3338.24,0,0
36032.5,82.0213,-3313.38,0,0
36292.8,81.1376,-3288.89,0,0
36553.1,80.5517,-3264.24,0,0
36813.5,80.4709,-3240.29,0,0
37073.8,80.9845,-3217.42,0,0
37334.1,79.762,-3194.93,0,0
37594.4,79.1426,-3171.67,0,0
37854.8,79.1613,-3149.61,0,0
38115.1,77.9864,-3127.76,0,0
38375.4,77.6118,-3105.44,0,0
38635.7,77.2101,-3083.13,0,0
38896.1,77.5976,-3061.81,0,0
39156.4,76.9784,-3041.04,0,0
39416.7,76.5564,-3019.9,0,0
39677,76.2793,-2998.67,0,0
39937.4,76.7405,-2977.55,0,0
40197.7,78.5586,-2957.23,0,0
40458,80.1626,-2938.68,0,0
40718.3,79.2634,-2921.18,0,0
40978.7,79.4182,-2901.49,0,0
41239,79.4544,-2883.31,0,0
41499.3,81.9052,-2866.35,0,0
41759.6,79.0689,-2850.27,0,0
42020,77.9592,-2832,0,0
42280.275,77.169,-2812.82,0,0
42540.6,78.9457,-2795.59,0,0
42800.925,77.7234,-2781.13,0,0
43061.25,75.5311,-2763.01,0,0
43321.575,76.0417,-2746.11,0,0
43581.9,74.3929,-2729.69,0,0
43842.225,73.5973,-2712.23,0,0
44102.55,73.7282,-2696.06,0,0
44362.875,72.4228,-2679.45,0,0
44623.2,72.4377,-2662.88,0,0
44883.525,72.0925,-2647.43,0,0
45143.85,71.449,-2631.25,0,0
45404.175,70.381,-2614.68,0,0
45664.5,71.4903,-2598.18,0,0
45924.825,72.655,-2583.96,0,0
46185.15,71.7826,-2570.41,0,0
46445.475,70.3864,-2554.42,0,0
46705.8,71.4309,-2539.36,0,0
46966.125,71.3283,-2525.34,0,0
47226.45,71.4685,-2510.82,0,0
47486.775,71.7683,-2498.26,0,0
47747.1,70.0196,-2484.44,0,0
48007.425,69.4832,-2470.34,0,0
48267.75,68.5476,-2457.23,0,0
48528.075,67.7116,-2443.11,0,0
48788.4,67.1961,-2429.25,0,0
49048.725,66.3592,-2415.42,0,0
49309.05,66.2149,-2401.31,0,0
49569.375,65.6136,-2388.5,0,0
49829.7,65.1011,-2374.74,0,0
50090.025,64.8883,-2361.47,0,0
50350.35,64.4895,-2348.26,0,0
50610.675,64.3173,-2335.34,0,0
50871.0,64.0646,-2322.15,0,0
51131.325,63.9155,-2309.28,0,0
51391.65,63.8086,-2296.4,0,0
51651.975,63.9685,-2283.61,0,0
51912.3,63.9508,-2271.08,0,0
52172.625,64.3261,-2258.31,0,0
52432.95,64.2838,-2246.18,0,0
52693.275,64.5218,-2233.38,0,0
52953.6,65.7212,-2220.8,0,0
53213.925,66.6698,-2209.1,0,0
53474.25,67.7652,-2197.23,0,0
53734.575,69.0992,-2185.44,0,0
53994.9,71.6467,-2174.17,0,0
54255.225,73.6602,-2164.66,0,0
54515.55,75.7798,-2155.86,0,0
54775.875,75.9866,-2148.5,0,0
55036.2,74.2644,-2140.09,0,0
55296.525,73.7733,-2130.3,0,0
55556.85,71.9892,-2121.48,0,0
55817.175,70.2274,-2111.19,0,0
56077.5,68.7168,-2101.08,0,0
56337.825,67.1956,-2090.31,0,0
56598.15,66.1067,-2078.89,0,0
56858.475,65.8404,-2067.85,0,0
57118.8,65.7308,-2056.83,0,0
57379.125,66.2223,-2046.16,0,0
57639.45,66.3678,-2036.07,0,0
57899.775,66.4937,-2025.93,0,0
58160.1,66.8533,-2015.36,0,0
58420.4,67.6678,-2005.3,0,0
58680.7,68.1809,-1996.45,0,0
58941.1,67.6266,-1985.89,0,0
59201.4,68.9343,-1975.12,0,0
59461.7,70.9279,-1965.22,0,0
59722,73.4359,-1956.3,0,0
59982.4,75.8929,-1948.68,0,0
60242.7,76.9211,-1941.67,0,0
60503,77.8012,-1934.08,0,0
60763.3,80.0881,-1927.27,0,0
61023.7,80.5014,-1923.38,0,0
61284,78.6566,-1918.35,0,0
61544.3,74.6876,-1912.23,0,0
61804.6,71.7298,-1902.96,0,0
62065,69.8965,-1894.17,0,0
62325.3,68.6224,-1885.82,0,0
62585.6,66.0725,-1877,0,0
62845.9,65.4718,-1866.8,0,0
63106.3,64.8686,-1858.05,0,0
63366.6,64.2761,-1848.71,0,0
63626.9,64.529,-1839.58,0,0
63887.2,64.6607,-1831.86,0,0
64147.6,63.5505,-1822.74,0,0
64407.9,64.0597,-1813.68,0,0
64668.2,64.6421,-1805.37,0,0
64928.5,65.1522,-1797.48,0,0
65188.9,65.2915,-1789.46,0,0
65449.2,65.4651,-1781.72,0,0
65709.5,65.282,-1773.26,0,0
65969.8,66.649,-1764.85,0,0
66230.2,67.6247,-1757.81,0,0
66490.5,68.1628,-1750.41,0,0
66750.8,68.9257,-1743.4,0,0
67011.1,69.4858,-1736.06,0,0
67271.5,70.6293,-1729.11,0,0
67531.8,71.498,-1722.67,0,0
67792.1,72.5378,-1716.52,0,0
68052.4,73.2185,-1710.8,0,0
68312.8,73.5859,-1705.24,0,0
68573.1,73.812,-1700.11,0,0
68833.4,73.155,-1695.57,0,0
69093.7,71.2569,-1690.25,0,0
69354.1,69.391,-1684.31,0,0
69614.4,67.2432,-1677.4,0,0
69874.7,66.3147,-1670.03,0,0
70135,65.5206,-1663.22,0,0
70395.4,64.0971,-1655.97,0,0
70655.7,64.1067,-1647.77,0,0
70916,65.1792,-1641.54,0,0
71176.3,64.8669,-1635.78,0,0
71436.7,64.3211,-1629.78,0,0
71697,63.6869,-1624.09,0,0
71957.3,62.3505,-1618.16,0,0
72217.6,60.654,-1611.76,0,0
72478,59.2785,-1604.54,0,0
72738.3,58.4398,-1597.29,0,0
72998.6,57.6908,-1589.95,0,0
73258.9,57.2387,-1582.37,0,0
73519.3,57.5814,-1574.96,0,0
73779.6,57.8258,-1568.1,0,0
74039.9,58.2926,-1561.28,0,0
74300.225,58.569,-1554.96,0,0
74560.55,58.8345,-1548.25,0,0
74820.875,59.212,-1541.82,0,0
75081.2,59.8893,-1535.28,0,0
75341.525,60.737,-1529.47,0,0
75601.85,61.0675,-1523.79,0,0
75862.175,61.3893,-1517.98,0,0
76122.5,61.8442,-1512.14,0,0
76382.825,62.401,-1506.65,0,0
76643.15,62.3406,-1501.3,0,0
76903.475,62.2019,-1495.42,0,0
77163.8,62.9842,-1489.07,0,0
77424.125,64.1839,-1483.79,0,0
77684.45,65.0034,-1479.05,0,0
77944.775,65.5209,-1474.64,0,0
78205.1,65.4079,-1470.29,0,0
78465.425,65.1504,-1465.81,0,0
78725.75,64.6188,-1461.26,0,0
78986.075,63.7245,-1456.52,0,0
79246.4,62.8746,-1451.42,0,0
79506.725,62.1037,-1446.07,0,0
79767.05,61.5521,-1440.67,0,0
80027.375,61.0718,-1435.08,0,0
80287.7,60.8379,-1429.67,0,0
80548.025,60.5904,-1424.21,0,0
80808.35,60.4879,-1418.94,0,0
81068.675,60.4428,-1413.75,0,0
81329.0,60.3572,-1408.65,0,0
81589.325,60.2087,-1403.67,0,0
81849.65,59.9752,-1398.7,0,0
82109.975,59.6553,-1393.65,0,0
82370.3,59.4176,-1388.62,0,0
82630.625,59.1645,-1383.63,0,0
82890.95,58.9383,-1378.6,0,0
83151.275,58.6916,-1373.69,0,0
83411.6,58.4019,-1368.7,0,0
83671.925,58.2036,-1363.62,0,0
83932.25,57.9633,-1358.71,0,0
84192.575,57.8134,-1353.73,0,0
84452.9,57.6317,-1348.91,0,0
84713.225,57.4038,-1343.99,0,0
84973.55,57.2827,-1339.1,0,0
85233.875,57.1814,-1334.26,0,0
85494.2,57.0858,-1329.5,0,0
85754.525,56.8548,-1324.73,0,0
86014.85,56.6311,-1319.96,0,0
86275.175,56.5442,-1315.15,0,0
86535.5,56.5396,-1310.51,0,0
86795.825,56.3744,-1305.92,0,0
87056.15,56.1738,-1301.36,0,0
87316.475,55.9358,-1296.79,0,0
87576.8,55.8459,-1292.21,0,0
87837.125,55.5916,-1287.84,0,0
88097.45,55.0492,-1283.5,0,0
88357.775,54.3547,-1278.74,0,0
88618.1,53.9658,-1273.72,0,0
88878.425,53.8512,-1268.86,0,0
89138.75,53.6956,-1264.05,0,0
89399.075,53.5335,-1259.4,0,0
89659.4,53.5199,-1254.54,0,0
89919.725,53.4597,-1249.8,0,0
90180,53.446,-1245.31,0,0
90440.4,53.3969,-1240.76,0,0
90700.7,53.3678,-1236.15,0,0
90961,53.3725,-1231.7,0,0
91221.3,53.2083,-1226.94,0,0
91481.7,53.2976,-1222.23,0,0
91742,53.4356,-1217.57,0,0
92002.3,53.6473,-1213.07,0,0
92262.6,53.9811,-1208.56,0,0
92523,54.3959,-1204.37,0,0
92783.3,54.6365,-1200.23,0,0
93043.6,54.8652,-1196.21,0,0
93303.9,54.8599,-1192.32,0,0
93564.3,54.7776,-1188.32,0,0
93824.6,54.6069,-1184.34,0,0
94084.9,54.3999,-1180.35,0,0
94345.2,53.967,-1176.19,0,0
94605.6,53.4983,-1171.92,0,0
94865.9,53.1826,-1167.43,0,0
95126.2,53.0643,-1162.92,0,0
95386.5,52.8593,-1158.43,0,0
95646.9,52.8927,-1153.91,0,0
95907.2,53.0306,-1149.41,0,0
96167.5,53.1927,-1144.95,0,0
96427.8,53.3998,-1140.61,0,0
96688.2,53.562,-1136.31,0,0
96948.5,53.7689,-1132.02,0,0
97208.8,53.9276,-1127.77,0,0
97469.1,54.1227,-1123.53,0,0
97729.5,54.2296,-1119.24,0,0
97989.8,54.4359,-1114.85,0,0
98250.1,54.8429,-1110.54,0,0
98510.4,55.2389,-1106.32,0,0
98770.8,55.5175,-1102.09,0,0
99031.1,56.0224,-1097.74,0,0
99291.4,56.6745,-1093.55,0,0
99551.7,57.3322,-1089.59,0,0
99812.1,57.844,-1085.64,0,0
100072,58.3622,-1081.44,0,0
100333,59.3141,-1077.28,0,0
100593,60.4885,-1073.5,0,0
100853,61.551,-1070.35,0,0
101114,62.1666,-1067.15,0,0
101374,62.8648,-1064.01,0,0
101634,63.4286,-1061.36,0,0
101895,63.3108,-1058.94,0,0
102155,62.5408,-1056.24,0,0
102415,61.3916,-1052.88,0,0
102676,60.3044,-1048.98,0,0
102936,59.42,-1044.66,0,0
103196,58.7505,-1040.1,0,0
103457,58.3386,-1035.29,0,0
103717,58.3256,-1030.25,0,0
103977,58.7855,-1025.31,0,0
104238,59.3364,-1020.54,0,0
104498,60.1425,-1015.83,0,0
104758,61.0442,-1011.16,0,0
105019,62.1697,-1006.67,0,0
105279,63.4202,-1002.41,0,0
105539,64.6648,-998.225,0,0
105800,65.9713,-994.131,0,0
106060,67.3858,-990.178,0,0
106320.175,68.7322,-986.348,0,0
106580.5,70.1943,-982.584,0,0
106840.825,71.6681,-979.037,0,0
107101.15,73.0148,-975.583,0,0
107361.475,74.2665,-972.119,0,0
107621.8,75.5348,-968.543,0,0
107882.125,77.0094,-964.972,0,0
108142.45,78.5638,-961.532,0,0
108402.775,80.2543,-958.134,0,0
108663.1,82.0761,-954.985,0,0
108923.425,83.8428,-952.002,0,0
109183.75,85.6695,-949.16,0,0
109444.075,87.3752,-946.557,0,0
109704.4,89.044,-944.138,0,0
109964.725,90.5296,-941.804,0,0
110225.05,91.9693,-939.482,0,0
110485.375,93.3161,-937.201,0,0
110745.7,94.5999,-935.045,0,0
111006.025,95.7921,-932.94,0,0
111266.35,96.9649,-930.773,0,0
111526.675,98.1248,-928.67,0,0
111787.0,99.1907,-926.535,0,0
112047.325,100.178,-924.51,0,0
112307.65,101.288,-922.618,0,0
112567.975,102.201,-920.726,0,0
112828.3,103.114,-918.921,0,0
113088.625,103.889,-917.113,0,0
113348.95,104.677,-915.381,0,0
113609.275,105.308,-913.662,0,0
113869.6,105.89,-911.981,0,0
114129.925,106.395,-910.281,0,0
114390.25,106.877,-908.604,0,0
114650.575,107.295,-906.938,0,0
114910.9,107.754,-905.232,0,0
115171.225,108.081,-903.725,0,0
115431.55,108.225,-902.189,0,0
115691.875,108.231,-900.601,0,0
115952.2,108.19,-898.946,0,0
116212.525,108.097,-897.249,0,0
116472.85,107.908,-895.62,0,0
116733.175,107.557,-893.871,0,0
116993.5,107.142,-891.979,0,0
117253.825,106.714,-890.005,0,0
117514.15,106.224,-887.909,0,0
117774.475,105.652,-885.615,0,0
118034.8,105.205,-883.076,0,0
118295.125,104.998,-880.365,0,0
118555.45,104.914,-877.759,0,0
118815.775,104.909,-874.912,0,0
119076.1,105.186,-871.947,0,0
119336.425,106.061,-868.924,0,0
119596.75,107.658,-866.378,0,0
119857.075,109.281,-864.853,0,0
120117.4,110.663,-864.025,0,0
120377.725,111.349,-863.778,0,0
120638.05,111.289,-863.708,0,0
120898.375,110.316,-863.515,0,0
121158.7,108.814,-862.683,0,0
121419.025,107.215,-861.241,0,0
121679.35,105.766,-859.368,0,0
121939.675,104.404,-857.271,0,0
122200.0,103.164,-854.988,0,0
122460,102.028,-852.538,0,0
122721,101.103,-849.927,0,0
122981,100.424,-847.399,0,0
123241,99.6761,-844.972,0,0
123502,98.9494,-842.464,0,0
123762,98.3092,-839.937,0,0
124022,97.6978,-837.446,0,0
124283,97.1038,-834.908,0,0
124543,96.5051,-832.389,0,0
124803,95.9619,-829.844,0,0
125064,95.5398,-827.243,0,0
125324,95.1581,-824.828,0,0
125584,94.7315,-822.423,0,0
125845,94.3078,-820.023,0,0
126105,93.9239,-817.762,0,0
126365,93.4492,-815.589,0,0
126626,92.7024,-813.517,0,0
126886,91.8466,-811.218,0,0
127146,90.916,-808.79,0,0
127406,90.0982,-806.285,0,0
127667,89.4526,-803.882,0,0
127927,88.602,-801.615,0,0
128187,87.5418,-799.36,0,0
128448,86.2658,-796.828,0,0
128708,85.0189,-794.154,0,0
128968,83.7257,-791.338,0,0
129229,82.4701,-788.382,0,0
129489,81.2279,-785.314,0,0
129749,80.0322,-782.072,0,0
130010,78.8207,-778.675,0,0
130270,77.8413,-775.137,0,0
130530,76.9528,-771.568,0,0
130791,76.1545,-768.032,0,0
131051,75.3725,-764.421,0,0
131311,74.6778,-760.655,0,0
131572,74.1501,-756.864,0,0
131832,73.7533,-753.181,0,0
132092,73.3372,-749.53,0,0
132353,72.9194,-745.767,0,0
132613,72.6587,-741.923,0,0
132873,72.4625,-738.137,0,0
133134,72.3751,-734.364,0,0
133394,72.2986,-730.624,0,0
133654,72.2232,-726.893,0,0
133915,72.2488,-723.069,0,0
134175,72.3833,-719.299,0,0
134435,72.5624,-715.552,0,0
134696,72.6807,-711.79,0,0
134956,72.9604,-708.05,0,0
135216,73.2637,-704.271,0,0
135477,73.6458,-700.543,0,0
135737,74.1392,-696.837,0,0
135997,74.6802,-693.228,0,0
136258,75.1991,-689.709,0,0
136518,75.6959,-686.105,0,0
136778,76.3031,-682.577,0,0
137039,76.889,-679.138,0,0
137299,77.4496,-675.792,0,0
137559,77.9148,-672.478,0,0
137819,78.2932,-669.085,0,0
138080,78.6299,-665.644,0,0
138340.125,78.9418,-662.035,0,0
138600.45,79.3835,-658.376,0,0
138860.775,79.8543,-654.721,0,0
139121.1,80.2982,-650.985,0,0
139381.425,80.8975,-647.155,0,0
139641.75,81.6443,-643.385,0,0
139902.075,82.3408,-639.63,0,0
140162.4,83.1296,-635.788,0,0
140422.725,83.9965,-631.994,0,0
140683.05,84.9244,-628.191,0,0
140943.375,85.9366,-624.406,0,0
141203.7,87.0035,-620.595,0,0
141464.025,88.1634,-616.886,0,0
141724.35,89.313,-613.233,0,0
141984.675,90.4263,-609.6,0,0
142245.0,91.5818,-605.88,0,0
142505.325,92.836,-602.193,0,0
142765.65,94.0813,-598.599,0,0
143025.975,95.3072,-594.91,0,0
143286.3,96.6949,-591.193,0,0
143546.625,98.0391,-587.573,0,0
143806.95,99.3925,-583.911,0,0
144067.275,100.807,-580.242,0,0
144327.6,102.255,-576.505,0,0
144587.925,103.786,-572.821,0,0
144848.25,105.351,-569.127,0,0
145108.575,106.97,-565.387,0,0
145368.9,108.667,-561.658,0,0
145629.225,110.395,-557.953,0,0
145889.55,112.177,-554.221,0,0
146149.875,114.051,-550.429,0,0
146410.2,116.06,-546.701,0,0
146670.525,118.145,-543.011,0,0
146930.85,120.275,-539.408,0,0
147191.175,122.418,-535.794,0,0
147451.5,124.608,-532.21,0,0
147711.825,126.862,-528.634,0,0
147972.15,129.097,-525.091,0,0
148232.475,131.394,-521.454,0,0
148492.8,133.833,-517.775,0,0
148753.125,136.366,-514.13,0,0
149013.45,139.032,-510.547,0,0
149273.775,141.741,-507.012,0,0
149534.1,144.484,-503.46,0,0
149794.425,147.376,-499.806,0,0
150054.75,150.454,-496.279,0,0
150315.075,153.593,-492.826,0,0
150575.4,156.827,-489.377,0,0
150835.725,160.188,-485.938,0,0
151096.05,163.751,-482.447,0,0
151356.375,167.641,-479.131,0,0
151616.7,171.64,-476.118,0,0
151877.025,175.624,-473.277,0,0
152137.35,179.65,-470.405,0,0
152397.675,184.019,-467.572,0,0
152658.0,188.689,-465.186,0,0
152918.325,193.275,-463.251,0,0
153178.65,197.741,-461.476,0,0
153438.975,202.264,-459.863,0,0
153699.3,206.825,-458.604,0,0
153959.625,211.22,-457.755,0,0
154219.95,215.325,-457.077,0,0
154480,219.206,-456.58,0,0
154741,222.707,-456.261,0,0
155001,225.73,-455.634,0,0
155261,228.865,-454.574,0,0
155522,232.358,-453.485,0,0
155782,236.105,-452.727,0,0
156042,239.636,-452.352,0,0
156303,242.833,-451.934,0,0
156563,245.965,-451.78,0,0
156823,248.57,-451.39,0,0
157084,251.091,-450.758,0,0
157344,253.897,-449.794,0,0
157604,256.672,-448.884,0,0
157864,259.422,-447.68,0,0
158125,262.601,-446.279,0,0
158385,266.235,-444.956,0,0
158645,269.969,-444.073,0,0
158906,273.82,-443.088,0,0
159166,278.076,-442.319,0,0
159426,282.633,-442.136,0,0
159687,286.967,-442.399,0,0
159947,291.45,-443.057,0,0
160207,295.609,-444.505,0,0
160468,299.292,-446.265,0,0
160728,302.55,-448.29,0,0
160988,304.999,-450.591,0,0
161249,306.839,-452.659,0,0
161509,308.043,-454.327,0,0
161769,309.021,-455.366,0,0
162030,310.196,-456.014,0,0
162290,311.241,-456.58,0,0
162550,312.299,-456.994,0,0
162811,313.217,-457.228,0,0
163071,314.001,-456.952,0,0
163331,315.087,-456.427,0,0
163592,316.248,-455.695,0,0
163852,317.572,-454.68,0,0
164112,319.299,-453.52,0,0
164373,321.219,-452.216,0,0
164633,323.512,-451.028,0,0
164893,325.995,-449.893,0,0
165154,328.705,-448.841,0,0
165414,331.409,-447.779,0,0
165674,334.287,-446.544,0,0
165935,337.527,-445.294,0,0
166195,341.341,-443.965,0,0
166455,345.669,-442.877,0,0
166716,350.355,-441.999,0,0
166976,355.881,-441.717,0,0
167236,361.644,-442.202,0,0
167497,367.51,-443.31,0,0
167757,373.48,-445.284,0,0
168017,379.354,-448.049,0,0
168277,384.966,-451.838,0,0
168538,389.785,-456.245,0,0
168798,394.077,-460.845,0,0
169058,398.085,-465.76,0,0
169319,401.687,-471.287,0,0
169579,404.507,-477.091,0,0
169839,406.997,-482.878,0,0
170100,409.478,-489.283,0,0
170360.075,411.227,-496.622,0,0
170620.4,411.68,-504.544,0,0
170880.725,410.661,-512.52,0,0
171141.05,408.343,-520.099,0,0
171401.375,404.974,-526.957,0,0
171661.7,400.956,-533.068,0,0
171922.025,396.43,-538.595,0,0
172182.35,391.261,-543.547,0,0
172442.675,385.611,-547.749,0,0
172703.0,379.573,-551.183,0,0
172963.325,373.159,-553.942,0,0
173223.65,366.468,-555.723,0,0
173483.975,359.727,-556.646,0,0
173744.3,353.032,-556.673,0,0
174004.625,346.626,-555.806,0,0
174264.95,340.607,-554.439,0,0
174525.275,334.765,-552.523,0,0
174785.6,329.334,-549.946,0,0
175045.925,324.373,-547.048,0,0
175306.25,319.551,-543.86,0,0
175566.575,315.018,-540.153,0,0
175826.9,311.052,-535.874,0,0
176087.225,307.659,-531.386,0,0
176347.55,304.772,-526.779,0,0
176607.875,302.362,-522.086,0,0
176868.2,300.357,-517.353,0,0
177128.525,298.763,-512.569,0,0
177388.85,297.576,-507.836,0,0
177649.175,296.758,-503.205,0,0
177909.5,296.282,-498.693,0,0
178169.825,296.038,-494.438,0,0
178430.15,295.864,-490.383,0,0
178690.475,295.66,-486.282,0,0
178950.8,295.681,-482.122,0,0
179211.125,295.901,-478.007,0,0
179471.45,296.337,-473.931,0,0
179731.775,297.018,-469.983,0,0
179992.1,297.791,-466.241,0,0
180252.425,298.656,-462.681,0,0
180512.75,299.449,-459.253,0,0
180773.075,300.228,-455.797,0,0
181033.4,301.041,-452.384,0,0
181293.725,301.925,-449.003,0,0
181554.05,302.784,-445.72,0,0
181814.375,303.636,-442.51,0,0
182074.7,304.327,-439.272,0,0
182335.025,304.93,-435.932,0,0
182595.35,305.542,-432.423,0,0
182855.675,306.185,-428.791,0,0
183116.0,306.838,-425.043,0,0
183376.325,307.55,-421.109,0,0
183636.65,308.366,-417.015,0,0
183896.975,309.307,-412.772,0,0
184157.3,310.389,-408.399,0,0
184417.625,311.654,-403.894,0,0
184677.95,313.124,-399.319,0,0
184938.275,314.71,-394.699,0,0
185198.6,316.436,-389.969,0,0
185458.925,318.335,-385.101,0,0
185719.25,320.466,-380.152,0,0
185979.575,322.826,-375.146,0,0
186239.9,325.342,-370.127,0,0
186500,328.133,-365.04,0,0
186761,331.073,-359.889,0,0
187021,334.257,-354.711,0,0
187281,337.648,-349.572,0,0
187542,341.234,-344.363,0,0
187802,345.1,-339.077,0,0
188062,349.113,-333.691,0,0
188322,353.519,-328.347,0,0
188583,358.105,-322.97,0,0
188843,363.06,-317.619,0,0
189103,368.335,-312.296,0,0
189364,373.823,-306.934,0,0
189624,379.764,-301.689,0,0
189884,385.992,-296.43,0,0
190145,392.477,-291.235,0,0
190405,399.573,-286.271,0,0
190665,406.954,-281.456,0,0
190926,414.688,-276.804,0,0
191186,422.649,-272.437,0,0
191446,430.947,-268.268,0,0
191707,439.641,-264.193,0,0
191967,448.772,-260.64,0,0
192227,458.128,-257.227,0,0
192488,467.728,-254.258,0,0
192748,477.622,-251.564,0,0
193008,487.822,-249.268,0,0
193269,498.209,-247.386,0,0
193529,508.693,-245.93,0,0
193789,519.423,-244.822,0,0
194050,530.048,-244.104,0,0
194310,540.986,-243.741,0,0
194570,551.98,-243.71,0,0
194831,563.074,-244.024,0,0
195091,574.296,-244.676,0,0
195351,585.548,-245.672,0,0
195612,596.866,-246.915,0,0
195872,608.408,-248.379,0,0
196132,620.222,-250.176,0,0
196393,632.26,-252.361,0,0
196653,644.554,-254.993,0,0
196913,657.016,-257.974,0,0
197174,669.901,-261.439,0,0
197434,683.17,-265.613,0,0
197694,696.655,-270.567,0,0
197955,710.248,-276.346,0,0
198215,723.866,-282.924,0,0
198475,737.544,-290.317,0,0
198735,751.282,-298.615,0,0
198996,764.973,-307.983,0,0
199256,778.513,-318.559,0,0
199516,791.417,-330.432,0,0
199777,803.515,-343.225,0,0
200037,814.891,-356.814,0,0
200297,825.521,-371.289,0,0
200558,835.214,-386.536,0,0
200818,843.934,-402.429,0,0
201078,851.482,-418.952,0,0
201339,857.765,-435.791,0,0
201599,862.896,-452.772,0,0
201859,866.966,-469.963,0,0
202120,869.834,-486.937,0,0
202380.025,871.892,-503.628,0,0
202640.35,872.85,-520.301,0,0
202900.675,872.553,-536.377,0,0
203161.0,871.801,-551.561,0,0
203421.325,871.055,-566.407,0,0
203681.65,869.991,-581.355,0,0
203941.975,868.153,-596.483,0,0
204202.3,865.528,-611.285,0,0
204462.625,862.221,-625.645,0,0
204722.95,858.376,-639.496,0,0
204983.275,854.354,-652.906,0,0
205243.6,849.901,-666.486,0,0
205503.925,844.487,-679.352,0,0
205764.25,838.916,-691.364,0,0
206024.575,833.4,-702.936,0,0
206284.9,827.877,-714.349,0,0
206545.225,822.248,-725.631,0,0
206805.55,816.808,-736.911,0,0
207065.875,811.157,-748.578,0,0
207326.2,804.694,-760.826,0,0
207586.525,797.107,-773.126,0,0
207846.85,788.258,-785.066,0,0
208107.175,778.179,-796.226,0,0
208367.5,767.433,-806.213,0,0
208627.825,756.268,-815.085,0,0
208888.15,744.773,-823.04,0,0
209148.475,732.98,-829.931,0,0
209408.8,721.266,-835.458,0,0
209669.125,710.084,-840.183,0,0
209929.45,699.111,-844.419,0,0
210189.775,688.357,-847.872,0,0
210450.1,677.787,-850.726,0,0
210710.425,667.775,-853.078,0,0
210970.75,657.728,-854.913,0,0
211231.075,648.14,-856.088,0,0
211491.4,638.961,-856.888,0,0
211751.725,630.174,-857.27,0,0
212012.05,621.744,-857.194,0,0
212272.375,613.864,-856.692,0,0
212532.7,606.768,-855.96,0,0
212793.025,600.215,-855.34,0,0
213053.35,593.817,-854.767,0,0
213313.675,587.631,-854.015,0,0
213574.0,581.848,-852.981,0,0
213834.325,576.492,-851.776,0,0
214094.65,571.715,-850.411,0,0
214354.975,567.711,-849.011,0,0
214615.3,564.37,-848.015,0,0
214875.625,561.632,-847.645,0,0
215135.95,559.005,-847.67,0,0
215396.275,556.469,-848.48,0,0
215656.6,553.852,-849.76,0,0
215916.925,550.961,-851.433,0,0
216177.25,547.804,-853.429,0,0
216437.575,544.123,-855.601,0,0
216697.9,539.956,-857.77,0,0
216958.225,535.425,-859.54,0,0
217218.55,530.984,-860.806,0,0
217478.875,526.681,-861.974,0,0
217739.2,522.509,-863.23,0,0
217999.525,518.378,-864.398,0,0
218259.85,514.316,-865.541,0,0
218520,510.141,-866.833,0,0
218780,505.954,-867.998,0,0
219041,501.885,-869.066,0,0
219301,497.992,-870.275,0,0
219561,493.965,-871.673,0,0
219822,489.865,-873.075,0,0
220082,485.654,-874.623,0,0
220342,481.121,-876.194,0,0
220603,476.504,-877.563,0,0
220863,471.665,-878.786,0,0
221123,466.744,-879.799,0,0
221384,461.954,-880.701,0,0
221644,457.142,-881.644,0,0
221904,452.211,-882.426,0,0
222165,447.185,-883.084,0,0
222425,442.196,-883.478,0,0
222685,437.508,-883.716,0,0
222946,432.838,-884.021,0,0
223206,428.073,-884.354,0,0
223466,423.305,-884.561,0,0
223727,418.663,-884.794,0,0
223987,413.889,-884.857,0,0
224247,409.249,-884.999,0,0
224508,404.732,-885.358,0,0
224768,399.995,-885.592,0,0
225028,395.077,-885.942,0,0
225289,390.062,-886.238,0,0
225549,384.923,-886.474,0,0
225809,379.422,-886.632,0,0
226070,373.821,-886.55,0,0
226330,367.967,-886.245,0,0
226590,362.178,-885.474,0,0
226851,356.428,-884.511,0,0
227111,350.579,-883.421,0,0
227371,344.999,-881.981,0,0
227632,339.333,-880.467,0,0
227892,333.619,-878.885,0,0
228152,327.901,-876.924,0,0
228413,322.167,-874.598,0,0
228673,316.648,-871.951,0,0
228933,311.27,-869.024,0,0
229193,306.203,-865.804,0,0
229454,301.39,-862.502,0,0
229714,296.796,-859.014,0,0
229974,292.607,-855.473,0,0
230235,288.438,-851.9,0,0
230495,284.66,-848.284,0,0
230755,281.037,-844.649,0,0
231016,277.599,-840.873,0,0
231276,274.46,-837.237,0,0
231536,271.407,-833.66,0,0
231797,268.516,-830.108,0,0
232057,265.743,-826.461,0,0
232317,263.17,-822.926,0,0
232578,260.636,-819.414,0,0
232838,258.271,-815.915,0,0
233098,256.06,-812.323,0,0
233359,254.022,-808.832,0,0
233619,252.118,-805.365,0,0
233879,250.367,-802.019,0,0
234140,248.679,-798.736,0,0
234400,247.041,-795.581,0,0
234660.3,245.428,-792.322,0,0
234920.625,244,-789.086,0,0
235180.95,242.713,-785.954,0,0
235441.275,241.585,-782.917,0,0
235701.6,240.594,-780.146,0,0
235961.925,239.396,-777.459,0,0
236222.25,238.195,-774.772,0,0
236482.575,236.91,-772.062,0,0
236742.9,235.799,-769.306,0,0
237003.225,234.677,-766.546,0,0
237263.55,233.648,-763.663,0,0
237523.875,232.737,-760.818,0,0
237784.2,232.012,-757.944,0,0
238044.525,231.446,-755.163,0,0
238304.85,231.118,-752.489,0,0
238565.175,230.845,-749.959,0,0
238825.5,230.635,-747.698,0,0
239085.825,230.446,-745.467,0,0
239346.15,230.27,-743.422,0,0
239606.475,230.104,-741.504,0,0
239866.8,229.919,-739.654,0,0
240127.125,229.691,-737.977,0,0
240387.45,229.449,-736.38,0,0
240647.775,229.147,-734.813,0,0
240908.1,228.786,-733.418,0,0
241168.425,228.399,-732.01,0,0
241428.75,227.995,-730.65,0,0
241689.075,227.516,-729.397,0,0
241949.4,226.961,-728.232,0,0
242209.725,226.321,-727.027,0,0
242470.05,225.66,-725.93,0,0
242730.375,224.835,-724.836,0,0
242990.7,223.975,-723.693,0,0
243251.025,223.049,-722.536,0,0
243511.35,222.084,-721.398,0,0
243771.675,221.071,-720.255,0,0
244032.0,219.933,-719.115,0,0
244292.325,218.719,-717.861,0,0
244552.65,217.404,-716.636,0,0
244812.975,216.007,-715.183,0,0
245073.3,214.639,-713.587,0,0
245333.625,213.276,-711.962,0,0
245593.95,211.974,-710.222,0,0
245854.275,210.767,-708.279,0,0
246114.6,209.651,-706.396,0,0
246374.925,208.529,-704.41,0,0
246635.25,207.509,-702.423,0,0
246895.575,206.541,-700.314,0,0
247155.9,205.759,-698.199,0,0
247416.225,205.07,-696.043,0,0
247676.55,204.629,-693.967,0,0
247936.875,204.266,-692.143,0,0
248197.2,203.868,-690.406,0,0
248457.525,203.398,-688.741,0,0
248717.85,202.867,-687.136,0,0
248978.175,202.293,-685.486,0,0
249238.5,201.73,-683.876,0,0
249498.825,201.14,-682.241,0,0
249759.15,200.537,-680.637,0,0
250019.475,199.954,-679.015,0,0
250279.8,199.424,-677.37,0,0
250540,198.848,-675.83,0,0
250800,198.285,-674.343,0,0
251061,197.593,-672.83,0,0
251321,196.885,-671.364,0,0
251581,196.085,-669.882,0,0
251842,195.224,-668.435,0,0
252102,194.211,-666.965,0,0
252362,193.08,-665.416,0,0
252623,191.824,-663.667,0,0
252883,190.418,-661.786,0,0
253143,189.049,-659.601,0,0
253404,187.695,-657.213,0,0
253664,186.456,-654.588,0,0
253924,185.399,-651.828,0,0
254185,184.544,-648.956,0,0
254445,183.709,-646.094,0,0
254705,183.093,-643.087,0,0
254966,182.533,-639.998,0,0
255226,182.059,-636.867,0,0
255486,181.645,-633.688,0,0
255747,181.297,-630.32,0,0
256007,181.202,-626.633,0,0
256267,181.362,-622.938,0,0
256528,181.877,-619.185,0,0
256788,182.591,-615.524,0,0
257048,183.47,-611.884,0,0
257309,184.521,-608.204,0,0
257569,185.814,-604.522,0,0
257829,187.421,-600.828,0,0
258090,189.305,-597.261,0,0
258350,191.325,-593.888,0,0
258610,193.536,-590.564,0,0
258871,195.927,-587.247,0,0
259131,198.66,-583.997,0,0
259391,201.663,-580.953,0,0
259651,204.911,-578.187,0,0
259912,208.36,-575.652,0,0
260172,211.89,-573.373,0,0
260432,215.601,-571.291,0,0
260693,219.488,-569.437,0,0
260953,223.578,-567.919,0,0
261213,227.762,-566.742,0,0
261474,231.915,-565.953,0,0
261734,235.995,-565.48,0,0
261994,239.983,-565.236,0,0
262255,243.894,-565.157,0,0
262515,247.794,-565.188,0,0
262775,251.793,-565.343,0,0
263036,255.925,-565.718,0,0
263296,260.085,-566.484,0,0
263556,264.35,-567.547,0,0
263817,268.553,-569.014,0,0
264077,272.836,-571.232,0,0
264337,276.413,-573.584,0,0
264598,279.892,-576.015,0,0
264858,283.195,-578.733,0,0
265118,286.338,-581.632,0,0
265379,289.197,-584.743,0,0
265639,291.919,-587.989,0,0
265899,294.508,-591.496,0,0
266160,296.867,-595.361,0,0
266420,298.888,-599.508,0,0
266680.25,300.491,-603.873,0,0
266940.575,301.549,-608.327,0,0
267200.9,302.167,-612.721,0,0
267461.225,302.473,-617.128,0,0
267721.55,302.401,-621.433,0,0
267981.875,302.015,-625.615,0,0
268242.2,301.484,-629.628,0,0
268502.525,300.794,-633.662,0,0
268762.85,299.813,-637.851,0,0
269023.175,298.441,-642.043,0,0
269283.5,296.47,-646.25,0,0
269543.825,293.904,-650.062,0,0
269804.15,290.886,-653.409,0,0
270064.475,287.729,-656.07,0,0
270324.8,284.587,-658.213,0,0
270585.125,281.611,-659.868,0,0
270845.45,278.8,-661.14,0,0
271105.775,276.301,-662.248,0,0
271366.1,274.15,-663.126,0,0
271626.425,272.349,-664.187,0,0
271886.75,270.587,-665.323,0,0
272147.075,268.978,-666.672,0,0
272407.4,267.284,-668.246,0,0
272667.725,265.476,-669.826,0,0
272928.05,263.528,-671.54,0,0
273188.375,261.406,-673.172,0,0
273448.7,259.216,-674.859,0,0
273709.025,256.881,-676.559,0,0
273969.35,254.381,-678.328,0,0
274229.675,251.669,-680.05,0,0
274490.0,248.681,-681.692,0,0
274750.325,245.454,-683.299,0,0
275010.65,241.969,-684.773,0,0
275270.975,238.151,-685.953,0,0
275531.3,234.054,-686.844,0,0
275791.625,229.913,-687.361,0,0
276051.95,225.579,-687.506,0,0
276312.275,221.234,-687.254,0,0
276572.6,216.961,-686.591,0,0
276832.925,212.728,-685.587,0,0
277093.25,208.588,-684.231,0,0
277353.575,204.627,-682.488,0,0
277613.9,200.898,-680.391,0,0
277874.225,197.424,-678.078,0,0
278134.55,194.198,-675.494,0,0
278394.875,191.255,-672.698,0,0
278655.2,188.699,-669.605,0,0
278915.525,186.561,-666.399,0,0
279175.85,184.881,-663.126,0,0
279436.175,183.664,-659.885,0,0
279696.5,182.924,-656.857,0,0
279956.825,182.466,-654.113,0,0
280217.15,182.288,-651.641,0,0
280477.475,182.152,-649.59,0,0
280737.8,181.984,-647.719,0,0
280998.125,181.802,-646.04,0,0
281258.45,181.619,-644.476,0,0
281518.775,181.432,-643.105,0,0
281779.1,181.092,-641.854,0,0
282039.425,180.571,-640.571,0,0
282299.75,179.992,-639.126,0,0
282560,179.552,-637.51,0,0
282820,179.347,-635.818,0,0
283081,179.444,-634.212,0,0
283341,179.723,-632.881,0,0
283601,180.104,-631.835,0,0
283862,180.403,-631.075,0,0
284122,180.57,-630.521,0,0
284382,180.57,-630.095,0,0
284643,180.405,-629.752,0,0
284903,180.117,-629.425,0,0
285163,179.629,-629.121,0,0
285424,179.06,-628.804,0,0
285684,178.386,-628.485,0,0
285944,177.637,-628.19,0,0
286205,176.63,-627.886,0,0
286465,175.284,-627.475,0,0
286725,173.791,-626.707,0,0
286986,172.291,-625.635,0,0
287246,170.872,-624.307,0,0
287506,169.6,-622.738,0,0
287767,168.409,-621.062,0,0
288027,167.275,-619.182,0,0
288287,166.274,-617.048,0,0
288548,165.467,-614.7,0,0
288808,164.957,-612.111,0,0
289068,164.832,-609.385,0,0
289329,165.061,-606.583,0,0
289589,165.755,-603.809,0,0
289849,166.862,-601.169,0,0
290109,168.37,-598.731,0,0
290370,170.186,-596.607,0,0
290630,172.268,-594.781,0,0
290890,174.591,-593.307,0,0
291151,177.05,-592.224,0,0
291411,179.595,-591.556,0,0
291671,182.177,-591.294,0,0
291932,184.716,-591.414,0,0
292192,187.145,-591.874,0,0
292452,189.507,-592.668,0,0
292713,191.718,-593.819,0,0
292973,193.757,-595.321,0,0
293233,195.55,-597.17,0,0
293494,197.011,-599.282,0,0
293754,198.15,-601.588,0,0
294014,198.935,-604.063,0,0
294275,199.376,-606.632,0,0
294535,199.441,-609.306,0,0
294795,199.132,-612.033,0,0
295056,198.352,-614.7,0,0
295316,197.239,-617.221,0,0
295576,195.778,-619.551,0,0
295837,194.065,-621.708,0,0
296097,192.083,-623.605,0,0
296357,189.887,-625.255,0,0
296618,187.518,-626.59,0,0
296878,185.06,-627.586,0,0
297138,182.605,-628.26,0,0
297399,180.245,-628.693,0,0
297659,177.948,-628.92,0,0
297919,175.751,-628.964,0,0
298180,173.65,-628.887,0,0
298440,171.646,-628.701,0,0
298700.2,169.762,-628.463,0,0
298960.525,167.963,-628.204,0,0
299220.85,166.172,-627.898,0,0
299481.175,164.426,-627.53,0,0
299741.5,162.727,-627.13,0,0
300001.825,161.073,-626.739,0,0
300262.15,159.429,-626.325,0,0
300522.475,157.778,-625.873,0,0
300782.8,156.108,-625.383,0,0
301043.125,154.453,-624.842,0,0
301303.45,152.764,-624.254,0,0
301563.775,151.09,-623.566,0,0
301824.1,149.441,-622.761,0,0
302084.425,147.871,-621.857,0,0
302344.75,146.403,-620.905,0,0
302605.075,145.049,-619.929,0,0
302865.4,143.758,-619.014,0,0
303125.725,142.459,-618.101,0,0
303386.05,141.184,-617.198,0,0
303646.375,139.862,-616.264,0,0
303906.7,138.573,-615.271,0,0
304167.025,137.31,-614.21,0,0
304427.35,136.115,-613.113,0,0
304687.675,134.945,-611.97,0,0
304948.0,133.837,-610.819,0,0
305208.325,132.807,-609.601,0,0
305468.65,131.828,-608.357,0,0
305728.975,130.929,-607.129,0,0
305989.3,130.056,-605.925,0,0
306249.625,129.249,-604.676,0,0
306509.95,128.5,-603.408,0,0
306770.275,127.879,-602.143,0,0
307030.6,127.329,-600.908,0,0
307290.925,126.851,-599.708,0,0
307551.25,126.441,-598.59,0,0
307811.575,126.095,-597.553,0,0
308071.9,125.742,-596.56,0,0
308332.225,125.443,-595.659,0,0
308592.55,125.143,-594.812,0,0
308852.875,124.834,-594.063,0,0
309113.2,124.473,-593.405,0,0
309373.525,124.076,-592.762,0,0
309633.85,123.656,-592.162,0,0
309894.175,123.151,-591.598,0,0
310154.5,122.596,-591.038,0,0
310414.825,121.997,-590.447,0,0
310675.15,121.346,-589.859,0,0
310935.475,120.635,-589.239,0,0
311195.8,119.881,-588.549,0,0
311456.125,119.147,-587.796,0,0
311716.45,118.443,-587.012,0,0
311976.775,117.743,-586.21,0,0
312237.1,117.076,-585.367,0,0
312497.425,116.417,-584.517,0,0
312757.75,115.774,-583.65,0,0
313018.075,115.156,-582.736,0,0
313278.4,114.564,-581.796,0,0
313538.725,114.026,-580.845,0,0
313799.05,113.553,-579.849,0,0
314059.375,113.139,-578.896,0,0
314319.7,112.767,-577.962,0,0
314580,112.451,-577.041,0,0
314840,112.203,-576.182,0,0
315101,111.847,-575.38,0,0
315361,111.616,-574.58,0,0
315621,111.417,-573.828,0,0
315882,111.21,-573.144,0,0
316142,110.953,-572.513,0,0
316402,110.72,-571.945,0,0
316663,110.454,-571.322,0,0
316923,110.313,-570.749,0,0
317183,110.081,-570.231,0,0
317444,109.894,-569.837,0,0
317704,109.473,-569.385,0,0
317964,109.196,-568.968,0,0
318225,108.874,-568.613,0,0
318485,108.463,-568.298,0,0
318745,108.109,-567.961,0,0
319006,107.694,-567.753,0,0
319266,107.268,-567.44,0,0
319526,106.693,-567.29,0,0
319787,106.155,-567.146,0,0
320047,105.476,-566.986,0,0
320307,104.667,-566.764,0,0
320567,103.874,-566.727,0,0
320828,103.031,-566.492,0,0
321088,102.041,-566.366,0,0
321348,101.03,-566.139,0,0
321609,99.8444,-565.722,0,0
321869,98.5847,-565.443,0,0
322129,97.2947,-565.011,0,0
322390,95.821,-564.433,0,0
322650,94.3751,-563.754,0,0
322910,92.9261,-562.862,0,0
323171,91.4782,-561.823,0,0
323431,90.1086,-560.647,0,0
323691,88.7661,-559.308,0,0
323952,87.7245,-557.887,0,0
324212,86.6755,-556.463,0,0
324472,85.8036,-554.927,0,0
324733,84.9545,-553.45,0,0
324993,84.309,-551.977,0,0
325253,83.6847,-550.586,0,0
325514,83.1473,-549.291,0,0
325774,82.6014,-547.844,0,0
326034,82.0797,-546.561,0,0
326295,81.5102,-545.299,0,0
326555,81.0755,-544.015,0,0
326815,80.544,-542.662,0,0
327076,80.0007,-541.39,0,0
327336,79.5871,-540.09,0,0
327596,79.0898,-538.71,0,0
327857,78.6851,-537.4,0,0
328117,78.314,-536.059,0,0
328377,77.9198,-534.574,0,0
328638,77.6013,-533.163,0,0
328898,77.3698,-531.65,0,0
329158,77.1492,-530.155,0,0
329419,77.0731,-528.678,0,0
329679,77.0762,-527.293,0,0
329939,77.0855,-525.739,0,0
330200,77.2512,-524.433,0,0
330460,77.481,-523.171,0,0
330720.15,77.7047,-521.919,0,0
330980.475,78.0669,-520.735,0,0
331240.8,78.3692,-519.689,0,0
331501.125,78.703,-518.739,0,0
331761.45,78.8849,-517.837,0,0
332021.775,79.241,-516.954,0,0
332282.1,79.4826,-516.211,0,0
332542.425,79.7745,-515.521,0,0
332802.75,79.9178,-514.726,0,0
333063.075,80.0255,-514.191,0,0
333323.4,80.1625,-513.611,0,0
333583.725,80.1853,-513.078,0,0
333844.05,80.1711,-512.509,0,0
334104.375,80.0497,-511.987,0,0
334364.7,79.8326,-511.424,0,0
334625.025,79.6104,-510.797,0,0
334885.35,79.4198,-510.226,0,0
335145.675,79.0574,-509.528,0,0
335406.0,78.8217,-508.897,0,0
335666.325,78.4784,-508.187,0,0
335926.65,78.1017,-507.434,0,0
336186.975,77.7127,-506.656,0,0
336447.3,77.2562,-505.78,0,0
336707.625,76.7749,-504.822,0,0
336967.95,76.4376,-503.829,0,0
337228.275,76.0355,-502.72,0,0
337488.6,75.717,-501.547,0,0
337748.925,75.4438,-500.338,0,0
338009.25,75.2774,-499.139,0,0
338269.575,75.1768,-497.946,0,0
338529.9,75.0686,-496.688,0,0
338790.225,75.0139,-495.415,0,0
339050.55,75.0266,-494.118,0,0
339310.875,75.1177,-492.888,0,0
339571.2,75.2452,-491.564,0,0
339831.525,75.4219,-490.291,0,0
340091.85,75.6783,-489.054,0,0
340352.175,76.0337,-487.763,0,0
340612.5,76.4043,-486.533,0,0
340872.825,76.8504,-485.274,0,0
341133.15,77.3916,-484.111,0,0
341393.475,77.9753,-482.97,0,0
341653.8,78.757,-481.913,0,0
341914.125,79.456,-480.842,0,0
342174.45,80.2748,-479.92,0,0
342434.775,81.1911,-479.136,0,0
342695.1,82.1305,-478.451,0,0
342955.425,83.1183,-477.864,0,0
343215.75,83.9985,-477.442,0,0
343476.075,84.8744,-477.128,0,0
343736.4,85.6622,-476.974,0,0
343996.725,86.4039,-476.839,0,0
344257.05,87.0481,-476.808,0,0
344517.375,87.6317,-476.831,0,0
344777.7,88.1291,-476.871,0,0
345038.025,88.5371,-476.935,0,0
345298.35,88.8981,-477.067,0,0
345558.675,89.1318,-477.174,0,0
345819.0,89.2688,-477.312,0,0
346079.325,89.3988,-477.447,0,0
346339.65,89.4081,-477.555,0,0
346599.975,89.3848,-477.672,0,0
346860,89.2545,-477.726,0,0
347121,89.0952,-477.762,0,0
347381,88.8867,-477.762,0,0
347641,88.642,-477.716,0,0
347902,88.3745,-477.613,0,0
348162,88.0939,-477.52,0,0
348422,87.7774,-477.37,0,0
348683,87.4481,-477.21,0,0
348943,87.0062,-477.075,0,0
349203,86.6424,-476.757,0,0
349464,86.1825,-476.46,0,0
349724,85.786,-476.175,0,0
349984,85.3207,-475.762,0,0
350245,84.8833,-475.361,0,0
350505,84.4734,-474.887,0,0
350765,84.0188,-474.392,0,0
351025,83.6605,-473.842,0,0
351286,83.2748,-473.273,0,0
351546,82.8811,-472.691,0,0
351806,82.5421,-472.117,0,0
352067,82.2034,-471.436,0,0
352327,81.7897,-470.706,0,0
352587,81.5429,-469.991,0,0
352848,81.2669,-469.198,0,0
353108,81.0741,-468.466,0,0
353368,80.8455,-467.69,0,0
353629,80.7466,-466.878,0,0
353889,80.6349,-466.067,0,0
354149,80.6273,-465.257,0,0
354410,80.7458,-464.496,0,0
354670,80.8267,-463.866,0,0
354930,80.9664,-463.266,0,0
355191,81.0564,-462.656,0,0
355451,81.2107,-462.21,0,0
355711,81.2757,-461.756,0,0
355972,81.2734,-461.288,0,0
356232,81.2447,-460.824,0,0
356492,81.2382,-460.473,0,0
356753,81.1843,-460.052,0,0
357013,81.0697,-459.652,0,0
357273,80.897,-459.298,0,0
357534,80.7153,-458.834,0,0
357794,80.4574,-458.51,0,0
358054,80.2674,-457.995,0,0
358315,79.9409,-457.494,0,0
358575,79.5899,-456.905,0,0
358835,79.2305,-456.351,0,0
359096,78.9433,-455.694,0,0
359356,78.5982,-454.936,0,0
359616,78.3452,-454.173,0,0
359877,78.1222,-453.331,0,0
360137,77.9097,-452.433,0,0
360397,77.8257,-451.64,0,0
360658,77.8067,-450.748,0,0
360918,77.6809,-449.902,0,0
361178,77.7088,-448.998,0,0
361438,77.7507,-448.193,0,0
361699,77.7634,-447.277,0,0
361959,77.9181,-446.413,0,0
362219,78.0486,-445.636,0,0
362480,78.2813,-444.827,0,0
362740.1,78.5271,-444.097,0,0
363000.425,78.7867,-443.391,0,0
363260.75,79.0222,-442.727,0,0
363521.075,79.2664,-442.175,0,0
363781.4,79.4426,-441.622,0,0
364041.725,79.6386,-441.059,0,0
364302.05,79.6875,-440.523,0,0
364562.375,79.7638,-439.968,0,0
364822.7,79.8074,-439.405,0,0
365083.025,79.8642,-438.875,0,0
365343.35,79.7795,-438.189,0,0
365603.675,79.8553,-437.532,0,0
365864.0,79.7944,-436.782,0,0
366124.325,79.8657,-436.034,0,0
366384.65,79.8621,-435.173,0,0
366644.975,79.985,-434.297,0,0
366905.3,80.0739,-433.406,0,0
367165.625,80.3017,-432.48,0,0
367425.95,80.5949,-431.573,0,0
367686.275,80.9766,-430.6,0,0
367946.6,81.2935,-429.662,0,0
368206.925,81.7867,-428.762,0,0
368467.25,82.2481,-427.841,0,0
368727.575,82.8343,-426.925,0,0
368987.9,83.4807,-426.054,0,0
369248.225,84.2239,-425.23,0,0
369508.55,85.0418,-424.441,0,0
369768.875,85.8584,-423.707,0,0
370029.2,86.7847,-423.12,0,0
370289.525,87.7627,-422.551,0,0
370549.85,88.7489,-422.054,0,0
370810.175,89.8021,-421.691,0,0
371070.5,90.8482,-421.31,0,0
371330.825,91.8864,-421.089,0,0
371591.15,92.9811,-421.016,0,0
371851.475,94.0464,-421.032,0,0
372111.8,95.0546,-421.146,0,0
372372.125,96.1034,-421.361,0,0
372632.45,97.0662,-421.723,0,0
372892.775,97.9382,-422.206,0,0
373153.1,98.7438,-422.766,0,0
373413.425,99.3671,-423.436,0,0
373673.75,99.9702,-424.11,0,0
373934.075,100.342,-424.813,0,0
374194.4,100.635,-425.501,0,0
374454.725,100.815,-426.242,0,0
374715.05,100.838,-426.921,0,0
374975.375,100.736,-427.545,0,0
375235.7,100.582,-428.071,0,0
375496.025,100.41,-428.538,0,0
375756.35,100.179,-428.965,0,0
376016.675,99.9725,-429.309,0,0
376277.0,99.7156,-429.596,0,0
376537.325,99.4041,-429.79,0,0
376797.65,99.172,-429.949,0,0
377057.975,98.8989,-430.074,0,0
377318.3,98.6965,-430.199,0,0
377578.625,98.5519,-430.265,0,0
377838.95,98.3782,-430.443,0,0
378099.275,98.1805,-430.612,0,0
378359.6,98.0216,-430.741,0,0
378619.925,97.8024,-430.873,0,0
378880,97.5522,-431.043,0,0
379141,97.2531,-431.234,0,0
379401,96.9072,-431.331,0,0
379661,96.4949,-431.352,0,0
379922,96.1951,-431.38,0,0
380182,95.8265,-431.349,0,0
380442,95.5237,-431.311,0,0
380703,95.1771,-431.274,0,0
380963,94.9009,-431.204,0,0
381223,94.5469,-431.1,0,0
381483,94.2667,-431,0,0
381744,93.91,-430.8,0,0
382004,93.6706,-430.5,0,0
382264,93.5368,-430.246,0,0
382525,93.5594,-430.028,0,0
382785,93.6846,-429.895,0,0
383045,93.8557,-429.896,0,0
383306,94.0256,-430.011,0,0
383566,94.1209,-430.338,0,0
383826,94.1247,-430.787,0,0
384087,94.0505,-431.353,0,0
384347,93.7985,-431.958,0,0
384607,93.3018,-432.599,0,0
384868,92.7133,-433.169,0,0
385128,91.9676,-433.717,0,0
385388,91.153,-434.19,0,0
385649,90.1077,-434.537,0,0
385909,89.0607,-434.818,0,0
386169,87.8684,-434.847,0,0
386430,86.666,-434.856,0,0
386690,85.4447,-434.655,0,0
386950,84.3454,-434.313,0,0
387211,83.1562,-433.814,0,0
387471,81.976,-433.221,0,0
387731,81.0066,-432.511,0,0
387992,80.0897,-431.696,0,0
388252,79.1945,-430.798,0,0
388512,78.5394,-429.803,0,0
388773,77.9692,-428.852,0,0
389033,77.5572,-427.834,0,0
389293,77.2393,-426.802,0,0
389554,77.1329,-425.898,0,0
389814,77.0684,-424.938,0,0
390074,77.1582,-424.187,0,0
390335,77.2687,-423.541,0,0
390595,77.4083,-423.038,0,0
390855,77.6215,-422.63,0,0
391116,77.7879,-422.337,0,0
391376,77.9066,-422.161,0,0
391636,77.9468,-422.153,0,0
391896,77.9414,-422.207,0,0
392157,77.856,-422.351,0,0
392417,77.5673,-422.55,0,0
392677,77.1174,-422.787,0,0
392938,76.4649,-422.94,0,0
393198,75.7861,-423.068,0,0
393458,74.9489,-423.025,0,0
393719,73.9883,-422.945,0,0
393979,73.1083,-422.698,0,0
394239,72.1218,-422.345,0,0
394500,71.1773,-421.915,0,0
394760.05,70.2756,-421.36,0,0
395020.375,69.3871,-420.75,0,0
395280.7,68.492,-420.043,0,0
395541.025,67.6818,-419.281,0,0
395801.35,66.909,-418.452,0,0
396061.675,66.2119,-417.589,0,0
396322.0,65.5242,-416.653,0,0
396582.325,64.9436,-415.726,0,0
396842.65,64.4021,-414.846,0,0
397102.975,63.9122,-413.88,0,0
397363.3,63.4613,-412.947,0,0
397623.625,63.0161,-411.99,0,0
397883.95,62.647,-411.052,0,0
398144.275,62.234,-410.106,0,0
398404.6,61.8396,-409.192,0,0
398664.925,61.5262,-408.236,0,0
398925.25,61.2133,-407.256,0,0
399185.575,60.9373,-406.285,0,0
399445.9,60.6732,-405.26,0,0
399706.225,60.4537,-404.322,0,0
399966.55,60.1939,-403.317,0,0
400006.6,60.1848,-403.138,0,0