File: Accelerated corrosion test data/2025-10-09_18-00-04/sample_3.csv
Frequency (Hz),Impedance (ohms),Phase (Radians),Temperature (C),Humidity (%)
10000.0,251.23,-11781.6,0,0
10260.325,244.85,-11485.1,0,0
10520.65,238.825,-11202.5,0,0
10780.975,234.455,-10933,0,0
11041.3,228.637,-10680.8,0,0
11301.625,223.591,-10436,0,0
11561.95,218.88,-10202.4,0,0
11822.275,214.43,-9979.06,0,0
12082.6,211.559,-9765.43,0,0
12342.925,209.377,-9560.01,0,0
12603.25,202.598,-9366.15,0,0
12863.575,198.67,-9176.69,0,0
13123.9,199.085,-8993.41,0,0
13384.225,192.283,-8825.42,0,0
13644.55,189.109,-8657.34,0,0
13904.875,185.079,-8494.81,0,0
14165.2,185.259,-8337.54,0,0
14425.525,180.959,-8188.37,0,0
14685.8,177.174,-8043.77,0,0
14946.175,175.74,-7903.91,0,0
15206.5,172.49,-7764.65,0,0
15466.825,179.892,-7624.46,0,0
15727.15,191.412,-7524.58,0,0
15987.5,172.944,-7411.32,0,0
16247.8,167.482,-7282.22,0,0
16508.125,161.206,-7169.97,0,0
16768.45,166.353,-7049.66,0,0
17028.775,157.071,-6951.68,0,0
17289.1,160.358,-6838.44,0,0
17549.425,156.104,-6746.95,0,0
17809.75,156.722,-6641.47,0,0
18070.075,161.956,-6555.86,0,0
18330.4,150.273,-6461.66,0,0
18590.725,147.938,-6369.77,0,0
18851.05,144.649,-6280.05,0,0
19111.375,146.138,-6190.41,0,0
19371.7,144.924,-6107.7,0,0
19632.025,145.699,-6024.04,0,0
19892.35,147.465,-5943.04,0,0
20152.675,148.691,-5868.84,0,0
20413.0,157.735,-5790.19,0,0
20673.3,165.268,-5723.71,0,0
20933.65,160.495,-5669.72,0,0
21193.975,161.433,-5604.03,0,0
21454.3,145.128,-5544.96,0,0
21714.625,137.918,-5469.44,0,0
21974.9,141.545,-5403.21,0,0
22235.275,138.527,-5345.53,0,0
22495.6,137.131,-5283.55,0,0
22755.925,129.028,-5223.38,0,0
23016.25,128.002,-5164.12,0,0
23276.6,127.594,-5102.41,0,0
23536.9,128.629,-5056.41,0,0
23797.225,120.925,-4997.67,0,0
24057.55,118.845,-4940.71,0,0
24317.875,118.228,-4884.91,0,0
24578.2,116.89,-4835.44,0,0
24838.525,118.084,-4781.72,0,0
25098.85,115.563,-4735.52,0,0
25359.175,113.048,-4685.55,0,0
25619.5,113.543,-4638.11,0,0
25879.8,110.516,-4591.75,0,0
26140.1,108.589,-4544.32,0,0
26400.5,107.255,-4497.34,0,0
26660.8,107.797,-4452.26,0,0
26921.1,108.205,-4407.93,0,0
27181.4,108.347,-4367.65,0,0
27441.8,107.242,-4323.68,0,0
27702.1,107.634,-4283.88,0,0
27962.4,105.324,-4244.44,0,0
28222.7,102.981,-4201.41,0,0
28483.1,110.295,-4159.15,0,0
28743.4,112.893,-4124.61,0,0
29003.7,115.196,-4094.56,0,0
29264,107.386,-4061.38,0,0
29524.4,108.875,-4024.29,0,0
29784.7,104.353,-3989.78,0,0
30045,102.465,-3955.74,0,0
30305.3,100.019,-3918.91,0,0
30565.7,102.022,-3884.72,0,0
30826,100.592,-3852.7,0,0
31086.3,102.332,-3819.82,0,0
31346.6,98.425,-3789.18,0,0
31607,97.5987,-3755.2,0,0
31867.3,97.9197,-3721.35,0,0
32127.6,101.225,-3688.29,0,0
32387.9,109.389,-3659.72,0,0
32648.3,111.694,-3641.95,0,0
32908.6,103.564,-3617.85,0,0
33168.9,100.673,-3590.33,0,0
33429.2,99.237,-3563.33,0,0
33689.6,93.5367,-3536.75,0,0
33949.9,90.5496,-3506.59,0,0
34210.2,90.4345,-3478.66,0,0
34470.5,89.6415,-3452.38,0,0
34730.9,87.8269,-3426.15,0,0
34991.2,86.2795,-3399.42,0,0
35251.5,85.4393,-3373.31,0,0
35511.8,84.6987,-3348.2,0,0
35772.2,83.9925,-3323.26,0,0
36032.5,83.035,-3298.34,0,0
36292.8,82.6941,-3273.74,0,0
36553.1,82.3634,-3250.32,0,0
36813.5,81.4477,-3226.96,0,0
37073.8,80.6953,-3203.71,0,0
37334.1,80.0253,-3180.73,0,0
37594.4,79.6831,-3157.86,0,0
37854.8,79.2533,-3135.94,0,0
38115.1,78.5532,-3113.93,0,0
38375.4,78.0477,-3092.28,0,0
38635.7,77.9305,-3070.77,0,0
38896.1,77.3912,-3049.88,0,0
39156.4,77.2597,-3028.7,0,0
39416.7,77.0528,-3008.58,0,0
39677,76.0943,-2988.46,0,0
39937.4,75.4419,-2968.3,0,0
40197.7,75.1739,-2948.45,0,0
40458,74.7112,-2928.98,0,0
40718.3,74.5546,-2909.7,0,0
40978.7,74.0696,-2890.45,0,0
41239,74.084,-2871.38,0,0
41499.3,74.155,-2853.2,0,0
41759.6,73.8826,-2834.5,0,0
42020,73.7468,-2817.15,0,0
42280.275,73.3995,-2799.1,0,0
42540.6,72.8766,-2781.55,0,0
42800.925,73.1676,-2764.4,0,0
43061.25,72.3758,-2747.55,0,0
43321.575,71.8331,-2730.15,0,0
43581.9,71.6396,-2713.29,0,0
43842.225,71.5664,-2696.25,0,0
44102.55,71.8339,-2679.89,0,0
44362.875,71.836,-2664.37,0,0
44623.2,71.1271,-2648.33,0,0
44883.525,70.8859,-2632.19,0,0
45143.85,70.7467,-2616.52,0,0
45404.175,70.4117,-2601.3,0,0
45664.5,69.9577,-2585.64,0,0
45924.825,70.9733,-2570.42,0,0
46185.15,70.2146,-2556.18,0,0
46445.475,69.6888,-2541.12,0,0
46705.8,69.6035,-2526.04,0,0
46966.125,69.6201,-2511.62,0,0
47226.45,69.469,-2497.35,0,0
47486.775,69.313,-2482.78,0,0
47747.1,69.8801,-2468.45,0,0
48007.425,70.1724,-2455.72,0,0
48267.75,70.4675,-2442.69,0,0
48528.075,69.5082,-2429.32,0,0
48788.4,69.1039,-2416.26,0,0
49048.725,68.4146,-2403.21,0,0
49309.05,67.6787,-2389.84,0,0
49569.375,67.6546,-2376.42,0,0
49829.7,67.6418,-2363.85,0,0
50090.025,66.8576,-2350.82,0,0
50350.35,66.4938,-2338.06,0,0
50610.675,66.095,-2325.08,0,0
50871.0,66.2204,-2312.45,0,0
51131.325,66.0223,-2300.04,0,0
51391.65,65.9169,-2287.6,0,0
51651.975,65.9322,-2275.41,0,0
51912.3,65.9959,-2263.43,0,0
52172.625,65.8123,-2251.46,0,0
52432.95,65.7107,-2239.47,0,0
52693.275,66.0474,-2227.39,0,0
52953.6,66.3127,-2215.68,0,0
53213.925,67.0837,-2203.95,0,0
53474.25,67.7503,-2193.26,0,0
53734.575,67.9891,-2182.62,0,0
53994.9,68.1736,-2171.65,0,0
54255.225,69.1831,-2160.93,0,0
54515.55,70.068,-2151.81,0,0
54775.875,69.4025,-2142.57,0,0
55036.2,68.4987,-2132.76,0,0
55296.525,67.8961,-2123.22,0,0
55556.85,66.4989,-2113.59,0,0
55817.175,64.9694,-2103.03,0,0
56077.5,64.1188,-2092.51,0,0
56337.825,63.2239,-2082.01,0,0
56598.15,62.3522,-2071.37,0,0
56858.475,61.6396,-2060.66,0,0
57118.8,61.1585,-2049.88,0,0
57379.125,60.9879,-2039.36,0,0
57639.45,60.932,-2028.97,0,0
57899.775,61.0026,-2018.89,0,0
58160.1,60.9988,-2008.81,0,0
58420.4,60.9311,-1998.82,0,0
58680.7,60.9208,-1988.86,0,0
58941.1,61.1567,-1979.12,0,0
59201.4,61.2257,-1969.3,0,0
59461.7,61.4163,-1959.63,0,0
59722,61.8079,-1950.07,0,0
59982.4,62.0746,-1940.77,0,0
60242.7,62.3473,-1931.53,0,0
60503,62.4706,-1922.21,0,0
60763.3,62.8062,-1912.98,0,0
61023.7,63.2834,-1903.79,0,0
61284,63.6863,-1894.85,0,0
61544.3,64.1856,-1885.76,0,0
61804.6,64.7356,-1877.25,0,0
62065,64.8832,-1868.35,0,0
62325.3,65.4609,-1859.51,0,0
62585.6,66.0831,-1850.89,0,0
62845.9,66.7592,-1841.8,0,0
63106.3,67.7867,-1833.23,0,0
63366.6,68.4961,-1824.77,0,0
63626.9,69.7532,-1815.77,0,0
63887.2,71.244,-1807.6,0,0
64147.6,72.7301,-1799.06,0,0
64407.9,74.8977,-1790.91,0,0
64668.2,77.4162,-1782.93,0,0
64928.5,80.217,-1775.59,0,0
65188.9,84.2985,-1769.68,0,0
65449.2,86.928,-1765.23,0,0
65709.5,88.8112,-1760.89,0,0
65969.8,91.6908,-1757.83,0,0
66230.2,91.1281,-1758.12,0,0
66490.5,85.4377,-1755.56,0,0
66750.8,80.3764,-1749.07,0,0
67011.1,77.7188,-1740.15,0,0
67271.5,75.957,-1732.35,0,0
67531.8,74.5963,-1723.97,0,0
67792.1,74.8883,-1715.83,0,0
68052.4,74.8302,-1708.17,0,0
68312.8,75.8812,-1701.09,0,0
68573.1,76.0861,-1694.95,0,0
68833.4,76.0337,-1688.63,0,0
69093.7,76.5542,-1682.09,0,0
69354.1,77.0031,-1676.78,0,0
69614.4,76.4451,-1671.45,0,0
69874.7,75.6443,-1665.76,0,0
70135,74.7627,-1660.02,0,0
70395.4,73.8976,-1654.18,0,0
70655.7,72.7316,-1648.15,0,0
70916,71.514,-1641.72,0,0
71176.3,70.4887,-1635.36,0,0
71436.7,69.6418,-1628.64,0,0
71697,68.9329,-1621.75,0,0
71957.3,69.0582,-1614.96,0,0
72217.6,69.0572,-1608.73,0,0
72478,69.065,-1602.57,0,0
72738.3,69.1025,-1596.9,0,0
72998.6,68.902,-1591.3,0,0
73258.9,68.3136,-1585.63,0,0
73519.3,67.8486,-1579.86,0,0
73779.6,67.4543,-1574.22,0,0
74039.9,66.9003,-1568.76,0,0
74300.225,66.1295,-1563.13,0,0
74560.55,65.3877,-1557.39,0,0
74820.875,64.6252,-1551.74,0,0
75081.2,63.9773,-1546.02,0,0
75341.525,63.1934,-1540.21,0,0
75601.85,62.4166,-1534.4,0,0
75862.175,61.6345,-1528.5,0,0
76122.5,60.9341,-1522.64,0,0
76382.825,60.3711,-1516.71,0,0
76643.15,59.8347,-1510.81,0,0
76903.475,59.3743,-1505.01,0,0
77163.8,58.871,-1499.25,0,0
77424.125,58.4189,-1493.49,0,0
77684.45,57.9331,-1487.84,0,0
77944.775,57.4121,-1482.16,0,0
78205.1,56.953,-1476.41,0,0
78465.425,56.4388,-1470.7,0,0
78725.75,56.0968,-1465.03,0,0
78986.075,55.7821,-1459.37,0,0
79246.4,55.3788,-1453.66,0,0
79506.725,54.9464,-1448.09,0,0
79767.05,54.7508,-1442.48,0,0
80027.375,54.4347,-1436.86,0,0
80287.7,54.222,-1431.37,0,0
80548.025,54.0089,-1425.83,0,0
80808.35,53.8213,-1420.44,0,0
81068.675,53.5755,-1415.01,0,0
81329.0,53.4319,-1409.56,0,0
81589.325,53.213,-1404.2,0,0
81849.65,53.1087,-1398.85,0,0
82109.975,52.9635,-1393.47,0,0
82370.3,52.8425,-1388.22,0,0
82630.625,52.7812,-1382.95,0,0
82890.95,52.6966,-1377.75,0,0
83151.275,52.6193,-1372.62,0,0
83411.6,52.5305,-1367.42,0,0
83671.925,52.4808,-1362.28,0,0
83932.25,52.5064,-1357.14,0,0
84192.575,52.3911,-1352.11,0,0
84452.9,52.3813,-1347.1,0,0
84713.225,52.3407,-1342.06,0,0
84973.55,52.286,-1337.07,0,0
85233.875,52.4282,-1332.08,0,0
85494.2,52.3713,-1327.1,0,0
85754.525,52.3889,-1322.17,0,0
86014.85,52.4735,-1317.29,0,0
86275.175,52.4876,-1312.49,0,0
86535.5,52.4673,-1307.64,0,0
86795.825,52.5243,-1302.83,0,0
87056.15,52.5624,-1298.02,0,0
87316.475,52.6534,-1293.16,0,0
87576.8,52.8184,-1288.3,0,0
87837.125,52.8983,-1283.61,0,0
88097.45,53.0472,-1278.83,0,0
88357.775,53.2688,-1274.18,0,0
88618.1,53.4044,-1269.46,0,0
88878.425,53.6527,-1264.63,0,0
89138.75,53.9696,-1259.89,0,0
89399.075,54.3812,-1255.25,0,0
89659.4,54.9138,-1250.63,0,0
89919.725,55.45,-1246.25,0,0
90180,55.9253,-1241.89,0,0
90440.4,56.4605,-1237.74,0,0
90700.7,56.7576,-1233.46,0,0
90961,57.1796,-1229.16,0,0
91221.3,57.6353,-1224.93,0,0
91481.7,58.2704,-1220.72,0,0
91742,58.8173,-1216.84,0,0
92002.3,59.1464,-1212.7,0,0
92262.6,59.8437,-1208.77,0,0
92523,60.5312,-1204.87,0,0
92783.3,61.182,-1201.32,0,0
93043.6,61.6165,-1197.65,0,0
93303.9,62.3197,-1194.05,0,0
93564.3,63.0146,-1190.85,0,0
93824.6,63.5134,-1187.81,0,0
94084.9,63.872,-1185.1,0,0
94345.2,63.5715,-1182.45,0,0
94605.6,63.2397,-1179.52,0,0
94865.9,62.8176,-1176.94,0,0
95126.2,61.4705,-1174.26,0,0
95386.5,59.7491,-1170.54,0,0
95646.9,58.6389,-1166.18,0,0
95907.2,57.9822,-1161.97,0,0
96167.5,57.2954,-1157.75,0,0
96427.8,56.8769,-1153.28,0,0
96688.2,56.808,-1148.98,0,0
96948.5,56.7525,-1144.94,0,0
97208.8,56.6606,-1140.89,0,0
97469.1,56.6791,-1136.93,0,0
97729.5,56.5839,-1133.06,0,0
97989.8,56.5386,-1129.22,0,0
98250.1,56.453,-1125.35,0,0
98510.4,56.4587,-1121.48,0,0
98770.8,56.4813,-1117.68,0,0
99031.1,56.4291,-1114.02,0,0
99291.4,56.1859,-1110.31,0,0
99551.7,55.994,-1106.54,0,0
99812.1,55.8,-1102.65,0,0
100072,55.6783,-1098.71,0,0
100333,55.5766,-1094.93,0,0
100593,55.3818,-1091.01,0,0
100853,55.286,-1086.96,0,0
101114,55.3421,-1082.89,0,0
101374,55.3573,-1078.85,0,0
101634,55.4853,-1074.74,0,0
101895,55.8107,-1070.67,0,0
102155,56.1088,-1066.64,0,0
102415,56.5257,-1062.47,0,0
102676,57.4078,-1058.37,0,0
102936,58.4181,-1054.71,0,0
103196,59.2742,-1051.48,0,0
103457,59.7906,-1048.15,0,0
103717,60.4295,-1044.73,0,0
103977,61.1738,-1041.31,0,0
104238,62.2022,-1038.1,0,0
104498,63.1792,-1035.49,0,0
104758,63.6413,-1033.16,0,0
105019,63.7303,-1030.7,0,0
105279,63.5903,-1027.95,0,0
105539,63.6986,-1025.2,0,0
105800,63.6214,-1022.51,0,0
106060,63.3684,-1019.89,0,0
106320.175,62.9746,-1017.05,0,0
106580.5,62.5925,-1014.15,0,0
106840.825,62.0813,-1011.22,0,0
107101.15,61.4759,-1008.14,0,0
107361.475,60.8904,-1004.79,0,0
107621.8,60.4632,-1001.38,0,0
107882.125,60.0562,-997.96,0,0
108142.45,59.6609,-994.51,0,0
108402.775,59.3283,-990.96,0,0
108663.1,58.9651,-987.401,0,0
108923.425,58.6637,-983.729,0,0
109183.75,58.4432,-979.959,0,0
109444.075,58.5601,-976.065,0,0
109704.4,58.6634,-972.451,0,0
109964.725,58.7439,-968.853,0,0
110225.05,58.8411,-965.131,0,0
110485.375,59.0324,-961.362,0,0
110745.7,59.468,-957.475,0,0
111006.025,60.1186,-953.9,0,0
111266.35,60.732,-950.564,0,0
111526.675,61.1467,-947.294,0,0
111787.0,61.6852,-943.898,0,0
112047.325,62.0783,-940.654,0,0
112307.65,62.5911,-937.474,0,0
112567.975,63.0879,-934.365,0,0
112828.3,63.3427,-931.311,0,0
113088.625,63.6114,-928.101,0,0
113348.95,63.9877,-924.909,0,0
113609.275,64.3555,-921.768,0,0
113869.6,64.6248,-918.594,0,0
114129.925,64.9108,-915.338,0,0
114390.25,65.2294,-912.151,0,0
114650.575,65.4152,-908.788,0,0
114910.9,65.9039,-905.326,0,0
115171.225,66.4236,-901.863,0,0
115431.55,67.0644,-898.484,0,0
115691.875,67.7729,-895.284,0,0
115952.2,68.4031,-892.07,0,0
116212.525,68.9961,-888.723,0,0
116472.85,69.7922,-885.295,0,0
116733.175,70.8773,-882.002,0,0
116993.5,71.9116,-878.97,0,0
117253.825,72.7841,-875.966,0,0
117514.15,73.6257,-872.74,0,0
117774.475,74.9078,-869.319,0,0
118034.8,76.6359,-866.274,0,0
118295.125,78.3701,-863.708,0,0
118555.45,79.9319,-861.605,0,0
118815.775,80.9828,-859.604,0,0
119076.1,81.915,-857.192,0,0
119336.425,83.2143,-854.564,0,0
119596.75,85.1,-852.392,0,0
119857.075,86.7582,-850.952,0,0
120117.4,88.056,-849.905,0,0
120377.725,88.8284,-849.05,0,0
120638.05,89.0906,-848.147,0,0
120898.375,88.9663,-847.065,0,0
121158.7,88.6993,-845.745,0,0
121419.025,88.0563,-844.292,0,0
121679.35,87.2034,-842.366,0,0
121939.675,86.4435,-839.865,0,0
122200.0,86.1867,-837.133,0,0
122460,86.1515,-834.457,0,0
122721,86.228,-831.905,0,0
122981,86.3347,-829.245,0,0
123241,86.7505,-826.701,0,0
123502,87.1504,-824.423,0,0
123762,87.3876,-822.203,0,0
124022,87.5886,-819.89,0,0
124283,87.9355,-817.623,0,0
124543,88.2226,-815.44,0,0
124803,88.4759,-813.272,0,0
125064,88.8231,-811.121,0,0
125324,88.9963,-809.147,0,0
125584,89.1503,-807.092,0,0
125845,89.3693,-805.117,0,0
126105,89.4627,-803.271,0,0
126365,89.4185,-801.473,0,0
126626,89.1982,-799.491,0,0
126886,88.8999,-797.523,0,0
127146,88.6795,-795.347,0,0
127406,88.404,-793.292,0,0
127667,88.066,-791.13,0,0
127927,87.718,-788.918,0,0
128187,87.3871,-786.695,0,0
128448,86.8962,-784.462,0,0
128708,86.3088,-782.055,0,0
128968,85.9118,-779.368,0,0
129229,85.6638,-776.585,0,0
129489,85.466,-774.007,0,0
129749,85.2653,-771.308,0,0
130010,85.1168,-768.502,0,0
130270,85.2585,-765.617,0,0
130530,85.6114,-762.905,0,0
130791,86.0416,-760.458,0,0
131051,86.3373,-758.221,0,0
131311,86.4701,-756.097,0,0
131572,86.4566,-753.965,0,0
131832,86.3087,-751.742,0,0
132092,86.1591,-749.527,0,0
132353,85.8687,-747.157,0,0
132613,85.6923,-744.645,0,0
132873,85.6805,-742.187,0,0
133134,85.5801,-739.882,0,0
133394,85.4564,-737.54,0,0
133654,85.2694,-735.205,0,0
133915,84.9602,-732.88,0,0
134175,84.5857,-730.373,0,0
134435,84.3574,-727.811,0,0
134696,84.0478,-725.334,0,0
134956,83.7048,-722.72,0,0
135216,83.3694,-719.993,0,0
135477,83.1755,-717.234,0,0
135737,82.9614,-714.623,0,0
135997,82.693,-711.953,0,0
136258,82.3472,-709.191,0,0
136518,81.9926,-706.223,0,0
136778,81.8105,-703.113,0,0
137039,81.8586,-700.042,0,0
137299,81.948,-697.016,0,0
137559,82.2201,-694.014,0,0
137819,82.4514,-691.247,0,0
138080,82.5737,-688.425,0,0
138340.125,82.8604,-685.525,0,0
138600.45,83.3616,-682.922,0,0
138860.775,83.5605,-680.606,0,0
139121.1,83.451,-678.154,0,0
139381.425,83.2686,-675.615,0,0
139641.75,83.0387,-672.962,0,0
139902.075,82.7958,-670.094,0,0
140162.4,82.6422,-667.079,0,0
140422.725,82.6656,-664.048,0,0
140683.05,82.8515,-661.216,0,0
140943.375,82.8265,-658.493,0,0
141203.7,82.6562,-655.695,0,0
141464.025,82.4754,-652.828,0,0
141724.35,82.2125,-649.811,0,0
141984.675,82.0013,-646.614,0,0
142245.0,81.9679,-643.344,0,0
142505.325,81.9535,-640.19,0,0
142765.65,81.8651,-636.958,0,0
143025.975,81.8184,-633.566,0,0
143286.3,81.8463,-630.196,0,0
143546.625,81.9026,-626.772,0,0
143806.95,82.0381,-623.307,0,0
144067.275,82.1893,-619.811,0,0
144327.6,82.4139,-616.269,0,0
144587.925,82.6599,-612.68,0,0
144848.25,82.9878,-609.034,0,0
145108.575,83.4335,-605.411,0,0
145368.9,83.8465,-601.826,0,0
145629.225,84.2661,-598.195,0,0
145889.55,84.6791,-594.471,0,0
146149.875,85.21,-590.624,0,0
146410.2,85.8893,-586.821,0,0
146670.525,86.567,-583.059,0,0
146930.85,87.238,-579.183,0,0
147191.175,88.0166,-575.253,0,0
147451.5,88.8374,-571.324,0,0
147711.825,89.7527,-567.247,0,0
147972.15,90.8944,-563.143,0,0
148232.475,92.1597,-559.141,0,0
148492.8,93.4301,-555.236,0,0
148753.125,94.6643,-551.243,0,0
149013.45,96.0092,-547.158,0,0
149273.775,97.4684,-543.017,0,0
149534.1,99.1038,-538.756,0,0
149794.425,101.048,-534.518,0,0
150054.75,103.178,-530.426,0,0
150315.075,105.476,-526.425,0,0
150575.4,107.937,-522.59,0,0
150835.725,110.519,-518.973,0,0
151096.05,113.087,-515.588,0,0
151356.375,115.604,-512.311,0,0
151616.7,118.143,-509.117,0,0
151877.025,120.652,-506.008,0,0
152137.35,123.24,-502.961,0,0
152397.675,125.862,-500.101,0,0
152658.0,128.39,-497.405,0,0
152918.325,130.88,-494.744,0,0
153178.65,133.372,-492.303,0,0
153438.975,135.561,-490.038,0,0
153699.3,137.566,-487.58,0,0
153959.625,139.579,-485.048,0,0
154219.95,141.617,-482.62,0,0
154480,143.391,-480.351,0,0
154741,144.733,-477.948,0,0
155001,145.918,-475.096,0,0
155261,147.245,-471.582,0,0
155522,149.124,-467.788,0,0
155782,151.574,-464.301,0,0
156042,153.934,-461.298,0,0
156303,155.978,-458.186,0,0
156563,157.896,-454.708,0,0
156823,160.196,-450.845,0,0
157084,163.097,-446.829,0,0
157344,166.634,-443.231,0,0
157604,170.549,-440.536,0,0
157864,173.877,-438.421,0,0
158125,176.91,-436.375,0,0
158385,179.763,-434.869,0,0
158645,181.613,-433.541,0,0
158906,182.516,-431.654,0,0
159166,183.041,-428.575,0,0
159426,184.042,-424.829,0,0
159687,184.835,-420.774,0,0
159947,185.805,-415.475,0,0
160207,188.098,-409.266,0,0
160468,191.252,-403.355,0,0
160728,195.382,-397.275,0,0
160988,200.582,-392.188,0,0
161249,205.068,-388.138,0,0
161509,208.98,-383.247,0,0
161769,213.74,-377.43,0,0
162030,219.869,-371.842,0,0
162290,226.485,-367.156,0,0
162550,233.376,-362.685,0,0
162811,240.442,-358.798,0,0
163071,247.498,-354.966,0,0
163331,254.981,-350.99,0,0
163592,263.173,-347.367,0,0
163852,271.814,-344.129,0,0
164112,281.133,-341.459,0,0
164373,290.526,-339.638,0,0
164633,300.177,-337.8,0,0
164893,311.004,-336.319,0,0
165154,323.145,-336.651,0,0
165414,334.522,-339.512,0,0
165674,344.079,-342.885,0,0
165935,353.459,-345.748,0,0
166195,363.62,-349.503,0,0
166455,373.452,-354.716,0,0
166716,382.348,-360.957,0,0
166976,390.331,-368.116,0,0
167236,396.919,-375.771,0,0
167497,402.272,-383.368,0,0
167757,406.777,-390.015,0,0
168017,411.727,-396.687,0,0
168277,416.512,-404.235,0,0
168538,420.056,-412.381,0,0
168798,422.608,-420.309,0,0
169058,424.764,-427.956,0,0
169319,426.787,-436.143,0,0
169579,427.423,-445.365,0,0
169839,425.593,-454.361,0,0
170100,421.891,-461.39,0,0
170360.075,418.215,-466.196,0,0
170620.4,415.171,-470.02,0,0
170880.725,412.255,-473.453,0,0
171141.05,409.189,-476.072,0,0
171401.375,406.283,-477.642,0,0
171661.7,404.38,-478.326,0,0
171922.025,403.368,-479.271,0,0
172182.35,402.24,-480.275,0,0
172442.675,401.225,-480.855,0,0
172703.0,400.559,-480.472,0,0
172963.325,401.594,-479.541,0,0
173223.65,404.356,-479.863,0,0
173483.975,406.996,-482.297,0,0
173744.3,408.281,-485.428,0,0
174004.625,408.604,-487.89,0,0
174264.95,409.859,-489.563,0,0
174525.275,412.17,-492.625,0,0
174785.6,413.365,-497.11,0,0
175045.925,413.395,-501.433,0,0
175306.25,412.834,-505.627,0,0
175566.575,411.995,-509.43,0,0
175826.9,410.969,-513.121,0,0
176087.225,409.737,-516.844,0,0
176347.55,408.124,-520.542,0,0
176607.875,406.523,-524.199,0,0
176868.2,404.477,-528.652,0,0
177128.525,400.726,-533.337,0,0
177388.85,395.529,-536.638,0,0
177649.175,390.465,-538.288,0,0
177909.5,385.822,-539.731,0,0
178169.825,380.363,-540.625,0,0
178430.15,374.654,-539.954,0,0
178690.475,369.898,-537.935,0,0
178950.8,366.118,-535.473,0,0
179211.125,363.177,-532.741,0,0
179471.45,360.772,-530.043,0,0
179731.775,358.949,-527.024,0,0
179992.1,358.113,-523.797,0,0
180252.425,358.212,-521.284,0,0
180512.75,358.403,-519.483,0,0
180773.075,358.659,-517.881,0,0
181033.4,359.158,-516.506,0,0
181293.725,359.972,-515.403,0,0
181554.05,361.078,-514.915,0,0
181814.375,362.428,-515.427,0,0
182074.7,362.927,-517.24,0,0
182335.025,361.917,-519.307,0,0
182595.35,359.881,-520.625,0,0
182855.675,357.645,-521.147,0,0
183116.0,355.55,-521.318,0,0
183376.325,353.44,-521.507,0,0
183636.65,350.854,-521.699,0,0
183896.975,347.761,-521.475,0,0
184157.3,344.247,-520.384,0,0
184417.625,341.221,-518.452,0,0
184677.95,338.644,-516.493,0,0
184938.275,335.88,-514.409,0,0
185198.6,333.068,-511.824,0,0
185458.925,330.483,-508.854,0,0
185719.25,328.047,-505.532,0,0
185979.575,325.729,-501.7,0,0
186239.9,323.821,-497.192,0,0
186500,322.724,-492.304,0,0
186761,322.464,-487.288,0,0
187021,322.949,-482.617,0,0
187281,323.672,-478.441,0,0
187542,324.508,-474.362,0,0
187802,325.86,-470.2,0,0
188062,327.746,-466.571,0,0
188322,329.737,-463.474,0,0
188583,331.626,-460.963,0,0
188843,332.97,-458.834,0,0
189103,333.533,-456.439,0,0
189364,334.232,-453.3,0,0
189624,335.385,-449.711,0,0
189884,337.318,-446.135,0,0
190145,339.537,-443.331,0,0
190405,341.625,-440.765,0,0
190665,343.444,-438.262,0,0
190926,345.248,-435.8,0,0
191186,347.189,-433.255,0,0
191446,348.859,-430.77,0,0
191707,350.635,-428.033,0,0
191967,352.425,-425.055,0,0
192227,354.586,-422.421,0,0
192488,356.418,-419.768,0,0
192748,358.015,-416.719,0,0
193008,359.937,-413.079,0,0
193269,362.339,-408.958,0,0
193529,365.63,-404.789,0,0
193789,369.318,-400.935,0,0
194050,373.298,-397.143,0,0
194310,377.738,-393.324,0,0
194570,382.919,-389.661,0,0
194831,388.907,-386.443,0,0
195091,395.472,-383.977,0,0
195351,402.384,-382.595,0,0
195612,409.028,-381.965,0,0
195872,415.84,-381.927,0,0
196132,422.41,-382.729,0,0
196393,428.725,-384.381,0,0
196653,434.329,-386.938,0,0
196913,439.045,-390.237,0,0
197174,441.926,-393.473,0,0
197434,444.049,-395.768,0,0
197694,445.917,-396.953,0,0
197955,448.46,-397.525,0,0
198215,451.531,-398.441,0,0
198475,454.428,-399.823,0,0
198735,456.81,-401.534,0,0
198996,458.323,-402.796,0,0
199256,459.886,-402.952,0,0
199516,462.469,-402.825,0,0
199777,465.607,-403.699,0,0
200037,467.925,-405.44,0,0
200297,468.88,-406.937,0,0
200558,469.218,-407.293,0,0
200818,469.657,-406.427,0,0
201078,470.802,-404.696,0,0
201339,472.942,-402.542,0,0
201599,475.726,-400.582,0,0
201859,478.887,-398.759,0,0
202120,482.298,-396.919,0,0
202380.025,486.204,-394.827,0,0
202640.35,491.022,-392.885,0,0
202900.675,496.45,-391.535,0,0
203161.0,502.178,-390.694,0,0
203421.325,508.133,-390.347,0,0
203681.65,514.343,-390.595,0,0
203941.975,520.549,-391.428,0,0
204202.3,526.703,-392.715,0,0
204462.625,532.912,-394.668,0,0
204722.95,538.685,-397.249,0,0
204983.275,544.173,-399.922,0,0
205243.6,549.57,-403.158,0,0
205503.925,554.312,-407.022,0,0
205764.25,558.267,-411.223,0,0
206024.575,561.154,-415.606,0,0
206284.9,562.716,-419.194,0,0
206545.225,563.941,-421.245,0,0
206805.55,565.485,-422.352,0,0
207065.875,567.488,-422.471,0,0
207326.2,570.618,-421.854,0,0
207586.525,575.149,-421.331,0,0
207846.85,580.497,-421.514,0,0
208107.175,586.107,-422.189,0,0
208367.5,592.163,-423.219,0,0
208627.825,598.606,-424.838,0,0
208888.15,605.179,-427.112,0,0
209148.475,611.891,-429.864,0,0
209408.8,618.542,-433.178,0,0
209669.125,625.148,-436.973,0,0
209929.45,631.737,-441.337,0,0
210189.775,638.076,-446.233,0,0
210450.1,644.178,-451.425,0,0
210710.425,650.181,-456.879,0,0
210970.75,655.916,-462.838,0,0
211231.075,661.372,-469.19,0,0
211491.4,666.438,-475.826,0,0
211751.725,671.128,-482.631,0,0
212012.05,675.53,-489.48,0,0
212272.375,679.725,-496.414,0,0
212532.7,683.706,-503.41,0,0
212793.025,687.719,-510.448,0,0
213053.35,691.789,-517.848,0,0
213313.675,695.6,-525.728,0,0
213574.0,699.072,-534.134,0,0
213834.325,701.784,-542.683,0,0
214094.65,704.123,-551.027,0,0
214354.975,706.166,-559.423,0,0
214615.3,708.19,-567.572,0,0
214875.625,710.317,-576.021,0,0
215135.95,712.528,-585.028,0,0
215396.275,713.99,-594.532,0,0
215656.6,714.842,-604.146,0,0
215916.925,715.052,-613.829,0,0
216177.25,715.044,-623.447,0,0
216437.575,714.435,-633.22,0,0
216697.9,713.3,-643.053,0,0
216958.225,711.468,-652.911,0,0
217218.55,708.785,-662.271,0,0
217478.875,705.851,-670.916,0,0
217739.2,702.925,-679.099,0,0
217999.525,700.118,-687.092,0,0
218259.85,697.381,-695.312,0,0
218520,694.079,-703.811,0,0
218780,690.007,-711.764,0,0
219041,685.737,-718.919,0,0
219301,681.89,-725.719,0,0
219561,678.432,-732.406,0,0
219822,675.18,-739.321,0,0
220082,671.825,-746.659,0,0
220342,668.072,-754.493,0,0
220603,663.678,-762.473,0,0
220863,658.646,-770.252,0,0
221123,653.294,-777.785,0,0
221384,647.498,-785.075,0,0
221644,641.667,-792.224,0,0
221904,635.46,-799.524,0,0
222165,628.128,-806.707,0,0
222425,620.313,-813.091,0,0
222685,612.128,-819.065,0,0
222946,603.477,-824.666,0,0
223206,594.16,-829.386,0,0
223466,584.343,-833.176,0,0
223727,574.396,-835.541,0,0
223987,564.972,-836.668,0,0
224247,556.419,-836.713,0,0
224508,548.629,-836.31,0,0
224768,541.537,-835.384,0,0
225028,535.55,-834.172,0,0
225289,530.312,-832.846,0,0
225549,525.893,-831.815,0,0
225809,522.328,-830.981,0,0
226070,519.53,-831.054,0,0
226330,516.853,-831.942,0,0
226590,513.905,-833.402,0,0
226851,510.972,-835.299,0,0
227111,507.707,-837.505,0,0
227371,504.198,-840.147,0,0
227632,500.18,-843.043,0,0
227892,495.573,-845.899,0,0
228152,490.646,-848.537,0,0
228413,485.358,-851.105,0,0
228673,479.845,-853.46,0,0
228933,473.954,-855.4,0,0
229193,468.027,-856.909,0,0
229454,462.236,-858.19,0,0
229714,456.312,-859.12,0,0
229974,450.622,-859.963,0,0
230235,445.051,-860.491,0,0
230495,439.432,-861.138,0,0
230755,433.722,-861.696,0,0
231016,427.863,-861.857,0,0
231276,422.289,-861.695,0,0
231536,416.852,-861.417,0,0
231797,411.635,-861.122,0,0
232057,406.426,-860.784,0,0
232317,401.352,-860.362,0,0
232578,396.337,-859.858,0,0
232838,391.433,-859.29,0,0
233098,386.462,-858.695,0,0
233359,381.542,-858.012,0,0
233619,376.819,-857.17,0,0
233879,372.138,-856.436,0,0
234140,367.495,-855.696,0,0
234400,362.774,-854.913,0,0
234660.3,358.131,-854.019,0,0
234920.625,353.644,-853.006,0,0
235180.95,349.14,-852.158,0,0
235441.275,344.599,-851.35,0,0
235701.6,339.899,-850.51,0,0
235961.925,334.973,-849.679,0,0
236222.25,329.974,-848.593,0,0
236482.575,324.858,-847.134,0,0
236742.9,319.92,-845.555,0,0
237003.225,315.167,-843.864,0,0
237263.55,310.399,-842.098,0,0
237523.875,305.585,-840.308,0,0
237784.2,300.674,-838.365,0,0
238044.525,295.694,-836.103,0,0
238304.85,290.78,-833.591,0,0
238565.175,285.968,-830.815,0,0
238825.5,281.311,-827.653,0,0
239085.825,276.909,-824.265,0,0
239346.15,272.693,-820.718,0,0
239606.475,268.919,-816.992,0,0
239866.8,265.56,-813.321,0,0
240127.125,262.325,-809.621,0,0
240387.45,259.347,-806.086,0,0
240647.775,256.516,-802.668,0,0
240908.1,253.764,-799.192,0,0
241168.425,251.044,-795.643,0,0
241428.75,248.481,-792.101,0,0
241689.075,245.948,-788.342,0,0
241949.4,243.712,-784.483,0,0
242209.725,241.881,-780.622,0,0
242470.05,240.451,-776.937,0,0
242730.375,239.194,-773.61,0,0
242990.7,237.925,-770.328,0,0
243251.025,236.55,-767.134,0,0
243511.35,235.503,-764.018,0,0
243771.675,234.589,-760.99,0,0
244032.0,233.68,-758.134,0,0
244292.325,232.849,-755.583,0,0
244552.65,231.861,-752.936,0,0
244812.975,231.013,-750.517,0,0
245073.3,230.184,-748.058,0,0
245333.625,229.444,-745.994,0,0
245593.95,228.444,-743.866,0,0
245854.275,227.297,-741.702,0,0
246114.6,226.302,-739.437,0,0
246374.925,225.146,-737.163,0,0
246635.25,224.153,-734.855,0,0
246895.575,223.146,-732.576,0,0
247155.9,222.254,-730.203,0,0
247416.225,221.44,-727.91,0,0
247676.55,220.589,-725.658,0,0
247936.875,219.776,-723.309,0,0
248197.2,219.056,-720.913,0,0
248457.525,218.552,-718.371,0,0
248717.85,218.224,-716.003,0,0
248978.175,218.103,-713.838,0,0
249238.5,218.11,-711.918,0,0
249498.825,218.054,-710.168,0,0
249759.15,217.969,-708.644,0,0
250019.475,217.82,-707.275,0,0
250279.8,217.561,-706.044,0,0
250540,217.167,-705.073,0,0
250800,216.48,-704.111,0,0
251061,215.501,-703.219,0,0
251321,214.388,-702.132,0,0
251581,213.121,-700.933,0,0
251842,211.806,-699.662,0,0
252102,210.277,-698.311,0,0
252362,208.726,-696.762,0,0
252623,207.001,-694.936,0,0
252883,205.285,-692.876,0,0
253143,203.615,-690.529,0,0
253404,202.049,-687.975,0,0
253664,200.658,-685.227,0,0
253924,199.448,-682.24,0,0
254185,198.445,-679.189,0,0
254445,197.728,-675.967,0,0
254705,197.195,-672.786,0,0
254966,196.83,-669.521,0,0
255226,196.588,-666.237,0,0
255486,196.673,-662.841,0,0
255747,196.949,-659.425,0,0
256007,197.685,-655.943,0,0
256267,198.715,-652.594,0,0
256528,200.124,-649.445,0,0
256788,201.732,-646.582,0,0
257048,203.54,-644.073,0,0
257309,205.423,-641.818,0,0
257569,207.37,-639.781,0,0
257829,209.264,-638.097,0,0
258090,210.961,-636.563,0,0
258350,212.622,-635.07,0,0
258610,214.206,-633.566,0,0
258871,215.845,-631.948,0,0
259131,217.665,-630.23,0,0
259391,219.864,-628.603,0,0
259651,222.388,-627.151,0,0
259912,225.28,-626.092,0,0
260172,228.236,-625.507,0,0
260432,231.244,-625.315,0,0
260693,234.195,-625.449,0,0
260953,237.146,-625.966,0,0
261213,240.13,-626.91,0,0
261474,243.12,-628.536,0,0
261734,245.592,-630.673,0,0
261994,247.6,-633.14,0,0
262255,249.162,-635.917,0,0
262515,250.292,-638.824,0,0
262775,250.858,-641.866,0,0
263036,250.842,-644.798,0,0
263296,250.496,-647.649,0,0
263556,249.749,-650.355,0,0
263817,248.788,-652.979,0,0
264077,247.524,-655.546,0,0
264337,245.844,-658.003,0,0
264598,243.801,-660.203,0,0
264858,241.45,-662.152,0,0
265118,238.967,-663.761,0,0
265379,236.231,-664.986,0,0
265639,233.367,-665.931,0,0
265899,230.452,-666.558,0,0
266160,227.505,-666.881,0,0
266420,224.571,-666.953,0,0
266680.25,221.574,-666.661,0,0
266940.575,218.619,-666.009,0,0
267200.9,215.834,-665.1,0,0
267461.225,213.189,-663.947,0,0
267721.55,210.713,-662.56,0,0
267981.875,208.453,-661.016,0,0
268242.2,206.371,-659.256,0,0
268502.525,204.544,-657.427,0,0
268762.85,202.958,-655.473,0,0
269023.175,201.582,-653.564,0,0
269283.5,200.471,-651.727,0,0
269543.825,199.424,-649.935,0,0
269804.15,198.413,-648.228,0,0
270064.475,197.425,-646.461,0,0
270324.8,196.487,-644.642,0,0
270585.125,195.711,-642.692,0,0
270845.45,195.18,-640.712,0,0
271105.775,194.784,-638.811,0,0
271366.1,194.634,-637.014,0,0
271626.425,194.53,-635.279,0,0
271886.75,194.522,-633.659,0,0
272147.075,194.614,-632.171,0,0
272407.4,194.747,-630.875,0,0
272667.725,194.805,-629.669,0,0
272928.05,194.678,-628.581,0,0
273188.375,194.368,-627.387,0,0
273448.7,194.12,-625.985,0,0
273709.025,193.944,-624.451,0,0
273969.35,193.866,-622.832,0,0
274229.675,193.951,-621.195,0,0
274490.0,194.256,-619.469,0,0
274750.325,194.738,-617.793,0,0
275010.65,195.342,-616.136,0,0
275270.975,196.197,-614.583,0,0
275531.3,197.249,-613.04,0,0
275791.625,198.496,-611.7,0,0
276051.95,199.982,-610.586,0,0
276312.275,201.53,-609.74,0,0
276572.6,203.148,-609.098,0,0
276832.925,204.882,-608.698,0,0
277093.25,206.628,-608.654,0,0
277353.575,208.315,-608.937,0,0
277613.9,209.858,-609.482,0,0
277874.225,211.206,-610.239,0,0
278134.55,212.437,-611.112,0,0
278394.875,213.535,-612.216,0,0
278655.2,214.431,-613.525,0,0
278915.525,215.088,-614.949,0,0
279175.85,215.497,-616.496,0,0
279436.175,215.644,-618.086,0,0
279696.5,215.585,-619.668,0,0
279956.825,215.285,-621.336,0,0
280217.15,214.701,-622.927,0,0
280477.475,213.916,-624.456,0,0
280737.8,212.871,-625.858,0,0
280998.125,211.71,-627.081,0,0
281258.45,210.473,-628.169,0,0
281518.775,209.176,-629.181,0,0
281779.1,207.731,-630.154,0,0
282039.425,206.125,-631.011,0,0
282299.75,204.384,-631.673,0,0
282560,202.599,-632.167,0,0
282820,200.786,-632.484,0,0
283081,198.974,-632.656,0,0
283341,197.169,-632.706,0,0
283601,195.282,-632.635,0,0
283862,193.493,-632.392,0,0
284122,191.69,-632.076,0,0
284382,189.907,-631.649,0,0
284643,188.12,-631.062,0,0
284903,186.358,-630.397,0,0
285163,184.691,-629.61,0,0
285424,183.045,-628.696,0,0
285684,181.477,-627.632,0,0
285944,179.999,-626.456,0,0
286205,178.637,-625.164,0,0
286465,177.435,-623.847,0,0
286725,176.323,-622.438,0,0
286986,175.362,-620.99,0,0
287246,174.535,-619.446,0,0
287506,173.934,-617.854,0,0
287767,173.544,-616.366,0,0
288027,173.37,-614.983,0,0
288287,173.259,-613.747,0,0
288548,173.246,-612.663,0,0
288808,173.256,-611.712,0,0
289068,173.285,-610.924,0,0
289329,173.251,-610.227,0,0
289589,173.217,-609.657,0,0
289849,173.049,-609.141,0,0
290109,172.834,-608.606,0,0
290370,172.587,-608.069,0,0
290630,172.36,-607.562,0,0
290890,172.119,-607.105,0,0
291151,171.838,-606.733,0,0
291411,171.435,-606.371,0,0
291671,170.928,-605.985,0,0
291932,170.315,-605.51,0,0
292192,169.648,-604.905,0,0
292452,168.995,-604.166,0,0
292713,168.43,-603.289,0,0
292973,167.964,-602.289,0,0
293233,167.626,-601.237,0,0
293494,167.487,-600.159,0,0
293754,167.511,-599.102,0,0
294014,167.686,-598.112,0,0
294275,167.992,-597.195,0,0
294535,168.415,-596.446,0,0
294795,168.925,-595.797,0,0
295056,169.499,-595.306,0,0
295316,170.15,-595,0,0
295576,170.776,-594.91,0,0
295837,171.374,-595,0,0
296097,171.87,-595.257,0,0
296357,172.241,-595.676,0,0
296618,172.513,-596.171,0,0
296878,172.629,-596.748,0,0
297138,172.625,-597.416,0,0
297399,172.49,-598.133,0,0
297659,172.219,-598.888,0,0
297919,171.773,-599.661,0,0
298180,171.171,-600.415,0,0
298440,170.398,-601.111,0,0
298700.2,169.536,-601.708,0,0
298960.525,168.599,-602.217,0,0
299220.85,167.599,-602.688,0,0
299481.175,166.541,-603.089,0,0
299741.5,165.432,-603.424,0,0
300001.825,164.266,-603.664,0,0
300262.15,163.084,-603.874,0,0
300522.475,161.843,-604.046,0,0
300782.8,160.563,-604.146,0,0
301043.125,159.275,-604.153,0,0
301303.45,157.94,-604.117,0,0
301563.775,156.566,-603.987,0,0
301824.1,155.159,-603.798,0,0
302084.425,153.772,-603.491,0,0
302344.75,152.393,-603.101,0,0
302605.075,151.039,-602.628,0,0
302865.4,149.724,-602.105,0,0
303125.725,148.453,-601.541,0,0
303386.05,147.217,-600.941,0,0
303646.375,145.975,-600.323,0,0
303906.7,144.775,-599.639,0,0
304167.025,143.549,-598.923,0,0
304427.35,142.385,-598.15,0,0
304687.675,141.235,-597.306,0,0
304948.0,140.118,-596.439,0,0
305208.325,139.075,-595.528,0,0
305468.65,138.054,-594.575,0,0
305728.975,137.079,-593.591,0,0
305989.3,136.169,-592.56,0,0
306249.625,135.316,-591.495,0,0
306509.95,134.534,-590.391,0,0
306770.275,133.877,-589.315,0,0
307030.6,133.312,-588.251,0,0
307290.925,132.801,-587.248,0,0
307551.25,132.332,-586.271,0,0
307811.575,131.919,-585.362,0,0
308071.9,131.536,-584.519,0,0
308332.225,131.179,-583.749,0,0
308592.55,130.833,-583.03,0,0
308852.875,130.448,-582.38,0,0
309113.2,130.032,-581.79,0,0
309373.525,129.613,-581.223,0,0
309633.85,129.147,-580.729,0,0
309894.175,128.602,-580.217,0,0
310154.5,128.067,-579.718,0,0
310414.825,127.42,-579.26,0,0
310675.15,126.747,-578.766,0,0
310935.475,126.035,-578.239,0,0
311195.8,125.288,-577.731,0,0
311456.125,124.478,-577.169,0,0
311716.45,123.641,-576.579,0,0
311976.775,122.742,-575.948,0,0
312237.1,121.819,-575.235,0,0
312497.425,120.855,-574.453,0,0
312757.75,119.902,-573.569,0,0
313018.075,118.954,-572.6,0,0
313278.4,118.088,-571.527,0,0
313538.725,117.242,-570.389,0,0
313799.05,116.483,-569.205,0,0
314059.375,115.768,-567.985,0,0
314319.7,115.117,-566.703,0,0
314580,114.502,-565.403,0,0
314840,114.031,-564.006,0,0
315101,113.703,-562.638,0,0
315361,113.431,-561.238,0,0
315621,113.342,-559.861,0,0
315882,113.341,-558.512,0,0
316142,113.391,-557.29,0,0
316402,113.659,-556.157,0,0
316663,113.804,-555.06,0,0
316923,114.04,-554.17,0,0
317183,114.283,-553.28,0,0
317444,114.51,-552.653,0,0
317704,114.729,-551.927,0,0
317964,114.861,-551.336,0,0
318225,114.956,-550.781,0,0
318485,115.047,-550.232,0,0
318745,115.034,-549.701,0,0
319006,115.081,-549.156,0,0
319266,115.047,-548.665,0,0
319526,114.927,-548.166,0,0
319787,114.919,-547.591,0,0
320047,114.822,-547.056,0,0
320307,114.789,-546.502,0,0
320567,114.77,-545.899,0,0
320828,114.743,-545.332,0,0
321088,114.747,-544.847,0,0
321348,114.817,-544.276,0,0
321609,114.953,-543.733,0,0
321869,115.169,-543.241,0,0
322129,115.38,-542.91,0,0
322390,115.621,-542.562,0,0
322650,115.837,-542.437,0,0
322910,116.009,-542.379,0,0
323171,116.109,-542.329,0,0
323431,116.187,-542.399,0,0
323691,116.115,-542.583,0,0
323952,115.989,-542.678,0,0
324212,115.811,-542.885,0,0
324472,115.579,-542.998,0,0
324733,115.179,-543.191,0,0
324993,114.683,-543.291,0,0
325253,114.191,-543.504,0,0
325514,113.615,-543.521,0,0
325774,113.041,-543.674,0,0
326034,112.276,-543.75,0,0
326295,111.546,-543.75,0,0
326555,110.764,-543.722,0,0
326815,109.849,-543.633,0,0
327076,109.084,-543.524,0,0
327336,108.154,-543.288,0,0
327596,107.266,-543.017,0,0
327857,106.384,-542.696,0,0
328117,105.499,-542.343,0,0
328377,104.582,-541.966,0,0
328638,103.792,-541.531,0,0
328898,102.863,-541.067,0,0
329158,102.08,-540.59,0,0
329419,101.179,-540.039,0,0
329679,100.313,-539.432,0,0
329939,99.5416,-538.93,0,0
330200,98.7502,-538.381,0,0
330460,97.9723,-537.876,0,0
330720.15,97.2084,-537.295,0,0
330980.475,96.3292,-536.688,0,0
331240.8,95.5412,-536.136,0,0
331501.125,94.6535,-535.47,0,0
331761.45,93.747,-534.819,0,0
332021.775,92.9129,-534.136,0,0
332282.1,92.0315,-533.436,0,0
332542.425,91.1421,-532.662,0,0
332802.75,90.2718,-531.888,0,0
333063.075,89.4346,-531.129,0,0
333323.4,88.6068,-530.261,0,0
333583.725,87.6437,-529.388,0,0
333844.05,86.7925,-528.482,0,0
334104.375,85.9007,-527.479,0,0
334364.7,85.0753,-526.457,0,0
334625.025,84.3532,-525.381,0,0
334885.35,83.5816,-524.229,0,0
335145.675,82.8662,-523.107,0,0
335406.0,82.2146,-521.952,0,0
335666.325,81.583,-520.752,0,0
335926.65,80.9952,-519.595,0,0
336186.975,80.4223,-518.326,0,0
336447.3,79.941,-517.134,0,0
336707.625,79.5059,-515.84,0,0
336967.95,79.1365,-514.65,0,0
337228.275,78.6906,-513.408,0,0
337488.6,78.3147,-512.104,0,0
337748.925,77.9633,-511.02,0,0
338009.25,77.6657,-509.764,0,0
338269.575,77.2831,-508.531,0,0
338529.9,77.0029,-507.237,0,0
338790.225,76.763,-505.936,0,0
339050.55,76.6084,-504.613,0,0
339310.875,76.4602,-503.322,0,0
339571.2,76.2926,-501.949,0,0
339831.525,76.2921,-500.582,0,0
340091.85,76.3305,-499.181,0,0
340352.175,76.4851,-497.9,0,0
340612.5,76.6509,-496.58,0,0
340872.825,76.9396,-495.301,0,0
341133.15,77.3126,-494.081,0,0
341393.475,77.658,-492.942,0,0
341653.8,78.1652,-491.87,0,0
341914.125,78.5909,-490.878,0,0
342174.45,79.1549,-489.944,0,0
342434.775,79.7082,-489.113,0,0
342695.1,80.2164,-488.397,0,0
342955.425,80.7129,-487.743,0,0
343215.75,81.2096,-487.181,0,0
343476.075,81.6079,-486.668,0,0
343736.4,82.0206,-486.179,0,0
343996.725,82.4084,-485.857,0,0
344257.05,82.7101,-485.447,0,0
344517.375,82.9415,-485.115,0,0
344777.7,83.123,-484.847,0,0
345038.025,83.264,-484.572,0,0
345298.35,83.2301,-484.271,0,0
345558.675,83.1817,-483.901,0,0
345819.0,83.1474,-483.583,0,0
346079.325,83.0525,-483.141,0,0
346339.65,82.9991,-482.698,0,0
346599.975,82.8928,-482.23,0,0
346860,82.7858,-481.818,0,0
347121,82.6721,-481.346,0,0
347381,82.5937,-480.828,0,0
347641,82.4718,-480.307,0,0
347902,82.2641,-479.759,0,0
348162,82.1986,-479.219,0,0
348422,82.0296,-478.609,0,0
348683,81.8807,-478.035,0,0
348943,81.8133,-477.336,0,0
349203,81.675,-476.685,0,0
349464,81.6004,-475.956,0,0
349724,81.5928,-475.285,0,0
349984,81.6695,-474.488,0,0
350245,81.7199,-473.812,0,0
350505,81.9162,-473.06,0,0
350765,82.1406,-472.392,0,0
351025,82.3996,-471.713,0,0
351286,82.7496,-471.179,0,0
351546,83.1347,-470.691,0,0
351806,83.4664,-470.314,0,0
352067,83.7951,-470.037,0,0
352327,84.0955,-469.867,0,0
352587,84.2935,-469.694,0,0
352848,84.4433,-469.695,0,0
353108,84.4546,-469.625,0,0
353368,84.4124,-469.585,0,0
353629,84.296,-469.602,0,0
353889,84.0421,-469.526,0,0
354149,83.7847,-469.351,0,0
354410,83.4559,-469.195,0,0
354670,83.0979,-468.902,0,0
354930,82.6406,-468.626,0,0
355191,82.323,-468.251,0,0
355451,81.9692,-467.861,0,0
355711,81.5548,-467.42,0,0
355972,81.2712,-466.997,0,0
356232,80.9195,-466.49,0,0
356492,80.5766,-466.035,0,0
356753,80.2355,-465.522,0,0
357013,79.9637,-464.965,0,0
357273,79.5944,-464.367,0,0
357534,79.2425,-463.755,0,0
357794,78.9394,-463.112,0,0
358054,78.6678,-462.351,0,0
358315,78.3975,-461.668,0,0
358575,78.1739,-460.925,0,0
358835,78.0482,-460.177,0,0
359096,77.9324,-459.462,0,0
359356,77.8729,-458.734,0,0
359616,77.8504,-458.021,0,0
359877,77.8519,-457.297,0,0
360137,77.8652,-456.637,0,0
360397,77.9061,-456.059,0,0
360658,77.8961,-455.423,0,0
360918,77.9416,-454.872,0,0
361178,77.938,-454.357,0,0
361438,77.9104,-453.832,0,0
361699,77.8369,-453.245,0,0
361959,77.8105,-452.683,0,0
362219,77.816,-452.034,0,0
362480,77.7697,-451.457,0,0
362740.1,77.8022,-450.91,0,0
363000.425,77.8703,-450.239,0,0
363260.75,77.8476,-449.584,0,0
363521.075,77.9816,-448.855,0,0
363781.4,78.1111,-448.242,0,0
364041.725,78.3717,-447.597,0,0
364302.05,78.638,-447.118,0,0
364562.375,79.0013,-446.596,0,0
364822.7,79.3328,-446.251,0,0
365083.025,79.6758,-445.908,0,0
365343.35,79.9662,-445.731,0,0
365603.675,80.1624,-445.621,0,0
365864.0,80.3907,-445.564,0,0
366124.325,80.3961,-445.513,0,0
366384.65,80.3903,-445.572,0,0
366644.975,80.2318,-445.578,0,0
366905.3,80.0485,-445.552,0,0
367165.625,79.7488,-445.465,0,0
367425.95,79.379,-445.378,0,0
367686.275,78.943,-445.234,0,0
367946.6,78.4413,-444.957,0,0
368206.925,77.9243,-444.582,0,0
368467.25,77.3898,-444.17,0,0
368727.575,76.8144,-443.579,0,0
368987.9,76.3123,-442.92,0,0
369248.225,75.8362,-442.101,0,0
369508.55,75.5158,-441.194,0,0
369768.875,75.3336,-440.279,0,0
370029.2,75.2446,-439.318,0,0
370289.525,75.3012,-438.389,0,0
370549.85,75.4951,-437.492,0,0
370810.175,75.7924,-436.689,0,0
371070.5,76.2196,-436.039,0,0
371330.825,76.6215,-435.528,0,0
371591.15,77.0088,-435.144,0,0
371851.475,77.3236,-434.867,0,0
372111.8,77.6436,-434.736,0,0
372372.125,77.84,-434.667,0,0
372632.45,77.918,-434.63,0,0
372892.775,77.8752,-434.624,0,0
373153.1,77.6911,-434.615,0,0
373413.425,77.4566,-434.561,0,0
373673.75,77.1555,-434.408,0,0
373934.075,76.7325,-434.163,0,0
374194.4,76.3437,-433.832,0,0
374454.725,75.908,-433.466,0,0
374715.05,75.5384,-432.992,0,0
374975.375,75.2001,-432.551,0,0
375235.7,74.7827,-431.989,0,0
375496.025,74.4313,-431.361,0,0
375756.35,74.075,-430.76,0,0
376016.675,73.7891,-430.051,0,0
376277.0,73.5246,-429.297,0,0
376537.325,73.399,-428.525,0,0
376797.65,73.2961,-427.739,0,0
377057.975,73.2577,-426.996,0,0
377318.3,73.2436,-426.221,0,0
377578.625,73.3061,-425.529,0,0
377838.95,73.3642,-424.829,0,0
378099.275,73.5058,-424.167,0,0
378359.6,73.652,-423.555,0,0
378619.925,73.7392,-422.928,0,0
378880,73.981,-422.351,0,0
379141,74.1435,-421.775,0,0
379401,74.3292,-421.293,0,0
379661,74.6334,-420.816,0,0
379922,74.8193,-420.403,0,0
380182,74.9975,-420.066,0,0
380442,75.2091,-419.728,0,0
380703,75.3148,-419.451,0,0
380963,75.441,-419.127,0,0
381223,75.5322,-418.883,0,0
381483,75.5454,-418.574,0,0
381744,75.5807,-418.275,0,0
382004,75.6212,-418.02,0,0
382264,75.6074,-417.737,0,0
382525,75.6374,-417.425,0,0
382785,75.6263,-417.223,0,0
383045,75.5843,-416.982,0,0
383306,75.5377,-416.743,0,0
383566,75.4427,-416.464,0,0
383826,75.3325,-416.247,0,0
384087,75.2147,-415.971,0,0
384347,74.9738,-415.698,0,0
384607,74.7974,-415.427,0,0
384868,74.5653,-415.119,0,0
385128,74.3179,-414.788,0,0
385388,74.0851,-414.447,0,0
385649,73.8505,-414.008,0,0
385909,73.5738,-413.578,0,0
386169,73.3169,-413.097,0,0
386430,73.0975,-412.668,0,0
386690,72.8345,-412.144,0,0
386950,72.5883,-411.616,0,0
387211,72.3976,-411.118,0,0
387471,72.1808,-410.531,0,0
387731,71.9191,-409.979,0,0
387992,71.7082,-409.358,0,0
388252,71.4971,-408.742,0,0
388512,71.2663,-408.143,0,0
388773,71.0801,-407.381,0,0
389033,70.9154,-406.719,0,0
389293,70.7754,-405.963,0,0
389554,70.6704,-405.157,0,0
389814,70.613,-404.376,0,0
390074,70.6039,-403.579,0,0
390335,70.608,-402.759,0,0
390595,70.701,-401.959,0,0
390855,70.8293,-401.122,0,0
391116,70.9676,-400.363,0,0
391376,71.1704,-399.507,0,0
391636,71.416,-398.723,0,0
391896,71.7324,-397.948,0,0
392157,72.0923,-397.22,0,0
392417,72.4661,-396.478,0,0
392677,72.937,-395.857,0,0
392938,73.3877,-395.239,0,0
393198,73.9101,-394.653,0,0
393458,74.4039,-394.168,0,0
393719,74.8965,-393.706,0,0
393979,75.3929,-393.33,0,0
394239,75.8891,-392.976,0,0
394500,76.3702,-392.695,0,0
394760.05,76.8905,-392.42,0,0
395020.375,77.3867,-392.199,0,0
395280.7,77.8141,-392.066,0,0
395541.025,78.2336,-391.904,0,0
395801.35,78.6182,-391.789,0,0
396061.675,79.0378,-391.728,0,0
396322.0,79.4051,-391.66,0,0
396582.325,79.7475,-391.687,0,0
396842.65,80.0597,-391.658,0,0
397102.975,80.3363,-391.757,0,0
397363.3,80.5569,-391.86,0,0
397623.625,80.7348,-391.935,0,0
397883.95,80.8727,-392.093,0,0
398144.275,80.9402,-392.23,0,0
398404.6,80.9338,-392.377,0,0
398664.925,80.8869,-392.478,0,0
398925.25,80.796,-392.584,0,0
399185.575,80.6721,-392.63,0,0
399445.9,80.4872,-392.691,0,0
399706.225,80.3282,-392.686,0,0
399966.55,80.1289,-392.698,0,0
400006.6,80.0937,-392.685,0,0