File: Accelerated corrosion test data/2025-10-09_18-00-04/sample_6.csv
Frequency (Hz),Impedance (ohms),Phase (Radians),Temperature (C),Humidity (%)
10000.0,4215.65,-6545.21,0,0
10260.325,4077.18,-6468.67,0,0
10520.65,3946.63,-6391.84,0,0
10780.975,3820.76,-6315.85,0,0
11041.3,3701.34,-6240.21,0,0
11301.625,3587.02,-6165.66,0,0
11561.95,3477.69,-6091.63,0,0
11822.275,3373.4,-6018.49,0,0
12082.6,3272.75,-5945.6,0,0
12342.925,3176.98,-5873.63,0,0
12603.25,3087.38,-5802.18,0,0
12863.575,3000.01,-5732.19,0,0
13123.9,2918.28,-5665.56,0,0
13384.225,2836.6,-5599.68,0,0
13644.55,2758.03,-5533.97,0,0
13904.875,2682.52,-5468.86,0,0
14165.2,2610.99,-5404.59,0,0
14425.525,2541.85,-5340.66,0,0
14685.8,2475.28,-5278.67,0,0
14946.175,2413.04,-5217.46,0,0
15206.5,2351.86,-5157.17,0,0
15466.825,2293.48,-5098.54,0,0
15727.15,2236.8,-5040.71,0,0
15987.5,2182.57,-4983.98,0,0
16247.8,2129.59,-4928.08,0,0
16508.125,2078.9,-4872.87,0,0
16768.45,2030.07,-4818.52,0,0
17028.775,1983.6,-4765.69,0,0
17289.1,1938.11,-4713.93,0,0
17549.425,1893.88,-4663.13,0,0
17809.75,1850.59,-4612.58,0,0
18070.075,1810.82,-4562.64,0,0
18330.4,1770.32,-4514.09,0,0
18590.725,1732.4,-4466.42,0,0
18851.05,1696.56,-4419.79,0,0
19111.375,1661.28,-4374.2,0,0
19371.7,1626.1,-4330.34,0,0
19632.025,1593.09,-4285.93,0,0
19892.35,1560.32,-4242.53,0,0
20152.675,1528.95,-4200.14,0,0
20413.0,1497.71,-4158.92,0,0
20673.3,1467.5,-4116.78,0,0
20933.65,1438.88,-4076.17,0,0
21193.975,1411.47,-4036.1,0,0
21454.3,1384.56,-3996.72,0,0
21714.625,1358.21,-3957.78,0,0
21974.9,1332.67,-3920.14,0,0
22235.275,1307.25,-3882.96,0,0
22495.6,1282.9,-3844.26,0,0
22755.925,1261.42,-3807.11,0,0
23016.25,1242.02,-3771.36,0,0
23276.6,1221.9,-3739.96,0,0
23536.9,1199.64,-3707.53,0,0
23797.225,1178.07,-3674.87,0,0
24057.55,1156.81,-3642.59,0,0
24317.875,1136.43,-3610.02,0,0
24578.2,1116.77,-3578.05,0,0
24838.525,1097.55,-3545.99,0,0
25098.85,1078.99,-3515.3,0,0
25359.175,1061.94,-3484.65,0,0
25619.5,1044.29,-3454.86,0,0
25879.8,1027.04,-3425.11,0,0
26140.1,1010.6,-3395.61,0,0
26400.5,994.463,-3366.67,0,0
26660.8,978.789,-3338.25,0,0
26921.1,964.108,-3310.39,0,0
27181.4,949.109,-3282.48,0,0
27441.8,935.17,-3255.32,0,0
27702.1,921.028,-3229.05,0,0
27962.4,907.553,-3203.04,0,0
28222.7,893.978,-3177.53,0,0
28483.1,880.34,-3152.16,0,0
28743.4,867.296,-3127.19,0,0
29003.7,854.454,-3102.02,0,0
29264,841.732,-3076.74,0,0
29524.4,830.559,-3051.78,0,0
29784.7,819.444,-3027.8,0,0
30045,809.061,-3004.71,0,0
30305.3,798.118,-2981.85,0,0
30565.7,787.442,-2959.48,0,0
30826,777.037,-2937.05,0,0
31086.3,766.232,-2914.89,0,0
31346.6,756.309,-2892.75,0,0
31607,746.206,-2870.73,0,0
31867.3,737.426,-2848.99,0,0
32127.6,728.462,-2827.39,0,0
32387.9,719.86,-2805.95,0,0
32648.3,713.159,-2785.21,0,0
32908.6,705.892,-2766.84,0,0
33168.9,698.324,-2747.71,0,0
33429.2,690.74,-2729.65,0,0
33689.6,683.194,-2711.7,0,0
33949.9,675.002,-2694.76,0,0
34210.2,666.011,-2677.34,0,0
34470.5,657.074,-2659.27,0,0
34730.9,649.176,-2641.22,0,0
34991.2,641.58,-2623.67,0,0
35251.5,634.178,-2606.36,0,0
35511.8,626.711,-2589.79,0,0
35772.2,619.239,-2573.76,0,0
36032.5,610.556,-2557.42,0,0
36292.8,602.533,-2540.15,0,0
36553.1,595.06,-2523.04,0,0
36813.5,587.763,-2505.56,0,0
37073.8,580.914,-2489.36,0,0
37334.1,574.231,-2473.05,0,0
37594.4,567.587,-2456.63,0,0
37854.8,560.972,-2440.43,0,0
38115.1,554.798,-2424.33,0,0
38375.4,548.828,-2408.32,0,0
38635.7,542.994,-2392.57,0,0
38896.1,537.25,-2376.61,0,0
39156.4,532.045,-2360.79,0,0
39416.7,527.295,-2345.38,0,0
39677,522.681,-2330.78,0,0
39937.4,518.281,-2315.76,0,0
40197.7,514.057,-2301.44,0,0
40458,509.712,-2288.01,0,0
40718.3,505.44,-2274,0,0
40978.7,501.219,-2261.27,0,0
41239,496.552,-2248.06,0,0
41499.3,491.83,-2234.67,0,0
41759.6,488.259,-2221.77,0,0
42020,483.685,-2209.58,0,0
42280.275,479.069,-2198.06,0,0
42540.6,473.499,-2185.59,0,0
42800.925,467.609,-2172.35,0,0
43061.25,463.327,-2158.7,0,0
43321.575,459.312,-2145,0,0
43581.9,456.548,-2132.25,0,0
43842.225,452.544,-2119.41,0,0
44102.55,449.613,-2106.76,0,0
44362.875,447.191,-2094.7,0,0
44623.2,444.057,-2082.83,0,0
44883.525,441.258,-2070.89,0,0
45143.85,439.036,-2059.54,0,0
45404.175,436.884,-2048.65,0,0
45664.5,434.367,-2037.79,0,0
45924.825,432.036,-2027.48,0,0
46185.15,429.967,-2017.41,0,0
46445.475,427.603,-2007.74,0,0
46705.8,425.18,-1998.51,0,0
46966.125,422.451,-1989.44,0,0
47226.45,419.399,-1980.65,0,0
47486.775,416.506,-1971.64,0,0
47747.1,413.246,-1962.61,0,0
48007.425,410.408,-1953.79,0,0
48267.75,407.108,-1945.4,0,0
48528.075,403.508,-1936.95,0,0
48788.4,400.394,-1928.36,0,0
49048.725,396.783,-1920.2,0,0
49309.05,393.1,-1912.1,0,0
49569.375,389.069,-1904.38,0,0
49829.7,384.3,-1896.36,0,0
50090.025,379.769,-1887.58,0,0
50350.35,375.26,-1879.03,0,0
50610.675,370.724,-1870.2,0,0
50871.0,366.047,-1860.74,0,0
51131.325,361.949,-1851.32,0,0
51391.65,358.49,-1841.57,0,0
51651.975,355.06,-1832.77,0,0
51912.3,351.161,-1823.7,0,0
52172.625,347.451,-1814.56,0,0
52432.95,344.275,-1805,0,0
52693.275,341.564,-1796.15,0,0
52953.6,338.737,-1787.68,0,0
53213.925,335.393,-1779.2,0,0
53474.25,332.062,-1770.95,0,0
53734.575,328.424,-1762.56,0,0
53994.9,324.87,-1753.73,0,0
54255.225,321.648,-1744.72,0,0
54515.55,318.681,-1735.98,0,0
54775.875,315.739,-1727.17,0,0
55036.2,312.901,-1718.73,0,0
55296.525,309.84,-1710.2,0,0
55556.85,306.708,-1701.5,0,0
55817.175,303.716,-1692.68,0,0
56077.5,300.813,-1683.66,0,0
56337.825,298.203,-1674.33,0,0
56598.15,296.355,-1664.98,0,0
56858.475,294.764,-1656.09,0,0
57118.8,293.291,-1647.62,0,0
57379.125,292.109,-1639.2,0,0
57639.45,291.11,-1631.3,0,0
57899.775,289.691,-1623.73,0,0
58160.1,288.161,-1616.37,0,0
58420.4,286.653,-1609.01,0,0
58680.7,284.953,-1601.88,0,0
58941.1,283.121,-1594.37,0,0
59201.4,281.76,-1587,0,0
59461.7,280.092,-1579.98,0,0
59722,278.513,-1572.89,0,0
59982.4,276.593,-1565.74,0,0
60242.7,274.941,-1558.51,0,0
60503,273.331,-1551.5,0,0
60763.3,271.819,-1544.09,0,0
61023.7,270.515,-1536.7,0,0
61284,269.526,-1529.69,0,0
61544.3,268.719,-1523.17,0,0
61804.6,267.381,-1516.99,0,0
62065,265.599,-1510.66,0,0
62325.3,263.516,-1504.17,0,0
62585.6,261.54,-1496.44,0,0
62845.9,260.869,-1488.74,0,0
63106.3,260.798,-1481.75,0,0
63366.6,261.126,-1475.67,0,0
63626.9,260.807,-1470.22,0,0
63887.2,260.375,-1464.77,0,0
64147.6,259.669,-1460.22,0,0
64407.9,257.821,-1455.5,0,0
64668.2,255.861,-1450.4,0,0
64928.5,253.73,-1444.96,0,0
65188.9,251.831,-1439.22,0,0
65449.2,249.784,-1433.57,0,0
65709.5,247.901,-1427.72,0,0
65969.8,245.76,-1421.93,0,0
66230.2,243.798,-1416.16,0,0
66490.5,241.609,-1409.92,0,0
66750.8,239.62,-1403.55,0,0
67011.1,237.854,-1397.02,0,0
67271.5,236.365,-1390.41,0,0
67531.8,235.169,-1383.76,0,0
67792.1,234.186,-1377.16,0,0
68052.4,233.221,-1370.79,0,0
68312.8,232.78,-1364.47,0,0
68573.1,232.229,-1358.43,0,0
68833.4,231.845,-1352.43,0,0
69093.7,231.333,-1346.83,0,0
69354.1,231.02,-1341.22,0,0
69614.4,230.819,-1335.45,0,0
69874.7,230.766,-1329.99,0,0
70135,230.501,-1325,0,0
70395.4,230.278,-1319.92,0,0
70655.7,230.112,-1315.14,0,0
70916,229.9,-1310.57,0,0
71176.3,229.588,-1306.06,0,0
71436.7,229.045,-1301.9,0,0
71697,228.22,-1297.73,0,0
71957.3,227.26,-1293.47,0,0
72217.6,226.047,-1289.17,0,0
72478,224.948,-1284.83,0,0
72738.3,223.756,-1280.19,0,0
72998.6,222.538,-1275.69,0,0
73258.9,221.326,-1271.04,0,0
73519.3,220.139,-1266.46,0,0
73779.6,218.841,-1261.72,0,0
74039.9,217.816,-1256.85,0,0
74300.225,216.785,-1252,0,0
74560.55,215.904,-1247.23,0,0
74820.875,215.241,-1242.46,0,0
75081.2,214.441,-1237.95,0,0
75341.525,213.685,-1233.43,0,0
75601.85,212.9,-1229.05,0,0
75862.175,212.07,-1224.6,0,0
76122.5,211.25,-1220.16,0,0
76382.825,210.411,-1215.76,0,0
76643.15,209.714,-1211.31,0,0
76903.475,208.961,-1207.02,0,0
77163.8,208.171,-1202.73,0,0
77424.125,207.414,-1198.44,0,0
77684.45,206.721,-1194.21,0,0
77944.775,205.915,-1189.97,0,0
78205.1,205.118,-1185.78,0,0
78465.425,204.317,-1181.59,0,0
78725.75,203.606,-1177.42,0,0
78986.075,202.889,-1173.26,0,0
79246.4,202.162,-1169.14,0,0
79506.725,201.508,-1164.99,0,0
79767.05,200.921,-1160.93,0,0
80027.375,200.196,-1156.98,0,0
80287.7,199.613,-1153.02,0,0
80548.025,198.86,-1149.12,0,0
80808.35,198.132,-1145.31,0,0
81068.675,197.467,-1141.42,0,0
81329.0,196.697,-1137.66,0,0
81589.325,195.923,-1133.95,0,0
81849.65,195,-1130.09,0,0
82109.975,194.121,-1126.27,0,0
82370.3,193.28,-1122.42,0,0
82630.625,192.414,-1118.61,0,0
82890.95,191.561,-1114.65,0,0
83151.275,190.7,-1110.78,0,0
83411.6,189.938,-1106.87,0,0
83671.925,189.14,-1102.98,0,0
83932.25,188.411,-1099.12,0,0
84192.575,187.682,-1095.33,0,0
84452.9,186.937,-1091.5,0,0
84713.225,186.226,-1087.78,0,0
84973.55,185.454,-1083.99,0,0
85233.875,184.557,-1080.15,0,0
85494.2,183.759,-1076.35,0,0
85754.525,182.943,-1072.43,0,0
86014.85,182.152,-1068.44,0,0
86275.175,181.506,-1064.42,0,0
86535.5,180.981,-1060.36,0,0
86795.825,180.468,-1056.27,0,0
87056.15,179.96,-1052.24,0,0
87316.475,179.632,-1048.45,0,0
87576.8,179.458,-1044.53,0,0
87837.125,179.088,-1040.65,0,0
88097.45,178.992,-1036.57,0,0
88357.775,179.016,-1032.66,0,0
88618.1,179.113,-1029.04,0,0
88878.425,179.365,-1025.51,0,0
89138.75,179.619,-1021.9,0,0
89399.075,179.712,-1018.65,0,0
89659.4,180.126,-1015.49,0,0
89919.725,180.437,-1012.56,0,0
90180,180.389,-1009.87,0,0
90440.4,180.343,-1007.02,0,0
90700.7,180.306,-1004.51,0,0
90961,180.054,-1002.06,0,0
91221.3,179.82,-999.666,0,0
91481.7,179.133,-997.412,0,0
91742,178.093,-994.909,0,0
92002.3,177.035,-991.981,0,0
92262.6,176.054,-989.006,0,0
92523,175.101,-986.034,0,0
92783.3,174.103,-982.855,0,0
93043.6,173.219,-979.559,0,0
93303.9,172.492,-976.061,0,0
93564.3,171.841,-972.743,0,0
93824.6,171.185,-969.448,0,0
94084.9,170.634,-965.801,0,0
94345.2,170.457,-962.209,0,0
94605.6,170.6,-958.875,0,0
94865.9,170.737,-955.994,0,0
95126.2,170.621,-953.108,0,0
95386.5,170.42,-950.268,0,0
95646.9,170.368,-947.667,0,0
95907.2,170.166,-944.999,0,0
96167.5,169.864,-942.451,0,0
96427.8,169.53,-939.944,0,0
96688.2,169.065,-937.585,0,0
96948.5,168.43,-935.26,0,0
97208.8,167.397,-932.915,0,0
97469.1,166.261,-930.205,0,0
97729.5,165.197,-927.115,0,0
97989.8,164.287,-924.017,0,0
98250.1,163.537,-920.675,0,0
98510.4,163.016,-917.349,0,0
98770.8,162.671,-914.064,0,0
99031.1,162.509,-910.895,0,0
99291.4,162.379,-907.906,0,0
99551.7,162.356,-905.058,0,0
99812.1,162.258,-902.237,0,0
100072,162.224,-899.558,0,0
100333,162.305,-896.95,0,0
100593,162.228,-894.675,0,0
100853,162.026,-892.544,0,0
101114,161.584,-890.479,0,0
101374,160.87,-888.367,0,0
101634,160.07,-886.076,0,0
101895,159.243,-883.612,0,0
102155,158.483,-881.062,0,0
102415,157.932,-878.521,0,0
102676,157.396,-876.166,0,0
102936,156.699,-873.903,0,0
103196,155.938,-871.639,0,0
103457,155.04,-869.379,0,0
103717,153.994,-867.213,0,0
103977,152.893,-864.91,0,0
104238,151.726,-862.697,0,0
104498,150.196,-860.45,0,0
104758,148.574,-857.909,0,0
105019,146.764,-855.326,0,0
105279,144.878,-852.27,0,0
105539,143.022,-849.051,0,0
105800,141.2,-845.47,0,0
106060,139.486,-841.636,0,0
106320.175,137.977,-837.61,0,0
106580.5,136.688,-833.319,0,0
106840.825,135.815,-828.762,0,0
107101.15,135.387,-824.345,0,0
107361.475,135.123,-820.106,0,0
107621.8,135.041,-815.895,0,0
107882.125,135.071,-811.805,0,0
108142.45,135.199,-807.723,0,0
108402.775,135.642,-803.754,0,0
108663.1,136.243,-800.192,0,0
108923.425,136.461,-796.7,0,0
109183.75,136.737,-793.083,0,0
109444.075,137.064,-789.464,0,0
109704.4,137.543,-785.716,0,0
109964.725,138.338,-782.148,0,0
110225.05,139.123,-778.721,0,0
110485.375,139.895,-775.398,0,0
110745.7,140.697,-772.047,0,0
111006.025,141.54,-768.586,0,0
111266.35,142.736,-765.351,0,0
111526.675,144.003,-761.972,0,0
111787.0,145.397,-758.994,0,0
112047.325,147.111,-756.33,0,0
112307.65,148.499,-754.091,0,0
112567.975,150.044,-752.035,0,0
112828.3,150.943,-750.05,0,0
113088.625,151.971,-747.994,0,0
113348.95,152.884,-746.002,0,0
113609.275,153.679,-744.016,0,0
113869.6,154.615,-741.942,0,0
114129.925,155.474,-740.059,0,0
114390.25,156.241,-738.033,0,0
114650.575,157.129,-736.026,0,0
114910.9,158.072,-733.929,0,0
115171.225,159.292,-731.979,0,0
115431.55,160.639,-730.335,0,0
115691.875,161.794,-728.969,0,0
115952.2,163.129,-727.594,0,0
116212.525,164.65,-726.58,0,0
116472.85,166.129,-726.25,0,0
116733.175,167.136,-726.647,0,0
116993.5,167.199,-727.375,0,0
117253.825,166.356,-727.841,0,0
117514.15,164.945,-727.9,0,0
117774.475,163.209,-727.323,0,0
118034.8,161.252,-726.211,0,0
118295.125,159.434,-724.502,0,0
118555.45,157.804,-722.356,0,0
118815.775,156.495,-720.045,0,0
119076.1,155.295,-717.664,0,0
119336.425,154.298,-714.892,0,0
119596.75,153.739,-712.206,0,0
119857.075,153.266,-709.533,0,0
120117.4,152.953,-706.567,0,0
120377.725,153.275,-703.617,0,0
120638.05,154.183,-701.164,0,0
120898.375,155.077,-699.563,0,0
121158.7,155.61,-698.377,0,0
121419.025,155.676,-697.492,0,0
121679.35,155.273,-696.641,0,0
121939.675,154.294,-695.682,0,0
122200.0,153.008,-694.196,0,0
122460,151.735,-692.257,0,0
122721,150.737,-689.941,0,0
122981,150.054,-687.611,0,0
123241,149.483,-685.38,0,0
123502,148.976,-683.079,0,0
123762,148.638,-680.87,0,0
124022,148.289,-678.885,0,0
124283,147.746,-676.951,0,0
124543,147.189,-674.848,0,0
124803,146.697,-672.839,0,0
125064,146.008,-670.771,0,0
125324,145.296,-668.685,0,0
125584,144.588,-666.426,0,0
125845,143.94,-664.157,0,0
126105,143.343,-661.851,0,0
126365,142.641,-659.557,0,0
126626,141.919,-657.154,0,0
126886,141.189,-654.605,0,0
127146,140.451,-652.002,0,0
127406,139.925,-649.228,0,0
127667,139.524,-646.164,0,0
127927,139.217,-643.27,0,0
128187,139.182,-640.325,0,0
128448,139.194,-637.583,0,0
128708,139.374,-634.69,0,0
128968,139.83,-632.059,0,0
129229,140.229,-629.616,0,0
129489,140.642,-627.321,0,0
129749,140.962,-625.208,0,0
130010,141.163,-623.179,0,0
130270,141.273,-621.192,0,0
130530,141.266,-619.221,0,0
130791,141.148,-617.171,0,0
131051,141.003,-615.098,0,0
131311,140.83,-612.96,0,0
131572,140.608,-610.814,0,0
131832,140.375,-608.598,0,0
132092,140.141,-606.349,0,0
132353,139.897,-603.975,0,0
132613,139.782,-601.589,0,0
132873,139.741,-599.238,0,0
133134,139.614,-596.908,0,0
133394,139.507,-594.641,0,0
133654,139.286,-592.273,0,0
133915,139.056,-589.813,0,0
134175,138.923,-587.351,0,0
134435,138.819,-584.838,0,0
134696,138.684,-582.285,0,0
134956,138.673,-579.777,0,0
135216,138.593,-577.137,0,0
135477,138.593,-574.497,0,0
135737,138.6,-571.788,0,0
135997,138.703,-569,0,0
136258,138.918,-566.237,0,0
136518,139.246,-563.44,0,0
136778,139.648,-560.714,0,0
137039,140.117,-558.046,0,0
137299,140.584,-555.419,0,0
137559,141.128,-552.809,0,0
137819,141.719,-550.266,0,0
138080,142.307,-547.859,0,0
138340.125,142.84,-545.458,0,0
138600.45,143.376,-542.978,0,0
138860.775,143.943,-540.514,0,0
139121.1,144.491,-538.04,0,0
139381.425,145.212,-535.655,0,0
139641.75,145.905,-533.224,0,0
139902.075,146.522,-530.831,0,0
140162.4,147.268,-528.373,0,0
140422.725,147.952,-525.873,0,0
140683.05,148.891,-523.422,0,0
140943.375,149.954,-521.024,0,0
141203.7,151.114,-518.814,0,0
141464.025,152.304,-516.887,0,0
141724.35,153.336,-515.087,0,0
141984.675,154.297,-513.337,0,0
142245.0,155.13,-511.707,0,0
142505.325,155.842,-510.083,0,0
142765.65,156.422,-508.424,0,0
143025.975,156.999,-506.619,0,0
143286.3,157.49,-504.988,0,0
143546.625,157.869,-503.097,0,0
143806.95,158.347,-501.208,0,0
144067.275,158.939,-499.359,0,0
144327.6,159.356,-497.415,0,0
144587.925,159.918,-495.394,0,0
144848.25,160.644,-493.466,0,0
145108.575,161.389,-491.599,0,0
145368.9,162.132,-489.871,0,0
145629.225,162.815,-488.337,0,0
145889.55,163.215,-486.688,0,0
146149.875,163.653,-485.133,0,0
146410.2,164.046,-483.407,0,0
146670.525,164.444,-481.79,0,0
146930.85,164.919,-480.202,0,0
147191.175,165.182,-478.688,0,0
147451.5,165.224,-477.262,0,0
147711.825,165.175,-475.696,0,0
147972.15,164.86,-473.965,0,0
148232.475,164.529,-471.995,0,0
148492.8,164.274,-469.862,0,0
148753.125,164.026,-467.639,0,0
149013.45,163.831,-465.234,0,0
149273.775,163.782,-462.713,0,0
149534.1,163.699,-460.139,0,0
149794.425,163.711,-457.46,0,0
150054.75,163.809,-454.668,0,0
150315.075,163.936,-451.828,0,0
150575.4,164.279,-448.854,0,0
150835.725,164.685,-445.843,0,0
151096.05,165.162,-442.813,0,0
151356.375,165.771,-439.552,0,0
151616.7,166.697,-436.262,0,0
151877.025,167.858,-432.932,0,0
152137.35,169.372,-429.621,0,0
152397.675,171.349,-426.566,0,0
152658.0,173.418,-424.025,0,0
152918.325,175.397,-421.822,0,0
153178.65,177.311,-419.698,0,0
153438.975,179.39,-417.887,0,0
153699.3,181.263,-416.493,0,0
153959.625,182.635,-415.309,0,0
154219.95,183.576,-414.076,0,0
154480,184.308,-412.626,0,0
154741,184.72,-410.838,0,0
155001,185.3,-408.675,0,0
155261,186.114,-406.272,0,0
155522,187.291,-403.718,0,0
155782,188.645,-401.336,0,0
156042,190.241,-398.966,0,0
156303,192.122,-396.738,0,0
156563,194.36,-394.965,0,0
156823,196.458,-393.787,0,0
157084,198.182,-392.946,0,0
157344,199.522,-392.194,0,0
157604,200.552,-391.537,0,0
157864,201.226,-390.783,0,0
158125,201.664,-389.896,0,0
158385,201.921,-388.764,0,0
158645,202.045,-387.398,0,0
158906,202.197,-385.804,0,0
159166,202.385,-384.094,0,0
159426,202.614,-382.254,0,0
159687,202.954,-380.257,0,0
159947,203.298,-378.217,0,0
160207,203.769,-376.235,0,0
160468,204.135,-374.215,0,0
160728,204.574,-372.018,0,0
160988,205.079,-369.776,0,0
161249,205.689,-367.688,0,0
161509,206.261,-365.583,0,0
161769,206.681,-363.521,0,0
162030,207.043,-361.355,0,0
162290,207.387,-358.956,0,0
162550,207.75,-356.407,0,0
162811,208.243,-353.738,0,0
163071,208.909,-351.097,0,0
163331,209.64,-348.352,0,0
163592,210.446,-345.678,0,0
163852,211.321,-342.975,0,0
164112,212.121,-340.398,0,0
164373,212.899,-337.7,0,0
164633,213.733,-334.933,0,0
164893,214.59,-332.034,0,0
165154,215.564,-329.068,0,0
165414,216.542,-325.979,0,0
165674,217.724,-322.916,0,0
165935,219.021,-319.756,0,0
166195,220.505,-316.68,0,0
166455,222.089,-313.736,0,0
166716,223.647,-310.905,0,0
166976,225.206,-308.093,0,0
167236,226.646,-305.256,0,0
167497,228.152,-302.327,0,0
167757,229.678,-299.305,0,0
168017,231.354,-296.264,0,0
168277,233.135,-293.185,0,0
168538,235.034,-290.136,0,0
168798,237.03,-287.157,0,0
169058,239.085,-284.284,0,0
169319,241.151,-281.438,0,0
169579,243.199,-278.673,0,0
169839,245.226,-275.979,0,0
170100,247.253,-273.196,0,0
170360.075,249.182,-270.422,0,0
170620.4,251.25,-267.571,0,0
170880.725,253.281,-264.75,0,0
171141.05,255.373,-261.858,0,0
171401.375,257.516,-259.022,0,0
171661.7,259.701,-256.168,0,0
171922.025,261.871,-253.329,0,0
172182.35,264.052,-250.399,0,0
172442.675,266.284,-247.464,0,0
172703.0,268.602,-244.503,0,0
172963.325,270.882,-241.636,0,0
173223.65,273.159,-238.707,0,0
173483.975,275.378,-235.784,0,0
173744.3,277.575,-232.687,0,0
174004.625,279.823,-229.496,0,0
174264.95,282.193,-226.278,0,0
174525.275,284.483,-222.956,0,0
174785.6,286.851,-219.44,0,0
175045.925,289.344,-215.805,0,0
175306.25,291.969,-212.089,0,0
175566.575,294.784,-208.32,0,0
175826.9,297.663,-204.518,0,0
176087.225,300.684,-200.627,0,0
176347.55,303.842,-196.62,0,0
176607.875,307.156,-192.533,0,0
176868.2,310.709,-188.401,0,0
177128.525,314.472,-184.215,0,0
177388.85,318.367,-180.031,0,0
177649.175,322.505,-175.798,0,0
177909.5,326.777,-171.516,0,0
178169.825,331.345,-167.245,0,0
178430.15,336.223,-162.946,0,0
178690.475,341.391,-158.687,0,0
178950.8,346.903,-154.522,0,0
179211.125,352.721,-150.597,0,0
179471.45,358.86,-146.888,0,0
179731.775,365.177,-143.527,0,0
179992.1,371.655,-140.577,0,0
180252.425,378.064,-137.948,0,0
180512.75,384.374,-135.557,0,0
180773.075,390.492,-133.312,0,0
181033.4,396.653,-130.985,0,0
181293.725,402.758,-128.782,0,0
181554.05,408.903,-126.468,0,0
181814.375,415.154,-124.272,0,0
182074.7,421.616,-122.11,0,0
182335.025,428.239,-120.074,0,0
182595.35,434.926,-118.316,0,0
182855.675,441.55,-116.803,0,0
183116.0,448.025,-115.549,0,0
183376.325,454.298,-114.244,0,0
183636.65,460.41,-112.97,0,0
183896.975,466.427,-111.583,0,0
184157.3,472.269,-109.953,0,0
184417.625,478.128,-108.218,0,0
184677.95,484.082,-106.146,0,0
184938.275,490.304,-103.899,0,0
185198.6,496.527,-101.501,0,0
185458.925,503.097,-98.7538,0,0
185719.25,509.913,-95.8635,0,0
185979.575,517.221,-92.7119,0,0
186239.9,524.943,-89.5721,0,0
186500,533.023,-86.4042,0,0
186761,541.689,-83.2493,0,0
187021,550.67,-80.1257,0,0
187281,560.204,-76.9206,0,0
187542,570.294,-73.7881,0,0
187802,580.9,-70.7551,0,0
188062,592.328,-67.9494,0,0
188322,604.325,-65.4159,0,0
188583,617.068,-63.1639,0,0
188843,630.602,-61.3864,0,0
189103,644.951,-60.339,0,0
189364,659.933,-60.1709,0,0
189624,675.268,-60.9608,0,0
189884,690.948,-62.5051,0,0
190145,707.374,-64.9742,0,0
190405,724.093,-68.881,0,0
190665,740.727,-74.2324,0,0
190926,756.843,-80.9612,0,0
191186,772.415,-88.6891,0,0
191446,787.283,-97.2373,0,0
191707,801.467,-106.489,0,0
191967,814.926,-116.301,0,0
192227,827.597,-126.479,0,0
192488,839.659,-136.868,0,0
192748,851.276,-147.289,0,0
193008,862.532,-157.812,0,0
193269,873.614,-168.515,0,0
193529,884.43,-179.385,0,0
193789,895.232,-190.54,0,0
194050,905.878,-201.997,0,0
194310,916.452,-214.007,0,0
194570,926.603,-226.552,0,0
194831,936.447,-239.28,0,0
195091,946.072,-252.36,0,0
195351,955.627,-266.043,0,0
195612,964.792,-280,0,0
195872,973.362,-294.746,0,0
196132,981.676,-309.691,0,0
196393,989.387,-325.136,0,0
196653,996.879,-340.956,0,0
196913,1003.95,-357.297,0,0
197174,1010.24,-374.02,0,0
197434,1016.04,-391.149,0,0
197694,1021.03,-408.627,0,0
197955,1025.62,-426.346,0,0
198215,1029.54,-444.252,0,0
198475,1032.82,-462.4,0,0
198735,1035.44,-480.697,0,0
198996,1037.6,-499.343,0,0
199256,1038.89,-518.133,0,0
199516,1039.64,-537.466,0,0
199777,1039.68,-556.716,0,0
200037,1038.81,-576.192,0,0
200297,1037.32,-595.914,0,0
200558,1034.88,-615.721,0,0
200818,1031.36,-635.663,0,0
201078,1026.61,-655.273,0,0
201339,1021.08,-674.823,0,0
201599,1014.47,-694.083,0,0
201859,1007.11,-713.008,0,0
202120,998.754,-731.369,0,0
202380.025,989.703,-749.25,0,0
202640.35,979.554,-766.65,0,0
202900.675,968.969,-782.702,0,0
203161.0,957.731,-798.732,0,0
203421.325,946.087,-813.921,0,0
203681.65,933.648,-828.396,0,0
203941.975,920.993,-842.27,0,0
204202.3,907.978,-855.166,0,0
204462.625,894.605,-867.768,0,0
204722.95,880.798,-879.684,0,0
204983.275,867.037,-890.675,0,0
205243.6,852.377,-901.224,0,0
205503.925,838.331,-910.664,0,0
205764.25,823.747,-919.674,0,0
206024.575,808.913,-928.187,0,0
206284.9,794.093,-935.828,0,0
206545.225,779.242,-942.663,0,0
206805.55,764.633,-949.061,0,0
207065.875,749.866,-954.656,0,0
207326.2,735.493,-959.68,0,0
207586.525,720.688,-964.259,0,0
207846.85,706.071,-968.297,0,0
208107.175,691.709,-971.618,0,0
208367.5,677.574,-974.82,0,0
208627.825,663.601,-977.108,0,0
208888.15,649.62,-979.026,0,0
209148.475,636.261,-980.508,0,0
209408.8,622.709,-981.498,0,0
209669.125,609.526,-982.401,0,0
209929.45,596.195,-982.605,0,0
210189.775,583.389,-982.581,0,0
210450.1,570.78,-981.997,0,0
210710.425,558.523,-981.498,0,0
210970.75,546.032,-980.408,0,0
211231.075,533.807,-978.916,0,0
211491.4,521.95,-977.034,0,0
211751.725,510.334,-974.722,0,0
212012.05,498.968,-971.938,0,0
212272.375,488.171,-968.816,0,0
212532.7,477.996,-965.217,0,0
212793.025,467.862,-961.76,0,0
213053.35,458.444,-958.064,0,0
213313.675,449.472,-954.451,0,0
213574.0,440.76,-950.793,0,0
213834.325,432.254,-947.22,0,0
214094.65,424.006,-943.599,0,0
214354.975,415.627,-940.029,0,0
214615.3,407.674,-936.247,0,0
214875.625,399.832,-932.133,0,0
215135.95,392.171,-928.121,0,0
215396.275,384.798,-924.02,0,0
215656.6,377.649,-919.958,0,0
215916.925,370.622,-915.675,0,0
216177.25,363.956,-911.427,0,0
216437.575,357.343,-907.097,0,0
216697.9,351.09,-902.788,0,0
216958.225,344.891,-898.504,0,0
217218.55,338.81,-894.061,0,0
217478.875,332.96,-889.674,0,0
217739.2,327.121,-885.207,0,0
217999.525,321.614,-880.857,0,0
218259.85,316.217,-876.113,0,0
218520,310.821,-871.506,0,0
218780,305.735,-866.998,0,0
219041,300.808,-862.382,0,0
219301,295.965,-857.703,0,0
219561,291.192,-852.966,0,0
219822,286.926,-848.355,0,0
220082,282.586,-843.474,0,0
220342,278.286,-838.68,0,0
220603,274.214,-833.885,0,0
220863,270.183,-828.909,0,0
221123,266.599,-824.047,0,0
221384,262.945,-819.119,0,0
221644,259.464,-814.155,0,0
221904,256.305,-809.212,0,0
222165,253.177,-804.179,0,0
222425,250.326,-799.106,0,0
222685,247.552,-794.025,0,0
222946,244.984,-788.92,0,0
223206,242.559,-783.811,0,0
223466,240.458,-778.698,0,0
223727,238.548,-773.553,0,0
223987,237.142,-768.521,0,0
224247,235.622,-763.382,0,0
224508,234.527,-758.622,0,0
224768,233.862,-753.669,0,0
225028,233.13,-749.235,0,0
225289,232.977,-744.766,0,0
225549,232.837,-740.703,0,0
225809,233.039,-736.775,0,0
226070,233.285,-733.285,0,0
226330,233.638,-730.151,0,0
226590,233.808,-727.275,0,0
226851,233.948,-724.732,0,0
227111,233.958,-722.514,0,0
227371,233.908,-720.544,0,0
227632,233.46,-718.665,0,0
227892,232.849,-716.856,0,0
228152,232.008,-715.151,0,0
228413,230.931,-713.426,0,0
228673,229.805,-711.512,0,0
228933,228.474,-709.542,0,0
229193,227.013,-707.491,0,0
229454,225.553,-705.393,0,0
229714,224.06,-703.109,0,0
229974,222.662,-700.755,0,0
230235,221.217,-698.244,0,0
230495,219.736,-695.69,0,0
230755,218.414,-693.081,0,0
231016,217.118,-690.397,0,0
231276,215.903,-687.668,0,0
231536,214.662,-684.878,0,0
231797,213.591,-682.042,0,0
232057,212.489,-679.145,0,0
232317,211.626,-676.239,0,0
232578,210.701,-673.347,0,0
232838,209.907,-670.384,0,0
233098,209.178,-667.469,0,0
233359,208.5,-664.487,0,0
233619,207.948,-661.543,0,0
233879,207.444,-658.54,0,0
234140,207.029,-655.631,0,0
234400,206.672,-652.629,0,0
234660.3,206.475,-649.698,0,0
234920.625,206.367,-646.863,0,0
235180.95,206.329,-643.912,0,0
235441.275,206.219,-641.043,0,0
235701.6,206.312,-638.185,0,0
235961.925,206.46,-635.372,0,0
236222.25,206.73,-632.638,0,0
236482.575,206.986,-629.89,0,0
236742.9,207.285,-627.182,0,0
237003.225,207.731,-624.543,0,0
237263.55,208.184,-621.903,0,0
237523.875,208.738,-619.272,0,0
237784.2,209.331,-616.711,0,0
238044.525,209.99,-614.189,0,0
238304.85,210.723,-611.678,0,0
238565.175,211.512,-609.226,0,0
238825.5,212.346,-606.862,0,0
239085.825,213.295,-604.388,0,0
239346.15,214.269,-602.067,0,0
239606.475,215.393,-599.895,0,0
239866.8,216.533,-597.708,0,0
240127.125,217.705,-595.619,0,0
240387.45,218.93,-593.35,0,0
240647.775,220.319,-591.366,0,0
240908.1,221.754,-589.449,0,0
241168.425,223.14,-587.586,0,0
241428.75,224.594,-585.751,0,0
241689.075,226.111,-584.057,0,0
241949.4,227.73,-582.346,0,0
242209.725,229.253,-580.823,0,0
242470.05,231.002,-579.331,0,0
242730.375,232.67,-577.878,0,0
242990.7,234.415,-576.45,0,0
243251.025,236.248,-575.114,0,0
243511.35,238.085,-573.927,0,0
243771.675,239.963,-572.694,0,0
244032.0,242.014,-571.596,0,0
244292.325,244.088,-570.762,0,0
244552.65,246.321,-569.958,0,0
244812.975,248.459,-569.319,0,0
245073.3,250.489,-568.849,0,0
245333.625,252.794,-568.524,0,0
245593.95,254.825,-568.369,0,0
245854.275,256.862,-568.371,0,0
246114.6,258.904,-568.388,0,0
246374.925,260.768,-568.485,0,0
246635.25,262.721,-568.801,0,0
246895.575,264.636,-569.088,0,0
247155.9,266.335,-569.458,0,0
247416.225,268.123,-569.916,0,0
247676.55,269.822,-570.517,0,0
247936.875,271.491,-571.135,0,0
248197.2,273.158,-571.883,0,0
248457.525,274.554,-572.646,0,0
248717.85,275.943,-573.392,0,0
248978.175,277.291,-574.146,0,0
249238.5,278.503,-574.833,0,0
249498.825,279.796,-575.413,0,0
249759.15,281.105,-575.866,0,0
250019.475,282.621,-576.386,0,0
250279.8,284.271,-576.85,0,0
250540,286.106,-577.608,0,0
250800,288.198,-578.316,0,0
251061,290.495,-579.304,0,0
251321,292.805,-580.722,0,0
251581,295.199,-582.493,0,0
251842,297.408,-584.542,0,0
252102,299.603,-586.927,0,0
252362,301.564,-589.694,0,0
252623,303.317,-592.695,0,0
252883,304.785,-595.849,0,0
253143,306.058,-599.165,0,0
253404,307.04,-602.701,0,0
253664,307.753,-606.382,0,0
253924,308.158,-610.203,0,0
254185,308.292,-614.111,0,0
254445,308.168,-617.975,0,0
254705,307.653,-621.865,0,0
254966,306.844,-625.932,0,0
255226,305.627,-629.727,0,0
255486,304.182,-633.617,0,0
255747,302.343,-637.323,0,0
256007,300.469,-640.971,0,0
256267,298.104,-644.246,0,0
256528,295.541,-647.387,0,0
256788,292.897,-650.354,0,0
257048,290.085,-653.086,0,0
257309,287.191,-655.599,0,0
257569,284.144,-657.94,0,0
257829,281.054,-660.089,0,0
258090,277.894,-662,0,0
258350,274.733,-663.766,0,0
258610,271.496,-665.389,0,0
258871,268.242,-666.803,0,0
259131,265.112,-668.126,0,0
259391,261.739,-669.136,0,0
259651,258.459,-670.172,0,0
259912,255.02,-671.033,0,0
260172,251.873,-671.811,0,0
260432,248.615,-672.308,0,0
260693,245.334,-672.708,0,0
260953,242.063,-673.028,0,0
261213,238.921,-673.134,0,0
261474,235.808,-673.163,0,0
261734,232.673,-673.048,0,0
261994,229.694,-672.877,0,0
262255,226.752,-672.592,0,0
262515,223.873,-672.253,0,0
262775,221.091,-671.85,0,0
263036,218.377,-671.357,0,0
263296,215.684,-670.829,0,0
263556,213.147,-670.258,0,0
263817,210.564,-669.712,0,0
264077,208.091,-669.077,0,0
264337,205.615,-668.421,0,0
264598,203.115,-667.655,0,0
264858,200.855,-667.016,0,0
265118,198.382,-666.363,0,0
265379,196.043,-665.463,0,0
265639,193.767,-664.624,0,0
265899,191.549,-663.699,0,0
266160,189.323,-662.781,0,0
266420,187.214,-661.9,0,0
266680.25,185.067,-660.927,0,0
266940.575,183.008,-659.962,0,0
267200.9,180.995,-659.006,0,0
267461.225,178.967,-657.996,0,0
267721.55,176.982,-656.973,0,0
267981.875,175.088,-655.923,0,0
268242.2,173.13,-654.841,0,0
268502.525,171.253,-653.8,0,0
268762.85,169.365,-652.747,0,0
269023.175,167.555,-651.646,0,0
269283.5,165.676,-650.575,0,0
269543.825,163.983,-649.411,0,0
269804.15,162.252,-648.277,0,0
270064.475,160.415,-647.158,0,0
270324.8,158.808,-645.945,0,0
270585.125,157.107,-644.836,0,0
270845.45,155.551,-643.586,0,0
271105.775,153.816,-642.372,0,0
271366.1,152.243,-641.189,0,0
271626.425,150.72,-639.863,0,0
271886.75,149.096,-638.641,0,0
272147.075,147.622,-637.362,0,0
272407.4,146.143,-636.035,0,0
272667.725,144.673,-634.784,0,0
272928.05,143.201,-633.504,0,0
273188.375,141.828,-632.176,0,0
273448.7,140.423,-630.886,0,0
273709.025,139.067,-629.557,0,0
273969.35,137.762,-628.173,0,0
274229.675,136.42,-626.827,0,0
274490.0,135.197,-625.481,0,0
274750.325,133.955,-624.209,0,0
275010.65,132.759,-622.871,0,0
275270.975,131.555,-621.419,0,0
275531.3,130.367,-620.053,0,0
275791.625,129.219,-618.729,0,0
276051.95,128.131,-617.318,0,0
276312.275,127.018,-615.946,0,0
276572.6,125.959,-614.578,0,0
276832.925,124.916,-613.205,0,0
277093.25,123.908,-611.847,0,0
277353.575,122.897,-610.475,0,0
277613.9,121.949,-609.099,0,0
277874.225,120.953,-607.748,0,0
278134.55,120.021,-606.355,0,0
278394.875,119.124,-604.997,0,0
278655.2,118.219,-603.623,0,0
278915.525,117.356,-602.225,0,0
279175.85,116.52,-600.869,0,0
279436.175,115.695,-599.443,0,0
279696.5,114.911,-598.026,0,0
279956.825,114.197,-596.567,0,0
280217.15,113.43,-595.161,0,0
280477.475,112.805,-593.768,0,0
280737.8,112.205,-592.426,0,0
280998.125,111.682,-591.048,0,0
281258.45,111.152,-589.765,0,0
281518.775,110.653,-588.51,0,0
281779.1,110.131,-587.3,0,0
282039.425,109.621,-586.144,0,0
282299.75,109.077,-584.974,0,0
282560,108.538,-583.838,0,0
282820,107.989,-582.707,0,0
283081,107.426,-581.551,0,0
283341,106.865,-580.452,0,0
283601,106.302,-579.248,0,0
283862,105.781,-578.064,0,0
284122,105.231,-576.914,0,0
284382,104.754,-575.726,0,0
284643,104.278,-574.516,0,0
284903,103.845,-573.366,0,0
285163,103.462,-572.237,0,0
285424,103.122,-571.066,0,0
285684,102.822,-569.931,0,0
285944,102.508,-568.865,0,0
286205,102.232,-567.869,0,0
286465,101.967,-566.869,0,0
286725,101.704,-566.07,0,0
286986,101.426,-565.162,0,0
287246,101.033,-564.336,0,0
287506,100.634,-563.531,0,0
287767,100.155,-562.708,0,0
288027,99.7311,-561.886,0,0
288287,99.2261,-561.072,0,0
288548,98.723,-560.213,0,0
288808,98.216,-559.323,0,0
289068,97.7028,-558.45,0,0
289329,97.176,-557.544,0,0
289589,96.6709,-556.635,0,0
289849,96.2084,-555.664,0,0
290109,95.7637,-554.768,0,0
290370,95.2845,-553.815,0,0
290630,94.8723,-552.868,0,0
290890,94.4067,-551.995,0,0
291151,94.0327,-551.064,0,0
291411,93.6276,-550.157,0,0
291671,93.2017,-549.25,0,0
291932,92.8239,-548.382,0,0
292192,92.4424,-547.509,0,0
292452,92.0492,-546.647,0,0
292713,91.6662,-545.839,0,0
292973,91.2743,-545.025,0,0
293233,90.8868,-544.177,0,0
293494,90.4529,-543.423,0,0
293754,90.0192,-542.658,0,0
294014,89.5916,-541.863,0,0
294275,89.1044,-541.079,0,0
294535,88.579,-540.345,0,0
294795,88.0468,-539.51,0,0
295056,87.4982,-538.714,0,0
295316,86.9618,-537.888,0,0
295576,86.4001,-536.983,0,0
295837,85.8374,-536.089,0,0
296097,85.2819,-535.165,0,0
296357,84.7156,-534.183,0,0
296618,84.1704,-533.19,0,0
296878,83.6503,-532.159,0,0
297138,83.1734,-531.08,0,0
297399,82.7212,-529.972,0,0
297659,82.3425,-528.862,0,0
297919,82.0076,-527.736,0,0
298180,81.7396,-526.616,0,0
298440,81.5322,-525.539,0,0
298700.2,81.4041,-524.453,0,0
298960.525,81.2651,-523.513,0,0
299220.85,81.1494,-522.556,0,0
299481.175,81.0399,-521.69,0,0
299741.5,80.9221,-520.852,0,0
300001.825,80.7879,-520.007,0,0
300262.15,80.5902,-519.29,0,0
300522.475,80.4018,-518.548,0,0
300782.8,80.2976,-517.769,0,0
301043.125,79.9908,-517.032,0,0
301303.45,79.7025,-516.246,0,0
301563.775,79.4739,-515.517,0,0
301824.1,79.1778,-514.768,0,0
302084.425,78.9609,-514.021,0,0
302344.75,78.6438,-513.253,0,0
302605.075,78.3633,-512.438,0,0
302865.4,78.0716,-511.695,0,0
303125.725,77.8314,-510.879,0,0
303386.05,77.4828,-510.11,0,0
303646.375,77.2508,-509.26,0,0
303906.7,77.0008,-508.498,0,0
304167.025,76.7445,-507.683,0,0
304427.35,76.5516,-506.951,0,0
304687.675,76.3611,-506.104,0,0
304948.0,76.102,-505.295,0,0
305208.325,75.9673,-504.499,0,0
305468.65,75.7443,-503.723,0,0
305728.975,75.6017,-503.024,0,0
305989.3,75.437,-502.295,0,0
306249.625,75.2896,-501.64,0,0
306509.95,75.1243,-500.895,0,0
306770.275,74.9716,-500.266,0,0
307030.6,74.8155,-499.634,0,0
307290.925,74.601,-499.04,0,0
307551.25,74.3721,-498.375,0,0
307811.575,74.0652,-497.725,0,0
308071.9,73.8013,-497.099,0,0
308332.225,73.4786,-496.478,0,0
308592.55,73.2646,-495.8,0,0
308852.875,72.9759,-495.149,0,0
309113.2,72.7041,-494.482,0,0
309373.525,72.3843,-493.825,0,0
309633.85,72.1097,-493.128,0,0
309894.175,71.8258,-492.354,0,0
310154.5,71.5908,-491.761,0,0
310414.825,71.358,-491.068,0,0
310675.15,71.0951,-490.389,0,0
310935.475,70.8176,-489.773,0,0
311195.8,70.5834,-489.069,0,0
311456.125,70.2774,-488.432,0,0
311716.45,69.9893,-487.739,0,0
311976.775,69.7106,-487.147,0,0
312237.1,69.4702,-486.44,0,0
312497.425,69.1287,-485.79,0,0
312757.75,68.8331,-485.095,0,0
313018.075,68.5075,-484.409,0,0
313278.4,68.2709,-483.742,0,0
313538.725,67.9735,-483.039,0,0
313799.05,67.6591,-482.316,0,0
314059.375,67.3998,-481.615,0,0
314319.7,67.0725,-480.882,0,0
314580,66.8551,-480.144,0,0
314840,66.5751,-479.467,0,0
315101,66.357,-478.674,0,0
315361,66.0491,-477.996,0,0
315621,65.8289,-477.284,0,0
315882,65.6089,-476.601,0,0
316142,65.3583,-475.859,0,0
316402,65.1267,-475.147,0,0
316663,64.9297,-474.445,0,0
316923,64.6806,-473.815,0,0
317183,64.4897,-473.095,0,0
317444,64.276,-472.443,0,0
317704,64.0144,-471.758,0,0
317964,63.7559,-471.096,0,0
318225,63.5697,-470.434,0,0
318485,63.2978,-469.724,0,0
318745,63.0181,-469.024,0,0
319006,62.7667,-468.325,0,0
319266,62.5317,-467.662,0,0
319526,62.2932,-466.924,0,0
319787,62.0567,-466.203,0,0
320047,61.7694,-465.534,0,0
320307,61.6102,-464.817,0,0
320567,61.4634,-464.082,0,0
320828,61.2427,-463.405,0,0
321088,60.988,-462.742,0,0
321348,60.7847,-461.956,0,0
321609,60.6628,-461.194,0,0
321869,60.4089,-460.5,0,0
322129,60.2894,-459.807,0,0
322390,60.0667,-459.128,0,0
322650,59.9323,-458.41,0,0
322910,59.7913,-457.733,0,0
323171,59.6228,-457.036,0,0
323431,59.4323,-456.396,0,0
323691,59.285,-455.762,0,0
323952,59.144,-455.101,0,0
324212,58.9673,-454.362,0,0
324472,58.8283,-453.745,0,0
324733,58.6524,-453.098,0,0
324993,58.4847,-452.448,0,0
325253,58.3632,-451.876,0,0
325514,58.1956,-451.167,0,0
325774,57.9327,-450.488,0,0
326034,57.8263,-449.892,0,0
326295,57.5873,-449.216,0,0
326555,57.3524,-448.596,0,0
326815,57.2154,-447.983,0,0
327076,57.042,-447.258,0,0
327336,56.8229,-446.601,0,0
327596,56.6316,-445.911,0,0
327857,56.5052,-445.244,0,0
328117,56.3245,-444.57,0,0
328377,56.1329,-443.908,0,0
328638,55.989,-443.225,0,0
328898,55.8172,-442.575,0,0
329158,55.6445,-441.89,0,0
329419,55.4774,-441.213,0,0
329679,55.3416,-440.531,0,0
329939,55.2522,-439.878,0,0
330200,55.0707,-439.193,0,0
330460,54.8833,-438.544,0,0
330720.15,54.7653,-437.848,0,0
330980.475,54.6127,-437.194,0,0
331240.8,54.4652,-436.472,0,0
331501.125,54.3328,-435.821,0,0
331761.45,54.22,-435.165,0,0
332021.775,54.0514,-434.484,0,0
332282.1,53.9752,-433.787,0,0
332542.425,53.8237,-433.137,0,0
332802.75,53.7572,-432.451,0,0
333063.075,53.6581,-431.775,0,0
333323.4,53.5346,-431.111,0,0
333583.725,53.4229,-430.424,0,0
333844.05,53.3552,-429.788,0,0
334104.375,53.2628,-429.105,0,0
334364.7,53.2445,-428.422,0,0
334625.025,53.1186,-427.771,0,0
334885.35,53.0418,-427.133,0,0
335145.675,53.0162,-426.475,0,0
335406.0,52.9241,-425.861,0,0
335666.325,52.8702,-425.256,0,0
335926.65,52.8483,-424.631,0,0
336186.975,52.7704,-423.988,0,0
336447.3,52.669,-423.372,0,0
336707.625,52.6034,-422.776,0,0
336967.95,52.5884,-422.167,0,0
337228.275,52.4731,-421.605,0,0
337488.6,52.3905,-420.944,0,0
337748.925,52.3215,-420.354,0,0
338009.25,52.2089,-419.777,0,0
338269.575,52.1763,-419.167,0,0
338529.9,52.0831,-418.55,0,0
338790.225,51.9916,-417.937,0,0
339050.55,51.9166,-417.303,0,0
339310.875,51.8298,-416.703,0,0
339571.2,51.7924,-416.122,0,0
339831.525,51.7401,-415.466,0,0
340091.85,51.629,-414.896,0,0
340352.175,51.6039,-414.24,0,0
340612.5,51.57,-413.63,0,0
340872.825,51.4997,-413.033,0,0
341133.15,51.4843,-412.433,0,0
341393.475,51.4045,-411.801,0,0
341653.8,51.3902,-411.199,0,0
341914.125,51.3566,-410.573,0,0
342174.45,51.3512,-410.005,0,0
342434.775,51.3775,-409.358,0,0
342695.1,51.3743,-408.811,0,0
342955.425,51.389,-408.227,0,0
343215.75,51.4058,-407.677,0,0
343476.075,51.4059,-407.16,0,0
343736.4,51.4158,-406.72,0,0
343996.725,51.393,-406.209,0,0
344257.05,51.3622,-405.753,0,0
344517.375,51.2363,-405.282,0,0
344777.7,51.1894,-404.831,0,0
345038.025,51.0479,-404.315,0,0
345298.35,50.9016,-403.774,0,0
345558.675,50.7808,-403.219,0,0
345819.0,50.6486,-402.678,0,0
346079.325,50.5205,-402.111,0,0
346339.65,50.4181,-401.501,0,0
346599.975,50.3358,-400.906,0,0
346860,50.2125,-400.322,0,0
347121,50.1523,-399.684,0,0
347381,50.0951,-399.07,0,0
347641,50.0406,-398.462,0,0
347902,49.9609,-397.881,0,0
348162,49.9422,-397.298,0,0
348422,49.9206,-396.674,0,0
348683,49.9115,-396.073,0,0
348943,49.8601,-395.531,0,0
349203,49.8576,-394.905,0,0
349464,49.8835,-394.337,0,0
349724,49.8406,-393.785,0,0
349984,49.7927,-393.196,0,0
350245,49.8595,-392.624,0,0
350505,49.8448,-392.035,0,0
350765,49.8397,-391.458,0,0
351025,49.8229,-390.937,0,0
351286,49.8647,-390.409,0,0
351546,49.871,-389.842,0,0
351806,49.8911,-389.289,0,0
352067,49.8934,-388.741,0,0
352327,49.9287,-388.21,0,0
352587,49.9727,-387.717,0,0
352848,49.9947,-387.178,0,0
353108,50.0245,-386.681,0,0
353368,50.0506,-386.169,0,0
353629,50.0552,-385.662,0,0
353889,50.0899,-385.184,0,0
354149,50.0988,-384.709,0,0
354410,50.1023,-384.27,0,0
354670,50.1018,-383.756,0,0
354930,50.1264,-383.306,0,0
355191,50.0895,-382.839,0,0
355451,50.0895,-382.345,0,0
355711,50.0739,-381.908,0,0
355972,50.0843,-381.39,0,0
356232,50.0024,-380.877,0,0
356492,50.0123,-380.464,0,0
356753,49.9873,-379.999,0,0
357013,49.9783,-379.497,0,0
357273,49.9998,-379,0,0
357534,49.8973,-378.495,0,0
357794,49.9138,-378.021,0,0
358054,49.922,-377.546,0,0
358315,49.9055,-377.051,0,0
358575,49.9116,-376.6,0,0
358835,49.9424,-376.166,0,0
359096,49.9111,-375.641,0,0
359356,49.9226,-375.212,0,0
359616,49.8683,-374.767,0,0
359877,49.8874,-374.33,0,0
360137,49.8187,-373.901,0,0
360397,49.8293,-373.459,0,0
360658,49.7631,-372.977,0,0
360918,49.7289,-372.566,0,0
361178,49.6858,-372.124,0,0
361438,49.6472,-371.652,0,0
361699,49.5772,-371.202,0,0
361959,49.5403,-370.737,0,0
362219,49.4521,-370.285,0,0
362480,49.38,-369.809,0,0
362740.1,49.3248,-369.289,0,0
363000.425,49.3088,-368.853,0,0
363260.75,49.2373,-368.339,0,0
363521.075,49.177,-367.875,0,0
363781.4,49.1593,-367.381,0,0
364041.725,49.088,-366.88,0,0
364302.05,49.0823,-366.371,0,0
364562.375,49.0312,-365.913,0,0
364822.7,48.9679,-365.393,0,0
365083.025,48.9688,-364.909,0,0
365343.35,48.9131,-364.425,0,0
365603.675,48.9295,-363.932,0,0
365864.0,48.8914,-363.413,0,0
366124.325,48.8873,-362.916,0,0
366384.65,48.88,-362.439,0,0
366644.975,48.866,-361.954,0,0
366905.3,48.8507,-361.476,0,0
367165.625,48.8875,-360.956,0,0
367425.95,48.8477,-360.513,0,0
367686.275,48.8536,-360.068,0,0
367946.6,48.8314,-359.578,0,0
368206.925,48.8191,-359.091,0,0
368467.25,48.8132,-358.652,0,0
368727.575,48.8078,-358.165,0,0
368987.9,48.7983,-357.675,0,0
369248.225,48.7742,-357.22,0,0
369508.55,48.7833,-356.767,0,0
369768.875,48.7555,-356.291,0,0
370029.2,48.7604,-355.811,0,0
370289.525,48.7744,-355.327,0,0
370549.85,48.7468,-354.819,0,0
370810.175,48.7591,-354.396,0,0
371070.5,48.775,-353.924,0,0
371330.825,48.8015,-353.443,0,0
371591.15,48.8198,-352.986,0,0
371851.475,48.8618,-352.555,0,0
372111.8,48.8847,-352.094,0,0
372372.125,48.9344,-351.66,0,0
372632.45,48.9419,-351.22,0,0
372892.775,48.9824,-350.833,0,0
373153.1,49.043,-350.399,0,0
373413.425,49.0474,-349.983,0,0
373673.75,49.1005,-349.664,0,0
373934.075,49.0914,-349.263,0,0
374194.4,49.0644,-348.908,0,0
374454.725,49.0422,-348.584,0,0
374715.05,49.0198,-348.205,0,0
374975.375,48.9273,-347.844,0,0
375235.7,48.8535,-347.496,0,0
375496.025,48.7457,-347.069,0,0
375756.35,48.6534,-346.653,0,0
376016.675,48.53,-346.255,0,0
376277.0,48.4232,-345.818,0,0
376537.325,48.3378,-345.38,0,0
376797.65,48.2333,-344.913,0,0
377057.975,48.1207,-344.49,0,0
377318.3,48.0808,-344.004,0,0
377578.625,47.9804,-343.538,0,0
377838.95,47.8927,-343.031,0,0
378099.275,47.805,-342.568,0,0
378359.6,47.7192,-342.113,0,0
378619.925,47.6796,-341.605,0,0
378880,47.6055,-341.151,0,0
379141,47.5209,-340.667,0,0
379401,47.4789,-340.173,0,0
379661,47.3861,-339.695,0,0
379922,47.3185,-339.18,0,0
380182,47.2637,-338.675,0,0
380442,47.1556,-338.16,0,0
380703,47.112,-337.649,0,0
380963,47.0302,-337.156,0,0
381223,47.0314,-336.575,0,0
381483,46.9915,-336.031,0,0
381744,46.9589,-335.476,0,0
382004,46.9506,-334.928,0,0
382264,46.9751,-334.395,0,0
382525,46.9758,-333.87,0,0
382785,47.0571,-333.306,0,0
383045,47.1158,-332.785,0,0
383306,47.2363,-332.339,0,0
383566,47.2969,-331.895,0,0
383826,47.3194,-331.492,0,0
384087,47.3483,-331.072,0,0
384347,47.3386,-330.685,0,0
384607,47.2802,-330.272,0,0
384868,47.2678,-329.828,0,0
385128,47.1891,-329.378,0,0
385388,47.1528,-328.931,0,0
385649,47.1223,-328.453,0,0
385909,46.9998,-327.957,0,0
386169,46.9837,-327.478,0,0
386430,46.9863,-326.986,0,0
386690,46.9351,-326.51,0,0
386950,46.8996,-326.02,0,0
387211,46.8852,-325.51,0,0
387471,46.8262,-324.997,0,0
387731,46.8051,-324.517,0,0
387992,46.8102,-324.01,0,0
388252,46.7667,-323.488,0,0
388512,46.7421,-323.015,0,0
388773,46.7397,-322.466,0,0
389033,46.6862,-321.966,0,0
389293,46.6998,-321.43,0,0
389554,46.7269,-320.957,0,0
389814,46.6938,-320.452,0,0
390074,46.7045,-319.928,0,0
390335,46.6956,-319.428,0,0
390595,46.6953,-318.916,0,0
390855,46.7001,-318.417,0,0
391116,46.7206,-317.881,0,0
391376,46.7137,-317.382,0,0
391636,46.7169,-316.864,0,0
391896,46.6974,-316.354,0,0
392157,46.7164,-315.836,0,0
392417,46.7506,-315.313,0,0
392677,46.7185,-314.809,0,0
392938,46.7519,-314.291,0,0
393198,46.7829,-313.774,0,0
393458,46.7839,-313.254,0,0
393719,46.7557,-312.735,0,0
393979,46.8052,-312.189,0,0
394239,46.8403,-311.679,0,0
394500,46.8413,-311.159,0,0
394760.05,46.8712,-310.641,0,0
395020.375,46.8813,-310.112,0,0
395280.7,46.919,-309.568,0,0
395541.025,46.9138,-309.049,0,0
395801.35,46.948,-308.511,0,0
396061.675,46.9858,-307.977,0,0
396322.0,47.0286,-307.44,0,0
396582.325,47.0501,-306.934,0,0
396842.65,47.099,-306.389,0,0
397102.975,47.1381,-305.877,0,0
397363.3,47.171,-305.329,0,0
397623.625,47.2135,-304.795,0,0
397883.95,47.2631,-304.225,0,0
398144.275,47.2977,-303.711,0,0
398404.6,47.3525,-303.179,0,0
398664.925,47.3838,-302.642,0,0
398925.25,47.4373,-302.095,0,0
399185.575,47.4888,-301.549,0,0
399445.9,47.5852,-301.017,0,0
399706.225,47.612,-300.459,0,0
399966.55,47.6699,-299.918,0,0
400006.6,47.6853,-299.863,0,0