File: Accelerated corrosion test data/2025-10-09_18-00-04/sample_8.csv
Frequency (Hz),Impedance (ohms),Phase (Radians),Temperature (C),Humidity (%)
10000.0,312.326,-10944.1,0,0
10260.325,304.376,-10670.1,0,0
10520.65,297.267,-10409.1,0,0
10780.975,289.521,-10160.7,0,0
11041.3,283.391,-9924.03,0,0
11301.625,276.903,-9699.32,0,0
11561.95,270.92,-9482.83,0,0
11822.275,264.881,-9276.15,0,0
12082.6,262.654,-9076.62,0,0
12342.925,259.881,-8891.04,0,0
12603.25,254.691,-8710.31,0,0
12863.575,250.998,-8540.03,0,0
13123.9,242.744,-8375.8,0,0
13384.225,236.769,-8213.53,0,0
13644.55,234.52,-8059.52,0,0
13904.875,226.483,-7911.27,0,0
14165.2,220.813,-7766.91,0,0
14425.525,216.291,-7627.81,0,0
14685.8,213.127,-7492.7,0,0
14946.175,209.38,-7363.72,0,0
15206.5,206.172,-7238.7,0,0
15466.825,202.915,-7118.79,0,0
15727.15,199.693,-7002.19,0,0
15987.5,196.361,-6889.11,0,0
16247.8,193.443,-6780.26,0,0
16508.125,189.919,-6673.68,0,0
16768.45,187.182,-6571.21,0,0
17028.775,184.317,-6471.37,0,0
17289.1,181.518,-6374.51,0,0
17549.425,178.83,-6280.48,0,0
17809.75,177.025,-6188.63,0,0
18070.075,174.408,-6101.87,0,0
18330.4,171.86,-6014.47,0,0
18590.725,169.643,-5929,0,0
18851.05,170.233,-5846.66,0,0
19111.375,168.332,-5767.7,0,0
19371.7,171.256,-5691.41,0,0
19632.025,167.17,-5618.43,0,0
19892.35,164.078,-5548.77,0,0
20152.675,160.939,-5475.63,0,0
20413.0,160.595,-5405.82,0,0
20673.3,160.015,-5339.16,0,0
20933.65,158.453,-5275.4,0,0
21193.975,155.221,-5212.21,0,0
21454.3,152.754,-5148.31,0,0
21714.625,150.863,-5086.07,0,0
21974.9,150.378,-5026.33,0,0
22235.275,150.518,-4968.55,0,0
22495.6,148.737,-4911.99,0,0
22755.925,146.948,-4857.94,0,0
23016.25,145.082,-4803.15,0,0
23276.6,141.239,-4751.1,0,0
23536.9,140.488,-4698.43,0,0
23797.225,138.75,-4647.03,0,0
24057.55,136.372,-4596.56,0,0
24317.875,134.339,-4547.58,0,0
24578.2,133.102,-4499.16,0,0
24838.525,131.701,-4451.51,0,0
25098.85,130.057,-4405.4,0,0
25359.175,128.753,-4360.11,0,0
25619.5,127.773,-4315.8,0,0
25879.8,126.323,-4271.36,0,0
26140.1,125.591,-4229.03,0,0
26400.5,125.02,-4187.43,0,0
26660.8,123.364,-4146.15,0,0
26921.1,122.498,-4105.19,0,0
27181.4,123.096,-4065.65,0,0
27441.8,121.053,-4027.31,0,0
27702.1,121.052,-3989.63,0,0
27962.4,119.248,-3952.94,0,0
28222.7,119.391,-3914.3,0,0
28483.1,118.625,-3879.2,0,0
28743.4,118.479,-3843.69,0,0
29003.7,118.177,-3809.61,0,0
29264,117.756,-3775.16,0,0
29524.4,117.053,-3742.09,0,0
29784.7,117.328,-3708.83,0,0
30045,117.029,-3677.12,0,0
30305.3,117.194,-3645.8,0,0
30565.7,116.094,-3615.43,0,0
30826,115.761,-3584.93,0,0
31086.3,114.971,-3555.11,0,0
31346.6,114.461,-3525.16,0,0
31607,114.169,-3496.17,0,0
31867.3,113.972,-3467.56,0,0
32127.6,113.575,-3439.68,0,0
32387.9,112.842,-3411.69,0,0
32648.3,113.111,-3384.13,0,0
32908.6,114.202,-3356.97,0,0
33168.9,114.186,-3331.1,0,0
33429.2,115.511,-3305.79,0,0
33689.6,116.636,-3282.16,0,0
33949.9,116.022,-3259.27,0,0
34210.2,115.114,-3236.3,0,0
34470.5,113.862,-3213.04,0,0
34730.9,112.961,-3189.25,0,0
34991.2,112.785,-3167.04,0,0
35251.5,111.4,-3145.57,0,0
35511.8,109.561,-3123.47,0,0
35772.2,107.812,-3101.51,0,0
36032.5,106.15,-3079.75,0,0
36292.8,104.158,-3057.93,0,0
36553.1,102.665,-3036.44,0,0
36813.5,101.052,-3014.75,0,0
37073.8,100.077,-2993.78,0,0
37334.1,98.5227,-2972.84,0,0
37594.4,96.7611,-2952.27,0,0
37854.8,95.7935,-2931.85,0,0
38115.1,94.2136,-2911.54,0,0
38375.4,92.9205,-2891.39,0,0
38635.7,91.7365,-2871.19,0,0
38896.1,90.2623,-2851.63,0,0
39156.4,89.4341,-2831.94,0,0
39416.7,88.4127,-2812.67,0,0
39677,87.7511,-2793.9,0,0
39937.4,86.2694,-2774.87,0,0
40197.7,85.8805,-2755.69,0,0
40458,85.7455,-2737.21,0,0
40718.3,85.4358,-2719.22,0,0
40978.7,84.9065,-2701.98,0,0
41239,84.2955,-2684.33,0,0
41499.3,83.6375,-2666.92,0,0
41759.6,83.446,-2649.71,0,0
42020,82.8627,-2632.98,0,0
42280.275,82.1407,-2615.97,0,0
42540.6,81.9998,-2599.49,0,0
42800.925,81.8382,-2583.16,0,0
43061.25,81.8362,-2566.65,0,0
43321.575,81.8332,-2551.3,0,0
43581.9,82.0117,-2536.21,0,0
43842.225,81.3891,-2521.43,0,0
44102.55,80.6042,-2506.43,0,0
44362.875,79.9797,-2491.47,0,0
44623.2,79.3043,-2476.71,0,0
44883.525,78.6558,-2461.73,0,0
45143.85,78.2597,-2447.34,0,0
45404.175,77.6956,-2432.6,0,0
45664.5,77.1454,-2418.37,0,0
45924.825,76.5679,-2404.52,0,0
46185.15,76.0963,-2390.4,0,0
46445.475,75.7554,-2376.46,0,0
46705.8,75.3632,-2362.63,0,0
46966.125,75.0754,-2349.03,0,0
47226.45,74.7156,-2335.47,0,0
47486.775,74.5649,-2322.35,0,0
47747.1,74.2838,-2309.23,0,0
48007.425,74.216,-2296.47,0,0
48267.75,73.7305,-2283.75,0,0
48528.075,73.4382,-2271.1,0,0
48788.4,73.0588,-2258.9,0,0
49048.725,72.433,-2246.51,0,0
49309.05,71.9112,-2234.2,0,0
49569.375,71.5968,-2221.77,0,0
49829.7,71.2415,-2209.85,0,0
50090.025,70.7866,-2197.63,0,0
50350.35,70.656,-2185.72,0,0
50610.675,70.3144,-2173.94,0,0
50871.0,70.0189,-2162.1,0,0
51131.325,69.9238,-2150.51,0,0
51391.65,69.7455,-2139.07,0,0
51651.975,69.7906,-2127.77,0,0
51912.3,69.6235,-2116.76,0,0
52172.625,69.5542,-2105.81,0,0
52432.95,69.2998,-2095,0,0
52693.275,69.2906,-2084.16,0,0
52953.6,69.3443,-2073.6,0,0
53213.925,69.3604,-2063.25,0,0
53474.25,69.3634,-2052.93,0,0
53734.575,69.1736,-2043.23,0,0
53994.9,68.6776,-2033.52,0,0
54255.225,68.0028,-2023.6,0,0
54515.55,67.3487,-2013.48,0,0
54775.875,67.0792,-2003.44,0,0
55036.2,66.5409,-1993.91,0,0
55296.525,65.7631,-1984.13,0,0
55556.85,65.061,-1974.11,0,0
55817.175,64.5191,-1964.4,0,0
56077.5,63.9269,-1954.57,0,0
56337.825,63.4416,-1944.6,0,0
56598.15,63.1646,-1934.9,0,0
56858.475,62.923,-1925.23,0,0
57118.8,62.7212,-1915.62,0,0
57379.125,62.5631,-1906.24,0,0
57639.45,62.3698,-1896.96,0,0
57899.775,62.2625,-1887.69,0,0
58160.1,62.05,-1878.49,0,0
58420.4,62.1078,-1869.4,0,0
58680.7,61.9833,-1860.43,0,0
58941.1,62.1704,-1851.65,0,0
59201.4,62.1983,-1843.25,0,0
59461.7,61.9085,-1834.88,0,0
59722,61.5718,-1826.42,0,0
59982.4,61.2581,-1817.83,0,0
60242.7,60.8389,-1809.35,0,0
60503,60.5817,-1800.65,0,0
60763.3,60.486,-1792.14,0,0
61023.7,60.42,-1783.68,0,0
61284,60.4626,-1775.27,0,0
61544.3,60.5046,-1767.14,0,0
61804.6,60.6365,-1759.24,0,0
62065,60.363,-1751.28,0,0
62325.3,60.2337,-1743.07,0,0
62585.6,60.2937,-1735.07,0,0
62845.9,60.3716,-1727.07,0,0
63106.3,60.7267,-1719.19,0,0
63366.6,60.9233,-1711.51,0,0
63626.9,61.312,-1704.07,0,0
63887.2,61.5209,-1696.62,0,0
64147.6,61.8515,-1689.23,0,0
64407.9,62.2135,-1682.32,0,0
64668.2,62.3165,-1675.7,0,0
64928.5,62.1259,-1668.8,0,0
65188.9,62.0657,-1661.98,0,0
65449.2,61.6747,-1655.33,0,0
65709.5,61.2523,-1648.26,0,0
65969.8,61.1419,-1641.52,0,0
66230.2,60.7973,-1634.72,0,0
66490.5,60.1541,-1628.07,0,0
66750.8,59.5307,-1621.01,0,0
67011.1,59.1676,-1613.98,0,0
67271.5,58.9608,-1606.97,0,0
67531.8,58.8623,-1599.96,0,0
67792.1,58.4616,-1593.19,0,0
68052.4,58.3032,-1586.31,0,0
68312.8,58.1452,-1579.54,0,0
68573.1,57.9724,-1572.83,0,0
68833.4,57.8176,-1566.12,0,0
69093.7,57.774,-1559.33,0,0
69354.1,57.9626,-1552.7,0,0
69614.4,57.7776,-1546.07,0,0
69874.7,57.9179,-1539.61,0,0
70135,57.9659,-1533.25,0,0
70395.4,58.0022,-1526.95,0,0
70655.7,58.0974,-1520.82,0,0
70916,58.0074,-1514.47,0,0
71176.3,58.1528,-1508.29,0,0
71436.7,58.1762,-1502.21,0,0
71697,58.4529,-1496.16,0,0
71957.3,58.4524,-1490.36,0,0
72217.6,58.4941,-1484.53,0,0
72478,58.3861,-1478.77,0,0
72738.3,58.1814,-1473.17,0,0
72998.6,57.8511,-1467.32,0,0
73258.9,57.5259,-1461.27,0,0
73519.3,57.5227,-1455.29,0,0
73779.6,57.4421,-1449.54,0,0
74039.9,57.4315,-1443.79,0,0
74300.225,57.3461,-1438.16,0,0
74560.55,57.1186,-1432.51,0,0
74820.875,57.0116,-1426.78,0,0
75081.2,56.9794,-1421.04,0,0
75341.525,56.8797,-1415.34,0,0
75601.85,56.8304,-1409.63,0,0
75862.175,56.8608,-1404.08,0,0
76122.5,56.8893,-1398.58,0,0
76382.825,56.9773,-1393.04,0,0
76643.15,56.9847,-1387.64,0,0
76903.475,57.0069,-1382.33,0,0
77163.8,56.9166,-1377.02,0,0
77424.125,56.8286,-1371.66,0,0
77684.45,56.8483,-1366.34,0,0
77944.775,56.7863,-1361.08,0,0
78205.1,56.649,-1355.88,0,0
78465.425,56.5551,-1350.56,0,0
78725.75,56.3352,-1345.21,0,0
78986.075,56.3731,-1339.88,0,0
79246.4,56.373,-1334.66,0,0
79506.725,56.358,-1329.34,0,0
79767.05,56.3761,-1324.14,0,0
80027.375,56.5273,-1318.9,0,0
80287.7,56.5828,-1313.8,0,0
80548.025,56.6485,-1308.75,0,0
80808.35,56.6573,-1303.66,0,0
81068.675,56.6929,-1298.5,0,0
81329.0,56.7969,-1293.28,0,0
81589.325,57.0192,-1288.15,0,0
81849.65,57.287,-1283.04,0,0
82109.975,57.632,-1277.98,0,0
82370.3,58.0235,-1273.16,0,0
82630.625,58.3596,-1268.37,0,0
82890.95,58.6693,-1263.54,0,0
83151.275,58.9483,-1258.91,0,0
83411.6,59.1374,-1254.18,0,0
83671.925,59.5241,-1249.32,0,0
83932.25,59.9526,-1244.76,0,0
84192.575,60.4181,-1240.27,0,0
84452.9,60.6992,-1235.74,0,0
84713.225,61.2243,-1231.38,0,0
84973.55,61.6443,-1227.35,0,0
85233.875,61.5712,-1223.42,0,0
85494.2,61.2958,-1219.13,0,0
85754.525,60.9549,-1214.68,0,0
86014.85,60.8925,-1209.99,0,0
86275.175,60.9751,-1205.39,0,0
86535.5,61.0381,-1200.72,0,0
86795.825,61.2325,-1196.06,0,0
87056.15,61.5012,-1191.41,0,0
87316.475,61.8391,-1186.96,0,0
87576.8,62.0138,-1182.56,0,0
87837.125,62.3393,-1177.95,0,0
88097.45,62.7704,-1173.59,0,0
88357.775,63.3054,-1169.24,0,0
88618.1,63.6694,-1164.96,0,0
88878.425,64.0649,-1160.58,0,0
89138.75,64.4574,-1156.24,0,0
89399.075,64.9039,-1152.01,0,0
89659.4,65.3396,-1147.69,0,0
89919.725,65.9761,-1143.4,0,0
90180,66.4945,-1139.15,0,0
90440.4,67.2907,-1134.99,0,0
90700.7,68.1074,-1130.73,0,0
90961,68.9482,-1126.74,0,0
91221.3,70.0236,-1122.78,0,0
91481.7,71.1074,-1119.12,0,0
91742,72.1329,-1115.72,0,0
92002.3,72.9478,-1112.51,0,0
92262.6,73.7143,-1109.28,0,0
92523,74.3496,-1106.16,0,0
92783.3,74.802,-1103.15,0,0
93043.6,75.2943,-1100.41,0,0
93303.9,75.2151,-1097.7,0,0
93564.3,74.8059,-1094.6,0,0
93824.6,74.2845,-1091.11,0,0
94084.9,74.0191,-1087.22,0,0
94345.2,74.2608,-1083.47,0,0
94605.6,74.2747,-1079.68,0,0
94865.9,74.7139,-1075.84,0,0
95126.2,75.1211,-1072.32,0,0
95386.5,75.6426,-1068.69,0,0
95646.9,76.1982,-1065.57,0,0
95907.2,76.3027,-1062.27,0,0
96167.5,76.4607,-1058.84,0,0
96427.8,76.7743,-1055.22,0,0
96688.2,77.3307,-1051.82,0,0
96948.5,77.7794,-1048.54,0,0
97208.8,78.2568,-1045.27,0,0
97469.1,78.7975,-1042,0,0
97729.5,79.404,-1038.94,0,0
97989.8,79.9453,-1036.08,0,0
98250.1,80.3008,-1033.17,0,0
98510.4,80.7492,-1030.24,0,0
98770.8,81.1799,-1027.69,0,0
99031.1,81.2744,-1025.31,0,0
99291.4,80.9351,-1022.65,0,0
99551.7,80.6739,-1019.6,0,0
99812.1,80.5766,-1016.42,0,0
100072,80.6829,-1013.33,0,0
100333,80.8372,-1010.36,0,0
100593,80.9662,-1007.49,0,0
100853,81.0541,-1004.71,0,0
101114,80.9727,-1001.96,0,0
101374,80.8404,-999.102,0,0
101634,80.8142,-996.309,0,0
101895,80.5732,-993.705,0,0
102155,80.1778,-990.8,0,0
102415,79.7968,-987.887,0,0
102676,79.399,-984.79,0,0
102936,79.0738,-981.645,0,0
103196,78.7565,-978.469,0,0
103457,78.5205,-975.095,0,0
103717,78.4335,-971.778,0,0
103977,78.5099,-968.512,0,0
104238,78.5784,-965.407,0,0
104498,78.5693,-962.357,0,0
104758,78.5046,-959.295,0,0
105019,78.3474,-956.214,0,0
105279,78.2038,-952.883,0,0
105539,78.3641,-949.484,0,0
105800,78.6447,-946.235,0,0
106060,78.9217,-943.136,0,0
106320.175,79.1712,-940.021,0,0
106580.5,79.556,-936.954,0,0
106840.825,80.0016,-934.048,0,0
107101.15,80.388,-931.327,0,0
107361.475,80.6364,-928.677,0,0
107621.8,80.7224,-926.097,0,0
107882.125,80.6926,-923.396,0,0
108142.45,80.6153,-920.644,0,0
108402.775,80.5877,-917.721,0,0
108663.1,80.6571,-914.822,0,0
108923.425,80.7722,-911.931,0,0
109183.75,80.8038,-909.047,0,0
109444.075,80.9633,-906.162,0,0
109704.4,81.2209,-903.304,0,0
109964.725,81.4702,-900.533,0,0
110225.05,81.6808,-897.892,0,0
110485.375,81.858,-895.152,0,0
110745.7,82.03,-892.64,0,0
111006.025,82.042,-889.956,0,0
111266.35,82.0456,-887.383,0,0
111526.675,81.9974,-884.639,0,0
111787.0,82.2097,-881.916,0,0
112047.325,82.3103,-879.265,0,0
112307.65,82.4192,-876.628,0,0
112567.975,82.3387,-873.984,0,0
112828.3,82.4627,-871.323,0,0
113088.625,82.5627,-868.737,0,0
113348.95,82.6151,-866.109,0,0
113609.275,82.6784,-863.571,0,0
113869.6,82.7289,-861.017,0,0
114129.925,82.6678,-858.543,0,0
114390.25,82.6168,-855.901,0,0
114650.575,82.568,-853.3,0,0
114910.9,82.5361,-850.675,0,0
115171.225,82.5595,-848.07,0,0
115431.55,82.5104,-845.613,0,0
115691.875,82.4068,-843.023,0,0
115952.2,82.2627,-840.344,0,0
116212.525,82.1922,-837.663,0,0
116472.85,82.1542,-835.094,0,0
116733.175,81.9688,-832.481,0,0
116993.5,81.77,-829.683,0,0
117253.825,81.76,-826.76,0,0
117514.15,81.8941,-823.912,0,0
117774.475,82.0727,-821.251,0,0
118034.8,82.1749,-818.639,0,0
118295.125,82.2711,-815.992,0,0
118555.45,82.3601,-813.309,0,0
118815.775,82.6616,-810.689,0,0
119076.1,82.8532,-808.198,0,0
119336.425,82.8733,-805.883,0,0
119596.75,82.8045,-803.467,0,0
119857.075,82.6715,-800.964,0,0
120117.4,82.5573,-798.416,0,0
120377.725,82.4398,-795.842,0,0
120638.05,82.3006,-793.122,0,0
120898.375,82.3011,-790.373,0,0
121158.7,82.4101,-787.687,0,0
121419.025,82.4404,-785.108,0,0
121679.35,82.4285,-782.506,0,0
121939.675,82.456,-779.836,0,0
122200.0,82.5266,-777.149,0,0
122460,82.7146,-774.578,0,0
122721,82.7898,-772.116,0,0
122981,82.7367,-769.642,0,0
123241,82.6197,-767.037,0,0
123502,82.5524,-764.336,0,0
123762,82.5319,-761.63,0,0
124022,82.5494,-758.909,0,0
124283,82.6094,-756.136,0,0
124543,82.7469,-753.39,0,0
124803,82.9437,-750.671,0,0
125064,83.1788,-748.023,0,0
125324,83.3711,-745.393,0,0
125584,83.5951,-742.853,0,0
125845,83.7014,-740.315,0,0
126105,83.8268,-737.769,0,0
126365,83.93,-735.138,0,0
126626,84.0526,-732.503,0,0
126886,84.2706,-729.931,0,0
127146,84.5143,-727.282,0,0
127406,84.7413,-724.949,0,0
127667,84.7674,-722.404,0,0
127927,84.8877,-719.86,0,0
128187,85.0003,-717.319,0,0
128448,85.0674,-714.726,0,0
128708,85.1878,-712.192,0,0
128968,85.2834,-709.589,0,0
129229,85.4098,-707.041,0,0
129489,85.4379,-704.468,0,0
129749,85.4493,-701.816,0,0
130010,85.4474,-699.123,0,0
130270,85.5512,-696.263,0,0
130530,85.8669,-693.368,0,0
130791,86.3218,-690.675,0,0
131051,86.7342,-688.158,0,0
131311,87.0344,-685.649,0,0
131572,87.3773,-683.248,0,0
131832,87.4662,-680.984,0,0
132092,87.3826,-678.517,0,0
132353,87.3542,-675.821,0,0
132613,87.3799,-673.084,0,0
132873,87.4783,-670.269,0,0
133134,87.6799,-667.507,0,0
133394,87.8755,-664.793,0,0
133654,88.0163,-662.043,0,0
133915,88.1611,-659.258,0,0
134175,88.3291,-656.353,0,0
134435,88.6185,-653.391,0,0
134696,88.993,-650.471,0,0
134956,89.4498,-647.52,0,0
135216,90.0312,-644.554,0,0
135477,90.7211,-641.772,0,0
135737,91.4366,-639.056,0,0
135997,92.2526,-636.486,0,0
136258,92.9951,-634.195,0,0
136518,93.555,-631.945,0,0
136778,93.9962,-629.776,0,0
137039,94.2025,-627.685,0,0
137299,94.1912,-625.452,0,0
137559,94.0847,-623.055,0,0
137819,93.8772,-620.502,0,0
138080,93.6216,-617.772,0,0
138340.125,93.4617,-614.751,0,0
138600.45,93.4968,-611.603,0,0
138860.775,93.6894,-608.458,0,0
139121.1,94.0164,-605.337,0,0
139381.425,94.4381,-602.369,0,0
139641.75,94.6987,-599.442,0,0
139902.075,94.9431,-596.353,0,0
140162.4,95.3373,-593.233,0,0
140422.725,95.7366,-590.134,0,0
140683.05,96.0819,-587.033,0,0
140943.375,96.4845,-583.778,0,0
141203.7,97.0321,-580.495,0,0
141464.025,97.663,-577.322,0,0
141724.35,98.2544,-574.198,0,0
141984.675,98.7377,-571.051,0,0
142245.0,99.2051,-567.763,0,0
142505.325,99.8348,-564.342,0,0
142765.65,100.554,-560.936,0,0
143025.975,101.292,-557.604,0,0
143286.3,102.007,-554.166,0,0
143546.625,102.791,-550.69,0,0
143806.95,103.593,-547.167,0,0
144067.275,104.523,-543.539,0,0
144327.6,105.528,-539.894,0,0
144587.925,106.525,-536.131,0,0
144848.25,107.76,-532.176,0,0
145108.575,109.328,-528.244,0,0
145368.9,111.09,-524.457,0,0
145629.225,113.044,-520.807,0,0
145889.55,115.054,-517.359,0,0
146149.875,117.059,-514.086,0,0
146410.2,119.013,-510.898,0,0
146670.525,120.944,-507.67,0,0
146930.85,123,-504.481,0,0
147191.175,125.128,-501.374,0,0
147451.5,127.361,-498.513,0,0
147711.825,129.326,-496.069,0,0
147972.15,130.598,-493.36,0,0
148232.475,131.86,-490.036,0,0
148492.8,133.417,-486.35,0,0
148753.125,135.37,-482.494,0,0
149013.45,137.585,-478.624,0,0
149273.775,140.147,-474.651,0,0
149534.1,143.099,-470.781,0,0
149794.425,146.322,-467.081,0,0
150054.75,149.736,-463.511,0,0
150315.075,153.461,-460.007,0,0
150575.4,157.543,-456.779,0,0
150835.725,161.845,-453.859,0,0
151096.05,166.662,-451.107,0,0
151356.375,171.881,-449.292,0,0
151616.7,177.002,-448.334,0,0
151877.025,181.595,-447.867,0,0
152137.35,185.948,-448.012,0,0
152397.675,189.711,-448.778,0,0
152658.0,192.317,-449.573,0,0
152918.325,194.604,-449.789,0,0
153178.65,196.902,-449.944,0,0
153438.975,198.723,-450.12,0,0
153699.3,200.274,-449.92,0,0
153959.625,201.807,-449.411,0,0
154219.95,203.452,-448.975,0,0
154480,204.681,-448.349,0,0
154741,205.946,-447.104,0,0
155001,207.586,-445.391,0,0
155261,209.961,-443.619,0,0
155522,212.927,-442.308,0,0
155782,216.074,-441.477,0,0
156042,219.821,-441.375,0,0
156303,223.336,-442.647,0,0
156563,225.598,-445.489,0,0
156823,225.517,-448.253,0,0
157084,223.703,-449.574,0,0
157344,221.689,-449.078,0,0
157604,220.269,-447.321,0,0
157864,219.483,-444.947,0,0
158125,219.407,-441.997,0,0
158385,220.132,-438.743,0,0
158645,221.704,-435.473,0,0
158906,224.202,-432.764,0,0
159166,227.008,-430.678,0,0
159426,230.102,-429.538,0,0
159687,232.841,-429.373,0,0
159947,234.575,-429.747,0,0
160207,235.395,-429.846,0,0
160468,235.673,-429.509,0,0
160728,235.47,-428.659,0,0
160988,235.131,-426.677,0,0
161249,235.42,-424.162,0,0
161509,236.34,-421.042,0,0
161769,238.21,-418.052,0,0
162030,240.482,-415.312,0,0
162290,243.203,-412.798,0,0
162550,246.433,-410.833,0,0
162811,249.576,-409.604,0,0
163071,252.561,-408.591,0,0
163331,255.687,-407.793,0,0
163592,258.905,-407.447,0,0
163852,261.786,-407.851,0,0
164112,264.077,-408.524,0,0
164373,265.736,-408.909,0,0
164633,267.605,-409.149,0,0
164893,269.602,-409.743,0,0
165154,271.385,-410.674,0,0
165414,273.056,-412.26,0,0
165674,273.551,-414.644,0,0
165935,272.51,-416.606,0,0
166195,270.992,-417.199,0,0
166455,269.572,-417.364,0,0
166716,267.876,-417.379,0,0
166976,265.733,-416.759,0,0
167236,263.705,-415.261,0,0
167497,261.977,-413.326,0,0
167757,260.446,-411.148,0,0
168017,259.062,-408.649,0,0
168277,257.714,-405.874,0,0
168538,256.651,-402.837,0,0
168798,255.736,-399.575,0,0
169058,254.846,-395.99,0,0
169319,254.387,-391.928,0,0
169579,254.439,-387.922,0,0
169839,254.869,-384.075,0,0
170100,255.017,-380.473,0,0
170360.075,255.025,-376.377,0,0
170620.4,255.409,-371.966,0,0
170880.725,256.176,-367.537,0,0
171141.05,256.999,-363.115,0,0
171401.375,257.755,-358.505,0,0
171661.7,258.631,-353.197,0,0
171922.025,260.219,-347.459,0,0
172182.35,262.772,-341.505,0,0
172442.675,266.098,-336.095,0,0
172703.0,269.825,-331.232,0,0
172963.325,273.569,-326.719,0,0
173223.65,277.589,-322.65,0,0
173483.975,281.545,-318.798,0,0
173744.3,285.739,-315.283,0,0
174004.625,289.877,-312.046,0,0
174264.95,293.894,-309.185,0,0
174525.275,297.556,-306.644,0,0
174785.6,300.714,-303.925,0,0
175045.925,303.813,-300.853,0,0
175306.25,307.008,-297.674,0,0
175566.575,310.057,-294.454,0,0
175826.9,312.847,-290.83,0,0
176087.225,315.891,-286.421,0,0
176347.55,319.576,-281.696,0,0
176607.875,323.975,-276.803,0,0
176868.2,329.32,-272.205,0,0
177128.525,335.026,-268.295,0,0
177388.85,340.402,-265.032,0,0
177649.175,345.444,-261.526,0,0
177909.5,350.829,-257.461,0,0
178169.825,356.949,-253.227,0,0
178430.15,363.828,-249.511,0,0
178690.475,371.219,-246.234,0,0
178950.8,378.749,-243.724,0,0
179211.125,386.37,-241.718,0,0
179471.45,393.859,-240.369,0,0
179731.775,400.82,-239.199,0,0
179992.1,407.881,-237.913,0,0
180252.425,415.252,-236.922,0,0
180512.75,422.925,-236.946,0,0
180773.075,429.611,-237.031,0,0
181033.4,436.069,-236.894,0,0
181293.725,442.607,-237.167,0,0
181554.05,448.781,-237.142,0,0
181814.375,455.181,-237.083,0,0
182074.7,461.794,-237.142,0,0
182335.025,468.575,-237.287,0,0
182595.35,475.431,-237.868,0,0
182855.675,482.413,-238.941,0,0
183116.0,488.982,-240.78,0,0
183376.325,494.573,-242.795,0,0
183636.65,499.445,-244.459,0,0
183896.975,504.104,-245.734,0,0
184157.3,508.139,-246.161,0,0
184417.625,512.916,-245.699,0,0
184677.95,518.328,-245.237,0,0
184938.275,523.838,-245.069,0,0
185198.6,529.504,-244.387,0,0
185458.925,535.563,-243.511,0,0
185719.25,542.241,-242.624,0,0
185979.575,549.349,-241.75,0,0
186239.9,557.527,-241.189,0,0
186500,566.014,-241.528,0,0
186761,574.363,-242.597,0,0
187021,582.343,-243.819,0,0
187281,590.453,-245.038,0,0
187542,598.577,-246.232,0,0
187802,607.208,-247.29,0,0
188062,616.687,-248.715,0,0
188322,626.795,-251.133,0,0
188583,636.951,-254.729,0,0
188843,646.794,-259.454,0,0
189103,655.802,-265.379,0,0
189364,663.38,-271.469,0,0
189624,670.025,-276.971,0,0
189884,676.491,-282.025,0,0
190145,682.782,-286.961,0,0
190405,688.582,-291.336,0,0
190665,694.214,-294.81,0,0
190926,701.021,-297.149,0,0
191186,709.472,-299.896,0,0
191446,718.498,-303.669,0,0
191707,727.952,-308.252,0,0
191967,737.364,-314.205,0,0
192227,745.832,-320.81,0,0
192488,753.341,-327.406,0,0
192748,760.005,-333.364,0,0
193008,766.976,-337.219,0,0
193269,776.39,-340.441,0,0
193529,787.766,-344.766,0,0
193789,800.312,-350.373,0,0
194050,814.073,-357.753,0,0
194310,828.336,-367.533,0,0
194570,842.049,-379.76,0,0
194831,854.347,-393.965,0,0
195091,865.017,-409.011,0,0
195351,874.767,-424.176,0,0
195612,884.586,-439.771,0,0
195872,894.384,-456.756,0,0
196132,903.523,-475.901,0,0
196393,910.839,-496.865,0,0
196653,915.752,-518.897,0,0
196913,918.208,-541.261,0,0
197174,918.747,-563.116,0,0
197434,917.826,-584.764,0,0
197694,915.515,-606.49,0,0
197955,911.253,-627.851,0,0
198215,905.253,-648.406,0,0
198475,897.838,-667.899,0,0
198735,889.456,-686.374,0,0
198996,880.18,-703.812,0,0
199256,870.524,-720.028,0,0
199516,860.549,-735.809,0,0
199777,849.668,-751.328,0,0
200037,837.74,-766.62,0,0
200297,824.271,-780.96,0,0
200558,809.621,-793.584,0,0
200818,794.475,-803.982,0,0
201078,779.903,-812.59,0,0
201339,766.283,-820.294,0,0
201599,753.055,-828.258,0,0
201859,739.176,-835.809,0,0
202120,724.828,-842.642,0,0
202380.025,709.5,-848.949,0,0
202640.35,693.603,-853.412,0,0
202900.675,677.521,-855.95,0,0
203161.0,662.554,-856.433,0,0
203421.325,648.706,-856.196,0,0
203681.65,635.58,-855.104,0,0
203941.975,623.545,-853.292,0,0
204202.3,612.436,-851.014,0,0
204462.625,602.168,-848.447,0,0
204722.95,593.213,-846.13,0,0
204983.275,584.172,-844.144,0,0
205243.6,575.485,-842.092,0,0
205503.925,566.814,-839.874,0,0
205764.25,558.113,-837.587,0,0
206024.575,549.444,-834.599,0,0
206284.9,540.923,-830.681,0,0
206545.225,533.166,-825.774,0,0
206805.55,526.739,-820.316,0,0
207065.875,521.46,-814.94,0,0
207326.2,517.333,-809.757,0,0
207586.525,513.928,-805.234,0,0
207846.85,510.89,-801.284,0,0
208107.175,508.118,-797.636,0,0
208367.5,505.473,-794.41,0,0
208627.825,502.945,-791.243,0,0
208888.15,500.685,-788.088,0,0
209148.475,498.766,-785.131,0,0
209408.8,497.019,-782.204,0,0
209669.125,495.741,-779.366,0,0
209929.45,495.029,-776.869,0,0
210189.775,494.589,-774.848,0,0
210450.1,494.202,-773.283,0,0
210710.425,493.868,-772.083,0,0
210970.75,493.466,-771.222,0,0
211231.075,493.131,-770.562,0,0
211491.4,492.874,-769.982,0,0
211751.725,492.921,-769.838,0,0
212012.05,492.761,-770.148,0,0
212272.375,492.595,-770.324,0,0
212532.7,492.595,-771.309,0,0
212793.025,492.18,-772.668,0,0
213053.35,491.479,-774.379,0,0
213313.675,490.281,-776.243,0,0
213574.0,488.636,-778.197,0,0
213834.325,486.749,-780.014,0,0
214094.65,484.511,-781.86,0,0
214354.975,481.923,-783.491,0,0
214615.3,479.254,-784.907,0,0
214875.625,476.323,-786.203,0,0
215135.95,473.348,-787.454,0,0
215396.275,469.932,-788.274,0,0
215656.6,466.488,-788.83,0,0
215916.925,462.939,-788.973,0,0
216177.25,459.542,-788.696,0,0
216437.575,456.267,-788.076,0,0
216697.9,453.245,-787.03,0,0
216958.225,450.668,-785.547,0,0
217218.55,448.775,-783.992,0,0
217478.875,447.399,-782.584,0,0
217739.2,446.471,-781.38,0,0
217999.525,445.846,-780.547,0,0
218259.85,445.537,-780.141,0,0
218520,445.159,-780.27,0,0
218780,444.589,-780.614,0,0
219041,443.82,-781,0,0
219301,443.01,-781.272,0,0
219561,442.403,-781.601,0,0
219822,441.978,-782.087,0,0
220082,441.603,-782.787,0,0
220342,441.343,-783.667,0,0
220603,441.061,-784.848,0,0
220863,440.792,-786.19,0,0
221123,440.375,-787.989,0,0
221384,439.655,-789.955,0,0
221644,438.802,-791.856,0,0
221904,438.019,-793.926,0,0
222165,437.107,-796.215,0,0
222425,436.126,-798.782,0,0
222685,434.866,-801.782,0,0
222946,432.959,-804.81,0,0
223206,430.527,-807.727,0,0
223466,427.909,-810.183,0,0
223727,425.308,-812.507,0,0
223987,422.842,-814.657,0,0
224247,420.47,-816.901,0,0
224508,418.152,-819.168,0,0
224768,415.714,-821.887,0,0
225028,413.187,-824.649,0,0
225289,410.225,-827.64,0,0
225549,406.843,-830.936,0,0
225809,403.037,-834.384,0,0
226070,398.448,-837.356,0,0
226330,393.37,-839.768,0,0
226590,388.309,-841.713,0,0
226851,383.371,-843.329,0,0
227111,378.379,-844.89,0,0
227371,373.21,-846.253,0,0
227632,367.776,-847.415,0,0
227892,362.099,-847.92,0,0
228152,356.632,-847.896,0,0
228413,351.309,-847.242,0,0
228673,346.764,-846.41,0,0
228933,342.57,-845.748,0,0
229193,338.704,-845.182,0,0
229454,334.892,-845.055,0,0
229714,331.065,-844.956,0,0
229974,326.974,-845.201,0,0
230235,322.704,-845.412,0,0
230495,318.164,-845.639,0,0
230755,313.226,-845.518,0,0
231016,308.222,-845.015,0,0
231276,303.385,-844.32,0,0
231536,298.468,-843.476,0,0
231797,293.524,-842.482,0,0
232057,288.573,-841.201,0,0
232317,283.698,-839.675,0,0
232578,278.834,-837.922,0,0
232838,274.239,-835.948,0,0
233098,269.751,-833.877,0,0
233359,265.283,-831.754,0,0
233619,260.914,-829.521,0,0
233879,256.549,-827.063,0,0
234140,252.371,-824.354,0,0
234400,248.301,-821.543,0,0
234660.3,244.296,-818.58,0,0
234920.625,240.537,-815.363,0,0
235180.95,237.037,-811.974,0,0
235441.275,233.804,-808.555,0,0
235701.6,230.859,-805.08,0,0
235961.925,228.18,-801.63,0,0
236222.25,225.597,-798.2,0,0
236482.575,223.28,-794.759,0,0
236742.9,221.092,-791.371,0,0
237003.225,219.132,-787.971,0,0
237263.55,217.337,-784.713,0,0
237523.875,215.685,-781.428,0,0
237784.2,214.191,-778.301,0,0
238044.525,212.857,-775.111,0,0
238304.85,211.677,-772.128,0,0
238565.175,210.632,-769.171,0,0
238825.5,209.771,-766.259,0,0
239085.825,209.253,-763.506,0,0
239346.15,208.931,-761.099,0,0
239606.475,208.644,-759.065,0,0
239866.8,208.249,-757.341,0,0
240127.125,207.717,-755.966,0,0
240387.45,206.924,-754.804,0,0
240647.775,205.903,-753.689,0,0
240908.1,204.727,-752.622,0,0
241168.425,203.286,-751.596,0,0
241428.75,201.55,-750.582,0,0
241689.075,199.671,-749.276,0,0
241949.4,197.64,-747.901,0,0
242209.725,195.503,-746.477,0,0
242470.05,193.404,-744.712,0,0
242730.375,191.222,-742.757,0,0
242990.7,189.165,-740.675,0,0
243251.025,187.163,-738.427,0,0
243511.35,185.284,-736.087,0,0
243771.675,183.452,-733.665,0,0
244032.0,181.7,-731.111,0,0
244292.325,180.093,-728.526,0,0
244552.65,178.616,-725.829,0,0
244812.975,177.428,-723.205,0,0
245073.3,176.155,-720.598,0,0
245333.625,174.927,-718.078,0,0
245593.95,173.734,-715.351,0,0
245854.275,172.7,-712.616,0,0
246114.6,171.828,-709.826,0,0
246374.925,171.121,-707.059,0,0
246635.25,170.663,-704.398,0,0
246895.575,170.274,-701.951,0,0
247155.9,169.949,-699.66,0,0
247416.225,169.527,-697.522,0,0
247676.55,168.964,-695.503,0,0
247936.875,168.312,-693.448,0,0
248197.2,167.546,-691.369,0,0
248457.525,166.723,-689.207,0,0
248717.85,165.878,-686.963,0,0
248978.175,165,-684.477,0,0
249238.5,164.183,-681.946,0,0
249498.825,163.546,-679.25,0,0
249759.15,163.014,-676.513,0,0
250019.475,162.555,-673.642,0,0
250279.8,162.252,-670.774,0,0
250540,162.104,-667.842,0,0
250800,162.144,-664.834,0,0
251061,162.432,-661.823,0,0
251321,162.944,-658.804,0,0
251581,163.722,-655.858,0,0
251842,164.792,-653.073,0,0
252102,166.11,-650.522,0,0
252362,167.613,-648.273,0,0
252623,169.211,-646.362,0,0
252883,170.818,-644.855,0,0
253143,172.235,-643.67,0,0
253404,173.409,-642.75,0,0
253664,174.302,-641.936,0,0
253924,174.977,-641.146,0,0
254185,175.455,-640.384,0,0
254445,175.738,-639.367,0,0
254705,175.927,-638.292,0,0
254966,176.127,-637.047,0,0
255226,176.401,-635.698,0,0
255486,176.66,-634.414,0,0
255747,176.962,-633.018,0,0
256007,177.306,-631.501,0,0
256267,177.805,-630.001,0,0
256528,178.393,-628.524,0,0
256788,179.008,-627.082,0,0
257048,179.66,-625.647,0,0
257309,180.356,-624.18,0,0
257569,181.154,-622.704,0,0
257829,182.104,-621.283,0,0
258090,183.13,-619.992,0,0
258350,184.213,-618.758,0,0
258610,185.328,-617.608,0,0
258871,186.528,-616.525,0,0
259131,187.75,-615.519,0,0
259391,189.007,-614.637,0,0
259651,190.304,-613.891,0,0
259912,191.578,-613.23,0,0
260172,192.88,-612.704,0,0
260432,194.048,-612.264,0,0
260693,195.147,-611.856,0,0
260953,196.239,-611.52,0,0
261213,197.339,-611.212,0,0
261474,198.417,-610.945,0,0
261734,199.513,-610.749,0,0
261994,200.612,-610.614,0,0
262255,201.716,-610.687,0,0
262515,202.619,-610.906,0,0
262775,203.267,-611.133,0,0
263036,203.78,-611.206,0,0
263296,204.335,-611.156,0,0
263556,204.882,-611.129,0,0
263817,205.378,-611.14,0,0
264077,205.77,-611.092,0,0
264337,206.054,-610.839,0,0
264598,206.338,-610.439,0,0
264858,206.857,-609.801,0,0
265118,207.414,-609.075,0,0
265379,208.196,-608.363,0,0
265639,209.161,-607.546,0,0
265899,210.296,-606.722,0,0
266160,211.693,-605.936,0,0
266420,213.365,-605.201,0,0
266680.25,215.283,-604.669,0,0
266940.575,217.437,-604.255,0,0
267200.9,219.809,-604.08,0,0
267461.225,222.404,-604.237,0,0
267721.55,225.178,-604.819,0,0
267981.875,227.911,-605.703,0,0
268242.2,230.746,-606.992,0,0
268502.525,233.515,-608.645,0,0
268762.85,236.381,-610.526,0,0
269023.175,238.967,-613.082,0,0
269283.5,241.325,-616.08,0,0
269543.825,243.252,-619.325,0,0
269804.15,244.959,-622.888,0,0
270064.475,246.327,-626.614,0,0
270324.8,247.369,-630.495,0,0
270585.125,248.067,-634.563,0,0
270845.45,248.496,-638.851,0,0
271105.775,248.454,-643.285,0,0
271366.1,247.993,-647.899,0,0
271626.425,246.979,-652.493,0,0
271886.75,245.565,-656.967,0,0
272147.075,243.746,-661.429,0,0
272407.4,241.399,-665.744,0,0
272667.725,238.642,-669.871,0,0
272928.05,235.585,-673.78,0,0
273188.375,232.124,-677.46,0,0
273448.7,228.293,-680.91,0,0
273709.025,224.151,-683.966,0,0
273969.35,219.72,-686.689,0,0
274229.675,214.93,-688.987,0,0
274490.0,210.169,-690.711,0,0
274750.325,205.098,-692.044,0,0
275010.65,200.058,-692.873,0,0
275270.975,195.032,-693.171,0,0
275531.3,190.153,-692.99,0,0
275791.625,185.511,-692.369,0,0
276051.95,181.205,-691.472,0,0
276312.275,177.166,-690.371,0,0
276572.6,173.404,-689.113,0,0
276832.925,169.848,-687.822,0,0
277093.25,166.434,-686.437,0,0
277353.575,163.137,-684.968,0,0
277613.9,159.988,-683.419,0,0
277874.225,156.976,-681.792,0,0
278134.55,154.095,-680.036,0,0
278394.875,151.33,-678.251,0,0
278655.2,148.604,-676.405,0,0
278915.525,145.964,-674.43,0,0
279175.85,143.484,-672.322,0,0
279436.175,141.142,-670.033,0,0
279696.5,138.989,-667.641,0,0
279956.825,137.135,-665.16,0,0
280217.15,135.55,-662.671,0,0
280477.475,134.139,-660.25,0,0
280737.8,132.967,-657.865,0,0
280998.125,131.986,-655.573,0,0
281258.45,131.111,-653.378,0,0
281518.775,130.38,-651.286,0,0
281779.1,129.766,-649.24,0,0
282039.425,129.283,-647.29,0,0
282299.75,128.938,-645.463,0,0
282560,128.745,-643.841,0,0
282820,128.537,-642.418,0,0
283081,128.271,-641.172,0,0
283341,127.898,-640.034,0,0
283601,127.408,-638.916,0,0
283862,126.856,-637.781,0,0
284122,126.267,-636.551,0,0
284382,125.743,-635.291,0,0
284643,125.215,-633.991,0,0
284903,124.756,-632.632,0,0
285163,124.431,-631.179,0,0
285424,124.299,-629.661,0,0
285684,124.407,-628.216,0,0
285944,124.692,-626.94,0,0
286205,125.142,-625.85,0,0
286465,125.75,-624.976,0,0
286725,126.44,-624.367,0,0
286986,127.156,-624.081,0,0
287246,127.812,-624.113,0,0
287506,128.333,-624.476,0,0
287767,128.653,-625.142,0,0
288027,128.61,-626.052,0,0
288287,128.2,-627.05,0,0
288548,127.411,-628.05,0,0
288808,126.295,-628.944,0,0
289068,124.941,-629.682,0,0
289329,123.369,-630.226,0,0
289589,121.682,-630.575,0,0
289849,119.874,-630.726,0,0
290109,117.994,-630.616,0,0
290370,116.169,-630.31,0,0
290630,114.414,-629.843,0,0
290890,112.801,-629.336,0,0
291151,111.231,-628.792,0,0
291411,109.667,-628.286,0,0
291671,108.061,-627.769,0,0
291932,106.402,-627.154,0,0
292192,104.698,-626.51,0,0
292452,102.951,-625.756,0,0
292713,101.196,-624.872,0,0
292973,99.4649,-623.878,0,0
293233,97.7987,-622.817,0,0
293494,96.1764,-621.643,0,0
293754,94.6209,-620.415,0,0
294014,93.0982,-619.179,0,0
294275,91.6204,-617.844,0,0
294535,90.1709,-616.492,0,0
294795,88.7954,-615.086,0,0
295056,87.4533,-613.617,0,0
295316,86.177,-612.103,0,0
295576,84.9554,-610.54,0,0
295837,83.8166,-608.937,0,0
296097,82.8089,-607.327,0,0
296357,81.8323,-605.71,0,0
296618,80.9412,-604.12,0,0
296878,80.0887,-602.564,0,0
297138,79.2731,-601.008,0,0
297399,78.4846,-599.476,0,0
297659,77.7204,-597.94,0,0
297919,76.962,-596.394,0,0
298180,76.2518,-594.839,0,0
298440,75.5777,-593.277,0,0
298700.2,74.9322,-591.707,0,0
298960.525,74.3454,-590.143,0,0
299220.85,73.7686,-588.564,0,0
299481.175,73.2324,-586.98,0,0
299741.5,72.7312,-585.386,0,0
300001.825,72.2763,-583.769,0,0
300262.15,71.8884,-582.146,0,0
300522.475,71.5442,-580.521,0,0
300782.8,71.2627,-578.892,0,0
301043.125,71.0706,-577.283,0,0
301303.45,70.9457,-575.685,0,0
301563.775,70.8987,-574.131,0,0
301824.1,70.9185,-572.649,0,0
302084.425,70.9687,-571.216,0,0
302344.75,71.0861,-569.868,0,0
302605.075,71.1957,-568.536,0,0
302865.4,71.3183,-567.313,0,0
303125.725,71.4489,-566.117,0,0
303386.05,71.5752,-564.968,0,0
303646.375,71.6958,-563.862,0,0
303906.7,71.8391,-562.782,0,0
304167.025,71.9518,-561.741,0,0
304427.35,72.087,-560.719,0,0
304687.675,72.2126,-559.711,0,0
304948.0,72.3812,-558.712,0,0
305208.325,72.5348,-557.77,0,0
305468.65,72.7209,-556.866,0,0
305728.975,72.9285,-556.01,0,0
305989.3,73.1103,-555.192,0,0
306249.625,73.3143,-554.433,0,0
306509.95,73.4849,-553.71,0,0
306770.275,73.6488,-553.008,0,0
307030.6,73.783,-552.37,0,0
307290.925,73.9083,-551.712,0,0
307551.25,74.0163,-551.103,0,0
307811.575,74.1485,-550.528,0,0
308071.9,74.2815,-549.977,0,0
308332.225,74.4137,-549.501,0,0
308592.55,74.5084,-549.122,0,0
308852.875,74.529,-548.801,0,0
309113.2,74.479,-548.534,0,0
309373.525,74.298,-548.263,0,0
309633.85,74.037,-547.971,0,0
309894.175,73.7259,-547.614,0,0
310154.5,73.3714,-547.199,0,0
310414.825,73.0225,-546.718,0,0
310675.15,72.6799,-546.247,0,0
310935.475,72.3234,-545.713,0,0
311195.8,71.9884,-545.217,0,0
311456.125,71.626,-544.697,0,0
311716.45,71.2809,-544.169,0,0
311976.775,70.9215,-543.649,0,0
312237.1,70.5534,-543.133,0,0
312497.425,70.1534,-542.599,0,0
312757.75,69.7493,-542.053,0,0
313018.075,69.3426,-541.515,0,0
313278.4,68.9148,-540.962,0,0
313538.725,68.4541,-540.404,0,0
313799.05,67.9767,-539.822,0,0
314059.375,67.4785,-539.202,0,0
314319.7,66.9873,-538.548,0,0
314580,66.4908,-537.827,0,0
314840,66.0057,-537.139,0,0
315101,65.4761,-536.415,0,0
315361,65.0077,-535.622,0,0
315621,64.598,-534.818,0,0
315882,64.1225,-533.994,0,0
316142,63.7691,-533.178,0,0
316402,63.3386,-532.392,0,0
316663,63.0306,-531.483,0,0
316923,62.7078,-530.598,0,0
317183,62.4016,-529.712,0,0
317444,62.1748,-528.915,0,0
317704,62.0184,-528.048,0,0
317964,61.8291,-527.235,0,0
318225,61.6028,-526.444,0,0
318485,61.4484,-525.684,0,0
318745,61.3111,-524.894,0,0
319006,61.139,-524.185,0,0
319266,61.0372,-523.417,0,0
319526,60.9005,-522.678,0,0
319787,60.8179,-522.047,0,0
320047,60.7502,-521.301,0,0
320307,60.6934,-520.757,0,0
320567,60.5548,-520.177,0,0
320828,60.4586,-519.654,0,0
321088,60.3152,-519.135,0,0
321348,60.0948,-518.659,0,0
321609,59.7816,-518.147,0,0
321869,59.5404,-517.707,0,0
322129,59.2725,-517.176,0,0
322390,59.0209,-516.655,0,0
322650,58.755,-516.104,0,0
322910,58.4622,-515.548,0,0
323171,58.1784,-515.085,0,0
323431,57.7885,-514.559,0,0
323691,57.5291,-514.09,0,0
323952,57.1119,-513.594,0,0
324212,56.6936,-513.06,0,0
324472,56.2264,-512.527,0,0
324733,55.7324,-512.028,0,0
324993,55.2814,-511.474,0,0
325253,54.7296,-510.811,0,0
325514,54.2184,-510.131,0,0
325774,53.7613,-509.457,0,0
326034,53.282,-508.688,0,0
326295,52.7401,-507.964,0,0
326555,52.2802,-507.151,0,0
326815,51.8906,-506.395,0,0
327076,51.5599,-505.651,0,0
327336,51.155,-504.846,0,0
327596,50.7821,-504.068,0,0
327857,50.4043,-503.303,0,0
328117,50.0561,-502.458,0,0
328377,49.7113,-501.671,0,0
328638,49.3836,-500.899,0,0
328898,49.0573,-500.097,0,0
329158,48.6689,-499.327,0,0
329419,48.3398,-498.483,0,0
329679,48.0255,-497.73,0,0
329939,47.6608,-496.857,0,0
330200,47.3826,-496.045,0,0
330460,47.0657,-495.183,0,0
330720.15,46.7052,-494.341,0,0
330980.475,46.4232,-493.475,0,0
331240.8,46.1625,-492.653,0,0
331501.125,45.879,-491.732,0,0
331761.45,45.6389,-490.882,0,0
332021.775,45.3757,-489.992,0,0
332282.1,45.1647,-489.106,0,0
332542.425,44.9194,-488.152,0,0
332802.75,44.7163,-487.26,0,0
333063.075,44.5476,-486.292,0,0
333323.4,44.4408,-485.427,0,0
333583.725,44.2778,-484.452,0,0
333844.05,44.1716,-483.579,0,0
334104.375,44.1464,-482.721,0,0
334364.7,44.0727,-481.832,0,0
334625.025,44.0551,-480.953,0,0
334885.35,43.975,-480.056,0,0
335145.675,44.0172,-479.272,0,0
335406.0,44.0818,-478.48,0,0
335666.325,44.0881,-477.677,0,0
335926.65,44.1024,-476.949,0,0
336186.975,44.1647,-476.148,0,0
336447.3,44.1464,-475.48,0,0
336707.625,44.1694,-474.788,0,0
336967.95,44.1665,-474.074,0,0
337228.275,44.1571,-473.448,0,0
337488.6,44.1089,-472.825,0,0
337748.925,44.1207,-472.158,0,0
338009.25,44.1518,-471.545,0,0
338269.575,44.075,-470.985,0,0
338529.9,44.0239,-470.316,0,0
338790.225,43.9915,-469.763,0,0
339050.55,43.8688,-469.199,0,0
339310.875,43.841,-468.526,0,0
339571.2,43.689,-467.935,0,0
339831.525,43.6187,-467.297,0,0
340091.85,43.4981,-466.713,0,0
340352.175,43.3376,-466.061,0,0
340612.5,43.2567,-465.443,0,0
340872.825,43.0778,-464.896,0,0
341133.15,42.9237,-464.244,0,0
341393.475,42.7383,-463.626,0,0
341653.8,42.5793,-462.96,0,0
341914.125,42.3888,-462.309,0,0
342174.45,42.2392,-461.627,0,0
342434.775,42.0946,-460.918,0,0
342695.1,41.9154,-460.259,0,0
342955.425,41.7946,-459.581,0,0
343215.75,41.6227,-458.885,0,0
343476.075,41.4473,-458.117,0,0
343736.4,41.3371,-457.395,0,0
343996.725,41.2274,-456.676,0,0
344257.05,41.1376,-455.939,0,0
344517.375,41.0003,-455.223,0,0
344777.7,40.886,-454.484,0,0
345038.025,40.7613,-453.712,0,0
345298.35,40.7348,-452.998,0,0
345558.675,40.6339,-452.24,0,0
345819.0,40.5629,-451.501,0,0
346079.325,40.5197,-450.728,0,0
346339.65,40.4408,-449.95,0,0
346599.975,40.4234,-449.2,0,0
346860,40.4365,-448.446,0,0
347121,40.4184,-447.692,0,0
347381,40.4744,-446.905,0,0
347641,40.443,-446.18,0,0
347902,40.4917,-445.495,0,0
348162,40.5192,-444.752,0,0
348422,40.5719,-444.024,0,0
348683,40.5855,-443.302,0,0
348943,40.6613,-442.579,0,0
349203,40.7469,-441.973,0,0
349464,40.8106,-441.241,0,0
349724,40.8621,-440.591,0,0
349984,40.9662,-439.901,0,0
350245,41.0291,-439.252,0,0
350505,41.109,-438.589,0,0
350765,41.1899,-437.969,0,0
351025,41.317,-437.358,0,0
351286,41.3783,-436.745,0,0
351546,41.4946,-436.089,0,0
351806,41.5769,-435.543,0,0
352067,41.6595,-434.926,0,0
352327,41.7257,-434.354,0,0
352587,41.7792,-433.727,0,0
352848,41.8496,-433.171,0,0
353108,41.9667,-432.566,0,0
353368,42.0303,-431.989,0,0
353629,42.1396,-431.437,0,0
353889,42.2515,-430.884,0,0
354149,42.3347,-430.364,0,0
354410,42.48,-429.859,0,0
354670,42.5286,-429.294,0,0
354930,42.6753,-428.823,0,0
355191,42.6771,-428.28,0,0
355451,42.7284,-427.772,0,0
355711,42.8232,-427.327,0,0
355972,42.8826,-426.817,0,0
356232,42.9203,-426.317,0,0
356492,42.96,-425.908,0,0
356753,42.9891,-425.464,0,0
357013,42.9744,-424.965,0,0
357273,42.9506,-424.508,0,0
357534,42.9209,-424.067,0,0
357794,42.8986,-423.576,0,0
358054,42.8516,-423.066,0,0
358315,42.8189,-422.559,0,0
358575,42.7685,-422.081,0,0
358835,42.7133,-421.566,0,0
359096,42.6256,-421.008,0,0
359356,42.5983,-420.467,0,0
359616,42.5726,-419.907,0,0
359877,42.5602,-419.309,0,0
360137,42.5116,-418.746,0,0
360397,42.5167,-418.178,0,0
360658,42.4435,-417.654,0,0
360918,42.4652,-417.064,0,0
361178,42.4763,-416.516,0,0
361438,42.448,-415.918,0,0
361699,42.4438,-415.338,0,0
361959,42.424,-414.799,0,0
362219,42.4394,-414.203,0,0
362480,42.4813,-413.58,0,0
362740.1,42.4731,-413.014,0,0
363000.425,42.4595,-412.416,0,0
363260.75,42.5109,-411.788,0,0
363521.075,42.549,-411.21,0,0
363781.4,42.5962,-410.59,0,0
364041.725,42.6827,-409.984,0,0
364302.05,42.698,-409.417,0,0
364562.375,42.7816,-408.792,0,0
364822.7,42.882,-408.178,0,0
365083.025,43.0139,-407.568,0,0
365343.35,43.1699,-407.025,0,0
365603.675,43.3126,-406.442,0,0
365864.0,43.4444,-405.918,0,0
366124.325,43.6057,-405.399,0,0
366384.65,43.7489,-404.88,0,0
366644.975,43.8554,-404.414,0,0
366905.3,43.9941,-403.891,0,0
367165.625,44.0851,-403.421,0,0
367425.95,44.2165,-402.972,0,0
367686.275,44.2766,-402.445,0,0
367946.6,44.3319,-401.955,0,0
368206.925,44.4242,-401.413,0,0
368467.25,44.4937,-400.902,0,0
368727.575,44.5946,-400.349,0,0
368987.9,44.7099,-399.811,0,0
369248.225,44.8354,-399.246,0,0
369508.55,45.0111,-398.668,0,0
369768.875,45.1809,-398.146,0,0
370029.2,45.3963,-397.617,0,0
370289.525,45.6653,-397.119,0,0
370549.85,45.9227,-396.653,0,0
370810.175,46.1471,-396.2,0,0
371070.5,46.3963,-395.788,0,0
371330.825,46.6793,-395.414,0,0
371591.15,46.883,-395.089,0,0
371851.475,47.0563,-394.777,0,0
372111.8,47.2609,-394.41,0,0
372372.125,47.4457,-394.11,0,0
372632.45,47.5957,-393.805,0,0
372892.775,47.7296,-393.543,0,0
373153.1,47.8584,-393.253,0,0
373413.425,48.0051,-392.979,0,0
373673.75,48.0703,-392.71,0,0
373934.075,48.1217,-392.428,0,0
374194.4,48.1536,-392.111,0,0
374454.725,48.2108,-391.811,0,0
374715.05,48.2763,-391.514,0,0
374975.375,48.278,-391.154,0,0
375235.7,48.3051,-390.839,0,0
375496.025,48.335,-390.536,0,0
375756.35,48.3539,-390.137,0,0
376016.675,48.4075,-389.82,0,0
376277.0,48.4654,-389.407,0,0
376537.325,48.5493,-389.077,0,0
376797.65,48.6435,-388.724,0,0
377057.975,48.7034,-388.428,0,0
377318.3,48.8068,-388.138,0,0
377578.625,48.8803,-387.886,0,0
377838.95,48.9325,-387.616,0,0
378099.275,48.9611,-387.391,0,0
378359.6,48.9423,-387.17,0,0
378619.925,48.9116,-386.957,0,0
378880,48.7957,-386.714,0,0
379141,48.6418,-386.425,0,0
379401,48.5306,-386.064,0,0
379661,48.3801,-385.666,0,0
379922,48.2834,-385.19,0,0
380182,48.2519,-384.676,0,0
380442,48.3336,-384.196,0,0
380703,48.4133,-383.718,0,0
380963,48.5798,-383.284,0,0
381223,48.7784,-382.975,0,0
381483,48.9872,-382.718,0,0
381744,49.14,-382.55,0,0
382004,49.2396,-382.426,0,0
382264,49.221,-382.339,0,0
382525,49.1959,-382.259,0,0
382785,49.0725,-382.174,0,0
383045,48.9256,-382.036,0,0
383306,48.7236,-381.927,0,0
383566,48.4701,-381.726,0,0
383826,48.1973,-381.487,0,0
384087,47.9033,-381.215,0,0
384347,47.6292,-380.899,0,0
384607,47.2881,-380.548,0,0
384868,46.99,-380.175,0,0
385128,46.7437,-379.742,0,0
385388,46.4282,-379.27,0,0
385649,46.2114,-378.829,0,0
385909,45.9207,-378.36,0,0
386169,45.6926,-377.759,0,0
386430,45.4736,-377.301,0,0
386690,45.2765,-376.764,0,0
386950,45.0786,-376.214,0,0
387211,44.8965,-375.639,0,0
387471,44.7476,-375.06,0,0
387731,44.5752,-374.441,0,0
387992,44.512,-373.859,0,0
388252,44.3987,-373.268,0,0
388512,44.3426,-372.663,0,0
388773,44.2532,-372.062,0,0
389033,44.2407,-371.438,0,0
389293,44.2246,-370.857,0,0
389554,44.2439,-370.312,0,0
389814,44.2528,-369.751,0,0
390074,44.2719,-369.168,0,0
390335,44.314,-368.658,0,0
390595,44.3103,-368.185,0,0
390855,44.353,-367.663,0,0
391116,44.3708,-367.168,0,0
391376,44.3771,-366.678,0,0
391636,44.3905,-366.186,0,0
391896,44.3901,-365.692,0,0
392157,44.3538,-365.149,0,0
392417,44.3768,-364.648,0,0
392677,44.3424,-364.174,0,0
392938,44.338,-363.677,0,0
393198,44.3281,-363.17,0,0
393458,44.335,-362.673,0,0
393719,44.3521,-362.151,0,0
393979,44.3454,-361.632,0,0
394239,44.3606,-361.1,0,0
394500,44.3964,-360.583,0,0
394760.05,44.3899,-360.064,0,0
395020.375,44.4403,-359.498,0,0
395280.7,44.4807,-358.975,0,0
395541.025,44.5182,-358.437,0,0
395801.35,44.5905,-357.924,0,0
396061.675,44.6941,-357.397,0,0
396322.0,44.7485,-356.871,0,0
396582.325,44.8572,-356.42,0,0
396842.65,44.9212,-355.947,0,0
397102.975,45.0427,-355.455,0,0
397363.3,45.1138,-355.017,0,0
397623.625,45.1769,-354.599,0,0
397883.95,45.219,-354.123,0,0
398144.275,45.3035,-353.7,0,0
398404.6,45.328,-353.243,0,0
398664.925,45.3527,-352.801,0,0
398925.25,45.3683,-352.35,0,0
399185.575,45.3775,-351.914,0,0
399445.9,45.3997,-351.451,0,0
399706.225,45.4107,-350.962,0,0
399966.55,45.4218,-350.491,0,0
400006.6,45.4218,-350.415,0,0