File: Accelerated corrosion test data/2025-10-09_18-00-04/sample_2.csv
Frequency (Hz),Impedance (ohms),Phase (Radians),Temperature (C),Humidity (%)
10000.0,235.311,-11390,0,0
10260.325,229.361,-11104.6,0,0
10520.65,223.917,-10832.4,0,0
10780.975,219.363,-10572.7,0,0
11041.3,213.638,-10325.2,0,0
11301.625,208.871,-10088.7,0,0
11561.95,205.317,-9862.23,0,0
11822.275,203.092,-9653.06,0,0
12082.6,198.876,-9444.5,0,0
12342.925,192.258,-9248.31,0,0
12603.25,187.879,-9057.59,0,0
12863.575,184.472,-8874.49,0,0
13123.9,181.993,-8702.16,0,0
13384.225,177.702,-8531.95,0,0
13644.55,175.686,-8367.38,0,0
13904.875,189.493,-8214.99,0,0
14165.2,169.407,-8069.91,0,0
14425.525,165.2,-7922.15,0,0
14685.8,167.403,-7775.43,0,0
14946.175,163.737,-7647.65,0,0
15206.5,168.629,-7525.37,0,0
15466.825,165.294,-7391.14,0,0
15727.15,154.911,-7279.84,0,0
15987.5,151.504,-7158.26,0,0
16247.8,151.681,-7044.05,0,0
16508.125,146.351,-6934.62,0,0
16768.45,144.127,-6826.91,0,0
17028.775,142.553,-6722.97,0,0
17289.1,141.076,-6622.7,0,0
17549.425,137.271,-6524.43,0,0
17809.75,136.09,-6428.87,0,0
18070.075,133.962,-6336.44,0,0
18330.4,132.338,-6245.66,0,0
18590.725,130.938,-6157.69,0,0
18851.05,129.685,-6072.47,0,0
19111.375,131.063,-5990.87,0,0
19371.7,130.75,-5913.22,0,0
19632.025,125.628,-5835.84,0,0
19892.35,122.837,-5758.29,0,0
20152.675,121.219,-5682.87,0,0
20413.0,120.615,-5609.06,0,0
20673.3,119.665,-5536.74,0,0
20933.65,120.242,-5465.49,0,0
21193.975,125.032,-5398.5,0,0
21454.3,131.713,-5335.87,0,0
21714.625,128.91,-5280.49,0,0
21974.9,123.228,-5216.08,0,0
22235.275,120.688,-5161.84,0,0
22495.6,116.964,-5101.92,0,0
22755.925,113.5,-5040.92,0,0
23016.25,113.897,-4985.61,0,0
23276.6,114.332,-4930.98,0,0
23536.9,110.545,-4876.68,0,0
23797.225,108.691,-4822.47,0,0
24057.55,108.308,-4771.44,0,0
24317.875,105.064,-4720.66,0,0
24578.2,103.028,-4670.09,0,0
24838.525,101.746,-4620.23,0,0
25098.85,100.72,-4571.33,0,0
25359.175,99.6384,-4523.84,0,0
25619.5,99.0747,-4477.88,0,0
25879.8,97.7043,-4432.46,0,0
26140.1,97.8167,-4387.71,0,0
26400.5,97.0896,-4344.28,0,0
26660.8,97.9172,-4302.23,0,0
26921.1,96.1632,-4260.78,0,0
27181.4,95.357,-4221.24,0,0
27441.8,93.3332,-4180.56,0,0
27702.1,91.9316,-4140.62,0,0
27962.4,91.2051,-4100.54,0,0
28222.7,91.7931,-4062.04,0,0
28483.1,91.1866,-4024.59,0,0
28743.4,90.1734,-3987.26,0,0
29003.7,91.6071,-3949.62,0,0
29264,91.5634,-3914.47,0,0
29524.4,94.3384,-3878.95,0,0
29784.7,97.4558,-3849.69,0,0
30045,93.5891,-3817.97,0,0
30305.3,95.2087,-3785.15,0,0
30565.7,91.9098,-3757.45,0,0
30826,88.8967,-3724.68,0,0
31086.3,88.0698,-3693.01,0,0
31346.6,85.9585,-3662.12,0,0
31607,86.4098,-3631.23,0,0
31867.3,84.3411,-3602.03,0,0
32127.6,83.1767,-3571.31,0,0
32387.9,83.2291,-3541.29,0,0
32648.3,84.1381,-3513.45,0,0
32908.6,83.6897,-3487.23,0,0
33168.9,82.9322,-3460.44,0,0
33429.2,80.7372,-3433.34,0,0
33689.6,80.6785,-3406.54,0,0
33949.9,79.9706,-3380.77,0,0
34210.2,78.1919,-3354.84,0,0
34470.5,77.3114,-3328.72,0,0
34730.9,76.7339,-3303.11,0,0
34991.2,76.1555,-3278.05,0,0
35251.5,75.6904,-3253.53,0,0
35511.8,75.2914,-3229.18,0,0
35772.2,74.8487,-3205.5,0,0
36032.5,74.0343,-3182.29,0,0
36292.8,73.5599,-3158.7,0,0
36553.1,73.0716,-3135.96,0,0
36813.5,72.7203,-3113.53,0,0
37073.8,72.1252,-3090.88,0,0
37334.1,71.9525,-3068.99,0,0
37594.4,71.6396,-3047.84,0,0
37854.8,71.0735,-3026.44,0,0
38115.1,70.8209,-3005.58,0,0
38375.4,70.1166,-2984.69,0,0
38635.7,69.522,-2964.04,0,0
38896.1,69.3133,-2944.18,0,0
39156.4,69.0729,-2924.39,0,0
39416.7,68.734,-2904.14,0,0
39677,68.2802,-2885.13,0,0
39937.4,67.7883,-2865.76,0,0
40197.7,67.4925,-2846.77,0,0
40458,66.9285,-2827.99,0,0
40718.3,66.8698,-2809.15,0,0
40978.7,66.687,-2791.17,0,0
41239,66.3233,-2773.13,0,0
41499.3,66.4486,-2755.39,0,0
41759.6,65.8244,-2738.03,0,0
42020,65.7833,-2720.4,0,0
42280.275,65.8201,-2703.71,0,0
42540.6,65.1375,-2687.01,0,0
42800.925,64.7953,-2670.2,0,0
43061.25,64.4812,-2653.55,0,0
43321.575,64.3649,-2637.11,0,0
43581.9,64.0591,-2621.09,0,0
43842.225,63.7338,-2604.85,0,0
44102.55,63.541,-2589.03,0,0
44362.875,63.4495,-2573.68,0,0
44623.2,63.0517,-2558.38,0,0
44883.525,62.599,-2543.11,0,0
45143.85,62.7009,-2527.74,0,0
45404.175,62.6372,-2512.97,0,0
45664.5,62.3,-2498.26,0,0
45924.825,62.1852,-2483.45,0,0
46185.15,62.5186,-2469.59,0,0
46445.475,62.0507,-2455.55,0,0
46705.8,61.3906,-2441.19,0,0
46966.125,61.1961,-2427.05,0,0
47226.45,61.4472,-2413.03,0,0
47486.775,61.729,-2399.69,0,0
47747.1,61.1182,-2386.39,0,0
48007.425,60.9481,-2372.77,0,0
48267.75,61.7696,-2359.15,0,0
48528.075,62.2268,-2347.37,0,0
48788.4,61.7066,-2334.98,0,0
49048.725,61.1916,-2322.54,0,0
49309.05,60.6532,-2310.16,0,0
49569.375,59.877,-2297.81,0,0
49829.7,59.3749,-2285.41,0,0
50090.025,59.029,-2273.08,0,0
50350.35,58.392,-2260.82,0,0
50610.675,58.2848,-2248.51,0,0
50871.0,58.2746,-2236.39,0,0
51131.325,58.2065,-2224.99,0,0
51391.65,57.6953,-2213.37,0,0
51651.975,57.1018,-2201.75,0,0
51912.3,56.8164,-2190.13,0,0
52172.625,56.4631,-2178.71,0,0
52432.95,56.1994,-2167.17,0,0
52693.275,55.8438,-2155.97,0,0
52953.6,55.7281,-2144.69,0,0
53213.925,55.5484,-2133.56,0,0
53474.25,55.3146,-2122.67,0,0
53734.575,55.2755,-2111.79,0,0
53994.9,54.9384,-2100.93,0,0
54255.225,54.7818,-2090.19,0,0
54515.55,54.9421,-2079.58,0,0
54775.875,54.7796,-2069.29,0,0
55036.2,54.5604,-2058.96,0,0
55296.525,54.5074,-2048.61,0,0
55556.85,54.4859,-2038.29,0,0
55817.175,54.5362,-2028.24,0,0
56077.5,54.4396,-2018.29,0,0
56337.825,54.3545,-2008.36,0,0
56598.15,54.3145,-1998.5,0,0
56858.475,54.284,-1988.8,0,0
57118.8,54.3809,-1979.15,0,0
57379.125,54.3542,-1969.59,0,0
57639.45,54.4905,-1960.14,0,0
57899.775,54.5645,-1950.7,0,0
58160.1,54.6048,-1941.53,0,0
58420.4,54.4442,-1932.32,0,0
58680.7,54.4703,-1923.05,0,0
58941.1,54.6693,-1913.72,0,0
59201.4,54.8752,-1904.84,0,0
59461.7,55.0445,-1895.7,0,0
59722,55.2813,-1886.72,0,0
59982.4,55.9845,-1877.91,0,0
60242.7,56.6925,-1869.83,0,0
60503,56.7954,-1861.79,0,0
60763.3,56.6629,-1853.45,0,0
61023.7,57.0228,-1844.77,0,0
61284,57.8311,-1836.68,0,0
61544.3,58.515,-1829.03,0,0
61804.6,59.261,-1821.73,0,0
62065,59.1741,-1815.13,0,0
62325.3,58.3611,-1807.85,0,0
62585.6,58.3006,-1800.3,0,0
62845.9,57.9696,-1793.09,0,0
63106.3,57.323,-1786.36,0,0
63366.6,56.0258,-1778.81,0,0
63626.9,55.4184,-1771.06,0,0
63887.2,54.8025,-1763.31,0,0
64147.6,54.3046,-1755.69,0,0
64407.9,53.6189,-1748.14,0,0
64668.2,53.3015,-1740.31,0,0
64928.5,52.8079,-1733.11,0,0
65188.9,51.7743,-1725.51,0,0
65449.2,50.9922,-1717.34,0,0
65709.5,50.8681,-1709.21,0,0
65969.8,51.0892,-1701.31,0,0
66230.2,51.1408,-1693.86,0,0
66490.5,51.369,-1686.22,0,0
66750.8,51.475,-1679.19,0,0
67011.1,51.3342,-1671.66,0,0
67271.5,51.681,-1664.05,0,0
67531.8,52.303,-1656.91,0,0
67792.1,52.8545,-1649.97,0,0
68052.4,53.4823,-1643.25,0,0
68312.8,53.9118,-1636.98,0,0
68573.1,53.9045,-1630.39,0,0
68833.4,54.3376,-1623.64,0,0
69093.7,55.1769,-1617.26,0,0
69354.1,55.5323,-1611.6,0,0
69614.4,55.7315,-1605.45,0,0
69874.7,56.3608,-1600.14,0,0
70135,56.0993,-1594.92,0,0
70395.4,55.6666,-1589.49,0,0
70655.7,54.6653,-1584.25,0,0
70916,53.5567,-1578.18,0,0
71176.3,52.9751,-1572.06,0,0
71436.7,52.2954,-1565.99,0,0
71697,51.7207,-1560.12,0,0
71957.3,50.6068,-1554.5,0,0
72217.6,49.2331,-1548.28,0,0
72478,48.2805,-1541.55,0,0
72738.3,47.5509,-1534.96,0,0
72998.6,46.9436,-1528.21,0,0
73258.9,46.7184,-1521.83,0,0
73519.3,46.1379,-1515.46,0,0
73779.6,45.7088,-1508.93,0,0
74039.9,45.4323,-1502.19,0,0
74300.225,45.4384,-1495.64,0,0
74560.55,45.5222,-1489.31,0,0
74820.875,45.4971,-1483,0,0
75081.2,45.6276,-1476.65,0,0
75341.525,45.8364,-1470.44,0,0
75601.85,46.0867,-1464.29,0,0
75862.175,46.437,-1458.14,0,0
76122.5,46.8486,-1452.23,0,0
76382.825,47.3158,-1446.33,0,0
76643.15,47.6814,-1440.54,0,0
76903.475,48.1262,-1434.82,0,0
77163.8,48.6826,-1429.15,0,0
77424.125,49.3501,-1423.49,0,0
77684.45,50.0602,-1418.2,0,0
77944.775,50.8076,-1412.78,0,0
78205.1,51.6487,-1407.71,0,0
78465.425,52.3671,-1402.98,0,0
78725.75,52.8591,-1398.45,0,0
78986.075,53.3975,-1393.9,0,0
79246.4,53.6957,-1389.58,0,0
79506.725,53.7235,-1385.34,0,0
79767.05,53.5322,-1381.18,0,0
80027.375,52.9791,-1377.05,0,0
80287.7,52.1827,-1372.48,0,0
80548.025,51.5201,-1367.59,0,0
80808.35,50.8719,-1362.66,0,0
81068.675,50.4248,-1357.58,0,0
81329.0,49.9463,-1352.54,0,0
81589.325,49.6702,-1347.44,0,0
81849.65,49.2899,-1342.41,0,0
82109.975,48.9099,-1337.26,0,0
82370.3,48.7763,-1332.12,0,0
82630.625,48.5518,-1327.05,0,0
82890.95,48.4917,-1321.82,0,0
83151.275,48.5197,-1316.72,0,0
83411.6,48.6704,-1311.67,0,0
83671.925,48.8642,-1306.73,0,0
83932.25,49.0937,-1301.85,0,0
84192.575,49.248,-1297.08,0,0
84452.9,49.4151,-1292.36,0,0
84713.225,49.555,-1287.77,0,0
84973.55,49.6234,-1283.06,0,0
85233.875,49.781,-1278.36,0,0
85494.2,50.0113,-1273.62,0,0
85754.525,50.395,-1269.12,0,0
86014.85,50.6856,-1264.73,0,0
86275.175,50.8969,-1260.34,0,0
86535.5,51.0539,-1256.16,0,0
86795.825,51.089,-1251.73,0,0
87056.15,51.278,-1247.36,0,0
87316.475,51.5468,-1243.05,0,0
87576.8,51.8102,-1239.05,0,0
87837.125,51.6501,-1234.98,0,0
88097.45,51.6077,-1230.76,0,0
88357.775,51.7022,-1226.4,0,0
88618.1,51.8466,-1222.47,0,0
88878.425,51.4124,-1218.31,0,0
89138.75,51.2447,-1213.63,0,0
89399.075,51.6006,-1209.18,0,0
89659.4,51.8081,-1204.88,0,0
89919.725,52.2957,-1200.83,0,0
90180,52.5746,-1197.04,0,0
90440.4,52.3578,-1193.2,0,0
90700.7,51.9559,-1189.12,0,0
90961,51.8792,-1184.44,0,0
91221.3,52.4885,-1179.98,0,0
91481.7,52.9219,-1176.26,0,0
91742,53.1336,-1172.31,0,0
92002.3,53.2084,-1168.03,0,0
92262.6,53.6964,-1163.82,0,0
92523,54.4157,-1159.93,0,0
92783.3,54.8381,-1156.32,0,0
93043.6,55.2003,-1152.56,0,0
93303.9,55.8487,-1149.08,0,0
93564.3,56.1781,-1145.72,0,0
93824.6,56.4835,-1142.37,0,0
94084.9,56.5234,-1139.32,0,0
94345.2,56.205,-1136.13,0,0
94605.6,55.7365,-1132.41,0,0
94865.9,55.8446,-1128.56,0,0
95126.2,55.8415,-1125.28,0,0
95386.5,55.3631,-1121.77,0,0
95646.9,54.9081,-1117.61,0,0
95907.2,55.0637,-1113.14,0,0
96167.5,55.8568,-1109.02,0,0
96427.8,56.8892,-1105.54,0,0
96688.2,57.4469,-1102.5,0,0
96948.5,57.799,-1099.26,0,0
97208.8,58.4562,-1096.12,0,0
97469.1,59.011,-1093.45,0,0
97729.5,58.9897,-1090.96,0,0
97989.8,58.8914,-1088.31,0,0
98250.1,58.4834,-1085.54,0,0
98510.4,58.2059,-1082.55,0,0
98770.8,58.0915,-1079.91,0,0
99031.1,57.5644,-1077.4,0,0
99291.4,56.6084,-1074.86,0,0
99551.7,55.2142,-1071.92,0,0
99812.1,53.867,-1068.32,0,0
100072,52.9585,-1064.36,0,0
100333,52.4607,-1060.45,0,0
100593,52.2414,-1056.99,0,0
100853,51.7011,-1053.74,0,0
101114,50.891,-1050.35,0,0
101374,49.9342,-1046.8,0,0
101634,48.8903,-1042.93,0,0
101895,48.1385,-1038.73,0,0
102155,47.6375,-1034.43,0,0
102415,47.421,-1030.34,0,0
102676,47.0752,-1026.35,0,0
102936,46.6959,-1022.23,0,0
103196,46.5511,-1017.89,0,0
103457,46.5205,-1013.71,0,0
103717,46.4849,-1009.44,0,0
103977,46.7679,-1005,0,0
104238,47.2486,-1000.7,0,0
104498,48.0154,-996.534,0,0
104758,48.9502,-992.532,0,0
105019,49.8466,-988.944,0,0
105279,50.6434,-985.409,0,0
105539,51.4244,-981.854,0,0
105800,52.4853,-978.258,0,0
106060,53.7143,-975.013,0,0
106320.175,54.7664,-972.223,0,0
106580.5,55.7481,-969.394,0,0
106840.825,56.6817,-966.943,0,0
107101.15,57.2755,-964.661,0,0
107361.475,57.6731,-962.339,0,0
107621.8,57.9239,-959.992,0,0
107882.125,58.1277,-957.808,0,0
108142.45,57.9412,-955.739,0,0
108402.775,57.3253,-953.319,0,0
108663.1,56.8885,-950.528,0,0
108923.425,56.5872,-947.939,0,0
109183.75,55.9657,-945.336,0,0
109444.075,55.2206,-942.347,0,0
109704.4,54.6388,-939.246,0,0
109964.725,54.0064,-936.085,0,0
110225.05,53.4553,-932.7,0,0
110485.375,53.0248,-929.219,0,0
110745.7,52.6044,-925.716,0,0
111006.025,52.3744,-922.032,0,0
111266.35,52.4138,-918.563,0,0
111526.675,52.3344,-915.078,0,0
111787.0,52.3895,-911.556,0,0
112047.325,52.4423,-907.998,0,0
112307.65,52.624,-904.577,0,0
112567.975,52.6836,-901.237,0,0
112828.3,52.8565,-897.724,0,0
113088.625,53.0804,-894.251,0,0
113348.95,53.3917,-890.742,0,0
113609.275,53.8619,-887.294,0,0
113869.6,54.219,-884.046,0,0
114129.925,54.6142,-880.672,0,0
114390.25,55.1285,-877.364,0,0
114650.575,55.6174,-874.044,0,0
114910.9,56.1978,-870.742,0,0
115171.225,56.7736,-867.555,0,0
115431.55,57.4334,-864.416,0,0
115691.875,58.0748,-861.313,0,0
115952.2,58.7382,-858.258,0,0
116212.525,59.4128,-855.205,0,0
116472.85,60.1463,-852.186,0,0
116733.175,60.9431,-849.301,0,0
116993.5,61.6809,-846.477,0,0
117253.825,62.4413,-843.703,0,0
117514.15,63.1345,-840.946,0,0
117774.475,63.9643,-838.194,0,0
118034.8,64.8556,-835.603,0,0
118295.125,65.6366,-833.184,0,0
118555.45,66.2815,-830.804,0,0
118815.775,66.9216,-828.316,0,0
119076.1,67.7259,-825.98,0,0
119336.425,68.2966,-823.854,0,0
119596.75,68.7856,-821.592,0,0
119857.075,69.3597,-819.476,0,0
120117.4,69.8259,-817.471,0,0
120377.725,70.0667,-815.499,0,0
120638.05,70.1728,-813.566,0,0
120898.375,70.0803,-811.585,0,0
121158.7,69.8019,-809.428,0,0
121419.025,69.5879,-807.077,0,0
121679.35,69.402,-804.696,0,0
121939.675,69.254,-802.304,0,0
122200.0,68.9968,-799.824,0,0
122460,68.7271,-797.271,0,0
122721,68.498,-794.595,0,0
122981,68.3618,-791.908,0,0
123241,68.1915,-789.233,0,0
123502,68.0336,-786.493,0,0
123762,67.9046,-783.712,0,0
124022,67.7239,-781.026,0,0
124283,67.6334,-778.102,0,0
124543,67.509,-775.181,0,0
124803,67.4805,-772.25,0,0
125064,67.4766,-769.241,0,0
125324,67.5202,-766.193,0,0
125584,67.6413,-763.178,0,0
125845,67.8059,-760.105,0,0
126105,68.0368,-757.095,0,0
126365,68.3107,-754.026,0,0
126626,68.6257,-751.017,0,0
126886,69.022,-748.011,0,0
127146,69.4694,-745.056,0,0
127406,69.9529,-742.039,0,0
127667,70.5175,-739.172,0,0
127927,71.1097,-736.315,0,0
128187,71.654,-733.572,0,0
128448,72.1955,-730.837,0,0
128708,72.7585,-728.117,0,0
128968,73.3336,-725.431,0,0
129229,73.8823,-722.837,0,0
129489,74.3432,-720.307,0,0
129749,74.7513,-717.754,0,0
130010,75.1802,-715.055,0,0
130270,75.6518,-712.413,0,0
130530,76.1122,-709.837,0,0
130791,76.561,-707.223,0,0
131051,77.0112,-704.662,0,0
131311,77.4526,-702.139,0,0
131572,77.8295,-699.635,0,0
131832,78.1638,-697.118,0,0
132092,78.421,-694.656,0,0
132353,78.6159,-692.076,0,0
132613,78.754,-689.399,0,0
132873,78.9289,-686.638,0,0
133134,79.1588,-683.762,0,0
133394,79.4867,-680.89,0,0
133654,79.881,-678.03,0,0
133915,80.2648,-675.272,0,0
134175,80.6381,-672.488,0,0
134435,80.9073,-669.677,0,0
134696,81.1618,-666.748,0,0
134956,81.576,-663.728,0,0
135216,81.9962,-660.763,0,0
135477,82.4661,-657.712,0,0
135737,82.9832,-654.664,0,0
135997,83.5624,-651.632,0,0
136258,84.1918,-648.634,0,0
136518,84.8626,-645.637,0,0
136778,85.4858,-642.718,0,0
137039,86.0366,-639.7,0,0
137299,86.6765,-636.606,0,0
137559,87.4322,-633.529,0,0
137819,88.2431,-630.516,0,0
138080,89.0427,-627.613,0,0
138340.125,89.6934,-624.684,0,0
138600.45,90.3477,-621.663,0,0
138860.775,91.0127,-618.587,0,0
139121.1,91.7254,-615.425,0,0
139381.425,92.4763,-612.261,0,0
139641.75,93.2334,-609.093,0,0
139902.075,93.9254,-605.867,0,0
140162.4,94.5862,-602.485,0,0
140422.725,95.3533,-598.854,0,0
140683.05,96.3736,-595.058,0,0
140943.375,97.6243,-591.335,0,0
141203.7,98.9659,-587.649,0,0
141464.025,100.459,-583.887,0,0
141724.35,102.161,-580.201,0,0
141984.675,104.01,-576.573,0,0
142245.0,106.029,-573.029,0,0
142505.325,108.088,-569.649,0,0
142765.65,110.258,-566.265,0,0
143025.975,112.66,-563.036,0,0
143286.3,114.995,-560.099,0,0
143546.625,117.217,-557.29,0,0
143806.95,119.412,-554.354,0,0
144067.275,121.675,-551.489,0,0
144327.6,123.948,-548.676,0,0
144587.925,126.181,-545.952,0,0
144848.25,128.337,-543.073,0,0
145108.575,130.745,-540.094,0,0
145368.9,133.313,-537.247,0,0
145629.225,135.904,-534.52,0,0
145889.55,138.51,-531.905,0,0
146149.875,141.06,-529.311,0,0
146410.2,143.63,-526.586,0,0
146670.525,146.378,-523.814,0,0
146930.85,149.273,-521.104,0,0
147191.175,152.297,-518.395,0,0
147451.5,155.527,-515.725,0,0
147711.825,158.954,-513.256,0,0
147972.15,162.384,-510.967,0,0
148232.475,165.791,-508.622,0,0
148492.8,169.486,-506.197,0,0
148753.125,173.465,-503.899,0,0
149013.45,177.695,-501.725,0,0
149273.775,182.337,-499.716,0,0
149534.1,187.446,-498.147,0,0
149794.425,192.787,-497.22,0,0
150054.75,198.1,-496.943,0,0
150315.075,203.315,-497.068,0,0
150575.4,208.661,-497.701,0,0
150835.725,213.913,-499.203,0,0
151096.05,218.601,-501.579,0,0
151356.375,222.46,-504.236,0,0
151616.7,225.897,-506.976,0,0
151877.025,228.969,-510.215,0,0
152137.35,231.066,-513.715,0,0
152397.675,232.386,-516.942,0,0
152658.0,233.261,-519.867,0,0
152918.325,233.778,-522.481,0,0
153178.65,234.064,-524.9,0,0
153438.975,234.171,-527.228,0,0
153699.3,233.884,-529.596,0,0
153959.625,233.021,-531.716,0,0
154219.95,231.764,-533.258,0,0
154480,230.47,-534.205,0,0
154741,229.293,-534.85,0,0
155001,228.155,-535.247,0,0
155261,227.01,-535.565,0,0
155522,226.001,-535.504,0,0
155782,224.896,-535.41,0,0
156042,223.867,-535.228,0,0
156303,222.709,-535.008,0,0
156563,221.502,-534.412,0,0
156823,220.496,-533.529,0,0
157084,219.242,-532.828,0,0
157344,218.037,-531.775,0,0
157604,216.755,-530.112,0,0
157864,216.056,-528.073,0,0
158125,215.71,-526.137,0,0
158385,215.78,-524.319,0,0
158645,215.88,-522.714,0,0
158906,215.976,-521.146,0,0
159166,216.201,-519.517,0,0
159426,216.62,-518.036,0,0
159687,217.008,-516.572,0,0
159947,217.537,-515.404,0,0
160207,217.834,-514.354,0,0
160468,218.066,-513.154,0,0
160728,218.205,-511.962,0,0
160988,218.428,-510.508,0,0
161249,218.815,-508.718,0,0
161509,220.057,-507.035,0,0
161769,221.536,-506.046,0,0
162030,223.055,-505.625,0,0
162290,224.428,-505.824,0,0
162550,225.345,-506.52,0,0
162811,225.794,-507.532,0,0
163071,225.449,-508.857,0,0
163331,224.132,-510.185,0,0
163592,222.03,-510.745,0,0
163852,219.94,-510.698,0,0
164112,217.831,-510.658,0,0
164373,214.999,-510.001,0,0
164633,212.273,-508.729,0,0
164893,209.575,-507.069,0,0
165154,207.067,-504.95,0,0
165414,204.752,-502.736,0,0
165674,202.042,-500.248,0,0
165935,199.55,-497.134,0,0
166195,197.379,-493.716,0,0
166455,195.304,-490.117,0,0
166716,193.597,-486.024,0,0
166976,192.257,-481.824,0,0
167236,191.208,-477.535,0,0
167497,190.455,-473.44,0,0
167757,189.602,-469.11,0,0
168017,189.024,-464.573,0,0
168277,188.782,-459.872,0,0
168538,188.862,-455.199,0,0
168798,189.287,-450.524,0,0
169058,190.103,-446.115,0,0
169319,190.841,-442.046,0,0
169579,191.389,-438.006,0,0
169839,191.939,-433.789,0,0
170100,192.703,-429.484,0,0
170360.075,193.567,-425.144,0,0
170620.4,194.394,-421.031,0,0
170880.725,194.942,-416.828,0,0
171141.05,195.568,-411.924,0,0
171401.375,196.713,-406.811,0,0
171661.7,198.269,-401.804,0,0
171922.025,200.121,-396.891,0,0
172182.35,202.132,-392.14,0,0
172442.675,204.058,-387.501,0,0
172703.0,206.017,-382.673,0,0
172963.325,208.236,-377.641,0,0
173223.65,210.721,-372.631,0,0
173483.975,213.472,-367.628,0,0
173744.3,216.395,-362.664,0,0
174004.625,219.497,-357.599,0,0
174264.95,222.928,-352.555,0,0
174525.275,226.712,-347.484,0,0
174785.6,230.992,-342.518,0,0
175045.925,235.648,-337.849,0,0
175306.25,240.617,-333.518,0,0
175566.575,245.875,-329.537,0,0
175826.9,251.228,-325.98,0,0
176087.225,256.697,-322.842,0,0
176347.55,262.216,-320.278,0,0
176607.875,267.201,-318.099,0,0
176868.2,271.85,-315.647,0,0
177128.525,276.751,-312.855,0,0
177388.85,282.471,-310.197,0,0
177649.175,288.699,-308.21,0,0
177909.5,295,-307.509,0,0
178169.825,300.623,-307.642,0,0
178430.15,305.363,-308.073,0,0
178690.475,309.577,-308.586,0,0
178950.8,313.237,-309.262,0,0
179211.125,316.038,-310.058,0,0
179471.45,318.77,-309.033,0,0
179731.775,321.068,-309.31,0,0
179992.1,322.552,-309.268,0,0
180252.425,323.593,-308.404,0,0
180512.75,324.733,-306.834,0,0
180773.075,325.865,-305.042,0,0
181033.4,326.577,-302.655,0,0
181293.725,327.274,-299.123,0,0
181554.05,328.822,-294.816,0,0
181814.375,331.143,-290.037,0,0
182074.7,334.293,-285.15,0,0
182335.025,338.211,-280.692,0,0
182595.35,342.149,-276.774,0,0
182855.675,345.89,-272.779,0,0
183116.0,349.619,-268.359,0,0
183376.325,353.794,-263.424,0,0
183636.65,358.885,-258.28,0,0
183896.975,364.655,-253.475,0,0
184157.3,370.517,-249.112,0,0
184417.625,376.757,-244.534,0,0
184677.95,383.484,-239.943,0,0
184938.275,390.853,-235.59,0,0
185198.6,398.704,-231.887,0,0
185458.925,406.707,-228.666,0,0
185719.25,414.934,-225.815,0,0
185979.575,423.422,-223.346,0,0
186239.9,431.906,-221.327,0,0
186500,440.431,-219.788,0,0
186761,448.742,-218.968,0,0
187021,456.183,-217.923,0,0
187281,463.829,-216.137,0,0
187542,472.423,-214.197,0,0
187802,481.565,-212.89,0,0
188062,490.919,-212.451,0,0
188322,499.938,-212.458,0,0
188583,508.815,-212.479,0,0
188843,517.714,-213.07,0,0
189103,526.118,-213.97,0,0
189364,533.992,-214.546,0,0
189624,541.912,-214.679,0,0
189884,549.934,-214.29,0,0
190145,558.864,-213.551,0,0
190405,568.54,-213.32,0,0
190665,578.182,-213.622,0,0
190926,587.7,-213.627,0,0
191186,597.914,-213.079,0,0
191446,609.474,-212.808,0,0
191707,621.756,-213.528,0,0
191967,634.279,-214.882,0,0
192227,647.329,-216.781,0,0
192488,660.809,-219.495,0,0
192748,674.675,-223.002,0,0
193008,688.871,-227.324,0,0
193269,703.62,-232.765,0,0
193529,718.493,-239.813,0,0
193789,732.727,-248.382,0,0
194050,746.021,-258.022,0,0
194310,758.361,-268.216,0,0
194570,770.188,-278.636,0,0
194831,781.693,-289.477,0,0
195091,792.853,-301.079,0,0
195351,803.477,-313.332,0,0
195612,813.334,-326.136,0,0
195872,822.443,-339.363,0,0
196132,830.685,-352.924,0,0
196393,838.272,-366.398,0,0
196653,845.323,-379.942,0,0
196913,852.037,-393.392,0,0
197174,858.682,-406.895,0,0
197434,865.299,-420.908,0,0
197694,871.473,-435.413,0,0
197955,877.422,-450.216,0,0
198215,883.242,-465.973,0,0
198475,888.113,-482.913,0,0
198735,891.431,-500.429,0,0
198996,893.304,-517.775,0,0
199256,894.053,-534.474,0,0
199516,894.337,-550.687,0,0
199777,894.56,-566.601,0,0
200037,894.875,-582.642,0,0
200297,894.827,-599.452,0,0
200558,893.852,-616.993,0,0
200818,891.393,-634.859,0,0
201078,887.752,-652.649,0,0
201339,883.001,-670.273,0,0
201599,876.977,-687.404,0,0
201859,869.833,-704.056,0,0
202120,861.714,-719.744,0,0
202380.025,853.087,-734.828,0,0
202640.35,843.854,-749.386,0,0
202900.675,833.464,-763.27,0,0
203161.0,822.258,-776.232,0,0
203421.325,810.239,-787.712,0,0
203681.65,798.436,-797.687,0,0
203941.975,786.985,-806.637,0,0
204202.3,776,-815.286,0,0
204462.625,764.846,-823.438,0,0
204722.95,753.947,-830.871,0,0
204983.275,743.474,-838.516,0,0
205243.6,732.448,-846.188,0,0
205503.925,720.283,-853.643,0,0
205764.25,707.297,-859.707,0,0
206024.575,694.308,-863.967,0,0
206284.9,682.212,-867.245,0,0
206545.225,670.601,-869.99,0,0
206805.55,659.219,-872.075,0,0
207065.875,648.615,-873.496,0,0
207326.2,638.452,-874.41,0,0
207586.525,628.931,-875.075,0,0
207846.85,620.178,-875.532,0,0
208107.175,611.872,-875.887,0,0
208367.5,604.262,-876.326,0,0
208627.825,597.025,-876.951,0,0
208888.15,590.206,-877.745,0,0
209148.475,583.662,-879.223,0,0
209408.8,577.011,-881.177,0,0
209669.125,569.958,-883.488,0,0
209929.45,562.104,-886.088,0,0
210189.775,553.649,-888.061,0,0
210450.1,544.981,-889.346,0,0
210710.425,536.33,-890.357,0,0
210970.75,527.61,-890.982,0,0
211231.075,518.564,-891.244,0,0
211491.4,509.322,-890.797,0,0
211751.725,500.296,-889.471,0,0
212012.05,491.834,-887.38,0,0
212272.375,484.239,-884.907,0,0
212532.7,477.211,-882.559,0,0
212793.025,470.468,-880.306,0,0
213053.35,463.804,-878.056,0,0
213313.675,457.256,-875.635,0,0
213574.0,450.842,-872.909,0,0
213834.325,444.866,-869.997,0,0
214094.65,439.21,-866.938,0,0
214354.975,433.822,-863.887,0,0
214615.3,428.814,-860.713,0,0
214875.625,424.152,-857.599,0,0
215135.95,419.653,-854.709,0,0
215396.275,415.23,-851.853,0,0
215656.6,410.856,-848.795,0,0
215916.925,406.631,-845.74,0,0
216177.25,402.769,-842.455,0,0
216437.575,399.109,-839.345,0,0
216697.9,395.667,-836.174,0,0
216958.225,392.351,-833.007,0,0
217218.55,389.314,-829.773,0,0
217478.875,386.458,-826.568,0,0
217739.2,383.936,-823.44,0,0
217999.525,381.632,-820.391,0,0
218259.85,379.441,-817.446,0,0
218520,377.412,-814.666,0,0
218780,375.478,-811.854,0,0
219041,373.776,-809.174,0,0
219301,372.215,-806.51,0,0
219561,370.843,-804.124,0,0
219822,369.553,-801.749,0,0
220082,368.344,-799.558,0,0
220342,367.276,-797.428,0,0
220603,366.257,-795.46,0,0
220863,365.074,-793.426,0,0
221123,364.067,-791.467,0,0
221384,363.293,-789.388,0,0
221644,362.765,-787.514,0,0
221904,362.473,-785.752,0,0
222165,362.279,-784.181,0,0
222425,362.318,-782.888,0,0
222685,362.36,-781.952,0,0
222946,362.316,-781.301,0,0
223206,362.337,-780.853,0,0
223466,362.166,-780.566,0,0
223727,361.785,-780.601,0,0
223987,361.25,-780.568,0,0
224247,360.699,-780.605,0,0
224508,360.086,-780.766,0,0
224768,359.326,-781.049,0,0
225028,358.077,-781.19,0,0
225289,356.916,-781.209,0,0
225549,355.881,-780.995,0,0
225809,355.016,-780.728,0,0
226070,354.278,-780.48,0,0
226330,353.572,-780.388,0,0
226590,353.161,-780.388,0,0
226851,352.717,-780.511,0,0
227111,352.35,-780.898,0,0
227371,352.095,-781.398,0,0
227632,351.769,-782.158,0,0
227892,351.415,-783.109,0,0
228152,351.047,-784.294,0,0
228413,350.548,-785.767,0,0
228673,349.844,-787.551,0,0
228933,348.887,-789.516,0,0
229193,347.633,-791.694,0,0
229454,345.941,-793.894,0,0
229714,343.945,-796.089,0,0
229974,341.639,-798.147,0,0
230235,339.126,-800.194,0,0
230495,336.245,-801.957,0,0
230755,333.242,-803.645,0,0
231016,330.135,-805.152,0,0
231276,326.813,-806.504,0,0
231536,323.438,-807.582,0,0
231797,320.063,-808.505,0,0
232057,316.699,-809.345,0,0
232317,313.215,-810.116,0,0
232578,309.674,-810.712,0,0
232838,306.076,-811.15,0,0
233098,302.469,-811.449,0,0
233359,298.828,-811.642,0,0
233619,295.169,-811.651,0,0
233879,291.629,-811.506,0,0
234140,288.079,-811.327,0,0
234400,284.537,-811.065,0,0
234660.3,281.009,-810.73,0,0
234920.625,277.559,-810.193,0,0
235180.95,274.138,-809.68,0,0
235441.275,270.686,-809.107,0,0
235701.6,267.169,-808.427,0,0
235961.925,263.744,-807.761,0,0
236222.25,260.336,-806.921,0,0
236482.575,256.967,-806.078,0,0
236742.9,253.568,-805.195,0,0
237003.225,250.091,-804.182,0,0
237263.55,246.627,-803.036,0,0
237523.875,243.216,-801.733,0,0
237784.2,239.82,-800.354,0,0
238044.525,236.576,-798.865,0,0
238304.85,233.378,-797.297,0,0
238565.175,230.244,-795.7,0,0
238825.5,227.171,-794,0,0
239085.825,224.142,-792.247,0,0
239346.15,221.197,-790.382,0,0
239606.475,218.302,-788.552,0,0
239866.8,215.486,-786.528,0,0
240127.125,212.823,-784.474,0,0
240387.45,210.233,-782.442,0,0
240647.775,207.727,-780.361,0,0
240908.1,205.402,-778.255,0,0
241168.425,203.13,-776.237,0,0
241428.75,200.882,-774.239,0,0
241689.075,198.658,-772.252,0,0
241949.4,196.488,-770.182,0,0
242209.725,194.344,-768.054,0,0
242470.05,192.402,-765.939,0,0
242730.375,190.585,-763.858,0,0
242990.7,188.894,-761.92,0,0
243251.025,187.144,-760.072,0,0
243511.35,185.415,-758.332,0,0
243771.675,183.607,-756.622,0,0
244032.0,181.834,-754.934,0,0
244292.325,180,-753.204,0,0
244552.65,178.229,-751.42,0,0
244812.975,176.496,-749.671,0,0
245073.3,174.75,-748.058,0,0
245333.625,172.918,-746.577,0,0
245593.95,171.121,-745.063,0,0
245854.275,169.205,-743.511,0,0
246114.6,167.21,-742.093,0,0
246374.925,165.064,-740.643,0,0
246635.25,162.801,-739.137,0,0
246895.575,160.321,-737.522,0,0
247155.9,157.721,-735.674,0,0
247416.225,155.139,-733.569,0,0
247676.55,152.593,-731.232,0,0
247936.875,150.205,-728.755,0,0
248197.2,147.89,-726.171,0,0
248457.525,145.758,-723.521,0,0
248717.85,143.644,-720.859,0,0
248978.175,141.565,-718.073,0,0
249238.5,139.634,-715.215,0,0
249498.825,137.818,-712.289,0,0
249759.15,136.079,-709.317,0,0
250019.475,134.347,-706.306,0,0
250279.8,132.744,-703.262,0,0
250540,131.198,-700.109,0,0
250800,129.694,-696.882,0,0
251061,128.418,-693.593,0,0
251321,127.254,-690.243,0,0
251581,126.272,-686.885,0,0
251842,125.408,-683.515,0,0
252102,124.666,-680.229,0,0
252362,124.07,-676.918,0,0
252623,123.558,-673.651,0,0
252883,123.194,-670.515,0,0
253143,122.848,-667.346,0,0
253404,122.582,-664.242,0,0
253664,122.362,-661.216,0,0
253924,122.156,-658.155,0,0
254185,122.027,-655.098,0,0
254445,121.96,-652.069,0,0
254705,121.961,-649.042,0,0
254966,122.005,-646.006,0,0
255226,122.072,-642.907,0,0
255486,122.291,-639.784,0,0
255747,122.696,-636.603,0,0
256007,123.243,-633.497,0,0
256267,123.991,-630.4,0,0
256528,124.861,-627.466,0,0
256788,125.811,-624.668,0,0
257048,126.837,-621.973,0,0
257309,127.845,-619.375,0,0
257569,128.927,-616.85,0,0
257829,130.051,-614.358,0,0
258090,131.247,-611.939,0,0
258350,132.456,-609.581,0,0
258610,133.757,-607.307,0,0
258871,135.087,-605.065,0,0
259131,136.469,-602.851,0,0
259391,137.91,-600.71,0,0
259651,139.488,-598.625,0,0
259912,141.191,-596.635,0,0
260172,142.903,-594.817,0,0
260432,144.703,-593.098,0,0
260693,146.545,-591.504,0,0
260953,148.421,-590.018,0,0
261213,150.308,-588.665,0,0
261474,152.257,-587.443,0,0
261734,154.194,-586.375,0,0
261994,156.082,-585.452,0,0
262255,157.962,-584.628,0,0
262515,159.806,-583.935,0,0
262775,161.588,-583.322,0,0
263036,163.379,-582.77,0,0
263296,165.153,-582.356,0,0
263556,166.898,-582.026,0,0
263817,168.627,-581.86,0,0
264077,170.283,-581.831,0,0
264337,171.912,-581.881,0,0
264598,173.406,-582.136,0,0
264858,174.79,-582.495,0,0
265118,175.994,-582.925,0,0
265379,177.032,-583.456,0,0
265639,177.855,-583.94,0,0
265899,178.539,-584.365,0,0
266160,179.071,-584.728,0,0
266420,179.564,-584.962,0,0
266680.25,180.046,-585.11,0,0
266940.575,180.568,-585.236,0,0
267200.9,181.098,-585.382,0,0
267461.225,181.591,-585.579,0,0
267721.55,182.033,-585.78,0,0
267981.875,182.386,-586.028,0,0
268242.2,182.642,-586.257,0,0
268502.525,182.793,-586.454,0,0
268762.85,182.818,-586.532,0,0
269023.175,182.797,-586.539,0,0
269283.5,182.726,-586.389,0,0
269543.825,182.687,-586.026,0,0
269804.15,182.697,-585.563,0,0
270064.475,182.803,-585.02,0,0
270324.8,183.071,-584.394,0,0
270585.125,183.377,-583.637,0,0
270845.45,183.834,-582.816,0,0
271105.775,184.574,-581.93,0,0
271366.1,185.396,-581.185,0,0
271626.425,186.471,-580.469,0,0
271886.75,187.594,-579.893,0,0
272147.075,188.792,-579.41,0,0
272407.4,190.091,-578.943,0,0
272667.725,191.525,-578.501,0,0
272928.05,193.155,-578.175,0,0
273188.375,194.891,-577.991,0,0
273448.7,196.794,-577.937,0,0
273709.025,198.888,-578.111,0,0
273969.35,201.182,-578.494,0,0
274229.675,203.595,-579.199,0,0
274490.0,206.1,-580.348,0,0
274750.325,208.629,-581.919,0,0
275010.65,211.032,-583.988,0,0
275270.975,213.238,-586.523,0,0
275531.3,215.157,-589.431,0,0
275791.625,216.71,-592.768,0,0
276051.95,217.801,-596.398,0,0
276312.275,218.324,-600.265,0,0
276572.6,218.279,-604.232,0,0
276832.925,217.651,-608.162,0,0
277093.25,216.466,-611.89,0,0
277353.575,214.841,-615.367,0,0
277613.9,212.85,-618.489,0,0
277874.225,210.639,-621.256,0,0
278134.55,208.277,-623.761,0,0
278394.875,205.823,-625.943,0,0
278655.2,203.349,-627.877,0,0
278915.525,200.833,-629.601,0,0
279175.85,198.227,-631.238,0,0
279436.175,195.562,-632.649,0,0
279696.5,192.83,-633.87,0,0
279956.825,190.026,-634.946,0,0
280217.15,187.205,-635.782,0,0
280477.475,184.431,-636.349,0,0
280737.8,181.723,-636.794,0,0
280998.125,179.117,-637.118,0,0
281258.45,176.611,-637.432,0,0
281518.775,174.067,-637.731,0,0
281779.1,171.512,-638.025,0,0
282039.425,168.806,-638.283,0,0
282299.75,165.994,-638.429,0,0
282560,162.995,-638.407,0,0
282820,159.909,-638.097,0,0
283081,156.768,-637.453,0,0
283341,153.749,-636.481,0,0
283601,150.981,-635.189,0,0
283862,148.548,-633.726,0,0
284122,146.464,-632.322,0,0
284382,144.582,-631.094,0,0
284643,142.777,-630.103,0,0
284903,140.815,-629.283,0,0
285163,138.584,-628.528,0,0
285424,136.113,-627.66,0,0
285684,133.493,-626.516,0,0
285944,130.774,-625.136,0,0
286205,128.017,-623.394,0,0
286465,125.289,-621.358,0,0
286725,122.657,-618.999,0,0
286986,120.263,-616.279,0,0
287246,118.151,-613.325,0,0
287506,116.308,-610.203,0,0
287767,114.731,-606.932,0,0
288027,113.462,-603.553,0,0
288287,112.423,-600.074,0,0
288548,111.654,-596.481,0,0
288808,111.202,-592.718,0,0
289068,111.192,-588.835,0,0
289329,111.677,-584.9,0,0
289589,112.74,-581.138,0,0
289849,114.248,-577.597,0,0
290109,116.238,-574.418,0,0
290370,118.523,-571.61,0,0
290630,121.053,-569.227,0,0
290890,123.795,-567.31,0,0
291151,126.66,-565.792,0,0
291411,129.617,-564.747,0,0
291671,132.632,-564.175,0,0
291932,135.587,-564.13,0,0
292192,138.443,-564.596,0,0
292452,141.05,-565.603,0,0
292713,143.27,-567.12,0,0
292973,144.976,-569.011,0,0
293233,146.033,-571.111,0,0
293494,146.442,-573.175,0,0
293754,146.311,-575.016,0,0
294014,145.762,-576.512,0,0
294275,145.027,-577.592,0,0
294535,144.181,-578.286,0,0
294795,143.39,-578.643,0,0
295056,142.752,-578.637,0,0
295316,142.415,-578.37,0,0
295576,142.469,-578.079,0,0
295837,142.953,-577.886,0,0
296097,143.794,-578.048,0,0
296357,144.786,-578.694,0,0
296618,145.712,-579.982,0,0
296878,146.228,-581.782,0,0
297138,146.179,-583.838,0,0
297399,145.547,-585.919,0,0
297659,144.451,-587.818,0,0
297919,143.016,-589.466,0,0
298180,141.349,-590.806,0,0
298440,139.545,-591.88,0,0
298700.2,137.681,-592.677,0,0
298960.525,135.829,-593.237,0,0
299220.85,134.002,-593.672,0,0
299481.175,132.221,-593.966,0,0
299741.5,130.418,-594.174,0,0
300001.825,128.536,-594.306,0,0
300262.15,126.616,-594.236,0,0
300522.475,124.69,-593.988,0,0
300782.8,122.814,-593.494,0,0
301043.125,121.047,-592.812,0,0
301303.45,119.467,-591.976,0,0
301563.775,118.11,-591.019,0,0
301824.1,117.005,-590.068,0,0
302084.425,116.093,-589.131,0,0
302344.75,115.399,-588.33,0,0
302605.075,114.832,-587.709,0,0
302865.4,114.304,-587.285,0,0
303125.725,113.754,-587.056,0,0
303386.05,113.137,-586.985,0,0
303646.375,112.41,-587.028,0,0
303906.7,111.55,-587.169,0,0
304167.025,110.544,-587.357,0,0
304427.35,109.366,-587.547,0,0
304687.675,108.019,-587.72,0,0
304948.0,106.524,-587.809,0,0
305208.325,104.887,-587.758,0,0
305468.65,103.17,-587.602,0,0
305728.975,101.442,-587.296,0,0
305989.3,99.6632,-586.86,0,0
306249.625,97.9091,-586.306,0,0
306509.95,96.1464,-585.64,0,0
306770.275,94.3806,-584.837,0,0
307030.6,92.6624,-583.921,0,0
307290.925,91.0197,-582.891,0,0
307551.25,89.4447,-581.79,0,0
307811.575,87.9598,-580.608,0,0
308071.9,86.5756,-579.389,0,0
308332.225,85.2745,-578.136,0,0
308592.55,84.0353,-576.871,0,0
308852.875,82.8724,-575.61,0,0
309113.2,81.7773,-574.339,0,0
309373.525,80.7251,-573.084,0,0
309633.85,79.7171,-571.842,0,0
309894.175,78.7242,-570.61,0,0
310154.5,77.7678,-569.372,0,0
310414.825,76.8082,-568.165,0,0
310675.15,75.8504,-566.94,0,0
310935.475,74.9096,-565.678,0,0
311195.8,74.0116,-564.395,0,0
311456.125,73.1227,-563.07,0,0
311716.45,72.2999,-561.729,0,0
311976.775,71.5171,-560.391,0,0
312237.1,70.7682,-559.029,0,0
312497.425,70.0831,-557.683,0,0
312757.75,69.4331,-556.322,0,0
313018.075,68.8453,-554.979,0,0
313278.4,68.2776,-553.639,0,0
313538.725,67.7621,-552.365,0,0
313799.05,67.2564,-551.113,0,0
314059.375,66.7655,-549.872,0,0
314319.7,66.2736,-548.669,0,0
314580,65.7323,-547.477,0,0
314840,65.263,-546.258,0,0
315101,64.7482,-545.047,0,0
315361,64.242,-543.801,0,0
315621,63.7944,-542.592,0,0
315882,63.3142,-541.353,0,0
316142,62.9326,-540.124,0,0
316402,62.514,-538.848,0,0
316663,62.1113,-537.56,0,0
316923,61.7684,-536.306,0,0
317183,61.5433,-535.055,0,0
317444,61.2348,-533.742,0,0
317704,61.0085,-532.588,0,0
317964,60.7796,-531.346,0,0
318225,60.5691,-530.157,0,0
318485,60.3644,-529.007,0,0
318745,60.227,-527.86,0,0
319006,60.0627,-526.761,0,0
319266,59.8931,-525.752,0,0
319526,59.7675,-524.708,0,0
319787,59.5405,-523.641,0,0
320047,59.3882,-522.551,0,0
320307,59.1421,-521.535,0,0
320567,58.9411,-520.503,0,0
320828,58.7319,-519.422,0,0
321088,58.5776,-518.365,0,0
321348,58.3657,-517.332,0,0
321609,58.1267,-516.265,0,0
321869,57.9946,-515.248,0,0
322129,57.8325,-514.113,0,0
322390,57.674,-513.088,0,0
322650,57.4289,-512.012,0,0
322910,57.3081,-510.891,0,0
323171,57.045,-509.822,0,0
323431,56.9476,-508.651,0,0
323691,56.7359,-507.476,0,0
323952,56.6387,-506.268,0,0
324212,56.5134,-505.005,0,0
324472,56.4387,-503.702,0,0
324733,56.4584,-502.413,0,0
324993,56.5189,-501.032,0,0
325253,56.772,-499.65,0,0
325514,57.1119,-498.317,0,0
325774,57.4989,-496.971,0,0
326034,58.0371,-495.746,0,0
326295,58.6526,-494.566,0,0
326555,59.32,-493.594,0,0
326815,59.9997,-492.689,0,0
327076,60.724,-491.946,0,0
327336,61.381,-491.351,0,0
327596,61.9365,-490.861,0,0
327857,62.4625,-490.361,0,0
328117,62.8781,-489.876,0,0
328377,63.2859,-489.478,0,0
328638,63.6421,-489.022,0,0
328898,63.9612,-488.632,0,0
329158,64.3319,-488.221,0,0
329419,64.6288,-487.859,0,0
329679,64.9284,-487.494,0,0
329939,65.2184,-487.18,0,0
330200,65.4474,-486.94,0,0
330460,65.6791,-486.65,0,0
330720.15,65.8514,-486.48,0,0
330980.475,66.0446,-486.331,0,0
331240.8,66.2152,-486.157,0,0
331501.125,66.2366,-486.139,0,0
331761.45,66.2127,-486.072,0,0
332021.775,66.2,-486.041,0,0
332282.1,66.0236,-485.984,0,0
332542.425,65.7904,-485.97,0,0
332802.75,65.4543,-485.91,0,0
333063.075,65.0417,-485.716,0,0
333323.4,64.5732,-485.574,0,0
333583.725,64.079,-485.315,0,0
333844.05,63.5551,-484.971,0,0
334104.375,62.9695,-484.538,0,0
334364.7,62.4538,-484.009,0,0
334625.025,61.9278,-483.53,0,0
334885.35,61.4506,-482.889,0,0
335145.675,61.0008,-482.328,0,0
335406.0,60.5995,-481.628,0,0
335666.325,60.2045,-480.985,0,0
335926.65,59.8089,-480.337,0,0
336186.975,59.3984,-479.688,0,0
336447.3,58.9599,-479.011,0,0
336707.625,58.638,-478.254,0,0
336967.95,58.2797,-477.548,0,0
337228.275,57.9317,-476.821,0,0
337488.6,57.6179,-476.036,0,0
337748.925,57.308,-475.259,0,0
338009.25,57.0059,-474.423,0,0
338269.575,56.7419,-473.693,0,0
338529.9,56.4795,-472.877,0,0
338790.225,56.2094,-472.061,0,0
339050.55,55.9874,-471.225,0,0
339310.875,55.7097,-470.328,0,0
339571.2,55.4991,-469.493,0,0
339831.525,55.3173,-468.611,0,0
340091.85,55.1805,-467.771,0,0
340352.175,55.0532,-466.924,0,0
340612.5,54.9192,-466.041,0,0
340872.825,54.8165,-465.173,0,0
341133.15,54.7687,-464.293,0,0
341393.475,54.7061,-463.457,0,0
341653.8,54.6222,-462.612,0,0
341914.125,54.627,-461.75,0,0
342174.45,54.5876,-460.889,0,0
342434.775,54.5153,-460.066,0,0
342695.1,54.5555,-459.218,0,0
342955.425,54.5138,-458.34,0,0
343215.75,54.5593,-457.499,0,0
343476.075,54.5481,-456.644,0,0
343736.4,54.6408,-455.837,0,0
343996.725,54.7086,-454.91,0,0
344257.05,54.8064,-454.078,0,0
344517.375,54.8829,-453.274,0,0
344777.7,55.0238,-452.39,0,0
345038.025,55.1922,-451.569,0,0
345298.35,55.3703,-450.751,0,0
345558.675,55.5871,-449.961,0,0
345819.0,55.7472,-449.186,0,0
346079.325,55.9646,-448.388,0,0
346339.65,56.2027,-447.684,0,0
346599.975,56.4258,-446.961,0,0
346860,56.6987,-446.238,0,0
347121,56.9545,-445.553,0,0
347381,57.2078,-444.781,0,0
347641,57.477,-444.151,0,0
347902,57.7558,-443.496,0,0
348162,58.0359,-442.86,0,0
348422,58.3159,-442.184,0,0
348683,58.6327,-441.562,0,0
348943,58.9578,-440.93,0,0
349203,59.2247,-440.359,0,0
349464,59.582,-439.784,0,0
349724,59.9214,-439.294,0,0
349984,60.2193,-438.732,0,0
350245,60.5789,-438.206,0,0
350505,60.9046,-437.728,0,0
350765,61.2394,-437.301,0,0
351025,61.5293,-436.848,0,0
351286,61.8941,-436.478,0,0
351546,62.1334,-436.089,0,0
351806,62.4116,-435.69,0,0
352067,62.6514,-435.355,0,0
352327,62.8377,-434.985,0,0
352587,63.0657,-434.593,0,0
352848,63.2828,-434.191,0,0
353108,63.5101,-433.778,0,0
353368,63.6934,-433.414,0,0
353629,63.9182,-433.018,0,0
353889,64.1216,-432.604,0,0
354149,64.3665,-432.229,0,0
354410,64.5905,-431.835,0,0
354670,64.8376,-431.477,0,0
354930,64.9796,-431.09,0,0
355191,65.2257,-430.728,0,0
355451,65.5078,-430.373,0,0
355711,65.6626,-429.987,0,0
355972,65.9477,-429.605,0,0
356232,66.2048,-429.255,0,0
356492,66.4658,-428.914,0,0
356753,66.7535,-428.527,0,0
357013,67.0712,-428.223,0,0
357273,67.355,-427.932,0,0
357534,67.6675,-427.636,0,0
357794,67.9983,-427.409,0,0
358054,68.3654,-427.191,0,0
358315,68.6797,-426.99,0,0
358575,69.0313,-426.848,0,0
358835,69.3242,-426.706,0,0
359096,69.667,-426.593,0,0
359356,69.9512,-426.628,0,0
359616,70.1976,-426.61,0,0
359877,70.4348,-426.639,0,0
360137,70.5898,-426.654,0,0
360397,70.7211,-426.707,0,0
360658,70.8391,-426.77,0,0
360918,70.9066,-426.72,0,0
361178,70.9713,-426.83,0,0
361438,70.9911,-426.864,0,0
361699,71.0025,-426.904,0,0
361959,70.9903,-426.996,0,0
362219,70.9101,-427.021,0,0
362480,70.8325,-427.076,0,0
362740.1,70.6989,-427.086,0,0
363000.425,70.5442,-427.113,0,0
363260.75,70.397,-427.069,0,0
363521.075,70.1992,-427.08,0,0
363781.4,70.0583,-427.027,0,0
364041.725,69.8327,-426.951,0,0
364302.05,69.6265,-426.863,0,0
364562.375,69.4327,-426.758,0,0
364822.7,69.1659,-426.704,0,0
365083.025,68.9074,-426.621,0,0
365343.35,68.6425,-426.51,0,0
365603.675,68.3781,-426.328,0,0
365864.0,68.0177,-426.14,0,0
366124.325,67.741,-426.003,0,0
366384.65,67.4213,-425.657,0,0
366644.975,67.1056,-425.387,0,0
366905.3,66.855,-425.033,0,0
367165.625,66.6218,-424.673,0,0
367425.95,66.4329,-424.343,0,0
367686.275,66.2708,-424.003,0,0
367946.6,66.1055,-423.623,0,0
368206.925,66.0111,-423.224,0,0
368467.25,65.9669,-422.884,0,0
368727.575,65.9245,-422.572,0,0
368987.9,65.9148,-422.33,0,0
369248.225,65.8886,-422.063,0,0
369508.55,65.8706,-421.87,0,0
369768.875,65.8414,-421.719,0,0
370029.2,65.8152,-421.641,0,0
370289.525,65.6492,-421.547,0,0
370549.85,65.5627,-421.486,0,0
370810.175,65.3127,-421.451,0,0
371070.5,65.0742,-421.299,0,0
371330.825,64.7815,-421.19,0,0
371591.15,64.4497,-421.041,0,0
371851.475,64.1425,-420.794,0,0
372111.8,63.8873,-420.534,0,0
372372.125,63.5958,-420.312,0,0
372632.45,63.3488,-420.026,0,0
372892.775,63.1137,-419.754,0,0
373153.1,62.8922,-419.471,0,0
373413.425,62.6945,-419.224,0,0
373673.75,62.4542,-418.946,0,0
373934.075,62.2354,-418.73,0,0
374194.4,62.0591,-418.511,0,0
374454.725,61.7808,-418.312,0,0
374715.05,61.5838,-418.114,0,0
374975.375,61.3294,-417.937,0,0
375235.7,60.9839,-417.732,0,0
375496.025,60.6492,-417.545,0,0
375756.35,60.2959,-417.264,0,0
376016.675,59.943,-417.014,0,0
376277.0,59.5854,-416.716,0,0
376537.325,59.2567,-416.427,0,0
376797.65,58.9514,-416.068,0,0
377057.975,58.6626,-415.762,0,0
377318.3,58.3379,-415.416,0,0
377578.625,58.0982,-415.179,0,0
377838.95,57.7984,-414.884,0,0
378099.275,57.4886,-414.632,0,0
378359.6,57.1292,-414.411,0,0
378619.925,56.8096,-414.224,0,0
378880,56.329,-414.012,0,0
379141,55.8001,-413.759,0,0
379401,55.1968,-413.461,0,0
379661,54.5834,-413.061,0,0
379922,53.9454,-412.463,0,0
380182,53.3352,-411.826,0,0
380442,52.8471,-411.07,0,0
380703,52.509,-410.269,0,0
380963,52.2757,-409.44,0,0
381223,52.1835,-408.677,0,0
381483,52.1425,-408.032,0,0
381744,52.162,-407.492,0,0
382004,52.1586,-407.055,0,0
382264,52.1475,-406.688,0,0
382525,52.0516,-406.421,0,0
382785,51.901,-406.164,0,0
383045,51.6656,-405.847,0,0
383306,51.3679,-405.539,0,0
383566,51.0541,-405.219,0,0
383826,50.6991,-404.875,0,0
384087,50.3244,-404.518,0,0
384347,49.9621,-404.103,0,0
384607,49.5311,-403.672,0,0
384868,49.1729,-403.159,0,0
385128,48.7642,-402.67,0,0
385388,48.3466,-402.197,0,0
385649,47.9647,-401.628,0,0
385909,47.6451,-401.007,0,0
386169,47.2508,-400.41,0,0
386430,46.8971,-399.798,0,0
386690,46.6066,-399.141,0,0
386950,46.28,-398.497,0,0
387211,46.0129,-397.817,0,0
387471,45.7194,-397.134,0,0
387731,45.5143,-396.481,0,0
387992,45.2942,-395.756,0,0
388252,45.0929,-395.062,0,0
388512,44.881,-394.326,0,0
388773,44.7408,-393.616,0,0
389033,44.6348,-392.951,0,0
389293,44.5401,-392.183,0,0
389554,44.4711,-391.485,0,0
389814,44.495,-390.81,0,0
390074,44.5068,-390.171,0,0
390335,44.5277,-389.528,0,0
390595,44.5649,-388.917,0,0
390855,44.6028,-388.388,0,0
391116,44.7152,-387.923,0,0
391376,44.7207,-387.442,0,0
391636,44.7545,-387.079,0,0
391896,44.7033,-386.722,0,0
392157,44.6151,-386.397,0,0
392417,44.4335,-386.033,0,0
392677,44.2263,-385.66,0,0
392938,43.9991,-385.27,0,0
393198,43.6778,-384.853,0,0
393458,43.3802,-384.371,0,0
393719,43.062,-383.845,0,0
393979,42.711,-383.324,0,0
394239,42.3894,-382.72,0,0
394500,42.0706,-382.072,0,0
394760.05,41.7621,-381.434,0,0
395020.375,41.466,-380.681,0,0
395280.7,41.2417,-379.924,0,0
395541.025,41.0198,-379.134,0,0
395801.35,40.8002,-378.31,0,0
396061.675,40.6573,-377.505,0,0
396322.0,40.525,-376.68,0,0
396582.325,40.4677,-375.844,0,0
396842.65,40.423,-375.055,0,0
397102.975,40.3853,-374.265,0,0
397363.3,40.4181,-373.486,0,0
397623.625,40.4453,-372.659,0,0
397883.95,40.4819,-371.885,0,0
398144.275,40.5642,-371.15,0,0
398404.6,40.6283,-370.396,0,0
398664.925,40.7312,-369.677,0,0
398925.25,40.8177,-368.919,0,0
399185.575,40.9302,-368.184,0,0
399445.9,41.0838,-367.511,0,0
399706.225,41.2424,-366.842,0,0
399966.55,41.3679,-366.189,0,0
400006.6,41.4025,-366.075,0,0