File: Accelerated corrosion test data/2025-10-09_18-00-04/sample_1.csv
Frequency (Hz),Impedance (ohms),Phase (Radians),Temperature (C),Humidity (%)
10000.0,239.836,-12180.4,0,0
10260.325,239.291,-11867,0,0
10520.65,230.383,-11588.5,0,0
10780.975,225.337,-11304.5,0,0
11041.3,219.806,-11045.1,0,0
11301.625,213.69,-10788.3,0,0
11561.95,210.534,-10545.2,0,0
11822.275,207.629,-10307.6,0,0
12082.6,225.678,-10077.8,0,0
12342.925,210.964,-9902.29,0,0
12603.25,194.61,-9691.23,0,0
12863.575,190.726,-9489.67,0,0
13123.9,199.421,-9297.05,0,0
13384.225,185.005,-9127.55,0,0
13644.55,180.667,-8946.18,0,0
13904.875,181.622,-8769.62,0,0
14165.2,194.018,-8635.34,0,0
14425.525,210.596,-8463.83,0,0
14685.8,199.705,-8300.9,0,0
14946.175,177.633,-8201.14,0,0
15206.5,182.927,-8037.96,0,0
15466.825,173.639,-7923.03,0,0
15727.15,173.469,-7790.65,0,0
15987.5,160.359,-7663.09,0,0
16247.8,156.71,-7537.19,0,0
16508.125,155.387,-7414.41,0,0
16768.45,159.179,-7296.84,0,0
17028.775,162.657,-7190.65,0,0
17289.1,153.994,-7087.37,0,0
17549.425,153.38,-6983.47,0,0
17809.75,145.585,-6880.85,0,0
18070.075,147.75,-6780.31,0,0
18330.4,142.026,-6685.3,0,0
18590.725,137.839,-6590.72,0,0
18851.05,138.362,-6492.97,0,0
19111.375,135.291,-6412.02,0,0
19371.7,132.666,-6319.7,0,0
19632.025,131.958,-6231.57,0,0
19892.35,135.863,-6146.05,0,0
20152.675,135.465,-6058.75,0,0
20413.0,155.563,-5970.75,0,0
20673.3,167.163,-5929.6,0,0
20933.65,150.458,-5859.92,0,0
21193.975,158.881,-5797.57,0,0
21454.3,142.55,-5722.99,0,0
21714.625,138.416,-5655.8,0,0
21974.9,137.413,-5572.21,0,0
22235.275,172.757,-5528.41,0,0
22495.6,141.159,-5487.24,0,0
22755.925,126.933,-5418.07,0,0
23016.25,122.693,-5352.39,0,0
23276.6,118.403,-5290.24,0,0
23536.9,115.444,-5229.81,0,0
23797.225,112.64,-5168.48,0,0
24057.55,114.882,-5108.18,0,0
24317.875,112.429,-5059.58,0,0
24578.2,110.938,-5000.13,0,0
24838.525,110.352,-4950.13,0,0
25098.85,110.754,-4896.65,0,0
25359.175,105.813,-4847.03,0,0
25619.5,105.261,-4795.99,0,0
25879.8,103.085,-4744.42,0,0
26140.1,103.083,-4695.65,0,0
26400.5,102.734,-4646.42,0,0
26660.8,105.306,-4595.65,0,0
26921.1,113.809,-4548.65,0,0
27181.4,120.163,-4514.91,0,0
27441.8,111.272,-4480.71,0,0
27702.1,103.684,-4431.56,0,0
27962.4,111.014,-4383.03,0,0
28222.7,110.504,-4343.96,0,0
28483.1,121.084,-4301.73,0,0
28743.4,129.225,-4282.65,0,0
29003.7,116.687,-4246.39,0,0
29264,118.14,-4211.48,0,0
29524.4,106.984,-4177.99,0,0
29784.7,105.573,-4136.34,0,0
30045,101.367,-4104,0,0
30305.3,99.5683,-4065.27,0,0
30565.7,97.2558,-4026.81,0,0
30826,100.759,-3991.8,0,0
31086.3,102.757,-3963.07,0,0
31346.6,99.5265,-3934.47,0,0
31607,93.8623,-3897.54,0,0
31867.3,97.1794,-3863.85,0,0
32127.6,97.9795,-3833.05,0,0
32387.9,98.1683,-3807.46,0,0
32648.3,93.7864,-3775.82,0,0
32908.6,96.2275,-3747.54,0,0
33168.9,91.036,-3719.58,0,0
33429.2,88.4587,-3690.86,0,0
33689.6,85.9855,-3661.16,0,0
33949.9,85.2647,-3630.25,0,0
34210.2,86.499,-3604.42,0,0
34470.5,83.7649,-3577.33,0,0
34730.9,81.7622,-3548.73,0,0
34991.2,81.3819,-3521.99,0,0
35251.5,79.9998,-3495.11,0,0
35511.8,79.464,-3468.92,0,0
35772.2,79.1132,-3443.84,0,0
36032.5,77.7571,-3417.92,0,0
36292.8,77.2351,-3392.74,0,0
36553.1,76.5948,-3367.94,0,0
36813.5,76.0836,-3343.38,0,0
37073.8,75.8283,-3319.34,0,0
37334.1,75.3308,-3296.24,0,0
37594.4,74.7799,-3272.88,0,0
37854.8,74.2435,-3250.24,0,0
38115.1,73.5899,-3227.27,0,0
38375.4,73.0534,-3204.55,0,0
38635.7,72.9814,-3182.75,0,0
38896.1,72.5378,-3160.31,0,0
39156.4,72.2341,-3138.8,0,0
39416.7,72.1719,-3118.56,0,0
39677,71.3439,-3097.45,0,0
39937.4,71.0985,-3076.19,0,0
40197.7,71.3966,-3055.73,0,0
40458,70.8984,-3035.76,0,0
40718.3,70.8814,-3014.96,0,0
40978.7,72.1203,-2995.58,0,0
41239,72.0925,-2977.6,0,0
41499.3,71.5016,-2959.33,0,0
41759.6,71.0005,-2940.81,0,0
42020,70.3651,-2921.64,0,0
42280.275,70.2925,-2903.1,0,0
42540.6,70.9527,-2885.32,0,0
42800.925,70.062,-2868.52,0,0
43061.25,69.301,-2850.58,0,0
43321.575,69.1553,-2833.45,0,0
43581.9,68.682,-2816.26,0,0
43842.225,67.9305,-2798.89,0,0
44102.55,68.0904,-2781.2,0,0
44362.875,68.7444,-2764.36,0,0
44623.2,69.286,-2749.09,0,0
44883.525,68.4051,-2733.37,0,0
45143.85,68.3461,-2717.33,0,0
45404.175,68.8264,-2701.91,0,0
45664.5,68.005,-2687.15,0,0
45924.825,66.7386,-2671.43,0,0
46185.15,66.6264,-2656.48,0,0
46445.475,65.5075,-2641.28,0,0
46705.8,65.2364,-2625.82,0,0
46966.125,64.9291,-2611.26,0,0
47226.45,64.3711,-2596.1,0,0
47486.775,64.5531,-2581.76,0,0
47747.1,63.8413,-2567.47,0,0
48007.425,63.3637,-2553.28,0,0
48267.75,63.5543,-2539.09,0,0
48528.075,62.6828,-2525.95,0,0
48788.4,61.7128,-2511.78,0,0
49048.725,61.6238,-2497.56,0,0
49309.05,61.4259,-2483.83,0,0
49569.375,61.2678,-2470.76,0,0
49829.7,60.9669,-2457.68,0,0
50090.025,60.2975,-2444.49,0,0
50350.35,59.6657,-2431.26,0,0
50610.675,59.492,-2418.04,0,0
50871.0,59.2386,-2405.02,0,0
51131.325,59.3262,-2392.19,0,0
51391.65,59.3192,-2380.07,0,0
51651.975,58.7475,-2367.69,0,0
51912.3,58.3469,-2355.21,0,0
52172.625,58.1118,-2343.04,0,0
52432.95,57.9886,-2330.83,0,0
52693.275,57.9398,-2318.96,0,0
52953.6,57.8005,-2306.85,0,0
53213.925,57.6224,-2295.31,0,0
53474.25,57.5845,-2283.78,0,0
53734.575,57.3571,-2272.24,0,0
53994.9,57.2747,-2261.14,0,0
54255.225,56.8172,-2250.05,0,0
54515.55,56.4792,-2238.78,0,0
54775.875,56.0195,-2227.49,0,0
55036.2,55.8967,-2216.27,0,0
55296.525,56.1141,-2205.18,0,0
55556.85,56.0833,-2194.8,0,0
55817.175,55.6404,-2184.18,0,0
56077.5,55.0469,-2173.45,0,0
56337.825,55.0285,-2162.64,0,0
56598.15,55.0459,-2152.06,0,0
56858.475,54.9996,-2141.93,0,0
57118.8,54.7295,-2131.58,0,0
57379.125,54.6348,-2121.23,0,0
57639.45,54.7188,-2111.07,0,0
57899.775,54.5855,-2101.27,0,0
58160.1,54.8079,-2091.3,0,0
58420.4,54.5702,-2081.68,0,0
58680.7,54.3563,-2071.95,0,0
58941.1,54.333,-2062,0,0
59201.4,54.5502,-2052.46,0,0
59461.7,54.4088,-2043.38,0,0
59722,54.2515,-2033.94,0,0
59982.4,54.3733,-2024.64,0,0
60242.7,54.1336,-2015.41,0,0
60503,54.2533,-2006.18,0,0
60763.3,54.5806,-1997.54,0,0
61023.7,54.1405,-1988.98,0,0
61284,53.6547,-1980.04,0,0
61544.3,53.4254,-1971.03,0,0
61804.6,53.6631,-1962.17,0,0
62065,53.179,-1953.7,0,0
62325.3,52.842,-1944.97,0,0
62585.6,52.6593,-1936.01,0,0
62845.9,52.5538,-1927.24,0,0
63106.3,52.6934,-1918.68,0,0
63366.6,52.5685,-1910.29,0,0
63626.9,52.545,-1901.71,0,0
63887.2,52.6053,-1893.21,0,0
64147.6,52.7254,-1884.94,0,0
64407.9,52.8553,-1876.57,0,0
64668.2,53.0736,-1868.04,0,0
64928.5,53.5787,-1859.96,0,0
65188.9,54.094,-1852.27,0,0
65449.2,54.8861,-1844.68,0,0
65709.5,55.2445,-1837.53,0,0
65969.8,55.1587,-1830.49,0,0
66230.2,54.9608,-1823.26,0,0
66490.5,54.9352,-1815.95,0,0
66750.8,54.794,-1808.85,0,0
67011.1,54.4648,-1801.76,0,0
67271.5,53.7474,-1793.95,0,0
67531.8,54.1968,-1786.31,0,0
67792.1,54.5176,-1779.38,0,0
68052.4,54.2849,-1772.92,0,0
68312.8,53.729,-1765.85,0,0
68573.1,53.4484,-1758.6,0,0
68833.4,53.5109,-1751.37,0,0
69093.7,53.4841,-1744.91,0,0
69354.1,53.018,-1738.09,0,0
69614.4,52.8265,-1731.52,0,0
69874.7,52.118,-1724.76,0,0
70135,51.7885,-1717.96,0,0
70395.4,51.1554,-1710.93,0,0
70655.7,50.7966,-1703.86,0,0
70916,50.6926,-1696.92,0,0
71176.3,50.4554,-1690.11,0,0
71436.7,50.2497,-1683.5,0,0
71697,49.9621,-1677.11,0,0
71957.3,49.3247,-1670.28,0,0
72217.6,48.9149,-1663.5,0,0
72478,48.561,-1656.49,0,0
72738.3,48.3679,-1649.64,0,0
72998.6,48.4284,-1642.85,0,0
73258.9,48.4852,-1636.26,0,0
73519.3,48.3337,-1629.7,0,0
73779.6,48.2324,-1623.11,0,0
74039.9,48.2278,-1616.45,0,0
74300.225,48.4479,-1610.03,0,0
74560.55,48.3096,-1603.63,0,0
74820.875,48.5121,-1597.18,0,0
75081.2,48.6269,-1590.95,0,0
75341.525,48.6343,-1584.75,0,0
75601.85,48.6148,-1578.5,0,0
75862.175,48.7549,-1572.07,0,0
76122.5,49.0601,-1565.96,0,0
76382.825,49.3724,-1560.03,0,0
76643.15,49.5756,-1554.1,0,0
76903.475,49.6937,-1548.04,0,0
77163.8,49.9882,-1542.17,0,0
77424.125,50.195,-1536.41,0,0
77684.45,50.3779,-1530.68,0,0
77944.775,50.4805,-1524.88,0,0
78205.1,50.8333,-1518.94,0,0
78465.425,51.4106,-1513.36,0,0
78725.75,51.9113,-1508.22,0,0
78986.075,51.8867,-1503.09,0,0
79246.4,51.9085,-1497.93,0,0
79506.725,51.7518,-1492.7,0,0
79767.05,51.5268,-1487.4,0,0
80027.375,51.4878,-1482.02,0,0
80287.7,51.228,-1476.78,0,0
80548.025,50.845,-1471.23,0,0
80808.35,50.6636,-1465.57,0,0
81068.675,50.5098,-1460.01,0,0
81329.0,50.629,-1454.28,0,0
81589.325,50.8067,-1448.85,0,0
81849.65,50.9481,-1443.44,0,0
82109.975,51.0796,-1438.1,0,0
82370.3,51.1822,-1432.79,0,0
82630.625,51.1804,-1427.48,0,0
82890.95,51.3393,-1422.07,0,0
83151.275,51.6865,-1416.66,0,0
83411.6,52.0019,-1411.43,0,0
83671.925,52.2508,-1406.32,0,0
83932.25,52.5886,-1401.07,0,0
84192.575,52.9053,-1396.01,0,0
84452.9,53.2469,-1390.97,0,0
84713.225,53.6258,-1385.87,0,0
84973.55,54.0533,-1380.79,0,0
85233.875,54.6894,-1375.97,0,0
85494.2,55.2007,-1371.45,0,0
85754.525,55.3819,-1366.84,0,0
86014.85,55.643,-1362.17,0,0
86275.175,55.8559,-1357.55,0,0
86535.5,56.043,-1352.93,0,0
86795.825,56.2416,-1348.3,0,0
87056.15,56.2415,-1343.61,0,0
87316.475,56.5623,-1339.02,0,0
87576.8,56.7357,-1334.57,0,0
87837.125,56.6302,-1330.06,0,0
88097.45,56.3975,-1325.16,0,0
88357.775,56.4042,-1320.14,0,0
88618.1,56.836,-1315.04,0,0
88878.425,57.3377,-1310.25,0,0
89138.75,57.7372,-1305.34,0,0
89399.075,58.0842,-1300.64,0,0
89659.4,58.7129,-1295.68,0,0
89919.725,59.6696,-1290.94,0,0
90180,60.4482,-1286.52,0,0
90440.4,60.941,-1282.13,0,0
90700.7,61.6556,-1277.3,0,0
90961,62.6692,-1272.49,0,0
91221.3,64.0622,-1267.99,0,0
91481.7,65.5003,-1263.99,0,0
91742,66.9097,-1259.95,0,0
92002.3,67.998,-1256.42,0,0
92262.6,69.1124,-1252.5,0,0
92523,70.3701,-1248.7,0,0
92783.3,72.1755,-1245.14,0,0
93043.6,73.7932,-1242.29,0,0
93303.9,75.2776,-1239.67,0,0
93564.3,76.748,-1237.24,0,0
93824.6,78.6466,-1235.94,0,0
94084.9,78.6211,-1236.32,0,0
94345.2,76.2084,-1235.49,0,0
94605.6,73.5011,-1232.31,0,0
94865.9,72.5146,-1228.72,0,0
95126.2,70.9126,-1225.61,0,0
95386.5,69.6623,-1221.85,0,0
95646.9,68.3044,-1218.14,0,0
95907.2,66.9178,-1213.83,0,0
96167.5,66.2246,-1208.96,0,0
96427.8,66.4254,-1204.73,0,0
96688.2,66.0256,-1201.38,0,0
96948.5,65.1845,-1197.39,0,0
97208.8,64.5392,-1193.13,0,0
97469.1,64.2094,-1188.8,0,0
97729.5,64.089,-1184.44,0,0
97989.8,64.1024,-1180.29,0,0
98250.1,64.3152,-1176.32,0,0
98510.4,64.3519,-1172.6,0,0
98770.8,64.0886,-1168.99,0,0
99031.1,63.6686,-1164.96,0,0
99291.4,63.5857,-1160.93,0,0
99551.7,63.4187,-1156.93,0,0
99812.1,63.2282,-1152.71,0,0
100072,63.4221,-1148.67,0,0
100333,63.4596,-1144.82,0,0
100593,63.4421,-1140.79,0,0
100853,63.4918,-1136.82,0,0
101114,63.544,-1132.88,0,0
101374,63.5339,-1129.01,0,0
101634,63.4015,-1124.93,0,0
101895,63.2443,-1120.82,0,0
102155,63.0809,-1116.28,0,0
102415,63.2654,-1111.41,0,0
102676,64.123,-1106.5,0,0
102936,65.3513,-1102.17,0,0
103196,66.347,-1098.16,0,0
103457,67.3016,-1094.16,0,0
103717,68.3003,-1090.11,0,0
103977,69.5265,-1086.02,0,0
104238,71.1539,-1082.01,0,0
104498,72.8819,-1078.71,0,0
104758,74.1894,-1075.76,0,0
105019,75.1623,-1072.72,0,0
105279,76.0095,-1069.36,0,0
105539,77.1944,-1065.79,0,0
105800,78.5696,-1062.55,0,0
106060,80.0673,-1059.4,0,0
106320.175,81.6187,-1056.62,0,0
106580.5,83.0023,-1053.94,0,0
106840.825,84.3066,-1051.42,0,0
107101.15,85.471,-1048.78,0,0
107361.475,86.8947,-1046.31,0,0
107621.8,88.1612,-1044.35,0,0
107882.125,88.948,-1042.33,0,0
108142.45,89.757,-1040.05,0,0
108402.775,90.6281,-1037.74,0,0
108663.1,91.7543,-1035.62,0,0
108923.425,92.6136,-1033.78,0,0
109183.75,93.4643,-1031.94,0,0
109444.075,94.0949,-1030.42,0,0
109704.4,94.4154,-1029.04,0,0
109964.725,94.3243,-1027.5,0,0
110225.05,93.9905,-1025.65,0,0
110485.375,93.5254,-1023.46,0,0
110745.7,93.231,-1021.01,0,0
111006.025,93.3246,-1018.35,0,0
111266.35,93.5976,-1015.76,0,0
111526.675,94.0647,-1013.33,0,0
111787.0,94.6167,-1011.29,0,0
112047.325,94.9149,-1009.34,0,0
112307.65,95.3779,-1007.26,0,0
112567.975,95.66,-1005.37,0,0
112828.3,95.9028,-1003.69,0,0
113088.625,96.0075,-1001.98,0,0
113348.95,95.9352,-1000.34,0,0
113609.275,95.7912,-998.832,0,0
113869.6,95.4335,-997.34,0,0
114129.925,94.7558,-995.806,0,0
114390.25,94.014,-993.889,0,0
114650.575,93.346,-991.777,0,0
114910.9,92.6831,-989.933,0,0
115171.225,91.8386,-988.021,0,0
115431.55,90.9294,-986.003,0,0
115691.875,89.853,-983.875,0,0
115952.2,88.5786,-981.349,0,0
116212.525,87.6915,-978.712,0,0
116472.85,86.8539,-975.964,0,0
116733.175,86.0689,-973.319,0,0
116993.5,85.286,-970.628,0,0
117253.825,84.3348,-967.825,0,0
117514.15,83.4564,-964.813,0,0
117774.475,82.787,-961.732,0,0
118034.8,82.2406,-958.468,0,0
118295.125,81.9336,-955.404,0,0
118555.45,81.5275,-952.333,0,0
118815.775,81.1845,-949.146,0,0
119076.1,81.0269,-946,0,0
119336.425,80.9411,-942.946,0,0
119596.75,80.9957,-939.863,0,0
119857.075,81.1345,-936.871,0,0
120117.4,81.4355,-934.063,0,0
120377.725,81.6669,-931.329,0,0
120638.05,81.6629,-928.825,0,0
120898.375,81.7553,-926.488,0,0
121158.7,81.5051,-924.096,0,0
121419.025,81.2647,-921.522,0,0
121679.35,80.9869,-918.957,0,0
121939.675,80.5999,-916.356,0,0
122200.0,80.2113,-913.538,0,0
122460,79.9598,-910.705,0,0
122721,79.7017,-907.905,0,0
122981,79.434,-905.053,0,0
123241,79.1617,-902.116,0,0
123502,79.0212,-899.134,0,0
123762,78.8795,-896.128,0,0
124022,78.8157,-893.084,0,0
124283,78.8314,-890.072,0,0
124543,78.9385,-887.046,0,0
124803,79.1215,-884.136,0,0
125064,79.215,-881.203,0,0
125324,79.2754,-878.309,0,0
125584,79.5368,-875.285,0,0
125845,79.7784,-872.425,0,0
126105,79.9895,-869.575,0,0
126365,80.2061,-866.691,0,0
126626,80.5493,-863.846,0,0
126886,80.8338,-860.991,0,0
127146,81.0378,-858.179,0,0
127406,81.387,-855.264,0,0
127667,81.7127,-852.405,0,0
127927,82.0299,-849.512,0,0
128187,82.5845,-846.491,0,0
128448,83.088,-843.713,0,0
128708,83.5919,-841.028,0,0
128968,84.0155,-838.303,0,0
129229,84.4573,-835.426,0,0
129489,85.004,-832.506,0,0
129749,85.6116,-829.472,0,0
130010,86.606,-826.578,0,0
130270,87.6422,-823.815,0,0
130530,88.754,-821.248,0,0
130791,89.8173,-818.912,0,0
131051,90.8008,-816.628,0,0
131311,91.7541,-814.432,0,0
131572,92.6572,-812.358,0,0
131832,93.4438,-810.326,0,0
132092,94.1258,-808.348,0,0
132353,94.7251,-806.371,0,0
132613,95.2392,-804.3,0,0
132873,95.7771,-802.151,0,0
133134,96.3924,-799.996,0,0
133394,97.0144,-797.944,0,0
133654,97.5735,-795.906,0,0
133915,98.1155,-793.848,0,0
134175,98.6211,-791.859,0,0
134435,99.1089,-789.845,0,0
134696,99.3971,-787.762,0,0
134956,99.7993,-785.585,0,0
135216,100.278,-783.294,0,0
135477,100.847,-781.122,0,0
135737,101.424,-778.954,0,0
135997,101.982,-776.685,0,0
136258,102.74,-774.355,0,0
136518,103.619,-772.259,0,0
136778,104.512,-770.195,0,0
137039,105.414,-768.316,0,0
137299,106.295,-766.459,0,0
137559,107.367,-764.671,0,0
137819,108.407,-763.385,0,0
138080,109.021,-762.271,0,0
138340.125,109.398,-761.066,0,0
138600.45,109.575,-759.777,0,0
138860.775,109.536,-758.46,0,0
139121.1,109.38,-756.831,0,0
139381.425,109.39,-754.992,0,0
139641.75,109.534,-753.225,0,0
139902.075,109.551,-751.606,0,0
140162.4,109.383,-749.83,0,0
140422.725,109.249,-747.831,0,0
140683.05,109.237,-745.851,0,0
140943.375,109.2,-743.801,0,0
141203.7,109.206,-741.68,0,0
141464.025,109.329,-739.554,0,0
141724.35,109.379,-737.545,0,0
141984.675,109.334,-735.29,0,0
142245.0,109.53,-732.894,0,0
142505.325,109.938,-730.726,0,0
142765.65,110.174,-728.685,0,0
143025.975,110.365,-726.534,0,0
143286.3,110.547,-724.484,0,0
143546.625,110.651,-722.13,0,0
143806.95,110.93,-719.691,0,0
144067.275,111.455,-717.41,0,0
144327.6,111.864,-715.254,0,0
144587.925,112.22,-712.99,0,0
144848.25,112.749,-710.679,0,0
145108.575,113.343,-708.513,0,0
145368.9,113.95,-706.412,0,0
145629.225,114.53,-704.392,0,0
145889.55,115.034,-702.427,0,0
146149.875,115.441,-700.414,0,0
146410.2,115.843,-698.268,0,0
146670.525,116.418,-696.01,0,0
146930.85,117.313,-693.943,0,0
147191.175,118.065,-692.336,0,0
147451.5,118.332,-690.73,0,0
147711.825,118.488,-688.802,0,0
147972.15,118.738,-686.739,0,0
148232.475,119.079,-684.55,0,0
148492.8,119.624,-682.357,0,0
148753.125,120.224,-680.368,0,0
149013.45,120.758,-678.36,0,0
149273.775,121.421,-676.417,0,0
149534.1,122.1,-674.684,0,0
149794.425,122.595,-673.199,0,0
150054.75,122.739,-671.763,0,0
150315.075,122.615,-670.122,0,0
150575.4,122.45,-668.251,0,0
150835.725,122.197,-666.259,0,0
151096.05,121.801,-664.022,0,0
151356.375,121.629,-661.471,0,0
151616.7,121.636,-658.908,0,0
151877.025,121.687,-656.367,0,0
152137.35,121.722,-653.833,0,0
152397.675,121.595,-651.204,0,0
152658.0,121.417,-648.282,0,0
152918.325,121.434,-644.937,0,0
153178.65,121.927,-641.527,0,0
153438.975,122.602,-638.24,0,0
153699.3,123.347,-635.066,0,0
153959.625,124.124,-631.887,0,0
154219.95,124.998,-628.55,0,0
154480,126.013,-625.172,0,0
154741,127.243,-621.7,0,0
155001,128.816,-618.324,0,0
155261,130.359,-615.146,0,0
155522,131.951,-611.886,0,0
155782,133.868,-608.544,0,0
156042,136.016,-605.399,0,0
156303,138.284,-602.475,0,0
156563,140.516,-599.688,0,0
156823,142.83,-596.74,0,0
157084,145.588,-593.971,0,0
157344,148.609,-591.669,0,0
157604,151.447,-589.886,0,0
157864,153.83,-588.321,0,0
158125,155.956,-586.519,0,0
158385,158.213,-584.603,0,0
158645,160.495,-582.895,0,0
158906,162.457,-581.204,0,0
159166,164.232,-579.072,0,0
159426,166.249,-576.631,0,0
159687,168.668,-573.885,0,0
159947,171.715,-571.21,0,0
160207,175.197,-568.89,0,0
160468,178.752,-566.879,0,0
160728,182.645,-565.147,0,0
160988,186.738,-563.812,0,0
161249,190.993,-563.016,0,0
161509,195.21,-562.917,0,0
161769,198.909,-563.381,0,0
162030,202.07,-564.016,0,0
162290,204.754,-564.602,0,0
162550,207.213,-565.026,0,0
162811,209.552,-565.238,0,0
163071,212.08,-565.312,0,0
163331,214.654,-565.595,0,0
163592,217.212,-565.959,0,0
163852,219.7,-566.521,0,0
164112,221.966,-567.133,0,0
164373,224.178,-567.638,0,0
164633,226.481,-568.155,0,0
164893,228.866,-568.7,0,0
165154,231.45,-569.398,0,0
165414,234.037,-570.425,0,0
165674,236.651,-571.683,0,0
165935,239.278,-573.425,0,0
166195,241.619,-575.715,0,0
166455,243.327,-578.396,0,0
166716,244.379,-580.942,0,0
166976,245.226,-583.168,0,0
167236,246.147,-585.511,0,0
167497,246.63,-588.223,0,0
167757,246.606,-590.815,0,0
168017,246.274,-593.297,0,0
168277,245.452,-595.641,0,0
168538,244.361,-597.623,0,0
168798,243.086,-599.392,0,0
169058,241.62,-600.9,0,0
169319,240.056,-602.219,0,0
169579,238.17,-603.322,0,0
169839,236.129,-603.987,0,0
170100,234.071,-604.158,0,0
170360.075,232.138,-603.985,0,0
170620.4,230.443,-603.424,0,0
170880.725,229.086,-602.755,0,0
171141.05,227.948,-602.131,0,0
171401.375,226.829,-601.596,0,0
171661.7,225.637,-601.065,0,0
171922.025,224.345,-600.356,0,0
172182.35,223.145,-599.414,0,0
172442.675,222.122,-598.316,0,0
172703.0,221.281,-597.233,0,0
172963.325,220.447,-596.135,0,0
173223.65,219.723,-594.985,0,0
173483.975,219.056,-593.787,0,0
173744.3,218.466,-592.583,0,0
174004.625,217.923,-591.228,0,0
174264.95,217.614,-589.878,0,0
174525.275,217.397,-588.641,0,0
174785.6,217.232,-587.368,0,0
175045.925,217.2,-586.226,0,0
175306.25,217.105,-584.979,0,0
175566.575,217.359,-583.711,0,0
175826.9,217.883,-582.855,0,0
176087.225,218.226,-582.442,0,0
176347.55,218.219,-582.161,0,0
176607.875,218.003,-581.794,0,0
176868.2,217.613,-581.358,0,0
177128.525,217.148,-580.723,0,0
177388.85,216.794,-579.929,0,0
177649.175,216.735,-579.238,0,0
177909.5,216.73,-578.947,0,0
178169.825,216.234,-578.954,0,0
178430.15,215.343,-578.752,0,0
178690.475,214.328,-578.212,0,0
178950.8,213.392,-577.547,0,0
179211.125,212.429,-576.792,0,0
179471.45,211.532,-576.01,0,0
179731.775,210.67,-575.249,0,0
179992.1,209.681,-574.712,0,0
180252.425,208.336,-574.179,0,0
180512.75,206.597,-573.274,0,0
180773.075,205.017,-571.989,0,0
181033.4,203.447,-570.57,0,0
181293.725,201.84,-568.995,0,0
181554.05,200.363,-567.15,0,0
181814.375,199.085,-565.151,0,0
182074.7,197.951,-563.201,0,0
182335.025,196.846,-561.381,0,0
182595.35,195.533,-559.602,0,0
182855.675,194.017,-557.539,0,0
183116.0,192.557,-555.229,0,0
183376.325,191.105,-552.707,0,0
183636.65,189.802,-549.93,0,0
183896.975,188.637,-547.009,0,0
184157.3,187.612,-543.87,0,0
184417.625,186.857,-540.641,0,0
184677.95,186.208,-537.388,0,0
184938.275,185.688,-533.992,0,0
185198.6,185.535,-530.414,0,0
185458.925,185.757,-527.014,0,0
185719.25,186.003,-523.878,0,0
185979.575,186.198,-520.71,0,0
186239.9,186.586,-517.478,0,0
186500,187.164,-514.348,0,0
186761,187.769,-511.412,0,0
187021,188.217,-508.57,0,0
187281,188.714,-505.524,0,0
187542,189.416,-502.478,0,0
187802,190.26,-499.673,0,0
188062,191.022,-497.001,0,0
188322,191.577,-494.286,0,0
188583,192.044,-491.471,0,0
188843,192.58,-488.583,0,0
189103,193.244,-485.555,0,0
189364,193.855,-482.459,0,0
189624,194.715,-479.303,0,0
189884,195.699,-476.092,0,0
190145,196.73,-473.024,0,0
190405,197.704,-469.876,0,0
190665,198.868,-466.736,0,0
190926,200.06,-463.715,0,0
191186,201.083,-460.696,0,0
191446,202.243,-457.438,0,0
191707,203.425,-454.124,0,0
191967,204.824,-450.703,0,0
192227,206.385,-447.29,0,0
192488,208.127,-443.961,0,0
192748,209.818,-440.713,0,0
193008,211.568,-437.443,0,0
193269,213.462,-434.039,0,0
193529,215.455,-430.846,0,0
193789,217.369,-427.61,0,0
194050,219.337,-424.345,0,0
194310,221.379,-421.078,0,0
194570,223.355,-417.744,0,0
194831,225.584,-414.204,0,0
195091,227.881,-410.604,0,0
195351,230.382,-407.029,0,0
195612,233.006,-403.583,0,0
195872,235.707,-400.135,0,0
196132,238.39,-396.57,0,0
196393,241.238,-392.813,0,0
196653,244.478,-389.096,0,0
196913,247.893,-385.386,0,0
197174,251.501,-381.89,0,0
197434,255.195,-378.445,0,0
197694,259.063,-374.784,0,0
197955,263.188,-371.474,0,0
198215,267.521,-368.268,0,0
198475,271.951,-365.27,0,0
198735,276.323,-362.481,0,0
198996,280.774,-359.836,0,0
199256,284.978,-357.275,0,0
199516,289.185,-354.635,0,0
199777,293.321,-351.733,0,0
200037,297.535,-348.582,0,0
200297,302.135,-345.254,0,0
200558,307.006,-341.86,0,0
200818,312.237,-338.375,0,0
201078,317.899,-334.922,0,0
201339,323.946,-331.575,0,0
201599,330.34,-328.216,0,0
201859,337.356,-325.096,0,0
202120,344.639,-322.202,0,0
202380.025,352.419,-319.703,0,0
202640.35,360.6,-317.643,0,0
202900.675,368.897,-316.149,0,0
203161.0,377.238,-315.038,0,0
203421.325,385.635,-314.008,0,0
203681.65,394.479,-313.137,0,0
203941.975,403.766,-312.488,0,0
204202.3,413.717,-312.491,0,0
204462.625,424.03,-313.339,0,0
204722.95,434.661,-315.138,0,0
204983.275,445.394,-318.03,0,0
205243.6,455.701,-322.186,0,0
205503.925,465.321,-327.112,0,0
205764.25,474.331,-332.605,0,0
206024.575,482.765,-338.655,0,0
206284.9,490.687,-344.781,0,0
206545.225,498.278,-351.282,0,0
206805.55,505.671,-358.353,0,0
207065.875,512.453,-366.236,0,0
207326.2,518.144,-374.57,0,0
207586.525,522.846,-382.978,0,0
207846.85,526.731,-391.143,0,0
208107.175,530.129,-399.087,0,0
208367.5,533.121,-406.987,0,0
208627.825,535.661,-414.863,0,0
208888.15,537.603,-422.851,0,0
209148.475,538.771,-430.645,0,0
209408.8,539.34,-438.083,0,0
209669.125,539.558,-445.211,0,0
209929.45,539.197,-452.242,0,0
210189.775,538.025,-458.843,0,0
210450.1,536.309,-464.575,0,0
210710.425,534.436,-469.393,0,0
210970.75,532.688,-473.657,0,0
211231.075,530.876,-477.399,0,0
211491.4,529.056,-480.493,0,0
211751.725,527.357,-483.05,0,0
212012.05,525.711,-485.021,0,0
212272.375,524.225,-486.123,0,0
212532.7,523.589,-486.263,0,0
212793.025,524.279,-486.109,0,0
213053.35,526.069,-486.432,0,0
213313.675,528.391,-487.446,0,0
213574.0,530.863,-489.088,0,0
213834.325,533.268,-491.198,0,0
214094.65,535.433,-493.5,0,0
214354.975,537.534,-495.91,0,0
214615.3,539.834,-498.361,0,0
214875.625,542.013,-501.094,0,0
215135.95,544.073,-503.73,0,0
215396.275,546.266,-506.369,0,0
215656.6,548.736,-509.229,0,0
215916.925,551.107,-512.589,0,0
216177.25,552.902,-516.133,0,0
216437.575,554.297,-519.345,0,0
216697.9,555.663,-522.1,0,0
216958.225,557.221,-524.408,0,0
217218.55,559.212,-526.304,0,0
217478.875,562.167,-528.127,0,0
217739.2,565.787,-530.691,0,0
217999.525,569.363,-534.069,0,0
218259.85,572.721,-537.944,0,0
218520,575.585,-541.865,0,0
218780,578.462,-545.763,0,0
219041,581.498,-549.537,0,0
219301,584.799,-553.395,0,0
219561,588.437,-557.526,0,0
219822,592.096,-562.223,0,0
220082,595.823,-567.232,0,0
220342,599.447,-572.612,0,0
220603,603.005,-578.066,0,0
220863,606.874,-583.803,0,0
221123,610.962,-590.164,0,0
221384,614.963,-597.231,0,0
221644,618.741,-605.024,0,0
221904,622.14,-613.457,0,0
222165,625.082,-622.494,0,0
222425,627.279,-632.227,0,0
222685,628.822,-642.152,0,0
222946,629.624,-652.305,0,0
223206,629.694,-662.504,0,0
223466,629.144,-672.624,0,0
223727,628.028,-682.844,0,0
223987,626.336,-692.762,0,0
224247,624.25,-702.56,0,0
224508,621.704,-712.266,0,0
224768,618.823,-721.824,0,0
225028,615.661,-731.486,0,0
225289,611.986,-740.908,0,0
225549,608.058,-750.248,0,0
225809,603.913,-759.577,0,0
226070,599.181,-769.026,0,0
226330,593.812,-778.595,0,0
226590,587.815,-787.983,0,0
226851,580.88,-797.05,0,0
227111,573.296,-805.693,0,0
227371,565.443,-813.644,0,0
227632,556.976,-821.202,0,0
227892,548.185,-828.225,0,0
228152,538.961,-834.705,0,0
228413,529.333,-840.454,0,0
228673,519.483,-845.287,0,0
228933,509.703,-849.464,0,0
229193,499.872,-852.752,0,0
229454,490.354,-855.707,0,0
229714,480.959,-858.028,0,0
229974,471.672,-859.935,0,0
230235,462.6,-861.142,0,0
230495,453.637,-862.135,0,0
230755,444.923,-862.53,0,0
231016,436.618,-862.532,0,0
231276,428.665,-862.192,0,0
231536,421.144,-861.668,0,0
231797,413.84,-860.934,0,0
232057,406.867,-860.043,0,0
232317,400.265,-858.934,0,0
232578,393.99,-857.789,0,0
232838,388.03,-856.667,0,0
233098,382.341,-855.618,0,0
233359,376.887,-854.614,0,0
233619,371.438,-853.711,0,0
233879,366.149,-852.858,0,0
234140,360.739,-851.964,0,0
234400,355.547,-851.061,0,0
234660.3,350.219,-850.025,0,0
234920.625,345.125,-848.91,0,0
235180.95,340.17,-847.827,0,0
235441.275,335.275,-846.827,0,0
235701.6,330.376,-845.584,0,0
235961.925,325.489,-844.466,0,0
236222.25,320.592,-843.357,0,0
236482.575,315.74,-842.054,0,0
236742.9,310.813,-840.624,0,0
237003.225,306.063,-839.023,0,0
237263.55,301.351,-837.354,0,0
237523.875,296.789,-835.5,0,0
237784.2,292.487,-833.623,0,0
238044.525,288.37,-831.682,0,0
238304.85,284.358,-829.957,0,0
238565.175,280.346,-828.32,0,0
238825.5,276.148,-826.669,0,0
239085.825,271.988,-824.865,0,0
239346.15,267.741,-822.864,0,0
239606.475,263.634,-820.695,0,0
239866.8,259.755,-818.3,0,0
240127.125,256.03,-816.007,0,0
240387.45,252.445,-813.614,0,0
240647.775,249.035,-811.292,0,0
240908.1,245.603,-808.996,0,0
241168.425,242.3,-806.664,0,0
241428.75,239.02,-804.329,0,0
241689.075,235.841,-801.876,0,0
241949.4,232.761,-799.383,0,0
242209.725,229.874,-796.888,0,0
242470.05,227.09,-794.447,0,0
242730.375,224.407,-792.113,0,0
242990.7,221.714,-789.774,0,0
243251.025,219.093,-787.476,0,0
243511.35,216.562,-785.133,0,0
243771.675,214.018,-782.843,0,0
244032.0,211.576,-780.571,0,0
244292.325,209.137,-778.401,0,0
244552.65,206.796,-776.176,0,0
244812.975,204.242,-773.959,0,0
245073.3,201.856,-771.771,0,0
245333.625,199.479,-769.457,0,0
245593.95,197.195,-767.142,0,0
245854.275,194.914,-764.825,0,0
246114.6,192.66,-762.591,0,0
246374.925,190.391,-760.308,0,0
246635.25,188.095,-757.905,0,0
246895.575,185.849,-755.416,0,0
247155.9,183.746,-752.896,0,0
247416.225,181.696,-750.404,0,0
247676.55,179.733,-747.844,0,0
247936.875,177.879,-745.321,0,0
248197.2,176.021,-742.78,0,0
248457.525,174.364,-740.226,0,0
248717.85,172.642,-737.742,0,0
248978.175,170.956,-735.199,0,0
249238.5,169.514,-732.752,0,0
249498.825,167.878,-730.253,0,0
249759.15,166.444,-727.709,0,0
250019.475,165.022,-725.326,0,0
250279.8,163.658,-722.917,0,0
250540,162.3,-720.452,0,0
250800,160.905,-718.026,0,0
251061,159.529,-715.643,0,0
251321,158.299,-713.195,0,0
251581,157.077,-710.781,0,0
251842,155.88,-708.36,0,0
252102,154.679,-705.907,0,0
252362,153.498,-703.421,0,0
252623,152.44,-700.977,0,0
252883,151.371,-698.498,0,0
253143,150.343,-696.048,0,0
253404,149.328,-693.582,0,0
253664,148.369,-691.045,0,0
253924,147.423,-688.51,0,0
254185,146.605,-685.813,0,0
254445,145.916,-683.174,0,0
254705,145.283,-680.52,0,0
254966,144.823,-677.967,0,0
255226,144.49,-675.491,0,0
255486,144.113,-673.032,0,0
255747,143.82,-670.709,0,0
256007,143.451,-668.385,0,0
256267,143.121,-666.089,0,0
256528,142.842,-663.755,0,0
256788,142.557,-661.465,0,0
257048,142.34,-659.146,0,0
257309,142.148,-656.903,0,0
257569,141.953,-654.604,0,0
257829,141.779,-652.311,0,0
258090,141.658,-649.96,0,0
258350,141.614,-647.583,0,0
258610,141.684,-645.18,0,0
258871,141.818,-642.759,0,0
259131,142.136,-640.302,0,0
259391,142.576,-637.952,0,0
259651,143.092,-635.665,0,0
259912,143.702,-633.434,0,0
260172,144.48,-631.343,0,0
260432,145.301,-629.317,0,0
260693,146.182,-627.41,0,0
260953,147.111,-625.589,0,0
261213,148.041,-623.885,0,0
261474,149.076,-622.281,0,0
261734,150.115,-620.782,0,0
261994,151.147,-619.382,0,0
262255,152.141,-618.07,0,0
262515,153.171,-616.838,0,0
262775,154.207,-615.667,0,0
263036,155.235,-614.572,0,0
263296,156.305,-613.482,0,0
263556,157.292,-612.535,0,0
263817,158.432,-611.601,0,0
264077,159.592,-610.779,0,0
264337,160.737,-610.004,0,0
264598,161.983,-609.371,0,0
264858,163.229,-608.816,0,0
265118,164.586,-608.422,0,0
265379,165.983,-608.177,0,0
265639,167.381,-608.154,0,0
265899,168.798,-608.448,0,0
266160,170.077,-608.936,0,0
266420,171.204,-609.716,0,0
266680.25,172.151,-610.691,0,0
266940.575,172.849,-611.922,0,0
267200.9,173.254,-613.252,0,0
267461.225,173.335,-614.672,0,0
267721.55,173.091,-616.137,0,0
267981.875,172.578,-617.552,0,0
268242.2,171.763,-618.916,0,0
268502.525,170.61,-620.18,0,0
268762.85,169.198,-621.26,0,0
269023.175,167.54,-622.135,0,0
269283.5,165.701,-622.766,0,0
269543.825,163.778,-623.069,0,0
269804.15,161.721,-623.152,0,0
270064.475,159.654,-623.067,0,0
270324.8,157.652,-622.647,0,0
270585.125,155.546,-621.985,0,0
270845.45,153.497,-621.086,0,0
271105.775,151.637,-620.005,0,0
271366.1,149.838,-618.764,0,0
271626.425,148.236,-617.326,0,0
271886.75,146.721,-615.743,0,0
272147.075,145.362,-614.084,0,0
272407.4,144.169,-612.359,0,0
272667.725,143.116,-610.55,0,0
272928.05,142.256,-608.717,0,0
273188.375,141.522,-606.827,0,0
273448.7,140.997,-604.972,0,0
273709.025,140.601,-603.174,0,0
273969.35,140.346,-601.451,0,0
274229.675,140.184,-599.839,0,0
274490.0,140.037,-598.232,0,0
274750.325,139.923,-596.731,0,0
275010.65,139.839,-595.214,0,0
275270.975,139.91,-593.734,0,0
275531.3,140.019,-592.37,0,0
275791.625,140.122,-591.005,0,0
276051.95,140.233,-589.703,0,0
276312.275,140.379,-588.388,0,0
276572.6,140.616,-587.065,0,0
276832.925,140.956,-585.775,0,0
277093.25,141.394,-584.59,0,0
277353.575,141.952,-583.492,0,0
277613.9,142.52,-582.596,0,0
277874.225,143.085,-581.842,0,0
278134.55,143.542,-581.196,0,0
278394.875,143.954,-580.578,0,0
278655.2,144.331,-580.01,0,0
278915.525,144.708,-579.486,0,0
279175.85,145.071,-579.055,0,0
279436.175,145.393,-578.701,0,0
279696.5,145.609,-578.422,0,0
279956.825,145.825,-578.188,0,0
280217.15,145.958,-577.937,0,0
280477.475,146.044,-577.746,0,0
280737.8,146.086,-577.583,0,0
280998.125,146.066,-577.502,0,0
281258.45,145.964,-577.477,0,0
281518.775,145.736,-577.477,0,0
281779.1,145.382,-577.485,0,0
282039.425,144.873,-577.423,0,0
282299.75,144.259,-577.262,0,0
282560,143.605,-576.986,0,0
282820,142.991,-576.619,0,0
283081,142.338,-576.254,0,0
283341,141.651,-575.846,0,0
283601,140.883,-575.367,0,0
283862,140.089,-574.771,0,0
284122,139.347,-574.08,0,0
284382,138.634,-573.32,0,0
284643,137.988,-572.553,0,0
284903,137.402,-571.764,0,0
285163,136.791,-570.991,0,0
285424,136.169,-570.243,0,0
285684,135.537,-569.458,0,0
285944,134.866,-568.639,0,0
286205,134.148,-567.785,0,0
286465,133.322,-566.877,0,0
286725,132.487,-565.795,0,0
286986,131.713,-564.563,0,0
287246,130.996,-563.248,0,0
287506,130.345,-561.868,0,0
287767,129.711,-560.358,0,0
288027,129.197,-558.69,0,0
288287,128.877,-556.879,0,0
288548,128.765,-555.027,0,0
288808,128.961,-553.154,0,0
289068,129.413,-551.402,0,0
289329,130.005,-550.021,0,0
289589,130.614,-548.709,0,0
289849,131.197,-547.549,0,0
290109,131.857,-546.459,0,0
290370,132.548,-545.538,0,0
290630,133.175,-544.803,0,0
290890,133.732,-544.15,0,0
291151,134.15,-543.548,0,0
291411,134.534,-543.001,0,0
291671,134.854,-542.444,0,0
291932,135.121,-541.961,0,0
292192,135.321,-541.497,0,0
292452,135.431,-541.069,0,0
292713,135.418,-540.653,0,0
292973,135.283,-540.203,0,0
293233,135.053,-539.686,0,0
293494,134.667,-539.028,0,0
293754,134.246,-538.2,0,0
294014,133.832,-537.168,0,0
294275,133.506,-535.959,0,0
294535,133.25,-534.617,0,0
294795,133.177,-533.127,0,0
295056,133.294,-531.61,0,0
295316,133.564,-530.092,0,0
295576,134.022,-528.579,0,0
295837,134.604,-527.118,0,0
296097,135.3,-525.719,0,0
296357,136.15,-524.389,0,0
296618,137.081,-523.196,0,0
296878,138.056,-522.098,0,0
297138,139.054,-521.114,0,0
297399,140.056,-520.21,0,0
297659,141.066,-519.361,0,0
297919,142.098,-518.56,0,0
298180,143.139,-517.833,0,0
298440,144.216,-517.129,0,0
298700.2,145.317,-516.488,0,0
298960.525,146.414,-515.949,0,0
299220.85,147.571,-515.502,0,0
299481.175,148.731,-515.068,0,0
299741.5,149.769,-514.68,0,0
300001.825,150.906,-514.381,0,0
300262.15,151.864,-514.046,0,0
300522.475,152.956,-513.784,0,0
300782.8,154.065,-513.496,0,0
301043.125,155.187,-513.185,0,0
301303.45,156.42,-512.971,0,0
301563.775,157.749,-512.826,0,0
301824.1,158.98,-512.823,0,0
302084.425,160.341,-512.855,0,0
302344.75,161.708,-512.991,0,0
302605.075,163.062,-513.262,0,0
302865.4,164.495,-513.693,0,0
303125.725,165.769,-514.366,0,0
303386.05,166.932,-515.024,0,0
303646.375,167.934,-515.852,0,0
303906.7,168.93,-516.567,0,0
304167.025,169.873,-517.359,0,0
304427.35,170.825,-518.196,0,0
304687.675,171.677,-519.076,0,0
304948.0,172.408,-520.036,0,0
305208.325,173.053,-520.94,0,0
305468.65,173.742,-521.896,0,0
305728.975,174.339,-522.806,0,0
305989.3,174.99,-523.845,0,0
306249.625,175.613,-524.903,0,0
306509.95,176.328,-526.005,0,0
306770.275,176.92,-527.208,0,0
307030.6,177.353,-528.542,0,0
307290.925,177.657,-530.002,0,0
307551.25,177.89,-531.501,0,0
307811.575,178.109,-532.959,0,0
308071.9,178.06,-534.447,0,0
308332.225,177.927,-535.986,0,0
308592.55,177.679,-537.393,0,0
308852.875,177.204,-538.84,0,0
309113.2,176.701,-540.069,0,0
309373.525,176.181,-541.339,0,0
309633.85,175.625,-542.432,0,0
309894.175,175.223,-543.551,0,0
310154.5,174.824,-544.825,0,0
310414.825,174.345,-545.901,0,0
310675.15,173.755,-547.187,0,0
310935.475,173.251,-548.563,0,0
311195.8,172.502,-549.835,0,0
311456.125,171.763,-551.2,0,0
311716.45,170.87,-552.647,0,0
311976.775,169.751,-554.024,0,0
312237.1,168.615,-555.416,0,0
312497.425,167.191,-556.661,0,0
312757.75,165.749,-557.748,0,0
313018.075,164.122,-558.765,0,0
313278.4,162.522,-559.622,0,0
313538.725,160.905,-560.335,0,0
313799.05,159.27,-560.938,0,0
314059.375,157.656,-561.462,0,0
314319.7,156.065,-561.872,0,0
314580,154.469,-562.352,0,0
314840,152.849,-562.594,0,0
315101,151.437,-562.783,0,0
315361,149.791,-563.105,0,0
315621,148.371,-563.26,0,0
315882,146.83,-563.476,0,0
316142,145.355,-563.645,0,0
316402,143.823,-563.765,0,0
316663,142.22,-563.889,0,0
316923,140.678,-563.86,0,0
317183,139.029,-563.846,0,0
317444,137.488,-563.71,0,0
317704,135.922,-563.618,0,0
317964,134.27,-563.456,0,0
318225,132.671,-563.185,0,0
318485,131.005,-562.763,0,0
318745,129.42,-562.332,0,0
319006,127.939,-561.855,0,0
319266,126.363,-561.352,0,0
319526,124.934,-560.898,0,0
319787,123.447,-560.237,0,0
320047,121.906,-559.641,0,0
320307,120.541,-558.903,0,0
320567,119.134,-558.234,0,0
320828,117.81,-557.406,0,0
321088,116.555,-556.622,0,0
321348,115.271,-555.743,0,0
321609,114.077,-554.858,0,0
321869,112.82,-553.99,0,0
322129,111.683,-553.093,0,0
322390,110.554,-552.054,0,0
322650,109.35,-551.104,0,0
322910,108.263,-549.976,0,0
323171,107.318,-548.897,0,0
323431,106.382,-547.71,0,0
323691,105.501,-546.481,0,0
323952,104.836,-545.298,0,0
324212,104.231,-544.2,0,0
324472,103.686,-543.025,0,0
324733,103.114,-541.951,0,0
324993,102.637,-540.901,0,0
325253,102.318,-539.966,0,0
325514,101.839,-539.017,0,0
325774,101.557,-538.096,0,0
326034,101.168,-537.256,0,0
326295,100.826,-536.366,0,0
326555,100.559,-535.525,0,0
326815,100.18,-534.756,0,0
327076,100.007,-533.972,0,0
327336,99.7011,-533.261,0,0
327596,99.496,-532.581,0,0
327857,99.1451,-531.848,0,0
328117,98.982,-531.276,0,0
328377,98.7656,-530.73,0,0
328638,98.5561,-530.229,0,0
328898,98.314,-529.676,0,0
329158,98.0443,-529.194,0,0
329419,97.807,-528.799,0,0
329679,97.5753,-528.449,0,0
329939,97.2651,-528.123,0,0
330200,96.8566,-527.784,0,0
330460,96.4244,-527.5,0,0
330720.15,96.0371,-527.222,0,0
330980.475,95.5113,-526.92,0,0
331240.8,95.0479,-526.629,0,0
331501.125,94.4669,-526.294,0,0
331761.45,93.8572,-525.937,0,0
332021.775,93.2594,-525.603,0,0
332282.1,92.6425,-525.258,0,0
332542.425,92.0436,-524.894,0,0
332802.75,91.4293,-524.476,0,0
333063.075,90.7842,-524.091,0,0
333323.4,90.1303,-523.702,0,0
333583.725,89.3935,-523.363,0,0
333844.05,88.6393,-522.867,0,0
334104.375,88.0066,-522.46,0,0
334364.7,87.277,-521.933,0,0
334625.025,86.4965,-521.453,0,0
334885.35,85.7456,-520.817,0,0
335145.675,84.974,-520.336,0,0
335406.0,84.198,-519.752,0,0
335666.325,83.4652,-519.192,0,0
335926.65,82.6884,-518.548,0,0
336186.975,81.9181,-517.893,0,0
336447.3,81.1873,-517.147,0,0
336707.625,80.4522,-516.46,0,0
336967.95,79.726,-515.718,0,0
337228.275,79.0643,-514.951,0,0
337488.6,78.3734,-514.205,0,0
337748.925,77.7854,-513.451,0,0
338009.25,77.0825,-512.624,0,0
338269.575,76.4922,-511.881,0,0
338529.9,75.8523,-511.081,0,0
338790.225,75.2248,-510.286,0,0
339050.55,74.651,-509.448,0,0
339310.875,74.0804,-508.62,0,0
339571.2,73.5282,-507.794,0,0
339831.525,72.9705,-506.948,0,0
340091.85,72.4965,-506.086,0,0
340352.175,71.9246,-505.273,0,0
340612.5,71.4476,-504.402,0,0
340872.825,71.006,-503.637,0,0
341133.15,70.4649,-502.713,0,0
341393.475,70.0339,-501.907,0,0
341653.8,69.6072,-501.081,0,0
341914.125,69.0921,-500.256,0,0
342174.45,68.7356,-499.406,0,0
342434.775,68.2696,-498.577,0,0
342695.1,67.8173,-497.753,0,0
342955.425,67.4487,-496.968,0,0
343215.75,67.0337,-496.146,0,0
343476.075,66.6117,-495.278,0,0
343736.4,66.1965,-494.499,0,0
343996.725,65.8259,-493.69,0,0
344257.05,65.3538,-492.837,0,0
344517.375,64.9633,-492.019,0,0
344777.7,64.5332,-491.138,0,0
345038.025,64.1459,-490.371,0,0
345298.35,63.7615,-489.465,0,0
345558.675,63.3147,-488.588,0,0
345819.0,62.9524,-487.731,0,0
346079.325,62.5446,-486.859,0,0
346339.65,62.1979,-485.922,0,0
346599.975,61.8147,-485.06,0,0
346860,61.5133,-484.141,0,0
347121,61.1302,-483.269,0,0
347381,60.8413,-482.337,0,0
347641,60.4666,-481.359,0,0
347902,60.2316,-480.43,0,0
348162,59.941,-479.521,0,0
348422,59.6764,-478.538,0,0
348683,59.4921,-477.579,0,0
348943,59.2726,-476.599,0,0
349203,59.0884,-475.645,0,0
349464,58.842,-474.701,0,0
349724,58.7231,-473.797,0,0
349984,58.5821,-472.872,0,0
350245,58.4084,-472.009,0,0
350505,58.3105,-471.125,0,0
350765,58.1854,-470.184,0,0
351025,58.0959,-469.307,0,0
351286,58.0119,-468.42,0,0
351546,57.9378,-467.508,0,0
351806,57.8338,-466.699,0,0
352067,57.7708,-465.817,0,0
352327,57.7773,-465,0,0
352587,57.7398,-464.253,0,0
352848,57.6558,-463.443,0,0
353108,57.5571,-462.618,0,0
353368,57.4904,-461.824,0,0
353629,57.4223,-461.016,0,0
353889,57.3674,-460.199,0,0
354149,57.2797,-459.455,0,0
354410,57.1876,-458.634,0,0
354670,57.1374,-457.793,0,0
354930,57.0194,-457.038,0,0
355191,56.9567,-456.204,0,0
355451,56.904,-455.369,0,0
355711,56.8768,-454.535,0,0
355972,56.9062,-453.713,0,0
356232,56.9072,-452.905,0,0
356492,56.9001,-452.103,0,0
356753,56.8998,-451.298,0,0
357013,56.9735,-450.526,0,0
357273,57.0337,-449.728,0,0
357534,57.0956,-448.932,0,0
357794,57.1596,-448.244,0,0
358054,57.2205,-447.49,0,0
358315,57.2356,-446.792,0,0
358575,57.2677,-446.082,0,0
358835,57.3224,-445.378,0,0
359096,57.3245,-444.662,0,0
359356,57.3351,-443.888,0,0
359616,57.4257,-443.142,0,0
359877,57.4107,-442.457,0,0
360137,57.4943,-441.698,0,0
360397,57.5763,-441.031,0,0
360658,57.6277,-440.306,0,0
360918,57.6856,-439.613,0,0
361178,57.8195,-438.923,0,0
361438,57.8966,-438.308,0,0
361699,57.899,-437.604,0,0
361959,57.9294,-436.963,0,0
362219,57.9818,-436.293,0,0
362480,58.0032,-435.57,0,0
362740.1,58.0601,-434.88,0,0
363000.425,58.1365,-434.167,0,0
363260.75,58.2343,-433.492,0,0
363521.075,58.2665,-432.82,0,0
363781.4,58.3278,-432.09,0,0
364041.725,58.4069,-431.415,0,0
364302.05,58.5078,-430.737,0,0
364562.375,58.6045,-430.088,0,0
364822.7,58.6786,-429.381,0,0
365083.025,58.7934,-428.72,0,0
365343.35,58.8735,-428.078,0,0
365603.675,58.9245,-427.392,0,0
365864.0,59.0272,-426.723,0,0
366124.325,59.0857,-426.049,0,0
366384.65,59.1892,-425.372,0,0
366644.975,59.2864,-424.694,0,0
366905.3,59.3173,-424.008,0,0
367165.625,59.3579,-423.357,0,0
367425.95,59.4277,-422.663,0,0
367686.275,59.4302,-421.924,0,0
367946.6,59.4865,-421.18,0,0
368206.925,59.5239,-420.396,0,0
368467.25,59.5509,-419.492,0,0
368727.575,59.6554,-418.607,0,0
368987.9,59.7963,-417.663,0,0
369248.225,59.9828,-416.728,0,0
369508.55,60.272,-415.734,0,0
369768.875,60.5707,-414.811,0,0
370029.2,60.9751,-413.814,0,0
370289.525,61.4709,-412.888,0,0
370549.85,62.0482,-411.997,0,0
370810.175,62.5998,-411.186,0,0
371070.5,63.2327,-410.405,0,0
371330.825,63.8924,-409.694,0,0
371591.15,64.5555,-409.014,0,0
371851.475,65.24,-408.41,0,0
372111.8,65.9407,-407.827,0,0
372372.125,66.6348,-407.295,0,0
372632.45,67.3029,-406.863,0,0
372892.775,67.9853,-406.373,0,0
373153.1,68.6792,-405.976,0,0
373413.425,69.4039,-405.636,0,0
373673.75,70.0771,-405.316,0,0
373934.075,70.7616,-405.088,0,0
374194.4,71.5038,-404.865,0,0
374454.725,72.1433,-404.679,0,0
374715.05,72.7189,-404.535,0,0
374975.375,73.3057,-404.539,0,0
375235.7,73.8801,-404.476,0,0
375496.025,74.3693,-404.427,0,0
375756.35,74.8552,-404.407,0,0
376016.675,75.2504,-404.399,0,0
376277.0,75.6409,-404.409,0,0
376537.325,76.0002,-404.381,0,0
376797.65,76.3965,-404.35,0,0
377057.975,76.7286,-404.305,0,0
377318.3,77.0706,-404.252,0,0
377578.625,77.43,-404.223,0,0
377838.95,77.7841,-404.244,0,0
378099.275,78.0937,-404.234,0,0
378359.6,78.4295,-404.29,0,0
378619.925,78.6815,-404.315,0,0
378880,78.9733,-404.336,0,0
379141,79.1984,-404.344,0,0
379401,79.4458,-404.375,0,0
379661,79.6749,-404.401,0,0
379922,79.9066,-404.409,0,0
380182,80.1563,-404.409,0,0
380442,80.4516,-404.394,0,0
380703,80.7728,-404.387,0,0
380963,81.1146,-404.468,0,0
381223,81.5257,-404.601,0,0
381483,81.8981,-404.927,0,0
381744,82.251,-405.169,0,0
382004,82.5227,-405.576,0,0
382264,82.6731,-406.036,0,0
382525,82.7786,-406.513,0,0
382785,82.7744,-407.014,0,0
383045,82.7309,-407.466,0,0
383306,82.5778,-407.922,0,0
383566,82.397,-408.371,0,0
383826,82.0985,-408.786,0,0
384087,81.7663,-409.207,0,0
384347,81.4207,-409.549,0,0
384607,80.9728,-409.872,0,0
384868,80.4854,-410.16,0,0
385128,79.9604,-410.366,0,0
385388,79.4464,-410.513,0,0
385649,78.9279,-410.635,0,0
385909,78.3122,-410.721,0,0
386169,77.749,-410.754,0,0
386430,77.1445,-410.771,0,0
386690,76.5332,-410.737,0,0
386950,75.8724,-410.644,0,0
387211,75.2224,-410.463,0,0
387471,74.6097,-410.264,0,0
387731,73.9721,-409.991,0,0
387992,73.3835,-409.649,0,0
388252,72.8228,-409.297,0,0
388512,72.3355,-408.883,0,0
388773,71.8561,-408.442,0,0
389033,71.4166,-408.01,0,0
389293,71.0486,-407.53,0,0
389554,70.7073,-407.074,0,0
389814,70.4037,-406.659,0,0
390074,70.1434,-406.237,0,0
390335,69.846,-405.853,0,0
390595,69.5733,-405.455,0,0
390855,69.3408,-405.116,0,0
391116,69.128,-404.811,0,0
391376,68.8935,-404.521,0,0
391636,68.6067,-404.245,0,0
391896,68.2971,-403.868,0,0
392157,67.9661,-403.59,0,0
392417,67.6483,-403.309,0,0
392677,67.3365,-403.041,0,0
392938,66.9699,-402.751,0,0
393198,66.55,-402.471,0,0
393458,66.1721,-402.171,0,0
393719,65.7358,-401.846,0,0
393979,65.3053,-401.457,0,0
394239,64.8064,-401.028,0,0
394500,64.3191,-400.627,0,0
394760.05,63.8902,-400.146,0,0
395020.375,63.4244,-399.674,0,0
395280.7,62.9735,-399.142,0,0
395541.025,62.5391,-398.562,0,0
395801.35,62.1308,-397.984,0,0
396061.675,61.7117,-397.396,0,0
396322.0,61.3613,-396.762,0,0
396582.325,60.9563,-396.116,0,0
396842.65,60.6666,-395.458,0,0
397102.975,60.3558,-394.805,0,0
397363.3,60.0662,-394.162,0,0
397623.625,59.7798,-393.461,0,0
397883.95,59.5341,-392.828,0,0
398144.275,59.297,-392.192,0,0
398404.6,59.0721,-391.474,0,0
398664.925,58.8365,-390.795,0,0
398925.25,58.6141,-390.145,0,0
399185.575,58.4143,-389.453,0,0
399445.9,58.2104,-388.774,0,0
399706.225,58.0208,-388.103,0,0
399966.55,57.8385,-387.349,0,0
400006.6,57.7921,-387.286,0,0