File: Accelerated corrosion test data/2025-10-09_18-00-04/sample_7.csv
Frequency (Hz),Impedance (ohms),Phase (Radians),Temperature (C),Humidity (%)
10000.0,274.934,-12078.2,0,0
10260.325,268.779,-11787.4,0,0
10520.65,258.247,-11489.6,0,0
10780.975,254.03,-11208.7,0,0
11041.3,250.968,-10941.7,0,0
11301.625,247.817,-10686.1,0,0
11561.95,251.957,-10437.1,0,0
11822.275,261.498,-10206,0,0
12082.6,272.6,-9978.9,0,0
12342.925,311.684,-9838.04,0,0
12603.25,258.502,-9628.45,0,0
12863.575,264.723,-9457.45,0,0
13123.9,236.468,-9264.75,0,0
13384.225,226.711,-9090.18,0,0
13644.55,224.71,-8914.83,0,0
13904.875,210.794,-8740.88,0,0
14165.2,214.366,-8569.92,0,0
14425.525,203.846,-8430.57,0,0
14685.8,203.7,-8282.05,0,0
14946.175,199.78,-8136.32,0,0
15206.5,194.898,-8006.67,0,0
15466.825,187.694,-7863.59,0,0
15727.15,182.888,-7735.54,0,0
15987.5,180.955,-7605.28,0,0
16247.8,177.403,-7488.38,0,0
16508.125,172.033,-7365.32,0,0
16768.45,172.513,-7247.64,0,0
17028.775,171.199,-7137.3,0,0
17289.1,166.414,-7028.15,0,0
17549.425,166.244,-6919.65,0,0
17809.75,172.95,-6811.51,0,0
18070.075,169.788,-6713.17,0,0
18330.4,182.274,-6608.47,0,0
18590.725,202.399,-6529.39,0,0
18851.05,194.179,-6452.73,0,0
19111.375,181.788,-6367.88,0,0
19371.7,201.329,-6307.42,0,0
19632.025,166.991,-6227.45,0,0
19892.35,159.584,-6127.45,0,0
20152.675,169.038,-6050.06,0,0
20413.0,168.108,-5977.44,0,0
20673.3,171.569,-5896.67,0,0
20933.65,178.601,-5840.93,0,0
21193.975,161.13,-5774.72,0,0
21454.3,152.89,-5700.23,0,0
21714.625,155.899,-5635.77,0,0
21974.9,146.089,-5571.27,0,0
22235.275,141.683,-5502.71,0,0
22495.6,139.755,-5440.22,0,0
22755.925,134.629,-5376.17,0,0
23016.25,130.635,-5312.69,0,0
23276.6,129.246,-5249.82,0,0
23536.9,130.427,-5190.2,0,0
23797.225,128.068,-5135.06,0,0
24057.55,125.018,-5077.27,0,0
24317.875,123.616,-5019.82,0,0
24578.2,123.863,-4965.87,0,0
24838.525,123.125,-4912.87,0,0
25098.85,121.965,-4860.13,0,0
25359.175,120.489,-4808.78,0,0
25619.5,119.393,-4756.3,0,0
25879.8,118.937,-4706.45,0,0
26140.1,120.958,-4654.45,0,0
26400.5,124.858,-4608.47,0,0
26660.8,122.481,-4561.51,0,0
26921.1,124.022,-4511.63,0,0
27181.4,129.664,-4464.98,0,0
27441.8,133.603,-4417.34,0,0
27702.1,145.1,-4372.12,0,0
27962.4,162.728,-4330.57,0,0
28222.7,180.365,-4309.71,0,0
28483.1,180.426,-4287.6,0,0
28743.4,174.56,-4271.89,0,0
29003.7,159.124,-4243.32,0,0
29264,144.066,-4205.8,0,0
29524.4,137.022,-4165.07,0,0
29784.7,130.076,-4127.46,0,0
30045,129.694,-4083.45,0,0
30305.3,132.678,-4048.59,0,0
30565.7,133.463,-4015.15,0,0
30826,133.96,-3983.46,0,0
31086.3,135.701,-3955.33,0,0
31346.6,133.331,-3925.84,0,0
31607,128.59,-3901.66,0,0
31867.3,122.151,-3869.21,0,0
32127.6,117.912,-3837.98,0,0
32387.9,114.796,-3807.43,0,0
32648.3,110.748,-3777.18,0,0
32908.6,108.105,-3746.67,0,0
33168.9,105.082,-3717.04,0,0
33429.2,101.851,-3687.11,0,0
33689.6,99.5455,-3657.06,0,0
33949.9,98.1468,-3628.24,0,0
34210.2,95.9441,-3599.4,0,0
34470.5,94.1467,-3570.73,0,0
34730.9,93.0879,-3542.78,0,0
34991.2,91.712,-3515.3,0,0
35251.5,90.7555,-3487.79,0,0
35511.8,89.9934,-3460.99,0,0
35772.2,89.613,-3434.77,0,0
36032.5,89.0588,-3408.94,0,0
36292.8,88.2614,-3384.27,0,0
36553.1,87.5941,-3359.13,0,0
36813.5,86.778,-3333.97,0,0
37073.8,86.7617,-3309.69,0,0
37334.1,86.572,-3285.35,0,0
37594.4,86.3603,-3262.03,0,0
37854.8,85.7914,-3238.55,0,0
38115.1,85.5586,-3214.6,0,0
38375.4,86.1813,-3191.64,0,0
38635.7,86.8045,-3168.51,0,0
38896.1,88.7297,-3146.25,0,0
39156.4,90.2615,-3124.73,0,0
39416.7,93.1311,-3103.51,0,0
39677,96.5497,-3085.32,0,0
39937.4,97.6183,-3068.55,0,0
40197.7,97.8566,-3052.75,0,0
40458,95.1006,-3036.52,0,0
40718.3,92.6896,-3018.81,0,0
40978.7,89.8407,-3000.2,0,0
41239,87.2214,-2981.02,0,0
41499.3,85.4512,-2961.6,0,0
41759.6,84.1862,-2943.04,0,0
42020,82.4825,-2924.03,0,0
42280.275,81.0722,-2904.33,0,0
42540.6,80.6943,-2885.01,0,0
42800.925,81.0963,-2867.13,0,0
43061.25,81.0912,-2848.93,0,0
43321.575,80.9797,-2832.6,0,0
43581.9,79.8143,-2814.66,0,0
43842.225,79.993,-2796.45,0,0
44102.55,80.9694,-2778.97,0,0
44362.875,82.5036,-2764.11,0,0
44623.2,82.5883,-2748.81,0,0
44883.525,81.4459,-2734.02,0,0
45143.85,80.8478,-2718.88,0,0
45404.175,79.2476,-2702.75,0,0
45664.5,80.6017,-2686.64,0,0
45924.825,81.1229,-2673.76,0,0
46185.15,80.0186,-2660.45,0,0
46445.475,77.7388,-2646.75,0,0
46705.8,74.889,-2631.65,0,0
46966.125,73.0371,-2616.16,0,0
47226.45,72.0174,-2600.27,0,0
47486.775,71.6286,-2585.26,0,0
47747.1,71.477,-2570.51,0,0
48007.425,70.7582,-2556.1,0,0
48267.75,70.5166,-2542.29,0,0
48528.075,69.5867,-2528.04,0,0
48788.4,69.1001,-2514.25,0,0
49048.725,68.391,-2500.19,0,0
49309.05,68.0686,-2486.46,0,0
49569.375,67.5967,-2472.93,0,0
49829.7,67.2864,-2459.54,0,0
50090.025,66.8241,-2446.36,0,0
50350.35,66.6022,-2433.24,0,0
50610.675,66.1104,-2420.2,0,0
50871.0,65.7894,-2407.51,0,0
51131.325,65.6488,-2394.71,0,0
51391.65,65.1984,-2382.13,0,0
51651.975,64.8627,-2369.68,0,0
51912.3,64.5648,-2357.28,0,0
52172.625,64.4504,-2345.15,0,0
52432.95,64.1834,-2333,0,0
52693.275,64.0821,-2321.03,0,0
52953.6,64.0709,-2309.19,0,0
53213.925,64.0661,-2297.79,0,0
53474.25,63.5641,-2286.38,0,0
53734.575,63.2664,-2274.95,0,0
53994.9,62.9495,-2263.51,0,0
54255.225,62.7837,-2252.38,0,0
54515.55,62.4146,-2241.35,0,0
54775.875,62.1547,-2230.34,0,0
55036.2,61.9103,-2219.25,0,0
55296.525,61.7232,-2208.42,0,0
55556.85,61.4832,-2197.68,0,0
55817.175,61.3768,-2186.89,0,0
56077.5,61.1299,-2176.34,0,0
56337.825,61.0719,-2165.93,0,0
56598.15,60.8438,-2155.77,0,0
56858.475,60.7211,-2145.42,0,0
57118.8,60.499,-2135.21,0,0
57379.125,60.2362,-2125.14,0,0
57639.45,60.0462,-2115.24,0,0
57899.775,59.9208,-2104.97,0,0
58160.1,60.0301,-2095.06,0,0
58420.4,60.4509,-2085.3,0,0
58680.7,60.3096,-2076.07,0,0
58941.1,60.0975,-2066.69,0,0
59201.4,59.9,-2056.99,0,0
59461.7,60.301,-2047.57,0,0
59722,60.4159,-2038.87,0,0
59982.4,60.2957,-2029.83,0,0
60242.7,60.3828,-2021.16,0,0
60503,60.0465,-2012.55,0,0
60763.3,59.6864,-2003.87,0,0
61023.7,59.289,-1995.23,0,0
61284,58.8987,-1986.47,0,0
61544.3,58.524,-1977.98,0,0
61804.6,57.9367,-1969.28,0,0
62065,57.5102,-1960.52,0,0
62325.3,57.2323,-1951.89,0,0
62585.6,57.0038,-1943.32,0,0
62845.9,56.5324,-1934.87,0,0
63106.3,56.4323,-1926.34,0,0
63366.6,56.4019,-1917.81,0,0
63626.9,56.5258,-1909.8,0,0
63887.2,56.1283,-1901.72,0,0
64147.6,55.88,-1893.52,0,0
64407.9,55.6446,-1885.47,0,0
64668.2,55.4896,-1877.29,0,0
64928.5,55.4565,-1869.26,0,0
65188.9,55.6443,-1861.4,0,0
65449.2,55.7686,-1853.73,0,0
65709.5,55.6826,-1846.27,0,0
65969.8,55.4946,-1838.89,0,0
66230.2,55.3401,-1831.54,0,0
66490.5,55.0965,-1824.12,0,0
66750.8,54.7278,-1816.91,0,0
67011.1,54.189,-1809.48,0,0
67271.5,53.8225,-1801.96,0,0
67531.8,53.5487,-1794.56,0,0
67792.1,53.1942,-1787.3,0,0
68052.4,52.9201,-1779.88,0,0
68312.8,52.8627,-1772.53,0,0
68573.1,52.7027,-1765.31,0,0
68833.4,52.4854,-1758.18,0,0
69093.7,52.3642,-1750.93,0,0
69354.1,52.3013,-1743.89,0,0
69614.4,52.1838,-1736.88,0,0
69874.7,52.2114,-1729.93,0,0
70135,52.1324,-1723.16,0,0
70395.4,52.03,-1716.35,0,0
70655.7,51.9346,-1709.67,0,0
70916,52.1038,-1703.12,0,0
71176.3,51.9716,-1696.58,0,0
71436.7,51.7442,-1690.17,0,0
71697,51.5485,-1683.62,0,0
71957.3,51.3158,-1677.27,0,0
72217.6,51.0083,-1670.85,0,0
72478,50.7699,-1664.31,0,0
72738.3,50.5445,-1657.9,0,0
72998.6,50.3689,-1651.36,0,0
73258.9,50.2358,-1645.01,0,0
73519.3,50.1649,-1638.73,0,0
73779.6,49.986,-1632.42,0,0
74039.9,49.7974,-1626.27,0,0
74300.225,49.7316,-1620.03,0,0
74560.55,49.6461,-1613.79,0,0
74820.875,49.4798,-1607.71,0,0
75081.2,49.4587,-1601.65,0,0
75341.525,49.3396,-1595.69,0,0
75601.85,49.2606,-1589.74,0,0
75862.175,49.0943,-1583.78,0,0
76122.5,49.0197,-1577.84,0,0
76382.825,48.9922,-1571.92,0,0
76643.15,48.8672,-1566.04,0,0
76903.475,48.8528,-1560.25,0,0
77163.8,48.7552,-1554.47,0,0
77424.125,48.6994,-1548.77,0,0
77684.45,48.7123,-1543.09,0,0
77944.775,48.5543,-1537.4,0,0
78205.1,48.4533,-1531.79,0,0
78465.425,48.4554,-1526.18,0,0
78725.75,48.3957,-1520.69,0,0
78986.075,48.343,-1515.14,0,0
79246.4,48.33,-1509.69,0,0
79506.725,48.2661,-1504.08,0,0
79767.05,48.2196,-1498.76,0,0
80027.375,48.1927,-1493.39,0,0
80287.7,48.1692,-1488.03,0,0
80548.025,48.1207,-1482.81,0,0
80808.35,47.9591,-1477.55,0,0
81068.675,47.8616,-1472.22,0,0
81329.0,47.8516,-1466.95,0,0
81589.325,47.8932,-1461.73,0,0
81849.65,47.8052,-1456.62,0,0
82109.975,47.732,-1451.4,0,0
82370.3,47.7228,-1446.23,0,0
82630.625,47.7312,-1441.22,0,0
82890.95,47.6505,-1436.21,0,0
83151.275,47.5624,-1431.11,0,0
83411.6,47.6396,-1425.98,0,0
83671.925,47.5955,-1421,0,0
83932.25,47.6672,-1415.99,0,0
84192.575,47.7451,-1411,0,0
84452.9,47.7324,-1406.19,0,0
84713.225,47.7785,-1401.31,0,0
84973.55,47.7778,-1396.54,0,0
85233.875,47.8334,-1391.73,0,0
85494.2,47.8103,-1387.05,0,0
85754.525,47.8111,-1382.25,0,0
86014.85,47.9006,-1377.44,0,0
86275.175,47.9187,-1372.82,0,0
86535.5,47.9407,-1368.24,0,0
86795.825,47.8904,-1363.59,0,0
87056.15,47.8811,-1358.89,0,0
87316.475,47.9892,-1354.35,0,0
87576.8,48.0521,-1349.85,0,0
87837.125,48.0024,-1345.31,0,0
88097.45,48.0092,-1340.91,0,0
88357.775,47.989,-1336.4,0,0
88618.1,48.009,-1331.95,0,0
88878.425,47.922,-1327.48,0,0
89138.75,47.9253,-1322.96,0,0
89399.075,47.8125,-1318.48,0,0
89659.4,47.8158,-1313.95,0,0
89919.725,47.7855,-1309.66,0,0
90180,47.7879,-1305,0,0
90440.4,48.0224,-1300.62,0,0
90700.7,48.148,-1296.45,0,0
90961,48.0673,-1292.08,0,0
91221.3,48.2443,-1287.7,0,0
91481.7,48.3399,-1283.41,0,0
91742,48.4272,-1279.12,0,0
92002.3,48.6486,-1274.87,0,0
92262.6,48.8089,-1270.69,0,0
92523,48.8604,-1266.68,0,0
92783.3,48.8401,-1262.49,0,0
93043.6,48.947,-1258.19,0,0
93303.9,49.1315,-1254.02,0,0
93564.3,49.3282,-1249.74,0,0
93824.6,49.777,-1245.49,0,0
94084.9,50.4005,-1241.66,0,0
94345.2,50.6573,-1237.94,0,0
94605.6,50.8055,-1234.26,0,0
94865.9,51.1429,-1230.41,0,0
95126.2,51.3551,-1227.02,0,0
95386.5,51.2199,-1223.62,0,0
95646.9,50.8573,-1219.95,0,0
95907.2,50.6384,-1216,0,0
96167.5,50.5481,-1212.18,0,0
96427.8,50.4388,-1208.27,0,0
96688.2,50.414,-1204.36,0,0
96948.5,50.3012,-1200.5,0,0
97208.8,50.1581,-1196.68,0,0
97469.1,50.0672,-1192.53,0,0
97729.5,50.2862,-1188.47,0,0
97989.8,50.5033,-1184.66,0,0
98250.1,50.7576,-1180.78,0,0
98510.4,51.0648,-1177.33,0,0
98770.8,51.0536,-1173.79,0,0
99031.1,50.9216,-1170.17,0,0
99291.4,50.7304,-1166.39,0,0
99551.7,50.5687,-1162.43,0,0
99812.1,50.6956,-1158.39,0,0
100072,50.9488,-1154.39,0,0
100333,51.423,-1150.63,0,0
100593,51.626,-1146.98,0,0
100853,51.8649,-1143.24,0,0
101114,52.1938,-1139.54,0,0
101374,52.454,-1135.96,0,0
101634,52.6707,-1132.36,0,0
101895,52.8852,-1128.67,0,0
102155,53.2921,-1124.98,0,0
102415,53.825,-1121.38,0,0
102676,54.3,-1117.9,0,0
102936,54.8312,-1114.33,0,0
103196,55.4663,-1111.12,0,0
103457,55.9902,-1107.87,0,0
103717,56.572,-1104.89,0,0
103977,56.6772,-1102.04,0,0
104238,56.7423,-1098.81,0,0
104498,57.0542,-1095.56,0,0
104758,57.4894,-1092.58,0,0
105019,57.5117,-1089.77,0,0
105279,57.3891,-1086.74,0,0
105539,57.2668,-1083.47,0,0
105800,57.2549,-1080.26,0,0
106060,57.1508,-1076.99,0,0
106320.175,57.1752,-1073.45,0,0
106580.5,57.385,-1070.01,0,0
106840.825,57.8449,-1066.61,0,0
107101.15,58.2313,-1063.66,0,0
107361.475,58.2558,-1060.59,0,0
107621.8,58.2712,-1057.38,0,0
107882.125,58.4994,-1054.08,0,0
108142.45,58.7161,-1050.85,0,0
108402.775,58.9025,-1047.67,0,0
108663.1,59.1061,-1044.52,0,0
108923.425,59.2799,-1041.35,0,0
109183.75,59.4542,-1038.29,0,0
109444.075,59.358,-1035.15,0,0
109704.4,59.3481,-1031.74,0,0
109964.725,59.5054,-1028.31,0,0
110225.05,59.5572,-1024.68,0,0
110485.375,60.0455,-1020.97,0,0
110745.7,60.8294,-1017.47,0,0
111006.025,61.7429,-1014.21,0,0
111266.35,62.2204,-1011.11,0,0
111526.675,62.7309,-1007.94,0,0
111787.0,63.4551,-1004.54,0,0
112047.325,64.1985,-1001.4,0,0
112307.65,65.1128,-998.105,0,0
112567.975,65.9589,-995.08,0,0
112828.3,66.9223,-991.95,0,0
113088.625,68.1068,-988.95,0,0
113348.95,69.0495,-986.33,0,0
113609.275,69.8833,-983.612,0,0
113869.6,70.8517,-980.721,0,0
114129.925,71.9544,-977.95,0,0
114390.25,73.0359,-975.396,0,0
114650.575,73.9532,-972.857,0,0
114910.9,75.0286,-970.105,0,0
115171.225,76.2335,-967.543,0,0
115431.55,77.5683,-965.014,0,0
115691.875,79.0944,-962.646,0,0
115952.2,80.789,-960.501,0,0
116212.525,82.466,-958.768,0,0
116472.85,84.0443,-957.411,0,0
116733.175,85.2635,-956.415,0,0
116993.5,85.9809,-955.234,0,0
117253.825,86.8559,-953.965,0,0
117514.15,87.5492,-952.902,0,0
117774.475,87.9621,-951.756,0,0
118034.8,88.4966,-950.274,0,0
118295.125,89.5277,-948.917,0,0
118555.45,90.535,-948.233,0,0
118815.775,91.1542,-947.985,0,0
119076.1,91.1984,-947.823,0,0
119336.425,91.0181,-947.498,0,0
119596.75,90.7742,-947.233,0,0
119857.075,89.9298,-947.299,0,0
120117.4,89.0512,-947.031,0,0
120377.725,87.3174,-947.026,0,0
120638.05,85.0736,-946.154,0,0
120898.375,82.9358,-944.924,0,0
121158.7,80.4607,-943.238,0,0
121419.025,78.3924,-940.672,0,0
121679.35,77.0437,-938.191,0,0
121939.675,75.6381,-935.989,0,0
122200.0,74.1361,-933.655,0,0
122460,72.651,-931.239,0,0
122721,71.2115,-928.593,0,0
122981,69.9404,-925.924,0,0
123241,68.5993,-923.198,0,0
123502,67.3581,-920.182,0,0
123762,66.3569,-917.099,0,0
124022,65.7834,-914.178,0,0
124283,65.0157,-911.396,0,0
124543,64.413,-908.513,0,0
124803,63.9423,-905.921,0,0
125064,63.1846,-903.519,0,0
125324,62.0917,-900.853,0,0
125584,61.1875,-897.867,0,0
125845,60.5516,-894.934,0,0
126105,59.8188,-892.103,0,0
126365,59.0384,-889.196,0,0
126626,58.4488,-886.014,0,0
126886,57.916,-883.082,0,0
127146,57.3479,-879.986,0,0
127406,57.0239,-876.832,0,0
127667,56.8119,-873.853,0,0
127927,56.5269,-870.971,0,0
128187,56.2291,-868.182,0,0
128448,55.8524,-865.272,0,0
128708,55.5337,-862.355,0,0
128968,55.2474,-859.397,0,0
129229,55.0949,-856.44,0,0
129489,54.8569,-853.663,0,0
129749,54.5222,-850.788,0,0
130010,54.3014,-847.843,0,0
130270,54.1277,-844.905,0,0
130530,53.9887,-842.115,0,0
130791,53.7021,-839.245,0,0
131051,53.4397,-836.35,0,0
131311,53.1531,-833.302,0,0
131572,53.0275,-830.201,0,0
131832,53.0146,-827.18,0,0
132092,52.9163,-824.204,0,0
132353,52.8514,-821.102,0,0
132613,52.931,-817.994,0,0
132873,52.9732,-814.994,0,0
133134,53.0302,-811.875,0,0
133394,53.1672,-808.708,0,0
133654,53.3669,-805.505,0,0
133915,53.7698,-802.192,0,0
134175,54.462,-798.979,0,0
134435,55.2292,-796.113,0,0
134696,55.8966,-793.446,0,0
134956,56.2728,-790.676,0,0
135216,56.8813,-787.616,0,0
135477,57.7998,-784.631,0,0
135737,59.0177,-781.764,0,0
135997,60.4494,-779.555,0,0
136258,61.6187,-777.768,0,0
136518,62.5214,-776.114,0,0
136778,63.1963,-774.822,0,0
137039,63.1496,-773.625,0,0
137299,62.7685,-771.908,0,0
137559,62.3829,-769.918,0,0
137819,62.1109,-767.738,0,0
138080,61.8513,-765.638,0,0
138340.125,61.3994,-763.426,0,0
138600.45,60.8318,-760.911,0,0
138860.775,60.4025,-758.135,0,0
139121.1,60.2796,-755.173,0,0
139381.425,60.4534,-752.329,0,0
139641.75,60.6681,-749.721,0,0
139902.075,60.8008,-747.171,0,0
140162.4,60.9535,-744.672,0,0
140422.725,60.9658,-742.213,0,0
140683.05,60.9032,-739.603,0,0
140943.375,60.9191,-736.917,0,0
141203.7,60.9711,-734.262,0,0
141464.025,60.9587,-731.533,0,0
141724.35,61.0477,-728.701,0,0
141984.675,61.2829,-725.825,0,0
142245.0,61.5667,-723.007,0,0
142505.325,61.9146,-720.213,0,0
142765.65,62.2594,-717.456,0,0
143025.975,62.6979,-714.697,0,0
143286.3,63.2377,-711.945,0,0
143546.625,63.8969,-709.396,0,0
143806.95,64.3924,-707.039,0,0
144067.275,64.7463,-704.688,0,0
144327.6,65.0188,-702.275,0,0
144587.925,65.2125,-699.804,0,0
144848.25,65.4207,-697.158,0,0
145108.575,65.8611,-694.546,0,0
145368.9,66.2474,-692.116,0,0
145629.225,66.4435,-689.798,0,0
145889.55,66.4428,-687.228,0,0
146149.875,66.5628,-684.436,0,0
146410.2,66.9395,-681.624,0,0
146670.525,67.3638,-678.981,0,0
146930.85,67.6944,-676.347,0,0
147191.175,68.0523,-673.751,0,0
147451.5,68.3164,-671.117,0,0
147711.825,68.6627,-668.373,0,0
147972.15,69.1539,-665.73,0,0
148232.475,69.5344,-663.28,0,0
148492.8,69.7214,-660.831,0,0
148753.125,69.7582,-658.276,0,0
149013.45,69.6911,-655.606,0,0
149273.775,69.6103,-652.656,0,0
149534.1,69.6652,-649.559,0,0
149794.425,69.8434,-646.405,0,0
150054.75,70.061,-643.249,0,0
150315.075,70.2779,-640.02,0,0
150575.4,70.5888,-636.727,0,0
150835.725,70.9343,-633.381,0,0
151096.05,71.3605,-629.941,0,0
151356.375,71.8709,-626.434,0,0
151616.7,72.5517,-622.904,0,0
151877.025,73.2931,-619.381,0,0
152137.35,74.0788,-615.839,0,0
152397.675,74.9926,-612.198,0,0
152658.0,76.0814,-608.603,0,0
152918.325,77.2198,-605.116,0,0
153178.65,78.3728,-601.65,0,0
153438.975,79.5309,-598.162,0,0
153699.3,80.7037,-594.575,0,0
153959.625,82.0272,-590.902,0,0
154219.95,83.5736,-587.242,0,0
154480,85.2699,-583.649,0,0
154741,86.9593,-580.133,0,0
155001,88.7987,-576.718,0,0
155261,90.6162,-573.173,0,0
155522,92.6557,-569.796,0,0
155782,94.7858,-566.368,0,0
156042,97.0337,-563.033,0,0
156303,99.3006,-559.892,0,0
156563,101.698,-556.755,0,0
156823,104.02,-553.738,0,0
157084,106.672,-550.825,0,0
157344,109.38,-548.097,0,0
157604,112.08,-545.503,0,0
157864,114.646,-543.205,0,0
158125,117.161,-540.967,0,0
158385,119.787,-538.922,0,0
158645,122.236,-537.395,0,0
158906,124.073,-535.929,0,0
159166,125.643,-534.365,0,0
159426,126.949,-532.458,0,0
159687,128.082,-530.596,0,0
159947,128.815,-528.466,0,0
160207,129.351,-525.827,0,0
160468,129.882,-522.786,0,0
160728,130.536,-519.346,0,0
160988,131.239,-515.424,0,0
161249,132.269,-510.852,0,0
161509,133.884,-505.998,0,0
161769,136.097,-501.089,0,0
162030,138.751,-496.193,0,0
162290,141.838,-491.428,0,0
162550,145.047,-486.848,0,0
162811,148.499,-482.188,0,0
163071,152.277,-477.329,0,0
163331,156.605,-472.505,0,0
163592,161.534,-467.966,0,0
163852,166.816,-463.994,0,0
164112,172.002,-460.454,0,0
164373,177.085,-456.86,0,0
164633,182.371,-453.381,0,0
164893,187.774,-450.093,0,0
165154,193.116,-446.907,0,0
165414,198.433,-443.453,0,0
165674,204.005,-439.545,0,0
165935,210.302,-435.378,0,0
166195,217.583,-431.087,0,0
166455,225.931,-427.359,0,0
166716,234.83,-424.609,0,0
166976,243.832,-422.293,0,0
167236,253.388,-420.4,0,0
167497,263.375,-419.404,0,0
167757,273.485,-418.921,0,0
168017,284.21,-418.928,0,0
168277,295.611,-419.952,0,0
168538,307.269,-422.672,0,0
168798,318.275,-426.733,0,0
169058,328.763,-431.735,0,0
169319,338.548,-437.692,0,0
169579,347.21,-443.914,0,0
169839,355.787,-450.017,0,0
170100,364.766,-456.827,0,0
170360.075,373.699,-465.086,0,0
170620.4,381.28,-474.91,0,0
170880.725,387.105,-484.838,0,0
171141.05,392.303,-494.336,0,0
171401.375,397.426,-504.148,0,0
171661.7,402.018,-514.603,0,0
171922.025,406.125,-525.698,0,0
172182.35,409.542,-538.082,0,0
172442.675,410.76,-551.752,0,0
172703.0,409.636,-564.828,0,0
172963.325,407.323,-577.393,0,0
173223.65,403.347,-589.69,0,0
173483.975,397.491,-601.166,0,0
173744.3,390.077,-610.96,0,0
174004.625,381.964,-619.051,0,0
174264.95,373.216,-625.523,0,0
174525.275,364.139,-630.35,0,0
174785.6,354.926,-633.049,0,0
175045.925,346.934,-633.763,0,0
175306.25,340.497,-633.909,0,0
175566.575,333.946,-633.851,0,0
175826.9,327.918,-631.913,0,0
176087.225,324.009,-628.895,0,0
176347.55,321.833,-626.129,0,0
176607.875,320.92,-623.438,0,0
176868.2,321.657,-621.324,0,0
177128.525,323.709,-620.47,0,0
177388.85,326.123,-621.152,0,0
177649.175,328.796,-622.732,0,0
177909.5,332.144,-625.739,0,0
178169.825,335.356,-631.029,0,0
178430.15,337.191,-638.493,0,0
178690.475,336.664,-647.199,0,0
178950.8,333.543,-655.822,0,0
179211.125,328.499,-663.263,0,0
179471.45,322.644,-669.205,0,0
179731.775,316.41,-674.325,0,0
179992.1,309.775,-678.232,0,0
180252.425,303.949,-681.139,0,0
180512.75,298.963,-684.547,0,0
180773.075,293.372,-689.108,0,0
181033.4,286.045,-694.039,0,0
181293.725,276.701,-697.806,0,0
181554.05,266.701,-699.313,0,0
181814.375,257.458,-699.371,0,0
182074.7,248.538,-698.91,0,0
182335.025,239.471,-697.748,0,0
182595.35,230.49,-695.451,0,0
182855.675,222.016,-691.694,0,0
183116.0,215.087,-687.196,0,0
183376.325,209.213,-683.22,0,0
183636.65,203.139,-679.631,0,0
183896.975,196.894,-675.304,0,0
184157.3,191.342,-670.191,0,0
184417.625,186.69,-664.874,0,0
184677.95,182.919,-659.787,0,0
184938.275,179.48,-655.332,0,0
185198.6,175.889,-651.095,0,0
185458.925,172.184,-646.825,0,0
185719.25,168.294,-642.353,0,0
185979.575,164.447,-637.221,0,0
186239.9,161.192,-631.532,0,0
186500,158.724,-625.767,0,0
186761,156.799,-620.277,0,0
187021,155.037,-614.961,0,0
187281,153.625,-609.53,0,0
187542,152.717,-604.176,0,0
187802,152.312,-599.137,0,0
188062,152.33,-594.61,0,0
188322,152.514,-590.778,0,0
188583,152.346,-587.822,0,0
188843,151.273,-585.106,0,0
189103,149.553,-581.96,0,0
189364,147.718,-578.185,0,0
189624,146.095,-574.09,0,0
189884,144.602,-569.784,0,0
190145,143.353,-565.32,0,0
190405,142.18,-560.988,0,0
190665,140.819,-556.413,0,0
190926,139.573,-551.27,0,0
191186,139.031,-545.805,0,0
191446,139.116,-540.644,0,0
191707,139.256,-535.876,0,0
191967,139.264,-531.213,0,0
192227,139.236,-526.413,0,0
192488,139.366,-521.474,0,0
192748,139.677,-516.458,0,0
193008,140.212,-511.368,0,0
193269,141.016,-506.268,0,0
193529,142.065,-501.321,0,0
193789,143.178,-496.487,0,0
194050,144.323,-491.622,0,0
194310,145.657,-486.69,0,0
194570,147.188,-481.667,0,0
194831,149.157,-476.671,0,0
195091,151.433,-471.983,0,0
195351,153.744,-467.636,0,0
195612,156.101,-463.387,0,0
195872,158.382,-459.289,0,0
196132,160.712,-455.327,0,0
196393,163.087,-451.36,0,0
196653,165.568,-447.309,0,0
196913,168.175,-443.496,0,0
197174,170.855,-439.877,0,0
197434,173.55,-436.38,0,0
197694,176.086,-433.099,0,0
197955,178.24,-429.76,0,0
198215,180.458,-426.079,0,0
198475,182.882,-422.294,0,0
198735,185.424,-418.564,0,0
198996,187.891,-414.869,0,0
199256,190.394,-410.943,0,0
199516,193.039,-406.88,0,0
199777,195.895,-402.576,0,0
200037,199.062,-398.36,0,0
200297,202.511,-394.119,0,0
200558,206.173,-390.017,0,0
200818,209.89,-386.033,0,0
201078,213.534,-381.927,0,0
201339,217.524,-377.486,0,0
201599,222.031,-373.112,0,0
201859,226.87,-368.912,0,0
202120,232.082,-364.861,0,0
202380.025,237.547,-361.01,0,0
202640.35,243.242,-357.57,0,0
202900.675,248.902,-354.241,0,0
203161.0,254.829,-350.956,0,0
203421.325,260.971,-347.809,0,0
203681.65,267.476,-344.882,0,0
203941.975,274.208,-342.177,0,0
204202.3,281.168,-339.87,0,0
204462.625,288.282,-337.91,0,0
204722.95,295.463,-336.255,0,0
204983.275,302.7,-334.626,0,0
205243.6,310.499,-333.139,0,0
205503.925,318.862,-332.343,0,0
205764.25,327.357,-332.558,0,0
206024.575,335.545,-333.61,0,0
206284.9,343.243,-335.268,0,0
206545.225,350.488,-337.396,0,0
206805.55,357.121,-339.926,0,0
207065.875,362.861,-342.608,0,0
207326.2,367.92,-344.824,0,0
207586.525,372.523,-346.521,0,0
207846.85,377.123,-347.469,0,0
208107.175,382.077,-347.803,0,0
208367.5,387.426,-347.578,0,0
208627.825,393.585,-346.74,0,0
208888.15,401.316,-345.848,0,0
209148.475,410.337,-345.864,0,0
209408.8,419.872,-347.102,0,0
209669.125,429.8,-349.252,0,0
209929.45,440.199,-352.381,0,0
210189.775,451.109,-356.746,0,0
210450.1,462.049,-363.19,0,0
210710.425,471.801,-371.674,0,0
210970.75,479.805,-380.832,0,0
211231.075,486.758,-390.196,0,0
211491.4,492.809,-400.032,0,0
211751.725,497.786,-410.129,0,0
212012.05,501.612,-420.331,0,0
212272.375,504.437,-429.987,0,0
212532.7,507.025,-439.325,0,0
212793.025,509.381,-449.05,0,0
213053.35,510.532,-459.34,0,0
213313.675,510.143,-468.835,0,0
213574.0,509.541,-477.223,0,0
213834.325,509.194,-485.298,0,0
214094.65,508.603,-493.619,0,0
214354.975,507.189,-502.023,0,0
214615.3,504.863,-509.801,0,0
214875.625,502.237,-516.764,0,0
215135.95,499.61,-522.887,0,0
215396.275,497.241,-528.528,0,0
215656.6,495.167,-533.951,0,0
215916.925,493.424,-539.223,0,0
216177.25,492.115,-544.778,0,0
216437.575,490.78,-551.109,0,0
216697.9,488.784,-558.176,0,0
216958.225,485.483,-565.511,0,0
217218.55,480.93,-572.067,0,0
217478.875,476.006,-577.488,0,0
217739.2,471.318,-582.261,0,0
217999.525,466.683,-586.924,0,0
218259.85,461.713,-591.517,0,0
218520,456.36,-595.796,0,0
218780,450.577,-599.722,0,0
219041,444.126,-603.075,0,0
219301,437.429,-605.373,0,0
219561,430.793,-606.739,0,0
219822,424.348,-607.485,0,0
220082,417.984,-607.439,0,0
220342,411.972,-606.453,0,0
220603,406.675,-604.808,0,0
220863,401.953,-602.69,0,0
221123,397.874,-600.354,0,0
221384,394.342,-597.768,0,0
221644,391.306,-595.019,0,0
221904,388.941,-592.075,0,0
222165,387.258,-589.086,0,0
222425,386.175,-586.31,0,0
222685,385.472,-583.885,0,0
222946,384.989,-581.583,0,0
223206,384.78,-579.433,0,0
223466,384.867,-577.386,0,0
223727,385.263,-575.532,0,0
223987,385.8,-573.958,0,0
224247,386.241,-572.637,0,0
224508,386.605,-571.202,0,0
224768,387.074,-569.304,0,0
225028,388.198,-567.123,0,0
225289,389.968,-564.953,0,0
225549,392.54,-563.066,0,0
225809,395.783,-561.692,0,0
226070,399.447,-561.033,0,0
226330,403.325,-561.227,0,0
226590,406.968,-562.133,0,0
226851,410.331,-563.389,0,0
227111,413.68,-564.77,0,0
227371,417.166,-566.371,0,0
227632,420.897,-568.407,0,0
227892,424.724,-571.053,0,0
228152,428.449,-574.434,0,0
228413,431.911,-578.318,0,0
228673,435.159,-582.867,0,0
228933,437.919,-587.992,0,0
229193,439.936,-593.56,0,0
229454,441.357,-598.991,0,0
229714,442.611,-604.388,0,0
229974,443.79,-609.989,0,0
230235,444.826,-616.093,0,0
230495,445.373,-622.77,0,0
230755,445.076,-629.905,0,0
231016,443.733,-637.04,0,0
231276,441.578,-643.771,0,0
231536,439.083,-649.922,0,0
231797,436.603,-655.726,0,0
232057,434.198,-661.611,0,0
232317,431.547,-668.039,0,0
232578,428.122,-674.753,0,0
232838,423.859,-681.097,0,0
233098,419.298,-687.258,0,0
233359,414.234,-693.577,0,0
233619,408.139,-700.015,0,0
233879,400.801,-705.791,0,0
234140,392.718,-710.518,0,0
234400,384.286,-714.232,0,0
234660.3,375.492,-717.136,0,0
234920.625,366.362,-718.857,0,0
235180.95,357.37,-719.326,0,0
235441.275,348.981,-718.669,0,0
235701.6,341.187,-717.299,0,0
235961.925,334.281,-715.319,0,0
236222.25,328.213,-713.18,0,0
236482.575,322.847,-711.222,0,0
236742.9,317.8,-709.662,0,0
237003.225,312.48,-708.487,0,0
237263.55,306.8,-707.101,0,0
237523.875,300.921,-705.112,0,0
237784.2,295.126,-702.61,0,0
238044.525,289.502,-699.688,0,0
238304.85,283.984,-696.122,0,0
238565.175,278.84,-691.68,0,0
238825.5,274.724,-686.525,0,0
239085.825,271.637,-681.125,0,0
239346.15,269.737,-675.768,0,0
239606.475,269.021,-670.917,0,0
239866.8,268.979,-666.936,0,0
240127.125,269.41,-664.058,0,0
240387.45,269.816,-662.169,0,0
240647.775,269.717,-661.169,0,0
240908.1,268.789,-660.618,0,0
241168.425,267.252,-659.989,0,0
241428.75,265.247,-659.242,0,0
241689.075,262.971,-658.216,0,0
241949.4,260.448,-657.02,0,0
242209.725,257.514,-655.516,0,0
242470.05,254.43,-653.361,0,0
242730.375,251.588,-650.505,0,0
242990.7,249.195,-647.373,0,0
243251.025,247.143,-644.144,0,0
243511.35,245.098,-640.726,0,0
243771.675,243.344,-636.708,0,0
244032.0,242.343,-632.314,0,0
244292.325,242.165,-627.914,0,0
244552.65,242.894,-623.814,0,0
244812.975,244.253,-620.287,0,0
245073.3,245.768,-617.598,0,0
245333.625,247.357,-615.394,0,0
245593.95,248.876,-613.699,0,0
245854.275,250.235,-612.558,0,0
246114.6,251.231,-611.756,0,0
246374.925,251.776,-610.98,0,0
246635.25,252.116,-610.142,0,0
246895.575,252.347,-609.27,0,0
247155.9,252.474,-608.291,0,0
247416.225,252.609,-607.191,0,0
247676.55,252.869,-605.993,0,0
247936.875,253.166,-604.894,0,0
248197.2,253.494,-603.92,0,0
248457.525,253.76,-602.859,0,0
248717.85,254.09,-601.715,0,0
248978.175,254.564,-600.515,0,0
249238.5,255.231,-599.401,0,0
249498.825,256.111,-598.438,0,0
249759.15,257.001,-597.718,0,0
250019.475,257.87,-597.235,0,0
250279.8,258.549,-596.855,0,0
250540,259.272,-596.355,0,0
250800,260.064,-595.917,0,0
251061,260.888,-595.649,0,0
251321,261.805,-595.488,0,0
251581,262.734,-595.437,0,0
251842,263.743,-595.608,0,0
252102,264.683,-596.047,0,0
252362,265.469,-596.675,0,0
252623,266.107,-597.465,0,0
252883,266.669,-598.378,0,0
253143,267.121,-599.477,0,0
253404,267.354,-600.763,0,0
253664,267.339,-602.117,0,0
253924,267.005,-603.727,0,0
254185,266.224,-605.238,0,0
254445,265.143,-606.572,0,0
254705,263.931,-607.639,0,0
254966,262.565,-608.57,0,0
255226,261.099,-609.4,0,0
255486,259.473,-610.085,0,0
255747,257.713,-610.602,0,0
256007,255.895,-610.916,0,0
256267,253.988,-611.057,0,0
256528,252.049,-611.026,0,0
256788,250.082,-610.784,0,0
257048,248.093,-610.322,0,0
257309,246.121,-609.635,0,0
257569,244.197,-608.726,0,0
257829,242.397,-607.593,0,0
258090,240.733,-606.256,0,0
258350,239.288,-604.736,0,0
258610,238.116,-603.152,0,0
258871,237.123,-601.647,0,0
259131,236.258,-600.193,0,0
259391,235.465,-598.781,0,0
259651,234.554,-597.432,0,0
259912,233.521,-595.949,0,0
260172,232.555,-594.1,0,0
260432,231.833,-592.044,0,0
260693,231.336,-589.906,0,0
260953,231.097,-587.646,0,0
261213,231.092,-585.282,0,0
261474,231.421,-582.856,0,0
261734,232.136,-580.454,0,0
261994,233.226,-578.156,0,0
262255,234.687,-576.019,0,0
262515,236.479,-574.141,0,0
262775,238.563,-572.6,0,0
263036,240.891,-571.463,0,0
263296,243.35,-570.81,0,0
263556,245.756,-570.657,0,0
263817,248.068,-570.916,0,0
264077,250.108,-571.553,0,0
264337,251.841,-572.445,0,0
264598,253.319,-573.448,0,0
264858,254.566,-574.615,0,0
265118,255.46,-575.804,0,0
265379,256.036,-576.826,0,0
265639,256.612,-577.658,0,0
265899,257.203,-578.367,0,0
266160,257.917,-579.045,0,0
266420,258.763,-579.76,0,0
266680.25,259.708,-580.639,0,0
266940.575,260.689,-581.807,0,0
267200.9,261.528,-583.173,0,0
267461.225,262.145,-584.702,0,0
267721.55,262.633,-586.293,0,0
267981.875,262.948,-587.988,0,0
268242.2,262.994,-589.706,0,0
268502.525,262.807,-591.337,0,0
268762.85,262.369,-592.848,0,0
269023.175,261.91,-594.037,0,0
269283.5,261.501,-594.947,0,0
269543.825,261.378,-595.749,0,0
269804.15,261.483,-596.518,0,0
270064.475,261.832,-597.426,0,0
270324.8,262.288,-598.531,0,0
270585.125,262.848,-599.807,0,0
270845.45,263.461,-601.245,0,0
271105.775,264.176,-602.771,0,0
271366.1,265.139,-604.532,0,0
271626.425,266.459,-606.618,0,0
271886.75,268.054,-609.44,0,0
272147.075,269.625,-613.256,0,0
272407.4,270.643,-618.12,0,0
272667.725,270.696,-623.707,0,0
272928.05,269.711,-629.621,0,0
273188.375,267.765,-635.712,0,0
273448.7,264.829,-641.792,0,0
273709.025,260.805,-647.705,0,0
273969.35,255.77,-653.131,0,0
274229.675,249.928,-657.852,0,0
274490.0,243.559,-661.758,0,0
274750.325,236.752,-665.055,0,0
275010.65,229.461,-667.691,0,0
275270.975,221.741,-669.419,0,0
275531.3,213.856,-670.092,0,0
275791.625,206.152,-669.858,0,0
276051.95,198.613,-668.845,0,0
276312.275,191.31,-667.172,0,0
276572.6,184.36,-664.858,0,0
276832.925,177.652,-661.922,0,0
277093.25,171.397,-658.38,0,0
277353.575,165.624,-654.303,0,0
277613.9,160.457,-649.773,0,0
277874.225,155.97,-644.901,0,0
278134.55,152.178,-639.918,0,0
278394.875,148.994,-634.905,0,0
278655.2,146.358,-629.983,0,0
278915.525,144.194,-625.217,0,0
279175.85,142.381,-620.61,0,0
279436.175,140.846,-616.173,0,0
279696.5,139.539,-611.822,0,0
279956.825,138.548,-607.473,0,0
280217.15,137.908,-603.285,0,0
280477.475,137.673,-599.263,0,0
280737.8,137.779,-595.633,0,0
280998.125,137.995,-592.482,0,0
281258.45,138.205,-589.789,0,0
281518.775,138.172,-587.351,0,0
281779.1,137.914,-585.054,0,0
282039.425,137.444,-582.78,0,0
282299.75,136.802,-580.457,0,0
282560,136.033,-578.009,0,0
282820,135.188,-575.331,0,0
283081,134.443,-572.42,0,0
283341,133.86,-569.307,0,0
283601,133.489,-566.099,0,0
283862,133.376,-562.83,0,0
284122,133.535,-559.548,0,0
284382,133.964,-556.352,0,0
284643,134.568,-553.273,0,0
284903,135.372,-550.349,0,0
285163,136.327,-547.56,0,0
285424,137.362,-544.919,0,0
285684,138.54,-542.434,0,0
285944,139.805,-540.156,0,0
286205,141.161,-538.077,0,0
286465,142.487,-536.257,0,0
286725,143.757,-534.634,0,0
286986,144.868,-533.183,0,0
287246,145.854,-531.821,0,0
287506,146.699,-530.474,0,0
287767,147.438,-529.144,0,0
288027,148.05,-527.758,0,0
288287,148.579,-526.293,0,0
288548,149.109,-524.681,0,0
288808,149.701,-522.975,0,0
289068,150.393,-521.212,0,0
289329,151.166,-519.412,0,0
289589,152.038,-517.643,0,0
289849,152.936,-515.848,0,0
290109,153.91,-514.021,0,0
290370,155.028,-512.136,0,0
290630,156.332,-510.28,0,0
290890,157.809,-508.532,0,0
291151,159.396,-506.937,0,0
291411,161.058,-505.503,0,0
291671,162.723,-504.236,0,0
291932,164.335,-503.089,0,0
292192,165.871,-501.989,0,0
292452,167.426,-500.908,0,0
292713,168.997,-499.854,0,0
292973,170.56,-498.849,0,0
293233,172.125,-497.864,0,0
293494,173.732,-496.89,0,0
293754,175.368,-495.978,0,0
294014,177.015,-495.1,0,0
294275,178.624,-494.235,0,0
294535,180.292,-493.335,0,0
294795,182.035,-492.379,0,0
295056,183.898,-491.451,0,0
295316,185.906,-490.573,0,0
295576,188.005,-489.761,0,0
295837,190.21,-489.027,0,0
296097,192.519,-488.362,0,0
296357,194.951,-487.828,0,0
296618,197.485,-487.409,0,0
296878,200.12,-487.15,0,0
297138,202.849,-487.048,0,0
297399,205.644,-487.159,0,0
297659,208.479,-487.487,0,0
297919,211.282,-488.045,0,0
298180,213.983,-488.779,0,0
298440,216.608,-489.611,0,0
298700.2,219.246,-490.525,0,0
298960.525,221.827,-491.532,0,0
299220.85,224.506,-492.649,0,0
299481.175,227.211,-493.796,0,0
299741.5,229.954,-495.207,0,0
300001.825,232.762,-496.706,0,0
300262.15,235.672,-498.484,0,0
300522.475,238.487,-500.399,0,0
300782.8,241.418,-502.619,0,0
301043.125,244.3,-504.971,0,0
301303.45,247.289,-507.77,0,0
301563.775,250.366,-510.901,0,0
301824.1,253.392,-514.556,0,0
302084.425,256.192,-518.725,0,0
302344.75,258.871,-523.656,0,0
302605.075,260.848,-529.056,0,0
302865.4,262.206,-534.916,0,0
303125.725,262.705,-541.053,0,0
303386.05,262.386,-547.178,0,0
303646.375,261.3,-553.138,0,0
303906.7,259.613,-558.786,0,0
304167.025,257.451,-564.111,0,0
304427.35,254.869,-569.062,0,0
304687.675,251.953,-573.65,0,0
304948.0,248.801,-577.898,0,0
305208.325,245.475,-581.806,0,0
305468.65,241.954,-585.475,0,0
305728.975,238.235,-588.917,0,0
305989.3,234.24,-592.085,0,0
306249.625,230.053,-594.827,0,0
306509.95,225.711,-597.202,0,0
306770.275,221.298,-599.142,0,0
307030.6,216.932,-600.687,0,0
307290.925,212.623,-601.901,0,0
307551.25,208.409,-602.855,0,0
307811.575,204.289,-603.587,0,0
308071.9,200.205,-604.128,0,0
308332.225,196.151,-604.467,0,0
308592.55,192.128,-604.561,0,0
308852.875,188.163,-604.388,0,0
309113.2,184.315,-603.977,0,0
309373.525,180.591,-603.288,0,0
309633.85,177.095,-602.425,0,0
309894.175,173.775,-601.364,0,0
310154.5,170.71,-600.228,0,0
310414.825,167.801,-599.037,0,0
310675.15,165.081,-597.791,0,0
310935.475,162.529,-596.591,0,0
311195.8,160.076,-595.363,0,0
311456.125,157.717,-594.135,0,0
311716.45,155.405,-592.894,0,0
311976.775,153.186,-591.619,0,0
312237.1,151.059,-590.331,0,0
312497.425,148.987,-589.037,0,0
312757.75,146.974,-587.734,0,0
313018.075,145.027,-586.405,0,0
313278.4,143.095,-585.076,0,0
313538.725,141.19,-583.723,0,0
313799.05,139.334,-582.288,0,0
314059.375,137.52,-580.773,0,0
314319.7,135.78,-579.173,0,0
314580,134.147,-577.528,0,0
314840,132.647,-575.822,0,0
315101,131.292,-574.061,0,0
315361,130.039,-572.324,0,0
315621,128.921,-570.623,0,0
315882,127.929,-568.954,0,0
316142,127.041,-567.305,0,0
316402,126.236,-565.771,0,0
316663,125.485,-564.283,0,0
316923,124.781,-562.891,0,0
317183,124.077,-561.551,0,0
317444,123.401,-560.25,0,0
317704,122.721,-558.972,0,0
317964,122.075,-557.721,0,0
318225,121.406,-556.46,0,0
318485,120.788,-555.233,0,0
318745,120.205,-553.969,0,0
319006,119.67,-552.694,0,0
319266,119.188,-551.487,0,0
319526,118.789,-550.272,0,0
319787,118.44,-549.144,0,0
320047,118.134,-548.047,0,0
320307,117.85,-547.053,0,0
320567,117.588,-546.118,0,0
320828,117.332,-545.229,0,0
321088,117.055,-544.42,0,0
321348,116.761,-543.675,0,0
321609,116.429,-542.961,0,0
321869,116.056,-542.279,0,0
322129,115.693,-541.624,0,0
322390,115.277,-541.011,0,0
322650,114.829,-540.405,0,0
322910,114.353,-539.802,0,0
323171,113.799,-539.226,0,0
323431,113.255,-538.596,0,0
323691,112.662,-537.977,0,0
323952,112.053,-537.299,0,0
324212,111.463,-536.61,0,0
324472,110.856,-535.856,0,0
324733,110.297,-535.1,0,0
324993,109.755,-534.343,0,0
325253,109.281,-533.553,0,0
325514,108.836,-532.792,0,0
325774,108.442,-532.091,0,0
326034,108.04,-531.433,0,0
326295,107.618,-530.802,0,0
326555,107.21,-530.187,0,0
326815,106.794,-529.637,0,0
327076,106.338,-529.107,0,0
327336,105.852,-528.598,0,0
327596,105.343,-528.079,0,0
327857,104.794,-527.585,0,0
328117,104.231,-527.081,0,0
328377,103.635,-526.559,0,0
328638,103.014,-526.025,0,0
328898,102.409,-525.479,0,0
329158,101.791,-524.925,0,0
329419,101.156,-524.391,0,0
329679,100.519,-523.841,0,0
329939,99.8675,-523.25,0,0
330200,99.2359,-522.685,0,0
330460,98.5805,-522.1,0,0
330720.15,97.958,-521.576,0,0
330980.475,97.2626,-520.985,0,0
331240.8,96.6383,-520.465,0,0
331501.125,95.9429,-519.942,0,0
331761.45,95.2231,-519.468,0,0
332021.775,94.4853,-518.935,0,0
332282.1,93.6441,-518.436,0,0
332542.425,92.8508,-517.802,0,0
332802.75,91.9521,-517.364,0,0
333063.075,90.9722,-516.734,0,0
333323.4,89.9736,-516.108,0,0
333583.725,88.9683,-515.384,0,0
333844.05,87.9745,-514.577,0,0
334104.375,86.9952,-513.722,0,0
334364.7,85.9922,-512.861,0,0
334625.025,85.0901,-511.831,0,0
334885.35,84.1545,-510.905,0,0
335145.675,83.2826,-509.984,0,0
335406.0,82.3393,-509.015,0,0
335666.325,81.4335,-507.923,0,0
335926.65,80.5595,-506.912,0,0
336186.975,79.6766,-505.776,0,0
336447.3,78.8797,-504.577,0,0
336707.625,78.0437,-503.41,0,0
336967.95,77.2442,-502.204,0,0
337228.275,76.4563,-500.899,0,0
337488.6,75.7881,-499.607,0,0
337748.925,75.1691,-498.313,0,0
338009.25,74.5483,-497.063,0,0
338269.575,73.9576,-495.69,0,0
338529.9,73.4409,-494.396,0,0
338790.225,72.9632,-493.109,0,0
339050.55,72.4551,-491.785,0,0
339310.875,72.0083,-490.499,0,0
339571.2,71.6496,-489.183,0,0
339831.525,71.1946,-487.835,0,0
340091.85,70.8584,-486.625,0,0
340352.175,70.4979,-485.302,0,0
340612.5,70.1721,-484.027,0,0
340872.825,69.8307,-482.732,0,0
341133.15,69.521,-481.37,0,0
341393.475,69.271,-480.047,0,0
341653.8,69.0029,-478.658,0,0
341914.125,68.8312,-477.353,0,0
342174.45,68.6908,-475.998,0,0
342434.775,68.6279,-474.688,0,0
342695.1,68.5438,-473.358,0,0
342955.425,68.4917,-472.075,0,0
343215.75,68.486,-470.802,0,0
343476.075,68.5418,-469.534,0,0
343736.4,68.5652,-468.341,0,0
343996.725,68.7053,-467.088,0,0
344257.05,68.8266,-465.938,0,0
344517.375,68.9225,-464.848,0,0
344777.7,69.0663,-463.741,0,0
345038.025,69.2804,-462.71,0,0
345298.35,69.4127,-461.638,0,0
345558.675,69.5469,-460.601,0,0
345819.0,69.7247,-459.626,0,0
346079.325,69.8883,-458.729,0,0
346339.65,70.0929,-457.836,0,0
346599.975,70.2468,-456.978,0,0
346860,70.3475,-456.147,0,0
347121,70.5199,-455.375,0,0
347381,70.5432,-454.63,0,0
347641,70.5834,-453.853,0,0
347902,70.5109,-453.094,0,0
348162,70.4912,-452.325,0,0
348422,70.3932,-451.52,0,0
348683,70.2484,-450.75,0,0
348943,70.1389,-449.86,0,0
349203,70.0257,-448.926,0,0
349464,69.9498,-447.975,0,0
349724,69.8895,-447.028,0,0
349984,69.8127,-446.1,0,0
350245,69.7163,-445.138,0,0
350505,69.6405,-444.158,0,0
350765,69.5714,-443.101,0,0
351025,69.472,-441.983,0,0
351286,69.5463,-440.88,0,0
351546,69.6261,-439.714,0,0
351806,69.7616,-438.62,0,0
352067,69.9618,-437.446,0,0
352327,70.2308,-436.391,0,0
352587,70.5089,-435.35,0,0
352848,70.8066,-434.301,0,0
353108,71.1816,-433.306,0,0
353368,71.5251,-432.381,0,0
353629,71.9288,-431.441,0,0
353889,72.3085,-430.632,0,0
354149,72.6864,-429.765,0,0
354410,73.0818,-429.021,0,0
354670,73.5009,-428.192,0,0
354930,73.938,-427.48,0,0
355191,74.3841,-426.793,0,0
355451,74.821,-426.181,0,0
355711,75.2267,-425.704,0,0
355972,75.5533,-425.227,0,0
356232,75.8702,-424.836,0,0
356492,76.0589,-424.407,0,0
356753,76.1397,-424.035,0,0
357013,76.217,-423.559,0,0
357273,76.1631,-423.121,0,0
357534,76.1478,-422.602,0,0
357794,76.0302,-422.04,0,0
358054,75.9061,-421.432,0,0
358315,75.756,-420.733,0,0
358575,75.6073,-420.003,0,0
358835,75.4459,-419.207,0,0
359096,75.3522,-418.34,0,0
359356,75.2563,-417.4,0,0
359616,75.2565,-416.414,0,0
359877,75.2686,-415.469,0,0
360137,75.3386,-414.434,0,0
360397,75.4737,-413.403,0,0
360658,75.6827,-412.358,0,0
360918,75.9162,-411.349,0,0
361178,76.2586,-410.307,0,0
361438,76.585,-409.342,0,0
361699,77.0004,-408.399,0,0
361959,77.4039,-407.522,0,0
362219,77.8916,-406.61,0,0
362480,78.3406,-405.78,0,0
362740.1,78.8195,-405.001,0,0
363000.425,79.2812,-404.227,0,0
363260.75,79.7356,-403.446,0,0
363521.075,80.1981,-402.671,0,0
363781.4,80.6959,-401.955,0,0
364041.725,81.2009,-401.21,0,0
364302.05,81.7113,-400.47,0,0
364562.375,82.3045,-399.742,0,0
364822.7,82.8701,-399.133,0,0
365083.025,83.516,-398.51,0,0
365343.35,84.129,-397.955,0,0
365603.675,84.7448,-397.497,0,0
365864.0,85.3827,-397.064,0,0
366124.325,85.895,-396.673,0,0
366384.65,86.4181,-396.29,0,0
366644.975,86.8967,-395.939,0,0
366905.3,87.2992,-395.568,0,0
367165.625,87.7599,-395.215,0,0
367425.95,88.2026,-394.866,0,0
367686.275,88.6352,-394.55,0,0
367946.6,89.044,-394.213,0,0
368206.925,89.4499,-393.891,0,0
368467.25,89.8889,-393.589,0,0
368727.575,90.325,-393.36,0,0
368987.9,90.7547,-393.115,0,0
369248.225,91.151,-392.934,0,0
369508.55,91.5234,-392.82,0,0
369768.875,91.8571,-392.795,0,0
370029.2,92.0891,-392.768,0,0
370289.525,92.1688,-392.794,0,0
370549.85,92.2071,-392.803,0,0
370810.175,92.0765,-392.742,0,0
371070.5,91.8733,-392.621,0,0
371330.825,91.6417,-392.394,0,0
371591.15,91.3586,-392.062,0,0
371851.475,91.0482,-391.652,0,0
372111.8,90.7389,-391.096,0,0
372372.125,90.525,-390.453,0,0
372632.45,90.3538,-389.76,0,0
372892.775,90.2233,-388.984,0,0
373153.1,90.2187,-388.258,0,0
373413.425,90.229,-387.473,0,0
373673.75,90.2896,-386.65,0,0
373934.075,90.3678,-385.935,0,0
374194.4,90.5541,-385.088,0,0
374454.725,90.7323,-384.375,0,0
374715.05,90.9584,-383.596,0,0
374975.375,91.1823,-382.8,0,0
375235.7,91.4355,-382.05,0,0
375496.025,91.7285,-381.303,0,0
375756.35,92.1349,-380.636,0,0
376016.675,92.4855,-379.982,0,0
376277.0,92.7868,-379.355,0,0
376537.325,93.0861,-378.736,0,0
376797.65,93.3409,-378.151,0,0
377057.975,93.6039,-377.503,0,0
377318.3,93.89,-376.833,0,0
377578.625,94.1544,-376.106,0,0
377838.95,94.4868,-375.404,0,0
378099.275,94.8373,-374.608,0,0
378359.6,95.2583,-373.893,0,0
378619.925,95.6961,-373.134,0,0
378880,96.1931,-372.417,0,0
379141,96.6668,-371.756,0,0
379401,97.1778,-371.094,0,0
379661,97.7345,-370.502,0,0
379922,98.2883,-369.912,0,0
380182,98.8452,-369.353,0,0
380442,99.369,-368.816,0,0
380703,99.9034,-368.311,0,0
380963,100.4,-367.825,0,0
381223,100.866,-367.291,0,0
381483,101.379,-366.779,0,0
381744,101.804,-366.228,0,0
382004,102.312,-365.626,0,0
382264,102.864,-365.046,0,0
382525,103.456,-364.51,0,0
382785,104.051,-363.908,0,0
383045,104.706,-363.419,0,0
383306,105.35,-362.95,0,0
383566,106.021,-362.49,0,0
383826,106.653,-362.065,0,0
384087,107.278,-361.581,0,0
384347,107.942,-361.212,0,0
384607,108.597,-360.858,0,0
384868,109.225,-360.5,0,0
385128,109.817,-360.192,0,0
385388,110.403,-359.868,0,0
385649,110.93,-359.531,0,0
385909,111.492,-359.137,0,0
386169,112.052,-358.801,0,0
386430,112.646,-358.386,0,0
386690,113.215,-358.008,0,0
386950,113.817,-357.64,0,0
387211,114.406,-357.304,0,0
387471,115.027,-356.917,0,0
387731,115.576,-356.577,0,0
387992,116.139,-356.072,0,0
388252,116.75,-355.622,0,0
388512,117.36,-355.125,0,0
388773,118.103,-354.597,0,0
389033,118.928,-354.064,0,0
389293,119.803,-353.587,0,0
389554,120.745,-353.146,0,0
389814,121.739,-352.883,0,0
390074,122.752,-352.636,0,0
390335,123.727,-352.503,0,0
390595,124.668,-352.345,0,0
390855,125.552,-352.276,0,0
391116,126.467,-352.234,0,0
391376,127.225,-352.164,0,0
391636,128.059,-352.094,0,0
391896,128.848,-352.017,0,0
392157,129.663,-351.868,0,0
392417,130.547,-351.781,0,0
392677,131.399,-351.713,0,0
392938,132.269,-351.657,0,0
393198,133.094,-351.604,0,0
393458,133.973,-351.546,0,0
393719,134.82,-351.496,0,0
393979,135.718,-351.437,0,0
394239,136.629,-351.312,0,0
394500,137.591,-351.246,0,0
394760.05,138.586,-351.142,0,0
395020.375,139.645,-351.103,0,0
395280.7,140.729,-351.038,0,0
395541.025,141.935,-351.044,0,0
395801.35,143.19,-351.08,0,0
396061.675,144.527,-351.179,0,0
396322.0,145.914,-351.351,0,0
396582.325,147.4,-351.65,0,0
396842.65,148.895,-352.082,0,0
397102.975,150.439,-352.607,0,0
397363.3,151.98,-353.27,0,0
397623.625,153.476,-354.113,0,0
397883.95,154.932,-355.076,0,0
398144.275,156.325,-356.153,0,0
398404.6,157.707,-357.357,0,0
398664.925,159.049,-358.743,0,0
398925.25,160.281,-360.212,0,0
399185.575,161.407,-361.805,0,0
399445.9,162.393,-363.56,0,0
399706.225,163.231,-365.403,0,0
399966.55,163.867,-367.376,0,0
400006.6,163.971,-367.682,0,0