File: Accelerated corrosion test data/2025-10-11_18-00-03/sample_3.csv
Frequency (Hz),Impedance (ohms),Phase (Radians),Temperature (C),Humidity (%)
10000.0,249.065,-11784.4,0,0
10260.325,242.9,-11487.1,0,0
10520.65,237.951,-11205.2,0,0
10780.975,233.147,-10934.7,0,0
11041.3,227.112,-10683.1,0,0
11301.625,221.759,-10437.8,0,0
11561.95,217.299,-10204.5,0,0
11822.275,213.186,-9981.02,0,0
12082.6,210.231,-9767.68,0,0
12342.925,207.74,-9561.79,0,0
12603.25,201.456,-9367.95,0,0
12863.575,197.328,-9178.1,0,0
13123.9,197.077,-8994.88,0,0
13384.225,191.628,-8826.84,0,0
13644.55,188.334,-8658.58,0,0
13904.875,183.523,-8495.38,0,0
14165.2,183.85,-8338.77,0,0
14425.525,178.406,-8190.81,0,0
14685.8,177.543,-8044.27,0,0
14946.175,175.277,-7905.37,0,0
15206.5,171.859,-7765.52,0,0
15466.825,178.405,-7626.83,0,0
15727.15,193.04,-7524.33,0,0
15987.5,172.123,-7411.65,0,0
16247.8,165.954,-7282.93,0,0
16508.125,160.43,-7171.22,0,0
16768.45,165.418,-7050.63,0,0
17028.775,156.074,-6952.71,0,0
17289.1,158.634,-6839.21,0,0
17549.425,155.433,-6748.43,0,0
17809.75,155.163,-6642.43,0,0
18070.075,161.381,-6556.82,0,0
18330.4,149.408,-6462.01,0,0
18590.725,147.201,-6371.08,0,0
18851.05,143.743,-6281.05,0,0
19111.375,145.1,-6191.59,0,0
19371.7,144.104,-6108.77,0,0
19632.025,145.178,-6025.01,0,0
19892.35,144.551,-5945.32,0,0
20152.675,149.129,-5868.54,0,0
20413.0,158.275,-5792.57,0,0
20673.3,160.331,-5723.26,0,0
20933.65,161.766,-5672.93,0,0
21193.975,158.611,-5604.23,0,0
21454.3,144.847,-5545.68,0,0
21714.625,137.208,-5470.4,0,0
21974.9,140.679,-5404.79,0,0
22235.275,138.43,-5346.43,0,0
22495.6,136.017,-5284.04,0,0
22755.925,128.048,-5223.96,0,0
23016.25,127.401,-5164.63,0,0
23276.6,126.992,-5103.18,0,0
23536.9,128.28,-5056.99,0,0
23797.225,120.356,-4998.42,0,0
24057.55,117.688,-4941.37,0,0
24317.875,117.766,-4885.9,0,0
24578.2,115.831,-4836.08,0,0
24838.525,116.23,-4782.99,0,0
25098.85,115.227,-4736.15,0,0
25359.175,112.922,-4686.54,0,0
25619.5,113.071,-4638.96,0,0
25879.8,109.936,-4592.35,0,0
26140.1,107.564,-4544.72,0,0
26400.5,106.722,-4497.64,0,0
26660.8,106.959,-4452.68,0,0
26921.1,107.623,-4408.54,0,0
27181.4,107.722,-4367.83,0,0
27441.8,106.947,-4324.66,0,0
27702.1,107.166,-4284.83,0,0
27962.4,104.627,-4244.89,0,0
28222.7,102.83,-4202.03,0,0
28483.1,109.644,-4159.43,0,0
28743.4,111.871,-4124.73,0,0
29003.7,114.605,-4094.79,0,0
29264,107.803,-4061.5,0,0
29524.4,107.803,-4025.34,0,0
29784.7,103.414,-3990.21,0,0
30045,101.512,-3956.17,0,0
30305.3,99.9792,-3919.21,0,0
30565.7,100.917,-3885.42,0,0
30826,100.462,-3853.09,0,0
31086.3,101.593,-3819.99,0,0
31346.6,98.3161,-3790.21,0,0
31607,96.64,-3755.89,0,0
31867.3,97.5803,-3722.32,0,0
32127.6,100.464,-3688.84,0,0
32387.9,108.881,-3660.1,0,0
32648.3,110.879,-3642.54,0,0
32908.6,103.544,-3618.18,0,0
33168.9,100.419,-3591.16,0,0
33429.2,98.5382,-3563.72,0,0
33689.6,93.0803,-3536.74,0,0
33949.9,90.0657,-3507.03,0,0
34210.2,90.0377,-3478.67,0,0
34470.5,89.4883,-3452.62,0,0
34730.9,87.2341,-3426.65,0,0
34991.2,85.5089,-3399.99,0,0
35251.5,85.165,-3373.72,0,0
35511.8,84.1494,-3348.63,0,0
35772.2,83.6407,-3323.37,0,0
36032.5,82.5366,-3298.77,0,0
36292.8,82.0512,-3274.13,0,0
36553.1,81.7873,-3250.57,0,0
36813.5,81.0055,-3227.2,0,0
37073.8,80.1779,-3203.88,0,0
37334.1,79.6677,-3181.02,0,0
37594.4,79.3081,-3158.09,0,0
37854.8,78.7955,-3136.29,0,0
38115.1,78.1648,-3114.08,0,0
38375.4,77.5853,-3092.72,0,0
38635.7,77.4209,-3071.12,0,0
38896.1,76.9196,-3050.05,0,0
39156.4,76.7791,-3029.12,0,0
39416.7,76.3235,-3008.9,0,0
39677,75.8905,-2988.82,0,0
39937.4,75.394,-2968.71,0,0
40197.7,74.8983,-2948.89,0,0
40458,74.4841,-2929.43,0,0
40718.3,74.184,-2909.91,0,0
40978.7,73.5745,-2890.88,0,0
41239,73.7143,-2871.58,0,0
41499.3,73.6936,-2853.37,0,0
41759.6,73.6815,-2835.1,0,0
42020,73.2065,-2817.38,0,0
42280.275,72.9957,-2799.49,0,0
42540.6,72.4338,-2781.99,0,0
42800.925,72.7582,-2764.74,0,0
43061.25,72.0672,-2747.84,0,0
43321.575,71.4387,-2730.61,0,0
43581.9,71.1302,-2713.49,0,0
43842.225,71.1418,-2696.58,0,0
44102.55,71.4098,-2680.25,0,0
44362.875,71.4145,-2664.6,0,0
44623.2,70.9336,-2648.5,0,0
44883.525,70.6,-2632.37,0,0
45143.85,70.3722,-2616.95,0,0
45404.175,69.8668,-2601.81,0,0
45664.5,69.6966,-2585.77,0,0
45924.825,70.445,-2570.71,0,0
46185.15,69.9712,-2556.42,0,0
46445.475,69.4028,-2541.47,0,0
46705.8,69.1779,-2526.33,0,0
46966.125,69.4081,-2512.04,0,0
47226.45,69.2304,-2497.5,0,0
47486.775,68.9966,-2483.15,0,0
47747.1,69.4719,-2468.76,0,0
48007.425,69.8447,-2455.91,0,0
48267.75,69.8557,-2442.82,0,0
48528.075,69.3723,-2429.52,0,0
48788.4,68.8331,-2416.54,0,0
49048.725,68.1063,-2403.36,0,0
49309.05,67.4717,-2389.97,0,0
49569.375,67.3029,-2376.38,0,0
49829.7,67.2044,-2363.91,0,0
50090.025,66.5571,-2351.3,0,0
50350.35,66.2629,-2338.32,0,0
50610.675,65.9124,-2325.4,0,0
50871.0,65.8085,-2312.71,0,0
51131.325,65.725,-2300.32,0,0
51391.65,65.4712,-2287.82,0,0
51651.975,65.6818,-2275.58,0,0
51912.3,65.6355,-2263.72,0,0
52172.625,65.4408,-2251.76,0,0
52432.95,65.3926,-2239.55,0,0
52693.275,65.6369,-2227.6,0,0
52953.6,65.9685,-2215.82,0,0
53213.925,66.6922,-2204.12,0,0
53474.25,67.6077,-2193.41,0,0
53734.575,67.6941,-2182.77,0,0
53994.9,67.879,-2171.86,0,0
54255.225,68.8626,-2161.14,0,0
54515.55,69.7535,-2151.99,0,0
54775.875,69.134,-2142.68,0,0
55036.2,68.26,-2132.91,0,0
55296.525,67.6802,-2123.47,0,0
55556.85,66.2175,-2113.73,0,0
55817.175,64.7306,-2103.12,0,0
56077.5,63.8971,-2092.61,0,0
56337.825,63.0627,-2082.03,0,0
56598.15,62.0235,-2071.55,0,0
56858.475,61.2755,-2060.89,0,0
57118.8,60.9401,-2050.02,0,0
57379.125,60.776,-2039.59,0,0
57639.45,60.6906,-2029.17,0,0
57899.775,60.8097,-2018.97,0,0
58160.1,60.807,-2009.03,0,0
58420.4,60.6731,-1999.04,0,0
58680.7,60.7051,-1988.96,0,0
58941.1,60.8245,-1979.25,0,0
59201.4,60.9462,-1969.38,0,0
59461.7,61.2453,-1959.73,0,0
59722,61.5057,-1950.22,0,0
59982.4,61.8023,-1940.83,0,0
60242.7,62.1039,-1931.72,0,0
60503,62.2713,-1922.37,0,0
60763.3,62.6423,-1913.1,0,0
61023.7,62.9624,-1904.03,0,0
61284,63.4954,-1895.05,0,0
61544.3,63.9557,-1885.94,0,0
61804.6,64.5779,-1877.45,0,0
62065,64.6604,-1868.49,0,0
62325.3,65.3245,-1859.62,0,0
62585.6,65.751,-1850.93,0,0
62845.9,66.4132,-1841.95,0,0
63106.3,67.4728,-1833.2,0,0
63366.6,68.3955,-1824.86,0,0
63626.9,69.4495,-1816,0,0
63887.2,70.8933,-1807.74,0,0
64147.6,72.3181,-1799.21,0,0
64407.9,74.8344,-1790.75,0,0
64668.2,77.2071,-1783.25,0,0
64928.5,80.0135,-1775.71,0,0
65188.9,83.8514,-1769.69,0,0
65449.2,86.7859,-1765.31,0,0
65709.5,88.5761,-1760.91,0,0
65969.8,91.4945,-1757.86,0,0
66230.2,90.9843,-1758.29,0,0
66490.5,85.1955,-1755.72,0,0
66750.8,80.2066,-1749,0,0
67011.1,77.6497,-1740.33,0,0
67271.5,75.5268,-1732.57,0,0
67531.8,74.3964,-1724,0,0
67792.1,74.7125,-1715.88,0,0
68052.4,74.5288,-1708.35,0,0
68312.8,75.5448,-1701.17,0,0
68573.1,75.8289,-1695.02,0,0
68833.4,75.9227,-1688.71,0,0
69093.7,76.4071,-1682.15,0,0
69354.1,76.7534,-1676.83,0,0
69614.4,76.3952,-1671.65,0,0
69874.7,75.3976,-1666,0,0
70135,74.6307,-1660.09,0,0
70395.4,73.6769,-1654.29,0,0
70655.7,72.4837,-1648.3,0,0
70916,71.2637,-1641.94,0,0
71176.3,70.232,-1635.34,0,0
71436.7,69.4944,-1628.64,0,0
71697,68.6787,-1621.86,0,0
71957.3,68.7847,-1615.01,0,0
72217.6,68.8036,-1608.77,0,0
72478,68.8567,-1602.64,0,0
72738.3,68.9834,-1596.82,0,0
72998.6,68.7554,-1591.42,0,0
73258.9,68.1189,-1585.78,0,0
73519.3,67.6079,-1580.01,0,0
73779.6,67.3221,-1574.26,0,0
74039.9,66.6547,-1568.86,0,0
74300.225,65.8763,-1563.22,0,0
74560.55,65.1279,-1557.5,0,0
74820.875,64.4512,-1551.76,0,0
75081.2,63.6564,-1546.09,0,0
75341.525,62.9808,-1540.23,0,0
75601.85,62.1885,-1534.49,0,0
75862.175,61.4557,-1528.59,0,0
76122.5,60.7707,-1522.75,0,0
76382.825,60.2099,-1516.84,0,0
76643.15,59.6235,-1510.97,0,0
76903.475,59.1148,-1505.07,0,0
77163.8,58.7382,-1499.31,0,0
77424.125,58.2144,-1493.58,0,0
77684.45,57.7481,-1487.88,0,0
77944.775,57.2391,-1482.25,0,0
78205.1,56.7671,-1476.52,0,0
78465.425,56.3274,-1470.79,0,0
78725.75,55.9128,-1465.15,0,0
78986.075,55.4982,-1459.46,0,0
79246.4,55.1556,-1453.79,0,0
79506.725,54.8351,-1448.16,0,0
79767.05,54.5198,-1442.58,0,0
80027.375,54.3054,-1437.03,0,0
80287.7,54.1095,-1431.43,0,0
80548.025,53.8557,-1425.99,0,0
80808.35,53.6149,-1420.52,0,0
81068.675,53.4318,-1415.11,0,0
81329.0,53.24,-1409.68,0,0
81589.325,53.0588,-1404.27,0,0
81849.65,52.8889,-1398.94,0,0
82109.975,52.796,-1393.69,0,0
82370.3,52.6506,-1388.26,0,0
82630.625,52.6214,-1383.09,0,0
82890.95,52.5277,-1377.84,0,0
83151.275,52.4397,-1372.67,0,0
83411.6,52.3769,-1367.51,0,0
83671.925,52.2658,-1362.36,0,0
83932.25,52.2866,-1357.3,0,0
84192.575,52.2465,-1352.24,0,0
84452.9,52.178,-1347.15,0,0
84713.225,52.1352,-1342.19,0,0
84973.55,52.1784,-1337.13,0,0
85233.875,52.1602,-1332.1,0,0
85494.2,52.1933,-1327.25,0,0
85754.525,52.2578,-1322.33,0,0
86014.85,52.2841,-1317.45,0,0
86275.175,52.3232,-1312.63,0,0
86535.5,52.2974,-1307.83,0,0
86795.825,52.3862,-1302.99,0,0
87056.15,52.3851,-1298.19,0,0
87316.475,52.4442,-1293.29,0,0
87576.8,52.6188,-1288.51,0,0
87837.125,52.7524,-1283.76,0,0
88097.45,52.8818,-1279.07,0,0
88357.775,53.0319,-1274.28,0,0
88618.1,53.206,-1269.59,0,0
88878.425,53.4415,-1264.9,0,0
89138.75,53.7591,-1260.07,0,0
89399.075,54.217,-1255.38,0,0
89659.4,54.7813,-1250.86,0,0
89919.725,55.2982,-1246.39,0,0
90180,55.7354,-1242.15,0,0
90440.4,56.2169,-1237.87,0,0
90700.7,56.5804,-1233.64,0,0
90961,56.9181,-1229.38,0,0
91221.3,57.5051,-1225.27,0,0
91481.7,57.9743,-1221.09,0,0
91742,58.4844,-1216.91,0,0
92002.3,58.92,-1213,0,0
92262.6,59.5413,-1208.97,0,0
92523,60.2686,-1205.1,0,0
92783.3,60.8357,-1201.59,0,0
93043.6,61.2839,-1197.96,0,0
93303.9,61.9198,-1194.28,0,0
93564.3,62.5535,-1191.04,0,0
93824.6,63.1993,-1187.96,0,0
94084.9,63.5245,-1185.37,0,0
94345.2,63.1017,-1182.81,0,0
94605.6,62.637,-1179.75,0,0
94865.9,62.2062,-1177.01,0,0
95126.2,60.9268,-1174.32,0,0
95386.5,59.301,-1170.62,0,0
95646.9,58.26,-1166.19,0,0
95907.2,57.656,-1162.04,0,0
96167.5,56.8723,-1157.85,0,0
96427.8,56.4371,-1153.34,0,0
96688.2,56.3923,-1149.05,0,0
96948.5,56.3765,-1144.97,0,0
97208.8,56.2231,-1140.93,0,0
97469.1,56.231,-1136.97,0,0
97729.5,56.2002,-1133.02,0,0
97989.8,56.0993,-1129.17,0,0
98250.1,56.0249,-1125.29,0,0
98510.4,56.0343,-1121.42,0,0
98770.8,56.0517,-1117.59,0,0
99031.1,55.9905,-1113.92,0,0
99291.4,55.8234,-1110.2,0,0
99551.7,55.6026,-1106.39,0,0
99812.1,55.4571,-1102.49,0,0
100072,55.3376,-1098.63,0,0
100333,55.2296,-1094.77,0,0
100593,55.0966,-1090.87,0,0
100853,54.9661,-1086.82,0,0
101114,55.0015,-1082.76,0,0
101374,55.1078,-1078.72,0,0
101634,55.2133,-1074.67,0,0
101895,55.479,-1070.55,0,0
102155,55.8138,-1066.52,0,0
102415,56.2864,-1062.32,0,0
102676,57.1453,-1058.25,0,0
102936,58.1361,-1054.62,0,0
103196,58.987,-1051.33,0,0
103457,59.5289,-1048.03,0,0
103717,60.1993,-1044.62,0,0
103977,60.8837,-1041.26,0,0
104238,61.8336,-1038.02,0,0
104498,62.8482,-1035.36,0,0
104758,63.3098,-1032.99,0,0
105019,63.426,-1030.55,0,0
105279,63.3452,-1027.82,0,0
105539,63.3705,-1024.94,0,0
105800,63.4092,-1022.35,0,0
106060,63.1435,-1019.67,0,0
106320.175,62.7711,-1016.84,0,0
106580.5,62.3975,-1013.89,0,0
106840.825,61.9356,-1010.93,0,0
107101.15,61.3557,-1007.87,0,0
107361.475,60.8233,-1004.56,0,0
107621.8,60.3308,-1001.21,0,0
107882.125,59.9577,-997.801,0,0
108142.45,59.611,-994.288,0,0
108402.775,59.2691,-990.808,0,0
108663.1,58.931,-987.234,0,0
108923.425,58.6737,-983.583,0,0
109183.75,58.4695,-979.752,0,0
109444.075,58.5163,-975.99,0,0
109704.4,58.6297,-972.342,0,0
109964.725,58.6834,-968.758,0,0
110225.05,58.7167,-965.112,0,0
110485.375,58.9055,-961.26,0,0
110745.7,59.3182,-957.342,0,0
111006.025,60.049,-953.899,0,0
111266.35,60.5157,-950.526,0,0
111526.675,60.8864,-947.31,0,0
111787.0,61.5284,-943.778,0,0
112047.325,62.0665,-940.613,0,0
112307.65,62.5179,-937.424,0,0
112567.975,62.9582,-934.3,0,0
112828.3,63.2948,-931.222,0,0
113088.625,63.5705,-928.009,0,0
113348.95,63.8845,-924.811,0,0
113609.275,64.244,-921.719,0,0
113869.6,64.5505,-918.575,0,0
114129.925,64.8307,-915.315,0,0
114390.25,65.1319,-912.091,0,0
114650.575,65.3417,-908.748,0,0
114910.9,65.7668,-905.258,0,0
115171.225,66.2977,-901.858,0,0
115431.55,66.9214,-898.466,0,0
115691.875,67.6489,-895.204,0,0
115952.2,68.2642,-892.033,0,0
116212.525,68.8607,-888.636,0,0
116472.85,69.6972,-885.237,0,0
116733.175,70.7649,-881.931,0,0
116993.5,71.7704,-878.869,0,0
117253.825,72.7185,-875.858,0,0
117514.15,73.5976,-872.659,0,0
117774.475,74.8895,-869.241,0,0
118034.8,76.6391,-866.24,0,0
118295.125,78.3335,-863.768,0,0
118555.45,79.8431,-861.658,0,0
118815.775,80.8419,-859.603,0,0
119076.1,81.786,-857.124,0,0
119336.425,83.0872,-854.551,0,0
119596.75,84.8959,-852.357,0,0
119857.075,86.6271,-850.858,0,0
120117.4,87.9537,-849.791,0,0
120377.725,88.7283,-849.028,0,0
120638.05,88.9394,-848.063,0,0
120898.375,88.927,-846.967,0,0
121158.7,88.619,-845.718,0,0
121419.025,88.006,-844.297,0,0
121679.35,87.1099,-842.369,0,0
121939.675,86.3042,-839.873,0,0
122200.0,85.9915,-837.054,0,0
122460,86.0309,-834.382,0,0
122721,86.1406,-831.747,0,0
122981,86.2412,-829.136,0,0
123241,86.6497,-826.579,0,0
123502,87.0475,-824.302,0,0
123762,87.3107,-822.073,0,0
124022,87.5723,-819.746,0,0
124283,87.8742,-817.503,0,0
124543,88.1598,-815.322,0,0
124803,88.4143,-813.162,0,0
125064,88.7348,-810.996,0,0
125324,88.9923,-808.999,0,0
125584,89.1586,-806.97,0,0
125845,89.3857,-805.014,0,0
126105,89.4782,-803.167,0,0
126365,89.4244,-801.325,0,0
126626,89.1746,-799.425,0,0
126886,88.9189,-797.402,0,0
127146,88.6827,-795.271,0,0
127406,88.4426,-793.17,0,0
127667,88.1288,-791.024,0,0
127927,87.8155,-788.789,0,0
128187,87.4805,-786.654,0,0
128448,86.9675,-784.43,0,0
128708,86.4077,-781.934,0,0
128968,86.0175,-779.306,0,0
129229,85.7526,-776.617,0,0
129489,85.5767,-773.97,0,0
129749,85.3931,-771.314,0,0
130010,85.234,-768.53,0,0
130270,85.3083,-765.624,0,0
130530,85.723,-762.897,0,0
130791,86.148,-760.49,0,0
131051,86.4226,-758.277,0,0
131311,86.5544,-756.136,0,0
131572,86.588,-753.997,0,0
131832,86.4516,-751.819,0,0
132092,86.2888,-749.597,0,0
132353,86.0029,-747.278,0,0
132613,85.7679,-744.797,0,0
132873,85.7632,-742.313,0,0
133134,85.6676,-739.991,0,0
133394,85.5553,-737.698,0,0
133654,85.3711,-735.412,0,0
133915,84.9739,-733.08,0,0
134175,84.625,-730.503,0,0
134435,84.3351,-727.994,0,0
134696,84.0856,-725.449,0,0
134956,83.7771,-722.948,0,0
135216,83.4105,-720.268,0,0
135477,83.1826,-717.476,0,0
135737,82.9806,-714.798,0,0
135997,82.7089,-712.159,0,0
136258,82.3044,-709.429,0,0
136518,81.911,-706.438,0,0
136778,81.7113,-703.308,0,0
137039,81.7506,-700.157,0,0
137299,81.927,-697.143,0,0
137559,82.1723,-694.214,0,0
137819,82.3939,-691.449,0,0
138080,82.5086,-688.658,0,0
138340.125,82.7572,-685.793,0,0
138600.45,83.1671,-683.109,0,0
138860.775,83.4002,-680.715,0,0
139121.1,83.3894,-678.308,0,0
139381.425,83.221,-675.786,0,0
139641.75,82.9519,-673.127,0,0
139902.075,82.6562,-670.263,0,0
140162.4,82.5136,-667.269,0,0
140422.725,82.5429,-664.22,0,0
140683.05,82.6808,-661.391,0,0
140943.375,82.6435,-658.652,0,0
141203.7,82.509,-655.835,0,0
141464.025,82.308,-652.943,0,0
141724.35,82.0724,-649.947,0,0
141984.675,81.833,-646.731,0,0
142245.0,81.7744,-643.467,0,0
142505.325,81.7662,-640.294,0,0
142765.65,81.6814,-637.054,0,0
143025.975,81.6756,-633.691,0,0
143286.3,81.6974,-630.318,0,0
143546.625,81.7635,-626.853,0,0
143806.95,81.8907,-623.405,0,0
144067.275,82.0434,-619.915,0,0
144327.6,82.2308,-616.364,0,0
144587.925,82.4898,-612.747,0,0
144848.25,82.8272,-609.098,0,0
145108.575,83.2712,-605.463,0,0
145368.9,83.7347,-601.86,0,0
145629.225,84.1759,-598.249,0,0
145889.55,84.5914,-594.562,0,0
146149.875,85.0651,-590.719,0,0
146410.2,85.7578,-586.855,0,0
146670.525,86.4819,-583.106,0,0
146930.85,87.1382,-579.284,0,0
147191.175,87.9027,-575.36,0,0
147451.5,88.7089,-571.406,0,0
147711.825,89.6248,-567.295,0,0
147972.15,90.7947,-563.187,0,0
148232.475,92.0712,-559.205,0,0
148492.8,93.3371,-555.261,0,0
148753.125,94.5986,-551.268,0,0
149013.45,95.9538,-547.188,0,0
149273.775,97.4313,-543.037,0,0
149534.1,99.0773,-538.79,0,0
149794.425,101.066,-534.538,0,0
150054.75,103.252,-530.493,0,0
150315.075,105.526,-526.571,0,0
150575.4,107.941,-522.777,0,0
150835.725,110.464,-519.142,0,0
151096.05,113.04,-515.703,0,0
151356.375,115.603,-512.431,0,0
151616.7,118.161,-509.252,0,0
151877.025,120.703,-506.166,0,0
152137.35,123.27,-503.157,0,0
152397.675,125.874,-500.317,0,0
152658.0,128.397,-497.626,0,0
152918.325,130.897,-494.985,0,0
153178.65,133.374,-492.562,0,0
153438.975,135.554,-490.311,0,0
153699.3,137.525,-487.869,0,0
153959.625,139.541,-485.337,0,0
154219.95,141.59,-482.925,0,0
154480,143.432,-480.673,0,0
154741,144.764,-478.421,0,0
155001,145.737,-475.617,0,0
155261,146.892,-472.025,0,0
155522,148.803,-468.113,0,0
155782,151.225,-464.499,0,0
156042,153.613,-461.385,0,0
156303,155.808,-458.316,0,0
156563,157.805,-454.915,0,0
156823,160.049,-450.963,0,0
157084,163.088,-447.003,0,0
157344,166.706,-443.447,0,0
157604,170.607,-440.795,0,0
157864,173.899,-438.749,0,0
158125,176.993,-436.759,0,0
158385,179.795,-435.359,0,0
158645,181.36,-434.097,0,0
158906,182.248,-432.06,0,0
159166,182.781,-429.075,0,0
159426,183.707,-425.357,0,0
159687,184.412,-421.167,0,0
159947,185.329,-415.814,0,0
160207,187.699,-409.544,0,0
160468,191.01,-403.623,0,0
160728,195.025,-397.663,0,0
160988,200.139,-392.53,0,0
161249,204.649,-388.277,0,0
161509,208.564,-383.153,0,0
161769,213.791,-377.192,0,0
162030,220.266,-372.098,0,0
162290,226.703,-367.852,0,0
162550,233.236,-363.639,0,0
162811,239.939,-359.736,0,0
163071,246.804,-355.666,0,0
163331,254.223,-351.559,0,0
163592,262.578,-347.627,0,0
163852,271.417,-344.433,0,0
164112,280.817,-341.914,0,0
164373,290.16,-340.079,0,0
164633,299.677,-338.399,0,0
164893,310.476,-336.814,0,0
165154,322.607,-337.096,0,0
165414,333.954,-339.896,0,0
165674,343.585,-343.351,0,0
165935,353.025,-346.369,0,0
166195,362.944,-350.005,0,0
166455,372.763,-355.06,0,0
166716,381.879,-361.531,0,0
166976,389.621,-368.92,0,0
167236,396.009,-376.441,0,0
167497,401.211,-383.937,0,0
167757,405.617,-390.806,0,0
168017,410.194,-397.243,0,0
168277,414.88,-404.432,0,0
168538,418.607,-412.207,0,0
168798,421.713,-419.95,0,0
169058,424.222,-427.927,0,0
169319,426.268,-436.361,0,0
169579,426.608,-445.787,0,0
169839,424.475,-454.697,0,0
170100,420.82,-461.509,0,0
170360.075,417.226,-466.318,0,0
170620.4,414.067,-470.266,0,0
170880.725,411.035,-473.6,0,0
171141.05,407.994,-476.229,0,0
171401.375,404.964,-477.877,0,0
171661.7,402.751,-478.417,0,0
171922.025,401.703,-479.102,0,0
172182.35,400.58,-479.992,0,0
172442.675,399.518,-480.252,0,0
172703.0,399.036,-479.767,0,0
172963.325,400.136,-478.737,0,0
173223.65,403.097,-478.975,0,0
173483.975,405.879,-481.353,0,0
173744.3,407.479,-484.569,0,0
174004.625,408.029,-487.426,0,0
174264.95,408.894,-489.414,0,0
174525.275,410.873,-492.19,0,0
174785.6,412.189,-496.485,0,0
175045.925,412.297,-500.925,0,0
175306.25,411.442,-505.199,0,0
175566.575,410.171,-508.65,0,0
175826.9,409.23,-511.923,0,0
176087.225,408.242,-515.382,0,0
176347.55,406.863,-519,0,0
176607.875,405.326,-522.55,0,0
176868.2,403.578,-526.843,0,0
177128.525,400.158,-531.619,0,0
177388.85,395.179,-535.067,0,0
177649.175,390.082,-536.955,0,0
177909.5,385.358,-538.214,0,0
178169.825,380.17,-539.115,0,0
178430.15,374.639,-538.565,0,0
178690.475,369.881,-536.781,0,0
178950.8,366.157,-534.372,0,0
179211.125,363.195,-531.797,0,0
179471.45,360.728,-529.225,0,0
179731.775,358.667,-526.2,0,0
179992.1,357.799,-522.837,0,0
180252.425,358.009,-520.264,0,0
180512.75,358.179,-518.556,0,0
180773.075,358.38,-516.888,0,0
181033.4,358.853,-515.379,0,0
181293.725,359.823,-514.188,0,0
181554.05,361.107,-513.81,0,0
181814.375,362.498,-514.219,0,0
182074.7,363.212,-516.112,0,0
182335.025,362.335,-518.218,0,0
182595.35,360.403,-519.87,0,0
182855.675,358.019,-520.658,0,0
183116.0,355.734,-520.872,0,0
183376.325,353.528,-521.119,0,0
183636.65,350.812,-521.375,0,0
183896.975,347.433,-521.192,0,0
184157.3,343.737,-519.916,0,0
184417.625,340.643,-517.779,0,0
184677.95,338.094,-515.673,0,0
184938.275,335.33,-513.502,0,0
185198.6,332.545,-510.736,0,0
185458.925,330.047,-507.617,0,0
185719.25,327.746,-504.173,0,0
185979.575,325.667,-500.366,0,0
186239.9,323.887,-496.002,0,0
186500,322.719,-491.163,0,0
186761,322.327,-486.144,0,0
187021,322.945,-481.328,0,0
187281,323.882,-477.125,0,0
187542,324.955,-472.977,0,0
187802,326.428,-468.936,0,0
188062,328.23,-465.515,0,0
188322,330.14,-462.512,0,0
188583,332.089,-459.872,0,0
188843,333.563,-457.787,0,0
189103,334.29,-455.541,0,0
189364,334.937,-452.442,0,0
189624,336.096,-449.023,0,0
189884,337.911,-445.557,0,0
190145,340.051,-442.677,0,0
190405,342.091,-440.098,0,0
190665,343.891,-437.595,0,0
190926,345.761,-435.019,0,0
191186,347.686,-432.57,0,0
191446,349.449,-430.149,0,0
191707,351.067,-427.599,0,0
191967,352.793,-424.716,0,0
192227,354.792,-421.933,0,0
192488,356.61,-419.255,0,0
192748,358.23,-416.087,0,0
193008,360.045,-412.276,0,0
193269,362.565,-408.055,0,0
193529,365.876,-403.929,0,0
193789,369.747,-400.027,0,0
194050,373.884,-396.333,0,0
194310,378.382,-392.699,0,0
194570,383.469,-389.136,0,0
194831,389.168,-385.878,0,0
195091,395.596,-383.327,0,0
195351,402.446,-381.488,0,0
195612,409.39,-380.708,0,0
195872,416.356,-380.85,0,0
196132,422.988,-381.632,0,0
196393,429.275,-383.285,0,0
196653,435.286,-386.014,0,0
196913,439.892,-389.321,0,0
197174,442.993,-392.689,0,0
197434,444.993,-395.028,0,0
197694,446.884,-396.332,0,0
197955,449.319,-397.068,0,0
198215,452.146,-397.911,0,0
198475,455.007,-399.017,0,0
198735,457.633,-400.539,0,0
198996,459.387,-401.902,0,0
199256,461.064,-402.288,0,0
199516,463.565,-402.244,0,0
199777,466.697,-403.144,0,0
200037,469.065,-404.932,0,0
200297,470.114,-406.5,0,0
200558,470.371,-407.04,0,0
200818,470.631,-406.153,0,0
201078,471.858,-404.336,0,0
201339,473.939,-402.29,0,0
201599,476.644,-400.2,0,0
201859,479.907,-398.294,0,0
202120,483.477,-396.425,0,0
202380.025,487.51,-394.545,0,0
202640.35,492.262,-392.726,0,0
202900.675,497.623,-391.414,0,0
203161.0,503.286,-390.577,0,0
203421.325,509.277,-390.185,0,0
203681.65,515.48,-390.457,0,0
203941.975,521.701,-391.287,0,0
204202.3,527.957,-392.576,0,0
204462.625,534.149,-394.584,0,0
204722.95,539.992,-397.247,0,0
204983.275,545.285,-400.153,0,0
205243.6,550.517,-403.347,0,0
205503.925,555.313,-407.157,0,0
205764.25,559.312,-411.335,0,0
206024.575,562.105,-415.574,0,0
206284.9,563.709,-419.063,0,0
206545.225,564.933,-421.153,0,0
206805.55,566.611,-422.141,0,0
207065.875,568.777,-422.258,0,0
207326.2,572.077,-421.67,0,0
207586.525,576.782,-421.236,0,0
207846.85,582.174,-421.589,0,0
208107.175,587.854,-422.459,0,0
208367.5,593.96,-423.608,0,0
208627.825,600.413,-425.429,0,0
208888.15,606.919,-427.858,0,0
209148.475,613.454,-430.774,0,0
209408.8,620.035,-434.152,0,0
209669.125,626.624,-438.042,0,0
209929.45,633.077,-442.413,0,0
210189.775,639.476,-447.3,0,0
210450.1,645.562,-452.537,0,0
210710.425,651.467,-458.176,0,0
210970.75,657.203,-464.211,0,0
211231.075,662.592,-470.666,0,0
211491.4,667.52,-477.414,0,0
211751.725,672.062,-484.292,0,0
212012.05,676.304,-491.192,0,0
212272.375,680.353,-498.079,0,0
212532.7,684.272,-505.062,0,0
212793.025,688.201,-512.077,0,0
213053.35,692.142,-519.44,0,0
213313.675,696.006,-527.3,0,0
213574.0,699.319,-535.709,0,0
213834.325,701.993,-544.245,0,0
214094.65,704.23,-552.623,0,0
214354.975,706.256,-560.853,0,0
214615.3,708.346,-569.023,0,0
214875.625,710.457,-577.587,0,0
215135.95,712.404,-586.539,0,0
215396.275,713.945,-596.041,0,0
215656.6,714.612,-605.948,0,0
215916.925,714.644,-615.607,0,0
216177.25,714.25,-624.981,0,0
216437.575,713.614,-634.498,0,0
216697.9,712.54,-643.998,0,0
216958.225,710.885,-653.719,0,0
217218.55,708.435,-663.159,0,0
217478.875,705.428,-671.976,0,0
217739.2,702.424,-680.219,0,0
217999.525,699.555,-688.261,0,0
218259.85,696.516,-696.474,0,0
218520,693.169,-704.784,0,0
218780,689.091,-712.639,0,0
219041,684.833,-719.744,0,0
219301,680.842,-726.324,0,0
219561,677.461,-732.83,0,0
219822,674.282,-739.732,0,0
220082,671.048,-747.119,0,0
220342,667.38,-755.057,0,0
220603,662.812,-763.023,0,0
220863,657.807,-770.659,0,0
221123,652.324,-778.237,0,0
221384,646.511,-785.384,0,0
221644,640.587,-792.379,0,0
221904,634.361,-799.611,0,0
222165,627.308,-806.775,0,0
222425,619.311,-813.361,0,0
222685,611.09,-819.245,0,0
222946,602.263,-824.538,0,0
223206,593.058,-829.319,0,0
223466,583.065,-832.649,0,0
223727,573.362,-834.766,0,0
223987,564.224,-835.703,0,0
224247,555.788,-835.928,0,0
224508,548.022,-835.549,0,0
224768,541.125,-834.582,0,0
225028,535.087,-833.403,0,0
225289,530.045,-832.122,0,0
225549,525.91,-831.217,0,0
225809,522.476,-830.503,0,0
226070,519.603,-830.691,0,0
226330,517.111,-831.764,0,0
226590,514.057,-833.437,0,0
226851,510.866,-835.312,0,0
227111,507.504,-837.413,0,0
227371,504.076,-839.942,0,0
227632,500.047,-842.918,0,0
227892,495.397,-845.88,0,0
228152,490.356,-848.511,0,0
228413,485.121,-850.96,0,0
228673,479.426,-853.162,0,0
228933,473.6,-855.016,0,0
229193,467.768,-856.453,0,0
229454,462.016,-857.526,0,0
229714,456.333,-858.522,0,0
229974,450.591,-859.458,0,0
230235,445.076,-860.01,0,0
230495,439.6,-860.644,0,0
230755,434.046,-861.097,0,0
231016,428.343,-861.414,0,0
231276,422.781,-861.431,0,0
231536,417.321,-861.259,0,0
231797,412.038,-860.955,0,0
232057,406.911,-860.672,0,0
232317,401.831,-860.221,0,0
232578,396.811,-859.782,0,0
232838,391.868,-859.347,0,0
233098,386.9,-858.887,0,0
233359,381.857,-858.244,0,0
233619,377.062,-857.467,0,0
233879,372.299,-856.707,0,0
234140,367.547,-855.976,0,0
234400,362.866,-855.091,0,0
234660.3,358.007,-854.162,0,0
234920.625,353.487,-853.219,0,0
235180.95,348.974,-852.217,0,0
235441.275,344.485,-851.361,0,0
235701.6,339.776,-850.503,0,0
235961.925,334.982,-849.582,0,0
236222.25,330.016,-848.502,0,0
236482.575,325.029,-847.11,0,0
236742.9,320.115,-845.588,0,0
237003.225,315.314,-843.875,0,0
237263.55,310.584,-842.144,0,0
237523.875,305.724,-840.361,0,0
237784.2,300.798,-838.41,0,0
238044.525,295.741,-836.207,0,0
238304.85,290.823,-833.646,0,0
238565.175,285.993,-830.839,0,0
238825.5,281.287,-827.618,0,0
239085.825,276.929,-824.235,0,0
239346.15,272.76,-820.606,0,0
239606.475,269.05,-816.899,0,0
239866.8,265.633,-813.197,0,0
240127.125,262.477,-809.51,0,0
240387.45,259.65,-806.013,0,0
240647.775,256.741,-802.565,0,0
240908.1,253.99,-799.103,0,0
241168.425,251.298,-795.566,0,0
241428.75,248.71,-792.026,0,0
241689.075,246.203,-788.322,0,0
241949.4,243.935,-784.534,0,0
242209.725,242.119,-780.584,0,0
242470.05,240.66,-776.929,0,0
242730.375,239.346,-773.509,0,0
242990.7,238.118,-770.206,0,0
243251.025,236.938,-767.038,0,0
243511.35,235.948,-763.915,0,0
243771.675,235.011,-760.973,0,0
244032.0,234.117,-758.265,0,0
244292.325,233.286,-755.712,0,0
244552.65,232.384,-753.125,0,0
244812.975,231.361,-750.625,0,0
245073.3,230.59,-748.303,0,0
245333.625,229.805,-746.186,0,0
245593.95,228.702,-744.048,0,0
245854.275,227.607,-741.765,0,0
246114.6,226.594,-739.52,0,0
246374.925,225.582,-737.272,0,0
246635.25,224.507,-734.994,0,0
246895.575,223.672,-732.674,0,0
247155.9,222.794,-730.435,0,0
247416.225,221.964,-728.195,0,0
247676.55,221.114,-726.008,0,0
247936.875,220.172,-723.739,0,0
248197.2,219.443,-721.329,0,0
248457.525,218.908,-718.841,0,0
248717.85,218.509,-716.487,0,0
248978.175,218.457,-714.279,0,0
249238.5,218.388,-712.32,0,0
249498.825,218.391,-710.635,0,0
249759.15,218.348,-709.163,0,0
250019.475,218.173,-707.875,0,0
250279.8,217.837,-706.72,0,0
250540,217.346,-705.682,0,0
250800,216.639,-704.648,0,0
251061,215.657,-703.729,0,0
251321,214.555,-702.686,0,0
251581,213.201,-701.485,0,0
251842,211.782,-700.163,0,0
252102,210.32,-698.735,0,0
252362,208.749,-697.135,0,0
252623,206.997,-695.381,0,0
252883,205.227,-693.215,0,0
253143,203.592,-690.831,0,0
253404,202.037,-688.212,0,0
253664,200.716,-685.419,0,0
253924,199.595,-682.471,0,0
254185,198.628,-679.438,0,0
254445,197.902,-676.306,0,0
254705,197.386,-673.086,0,0
254966,197.117,-669.897,0,0
255226,196.935,-666.554,0,0
255486,196.973,-663.236,0,0
255747,197.334,-659.847,0,0
256007,197.994,-656.43,0,0
256267,199.022,-653.094,0,0
256528,200.435,-649.933,0,0
256788,202.098,-647.126,0,0
257048,203.949,-644.659,0,0
257309,205.812,-642.503,0,0
257569,207.722,-640.686,0,0
257829,209.441,-638.97,0,0
258090,211.101,-637.424,0,0
258350,212.669,-635.91,0,0
258610,214.215,-634.38,0,0
258871,215.842,-632.711,0,0
259131,217.68,-630.99,0,0
259391,219.815,-629.347,0,0
259651,222.415,-627.878,0,0
259912,225.277,-626.78,0,0
260172,228.24,-626.21,0,0
260432,231.303,-626.001,0,0
260693,234.265,-626.266,0,0
260953,237.313,-626.865,0,0
261213,240.296,-628.007,0,0
261474,243.044,-629.686,0,0
261734,245.384,-631.846,0,0
261994,247.318,-634.306,0,0
262255,248.797,-637.025,0,0
262515,249.797,-639.913,0,0
262775,250.26,-642.904,0,0
263036,250.262,-645.789,0,0
263296,249.838,-648.576,0,0
263556,249.17,-651.307,0,0
263817,248.167,-653.919,0,0
264077,246.811,-656.464,0,0
264337,245.071,-658.93,0,0
264598,242.885,-661.103,0,0
264858,240.485,-662.953,0,0
265118,237.815,-664.433,0,0
265379,235.056,-665.565,0,0
265639,232.186,-666.435,0,0
265899,229.297,-666.934,0,0
266160,226.393,-667.167,0,0
266420,223.416,-667.071,0,0
266680.25,220.46,-666.716,0,0
266940.575,217.6,-666.004,0,0
267200.9,214.888,-665.025,0,0
267461.225,212.346,-663.821,0,0
267721.55,209.9,-662.462,0,0
267981.875,207.675,-660.861,0,0
268242.2,205.594,-659.124,0,0
268502.525,203.799,-657.263,0,0
268762.85,202.26,-655.276,0,0
269023.175,200.938,-653.336,0,0
269283.5,199.847,-651.518,0,0
269543.825,198.878,-649.775,0,0
269804.15,197.85,-648.056,0,0
270064.475,196.854,-646.254,0,0
270324.8,195.97,-644.385,0,0
270585.125,195.25,-642.417,0,0
270845.45,194.711,-640.392,0,0
271105.775,194.409,-638.406,0,0
271366.1,194.275,-636.566,0,0
271626.425,194.297,-634.908,0,0
271886.75,194.35,-633.322,0,0
272147.075,194.479,-631.825,0,0
272407.4,194.676,-630.555,0,0
272667.725,194.759,-629.439,0,0
272928.05,194.609,-628.381,0,0
273188.375,194.389,-627.234,0,0
273448.7,194.107,-625.918,0,0
273709.025,193.911,-624.469,0,0
273969.35,193.798,-622.738,0,0
274229.675,193.929,-621.026,0,0
274490.0,194.257,-619.313,0,0
274750.325,194.773,-617.648,0,0
275010.65,195.497,-616.006,0,0
275270.975,196.379,-614.503,0,0
275531.3,197.499,-613.055,0,0
275791.625,198.806,-611.782,0,0
276051.95,200.27,-610.761,0,0
276312.275,201.825,-609.938,0,0
276572.6,203.446,-609.391,0,0
276832.925,205.124,-609.098,0,0
277093.25,206.811,-609.081,0,0
277353.575,208.438,-609.407,0,0
277613.9,209.889,-609.968,0,0
277874.225,211.211,-610.69,0,0
278134.55,212.439,-611.586,0,0
278394.875,213.506,-612.689,0,0
278655.2,214.414,-613.955,0,0
278915.525,215.055,-615.435,0,0
279175.85,215.46,-617.034,0,0
279436.175,215.638,-618.665,0,0
279696.5,215.55,-620.305,0,0
279956.825,215.195,-621.953,0,0
280217.15,214.608,-623.616,0,0
280477.475,213.724,-625.216,0,0
280737.8,212.622,-626.647,0,0
280998.125,211.382,-627.846,0,0
281258.45,210.051,-628.953,0,0
281518.775,208.67,-629.915,0,0
281779.1,207.169,-630.84,0,0
282039.425,205.498,-631.629,0,0
282299.75,203.747,-632.235,0,0
282560,201.97,-632.671,0,0
282820,200.172,-632.943,0,0
283081,198.354,-633.108,0,0
283341,196.557,-633.158,0,0
283601,194.676,-633.064,0,0
283862,192.869,-632.828,0,0
284122,191.011,-632.544,0,0
284382,189.182,-632.081,0,0
284643,187.373,-631.483,0,0
284903,185.601,-630.737,0,0
285163,183.921,-629.927,0,0
285424,182.289,-628.969,0,0
285684,180.725,-627.937,0,0
285944,179.243,-626.733,0,0
286205,177.872,-625.446,0,0
286465,176.64,-624.087,0,0
286725,175.519,-622.671,0,0
286986,174.513,-621.179,0,0
287246,173.699,-619.605,0,0
287506,173.055,-618.03,0,0
287767,172.663,-616.465,0,0
288027,172.444,-615.05,0,0
288287,172.337,-613.755,0,0
288548,172.337,-612.626,0,0
288808,172.365,-611.614,0,0
289068,172.433,-610.756,0,0
289329,172.494,-610.058,0,0
289589,172.449,-609.479,0,0
289849,172.295,-608.998,0,0
290109,172.076,-608.464,0,0
290370,171.826,-607.952,0,0
290630,171.571,-607.416,0,0
290890,171.281,-606.947,0,0
291151,170.986,-606.5,0,0
291411,170.576,-606.087,0,0
291671,170.091,-605.621,0,0
291932,169.538,-605.096,0,0
292192,168.943,-604.484,0,0
292452,168.349,-603.74,0,0
292713,167.779,-602.851,0,0
292973,167.328,-601.849,0,0
293233,167.042,-600.792,0,0
293494,166.891,-599.669,0,0
293754,166.945,-598.57,0,0
294014,167.183,-597.55,0,0
294275,167.536,-596.636,0,0
294535,167.983,-595.874,0,0
294795,168.556,-595.226,0,0
295056,169.155,-594.792,0,0
295316,169.848,-594.503,0,0
295576,170.499,-594.395,0,0
295837,171.123,-594.49,0,0
296097,171.659,-594.774,0,0
296357,172.053,-595.211,0,0
296618,172.322,-595.724,0,0
296878,172.48,-596.341,0,0
297138,172.485,-597.033,0,0
297399,172.338,-597.78,0,0
297659,172.054,-598.544,0,0
297919,171.598,-599.326,0,0
298180,170.982,-600.059,0,0
298440,170.256,-600.755,0,0
298700.2,169.396,-601.36,0,0
298960.525,168.476,-601.898,0,0
299220.85,167.495,-602.368,0,0
299481.175,166.443,-602.801,0,0
299741.5,165.33,-603.126,0,0
300001.825,164.179,-603.406,0,0
300262.15,162.979,-603.612,0,0
300522.475,161.74,-603.775,0,0
300782.8,160.46,-603.855,0,0
301043.125,159.171,-603.874,0,0
301303.45,157.85,-603.84,0,0
301563.775,156.486,-603.725,0,0
301824.1,155.112,-603.536,0,0
302084.425,153.718,-603.265,0,0
302344.75,152.343,-602.905,0,0
302605.075,150.995,-602.434,0,0
302865.4,149.692,-601.915,0,0
303125.725,148.423,-601.359,0,0
303386.05,147.189,-600.786,0,0
303646.375,145.939,-600.188,0,0
303906.7,144.699,-599.524,0,0
304167.025,143.492,-598.805,0,0
304427.35,142.294,-598.052,0,0
304687.675,141.113,-597.198,0,0
304948.0,140.004,-596.342,0,0
305208.325,138.955,-595.394,0,0
305468.65,137.932,-594.432,0,0
305728.975,136.988,-593.439,0,0
305989.3,136.073,-592.401,0,0
306249.625,135.244,-591.329,0,0
306509.95,134.487,-590.268,0,0
306770.275,133.811,-589.181,0,0
307030.6,133.227,-588.14,0,0
307290.925,132.728,-587.113,0,0
307551.25,132.277,-586.168,0,0
307811.575,131.881,-585.248,0,0
308071.9,131.513,-584.432,0,0
308332.225,131.174,-583.686,0,0
308592.55,130.811,-583.004,0,0
308852.875,130.415,-582.392,0,0
309113.2,129.969,-581.809,0,0
309373.525,129.537,-581.273,0,0
309633.85,129.012,-580.761,0,0
309894.175,128.462,-580.259,0,0
310154.5,127.883,-579.761,0,0
310414.825,127.238,-579.285,0,0
310675.15,126.558,-578.784,0,0
310935.475,125.827,-578.276,0,0
311195.8,125.057,-577.722,0,0
311456.125,124.239,-577.149,0,0
311716.45,123.362,-576.572,0,0
311976.775,122.468,-575.909,0,0
312237.1,121.522,-575.177,0,0
312497.425,120.549,-574.354,0,0
312757.75,119.614,-573.439,0,0
313018.075,118.701,-572.435,0,0
313278.4,117.826,-571.356,0,0
313538.725,117.009,-570.21,0,0
313799.05,116.264,-569.021,0,0
314059.375,115.557,-567.801,0,0
314319.7,114.938,-566.516,0,0
314580,114.389,-565.146,0,0
314840,113.866,-563.897,0,0
315101,113.51,-562.502,0,0
315361,113.287,-561.073,0,0
315621,113.199,-559.708,0,0
315882,113.154,-558.419,0,0
316142,113.24,-557.148,0,0
316402,113.364,-556.05,0,0
316663,113.652,-554.939,0,0
316923,113.834,-554.071,0,0
317183,114.112,-553.155,0,0
317444,114.36,-552.452,0,0
317704,114.556,-551.788,0,0
317964,114.663,-551.208,0,0
318225,114.735,-550.626,0,0
318485,114.824,-550.006,0,0
318745,114.795,-549.436,0,0
319006,114.788,-548.983,0,0
319266,114.727,-548.37,0,0
319526,114.778,-547.873,0,0
319787,114.693,-547.352,0,0
320047,114.633,-546.771,0,0
320307,114.567,-546.168,0,0
320567,114.698,-545.576,0,0
320828,114.654,-545.097,0,0
321088,114.751,-544.494,0,0
321348,114.82,-544.01,0,0
321609,114.951,-543.477,0,0
321869,115.153,-543.03,0,0
322129,115.454,-542.707,0,0
322390,115.639,-542.42,0,0
322650,115.792,-542.266,0,0
322910,115.966,-542.208,0,0
323171,116.069,-542.21,0,0
323431,116.125,-542.215,0,0
323691,116.052,-542.337,0,0
323952,115.893,-542.528,0,0
324212,115.716,-542.737,0,0
324472,115.436,-542.878,0,0
324733,115.096,-543.06,0,0
324993,114.656,-543.224,0,0
325253,114.17,-543.325,0,0
325514,113.524,-543.525,0,0
325774,112.979,-543.61,0,0
326034,112.202,-543.649,0,0
326295,111.52,-543.723,0,0
326555,110.747,-543.619,0,0
326815,109.902,-543.56,0,0
327076,109.04,-543.475,0,0
327336,108.109,-543.208,0,0
327596,107.196,-542.967,0,0
327857,106.246,-542.635,0,0
328117,105.447,-542.248,0,0
328377,104.548,-541.838,0,0
328638,103.604,-541.406,0,0
328898,102.783,-540.992,0,0
329158,101.966,-540.568,0,0
329419,101.048,-539.952,0,0
329679,100.27,-539.333,0,0
329939,99.49,-538.828,0,0
330200,98.6302,-538.352,0,0
330460,97.8065,-537.723,0,0
330720.15,97.0613,-537.156,0,0
330980.475,96.2136,-536.583,0,0
331240.8,95.3286,-536.036,0,0
331501.125,94.4916,-535.406,0,0
331761.45,93.6273,-534.744,0,0
332021.775,92.7613,-534.059,0,0
332282.1,91.8731,-533.313,0,0
332542.425,91.015,-532.545,0,0
332802.75,90.1514,-531.783,0,0
333063.075,89.332,-530.948,0,0
333323.4,88.4443,-530.129,0,0
333583.725,87.6,-529.201,0,0
333844.05,86.7238,-528.317,0,0
334104.375,85.8159,-527.273,0,0
334364.7,85.0034,-526.263,0,0
334625.025,84.2572,-525.2,0,0
334885.35,83.459,-524.079,0,0
335145.675,82.7787,-522.897,0,0
335406.0,82.1753,-521.738,0,0
335666.325,81.535,-520.588,0,0
335926.65,80.8861,-519.377,0,0
336186.975,80.385,-518.138,0,0
336447.3,79.956,-516.887,0,0
336707.625,79.4473,-515.734,0,0
336967.95,79.0459,-514.521,0,0
337228.275,78.647,-513.275,0,0
337488.6,78.2602,-512.077,0,0
337748.925,77.8845,-510.873,0,0
338009.25,77.5497,-509.567,0,0
338269.575,77.2845,-508.37,0,0
338529.9,76.9893,-507.109,0,0
338790.225,76.6782,-505.851,0,0
339050.55,76.5387,-504.478,0,0
339310.875,76.3327,-503.132,0,0
339571.2,76.2327,-501.762,0,0
339831.525,76.2612,-500.446,0,0
340091.85,76.2982,-499.087,0,0
340352.175,76.3963,-497.704,0,0
340612.5,76.5772,-496.437,0,0
340872.825,76.9259,-495.119,0,0
341133.15,77.2067,-493.939,0,0
341393.475,77.6538,-492.778,0,0
341653.8,78.1271,-491.688,0,0
341914.125,78.6661,-490.675,0,0
342174.45,79.0919,-489.788,0,0
342434.775,79.6717,-488.983,0,0
342695.1,80.2347,-488.26,0,0
342955.425,80.6923,-487.598,0,0
343215.75,81.1364,-487.037,0,0
343476.075,81.6327,-486.55,0,0
343736.4,82.0611,-486.051,0,0
343996.725,82.4163,-485.678,0,0
344257.05,82.7573,-485.336,0,0
344517.375,83.0012,-484.993,0,0
344777.7,83.1391,-484.705,0,0
345038.025,83.2656,-484.434,0,0
345298.35,83.2514,-484.136,0,0
345558.675,83.2486,-483.8,0,0
345819.0,83.1421,-483.431,0,0
346079.325,83.0654,-483.038,0,0
346339.65,82.9802,-482.635,0,0
346599.975,82.9072,-482.153,0,0
346860,82.7733,-481.67,0,0
347121,82.6766,-481.174,0,0
347381,82.5556,-480.73,0,0
347641,82.4144,-480.221,0,0
347902,82.2991,-479.706,0,0
348162,82.1639,-479.152,0,0
348422,82.0334,-478.575,0,0
348683,81.8961,-477.915,0,0
348943,81.7083,-477.315,0,0
349203,81.684,-476.619,0,0
349464,81.5897,-475.852,0,0
349724,81.6164,-475.11,0,0
349984,81.6587,-474.405,0,0
350245,81.7732,-473.7,0,0
350505,81.953,-472.995,0,0
350765,82.1289,-472.276,0,0
351025,82.3903,-471.701,0,0
351286,82.689,-471.104,0,0
351546,83.0815,-470.588,0,0
351806,83.4506,-470.215,0,0
352067,83.813,-469.925,0,0
352327,84.0864,-469.761,0,0
352587,84.3164,-469.674,0,0
352848,84.4536,-469.578,0,0
353108,84.5092,-469.557,0,0
353368,84.4408,-469.591,0,0
353629,84.2742,-469.485,0,0
353889,84.0738,-469.422,0,0
354149,83.7711,-469.26,0,0
354410,83.4307,-469.092,0,0
354670,83.078,-468.839,0,0
354930,82.7002,-468.533,0,0
355191,82.3497,-468.155,0,0
355451,81.9393,-467.739,0,0
355711,81.5865,-467.274,0,0
355972,81.2426,-466.855,0,0
356232,80.9465,-466.403,0,0
356492,80.5732,-465.927,0,0
356753,80.2806,-465.383,0,0
357013,79.911,-464.823,0,0
357273,79.587,-464.202,0,0
357534,79.2623,-463.654,0,0
357794,78.959,-462.98,0,0
358054,78.6851,-462.312,0,0
358315,78.4237,-461.59,0,0
358575,78.2335,-460.863,0,0
358835,78.111,-460.099,0,0
359096,78.0673,-459.361,0,0
359356,77.9724,-458.673,0,0
359616,77.9182,-457.994,0,0
359877,77.9219,-457.311,0,0
360137,77.9539,-456.633,0,0
360397,77.9471,-456.001,0,0
360658,77.9837,-455.428,0,0
360918,78.0042,-454.877,0,0
361178,77.9711,-454.338,0,0
361438,77.9418,-453.752,0,0
361699,77.9648,-453.197,0,0
361959,77.927,-452.608,0,0
362219,77.8812,-452.02,0,0
362480,77.884,-451.426,0,0
362740.1,77.8674,-450.814,0,0
363000.425,77.9214,-450.249,0,0
363260.75,77.9295,-449.58,0,0
363521.075,78.0263,-448.882,0,0
363781.4,78.1777,-448.277,0,0
364041.725,78.3777,-447.639,0,0
364302.05,78.7145,-447.075,0,0
364562.375,79.0074,-446.62,0,0
364822.7,79.4207,-446.205,0,0
365083.025,79.7174,-445.89,0,0
365343.35,80.0427,-445.741,0,0
365603.675,80.3077,-445.613,0,0
365864.0,80.4441,-445.595,0,0
366124.325,80.4801,-445.582,0,0
366384.65,80.4377,-445.639,0,0
366644.975,80.2934,-445.633,0,0
366905.3,80.0792,-445.597,0,0
367165.625,79.7512,-445.507,0,0
367425.95,79.3751,-445.382,0,0
367686.275,78.9037,-445.237,0,0
367946.6,78.4224,-444.943,0,0
368206.925,77.9314,-444.567,0,0
368467.25,77.4037,-444.095,0,0
368727.575,76.8366,-443.521,0,0
368987.9,76.3192,-442.853,0,0
369248.225,75.9404,-442.015,0,0
369508.55,75.6007,-441.184,0,0
369768.875,75.4273,-440.212,0,0
370029.2,75.4255,-439.311,0,0
370289.525,75.4371,-438.397,0,0
370549.85,75.6621,-437.525,0,0
370810.175,75.9095,-436.796,0,0
371070.5,76.2651,-436.149,0,0
371330.825,76.6686,-435.626,0,0
371591.15,77.0278,-435.256,0,0
371851.475,77.367,-434.961,0,0
372111.8,77.6606,-434.87,0,0
372372.125,77.8647,-434.734,0,0
372632.45,77.9451,-434.728,0,0
372892.775,77.9469,-434.743,0,0
373153.1,77.712,-434.681,0,0
373413.425,77.4931,-434.61,0,0
373673.75,77.1385,-434.467,0,0
373934.075,76.7354,-434.296,0,0
374194.4,76.3069,-433.914,0,0
374454.725,75.9612,-433.544,0,0
374715.05,75.5716,-433.128,0,0
374975.375,75.1926,-432.641,0,0
375235.7,74.758,-432.095,0,0
375496.025,74.3536,-431.523,0,0
375756.35,74.0832,-430.866,0,0
376016.675,73.8096,-430.14,0,0
376277.0,73.5523,-429.364,0,0
376537.325,73.3499,-428.611,0,0
376797.65,73.2864,-427.824,0,0
377057.975,73.1979,-427.082,0,0
377318.3,73.2282,-426.329,0,0
377578.625,73.216,-425.57,0,0
377838.95,73.3114,-424.879,0,0
378099.275,73.4468,-424.228,0,0
378359.6,73.561,-423.606,0,0
378619.925,73.7611,-422.949,0,0
378880,73.9492,-422.369,0,0
379141,74.1512,-421.878,0,0
379401,74.3601,-421.383,0,0
379661,74.5184,-420.904,0,0
379922,74.7635,-420.497,0,0
380182,74.9788,-420.141,0,0
380442,75.1186,-419.777,0,0
380703,75.2849,-419.494,0,0
380963,75.3625,-419.272,0,0
381223,75.4189,-418.968,0,0
381483,75.4662,-418.691,0,0
381744,75.4919,-418.385,0,0
382004,75.4937,-418.077,0,0
382264,75.542,-417.784,0,0
382525,75.4988,-417.517,0,0
382785,75.5156,-417.262,0,0
383045,75.5053,-416.963,0,0
383306,75.4196,-416.733,0,0
383566,75.3587,-416.512,0,0
383826,75.253,-416.268,0,0
384087,75.0888,-416.009,0,0
384347,74.9361,-415.756,0,0
384607,74.7445,-415.499,0,0
384868,74.5382,-415.176,0,0
385128,74.2533,-414.837,0,0
385388,74.0014,-414.456,0,0
385649,73.775,-414.045,0,0
385909,73.4878,-413.621,0,0
386169,73.231,-413.182,0,0
386430,73.0181,-412.689,0,0
386690,72.7823,-412.208,0,0
386950,72.5258,-411.696,0,0
387211,72.2602,-411.174,0,0
387471,72.0873,-410.677,0,0
387731,71.8364,-410.073,0,0
387992,71.5763,-409.457,0,0
388252,71.3549,-408.854,0,0
388512,71.1335,-408.124,0,0
388773,70.9489,-407.494,0,0
389033,70.7592,-406.767,0,0
389293,70.6283,-406.027,0,0
389554,70.5469,-405.219,0,0
389814,70.4643,-404.407,0,0
390074,70.4583,-403.595,0,0
390335,70.5017,-402.791,0,0
390595,70.5523,-401.952,0,0
390855,70.6964,-401.143,0,0
391116,70.8588,-400.315,0,0
391376,71.0862,-399.513,0,0
391636,71.3305,-398.749,0,0
391896,71.6205,-397.975,0,0
392157,71.952,-397.216,0,0
392417,72.3903,-396.494,0,0
392677,72.8055,-395.835,0,0
392938,73.3009,-395.243,0,0
393198,73.7829,-394.693,0,0
393458,74.2936,-394.154,0,0
393719,74.8108,-393.743,0,0
393979,75.3659,-393.353,0,0
394239,75.8662,-393.026,0,0
394500,76.3534,-392.725,0,0
394760.05,76.8423,-392.431,0,0
395020.375,77.3388,-392.238,0,0
395280.7,77.7421,-392.055,0,0
395541.025,78.2,-391.902,0,0
395801.35,78.5696,-391.849,0,0
396061.675,78.9843,-391.819,0,0
396322.0,79.3428,-391.777,0,0
396582.325,79.6506,-391.759,0,0
396842.65,79.9574,-391.79,0,0
397102.975,80.2491,-391.868,0,0
397363.3,80.4349,-391.949,0,0
397623.625,80.6172,-392.088,0,0
397883.95,80.7241,-392.157,0,0
398144.275,80.8,-392.332,0,0
398404.6,80.7887,-392.448,0,0
398664.925,80.7281,-392.576,0,0
398925.25,80.648,-392.674,0,0
399185.575,80.506,-392.745,0,0
399445.9,80.3691,-392.794,0,0
399706.225,80.1671,-392.793,0,0
399966.55,79.9266,-392.771,0,0
400006.6,79.9236,-392.745,0,0