File: Accelerated corrosion test data/2025-10-11_18-00-03/sample_4.csv
Frequency (Hz),Impedance (ohms),Phase (Radians),Temperature (C),Humidity (%)
10000.0,262.313,-11854.8,0,0
10260.325,259.603,-11556.6,0,0
10520.65,249.275,-11273.6,0,0
10780.975,243.71,-11003.5,0,0
11041.3,238.518,-10745.3,0,0
11301.625,233.394,-10502.9,0,0
11561.95,228.024,-10267,0,0
11822.275,223.712,-10042.3,0,0
12082.6,219.014,-9827.66,0,0
12342.925,214.214,-9621.59,0,0
12603.25,212.043,-9422.31,0,0
12863.575,207.041,-9236.16,0,0
13123.9,205.741,-9056.63,0,0
13384.225,198.533,-8878.38,0,0
13644.55,195.473,-8708.46,0,0
13904.875,192.64,-8543.61,0,0
14165.2,193.098,-8381.47,0,0
14425.525,198.96,-8236.2,0,0
14685.8,201.531,-8119.17,0,0
14946.175,181.109,-7963.9,0,0
15206.5,180.225,-7819.69,0,0
15466.825,186.199,-7678.77,0,0
15727.15,189.578,-7576.43,0,0
15987.5,187.946,-7461.94,0,0
16247.8,170.289,-7333.3,0,0
16508.125,182.525,-7205.44,0,0
16768.45,177.199,-7104.77,0,0
17028.775,171.547,-7017.35,0,0
17289.1,159.994,-6904.41,0,0
17549.425,158.287,-6799.9,0,0
17809.75,155.006,-6699.23,0,0
18070.075,151.43,-6600.14,0,0
18330.4,152.663,-6504.95,0,0
18590.725,152.589,-6416.27,0,0
18851.05,149.036,-6332.61,0,0
19111.375,144.565,-6243.46,0,0
19371.7,142.219,-6157.97,0,0
19632.025,141.231,-6074.13,0,0
19892.35,143.304,-5993.3,0,0
20152.675,143.114,-5916.76,0,0
20413.0,140.119,-5843.6,0,0
20673.3,140.161,-5768.75,0,0
20933.65,136.528,-5695.6,0,0
21193.975,139.256,-5620.94,0,0
21454.3,151.091,-5554.8,0,0
21714.625,145.071,-5499.33,0,0
21974.9,147.23,-5426.85,0,0
22235.275,148.074,-5381.84,0,0
22495.6,135.469,-5326.17,0,0
22755.925,128.104,-5260.99,0,0
23016.25,124.933,-5199.35,0,0
23276.6,122.27,-5139.16,0,0
23536.9,120.745,-5081.72,0,0
23797.225,118.455,-5024.95,0,0
24057.55,116.809,-4969.6,0,0
24317.875,115.967,-4915.25,0,0
24578.2,114.079,-4861.9,0,0
24838.525,113.719,-4809.98,0,0
25098.85,114.059,-4759.22,0,0
25359.175,112.869,-4711.68,0,0
25619.5,111.956,-4662.52,0,0
25879.8,110.408,-4618.42,0,0
26140.1,107.329,-4569.88,0,0
26400.5,106.791,-4523.34,0,0
26660.8,105.921,-4476.78,0,0
26921.1,106.386,-4432.91,0,0
27181.4,105.222,-4388.84,0,0
27441.8,105.197,-4344.16,0,0
27702.1,108.73,-4299.85,0,0
27962.4,114.132,-4258.23,0,0
28222.7,121.301,-4229.83,0,0
28483.1,113.312,-4196.03,0,0
28743.4,109.073,-4155,0,0
29003.7,112,-4113.34,0,0
29264,116.335,-4083.27,0,0
29524.4,111.83,-4050.87,0,0
29784.7,108.898,-4021.08,0,0
30045,106.479,-3982.65,0,0
30305.3,101.652,-3949.73,0,0
30565.7,98.9633,-3914.62,0,0
30826,98.1805,-3879.59,0,0
31086.3,97.5097,-3845.78,0,0
31346.6,98.4084,-3812.2,0,0
31607,97.0674,-3782.25,0,0
31867.3,96.9657,-3749.7,0,0
32127.6,99.2399,-3719.54,0,0
32387.9,97.6186,-3693.54,0,0
32648.3,96.1609,-3663.3,0,0
32908.6,94.5655,-3636.61,0,0
33168.9,91.8706,-3607.71,0,0
33429.2,89.6901,-3579.23,0,0
33689.6,88.1032,-3549.85,0,0
33949.9,87.218,-3521.58,0,0
34210.2,87.2461,-3493.89,0,0
34470.5,85.9521,-3467.89,0,0
34730.9,84.7218,-3440.74,0,0
34991.2,84.2716,-3414.4,0,0
35251.5,83.986,-3388.66,0,0
35511.8,82.977,-3363.41,0,0
35772.2,82.4617,-3338.28,0,0
36032.5,81.6394,-3313.63,0,0
36292.8,80.8045,-3288.78,0,0
36553.1,80.5871,-3264.57,0,0
36813.5,80.2198,-3240.64,0,0
37073.8,80.2103,-3217.53,0,0
37334.1,79.6289,-3194.76,0,0
37594.4,79.1448,-3171.82,0,0
37854.8,78.7657,-3149.77,0,0
38115.1,77.8199,-3127.98,0,0
38375.4,77.1109,-3105.49,0,0
38635.7,76.7701,-3083.61,0,0
38896.1,77.0387,-3062.05,0,0
39156.4,76.7955,-3041.17,0,0
39416.7,76.1924,-3019.98,0,0
39677,75.9074,-2998.87,0,0
39937.4,76.7561,-2977.86,0,0
40197.7,78.0893,-2957.45,0,0
40458,79.5826,-2938.83,0,0
40718.3,79.2024,-2921.26,0,0
40978.7,78.6191,-2901.7,0,0
41239,80.0132,-2883.68,0,0
41499.3,81.9975,-2866.52,0,0
41759.6,78.364,-2850.96,0,0
42020,77.4639,-2832.09,0,0
42280.275,76.222,-2813.42,0,0
42540.6,78.3686,-2795.71,0,0
42800.925,77.793,-2781.12,0,0
43061.25,75.0814,-2763.21,0,0
43321.575,75.213,-2746.06,0,0
43581.9,74.2213,-2729.88,0,0
43842.225,73.4798,-2712.66,0,0
44102.55,73.2337,-2696.28,0,0
44362.875,72.1575,-2679.36,0,0
44623.2,72.2587,-2662.91,0,0
44883.525,72.3498,-2647.25,0,0
45143.85,71.1394,-2631.36,0,0
45404.175,69.9567,-2615.12,0,0
45664.5,71.2315,-2598.34,0,0
45924.825,72.3702,-2583.95,0,0
46185.15,71.2793,-2570.74,0,0
46445.475,70.1416,-2554.16,0,0
46705.8,71.2899,-2539.35,0,0
46966.125,71.229,-2525.7,0,0
47226.45,71.1298,-2510.87,0,0
47486.775,71.4377,-2498.01,0,0
47747.1,69.8526,-2484.74,0,0
48007.425,69.1537,-2470.34,0,0
48267.75,68.3702,-2457.19,0,0
48528.075,67.6001,-2443.21,0,0
48788.4,66.734,-2429.37,0,0
49048.725,66.0032,-2415.6,0,0
49309.05,65.872,-2401.51,0,0
49569.375,65.4479,-2388.56,0,0
49829.7,64.6972,-2374.8,0,0
50090.025,64.5422,-2361.49,0,0
50350.35,64.3318,-2348.22,0,0
50610.675,64.2403,-2335.29,0,0
50871.0,63.8315,-2322.4,0,0
51131.325,63.7116,-2309.51,0,0
51391.65,63.4916,-2296.61,0,0
51651.975,63.7194,-2283.67,0,0
51912.3,63.7222,-2271.21,0,0
52172.625,63.9383,-2258.41,0,0
52432.95,64.1149,-2246.27,0,0
52693.275,64.3443,-2233.53,0,0
52953.6,65.3633,-2220.89,0,0
53213.925,66.2545,-2209.11,0,0
53474.25,67.533,-2197.1,0,0
53734.575,68.9286,-2185.58,0,0
53994.9,71.3257,-2174.02,0,0
54255.225,73.6051,-2164.58,0,0
54515.55,75.7053,-2155.91,0,0
54775.875,75.6864,-2148.53,0,0
55036.2,74.1047,-2140.14,0,0
55296.525,73.3807,-2130.29,0,0
55556.85,71.8487,-2121.56,0,0
55817.175,69.8661,-2111.22,0,0
56077.5,68.4893,-2101.03,0,0
56337.825,67.0617,-2090.27,0,0
56598.15,65.9207,-2078.95,0,0
56858.475,65.5185,-2067.79,0,0
57118.8,65.5465,-2056.93,0,0
57379.125,66.0134,-2046.08,0,0
57639.45,66.1637,-2036,0,0
57899.775,66.4331,-2025.89,0,0
58160.1,66.4805,-2015.56,0,0
58420.4,67.4382,-2005.26,0,0
58680.7,68.2053,-1996.44,0,0
58941.1,67.4091,-1986.15,0,0
59201.4,68.5533,-1975.33,0,0
59461.7,70.5665,-1965.17,0,0
59722,73.2092,-1956.4,0,0
59982.4,75.6317,-1948.59,0,0
60242.7,76.7715,-1941.8,0,0
60503,77.589,-1934.39,0,0
60763.3,79.4771,-1926.99,0,0
61023.7,80.5259,-1923.14,0,0
61284,78.3792,-1918.42,0,0
61544.3,74.6102,-1912.35,0,0
61804.6,71.1889,-1903.05,0,0
62065,69.8707,-1893.98,0,0
62325.3,68.5734,-1885.83,0,0
62585.6,66.0951,-1877.21,0,0
62845.9,65.043,-1866.8,0,0
63106.3,64.7544,-1858.09,0,0
63366.6,64.1407,-1848.76,0,0
63626.9,64.3219,-1839.58,0,0
63887.2,64.6801,-1831.69,0,0
64147.6,63.3798,-1823,0,0
64407.9,63.7935,-1813.86,0,0
64668.2,64.5858,-1805.43,0,0
64928.5,64.936,-1797.37,0,0
65188.9,65.2057,-1789.61,0,0
65449.2,65.3992,-1781.73,0,0
65709.5,65.1431,-1773.39,0,0
65969.8,66.3325,-1764.78,0,0
66230.2,67.4671,-1757.72,0,0
66490.5,68.0469,-1750.47,0,0
66750.8,68.6377,-1743.42,0,0
67011.1,69.174,-1736.05,0,0
67271.5,70.337,-1729,0,0
67531.8,71.5131,-1722.61,0,0
67792.1,72.4077,-1716.46,0,0
68052.4,73.0812,-1710.8,0,0
68312.8,73.4547,-1705.33,0,0
68573.1,73.5119,-1700.17,0,0
68833.4,72.9191,-1695.53,0,0
69093.7,71.1508,-1690.32,0,0
69354.1,69.0966,-1684.35,0,0
69614.4,67.0051,-1677.51,0,0
69874.7,66.0675,-1669.88,0,0
70135,65.3956,-1663.11,0,0
70395.4,64.0378,-1656.09,0,0
70655.7,63.7931,-1648.04,0,0
70916,64.886,-1641.46,0,0
71176.3,64.5114,-1635.71,0,0
71436.7,64.0782,-1629.77,0,0
71697,63.586,-1624.01,0,0
71957.3,62.2132,-1618.14,0,0
72217.6,60.5218,-1611.56,0,0
72478,59.189,-1604.52,0,0
72738.3,58.272,-1597.29,0,0
72998.6,57.5542,-1589.89,0,0
73258.9,57.1584,-1582.4,0,0
73519.3,57.3597,-1574.98,0,0
73779.6,57.7272,-1568.08,0,0
74039.9,58.2007,-1561.22,0,0
74300.225,58.4618,-1555.01,0,0
74560.55,58.6415,-1548.24,0,0
74820.875,59.098,-1541.8,0,0
75081.2,59.6663,-1535.42,0,0
75341.525,60.5367,-1529.43,0,0
75601.85,60.9023,-1523.78,0,0
75862.175,61.1648,-1517.99,0,0
76122.5,61.5755,-1512.16,0,0
76382.825,62.1492,-1506.51,0,0
76643.15,62.2754,-1501.23,0,0
76903.475,62.0906,-1495.42,0,0
77163.8,62.8617,-1489.05,0,0
77424.125,64.006,-1483.82,0,0
77684.45,64.8152,-1479.03,0,0
77944.775,65.3346,-1474.67,0,0
78205.1,65.2579,-1470.28,0,0
78465.425,64.9801,-1465.81,0,0
78725.75,64.4244,-1461.27,0,0
78986.075,63.6331,-1456.48,0,0
79246.4,62.7612,-1451.5,0,0
79506.725,61.9357,-1446.03,0,0
79767.05,61.3307,-1440.61,0,0
80027.375,60.8703,-1435.11,0,0
80287.7,60.6405,-1429.65,0,0
80548.025,60.4413,-1424.25,0,0
80808.35,60.3126,-1418.93,0,0
81068.675,60.2655,-1413.66,0,0
81329.0,60.1793,-1408.64,0,0
81589.325,59.9669,-1403.65,0,0
81849.65,59.8171,-1398.73,0,0
82109.975,59.4992,-1393.69,0,0
82370.3,59.2513,-1388.59,0,0
82630.625,59.0174,-1383.54,0,0
82890.95,58.8097,-1378.54,0,0
83151.275,58.5256,-1373.69,0,0
83411.6,58.307,-1368.66,0,0
83671.925,58.0194,-1363.62,0,0
83932.25,57.812,-1358.67,0,0
84192.575,57.6766,-1353.72,0,0
84452.9,57.5527,-1348.84,0,0
84713.225,57.3116,-1343.91,0,0
84973.55,57.1249,-1339.03,0,0
85233.875,57.0625,-1334.25,0,0
85494.2,56.8975,-1329.4,0,0
85754.525,56.7434,-1324.71,0,0
86014.85,56.4982,-1319.96,0,0
86275.175,56.4081,-1315.12,0,0
86535.5,56.4047,-1310.47,0,0
86795.825,56.2993,-1305.95,0,0
87056.15,55.9819,-1301.32,0,0
87316.475,55.8884,-1296.72,0,0
87576.8,55.679,-1292.22,0,0
87837.125,55.4037,-1287.89,0,0
88097.45,54.8747,-1283.41,0,0
88357.775,54.3168,-1278.72,0,0
88618.1,53.8331,-1273.7,0,0
88878.425,53.624,-1268.88,0,0
89138.75,53.5497,-1264.06,0,0
89399.075,53.4282,-1259.17,0,0
89659.4,53.414,-1254.39,0,0
89919.725,53.3548,-1249.83,0,0
90180,53.3749,-1245.26,0,0
90440.4,53.2706,-1240.68,0,0
90700.7,53.2145,-1236.02,0,0
90961,53.1297,-1231.47,0,0
91221.3,53.0821,-1226.88,0,0
91481.7,53.1463,-1222.18,0,0
91742,53.3102,-1217.6,0,0
92002.3,53.5389,-1213.01,0,0
92262.6,53.8219,-1208.57,0,0
92523,54.2199,-1204.23,0,0
92783.3,54.5523,-1200.16,0,0
93043.6,54.7212,-1196.17,0,0
93303.9,54.7615,-1192.27,0,0
93564.3,54.5593,-1188.3,0,0
93824.6,54.442,-1184.22,0,0
94084.9,54.1892,-1180.23,0,0
94345.2,53.8274,-1176.11,0,0
94605.6,53.3602,-1171.81,0,0
94865.9,53.07,-1167.33,0,0
95126.2,52.8698,-1162.83,0,0
95386.5,52.7807,-1158.35,0,0
95646.9,52.7297,-1153.75,0,0
95907.2,52.9178,-1149.3,0,0
96167.5,53.0825,-1144.88,0,0
96427.8,53.2696,-1140.51,0,0
96688.2,53.458,-1136.17,0,0
96948.5,53.6159,-1131.88,0,0
97208.8,53.8215,-1127.61,0,0
97469.1,54.0396,-1123.41,0,0
97729.5,54.1671,-1119.11,0,0
97989.8,54.3566,-1114.75,0,0
98250.1,54.7289,-1110.39,0,0
98510.4,55.1554,-1106.16,0,0
98770.8,55.5313,-1101.93,0,0
99031.1,56.037,-1097.62,0,0
99291.4,56.6402,-1093.38,0,0
99551.7,57.3493,-1089.4,0,0
99812.1,57.7839,-1085.49,0,0
100072,58.3242,-1081.36,0,0
100333,59.2432,-1077.16,0,0
100593,60.4761,-1073.33,0,0
100853,61.6151,-1070.15,0,0
101114,62.1885,-1067.12,0,0
101374,62.8374,-1063.9,0,0
101634,63.4296,-1061.21,0,0
101895,63.3631,-1058.79,0,0
102155,62.6143,-1056.19,0,0
102415,61.408,-1052.85,0,0
102676,60.2442,-1048.89,0,0
102936,59.376,-1044.55,0,0
103196,58.7391,-1039.96,0,0
103457,58.3533,-1035.12,0,0
103717,58.3519,-1030.09,0,0
103977,58.7937,-1025.12,0,0
104238,59.4447,-1020.38,0,0
104498,60.1511,-1015.67,0,0
104758,61.1071,-1010.99,0,0
105019,62.2606,-1006.49,0,0
105279,63.5122,-1002.23,0,0
105539,64.7903,-998.087,0,0
105800,66.0967,-993.984,0,0
106060,67.4729,-990.042,0,0
106320.175,68.9162,-986.179,0,0
106580.5,70.3257,-982.445,0,0
106840.825,71.8802,-978.908,0,0
107101.15,73.2255,-975.447,0,0
107361.475,74.5105,-972.009,0,0
107621.8,75.7938,-968.459,0,0
107882.125,77.2662,-964.884,0,0
108142.45,78.8676,-961.45,0,0
108402.775,80.583,-958.095,0,0
108663.1,82.3647,-954.963,0,0
108923.425,84.1647,-952.026,0,0
109183.75,85.9329,-949.22,0,0
109444.075,87.7642,-946.651,0,0
109704.4,89.4259,-944.253,0,0
109964.725,90.8992,-941.942,0,0
110225.05,92.2389,-939.592,0,0
110485.375,93.783,-937.373,0,0
110745.7,94.9854,-935.346,0,0
111006.025,96.2384,-933.198,0,0
111266.35,97.3581,-931.06,0,0
111526.675,98.4534,-929.107,0,0
111787.0,99.4106,-926.971,0,0
112047.325,100.451,-924.977,0,0
112307.65,101.479,-923.084,0,0
112567.975,102.39,-921.261,0,0
112828.3,103.191,-919.412,0,0
113088.625,104.012,-917.655,0,0
113348.95,104.713,-915.963,0,0
113609.275,105.332,-914.273,0,0
113869.6,105.888,-912.546,0,0
114129.925,106.364,-910.884,0,0
114390.25,106.711,-909.178,0,0
114650.575,107.19,-907.492,0,0
114910.9,107.527,-905.83,0,0
115171.225,107.873,-904.255,0,0
115431.55,107.968,-902.717,0,0
115691.875,107.943,-901.082,0,0
115952.2,107.869,-899.423,0,0
116212.525,107.801,-897.696,0,0
116472.85,107.621,-896.097,0,0
116733.175,107.261,-894.327,0,0
116993.5,106.788,-892.44,0,0
117253.825,106.315,-890.442,0,0
117514.15,105.755,-888.291,0,0
117774.475,105.189,-885.93,0,0
118034.8,104.753,-883.341,0,0
118295.125,104.587,-880.624,0,0
118555.45,104.502,-877.964,0,0
118815.775,104.474,-875.155,0,0
119076.1,104.777,-872.097,0,0
119336.425,105.677,-869.084,0,0
119596.75,107.321,-866.636,0,0
119857.075,108.98,-865.179,0,0
120117.4,110.14,-864.402,0,0
120377.725,110.716,-863.994,0,0
120638.05,110.702,-863.792,0,0
120898.375,109.837,-863.574,0,0
121158.7,108.363,-862.76,0,0
121419.025,106.759,-861.294,0,0
121679.35,105.297,-859.391,0,0
121939.675,103.979,-857.334,0,0
122200.0,102.733,-855.004,0,0
122460,101.623,-852.582,0,0
122721,100.696,-849.982,0,0
122981,99.9702,-847.415,0,0
123241,99.2634,-844.967,0,0
123502,98.5835,-842.474,0,0
123762,97.9052,-839.922,0,0
124022,97.2811,-837.416,0,0
124283,96.7071,-834.924,0,0
124543,96.1165,-832.375,0,0
124803,95.5367,-829.786,0,0
125064,95.1353,-827.185,0,0
125324,94.8189,-824.749,0,0
125584,94.3502,-822.397,0,0
125845,93.9254,-819.971,0,0
126105,93.5206,-817.726,0,0
126365,93.0145,-815.575,0,0
126626,92.2658,-813.43,0,0
126886,91.3939,-811.195,0,0
127146,90.5021,-808.686,0,0
127406,89.7215,-806.199,0,0
127667,88.9927,-803.75,0,0
127927,88.0889,-801.428,0,0
128187,87.1579,-799.174,0,0
128448,85.8583,-796.689,0,0
128708,84.6194,-793.939,0,0
128968,83.3957,-791.118,0,0
129229,82.1321,-788.155,0,0
129489,80.8659,-785.062,0,0
129749,79.7087,-781.832,0,0
130010,78.5297,-778.469,0,0
130270,77.5316,-774.882,0,0
130530,76.6493,-771.302,0,0
130791,75.9091,-767.757,0,0
131051,75.1288,-764.145,0,0
131311,74.4435,-760.408,0,0
131572,73.9216,-756.629,0,0
131832,73.5487,-752.94,0,0
132092,73.0971,-749.297,0,0
132353,72.7191,-745.508,0,0
132613,72.4215,-741.678,0,0
132873,72.2814,-737.899,0,0
133134,72.1596,-734.122,0,0
133394,72.1116,-730.396,0,0
133654,72.0488,-726.66,0,0
133915,72.1066,-722.832,0,0
134175,72.2402,-719.043,0,0
134435,72.3931,-715.324,0,0
134696,72.5735,-711.576,0,0
134956,72.8193,-707.835,0,0
135216,73.1442,-704.112,0,0
135477,73.5106,-700.33,0,0
135737,73.9881,-696.642,0,0
135997,74.549,-693.03,0,0
136258,75.0673,-689.461,0,0
136518,75.5951,-685.886,0,0
136778,76.205,-682.365,0,0
137039,76.8177,-678.947,0,0
137299,77.3749,-675.643,0,0
137559,77.7817,-672.309,0,0
137819,78.1627,-668.914,0,0
138080,78.4998,-665.458,0,0
138340.125,78.8378,-661.885,0,0
138600.45,79.2609,-658.228,0,0
138860.775,79.7324,-654.555,0,0
139121.1,80.1681,-650.798,0,0
139381.425,80.7761,-646.951,0,0
139641.75,81.5305,-643.158,0,0
139902.075,82.2401,-639.421,0,0
140162.4,83.0178,-635.602,0,0
140422.725,83.8839,-631.811,0,0
140683.05,84.8028,-628.018,0,0
140943.375,85.8261,-624.208,0,0
141203.7,86.8905,-620.433,0,0
141464.025,88.0225,-616.703,0,0
141724.35,89.1686,-613.024,0,0
141984.675,90.3272,-609.355,0,0
142245.0,91.4887,-605.683,0,0
142505.325,92.7047,-602.014,0,0
142765.65,93.9707,-598.367,0,0
143025.975,95.2075,-594.675,0,0
143286.3,96.5567,-590.959,0,0
143546.625,97.9573,-587.308,0,0
143806.95,99.321,-583.676,0,0
144067.275,100.722,-580.003,0,0
144327.6,102.174,-576.281,0,0
144587.925,103.712,-572.566,0,0
144848.25,105.28,-568.86,0,0
145108.575,106.906,-565.127,0,0
145368.9,108.585,-561.378,0,0
145629.225,110.343,-557.647,0,0
145889.55,112.225,-553.941,0,0
146149.875,114.052,-550.193,0,0
146410.2,116.043,-546.446,0,0
146670.525,118.13,-542.744,0,0
146930.85,120.259,-539.136,0,0
147191.175,122.41,-535.525,0,0
147451.5,124.623,-531.938,0,0
147711.825,126.873,-528.362,0,0
147972.15,129.145,-524.823,0,0
148232.475,131.439,-521.193,0,0
148492.8,133.882,-517.533,0,0
148753.125,136.434,-513.909,0,0
149013.45,139.089,-510.319,0,0
149273.775,141.839,-506.793,0,0
149534.1,144.578,-503.255,0,0
149794.425,147.426,-499.602,0,0
150054.75,150.524,-496.026,0,0
150315.075,153.704,-492.574,0,0
150575.4,156.964,-489.164,0,0
150835.725,160.32,-485.741,0,0
151096.05,163.866,-482.285,0,0
151356.375,167.731,-478.939,0,0
151616.7,171.791,-475.891,0,0
151877.025,175.835,-473.096,0,0
152137.35,179.846,-470.305,0,0
152397.675,184.155,-467.481,0,0
152658.0,188.827,-465.045,0,0
152918.325,193.452,-463.122,0,0
153178.65,197.918,-461.387,0,0
153438.975,202.445,-459.804,0,0
153699.3,206.993,-458.593,0,0
153959.625,211.326,-457.735,0,0
154219.95,215.409,-457.03,0,0
154480,219.383,-456.496,0,0
154741,222.963,-456.213,0,0
155001,225.994,-455.801,0,0
155261,228.966,-454.786,0,0
155522,232.297,-453.631,0,0
155782,236.02,-452.812,0,0
156042,239.569,-452.297,0,0
156303,242.836,-451.934,0,0
156563,245.924,-451.69,0,0
156823,248.551,-451.427,0,0
157084,251.101,-450.727,0,0
157344,253.815,-449.711,0,0
157604,256.583,-448.776,0,0
157864,259.34,-447.473,0,0
158125,262.546,-446.041,0,0
158385,266.32,-444.787,0,0
158645,270.081,-443.914,0,0
158906,273.799,-443.002,0,0
159166,278.111,-441.97,0,0
159426,282.831,-441.893,0,0
159687,287.326,-442.402,0,0
159947,291.64,-443.113,0,0
160207,295.777,-444.508,0,0
160468,299.455,-446.328,0,0
160728,302.587,-448.42,0,0
160988,305.145,-450.63,0,0
161249,306.871,-452.794,0,0
161509,307.902,-454.412,0,0
161769,308.917,-455.365,0,0
162030,309.968,-456.065,0,0
162290,311.092,-456.459,0,0
162550,312.241,-456.744,0,0
162811,313.13,-457.027,0,0
163071,314.047,-456.717,0,0
163331,315.113,-456.143,0,0
163592,316.417,-455.473,0,0
163852,317.789,-454.49,0,0
164112,319.395,-453.377,0,0
164373,321.341,-452.143,0,0
164633,323.699,-450.844,0,0
164893,326.364,-449.769,0,0
165154,329.027,-448.836,0,0
165414,331.693,-447.794,0,0
165674,334.624,-446.697,0,0
165935,337.865,-445.42,0,0
166195,341.735,-444.113,0,0
166455,345.896,-443.055,0,0
166716,350.661,-442.245,0,0
166976,355.989,-441.973,0,0
167236,361.693,-442.421,0,0
167497,367.6,-443.632,0,0
167757,373.466,-445.55,0,0
168017,379.331,-448.356,0,0
168277,384.889,-452.091,0,0
168538,389.688,-456.373,0,0
168798,394.022,-460.849,0,0
169058,398.233,-465.758,0,0
169319,402.043,-471.443,0,0
169579,404.854,-477.66,0,0
169839,406.96,-483.61,0,0
170100,409.216,-489.815,0,0
170360.075,410.941,-496.978,0,0
170620.4,411.42,-504.815,0,0
170880.725,410.485,-512.808,0,0
171141.05,408.083,-520.489,0,0
171401.375,404.571,-527.309,0,0
171661.7,400.584,-533.272,0,0
171922.025,396.102,-538.821,0,0
172182.35,390.883,-543.845,0,0
172442.675,385.124,-548.018,0,0
172703.0,379.025,-551.369,0,0
172963.325,372.602,-554.066,0,0
173223.65,365.858,-555.796,0,0
173483.975,359.156,-556.605,0,0
173744.3,352.464,-556.635,0,0
174004.625,346.035,-555.728,0,0
174264.95,340.002,-554.258,0,0
174525.275,334.185,-552.261,0,0
174785.6,328.777,-549.647,0,0
175045.925,323.826,-546.704,0,0
175306.25,319.081,-543.429,0,0
175566.575,314.605,-539.668,0,0
175826.9,310.667,-535.413,0,0
176087.225,307.321,-530.923,0,0
176347.55,304.447,-526.324,0,0
176607.875,302.065,-521.574,0,0
176868.2,300.114,-516.842,0,0
177128.525,298.545,-512.068,0,0
177388.85,297.405,-507.358,0,0
177649.175,296.568,-502.705,0,0
177909.5,296.151,-498.174,0,0
178169.825,295.931,-493.935,0,0
178430.15,295.755,-489.835,0,0
178690.475,295.627,-485.76,0,0
178950.8,295.654,-481.649,0,0
179211.125,295.899,-477.533,0,0
179471.45,296.343,-473.483,0,0
179731.775,296.989,-469.521,0,0
179992.1,297.824,-465.81,0,0
180252.425,298.649,-462.242,0,0
180512.75,299.475,-458.795,0,0
180773.075,300.261,-455.386,0,0
181033.4,301.055,-451.991,0,0
181293.725,301.901,-448.606,0,0
181554.05,302.767,-445.298,0,0
181814.375,303.59,-442.017,0,0
182074.7,304.318,-438.755,0,0
182335.025,304.958,-435.413,0,0
182595.35,305.581,-431.914,0,0
182855.675,306.211,-428.256,0,0
183116.0,306.893,-424.481,0,0
183376.325,307.659,-420.541,0,0
183636.65,308.503,-416.443,0,0
183896.975,309.457,-412.201,0,0
184157.3,310.564,-407.811,0,0
184417.625,311.842,-403.319,0,0
184677.95,313.288,-398.716,0,0
184938.275,314.901,-394.051,0,0
185198.6,316.668,-389.299,0,0
185458.925,318.643,-384.421,0,0
185719.25,320.816,-379.493,0,0
185979.575,323.188,-374.495,0,0
186239.9,325.766,-369.442,0,0
186500,328.55,-364.334,0,0
186761,331.599,-359.218,0,0
187021,334.735,-354.013,0,0
187281,338.226,-348.876,0,0
187542,341.86,-343.634,0,0
187802,345.709,-338.378,0,0
188062,349.806,-333.078,0,0
188322,354.248,-327.688,0,0
188583,358.965,-322.364,0,0
188843,363.882,-317.018,0,0
189103,369.183,-311.674,0,0
189364,374.745,-306.386,0,0
189624,380.61,-301.148,0,0
189884,386.97,-295.878,0,0
190145,393.652,-290.768,0,0
190405,400.721,-285.757,0,0
190665,408.126,-281.042,0,0
190926,415.919,-276.484,0,0
191186,423.95,-272.102,0,0
191446,432.309,-268.034,0,0
191707,441.008,-264.063,0,0
191967,450.092,-260.491,0,0
192227,459.466,-257.231,0,0
192488,469.128,-254.221,0,0
192748,479.027,-251.669,0,0
193008,489.197,-249.414,0,0
193269,499.598,-247.656,0,0
193529,510.186,-246.208,0,0
193789,520.828,-245.225,0,0
194050,531.638,-244.523,0,0
194310,542.557,-244.234,0,0
194570,553.571,-244.35,0,0
194831,564.644,-244.782,0,0
195091,575.831,-245.559,0,0
195351,587.052,-246.682,0,0
195612,598.329,-247.988,0,0
195872,609.857,-249.535,0,0
196132,621.628,-251.38,0,0
196393,633.734,-253.664,0,0
196653,646.005,-256.449,0,0
196913,658.419,-259.623,0,0
197174,671.191,-263.215,0,0
197434,684.356,-267.453,0,0
197694,697.744,-272.546,0,0
197955,711.214,-278.418,0,0
198215,724.667,-285.099,0,0
198475,738.275,-292.546,0,0
198735,751.906,-300.999,0,0
198996,765.42,-310.514,0,0
199256,778.704,-321.112,0,0
199516,791.478,-332.913,0,0
199777,803.43,-345.75,0,0
200037,814.574,-359.457,0,0
200297,825.024,-373.871,0,0
200558,834.57,-388.993,0,0
200818,843.089,-404.966,0,0
201078,850.48,-421.423,0,0
201339,856.582,-438.239,0,0
201599,861.528,-455.191,0,0
201859,865.32,-472.269,0,0
202120,867.884,-489.058,0,0
202380.025,869.687,-505.413,0,0
202640.35,870.583,-521.798,0,0
202900.675,870.495,-537.604,0,0
203161.0,869.712,-552.634,0,0
203421.325,869.038,-567.356,0,0
203681.65,868.077,-582.259,0,0
203941.975,866.403,-597.418,0,0
204202.3,863.767,-612.252,0,0
204462.625,860.186,-626.676,0,0
204722.95,856.24,-640.346,0,0
204983.275,852.04,-653.712,0,0
205243.6,847.456,-666.899,0,0
205503.925,842.137,-679.619,0,0
205764.25,836.525,-691.533,0,0
206024.575,830.918,-702.963,0,0
206284.9,825.372,-714.149,0,0
206545.225,819.87,-725.179,0,0
206805.55,814.418,-736.237,0,0
207065.875,808.9,-747.676,0,0
207326.2,802.719,-759.757,0,0
207586.525,795.375,-771.926,0,0
207846.85,786.648,-783.914,0,0
208107.175,776.774,-795.047,0,0
208367.5,766.048,-805.078,0,0
208627.825,754.936,-814.01,0,0
208888.15,743.526,-821.945,0,0
209148.475,731.786,-828.836,0,0
209408.8,720.186,-834.395,0,0
209669.125,708.931,-839.1,0,0
209929.45,698.127,-843.242,0,0
210189.775,687.331,-846.643,0,0
210450.1,676.899,-849.486,0,0
210710.425,666.807,-851.809,0,0
210970.75,656.872,-853.598,0,0
211231.075,647.332,-854.817,0,0
211491.4,638.154,-855.543,0,0
211751.725,629.43,-855.931,0,0
212012.05,621.132,-855.782,0,0
212272.375,613.283,-855.235,0,0
212532.7,606.189,-854.4,0,0
212793.025,599.795,-853.63,0,0
213053.35,593.702,-853.113,0,0
213313.675,587.634,-852.499,0,0
213574.0,581.985,-851.563,0,0
213834.325,576.824,-850.495,0,0
214094.65,571.89,-849.275,0,0
214354.975,567.716,-847.978,0,0
214615.3,564.465,-846.926,0,0
214875.625,561.603,-846.374,0,0
215135.95,559.129,-846.526,0,0
215396.275,556.753,-847.199,0,0
215656.6,554.219,-848.528,0,0
215916.925,551.424,-850.278,0,0
216177.25,548.305,-852.4,0,0
216437.575,544.673,-854.72,0,0
216697.9,540.547,-856.918,0,0
216958.225,535.935,-858.682,0,0
217218.55,531.46,-860.044,0,0
217478.875,527.192,-861.193,0,0
217739.2,523.082,-862.397,0,0
217999.525,518.952,-863.61,0,0
218259.85,514.937,-864.857,0,0
218520,510.78,-866.141,0,0
218780,506.622,-867.413,0,0
219041,502.556,-868.542,0,0
219301,498.603,-869.754,0,0
219561,494.637,-871.052,0,0
219822,490.596,-872.709,0,0
220082,486.313,-874.274,0,0
220342,481.879,-875.861,0,0
220603,477.129,-877.314,0,0
220863,472.317,-878.566,0,0
221123,467.464,-879.572,0,0
221384,462.599,-880.568,0,0
221644,457.831,-881.44,0,0
221904,452.986,-882.304,0,0
222165,447.981,-882.973,0,0
222425,442.923,-883.458,0,0
222685,438.103,-883.808,0,0
222946,433.414,-884.103,0,0
223206,428.655,-884.432,0,0
223466,423.872,-884.688,0,0
223727,419.106,-884.975,0,0
223987,414.408,-885.155,0,0
224247,409.767,-885.264,0,0
224508,405.133,-885.478,0,0
224768,400.245,-885.832,0,0
225028,395.443,-886.206,0,0
225289,390.225,-886.454,0,0
225549,385.003,-886.68,0,0
225809,379.545,-886.718,0,0
226070,374.022,-886.711,0,0
226330,368.257,-886.337,0,0
226590,362.332,-885.622,0,0
226851,356.58,-884.709,0,0
227111,350.743,-883.579,0,0
227371,345.055,-882.203,0,0
227632,339.313,-880.611,0,0
227892,333.618,-878.905,0,0
228152,327.851,-876.946,0,0
228413,322.128,-874.585,0,0
228673,316.618,-871.887,0,0
228933,311.269,-868.969,0,0
229193,306.222,-865.763,0,0
229454,301.443,-862.42,0,0
229714,296.783,-858.964,0,0
229974,292.523,-855.363,0,0
230235,288.516,-851.796,0,0
230495,284.71,-848.189,0,0
230755,281.055,-844.469,0,0
231016,277.661,-840.804,0,0
231276,274.405,-837.089,0,0
231536,271.431,-833.448,0,0
231797,268.543,-829.836,0,0
232057,265.861,-826.227,0,0
232317,263.282,-822.731,0,0
232578,260.812,-819.185,0,0
232838,258.443,-815.685,0,0
233098,256.198,-812.112,0,0
233359,254.138,-808.638,0,0
233619,252.221,-805.167,0,0
233879,250.49,-801.75,0,0
234140,248.822,-798.479,0,0
234400,247.15,-795.281,0,0
234660.3,245.657,-792.079,0,0
234920.625,244.226,-788.905,0,0
235180.95,242.944,-785.803,0,0
235441.275,241.862,-782.745,0,0
235701.6,240.772,-779.921,0,0
235961.925,239.712,-777.21,0,0
236222.25,238.504,-774.557,0,0
236482.575,237.303,-771.856,0,0
236742.9,236.131,-769.133,0,0
237003.225,235.048,-766.355,0,0
237263.55,234.053,-763.559,0,0
237523.875,233.113,-760.746,0,0
237784.2,232.377,-757.911,0,0
238044.525,231.792,-755.07,0,0
238304.85,231.447,-752.383,0,0
238565.175,231.207,-749.864,0,0
238825.5,231.041,-747.547,0,0
239085.825,230.842,-745.432,0,0
239346.15,230.661,-743.316,0,0
239606.475,230.501,-741.433,0,0
239866.8,230.365,-739.7,0,0
240127.125,230.156,-738.009,0,0
240387.45,229.816,-736.398,0,0
240647.775,229.49,-734.919,0,0
240908.1,229.224,-733.424,0,0
241168.425,228.792,-732.08,0,0
241428.75,228.36,-730.724,0,0
241689.075,227.886,-729.464,0,0
241949.4,227.328,-728.277,0,0
242209.725,226.752,-727.104,0,0
242470.05,226.053,-726.022,0,0
242730.375,225.282,-724.962,0,0
242990.7,224.385,-723.863,0,0
243251.025,223.455,-722.722,0,0
243511.35,222.482,-721.563,0,0
243771.675,221.464,-720.417,0,0
244032.0,220.311,-719.324,0,0
244292.325,218.999,-718.128,0,0
244552.65,217.644,-716.881,0,0
244812.975,216.3,-715.358,0,0
245073.3,214.881,-713.803,0,0
245333.625,213.539,-712.157,0,0
245593.95,212.192,-710.319,0,0
245854.275,210.989,-708.505,0,0
246114.6,209.827,-706.541,0,0
246374.925,208.769,-704.532,0,0
246635.25,207.738,-702.549,0,0
246895.575,206.752,-700.487,0,0
247155.9,205.993,-698.318,0,0
247416.225,205.36,-696.117,0,0
247676.55,204.919,-694.101,0,0
247936.875,204.519,-692.242,0,0
248197.2,204.229,-690.482,0,0
248457.525,203.798,-688.835,0,0
248717.85,203.166,-687.361,0,0
248978.175,202.648,-685.763,0,0
249238.5,202.03,-684.177,0,0
249498.825,201.422,-682.518,0,0
249759.15,200.842,-680.907,0,0
250019.475,200.279,-679.332,0,0
250279.8,199.704,-677.808,0,0
250540,199.071,-676.263,0,0
250800,198.43,-674.73,0,0
251061,197.693,-673.273,0,0
251321,196.902,-671.803,0,0
251581,196.082,-670.233,0,0
251842,195.219,-668.707,0,0
252102,194.232,-667.232,0,0
252362,193.074,-665.634,0,0
252623,191.802,-663.889,0,0
252883,190.435,-661.987,0,0
253143,189.082,-659.817,0,0
253404,187.712,-657.409,0,0
253664,186.451,-654.807,0,0
253924,185.408,-652.014,0,0
254185,184.488,-649.104,0,0
254445,183.753,-646.176,0,0
254705,183.103,-643.113,0,0
254966,182.518,-640.063,0,0
255226,182.103,-636.915,0,0
255486,181.734,-633.708,0,0
255747,181.421,-630.316,0,0
256007,181.249,-626.739,0,0
256267,181.432,-622.937,0,0
256528,181.916,-619.161,0,0
256788,182.682,-615.471,0,0
257048,183.607,-611.804,0,0
257309,184.698,-608.13,0,0
257569,186.012,-604.418,0,0
257829,187.627,-600.735,0,0
258090,189.544,-597.178,0,0
258350,191.661,-593.759,0,0
258610,193.944,-590.487,0,0
258871,196.362,-587.269,0,0
259131,199.066,-584.091,0,0
259391,202.072,-581.041,0,0
259651,205.332,-578.272,0,0
259912,208.802,-575.746,0,0
260172,212.386,-573.506,0,0
260432,216.074,-571.448,0,0
260693,219.98,-569.641,0,0
260953,223.963,-568.057,0,0
261213,228.168,-566.907,0,0
261474,232.366,-566.095,0,0
261734,236.503,-565.619,0,0
261994,240.549,-565.424,0,0
262255,244.502,-565.397,0,0
262515,248.402,-565.495,0,0
262775,252.408,-565.695,0,0
263036,256.519,-566.171,0,0
263296,260.688,-566.956,0,0
263556,264.907,-568.048,0,0
263817,269.03,-569.596,0,0
264077,273.04,-571.448,0,0
264337,276.903,-573.653,0,0
264598,280.637,-576.105,0,0
264858,284.24,-578.951,0,0
265118,287.577,-582.277,0,0
265379,290.454,-585.923,0,0
265639,292.815,-589.583,0,0
265899,295.042,-593.283,0,0
266160,296.999,-597.04,0,0
266420,298.689,-601.149,0,0
266680.25,300.002,-605.365,0,0
266940.575,300.893,-609.541,0,0
267200.9,301.491,-613.637,0,0
267461.225,301.892,-617.806,0,0
267721.55,301.963,-622.086,0,0
267981.875,301.629,-626.239,0,0
268242.2,301.063,-630.268,0,0
268502.525,300.344,-634.271,0,0
268762.85,299.425,-638.395,0,0
269023.175,298.01,-642.54,0,0
269283.5,296.156,-646.661,0,0
269543.825,293.711,-650.526,0,0
269804.15,290.682,-653.88,0,0
270064.475,287.503,-656.617,0,0
270324.8,284.371,-658.722,0,0
270585.125,281.344,-660.393,0,0
270845.45,278.594,-661.708,0,0
271105.775,276.064,-662.785,0,0
271366.1,273.902,-663.747,0,0
271626.425,272.051,-664.762,0,0
271886.75,270.307,-666.013,0,0
272147.075,268.56,-667.357,0,0
272407.4,266.768,-668.856,0,0
272667.725,264.871,-670.389,0,0
272928.05,262.872,-671.989,0,0
273188.375,260.825,-673.569,0,0
273448.7,258.619,-675.21,0,0
273709.025,256.345,-676.906,0,0
273969.35,253.82,-678.676,0,0
274229.675,250.997,-680.391,0,0
274490.0,248.035,-681.958,0,0
274750.325,244.814,-683.492,0,0
275010.65,241.307,-684.858,0,0
275270.975,237.572,-686.05,0,0
275531.3,233.554,-686.871,0,0
275791.625,229.386,-687.362,0,0
276051.95,225.16,-687.44,0,0
276312.275,220.893,-687.188,0,0
276572.6,216.681,-686.58,0,0
276832.925,212.518,-685.692,0,0
277093.25,208.344,-684.414,0,0
277353.575,204.303,-682.709,0,0
277613.9,200.484,-680.602,0,0
277874.225,196.974,-678.184,0,0
278134.55,193.776,-675.542,0,0
278394.875,190.863,-672.726,0,0
278655.2,188.276,-669.651,0,0
278915.525,186.111,-666.403,0,0
279175.85,184.473,-663.079,0,0
279436.175,183.27,-659.808,0,0
279696.5,182.595,-656.766,0,0
279956.825,182.194,-653.919,0,0
280217.15,182.075,-651.504,0,0
280477.475,182.031,-649.426,0,0
280737.8,181.976,-647.651,0,0
280998.125,181.805,-646.088,0,0
281258.45,181.579,-644.593,0,0
281518.775,181.333,-643.232,0,0
281779.1,180.996,-641.983,0,0
282039.425,180.503,-640.753,0,0
282299.75,179.923,-639.382,0,0
282560,179.385,-637.829,0,0
282820,179.094,-636.159,0,0
283081,179.078,-634.55,0,0
283341,179.281,-633.156,0,0
283601,179.583,-632.038,0,0
283862,179.869,-631.157,0,0
284122,180.06,-630.523,0,0
284382,180.107,-630.046,0,0
284643,179.98,-629.653,0,0
284903,179.719,-629.301,0,0
285163,179.309,-628.997,0,0
285424,178.769,-628.683,0,0
285684,178.117,-628.376,0,0
285944,177.338,-628.032,0,0
286205,176.351,-627.715,0,0
286465,175.103,-627.27,0,0
286725,173.652,-626.56,0,0
286986,172.118,-625.417,0,0
287246,170.769,-624.088,0,0
287506,169.527,-622.579,0,0
287767,168.338,-620.912,0,0
288027,167.222,-619.065,0,0
288287,166.217,-616.964,0,0
288548,165.399,-614.589,0,0
288808,164.88,-612.019,0,0
289068,164.714,-609.246,0,0
289329,164.993,-606.425,0,0
289589,165.717,-603.644,0,0
289849,166.875,-601.012,0,0
290109,168.407,-598.6,0,0
290370,170.256,-596.502,0,0
290630,172.344,-594.676,0,0
290890,174.691,-593.238,0,0
291151,177.135,-592.156,0,0
291411,179.702,-591.514,0,0
291671,182.294,-591.214,0,0
291932,184.86,-591.359,0,0
292192,187.357,-591.842,0,0
292452,189.72,-592.692,0,0
292713,191.98,-593.894,0,0
292973,194.037,-595.468,0,0
293233,195.846,-597.388,0,0
293494,197.276,-599.568,0,0
293754,198.344,-601.974,0,0
294014,199.044,-604.473,0,0
294275,199.434,-607.057,0,0
294535,199.447,-609.7,0,0
294795,199.094,-612.409,0,0
295056,198.298,-615.038,0,0
295316,197.14,-617.593,0,0
295576,195.673,-619.924,0,0
295837,193.915,-622.072,0,0
296097,191.918,-623.956,0,0
296357,189.688,-625.581,0,0
296618,187.317,-626.918,0,0
296878,184.839,-627.911,0,0
297138,182.382,-628.568,0,0
297399,179.994,-628.955,0,0
297659,177.703,-629.182,0,0
297919,175.495,-629.234,0,0
298180,173.381,-629.156,0,0
298440,171.368,-628.952,0,0
298700.2,169.468,-628.699,0,0
298960.525,167.621,-628.412,0,0
299220.85,165.835,-628.083,0,0
299481.175,164.09,-627.728,0,0
299741.5,162.38,-627.306,0,0
300001.825,160.703,-626.902,0,0
300262.15,159.042,-626.458,0,0
300522.475,157.403,-625.985,0,0
300782.8,155.738,-625.47,0,0
301043.125,154.105,-624.877,0,0
301303.45,152.443,-624.238,0,0
301563.775,150.781,-623.542,0,0
301824.1,149.163,-622.741,0,0
302084.425,147.62,-621.854,0,0
302344.75,146.137,-620.902,0,0
302605.075,144.789,-619.926,0,0
302865.4,143.492,-618.978,0,0
303125.725,142.226,-618.085,0,0
303386.05,140.949,-617.171,0,0
303646.375,139.659,-616.233,0,0
303906.7,138.386,-615.224,0,0
304167.025,137.16,-614.196,0,0
304427.35,135.958,-613.127,0,0
304687.675,134.765,-612.003,0,0
304948.0,133.652,-610.821,0,0
305208.325,132.587,-609.617,0,0
305468.65,131.638,-608.382,0,0
305728.975,130.725,-607.149,0,0
305989.3,129.859,-605.913,0,0
306249.625,129.074,-604.668,0,0
306509.95,128.328,-603.409,0,0
306770.275,127.669,-602.135,0,0
307030.6,127.135,-600.885,0,0
307290.925,126.674,-599.699,0,0
307551.25,126.275,-598.565,0,0
307811.575,125.91,-597.514,0,0
308071.9,125.591,-596.541,0,0
308332.225,125.284,-595.614,0,0
308592.55,125,-594.753,0,0
308852.875,124.727,-594.021,0,0
309113.2,124.392,-593.343,0,0
309373.525,123.99,-592.732,0,0
309633.85,123.547,-592.149,0,0
309894.175,123.071,-591.571,0,0
310154.5,122.536,-591.029,0,0
310414.825,121.941,-590.488,0,0
310675.15,121.283,-589.894,0,0
310935.475,120.572,-589.307,0,0
311195.8,119.832,-588.637,0,0
311456.125,119.075,-587.913,0,0
311716.45,118.329,-587.133,0,0
311976.775,117.607,-586.294,0,0
312237.1,116.943,-585.442,0,0
312497.425,116.294,-584.591,0,0
312757.75,115.67,-583.717,0,0
313018.075,115.039,-582.83,0,0
313278.4,114.442,-581.899,0,0
313538.725,113.885,-580.928,0,0
313799.05,113.396,-579.947,0,0
314059.375,112.962,-578.965,0,0
314319.7,112.597,-578.021,0,0
314580,112.305,-577.107,0,0
314840,111.956,-576.23,0,0
315101,111.693,-575.382,0,0
315361,111.472,-574.658,0,0
315621,111.278,-573.922,0,0
315882,110.958,-573.21,0,0
316142,110.784,-572.606,0,0
316402,110.553,-571.962,0,0
316663,110.396,-571.35,0,0
316923,110.102,-570.844,0,0
317183,109.916,-570.364,0,0
317444,109.614,-569.893,0,0
317704,109.338,-569.434,0,0
317964,109.115,-569.028,0,0
318225,108.668,-568.697,0,0
318485,108.33,-568.342,0,0
318745,107.877,-568.004,0,0
319006,107.507,-567.758,0,0
319266,107.114,-567.562,0,0
319526,106.564,-567.384,0,0
319787,105.984,-567.246,0,0
320047,105.245,-567.066,0,0
320307,104.525,-566.964,0,0
320567,103.712,-566.804,0,0
320828,102.814,-566.533,0,0
321088,101.779,-566.403,0,0
321348,100.76,-566.136,0,0
321609,99.6353,-565.848,0,0
321869,98.358,-565.413,0,0
322129,96.9855,-565.024,0,0
322390,95.57,-564.481,0,0
322650,94.1095,-563.81,0,0
322910,92.6076,-562.9,0,0
323171,91.2775,-561.868,0,0
323431,89.912,-560.561,0,0
323691,88.6201,-559.247,0,0
323952,87.4403,-557.869,0,0
324212,86.4127,-556.389,0,0
324472,85.5684,-554.884,0,0
324733,84.7937,-553.365,0,0
324993,84.0451,-551.914,0,0
325253,83.464,-550.466,0,0
325514,82.908,-549.067,0,0
325774,82.4402,-547.796,0,0
326034,81.859,-546.496,0,0
326295,81.3706,-545.161,0,0
326555,80.9029,-543.922,0,0
326815,80.4113,-542.645,0,0
327076,79.8686,-541.352,0,0
327336,79.4251,-540.01,0,0
327596,78.968,-538.654,0,0
327857,78.5562,-537.295,0,0
328117,78.1575,-535.879,0,0
328377,77.8045,-534.477,0,0
328638,77.4987,-533.071,0,0
328898,77.2353,-531.581,0,0
329158,77.0944,-530.088,0,0
329419,76.9676,-528.61,0,0
329679,76.9649,-527.159,0,0
329939,77.0363,-525.762,0,0
330200,77.1951,-524.417,0,0
330460,77.3434,-523.117,0,0
330720.15,77.6061,-521.873,0,0
330980.475,77.9219,-520.765,0,0
331240.8,78.2123,-519.659,0,0
331501.125,78.536,-518.664,0,0
331761.45,78.8176,-517.737,0,0
332021.775,79.1353,-516.903,0,0
332282.1,79.4424,-516.09,0,0
332542.425,79.6864,-515.459,0,0
332802.75,79.8012,-514.76,0,0
333063.075,80.0128,-514.149,0,0
333323.4,80.0675,-513.594,0,0
333583.725,80.0264,-513.014,0,0
333844.05,80.0637,-512.455,0,0
334104.375,79.9589,-511.916,0,0
334364.7,79.7811,-511.344,0,0
334625.025,79.5836,-510.733,0,0
334885.35,79.3345,-510.095,0,0
335145.675,79.0341,-509.436,0,0
335406.0,78.86,-508.867,0,0
335666.325,78.4234,-508.106,0,0
335926.65,78.0506,-507.44,0,0
336186.975,77.6818,-506.588,0,0
336447.3,77.2079,-505.748,0,0
336707.625,76.6926,-504.787,0,0
336967.95,76.3083,-503.745,0,0
337228.275,75.9223,-502.68,0,0
337488.6,75.6204,-501.473,0,0
337748.925,75.3754,-500.297,0,0
338009.25,75.2421,-499.066,0,0
338269.575,75.0833,-497.831,0,0
338529.9,75.0178,-496.627,0,0
338790.225,75.0021,-495.328,0,0
339050.55,75.0306,-494.1,0,0
339310.875,75.0472,-492.829,0,0
339571.2,75.1625,-491.561,0,0
339831.525,75.4307,-490.227,0,0
340091.85,75.7049,-489.001,0,0
340352.175,76.0015,-487.735,0,0
340612.5,76.3785,-486.474,0,0
340872.825,76.9375,-485.249,0,0
341133.15,77.4278,-484.094,0,0
341393.475,78.0236,-482.885,0,0
341653.8,78.7374,-481.828,0,0
341914.125,79.5458,-480.916,0,0
342174.45,80.3603,-479.942,0,0
342434.775,81.2593,-479.112,0,0
342695.1,82.2045,-478.504,0,0
342955.425,83.1343,-477.898,0,0
343215.75,83.997,-477.528,0,0
343476.075,84.9209,-477.168,0,0
343736.4,85.6897,-477.057,0,0
343996.725,86.4277,-476.924,0,0
344257.05,87.0675,-476.866,0,0
344517.375,87.6374,-476.935,0,0
344777.7,88.153,-477.007,0,0
345038.025,88.4874,-477.092,0,0
345298.35,88.8302,-477.252,0,0
345558.675,89.0871,-477.318,0,0
345819.0,89.2446,-477.434,0,0
346079.325,89.2782,-477.581,0,0
346339.65,89.3403,-477.733,0,0
346599.975,89.3254,-477.798,0,0
346860,89.1793,-477.875,0,0
347121,89.0054,-477.939,0,0
347381,88.8167,-477.935,0,0
347641,88.5301,-477.851,0,0
347902,88.2233,-477.736,0,0
348162,87.9453,-477.584,0,0
348422,87.6233,-477.482,0,0
348683,87.2185,-477.337,0,0
348943,86.8613,-477.133,0,0
349203,86.4337,-476.887,0,0
349464,86.0198,-476.57,0,0
349724,85.5784,-476.293,0,0
349984,85.1619,-475.837,0,0
350245,84.7153,-475.393,0,0
350505,84.2784,-474.924,0,0
350765,83.8702,-474.424,0,0
351025,83.4796,-473.844,0,0
351286,83.1032,-473.288,0,0
351546,82.7743,-472.766,0,0
351806,82.3628,-472.09,0,0
352067,82.0028,-471.464,0,0
352327,81.678,-470.784,0,0
352587,81.3696,-470.003,0,0
352848,81.1528,-469.235,0,0
353108,80.8953,-468.472,0,0
353368,80.6858,-467.686,0,0
353629,80.5911,-466.869,0,0
353889,80.5352,-466.07,0,0
354149,80.5841,-465.266,0,0
354410,80.6131,-464.51,0,0
354670,80.7432,-463.815,0,0
354930,80.914,-463.221,0,0
355191,81.0057,-462.651,0,0
355451,81.111,-462.203,0,0
355711,81.12,-461.685,0,0
355972,81.1635,-461.252,0,0
356232,81.2391,-460.894,0,0
356492,81.1257,-460.511,0,0
356753,81.0741,-460.042,0,0
357013,80.8761,-459.718,0,0
357273,80.7903,-459.298,0,0
357534,80.5833,-458.881,0,0
357794,80.3511,-458.478,0,0
358054,80.0417,-457.982,0,0
358315,79.7398,-457.477,0,0
358575,79.4557,-456.971,0,0
358835,79.0932,-456.33,0,0
359096,78.797,-455.643,0,0
359356,78.5387,-454.928,0,0
359616,78.2259,-454.125,0,0
359877,78.0276,-453.274,0,0
360137,77.8379,-452.455,0,0
360397,77.7075,-451.597,0,0
360658,77.659,-450.703,0,0
360918,77.6413,-449.84,0,0
361178,77.6339,-448.992,0,0
361438,77.684,-448.181,0,0
361699,77.7289,-447.297,0,0
361959,77.9468,-446.456,0,0
362219,78.0574,-445.617,0,0
362480,78.2404,-444.867,0,0
362740.1,78.4235,-444.122,0,0
363000.425,78.7362,-443.427,0,0
363260.75,78.875,-442.825,0,0
363521.075,79.085,-442.262,0,0
363781.4,79.2736,-441.631,0,0
364041.725,79.4503,-441.093,0,0
364302.05,79.6191,-440.477,0,0
364562.375,79.6574,-439.981,0,0
364822.7,79.7463,-439.363,0,0
365083.025,79.7906,-438.815,0,0
365343.35,79.7787,-438.164,0,0
365603.675,79.7834,-437.495,0,0
365864.0,79.7863,-436.78,0,0
366124.325,79.7824,-436.023,0,0
366384.65,79.8204,-435.217,0,0
366644.975,79.8829,-434.318,0,0
366905.3,80.0308,-433.422,0,0
367165.625,80.2678,-432.48,0,0
367425.95,80.5452,-431.528,0,0
367686.275,80.8744,-430.612,0,0
367946.6,81.3202,-429.683,0,0
368206.925,81.7737,-428.757,0,0
368467.25,82.2916,-427.848,0,0
368727.575,82.8965,-426.934,0,0
368987.9,83.4912,-426.065,0,0
369248.225,84.2526,-425.216,0,0
369508.55,85.0952,-424.463,0,0
369768.875,85.9545,-423.827,0,0
370029.2,86.8376,-423.226,0,0
370289.525,87.8367,-422.672,0,0
370549.85,88.769,-422.204,0,0
370810.175,89.797,-421.824,0,0
371070.5,90.8109,-421.526,0,0
371330.825,91.8965,-421.329,0,0
371591.15,92.9072,-421.24,0,0
371851.475,93.9784,-421.246,0,0
372111.8,94.9989,-421.374,0,0
372372.125,95.925,-421.589,0,0
372632.45,96.863,-421.918,0,0
372892.775,97.7848,-422.391,0,0
373153.1,98.5756,-422.917,0,0
373413.425,99.2405,-423.585,0,0
373673.75,99.7426,-424.214,0,0
373934.075,100.167,-424.941,0,0
374194.4,100.461,-425.647,0,0
374454.725,100.642,-426.339,0,0
374715.05,100.681,-427.042,0,0
374975.375,100.606,-427.676,0,0
375235.7,100.519,-428.256,0,0
375496.025,100.286,-428.757,0,0
375756.35,100.041,-429.137,0,0
376016.675,99.7907,-429.466,0,0
376277.0,99.5348,-429.737,0,0
376537.325,99.2729,-430.004,0,0
376797.65,98.9656,-430.139,0,0
377057.975,98.7465,-430.284,0,0
377318.3,98.5008,-430.363,0,0
377578.625,98.3179,-430.465,0,0
377838.95,98.1569,-430.609,0,0
378099.275,97.9745,-430.7,0,0
378359.6,97.8108,-430.848,0,0
378619.925,97.5669,-431.031,0,0
378880,97.3175,-431.175,0,0
379141,96.9835,-431.346,0,0
379401,96.6574,-431.471,0,0
379661,96.3052,-431.557,0,0
379922,95.9054,-431.61,0,0
380182,95.5345,-431.519,0,0
380442,95.1916,-431.415,0,0
380703,94.9,-431.366,0,0
380963,94.5105,-431.298,0,0
381223,94.2409,-431.169,0,0
381483,93.9099,-431.017,0,0
381744,93.6429,-430.821,0,0
382004,93.4382,-430.6,0,0
382264,93.3077,-430.309,0,0
382525,93.3204,-430.081,0,0
382785,93.4133,-429.961,0,0
383045,93.5755,-429.951,0,0
383306,93.6694,-430.144,0,0
383566,93.8262,-430.413,0,0
383826,93.8895,-430.833,0,0
384087,93.7432,-431.385,0,0
384347,93.4633,-432.028,0,0
384607,93.0208,-432.621,0,0
384868,92.4097,-433.215,0,0
385128,91.663,-433.7,0,0
385388,90.7906,-434.172,0,0
385649,89.821,-434.538,0,0
385909,88.7693,-434.79,0,0
386169,87.5914,-434.892,0,0
386430,86.4124,-434.839,0,0
386690,85.1706,-434.685,0,0
386950,83.9594,-434.304,0,0
387211,82.773,-433.84,0,0
387471,81.6486,-433.216,0,0
387731,80.7392,-432.503,0,0
387992,79.7622,-431.641,0,0
388252,78.9429,-430.735,0,0
388512,78.2382,-429.779,0,0
388773,77.6351,-428.776,0,0
389033,77.2239,-427.769,0,0
389293,76.934,-426.725,0,0
389554,76.7073,-425.801,0,0
389814,76.7191,-424.831,0,0
390074,76.7948,-424.14,0,0
390335,76.9139,-423.458,0,0
390595,77.1167,-422.892,0,0
390855,77.324,-422.466,0,0
391116,77.4907,-422.225,0,0
391376,77.6391,-422.055,0,0
391636,77.7551,-421.99,0,0
391896,77.6919,-422.042,0,0
392157,77.595,-422.248,0,0
392417,77.3237,-422.458,0,0
392677,76.8551,-422.669,0,0
392938,76.2502,-422.82,0,0
393198,75.5165,-422.94,0,0
393458,74.7244,-422.932,0,0
393719,73.8122,-422.812,0,0
393979,72.8631,-422.583,0,0
394239,71.9215,-422.238,0,0
394500,70.9622,-421.791,0,0
394760.05,70.0617,-421.216,0,0
395020.375,69.0969,-420.65,0,0
395280.7,68.2629,-419.929,0,0
395541.025,67.4391,-419.172,0,0
395801.35,66.645,-418.318,0,0
396061.675,65.9369,-417.461,0,0
396322.0,65.2653,-416.554,0,0
396582.325,64.6997,-415.602,0,0
396842.65,64.1783,-414.691,0,0
397102.975,63.7023,-413.729,0,0
397363.3,63.2431,-412.777,0,0
397623.625,62.8082,-411.833,0,0
397883.95,62.416,-410.883,0,0
398144.275,62.0461,-409.976,0,0
398404.6,61.7238,-409.033,0,0
398664.925,61.3769,-408.05,0,0
398925.25,61.0436,-407.121,0,0
399185.575,60.7187,-406.141,0,0
399445.9,60.5008,-405.138,0,0
399706.225,60.2944,-404.147,0,0
399966.55,60.1083,-403.151,0,0
400006.6,60.0521,-403.017,0,0