File: Accelerated corrosion test data/2025-10-11_18-00-03/sample_2.csv
Frequency (Hz),Impedance (ohms),Phase (Radians),Temperature (C),Humidity (%)
10000.0,231.57,-11397.3,0,0
10260.325,225.877,-11110.8,0,0
10520.65,220.047,-10837.9,0,0
10780.975,214.67,-10577.7,0,0
11041.3,209.804,-10331.3,0,0
11301.625,205.791,-10094.5,0,0
11561.95,201.727,-9867.62,0,0
11822.275,200.275,-9658.89,0,0
12082.6,194.6,-9449.16,0,0
12342.925,189.008,-9253.34,0,0
12603.25,185.024,-9062.79,0,0
12863.575,181.472,-8879.53,0,0
13123.9,178.747,-8706.5,0,0
13384.225,174.161,-8536.24,0,0
13644.55,171.82,-8371.25,0,0
13904.875,186.291,-8218.35,0,0
14165.2,167.571,-8073.43,0,0
14425.525,163.717,-7925.4,0,0
14685.8,163.82,-7780.48,0,0
14946.175,161.519,-7651.74,0,0
15206.5,165.661,-7529.62,0,0
15466.825,162.043,-7394.26,0,0
15727.15,152.623,-7283.02,0,0
15987.5,149.35,-7161.79,0,0
16247.8,149.606,-7047.37,0,0
16508.125,144.164,-6937.86,0,0
16768.45,141.815,-6830.08,0,0
17028.775,140.112,-6726.25,0,0
17289.1,139.113,-6626.09,0,0
17549.425,135.254,-6527.29,0,0
17809.75,133.015,-6432.11,0,0
18070.075,132.376,-6339.52,0,0
18330.4,130.594,-6248.37,0,0
18590.725,129.131,-6160.73,0,0
18851.05,127.701,-6075.42,0,0
19111.375,128.922,-5993.16,0,0
19371.7,128.997,-5915.74,0,0
19632.025,123.876,-5838.41,0,0
19892.35,121.501,-5760.95,0,0
20152.675,119.536,-5685.33,0,0
20413.0,118.864,-5611.5,0,0
20673.3,117.963,-5539.03,0,0
20933.65,118.417,-5467.76,0,0
21193.975,123.304,-5400.77,0,0
21454.3,130.209,-5338.45,0,0
21714.625,127.585,-5282.86,0,0
21974.9,121.532,-5218.25,0,0
22235.275,119.202,-5164.07,0,0
22495.6,115.249,-5103.75,0,0
22755.925,112.133,-5042.83,0,0
23016.25,112.676,-4987.56,0,0
23276.6,113.199,-4932.66,0,0
23536.9,109.143,-4878.72,0,0
23797.225,107.208,-4824.86,0,0
24057.55,106.927,-4773.62,0,0
24317.875,103.557,-4722.56,0,0
24578.2,101.481,-4672.24,0,0
24838.525,101.106,-4621.99,0,0
25098.85,99.7262,-4573.86,0,0
25359.175,98.7238,-4526.11,0,0
25619.5,97.7825,-4479.6,0,0
25879.8,96.6899,-4433.69,0,0
26140.1,96.9132,-4389.48,0,0
26400.5,96.0277,-4345.71,0,0
26660.8,97.0044,-4304.35,0,0
26921.1,95.0674,-4262.32,0,0
27181.4,94.2015,-4222.41,0,0
27441.8,92.7625,-4182.26,0,0
27702.1,91.4523,-4142.25,0,0
27962.4,90.6327,-4102.19,0,0
28222.7,90.2408,-4063.76,0,0
28483.1,89.9149,-4026.46,0,0
28743.4,89.3521,-3988.71,0,0
29003.7,90.3683,-3951.65,0,0
29264,90.0382,-3915.7,0,0
29524.4,93.1818,-3880.51,0,0
29784.7,96.4911,-3850.94,0,0
30045,92.7882,-3819.48,0,0
30305.3,94.1787,-3786.22,0,0
30565.7,90.8683,-3758.56,0,0
30826,87.9647,-3726.1,0,0
31086.3,86.6983,-3694.13,0,0
31346.6,85.1357,-3663.05,0,0
31607,85.2831,-3632.38,0,0
31867.3,83.5456,-3603.31,0,0
32127.6,82.0653,-3572.73,0,0
32387.9,82.3826,-3542.64,0,0
32648.3,83.4975,-3514.7,0,0
32908.6,83.0698,-3488.33,0,0
33168.9,81.9636,-3462.05,0,0
33429.2,80.0192,-3434.51,0,0
33689.6,79.6255,-3407.44,0,0
33949.9,79.0663,-3381.73,0,0
34210.2,77.3064,-3355.83,0,0
34470.5,76.4206,-3329.66,0,0
34730.9,75.6142,-3304.16,0,0
34991.2,75.4952,-3279.11,0,0
35251.5,74.9104,-3254.67,0,0
35511.8,74.4585,-3230.35,0,0
35772.2,73.9587,-3206.53,0,0
36032.5,72.9708,-3183.52,0,0
36292.8,72.5477,-3160.08,0,0
36553.1,72.1952,-3136.85,0,0
36813.5,71.8856,-3114.4,0,0
37073.8,71.4169,-3092.07,0,0
37334.1,71.1714,-3070.03,0,0
37594.4,70.7177,-3048.56,0,0
37854.8,70.3169,-3027.2,0,0
38115.1,70.1273,-3006.55,0,0
38375.4,69.2432,-2985.93,0,0
38635.7,68.8389,-2965.25,0,0
38896.1,68.6278,-2944.95,0,0
39156.4,68.3609,-2925.12,0,0
39416.7,67.8763,-2905.38,0,0
39677,67.3147,-2885.83,0,0
39937.4,67.1499,-2866.66,0,0
40197.7,66.6052,-2847.65,0,0
40458,66.0677,-2828.91,0,0
40718.3,66.3289,-2810.01,0,0
40978.7,66.0005,-2792.17,0,0
41239,65.7281,-2773.9,0,0
41499.3,65.938,-2756.34,0,0
41759.6,65.259,-2738.87,0,0
42020,65.2638,-2721.29,0,0
42280.275,65.0274,-2704.48,0,0
42540.6,64.666,-2687.81,0,0
42800.925,64.2807,-2671.2,0,0
43061.25,63.7463,-2654.45,0,0
43321.575,63.6733,-2637.99,0,0
43581.9,63.5355,-2621.86,0,0
43842.225,63.0251,-2605.89,0,0
44102.55,62.9721,-2589.89,0,0
44362.875,62.9092,-2574.47,0,0
44623.2,62.5282,-2559.25,0,0
44883.525,62.0094,-2543.72,0,0
45143.85,61.9979,-2528.21,0,0
45404.175,62.1192,-2513.63,0,0
45664.5,61.7619,-2499.04,0,0
45924.825,61.5147,-2484.37,0,0
46185.15,61.9088,-2470.29,0,0
46445.475,61.338,-2456.38,0,0
46705.8,60.7948,-2441.91,0,0
46966.125,60.7857,-2427.63,0,0
47226.45,60.7736,-2413.66,0,0
47486.775,61.1745,-2400.43,0,0
47747.1,60.5687,-2387.21,0,0
48007.425,60.5184,-2373.57,0,0
48267.75,61.0205,-2359.84,0,0
48528.075,61.5695,-2347.77,0,0
48788.4,61.038,-2335.57,0,0
49048.725,60.6956,-2323.15,0,0
49309.05,60.0993,-2311.12,0,0
49569.375,59.396,-2298.47,0,0
49829.7,58.8874,-2285.83,0,0
50090.025,58.511,-2273.66,0,0
50350.35,58.0309,-2261.45,0,0
50610.675,57.8466,-2248.97,0,0
50871.0,57.7318,-2236.95,0,0
51131.325,57.5706,-2225.48,0,0
51391.65,57.3307,-2213.84,0,0
51651.975,56.7346,-2202.38,0,0
51912.3,56.3653,-2190.78,0,0
52172.625,55.7988,-2179.22,0,0
52432.95,55.7301,-2167.79,0,0
52693.275,55.4159,-2156.49,0,0
52953.6,55.2074,-2145.25,0,0
53213.925,55.0319,-2134.08,0,0
53474.25,54.8879,-2123.19,0,0
53734.575,54.6681,-2112.32,0,0
53994.9,54.5609,-2101.57,0,0
54255.225,54.3882,-2090.78,0,0
54515.55,54.3828,-2080.26,0,0
54775.875,54.3285,-2069.87,0,0
55036.2,54.1396,-2059.35,0,0
55296.525,54.1025,-2049.17,0,0
55556.85,53.9646,-2038.92,0,0
55817.175,54.0872,-2028.73,0,0
56077.5,54.0414,-2018.83,0,0
56337.825,53.8558,-2008.93,0,0
56598.15,53.9254,-1998.99,0,0
56858.475,53.8473,-1989.24,0,0
57118.8,53.9893,-1979.6,0,0
57379.125,54,-1970.06,0,0
57639.45,53.9527,-1960.66,0,0
57899.775,54.0779,-1951.25,0,0
58160.1,54.082,-1942.02,0,0
58420.4,53.9965,-1932.85,0,0
58680.7,54.0452,-1923.55,0,0
58941.1,54.3069,-1914.31,0,0
59201.4,54.3376,-1905.3,0,0
59461.7,54.6694,-1896.23,0,0
59722,54.8575,-1887.33,0,0
59982.4,55.5517,-1878.34,0,0
60242.7,56.2118,-1870.22,0,0
60503,56.3515,-1862.33,0,0
60763.3,56.1909,-1853.91,0,0
61023.7,56.6485,-1845.21,0,0
61284,57.4275,-1837.19,0,0
61544.3,57.9669,-1829.51,0,0
61804.6,58.8471,-1822.13,0,0
62065,58.9621,-1815.5,0,0
62325.3,58.0563,-1808.52,0,0
62585.6,57.8193,-1800.82,0,0
62845.9,57.6331,-1793.61,0,0
63106.3,56.8632,-1786.77,0,0
63366.6,55.673,-1779.15,0,0
63626.9,54.962,-1771.38,0,0
63887.2,54.4175,-1763.68,0,0
64147.6,53.9477,-1756.02,0,0
64407.9,53.3185,-1748.44,0,0
64668.2,52.9872,-1740.76,0,0
64928.5,52.4367,-1733.7,0,0
65188.9,51.3162,-1726.12,0,0
65449.2,50.5629,-1717.77,0,0
65709.5,50.465,-1709.69,0,0
65969.8,50.686,-1701.72,0,0
66230.2,50.8527,-1694.2,0,0
66490.5,51.0385,-1686.67,0,0
66750.8,51.1448,-1679.56,0,0
67011.1,51.0406,-1672.18,0,0
67271.5,51.3841,-1664.59,0,0
67531.8,51.8458,-1657.38,0,0
67792.1,52.3921,-1650.48,0,0
68052.4,53.1087,-1643.72,0,0
68312.8,53.5589,-1637.43,0,0
68573.1,53.5308,-1630.8,0,0
68833.4,54.0369,-1623.97,0,0
69093.7,54.7703,-1617.75,0,0
69354.1,55.1625,-1611.96,0,0
69614.4,55.4612,-1606.01,0,0
69874.7,55.9824,-1600.48,0,0
70135,55.7253,-1595.29,0,0
70395.4,55.3672,-1589.95,0,0
70655.7,54.2652,-1584.62,0,0
70916,53.2152,-1578.6,0,0
71176.3,52.5513,-1572.42,0,0
71436.7,51.8435,-1566.39,0,0
71697,51.2862,-1560.58,0,0
71957.3,50.3316,-1554.79,0,0
72217.6,48.9838,-1548.7,0,0
72478,47.9469,-1542.03,0,0
72738.3,47.1815,-1535.38,0,0
72998.6,46.5696,-1528.61,0,0
73258.9,46.3534,-1522.18,0,0
73519.3,45.8826,-1515.81,0,0
73779.6,45.3612,-1509.28,0,0
74039.9,45.0838,-1502.61,0,0
74300.225,45.1277,-1496.02,0,0
74560.55,45.1702,-1489.78,0,0
74820.875,45.1262,-1483.32,0,0
75081.2,45.2804,-1476.99,0,0
75341.525,45.5282,-1470.79,0,0
75601.85,45.7852,-1464.67,0,0
75862.175,46.0622,-1458.58,0,0
76122.5,46.5306,-1452.54,0,0
76382.825,46.9462,-1446.65,0,0
76643.15,47.3476,-1440.87,0,0
76903.475,47.8318,-1435.19,0,0
77163.8,48.348,-1429.5,0,0
77424.125,49.0003,-1423.9,0,0
77684.45,49.7006,-1418.45,0,0
77944.775,50.4852,-1413.15,0,0
78205.1,51.2466,-1408.15,0,0
78465.425,52.0629,-1403.28,0,0
78725.75,52.5839,-1398.76,0,0
78986.075,53.0675,-1394.17,0,0
79246.4,53.3931,-1389.95,0,0
79506.725,53.4691,-1385.67,0,0
79767.05,53.3108,-1381.53,0,0
80027.375,52.7111,-1377.45,0,0
80287.7,51.817,-1372.83,0,0
80548.025,51.1419,-1367.93,0,0
80808.35,50.5204,-1363.05,0,0
81068.675,50.0592,-1357.86,0,0
81329.0,49.6762,-1352.86,0,0
81589.325,49.2919,-1347.78,0,0
81849.65,48.9542,-1342.74,0,0
82109.975,48.6563,-1337.55,0,0
82370.3,48.4681,-1332.49,0,0
82630.625,48.2611,-1327.32,0,0
82890.95,48.2071,-1322.1,0,0
83151.275,48.2337,-1317.06,0,0
83411.6,48.3657,-1312.03,0,0
83671.925,48.48,-1307.07,0,0
83932.25,48.6771,-1302.18,0,0
84192.575,48.93,-1297.44,0,0
84452.9,49.0799,-1292.72,0,0
84713.225,49.255,-1288.14,0,0
84973.55,49.2434,-1283.46,0,0
85233.875,49.4358,-1278.69,0,0
85494.2,49.6065,-1273.96,0,0
85754.525,50.0403,-1269.33,0,0
86014.85,50.3895,-1264.99,0,0
86275.175,50.633,-1260.62,0,0
86535.5,50.7833,-1256.41,0,0
86795.825,50.7754,-1252.1,0,0
87056.15,50.8995,-1247.65,0,0
87316.475,51.1623,-1243.27,0,0
87576.8,51.4295,-1239.26,0,0
87837.125,51.3562,-1235.26,0,0
88097.45,51.3258,-1230.98,0,0
88357.775,51.3831,-1226.66,0,0
88618.1,51.5943,-1222.79,0,0
88878.425,51.0542,-1218.62,0,0
89138.75,50.9324,-1213.95,0,0
89399.075,51.3912,-1209.5,0,0
89659.4,51.5575,-1205.12,0,0
89919.725,52.0065,-1201.09,0,0
90180,52.2123,-1197.38,0,0
90440.4,51.9995,-1193.59,0,0
90700.7,51.6759,-1189.4,0,0
90961,51.5972,-1184.68,0,0
91221.3,52.2709,-1180.28,0,0
91481.7,52.7178,-1176.44,0,0
91742,52.7215,-1172.53,0,0
92002.3,52.9242,-1168.28,0,0
92262.6,53.3982,-1164.08,0,0
92523,54.121,-1160.18,0,0
92783.3,54.6196,-1156.6,0,0
93043.6,54.952,-1152.9,0,0
93303.9,55.5015,-1149.39,0,0
93564.3,55.6818,-1146.03,0,0
93824.6,56.1453,-1142.56,0,0
94084.9,56.3322,-1139.63,0,0
94345.2,55.9476,-1136.4,0,0
94605.6,55.4525,-1132.73,0,0
94865.9,55.6512,-1128.96,0,0
95126.2,55.596,-1125.7,0,0
95386.5,54.9565,-1122.15,0,0
95646.9,54.508,-1118.01,0,0
95907.2,54.5814,-1113.49,0,0
96167.5,55.4286,-1109.32,0,0
96427.8,56.4663,-1105.82,0,0
96688.2,57.0364,-1102.78,0,0
96948.5,57.3914,-1099.5,0,0
97208.8,58.0115,-1096.33,0,0
97469.1,58.6376,-1093.7,0,0
97729.5,58.6246,-1091.23,0,0
97989.8,58.4292,-1088.52,0,0
98250.1,58.0466,-1085.73,0,0
98510.4,57.8117,-1082.73,0,0
98770.8,57.6759,-1080.06,0,0
99031.1,57.1295,-1077.51,0,0
99291.4,56.2522,-1074.98,0,0
99551.7,54.8813,-1072.02,0,0
99812.1,53.5304,-1068.48,0,0
100072,52.633,-1064.47,0,0
100333,52.2363,-1060.59,0,0
100593,52.0417,-1057.19,0,0
100853,51.4227,-1053.99,0,0
101114,50.5551,-1050.61,0,0
101374,49.6063,-1047.06,0,0
101634,48.5645,-1043.2,0,0
101895,47.7281,-1038.92,0,0
102155,47.2974,-1034.67,0,0
102415,47.0622,-1030.54,0,0
102676,46.7723,-1026.51,0,0
102936,46.4328,-1022.45,0,0
103196,46.2326,-1018.16,0,0
103457,46.1859,-1013.95,0,0
103717,46.2013,-1009.61,0,0
103977,46.4427,-1005.28,0,0
104238,46.9513,-1000.98,0,0
104498,47.6665,-996.769,0,0
104758,48.5587,-992.843,0,0
105019,49.4489,-989.192,0,0
105279,50.2395,-985.633,0,0
105539,51.0189,-982.027,0,0
105800,52.0628,-978.436,0,0
106060,53.2594,-975.236,0,0
106320.175,54.4008,-972.327,0,0
106580.5,55.4056,-969.595,0,0
106840.825,56.3595,-967.136,0,0
107101.15,56.9326,-964.869,0,0
107361.475,57.3108,-962.526,0,0
107621.8,57.5302,-960.322,0,0
107882.125,57.6194,-958.026,0,0
108142.45,57.4812,-955.878,0,0
108402.775,56.9224,-953.499,0,0
108663.1,56.4815,-950.71,0,0
108923.425,56.1311,-948.092,0,0
109183.75,55.4968,-945.39,0,0
109444.075,54.79,-942.428,0,0
109704.4,54.2155,-939.295,0,0
109964.725,53.6294,-936.166,0,0
110225.05,53.0027,-932.866,0,0
110485.375,52.4606,-929.413,0,0
110745.7,52.165,-925.762,0,0
111006.025,51.9454,-922.219,0,0
111266.35,51.849,-918.622,0,0
111526.675,51.8144,-915.211,0,0
111787.0,51.8313,-911.568,0,0
112047.325,51.9156,-907.995,0,0
112307.65,52.1543,-904.64,0,0
112567.975,52.2665,-901.173,0,0
112828.3,52.3839,-897.698,0,0
113088.625,52.6541,-894.215,0,0
113348.95,52.9575,-890.723,0,0
113609.275,53.4501,-887.299,0,0
113869.6,53.8118,-883.992,0,0
114129.925,54.1941,-880.606,0,0
114390.25,54.6851,-877.307,0,0
114650.575,55.1582,-874.015,0,0
114910.9,55.7491,-870.731,0,0
115171.225,56.3179,-867.451,0,0
115431.55,57.0232,-864.277,0,0
115691.875,57.6794,-861.205,0,0
115952.2,58.3172,-858.158,0,0
116212.525,58.9914,-855.118,0,0
116472.85,59.7553,-852.035,0,0
116733.175,60.5843,-849.126,0,0
116993.5,61.3838,-846.322,0,0
117253.825,62.1057,-843.543,0,0
117514.15,62.8186,-840.81,0,0
117774.475,63.6384,-838.014,0,0
118034.8,64.5534,-835.412,0,0
118295.125,65.4101,-833.024,0,0
118555.45,65.9975,-830.614,0,0
118815.775,66.6828,-828.174,0,0
119076.1,67.4619,-825.868,0,0
119336.425,68.0438,-823.792,0,0
119596.75,68.4602,-821.509,0,0
119857.075,69.0044,-819.354,0,0
120117.4,69.4192,-817.29,0,0
120377.725,69.7239,-815.355,0,0
120638.05,69.8529,-813.379,0,0
120898.375,69.7383,-811.372,0,0
121158.7,69.494,-809.229,0,0
121419.025,69.2872,-806.84,0,0
121679.35,69.1595,-804.452,0,0
121939.675,68.9851,-802.027,0,0
122200.0,68.7672,-799.602,0,0
122460,68.4901,-797.014,0,0
122721,68.2773,-794.35,0,0
122981,68.1277,-791.654,0,0
123241,67.9732,-788.957,0,0
123502,67.8607,-786.244,0,0
123762,67.7432,-783.523,0,0
124022,67.5755,-780.697,0,0
124283,67.4316,-777.815,0,0
124543,67.3688,-774.868,0,0
124803,67.3369,-771.921,0,0
125064,67.3588,-768.944,0,0
125324,67.4179,-765.919,0,0
125584,67.5442,-762.875,0,0
125845,67.7468,-759.851,0,0
126105,67.9836,-756.817,0,0
126365,68.3191,-753.766,0,0
126626,68.6512,-750.755,0,0
126886,69.0582,-747.736,0,0
127146,69.4548,-744.738,0,0
127406,70.0073,-741.845,0,0
127667,70.5739,-738.839,0,0
127927,71.1632,-736.083,0,0
128187,71.7634,-733.322,0,0
128448,72.2893,-730.615,0,0
128708,72.8744,-727.923,0,0
128968,73.4548,-725.249,0,0
129229,74.0217,-722.665,0,0
129489,74.5029,-720.161,0,0
129749,74.9329,-717.63,0,0
130010,75.2958,-714.985,0,0
130270,75.7736,-712.327,0,0
130530,76.2228,-709.765,0,0
130791,76.704,-707.173,0,0
131051,77.1547,-704.618,0,0
131311,77.5917,-702.167,0,0
131572,77.922,-699.66,0,0
131832,78.2553,-697.139,0,0
132092,78.5485,-694.64,0,0
132353,78.7163,-692.117,0,0
132613,78.8118,-689.452,0,0
132873,78.9761,-686.659,0,0
133134,79.2229,-683.828,0,0
133394,79.5177,-680.971,0,0
133654,79.9205,-678.133,0,0
133915,80.288,-675.301,0,0
134175,80.662,-672.549,0,0
134435,80.9117,-669.756,0,0
134696,81.1623,-666.834,0,0
134956,81.5154,-663.834,0,0
135216,81.9392,-660.828,0,0
135477,82.3687,-657.816,0,0
135737,82.872,-654.689,0,0
135997,83.464,-651.676,0,0
136258,84.0788,-648.637,0,0
136518,84.7649,-645.625,0,0
136778,85.4088,-642.711,0,0
137039,85.9676,-639.735,0,0
137299,86.5794,-636.636,0,0
137559,87.3266,-633.54,0,0
137819,88.12,-630.502,0,0
138080,88.9181,-627.54,0,0
138340.125,89.6061,-624.628,0,0
138600.45,90.2643,-621.623,0,0
138860.775,90.9184,-618.514,0,0
139121.1,91.6428,-615.358,0,0
139381.425,92.4419,-612.197,0,0
139641.75,93.1944,-609.018,0,0
139902.075,93.9089,-605.846,0,0
140162.4,94.5668,-602.491,0,0
140422.725,95.3342,-598.879,0,0
140683.05,96.3187,-595.152,0,0
140943.375,97.4861,-591.439,0,0
141203.7,98.781,-587.676,0,0
141464.025,100.29,-583.885,0,0
141724.35,101.987,-580.16,0,0
141984.675,103.816,-576.532,0,0
142245.0,105.833,-572.983,0,0
142505.325,107.886,-569.575,0,0
142765.65,110.044,-566.187,0,0
143025.975,112.388,-562.933,0,0
143286.3,114.731,-559.971,0,0
143546.625,116.934,-557.08,0,0
143806.95,119.144,-554.1,0,0
144067.275,121.411,-551.186,0,0
144327.6,123.731,-548.348,0,0
144587.925,125.991,-545.583,0,0
144848.25,128.172,-542.69,0,0
145108.575,130.575,-539.687,0,0
145368.9,133.156,-536.831,0,0
145629.225,135.752,-534.049,0,0
145889.55,138.432,-531.352,0,0
146149.875,141.05,-528.709,0,0
146410.2,143.726,-525.966,0,0
146670.525,146.57,-523.202,0,0
146930.85,149.57,-520.515,0,0
147191.175,152.649,-517.909,0,0
147451.5,155.89,-515.253,0,0
147711.825,159.377,-512.8,0,0
147972.15,162.888,-510.57,0,0
148232.475,166.314,-508.314,0,0
148492.8,170.014,-505.965,0,0
148753.125,173.979,-503.73,0,0
149013.45,178.215,-501.605,0,0
149273.775,182.879,-499.638,0,0
149534.1,187.94,-498.157,0,0
149794.425,193.248,-497.26,0,0
150054.75,198.517,-497.044,0,0
150315.075,203.655,-497.219,0,0
150575.4,208.935,-497.821,0,0
150835.725,214.239,-499.325,0,0
151096.05,218.875,-501.751,0,0
151356.375,222.628,-504.411,0,0
151616.7,226.057,-507.101,0,0
151877.025,229.147,-510.31,0,0
152137.35,231.244,-513.901,0,0
152397.675,232.416,-517.141,0,0
152658.0,233.197,-519.959,0,0
152918.325,233.694,-522.513,0,0
153178.65,234.015,-524.808,0,0
153438.975,234.176,-527.058,0,0
153699.3,234.018,-529.36,0,0
153959.625,233.261,-531.526,0,0
154219.95,231.992,-533.195,0,0
154480,230.694,-534.178,0,0
154741,229.442,-534.847,0,0
155001,228.277,-535.176,0,0
155261,227.158,-535.341,0,0
155522,226.121,-535.294,0,0
155782,225.273,-535.276,0,0
156042,224.242,-535.243,0,0
156303,222.96,-535.122,0,0
156563,221.544,-534.427,0,0
156823,220.507,-533.505,0,0
157084,219.546,-532.642,0,0
157344,218.215,-531.703,0,0
157604,216.947,-530,0,0
157864,216.268,-528.036,0,0
158125,215.845,-526.012,0,0
158385,215.801,-524.122,0,0
158645,216.045,-522.331,0,0
158906,216.342,-520.64,0,0
159166,216.742,-519.008,0,0
159426,217.307,-517.645,0,0
159687,217.811,-516.238,0,0
159947,218.427,-515.16,0,0
160207,218.894,-514.313,0,0
160468,219.111,-513.492,0,0
160728,219.095,-512.36,0,0
160988,219.284,-510.995,0,0
161249,219.517,-509.335,0,0
161509,220.607,-507.68,0,0
161769,221.995,-506.848,0,0
162030,223.264,-506.319,0,0
162290,224.591,-506.371,0,0
162550,225.432,-507.072,0,0
162811,225.754,-508.017,0,0
163071,225.38,-509.297,0,0
163331,224.048,-510.531,0,0
163592,222.129,-510.946,0,0
163852,220.113,-511.022,0,0
164112,217.795,-510.956,0,0
164373,214.933,-510.291,0,0
164633,212.176,-508.93,0,0
164893,209.6,-507.148,0,0
165154,207.188,-504.97,0,0
165414,204.796,-502.661,0,0
165674,202.165,-500.354,0,0
165935,199.76,-497.17,0,0
166195,197.682,-493.755,0,0
166455,195.661,-490.266,0,0
166716,193.832,-486.302,0,0
166976,192.333,-482.065,0,0
167236,191.312,-477.706,0,0
167497,190.585,-473.523,0,0
167757,189.838,-469.226,0,0
168017,189.266,-464.794,0,0
168277,188.961,-460.129,0,0
168538,188.981,-455.375,0,0
168798,189.539,-450.696,0,0
169058,190.105,-446.4,0,0
169319,190.818,-442.213,0,0
169579,191.318,-438.047,0,0
169839,191.898,-433.628,0,0
170100,192.721,-429.253,0,0
170360.075,193.794,-424.996,0,0
170620.4,194.699,-420.995,0,0
170880.725,195.342,-416.695,0,0
171141.05,195.95,-412.031,0,0
171401.375,197.068,-406.948,0,0
171661.7,198.571,-401.905,0,0
171922.025,200.434,-396.917,0,0
172182.35,202.373,-392.152,0,0
172442.675,204.327,-387.464,0,0
172703.0,206.288,-382.556,0,0
172963.325,208.635,-377.594,0,0
173223.65,211.101,-372.596,0,0
173483.975,213.82,-367.6,0,0
173744.3,216.721,-362.532,0,0
174004.625,219.934,-357.45,0,0
174264.95,223.511,-352.375,0,0
174525.275,227.336,-347.313,0,0
174785.6,231.584,-342.372,0,0
175045.925,236.329,-337.621,0,0
175306.25,241.395,-333.244,0,0
175566.575,246.841,-329.212,0,0
175826.9,252.492,-325.78,0,0
176087.225,258.109,-322.844,0,0
176347.55,263.722,-320.473,0,0
176607.875,268.909,-318.549,0,0
176868.2,273.645,-316.6,0,0
177128.525,278.279,-314.257,0,0
177388.85,283.433,-311.828,0,0
177649.175,289.169,-309.788,0,0
177909.5,295.236,-308.665,0,0
178169.825,300.83,-308.552,0,0
178430.15,305.643,-308.818,0,0
178690.475,309.929,-309.075,0,0
178950.8,313.879,-309.646,0,0
179211.125,317.044,-310.271,0,0
179471.45,319.708,-310.844,0,0
179731.775,322.309,-310.066,0,0
179992.1,323.94,-310.445,0,0
180252.425,324.82,-309.912,0,0
180512.75,325.643,-308.496,0,0
180773.075,326.664,-306.621,0,0
181033.4,327.384,-304.381,0,0
181293.725,328.027,-301.153,0,0
181554.05,329.16,-296.934,0,0
181814.375,331.161,-292.138,0,0
182074.7,334.105,-287.058,0,0
182335.025,338.063,-282.308,0,0
182595.35,342.132,-278.258,0,0
182855.675,345.97,-274.311,0,0
183116.0,349.854,-269.988,0,0
183376.325,353.989,-265.285,0,0
183636.65,358.961,-260.334,0,0
183896.975,364.604,-255.774,0,0
184157.3,370.256,-251.424,0,0
184417.625,376.111,-247.003,0,0
184677.95,382.48,-242.327,0,0
184938.275,389.704,-237.861,0,0
185198.6,397.52,-234.116,0,0
185458.925,405.327,-230.858,0,0
185719.25,413.449,-227.833,0,0
185979.575,421.731,-225.335,0,0
186239.9,429.999,-223.214,0,0
186500,438.41,-221.564,0,0
186761,446.557,-220.494,0,0
187021,454.101,-219.42,0,0
187281,461.647,-217.58,0,0
187542,469.868,-215.698,0,0
187802,478.727,-214.172,0,0
188062,487.911,-213.296,0,0
188322,496.898,-212.969,0,0
188583,505.873,-212.731,0,0
188843,514.843,-213.109,0,0
189103,523.32,-213.72,0,0
189364,531.509,-214.179,0,0
189624,539.484,-214.282,0,0
189884,547.37,-213.937,0,0
190145,556.099,-213.03,0,0
190405,565.768,-212.331,0,0
190665,575.69,-212.258,0,0
190926,585.563,-212.236,0,0
191186,595.949,-211.94,0,0
191446,607.303,-211.729,0,0
191707,619.426,-212.227,0,0
191967,631.948,-213.392,0,0
192227,644.961,-215.136,0,0
192488,658.391,-217.54,0,0
192748,672.254,-220.71,0,0
193008,686.524,-224.701,0,0
193269,701.36,-229.646,0,0
193529,716.503,-236.096,0,0
193789,731.34,-244.069,0,0
194050,745.587,-253.37,0,0
194310,758.929,-263.699,0,0
194570,771.436,-274.594,0,0
194831,783.397,-286.011,0,0
195091,794.83,-298.111,0,0
195351,805.5,-310.883,0,0
195612,815.214,-324.03,0,0
195872,824.254,-337.359,0,0
196132,832.734,-351.006,0,0
196393,840.511,-364.842,0,0
196653,847.558,-378.69,0,0
196913,854.166,-392.471,0,0
197174,860.533,-406.194,0,0
197434,866.826,-420.107,0,0
197694,873.086,-434.259,0,0
197955,879.272,-449.107,0,0
198215,885.348,-464.871,0,0
198475,890.587,-481.947,0,0
198735,894.252,-499.844,0,0
198996,896.099,-517.761,0,0
199256,896.89,-535.053,0,0
199516,896.87,-551.619,0,0
199777,896.754,-567.771,0,0
200037,896.476,-583.856,0,0
200297,896.248,-600.586,0,0
200558,895.112,-618.109,0,0
200818,892.69,-635.967,0,0
201078,889.188,-653.716,0,0
201339,884.426,-671.619,0,0
201599,878.145,-689.112,0,0
201859,870.379,-705.934,0,0
202120,861.786,-721.371,0,0
202380.025,853.113,-735.873,0,0
202640.35,843.948,-750.048,0,0
202900.675,834.139,-764.047,0,0
203161.0,822.98,-777.15,0,0
203421.325,810.961,-789.072,0,0
203681.65,798.845,-799.264,0,0
203941.975,787.093,-808.161,0,0
204202.3,775.954,-816.644,0,0
204462.625,764.849,-824.753,0,0
204722.95,753.854,-832.326,0,0
204983.275,743.026,-839.898,0,0
205243.6,731.878,-847.485,0,0
205503.925,719.628,-854.959,0,0
205764.25,706.359,-860.886,0,0
206024.575,693.313,-865.02,0,0
206284.9,680.984,-868.094,0,0
206545.225,669.287,-870.658,0,0
206805.55,657.891,-872.54,0,0
207065.875,647.109,-873.711,0,0
207326.2,636.879,-874.515,0,0
207586.525,627.263,-874.869,0,0
207846.85,618.576,-874.726,0,0
208107.175,610.764,-874.745,0,0
208367.5,603.577,-875.179,0,0
208627.825,596.562,-875.954,0,0
208888.15,589.788,-876.932,0,0
209148.475,583.325,-878.218,0,0
209408.8,576.848,-880.147,0,0
209669.125,569.982,-882.634,0,0
209929.45,562.263,-885.16,0,0
210189.775,553.809,-887.281,0,0
210450.1,545.177,-888.777,0,0
210710.425,536.484,-889.774,0,0
210970.75,527.81,-890.489,0,0
211231.075,518.651,-890.77,0,0
211491.4,509.439,-890.249,0,0
211751.725,500.408,-888.932,0,0
212012.05,491.997,-886.735,0,0
212272.375,484.479,-884.2,0,0
212532.7,477.501,-881.793,0,0
212793.025,470.849,-879.55,0,0
213053.35,464.24,-877.194,0,0
213313.675,457.849,-874.837,0,0
213574.0,451.552,-872.27,0,0
213834.325,445.544,-869.354,0,0
214094.65,439.891,-866.313,0,0
214354.975,434.588,-863.253,0,0
214615.3,429.56,-860.112,0,0
214875.625,424.852,-856.981,0,0
215135.95,420.548,-854.072,0,0
215396.275,416.194,-851.23,0,0
215656.6,411.85,-848.293,0,0
215916.925,407.739,-845.204,0,0
216177.25,403.924,-842.019,0,0
216437.575,400.364,-838.876,0,0
216697.9,396.972,-835.842,0,0
216958.225,393.728,-832.795,0,0
217218.55,390.648,-829.682,0,0
217478.875,387.835,-826.514,0,0
217739.2,385.305,-823.449,0,0
217999.525,382.944,-820.527,0,0
218259.85,380.787,-817.643,0,0
218520,378.62,-814.87,0,0
218780,376.716,-812.087,0,0
219041,375.041,-809.396,0,0
219301,373.478,-806.781,0,0
219561,372.098,-804.342,0,0
219822,370.905,-801.958,0,0
220082,369.802,-799.804,0,0
220342,368.73,-797.788,0,0
220603,367.63,-795.91,0,0
220863,366.546,-794.01,0,0
221123,365.615,-792.055,0,0
221384,364.899,-790.143,0,0
221644,364.267,-788.413,0,0
221904,363.884,-786.699,0,0
222165,363.615,-785.207,0,0
222425,363.582,-783.885,0,0
222685,363.651,-783.033,0,0
222946,363.629,-782.306,0,0
223206,363.628,-781.931,0,0
223466,363.455,-781.832,0,0
223727,363.046,-781.852,0,0
223987,362.428,-781.914,0,0
224247,361.818,-781.954,0,0
224508,361.254,-782.101,0,0
224768,360.452,-782.419,0,0
225028,359.393,-782.787,0,0
225289,358.147,-782.93,0,0
225549,356.934,-782.894,0,0
225809,355.93,-782.671,0,0
226070,355.058,-782.534,0,0
226330,354.244,-782.442,0,0
226590,353.614,-782.472,0,0
226851,353.073,-782.486,0,0
227111,352.642,-782.741,0,0
227371,352.339,-783.214,0,0
227632,351.99,-784.007,0,0
227892,351.654,-784.972,0,0
228152,351.18,-786.154,0,0
228413,350.636,-787.614,0,0
228673,349.9,-789.399,0,0
228933,348.914,-791.366,0,0
229193,347.618,-793.489,0,0
229454,345.857,-795.709,0,0
229714,343.908,-797.95,0,0
229974,341.589,-800.128,0,0
230235,338.871,-802.115,0,0
230495,336.037,-804.009,0,0
230755,332.96,-805.749,0,0
231016,329.768,-807.223,0,0
231276,326.322,-808.6,0,0
231536,322.819,-809.68,0,0
231797,319.312,-810.565,0,0
232057,315.809,-811.34,0,0
232317,312.272,-812.079,0,0
232578,308.595,-812.656,0,0
232838,304.878,-813.021,0,0
233098,301.188,-813.22,0,0
233359,297.475,-813.308,0,0
233619,293.795,-813.242,0,0
233879,290.105,-813.061,0,0
234140,286.53,-812.748,0,0
234400,282.964,-812.343,0,0
234660.3,279.449,-811.895,0,0
234920.625,275.92,-811.325,0,0
235180.95,272.405,-810.633,0,0
235441.275,269.014,-810.025,0,0
235701.6,265.528,-809.251,0,0
235961.925,262.145,-808.406,0,0
236222.25,258.765,-807.519,0,0
236482.575,255.416,-806.558,0,0
236742.9,252.057,-805.603,0,0
237003.225,248.674,-804.561,0,0
237263.55,245.267,-803.394,0,0
237523.875,241.846,-802.07,0,0
237784.2,238.538,-800.695,0,0
238044.525,235.282,-799.183,0,0
238304.85,232.063,-797.563,0,0
238565.175,228.946,-795.916,0,0
238825.5,225.907,-794.239,0,0
239085.825,222.976,-792.383,0,0
239346.15,220.023,-790.565,0,0
239606.475,217.171,-788.636,0,0
239866.8,214.329,-786.621,0,0
240127.125,211.619,-784.625,0,0
240387.45,209.166,-782.508,0,0
240647.775,206.722,-780.418,0,0
240908.1,204.342,-778.338,0,0
241168.425,202.082,-776.271,0,0
241428.75,199.903,-774.263,0,0
241689.075,197.709,-772.274,0,0
241949.4,195.53,-770.293,0,0
242209.725,193.349,-768.181,0,0
242470.05,191.33,-766.034,0,0
242730.375,189.468,-763.892,0,0
242990.7,187.75,-761.862,0,0
243251.025,186.105,-759.956,0,0
243511.35,184.432,-758.139,0,0
243771.675,182.726,-756.421,0,0
244032.0,180.969,-754.729,0,0
244292.325,179.116,-753.089,0,0
244552.65,177.297,-751.322,0,0
244812.975,175.554,-749.661,0,0
245073.3,173.775,-748.007,0,0
245333.625,171.924,-746.377,0,0
245593.95,170.097,-744.796,0,0
245854.275,168.2,-743.189,0,0
246114.6,166.15,-741.705,0,0
246374.925,164.147,-740.22,0,0
246635.25,161.827,-738.636,0,0
246895.575,159.41,-736.939,0,0
247155.9,156.9,-734.99,0,0
247416.225,154.409,-732.964,0,0
247676.55,151.903,-730.672,0,0
247936.875,149.534,-728.153,0,0
248197.2,147.285,-725.565,0,0
248457.525,145.143,-722.932,0,0
248717.85,143.09,-720.217,0,0
248978.175,141.087,-717.449,0,0
249238.5,139.178,-714.644,0,0
249498.825,137.282,-711.69,0,0
249759.15,135.617,-708.694,0,0
250019.475,134,-705.696,0,0
250279.8,132.45,-702.611,0,0
250540,130.932,-699.477,0,0
250800,129.541,-696.298,0,0
251061,128.192,-693.014,0,0
251321,127.052,-689.642,0,0
251581,126.049,-686.27,0,0
251842,125.195,-682.921,0,0
252102,124.523,-679.581,0,0
252362,123.974,-676.264,0,0
252623,123.54,-673.011,0,0
252883,123.202,-669.852,0,0
253143,122.911,-666.766,0,0
253404,122.665,-663.715,0,0
253664,122.438,-660.694,0,0
253924,122.257,-657.642,0,0
254185,122.116,-654.596,0,0
254445,122.07,-651.602,0,0
254705,122.087,-648.5,0,0
254966,122.181,-645.505,0,0
255226,122.327,-642.425,0,0
255486,122.556,-639.313,0,0
255747,122.977,-636.233,0,0
256007,123.531,-633.069,0,0
256267,124.279,-630.002,0,0
256528,125.187,-627.075,0,0
256788,126.172,-624.262,0,0
257048,127.242,-621.563,0,0
257309,128.355,-618.994,0,0
257569,129.503,-616.527,0,0
257829,130.675,-614.106,0,0
258090,131.867,-611.783,0,0
258350,133.147,-609.49,0,0
258610,134.424,-607.274,0,0
258871,135.753,-605.095,0,0
259131,137.123,-603.031,0,0
259391,138.562,-600.913,0,0
259651,140.083,-598.876,0,0
259912,141.736,-596.95,0,0
260172,143.443,-595.096,0,0
260432,145.216,-593.403,0,0
260693,147.025,-591.816,0,0
260953,148.907,-590.363,0,0
261213,150.791,-589.037,0,0
261474,152.708,-587.849,0,0
261734,154.627,-586.802,0,0
261994,156.533,-585.894,0,0
262255,158.391,-585.156,0,0
262515,160.191,-584.472,0,0
262775,162.017,-583.904,0,0
263036,163.783,-583.43,0,0
263296,165.507,-583.074,0,0
263556,167.207,-582.815,0,0
263817,168.861,-582.655,0,0
264077,170.464,-582.642,0,0
264337,171.995,-582.725,0,0
264598,173.439,-583.001,0,0
264858,174.741,-583.303,0,0
265118,175.879,-583.756,0,0
265379,176.895,-584.229,0,0
265639,177.717,-584.667,0,0
265899,178.379,-585.12,0,0
266160,178.895,-585.514,0,0
266420,179.348,-585.72,0,0
266680.25,179.8,-585.878,0,0
266940.575,180.299,-586.045,0,0
267200.9,180.749,-586.167,0,0
267461.225,181.178,-586.322,0,0
267721.55,181.566,-586.532,0,0
267981.875,181.884,-586.73,0,0
268242.2,182.1,-586.894,0,0
268502.525,182.214,-587.009,0,0
268762.85,182.284,-587.083,0,0
269023.175,182.223,-587.06,0,0
269283.5,182.143,-586.843,0,0
269543.825,182.125,-586.471,0,0
269804.15,182.083,-586.028,0,0
270064.475,182.217,-585.379,0,0
270324.8,182.463,-584.754,0,0
270585.125,182.738,-583.989,0,0
270845.45,183.226,-583.17,0,0
271105.775,183.863,-582.297,0,0
271366.1,184.716,-581.452,0,0
271626.425,185.748,-580.68,0,0
271886.75,186.933,-580.037,0,0
272147.075,188.226,-579.524,0,0
272407.4,189.548,-579.055,0,0
272667.725,191.013,-578.633,0,0
272928.05,192.649,-578.273,0,0
273188.375,194.448,-578.113,0,0
273448.7,196.404,-578.136,0,0
273709.025,198.51,-578.361,0,0
273969.35,200.694,-578.859,0,0
274229.675,203.02,-579.573,0,0
274490.0,205.404,-580.7,0,0
274750.325,207.845,-582.195,0,0
275010.65,210.183,-584.112,0,0
275270.975,212.422,-586.531,0,0
275531.3,214.386,-589.352,0,0
275791.625,215.995,-592.625,0,0
276051.95,217.162,-596.242,0,0
276312.275,217.779,-600.093,0,0
276572.6,217.761,-604.119,0,0
276832.925,217.094,-608.083,0,0
277093.25,215.858,-611.795,0,0
277353.575,214.215,-615.215,0,0
277613.9,212.25,-618.281,0,0
277874.225,210.058,-621.033,0,0
278134.55,207.72,-623.496,0,0
278394.875,205.281,-625.622,0,0
278655.2,202.81,-627.512,0,0
278915.525,200.323,-629.193,0,0
279175.85,197.841,-630.74,0,0
279436.175,195.22,-632.147,0,0
279696.5,192.608,-633.398,0,0
279956.825,189.898,-634.542,0,0
280217.15,187.165,-635.444,0,0
280477.475,184.367,-636.175,0,0
280737.8,181.594,-636.671,0,0
280998.125,178.929,-637.02,0,0
281258.45,176.34,-637.305,0,0
281518.775,173.783,-637.559,0,0
281779.1,171.191,-637.811,0,0
282039.425,168.498,-638.012,0,0
282299.75,165.686,-638.109,0,0
282560,162.739,-638.024,0,0
282820,159.702,-637.704,0,0
283081,156.63,-637.042,0,0
283341,153.685,-636.087,0,0
283601,150.931,-634.792,0,0
283862,148.529,-633.342,0,0
284122,146.479,-631.905,0,0
284382,144.651,-630.654,0,0
284643,142.928,-629.675,0,0
284903,141.039,-628.934,0,0
285163,138.88,-628.263,0,0
285424,136.44,-627.439,0,0
285684,133.789,-626.389,0,0
285944,131.035,-625.053,0,0
286205,128.258,-623.396,0,0
286465,125.512,-621.408,0,0
286725,122.826,-619.072,0,0
286986,120.369,-616.357,0,0
287246,118.203,-613.361,0,0
287506,116.353,-610.189,0,0
287767,114.812,-606.896,0,0
288027,113.552,-603.482,0,0
288287,112.588,-600.013,0,0
288548,111.88,-596.437,0,0
288808,111.452,-592.772,0,0
289068,111.429,-588.962,0,0
289329,111.887,-585.099,0,0
289589,112.847,-581.337,0,0
289849,114.357,-577.786,0,0
290109,116.3,-574.595,0,0
290370,118.55,-571.774,0,0
290630,121.065,-569.35,0,0
290890,123.819,-567.354,0,0
291151,126.748,-565.825,0,0
291411,129.791,-564.786,0,0
291671,132.844,-564.289,0,0
291932,135.799,-564.296,0,0
292192,138.621,-564.788,0,0
292452,141.25,-565.801,0,0
292713,143.482,-567.331,0,0
292973,145.194,-569.262,0,0
293233,146.267,-571.397,0,0
293494,146.704,-573.509,0,0
293754,146.564,-575.464,0,0
294014,145.978,-577.039,0,0
294275,145.149,-578.176,0,0
294535,144.184,-578.853,0,0
294795,143.305,-579.16,0,0
295056,142.647,-579.1,0,0
295316,142.322,-578.857,0,0
295576,142.4,-578.539,0,0
295837,142.841,-578.378,0,0
296097,143.643,-578.512,0,0
296357,144.631,-579.149,0,0
296618,145.564,-580.422,0,0
296878,146.133,-582.25,0,0
297138,146.094,-584.381,0,0
297399,145.447,-586.552,0,0
297659,144.251,-588.55,0,0
297919,142.674,-590.226,0,0
298180,140.862,-591.555,0,0
298440,138.948,-592.536,0,0
298700.2,136.998,-593.26,0,0
298960.525,135.062,-593.715,0,0
299220.85,133.215,-593.992,0,0
299481.175,131.436,-594.152,0,0
299741.5,129.676,-594.255,0,0
300001.825,127.926,-594.286,0,0
300262.15,126.089,-594.202,0,0
300522.475,124.265,-593.952,0,0
300782.8,122.459,-593.537,0,0
301043.125,120.724,-592.921,0,0
301303.45,119.123,-592.158,0,0
301563.775,117.727,-591.221,0,0
301824.1,116.567,-590.276,0,0
302084.425,115.64,-589.37,0,0
302344.75,114.855,-588.55,0,0
302605.075,114.244,-587.881,0,0
302865.4,113.674,-587.396,0,0
303125.725,113.123,-587.098,0,0
303386.05,112.51,-586.94,0,0
303646.375,111.822,-586.926,0,0
303906.7,110.995,-587.016,0,0
304167.025,110.032,-587.187,0,0
304427.35,108.906,-587.359,0,0
304687.675,107.601,-587.535,0,0
304948.0,106.15,-587.638,0,0
305208.325,104.543,-587.624,0,0
305468.65,102.859,-587.468,0,0
305728.975,101.107,-587.173,0,0
305989.3,99.3437,-586.75,0,0
306249.625,97.5747,-586.203,0,0
306509.95,95.7968,-585.52,0,0
306770.275,94.0564,-584.732,0,0
307030.6,92.3469,-583.813,0,0
307290.925,90.7243,-582.809,0,0
307551.25,89.1474,-581.709,0,0
307811.575,87.6654,-580.536,0,0
308071.9,86.2429,-579.329,0,0
308332.225,84.9165,-578.078,0,0
308592.55,83.638,-576.794,0,0
308852.875,82.4475,-575.492,0,0
309113.2,81.3335,-574.162,0,0
309373.525,80.2964,-572.849,0,0
309633.85,79.3169,-571.558,0,0
309894.175,78.396,-570.296,0,0
310154.5,77.4602,-569.054,0,0
310414.825,76.5575,-567.829,0,0
310675.15,75.6599,-566.594,0,0
310935.475,74.7593,-565.349,0,0
311195.8,73.8974,-564.083,0,0
311456.125,73.0488,-562.792,0,0
311716.45,72.2192,-561.5,0,0
311976.775,71.4268,-560.19,0,0
312237.1,70.6854,-558.867,0,0
312497.425,69.9595,-557.515,0,0
312757.75,69.3076,-556.149,0,0
313018.075,68.6892,-554.805,0,0
313278.4,68.1368,-553.471,0,0
313538.725,67.6092,-552.175,0,0
313799.05,67.1032,-550.896,0,0
314059.375,66.6402,-549.651,0,0
314319.7,66.1662,-548.43,0,0
314580,65.5997,-547.243,0,0
314840,65.1871,-546.025,0,0
315101,64.6853,-544.858,0,0
315361,64.2357,-543.622,0,0
315621,63.749,-542.38,0,0
315882,63.382,-541.166,0,0
316142,62.928,-539.928,0,0
316402,62.5206,-538.642,0,0
316663,62.1229,-537.341,0,0
316923,61.8512,-536.141,0,0
317183,61.5341,-534.87,0,0
317444,61.2803,-533.651,0,0
317704,61.0503,-532.357,0,0
317964,60.8385,-531.16,0,0
318225,60.6963,-530.073,0,0
318485,60.4753,-528.913,0,0
318745,60.3255,-527.791,0,0
319006,60.2042,-526.72,0,0
319266,60.0428,-525.631,0,0
319526,59.8882,-524.581,0,0
319787,59.6601,-523.559,0,0
320047,59.4858,-522.544,0,0
320307,59.286,-521.499,0,0
320567,59.068,-520.464,0,0
320828,58.9083,-519.474,0,0
321088,58.6662,-518.427,0,0
321348,58.4783,-517.357,0,0
321609,58.2621,-516.352,0,0
321869,58.0652,-515.311,0,0
322129,57.8296,-514.255,0,0
322390,57.668,-513.172,0,0
322650,57.4506,-512.031,0,0
322910,57.3178,-510.955,0,0
323171,57.068,-509.882,0,0
323431,56.9092,-508.752,0,0
323691,56.7315,-507.563,0,0
323952,56.5685,-506.319,0,0
324212,56.5366,-504.999,0,0
324472,56.467,-503.71,0,0
324733,56.4762,-502.372,0,0
324993,56.587,-501.059,0,0
325253,56.8047,-499.673,0,0
325514,57.0817,-498.345,0,0
325774,57.5597,-497.083,0,0
326034,58.0411,-495.858,0,0
326295,58.6538,-494.694,0,0
326555,59.2961,-493.712,0,0
326815,60.0071,-492.834,0,0
327076,60.6684,-492.073,0,0
327336,61.3471,-491.392,0,0
327596,61.9426,-490.913,0,0
327857,62.4592,-490.412,0,0
328117,62.9152,-489.987,0,0
328377,63.3198,-489.586,0,0
328638,63.7007,-489.154,0,0
328898,64.0392,-488.748,0,0
329158,64.2999,-488.418,0,0
329419,64.625,-488.073,0,0
329679,64.9354,-487.743,0,0
329939,65.1749,-487.426,0,0
330200,65.437,-487.107,0,0
330460,65.6232,-486.919,0,0
330720.15,65.8668,-486.725,0,0
330980.475,65.9457,-486.578,0,0
331240.8,66.0816,-486.379,0,0
331501.125,66.1054,-486.343,0,0
331761.45,66.0366,-486.259,0,0
332021.775,65.9796,-486.169,0,0
332282.1,65.8304,-486.127,0,0
332542.425,65.5921,-486.07,0,0
332802.75,65.2662,-486.021,0,0
333063.075,64.8446,-485.852,0,0
333323.4,64.3776,-485.668,0,0
333583.725,63.8893,-485.366,0,0
333844.05,63.3751,-485.063,0,0
334104.375,62.8661,-484.55,0,0
334364.7,62.3296,-484.072,0,0
334625.025,61.7781,-483.553,0,0
334885.35,61.2759,-482.904,0,0
335145.675,60.8357,-482.359,0,0
335406.0,60.4101,-481.707,0,0
335666.325,60.0654,-481.082,0,0
335926.65,59.6297,-480.401,0,0
336186.975,59.2591,-479.684,0,0
336447.3,58.8318,-478.981,0,0
336707.625,58.5034,-478.262,0,0
336967.95,58.1108,-477.515,0,0
337228.275,57.7528,-476.792,0,0
337488.6,57.4542,-475.999,0,0
337748.925,57.0915,-475.194,0,0
338009.25,56.882,-474.394,0,0
338269.575,56.6201,-473.59,0,0
338529.9,56.3522,-472.761,0,0
338790.225,56.0962,-472,0,0
339050.55,55.8585,-471.199,0,0
339310.875,55.6388,-470.288,0,0
339571.2,55.4523,-469.44,0,0
339831.525,55.288,-468.576,0,0
340091.85,55.1082,-467.691,0,0
340352.175,55.0298,-466.821,0,0
340612.5,54.8799,-465.946,0,0
340872.825,54.7823,-465.027,0,0
341133.15,54.6821,-464.218,0,0
341393.475,54.6409,-463.322,0,0
341653.8,54.642,-462.483,0,0
341914.125,54.5986,-461.619,0,0
342174.45,54.6141,-460.75,0,0
342434.775,54.6136,-459.967,0,0
342695.1,54.5889,-459.076,0,0
342955.425,54.6319,-458.198,0,0
343215.75,54.6621,-457.366,0,0
343476.075,54.6286,-456.607,0,0
343736.4,54.8039,-455.749,0,0
343996.725,54.7922,-454.933,0,0
344257.05,54.9494,-454.064,0,0
344517.375,55.0758,-453.22,0,0
344777.7,55.1849,-452.371,0,0
345038.025,55.3088,-451.587,0,0
345298.35,55.5616,-450.765,0,0
345558.675,55.7136,-450.012,0,0
345819.0,55.9288,-449.187,0,0
346079.325,56.1574,-448.439,0,0
346339.65,56.3825,-447.692,0,0
346599.975,56.64,-447.039,0,0
346860,56.9127,-446.253,0,0
347121,57.1226,-445.562,0,0
347381,57.402,-444.945,0,0
347641,57.6973,-444.207,0,0
347902,57.9628,-443.647,0,0
348162,58.2052,-442.965,0,0
348422,58.5359,-442.352,0,0
348683,58.7916,-441.712,0,0
348943,59.0943,-441.128,0,0
349203,59.4278,-440.539,0,0
349464,59.7497,-439.976,0,0
349724,60.1011,-439.417,0,0
349984,60.3844,-438.925,0,0
350245,60.8005,-438.445,0,0
350505,61.0863,-438.011,0,0
350765,61.3434,-437.544,0,0
351025,61.7415,-437.145,0,0
351286,61.9982,-436.712,0,0
351546,62.3019,-436.304,0,0
351806,62.5726,-435.985,0,0
352067,62.8261,-435.636,0,0
352327,63.0671,-435.231,0,0
352587,63.2243,-434.862,0,0
352848,63.4379,-434.508,0,0
353108,63.6113,-434.134,0,0
353368,63.801,-433.758,0,0
353629,64.0285,-433.385,0,0
353889,64.2657,-432.941,0,0
354149,64.4142,-432.562,0,0
354410,64.6617,-432.206,0,0
354670,64.8719,-431.804,0,0
354930,65.0531,-431.405,0,0
355191,65.3051,-431.053,0,0
355451,65.5333,-430.726,0,0
355711,65.7518,-430.348,0,0
355972,66.0187,-430.04,0,0
356232,66.2481,-429.656,0,0
356492,66.4835,-429.333,0,0
356753,66.7342,-428.974,0,0
357013,66.9976,-428.63,0,0
357273,67.3731,-428.366,0,0
357534,67.6481,-428.08,0,0
357794,67.9693,-427.797,0,0
358054,68.3369,-427.574,0,0
358315,68.6322,-427.468,0,0
358575,68.96,-427.217,0,0
358835,69.2782,-427.135,0,0
359096,69.6181,-427.072,0,0
359356,69.889,-427.042,0,0
359616,70.1507,-426.99,0,0
359877,70.3599,-427.108,0,0
360137,70.5168,-427.116,0,0
360397,70.6734,-427.187,0,0
360658,70.7837,-427.283,0,0
360918,70.7934,-427.329,0,0
361178,70.8211,-427.343,0,0
361438,70.8658,-427.431,0,0
361699,70.7979,-427.484,0,0
361959,70.7659,-427.495,0,0
362219,70.7397,-427.544,0,0
362480,70.5872,-427.558,0,0
362740.1,70.5,-427.614,0,0
363000.425,70.3229,-427.636,0,0
363260.75,70.104,-427.605,0,0
363521.075,69.9213,-427.567,0,0
363781.4,69.6867,-427.565,0,0
364041.725,69.4468,-427.481,0,0
364302.05,69.2289,-427.393,0,0
364562.375,68.9753,-427.295,0,0
364822.7,68.7535,-427.167,0,0
365083.025,68.4758,-427.037,0,0
365343.35,68.2794,-426.897,0,0
365603.675,67.9477,-426.711,0,0
365864.0,67.6208,-426.56,0,0
366124.325,67.3315,-426.394,0,0
366384.65,66.9947,-426.076,0,0
366644.975,66.6838,-425.782,0,0
366905.3,66.4108,-425.459,0,0
367165.625,66.1437,-425.07,0,0
367425.95,65.9457,-424.679,0,0
367686.275,65.7965,-424.353,0,0
367946.6,65.6491,-423.935,0,0
368206.925,65.5301,-423.563,0,0
368467.25,65.4972,-423.24,0,0
368727.575,65.4517,-422.929,0,0
368987.9,65.3689,-422.666,0,0
369248.225,65.3418,-422.39,0,0
369508.55,65.3069,-422.225,0,0
369768.875,65.2741,-422.031,0,0
370029.2,65.184,-421.861,0,0
370289.525,65.0814,-421.737,0,0
370549.85,64.9438,-421.679,0,0
370810.175,64.7338,-421.54,0,0
371070.5,64.5242,-421.439,0,0
371330.825,64.2686,-421.29,0,0
371591.15,63.9434,-421.137,0,0
371851.475,63.6594,-420.914,0,0
372111.8,63.395,-420.685,0,0
372372.125,63.1008,-420.432,0,0
372632.45,62.8557,-420.204,0,0
372892.775,62.616,-419.925,0,0
373153.1,62.3728,-419.644,0,0
373413.425,62.1204,-419.328,0,0
373673.75,61.9097,-419.092,0,0
373934.075,61.7232,-418.821,0,0
374194.4,61.4651,-418.599,0,0
374454.725,61.2433,-418.339,0,0
374715.05,61.0157,-418.135,0,0
374975.375,60.7044,-417.978,0,0
375235.7,60.4421,-417.744,0,0
375496.025,60.1417,-417.51,0,0
375756.35,59.7899,-417.274,0,0
376016.675,59.446,-416.974,0,0
376277.0,59.1099,-416.668,0,0
376537.325,58.7549,-416.351,0,0
376797.65,58.4799,-416.046,0,0
377057.975,58.1521,-415.72,0,0
377318.3,57.8868,-415.389,0,0
377578.625,57.6306,-415.091,0,0
377838.95,57.3311,-414.855,0,0
378099.275,57.0666,-414.593,0,0
378359.6,56.6997,-414.398,0,0
378619.925,56.3316,-414.201,0,0
378880,55.876,-413.961,0,0
379141,55.3223,-413.717,0,0
379401,54.7579,-413.405,0,0
379661,54.073,-412.97,0,0
379922,53.434,-412.462,0,0
380182,52.8771,-411.728,0,0
380442,52.4214,-410.98,0,0
380703,51.9768,-410.148,0,0
380963,51.7729,-409.341,0,0
381223,51.6529,-408.543,0,0
381483,51.6732,-407.839,0,0
381744,51.7636,-407.285,0,0
382004,51.7886,-406.856,0,0
382264,51.7625,-406.502,0,0
382525,51.7285,-406.203,0,0
382785,51.5575,-405.948,0,0
383045,51.2908,-405.673,0,0
383306,51.0258,-405.391,0,0
383566,50.7389,-405.077,0,0
383826,50.3894,-404.735,0,0
384087,50.0115,-404.32,0,0
384347,49.6008,-403.945,0,0
384607,49.2573,-403.492,0,0
384868,48.8396,-403.022,0,0
385128,48.4593,-402.537,0,0
385388,48.0719,-402.005,0,0
385649,47.6731,-401.44,0,0
385909,47.3279,-400.883,0,0
386169,46.9501,-400.308,0,0
386430,46.6046,-399.635,0,0
386690,46.2959,-398.969,0,0
386950,45.9509,-398.344,0,0
387211,45.7195,-397.673,0,0
387471,45.4462,-396.988,0,0
387731,45.2056,-396.248,0,0
387992,45.0201,-395.576,0,0
388252,44.8163,-394.886,0,0
388512,44.6689,-394.166,0,0
388773,44.4834,-393.429,0,0
389033,44.3585,-392.719,0,0
389293,44.2763,-392.037,0,0
389554,44.2582,-391.298,0,0
389814,44.2389,-390.635,0,0
390074,44.2427,-389.999,0,0
390335,44.3143,-389.374,0,0
390595,44.3548,-388.776,0,0
390855,44.4012,-388.191,0,0
391116,44.4955,-387.718,0,0
391376,44.5599,-387.292,0,0
391636,44.578,-386.887,0,0
391896,44.514,-386.551,0,0
392157,44.4631,-386.195,0,0
392417,44.2856,-385.851,0,0
392677,44.0657,-385.521,0,0
392938,43.8184,-385.133,0,0
393198,43.5188,-384.683,0,0
393458,43.2301,-384.223,0,0
393719,42.9068,-383.721,0,0
393979,42.5796,-383.14,0,0
394239,42.2586,-382.553,0,0
394500,41.9192,-381.919,0,0
394760.05,41.6545,-381.225,0,0
395020.375,41.3664,-380.539,0,0
395280.7,41.1081,-379.772,0,0
395541.025,40.8742,-378.996,0,0
395801.35,40.6981,-378.195,0,0
396061.675,40.543,-377.376,0,0
396322.0,40.4384,-376.605,0,0
396582.325,40.3703,-375.766,0,0
396842.65,40.3007,-374.975,0,0
397102.975,40.2922,-374.179,0,0
397363.3,40.276,-373.392,0,0
397623.625,40.3427,-372.571,0,0
397883.95,40.3587,-371.844,0,0
398144.275,40.3638,-371.105,0,0
398404.6,40.518,-370.319,0,0
398664.925,40.5856,-369.602,0,0
398925.25,40.6982,-368.907,0,0
399185.575,40.8184,-368.152,0,0
399445.9,40.9022,-367.486,0,0
399706.225,41.0129,-366.783,0,0
399966.55,41.189,-366.179,0,0
400006.6,41.2068,-366.041,0,0