File: Accelerated corrosion test data/2025-10-11_18-00-03/sample_6.csv
Frequency (Hz),Impedance (ohms),Phase (Radians),Temperature (C),Humidity (%)
10000.0,4239.98,-6445.27,0,0
10260.325,4102.91,-6373.12,0,0
10520.65,3972.54,-6299.63,0,0
10780.975,3847.11,-6227.98,0,0
11041.3,3727.81,-6154.98,0,0
11301.625,3614.37,-6083.47,0,0
11561.95,3505.23,-6012.57,0,0
11822.275,3400.62,-5942.2,0,0
12082.6,3300.29,-5872.4,0,0
12342.925,3204.37,-5803.22,0,0
12603.25,3114.94,-5733.31,0,0
12863.575,3026.88,-5666.43,0,0
13123.9,2944.74,-5601.85,0,0
13384.225,2863.07,-5538.43,0,0
13644.55,2784.92,-5474.5,0,0
13904.875,2709.61,-5410.94,0,0
14165.2,2637.68,-5348.34,0,0
14425.525,2568.92,-5286.67,0,0
14685.8,2502.03,-5226.25,0,0
14946.175,2439.19,-5166.46,0,0
15206.5,2376.95,-5108.6,0,0
15466.825,2318.83,-5050.21,0,0
15727.15,2261.73,-4994.41,0,0
15987.5,2206.82,-4938.88,0,0
16247.8,2153.7,-4884.38,0,0
16508.125,2102.8,-4830.47,0,0
16768.45,2053.63,-4777.6,0,0
17028.775,2007.31,-4725.21,0,0
17289.1,1961.01,-4675.05,0,0
17549.425,1916.36,-4625.52,0,0
17809.75,1873.43,-4575.76,0,0
18070.075,1832.08,-4527.03,0,0
18330.4,1792.29,-4480.12,0,0
18590.725,1753.29,-4432.71,0,0
18851.05,1717.27,-4387.07,0,0
19111.375,1681.64,-4341.21,0,0
19371.7,1647.09,-4298.15,0,0
19632.025,1612.75,-4255.59,0,0
19892.35,1579.43,-4212.05,0,0
20152.675,1547.72,-4170.23,0,0
20413.0,1516.96,-4129.8,0,0
20673.3,1486.93,-4089.57,0,0
20933.65,1457.1,-4049.05,0,0
21193.975,1429,-4009.16,0,0
21454.3,1402.35,-3970.5,0,0
21714.625,1375.82,-3933.29,0,0
21974.9,1350.56,-3895.15,0,0
22235.275,1324.87,-3858.81,0,0
22495.6,1300.67,-3820.85,0,0
22755.925,1277.59,-3784.49,0,0
23016.25,1257.39,-3749.97,0,0
23276.6,1236.82,-3716.81,0,0
23536.9,1214.32,-3686.19,0,0
23797.225,1192.78,-3652.96,0,0
24057.55,1171.9,-3621.15,0,0
24317.875,1151.62,-3588.73,0,0
24578.2,1131.5,-3557.51,0,0
24838.525,1112.28,-3526.33,0,0
25098.85,1093.87,-3495.33,0,0
25359.175,1076.01,-3465.42,0,0
25619.5,1058.41,-3435.49,0,0
25879.8,1040.93,-3406.31,0,0
26140.1,1024.4,-3377.5,0,0
26400.5,1008.5,-3349.05,0,0
26660.8,992.421,-3320.5,0,0
26921.1,977.324,-3293.05,0,0
27181.4,962.342,-3266.11,0,0
27441.8,947.792,-3238.74,0,0
27702.1,933.797,-3213.15,0,0
27962.4,920.142,-3187.73,0,0
28222.7,906.199,-3162.06,0,0
28483.1,892.488,-3137.26,0,0
28743.4,879.231,-3111.76,0,0
29003.7,866.301,-3087.16,0,0
29264,853.681,-3062.61,0,0
29524.4,841.792,-3037.94,0,0
29784.7,830.575,-3014.03,0,0
30045,819.787,-2990.79,0,0
30305.3,809.039,-2967.89,0,0
30565.7,798.434,-2945.95,0,0
30826,787.858,-2923.98,0,0
31086.3,777.183,-2902.08,0,0
31346.6,766.695,-2880.31,0,0
31607,757.058,-2858.56,0,0
31867.3,747.88,-2836.98,0,0
32127.6,738.785,-2816.14,0,0
32387.9,730.312,-2795.06,0,0
32648.3,722.392,-2774.53,0,0
32908.6,715.973,-2755.86,0,0
33168.9,707.765,-2737.79,0,0
33429.2,699.734,-2720.13,0,0
33689.6,691.33,-2702.37,0,0
33949.9,683.06,-2685.54,0,0
34210.2,673.411,-2668.18,0,0
34470.5,664.141,-2649.91,0,0
34730.9,655.974,-2631.38,0,0
34991.2,648.556,-2614.08,0,0
35251.5,640.949,-2596.71,0,0
35511.8,633.626,-2580.47,0,0
35772.2,625.439,-2564.17,0,0
36032.5,616.584,-2547.48,0,0
36292.8,608.662,-2530.42,0,0
36553.1,601.132,-2513.15,0,0
36813.5,593.959,-2496.2,0,0
37073.8,587.146,-2479.21,0,0
37334.1,580.702,-2463.2,0,0
37594.4,573.966,-2447.26,0,0
37854.8,567.487,-2430.74,0,0
38115.1,561.191,-2414.9,0,0
38375.4,555.321,-2398.89,0,0
38635.7,549.432,-2383.29,0,0
38896.1,543.677,-2367.82,0,0
39156.4,538.262,-2352.16,0,0
39416.7,533.643,-2336.81,0,0
39677,529.246,-2321.93,0,0
39937.4,524.565,-2307.59,0,0
40197.7,520.389,-2293.47,0,0
40458,516.074,-2279.96,0,0
40718.3,511.567,-2266.55,0,0
40978.7,507.238,-2253.6,0,0
41239,502.335,-2240.64,0,0
41499.3,498.061,-2227.29,0,0
41759.6,494.067,-2214.97,0,0
42020,489.409,-2203.22,0,0
42280.275,484.376,-2191.11,0,0
42540.6,478.958,-2179.36,0,0
42800.925,472.984,-2165.73,0,0
43061.25,468.645,-2152.44,0,0
43321.575,464.688,-2139.16,0,0
43581.9,461.097,-2126.46,0,0
43842.225,457.345,-2114.29,0,0
44102.55,454.215,-2101.74,0,0
44362.875,451.165,-2089.43,0,0
44623.2,448.384,-2078.15,0,0
44883.525,445.337,-2066.72,0,0
45143.85,442.507,-2055.55,0,0
45404.175,439.969,-2044.69,0,0
45664.5,437.199,-2034.11,0,0
45924.825,434.307,-2023.8,0,0
46185.15,431.944,-2013.83,0,0
46445.475,428.763,-2004.54,0,0
46705.8,425.454,-1995,0,0
46966.125,422.312,-1985.24,0,0
47226.45,419.127,-1975.93,0,0
47486.775,415.581,-1966.81,0,0
47747.1,412.154,-1957.72,0,0
48007.425,408.641,-1948.28,0,0
48267.75,405.298,-1939.58,0,0
48528.075,401.415,-1930.66,0,0
48788.4,397.777,-1921.37,0,0
49048.725,394.488,-1912.59,0,0
49309.05,390.899,-1904.23,0,0
49569.375,386.714,-1895.58,0,0
49829.7,382.844,-1886.92,0,0
50090.025,378.45,-1878.36,0,0
50350.35,374.219,-1869.17,0,0
50610.675,369.997,-1859.99,0,0
50871.0,366.032,-1850.44,0,0
51131.325,362.073,-1841.21,0,0
51391.65,358.505,-1831.62,0,0
51651.975,355.355,-1822.38,0,0
51912.3,351.996,-1813.37,0,0
52172.625,348.358,-1804.42,0,0
52432.95,344.961,-1794.88,0,0
52693.275,342.247,-1785.72,0,0
52953.6,339.66,-1776.89,0,0
53213.925,336.697,-1768.42,0,0
53474.25,333.599,-1759.88,0,0
53734.575,330.33,-1751.39,0,0
53994.9,326.877,-1742.49,0,0
54255.225,323.893,-1733.62,0,0
54515.55,321.162,-1724.63,0,0
54775.875,318.534,-1715.73,0,0
55036.2,316.052,-1707,0,0
55296.525,313.584,-1698.45,0,0
55556.85,310.946,-1689.77,0,0
55817.175,308.49,-1681.14,0,0
56077.5,306.099,-1672.39,0,0
56337.825,303.765,-1663.65,0,0
56598.15,301.784,-1654.72,0,0
56858.475,300.193,-1645.7,0,0
57118.8,298.969,-1637.2,0,0
57379.125,297.683,-1628.71,0,0
57639.45,296.817,-1620.59,0,0
57899.775,295.916,-1612.75,0,0
58160.1,295.043,-1605.18,0,0
58420.4,294.188,-1597.8,0,0
58680.7,293.36,-1590.53,0,0
58941.1,292.709,-1583.55,0,0
59201.4,291.857,-1576.99,0,0
59461.7,290.755,-1570.24,0,0
59722,290.122,-1563.63,0,0
59982.4,289.153,-1557.75,0,0
60242.7,287.672,-1551.47,0,0
60503,286.821,-1545.1,0,0
60763.3,286.018,-1539.27,0,0
61023.7,284.95,-1534.02,0,0
61284,283.363,-1529,0,0
61544.3,281.148,-1524.09,0,0
61804.6,278.21,-1518.83,0,0
62065,274.672,-1512.77,0,0
62325.3,271.387,-1505.62,0,0
62585.6,269.039,-1497.67,0,0
62845.9,267.768,-1489.68,0,0
63106.3,267.768,-1482.38,0,0
63366.6,267.846,-1476.25,0,0
63626.9,267.24,-1470.67,0,0
63887.2,266.734,-1465.57,0,0
64147.6,265.768,-1460.82,0,0
64407.9,264.016,-1456.18,0,0
64668.2,262.027,-1451.29,0,0
64928.5,259.581,-1446.17,0,0
65188.9,257.034,-1440.4,0,0
65449.2,255.014,-1434.3,0,0
65709.5,253.137,-1428.32,0,0
65969.8,251.25,-1422.42,0,0
66230.2,249.411,-1416.48,0,0
66490.5,247.861,-1410.52,0,0
66750.8,246.29,-1404.57,0,0
67011.1,245.043,-1398.46,0,0
67271.5,243.706,-1392.64,0,0
67531.8,242.533,-1386.84,0,0
67792.1,241.292,-1381.12,0,0
68052.4,240.183,-1375.38,0,0
68312.8,239.151,-1370.28,0,0
68573.1,238.299,-1364.47,0,0
68833.4,236.973,-1359.06,0,0
69093.7,236.298,-1354.05,0,0
69354.1,235.148,-1348.84,0,0
69614.4,234.255,-1343.73,0,0
69874.7,233.289,-1338.74,0,0
70135,232.328,-1333.86,0,0
70395.4,231.265,-1329.18,0,0
70655.7,230.084,-1324.61,0,0
70916,228.736,-1319.92,0,0
71176.3,227.324,-1315.21,0,0
71436.7,225.871,-1310.61,0,0
71697,224.302,-1305.78,0,0
71957.3,222.613,-1300.92,0,0
72217.6,221.024,-1295.94,0,0
72478,219.609,-1290.73,0,0
72738.3,218.328,-1285.64,0,0
72998.6,217.166,-1280.63,0,0
73258.9,215.887,-1275.79,0,0
73519.3,214.771,-1270.76,0,0
73779.6,213.608,-1265.85,0,0
74039.9,212.499,-1260.9,0,0
74300.225,211.386,-1256.12,0,0
74560.55,210.552,-1251.44,0,0
74820.875,209.614,-1246.57,0,0
75081.2,208.73,-1242.01,0,0
75341.525,207.805,-1237.5,0,0
75601.85,206.83,-1233,0,0
75862.175,205.807,-1228.57,0,0
76122.5,204.806,-1224.09,0,0
76382.825,203.753,-1219.58,0,0
76643.15,202.761,-1215.2,0,0
76903.475,201.625,-1210.81,0,0
77163.8,200.571,-1206.42,0,0
77424.125,199.538,-1201.97,0,0
77684.45,198.439,-1197.56,0,0
77944.775,197.41,-1193.23,0,0
78205.1,196.389,-1188.88,0,0
78465.425,195.337,-1184.47,0,0
78725.75,194.426,-1180.17,0,0
78986.075,193.399,-1175.89,0,0
79246.4,192.371,-1171.54,0,0
79506.725,191.405,-1167.25,0,0
79767.05,190.43,-1163.02,0,0
80027.375,189.371,-1158.78,0,0
80287.7,188.404,-1154.55,0,0
80548.025,187.393,-1150.33,0,0
80808.35,186.333,-1146.14,0,0
81068.675,185.31,-1141.86,0,0
81329.0,184.304,-1137.55,0,0
81589.325,183.293,-1133.28,0,0
81849.65,182.362,-1128.97,0,0
82109.975,181.447,-1124.67,0,0
82370.3,180.571,-1120.29,0,0
82630.625,179.712,-1116.06,0,0
82890.95,178.915,-1111.82,0,0
83151.275,178.001,-1107.54,0,0
83411.6,177.244,-1103.23,0,0
83671.925,176.468,-1098.95,0,0
83932.25,175.692,-1094.79,0,0
84192.575,174.852,-1090.47,0,0
84452.9,174.235,-1086.19,0,0
84713.225,173.563,-1081.81,0,0
84973.55,172.929,-1077.53,0,0
85233.875,172.474,-1073.12,0,0
85494.2,172.023,-1068.82,0,0
85754.525,171.78,-1064.65,0,0
86014.85,171.466,-1060.43,0,0
86275.175,171.297,-1056.3,0,0
86535.5,171.067,-1052.2,0,0
86795.825,171.012,-1048.23,0,0
87056.15,170.787,-1044.33,0,0
87316.475,170.584,-1040.43,0,0
87576.8,170.561,-1036.57,0,0
87837.125,170.435,-1032.72,0,0
88097.45,170.288,-1028.85,0,0
88357.775,170.374,-1025.17,0,0
88618.1,170.504,-1021.35,0,0
88878.425,170.665,-1017.77,0,0
89138.75,170.856,-1014.3,0,0
89399.075,171.119,-1010.81,0,0
89659.4,171.368,-1007.49,0,0
89919.725,171.647,-1004.38,0,0
90180,171.743,-1001.47,0,0
90440.4,171.679,-998.808,0,0
90700.7,171.699,-995.801,0,0
90961,171.602,-993.357,0,0
91221.3,171.237,-990.839,0,0
91481.7,170.523,-988.522,0,0
91742,169.534,-985.667,0,0
92002.3,168.63,-982.564,0,0
92262.6,167.737,-979.367,0,0
92523,167.045,-975.906,0,0
92783.3,166.379,-972.913,0,0
93043.6,165.477,-969.517,0,0
93303.9,164.903,-965.751,0,0
93564.3,164.69,-962.295,0,0
93824.6,164.279,-958.983,0,0
94084.9,163.774,-955.49,0,0
94345.2,163.677,-951.845,0,0
94605.6,163.964,-948.568,0,0
94865.9,164.007,-945.68,0,0
95126.2,163.821,-942.608,0,0
95386.5,163.751,-939.37,0,0
95646.9,163.924,-936.504,0,0
95907.2,163.888,-933.776,0,0
96167.5,163.854,-931.122,0,0
96427.8,163.622,-928.545,0,0
96688.2,163.391,-925.915,0,0
96948.5,163.077,-923.494,0,0
97208.8,162.451,-921.006,0,0
97469.1,161.679,-918.377,0,0
97729.5,160.869,-915.468,0,0
97989.8,160.159,-912.438,0,0
98250.1,159.558,-909.277,0,0
98510.4,159.077,-905.936,0,0
98770.8,158.912,-902.64,0,0
99031.1,158.969,-899.531,0,0
99291.4,159.006,-896.554,0,0
99551.7,159.094,-893.801,0,0
99812.1,159.064,-891.018,0,0
100072,159.199,-888.31,0,0
100333,159.355,-885.756,0,0
100593,159.508,-883.451,0,0
100853,159.488,-881.342,0,0
101114,159.154,-879.348,0,0
101374,158.662,-877.179,0,0
101634,158.074,-874.959,0,0
101895,157.499,-872.579,0,0
102155,156.953,-870.235,0,0
102415,156.456,-867.827,0,0
102676,155.98,-865.462,0,0
102936,155.445,-863.231,0,0
103196,154.987,-861.087,0,0
103457,154.281,-859.06,0,0
103717,153.347,-856.98,0,0
103977,152.433,-854.758,0,0
104238,151.494,-852.724,0,0
104498,150.273,-850.687,0,0
104758,148.652,-848.508,0,0
105019,146.964,-846.024,0,0
105279,145.277,-843.299,0,0
105539,143.473,-840.481,0,0
105800,141.573,-837.316,0,0
106060,139.813,-833.782,0,0
106320.175,138.017,-829.912,0,0
106580.5,136.645,-825.755,0,0
106840.825,135.681,-821.398,0,0
107101.15,135.105,-817.116,0,0
107361.475,134.649,-813.045,0,0
107621.8,134.352,-808.8,0,0
107882.125,134.244,-804.673,0,0
108142.45,134.446,-800.588,0,0
108402.775,134.99,-796.69,0,0
108663.1,135.536,-793.083,0,0
108923.425,135.952,-789.747,0,0
109183.75,136.066,-786.423,0,0
109444.075,136.293,-782.775,0,0
109704.4,136.8,-779.018,0,0
109964.725,137.561,-775.555,0,0
110225.05,138.414,-772.203,0,0
110485.375,139.056,-769.052,0,0
110745.7,139.999,-765.76,0,0
111006.025,140.742,-762.271,0,0
111266.35,142.168,-759.147,0,0
111526.675,143.744,-756.272,0,0
111787.0,144.985,-753.83,0,0
112047.325,146.276,-751.545,0,0
112307.65,147.543,-749.424,0,0
112567.975,148.683,-747.406,0,0
112828.3,149.816,-745.605,0,0
113088.625,150.363,-744.019,0,0
113348.95,150.993,-741.982,0,0
113609.275,151.697,-740.093,0,0
113869.6,152.449,-738.397,0,0
114129.925,152.808,-736.537,0,0
114390.25,153.238,-734.694,0,0
114650.575,153.687,-732.64,0,0
114910.9,154.483,-730.643,0,0
115171.225,155.338,-728.683,0,0
115431.55,156.53,-726.885,0,0
115691.875,157.769,-725.592,0,0
115952.2,158.919,-724.759,0,0
116212.525,159.788,-724.298,0,0
116472.85,160.369,-724.222,0,0
116733.175,160.351,-724.424,0,0
116993.5,159.643,-724.689,0,0
117253.825,158.204,-724.761,0,0
117514.15,156.26,-724.238,0,0
117774.475,153.966,-723.042,0,0
118034.8,151.709,-721.21,0,0
118295.125,149.738,-718.782,0,0
118555.45,148.254,-716.153,0,0
118815.775,146.899,-713.485,0,0
119076.1,145.564,-710.695,0,0
119336.425,144.492,-707.545,0,0
119596.75,143.692,-704.39,0,0
119857.075,143.183,-701.014,0,0
120117.4,143.183,-697.802,0,0
120377.725,143.394,-694.68,0,0
120638.05,143.939,-691.848,0,0
120898.375,144.613,-689.424,0,0
121158.7,145.276,-687.464,0,0
121419.025,145.676,-685.878,0,0
121679.35,145.616,-684.503,0,0
121939.675,145.152,-683.004,0,0
122200.0,144.387,-681.286,0,0
122460,143.563,-679.069,0,0
122721,143.013,-676.702,0,0
122981,142.604,-674.337,0,0
123241,142.299,-671.938,0,0
123502,141.998,-669.685,0,0
123762,141.723,-667.347,0,0
124022,141.575,-665.047,0,0
124283,141.445,-662.913,0,0
124543,141.166,-660.864,0,0
124803,140.794,-658.729,0,0
125064,140.406,-656.589,0,0
125324,140.006,-654.442,0,0
125584,139.499,-652.208,0,0
125845,138.995,-649.905,0,0
126105,138.519,-647.546,0,0
126365,138.047,-645.171,0,0
126626,137.539,-642.696,0,0
126886,137.015,-640.21,0,0
127146,136.504,-637.605,0,0
127406,136.108,-634.792,0,0
127667,135.726,-631.933,0,0
127927,135.651,-629.029,0,0
128187,135.772,-626.116,0,0
128448,135.869,-623.363,0,0
128708,136.168,-620.617,0,0
128968,136.577,-618.047,0,0
129229,136.98,-615.62,0,0
129489,137.342,-613.411,0,0
129749,137.58,-611.281,0,0
130010,137.7,-609.161,0,0
130270,137.693,-607.037,0,0
130530,137.621,-604.85,0,0
130791,137.466,-602.644,0,0
131051,137.356,-600.306,0,0
131311,137.223,-597.892,0,0
131572,137.15,-595.479,0,0
131832,137.028,-593.011,0,0
132092,136.963,-590.45,0,0
132353,136.924,-587.88,0,0
132613,136.999,-585.281,0,0
132873,137.142,-582.678,0,0
133134,137.333,-580.094,0,0
133394,137.565,-577.595,0,0
133654,137.74,-575.155,0,0
133915,137.868,-572.614,0,0
134175,138.066,-570.106,0,0
134435,138.28,-567.551,0,0
134696,138.525,-565.039,0,0
134956,138.776,-562.434,0,0
135216,139.138,-559.866,0,0
135477,139.424,-557.29,0,0
135737,139.744,-554.607,0,0
135997,140.16,-551.982,0,0
136258,140.644,-549.305,0,0
136518,141.207,-546.619,0,0
136778,141.871,-543.962,0,0
137039,142.674,-541.422,0,0
137299,143.458,-538.984,0,0
137559,144.31,-536.555,0,0
137819,145.188,-534.304,0,0
138080,145.934,-532.126,0,0
138340.125,146.658,-529.993,0,0
138600.45,147.341,-527.794,0,0
138860.775,148.05,-525.612,0,0
139121.1,148.669,-523.392,0,0
139381.425,149.336,-521.178,0,0
139641.75,150.067,-518.969,0,0
139902.075,150.914,-516.725,0,0
140162.4,151.768,-514.554,0,0
140422.725,152.572,-512.523,0,0
140683.05,153.408,-510.398,0,0
140943.375,154.408,-508.368,0,0
141203.7,155.426,-506.367,0,0
141464.025,156.508,-504.655,0,0
141724.35,157.397,-503.101,0,0
141984.675,158.124,-501.648,0,0
142245.0,158.696,-500.199,0,0
142505.325,159.029,-498.645,0,0
142765.65,159.363,-496.93,0,0
143025.975,159.614,-495.186,0,0
143286.3,159.935,-493.275,0,0
143546.625,160.272,-491.531,0,0
143806.95,160.482,-489.612,0,0
144067.275,160.795,-487.61,0,0
144327.6,161.126,-485.598,0,0
144587.925,161.5,-483.521,0,0
144848.25,161.914,-481.344,0,0
145108.575,162.509,-479.166,0,0
145368.9,163.2,-477.07,0,0
145629.225,163.878,-475.206,0,0
145889.55,164.538,-473.289,0,0
146149.875,165.098,-471.518,0,0
146410.2,165.624,-469.664,0,0
146670.525,166.13,-467.992,0,0
146930.85,166.662,-466.368,0,0
147191.175,167.013,-464.832,0,0
147451.5,167.105,-463.242,0,0
147711.825,167.076,-461.415,0,0
147972.15,166.955,-459.616,0,0
148232.475,166.726,-457.555,0,0
148492.8,166.608,-455.252,0,0
148753.125,166.534,-452.864,0,0
149013.45,166.595,-450.396,0,0
149273.775,166.65,-447.788,0,0
149534.1,166.769,-445.156,0,0
149794.425,167.058,-442.437,0,0
150054.75,167.444,-439.602,0,0
150315.075,168.003,-436.819,0,0
150575.4,168.569,-434.088,0,0
150835.725,169.126,-431.315,0,0
151096.05,169.785,-428.491,0,0
151356.375,170.53,-425.611,0,0
151616.7,171.423,-422.571,0,0
151877.025,172.476,-419.446,0,0
152137.35,173.785,-416.432,0,0
152397.675,175.402,-413.555,0,0
152658.0,177.238,-410.891,0,0
152918.325,179.072,-408.693,0,0
153178.65,180.859,-406.774,0,0
153438.975,182.436,-404.94,0,0
153699.3,183.821,-403.157,0,0
153959.625,185.065,-401.473,0,0
154219.95,186.157,-399.832,0,0
154480,187.04,-398.084,0,0
154741,187.725,-396.222,0,0
155001,188.378,-393.981,0,0
155261,189.22,-391.514,0,0
155522,190.441,-389,0,0
155782,191.856,-386.521,0,0
156042,193.36,-384.255,0,0
156303,195.035,-382.135,0,0
156563,196.756,-380.157,0,0
156823,198.578,-378.531,0,0
157084,200.133,-377.194,0,0
157344,201.393,-375.967,0,0
157604,202.371,-374.614,0,0
157864,203.178,-373.171,0,0
158125,203.937,-371.574,0,0
158385,204.666,-369.84,0,0
158645,205.456,-368.125,0,0
158906,206.121,-366.302,0,0
159166,206.751,-364.356,0,0
159426,207.501,-362.323,0,0
159687,208.271,-360.233,0,0
159947,209.061,-358.259,0,0
160207,209.832,-356.092,0,0
160468,210.717,-353.913,0,0
160728,211.584,-351.735,0,0
160988,212.535,-349.55,0,0
161249,213.369,-347.312,0,0
161509,214.373,-345.059,0,0
161769,215.322,-342.827,0,0
162030,216.287,-340.57,0,0
162290,217.213,-338.263,0,0
162550,218.174,-335.864,0,0
162811,219.151,-333.43,0,0
163071,220.256,-330.924,0,0
163331,221.47,-328.447,0,0
163592,222.755,-326.037,0,0
163852,224.049,-323.656,0,0
164112,225.309,-321.35,0,0
164373,226.493,-319.065,0,0
164633,227.624,-316.728,0,0
164893,228.779,-314.257,0,0
165154,229.916,-311.76,0,0
165414,231.115,-309.117,0,0
165674,232.427,-306.524,0,0
165935,233.836,-303.938,0,0
166195,235.298,-301.321,0,0
166455,236.709,-298.719,0,0
166716,238.172,-296.16,0,0
166976,239.61,-293.577,0,0
167236,241.102,-290.909,0,0
167497,242.577,-288.243,0,0
167757,244.146,-285.482,0,0
168017,245.779,-282.682,0,0
168277,247.557,-279.934,0,0
168538,249.393,-277.198,0,0
168798,251.276,-274.653,0,0
169058,253.083,-272.11,0,0
169319,254.806,-269.544,0,0
169579,256.58,-266.96,0,0
169839,258.284,-264.37,0,0
170100,260.061,-261.751,0,0
170360.075,261.721,-259.071,0,0
170620.4,263.389,-256.339,0,0
170880.725,265.093,-253.542,0,0
171141.05,266.752,-250.701,0,0
171401.375,268.499,-247.788,0,0
171661.7,270.195,-244.789,0,0
171922.025,272.004,-241.728,0,0
172182.35,273.783,-238.592,0,0
172442.675,275.617,-235.374,0,0
172703.0,277.539,-232.092,0,0
172963.325,279.473,-228.727,0,0
173223.65,281.431,-225.257,0,0
173483.975,283.448,-221.759,0,0
173744.3,285.489,-218.132,0,0
174004.625,287.631,-214.346,0,0
174264.95,289.899,-210.422,0,0
174525.275,292.254,-206.434,0,0
174785.6,294.786,-202.322,0,0
175045.925,297.482,-198.079,0,0
175306.25,300.317,-193.771,0,0
175566.575,303.338,-189.384,0,0
175826.9,306.489,-184.948,0,0
176087.225,309.852,-180.482,0,0
176347.55,313.347,-175.893,0,0
176607.875,317.131,-171.289,0,0
176868.2,321.076,-166.628,0,0
177128.525,325.274,-161.987,0,0
177388.85,329.7,-157.299,0,0
177649.175,334.36,-152.647,0,0
177909.5,339.228,-147.97,0,0
178169.825,344.34,-143.295,0,0
178430.15,349.862,-138.691,0,0
178690.475,355.609,-134.23,0,0
178950.8,361.654,-129.952,0,0
179211.125,367.93,-125.852,0,0
179471.45,374.374,-122.006,0,0
179731.775,380.959,-118.488,0,0
179992.1,387.62,-115.126,0,0
180252.425,394.231,-111.953,0,0
180512.75,400.788,-108.84,0,0
180773.075,407.399,-105.852,0,0
181033.4,414.115,-102.844,0,0
181293.725,420.929,-99.9049,0,0
181554.05,427.858,-96.8655,0,0
181814.375,434.932,-93.9826,0,0
182074.7,442.319,-91.142,0,0
182335.025,449.829,-88.4996,0,0
182595.35,457.456,-86.1364,0,0
182855.675,465.019,-83.8972,0,0
183116.0,472.566,-81.7986,0,0
183376.325,480.111,-79.6264,0,0
183636.65,487.657,-77.4349,0,0
183896.975,495.313,-75.1909,0,0
184157.3,503.066,-72.9828,0,0
184417.625,511.014,-70.5871,0,0
184677.95,519.075,-68.1575,0,0
184938.275,527.487,-65.6527,0,0
185198.6,536.239,-63.0332,0,0
185458.925,545.299,-60.3763,0,0
185719.25,554.651,-57.9327,0,0
185979.575,564.438,-55.2934,0,0
186239.9,574.791,-52.8889,0,0
186500,585.509,-50.547,0,0
186761,596.883,-48.6051,0,0
187021,608.628,-46.9293,0,0
187281,620.825,-45.6011,0,0
187542,633.398,-44.7141,0,0
187802,646.369,-44.2122,0,0
188062,659.674,-44.156,0,0
188322,673.377,-44.5887,0,0
188583,687.332,-45.6293,0,0
188843,701.555,-47.236,0,0
189103,715.953,-49.3441,0,0
189364,730.585,-52.0488,0,0
189624,745.449,-55.2074,0,0
189884,760.5,-59.105,0,0
190145,775.789,-63.6253,0,0
190405,791.127,-69.018,0,0
190665,806.511,-75.1067,0,0
190926,821.889,-82.0134,0,0
191186,836.922,-89.6818,0,0
191446,851.832,-97.9936,0,0
191707,866.467,-106.836,0,0
191967,880.934,-116.172,0,0
192227,895.219,-126.071,0,0
192488,909.353,-136.487,0,0
192748,923.363,-147.44,0,0
193008,937.304,-158.982,0,0
193269,951.048,-171.164,0,0
193529,964.705,-183.915,0,0
193789,978.265,-197.469,0,0
194050,991.589,-211.639,0,0
194310,1004.7,-226.834,0,0
194570,1017.43,-242.924,0,0
194831,1029.56,-259.816,0,0
195091,1041.32,-277.567,0,0
195351,1052.31,-296.013,0,0
195612,1062.6,-315.463,0,0
195872,1072.11,-335.607,0,0
196132,1080.66,-356.523,0,0
196393,1088.3,-377.839,0,0
196653,1094.87,-399.813,0,0
196913,1100.72,-422.496,0,0
197174,1105.14,-445.48,0,0
197434,1108.37,-469.046,0,0
197694,1110.27,-492.787,0,0
197955,1111.08,-516.64,0,0
198215,1110.51,-540.412,0,0
198475,1108.47,-563.834,0,0
198735,1105.62,-587.083,0,0
198996,1101.72,-610.104,0,0
199256,1096.62,-632.605,0,0
199516,1090.63,-654.891,0,0
199777,1083.55,-676.79,0,0
200037,1075.91,-698.255,0,0
200297,1066.87,-719.147,0,0
200558,1057.24,-739.907,0,0
200818,1046.77,-759.876,0,0
201078,1035.15,-779.199,0,0
201339,1022.78,-797.91,0,0
201599,1009.69,-815.947,0,0
201859,995.972,-832.962,0,0
202120,981.221,-849.319,0,0
202380.025,966.337,-864.231,0,0
202640.35,950.378,-878.342,0,0
202900.675,934.634,-891.671,0,0
203161.0,918.34,-904.124,0,0
203421.325,901.807,-915.253,0,0
203681.65,885.185,-925.748,0,0
203941.975,868.793,-935.052,0,0
204202.3,852.274,-943.726,0,0
204462.625,835.581,-951.663,0,0
204722.95,818.935,-958.339,0,0
204983.275,802.833,-964.672,0,0
205243.6,786.103,-970.382,0,0
205503.925,770.375,-975.476,0,0
205764.25,754.417,-979.376,0,0
206024.575,738.826,-983.034,0,0
206284.9,723.422,-986.049,0,0
206545.225,708.501,-988.452,0,0
206805.55,693.46,-990.395,0,0
207065.875,678.754,-991.845,0,0
207326.2,664.745,-992.659,0,0
207586.525,650.844,-993.175,0,0
207846.85,637.154,-993.48,0,0
208107.175,623.848,-993.291,0,0
208367.5,610.873,-992.833,0,0
208627.825,598.059,-991.936,0,0
208888.15,585.712,-990.64,0,0
209148.475,573.729,-989.291,0,0
209408.8,561.982,-987.687,0,0
209669.125,550.636,-985.704,0,0
209929.45,539.425,-983.203,0,0
210189.775,528.535,-981.196,0,0
210450.1,518.158,-978.774,0,0
210710.425,507.733,-976.16,0,0
210970.75,497.732,-973.517,0,0
211231.075,487.811,-970.636,0,0
211491.4,478.091,-967.456,0,0
211751.725,468.665,-964.127,0,0
212012.05,459.384,-960.856,0,0
212272.375,450.761,-957.001,0,0
212532.7,442.31,-953.26,0,0
212793.025,434.34,-949.672,0,0
213053.35,426.258,-945.872,0,0
213313.675,418.673,-942.153,0,0
213574.0,411.174,-938.65,0,0
213834.325,403.708,-934.821,0,0
214094.65,396.353,-931.095,0,0
214354.975,388.983,-927.079,0,0
214615.3,381.99,-923.221,0,0
214875.625,375.018,-919.007,0,0
215135.95,368.398,-914.739,0,0
215396.275,361.93,-910.373,0,0
215656.6,355.766,-906.128,0,0
215916.925,349.756,-901.677,0,0
216177.25,343.973,-897.248,0,0
216437.575,338.236,-892.755,0,0
216697.9,332.88,-888.336,0,0
216958.225,327.594,-883.85,0,0
217218.55,322.402,-879.478,0,0
217478.875,317.342,-874.957,0,0
217739.2,312.464,-870.491,0,0
217999.525,307.672,-865.982,0,0
218259.85,303.051,-861.451,0,0
218520,298.564,-856.846,0,0
218780,294.159,-852.25,0,0
219041,289.997,-847.613,0,0
219301,285.884,-842.89,0,0
219561,282.133,-838.271,0,0
219822,278.403,-833.519,0,0
220082,274.846,-828.908,0,0
220342,271.504,-824.249,0,0
220603,268.291,-819.463,0,0
220863,265.105,-814.676,0,0
221123,262.195,-810.002,0,0
221384,259.391,-805.392,0,0
221644,256.88,-800.635,0,0
221904,254.42,-795.976,0,0
222165,252.139,-791.376,0,0
222425,250.031,-786.824,0,0
222685,248.209,-782.227,0,0
222946,246.372,-777.716,0,0
223206,244.671,-773.251,0,0
223466,243.365,-768.883,0,0
223727,242.098,-764.643,0,0
223987,241.096,-760.585,0,0
224247,240.115,-756.66,0,0
224508,239.305,-752.825,0,0
224768,238.573,-749.19,0,0
225028,237.88,-745.7,0,0
225289,237.373,-742.343,0,0
225549,236.936,-739.208,0,0
225809,236.412,-736.582,0,0
226070,235.794,-733.688,0,0
226330,235.303,-731.005,0,0
226590,234.55,-728.515,0,0
226851,233.705,-726.153,0,0
227111,232.813,-723.77,0,0
227371,231.762,-721.458,0,0
227632,230.715,-719.037,0,0
227892,229.513,-716.752,0,0
228152,228.327,-714.24,0,0
228413,227.057,-711.872,0,0
228673,225.797,-709.296,0,0
228933,224.498,-706.79,0,0
229193,223.314,-704.102,0,0
229454,222.147,-701.436,0,0
229714,221.065,-698.645,0,0
229974,219.862,-695.809,0,0
230235,218.854,-692.968,0,0
230495,217.895,-690.211,0,0
230755,216.978,-687.315,0,0
231016,216.146,-684.483,0,0
231276,215.379,-681.586,0,0
231536,214.634,-678.663,0,0
231797,214.058,-675.772,0,0
232057,213.505,-672.942,0,0
232317,213.033,-669.983,0,0
232578,212.586,-667.133,0,0
232838,212.253,-664.298,0,0
233098,212.036,-661.47,0,0
233359,211.775,-658.586,0,0
233619,211.655,-655.744,0,0
233879,211.578,-652.979,0,0
234140,211.587,-650.207,0,0
234400,211.707,-647.515,0,0
234660.3,211.799,-644.789,0,0
234920.625,212.152,-642.178,0,0
235180.95,212.342,-639.397,0,0
235441.275,212.716,-636.858,0,0
235701.6,213.228,-634.394,0,0
235961.925,213.664,-631.949,0,0
236222.25,214.21,-629.53,0,0
236482.575,214.757,-627.095,0,0
236742.9,215.433,-624.753,0,0
237003.225,216.125,-622.465,0,0
237263.55,216.835,-620.26,0,0
237523.875,217.633,-618.055,0,0
237784.2,218.455,-615.945,0,0
238044.525,219.334,-613.823,0,0
238304.85,220.246,-611.76,0,0
238565.175,221.22,-609.783,0,0
238825.5,222.211,-607.949,0,0
239085.825,223.399,-606.006,0,0
239346.15,224.515,-604.243,0,0
239606.475,225.702,-602.523,0,0
239866.8,226.817,-600.857,0,0
240127.125,228.018,-599.252,0,0
240387.45,229.269,-597.759,0,0
240647.775,230.576,-596.3,0,0
240908.1,231.909,-594.898,0,0
241168.425,233.154,-593.525,0,0
241428.75,234.576,-592.263,0,0
241689.075,235.691,-590.93,0,0
241949.4,237.149,-589.911,0,0
242209.725,238.55,-588.723,0,0
242470.05,239.915,-587.597,0,0
242730.375,241.377,-586.549,0,0
242990.7,242.862,-585.465,0,0
243251.025,244.443,-584.469,0,0
243511.35,246.046,-583.528,0,0
243771.675,247.807,-582.655,0,0
244032.0,249.656,-581.848,0,0
244292.325,251.593,-581.247,0,0
244552.65,253.614,-580.846,0,0
244812.975,255.669,-580.565,0,0
245073.3,257.696,-580.494,0,0
245333.625,259.478,-580.737,0,0
245593.95,261.376,-581.058,0,0
245854.275,263.162,-581.427,0,0
246114.6,264.844,-581.999,0,0
246374.925,266.489,-582.526,0,0
246635.25,267.866,-583.122,0,0
246895.575,269.334,-583.882,0,0
247155.9,270.65,-584.642,0,0
247416.225,271.912,-585.499,0,0
247676.55,273.178,-586.362,0,0
247936.875,274.332,-587.281,0,0
248197.2,275.377,-588.288,0,0
248457.525,276.355,-589.311,0,0
248717.85,277.272,-590.222,0,0
248978.175,278.085,-591.279,0,0
249238.5,278.974,-592.21,0,0
249498.825,279.755,-593.083,0,0
249759.15,280.677,-593.848,0,0
250019.475,281.786,-594.89,0,0
250279.8,282.896,-595.857,0,0
250540,284.113,-597.12,0,0
250800,285.368,-598.447,0,0
251061,286.449,-600.108,0,0
251321,287.577,-601.945,0,0
251581,288.495,-603.801,0,0
251842,289.278,-605.924,0,0
252102,289.863,-608.033,0,0
252362,290.33,-610.133,0,0
252623,290.798,-612.288,0,0
252883,291.108,-614.652,0,0
253143,291.394,-617.102,0,0
253404,291.582,-619.544,0,0
253664,291.584,-622.242,0,0
253924,291.45,-625.014,0,0
254185,291.077,-627.855,0,0
254445,290.408,-630.774,0,0
254705,289.489,-633.702,0,0
254966,288.479,-636.756,0,0
255226,287.09,-639.663,0,0
255486,285.462,-642.443,0,0
255747,283.65,-645.245,0,0
256007,281.597,-647.784,0,0
256267,279.389,-650.266,0,0
256528,277.064,-652.564,0,0
256788,274.545,-654.68,0,0
257048,272.016,-656.569,0,0
257309,269.345,-658.379,0,0
257569,266.637,-660.02,0,0
257829,263.899,-661.512,0,0
258090,261.032,-662.818,0,0
258350,258.285,-663.983,0,0
258610,255.487,-665.037,0,0
258871,252.579,-666.06,0,0
259131,249.811,-666.843,0,0
259391,246.919,-667.587,0,0
259651,244.043,-668.172,0,0
259912,241.208,-668.618,0,0
260172,238.445,-669.065,0,0
260432,235.574,-669.408,0,0
260693,232.785,-669.578,0,0
260953,230.006,-669.734,0,0
261213,227.237,-669.747,0,0
261474,224.569,-669.689,0,0
261734,221.789,-669.572,0,0
261994,219.116,-669.337,0,0
262255,216.528,-669.04,0,0
262515,213.913,-668.672,0,0
262775,211.371,-668.295,0,0
263036,208.876,-667.844,0,0
263296,206.414,-667.226,0,0
263556,203.927,-666.702,0,0
263817,201.59,-666.09,0,0
264077,199.2,-665.446,0,0
264337,196.909,-664.723,0,0
264598,194.581,-663.979,0,0
264858,192.369,-663.177,0,0
265118,190.24,-662.273,0,0
265379,188.063,-661.42,0,0
265639,185.984,-660.559,0,0
265899,183.886,-659.632,0,0
266160,181.883,-658.688,0,0
266420,179.859,-657.701,0,0
266680.25,177.865,-656.737,0,0
266940.575,175.959,-655.82,0,0
267200.9,174.036,-654.796,0,0
267461.225,172.29,-653.711,0,0
267721.55,170.431,-652.734,0,0
267981.875,168.6,-651.684,0,0
268242.2,166.787,-650.608,0,0
268502.525,165.032,-649.489,0,0
268762.85,163.296,-648.351,0,0
269023.175,161.621,-647.249,0,0
269283.5,159.928,-646.081,0,0
269543.825,158.265,-644.946,0,0
269804.15,156.711,-643.749,0,0
270064.475,155.094,-642.57,0,0
270324.8,153.565,-641.4,0,0
270585.125,151.973,-640.206,0,0
270845.45,150.546,-638.975,0,0
271105.775,149.082,-637.827,0,0
271366.1,147.57,-636.564,0,0
271626.425,146.194,-635.294,0,0
271886.75,144.796,-634.057,0,0
272147.075,143.362,-632.821,0,0
272407.4,141.998,-631.545,0,0
272667.725,140.675,-630.296,0,0
272928.05,139.424,-629.017,0,0
273188.375,138.148,-627.736,0,0
273448.7,136.875,-626.444,0,0
273709.025,135.666,-625.222,0,0
273969.35,134.512,-623.844,0,0
274229.675,133.294,-622.599,0,0
274490.0,132.106,-621.29,0,0
274750.325,130.967,-619.991,0,0
275010.65,129.942,-618.702,0,0
275270.975,128.774,-617.422,0,0
275531.3,127.697,-616.19,0,0
275791.625,126.671,-614.819,0,0
276051.95,125.609,-613.541,0,0
276312.275,124.604,-612.251,0,0
276572.6,123.604,-610.951,0,0
276832.925,122.643,-609.663,0,0
277093.25,121.648,-608.336,0,0
277353.575,120.732,-607.04,0,0
277613.9,119.794,-605.726,0,0
277874.225,118.875,-604.433,0,0
278134.55,117.962,-603.136,0,0
278394.875,117.097,-601.801,0,0
278655.2,116.224,-600.489,0,0
278915.525,115.385,-599.147,0,0
279175.85,114.577,-597.82,0,0
279436.175,113.76,-596.377,0,0
279696.5,113.004,-595.056,0,0
279956.825,112.326,-593.649,0,0
280217.15,111.622,-592.269,0,0
280477.475,111.023,-590.934,0,0
280737.8,110.473,-589.563,0,0
280998.125,109.935,-588.265,0,0
281258.45,109.446,-587.009,0,0
281518.775,108.981,-585.817,0,0
281779.1,108.507,-584.627,0,0
282039.425,108.014,-583.516,0,0
282299.75,107.514,-582.408,0,0
282560,106.95,-581.282,0,0
282820,106.445,-580.138,0,0
283081,105.872,-579.116,0,0
283341,105.413,-577.926,0,0
283601,104.767,-576.834,0,0
283862,104.365,-575.712,0,0
284122,103.785,-574.556,0,0
284382,103.426,-573.394,0,0
284643,102.932,-572.278,0,0
284903,102.565,-571.096,0,0
285163,102.189,-570.022,0,0
285424,101.805,-568.875,0,0
285684,101.533,-567.895,0,0
285944,101.301,-566.755,0,0
286205,101.124,-565.893,0,0
286465,100.825,-564.97,0,0
286725,100.427,-564.129,0,0
286986,100.151,-563.317,0,0
287246,99.8139,-562.549,0,0
287506,99.3797,-561.87,0,0
287767,98.8856,-560.996,0,0
288027,98.4293,-560.265,0,0
288287,97.9229,-559.442,0,0
288548,97.429,-558.641,0,0
288808,96.8892,-557.744,0,0
289068,96.3671,-556.88,0,0
289329,95.7996,-555.998,0,0
289589,95.3646,-555.087,0,0
289849,94.888,-554.208,0,0
290109,94.3492,-553.283,0,0
290370,93.9814,-552.393,0,0
290630,93.55,-551.56,0,0
290890,93.093,-550.597,0,0
291151,92.6886,-549.728,0,0
291411,92.2753,-548.807,0,0
291671,91.8111,-548.049,0,0
291932,91.4977,-547.103,0,0
292192,91.0622,-546.364,0,0
292452,90.5675,-545.461,0,0
292713,90.193,-544.692,0,0
292973,89.7278,-543.823,0,0
293233,89.2475,-543.106,0,0
293494,88.8031,-542.355,0,0
293754,88.3385,-541.536,0,0
294014,87.7869,-540.707,0,0
294275,87.3396,-540.008,0,0
294535,86.7818,-539.104,0,0
294795,86.168,-538.333,0,0
295056,85.6618,-537.456,0,0
295316,85.0859,-536.518,0,0
295576,84.5896,-535.606,0,0
295837,84.0032,-534.606,0,0
296097,83.4331,-533.633,0,0
296357,82.942,-532.653,0,0
296618,82.4283,-531.634,0,0
296878,81.9575,-530.568,0,0
297138,81.5312,-529.463,0,0
297399,81.1605,-528.461,0,0
297659,80.8455,-527.38,0,0
297919,80.5889,-526.299,0,0
298180,80.3325,-525.272,0,0
298440,80.1686,-524.232,0,0
298700.2,79.9876,-523.211,0,0
298960.525,79.8455,-522.338,0,0
299220.85,79.7066,-521.461,0,0
299481.175,79.5714,-520.66,0,0
299741.5,79.37,-519.899,0,0
300001.825,79.1506,-519.155,0,0
300262.15,78.9305,-518.34,0,0
300522.475,78.6871,-517.638,0,0
300782.8,78.4113,-516.881,0,0
301043.125,78.1149,-516.108,0,0
301303.45,77.8062,-515.328,0,0
301563.775,77.5297,-514.554,0,0
301824.1,77.1885,-513.716,0,0
302084.425,76.8924,-512.923,0,0
302344.75,76.6084,-512.144,0,0
302605.075,76.2735,-511.315,0,0
302865.4,75.9888,-510.502,0,0
303125.725,75.7404,-509.731,0,0
303386.05,75.3923,-508.873,0,0
303646.375,75.1451,-508.085,0,0
303906.7,74.8964,-507.213,0,0
304167.025,74.7039,-506.361,0,0
304427.35,74.5006,-505.605,0,0
304687.675,74.2372,-504.819,0,0
304948.0,74.0566,-504.018,0,0
305208.325,73.8597,-503.308,0,0
305468.65,73.7076,-502.516,0,0
305728.975,73.4656,-501.762,0,0
305989.3,73.2758,-501.047,0,0
306249.625,73.0545,-500.293,0,0
306509.95,72.9033,-499.635,0,0
306770.275,72.6892,-498.929,0,0
307030.6,72.4312,-498.237,0,0
307290.925,72.1292,-497.555,0,0
307551.25,71.9219,-496.873,0,0
307811.575,71.563,-496.166,0,0
308071.9,71.2864,-495.496,0,0
308332.225,71.0317,-494.763,0,0
308592.55,70.7631,-494.023,0,0
308852.875,70.4634,-493.327,0,0
309113.2,70.2389,-492.594,0,0
309373.525,69.9764,-491.881,0,0
309633.85,69.7045,-491.151,0,0
309894.175,69.4602,-490.412,0,0
310154.5,69.222,-489.72,0,0
310414.825,68.9807,-488.995,0,0
310675.15,68.7466,-488.204,0,0
310935.475,68.4498,-487.544,0,0
311195.8,68.1954,-486.862,0,0
311456.125,67.9766,-486.181,0,0
311716.45,67.764,-485.481,0,0
311976.775,67.4836,-484.761,0,0
312237.1,67.2279,-484.057,0,0
312497.425,67.009,-483.298,0,0
312757.75,66.706,-482.628,0,0
313018.075,66.4345,-481.851,0,0
313278.4,66.2051,-481.154,0,0
313538.725,66.0057,-480.392,0,0
313799.05,65.7335,-479.713,0,0
314059.375,65.4392,-479.003,0,0
314319.7,65.2385,-478.249,0,0
314580,64.9889,-477.581,0,0
314840,64.7961,-476.783,0,0
315101,64.5338,-476.101,0,0
315361,64.2949,-475.358,0,0
315621,64.1432,-474.643,0,0
315882,63.9114,-473.914,0,0
316142,63.7138,-473.181,0,0
316402,63.4945,-472.508,0,0
316663,63.2596,-471.764,0,0
316923,63.1043,-471.063,0,0
317183,62.8462,-470.392,0,0
317444,62.7352,-469.725,0,0
317704,62.4506,-469.03,0,0
317964,62.2863,-468.332,0,0
318225,62.1112,-467.615,0,0
318485,61.8876,-466.855,0,0
318745,61.628,-466.174,0,0
319006,61.4366,-465.536,0,0
319266,61.2709,-464.728,0,0
319526,61.1049,-464.029,0,0
319787,60.9062,-463.347,0,0
320047,60.684,-462.627,0,0
320307,60.5622,-461.941,0,0
320567,60.3632,-461.19,0,0
320828,60.1927,-460.497,0,0
321088,60.0532,-459.801,0,0
321348,59.8906,-459.108,0,0
321609,59.7559,-458.401,0,0
321869,59.5565,-457.664,0,0
322129,59.4137,-457.046,0,0
322390,59.2939,-456.353,0,0
322650,59.1344,-455.658,0,0
322910,59.052,-454.997,0,0
323171,58.8362,-454.372,0,0
323431,58.7333,-453.679,0,0
323691,58.5814,-453.009,0,0
323952,58.4919,-452.368,0,0
324212,58.3059,-451.751,0,0
324472,58.1292,-451.057,0,0
324733,58.0233,-450.459,0,0
324993,57.8196,-449.819,0,0
325253,57.6876,-449.16,0,0
325514,57.5588,-448.52,0,0
325774,57.399,-447.824,0,0
326034,57.1905,-447.236,0,0
326295,57.0449,-446.574,0,0
326555,56.8418,-445.916,0,0
326815,56.7432,-445.274,0,0
327076,56.6084,-444.632,0,0
327336,56.4233,-443.967,0,0
327596,56.2393,-443.312,0,0
327857,56.0949,-442.669,0,0
328117,55.9343,-441.999,0,0
328377,55.7675,-441.355,0,0
328638,55.6546,-440.661,0,0
328898,55.4769,-439.985,0,0
329158,55.3872,-439.368,0,0
329419,55.2417,-438.705,0,0
329679,55.0583,-438.034,0,0
329939,54.9777,-437.331,0,0
330200,54.8358,-436.71,0,0
330460,54.6983,-436.048,0,0
330720.15,54.5557,-435.399,0,0
330980.475,54.4087,-434.706,0,0
331240.8,54.3461,-434.081,0,0
331501.125,54.209,-433.409,0,0
331761.45,54.1376,-432.758,0,0
332021.775,53.9452,-432.07,0,0
332282.1,53.8695,-431.449,0,0
332542.425,53.7603,-430.816,0,0
332802.75,53.6565,-430.1,0,0
333063.075,53.5819,-429.469,0,0
333323.4,53.4789,-428.831,0,0
333583.725,53.3931,-428.19,0,0
333844.05,53.3443,-427.589,0,0
334104.375,53.227,-426.9,0,0
334364.7,53.1419,-426.221,0,0
334625.025,53.0978,-425.647,0,0
334885.35,52.9309,-424.986,0,0
335145.675,52.946,-424.331,0,0
335406.0,52.8381,-423.725,0,0
335666.325,52.7973,-423.135,0,0
335926.65,52.7342,-422.493,0,0
336186.975,52.6338,-421.888,0,0
336447.3,52.5306,-421.266,0,0
336707.625,52.5022,-420.686,0,0
336967.95,52.4501,-420.12,0,0
337228.275,52.3777,-419.479,0,0
337488.6,52.2846,-418.861,0,0
337748.925,52.227,-418.247,0,0
338009.25,52.1459,-417.679,0,0
338269.575,52.024,-417.052,0,0
338529.9,52.0111,-416.394,0,0
338790.225,51.9472,-415.795,0,0
339050.55,51.8911,-415.226,0,0
339310.875,51.7406,-414.617,0,0
339571.2,51.7191,-414.01,0,0
339831.525,51.6525,-413.334,0,0
340091.85,51.5625,-412.789,0,0
340352.175,51.5034,-412.163,0,0
340612.5,51.4463,-411.539,0,0
340872.825,51.4204,-410.928,0,0
341133.15,51.4093,-410.323,0,0
341393.475,51.3342,-409.699,0,0
341653.8,51.3155,-409.119,0,0
341914.125,51.2851,-408.484,0,0
342174.45,51.2478,-407.887,0,0
342434.775,51.2079,-407.309,0,0
342695.1,51.2517,-406.67,0,0
342955.425,51.2234,-406.103,0,0
343215.75,51.2777,-405.545,0,0
343476.075,51.2593,-405.037,0,0
343736.4,51.2637,-404.483,0,0
343996.725,51.2796,-403.932,0,0
344257.05,51.1938,-403.399,0,0
344517.375,51.1603,-402.916,0,0
344777.7,51.0931,-402.444,0,0
345038.025,51.0328,-401.88,0,0
345298.35,50.9647,-401.308,0,0
345558.675,50.889,-400.765,0,0
345819.0,50.8168,-400.2,0,0
346079.325,50.7059,-399.625,0,0
346339.65,50.7071,-399.07,0,0
346599.975,50.6443,-398.493,0,0
346860,50.5859,-397.94,0,0
347121,50.5494,-397.315,0,0
347381,50.4552,-396.76,0,0
347641,50.4713,-396.144,0,0
347902,50.4616,-395.565,0,0
348162,50.4302,-394.992,0,0
348422,50.4475,-394.409,0,0
348683,50.4387,-393.842,0,0
348943,50.4035,-393.302,0,0
349203,50.4278,-392.699,0,0
349464,50.4429,-392.158,0,0
349724,50.4519,-391.607,0,0
349984,50.4707,-391.082,0,0
350245,50.4917,-390.532,0,0
350505,50.5001,-389.97,0,0
350765,50.5391,-389.439,0,0
351025,50.5349,-388.898,0,0
351286,50.5741,-388.384,0,0
351546,50.6135,-387.879,0,0
351806,50.6239,-387.327,0,0
352067,50.6431,-386.826,0,0
352327,50.6844,-386.314,0,0
352587,50.733,-385.822,0,0
352848,50.7698,-385.329,0,0
353108,50.7833,-384.838,0,0
353368,50.8286,-384.33,0,0
353629,50.8279,-383.884,0,0
353889,50.8732,-383.444,0,0
354149,50.8599,-382.958,0,0
354410,50.8848,-382.476,0,0
354670,50.9313,-382.056,0,0
354930,50.8895,-381.599,0,0
355191,50.9219,-381.142,0,0
355451,50.8953,-380.705,0,0
355711,50.8713,-380.272,0,0
355972,50.8747,-379.819,0,0
356232,50.8432,-379.365,0,0
356492,50.8485,-378.896,0,0
356753,50.7749,-378.468,0,0
357013,50.7444,-378.02,0,0
357273,50.7173,-377.526,0,0
357534,50.7104,-377.081,0,0
357794,50.6489,-376.609,0,0
358054,50.6595,-376.114,0,0
358315,50.6395,-375.66,0,0
358575,50.6187,-375.206,0,0
358835,50.5875,-374.713,0,0
359096,50.5683,-374.361,0,0
359356,50.5382,-373.85,0,0
359616,50.4922,-373.45,0,0
359877,50.4748,-372.967,0,0
360137,50.4155,-372.55,0,0
360397,50.4061,-372.101,0,0
360658,50.3268,-371.655,0,0
360918,50.3034,-371.202,0,0
361178,50.2599,-370.752,0,0
361438,50.1928,-370.294,0,0
361699,50.1387,-369.812,0,0
361959,50.0299,-369.364,0,0
362219,49.9848,-368.874,0,0
362480,49.9363,-368.385,0,0
362740.1,49.8706,-367.935,0,0
363000.425,49.8246,-367.436,0,0
363260.75,49.7707,-366.963,0,0
363521.075,49.7257,-366.469,0,0
363781.4,49.6952,-365.981,0,0
364041.725,49.6768,-365.503,0,0
364302.05,49.6259,-364.997,0,0
364562.375,49.5696,-364.467,0,0
364822.7,49.5705,-364.044,0,0
365083.025,49.5293,-363.514,0,0
365343.35,49.5103,-363.026,0,0
365603.675,49.4883,-362.539,0,0
365864.0,49.4701,-362.062,0,0
366124.325,49.4855,-361.564,0,0
366384.65,49.4681,-361.082,0,0
366644.975,49.4353,-360.61,0,0
366905.3,49.4809,-360.119,0,0
367165.625,49.4741,-359.643,0,0
367425.95,49.4443,-359.2,0,0
367686.275,49.4818,-358.712,0,0
367946.6,49.4187,-358.28,0,0
368206.925,49.441,-357.825,0,0
368467.25,49.41,-357.338,0,0
368727.575,49.4022,-356.868,0,0
368987.9,49.378,-356.424,0,0
369248.225,49.408,-355.966,0,0
369508.55,49.3611,-355.483,0,0
369768.875,49.3708,-355.05,0,0
370029.2,49.3285,-354.536,0,0
370289.525,49.3433,-354.081,0,0
370549.85,49.3195,-353.653,0,0
370810.175,49.3528,-353.157,0,0
371070.5,49.3813,-352.687,0,0
371330.825,49.3853,-352.209,0,0
371591.15,49.4059,-351.776,0,0
371851.475,49.4275,-351.33,0,0
372111.8,49.4552,-350.883,0,0
372372.125,49.4918,-350.455,0,0
372632.45,49.5049,-350.022,0,0
372892.775,49.5537,-349.604,0,0
373153.1,49.5708,-349.181,0,0
373413.425,49.5839,-348.797,0,0
373673.75,49.6315,-348.43,0,0
373934.075,49.6085,-348.052,0,0
374194.4,49.5761,-347.676,0,0
374454.725,49.5582,-347.32,0,0
374715.05,49.47,-346.999,0,0
374975.375,49.4087,-346.608,0,0
375235.7,49.3383,-346.201,0,0
375496.025,49.2391,-345.818,0,0
375756.35,49.1685,-345.424,0,0
376016.675,49.0943,-344.988,0,0
376277.0,48.986,-344.56,0,0
376537.325,48.8823,-344.118,0,0
376797.65,48.8041,-343.662,0,0
377057.975,48.6843,-343.178,0,0
377318.3,48.6642,-342.728,0,0
377578.625,48.5657,-342.29,0,0
377838.95,48.4961,-341.817,0,0
378099.275,48.3992,-341.355,0,0
378359.6,48.358,-340.851,0,0
378619.925,48.2471,-340.384,0,0
378880,48.2073,-339.913,0,0
379141,48.135,-339.437,0,0
379401,48.0559,-338.95,0,0
379661,47.9799,-338.474,0,0
379922,47.9413,-337.957,0,0
380182,47.8594,-337.424,0,0
380442,47.8209,-336.952,0,0
380703,47.7699,-336.427,0,0
380963,47.7032,-335.894,0,0
381223,47.6967,-335.375,0,0
381483,47.628,-334.858,0,0
381744,47.6023,-334.3,0,0
382004,47.5877,-333.772,0,0
382264,47.6633,-333.18,0,0
382525,47.6997,-332.683,0,0
382785,47.7182,-332.152,0,0
383045,47.7806,-331.673,0,0
383306,47.8854,-331.233,0,0
383566,47.9504,-330.796,0,0
383826,47.9943,-330.373,0,0
384087,47.9794,-329.993,0,0
384347,47.9577,-329.577,0,0
384607,47.9778,-329.157,0,0
384868,47.8988,-328.756,0,0
385128,47.828,-328.296,0,0
385388,47.7785,-327.795,0,0
385649,47.7457,-327.377,0,0
385909,47.6841,-326.886,0,0
386169,47.6773,-326.402,0,0
386430,47.6193,-325.905,0,0
386690,47.5839,-325.443,0,0
386950,47.5625,-324.937,0,0
387211,47.5163,-324.471,0,0
387471,47.4896,-323.962,0,0
387731,47.4676,-323.444,0,0
387992,47.4249,-322.959,0,0
388252,47.3937,-322.437,0,0
388512,47.4101,-321.981,0,0
388773,47.4026,-321.447,0,0
389033,47.3862,-320.95,0,0
389293,47.3773,-320.463,0,0
389554,47.369,-319.954,0,0
389814,47.3468,-319.468,0,0
390074,47.3314,-318.967,0,0
390335,47.3333,-318.439,0,0
390595,47.3454,-317.947,0,0
390855,47.3267,-317.445,0,0
391116,47.3231,-316.919,0,0
391376,47.3234,-316.401,0,0
391636,47.3471,-315.911,0,0
391896,47.3174,-315.402,0,0
392157,47.3216,-314.867,0,0
392417,47.298,-314.372,0,0
392677,47.335,-313.874,0,0
392938,47.3284,-313.354,0,0
393198,47.3549,-312.835,0,0
393458,47.3417,-312.306,0,0
393719,47.3283,-311.814,0,0
393979,47.358,-311.27,0,0
394239,47.3832,-310.724,0,0
394500,47.3727,-310.213,0,0
394760.05,47.3945,-309.688,0,0
395020.375,47.4071,-309.194,0,0
395280.7,47.4331,-308.66,0,0
395541.025,47.4549,-308.111,0,0
395801.35,47.4673,-307.576,0,0
396061.675,47.4974,-307.044,0,0
396322.0,47.5136,-306.523,0,0
396582.325,47.545,-305.98,0,0
396842.65,47.5829,-305.455,0,0
397102.975,47.6222,-304.923,0,0
397363.3,47.6487,-304.375,0,0
397623.625,47.6767,-303.829,0,0
397883.95,47.7328,-303.294,0,0
398144.275,47.7421,-302.767,0,0
398404.6,47.7831,-302.232,0,0
398664.925,47.8552,-301.673,0,0
398925.25,47.8944,-301.132,0,0
399185.575,47.9463,-300.573,0,0
399445.9,47.9828,-300.012,0,0
399706.225,48.057,-299.488,0,0
399966.55,48.1168,-298.947,0,0
400006.6,48.125,-298.839,0,0