File: Accelerated corrosion test data/2025-10-11_18-00-03/sample_1.csv
Frequency (Hz),Impedance (ohms),Phase (Radians),Temperature (C),Humidity (%)
10000.0,237.956,-12183.5,0,0
10260.325,236.976,-11869.7,0,0
10520.65,228.163,-11590.6,0,0
10780.975,223.754,-11306.8,0,0
11041.3,217.616,-11047,0,0
11301.625,212.186,-10790.3,0,0
11561.95,208.288,-10547.2,0,0
11822.275,205.514,-10309.1,0,0
12082.6,223.03,-10079.8,0,0
12342.925,209.636,-9903.95,0,0
12603.25,192.552,-9692.28,0,0
12863.575,189.113,-9491.24,0,0
13123.9,197.883,-9297.72,0,0
13384.225,183.347,-9128.6,0,0
13644.55,180.018,-8948.62,0,0
13904.875,179.843,-8771.35,0,0
14165.2,192.007,-8636.65,0,0
14425.525,207.738,-8462.94,0,0
14685.8,197.879,-8301.62,0,0
14946.175,176.353,-8202.85,0,0
15206.5,181.067,-8039.13,0,0
15466.825,171.723,-7924.67,0,0
15727.15,171.805,-7790.97,0,0
15987.5,159.62,-7664.45,0,0
16247.8,155.897,-7538.06,0,0
16508.125,153.799,-7415.53,0,0
16768.45,157.665,-7297.91,0,0
17028.775,161.327,-7190.55,0,0
17289.1,152.767,-7088.19,0,0
17549.425,152.067,-6984.65,0,0
17809.75,144.224,-6880.98,0,0
18070.075,147.643,-6780.98,0,0
18330.4,141.099,-6686.1,0,0
18590.725,136.439,-6591.63,0,0
18851.05,136.908,-6493.38,0,0
19111.375,134.362,-6412.82,0,0
19371.7,131.792,-6320.75,0,0
19632.025,130.789,-6232.16,0,0
19892.35,135.399,-6146.38,0,0
20152.675,134.136,-6059.72,0,0
20413.0,153.626,-5971.3,0,0
20673.3,166.125,-5929.73,0,0
20933.65,149.035,-5860.49,0,0
21193.975,159.369,-5797.69,0,0
21454.3,140.732,-5725.06,0,0
21714.625,136.837,-5655.17,0,0
21974.9,137.095,-5572.9,0,0
22235.275,172.096,-5527.57,0,0
22495.6,140.642,-5487.54,0,0
22755.925,126.05,-5418.61,0,0
23016.25,121.863,-5351.95,0,0
23276.6,118.162,-5290.73,0,0
23536.9,114.337,-5229.78,0,0
23797.225,111.716,-5168.89,0,0
24057.55,113.929,-5108.48,0,0
24317.875,111.808,-5060.02,0,0
24578.2,110.078,-5000.45,0,0
24838.525,109.936,-4950.54,0,0
25098.85,109.863,-4896.8,0,0
25359.175,104.848,-4847.73,0,0
25619.5,104.392,-4796.54,0,0
25879.8,102.479,-4745.31,0,0
26140.1,102.441,-4696.25,0,0
26400.5,101.554,-4646.46,0,0
26660.8,103.873,-4596.16,0,0
26921.1,113.056,-4547.91,0,0
27181.4,119.838,-4515.29,0,0
27441.8,109.722,-4481.29,0,0
27702.1,102.557,-4432.72,0,0
27962.4,109.81,-4383.14,0,0
28222.7,109.567,-4344.79,0,0
28483.1,119.763,-4301.7,0,0
28743.4,129.155,-4282.81,0,0
29003.7,116.332,-4246.3,0,0
29264,117.239,-4211.41,0,0
29524.4,106.622,-4178.53,0,0
29784.7,104.459,-4136.26,0,0
30045,100.546,-4104.23,0,0
30305.3,99.0615,-4065.8,0,0
30565.7,95.9788,-4027.22,0,0
30826,99.9862,-3992.05,0,0
31086.3,102.351,-3963.16,0,0
31346.6,99.0129,-3934.7,0,0
31607,93.271,-3897.33,0,0
31867.3,96.7093,-3864.19,0,0
32127.6,97.1439,-3833.66,0,0
32387.9,97.4311,-3807.49,0,0
32648.3,92.9725,-3775.59,0,0
32908.6,95.2758,-3747.49,0,0
33168.9,90.4348,-3719.5,0,0
33429.2,88.1667,-3690.95,0,0
33689.6,85.5144,-3661.28,0,0
33949.9,84.8998,-3630.28,0,0
34210.2,85.7937,-3604.3,0,0
34470.5,82.98,-3577.2,0,0
34730.9,81.3416,-3549.31,0,0
34991.2,80.6469,-3522.27,0,0
35251.5,79.6805,-3495.28,0,0
35511.8,78.7558,-3469.06,0,0
35772.2,78.5244,-3443.55,0,0
36032.5,77.3082,-3418.14,0,0
36292.8,76.6068,-3392.93,0,0
36553.1,75.9445,-3367.99,0,0
36813.5,75.5457,-3343.44,0,0
37073.8,75.398,-3319.6,0,0
37334.1,74.8279,-3296.14,0,0
37594.4,74.3926,-3272.73,0,0
37854.8,73.4488,-3250.32,0,0
38115.1,73.0335,-3227.05,0,0
38375.4,72.5827,-3204.8,0,0
38635.7,72.4187,-3182.86,0,0
38896.1,71.8735,-3160.69,0,0
39156.4,71.7327,-3138.88,0,0
39416.7,71.877,-3118.42,0,0
39677,70.8821,-3097.47,0,0
39937.4,70.7249,-3076.38,0,0
40197.7,70.7424,-3055.94,0,0
40458,70.3884,-3035.75,0,0
40718.3,70.3596,-3015.11,0,0
40978.7,71.5813,-2995.72,0,0
41239,71.6264,-2977.72,0,0
41499.3,71.1041,-2959.3,0,0
41759.6,70.4968,-2940.77,0,0
42020,69.7658,-2922,0,0
42280.275,69.6796,-2903.48,0,0
42540.6,70.0759,-2885.57,0,0
42800.925,69.6011,-2868.61,0,0
43061.25,69.0059,-2850.63,0,0
43321.575,68.7873,-2833.5,0,0
43581.9,68.2484,-2816.31,0,0
43842.225,67.4639,-2799.03,0,0
44102.55,67.5739,-2781.35,0,0
44362.875,68.5233,-2764.72,0,0
44623.2,68.6734,-2749.26,0,0
44883.525,67.8762,-2733.25,0,0
45143.85,67.9864,-2717.55,0,0
45404.175,68.2051,-2701.7,0,0
45664.5,67.276,-2687.21,0,0
45924.825,66.3223,-2671.45,0,0
46185.15,66.2717,-2656.39,0,0
46445.475,65.156,-2641.31,0,0
46705.8,64.7511,-2625.86,0,0
46966.125,64.481,-2611.22,0,0
47226.45,64.0886,-2596.15,0,0
47486.775,64.2735,-2581.73,0,0
47747.1,63.3621,-2567.59,0,0
48007.425,62.9925,-2553.26,0,0
48267.75,63.1104,-2539.12,0,0
48528.075,62.2643,-2526.13,0,0
48788.4,61.3959,-2511.61,0,0
49048.725,61.0675,-2497.69,0,0
49309.05,61.0058,-2483.71,0,0
49569.375,60.9384,-2470.63,0,0
49829.7,60.6656,-2457.67,0,0
50090.025,59.8702,-2444.6,0,0
50350.35,59.308,-2431.18,0,0
50610.675,59.0868,-2417.97,0,0
50871.0,59.0025,-2404.99,0,0
51131.325,58.9998,-2392.34,0,0
51391.65,58.9839,-2379.95,0,0
51651.975,58.364,-2367.75,0,0
51912.3,58.1093,-2355.32,0,0
52172.625,57.7678,-2342.87,0,0
52432.95,57.7261,-2330.87,0,0
52693.275,57.5048,-2318.82,0,0
52953.6,57.3873,-2306.97,0,0
53213.925,57.3588,-2295.11,0,0
53474.25,57.2332,-2283.76,0,0
53734.575,57.2361,-2272.28,0,0
53994.9,56.9669,-2261.17,0,0
54255.225,56.4837,-2250.02,0,0
54515.55,56.1175,-2238.72,0,0
54775.875,55.6686,-2227.47,0,0
55036.2,55.5355,-2216.22,0,0
55296.525,55.8518,-2205.18,0,0
55556.85,55.6823,-2194.66,0,0
55817.175,55.2831,-2184.23,0,0
56077.5,54.7281,-2173.45,0,0
56337.825,54.6697,-2162.69,0,0
56598.15,54.7016,-2151.96,0,0
56858.475,54.7121,-2141.8,0,0
57118.8,54.5113,-2131.48,0,0
57379.125,54.2522,-2121.22,0,0
57639.45,54.5129,-2110.98,0,0
57899.775,54.3363,-2101.13,0,0
58160.1,54.4021,-2091.29,0,0
58420.4,54.3832,-2081.62,0,0
58680.7,54.0352,-2071.86,0,0
58941.1,53.991,-2062.14,0,0
59201.4,54.1875,-2052.36,0,0
59461.7,54.1954,-2043.41,0,0
59722,53.9464,-2033.9,0,0
59982.4,53.9821,-2024.6,0,0
60242.7,53.8871,-2015.39,0,0
60503,54.0387,-2006.14,0,0
60763.3,54.3182,-1997.53,0,0
61023.7,54.0673,-1988.96,0,0
61284,53.459,-1979.98,0,0
61544.3,53.0963,-1970.99,0,0
61804.6,53.2518,-1962.1,0,0
62065,53.0484,-1953.65,0,0
62325.3,52.5425,-1944.82,0,0
62585.6,52.4823,-1936.02,0,0
62845.9,52.3269,-1927.33,0,0
63106.3,52.3538,-1918.59,0,0
63366.6,52.2831,-1910.18,0,0
63626.9,52.2605,-1901.66,0,0
63887.2,52.3665,-1893.25,0,0
64147.6,52.4523,-1884.81,0,0
64407.9,52.5441,-1876.56,0,0
64668.2,52.789,-1868.18,0,0
64928.5,53.2745,-1859.97,0,0
65188.9,53.7827,-1852.1,0,0
65449.2,54.6297,-1844.51,0,0
65709.5,55.0468,-1837.43,0,0
65969.8,54.9116,-1830.34,0,0
66230.2,54.8563,-1823.28,0,0
66490.5,54.7193,-1815.89,0,0
66750.8,54.6534,-1808.67,0,0
67011.1,54.1066,-1801.57,0,0
67271.5,53.5893,-1794.09,0,0
67531.8,53.9034,-1786.14,0,0
67792.1,54.4138,-1779.47,0,0
68052.4,54.1155,-1773.04,0,0
68312.8,53.4563,-1765.83,0,0
68573.1,53.1502,-1758.41,0,0
68833.4,53.345,-1751.33,0,0
69093.7,53.2693,-1744.87,0,0
69354.1,52.8013,-1737.99,0,0
69614.4,52.706,-1731.25,0,0
69874.7,52.0796,-1724.62,0,0
70135,51.6027,-1717.88,0,0
70395.4,50.783,-1710.84,0,0
70655.7,50.5457,-1703.81,0,0
70916,50.3202,-1696.87,0,0
71176.3,50.2763,-1690.03,0,0
71436.7,50.1163,-1683.46,0,0
71697,49.7544,-1676.95,0,0
71957.3,49.1669,-1670.23,0,0
72217.6,48.7486,-1663.48,0,0
72478,48.4232,-1656.54,0,0
72738.3,48.2123,-1649.52,0,0
72998.6,48.099,-1642.74,0,0
73258.9,48.2143,-1636.09,0,0
73519.3,48.1465,-1629.56,0,0
73779.6,48.0023,-1623.02,0,0
74039.9,48.0044,-1616.39,0,0
74300.225,48.0881,-1610.05,0,0
74560.55,48.0685,-1603.59,0,0
74820.875,48.2229,-1597.06,0,0
75081.2,48.4396,-1590.87,0,0
75341.525,48.5085,-1584.71,0,0
75601.85,48.4506,-1578.43,0,0
75862.175,48.5531,-1572.07,0,0
76122.5,48.8433,-1565.86,0,0
76382.825,49.1279,-1559.89,0,0
76643.15,49.3705,-1553.96,0,0
76903.475,49.5311,-1547.98,0,0
77163.8,49.7714,-1542.12,0,0
77424.125,50.0173,-1536.4,0,0
77684.45,50.143,-1530.65,0,0
77944.775,50.3291,-1524.77,0,0
78205.1,50.657,-1518.94,0,0
78465.425,51.1919,-1513.24,0,0
78725.75,51.6912,-1508.15,0,0
78986.075,51.7597,-1503.06,0,0
79246.4,51.7268,-1497.92,0,0
79506.725,51.612,-1492.67,0,0
79767.05,51.2469,-1487.33,0,0
80027.375,51.2138,-1481.9,0,0
80287.7,51.1178,-1476.61,0,0
80548.025,50.6424,-1471.21,0,0
80808.35,50.5013,-1465.59,0,0
81068.675,50.3574,-1459.99,0,0
81329.0,50.4329,-1454.28,0,0
81589.325,50.5373,-1448.85,0,0
81849.65,50.691,-1443.33,0,0
82109.975,50.889,-1437.96,0,0
82370.3,51.0278,-1432.74,0,0
82630.625,51.0267,-1427.44,0,0
82890.95,51.1693,-1421.99,0,0
83151.275,51.5525,-1416.57,0,0
83411.6,51.8688,-1411.39,0,0
83671.925,52.0981,-1406.26,0,0
83932.25,52.4193,-1401.06,0,0
84192.575,52.7333,-1396,0,0
84452.9,53.0449,-1390.9,0,0
84713.225,53.4369,-1385.85,0,0
84973.55,53.8503,-1380.77,0,0
85233.875,54.4534,-1375.84,0,0
85494.2,54.9899,-1371.25,0,0
85754.525,55.265,-1366.71,0,0
86014.85,55.5031,-1362.09,0,0
86275.175,55.6976,-1357.52,0,0
86535.5,55.8815,-1352.88,0,0
86795.825,56.0314,-1348.32,0,0
87056.15,56.0974,-1343.58,0,0
87316.475,56.4777,-1338.92,0,0
87576.8,56.5942,-1334.54,0,0
87837.125,56.3859,-1330.02,0,0
88097.45,56.2646,-1325.11,0,0
88357.775,56.2961,-1320.22,0,0
88618.1,56.6358,-1314.98,0,0
88878.425,57.0831,-1310.23,0,0
89138.75,57.5466,-1305.31,0,0
89399.075,57.9765,-1300.47,0,0
89659.4,58.6784,-1295.6,0,0
89919.725,59.5226,-1290.92,0,0
90180,60.2222,-1286.46,0,0
90440.4,60.8909,-1282.03,0,0
90700.7,61.5246,-1277.35,0,0
90961,62.5225,-1272.44,0,0
91221.3,63.8687,-1267.98,0,0
91481.7,65.352,-1263.83,0,0
91742,66.8729,-1260,0,0
92002.3,67.8508,-1256.43,0,0
92262.6,68.8527,-1252.54,0,0
92523,70.1153,-1248.68,0,0
92783.3,71.9306,-1245.08,0,0
93043.6,73.7249,-1242.27,0,0
93303.9,75.0425,-1239.69,0,0
93564.3,76.4508,-1237.25,0,0
93824.6,78.4074,-1235.75,0,0
94084.9,78.6067,-1236.12,0,0
94345.2,76.1941,-1235.62,0,0
94605.6,73.3761,-1232.37,0,0
94865.9,72.2365,-1228.83,0,0
95126.2,70.6537,-1225.62,0,0
95386.5,69.4738,-1221.82,0,0
95646.9,68.025,-1217.99,0,0
95907.2,66.7055,-1213.71,0,0
96167.5,65.9393,-1209.02,0,0
96427.8,66.0881,-1204.65,0,0
96688.2,65.8396,-1201.17,0,0
96948.5,65.1044,-1197.26,0,0
97208.8,64.5205,-1193.08,0,0
97469.1,64.1225,-1188.8,0,0
97729.5,63.8632,-1184.48,0,0
97989.8,63.8488,-1180.3,0,0
98250.1,63.9709,-1176.17,0,0
98510.4,64.1058,-1172.37,0,0
98770.8,64.0045,-1168.77,0,0
99031.1,63.6363,-1164.87,0,0
99291.4,63.4553,-1160.86,0,0
99551.7,63.3325,-1156.86,0,0
99812.1,63.123,-1152.79,0,0
100072,63.2068,-1148.67,0,0
100333,63.2842,-1144.76,0,0
100593,63.2599,-1140.74,0,0
100853,63.3375,-1136.75,0,0
101114,63.3788,-1132.77,0,0
101374,63.31,-1128.85,0,0
101634,63.2264,-1124.78,0,0
101895,63.1219,-1120.67,0,0
102155,63.0343,-1116.15,0,0
102415,63.1968,-1111.39,0,0
102676,63.9182,-1106.5,0,0
102936,65.173,-1102.08,0,0
103196,66.1998,-1098.03,0,0
103457,67.2669,-1094.05,0,0
103717,68.2463,-1090.03,0,0
103977,69.3753,-1085.95,0,0
104238,71.0286,-1081.89,0,0
104498,72.8085,-1078.62,0,0
104758,74.1571,-1075.66,0,0
105019,75.1249,-1072.64,0,0
105279,75.9335,-1069.35,0,0
105539,77.0644,-1065.79,0,0
105800,78.489,-1062.49,0,0
106060,79.9932,-1059.38,0,0
106320.175,81.5685,-1056.51,0,0
106580.5,82.9864,-1053.85,0,0
106840.825,84.3049,-1051.39,0,0
107101.15,85.4325,-1048.89,0,0
107361.475,86.7601,-1046.4,0,0
107621.8,88.0409,-1044.22,0,0
107882.125,88.9612,-1042.22,0,0
108142.45,89.7382,-1040.09,0,0
108402.775,90.6255,-1037.83,0,0
108663.1,91.6209,-1035.72,0,0
108923.425,92.5239,-1033.82,0,0
109183.75,93.2828,-1032.03,0,0
109444.075,93.9663,-1030.49,0,0
109704.4,94.4202,-1029.06,0,0
109964.725,94.3618,-1027.64,0,0
110225.05,93.9062,-1025.88,0,0
110485.375,93.3446,-1023.9,0,0
110745.7,93.0248,-1021.13,0,0
111006.025,93.0606,-1018.45,0,0
111266.35,93.2071,-1015.93,0,0
111526.675,93.9979,-1013.38,0,0
111787.0,94.4228,-1011.2,0,0
112047.325,94.7863,-1009.31,0,0
112307.65,95.1102,-1007.32,0,0
112567.975,95.466,-1005.49,0,0
112828.3,95.6302,-1003.77,0,0
113088.625,95.6583,-1002.1,0,0
113348.95,95.6418,-1000.48,0,0
113609.275,95.465,-998.836,0,0
113869.6,95.1007,-997.382,0,0
114129.925,94.3803,-995.813,0,0
114390.25,93.5549,-993.928,0,0
114650.575,92.9712,-991.821,0,0
114910.9,92.3185,-989.825,0,0
115171.225,91.4597,-987.9,0,0
115431.55,90.6083,-985.821,0,0
115691.875,89.5368,-983.731,0,0
115952.2,88.3813,-981.321,0,0
116212.525,87.3986,-978.56,0,0
116472.85,86.558,-975.861,0,0
116733.175,85.7474,-973.149,0,0
116993.5,85.0122,-970.497,0,0
117253.825,84.1386,-967.717,0,0
117514.15,83.254,-964.716,0,0
117774.475,82.5539,-961.603,0,0
118034.8,81.9979,-958.425,0,0
118295.125,81.696,-955.284,0,0
118555.45,81.2848,-952.272,0,0
118815.775,80.9192,-949.123,0,0
119076.1,80.678,-945.918,0,0
119336.425,80.6739,-942.801,0,0
119596.75,80.6382,-939.742,0,0
119857.075,80.8002,-936.718,0,0
120117.4,81.0535,-933.928,0,0
120377.725,81.1723,-931.248,0,0
120638.05,81.3653,-928.649,0,0
120898.375,81.4235,-926.196,0,0
121158.7,81.2925,-923.871,0,0
121419.025,80.974,-921.303,0,0
121679.35,80.7404,-918.713,0,0
121939.675,80.3699,-916.075,0,0
122200.0,79.9595,-913.285,0,0
122460,79.7101,-910.432,0,0
122721,79.4972,-907.544,0,0
122981,79.352,-904.762,0,0
123241,79.0674,-901.894,0,0
123502,78.8715,-898.909,0,0
123762,78.7492,-895.945,0,0
124022,78.6657,-892.87,0,0
124283,78.7115,-889.843,0,0
124543,78.8539,-886.784,0,0
124803,78.9619,-883.863,0,0
125064,79.1092,-880.986,0,0
125324,79.1767,-878.045,0,0
125584,79.3975,-875.033,0,0
125845,79.6902,-872.146,0,0
126105,79.9416,-869.302,0,0
126365,80.2245,-866.335,0,0
126626,80.5499,-863.587,0,0
126886,80.8364,-860.769,0,0
127146,81.1095,-857.958,0,0
127406,81.4723,-855.073,0,0
127667,81.6942,-852.391,0,0
127927,82.1778,-849.469,0,0
128187,82.5376,-846.491,0,0
128448,83.1266,-843.642,0,0
128708,83.6915,-840.917,0,0
128968,84.1375,-838.249,0,0
129229,84.5617,-835.437,0,0
129489,85.048,-832.577,0,0
129749,85.6373,-829.641,0,0
130010,86.4677,-826.648,0,0
130270,87.5172,-823.835,0,0
130530,88.6273,-821.287,0,0
130791,89.6827,-818.896,0,0
131051,90.6754,-816.568,0,0
131311,91.6664,-814.378,0,0
131572,92.6143,-812.303,0,0
131832,93.417,-810.311,0,0
132092,94.1312,-808.355,0,0
132353,94.745,-806.396,0,0
132613,95.2193,-804.366,0,0
132873,95.7177,-802.279,0,0
133134,96.2629,-800.114,0,0
133394,96.8136,-798.043,0,0
133654,97.3575,-796.014,0,0
133915,97.8365,-793.889,0,0
134175,98.3878,-791.804,0,0
134435,98.9704,-789.796,0,0
134696,99.3229,-787.757,0,0
134956,99.6841,-785.622,0,0
135216,100.165,-783.383,0,0
135477,100.682,-781.168,0,0
135737,101.18,-779.004,0,0
135997,101.74,-776.763,0,0
136258,102.399,-774.48,0,0
136518,103.229,-772.202,0,0
136778,104.197,-770.073,0,0
137039,105.214,-768.17,0,0
137299,106.165,-766.404,0,0
137559,107.191,-764.677,0,0
137819,108.148,-763.376,0,0
138080,108.752,-762.31,0,0
138340.125,109.025,-761.067,0,0
138600.45,109.199,-759.694,0,0
138860.775,109.21,-758.339,0,0
139121.1,109.065,-756.709,0,0
139381.425,109.034,-754.821,0,0
139641.75,109.216,-753.03,0,0
139902.075,109.3,-751.333,0,0
140162.4,109.239,-749.622,0,0
140422.725,109.137,-747.711,0,0
140683.05,109.075,-745.745,0,0
140943.375,109.015,-743.689,0,0
141203.7,108.986,-741.569,0,0
141464.025,109.136,-739.404,0,0
141724.35,109.264,-737.353,0,0
141984.675,109.193,-735.234,0,0
142245.0,109.313,-732.835,0,0
142505.325,109.709,-730.565,0,0
142765.65,110.004,-728.573,0,0
143025.975,110.166,-726.443,0,0
143286.3,110.269,-724.31,0,0
143546.625,110.442,-721.991,0,0
143806.95,110.727,-719.657,0,0
144067.275,111.142,-717.272,0,0
144327.6,111.639,-715.081,0,0
144587.925,111.947,-712.827,0,0
144848.25,112.492,-710.412,0,0
145108.575,113.19,-708.239,0,0
145368.9,113.847,-706.137,0,0
145629.225,114.426,-704.149,0,0
145889.55,114.992,-702.148,0,0
146149.875,115.523,-700.226,0,0
146410.2,115.901,-698.279,0,0
146670.525,116.31,-696.094,0,0
146930.85,117.049,-693.958,0,0
147191.175,117.796,-692.197,0,0
147451.5,118.223,-690.582,0,0
147711.825,118.461,-688.789,0,0
147972.15,118.603,-686.878,0,0
148232.475,118.733,-684.718,0,0
148492.8,119.17,-682.389,0,0
148753.125,119.725,-680.251,0,0
149013.45,120.242,-678.136,0,0
149273.775,120.942,-676.096,0,0
149534.1,121.702,-674.252,0,0
149794.425,122.368,-672.653,0,0
150054.75,122.747,-671.269,0,0
150315.075,122.703,-669.807,0,0
150575.4,122.535,-668.056,0,0
150835.725,122.216,-666.187,0,0
151096.05,121.725,-664.033,0,0
151356.375,121.385,-661.46,0,0
151616.7,121.325,-658.799,0,0
151877.025,121.41,-656.151,0,0
152137.35,121.503,-653.605,0,0
152397.675,121.427,-650.963,0,0
152658.0,121.296,-648.088,0,0
152918.325,121.272,-644.851,0,0
153178.65,121.661,-641.405,0,0
153438.975,122.293,-638.078,0,0
153699.3,123.046,-634.811,0,0
153959.625,123.817,-631.545,0,0
154219.95,124.701,-628.13,0,0
154480,125.85,-624.705,0,0
154741,127.229,-621.349,0,0
155001,128.743,-618.045,0,0
155261,130.266,-614.907,0,0
155522,131.788,-611.638,0,0
155782,133.644,-608.207,0,0
156042,135.873,-604.958,0,0
156303,138.267,-601.987,0,0
156563,140.613,-599.265,0,0
156823,142.913,-596.498,0,0
157084,145.564,-593.715,0,0
157344,148.463,-591.284,0,0
157604,151.406,-589.361,0,0
157864,153.969,-587.787,0,0
158125,156.267,-586.128,0,0
158385,158.479,-584.287,0,0
158645,160.762,-582.664,0,0
158906,162.648,-581.043,0,0
159166,164.367,-578.956,0,0
159426,166.457,-576.518,0,0
159687,168.783,-573.829,0,0
159947,171.754,-571.019,0,0
160207,175.292,-568.659,0,0
160468,178.979,-566.705,0,0
160728,182.828,-565.003,0,0
160988,186.91,-563.778,0,0
161249,191.124,-562.921,0,0
161509,195.225,-562.635,0,0
161769,199.188,-562.834,0,0
162030,202.773,-563.517,0,0
162290,205.746,-564.458,0,0
162550,208.199,-565.245,0,0
162811,210.47,-565.762,0,0
163071,212.777,-566.108,0,0
163331,215.017,-566.547,0,0
163592,217.229,-566.79,0,0
163852,219.69,-567.126,0,0
164112,222.04,-567.678,0,0
164373,224.346,-568.278,0,0
164633,226.55,-569.041,0,0
164893,228.702,-569.639,0,0
165154,231.059,-570.386,0,0
165414,233.438,-571.384,0,0
165674,235.817,-572.482,0,0
165935,238.375,-574.002,0,0
166195,240.685,-576.117,0,0
166455,242.425,-578.61,0,0
166716,243.561,-581.115,0,0
166976,244.293,-583.371,0,0
167236,245.059,-585.502,0,0
167497,245.605,-587.908,0,0
167757,245.709,-590.237,0,0
168017,245.703,-592.513,0,0
168277,245.288,-594.895,0,0
168538,244.448,-597.162,0,0
168798,243.263,-599.2,0,0
169058,241.773,-600.953,0,0
169319,240.044,-602.425,0,0
169579,238.032,-603.664,0,0
169839,235.795,-604.355,0,0
170100,233.583,-604.496,0,0
170360.075,231.555,-604.241,0,0
170620.4,229.787,-603.581,0,0
170880.725,228.377,-602.932,0,0
171141.05,227.008,-602.275,0,0
171401.375,225.781,-601.424,0,0
171661.7,224.76,-600.535,0,0
171922.025,223.735,-599.784,0,0
172182.35,222.697,-598.882,0,0
172442.675,221.771,-597.873,0,0
172703.0,220.959,-596.869,0,0
172963.325,220.151,-595.797,0,0
173223.65,219.455,-594.687,0,0
173483.975,218.801,-593.54,0,0
173744.3,218.216,-592.378,0,0
174004.625,217.631,-591.105,0,0
174264.95,217.298,-589.743,0,0
174525.275,217.108,-588.495,0,0
174785.6,216.989,-587.366,0,0
175045.925,216.859,-586.29,0,0
175306.25,216.613,-585.167,0,0
175566.575,216.611,-583.819,0,0
175826.9,217.02,-582.732,0,0
176087.225,217.373,-582.165,0,0
176347.55,217.379,-581.697,0,0
176607.875,217.253,-581.21,0,0
176868.2,217.056,-580.725,0,0
177128.525,216.726,-580.165,0,0
177388.85,216.401,-579.472,0,0
177649.175,216.264,-578.793,0,0
177909.5,216.221,-578.388,0,0
178169.825,215.907,-578.311,0,0
178430.15,215.134,-578.203,0,0
178690.475,214.208,-577.85,0,0
178950.8,213.135,-577.38,0,0
179211.125,211.979,-576.696,0,0
179471.45,210.909,-575.813,0,0
179731.775,209.995,-574.95,0,0
179992.1,208.967,-574.329,0,0
180252.425,207.536,-573.642,0,0
180512.75,205.922,-572.59,0,0
180773.075,204.342,-571.241,0,0
181033.4,202.849,-569.801,0,0
181293.725,201.364,-568.139,0,0
181554.05,199.921,-566.288,0,0
181814.375,198.657,-564.327,0,0
182074.7,197.494,-562.365,0,0
182335.025,196.377,-560.404,0,0
182595.35,195.199,-558.474,0,0
182855.675,193.932,-556.374,0,0
183116.0,192.678,-554.172,0,0
183376.325,191.338,-551.82,0,0
183636.65,190.032,-549.205,0,0
183896.975,188.862,-546.368,0,0
184157.3,187.828,-543.355,0,0
184417.625,187.007,-540.222,0,0
184677.95,186.251,-537.081,0,0
184938.275,185.577,-533.675,0,0
185198.6,185.297,-530.056,0,0
185458.925,185.445,-526.529,0,0
185719.25,185.754,-523.298,0,0
185979.575,185.967,-520.16,0,0
186239.9,186.283,-516.926,0,0
186500,186.766,-513.747,0,0
186761,187.365,-510.685,0,0
187021,187.871,-507.678,0,0
187281,188.421,-504.621,0,0
187542,189.232,-501.501,0,0
187802,190.111,-498.638,0,0
188062,190.934,-495.976,0,0
188322,191.645,-493.122,0,0
188583,192.352,-490.347,0,0
188843,193.076,-487.536,0,0
189103,193.809,-484.674,0,0
189364,194.559,-481.821,0,0
189624,195.285,-478.85,0,0
189884,196.045,-475.739,0,0
190145,196.971,-472.612,0,0
190405,197.955,-469.55,0,0
190665,199.101,-466.391,0,0
190926,200.294,-463.352,0,0
191186,201.319,-460.307,0,0
191446,202.337,-457.216,0,0
191707,203.409,-453.86,0,0
191967,204.683,-450.355,0,0
192227,206.208,-446.858,0,0
192488,207.913,-443.456,0,0
192748,209.618,-440.163,0,0
193008,211.363,-436.791,0,0
193269,213.187,-433.343,0,0
193529,215.258,-430.034,0,0
193789,217.281,-426.804,0,0
194050,219.301,-423.623,0,0
194310,221.291,-420.291,0,0
194570,223.326,-416.864,0,0
194831,225.552,-413.312,0,0
195091,227.931,-409.707,0,0
195351,230.457,-406.164,0,0
195612,233.186,-402.61,0,0
195872,236.009,-399.15,0,0
196132,238.756,-395.711,0,0
196393,241.61,-392.106,0,0
196653,244.678,-388.34,0,0
196913,248.076,-384.621,0,0
197174,251.688,-381.029,0,0
197434,255.416,-377.533,0,0
197694,259.301,-374.109,0,0
197955,263.277,-370.549,0,0
198215,267.674,-367.199,0,0
198475,272.094,-364.057,0,0
198735,276.636,-361.098,0,0
198996,281.159,-358.47,0,0
199256,285.677,-355.776,0,0
199516,290.097,-353.133,0,0
199777,294.409,-350.461,0,0
200037,298.746,-347.479,0,0
200297,303.389,-344.33,0,0
200558,308.317,-341.04,0,0
200818,313.539,-337.63,0,0
201078,319.193,-334.386,0,0
201339,325.235,-331.123,0,0
201599,331.538,-327.893,0,0
201859,338.311,-324.752,0,0
202120,345.516,-321.756,0,0
202380.025,353.344,-318.999,0,0
202640.35,361.749,-316.856,0,0
202900.675,370.379,-315.483,0,0
203161.0,378.861,-314.617,0,0
203421.325,387.306,-313.866,0,0
203681.65,395.918,-313.115,0,0
203941.975,405.09,-312.526,0,0
204202.3,414.955,-312.568,0,0
204462.625,425.233,-313.395,0,0
204722.95,435.94,-315.103,0,0
204983.275,446.547,-318.115,0,0
205243.6,456.984,-322.136,0,0
205503.925,466.833,-327.29,0,0
205764.25,475.871,-332.998,0,0
206024.575,484.334,-339.17,0,0
206284.9,492.137,-345.747,0,0
206545.225,499.468,-352.427,0,0
206805.55,506.517,-359.563,0,0
207065.875,513.037,-367.402,0,0
207326.2,518.535,-375.64,0,0
207586.525,523.079,-383.897,0,0
207846.85,526.977,-392.008,0,0
208107.175,530.333,-400.003,0,0
208367.5,533.077,-407.917,0,0
208627.825,535.374,-415.61,0,0
208888.15,537.27,-423.215,0,0
209148.475,538.553,-430.936,0,0
209408.8,539.231,-438.29,0,0
209669.125,539.556,-445.446,0,0
209929.45,539.157,-452.48,0,0
210189.775,538.023,-459.2,0,0
210450.1,536.166,-465.057,0,0
210710.425,533.926,-469.966,0,0
210970.75,531.842,-473.914,0,0
211231.075,529.935,-477.224,0,0
211491.4,528.249,-479.947,0,0
211751.725,526.761,-482.238,0,0
212012.05,525.45,-484.091,0,0
212272.375,524.367,-485.355,0,0
212532.7,523.746,-485.918,0,0
212793.025,524.098,-485.882,0,0
213053.35,525.6,-485.909,0,0
213313.675,527.8,-486.551,0,0
213574.0,530.417,-487.823,0,0
213834.325,533.214,-489.669,0,0
214094.65,535.738,-492.017,0,0
214354.975,538.018,-494.469,0,0
214615.3,540.393,-496.934,0,0
214875.625,542.831,-499.638,0,0
215135.95,545.124,-502.531,0,0
215396.275,547.279,-505.28,0,0
215656.6,549.826,-508.132,0,0
215916.925,552.374,-511.486,0,0
216177.25,554.265,-515.212,0,0
216437.575,555.701,-518.554,0,0
216697.9,557.089,-521.439,0,0
216958.225,558.638,-523.914,0,0
217218.55,560.604,-525.972,0,0
217478.875,563.327,-527.983,0,0
217739.2,566.628,-530.446,0,0
217999.525,570.165,-533.519,0,0
218259.85,573.638,-537.106,0,0
218520,576.86,-541.007,0,0
218780,579.962,-544.924,0,0
219041,583.093,-548.787,0,0
219301,586.456,-552.777,0,0
219561,590.129,-556.921,0,0
219822,594.068,-561.544,0,0
220082,598.045,-566.618,0,0
220342,601.875,-572.226,0,0
220603,605.442,-578.078,0,0
220863,609.265,-584.095,0,0
221123,613.172,-590.534,0,0
221384,617.158,-597.686,0,0
221644,620.955,-605.542,0,0
221904,624.444,-614.041,0,0
222165,627.366,-623.24,0,0
222425,629.809,-633.019,0,0
222685,631.445,-643.244,0,0
222946,632.206,-653.632,0,0
223206,632.305,-664.237,0,0
223466,631.548,-674.711,0,0
223727,630.123,-685.108,0,0
223987,628.115,-695.321,0,0
224247,625.784,-705.194,0,0
224508,622.964,-714.796,0,0
224768,619.923,-724.518,0,0
225028,616.575,-734.182,0,0
225289,612.647,-743.815,0,0
225549,608.18,-753.281,0,0
225809,603.371,-762.348,0,0
226070,598.246,-771.353,0,0
226330,592.722,-780.265,0,0
226590,586.787,-789.073,0,0
226851,580.241,-797.83,0,0
227111,573.154,-806.268,0,0
227371,565.374,-814.44,0,0
227632,557.127,-822.004,0,0
227892,548.471,-829.005,0,0
228152,539.295,-835.474,0,0
228413,529.843,-841.24,0,0
228673,520.217,-846.264,0,0
228933,510.316,-850.73,0,0
229193,500.438,-854.276,0,0
229454,490.718,-857.153,0,0
229714,481.303,-859.504,0,0
229974,472.028,-861.436,0,0
230235,462.819,-862.847,0,0
230495,453.808,-863.692,0,0
230755,445.12,-864.29,0,0
231016,436.625,-864.362,0,0
231276,428.541,-864.041,0,0
231536,420.745,-863.474,0,0
231797,413.283,-862.696,0,0
232057,406.192,-861.633,0,0
232317,399.46,-860.483,0,0
232578,393.133,-859.154,0,0
232838,387.136,-857.941,0,0
233098,381.423,-856.711,0,0
233359,375.884,-855.557,0,0
233619,370.563,-854.484,0,0
233879,365.36,-853.574,0,0
234140,360.118,-852.639,0,0
234400,354.994,-851.701,0,0
234660.3,349.9,-850.742,0,0
234920.625,344.75,-849.68,0,0
235180.95,339.851,-848.753,0,0
235441.275,334.836,-847.847,0,0
235701.6,329.766,-846.673,0,0
235961.925,324.791,-845.494,0,0
236222.25,319.901,-844.118,0,0
236482.575,315.071,-842.822,0,0
236742.9,310.27,-841.389,0,0
237003.225,305.531,-839.867,0,0
237263.55,300.748,-838.273,0,0
237523.875,296.087,-836.443,0,0
237784.2,291.647,-834.514,0,0
238044.525,287.429,-832.572,0,0
238304.85,283.346,-830.665,0,0
238565.175,279.266,-828.883,0,0
238825.5,275.193,-827.039,0,0
239085.825,271.049,-825.06,0,0
239346.15,266.914,-823.166,0,0
239606.475,262.984,-820.931,0,0
239866.8,259.101,-818.774,0,0
240127.125,255.232,-816.271,0,0
240387.45,251.832,-813.904,0,0
240647.775,248.432,-811.581,0,0
240908.1,245.117,-809.246,0,0
241168.425,241.784,-807.047,0,0
241428.75,238.451,-804.732,0,0
241689.075,235.168,-802.418,0,0
241949.4,231.941,-799.883,0,0
242209.725,229.089,-797.209,0,0
242470.05,226.178,-794.747,0,0
242730.375,223.485,-792.346,0,0
242990.7,220.848,-789.935,0,0
243251.025,218.307,-787.57,0,0
243511.35,215.771,-785.216,0,0
243771.675,213.322,-782.833,0,0
244032.0,210.984,-780.574,0,0
244292.325,208.556,-778.339,0,0
244552.65,206.243,-776.147,0,0
244812.975,203.846,-774.066,0,0
245073.3,201.385,-771.818,0,0
245333.625,198.965,-769.566,0,0
245593.95,196.707,-767.233,0,0
245854.275,194.392,-764.944,0,0
246114.6,192.108,-762.68,0,0
246374.925,189.834,-760.35,0,0
246635.25,187.569,-757.936,0,0
246895.575,185.375,-755.558,0,0
247155.9,183.205,-752.976,0,0
247416.225,181.195,-750.488,0,0
247676.55,179.191,-747.864,0,0
247936.875,177.367,-745.36,0,0
248197.2,175.617,-742.81,0,0
248457.525,173.795,-740.221,0,0
248717.85,172.141,-737.705,0,0
248978.175,170.578,-735.189,0,0
249238.5,168.984,-732.648,0,0
249498.825,167.487,-730.253,0,0
249759.15,166.014,-727.687,0,0
250019.475,164.69,-725.188,0,0
250279.8,163.324,-722.801,0,0
250540,161.935,-720.4,0,0
250800,160.621,-718.043,0,0
251061,159.259,-715.576,0,0
251321,158.011,-713.179,0,0
251581,156.778,-710.746,0,0
251842,155.582,-708.353,0,0
252102,154.374,-705.932,0,0
252362,153.186,-703.446,0,0
252623,152.018,-701.011,0,0
252883,150.958,-698.472,0,0
253143,149.946,-695.945,0,0
253404,148.974,-693.408,0,0
253664,148.087,-690.858,0,0
253924,147.259,-688.346,0,0
254185,146.414,-685.781,0,0
254445,145.709,-683.194,0,0
254705,145.058,-680.554,0,0
254966,144.615,-677.995,0,0
255226,144.133,-675.455,0,0
255486,143.841,-672.984,0,0
255747,143.461,-670.599,0,0
256007,143.205,-668.321,0,0
256267,142.878,-666.029,0,0
256528,142.568,-663.723,0,0
256788,142.281,-661.376,0,0
257048,142.121,-659.07,0,0
257309,141.894,-656.785,0,0
257569,141.823,-654.479,0,0
257829,141.644,-652.226,0,0
258090,141.576,-649.921,0,0
258350,141.54,-647.579,0,0
258610,141.549,-645.245,0,0
258871,141.669,-642.828,0,0
259131,141.931,-640.378,0,0
259391,142.343,-638.007,0,0
259651,142.842,-635.706,0,0
259912,143.535,-633.486,0,0
260172,144.21,-631.372,0,0
260432,145.047,-629.303,0,0
260693,145.913,-627.373,0,0
260953,146.858,-625.557,0,0
261213,147.809,-623.807,0,0
261474,148.834,-622.147,0,0
261734,149.863,-620.611,0,0
261994,150.964,-619.185,0,0
262255,152.019,-617.901,0,0
262515,153.126,-616.643,0,0
262775,154.214,-615.483,0,0
263036,155.303,-614.394,0,0
263296,156.404,-613.384,0,0
263556,157.528,-612.462,0,0
263817,158.691,-611.633,0,0
264077,159.813,-610.87,0,0
264337,160.991,-610.21,0,0
264598,162.144,-609.639,0,0
264858,163.339,-609.135,0,0
265118,164.555,-608.739,0,0
265379,165.908,-608.528,0,0
265639,167.271,-608.544,0,0
265899,168.647,-608.741,0,0
266160,169.829,-609.224,0,0
266420,170.98,-609.988,0,0
266680.25,171.911,-610.985,0,0
266940.575,172.601,-612.172,0,0
267200.9,172.96,-613.528,0,0
267461.225,172.974,-614.913,0,0
267721.55,172.733,-616.307,0,0
267981.875,172.18,-617.731,0,0
268242.2,171.386,-619.046,0,0
268502.525,170.276,-620.275,0,0
268762.85,168.882,-621.391,0,0
269023.175,167.237,-622.251,0,0
269283.5,165.339,-622.886,0,0
269543.825,163.442,-623.27,0,0
269804.15,161.39,-623.31,0,0
270064.475,159.301,-623.122,0,0
270324.8,157.136,-622.731,0,0
270585.125,155.059,-622.045,0,0
270845.45,153.106,-621.15,0,0
271105.775,151.204,-620.006,0,0
271366.1,149.415,-618.712,0,0
271626.425,147.803,-617.239,0,0
271886.75,146.292,-615.679,0,0
272147.075,144.974,-613.999,0,0
272407.4,143.772,-612.22,0,0
272667.725,142.721,-610.44,0,0
272928.05,141.832,-608.571,0,0
273188.375,141.093,-606.666,0,0
273448.7,140.547,-604.743,0,0
273709.025,140.189,-602.822,0,0
273969.35,140.014,-601.015,0,0
274229.675,139.926,-599.345,0,0
274490.0,139.899,-597.79,0,0
274750.325,139.915,-596.282,0,0
275010.65,139.941,-594.859,0,0
275270.975,139.988,-593.452,0,0
275531.3,140.14,-592.1,0,0
275791.625,140.268,-590.801,0,0
276051.95,140.392,-589.551,0,0
276312.275,140.573,-588.284,0,0
276572.6,140.797,-587.047,0,0
276832.925,141.099,-585.821,0,0
277093.25,141.489,-584.669,0,0
277353.575,141.964,-583.605,0,0
277613.9,142.517,-582.663,0,0
277874.225,143.07,-581.894,0,0
278134.55,143.57,-581.245,0,0
278394.875,143.996,-580.684,0,0
278655.2,144.363,-580.172,0,0
278915.525,144.692,-579.692,0,0
279175.85,144.968,-579.225,0,0
279436.175,145.249,-578.849,0,0
279696.5,145.539,-578.509,0,0
279956.825,145.719,-578.298,0,0
280217.15,145.825,-578.091,0,0
280477.475,145.88,-577.921,0,0
280737.8,145.909,-577.749,0,0
280998.125,145.837,-577.617,0,0
281258.45,145.735,-577.499,0,0
281518.775,145.552,-577.444,0,0
281779.1,145.249,-577.436,0,0
282039.425,144.78,-577.402,0,0
282299.75,144.215,-577.287,0,0
282560,143.59,-577.064,0,0
282820,142.932,-576.773,0,0
283081,142.237,-576.414,0,0
283341,141.532,-576.007,0,0
283601,140.782,-575.536,0,0
283862,139.987,-574.986,0,0
284122,139.212,-574.372,0,0
284382,138.345,-573.654,0,0
284643,137.611,-572.836,0,0
284903,136.914,-571.955,0,0
285163,136.269,-571.073,0,0
285424,135.696,-570.178,0,0
285684,135.063,-569.299,0,0
285944,134.476,-568.424,0,0
286205,133.858,-567.527,0,0
286465,133.118,-566.63,0,0
286725,132.346,-565.603,0,0
286986,131.598,-564.383,0,0
287246,130.897,-563.082,0,0
287506,130.295,-561.664,0,0
287767,129.778,-560.195,0,0
288027,129.334,-558.629,0,0
288287,129.019,-556.96,0,0
288548,128.876,-555.218,0,0
288808,128.942,-553.472,0,0
289068,129.237,-551.779,0,0
289329,129.719,-550.243,0,0
289589,130.267,-548.873,0,0
289849,130.881,-547.626,0,0
290109,131.474,-546.578,0,0
290370,132.121,-545.608,0,0
290630,132.732,-544.783,0,0
290890,133.275,-544.091,0,0
291151,133.733,-543.454,0,0
291411,134.127,-542.841,0,0
291671,134.466,-542.253,0,0
291932,134.776,-541.709,0,0
292192,135.029,-541.209,0,0
292452,135.193,-540.77,0,0
292713,135.217,-540.409,0,0
292973,135.128,-539.931,0,0
293233,134.944,-539.394,0,0
293494,134.664,-538.735,0,0
293754,134.297,-537.999,0,0
294014,133.893,-537.067,0,0
294275,133.532,-535.965,0,0
294535,133.235,-534.658,0,0
294795,133.069,-533.22,0,0
295056,133.083,-531.68,0,0
295316,133.313,-530.05,0,0
295576,133.736,-528.44,0,0
295837,134.345,-526.873,0,0
296097,135.128,-525.405,0,0
296357,136.048,-524.035,0,0
296618,137.081,-522.827,0,0
296878,138.172,-521.792,0,0
297138,139.232,-520.882,0,0
297399,140.266,-520.097,0,0
297659,141.248,-519.331,0,0
297919,142.239,-518.606,0,0
298180,143.205,-517.895,0,0
298440,144.241,-517.223,0,0
298700.2,145.267,-516.582,0,0
298960.525,146.33,-515.967,0,0
299220.85,147.441,-515.424,0,0
299481.175,148.549,-515.086,0,0
299741.5,149.626,-514.664,0,0
300001.825,150.757,-514.312,0,0
300262.15,151.793,-513.986,0,0
300522.475,152.853,-513.733,0,0
300782.8,153.917,-513.398,0,0
301043.125,155.05,-513.101,0,0
301303.45,156.239,-512.831,0,0
301563.775,157.59,-512.621,0,0
301824.1,158.977,-512.473,0,0
302084.425,160.388,-512.573,0,0
302344.75,161.883,-512.717,0,0
302605.075,163.227,-513.057,0,0
302865.4,164.593,-513.502,0,0
303125.725,165.886,-514.191,0,0
303386.05,167.077,-514.829,0,0
303646.375,168.203,-515.63,0,0
303906.7,169.219,-516.395,0,0
304167.025,170.149,-517.228,0,0
304427.35,171.046,-518.038,0,0
304687.675,171.917,-518.933,0,0
304948.0,172.695,-519.886,0,0
305208.325,173.413,-520.772,0,0
305468.65,174.173,-521.869,0,0
305728.975,174.75,-522.811,0,0
305989.3,175.454,-523.904,0,0
306249.625,176.129,-524.953,0,0
306509.95,176.707,-526.194,0,0
306770.275,177.3,-527.523,0,0
307030.6,177.767,-528.945,0,0
307290.925,177.987,-530.403,0,0
307551.25,178.112,-531.952,0,0
307811.575,178.178,-533.345,0,0
308071.9,178.112,-534.881,0,0
308332.225,177.922,-536.299,0,0
308592.55,177.665,-537.795,0,0
308852.875,177.374,-539.19,0,0
309113.2,176.846,-540.467,0,0
309373.525,176.4,-541.778,0,0
309633.85,175.7,-542.943,0,0
309894.175,175.159,-543.996,0,0
310154.5,174.664,-545.098,0,0
310414.825,174.227,-546.281,0,0
310675.15,173.711,-547.553,0,0
310935.475,173.114,-548.891,0,0
311195.8,172.437,-550.247,0,0
311456.125,171.603,-551.548,0,0
311716.45,170.724,-552.949,0,0
311976.775,169.645,-554.371,0,0
312237.1,168.487,-555.697,0,0
312497.425,167.272,-556.948,0,0
312757.75,165.823,-558.103,0,0
313018.075,164.291,-559.183,0,0
313278.4,162.624,-560.112,0,0
313538.725,160.96,-560.974,0,0
313799.05,159.214,-561.646,0,0
314059.375,157.534,-562.226,0,0
314319.7,155.782,-562.605,0,0
314580,154.125,-562.969,0,0
314840,152.508,-563.268,0,0
315101,150.966,-563.398,0,0
315361,149.36,-563.538,0,0
315621,147.93,-563.775,0,0
315882,146.389,-563.902,0,0
316142,144.828,-564.062,0,0
316402,143.23,-564.092,0,0
316663,141.642,-564.157,0,0
316923,140.089,-564.094,0,0
317183,138.474,-564.007,0,0
317444,136.941,-563.918,0,0
317704,135.362,-563.669,0,0
317964,133.765,-563.516,0,0
318225,132.159,-563.221,0,0
318485,130.511,-562.832,0,0
318745,129.012,-562.538,0,0
319006,127.474,-562.051,0,0
319266,125.919,-561.547,0,0
319526,124.469,-560.947,0,0
319787,122.926,-560.431,0,0
320047,121.452,-559.698,0,0
320307,120.013,-559.018,0,0
320567,118.589,-558.228,0,0
320828,117.231,-557.335,0,0
321088,115.903,-556.472,0,0
321348,114.754,-555.574,0,0
321609,113.511,-554.703,0,0
321869,112.337,-553.72,0,0
322129,111.266,-552.809,0,0
322390,110.211,-551.798,0,0
322650,109.076,-550.729,0,0
322910,108.09,-549.683,0,0
323171,107.158,-548.606,0,0
323431,106.276,-547.509,0,0
323691,105.499,-546.362,0,0
323952,104.763,-545.158,0,0
324212,104.112,-544.065,0,0
324472,103.532,-543.003,0,0
324733,103.027,-541.873,0,0
324993,102.574,-540.835,0,0
325253,102.181,-539.847,0,0
325514,101.785,-538.969,0,0
325774,101.427,-538.068,0,0
326034,101.107,-537.137,0,0
326295,100.813,-536.397,0,0
326555,100.466,-535.593,0,0
326815,100.142,-534.774,0,0
327076,99.8396,-534.033,0,0
327336,99.5836,-533.306,0,0
327596,99.3188,-532.641,0,0
327857,99.0734,-531.989,0,0
328117,98.8679,-531.344,0,0
328377,98.6219,-530.792,0,0
328638,98.3894,-530.273,0,0
328898,98.0982,-529.813,0,0
329158,97.8891,-529.318,0,0
329419,97.6005,-528.943,0,0
329679,97.2956,-528.592,0,0
329939,96.9894,-528.218,0,0
330200,96.6747,-527.918,0,0
330460,96.2526,-527.573,0,0
330720.15,95.7698,-527.275,0,0
330980.475,95.337,-527.097,0,0
331240.8,94.8566,-526.75,0,0
331501.125,94.2486,-526.456,0,0
331761.45,93.6622,-526.172,0,0
332021.775,93.0428,-525.818,0,0
332282.1,92.3514,-525.487,0,0
332542.425,91.7165,-525.089,0,0
332802.75,91.0201,-524.699,0,0
333063.075,90.3622,-524.276,0,0
333323.4,89.667,-523.802,0,0
333583.725,89.0124,-523.391,0,0
333844.05,88.2362,-522.961,0,0
334104.375,87.5127,-522.442,0,0
334364.7,86.8419,-522.04,0,0
334625.025,86.0932,-521.475,0,0
334885.35,85.3071,-520.883,0,0
335145.675,84.5108,-520.385,0,0
335406.0,83.7381,-519.705,0,0
335666.325,83.0001,-519.149,0,0
335926.65,82.2604,-518.501,0,0
336186.975,81.5264,-517.813,0,0
336447.3,80.7454,-517.095,0,0
336707.625,79.9978,-516.304,0,0
336967.95,79.3875,-515.596,0,0
337228.275,78.6892,-514.803,0,0
337488.6,78.0328,-514.119,0,0
337748.925,77.3767,-513.279,0,0
338009.25,76.8306,-512.515,0,0
338269.575,76.1426,-511.755,0,0
338529.9,75.5578,-510.91,0,0
338790.225,74.9367,-510.116,0,0
339050.55,74.3753,-509.264,0,0
339310.875,73.8016,-508.521,0,0
339571.2,73.2085,-507.651,0,0
339831.525,72.7457,-506.791,0,0
340091.85,72.1872,-505.915,0,0
340352.175,71.706,-505.08,0,0
340612.5,71.2397,-504.194,0,0
340872.825,70.7843,-503.406,0,0
341133.15,70.3421,-502.591,0,0
341393.475,69.8538,-501.708,0,0
341653.8,69.4178,-500.989,0,0
341914.125,68.9736,-500.135,0,0
342174.45,68.5227,-499.277,0,0
342434.775,68.1032,-498.462,0,0
342695.1,67.6808,-497.689,0,0
342955.425,67.2231,-496.842,0,0
343215.75,66.8418,-496.046,0,0
343476.075,66.4499,-495.225,0,0
343736.4,65.9628,-494.348,0,0
343996.725,65.5349,-493.593,0,0
344257.05,65.1388,-492.761,0,0
344517.375,64.7359,-491.895,0,0
344777.7,64.2716,-491.077,0,0
345038.025,63.8905,-490.25,0,0
345298.35,63.5039,-489.341,0,0
345558.675,63.094,-488.516,0,0
345819.0,62.6744,-487.621,0,0
346079.325,62.3322,-486.729,0,0
346339.65,62.0041,-485.853,0,0
346599.975,61.608,-484.913,0,0
346860,61.2665,-483.997,0,0
347121,60.8944,-483.047,0,0
347381,60.6117,-482.153,0,0
347641,60.2892,-481.157,0,0
347902,60.0175,-480.252,0,0
348162,59.7568,-479.315,0,0
348422,59.5071,-478.335,0,0
348683,59.2234,-477.426,0,0
348943,59.0696,-476.42,0,0
349203,58.838,-475.48,0,0
349464,58.7399,-474.578,0,0
349724,58.602,-473.702,0,0
349984,58.4103,-472.759,0,0
350245,58.2603,-471.844,0,0
350505,58.1375,-470.966,0,0
350765,58.0416,-470.076,0,0
351025,57.8874,-469.154,0,0
351286,57.7836,-468.309,0,0
351546,57.7874,-467.423,0,0
351806,57.651,-466.614,0,0
352067,57.5888,-465.773,0,0
352327,57.5467,-464.852,0,0
352587,57.4243,-464.034,0,0
352848,57.4394,-463.217,0,0
353108,57.3345,-462.386,0,0
353368,57.2687,-461.608,0,0
353629,57.254,-460.781,0,0
353889,57.196,-460.001,0,0
354149,57.093,-459.184,0,0
354410,57.0562,-458.425,0,0
354670,57.0101,-457.581,0,0
354930,56.9325,-456.777,0,0
355191,56.9357,-455.962,0,0
355451,56.8457,-455.198,0,0
355711,56.85,-454.35,0,0
355972,56.8335,-453.563,0,0
356232,56.8335,-452.728,0,0
356492,56.82,-451.931,0,0
356753,56.861,-451.15,0,0
357013,56.9394,-450.376,0,0
357273,56.9702,-449.585,0,0
357534,56.9979,-448.864,0,0
357794,57.0667,-448.098,0,0
358054,57.0959,-447.383,0,0
358315,57.1068,-446.651,0,0
358575,57.1785,-445.953,0,0
358835,57.1512,-445.226,0,0
359096,57.2335,-444.507,0,0
359356,57.221,-443.791,0,0
359616,57.2659,-443.02,0,0
359877,57.3412,-442.319,0,0
360137,57.416,-441.619,0,0
360397,57.4506,-440.877,0,0
360658,57.5159,-440.112,0,0
360918,57.6152,-439.429,0,0
361178,57.7005,-438.775,0,0
361438,57.7603,-438.083,0,0
361699,57.8616,-437.402,0,0
361959,57.9026,-436.747,0,0
362219,57.908,-436.119,0,0
362480,57.981,-435.426,0,0
362740.1,57.9937,-434.73,0,0
363000.425,58.0482,-434.016,0,0
363260.75,58.0986,-433.285,0,0
363521.075,58.2025,-432.577,0,0
363781.4,58.3051,-431.903,0,0
364041.725,58.3978,-431.218,0,0
364302.05,58.5366,-430.545,0,0
364562.375,58.5991,-429.843,0,0
364822.7,58.7127,-429.212,0,0
365083.025,58.8015,-428.539,0,0
365343.35,58.9608,-427.883,0,0
365603.675,59.0337,-427.255,0,0
365864.0,59.0902,-426.618,0,0
366124.325,59.162,-425.935,0,0
366384.65,59.2597,-425.292,0,0
366644.975,59.3106,-424.61,0,0
366905.3,59.3844,-423.951,0,0
367165.625,59.4336,-423.245,0,0
367425.95,59.4663,-422.548,0,0
367686.275,59.546,-421.838,0,0
367946.6,59.5765,-421.088,0,0
368206.925,59.6432,-420.304,0,0
368467.25,59.6728,-419.462,0,0
368727.575,59.784,-418.601,0,0
368987.9,59.8842,-417.694,0,0
369248.225,60.087,-416.77,0,0
369508.55,60.3515,-415.837,0,0
369768.875,60.6686,-414.872,0,0
370029.2,61.0488,-413.939,0,0
370289.525,61.517,-412.987,0,0
370549.85,61.9987,-412.112,0,0
370810.175,62.5534,-411.295,0,0
371070.5,63.1831,-410.463,0,0
371330.825,63.813,-409.724,0,0
371591.15,64.4648,-409.006,0,0
371851.475,65.1503,-408.353,0,0
372111.8,65.875,-407.811,0,0
372372.125,66.5795,-407.285,0,0
372632.45,67.3256,-406.786,0,0
372892.775,68.0595,-406.378,0,0
373153.1,68.7867,-406.001,0,0
373413.425,69.4469,-405.634,0,0
373673.75,70.103,-405.341,0,0
373934.075,70.7888,-405.071,0,0
374194.4,71.4992,-404.873,0,0
374454.725,72.1642,-404.718,0,0
374715.05,72.7834,-404.66,0,0
374975.375,73.3301,-404.583,0,0
375235.7,73.8148,-404.497,0,0
375496.025,74.3867,-404.465,0,0
375756.35,74.8258,-404.447,0,0
376016.675,75.306,-404.465,0,0
376277.0,75.7014,-404.442,0,0
376537.325,76.0877,-404.441,0,0
376797.65,76.3928,-404.379,0,0
377057.975,76.7952,-404.387,0,0
377318.3,77.1013,-404.368,0,0
377578.625,77.4566,-404.321,0,0
377838.95,77.8217,-404.358,0,0
378099.275,78.1334,-404.348,0,0
378359.6,78.4651,-404.405,0,0
378619.925,78.7536,-404.465,0,0
378880,79.0016,-404.512,0,0
379141,79.2755,-404.533,0,0
379401,79.4492,-404.607,0,0
379661,79.6319,-404.628,0,0
379922,79.8936,-404.653,0,0
380182,80.1272,-404.659,0,0
380442,80.427,-404.616,0,0
380703,80.7223,-404.676,0,0
380963,81.0883,-404.737,0,0
381223,81.4724,-404.902,0,0
381483,81.8244,-405.097,0,0
381744,82.1578,-405.48,0,0
382004,82.3996,-405.891,0,0
382264,82.5804,-406.346,0,0
382525,82.617,-406.842,0,0
382785,82.6224,-407.299,0,0
383045,82.5248,-407.764,0,0
383306,82.3212,-408.273,0,0
383566,82.0947,-408.712,0,0
383826,81.767,-409.085,0,0
384087,81.4302,-409.479,0,0
384347,81.0051,-409.768,0,0
384607,80.5742,-410.089,0,0
384868,80.127,-410.286,0,0
385128,79.5929,-410.472,0,0
385388,79.0911,-410.631,0,0
385649,78.524,-410.736,0,0
385909,77.9781,-410.805,0,0
386169,77.4308,-410.851,0,0
386430,76.7705,-410.874,0,0
386690,76.1548,-410.829,0,0
386950,75.5324,-410.687,0,0
387211,74.8652,-410.548,0,0
387471,74.2075,-410.321,0,0
387731,73.5902,-409.982,0,0
387992,73.0314,-409.661,0,0
388252,72.4716,-409.242,0,0
388512,71.9447,-408.84,0,0
388773,71.4791,-408.442,0,0
389033,71.1024,-407.946,0,0
389293,70.7035,-407.52,0,0
389554,70.3887,-407.067,0,0
389814,70.0552,-406.614,0,0
390074,69.7898,-406.224,0,0
390335,69.4948,-405.821,0,0
390595,69.2552,-405.445,0,0
390855,68.9865,-405.115,0,0
391116,68.7217,-404.735,0,0
391376,68.483,-404.436,0,0
391636,68.2025,-404.132,0,0
391896,67.897,-403.841,0,0
392157,67.5931,-403.505,0,0
392417,67.3028,-403.21,0,0
392677,66.9538,-402.873,0,0
392938,66.6328,-402.59,0,0
393198,66.2415,-402.286,0,0
393458,65.8448,-401.952,0,0
393719,65.3822,-401.593,0,0
393979,64.9565,-401.263,0,0
394239,64.5658,-400.867,0,0
394500,64.0827,-400.416,0,0
394760.05,63.628,-399.969,0,0
395020.375,63.1594,-399.494,0,0
395280.7,62.7302,-398.961,0,0
395541.025,62.2721,-398.398,0,0
395801.35,61.8619,-397.835,0,0
396061.675,61.4329,-397.193,0,0
396322.0,61.0883,-396.542,0,0
396582.325,60.7485,-395.948,0,0
396842.65,60.3936,-395.259,0,0
397102.975,60.1123,-394.566,0,0
397363.3,59.8103,-393.884,0,0
397623.625,59.5922,-393.236,0,0
397883.95,59.342,-392.548,0,0
398144.275,59.0984,-391.903,0,0
398404.6,58.8684,-391.228,0,0
398664.925,58.722,-390.567,0,0
398925.25,58.5121,-389.909,0,0
399185.575,58.2645,-389.243,0,0
399445.9,58.0808,-388.553,0,0
399706.225,57.9033,-387.888,0,0
399966.55,57.7703,-387.177,0,0
400006.6,57.7355,-387.046,0,0