File: Accelerated corrosion test data/2025-10-11_18-00-03/sample_7.csv
Frequency (Hz),Impedance (ohms),Phase (Radians),Temperature (C),Humidity (%)
10000.0,273.3,-12078.6,0,0
10260.325,268.906,-11787.5,0,0
10520.65,257.249,-11489.7,0,0
10780.975,251.985,-11208.8,0,0
11041.3,249.295,-10941.5,0,0
11301.625,246.632,-10685.7,0,0
11561.95,249.964,-10437.4,0,0
11822.275,259.925,-10205.6,0,0
12082.6,270.645,-9978.98,0,0
12342.925,313.565,-9835.69,0,0
12603.25,256.998,-9630.13,0,0
12863.575,263.649,-9456.03,0,0
13123.9,235.729,-9264.29,0,0
13384.225,226.486,-9089.9,0,0
13644.55,224.164,-8913.69,0,0
13904.875,209.99,-8741.12,0,0
14165.2,212.521,-8569.08,0,0
14425.525,202.901,-8430.54,0,0
14685.8,202.402,-8283.41,0,0
14946.175,198.324,-8134.89,0,0
15206.5,194.417,-8005.96,0,0
15466.825,187.066,-7863.88,0,0
15727.15,182.144,-7735.48,0,0
15987.5,179.793,-7605.19,0,0
16247.8,176.781,-7487.74,0,0
16508.125,171.432,-7365.71,0,0
16768.45,171.449,-7247.07,0,0
17028.775,170.566,-7137.33,0,0
17289.1,165.691,-7027.98,0,0
17549.425,165.361,-6919.74,0,0
17809.75,171.44,-6811.4,0,0
18070.075,169.646,-6712.8,0,0
18330.4,181.522,-6607.95,0,0
18590.725,201.713,-6528.44,0,0
18851.05,193.155,-6453.32,0,0
19111.375,180.588,-6367.28,0,0
19371.7,200.222,-6306.49,0,0
19632.025,166.183,-6227.05,0,0
19892.35,158.809,-6126.6,0,0
20152.675,168.564,-6049.34,0,0
20413.0,167.768,-5977.38,0,0
20673.3,170.88,-5896.55,0,0
20933.65,178.047,-5840.24,0,0
21193.975,160.251,-5774.16,0,0
21454.3,152.574,-5699.33,0,0
21714.625,155.466,-5635.54,0,0
21974.9,145.686,-5570.64,0,0
22235.275,141.202,-5502.1,0,0
22495.6,139.336,-5439.76,0,0
22755.925,133.684,-5375.88,0,0
23016.25,130.181,-5312.31,0,0
23276.6,128.353,-5249.39,0,0
23536.9,129.845,-5189.63,0,0
23797.225,127.731,-5134.53,0,0
24057.55,124.405,-5077.09,0,0
24317.875,123.104,-5019.55,0,0
24578.2,123.844,-4965.45,0,0
24838.525,123.052,-4911.5,0,0
25098.85,120.509,-4860.21,0,0
25359.175,120.091,-4808.43,0,0
25619.5,119.067,-4756.06,0,0
25879.8,118.73,-4706.75,0,0
26140.1,120.084,-4654.73,0,0
26400.5,123.946,-4608.63,0,0
26660.8,121.43,-4561.15,0,0
26921.1,123.626,-4510.83,0,0
27181.4,129.781,-4464.35,0,0
27441.8,132.828,-4417.45,0,0
27702.1,145.377,-4371.5,0,0
27962.4,162.299,-4330.36,0,0
28222.7,180.854,-4309.25,0,0
28483.1,180.065,-4288.24,0,0
28743.4,173.948,-4271.82,0,0
29003.7,159.306,-4242.67,0,0
29264,143.225,-4205.46,0,0
29524.4,136.361,-4164.52,0,0
29784.7,129.643,-4126.79,0,0
30045,129.122,-4083.4,0,0
30305.3,132.219,-4047.93,0,0
30565.7,132.342,-4015.24,0,0
30826,133.536,-3983.2,0,0
31086.3,135.735,-3953.81,0,0
31346.6,133.037,-3925.74,0,0
31607,129.373,-3901.29,0,0
31867.3,121.32,-3869.45,0,0
32127.6,117.595,-3837.68,0,0
32387.9,114.489,-3806.91,0,0
32648.3,110.629,-3776.73,0,0
32908.6,108.005,-3746.76,0,0
33168.9,104.506,-3716.45,0,0
33429.2,101.48,-3686.78,0,0
33689.6,99.5106,-3656.88,0,0
33949.9,97.6155,-3627.66,0,0
34210.2,95.6498,-3598.93,0,0
34470.5,93.9615,-3570.43,0,0
34730.9,92.7282,-3542.25,0,0
34991.2,91.7406,-3514.97,0,0
35251.5,90.3776,-3487.51,0,0
35511.8,89.5812,-3460.7,0,0
35772.2,89.1528,-3434.36,0,0
36032.5,88.8617,-3408.61,0,0
36292.8,88.1312,-3383.81,0,0
36553.1,87.2165,-3358.47,0,0
36813.5,86.6687,-3333.61,0,0
37073.8,86.4308,-3309.08,0,0
37334.1,86.1163,-3285,0,0
37594.4,86.0039,-3261.82,0,0
37854.8,85.3802,-3238.21,0,0
38115.1,85.2907,-3214.15,0,0
38375.4,85.8171,-3191.32,0,0
38635.7,86.7349,-3168.36,0,0
38896.1,88.055,-3145.75,0,0
39156.4,89.6068,-3124.48,0,0
39416.7,92.6909,-3103.29,0,0
39677,95.9922,-3085.1,0,0
39937.4,97.0229,-3068.33,0,0
40197.7,97.6816,-3052.31,0,0
40458,94.8785,-3036.48,0,0
40718.3,92.3282,-3018.35,0,0
40978.7,89.3031,-2999.87,0,0
41239,86.683,-2980.6,0,0
41499.3,85.1176,-2961.02,0,0
41759.6,83.8467,-2942.26,0,0
42020,82.211,-2923.59,0,0
42280.275,80.7703,-2904.23,0,0
42540.6,80.4128,-2884.68,0,0
42800.925,80.948,-2866.76,0,0
43061.25,80.7425,-2848.72,0,0
43321.575,80.8044,-2832.09,0,0
43581.9,79.5425,-2814.46,0,0
43842.225,79.5589,-2796.18,0,0
44102.55,80.8503,-2778.77,0,0
44362.875,82.438,-2763.56,0,0
44623.2,82.527,-2748.58,0,0
44883.525,81.1561,-2733.84,0,0
45143.85,80.611,-2718.58,0,0
45404.175,79.3385,-2702.67,0,0
45664.5,80.1834,-2686.08,0,0
45924.825,81.1753,-2673.12,0,0
46185.15,80.014,-2660.19,0,0
46445.475,77.4852,-2646.38,0,0
46705.8,74.8911,-2631.52,0,0
46966.125,72.6681,-2616.13,0,0
47226.45,71.8422,-2599.96,0,0
47486.775,71.5663,-2584.78,0,0
47747.1,71.2433,-2570.14,0,0
48007.425,70.7458,-2555.86,0,0
48267.75,70.174,-2542.02,0,0
48528.075,69.3655,-2527.92,0,0
48788.4,68.8998,-2513.94,0,0
49048.725,68.2959,-2500.03,0,0
49309.05,67.8344,-2486.3,0,0
49569.375,67.4773,-2472.68,0,0
49829.7,67.0182,-2459.27,0,0
50090.025,66.7553,-2446.16,0,0
50350.35,66.367,-2432.9,0,0
50610.675,66.2058,-2419.98,0,0
50871.0,65.6797,-2407.29,0,0
51131.325,65.2438,-2394.51,0,0
51391.65,64.9455,-2381.82,0,0
51651.975,64.6102,-2369.34,0,0
51912.3,64.3207,-2356.91,0,0
52172.625,64.2222,-2344.74,0,0
52432.95,64.0738,-2332.76,0,0
52693.275,63.7901,-2320.61,0,0
52953.6,63.9198,-2308.9,0,0
53213.925,63.9809,-2297.49,0,0
53474.25,63.3916,-2286.16,0,0
53734.575,63.1409,-2274.66,0,0
53994.9,62.7373,-2263.28,0,0
54255.225,62.6291,-2252.21,0,0
54515.55,62.2153,-2241.16,0,0
54775.875,61.9967,-2229.94,0,0
55036.2,61.7573,-2219.02,0,0
55296.525,61.5466,-2208.17,0,0
55556.85,61.3967,-2197.37,0,0
55817.175,61.1154,-2186.72,0,0
56077.5,60.9134,-2176.09,0,0
56337.825,60.9982,-2165.7,0,0
56598.15,60.7094,-2155.51,0,0
56858.475,60.5834,-2145.19,0,0
57118.8,60.3852,-2135.08,0,0
57379.125,60.2098,-2124.9,0,0
57639.45,59.9171,-2114.85,0,0
57899.775,59.7573,-2104.76,0,0
58160.1,59.8706,-2094.69,0,0
58420.4,60.1553,-2084.94,0,0
58680.7,60.309,-2075.72,0,0
58941.1,59.9557,-2066.46,0,0
59201.4,59.7827,-2056.79,0,0
59461.7,60.1506,-2047.41,0,0
59722,60.2334,-2038.63,0,0
59982.4,60.1539,-2029.54,0,0
60242.7,60.2067,-2020.82,0,0
60503,59.9442,-2012.3,0,0
60763.3,59.5114,-2003.69,0,0
61023.7,59.0535,-1994.98,0,0
61284,58.744,-1986.35,0,0
61544.3,58.3572,-1977.71,0,0
61804.6,57.7938,-1969.16,0,0
62065,57.3358,-1960.48,0,0
62325.3,56.9896,-1951.7,0,0
62585.6,56.756,-1943.09,0,0
62845.9,56.5036,-1934.55,0,0
63106.3,56.3355,-1926.06,0,0
63366.6,56.262,-1917.55,0,0
63626.9,56.3044,-1909.6,0,0
63887.2,55.9689,-1901.54,0,0
64147.6,55.6151,-1893.25,0,0
64407.9,55.4781,-1885.2,0,0
64668.2,55.2151,-1877.02,0,0
64928.5,55.4442,-1868.79,0,0
65188.9,55.4628,-1861.17,0,0
65449.2,55.4713,-1853.52,0,0
65709.5,55.4765,-1846.02,0,0
65969.8,55.4379,-1838.56,0,0
66230.2,55.1771,-1831.34,0,0
66490.5,54.861,-1823.96,0,0
66750.8,54.4982,-1816.6,0,0
67011.1,53.9901,-1809.36,0,0
67271.5,53.6702,-1801.84,0,0
67531.8,53.4785,-1794.35,0,0
67792.1,53.1141,-1787.03,0,0
68052.4,52.8197,-1779.68,0,0
68312.8,52.6657,-1772.27,0,0
68573.1,52.5734,-1765.08,0,0
68833.4,52.3441,-1757.95,0,0
69093.7,52.3649,-1750.69,0,0
69354.1,52.1379,-1743.68,0,0
69614.4,52.1154,-1736.66,0,0
69874.7,52.089,-1729.8,0,0
70135,51.8978,-1722.99,0,0
70395.4,51.9368,-1716.17,0,0
70655.7,51.9576,-1709.36,0,0
70916,51.9332,-1702.85,0,0
71176.3,51.8463,-1696.29,0,0
71436.7,51.6915,-1690,0,0
71697,51.4019,-1683.51,0,0
71957.3,51.1377,-1676.96,0,0
72217.6,50.8875,-1670.5,0,0
72478,50.6156,-1664.04,0,0
72738.3,50.4587,-1657.63,0,0
72998.6,50.2947,-1651.08,0,0
73258.9,50.151,-1644.85,0,0
73519.3,50.0448,-1638.53,0,0
73779.6,49.8481,-1632.27,0,0
74039.9,49.6645,-1626.01,0,0
74300.225,49.6287,-1619.77,0,0
74560.55,49.4857,-1613.67,0,0
74820.875,49.4651,-1607.55,0,0
75081.2,49.2848,-1601.48,0,0
75341.525,49.1895,-1595.46,0,0
75601.85,49.1044,-1589.5,0,0
75862.175,49.0008,-1583.55,0,0
76122.5,48.9151,-1577.59,0,0
76382.825,48.7963,-1571.63,0,0
76643.15,48.7834,-1565.82,0,0
76903.475,48.6702,-1559.94,0,0
77163.8,48.6205,-1554.31,0,0
77424.125,48.603,-1548.5,0,0
77684.45,48.5999,-1542.83,0,0
77944.775,48.4616,-1537.24,0,0
78205.1,48.3618,-1531.58,0,0
78465.425,48.3068,-1526.03,0,0
78725.75,48.2627,-1520.39,0,0
78986.075,48.1738,-1514.95,0,0
79246.4,48.1494,-1509.46,0,0
79506.725,48.0818,-1503.95,0,0
79767.05,48.1412,-1498.57,0,0
80027.375,48.1247,-1493.25,0,0
80287.7,47.9794,-1487.89,0,0
80548.025,47.9737,-1482.61,0,0
80808.35,47.8904,-1477.39,0,0
81068.675,47.7751,-1472.08,0,0
81329.0,47.7237,-1466.79,0,0
81589.325,47.7268,-1461.55,0,0
81849.65,47.6524,-1456.45,0,0
82109.975,47.6409,-1451.22,0,0
82370.3,47.6382,-1446.07,0,0
82630.625,47.5561,-1441.01,0,0
82890.95,47.512,-1436.02,0,0
83151.275,47.4811,-1430.9,0,0
83411.6,47.4082,-1425.81,0,0
83671.925,47.4027,-1420.78,0,0
83932.25,47.4675,-1415.76,0,0
84192.575,47.5392,-1410.8,0,0
84452.9,47.639,-1405.97,0,0
84713.225,47.6797,-1401.17,0,0
84973.55,47.6992,-1396.25,0,0
85233.875,47.6885,-1391.52,0,0
85494.2,47.6926,-1386.8,0,0
85754.525,47.6772,-1382.08,0,0
86014.85,47.7075,-1377.25,0,0
86275.175,47.8265,-1372.61,0,0
86535.5,47.8275,-1368.08,0,0
86795.825,47.7393,-1363.37,0,0
87056.15,47.8306,-1358.67,0,0
87316.475,47.9544,-1354.14,0,0
87576.8,47.9513,-1349.67,0,0
87837.125,47.9745,-1345.09,0,0
88097.45,47.9947,-1340.62,0,0
88357.775,47.8864,-1336.23,0,0
88618.1,47.817,-1331.8,0,0
88878.425,47.8298,-1327.27,0,0
89138.75,47.7459,-1322.93,0,0
89399.075,47.71,-1318.33,0,0
89659.4,47.6003,-1313.88,0,0
89919.725,47.6796,-1309.44,0,0
90180,47.7327,-1304.97,0,0
90440.4,47.8741,-1300.51,0,0
90700.7,47.9908,-1296.12,0,0
90961,47.9805,-1291.89,0,0
91221.3,48.0078,-1287.55,0,0
91481.7,48.1127,-1283.29,0,0
91742,48.248,-1278.92,0,0
92002.3,48.5408,-1274.61,0,0
92262.6,48.6612,-1270.51,0,0
92523,48.7799,-1266.47,0,0
92783.3,48.7714,-1262.31,0,0
93043.6,48.8647,-1258.01,0,0
93303.9,49.0384,-1253.86,0,0
93564.3,49.2615,-1249.67,0,0
93824.6,49.6186,-1245.41,0,0
94084.9,50.0551,-1241.62,0,0
94345.2,50.3362,-1237.83,0,0
94605.6,50.4977,-1234.01,0,0
94865.9,50.7608,-1230.16,0,0
95126.2,51.1805,-1226.71,0,0
95386.5,51.0126,-1223.29,0,0
95646.9,50.759,-1219.65,0,0
95907.2,50.5502,-1215.78,0,0
96167.5,50.4107,-1211.87,0,0
96427.8,50.2859,-1208.04,0,0
96688.2,50.2034,-1204.14,0,0
96948.5,50.1286,-1200.26,0,0
97208.8,50.0354,-1196.33,0,0
97469.1,49.9257,-1192.26,0,0
97729.5,50.1795,-1188.25,0,0
97989.8,50.4227,-1184.4,0,0
98250.1,50.6255,-1180.55,0,0
98510.4,50.9611,-1177.04,0,0
98770.8,50.9731,-1173.51,0,0
99031.1,50.8244,-1169.95,0,0
99291.4,50.6566,-1166.22,0,0
99551.7,50.4594,-1162.22,0,0
99812.1,50.5159,-1158.21,0,0
100072,50.7389,-1154.16,0,0
100333,51.2581,-1150.33,0,0
100593,51.4905,-1146.8,0,0
100853,51.6956,-1142.97,0,0
101114,52.1079,-1139.33,0,0
101374,52.3912,-1135.78,0,0
101634,52.5503,-1132.15,0,0
101895,52.8256,-1128.49,0,0
102155,53.2034,-1124.79,0,0
102415,53.7329,-1121.16,0,0
102676,54.1084,-1117.74,0,0
102936,54.6237,-1114.12,0,0
103196,55.3132,-1110.8,0,0
103457,55.895,-1107.64,0,0
103717,56.5146,-1104.68,0,0
103977,56.6086,-1101.94,0,0
104238,56.6041,-1098.69,0,0
104498,56.8618,-1095.39,0,0
104758,57.2229,-1092.35,0,0
105019,57.3315,-1089.44,0,0
105279,57.2895,-1086.46,0,0
105539,57.1705,-1083.29,0,0
105800,57.141,-1080.06,0,0
106060,56.9656,-1076.78,0,0
106320.175,57.0236,-1073.23,0,0
106580.5,57.2634,-1069.76,0,0
106840.825,57.6577,-1066.41,0,0
107101.15,58.0163,-1063.33,0,0
107361.475,58.128,-1060.3,0,0
107621.8,58.0997,-1057.06,0,0
107882.125,58.3236,-1053.73,0,0
108142.45,58.5537,-1050.62,0,0
108402.775,58.7265,-1047.4,0,0
108663.1,58.9546,-1044.22,0,0
108923.425,59.1698,-1041.02,0,0
109183.75,59.337,-1037.91,0,0
109444.075,59.3664,-1034.8,0,0
109704.4,59.3257,-1031.45,0,0
109964.725,59.3899,-1027.99,0,0
110225.05,59.5602,-1024.38,0,0
110485.375,60.0796,-1020.67,0,0
110745.7,60.7567,-1017.05,0,0
111006.025,61.6794,-1013.91,0,0
111266.35,62.2083,-1010.85,0,0
111526.675,62.8184,-1007.6,0,0
111787.0,63.4418,-1004.23,0,0
112047.325,64.2604,-1000.98,0,0
112307.65,65.0755,-997.821,0,0
112567.975,65.9736,-994.663,0,0
112828.3,67.0403,-991.62,0,0
113088.625,68.1935,-988.704,0,0
113348.95,69.1543,-986.158,0,0
113609.275,69.9454,-983.327,0,0
113869.6,70.9702,-980.502,0,0
114129.925,72.0665,-977.754,0,0
114390.25,73.1017,-975.107,0,0
114650.575,74.0927,-972.645,0,0
114910.9,75.1594,-969.972,0,0
115171.225,76.4153,-967.411,0,0
115431.55,77.6956,-964.919,0,0
115691.875,79.2414,-962.483,0,0
115952.2,80.8925,-960.462,0,0
116212.525,82.5287,-958.712,0,0
116472.85,84.1436,-957.349,0,0
116733.175,85.3588,-956.387,0,0
116993.5,86.0222,-955.247,0,0
117253.825,86.9053,-953.891,0,0
117514.15,87.6659,-952.864,0,0
117774.475,88.0909,-951.801,0,0
118034.8,88.4998,-950.421,0,0
118295.125,89.3525,-949.064,0,0
118555.45,90.3172,-948.249,0,0
118815.775,90.9556,-947.907,0,0
119076.1,91.174,-947.684,0,0
119336.425,91.0407,-947.409,0,0
119596.75,90.7516,-947.254,0,0
119857.075,90.0007,-947.34,0,0
120117.4,88.7763,-947.164,0,0
120377.725,87.1635,-947.009,0,0
120638.05,84.8601,-946.208,0,0
120898.375,82.6745,-944.939,0,0
121158.7,80.1839,-943.196,0,0
121419.025,78.1275,-940.56,0,0
121679.35,76.7374,-938.054,0,0
121939.675,75.3836,-935.798,0,0
122200.0,73.951,-933.464,0,0
122460,72.509,-931.082,0,0
122721,71.0593,-928.563,0,0
122981,69.6265,-925.892,0,0
123241,68.2485,-923.018,0,0
123502,67.0561,-919.955,0,0
123762,66.1955,-916.834,0,0
124022,65.5395,-913.931,0,0
124283,64.8407,-911.103,0,0
124543,64.2651,-908.302,0,0
124803,63.7263,-905.686,0,0
125064,62.9517,-903.218,0,0
125324,61.9981,-900.57,0,0
125584,61.0562,-897.634,0,0
125845,60.3554,-894.683,0,0
126105,59.6993,-891.858,0,0
126365,58.9154,-888.895,0,0
126626,58.2674,-885.767,0,0
126886,57.7922,-882.752,0,0
127146,57.2708,-879.758,0,0
127406,56.9096,-876.625,0,0
127667,56.6296,-873.563,0,0
127927,56.4531,-870.679,0,0
128187,56.1363,-867.887,0,0
128448,55.7634,-865.036,0,0
128708,55.4516,-862.177,0,0
128968,55.1245,-859.19,0,0
129229,54.9368,-856.228,0,0
129489,54.7353,-853.475,0,0
129749,54.405,-850.575,0,0
130010,54.1497,-847.582,0,0
130270,54.0484,-844.648,0,0
130530,53.9088,-841.859,0,0
130791,53.6391,-839.038,0,0
131051,53.3345,-836.143,0,0
131311,52.9909,-833.076,0,0
131572,52.9027,-829.906,0,0
131832,52.9305,-826.878,0,0
132092,52.8669,-823.941,0,0
132353,52.7509,-820.875,0,0
132613,52.7816,-817.766,0,0
132873,52.9018,-814.658,0,0
133134,53.0475,-811.592,0,0
133394,53.1219,-808.478,0,0
133654,53.3541,-805.29,0,0
133915,53.7099,-802.018,0,0
134175,54.3197,-798.822,0,0
134435,55.0513,-795.851,0,0
134696,55.7293,-793.129,0,0
134956,56.2092,-790.37,0,0
135216,56.8138,-787.323,0,0
135477,57.7096,-784.36,0,0
135737,58.8728,-781.56,0,0
135997,60.3402,-779.217,0,0
136258,61.4852,-777.44,0,0
136518,62.4239,-775.759,0,0
136778,63.1531,-774.389,0,0
137039,63.2421,-773.248,0,0
137299,62.8241,-771.715,0,0
137559,62.3278,-769.727,0,0
137819,62.0106,-767.431,0,0
138080,61.8285,-765.269,0,0
138340.125,61.395,-763.075,0,0
138600.45,60.8891,-760.554,0,0
138860.775,60.5072,-757.82,0,0
139121.1,60.4,-754.913,0,0
139381.425,60.5423,-752.128,0,0
139641.75,60.7293,-749.523,0,0
139902.075,60.8598,-746.976,0,0
140162.4,60.9988,-744.492,0,0
140422.725,60.9882,-742.016,0,0
140683.05,60.9045,-739.406,0,0
140943.375,60.9435,-736.724,0,0
141203.7,61.0054,-734.056,0,0
141464.025,60.9932,-731.353,0,0
141724.35,61.0759,-728.509,0,0
141984.675,61.2913,-725.658,0,0
142245.0,61.5731,-722.843,0,0
142505.325,61.9295,-720.083,0,0
142765.65,62.2441,-717.333,0,0
143025.975,62.6606,-714.542,0,0
143286.3,63.1985,-711.808,0,0
143546.625,63.8032,-709.235,0,0
143806.95,64.3308,-706.797,0,0
144067.275,64.7343,-704.456,0,0
144327.6,65.0274,-702.076,0,0
144587.925,65.2297,-699.651,0,0
144848.25,65.394,-697.058,0,0
145108.575,65.7717,-694.422,0,0
145368.9,66.1425,-691.952,0,0
145629.225,66.3588,-689.547,0,0
145889.55,66.431,-687.012,0,0
146149.875,66.5563,-684.235,0,0
146410.2,66.8809,-681.461,0,0
146670.525,67.2661,-678.789,0,0
146930.85,67.6052,-676.103,0,0
147191.175,68.0155,-673.464,0,0
147451.5,68.317,-670.865,0,0
147711.825,68.6595,-668.128,0,0
147972.15,69.1393,-665.519,0,0
148232.475,69.4893,-663.038,0,0
148492.8,69.7003,-660.539,0,0
148753.125,69.7693,-658.008,0,0
149013.45,69.7172,-655.316,0,0
149273.775,69.6598,-652.386,0,0
149534.1,69.6963,-649.291,0,0
149794.425,69.8765,-646.183,0,0
150054.75,70.0801,-643.032,0,0
150315.075,70.3244,-639.809,0,0
150575.4,70.6205,-636.498,0,0
150835.725,70.9948,-633.125,0,0
151096.05,71.4217,-629.706,0,0
151356.375,71.9765,-626.215,0,0
151616.7,72.6153,-622.706,0,0
151877.025,73.3464,-619.166,0,0
152137.35,74.1499,-615.612,0,0
152397.675,75.0767,-611.986,0,0
152658.0,76.1459,-608.399,0,0
152918.325,77.2839,-604.895,0,0
153178.65,78.4568,-601.399,0,0
153438.975,79.6676,-597.905,0,0
153699.3,80.8876,-594.385,0,0
153959.625,82.2084,-590.75,0,0
154219.95,83.7382,-587.1,0,0
154480,85.3547,-583.549,0,0
154741,87.1173,-579.956,0,0
155001,88.9039,-576.543,0,0
155261,90.8207,-573.067,0,0
155522,92.8572,-569.796,0,0
155782,94.8348,-566.315,0,0
156042,97.1531,-563.017,0,0
156303,99.4579,-559.739,0,0
156563,101.838,-556.734,0,0
156823,104.25,-553.8,0,0
157084,106.76,-550.905,0,0
157344,109.386,-548.116,0,0
157604,112.076,-545.661,0,0
157864,114.621,-543.356,0,0
158125,117.151,-541.039,0,0
158385,119.77,-538.95,0,0
158645,122.231,-537.391,0,0
158906,124.086,-536.019,0,0
159166,125.565,-534.405,0,0
159426,126.778,-532.627,0,0
159687,127.898,-530.623,0,0
159947,128.644,-528.478,0,0
160207,129.127,-525.855,0,0
160468,129.734,-522.772,0,0
160728,130.319,-519.335,0,0
160988,130.961,-515.4,0,0
161249,131.98,-510.808,0,0
161509,133.637,-505.946,0,0
161769,135.827,-501.001,0,0
162030,138.423,-496.051,0,0
162290,141.65,-491.226,0,0
162550,144.935,-486.727,0,0
162811,148.311,-482.124,0,0
163071,152.052,-477.236,0,0
163331,156.352,-472.41,0,0
163592,161.27,-467.808,0,0
163852,166.449,-463.795,0,0
164112,171.631,-460.105,0,0
164373,176.851,-456.496,0,0
164633,182.285,-452.968,0,0
164893,187.728,-449.817,0,0
165154,192.936,-446.645,0,0
165414,198.201,-443.104,0,0
165674,203.817,-439.144,0,0
165935,210.256,-434.879,0,0
166195,217.626,-430.694,0,0
166455,225.888,-427.063,0,0
166716,234.646,-424.171,0,0
166976,243.707,-421.736,0,0
167236,253.408,-419.812,0,0
167497,263.462,-418.773,0,0
167757,273.679,-418.351,0,0
168017,284.279,-418.291,0,0
168277,295.802,-419.289,0,0
168538,307.583,-421.749,0,0
168798,318.821,-425.74,0,0
169058,329.692,-430.71,0,0
169319,339.941,-437.067,0,0
169579,348.652,-443.783,0,0
169839,357.023,-450.307,0,0
170100,365.726,-457.198,0,0
170360.075,374.448,-465.5,0,0
170620.4,382.023,-475.216,0,0
170880.725,387.971,-485.336,0,0
171141.05,393.021,-495.045,0,0
171401.375,397.98,-504.849,0,0
171661.7,402.541,-515.329,0,0
171922.025,406.598,-526.453,0,0
172182.35,410.014,-538.871,0,0
172442.675,411.297,-552.682,0,0
172703.0,410.052,-565.99,0,0
172963.325,407.469,-578.721,0,0
173223.65,403.3,-590.941,0,0
173483.975,397.422,-602.528,0,0
173744.3,389.677,-612.553,0,0
174004.625,381.118,-620.457,0,0
174264.95,372.24,-626.73,0,0
174525.275,363.011,-631.488,0,0
174785.6,353.422,-634.074,0,0
175045.925,345.165,-634.132,0,0
175306.25,339.109,-633.836,0,0
175566.575,332.996,-633.797,0,0
175826.9,327.111,-631.967,0,0
176087.225,323.177,-629.052,0,0
176347.55,320.946,-626.24,0,0
176607.875,320.056,-623.508,0,0
176868.2,320.868,-621.352,0,0
177128.525,322.86,-620.607,0,0
177388.85,325.214,-621.271,0,0
177649.175,327.742,-622.877,0,0
177909.5,330.885,-625.719,0,0
178169.825,334.166,-630.608,0,0
178430.15,336.341,-637.889,0,0
178690.475,336.179,-646.665,0,0
178950.8,333.264,-655.697,0,0
179211.125,327.91,-663.584,0,0
179471.45,321.624,-669.454,0,0
179731.775,315.332,-674.351,0,0
179992.1,308.662,-678.381,0,0
180252.425,302.507,-681.158,0,0
180512.75,297.192,-684.33,0,0
180773.075,291.493,-688.315,0,0
181033.4,284.499,-692.723,0,0
181293.725,275.663,-696.465,0,0
181554.05,265.868,-697.999,0,0
181814.375,256.837,-698.066,0,0
182074.7,248.004,-697.717,0,0
182335.025,239.068,-696.589,0,0
182595.35,230.12,-694.311,0,0
182855.675,221.799,-690.752,0,0
183116.0,214.73,-686.421,0,0
183376.325,208.753,-682.319,0,0
183636.65,202.849,-678.62,0,0
183896.975,196.761,-674.459,0,0
184157.3,191.101,-669.604,0,0
184417.625,186.268,-664.276,0,0
184677.95,182.4,-659.071,0,0
184938.275,179.001,-654.523,0,0
185198.6,175.428,-650.251,0,0
185458.925,171.695,-645.9,0,0
185719.25,167.869,-641.255,0,0
185979.575,164.277,-636.107,0,0
186239.9,161.194,-630.688,0,0
186500,158.613,-625.123,0,0
186761,156.503,-619.691,0,0
187021,154.632,-614.259,0,0
187281,153.202,-608.739,0,0
187542,152.326,-603.383,0,0
187802,151.91,-598.342,0,0
188062,151.816,-593.815,0,0
188322,151.865,-589.831,0,0
188583,151.705,-586.629,0,0
188843,150.776,-583.707,0,0
189103,149.249,-580.47,0,0
189364,147.594,-576.617,0,0
189624,146.232,-572.55,0,0
189884,144.827,-568.425,0,0
190145,143.608,-563.976,0,0
190405,142.64,-559.612,0,0
190665,141.419,-555.261,0,0
190926,140.191,-550.322,0,0
191186,139.545,-544.993,0,0
191446,139.519,-539.824,0,0
191707,139.676,-535.067,0,0
191967,139.649,-530.456,0,0
192227,139.601,-525.686,0,0
192488,139.657,-520.677,0,0
192748,140.038,-515.604,0,0
193008,140.637,-510.53,0,0
193269,141.494,-505.482,0,0
193529,142.566,-500.583,0,0
193789,143.692,-495.845,0,0
194050,144.806,-491.062,0,0
194310,146.046,-486.152,0,0
194570,147.538,-481.131,0,0
194831,149.433,-476.107,0,0
195091,151.687,-471.392,0,0
195351,153.981,-466.955,0,0
195612,156.311,-462.739,0,0
195872,158.688,-458.537,0,0
196132,161.091,-454.591,0,0
196393,163.43,-450.592,0,0
196653,165.951,-446.571,0,0
196913,168.677,-442.705,0,0
197174,171.388,-439.114,0,0
197434,174.04,-435.72,0,0
197694,176.56,-432.525,0,0
197955,178.783,-429.196,0,0
198215,180.867,-425.585,0,0
198475,183.209,-421.775,0,0
198735,185.778,-417.951,0,0
198996,188.348,-414.207,0,0
199256,190.906,-410.444,0,0
199516,193.43,-406.412,0,0
199777,196.294,-402.183,0,0
200037,199.371,-397.845,0,0
200297,202.825,-393.568,0,0
200558,206.514,-389.328,0,0
200818,210.276,-385.366,0,0
201078,214.039,-381.359,0,0
201339,217.966,-377.05,0,0
201599,222.344,-372.707,0,0
201859,227.119,-368.454,0,0
202120,232.216,-364.365,0,0
202380.025,237.654,-360.396,0,0
202640.35,243.38,-356.825,0,0
202900.675,249.175,-353.486,0,0
203161.0,255.068,-350.206,0,0
203421.325,261.222,-347.11,0,0
203681.65,267.651,-344.103,0,0
203941.975,274.32,-341.346,0,0
204202.3,281.353,-338.853,0,0
204462.625,288.46,-336.762,0,0
204722.95,295.793,-334.966,0,0
204983.275,303.207,-333.278,0,0
205243.6,311.088,-331.69,0,0
205503.925,319.701,-330.878,0,0
205764.25,328.24,-331.138,0,0
206024.575,336.562,-332.221,0,0
206284.9,344.331,-333.89,0,0
206545.225,351.685,-335.969,0,0
206805.55,358.526,-338.45,0,0
207065.875,364.554,-341.223,0,0
207326.2,369.792,-343.7,0,0
207586.525,374.468,-345.565,0,0
207846.85,379.065,-346.522,0,0
208107.175,384.07,-346.792,0,0
208367.5,389.814,-346.659,0,0
208627.825,396.141,-346.222,0,0
208888.15,403.821,-345.636,0,0
209148.475,412.78,-345.922,0,0
209408.8,422.36,-347.375,0,0
209669.125,432.111,-349.667,0,0
209929.45,442.445,-352.801,0,0
210189.775,453.325,-357.36,0,0
210450.1,464.46,-363.883,0,0
210710.425,474.358,-372.818,0,0
210970.75,482.007,-382.52,0,0
211231.075,488.372,-392.094,0,0
211491.4,493.986,-401.689,0,0
211751.725,498.84,-411.501,0,0
212012.05,502.802,-421.552,0,0
212272.375,505.713,-431.449,0,0
212532.7,508.158,-440.945,0,0
212793.025,510.361,-450.82,0,0
213053.35,511.197,-461.147,0,0
213313.675,510.547,-470.636,0,0
213574.0,509.721,-478.773,0,0
213834.325,509.304,-486.623,0,0
214094.65,508.729,-494.798,0,0
214354.975,507.393,-503.054,0,0
214615.3,505.345,-510.725,0,0
214875.625,503.028,-517.875,0,0
215135.95,500.257,-524.557,0,0
215396.275,497.396,-530.341,0,0
215656.6,494.991,-535.612,0,0
215916.925,493.133,-540.645,0,0
216177.25,491.856,-546.119,0,0
216437.575,490.553,-552.391,0,0
216697.9,488.591,-559.562,0,0
216958.225,485.241,-567.014,0,0
217218.55,480.44,-573.82,0,0
217478.875,475.099,-579.23,0,0
217739.2,470.037,-583.773,0,0
217999.525,465.226,-588.15,0,0
218259.85,460.154,-592.417,0,0
218520,454.789,-596.428,0,0
218780,448.998,-600.125,0,0
219041,442.65,-603.298,0,0
219301,435.863,-605.521,0,0
219561,429.201,-606.651,0,0
219822,422.796,-606.976,0,0
220082,416.737,-606.684,0,0
220342,410.992,-605.691,0,0
220603,405.77,-604.068,0,0
220863,401.14,-602.053,0,0
221123,397.028,-599.59,0,0
221384,393.56,-596.91,0,0
221644,390.689,-593.999,0,0
221904,388.412,-591.061,0,0
222165,386.82,-588.031,0,0
222425,385.862,-585.201,0,0
222685,385.296,-582.742,0,0
222946,384.926,-580.49,0,0
223206,384.8,-578.265,0,0
223466,385.023,-576.228,0,0
223727,385.521,-574.358,0,0
223987,386.171,-572.834,0,0
224247,386.871,-571.529,0,0
224508,387.351,-570.258,0,0
224768,387.851,-568.582,0,0
225028,388.852,-566.515,0,0
225289,390.598,-564.331,0,0
225549,393.197,-562.462,0,0
225809,396.378,-561.079,0,0
226070,400.018,-560.354,0,0
226330,404.012,-560.46,0,0
226590,407.88,-561.379,0,0
226851,411.396,-562.77,0,0
227111,414.746,-564.22,0,0
227371,418.304,-565.874,0,0
227632,422.089,-567.916,0,0
227892,426.164,-570.743,0,0
228152,429.908,-574.33,0,0
228413,433.362,-578.463,0,0
228673,436.474,-583.088,0,0
228933,439.122,-588.287,0,0
229193,441.04,-593.867,0,0
229454,442.393,-599.291,0,0
229714,443.667,-604.58,0,0
229974,445.024,-610.119,0,0
230235,446.313,-616.387,0,0
230495,446.863,-623.463,0,0
230755,446.377,-630.793,0,0
231016,444.93,-638.008,0,0
231276,442.719,-644.849,0,0
231536,440.005,-651.043,0,0
231797,437.409,-656.875,0,0
232057,434.94,-662.755,0,0
232317,432.295,-669.194,0,0
232578,428.874,-676.027,0,0
232838,424.471,-682.722,0,0
233098,419.492,-689.029,0,0
233359,414.084,-695.245,0,0
233619,407.732,-701.465,0,0
233879,400.24,-707.024,0,0
234140,392.147,-711.476,0,0
234400,383.776,-715.109,0,0
234660.3,374.991,-717.945,0,0
234920.625,365.91,-719.735,0,0
235180.95,356.809,-720.191,0,0
235441.275,348.189,-719.434,0,0
235701.6,340.344,-717.738,0,0
235961.925,333.42,-715.582,0,0
236222.25,327.384,-713.263,0,0
236482.575,322.136,-711.075,0,0
236742.9,317.253,-709.389,0,0
237003.225,312.186,-708.084,0,0
237263.55,306.74,-706.646,0,0
237523.875,301.225,-704.812,0,0
237784.2,295.673,-702.673,0,0
238044.525,289.95,-700.05,0,0
238304.85,284.254,-696.68,0,0
238565.175,278.93,-692.372,0,0
238825.5,274.562,-687.201,0,0
239085.825,271.32,-681.777,0,0
239346.15,269.291,-676.342,0,0
239606.475,268.447,-671.439,0,0
239866.8,268.311,-667.415,0,0
240127.125,268.548,-664.503,0,0
240387.45,268.78,-662.382,0,0
240647.775,268.573,-660.98,0,0
240908.1,267.814,-660.096,0,0
241168.425,266.556,-659.26,0,0
241428.75,264.806,-658.498,0,0
241689.075,262.69,-657.478,0,0
241949.4,260.252,-656.36,0,0
242209.725,257.477,-654.848,0,0
242470.05,254.435,-652.721,0,0
242730.375,251.64,-649.943,0,0
242990.7,249.326,-646.735,0,0
243251.025,247.416,-643.523,0,0
243511.35,245.497,-640.194,0,0
243771.675,243.786,-636.361,0,0
244032.0,242.697,-632.052,0,0
244292.325,242.537,-627.667,0,0
244552.65,243.162,-623.536,0,0
244812.975,244.531,-620.015,0,0
245073.3,246.124,-617.298,0,0
245333.625,247.628,-615.142,0,0
245593.95,249.048,-613.472,0,0
245854.275,250.449,-612.166,0,0
246114.6,251.504,-611.219,0,0
246374.925,252.255,-610.377,0,0
246635.25,252.768,-609.567,0,0
246895.575,253.159,-608.76,0,0
247155.9,253.43,-607.952,0,0
247416.225,253.609,-606.996,0,0
247676.55,253.768,-605.975,0,0
247936.875,254.035,-604.871,0,0
248197.2,254.392,-603.825,0,0
248457.525,254.737,-602.779,0,0
248717.85,255.16,-601.695,0,0
248978.175,255.764,-600.647,0,0
249238.5,256.489,-599.738,0,0
249498.825,257.198,-599.022,0,0
249759.15,257.951,-598.374,0,0
250019.475,258.706,-597.804,0,0
250279.8,259.436,-597.337,0,0
250540,260.178,-597.037,0,0
250800,260.909,-596.7,0,0
251061,261.683,-596.498,0,0
251321,262.497,-596.43,0,0
251581,263.316,-596.376,0,0
251842,264.251,-596.474,0,0
252102,265.255,-596.889,0,0
252362,266.126,-597.629,0,0
252623,266.748,-598.594,0,0
252883,267.178,-599.63,0,0
253143,267.446,-600.765,0,0
253404,267.519,-602.011,0,0
253664,267.4,-603.397,0,0
253924,267.001,-604.898,0,0
254185,266.176,-606.404,0,0
254445,265.041,-607.714,0,0
254705,263.728,-608.775,0,0
254966,262.271,-609.745,0,0
255226,260.709,-610.505,0,0
255486,258.993,-611.134,0,0
255747,257.186,-611.597,0,0
256007,255.328,-611.827,0,0
256267,253.424,-611.861,0,0
256528,251.53,-611.787,0,0
256788,249.533,-611.521,0,0
257048,247.5,-611.07,0,0
257309,245.445,-610.345,0,0
257569,243.458,-609.365,0,0
257829,241.646,-608.128,0,0
258090,240.001,-606.742,0,0
258350,238.544,-605.176,0,0
258610,237.374,-603.512,0,0
258871,236.444,-601.922,0,0
259131,235.615,-600.444,0,0
259391,234.809,-599.053,0,0
259651,233.873,-597.642,0,0
259912,232.902,-596.121,0,0
260172,231.931,-594.269,0,0
260432,231.194,-592.159,0,0
260693,230.738,-589.924,0,0
260953,230.524,-587.639,0,0
261213,230.563,-585.275,0,0
261474,230.913,-582.858,0,0
261734,231.597,-580.511,0,0
261994,232.64,-578.128,0,0
262255,234.073,-575.898,0,0
262515,235.924,-573.914,0,0
262775,238.087,-572.293,0,0
263036,240.517,-571.132,0,0
263296,243.031,-570.493,0,0
263556,245.472,-570.326,0,0
263817,247.789,-570.537,0,0
264077,249.942,-571.121,0,0
264337,251.816,-571.978,0,0
264598,253.465,-573.072,0,0
264858,254.806,-574.301,0,0
265118,255.785,-575.631,0,0
265379,256.373,-576.833,0,0
265639,256.878,-577.673,0,0
265899,257.422,-578.484,0,0
266160,258.102,-579.169,0,0
266420,258.929,-579.91,0,0
266680.25,259.915,-580.857,0,0
266940.575,260.863,-582.059,0,0
267200.9,261.683,-583.499,0,0
267461.225,262.317,-585.061,0,0
267721.55,262.755,-586.752,0,0
267981.875,262.913,-588.536,0,0
268242.2,262.824,-590.224,0,0
268502.525,262.548,-591.805,0,0
268762.85,262.106,-593.222,0,0
269023.175,261.577,-594.306,0,0
269283.5,261.164,-595.226,0,0
269543.825,261,-595.959,0,0
269804.15,261.077,-596.655,0,0
270064.475,261.392,-597.493,0,0
270324.8,261.888,-598.425,0,0
270585.125,262.645,-599.594,0,0
270845.45,263.473,-601.053,0,0
271105.775,264.404,-602.699,0,0
271366.1,265.523,-604.636,0,0
271626.425,266.847,-607.032,0,0
271886.75,268.258,-610.103,0,0
272147.075,269.551,-614.037,0,0
272407.4,270.363,-618.829,0,0
272667.725,270.224,-624.332,0,0
272928.05,269.157,-630.121,0,0
273188.375,267.182,-636.007,0,0
273448.7,264.275,-642.014,0,0
273709.025,260.285,-647.861,0,0
273969.35,255.31,-653.242,0,0
274229.675,249.508,-657.916,0,0
274490.0,243.114,-661.891,0,0
274750.325,236.338,-665.181,0,0
275010.65,229.062,-667.808,0,0
275270.975,221.323,-669.631,0,0
275531.3,213.323,-670.319,0,0
275791.625,205.464,-669.995,0,0
276051.95,197.896,-668.805,0,0
276312.275,190.695,-666.988,0,0
276572.6,183.821,-664.625,0,0
276832.925,177.245,-661.668,0,0
277093.25,170.99,-658.178,0,0
277353.575,165.221,-654.101,0,0
277613.9,160.098,-649.549,0,0
277874.225,155.622,-644.684,0,0
278134.55,151.82,-639.708,0,0
278394.875,148.642,-634.67,0,0
278655.2,146.045,-629.714,0,0
278915.525,143.891,-624.886,0,0
279175.85,142.129,-620.252,0,0
279436.175,140.599,-615.829,0,0
279696.5,139.399,-611.403,0,0
279956.825,138.486,-607.099,0,0
280217.15,137.898,-602.963,0,0
280477.475,137.657,-599.082,0,0
280737.8,137.704,-595.489,0,0
280998.125,137.87,-592.281,0,0
281258.45,138.047,-589.524,0,0
281518.775,138.047,-587.068,0,0
281779.1,137.813,-584.763,0,0
282039.425,137.382,-582.492,0,0
282299.75,136.765,-580.191,0,0
282560,135.985,-577.742,0,0
282820,135.142,-575.034,0,0
283081,134.418,-572.092,0,0
283341,133.884,-568.961,0,0
283601,133.584,-565.738,0,0
283862,133.551,-562.49,0,0
284122,133.754,-559.272,0,0
284382,134.19,-556.15,0,0
284643,134.818,-553.125,0,0
284903,135.617,-550.242,0,0
285163,136.531,-547.486,0,0
285424,137.599,-544.894,0,0
285684,138.747,-542.473,0,0
285944,139.969,-540.237,0,0
286205,141.227,-538.169,0,0
286465,142.481,-536.29,0,0
286725,143.76,-534.646,0,0
286986,144.895,-533.15,0,0
287246,145.909,-531.775,0,0
287506,146.755,-530.44,0,0
287767,147.464,-529.117,0,0
288027,148.068,-527.722,0,0
288287,148.6,-526.226,0,0
288548,149.135,-524.614,0,0
288808,149.721,-522.905,0,0
289068,150.393,-521.107,0,0
289329,151.179,-519.28,0,0
289589,152.057,-517.482,0,0
289849,153.018,-515.671,0,0
290109,154.023,-513.843,0,0
290370,155.178,-511.942,0,0
290630,156.534,-510.087,0,0
290890,158.059,-508.379,0,0
291151,159.687,-506.828,0,0
291411,161.341,-505.438,0,0
291671,162.997,-504.215,0,0
291932,164.59,-503.085,0,0
292192,166.111,-502.004,0,0
292452,167.63,-500.904,0,0
292713,169.215,-499.824,0,0
292973,170.837,-498.82,0,0
293233,172.427,-497.883,0,0
293494,174.024,-496.957,0,0
293754,175.63,-496.048,0,0
294014,177.249,-495.175,0,0
294275,178.863,-494.272,0,0
294535,180.54,-493.322,0,0
294795,182.344,-492.344,0,0
295056,184.282,-491.416,0,0
295316,186.341,-490.581,0,0
295576,188.487,-489.86,0,0
295837,190.673,-489.225,0,0
296097,192.933,-488.633,0,0
296357,195.289,-488.11,0,0
296618,197.781,-487.67,0,0
296878,200.4,-487.368,0,0
297138,203.171,-487.249,0,0
297399,205.989,-487.382,0,0
297659,208.825,-487.735,0,0
297919,211.638,-488.302,0,0
298180,214.364,-489.049,0,0
298440,217.014,-489.899,0,0
298700.2,219.645,-490.823,0,0
298960.525,222.322,-491.867,0,0
299220.85,224.947,-493.028,0,0
299481.175,227.661,-494.341,0,0
299741.5,230.412,-495.63,0,0
300001.825,233.184,-497.302,0,0
300262.15,236.045,-499.08,0,0
300522.475,238.806,-501.114,0,0
300782.8,241.67,-503.239,0,0
301043.125,244.662,-505.758,0,0
301303.45,247.572,-508.547,0,0
301563.775,250.657,-511.691,0,0
301824.1,253.601,-515.359,0,0
302084.425,256.513,-519.665,0,0
302344.75,259.038,-524.534,0,0
302605.075,261.049,-530.034,0,0
302865.4,262.218,-535.935,0,0
303125.725,262.649,-542.069,0,0
303386.05,262.284,-548.221,0,0
303646.375,261.13,-554.201,0,0
303906.7,259.341,-559.869,0,0
304167.025,257.079,-565.159,0,0
304427.35,254.415,-570.091,0,0
304687.675,251.449,-574.645,0,0
304948.0,248.208,-578.837,0,0
305208.325,244.834,-582.692,0,0
305468.65,241.276,-586.357,0,0
305728.975,237.507,-589.735,0,0
305989.3,233.445,-592.832,0,0
306249.625,229.213,-595.531,0,0
306509.95,224.857,-597.824,0,0
306770.275,220.459,-599.718,0,0
307030.6,216.088,-601.227,0,0
307290.925,211.753,-602.427,0,0
307551.25,207.487,-603.363,0,0
307811.575,203.303,-604.029,0,0
308071.9,199.189,-604.487,0,0
308332.225,195.096,-604.716,0,0
308592.55,191.094,-604.701,0,0
308852.875,187.17,-604.422,0,0
309113.2,183.387,-603.932,0,0
309373.525,179.752,-603.23,0,0
309633.85,176.277,-602.335,0,0
309894.175,172.993,-601.291,0,0
310154.5,169.951,-600.153,0,0
310414.825,167.079,-598.91,0,0
310675.15,164.369,-597.657,0,0
310935.475,161.838,-596.377,0,0
311195.8,159.444,-595.123,0,0
311456.125,157.122,-593.886,0,0
311716.45,154.896,-592.65,0,0
311976.775,152.718,-591.411,0,0
312237.1,150.607,-590.169,0,0
312497.425,148.523,-588.884,0,0
312757.75,146.515,-587.582,0,0
313018.075,144.56,-586.262,0,0
313278.4,142.643,-584.898,0,0
313538.725,140.762,-583.517,0,0
313799.05,138.93,-582.097,0,0
314059.375,137.134,-580.564,0,0
314319.7,135.404,-578.985,0,0
314580,133.784,-577.337,0,0
314840,132.281,-575.639,0,0
315101,130.904,-573.863,0,0
315361,129.682,-572.127,0,0
315621,128.596,-570.395,0,0
315882,127.614,-568.743,0,0
316142,126.729,-567.096,0,0
316402,125.955,-565.551,0,0
316663,125.246,-564.09,0,0
316923,124.553,-562.699,0,0
317183,123.863,-561.378,0,0
317444,123.186,-560.076,0,0
317704,122.507,-558.831,0,0
317964,121.848,-557.574,0,0
318225,121.213,-556.328,0,0
318485,120.605,-555.087,0,0
318745,120.005,-553.858,0,0
319006,119.476,-552.623,0,0
319266,119.037,-551.395,0,0
319526,118.609,-550.191,0,0
319787,118.301,-549.086,0,0
320047,117.983,-548.002,0,0
320307,117.684,-547.039,0,0
320567,117.394,-546.112,0,0
320828,117.099,-545.248,0,0
321088,116.8,-544.428,0,0
321348,116.5,-543.658,0,0
321609,116.182,-542.93,0,0
321869,115.826,-542.243,0,0
322129,115.449,-541.586,0,0
322390,115.054,-540.963,0,0
322650,114.628,-540.363,0,0
322910,114.144,-539.795,0,0
323171,113.605,-539.225,0,0
323431,113.03,-538.641,0,0
323691,112.4,-538.004,0,0
323952,111.766,-537.347,0,0
324212,111.129,-536.618,0,0
324472,110.517,-535.866,0,0
324733,109.942,-535.075,0,0
324993,109.42,-534.271,0,0
325253,108.948,-533.463,0,0
325514,108.526,-532.691,0,0
325774,108.162,-531.975,0,0
326034,107.771,-531.33,0,0
326295,107.375,-530.713,0,0
326555,106.953,-530.124,0,0
326815,106.529,-529.559,0,0
327076,106.073,-529.035,0,0
327336,105.59,-528.526,0,0
327596,105.065,-528.014,0,0
327857,104.519,-527.505,0,0
328117,103.948,-526.997,0,0
328377,103.364,-526.472,0,0
328638,102.734,-525.955,0,0
328898,102.118,-525.403,0,0
329158,101.499,-524.85,0,0
329419,100.867,-524.279,0,0
329679,100.243,-523.708,0,0
329939,99.5991,-523.149,0,0
330200,98.9803,-522.574,0,0
330460,98.3187,-522.019,0,0
330720.15,97.6493,-521.469,0,0
330980.475,97.03,-520.914,0,0
331240.8,96.3458,-520.435,0,0
331501.125,95.6496,-519.831,0,0
331761.45,94.8954,-519.383,0,0
332021.775,94.1286,-518.815,0,0
332282.1,93.3273,-518.326,0,0
332542.425,92.4129,-517.72,0,0
332802.75,91.5858,-517.189,0,0
333063.075,90.6578,-516.58,0,0
333323.4,89.6431,-515.853,0,0
333583.725,88.7196,-515.119,0,0
333844.05,87.7181,-514.403,0,0
334104.375,86.6892,-513.56,0,0
334364.7,85.7431,-512.654,0,0
334625.025,84.8101,-511.721,0,0
334885.35,83.8735,-510.77,0,0
335145.675,82.9744,-509.749,0,0
335406.0,82.075,-508.837,0,0
335666.325,81.1978,-507.762,0,0
335926.65,80.2915,-506.658,0,0
336186.975,79.397,-505.585,0,0
336447.3,78.5433,-504.364,0,0
336707.625,77.7541,-503.106,0,0
336967.95,77.0452,-501.926,0,0
337228.275,76.2355,-500.625,0,0
337488.6,75.6051,-499.347,0,0
337748.925,75.0003,-498.047,0,0
338009.25,74.3465,-496.73,0,0
338269.575,73.7657,-495.456,0,0
338529.9,73.2824,-494.121,0,0
338790.225,72.7561,-492.83,0,0
339050.55,72.2582,-491.498,0,0
339310.875,71.8792,-490.163,0,0
339571.2,71.4311,-488.897,0,0
339831.525,71.0509,-487.619,0,0
340091.85,70.7303,-486.263,0,0
340352.175,70.325,-484.958,0,0
340612.5,69.9871,-483.65,0,0
340872.825,69.7367,-482.295,0,0
341133.15,69.4196,-480.999,0,0
341393.475,69.1717,-479.667,0,0
341653.8,68.9519,-478.351,0,0
341914.125,68.7979,-477,0,0
342174.45,68.635,-475.663,0,0
342434.775,68.5415,-474.362,0,0
342695.1,68.4507,-473.03,0,0
342955.425,68.4257,-471.775,0,0
343215.75,68.4623,-470.488,0,0
343476.075,68.4947,-469.222,0,0
343736.4,68.5332,-467.985,0,0
343996.725,68.621,-466.744,0,0
344257.05,68.8206,-465.586,0,0
344517.375,68.9683,-464.497,0,0
344777.7,69.046,-463.43,0,0
345038.025,69.2713,-462.348,0,0
345298.35,69.452,-461.362,0,0
345558.675,69.6285,-460.326,0,0
345819.0,69.7843,-459.394,0,0
346079.325,69.9957,-458.482,0,0
346339.65,70.1562,-457.613,0,0
346599.975,70.2914,-456.799,0,0
346860,70.4032,-455.974,0,0
347121,70.5374,-455.202,0,0
347381,70.5791,-454.418,0,0
347641,70.6182,-453.649,0,0
347902,70.6088,-452.904,0,0
348162,70.602,-452.124,0,0
348422,70.4656,-451.332,0,0
348683,70.3616,-450.47,0,0
348943,70.2287,-449.637,0,0
349203,70.1126,-448.799,0,0
349464,70.0371,-447.815,0,0
349724,70.0089,-446.858,0,0
349984,69.9017,-445.951,0,0
350245,69.8332,-444.956,0,0
350505,69.7287,-444.006,0,0
350765,69.6561,-442.933,0,0
351025,69.5818,-441.901,0,0
351286,69.6737,-440.759,0,0
351546,69.7225,-439.59,0,0
351806,69.8567,-438.438,0,0
352067,70.0541,-437.397,0,0
352327,70.2745,-436.256,0,0
352587,70.567,-435.216,0,0
352848,70.8725,-434.226,0,0
353108,71.2598,-433.221,0,0
353368,71.576,-432.27,0,0
353629,71.9755,-431.38,0,0
353889,72.3625,-430.498,0,0
354149,72.7713,-429.661,0,0
354410,73.1683,-428.85,0,0
354670,73.5676,-428.09,0,0
354930,74.0206,-427.326,0,0
355191,74.4966,-426.668,0,0
355451,74.8896,-426.078,0,0
355711,75.3926,-425.577,0,0
355972,75.6943,-425.155,0,0
356232,75.9705,-424.76,0,0
356492,76.1,-424.396,0,0
356753,76.2161,-423.959,0,0
357013,76.2661,-423.548,0,0
357273,76.2401,-423.034,0,0
357534,76.1849,-422.556,0,0
357794,76.0634,-421.969,0,0
358054,75.9343,-421.369,0,0
358315,75.8154,-420.674,0,0
358575,75.6411,-419.935,0,0
358835,75.5276,-419.091,0,0
359096,75.4399,-418.274,0,0
359356,75.3688,-417.351,0,0
359616,75.3442,-416.37,0,0
359877,75.3884,-415.417,0,0
360137,75.4764,-414.408,0,0
360397,75.6271,-413.347,0,0
360658,75.7982,-412.331,0,0
360918,76.0522,-411.347,0,0
361178,76.3411,-410.343,0,0
361438,76.6747,-409.38,0,0
361699,77.0555,-408.415,0,0
361959,77.4658,-407.48,0,0
362219,77.9303,-406.618,0,0
362480,78.4005,-405.78,0,0
362740.1,78.8333,-404.968,0,0
363000.425,79.3081,-404.2,0,0
363260.75,79.7611,-403.437,0,0
363521.075,80.2295,-402.71,0,0
363781.4,80.7294,-401.941,0,0
364041.725,81.2232,-401.189,0,0
364302.05,81.727,-400.478,0,0
364562.375,82.3213,-399.802,0,0
364822.7,82.8734,-399.111,0,0
365083.025,83.4474,-398.53,0,0
365343.35,84.1204,-397.948,0,0
365603.675,84.7519,-397.471,0,0
365864.0,85.3659,-397.02,0,0
366124.325,85.9169,-396.649,0,0
366384.65,86.4368,-396.27,0,0
366644.975,86.9065,-395.893,0,0
366905.3,87.3509,-395.559,0,0
367165.625,87.8197,-395.205,0,0
367425.95,88.2702,-394.863,0,0
367686.275,88.7202,-394.523,0,0
367946.6,89.1198,-394.202,0,0
368206.925,89.548,-393.897,0,0
368467.25,89.9885,-393.638,0,0
368727.575,90.4072,-393.391,0,0
368987.9,90.8111,-393.196,0,0
369248.225,91.1906,-393.009,0,0
369508.55,91.5389,-392.894,0,0
369768.875,91.8637,-392.862,0,0
370029.2,92.0773,-392.856,0,0
370289.525,92.1997,-392.894,0,0
370549.85,92.1969,-392.91,0,0
370810.175,92.0812,-392.827,0,0
371070.5,91.8802,-392.739,0,0
371330.825,91.5701,-392.489,0,0
371591.15,91.2974,-392.197,0,0
371851.475,90.9897,-391.756,0,0
372111.8,90.7086,-391.184,0,0
372372.125,90.4786,-390.554,0,0
372632.45,90.2994,-389.829,0,0
372892.775,90.1817,-389.045,0,0
373153.1,90.1,-388.259,0,0
373413.425,90.145,-387.483,0,0
373673.75,90.203,-386.692,0,0
373934.075,90.301,-385.875,0,0
374194.4,90.4846,-385.098,0,0
374454.725,90.6848,-384.304,0,0
374715.05,90.8981,-383.515,0,0
374975.375,91.1335,-382.77,0,0
375235.7,91.4119,-382.029,0,0
375496.025,91.7477,-381.301,0,0
375756.35,92.0744,-380.604,0,0
376016.675,92.4079,-379.968,0,0
376277.0,92.7296,-379.331,0,0
376537.325,93.0394,-378.725,0,0
376797.65,93.3157,-378.112,0,0
377057.975,93.5658,-377.488,0,0
377318.3,93.8243,-376.774,0,0
377578.625,94.1407,-376.065,0,0
377838.95,94.44,-375.334,0,0
378099.275,94.8258,-374.573,0,0
378359.6,95.2137,-373.845,0,0
378619.925,95.6757,-373.076,0,0
378880,96.1664,-372.35,0,0
379141,96.6479,-371.693,0,0
379401,97.2076,-371.069,0,0
379661,97.7197,-370.423,0,0
379922,98.3096,-369.816,0,0
380182,98.8851,-369.251,0,0
380442,99.4203,-368.708,0,0
380703,99.9387,-368.218,0,0
380963,100.442,-367.693,0,0
381223,100.955,-367.211,0,0
381483,101.419,-366.674,0,0
381744,101.914,-366.15,0,0
382004,102.415,-365.565,0,0
382264,102.95,-364.982,0,0
382525,103.555,-364.403,0,0
382785,104.147,-363.857,0,0
383045,104.827,-363.334,0,0
383306,105.462,-362.864,0,0
383566,106.089,-362.441,0,0
383826,106.744,-361.975,0,0
384087,107.392,-361.527,0,0
384347,108.064,-361.17,0,0
384607,108.706,-360.804,0,0
384868,109.364,-360.477,0,0
385128,109.964,-360.13,0,0
385388,110.535,-359.841,0,0
385649,111.11,-359.503,0,0
385909,111.629,-359.167,0,0
386169,112.222,-358.792,0,0
386430,112.799,-358.392,0,0
386690,113.41,-358.053,0,0
386950,114.017,-357.691,0,0
387211,114.622,-357.357,0,0
387471,115.192,-356.972,0,0
387731,115.753,-356.611,0,0
387992,116.327,-356.169,0,0
388252,116.915,-355.697,0,0
388512,117.576,-355.237,0,0
388773,118.269,-354.707,0,0
389033,119.101,-354.184,0,0
389293,120.001,-353.72,0,0
389554,120.928,-353.331,0,0
389814,121.923,-352.983,0,0
390074,122.92,-352.764,0,0
390335,123.885,-352.562,0,0
390595,124.823,-352.473,0,0
390855,125.715,-352.383,0,0
391116,126.571,-352.333,0,0
391376,127.439,-352.277,0,0
391636,128.244,-352.201,0,0
391896,129.04,-352.134,0,0
392157,129.872,-352.019,0,0
392417,130.733,-351.926,0,0
392677,131.618,-351.877,0,0
392938,132.471,-351.853,0,0
393198,133.33,-351.778,0,0
393458,134.223,-351.747,0,0
393719,135.033,-351.689,0,0
393979,135.93,-351.638,0,0
394239,136.86,-351.574,0,0
394500,137.844,-351.515,0,0
394760.05,138.844,-351.398,0,0
395020.375,139.918,-351.356,0,0
395280.7,141.071,-351.309,0,0
395541.025,142.28,-351.333,0,0
395801.35,143.567,-351.387,0,0
396061.675,144.91,-351.559,0,0
396322.0,146.317,-351.8,0,0
396582.325,147.769,-352.148,0,0
396842.65,149.278,-352.611,0,0
397102.975,150.741,-353.212,0,0
397363.3,152.257,-353.946,0,0
397623.625,153.684,-354.786,0,0
397883.95,155.137,-355.841,0,0
398144.275,156.531,-356.902,0,0
398404.6,157.838,-358.158,0,0
398664.925,159.076,-359.549,0,0
398925.25,160.237,-361.038,0,0
399185.575,161.312,-362.647,0,0
399445.9,162.228,-364.352,0,0
399706.225,163.046,-366.222,0,0
399966.55,163.608,-368.139,0,0
400006.6,163.7,-368.409,0,0