File: Accelerated corrosion test data/2025-10-11_18-00-03/sample_8.csv
Frequency (Hz),Impedance (ohms),Phase (Radians),Temperature (C),Humidity (%)
10000.0,312.021,-10943.5,0,0
10260.325,304.32,-10669.1,0,0
10520.65,296.853,-10408.4,0,0
10780.975,289.867,-10160.1,0,0
11041.3,283.126,-9923.44,0,0
11301.625,276.694,-9698.48,0,0
11561.95,270.918,-9482.1,0,0
11822.275,264.713,-9275.25,0,0
12082.6,262.994,-9076.08,0,0
12342.925,259.881,-8890.79,0,0
12603.25,254.745,-8709.6,0,0
12863.575,250.721,-8539.2,0,0
13123.9,242.353,-8374.64,0,0
13384.225,236.102,-8213.18,0,0
13644.55,233.877,-8058.24,0,0
13904.875,225.882,-7910,0,0
14165.2,222.11,-7766.28,0,0
14425.525,217.642,-7627.03,0,0
14685.8,213.222,-7493.11,0,0
14946.175,209.359,-7363.66,0,0
15206.5,206.076,-7238.28,0,0
15466.825,202.564,-7118.19,0,0
15727.15,199.231,-7001.15,0,0
15987.5,195.875,-6888.63,0,0
16247.8,193.296,-6779.35,0,0
16508.125,189.951,-6673.17,0,0
16768.45,186.898,-6570.74,0,0
17028.775,184.17,-6471.13,0,0
17289.1,181.21,-6373.99,0,0
17549.425,178.627,-6280.15,0,0
17809.75,176.831,-6188.32,0,0
18070.075,174.288,-6100.81,0,0
18330.4,171.522,-6013.63,0,0
18590.725,169.096,-5928.79,0,0
18851.05,170.083,-5846.08,0,0
19111.375,168.385,-5767.16,0,0
19371.7,170.782,-5690.93,0,0
19632.025,167.103,-5618.03,0,0
19892.35,163.91,-5547.91,0,0
20152.675,160.832,-5475.04,0,0
20413.0,160.204,-5405.37,0,0
20673.3,159.816,-5338.4,0,0
20933.65,157.941,-5274.92,0,0
21193.975,154.705,-5211.52,0,0
21454.3,152.526,-5147.77,0,0
21714.625,150.787,-5085.54,0,0
21974.9,150.345,-5026.02,0,0
22235.275,150.125,-4968.02,0,0
22495.6,148.462,-4911.1,0,0
22755.925,146.762,-4857.84,0,0
23016.25,145.38,-4802.88,0,0
23276.6,141.29,-4750.68,0,0
23536.9,139.223,-4697.74,0,0
23797.225,137.173,-4646.83,0,0
24057.55,135.847,-4595.91,0,0
24317.875,134.29,-4546.89,0,0
24578.2,132.299,-4498.5,0,0
24838.525,131.307,-4451.35,0,0
25098.85,129.911,-4404.96,0,0
25359.175,128.261,-4359.05,0,0
25619.5,127.612,-4314.79,0,0
25879.8,126.083,-4270.8,0,0
26140.1,125.479,-4228.5,0,0
26400.5,124.489,-4186.83,0,0
26660.8,122.698,-4145.32,0,0
26921.1,122.178,-4104.51,0,0
27181.4,122.664,-4065.28,0,0
27441.8,121.177,-4026.95,0,0
27702.1,120.787,-3988.86,0,0
27962.4,119.149,-3952.11,0,0
28222.7,119.324,-3913.91,0,0
28483.1,118.218,-3878.87,0,0
28743.4,118.647,-3843.04,0,0
29003.7,117.78,-3808.88,0,0
29264,117.895,-3774.15,0,0
29524.4,116.967,-3741.3,0,0
29784.7,117.345,-3708.05,0,0
30045,117.311,-3676.59,0,0
30305.3,117.041,-3645.28,0,0
30565.7,116.569,-3614.47,0,0
30826,115.965,-3583.97,0,0
31086.3,115.17,-3554.42,0,0
31346.6,114.666,-3524.63,0,0
31607,114.404,-3495.8,0,0
31867.3,114.371,-3466.85,0,0
32127.6,114.314,-3439.31,0,0
32387.9,113.404,-3411.3,0,0
32648.3,113.584,-3383.77,0,0
32908.6,115.195,-3356.61,0,0
33168.9,114.825,-3331.27,0,0
33429.2,115.912,-3305.57,0,0
33689.6,117.693,-3282.15,0,0
33949.9,116.766,-3259.63,0,0
34210.2,115.588,-3236.58,0,0
34470.5,114.036,-3213.44,0,0
34730.9,113.302,-3189.92,0,0
34991.2,112.76,-3167.66,0,0
35251.5,111.138,-3145.96,0,0
35511.8,109.234,-3124.1,0,0
35772.2,107.334,-3101.91,0,0
36032.5,105.465,-3080.02,0,0
36292.8,103.549,-3058.3,0,0
36553.1,102.006,-3036.41,0,0
36813.5,100.494,-3015.05,0,0
37073.8,99.2816,-2993.76,0,0
37334.1,97.87,-2972.83,0,0
37594.4,96.2307,-2952.02,0,0
37854.8,94.9842,-2931.5,0,0
38115.1,93.5434,-2911.15,0,0
38375.4,92.3737,-2891.03,0,0
38635.7,91.2772,-2871.19,0,0
38896.1,90.1599,-2851.23,0,0
39156.4,89.1285,-2831.49,0,0
39416.7,88.1075,-2812.26,0,0
39677,87.4324,-2793.37,0,0
39937.4,86.2089,-2774.55,0,0
40197.7,85.5469,-2755.56,0,0
40458,85.3341,-2736.9,0,0
40718.3,85.1006,-2718.87,0,0
40978.7,84.4864,-2701.59,0,0
41239,84.0256,-2683.84,0,0
41499.3,83.4268,-2666.5,0,0
41759.6,83.0135,-2649.45,0,0
42020,82.4643,-2632.76,0,0
42280.275,81.7354,-2615.79,0,0
42540.6,81.6969,-2599.14,0,0
42800.925,81.4699,-2582.91,0,0
43061.25,81.5653,-2566.55,0,0
43321.575,81.687,-2550.99,0,0
43581.9,81.6831,-2535.97,0,0
43842.225,81.0643,-2520.96,0,0
44102.55,80.313,-2506.15,0,0
44362.875,79.8097,-2490.97,0,0
44623.2,78.8689,-2476.23,0,0
44883.525,78.3311,-2461.52,0,0
45143.85,77.9238,-2446.81,0,0
45404.175,77.4784,-2432.34,0,0
45664.5,76.9299,-2418.17,0,0
45924.825,76.3572,-2404.08,0,0
46185.15,75.8945,-2390.08,0,0
46445.475,75.4107,-2376.17,0,0
46705.8,75.1672,-2362.26,0,0
46966.125,74.8776,-2348.64,0,0
47226.45,74.6113,-2335.14,0,0
47486.775,74.397,-2322.01,0,0
47747.1,74.1281,-2309.04,0,0
48007.425,73.8967,-2296,0,0
48267.75,73.3541,-2283.34,0,0
48528.075,73.3536,-2270.92,0,0
48788.4,72.7456,-2258.64,0,0
49048.725,72.1131,-2246.08,0,0
49309.05,71.8263,-2233.78,0,0
49569.375,71.3312,-2221.53,0,0
49829.7,70.9103,-2209.44,0,0
50090.025,70.681,-2197.29,0,0
50350.35,70.2579,-2185.22,0,0
50610.675,70.1474,-2173.48,0,0
50871.0,69.6881,-2161.81,0,0
51131.325,69.796,-2150.2,0,0
51391.65,69.5571,-2138.73,0,0
51651.975,69.6397,-2127.45,0,0
51912.3,69.4963,-2116.48,0,0
52172.625,69.413,-2105.41,0,0
52432.95,69.2344,-2094.72,0,0
52693.275,69.2384,-2083.82,0,0
52953.6,69.3332,-2073.24,0,0
53213.925,69.1575,-2062.84,0,0
53474.25,69.175,-2052.67,0,0
53734.575,69.1969,-2042.85,0,0
53994.9,68.5109,-2033.17,0,0
54255.225,67.8851,-2023.25,0,0
54515.55,67.2448,-2013.22,0,0
54775.875,66.9912,-2003.21,0,0
55036.2,66.294,-1993.68,0,0
55296.525,65.667,-1983.82,0,0
55556.85,64.8738,-1973.89,0,0
55817.175,64.3221,-1963.98,0,0
56077.5,63.7572,-1954.22,0,0
56337.825,63.3148,-1944.24,0,0
56598.15,62.9631,-1934.55,0,0
56858.475,62.7774,-1924.92,0,0
57118.8,62.504,-1915.33,0,0
57379.125,62.4188,-1905.94,0,0
57639.45,62.3125,-1896.63,0,0
57899.775,62.0848,-1887.46,0,0
58160.1,61.9595,-1878.24,0,0
58420.4,61.9943,-1869.13,0,0
58680.7,61.9192,-1860.16,0,0
58941.1,62.0346,-1851.31,0,0
59201.4,62.0598,-1843.03,0,0
59461.7,61.7031,-1834.59,0,0
59722,61.4448,-1826.08,0,0
59982.4,61.0541,-1817.57,0,0
60242.7,60.7272,-1809.05,0,0
60503,60.3976,-1800.42,0,0
60763.3,60.3535,-1791.84,0,0
61023.7,60.2679,-1783.45,0,0
61284,60.2489,-1774.96,0,0
61544.3,60.4672,-1766.87,0,0
61804.6,60.5516,-1759.01,0,0
62065,60.2353,-1750.97,0,0
62325.3,60.1463,-1742.9,0,0
62585.6,60.0759,-1734.78,0,0
62845.9,60.3158,-1726.78,0,0
63106.3,60.5625,-1718.86,0,0
63366.6,60.7769,-1711.27,0,0
63626.9,61.0828,-1703.75,0,0
63887.2,61.4273,-1696.21,0,0
64147.6,61.8519,-1688.91,0,0
64407.9,62.2093,-1682.1,0,0
64668.2,62.2068,-1675.42,0,0
64928.5,62.0345,-1668.54,0,0
65188.9,61.8821,-1661.75,0,0
65449.2,61.5403,-1655.01,0,0
65709.5,61.1657,-1648.11,0,0
65969.8,60.9627,-1641.25,0,0
66230.2,60.6254,-1634.62,0,0
66490.5,60.0755,-1627.9,0,0
66750.8,59.3008,-1620.85,0,0
67011.1,59.0724,-1613.66,0,0
67271.5,58.7552,-1606.68,0,0
67531.8,58.6313,-1599.74,0,0
67792.1,58.4081,-1592.92,0,0
68052.4,58.2009,-1586.06,0,0
68312.8,58.0338,-1579.34,0,0
68573.1,57.8304,-1572.69,0,0
68833.4,57.6293,-1565.92,0,0
69093.7,57.6287,-1559.18,0,0
69354.1,57.568,-1552.44,0,0
69614.4,57.6906,-1545.94,0,0
69874.7,57.7338,-1539.4,0,0
70135,57.8965,-1533.1,0,0
70395.4,57.8823,-1526.74,0,0
70655.7,57.8506,-1520.48,0,0
70916,57.7946,-1514.19,0,0
71176.3,57.9223,-1508.06,0,0
71436.7,58.0156,-1501.97,0,0
71697,58.3182,-1495.81,0,0
71957.3,58.4361,-1490.16,0,0
72217.6,58.3319,-1484.33,0,0
72478,58.1505,-1478.55,0,0
72738.3,57.9909,-1472.87,0,0
72998.6,57.6737,-1466.96,0,0
73258.9,57.3561,-1461.08,0,0
73519.3,57.3526,-1455.04,0,0
73779.6,57.3912,-1449.31,0,0
74039.9,57.3635,-1443.56,0,0
74300.225,57.2597,-1437.94,0,0
74560.55,57.0022,-1432.27,0,0
74820.875,56.8631,-1426.5,0,0
75081.2,56.8267,-1420.79,0,0
75341.525,56.6841,-1415.08,0,0
75601.85,56.6506,-1409.42,0,0
75862.175,56.7209,-1403.81,0,0
76122.5,56.7284,-1398.26,0,0
76382.825,56.7716,-1392.79,0,0
76643.15,56.816,-1387.36,0,0
76903.475,56.8309,-1382.06,0,0
77163.8,56.7641,-1376.71,0,0
77424.125,56.7181,-1371.44,0,0
77684.45,56.6476,-1366.1,0,0
77944.775,56.5762,-1360.84,0,0
78205.1,56.477,-1355.56,0,0
78465.425,56.3927,-1350.27,0,0
78725.75,56.2438,-1344.91,0,0
78986.075,56.3077,-1339.61,0,0
79246.4,56.3254,-1334.36,0,0
79506.725,56.2519,-1329.12,0,0
79767.05,56.2305,-1323.8,0,0
80027.375,56.3947,-1318.72,0,0
80287.7,56.4855,-1313.56,0,0
80548.025,56.5223,-1308.46,0,0
80808.35,56.5062,-1303.34,0,0
81068.675,56.5723,-1298.14,0,0
81329.0,56.7131,-1292.9,0,0
81589.325,56.9107,-1287.82,0,0
81849.65,57.1534,-1282.77,0,0
82109.975,57.5553,-1277.69,0,0
82370.3,58.029,-1272.86,0,0
82630.625,58.2706,-1268.1,0,0
82890.95,58.5451,-1263.32,0,0
83151.275,58.8765,-1258.6,0,0
83411.6,59.135,-1253.87,0,0
83671.925,59.4572,-1249.06,0,0
83932.25,59.9013,-1244.44,0,0
84192.575,60.3185,-1239.96,0,0
84452.9,60.6773,-1235.46,0,0
84713.225,61.1881,-1231.08,0,0
84973.55,61.5928,-1227.05,0,0
85233.875,61.5553,-1223.07,0,0
85494.2,61.2445,-1218.88,0,0
85754.525,60.9574,-1214.38,0,0
86014.85,60.8167,-1209.72,0,0
86275.175,60.942,-1205.09,0,0
86535.5,60.9873,-1200.43,0,0
86795.825,61.1491,-1195.81,0,0
87056.15,61.4504,-1191.11,0,0
87316.475,61.8334,-1186.65,0,0
87576.8,62.0556,-1182.25,0,0
87837.125,62.4155,-1177.76,0,0
88097.45,62.8447,-1173.26,0,0
88357.775,63.2198,-1168.84,0,0
88618.1,63.6246,-1164.67,0,0
88878.425,64.0533,-1160.31,0,0
89138.75,64.519,-1156.03,0,0
89399.075,64.908,-1151.74,0,0
89659.4,65.3784,-1147.51,0,0
89919.725,65.9345,-1143.1,0,0
90180,66.6256,-1138.8,0,0
90440.4,67.3121,-1134.65,0,0
90700.7,68.1197,-1130.44,0,0
90961,68.9628,-1126.53,0,0
91221.3,70.1212,-1122.57,0,0
91481.7,71.1668,-1118.89,0,0
91742,72.1941,-1115.53,0,0
92002.3,72.9907,-1112.31,0,0
92262.6,73.7684,-1109.08,0,0
92523,74.3635,-1106,0,0
92783.3,74.7784,-1102.95,0,0
93043.6,75.3193,-1100.05,0,0
93303.9,75.3364,-1097.43,0,0
93564.3,74.9078,-1094.35,0,0
93824.6,74.4536,-1091.02,0,0
94084.9,74.0843,-1087.12,0,0
94345.2,74.2421,-1083.32,0,0
94605.6,74.2862,-1079.53,0,0
94865.9,74.7682,-1075.7,0,0
95126.2,75.096,-1072.09,0,0
95386.5,75.7026,-1068.54,0,0
95646.9,76.2735,-1065.45,0,0
95907.2,76.3117,-1062.18,0,0
96167.5,76.5176,-1058.71,0,0
96427.8,76.79,-1055.12,0,0
96688.2,77.3804,-1051.73,0,0
96948.5,77.8439,-1048.43,0,0
97208.8,78.2998,-1045.15,0,0
97469.1,78.8521,-1041.94,0,0
97729.5,79.471,-1038.89,0,0
97989.8,79.9263,-1036.07,0,0
98250.1,80.278,-1033.18,0,0
98510.4,80.731,-1030.25,0,0
98770.8,81.2006,-1027.73,0,0
99031.1,81.1309,-1025.33,0,0
99291.4,80.8331,-1022.63,0,0
99551.7,80.5065,-1019.55,0,0
99812.1,80.4714,-1016.37,0,0
100072,80.5856,-1013.25,0,0
100333,80.7727,-1010.36,0,0
100593,80.8667,-1007.45,0,0
100853,80.917,-1004.66,0,0
101114,80.8505,-1001.9,0,0
101374,80.7292,-999.102,0,0
101634,80.6812,-996.302,0,0
101895,80.3901,-993.632,0,0
102155,79.9956,-990.76,0,0
102415,79.5812,-987.774,0,0
102676,79.2336,-984.662,0,0
102936,78.9136,-981.553,0,0
103196,78.5759,-978.344,0,0
103457,78.3044,-975.009,0,0
103717,78.2631,-971.705,0,0
103977,78.2693,-968.44,0,0
104238,78.3725,-965.252,0,0
104498,78.3825,-962.24,0,0
104758,78.3652,-959.171,0,0
105019,78.1666,-956.032,0,0
105279,78.0375,-952.694,0,0
105539,78.2304,-949.328,0,0
105800,78.5291,-946.115,0,0
106060,78.7025,-943.023,0,0
106320.175,78.9851,-939.879,0,0
106580.5,79.3965,-936.819,0,0
106840.825,79.8788,-933.956,0,0
107101.15,80.2072,-931.203,0,0
107361.475,80.427,-928.569,0,0
107621.8,80.5192,-925.987,0,0
107882.125,80.4558,-923.292,0,0
108142.45,80.3405,-920.491,0,0
108402.775,80.2739,-917.546,0,0
108663.1,80.4084,-914.571,0,0
108923.425,80.4424,-911.699,0,0
109183.75,80.5702,-908.805,0,0
109444.075,80.7781,-905.913,0,0
109704.4,80.9911,-903.072,0,0
109964.725,81.2301,-900.263,0,0
110225.05,81.4571,-897.582,0,0
110485.375,81.6442,-894.964,0,0
110745.7,81.7355,-892.326,0,0
111006.025,81.8495,-889.674,0,0
111266.35,81.853,-887.099,0,0
111526.675,81.8634,-884.34,0,0
111787.0,82.0094,-881.502,0,0
112047.325,82.1423,-878.924,0,0
112307.65,82.2112,-876.324,0,0
112567.975,82.2214,-873.647,0,0
112828.3,82.3248,-870.977,0,0
113088.625,82.4221,-868.38,0,0
113348.95,82.5128,-865.792,0,0
113609.275,82.5994,-863.199,0,0
113869.6,82.6596,-860.699,0,0
114129.925,82.5656,-858.202,0,0
114390.25,82.5062,-855.603,0,0
114650.575,82.4693,-852.955,0,0
114910.9,82.453,-850.331,0,0
115171.225,82.5239,-847.732,0,0
115431.55,82.4431,-845.205,0,0
115691.875,82.3559,-842.646,0,0
115952.2,82.27,-840.029,0,0
116212.525,82.2138,-837.436,0,0
116472.85,82.0701,-834.863,0,0
116733.175,81.8446,-832.178,0,0
116993.5,81.6401,-829.329,0,0
117253.825,81.6509,-826.349,0,0
117514.15,81.8839,-823.549,0,0
117774.475,82.0828,-820.877,0,0
118034.8,82.1879,-818.255,0,0
118295.125,82.3065,-815.623,0,0
118555.45,82.4427,-812.975,0,0
118815.775,82.6724,-810.429,0,0
119076.1,82.8355,-807.957,0,0
119336.425,82.9379,-805.639,0,0
119596.75,82.7998,-803.218,0,0
119857.075,82.6659,-800.698,0,0
120117.4,82.5507,-798.112,0,0
120377.725,82.4421,-795.509,0,0
120638.05,82.4008,-792.789,0,0
120898.375,82.3968,-790.07,0,0
121158.7,82.5001,-787.445,0,0
121419.025,82.5407,-784.903,0,0
121679.35,82.4944,-782.302,0,0
121939.675,82.5066,-779.644,0,0
122200.0,82.5505,-776.933,0,0
122460,82.7488,-774.363,0,0
122721,82.8201,-771.862,0,0
122981,82.8356,-769.361,0,0
123241,82.7659,-766.808,0,0
123502,82.7057,-764.203,0,0
123762,82.6437,-761.535,0,0
124022,82.5914,-758.79,0,0
124283,82.6758,-756.01,0,0
124543,82.8087,-753.274,0,0
124803,82.9872,-750.55,0,0
125064,83.2047,-747.917,0,0
125324,83.3907,-745.344,0,0
125584,83.5613,-742.809,0,0
125845,83.6794,-740.268,0,0
126105,83.7385,-737.684,0,0
126365,83.8217,-735.034,0,0
126626,84.0389,-732.394,0,0
126886,84.2636,-729.721,0,0
127146,84.49,-727.314,0,0
127406,84.6165,-724.916,0,0
127667,84.6736,-722.31,0,0
127927,84.7319,-719.665,0,0
128187,84.8793,-717.104,0,0
128448,84.9827,-714.506,0,0
128708,85.1278,-712.013,0,0
128968,85.1874,-709.433,0,0
129229,85.2553,-706.825,0,0
129489,85.3444,-704.162,0,0
129749,85.4663,-701.473,0,0
130010,85.5836,-698.818,0,0
130270,85.7322,-696.122,0,0
130530,85.9769,-693.346,0,0
130791,86.298,-690.694,0,0
131051,86.5915,-688.15,0,0
131311,86.8458,-685.597,0,0
131572,87.1233,-683.111,0,0
131832,87.2516,-680.737,0,0
132092,87.2218,-678.2,0,0
132353,87.2148,-675.542,0,0
132613,87.2872,-672.782,0,0
132873,87.4357,-670.07,0,0
133134,87.5948,-667.344,0,0
133394,87.7252,-664.656,0,0
133654,87.8029,-661.897,0,0
133915,87.884,-659.016,0,0
134175,88.0795,-656.036,0,0
134435,88.4359,-653.013,0,0
134696,88.8046,-650.106,0,0
134956,89.2446,-647.165,0,0
135216,89.8599,-644.205,0,0
135477,90.5551,-641.44,0,0
135737,91.2156,-638.764,0,0
135997,91.9959,-636.104,0,0
136258,92.7296,-633.766,0,0
136518,93.2903,-631.51,0,0
136778,93.71,-629.291,0,0
137039,93.9058,-627.137,0,0
137299,93.93,-624.833,0,0
137559,93.8975,-622.394,0,0
137819,93.7393,-619.816,0,0
138080,93.532,-617.064,0,0
138340.125,93.3827,-614.024,0,0
138600.45,93.503,-610.858,0,0
138860.775,93.7169,-607.774,0,0
139121.1,94.0277,-604.648,0,0
139381.425,94.4482,-601.633,0,0
139641.75,94.7448,-598.675,0,0
139902.075,95.0177,-595.541,0,0
140162.4,95.4812,-592.38,0,0
140422.725,95.9126,-589.312,0,0
140683.05,96.3154,-586.195,0,0
140943.375,96.7795,-582.938,0,0
141203.7,97.3867,-579.679,0,0
141464.025,98.0834,-576.506,0,0
141724.35,98.6883,-573.417,0,0
141984.675,99.2088,-570.289,0,0
142245.0,99.7524,-567.001,0,0
142505.325,100.4,-563.659,0,0
142765.65,101.117,-560.321,0,0
143025.975,101.877,-556.988,0,0
143286.3,102.549,-553.586,0,0
143546.625,103.36,-550.039,0,0
143806.95,104.232,-546.524,0,0
144067.275,105.171,-542.931,0,0
144327.6,106.154,-539.264,0,0
144587.925,107.223,-535.457,0,0
144848.25,108.555,-531.531,0,0
145108.575,110.176,-527.67,0,0
145368.9,111.948,-523.933,0,0
145629.225,113.901,-520.305,0,0
145889.55,115.937,-516.915,0,0
146149.875,117.909,-513.676,0,0
146410.2,119.808,-510.457,0,0
146670.525,121.793,-507.151,0,0
146930.85,123.951,-503.982,0,0
147191.175,126.136,-500.941,0,0
147451.5,128.338,-498.135,0,0
147711.825,130.217,-495.67,0,0
147972.15,131.531,-492.878,0,0
148232.475,132.931,-489.521,0,0
148492.8,134.567,-485.894,0,0
148753.125,136.511,-482.017,0,0
149013.45,138.869,-478.059,0,0
149273.775,141.583,-474.054,0,0
149534.1,144.724,-470.297,0,0
149794.425,148.076,-466.722,0,0
150054.75,151.596,-463.334,0,0
150315.075,155.445,-460.108,0,0
150575.4,159.409,-456.982,0,0
150835.725,163.795,-454.118,0,0
151096.05,168.653,-451.586,0,0
151356.375,173.921,-449.897,0,0
151616.7,179.009,-449.17,0,0
151877.025,183.519,-449.057,0,0
152137.35,187.637,-449.255,0,0
152397.675,191.331,-449.983,0,0
152658.0,193.868,-450.929,0,0
152918.325,195.945,-451.24,0,0
153178.65,197.994,-451.321,0,0
153438.975,199.795,-451.408,0,0
153699.3,201.265,-451.226,0,0
153959.625,202.878,-450.528,0,0
154219.95,204.659,-450.145,0,0
154480,205.944,-449.733,0,0
154741,207.057,-448.628,0,0
155001,208.616,-446.968,0,0
155261,210.891,-445.167,0,0
155522,213.889,-443.786,0,0
155782,217.19,-443.095,0,0
156042,220.722,-443.273,0,0
156303,224.031,-444.829,0,0
156563,225.674,-447.689,0,0
156823,225.259,-450.009,0,0
157084,223.792,-450.886,0,0
157344,222.092,-450.399,0,0
157604,220.706,-448.777,0,0
157864,219.876,-446.436,0,0
158125,219.838,-443.457,0,0
158385,220.801,-440.279,0,0
158645,222.315,-437.319,0,0
158906,224.692,-434.87,0,0
159166,227.379,-432.996,0,0
159426,230.341,-431.899,0,0
159687,232.706,-431.817,0,0
159947,234.218,-432.071,0,0
160207,234.915,-431.964,0,0
160468,235.309,-431.611,0,0
160728,234.985,-430.701,0,0
160988,234.723,-428.787,0,0
161249,234.816,-426.26,0,0
161509,235.741,-423.043,0,0
161769,237.516,-420.095,0,0
162030,239.841,-417.459,0,0
162290,242.506,-415.151,0,0
162550,245.464,-413.188,0,0
162811,248.521,-411.711,0,0
163071,251.502,-410.633,0,0
163331,254.755,-409.871,0,0
163592,257.918,-409.902,0,0
163852,260.42,-410.354,0,0
164112,262.433,-410.955,0,0
164373,264.05,-411.133,0,0
164633,265.889,-411.461,0,0
164893,267.651,-412.074,0,0
165154,269.272,-412.957,0,0
165414,270.678,-414.426,0,0
165674,270.852,-416.672,0,0
165935,269.7,-418.175,0,0
166195,268.3,-418.696,0,0
166455,266.861,-418.829,0,0
166716,265.073,-418.718,0,0
166976,262.801,-417.93,0,0
167236,260.643,-416.245,0,0
167497,258.981,-414.008,0,0
167757,257.374,-411.676,0,0
168017,256.024,-409.001,0,0
168277,255.014,-406.034,0,0
168538,254.032,-403.038,0,0
168798,252.984,-399.739,0,0
169058,252.117,-395.972,0,0
169319,251.736,-391.921,0,0
169579,251.803,-387.823,0,0
169839,252.113,-383.977,0,0
170100,252.219,-380.17,0,0
170360.075,252.409,-375.88,0,0
170620.4,252.931,-371.397,0,0
170880.725,253.711,-366.906,0,0
171141.05,254.621,-362.449,0,0
171401.375,255.32,-357.725,0,0
171661.7,256.235,-352.276,0,0
171922.025,258.014,-346.282,0,0
172182.35,260.797,-340.424,0,0
172442.675,264.22,-334.973,0,0
172703.0,268.091,-330.097,0,0
172963.325,271.994,-325.783,0,0
173223.65,275.878,-321.688,0,0
173483.975,279.977,-317.729,0,0
173744.3,284.309,-314.362,0,0
174004.625,288.41,-311.253,0,0
174264.95,292.313,-308.362,0,0
174525.275,296.004,-305.599,0,0
174785.6,299.242,-302.9,0,0
175045.925,302.39,-299.984,0,0
175306.25,305.361,-297.021,0,0
175566.575,308.008,-293.715,0,0
175826.9,310.608,-289.656,0,0
176087.225,313.763,-284.993,0,0
176347.55,317.677,-280.132,0,0
176607.875,322.151,-275.206,0,0
176868.2,327.395,-270.433,0,0
177128.525,333.101,-266.262,0,0
177388.85,338.641,-262.583,0,0
177649.175,344.159,-258.858,0,0
177909.5,350,-254.83,0,0
178169.825,356.588,-250.877,0,0
178430.15,363.666,-247.444,0,0
178690.475,371.094,-244.67,0,0
178950.8,378.452,-242.367,0,0
179211.125,385.813,-240.34,0,0
179471.45,393.258,-238.901,0,0
179731.775,400.319,-237.787,0,0
179992.1,407.415,-236.483,0,0
180252.425,415.024,-235.755,0,0
180512.75,422.185,-235.739,0,0
180773.075,428.881,-235.61,0,0
181033.4,435.695,-235.489,0,0
181293.725,442.194,-235.791,0,0
181554.05,448.325,-235.714,0,0
181814.375,454.789,-235.443,0,0
182074.7,461.678,-235.501,0,0
182335.025,468.593,-235.876,0,0
182595.35,475.526,-236.555,0,0
182855.675,482.413,-237.892,0,0
183116.0,488.726,-239.763,0,0
183376.325,494.3,-241.757,0,0
183636.65,499.214,-243.274,0,0
183896.975,503.684,-244.428,0,0
184157.3,508.119,-244.841,0,0
184417.625,512.916,-244.739,0,0
184677.95,518.174,-244.626,0,0
184938.275,523.297,-244.402,0,0
185198.6,528.583,-243.458,0,0
185458.925,534.535,-241.924,0,0
185719.25,541.847,-240.869,0,0
185979.575,549.28,-240.144,0,0
186239.9,557.391,-239.419,0,0
186500,566.3,-239.75,0,0
186761,574.837,-240.929,0,0
187021,583.135,-242.227,0,0
187281,591.43,-243.713,0,0
187542,599.713,-245.201,0,0
187802,608.239,-246.647,0,0
188062,617.584,-248.251,0,0
188322,627.633,-250.714,0,0
188583,637.908,-254.633,0,0
188843,647.558,-259.711,0,0
189103,656.164,-265.747,0,0
189364,663.411,-271.832,0,0
189624,669.842,-277.469,0,0
189884,675.645,-282.397,0,0
190145,681.632,-286.944,0,0
190405,687.308,-291.035,0,0
190665,692.964,-294.042,0,0
190926,699.894,-296.081,0,0
191186,708.667,-298.439,0,0
191446,718.208,-302.15,0,0
191707,728.017,-307.073,0,0
191967,737.465,-313.283,0,0
192227,745.855,-320.057,0,0
192488,753.282,-326.895,0,0
192748,759.655,-332.773,0,0
193008,766.62,-336.493,0,0
193269,776.279,-339.641,0,0
193529,787.773,-344.431,0,0
193789,799.985,-350.246,0,0
194050,813.418,-357.694,0,0
194310,827.137,-367.324,0,0
194570,840.595,-379.014,0,0
194831,853.251,-392.484,0,0
195091,864.567,-407.354,0,0
195351,874.806,-422.898,0,0
195612,884.613,-439.099,0,0
195872,894.11,-456.404,0,0
196132,903.025,-475.585,0,0
196393,909.912,-496.661,0,0
196653,914.346,-518.507,0,0
196913,916.574,-540.223,0,0
197174,917.189,-561.809,0,0
197434,916.524,-583.09,0,0
197694,914.348,-604.646,0,0
197955,910.083,-625.992,0,0
198215,904.08,-646.583,0,0
198475,896.453,-665.809,0,0
198735,888.209,-683.662,0,0
198996,879.284,-700.802,0,0
199256,870.069,-716.841,0,0
199516,860.698,-732.621,0,0
199777,850.4,-748.805,0,0
200037,838.377,-764.52,0,0
200297,824.757,-779.04,0,0
200558,809.847,-791.553,0,0
200818,794.89,-801.879,0,0
201078,780.415,-810.462,0,0
201339,766.856,-818.438,0,0
201599,753.513,-826.397,0,0
201859,739.552,-834.076,0,0
202120,724.978,-840.879,0,0
202380.025,709.624,-846.826,0,0
202640.35,693.728,-850.912,0,0
202900.675,678.011,-853.076,0,0
203161.0,663.367,-853.65,0,0
203421.325,649.662,-853.473,0,0
203681.65,636.759,-852.323,0,0
203941.975,625.149,-850.492,0,0
204202.3,614.387,-848.685,0,0
204462.625,604.133,-846.51,0,0
204722.95,594.789,-844.204,0,0
204983.275,586.038,-842.21,0,0
205243.6,577.384,-840.296,0,0
205503.925,568.721,-838.297,0,0
205764.25,560.1,-835.977,0,0
206024.575,551.223,-833.052,0,0
206284.9,542.682,-828.939,0,0
206545.225,535.158,-823.871,0,0
206805.55,529.08,-818.447,0,0
207065.875,524.128,-813.188,0,0
207326.2,520.113,-808.43,0,0
207586.525,516.651,-804.194,0,0
207846.85,513.537,-800.276,0,0
208107.175,510.794,-796.64,0,0
208367.5,508.317,-793.406,0,0
208627.825,506.033,-790.402,0,0
208888.15,504.009,-787.671,0,0
209148.475,502.008,-785.123,0,0
209408.8,500.158,-782.6,0,0
209669.125,498.481,-780.102,0,0
209929.45,497.297,-777.59,0,0
210189.775,496.473,-775.396,0,0
210450.1,496.063,-773.573,0,0
210710.425,495.836,-772.105,0,0
210970.75,495.673,-771.255,0,0
211231.075,495.389,-770.67,0,0
211491.4,495.496,-770.263,0,0
211751.725,495.55,-770.456,0,0
212012.05,495.411,-771.066,0,0
212272.375,494.978,-771.981,0,0
212532.7,494.345,-773.168,0,0
212793.025,493.579,-774.391,0,0
213053.35,492.527,-775.943,0,0
213313.675,491.182,-777.685,0,0
213574.0,489.532,-779.508,0,0
213834.325,487.438,-781.371,0,0
214094.65,484.996,-783.022,0,0
214354.975,482.408,-784.483,0,0
214615.3,479.662,-785.739,0,0
214875.625,476.809,-786.991,0,0
215135.95,473.74,-788.071,0,0
215396.275,470.382,-788.921,0,0
215656.6,466.917,-789.442,0,0
215916.925,463.446,-789.429,0,0
216177.25,460.059,-789.075,0,0
216437.575,456.884,-788.367,0,0
216697.9,453.954,-787.292,0,0
216958.225,451.427,-785.805,0,0
217218.55,449.66,-784.191,0,0
217478.875,448.431,-782.861,0,0
217739.2,447.641,-781.799,0,0
217999.525,447.002,-781.126,0,0
218259.85,446.537,-780.862,0,0
218520,445.889,-780.971,0,0
218780,445.078,-781.149,0,0
219041,444.255,-781.178,0,0
219301,443.633,-781.169,0,0
219561,443.318,-781.28,0,0
219822,443.336,-781.769,0,0
220082,443.353,-782.622,0,0
220342,443.239,-783.788,0,0
220603,443.068,-785.254,0,0
220863,442.796,-787.02,0,0
221123,442.285,-788.992,0,0
221384,441.504,-790.961,0,0
221644,440.643,-792.991,0,0
221904,439.779,-795.191,0,0
222165,438.883,-797.659,0,0
222425,437.768,-800.385,0,0
222685,436.344,-803.397,0,0
222946,434.381,-806.571,0,0
223206,431.839,-809.577,0,0
223466,429.136,-812.129,0,0
223727,426.399,-814.338,0,0
223987,423.98,-816.541,0,0
224247,421.648,-818.792,0,0
224508,419.236,-821.444,0,0
224768,416.786,-823.866,0,0
225028,414.261,-826.833,0,0
225289,411.332,-830.305,0,0
225549,407.61,-833.806,0,0
225809,403.191,-837.119,0,0
226070,398.386,-839.872,0,0
226330,393.37,-842.164,0,0
226590,388.428,-844.005,0,0
226851,383.457,-845.743,0,0
227111,378.011,-847.612,0,0
227371,372.603,-848.922,0,0
227632,367.034,-849.888,0,0
227892,361.242,-850.151,0,0
228152,355.79,-849.976,0,0
228413,350.65,-849.446,0,0
228673,346.003,-848.751,0,0
228933,341.768,-848.178,0,0
229193,337.559,-847.808,0,0
229454,333.503,-847.448,0,0
229714,329.339,-847.305,0,0
229974,325.274,-847.183,0,0
230235,320.92,-847.241,0,0
230495,316.074,-847.195,0,0
230755,311.156,-846.838,0,0
231016,306.23,-846.122,0,0
231276,301.457,-845.249,0,0
231536,296.629,-844.271,0,0
231797,291.837,-843.24,0,0
232057,286.873,-841.955,0,0
232317,282.038,-840.471,0,0
232578,277.146,-838.723,0,0
232838,272.442,-836.688,0,0
233098,267.847,-834.458,0,0
233359,263.444,-832.214,0,0
233619,259.063,-829.804,0,0
233879,254.731,-827.253,0,0
234140,250.568,-824.4,0,0
234400,246.579,-821.464,0,0
234660.3,242.766,-818.406,0,0
234920.625,239.108,-815.211,0,0
235180.95,235.631,-811.752,0,0
235441.275,232.499,-808.343,0,0
235701.6,229.582,-804.815,0,0
235961.925,226.873,-801.382,0,0
236222.25,224.334,-797.882,0,0
236482.575,222.045,-794.41,0,0
236742.9,219.898,-790.875,0,0
237003.225,218.083,-787.491,0,0
237263.55,216.389,-784.251,0,0
237523.875,214.77,-780.964,0,0
237784.2,213.363,-777.8,0,0
238044.525,212.104,-774.669,0,0
238304.85,210.966,-771.719,0,0
238565.175,209.97,-768.752,0,0
238825.5,209.213,-765.902,0,0
239085.825,208.705,-763.256,0,0
239346.15,208.311,-760.975,0,0
239606.475,207.955,-759.015,0,0
239866.8,207.477,-757.299,0,0
240127.125,206.844,-755.898,0,0
240387.45,206.012,-754.631,0,0
240647.775,204.936,-753.473,0,0
240908.1,203.787,-752.298,0,0
241168.425,202.256,-751.36,0,0
241428.75,200.532,-750.172,0,0
241689.075,198.665,-748.866,0,0
241949.4,196.722,-747.433,0,0
242209.725,194.697,-745.814,0,0
242470.05,192.561,-744.099,0,0
242730.375,190.434,-742.143,0,0
242990.7,188.345,-739.923,0,0
243251.025,186.422,-737.631,0,0
243511.35,184.624,-735.226,0,0
243771.675,182.849,-732.755,0,0
244032.0,181.182,-730.23,0,0
244292.325,179.661,-727.663,0,0
244552.65,178.271,-724.929,0,0
244812.975,177.034,-722.232,0,0
245073.3,176,-719.631,0,0
245333.625,174.867,-717.02,0,0
245593.95,173.792,-714.454,0,0
245854.275,172.929,-711.81,0,0
246114.6,172.117,-709.137,0,0
246374.925,171.464,-706.561,0,0
246635.25,170.964,-704.019,0,0
246895.575,170.511,-701.663,0,0
247155.9,170.04,-699.479,0,0
247416.225,169.469,-697.373,0,0
247676.55,168.838,-695.327,0,0
247936.875,168.1,-693.239,0,0
248197.2,167.319,-691.109,0,0
248457.525,166.487,-688.898,0,0
248717.85,165.673,-686.549,0,0
248978.175,164.806,-684.093,0,0
249238.5,164.011,-681.588,0,0
249498.825,163.306,-678.856,0,0
249759.15,162.768,-676.087,0,0
250019.475,162.365,-673.148,0,0
250279.8,162.158,-670.211,0,0
250540,162.091,-667.283,0,0
250800,162.151,-664.271,0,0
251061,162.523,-661.285,0,0
251321,163.075,-658.319,0,0
251581,163.869,-655.416,0,0
251842,164.998,-652.617,0,0
252102,166.357,-650.106,0,0
252362,167.868,-647.958,0,0
252623,169.455,-646.108,0,0
252883,171.01,-644.679,0,0
253143,172.398,-643.551,0,0
253404,173.561,-642.627,0,0
253664,174.468,-641.84,0,0
253924,175.05,-641.092,0,0
254185,175.472,-640.243,0,0
254445,175.642,-639.218,0,0
254705,175.917,-638.113,0,0
254966,176.135,-636.896,0,0
255226,176.385,-635.593,0,0
255486,176.676,-634.276,0,0
255747,176.931,-632.831,0,0
256007,177.306,-631.325,0,0
256267,177.799,-629.777,0,0
256528,178.414,-628.255,0,0
256788,179.051,-626.848,0,0
257048,179.75,-625.465,0,0
257309,180.475,-624.056,0,0
257569,181.295,-622.61,0,0
257829,182.215,-621.269,0,0
258090,183.183,-619.945,0,0
258350,184.244,-618.713,0,0
258610,185.342,-617.581,0,0
258871,186.447,-616.539,0,0
259131,187.612,-615.531,0,0
259391,188.799,-614.609,0,0
259651,190.02,-613.777,0,0
259912,191.323,-612.984,0,0
260172,192.638,-612.326,0,0
260432,193.87,-611.866,0,0
260693,195.032,-611.469,0,0
260953,196.196,-611.063,0,0
261213,197.445,-610.731,0,0
261474,198.559,-610.522,0,0
261734,199.669,-610.369,0,0
261994,200.836,-610.294,0,0
262255,201.937,-610.407,0,0
262515,202.834,-610.682,0,0
262775,203.455,-610.946,0,0
263036,203.953,-611.029,0,0
263296,204.494,-611.015,0,0
263556,205.009,-611.053,0,0
263817,205.426,-611.071,0,0
264077,205.743,-610.955,0,0
264337,205.934,-610.69,0,0
264598,206.315,-610.135,0,0
264858,206.771,-609.485,0,0
265118,207.387,-608.688,0,0
265379,208.236,-607.81,0,0
265639,209.266,-607.053,0,0
265899,210.454,-606.24,0,0
266160,211.961,-605.388,0,0
266420,213.692,-604.658,0,0
266680.25,215.712,-604.091,0,0
266940.575,217.953,-603.719,0,0
267200.9,220.441,-603.596,0,0
267461.225,223.154,-603.813,0,0
267721.55,225.959,-604.442,0,0
267981.875,228.839,-605.361,0,0
268242.2,231.73,-606.749,0,0
268502.525,234.614,-608.544,0,0
268762.85,237.482,-610.656,0,0
269023.175,240.006,-613.352,0,0
269283.5,242.394,-616.409,0,0
269543.825,244.418,-619.871,0,0
269804.15,246.041,-623.562,0,0
270064.475,247.267,-627.452,0,0
270324.8,248.199,-631.402,0,0
270585.125,248.776,-635.621,0,0
270845.45,249.044,-639.962,0,0
271105.775,248.857,-644.427,0,0
271366.1,248.199,-649.078,0,0
271626.425,247.072,-653.616,0,0
271886.75,245.497,-658.136,0,0
272147.075,243.489,-662.543,0,0
272407.4,241.042,-666.777,0,0
272667.725,238.238,-670.791,0,0
272928.05,235.152,-674.564,0,0
273188.375,231.732,-678.164,0,0
273448.7,227.933,-681.587,0,0
273709.025,223.775,-684.707,0,0
273969.35,219.296,-687.375,0,0
274229.675,214.549,-689.655,0,0
274490.0,209.505,-691.437,0,0
274750.325,204.416,-692.656,0,0
275010.65,199.286,-693.342,0,0
275270.975,194.298,-693.56,0,0
275531.3,189.469,-693.301,0,0
275791.625,184.875,-692.641,0,0
276051.95,180.607,-691.717,0,0
276312.275,176.583,-690.604,0,0
276572.6,172.821,-689.354,0,0
276832.925,169.254,-688.013,0,0
277093.25,165.846,-686.631,0,0
277353.575,162.576,-685.125,0,0
277613.9,159.442,-683.554,0,0
277874.225,156.465,-681.929,0,0
278134.55,153.581,-680.214,0,0
278394.875,150.757,-678.462,0,0
278655.2,148.011,-676.607,0,0
278915.525,145.321,-674.625,0,0
279175.85,142.727,-672.441,0,0
279436.175,140.34,-670.157,0,0
279696.5,138.19,-667.63,0,0
279956.825,136.332,-665.086,0,0
280217.15,134.752,-662.515,0,0
280477.475,133.391,-660.016,0,0
280737.8,132.273,-657.591,0,0
280998.125,131.309,-655.268,0,0
281258.45,130.48,-653,0,0
281518.775,129.807,-650.842,0,0
281779.1,129.272,-648.774,0,0
282039.425,128.871,-646.83,0,0
282299.75,128.599,-645.028,0,0
282560,128.436,-643.407,0,0
282820,128.294,-642.016,0,0
283081,128.019,-640.826,0,0
283341,127.662,-639.681,0,0
283601,127.205,-638.59,0,0
283862,126.666,-637.451,0,0
284122,126.122,-636.243,0,0
284382,125.554,-635.005,0,0
284643,125.045,-633.73,0,0
284903,124.54,-632.338,0,0
285163,124.226,-630.854,0,0
285424,124.118,-629.359,0,0
285684,124.245,-627.903,0,0
285944,124.599,-626.629,0,0
286205,125.124,-625.575,0,0
286465,125.744,-624.722,0,0
286725,126.431,-624.175,0,0
286986,127.114,-623.905,0,0
287246,127.768,-623.966,0,0
287506,128.314,-624.366,0,0
287767,128.564,-625.052,0,0
288027,128.514,-625.935,0,0
288287,128.099,-626.964,0,0
288548,127.285,-627.941,0,0
288808,126.142,-628.81,0,0
289068,124.748,-629.51,0,0
289329,123.183,-630.049,0,0
289589,121.491,-630.379,0,0
289849,119.687,-630.459,0,0
290109,117.884,-630.354,0,0
290370,116.078,-630.038,0,0
290630,114.374,-629.595,0,0
290890,112.778,-629.128,0,0
291151,111.2,-628.627,0,0
291411,109.612,-628.118,0,0
291671,107.985,-627.62,0,0
291932,106.312,-627.024,0,0
292192,104.564,-626.359,0,0
292452,102.821,-625.568,0,0
292713,101.063,-624.677,0,0
292973,99.3612,-623.682,0,0
293233,97.7121,-622.601,0,0
293494,96.0985,-621.46,0,0
293754,94.5463,-620.271,0,0
294014,93.0193,-619.034,0,0
294275,91.5116,-617.695,0,0
294535,90.0834,-616.325,0,0
294795,88.6608,-614.883,0,0
295056,87.3332,-613.397,0,0
295316,86.087,-611.822,0,0
295576,84.8861,-610.218,0,0
295837,83.8116,-608.617,0,0
296097,82.8276,-606.995,0,0
296357,81.8991,-605.414,0,0
296618,81.0325,-603.875,0,0
296878,80.2074,-602.328,0,0
297138,79.3914,-600.811,0,0
297399,78.5984,-599.319,0,0
297659,77.8192,-597.798,0,0
297919,77.0632,-596.266,0,0
298180,76.3429,-594.733,0,0
298440,75.6397,-593.174,0,0
298700.2,74.9963,-591.608,0,0
298960.525,74.3817,-590.041,0,0
299220.85,73.7851,-588.463,0,0
299481.175,73.2356,-586.851,0,0
299741.5,72.7363,-585.224,0,0
300001.825,72.3052,-583.597,0,0
300262.15,71.9278,-581.971,0,0
300522.475,71.6026,-580.338,0,0
300782.8,71.3244,-578.71,0,0
301043.125,71.1541,-577.083,0,0
301303.45,71.0693,-575.517,0,0
301563.775,71.037,-573.966,0,0
301824.1,71.0857,-572.501,0,0
302084.425,71.1329,-571.113,0,0
302344.75,71.229,-569.766,0,0
302605.075,71.346,-568.496,0,0
302865.4,71.4682,-567.268,0,0
303125.725,71.5915,-566.078,0,0
303386.05,71.7217,-564.942,0,0
303646.375,71.8432,-563.846,0,0
303906.7,71.9686,-562.776,0,0
304167.025,72.0814,-561.745,0,0
304427.35,72.2152,-560.721,0,0
304687.675,72.345,-559.727,0,0
304948.0,72.4958,-558.762,0,0
305208.325,72.6749,-557.826,0,0
305468.65,72.8176,-556.932,0,0
305728.975,73.0023,-556.075,0,0
305989.3,73.1877,-555.26,0,0
306249.625,73.371,-554.496,0,0
306509.95,73.5514,-553.772,0,0
306770.275,73.7137,-553.088,0,0
307030.6,73.8474,-552.452,0,0
307290.925,73.9595,-551.829,0,0
307551.25,74.0545,-551.226,0,0
307811.575,74.1665,-550.63,0,0
308071.9,74.2873,-550.081,0,0
308332.225,74.4148,-549.61,0,0
308592.55,74.5097,-549.218,0,0
308852.875,74.546,-548.898,0,0
309113.2,74.4653,-548.631,0,0
309373.525,74.2775,-548.375,0,0
309633.85,74.0038,-548.066,0,0
309894.175,73.6852,-547.687,0,0
310154.5,73.3471,-547.252,0,0
310414.825,72.998,-546.796,0,0
310675.15,72.6538,-546.327,0,0
310935.475,72.3166,-545.836,0,0
311195.8,71.9538,-545.324,0,0
311456.125,71.6183,-544.805,0,0
311716.45,71.2439,-544.304,0,0
311976.775,70.8709,-543.769,0,0
312237.1,70.4845,-543.252,0,0
312497.425,70.0723,-542.72,0,0
312757.75,69.6699,-542.163,0,0
313018.075,69.2661,-541.611,0,0
313278.4,68.8379,-541.058,0,0
313538.725,68.385,-540.506,0,0
313799.05,67.9005,-539.926,0,0
314059.375,67.3817,-539.335,0,0
314319.7,66.8756,-538.65,0,0
314580,66.3636,-538.004,0,0
314840,65.8514,-537.186,0,0
315101,65.385,-536.436,0,0
315361,64.9465,-535.646,0,0
315621,64.5048,-534.917,0,0
315882,64.0362,-534.107,0,0
316142,63.6391,-533.21,0,0
316402,63.2516,-532.368,0,0
316663,62.9328,-531.5,0,0
316923,62.5822,-530.642,0,0
317183,62.3456,-529.766,0,0
317444,62.1067,-528.869,0,0
317704,61.8902,-528.02,0,0
317964,61.7326,-527.267,0,0
318225,61.5447,-526.497,0,0
318485,61.3998,-525.702,0,0
318745,61.2169,-524.998,0,0
319006,61.1292,-524.161,0,0
319266,60.9404,-523.448,0,0
319526,60.9078,-522.758,0,0
319787,60.7861,-522.094,0,0
320047,60.639,-521.465,0,0
320307,60.5529,-520.881,0,0
320567,60.4515,-520.358,0,0
320828,60.3103,-519.808,0,0
321088,60.1355,-519.322,0,0
321348,59.8939,-518.807,0,0
321609,59.6734,-518.303,0,0
321869,59.4029,-517.788,0,0
322129,59.0809,-517.294,0,0
322390,58.8126,-516.721,0,0
322650,58.5478,-516.182,0,0
322910,58.3032,-515.685,0,0
323171,58.0037,-515.192,0,0
323431,57.6167,-514.698,0,0
323691,57.2568,-514.196,0,0
323952,56.8611,-513.693,0,0
324212,56.4267,-513.191,0,0
324472,55.9781,-512.671,0,0
324733,55.4566,-512.08,0,0
324993,54.9818,-511.483,0,0
325253,54.4998,-510.814,0,0
325514,54.0039,-510.182,0,0
325774,53.4378,-509.476,0,0
326034,52.9799,-508.714,0,0
326295,52.5715,-507.984,0,0
326555,52.1338,-507.172,0,0
326815,51.7297,-506.42,0,0
327076,51.2969,-505.661,0,0
327336,50.976,-504.822,0,0
327596,50.5642,-504.071,0,0
327857,50.1887,-503.29,0,0
328117,49.8761,-502.436,0,0
328377,49.504,-501.634,0,0
328638,49.1152,-500.815,0,0
328898,48.8041,-500.069,0,0
329158,48.477,-499.267,0,0
329419,48.084,-498.473,0,0
329679,47.7775,-497.624,0,0
329939,47.4383,-496.82,0,0
330200,47.1455,-495.918,0,0
330460,46.802,-495.147,0,0
330720.15,46.5504,-494.265,0,0
330980.475,46.2738,-493.406,0,0
331240.8,45.9178,-492.499,0,0
331501.125,45.697,-491.654,0,0
331761.45,45.4138,-490.746,0,0
332021.775,45.1738,-489.876,0,0
332282.1,44.9252,-488.99,0,0
332542.425,44.7469,-488.059,0,0
332802.75,44.5513,-487.141,0,0
333063.075,44.3688,-486.219,0,0
333323.4,44.2349,-485.331,0,0
333583.725,44.0956,-484.366,0,0
333844.05,44.0029,-483.477,0,0
334104.375,43.9542,-482.597,0,0
334364.7,43.9192,-481.715,0,0
334625.025,43.8504,-480.796,0,0
334885.35,43.8961,-479.964,0,0
335145.675,43.9104,-479.152,0,0
335406.0,43.9159,-478.367,0,0
335666.325,43.9648,-477.565,0,0
335926.65,43.9569,-476.862,0,0
336186.975,43.9686,-476.091,0,0
336447.3,43.9751,-475.394,0,0
336707.625,44.0035,-474.729,0,0
336967.95,44.0264,-474.025,0,0
337228.275,44.0573,-473.354,0,0
337488.6,44.0541,-472.69,0,0
337748.925,44.009,-472.105,0,0
338009.25,43.9885,-471.451,0,0
338269.575,43.9361,-470.863,0,0
338529.9,43.9039,-470.285,0,0
338790.225,43.7923,-469.682,0,0
339050.55,43.7449,-469.083,0,0
339310.875,43.6578,-468.437,0,0
339571.2,43.5596,-467.881,0,0
339831.525,43.4245,-467.246,0,0
340091.85,43.2876,-466.668,0,0
340352.175,43.2519,-465.992,0,0
340612.5,43.0482,-465.379,0,0
340872.825,42.9263,-464.788,0,0
341133.15,42.7305,-464.125,0,0
341393.475,42.6098,-463.518,0,0
341653.8,42.4488,-462.872,0,0
341914.125,42.2662,-462.179,0,0
342174.45,42.0576,-461.504,0,0
342434.775,41.9211,-460.823,0,0
342695.1,41.7418,-460.144,0,0
342955.425,41.6275,-459.436,0,0
343215.75,41.4822,-458.69,0,0
343476.075,41.375,-458.031,0,0
343736.4,41.2469,-457.292,0,0
343996.725,41.1334,-456.544,0,0
344257.05,41.0014,-455.827,0,0
344517.375,40.9024,-455.13,0,0
344777.7,40.7743,-454.337,0,0
345038.025,40.6817,-453.614,0,0
345298.35,40.6208,-452.898,0,0
345558.675,40.5256,-452.131,0,0
345819.0,40.4127,-451.357,0,0
346079.325,40.4118,-450.605,0,0
346339.65,40.2863,-449.839,0,0
346599.975,40.3187,-449.057,0,0
346860,40.3188,-448.325,0,0
347121,40.3091,-447.543,0,0
347381,40.3139,-446.806,0,0
347641,40.3766,-446.093,0,0
347902,40.4015,-445.329,0,0
348162,40.4086,-444.628,0,0
348422,40.4829,-443.937,0,0
348683,40.543,-443.225,0,0
348943,40.5693,-442.567,0,0
349203,40.6864,-441.834,0,0
349464,40.7026,-441.201,0,0
349724,40.8077,-440.493,0,0
349984,40.9,-439.836,0,0
350245,40.9594,-439.193,0,0
350505,41.0439,-438.575,0,0
350765,41.1223,-437.928,0,0
351025,41.2469,-437.276,0,0
351286,41.3037,-436.651,0,0
351546,41.4089,-436.059,0,0
351806,41.4871,-435.447,0,0
352067,41.5781,-434.854,0,0
352327,41.6652,-434.225,0,0
352587,41.731,-433.615,0,0
352848,41.8475,-433.057,0,0
353108,41.9454,-432.458,0,0
353368,42.0053,-431.927,0,0
353629,42.1367,-431.37,0,0
353889,42.2308,-430.82,0,0
354149,42.3278,-430.283,0,0
354410,42.4178,-429.768,0,0
354670,42.4838,-429.276,0,0
354930,42.5695,-428.781,0,0
355191,42.6393,-428.226,0,0
355451,42.7275,-427.745,0,0
355711,42.7848,-427.285,0,0
355972,42.8972,-426.807,0,0
356232,42.8914,-426.299,0,0
356492,42.9307,-425.869,0,0
356753,42.951,-425.41,0,0
357013,42.9029,-424.962,0,0
357273,42.9069,-424.51,0,0
357534,42.8976,-424.026,0,0
357794,42.8189,-423.543,0,0
358054,42.8038,-423.045,0,0
358315,42.7739,-422.546,0,0
358575,42.6621,-422.002,0,0
358835,42.6343,-421.465,0,0
359096,42.5909,-420.963,0,0
359356,42.533,-420.395,0,0
359616,42.5261,-419.852,0,0
359877,42.4572,-419.304,0,0
360137,42.4489,-418.741,0,0
360397,42.4107,-418.168,0,0
360658,42.4067,-417.553,0,0
360918,42.3688,-417.032,0,0
361178,42.3217,-416.484,0,0
361438,42.4122,-415.903,0,0
361699,42.4041,-415.316,0,0
361959,42.3805,-414.742,0,0
362219,42.4118,-414.182,0,0
362480,42.3898,-413.567,0,0
362740.1,42.4036,-413.027,0,0
363000.425,42.4335,-412.41,0,0
363260.75,42.4654,-411.807,0,0
363521.075,42.4938,-411.206,0,0
363781.4,42.5316,-410.588,0,0
364041.725,42.5932,-410.006,0,0
364302.05,42.6463,-409.391,0,0
364562.375,42.7126,-408.786,0,0
364822.7,42.8275,-408.167,0,0
365083.025,42.9297,-407.578,0,0
365343.35,43.1166,-406.964,0,0
365603.675,43.2768,-406.442,0,0
365864.0,43.4214,-405.937,0,0
366124.325,43.5279,-405.409,0,0
366384.65,43.6721,-404.924,0,0
366644.975,43.7716,-404.449,0,0
366905.3,43.9134,-403.958,0,0
367165.625,43.9482,-403.444,0,0
367425.95,44.0501,-402.954,0,0
367686.275,44.1503,-402.475,0,0
367946.6,44.2288,-401.964,0,0
368206.925,44.2717,-401.466,0,0
368467.25,44.405,-400.937,0,0
368727.575,44.4881,-400.364,0,0
368987.9,44.603,-399.826,0,0
369248.225,44.735,-399.269,0,0
369508.55,44.8746,-398.717,0,0
369768.875,45.0696,-398.191,0,0
370029.2,45.2667,-397.659,0,0
370289.525,45.5491,-397.183,0,0
370549.85,45.8213,-396.682,0,0
370810.175,46.035,-396.272,0,0
371070.5,46.2749,-395.88,0,0
371330.825,46.5388,-395.482,0,0
371591.15,46.7534,-395.161,0,0
371851.475,46.9378,-394.822,0,0
372111.8,47.1091,-394.52,0,0
372372.125,47.2773,-394.151,0,0
372632.45,47.4269,-393.892,0,0
372892.775,47.555,-393.613,0,0
373153.1,47.687,-393.313,0,0
373413.425,47.783,-393.073,0,0
373673.75,47.8449,-392.781,0,0
373934.075,47.9227,-392.501,0,0
374194.4,47.9949,-392.162,0,0
374454.725,48.0292,-391.894,0,0
374715.05,48.002,-391.568,0,0
374975.375,48.0826,-391.229,0,0
375235.7,48.0801,-390.844,0,0
375496.025,48.1015,-390.585,0,0
375756.35,48.1229,-390.19,0,0
376016.675,48.1584,-389.804,0,0
376277.0,48.2308,-389.473,0,0
376537.325,48.3258,-389.078,0,0
376797.65,48.3671,-388.738,0,0
377057.975,48.4895,-388.427,0,0
377318.3,48.5803,-388.124,0,0
377578.625,48.6542,-387.883,0,0
377838.95,48.7,-387.629,0,0
378099.275,48.7429,-387.412,0,0
378359.6,48.6873,-387.211,0,0
378619.925,48.6125,-386.983,0,0
378880,48.5155,-386.729,0,0
379141,48.3702,-386.416,0,0
379401,48.22,-386.049,0,0
379661,48.1063,-385.64,0,0
379922,47.9922,-385.182,0,0
380182,47.9862,-384.65,0,0
380442,47.9914,-384.148,0,0
380703,48.0853,-383.681,0,0
380963,48.2974,-383.267,0,0
381223,48.4511,-382.898,0,0
381483,48.6653,-382.622,0,0
381744,48.8085,-382.476,0,0
382004,48.9026,-382.31,0,0
382264,48.9445,-382.246,0,0
382525,48.9184,-382.161,0,0
382785,48.7987,-382.051,0,0
383045,48.6314,-381.943,0,0
383306,48.4351,-381.798,0,0
383566,48.2137,-381.611,0,0
383826,47.9057,-381.356,0,0
384087,47.602,-381.102,0,0
384347,47.3152,-380.758,0,0
384607,47.0228,-380.407,0,0
384868,46.7333,-380.044,0,0
385128,46.4476,-379.583,0,0
385388,46.1577,-379.13,0,0
385649,45.9121,-378.654,0,0
385909,45.6416,-378.147,0,0
386169,45.4464,-377.656,0,0
386430,45.2319,-377.146,0,0
386690,45.0187,-376.593,0,0
386950,44.8434,-376.012,0,0
387211,44.6759,-375.467,0,0
387471,44.5135,-374.883,0,0
387731,44.3916,-374.293,0,0
387992,44.2657,-373.662,0,0
388252,44.1768,-373.077,0,0
388512,44.1277,-372.456,0,0
388773,44.0841,-371.913,0,0
389033,44.0723,-371.295,0,0
389293,44.0349,-370.703,0,0
389554,44.0307,-370.112,0,0
389814,44.0911,-369.605,0,0
390074,44.1082,-369.027,0,0
390335,44.1138,-368.501,0,0
390595,44.1412,-368.003,0,0
390855,44.1824,-367.516,0,0
391116,44.1587,-366.999,0,0
391376,44.2128,-366.49,0,0
391636,44.2072,-366.008,0,0
391896,44.1768,-365.512,0,0
392157,44.1779,-365.016,0,0
392417,44.1924,-364.509,0,0
392677,44.1951,-364.039,0,0
392938,44.1726,-363.526,0,0
393198,44.1789,-363.012,0,0
393458,44.176,-362.51,0,0
393719,44.1904,-361.996,0,0
393979,44.173,-361.451,0,0
394239,44.1843,-360.919,0,0
394500,44.1997,-360.413,0,0
394760.05,44.2233,-359.857,0,0
395020.375,44.2781,-359.32,0,0
395280.7,44.276,-358.8,0,0
395541.025,44.3458,-358.265,0,0
395801.35,44.432,-357.776,0,0
396061.675,44.5473,-357.217,0,0
396322.0,44.6045,-356.732,0,0
396582.325,44.6944,-356.235,0,0
396842.65,44.7941,-355.761,0,0
397102.975,44.8568,-355.298,0,0
397363.3,44.9488,-354.868,0,0
397623.625,45.0106,-354.395,0,0
397883.95,45.0567,-353.952,0,0
398144.275,45.126,-353.533,0,0
398404.6,45.1446,-353.094,0,0
398664.925,45.1726,-352.635,0,0
398925.25,45.1974,-352.181,0,0
399185.575,45.2246,-351.727,0,0
399445.9,45.2312,-351.275,0,0
399706.225,45.2299,-350.798,0,0
399966.55,45.2441,-350.319,0,0
400006.6,45.227,-350.236,0,0