File: Accelerated corrosion test data/2025-10-10_06-00-03/sample_2.csv
Frequency (Hz),Impedance (ohms),Phase (Radians),Temperature (C),Humidity (%)
10000.0,232.151,-11407.2,0,0
10260.325,226.82,-11120,0,0
10520.65,221.281,-10847.2,0,0
10780.975,216.364,-10587.5,0,0
11041.3,210.709,-10340.4,0,0
11301.625,206.116,-10103.5,0,0
11561.95,202.738,-9876.49,0,0
11822.275,201.104,-9667.43,0,0
12082.6,196.187,-9457.77,0,0
12342.925,190.175,-9261.65,0,0
12603.25,185.709,-9070.51,0,0
12863.575,182.414,-8887.61,0,0
13123.9,179.88,-8714.59,0,0
13384.225,175.533,-8544.07,0,0
13644.55,173.147,-8379.2,0,0
13904.875,186.189,-8227.83,0,0
14165.2,167.382,-8081.16,0,0
14425.525,164.034,-7933.2,0,0
14685.8,165.768,-7787.79,0,0
14946.175,161.316,-7658.72,0,0
15206.5,165.736,-7536.89,0,0
15466.825,163.744,-7401.3,0,0
15727.15,153.66,-7289.58,0,0
15987.5,149.92,-7168.49,0,0
16247.8,150.304,-7053.68,0,0
16508.125,145.03,-6944.07,0,0
16768.45,142.599,-6836.55,0,0
17028.775,140.96,-6732.3,0,0
17289.1,139.73,-6632.02,0,0
17549.425,136.701,-6533.35,0,0
17809.75,134.526,-6437.47,0,0
18070.075,132.051,-6344.31,0,0
18330.4,130.452,-6254.32,0,0
18590.725,129.943,-6166.36,0,0
18851.05,128.673,-6080.71,0,0
19111.375,130.104,-5998.85,0,0
19371.7,129.708,-5921.33,0,0
19632.025,124.445,-5843.92,0,0
19892.35,122.033,-5766.19,0,0
20152.675,120.371,-5690.89,0,0
20413.0,119.593,-5616.74,0,0
20673.3,118.779,-5544.26,0,0
20933.65,119.338,-5472.84,0,0
21193.975,123.896,-5405.72,0,0
21454.3,131.029,-5343.65,0,0
21714.625,128.198,-5287.91,0,0
21974.9,122.815,-5223.12,0,0
22235.275,119.86,-5168.95,0,0
22495.6,116.145,-5108.65,0,0
22755.925,112.645,-5047.62,0,0
23016.25,113.467,-4992.45,0,0
23276.6,113.458,-4937.48,0,0
23536.9,109.73,-4883.23,0,0
23797.225,107.837,-4829,0,0
24057.55,107.116,-4777.37,0,0
24317.875,103.911,-4727.47,0,0
24578.2,102.067,-4676.52,0,0
24838.525,101.283,-4626.82,0,0
25098.85,100.065,-4577.85,0,0
25359.175,98.8485,-4530.36,0,0
25619.5,98.3288,-4484.33,0,0
25879.8,97.2384,-4438.08,0,0
26140.1,97.9308,-4393.43,0,0
26400.5,96.7639,-4350.47,0,0
26660.8,97.2804,-4308.38,0,0
26921.1,95.8064,-4266.35,0,0
27181.4,95.1447,-4226.3,0,0
27441.8,92.7686,-4186.25,0,0
27702.1,91.4206,-4146.38,0,0
27962.4,90.7621,-4106.16,0,0
28222.7,90.9008,-4067.77,0,0
28483.1,90.446,-4030.01,0,0
28743.4,90.0728,-3992.58,0,0
29003.7,90.8598,-3955.09,0,0
29264,90.9033,-3919.54,0,0
29524.4,94.098,-3883.83,0,0
29784.7,97.118,-3855.03,0,0
30045,93.2995,-3823.14,0,0
30305.3,94.8235,-3790.17,0,0
30565.7,91.8326,-3762.72,0,0
30826,88.4135,-3729.96,0,0
31086.3,87.4443,-3697.87,0,0
31346.6,85.6202,-3666.56,0,0
31607,85.8263,-3636.59,0,0
31867.3,83.7027,-3606.65,0,0
32127.6,82.8273,-3576.55,0,0
32387.9,82.6886,-3546.19,0,0
32648.3,84.5905,-3518.06,0,0
32908.6,84.0038,-3492.06,0,0
33168.9,82.2597,-3465.33,0,0
33429.2,80.489,-3438.19,0,0
33689.6,80.5376,-3411,0,0
33949.9,79.5848,-3385.24,0,0
34210.2,77.692,-3359.11,0,0
34470.5,76.8555,-3333.11,0,0
34730.9,76.3853,-3307.49,0,0
34991.2,75.8889,-3282.33,0,0
35251.5,75.4068,-3257.94,0,0
35511.8,74.779,-3233.69,0,0
35772.2,74.4861,-3209.64,0,0
36032.5,73.8168,-3186.58,0,0
36292.8,72.8551,-3163.14,0,0
36553.1,72.7078,-3139.9,0,0
36813.5,72.3459,-3117.48,0,0
37073.8,71.7125,-3095.2,0,0
37334.1,71.6244,-3073,0,0
37594.4,71.2284,-3051.67,0,0
37854.8,70.788,-3030.03,0,0
38115.1,70.7536,-3009.87,0,0
38375.4,69.6222,-2988.93,0,0
38635.7,69.3533,-2968.32,0,0
38896.1,69.2703,-2947.73,0,0
39156.4,68.8381,-2928.02,0,0
39416.7,68.1619,-2908.23,0,0
39677,67.7804,-2888.8,0,0
39937.4,67.4226,-2869.58,0,0
40197.7,67.1183,-2850.62,0,0
40458,66.7424,-2831.74,0,0
40718.3,66.6499,-2812.87,0,0
40978.7,66.6035,-2795.07,0,0
41239,66.4251,-2776.74,0,0
41499.3,66.18,-2759.07,0,0
41759.6,65.8495,-2741.56,0,0
42020,65.6487,-2724.05,0,0
42280.275,65.4306,-2707.22,0,0
42540.6,65.0087,-2690.27,0,0
42800.925,64.6326,-2673.78,0,0
43061.25,64.4459,-2657.08,0,0
43321.575,64.1663,-2640.8,0,0
43581.9,63.9242,-2624.53,0,0
43842.225,63.5918,-2608.54,0,0
44102.55,63.4011,-2592.52,0,0
44362.875,63.2206,-2577.11,0,0
44623.2,63.0924,-2561.73,0,0
44883.525,62.3903,-2546.34,0,0
45143.85,62.5424,-2530.89,0,0
45404.175,62.5425,-2516.14,0,0
45664.5,62.0675,-2501.72,0,0
45924.825,62.032,-2486.68,0,0
46185.15,62.2605,-2472.82,0,0
46445.475,61.7132,-2458.79,0,0
46705.8,61.3641,-2444.28,0,0
46966.125,61.2355,-2430.35,0,0
47226.45,61.2056,-2416.1,0,0
47486.775,61.5933,-2402.83,0,0
47747.1,61.1459,-2389.45,0,0
48007.425,60.9832,-2375.98,0,0
48267.75,61.5498,-2362.38,0,0
48528.075,61.8162,-2350.25,0,0
48788.4,61.6162,-2338,0,0
49048.725,61.0322,-2325.75,0,0
49309.05,60.3819,-2313.49,0,0
49569.375,59.7327,-2300.81,0,0
49829.7,59.1587,-2288.44,0,0
50090.025,58.8628,-2276.2,0,0
50350.35,58.2821,-2263.71,0,0
50610.675,57.9729,-2251.33,0,0
50871.0,58.1492,-2239.4,0,0
51131.325,57.9228,-2227.71,0,0
51391.65,57.6042,-2216.27,0,0
51651.975,57.1628,-2204.74,0,0
51912.3,56.7541,-2193.25,0,0
52172.625,56.213,-2181.61,0,0
52432.95,56.0283,-2170.15,0,0
52693.275,55.6668,-2158.94,0,0
52953.6,55.4175,-2147.49,0,0
53213.925,55.3981,-2136.45,0,0
53474.25,55.2412,-2125.45,0,0
53734.575,54.957,-2114.61,0,0
53994.9,54.8591,-2103.73,0,0
54255.225,54.6642,-2092.95,0,0
54515.55,54.7313,-2082.34,0,0
54775.875,54.6513,-2072.06,0,0
55036.2,54.5072,-2061.53,0,0
55296.525,54.3813,-2051.27,0,0
55556.85,54.3549,-2041.03,0,0
55817.175,54.2757,-2030.91,0,0
56077.5,54.3519,-2021.01,0,0
56337.825,54.3166,-2010.98,0,0
56598.15,54.161,-2001.21,0,0
56858.475,54.2828,-1991.48,0,0
57118.8,54.3256,-1981.8,0,0
57379.125,54.3053,-1972.18,0,0
57639.45,54.2753,-1962.6,0,0
57899.775,54.4357,-1953.21,0,0
58160.1,54.474,-1944.16,0,0
58420.4,54.3242,-1934.91,0,0
58680.7,54.3004,-1925.57,0,0
58941.1,54.4914,-1916.4,0,0
59201.4,54.7056,-1907.35,0,0
59461.7,54.98,-1898.3,0,0
59722,55.2303,-1889.25,0,0
59982.4,55.8046,-1880.5,0,0
60242.7,56.4999,-1872.22,0,0
60503,56.5867,-1864.28,0,0
60763.3,56.5174,-1855.8,0,0
61023.7,57.0545,-1847.27,0,0
61284,57.6009,-1839.15,0,0
61544.3,58.2483,-1831.28,0,0
61804.6,59.2883,-1823.97,0,0
62065,59.2307,-1817.52,0,0
62325.3,58.4289,-1810.3,0,0
62585.6,58.1211,-1802.92,0,0
62845.9,57.7076,-1795.59,0,0
63106.3,57.1106,-1788.68,0,0
63366.6,56.009,-1780.9,0,0
63626.9,55.4073,-1773.18,0,0
63887.2,54.9015,-1765.64,0,0
64147.6,54.2826,-1758.02,0,0
64407.9,53.6064,-1750.38,0,0
64668.2,53.4407,-1742.78,0,0
64928.5,52.5366,-1735.87,0,0
65188.9,51.4013,-1727.88,0,0
65449.2,50.8036,-1719.57,0,0
65709.5,50.8124,-1711.4,0,0
65969.8,51.0027,-1703.54,0,0
66230.2,51.1988,-1696.05,0,0
66490.5,51.314,-1688.62,0,0
66750.8,51.3262,-1681.51,0,0
67011.1,51.2633,-1673.98,0,0
67271.5,51.5574,-1666.37,0,0
67531.8,52.145,-1659.2,0,0
67792.1,52.6847,-1652.24,0,0
68052.4,53.4443,-1645.49,0,0
68312.8,53.6874,-1639.27,0,0
68573.1,53.6549,-1632.48,0,0
68833.4,54.326,-1625.74,0,0
69093.7,55.1268,-1619.52,0,0
69354.1,55.203,-1613.58,0,0
69614.4,55.6248,-1607.46,0,0
69874.7,56.2469,-1602.13,0,0
70135,56.0739,-1596.94,0,0
70395.4,55.6796,-1591.67,0,0
70655.7,54.6464,-1586.29,0,0
70916,53.5194,-1580.25,0,0
71176.3,52.8924,-1574.1,0,0
71436.7,52.2627,-1568.16,0,0
71697,51.684,-1562.33,0,0
71957.3,50.5324,-1556.69,0,0
72217.6,49.1739,-1550.39,0,0
72478,48.2722,-1543.75,0,0
72738.3,47.4564,-1537.21,0,0
72998.6,46.8718,-1530.34,0,0
73258.9,46.7063,-1523.88,0,0
73519.3,46.1347,-1517.59,0,0
73779.6,45.5678,-1510.9,0,0
74039.9,45.3405,-1504.26,0,0
74300.225,45.3427,-1497.75,0,0
74560.55,45.3912,-1491.36,0,0
74820.875,45.4209,-1485,0,0
75081.2,45.5982,-1478.69,0,0
75341.525,45.7386,-1472.42,0,0
75601.85,46.0371,-1466.35,0,0
75862.175,46.326,-1460.22,0,0
76122.5,46.7479,-1454.17,0,0
76382.825,47.1778,-1448.3,0,0
76643.15,47.6003,-1442.57,0,0
76903.475,48.0388,-1436.81,0,0
77163.8,48.5765,-1431.12,0,0
77424.125,49.1968,-1425.48,0,0
77684.45,49.8763,-1420.05,0,0
77944.775,50.6661,-1414.73,0,0
78205.1,51.446,-1409.63,0,0
78465.425,52.2815,-1404.81,0,0
78725.75,52.8263,-1400.23,0,0
78986.075,53.3124,-1395.76,0,0
79246.4,53.5581,-1391.45,0,0
79506.725,53.6587,-1387.16,0,0
79767.05,53.5501,-1383.05,0,0
80027.375,53.0333,-1378.97,0,0
80287.7,52.1593,-1374.39,0,0
80548.025,51.4575,-1369.56,0,0
80808.35,50.8002,-1364.49,0,0
81068.675,50.4198,-1359.42,0,0
81329.0,49.9563,-1354.39,0,0
81589.325,49.5895,-1349.34,0,0
81849.65,49.1863,-1344.29,0,0
82109.975,48.8879,-1339.1,0,0
82370.3,48.6439,-1334.06,0,0
82630.625,48.4019,-1328.92,0,0
82890.95,48.4232,-1323.65,0,0
83151.275,48.468,-1318.55,0,0
83411.6,48.5845,-1313.49,0,0
83671.925,48.762,-1308.61,0,0
83932.25,48.9051,-1303.73,0,0
84192.575,49.1513,-1298.91,0,0
84452.9,49.3396,-1294.2,0,0
84713.225,49.4245,-1289.66,0,0
84973.55,49.5205,-1284.91,0,0
85233.875,49.6694,-1280.23,0,0
85494.2,49.8795,-1275.47,0,0
85754.525,50.2607,-1270.84,0,0
86014.85,50.5538,-1266.47,0,0
86275.175,50.8535,-1262.1,0,0
86535.5,50.9698,-1257.94,0,0
86795.825,50.9244,-1253.55,0,0
87056.15,51.0942,-1249.07,0,0
87316.475,51.3038,-1244.73,0,0
87576.8,51.6733,-1240.72,0,0
87837.125,51.5748,-1236.72,0,0
88097.45,51.4761,-1232.33,0,0
88357.775,51.6256,-1228.02,0,0
88618.1,51.7868,-1224.21,0,0
88878.425,51.2536,-1219.97,0,0
89138.75,51.1405,-1215.3,0,0
89399.075,51.5026,-1210.81,0,0
89659.4,51.7858,-1206.5,0,0
89919.725,52.281,-1202.44,0,0
90180,52.4561,-1198.69,0,0
90440.4,52.2642,-1194.93,0,0
90700.7,51.7868,-1190.71,0,0
90961,51.7696,-1185.98,0,0
91221.3,52.4235,-1181.66,0,0
91481.7,52.8539,-1177.87,0,0
91742,52.8231,-1173.75,0,0
92002.3,53.1189,-1169.64,0,0
92262.6,53.5822,-1165.41,0,0
92523,54.3222,-1161.6,0,0
92783.3,54.6782,-1157.93,0,0
93043.6,55.1927,-1154.17,0,0
93303.9,55.7479,-1150.82,0,0
93564.3,55.8024,-1147.43,0,0
93824.6,56.2478,-1143.76,0,0
94084.9,56.4312,-1140.82,0,0
94345.2,56.1779,-1137.57,0,0
94605.6,55.7302,-1134.09,0,0
94865.9,55.7597,-1130.24,0,0
95126.2,55.7496,-1127.02,0,0
95386.5,55.1049,-1123.43,0,0
95646.9,54.5953,-1119.17,0,0
95907.2,54.7723,-1114.56,0,0
96167.5,55.6822,-1110.51,0,0
96427.8,56.6112,-1107.08,0,0
96688.2,57.1231,-1103.87,0,0
96948.5,57.6448,-1100.54,0,0
97208.8,58.3349,-1097.51,0,0
97469.1,58.8763,-1094.95,0,0
97729.5,58.7568,-1092.39,0,0
97989.8,58.5915,-1089.66,0,0
98250.1,58.2582,-1086.78,0,0
98510.4,58.0916,-1083.77,0,0
98770.8,58.0384,-1081.09,0,0
99031.1,57.5849,-1078.66,0,0
99291.4,56.6037,-1076.2,0,0
99551.7,55.2439,-1073.25,0,0
99812.1,53.8948,-1069.71,0,0
100072,53.008,-1065.72,0,0
100333,52.5421,-1061.82,0,0
100593,52.3492,-1058.37,0,0
100853,51.7799,-1055.2,0,0
101114,50.9118,-1051.88,0,0
101374,49.8904,-1048.3,0,0
101634,48.7769,-1044.4,0,0
101895,48.0419,-1040.1,0,0
102155,47.644,-1035.79,0,0
102415,47.4631,-1031.72,0,0
102676,47.1925,-1027.81,0,0
102936,46.6999,-1023.74,0,0
103196,46.5185,-1019.43,0,0
103457,46.4438,-1015.27,0,0
103717,46.3919,-1010.95,0,0
103977,46.6448,-1006.44,0,0
104238,47.1856,-1002.11,0,0
104498,47.907,-997.928,0,0
104758,48.8064,-994.033,0,0
105019,49.6533,-990.383,0,0
105279,50.4655,-986.794,0,0
105539,51.2131,-983.131,0,0
105800,52.3364,-979.52,0,0
106060,53.5582,-976.327,0,0
106320.175,54.6308,-973.489,0,0
106580.5,55.6716,-970.677,0,0
106840.825,56.6879,-968.263,0,0
107101.15,57.2099,-965.975,0,0
107361.475,57.5802,-963.646,0,0
107621.8,57.8296,-961.274,0,0
107882.125,58.047,-959.049,0,0
108142.45,57.9219,-956.973,0,0
108402.775,57.3823,-954.591,0,0
108663.1,56.9823,-951.837,0,0
108923.425,56.5985,-949.28,0,0
109183.75,55.9931,-946.639,0,0
109444.075,55.2472,-943.666,0,0
109704.4,54.7258,-940.576,0,0
109964.725,54.0258,-937.509,0,0
110225.05,53.3745,-934.146,0,0
110485.375,52.9143,-930.659,0,0
110745.7,52.5277,-927.128,0,0
111006.025,52.3054,-923.604,0,0
111266.35,52.2294,-920.029,0,0
111526.675,52.267,-916.514,0,0
111787.0,52.2365,-912.967,0,0
112047.325,52.3619,-909.384,0,0
112307.65,52.4535,-906.013,0,0
112567.975,52.5319,-902.564,0,0
112828.3,52.7021,-899.041,0,0
113088.625,52.9007,-895.566,0,0
113348.95,53.1977,-892.076,0,0
113609.275,53.6555,-888.691,0,0
113869.6,53.9833,-885.342,0,0
114129.925,54.3868,-881.993,0,0
114390.25,54.8378,-878.635,0,0
114650.575,55.3202,-875.334,0,0
114910.9,55.9041,-872.056,0,0
115171.225,56.4367,-868.742,0,0
115431.55,57.0839,-865.635,0,0
115691.875,57.7472,-862.477,0,0
115952.2,58.3233,-859.418,0,0
116212.525,58.9726,-856.332,0,0
116472.85,59.7158,-853.246,0,0
116733.175,60.5296,-850.31,0,0
116993.5,61.2854,-847.435,0,0
117253.825,62.0482,-844.632,0,0
117514.15,62.7989,-841.818,0,0
117774.475,63.644,-839.032,0,0
118034.8,64.5312,-836.442,0,0
118295.125,65.3322,-834.021,0,0
118555.45,65.9511,-831.514,0,0
118815.775,66.6879,-828.959,0,0
119076.1,67.5616,-826.644,0,0
119336.425,68.1512,-824.504,0,0
119596.75,68.6817,-822.195,0,0
119857.075,69.3265,-820.033,0,0
120117.4,69.7849,-818.029,0,0
120377.725,70.1136,-816.078,0,0
120638.05,70.2992,-814.205,0,0
120898.375,70.2347,-812.248,0,0
121158.7,70.0036,-810.077,0,0
121419.025,69.7984,-807.735,0,0
121679.35,69.7022,-805.38,0,0
121939.675,69.5172,-802.981,0,0
122200.0,69.2874,-800.599,0,0
122460,69.0086,-798.069,0,0
122721,68.8144,-795.381,0,0
122981,68.7039,-792.729,0,0
123241,68.5337,-790.056,0,0
123502,68.4321,-787.341,0,0
123762,68.3147,-784.655,0,0
124022,68.126,-781.901,0,0
124283,68.0351,-779.052,0,0
124543,67.931,-776.167,0,0
124803,67.868,-773.255,0,0
125064,67.8271,-770.273,0,0
125324,67.8383,-767.297,0,0
125584,67.9486,-764.26,0,0
125845,68.0744,-761.204,0,0
126105,68.2902,-758.162,0,0
126365,68.5593,-755.1,0,0
126626,68.8728,-752.078,0,0
126886,69.2656,-749.119,0,0
127146,69.667,-745.963,0,0
127406,70.1971,-742.979,0,0
127667,70.7301,-740.012,0,0
127927,71.3592,-737.232,0,0
128187,71.9165,-734.466,0,0
128448,72.5235,-731.69,0,0
128708,73.1061,-728.992,0,0
128968,73.7381,-726.36,0,0
129229,74.3141,-723.756,0,0
129489,74.8164,-721.215,0,0
129749,75.2559,-718.629,0,0
130010,75.7039,-716.026,0,0
130270,76.212,-713.415,0,0
130530,76.7181,-710.868,0,0
130791,77.1831,-708.313,0,0
131051,77.6798,-705.78,0,0
131311,78.0957,-703.332,0,0
131572,78.4553,-700.856,0,0
131832,78.8068,-698.372,0,0
132092,79.0967,-695.918,0,0
132353,79.2677,-693.429,0,0
132613,79.3924,-690.81,0,0
132873,79.508,-688.065,0,0
133134,79.7242,-685.222,0,0
133394,80.067,-682.413,0,0
133654,80.3925,-679.582,0,0
133915,80.7625,-676.822,0,0
134175,81.0899,-674.091,0,0
134435,81.3239,-671.278,0,0
134696,81.5842,-668.376,0,0
134956,81.8957,-665.384,0,0
135216,82.3175,-662.425,0,0
135477,82.7027,-659.379,0,0
135737,83.2034,-656.329,0,0
135997,83.7849,-653.33,0,0
136258,84.3246,-650.318,0,0
136518,84.985,-647.326,0,0
136778,85.5964,-644.381,0,0
137039,86.137,-641.38,0,0
137299,86.728,-638.262,0,0
137559,87.4984,-635.168,0,0
137819,88.2996,-632.183,0,0
138080,89.0544,-629.277,0,0
138340.125,89.6912,-626.338,0,0
138600.45,90.3495,-623.309,0,0
138860.775,91.0207,-620.222,0,0
139121.1,91.7273,-617.091,0,0
139381.425,92.433,-613.963,0,0
139641.75,93.1816,-610.766,0,0
139902.075,93.8718,-607.568,0,0
140162.4,94.5497,-604.173,0,0
140422.725,95.3251,-600.619,0,0
140683.05,96.2768,-596.954,0,0
140943.375,97.415,-593.247,0,0
141203.7,98.6761,-589.558,0,0
141464.025,100.126,-585.804,0,0
141724.35,101.736,-582.12,0,0
141984.675,103.54,-578.452,0,0
142245.0,105.481,-574.946,0,0
142505.325,107.449,-571.511,0,0
142765.65,109.572,-568.067,0,0
143025.975,111.952,-564.815,0,0
143286.3,114.25,-561.887,0,0
143546.625,116.394,-559.03,0,0
143806.95,118.556,-556.111,0,0
144067.275,120.737,-553.244,0,0
144327.6,122.937,-550.396,0,0
144587.925,125.105,-547.595,0,0
144848.25,127.255,-544.687,0,0
145108.575,129.6,-541.706,0,0
145368.9,132.053,-538.86,0,0
145629.225,134.57,-536.097,0,0
145889.55,137.087,-533.397,0,0
146149.875,139.567,-530.723,0,0
146410.2,142.087,-527.954,0,0
146670.525,144.719,-525.147,0,0
146930.85,147.504,-522.334,0,0
147191.175,150.42,-519.522,0,0
147451.5,153.605,-516.703,0,0
147711.825,156.959,-514.103,0,0
147972.15,160.33,-511.683,0,0
148232.475,163.703,-509.212,0,0
148492.8,167.33,-506.688,0,0
148753.125,171.187,-504.245,0,0
149013.45,175.362,-501.853,0,0
149273.775,179.956,-499.633,0,0
149534.1,184.997,-497.802,0,0
149794.425,190.35,-496.566,0,0
150054.75,195.708,-496.096,0,0
150315.075,200.909,-495.941,0,0
150575.4,206.308,-496.195,0,0
150835.725,211.776,-497.333,0,0
151096.05,216.7,-499.383,0,0
151356.375,220.872,-501.748,0,0
151616.7,224.673,-504.281,0,0
151877.025,228.121,-507.353,0,0
152137.35,230.608,-510.781,0,0
152397.675,232.312,-513.985,0,0
152658.0,233.475,-516.921,0,0
152918.325,234.325,-519.47,0,0
153178.65,235.01,-521.899,0,0
153438.975,235.582,-524.323,0,0
153699.3,235.677,-526.93,0,0
153959.625,235.051,-529.285,0,0
154219.95,234.024,-531.064,0,0
154480,232.948,-532.289,0,0
154741,231.916,-533.098,0,0
155001,230.899,-533.781,0,0
155261,229.868,-534.238,0,0
155522,228.944,-534.537,0,0
155782,228.127,-534.555,0,0
156042,227.119,-534.814,0,0
156303,225.919,-534.801,0,0
156563,224.716,-534.245,0,0
156823,223.73,-533.826,0,0
157084,222.524,-533.36,0,0
157344,221.123,-532.429,0,0
157604,219.896,-530.958,0,0
157864,218.991,-529.299,0,0
158125,218.554,-527.309,0,0
158385,218.487,-525.634,0,0
158645,218.462,-524.152,0,0
158906,218.579,-522.726,0,0
159166,218.681,-521.257,0,0
159426,218.858,-519.843,0,0
159687,219.187,-518.485,0,0
159947,219.599,-517.407,0,0
160207,219.804,-516.493,0,0
160468,219.815,-515.302,0,0
160728,219.875,-514.057,0,0
160988,220.021,-512.632,0,0
161249,220.354,-510.953,0,0
161509,221.206,-509.284,0,0
161769,222.521,-508.212,0,0
162030,223.879,-507.439,0,0
162290,225.316,-507.269,0,0
162550,226.385,-507.854,0,0
162811,226.901,-508.874,0,0
163071,226.755,-510.165,0,0
163331,225.602,-511.508,0,0
163592,223.737,-512.147,0,0
163852,221.771,-512.286,0,0
164112,219.494,-512.228,0,0
164373,216.832,-511.737,0,0
164633,214.069,-510.581,0,0
164893,211.414,-508.913,0,0
165154,208.967,-506.885,0,0
165414,206.666,-504.86,0,0
165674,204.133,-502.616,0,0
165935,201.473,-499.734,0,0
166195,199.206,-496.525,0,0
166455,196.966,-492.918,0,0
166716,195.054,-488.988,0,0
166976,193.535,-484.799,0,0
167236,192.377,-480.581,0,0
167497,191.406,-476.31,0,0
167757,190.684,-471.923,0,0
168017,190.023,-467.469,0,0
168277,189.801,-462.834,0,0
168538,189.67,-458.18,0,0
168798,190.141,-453.468,0,0
169058,190.822,-449.082,0,0
169319,191.556,-444.94,0,0
169579,192.161,-440.891,0,0
169839,192.682,-436.679,0,0
170100,193.498,-432.41,0,0
170360.075,194.386,-428.249,0,0
170620.4,195.218,-424.263,0,0
170880.725,195.657,-420.117,0,0
171141.05,196.141,-415.352,0,0
171401.375,197.252,-410.228,0,0
171661.7,198.828,-405.27,0,0
171922.025,200.562,-400.471,0,0
172182.35,202.47,-395.797,0,0
172442.675,204.303,-391.216,0,0
172703.0,206.141,-386.493,0,0
172963.325,208.225,-381.529,0,0
173223.65,210.634,-376.591,0,0
173483.975,213.165,-371.636,0,0
173744.3,215.93,-366.712,0,0
174004.625,218.944,-361.691,0,0
174264.95,222.194,-356.712,0,0
174525.275,225.714,-351.644,0,0
174785.6,229.771,-346.623,0,0
175045.925,234.227,-341.805,0,0
175306.25,239.081,-337.354,0,0
175566.575,244.303,-333.289,0,0
175826.9,249.55,-329.798,0,0
176087.225,254.752,-326.654,0,0
176347.55,259.965,-323.886,0,0
176607.875,264.977,-321.424,0,0
176868.2,269.621,-318.889,0,0
177128.525,274.506,-316.076,0,0
177388.85,279.96,-313.451,0,0
177649.175,285.844,-311.274,0,0
177909.5,291.933,-310.045,0,0
178169.825,297.644,-309.688,0,0
178430.15,302.639,-309.772,0,0
178690.475,307.17,-310.136,0,0
178950.8,311.105,-310.756,0,0
179211.125,314.266,-311.344,0,0
179471.45,316.713,-311.92,0,0
179731.775,319.451,-310.828,0,0
179992.1,321.195,-311.013,0,0
180252.425,322.414,-310.202,0,0
180512.75,323.717,-308.805,0,0
180773.075,324.913,-307.402,0,0
181033.4,325.517,-305.311,0,0
181293.725,326.197,-302.011,0,0
181554.05,327.474,-298.001,0,0
181814.375,329.371,-293.412,0,0
182074.7,332.211,-288.47,0,0
182335.025,335.948,-283.872,0,0
182595.35,339.729,-279.824,0,0
182855.675,343.456,-275.682,0,0
183116.0,347.253,-271.272,0,0
183376.325,351.496,-266.529,0,0
183636.65,356.306,-261.672,0,0
183896.975,361.626,-257.095,0,0
184157.3,367.118,-252.532,0,0
184417.625,372.884,-247.876,0,0
184677.95,379.328,-243.032,0,0
184938.275,386.633,-238.434,0,0
185198.6,394.444,-234.466,0,0
185458.925,402.408,-231.05,0,0
185719.25,410.616,-228.054,0,0
185979.575,418.969,-225.575,0,0
186239.9,427.426,-223.494,0,0
186500,435.796,-222.004,0,0
186761,443.831,-221.086,0,0
187021,451.136,-219.847,0,0
187281,458.562,-217.906,0,0
187542,466.858,-215.767,0,0
187802,475.951,-214.133,0,0
188062,485.169,-213.306,0,0
188322,494.288,-213.054,0,0
188583,503.137,-213.145,0,0
188843,511.78,-213.491,0,0
189103,520.071,-214.017,0,0
189364,528.133,-214.327,0,0
189624,536.203,-214.461,0,0
189884,544.186,-214.071,0,0
190145,552.848,-213.221,0,0
190405,562.304,-212.656,0,0
190665,571.985,-212.621,0,0
190926,581.518,-212.563,0,0
191186,591.513,-211.998,0,0
191446,602.742,-211.446,0,0
191707,614.834,-211.75,0,0
191967,627.238,-212.759,0,0
192227,640.025,-214.261,0,0
192488,653.405,-216.308,0,0
192748,667.297,-219.275,0,0
193008,681.552,-223.068,0,0
193269,696.307,-227.881,0,0
193529,711.339,-234.184,0,0
193789,725.977,-242.06,0,0
194050,739.83,-251.123,0,0
194310,752.787,-260.849,0,0
194570,765.2,-271.015,0,0
194831,777.18,-281.782,0,0
195091,788.768,-293.123,0,0
195351,799.766,-305.209,0,0
195612,810.132,-317.832,0,0
195872,819.781,-330.958,0,0
196132,828.53,-344.611,0,0
196393,836.407,-358.206,0,0
196653,843.695,-371.698,0,0
196913,850.658,-385.074,0,0
197174,857.537,-398.495,0,0
197434,864.28,-412.287,0,0
197694,870.897,-426.457,0,0
197955,877.355,-441.115,0,0
198215,883.727,-456.745,0,0
198475,889.27,-473.648,0,0
198735,893.179,-491.293,0,0
198996,895.393,-508.925,0,0
199256,896.541,-525.809,0,0
199516,897.161,-542.116,0,0
199777,897.805,-558.13,0,0
200037,898.356,-574.275,0,0
200297,898.599,-591.201,0,0
200558,897.89,-608.764,0,0
200818,895.827,-626.682,0,0
201078,892.737,-644.441,0,0
201339,888.547,-662.062,0,0
201599,883.143,-679.548,0,0
201859,876.514,-696.422,0,0
202120,868.843,-712.43,0,0
202380.025,860.722,-727.826,0,0
202640.35,852.005,-742.576,0,0
202900.675,842.372,-757.104,0,0
203161.0,831.605,-770.789,0,0
203421.325,820.087,-783.246,0,0
203681.65,808.088,-794.125,0,0
203941.975,796.278,-803.527,0,0
204202.3,785.172,-812.489,0,0
204462.625,774.235,-820.853,0,0
204722.95,763.571,-828.573,0,0
204983.275,753.192,-836.637,0,0
205243.6,742.411,-844.959,0,0
205503.925,730.379,-852.989,0,0
205764.25,717.405,-859.539,0,0
206024.575,704.408,-864.45,0,0
206284.9,692.238,-868.396,0,0
206545.225,680.435,-871.879,0,0
206805.55,668.673,-874.614,0,0
207065.875,657.518,-876.368,0,0
207326.2,646.989,-877.607,0,0
207586.525,637.214,-878.532,0,0
207846.85,628.057,-879.334,0,0
208107.175,619.344,-879.964,0,0
208367.5,611.238,-880.626,0,0
208627.825,603.62,-881.29,0,0
208888.15,596.505,-882.066,0,0
209148.475,589.832,-883.441,0,0
209408.8,583.309,-885.369,0,0
209669.125,576.161,-887.971,0,0
209929.45,568.16,-890.793,0,0
210189.775,559.485,-893.049,0,0
210450.1,550.687,-894.574,0,0
210710.425,541.813,-895.839,0,0
210970.75,532.796,-896.811,0,0
211231.075,523.489,-897.349,0,0
211491.4,513.95,-897.099,0,0
211751.725,504.56,-895.938,0,0
212012.05,495.694,-894.062,0,0
212272.375,487.741,-891.614,0,0
212532.7,480.292,-889.243,0,0
212793.025,473.276,-886.943,0,0
213053.35,466.319,-884.719,0,0
213313.675,459.477,-882.355,0,0
213574.0,452.81,-879.716,0,0
213834.325,446.408,-876.72,0,0
214094.65,440.419,-873.696,0,0
214354.975,434.69,-870.504,0,0
214615.3,429.271,-867.218,0,0
214875.625,424.406,-863.924,0,0
215135.95,419.699,-860.889,0,0
215396.275,415.18,-857.86,0,0
215656.6,410.528,-854.811,0,0
215916.925,406.154,-851.53,0,0
216177.25,402.158,-848.192,0,0
216437.575,398.295,-844.95,0,0
216697.9,394.716,-841.756,0,0
216958.225,391.213,-838.414,0,0
217218.55,387.956,-835.099,0,0
217478.875,384.935,-831.771,0,0
217739.2,382.25,-828.452,0,0
217999.525,379.8,-825.256,0,0
218259.85,377.501,-822.238,0,0
218520,375.283,-819.289,0,0
218780,373.286,-816.307,0,0
219041,371.496,-813.435,0,0
219301,369.849,-810.732,0,0
219561,368.341,-808.079,0,0
219822,366.998,-805.617,0,0
220082,365.792,-803.254,0,0
220342,364.62,-801.03,0,0
220603,363.482,-799.018,0,0
220863,362.203,-796.959,0,0
221123,361.168,-794.85,0,0
221384,360.235,-792.749,0,0
221644,359.486,-790.697,0,0
221904,359.01,-788.8,0,0
222165,358.72,-787.119,0,0
222425,358.58,-785.593,0,0
222685,358.493,-784.495,0,0
222946,358.438,-783.497,0,0
223206,358.295,-782.81,0,0
223466,358.046,-782.36,0,0
223727,357.701,-782.11,0,0
223987,357.163,-781.848,0,0
224247,356.577,-781.663,0,0
224508,355.977,-781.557,0,0
224768,355.28,-781.509,0,0
225028,354.167,-781.62,0,0
225289,353.094,-781.5,0,0
225549,352.026,-781.125,0,0
225809,351.169,-780.717,0,0
226070,350.462,-780.322,0,0
226330,349.882,-779.96,0,0
226590,349.359,-779.832,0,0
226851,348.891,-779.713,0,0
227111,348.585,-779.755,0,0
227371,348.411,-780.017,0,0
227632,348.201,-780.497,0,0
227892,348,-781.192,0,0
228152,347.806,-782.092,0,0
228413,347.493,-783.351,0,0
228673,347.042,-784.925,0,0
228933,346.371,-786.668,0,0
229193,345.367,-788.649,0,0
229454,343.996,-790.862,0,0
229714,342.272,-792.878,0,0
229974,340.322,-794.978,0,0
230235,337.974,-796.867,0,0
230495,335.493,-798.784,0,0
230755,332.67,-800.511,0,0
231016,329.803,-802.147,0,0
231276,326.708,-803.535,0,0
231536,323.463,-804.719,0,0
231797,320.255,-805.658,0,0
232057,317.018,-806.516,0,0
232317,313.727,-807.371,0,0
232578,310.308,-808.05,0,0
232838,306.862,-808.555,0,0
233098,303.384,-808.912,0,0
233359,299.951,-809.169,0,0
233619,296.428,-809.264,0,0
233879,292.932,-809.303,0,0
234140,289.48,-809.152,0,0
234400,286.084,-808.987,0,0
234660.3,282.63,-808.672,0,0
234920.625,279.253,-808.332,0,0
235180.95,275.903,-807.857,0,0
235441.275,272.613,-807.346,0,0
235701.6,269.235,-806.842,0,0
235961.925,265.914,-806.228,0,0
236222.25,262.568,-805.541,0,0
236482.575,259.216,-804.782,0,0
236742.9,255.928,-804.032,0,0
237003.225,252.547,-803.156,0,0
237263.55,249.1,-802.212,0,0
237523.875,245.703,-801.083,0,0
237784.2,242.345,-799.843,0,0
238044.525,239.031,-798.516,0,0
238304.85,235.841,-797.044,0,0
238565.175,232.646,-795.499,0,0
238825.5,229.574,-793.93,0,0
239085.825,226.484,-792.343,0,0
239346.15,223.504,-790.591,0,0
239606.475,220.527,-788.775,0,0
239866.8,217.693,-786.781,0,0
240127.125,214.975,-784.819,0,0
240387.45,212.315,-782.782,0,0
240647.775,209.801,-780.715,0,0
240908.1,207.451,-778.692,0,0
241168.425,205.143,-776.678,0,0
241428.75,202.978,-774.694,0,0
241689.075,200.738,-772.713,0,0
241949.4,198.536,-770.767,0,0
242209.725,196.457,-768.698,0,0
242470.05,194.449,-766.568,0,0
242730.375,192.612,-764.516,0,0
242990.7,190.911,-762.55,0,0
243251.025,189.281,-760.722,0,0
243511.35,187.599,-758.997,0,0
243771.675,185.881,-757.358,0,0
244032.0,184.103,-755.768,0,0
244292.325,182.328,-754.056,0,0
244552.65,180.577,-752.425,0,0
244812.975,178.853,-750.794,0,0
245073.3,177.11,-749.35,0,0
245333.625,175.359,-747.802,0,0
245593.95,173.564,-746.441,0,0
245854.275,171.65,-745.051,0,0
246114.6,169.62,-743.732,0,0
246374.925,167.495,-742.44,0,0
246635.25,165.142,-741.093,0,0
246895.575,162.661,-739.604,0,0
247155.9,159.959,-737.937,0,0
247416.225,157.34,-735.96,0,0
247676.55,154.703,-733.764,0,0
247936.875,152.182,-731.443,0,0
248197.2,149.749,-728.938,0,0
248457.525,147.429,-726.344,0,0
248717.85,145.219,-723.757,0,0
248978.175,143.041,-721.027,0,0
249238.5,140.92,-718.175,0,0
249498.825,138.944,-715.342,0,0
249759.15,137.07,-712.425,0,0
250019.475,135.295,-709.384,0,0
250279.8,133.577,-706.357,0,0
250540,131.857,-703.284,0,0
250800,130.262,-700.039,0,0
251061,128.776,-696.753,0,0
251321,127.458,-693.377,0,0
251581,126.37,-689.969,0,0
251842,125.399,-686.533,0,0
252102,124.564,-683.148,0,0
252362,123.915,-679.791,0,0
252623,123.339,-676.503,0,0
252883,122.897,-673.295,0,0
253143,122.515,-670.151,0,0
253404,122.149,-667.03,0,0
253664,121.866,-663.945,0,0
253924,121.624,-660.909,0,0
254185,121.402,-657.865,0,0
254445,121.274,-654.756,0,0
254705,121.165,-651.708,0,0
254966,121.121,-648.702,0,0
255226,121.151,-645.536,0,0
255486,121.291,-642.388,0,0
255747,121.564,-639.205,0,0
256007,122.009,-636.021,0,0
256267,122.61,-632.868,0,0
256528,123.357,-629.845,0,0
256788,124.237,-626.954,0,0
257048,125.19,-624.173,0,0
257309,126.203,-621.449,0,0
257569,127.264,-618.842,0,0
257829,128.288,-616.277,0,0
258090,129.438,-613.832,0,0
258350,130.611,-611.399,0,0
258610,131.846,-609.042,0,0
258871,133.112,-606.721,0,0
259131,134.464,-604.455,0,0
259391,135.866,-602.206,0,0
259651,137.38,-600.05,0,0
259912,139.009,-597.966,0,0
260172,140.729,-596.046,0,0
260432,142.48,-594.224,0,0
260693,144.271,-592.499,0,0
260953,146.083,-590.941,0,0
261213,147.936,-589.476,0,0
261474,149.793,-588.133,0,0
261734,151.733,-586.916,0,0
261994,153.608,-585.847,0,0
262255,155.479,-584.889,0,0
262515,157.316,-584.017,0,0
262775,159.144,-583.287,0,0
263036,160.938,-582.627,0,0
263296,162.719,-582.029,0,0
263556,164.492,-581.543,0,0
263817,166.289,-581.183,0,0
264077,168.036,-580.972,0,0
264337,169.746,-580.885,0,0
264598,171.341,-580.959,0,0
264858,172.9,-581.145,0,0
265118,174.237,-581.375,0,0
265379,175.464,-581.789,0,0
265639,176.537,-582.207,0,0
265899,177.472,-582.59,0,0
266160,178.159,-582.919,0,0
266420,178.84,-583.157,0,0
266680.25,179.52,-583.318,0,0
266940.575,180.221,-583.44,0,0
267200.9,180.936,-583.608,0,0
267461.225,181.621,-583.846,0,0
267721.55,182.266,-584.122,0,0
267981.875,182.828,-584.467,0,0
268242.2,183.24,-584.833,0,0
268502.525,183.536,-585.144,0,0
268762.85,183.747,-585.455,0,0
269023.175,183.8,-585.67,0,0
269283.5,183.748,-585.713,0,0
269543.825,183.731,-585.578,0,0
269804.15,183.761,-585.299,0,0
270064.475,183.872,-584.936,0,0
270324.8,183.992,-584.498,0,0
270585.125,184.22,-583.92,0,0
270845.45,184.58,-583.266,0,0
271105.775,185.118,-582.546,0,0
271366.1,185.868,-581.854,0,0
271626.425,186.727,-581.221,0,0
271886.75,187.689,-580.681,0,0
272147.075,188.724,-580.191,0,0
272407.4,189.88,-579.732,0,0
272667.725,191.153,-579.279,0,0
272928.05,192.594,-578.934,0,0
273188.375,194.171,-578.659,0,0
273448.7,195.924,-578.555,0,0
273709.025,197.849,-578.597,0,0
273969.35,199.949,-578.867,0,0
274229.675,202.174,-579.375,0,0
274490.0,204.569,-580.207,0,0
274750.325,207.012,-581.512,0,0
275010.65,209.402,-583.262,0,0
275270.975,211.68,-585.45,0,0
275531.3,213.768,-588.053,0,0
275791.625,215.537,-591.105,0,0
276051.95,216.875,-594.507,0,0
276312.275,217.74,-598.245,0,0
276572.6,218.001,-602.146,0,0
276832.925,217.648,-606.055,0,0
277093.25,216.741,-609.84,0,0
277353.575,215.356,-613.402,0,0
277613.9,213.589,-616.638,0,0
277874.225,211.538,-619.563,0,0
278134.55,209.314,-622.194,0,0
278394.875,206.929,-624.495,0,0
278655.2,204.519,-626.517,0,0
278915.525,202.061,-628.377,0,0
279175.85,199.546,-630.04,0,0
279436.175,196.939,-631.555,0,0
279696.5,194.332,-632.924,0,0
279956.825,191.622,-634.133,0,0
280217.15,188.783,-635.158,0,0
280477.475,185.964,-635.881,0,0
280737.8,183.23,-636.407,0,0
280998.125,180.564,-636.795,0,0
281258.45,177.991,-637.141,0,0
281518.775,175.467,-637.49,0,0
281779.1,172.914,-637.811,0,0
282039.425,170.207,-638.112,0,0
282299.75,167.391,-638.31,0,0
282560,164.426,-638.342,0,0
282820,161.315,-638.096,0,0
283081,158.174,-637.51,0,0
283341,155.155,-636.611,0,0
283601,152.33,-635.379,0,0
283862,149.858,-633.939,0,0
284122,147.756,-632.514,0,0
284382,145.929,-631.301,0,0
284643,144.148,-630.321,0,0
284903,142.258,-629.604,0,0
285163,140.065,-628.947,0,0
285424,137.604,-628.18,0,0
285684,134.941,-627.156,0,0
285944,132.154,-625.838,0,0
286205,129.39,-624.231,0,0
286465,126.559,-622.304,0,0
286725,123.866,-620.032,0,0
286986,121.358,-617.387,0,0
287246,119.117,-614.492,0,0
287506,117.155,-611.396,0,0
287767,115.485,-608.141,0,0
288027,114.106,-604.779,0,0
288287,112.984,-601.316,0,0
288548,112.126,-597.727,0,0
288808,111.572,-593.998,0,0
289068,111.42,-590.146,0,0
289329,111.752,-586.214,0,0
289589,112.635,-582.382,0,0
289849,114.017,-578.776,0,0
290109,115.825,-575.474,0,0
290370,117.962,-572.55,0,0
290630,120.349,-570.019,0,0
290890,123.004,-567.885,0,0
291151,125.814,-566.149,0,0
291411,128.776,-564.904,0,0
291671,131.804,-564.118,0,0
291932,134.814,-563.877,0,0
292192,137.719,-564.146,0,0
292452,140.457,-564.913,0,0
292713,142.871,-566.222,0,0
292973,144.806,-567.969,0,0
293233,146.12,-570,0,0
293494,146.76,-572.068,0,0
293754,146.854,-573.996,0,0
294014,146.488,-575.596,0,0
294275,145.796,-576.819,0,0
294535,144.997,-577.61,0,0
294795,144.213,-577.955,0,0
295056,143.612,-577.983,0,0
295316,143.333,-577.762,0,0
295576,143.433,-577.46,0,0
295837,143.941,-577.28,0,0
296097,144.815,-577.438,0,0
296357,145.912,-578.029,0,0
296618,146.97,-579.29,0,0
296878,147.682,-581.144,0,0
297138,147.796,-583.322,0,0
297399,147.282,-585.558,0,0
297659,146.239,-587.651,0,0
297919,144.8,-589.468,0,0
298180,143.067,-590.974,0,0
298440,141.226,-592.126,0,0
298700.2,139.308,-593.002,0,0
298960.525,137.388,-593.639,0,0
299220.85,135.511,-594.063,0,0
299481.175,133.717,-594.376,0,0
299741.5,131.902,-594.643,0,0
300001.825,130.065,-594.793,0,0
300262.15,128.135,-594.813,0,0
300522.475,126.202,-594.624,0,0
300782.8,124.3,-594.239,0,0
301043.125,122.453,-593.627,0,0
301303.45,120.792,-592.828,0,0
301563.775,119.35,-591.907,0,0
301824.1,118.136,-590.931,0,0
302084.425,117.188,-589.999,0,0
302344.75,116.415,-589.139,0,0
302605.075,115.8,-588.471,0,0
302865.4,115.269,-588.002,0,0
303125.725,114.727,-587.708,0,0
303386.05,114.139,-587.574,0,0
303646.375,113.46,-587.586,0,0
303906.7,112.655,-587.716,0,0
304167.025,111.693,-587.909,0,0
304427.35,110.575,-588.108,0,0
304687.675,109.297,-588.312,0,0
304948.0,107.863,-588.488,0,0
305208.325,106.25,-588.516,0,0
305468.65,104.559,-588.429,0,0
305728.975,102.814,-588.205,0,0
305989.3,101.056,-587.817,0,0
306249.625,99.2492,-587.347,0,0
306509.95,97.4528,-586.724,0,0
306770.275,95.675,-585.993,0,0
307030.6,93.9256,-585.122,0,0
307290.925,92.221,-584.14,0,0
307551.25,90.6193,-583.055,0,0
307811.575,89.0985,-581.918,0,0
308071.9,87.654,-580.727,0,0
308332.225,86.294,-579.489,0,0
308592.55,85.0173,-578.24,0,0
308852.875,83.8021,-576.975,0,0
309113.2,82.6868,-575.703,0,0
309373.525,81.6064,-574.454,0,0
309633.85,80.5654,-573.219,0,0
309894.175,79.5734,-572.006,0,0
310154.5,78.5825,-570.796,0,0
310414.825,77.5985,-569.577,0,0
310675.15,76.6491,-568.38,0,0
310935.475,75.685,-567.136,0,0
311195.8,74.7405,-565.889,0,0
311456.125,73.8189,-564.594,0,0
311716.45,72.9436,-563.29,0,0
311976.775,72.1114,-561.955,0,0
312237.1,71.3193,-560.602,0,0
312497.425,70.5708,-559.265,0,0
312757.75,69.8786,-557.906,0,0
313018.075,69.2168,-556.546,0,0
313278.4,68.618,-555.215,0,0
313538.725,68.0671,-553.907,0,0
313799.05,67.5221,-552.65,0,0
314059.375,67.0125,-551.412,0,0
314319.7,66.4708,-550.2,0,0
314580,65.9868,-548.966,0,0
314840,65.3975,-547.832,0,0
315101,64.839,-546.562,0,0
315361,64.3436,-545.272,0,0
315621,63.7885,-544.068,0,0
315882,63.2949,-542.795,0,0
316142,62.8506,-541.553,0,0
316402,62.3432,-540.252,0,0
316663,61.9421,-538.963,0,0
316923,61.6134,-537.695,0,0
317183,61.2379,-536.316,0,0
317444,60.9862,-535.099,0,0
317704,60.6824,-533.753,0,0
317964,60.4462,-532.559,0,0
318225,60.2738,-531.426,0,0
318485,60.0052,-530.086,0,0
318745,59.8607,-528.988,0,0
319006,59.6387,-527.785,0,0
319266,59.5128,-526.788,0,0
319526,59.3262,-525.604,0,0
319787,59.1998,-524.516,0,0
320047,58.9624,-523.425,0,0
320307,58.7745,-522.335,0,0
320567,58.5206,-521.324,0,0
320828,58.3043,-520.216,0,0
321088,58.1885,-519.129,0,0
321348,57.9978,-518.063,0,0
321609,57.7442,-516.904,0,0
321869,57.6361,-515.852,0,0
322129,57.4384,-514.759,0,0
322390,57.2801,-513.598,0,0
322650,57.1024,-512.541,0,0
322910,57.0044,-511.436,0,0
323171,56.7995,-510.319,0,0
323431,56.6476,-509.117,0,0
323691,56.5283,-507.939,0,0
323952,56.4341,-506.654,0,0
324212,56.3526,-505.432,0,0
324472,56.3012,-504.119,0,0
324733,56.3366,-502.765,0,0
324993,56.4397,-501.434,0,0
325253,56.6506,-500.105,0,0
325514,56.9826,-498.736,0,0
325774,57.3896,-497.428,0,0
326034,57.9193,-496.192,0,0
326295,58.4943,-495.018,0,0
326555,59.1933,-494.044,0,0
326815,59.8646,-493.041,0,0
327076,60.5656,-492.343,0,0
327336,61.2189,-491.68,0,0
327596,61.8125,-491.061,0,0
327857,62.3855,-490.578,0,0
328117,62.8715,-490.14,0,0
328377,63.3095,-489.674,0,0
328638,63.6635,-489.299,0,0
328898,64.0356,-488.837,0,0
329158,64.388,-488.391,0,0
329419,64.7451,-488.019,0,0
329679,65.0412,-487.687,0,0
329939,65.361,-487.373,0,0
330200,65.702,-487.124,0,0
330460,65.9715,-486.881,0,0
330720.15,66.2213,-486.735,0,0
330980.475,66.4041,-486.568,0,0
331240.8,66.5492,-486.453,0,0
331501.125,66.6292,-486.395,0,0
331761.45,66.6602,-486.345,0,0
332021.775,66.6093,-486.322,0,0
332282.1,66.4328,-486.378,0,0
332542.425,66.2551,-486.301,0,0
332802.75,65.9701,-486.251,0,0
333063.075,65.5607,-486.161,0,0
333323.4,65.1058,-486.023,0,0
333583.725,64.6287,-485.771,0,0
333844.05,64.0669,-485.548,0,0
334104.375,63.5093,-485.133,0,0
334364.7,62.9872,-484.631,0,0
334625.025,62.4467,-484.179,0,0
334885.35,61.8945,-483.557,0,0
335145.675,61.4365,-482.943,0,0
335406.0,61.02,-482.396,0,0
335666.325,60.581,-481.748,0,0
335926.65,60.1864,-481.034,0,0
336186.975,59.8304,-480.39,0,0
336447.3,59.4033,-479.741,0,0
336707.625,59.0877,-479.054,0,0
336967.95,58.6842,-478.324,0,0
337228.275,58.2859,-477.604,0,0
337488.6,57.9802,-476.819,0,0
337748.925,57.6678,-476.077,0,0
338009.25,57.3667,-475.233,0,0
338269.575,57.0794,-474.459,0,0
338529.9,56.7737,-473.715,0,0
338790.225,56.5196,-472.951,0,0
339050.55,56.2806,-472.118,0,0
339310.875,56.0492,-471.319,0,0
339571.2,55.8051,-470.446,0,0
339831.525,55.5792,-469.628,0,0
340091.85,55.3923,-468.713,0,0
340352.175,55.1712,-467.917,0,0
340612.5,55.0601,-467.003,0,0
340872.825,54.8898,-466.176,0,0
341133.15,54.8248,-465.311,0,0
341393.475,54.7603,-464.463,0,0
341653.8,54.6019,-463.585,0,0
341914.125,54.5608,-462.718,0,0
342174.45,54.5126,-461.91,0,0
342434.775,54.4348,-461.052,0,0
342695.1,54.4418,-460.196,0,0
342955.425,54.3938,-459.32,0,0
343215.75,54.3909,-458.488,0,0
343476.075,54.3632,-457.577,0,0
343736.4,54.4382,-456.767,0,0
343996.725,54.4439,-455.858,0,0
344257.05,54.5088,-454.974,0,0
344517.375,54.6305,-454.104,0,0
344777.7,54.7176,-453.255,0,0
345038.025,54.8057,-452.429,0,0
345298.35,54.9914,-451.568,0,0
345558.675,55.1625,-450.739,0,0
345819.0,55.3285,-449.941,0,0
346079.325,55.5506,-449.122,0,0
346339.65,55.7232,-448.344,0,0
346599.975,56.0267,-447.569,0,0
346860,56.1986,-446.829,0,0
347121,56.4831,-446.118,0,0
347381,56.719,-445.416,0,0
347641,56.9721,-444.699,0,0
347902,57.2233,-443.969,0,0
348162,57.5449,-443.327,0,0
348422,57.8058,-442.65,0,0
348683,58.1472,-441.979,0,0
348943,58.459,-441.364,0,0
349203,58.767,-440.737,0,0
349464,59.1064,-440.097,0,0
349724,59.4258,-439.605,0,0
349984,59.782,-439.033,0,0
350245,60.12,-438.507,0,0
350505,60.4147,-438.05,0,0
350765,60.7496,-437.536,0,0
351025,61.1065,-437.071,0,0
351286,61.3905,-436.66,0,0
351546,61.6921,-436.251,0,0
351806,61.9729,-435.852,0,0
352067,62.2075,-435.467,0,0
352327,62.4698,-435.105,0,0
352587,62.6708,-434.679,0,0
352848,62.862,-434.276,0,0
353108,63.057,-433.879,0,0
353368,63.2856,-433.444,0,0
353629,63.5272,-433.033,0,0
353889,63.7447,-432.576,0,0
354149,63.9625,-432.17,0,0
354410,64.1458,-431.757,0,0
354670,64.4404,-431.339,0,0
354930,64.6814,-430.952,0,0
355191,64.9587,-430.588,0,0
355451,65.1637,-430.206,0,0
355711,65.4052,-429.834,0,0
355972,65.6569,-429.414,0,0
356232,65.9332,-429.05,0,0
356492,66.226,-428.702,0,0
356753,66.5442,-428.316,0,0
357013,66.8409,-427.993,0,0
357273,67.1386,-427.706,0,0
357534,67.4934,-427.417,0,0
357794,67.833,-427.081,0,0
358054,68.1914,-426.871,0,0
358315,68.5523,-426.625,0,0
358575,68.8555,-426.463,0,0
358835,69.2488,-426.292,0,0
359096,69.5509,-426.198,0,0
359356,69.9013,-426.157,0,0
359616,70.208,-426.14,0,0
359877,70.4589,-426.163,0,0
360137,70.6727,-426.204,0,0
360397,70.8291,-426.183,0,0
360658,70.9762,-426.253,0,0
360918,71.0484,-426.287,0,0
361178,71.1667,-426.328,0,0
361438,71.2072,-426.348,0,0
361699,71.2495,-426.406,0,0
361959,71.2281,-426.484,0,0
362219,71.2243,-426.507,0,0
362480,71.1583,-426.522,0,0
362740.1,71.0911,-426.602,0,0
363000.425,70.9639,-426.563,0,0
363260.75,70.8568,-426.584,0,0
363521.075,70.6764,-426.562,0,0
363781.4,70.4999,-426.488,0,0
364041.725,70.331,-426.42,0,0
364302.05,70.1675,-426.368,0,0
364562.375,69.9598,-426.256,0,0
364822.7,69.7468,-426.162,0,0
365083.025,69.5811,-426.076,0,0
365343.35,69.3317,-425.964,0,0
365603.675,69.1056,-425.821,0,0
365864.0,68.8658,-425.67,0,0
366124.325,68.584,-425.494,0,0
366384.65,68.2994,-425.258,0,0
366644.975,68.0526,-425.006,0,0
366905.3,67.8176,-424.718,0,0
367165.625,67.6164,-424.377,0,0
367425.95,67.3688,-424.035,0,0
367686.275,67.2975,-423.708,0,0
367946.6,67.1737,-423.378,0,0
368206.925,67.0876,-423.049,0,0
368467.25,66.9871,-422.718,0,0
368727.575,66.9744,-422.455,0,0
368987.9,66.9518,-422.198,0,0
369248.225,66.937,-421.996,0,0
369508.55,66.9169,-421.819,0,0
369768.875,66.9061,-421.693,0,0
370029.2,66.8431,-421.573,0,0
370289.525,66.7849,-421.548,0,0
370549.85,66.6421,-421.471,0,0
370810.175,66.4399,-421.409,0,0
371070.5,66.2195,-421.365,0,0
371330.825,65.9643,-421.256,0,0
371591.15,65.6701,-421.184,0,0
371851.475,65.3248,-420.958,0,0
372111.8,65.0673,-420.766,0,0
372372.125,64.787,-420.479,0,0
372632.45,64.4926,-420.278,0,0
372892.775,64.2369,-420.02,0,0
373153.1,64.0122,-419.771,0,0
373413.425,63.7679,-419.521,0,0
373673.75,63.6066,-419.3,0,0
373934.075,63.3925,-419.043,0,0
374194.4,63.1546,-418.843,0,0
374454.725,62.9862,-418.642,0,0
374715.05,62.7083,-418.461,0,0
374975.375,62.467,-418.35,0,0
375235.7,62.1659,-418.169,0,0
375496.025,61.7964,-417.983,0,0
375756.35,61.4908,-417.751,0,0
376016.675,61.0981,-417.518,0,0
376277.0,60.7754,-417.282,0,0
376537.325,60.3564,-416.983,0,0
376797.65,60.0595,-416.687,0,0
377057.975,59.7887,-416.363,0,0
377318.3,59.4615,-416.127,0,0
377578.625,59.1856,-415.798,0,0
377838.95,58.889,-415.577,0,0
378099.275,58.5868,-415.31,0,0
378359.6,58.2485,-415.112,0,0
378619.925,57.8273,-414.973,0,0
378880,57.3601,-414.712,0,0
379141,56.8103,-414.532,0,0
379401,56.2161,-414.235,0,0
379661,55.5951,-413.816,0,0
379922,54.9193,-413.307,0,0
380182,54.3102,-412.663,0,0
380442,53.7873,-411.948,0,0
380703,53.4224,-411.13,0,0
380963,53.1507,-410.282,0,0
381223,53.0331,-409.506,0,0
381483,53.0266,-408.863,0,0
381744,53.0529,-408.296,0,0
382004,53.1046,-407.917,0,0
382264,53.0847,-407.518,0,0
382525,52.9664,-407.277,0,0
382785,52.855,-407.014,0,0
383045,52.5963,-406.787,0,0
383306,52.2995,-406.512,0,0
383566,51.9822,-406.226,0,0
383826,51.6134,-405.895,0,0
384087,51.2387,-405.556,0,0
384347,50.7678,-405.186,0,0
384607,50.359,-404.745,0,0
384868,49.9502,-404.296,0,0
385128,49.4874,-403.8,0,0
385388,49.0642,-403.311,0,0
385649,48.6525,-402.708,0,0
385909,48.2354,-402.165,0,0
386169,47.8465,-401.523,0,0
386430,47.4884,-400.881,0,0
386690,47.2082,-400.234,0,0
386950,46.8442,-399.559,0,0
387211,46.5591,-398.924,0,0
387471,46.2828,-398.194,0,0
387731,46.0619,-397.542,0,0
387992,45.8203,-396.847,0,0
388252,45.606,-396.123,0,0
388512,45.4103,-395.404,0,0
388773,45.2257,-394.709,0,0
389033,45.0864,-394.018,0,0
389293,45.0092,-393.273,0,0
389554,44.9541,-392.564,0,0
389814,44.8641,-391.857,0,0
390074,44.8627,-391.216,0,0
390335,44.8954,-390.571,0,0
390595,44.918,-389.976,0,0
390855,44.976,-389.432,0,0
391116,44.9986,-388.91,0,0
391376,45.0329,-388.507,0,0
391636,45.0659,-388.067,0,0
391896,45.0331,-387.695,0,0
392157,44.9347,-387.357,0,0
392417,44.7555,-386.978,0,0
392677,44.5254,-386.68,0,0
392938,44.2729,-386.245,0,0
393198,43.9693,-385.83,0,0
393458,43.6477,-385.356,0,0
393719,43.3449,-384.845,0,0
393979,42.9834,-384.296,0,0
394239,42.6279,-383.702,0,0
394500,42.2749,-383.049,0,0
394760.05,41.9763,-382.368,0,0
395020.375,41.6656,-381.61,0,0
395280.7,41.4207,-380.87,0,0
395541.025,41.1847,-380.081,0,0
395801.35,40.9752,-379.253,0,0
396061.675,40.8174,-378.418,0,0
396322.0,40.6957,-377.61,0,0
396582.325,40.5894,-376.779,0,0
396842.65,40.5457,-375.925,0,0
397102.975,40.5317,-375.144,0,0
397363.3,40.5143,-374.318,0,0
397623.625,40.5378,-373.508,0,0
397883.95,40.581,-372.739,0,0
398144.275,40.6639,-371.953,0,0
398404.6,40.7305,-371.182,0,0
398664.925,40.8265,-370.435,0,0
398925.25,40.9651,-369.726,0,0
399185.575,41.0385,-368.997,0,0
399445.9,41.1726,-368.281,0,0
399706.225,41.3388,-367.559,0,0
399966.55,41.4683,-366.894,0,0
400006.6,41.4924,-366.795,0,0