File: Accelerated corrosion test data/2025-10-10_06-00-03/sample_7.csv
Frequency (Hz),Impedance (ohms),Phase (Radians),Temperature (C),Humidity (%)
10000.0,274.838,-12096.3,0,0
10260.325,269.929,-11804.7,0,0
10520.65,259.119,-11506.8,0,0
10780.975,254.258,-11225.1,0,0
11041.3,251.197,-10957.5,0,0
11301.625,248.717,-10701.4,0,0
11561.95,252.061,-10452.1,0,0
11822.275,261.023,-10221.9,0,0
12082.6,272.563,-9992.62,0,0
12342.925,315.126,-9850.49,0,0
12603.25,259.135,-9643.23,0,0
12863.575,264.999,-9471.45,0,0
13123.9,237.468,-9277.88,0,0
13384.225,227.758,-9103.85,0,0
13644.55,225.634,-8928.2,0,0
13904.875,211.403,-8754.35,0,0
14165.2,215.314,-8581.87,0,0
14425.525,205.419,-8442.35,0,0
14685.8,203.043,-8295.87,0,0
14946.175,199.376,-8147.57,0,0
15206.5,195.016,-8018.36,0,0
15466.825,188.641,-7874.95,0,0
15727.15,183.101,-7747.27,0,0
15987.5,180.816,-7616.46,0,0
16247.8,177.898,-7499.16,0,0
16508.125,172.598,-7376.42,0,0
16768.45,172.634,-7257.97,0,0
17028.775,171.105,-7148.1,0,0
17289.1,166.941,-7038.66,0,0
17549.425,166.264,-6929.28,0,0
17809.75,172.248,-6821.91,0,0
18070.075,170.533,-6722.99,0,0
18330.4,183.747,-6617.69,0,0
18590.725,203.081,-6538.43,0,0
18851.05,194.838,-6462.73,0,0
19111.375,181.911,-6375.63,0,0
19371.7,201.515,-6316.9,0,0
19632.025,167.202,-6236.53,0,0
19892.35,159.62,-6135.88,0,0
20152.675,170.137,-6058.26,0,0
20413.0,168.571,-5986.96,0,0
20673.3,171.791,-5905.42,0,0
20933.65,179.55,-5849.28,0,0
21193.975,161.713,-5783.33,0,0
21454.3,153.556,-5708.16,0,0
21714.625,156.223,-5644.43,0,0
21974.9,146.435,-5579.11,0,0
22235.275,142.396,-5510.47,0,0
22495.6,139.488,-5448.46,0,0
22755.925,134.275,-5384.19,0,0
23016.25,131.069,-5320.07,0,0
23276.6,129.56,-5257.33,0,0
23536.9,130.731,-5197.98,0,0
23797.225,128.485,-5142.58,0,0
24057.55,124.973,-5084.96,0,0
24317.875,123.807,-5027.13,0,0
24578.2,124.562,-4973.32,0,0
24838.525,123.23,-4919.33,0,0
25098.85,121.284,-4867.52,0,0
25359.175,120.651,-4815.57,0,0
25619.5,119.267,-4763.05,0,0
25879.8,119.474,-4713.19,0,0
26140.1,120.642,-4661.11,0,0
26400.5,125.092,-4615.68,0,0
26660.8,122.113,-4567.88,0,0
26921.1,124.321,-4517.9,0,0
27181.4,130.362,-4470.88,0,0
27441.8,133.518,-4423.58,0,0
27702.1,145.205,-4378.32,0,0
27962.4,162.764,-4335.98,0,0
28222.7,181.038,-4315.32,0,0
28483.1,182.659,-4293.79,0,0
28743.4,175.661,-4277.84,0,0
29003.7,160.224,-4249.68,0,0
29264,144.377,-4212.26,0,0
29524.4,137.375,-4171.57,0,0
29784.7,129.968,-4133.23,0,0
30045,130.694,-4090.35,0,0
30305.3,133.335,-4055.6,0,0
30565.7,133.021,-4021.64,0,0
30826,134.32,-3988.48,0,0
31086.3,136.427,-3960.87,0,0
31346.6,133.802,-3931.69,0,0
31607,129.969,-3907.85,0,0
31867.3,122.174,-3875.71,0,0
32127.6,118.426,-3843.94,0,0
32387.9,115.045,-3813.23,0,0
32648.3,110.988,-3782.6,0,0
32908.6,108.337,-3752.43,0,0
33168.9,104.976,-3722.51,0,0
33429.2,102.024,-3692.61,0,0
33689.6,99.6647,-3662.65,0,0
33949.9,98.1936,-3633.57,0,0
34210.2,95.953,-3604.7,0,0
34470.5,94.4294,-3576.09,0,0
34730.9,92.923,-3548.11,0,0
34991.2,92.0772,-3520.44,0,0
35251.5,90.8625,-3493.32,0,0
35511.8,89.9842,-3466.22,0,0
35772.2,89.5603,-3440.09,0,0
36032.5,89.2895,-3414.04,0,0
36292.8,88.558,-3389.07,0,0
36553.1,87.5171,-3363.93,0,0
36813.5,87.2076,-3339.15,0,0
37073.8,86.8737,-3314.18,0,0
37334.1,86.5704,-3290.58,0,0
37594.4,86.3722,-3266.73,0,0
37854.8,85.8063,-3243.42,0,0
38115.1,85.8163,-3219.39,0,0
38375.4,86.0707,-3196.34,0,0
38635.7,87.0851,-3173.38,0,0
38896.1,88.8643,-3151.09,0,0
39156.4,90.2169,-3129.47,0,0
39416.7,93.3563,-3108.12,0,0
39677,96.7907,-3090.16,0,0
39937.4,97.8159,-3073.14,0,0
40197.7,98.2385,-3057.28,0,0
40458,95.537,-3041.04,0,0
40718.3,92.9769,-3023.39,0,0
40978.7,89.915,-3004.72,0,0
41239,87.1366,-2985.42,0,0
41499.3,85.6126,-2965.88,0,0
41759.6,84.6817,-2947.47,0,0
42020,82.5193,-2928.57,0,0
42280.275,81.1046,-2908.91,0,0
42540.6,81.0389,-2889.53,0,0
42800.925,80.9396,-2871.55,0,0
43061.25,81.037,-2853.32,0,0
43321.575,81.2666,-2836.96,0,0
43581.9,79.7492,-2819.11,0,0
43842.225,79.8638,-2800.6,0,0
44102.55,81.5937,-2782.98,0,0
44362.875,82.5188,-2768.32,0,0
44623.2,82.6982,-2752.81,0,0
44883.525,81.5603,-2738.49,0,0
45143.85,80.8283,-2722.95,0,0
45404.175,79.2524,-2707.03,0,0
45664.5,80.8093,-2690.29,0,0
45924.825,81.5844,-2677.53,0,0
46185.15,80.3558,-2664.67,0,0
46445.475,77.7135,-2650.91,0,0
46705.8,75.0069,-2636.12,0,0
46966.125,73.0124,-2620.11,0,0
47226.45,72.0729,-2604.3,0,0
47486.775,71.8029,-2589.19,0,0
47747.1,71.3261,-2574.44,0,0
48007.425,70.9776,-2560.04,0,0
48267.75,70.5213,-2546.08,0,0
48528.075,69.7132,-2532.01,0,0
48788.4,69.0705,-2517.9,0,0
49048.725,68.6381,-2503.99,0,0
49309.05,68.1996,-2490.35,0,0
49569.375,67.7255,-2476.63,0,0
49829.7,67.284,-2463.41,0,0
50090.025,66.9391,-2449.91,0,0
50350.35,66.6546,-2436.99,0,0
50610.675,66.2376,-2424.04,0,0
50871.0,65.8563,-2411.07,0,0
51131.325,65.6009,-2398.48,0,0
51391.65,65.1781,-2385.8,0,0
51651.975,64.9195,-2373.31,0,0
51912.3,64.6433,-2360.87,0,0
52172.625,64.4872,-2348.59,0,0
52432.95,64.296,-2336.63,0,0
52693.275,64.1425,-2324.51,0,0
52953.6,64.2105,-2312.74,0,0
53213.925,64.114,-2301.34,0,0
53474.25,63.7233,-2289.92,0,0
53734.575,63.348,-2278.46,0,0
53994.9,62.9879,-2267.15,0,0
54255.225,62.7932,-2255.78,0,0
54515.55,62.5208,-2244.7,0,0
54775.875,62.33,-2233.65,0,0
55036.2,61.9101,-2222.59,0,0
55296.525,61.7925,-2211.9,0,0
55556.85,61.5261,-2201.05,0,0
55817.175,61.3267,-2190.37,0,0
56077.5,61.2585,-2179.57,0,0
56337.825,61.1742,-2169.26,0,0
56598.15,61.0912,-2159.06,0,0
56858.475,60.7358,-2148.72,0,0
57118.8,60.516,-2138.45,0,0
57379.125,60.2868,-2128.38,0,0
57639.45,60.1108,-2118.28,0,0
57899.775,59.958,-2108.16,0,0
58160.1,60.1062,-2098.12,0,0
58420.4,60.42,-2088.52,0,0
58680.7,60.3718,-2079.12,0,0
58941.1,60.1831,-2069.83,0,0
59201.4,60.0335,-2060.26,0,0
59461.7,60.3141,-2050.84,0,0
59722,60.4571,-2041.99,0,0
59982.4,60.4337,-2032.93,0,0
60242.7,60.428,-2024.15,0,0
60503,60.0912,-2015.63,0,0
60763.3,59.7295,-2006.91,0,0
61023.7,59.3005,-1998.2,0,0
61284,58.9297,-1989.53,0,0
61544.3,58.563,-1981.01,0,0
61804.6,57.9534,-1972.33,0,0
62065,57.5582,-1963.64,0,0
62325.3,57.2487,-1954.91,0,0
62585.6,57.0314,-1946.36,0,0
62845.9,56.6148,-1937.85,0,0
63106.3,56.4514,-1929.29,0,0
63366.6,56.4854,-1920.71,0,0
63626.9,56.4496,-1912.82,0,0
63887.2,56.2125,-1904.7,0,0
64147.6,55.8346,-1896.41,0,0
64407.9,55.6518,-1888.29,0,0
64668.2,55.5557,-1880.24,0,0
64928.5,55.4873,-1872.03,0,0
65188.9,55.596,-1864.22,0,0
65449.2,55.6955,-1856.66,0,0
65709.5,55.6256,-1849.13,0,0
65969.8,55.5021,-1841.55,0,0
66230.2,55.3792,-1834.27,0,0
66490.5,55.1244,-1827.01,0,0
66750.8,54.7553,-1819.69,0,0
67011.1,54.2041,-1812.28,0,0
67271.5,53.8422,-1804.89,0,0
67531.8,53.5908,-1797.31,0,0
67792.1,53.3124,-1790.03,0,0
68052.4,53.0316,-1782.56,0,0
68312.8,52.821,-1775.28,0,0
68573.1,52.5614,-1767.95,0,0
68833.4,52.4533,-1760.9,0,0
69093.7,52.4302,-1753.72,0,0
69354.1,52.3327,-1746.57,0,0
69614.4,52.2516,-1739.68,0,0
69874.7,52.2098,-1732.7,0,0
70135,52.2162,-1725.79,0,0
70395.4,52.1158,-1719.01,0,0
70655.7,52.1617,-1712.19,0,0
70916,52.1354,-1705.68,0,0
71176.3,52.0819,-1699.23,0,0
71436.7,51.8072,-1692.83,0,0
71697,51.4862,-1686.24,0,0
71957.3,51.2688,-1679.86,0,0
72217.6,51.0868,-1673.29,0,0
72478,50.8865,-1666.83,0,0
72738.3,50.6808,-1660.4,0,0
72998.6,50.3909,-1653.96,0,0
73258.9,50.3008,-1647.57,0,0
73519.3,50.1501,-1641.28,0,0
73779.6,50.0623,-1634.99,0,0
74039.9,49.8565,-1628.7,0,0
74300.225,49.8389,-1622.5,0,0
74560.55,49.6887,-1616.31,0,0
74820.875,49.5389,-1610.23,0,0
75081.2,49.5121,-1604.18,0,0
75341.525,49.3199,-1598.14,0,0
75601.85,49.2562,-1592.15,0,0
75862.175,49.1292,-1586.15,0,0
76122.5,49.0122,-1580.31,0,0
76382.825,48.9168,-1574.3,0,0
76643.15,48.8872,-1568.49,0,0
76903.475,48.8628,-1562.65,0,0
77163.8,48.7568,-1556.9,0,0
77424.125,48.7277,-1551.14,0,0
77684.45,48.7032,-1545.42,0,0
77944.775,48.5927,-1539.81,0,0
78205.1,48.4586,-1534.16,0,0
78465.425,48.3892,-1528.51,0,0
78725.75,48.4394,-1523.01,0,0
78986.075,48.3681,-1517.5,0,0
79246.4,48.3037,-1512.02,0,0
79506.725,48.265,-1506.45,0,0
79767.05,48.2216,-1501.13,0,0
80027.375,48.1917,-1495.75,0,0
80287.7,48.1752,-1490.4,0,0
80548.025,48.06,-1485.13,0,0
80808.35,47.9582,-1479.9,0,0
81068.675,47.8624,-1474.53,0,0
81329.0,47.8648,-1469.24,0,0
81589.325,47.8351,-1464,0,0
81849.65,47.8339,-1458.84,0,0
82109.975,47.706,-1453.69,0,0
82370.3,47.7931,-1448.54,0,0
82630.625,47.6917,-1443.47,0,0
82890.95,47.6911,-1438.47,0,0
83151.275,47.6133,-1433.31,0,0
83411.6,47.5904,-1428.23,0,0
83671.925,47.6033,-1423.15,0,0
83932.25,47.6007,-1418.2,0,0
84192.575,47.7253,-1413.24,0,0
84452.9,47.7123,-1408.31,0,0
84713.225,47.7801,-1403.53,0,0
84973.55,47.8396,-1398.68,0,0
85233.875,47.8807,-1393.86,0,0
85494.2,47.8413,-1389.15,0,0
85754.525,47.8137,-1384.43,0,0
86014.85,47.7954,-1379.6,0,0
86275.175,47.9488,-1374.93,0,0
86535.5,47.9668,-1370.35,0,0
86795.825,47.8706,-1365.72,0,0
87056.15,47.9503,-1360.92,0,0
87316.475,48.0213,-1356.43,0,0
87576.8,48.1049,-1351.92,0,0
87837.125,48.0244,-1347.43,0,0
88097.45,48.0205,-1342.92,0,0
88357.775,48.0035,-1338.54,0,0
88618.1,47.9441,-1334.01,0,0
88878.425,47.8852,-1329.58,0,0
89138.75,47.8868,-1325.05,0,0
89399.075,47.8046,-1320.63,0,0
89659.4,47.8415,-1316.12,0,0
89919.725,47.723,-1311.66,0,0
90180,47.8854,-1307.12,0,0
90440.4,48.0239,-1302.72,0,0
90700.7,48.1841,-1298.45,0,0
90961,48.1357,-1294.08,0,0
91221.3,48.2124,-1289.77,0,0
91481.7,48.2679,-1285.4,0,0
91742,48.4182,-1281.2,0,0
92002.3,48.5873,-1276.8,0,0
92262.6,48.8083,-1272.64,0,0
92523,48.88,-1268.69,0,0
92783.3,48.8635,-1264.41,0,0
93043.6,48.9315,-1260.15,0,0
93303.9,49.1082,-1255.88,0,0
93564.3,49.3056,-1251.67,0,0
93824.6,49.7553,-1247.44,0,0
94084.9,50.3036,-1243.56,0,0
94345.2,50.6015,-1239.85,0,0
94605.6,50.7934,-1236.12,0,0
94865.9,51.1183,-1232.3,0,0
95126.2,51.3846,-1228.88,0,0
95386.5,51.2425,-1225.5,0,0
95646.9,50.9223,-1221.78,0,0
95907.2,50.6398,-1217.93,0,0
96167.5,50.5922,-1214.07,0,0
96427.8,50.3836,-1210.23,0,0
96688.2,50.2898,-1206.26,0,0
96948.5,50.2187,-1202.35,0,0
97208.8,50.1065,-1198.48,0,0
97469.1,50.0579,-1194.34,0,0
97729.5,50.3182,-1190.3,0,0
97989.8,50.5043,-1186.46,0,0
98250.1,50.8108,-1182.63,0,0
98510.4,51.0931,-1179.12,0,0
98770.8,51.0415,-1175.63,0,0
99031.1,50.9306,-1171.97,0,0
99291.4,50.7655,-1168.25,0,0
99551.7,50.5588,-1164.26,0,0
99812.1,50.7164,-1160.18,0,0
100072,50.9921,-1156.23,0,0
100333,51.4411,-1152.55,0,0
100593,51.5136,-1148.9,0,0
100853,51.7441,-1144.98,0,0
101114,52.1846,-1141.31,0,0
101374,52.5048,-1137.8,0,0
101634,52.6877,-1134.16,0,0
101895,52.9407,-1130.49,0,0
102155,53.2924,-1126.79,0,0
102415,53.7214,-1123.21,0,0
102676,54.0892,-1119.64,0,0
102936,54.6914,-1116,0,0
103196,55.4617,-1112.69,0,0
103457,56.0538,-1109.53,0,0
103717,56.6138,-1106.6,0,0
103977,56.6895,-1103.77,0,0
104238,56.7464,-1100.54,0,0
104498,56.9878,-1097.31,0,0
104758,57.3899,-1094.31,0,0
105019,57.4603,-1091.4,0,0
105279,57.4217,-1088.36,0,0
105539,57.3047,-1085.1,0,0
105800,57.3136,-1082,0,0
106060,57.1392,-1078.7,0,0
106320.175,57.1356,-1075.16,0,0
106580.5,57.387,-1071.69,0,0
106840.825,57.7984,-1068.34,0,0
107101.15,58.1631,-1065.31,0,0
107361.475,58.1884,-1062.31,0,0
107621.8,58.1994,-1059.01,0,0
107882.125,58.4053,-1055.68,0,0
108142.45,58.5663,-1052.5,0,0
108402.775,58.8016,-1049.24,0,0
108663.1,58.9851,-1046.11,0,0
108923.425,59.1862,-1042.92,0,0
109183.75,59.3683,-1039.79,0,0
109444.075,59.3763,-1036.7,0,0
109704.4,59.4034,-1033.3,0,0
109964.725,59.4347,-1029.87,0,0
110225.05,59.5921,-1026.22,0,0
110485.375,59.9951,-1022.57,0,0
110745.7,60.7864,-1018.98,0,0
111006.025,61.618,-1015.73,0,0
111266.35,62.2206,-1012.57,0,0
111526.675,62.7393,-1009.41,0,0
111787.0,63.2946,-1006.03,0,0
112047.325,64.0824,-1002.87,0,0
112307.65,64.9398,-999.526,0,0
112567.975,65.8623,-996.365,0,0
112828.3,66.8994,-993.323,0,0
113088.625,68.0018,-990.432,0,0
113348.95,68.9627,-987.741,0,0
113609.275,69.8498,-984.955,0,0
113869.6,70.8298,-982.188,0,0
114129.925,71.7928,-979.351,0,0
114390.25,72.8687,-976.737,0,0
114650.575,73.7826,-974.133,0,0
114910.9,74.9256,-971.354,0,0
115171.225,76.1671,-968.761,0,0
115431.55,77.5147,-966.151,0,0
115691.875,79.1371,-963.746,0,0
115952.2,80.7601,-961.755,0,0
116212.525,82.337,-959.862,0,0
116472.85,84.0272,-958.365,0,0
116733.175,85.333,-957.29,0,0
116993.5,86.1733,-956.132,0,0
117253.825,87.1756,-954.822,0,0
117514.15,87.9583,-953.858,0,0
117774.475,88.4243,-952.74,0,0
118034.8,88.9922,-951.364,0,0
118295.125,89.8964,-950.083,0,0
118555.45,90.8414,-949.296,0,0
118815.775,91.4682,-948.858,0,0
119076.1,91.8238,-948.585,0,0
119336.425,91.9327,-948.365,0,0
119596.75,91.7458,-948.499,0,0
119857.075,90.9336,-948.691,0,0
120117.4,89.6846,-948.487,0,0
120377.725,88.0523,-948.378,0,0
120638.05,85.8316,-947.669,0,0
120898.375,83.6071,-946.461,0,0
121158.7,81.1519,-944.658,0,0
121419.025,79.1913,-942.156,0,0
121679.35,77.8505,-939.85,0,0
121939.675,76.312,-937.75,0,0
122200.0,74.7782,-935.37,0,0
122460,73.2666,-933.049,0,0
122721,71.6576,-930.497,0,0
122981,70.2128,-927.694,0,0
123241,68.9479,-924.764,0,0
123502,67.8,-921.833,0,0
123762,66.8945,-918.771,0,0
124022,66.1632,-915.832,0,0
124283,65.5641,-913.059,0,0
124543,64.9027,-910.293,0,0
124803,64.3069,-907.724,0,0
125064,63.4675,-905.247,0,0
125324,62.4781,-902.582,0,0
125584,61.5448,-899.613,0,0
125845,60.8302,-896.679,0,0
126105,60.1131,-893.817,0,0
126365,59.3801,-890.904,0,0
126626,58.7404,-887.769,0,0
126886,58.2198,-884.839,0,0
127146,57.6331,-881.833,0,0
127406,57.2722,-878.513,0,0
127667,57.0732,-875.63,0,0
127927,56.8245,-872.739,0,0
128187,56.4827,-869.945,0,0
128448,56.038,-867.064,0,0
128708,55.6783,-864.176,0,0
128968,55.3166,-861.16,0,0
129229,55.1459,-858.179,0,0
129489,54.9249,-855.325,0,0
129749,54.6401,-852.432,0,0
130010,54.4668,-849.465,0,0
130270,54.3548,-846.569,0,0
130530,54.1651,-843.843,0,0
130791,53.8441,-841.043,0,0
131051,53.5077,-838.095,0,0
131311,53.2018,-835.004,0,0
131572,53.0953,-831.861,0,0
131832,53.0841,-828.849,0,0
132092,53.0003,-825.877,0,0
132353,52.9242,-822.781,0,0
132613,52.9845,-819.692,0,0
132873,53.0171,-816.611,0,0
133134,53.1028,-813.565,0,0
133394,53.1978,-810.411,0,0
133654,53.4187,-807.2,0,0
133915,53.7752,-803.932,0,0
134175,54.3662,-800.78,0,0
134435,55.0545,-797.794,0,0
134696,55.7001,-794.953,0,0
134956,56.2178,-792.141,0,0
135216,56.8902,-789.13,0,0
135477,57.7896,-786.21,0,0
135737,58.9955,-783.433,0,0
135997,60.3759,-781.162,0,0
136258,61.4454,-779.327,0,0
136518,62.3286,-777.611,0,0
136778,63.0589,-776.226,0,0
137039,63.0942,-775.059,0,0
137299,62.6687,-773.395,0,0
137559,62.2955,-771.32,0,0
137819,62.0517,-769.129,0,0
138080,61.8313,-767.037,0,0
138340.125,61.3132,-764.819,0,0
138600.45,60.8063,-762.29,0,0
138860.775,60.4226,-759.509,0,0
139121.1,60.328,-756.599,0,0
139381.425,60.4359,-753.84,0,0
139641.75,60.5839,-751.15,0,0
139902.075,60.7612,-748.539,0,0
140162.4,60.9468,-746.042,0,0
140422.725,60.9285,-743.562,0,0
140683.05,60.8652,-740.967,0,0
140943.375,60.9055,-738.263,0,0
141203.7,60.9699,-735.582,0,0
141464.025,61.0037,-732.864,0,0
141724.35,61.0961,-730.039,0,0
141984.675,61.3249,-727.176,0,0
142245.0,61.6088,-724.38,0,0
142505.325,61.9474,-721.591,0,0
142765.65,62.2879,-718.842,0,0
143025.975,62.7244,-715.99,0,0
143286.3,63.2652,-713.291,0,0
143546.625,63.874,-710.718,0,0
143806.95,64.4588,-708.287,0,0
144067.275,64.8666,-705.953,0,0
144327.6,65.1854,-703.587,0,0
144587.925,65.3914,-701.152,0,0
144848.25,65.6118,-698.58,0,0
145108.575,66.0184,-695.984,0,0
145368.9,66.3943,-693.592,0,0
145629.225,66.59,-691.264,0,0
145889.55,66.602,-688.75,0,0
146149.875,66.7047,-685.992,0,0
146410.2,67.0058,-683.228,0,0
146670.525,67.3134,-680.524,0,0
146930.85,67.6648,-677.794,0,0
147191.175,68.1047,-675.178,0,0
147451.5,68.4009,-672.616,0,0
147711.825,68.7218,-669.878,0,0
147972.15,69.1945,-667.258,0,0
148232.475,69.5682,-664.81,0,0
148492.8,69.7696,-662.38,0,0
148753.125,69.784,-659.864,0,0
149013.45,69.6635,-657.206,0,0
149273.775,69.5217,-654.248,0,0
149534.1,69.5644,-651.118,0,0
149794.425,69.7183,-647.982,0,0
150054.75,69.9343,-644.822,0,0
150315.075,70.1429,-641.632,0,0
150575.4,70.391,-638.355,0,0
150835.725,70.7008,-634.96,0,0
151096.05,71.1109,-631.492,0,0
151356.375,71.6226,-627.975,0,0
151616.7,72.2582,-624.441,0,0
151877.025,72.9939,-620.9,0,0
152137.35,73.7806,-617.333,0,0
152397.675,74.6689,-613.735,0,0
152658.0,75.6602,-610.153,0,0
152918.325,76.7398,-606.591,0,0
153178.65,77.8991,-603.06,0,0
153438.975,79.0531,-599.53,0,0
153699.3,80.2356,-595.932,0,0
153959.625,81.5617,-592.244,0,0
154219.95,83.0601,-588.573,0,0
154480,84.7033,-584.967,0,0
154741,86.3984,-581.429,0,0
155001,88.1516,-577.925,0,0
155261,89.9762,-574.38,0,0
155522,91.9216,-570.864,0,0
155782,94.0259,-567.378,0,0
156042,96.305,-563.988,0,0
156303,98.6543,-560.73,0,0
156563,101.036,-557.588,0,0
156823,103.436,-554.51,0,0
157084,105.993,-551.431,0,0
157344,108.751,-548.58,0,0
157604,111.514,-546.003,0,0
157864,114.172,-543.569,0,0
158125,116.843,-541.242,0,0
158385,119.601,-539.17,0,0
158645,122.183,-537.545,0,0
158906,124.24,-536.067,0,0
159166,125.966,-534.52,0,0
159426,127.462,-532.884,0,0
159687,128.592,-531.165,0,0
159947,129.331,-529.141,0,0
160207,129.939,-526.608,0,0
160468,130.562,-523.638,0,0
160728,131.223,-520.384,0,0
160988,131.804,-516.622,0,0
161249,132.748,-512.22,0,0
161509,134.18,-507.478,0,0
161769,136.227,-502.504,0,0
162030,138.825,-497.512,0,0
162290,141.954,-492.693,0,0
162550,145.225,-488.178,0,0
162811,148.585,-483.545,0,0
163071,152.322,-478.77,0,0
163331,156.559,-473.931,0,0
163592,161.437,-469.429,0,0
163852,166.557,-465.428,0,0
164112,171.659,-461.71,0,0
164373,176.825,-458.052,0,0
164633,182.244,-454.542,0,0
164893,187.782,-451.365,0,0
165154,193.078,-448.371,0,0
165414,198.204,-445.082,0,0
165674,203.631,-441.21,0,0
165935,209.765,-437.003,0,0
166195,216.889,-432.642,0,0
166455,225.034,-428.897,0,0
166716,233.723,-426.078,0,0
166976,242.478,-423.583,0,0
167236,251.986,-421.458,0,0
167497,261.88,-420.274,0,0
167757,271.878,-419.578,0,0
168017,282.549,-419.305,0,0
168277,293.936,-420.12,0,0
168538,305.516,-422.629,0,0
168798,316.685,-426.311,0,0
169058,327.257,-431.09,0,0
169319,337.164,-436.795,0,0
169579,346.202,-442.871,0,0
169839,354.912,-448.952,0,0
170100,363.914,-455.539,0,0
170360.075,372.976,-463.63,0,0
170620.4,380.796,-473.329,0,0
170880.725,386.802,-483.196,0,0
171141.05,392.173,-492.563,0,0
171401.375,397.477,-502.274,0,0
171661.7,402.211,-512.535,0,0
171922.025,406.668,-523.308,0,0
172182.35,410.646,-535.656,0,0
172442.675,412.318,-549.408,0,0
172703.0,411.495,-562.679,0,0
172963.325,409.413,-575.229,0,0
173223.65,406.01,-587.58,0,0
173483.975,400.635,-599.445,0,0
173744.3,393.41,-609.612,0,0
174004.625,385.664,-617.932,0,0
174264.95,377.293,-625.001,0,0
174525.275,368.295,-630.471,0,0
174785.6,358.948,-633.796,0,0
175045.925,350.755,-634.732,0,0
175306.25,344.233,-635.428,0,0
175566.575,337.42,-635.802,0,0
175826.9,331.04,-634.219,0,0
176087.225,326.66,-631.496,0,0
176347.55,323.832,-628.796,0,0
176607.875,322.381,-625.882,0,0
176868.2,322.755,-623.394,0,0
177128.525,324.712,-622.099,0,0
177388.85,327.294,-622.615,0,0
177649.175,329.791,-624.207,0,0
177909.5,332.697,-626.853,0,0
178169.825,335.983,-631.173,0,0
178430.15,338.734,-638.108,0,0
178690.475,338.976,-646.953,0,0
178950.8,336.341,-655.907,0,0
179211.125,331.602,-663.719,0,0
179471.45,325.995,-670.132,0,0
179731.775,319.68,-675.754,0,0
179992.1,312.844,-679.797,0,0
180252.425,307.052,-682.752,0,0
180512.75,301.971,-686.363,0,0
180773.075,296.371,-690.891,0,0
181033.4,289.329,-695.903,0,0
181293.725,280.07,-700.142,0,0
181554.05,269.969,-701.789,0,0
181814.375,260.784,-702.019,0,0
182074.7,251.802,-701.962,0,0
182335.025,242.541,-701.001,0,0
182595.35,233.523,-698.756,0,0
182855.675,225.034,-695.468,0,0
183116.0,217.725,-691.283,0,0
183376.325,211.53,-687.315,0,0
183636.65,205.367,-683.733,0,0
183896.975,198.984,-679.676,0,0
184157.3,193.054,-674.767,0,0
184417.625,187.993,-669.391,0,0
184677.95,184.052,-664.095,0,0
184938.275,180.528,-659.546,0,0
185198.6,176.798,-655.303,0,0
185458.925,172.999,-650.94,0,0
185719.25,169.069,-646.404,0,0
185979.575,165.202,-641.306,0,0
186239.9,161.919,-635.705,0,0
186500,159.322,-630.078,0,0
186761,157.135,-624.691,0,0
187021,155.041,-619.252,0,0
187281,153.464,-613.593,0,0
187542,152.522,-608.086,0,0
187802,152.134,-602.977,0,0
188062,152.048,-598.424,0,0
188322,152.111,-594.506,0,0
188583,151.868,-591.344,0,0
188843,150.858,-588.443,0,0
189103,149.288,-585.227,0,0
189364,147.538,-581.465,0,0
189624,145.983,-577.411,0,0
189884,144.537,-573.141,0,0
190145,143.334,-568.722,0,0
190405,142.282,-564.487,0,0
190665,140.863,-560.183,0,0
190926,139.477,-555.242,0,0
191186,138.7,-549.852,0,0
191446,138.526,-544.642,0,0
191707,138.546,-539.81,0,0
191967,138.477,-535.063,0,0
192227,138.38,-530.194,0,0
192488,138.442,-525.122,0,0
192748,138.8,-520.074,0,0
193008,139.33,-515.025,0,0
193269,140.102,-510.01,0,0
193529,141.025,-505.105,0,0
193789,141.998,-500.243,0,0
194050,143.059,-495.314,0,0
194310,144.309,-490.309,0,0
194570,145.856,-485.296,0,0
194831,147.722,-480.326,0,0
195091,149.826,-475.615,0,0
195351,152.011,-471.143,0,0
195612,154.199,-466.719,0,0
195872,156.629,-462.413,0,0
196132,159.139,-458.381,0,0
196393,161.493,-454.459,0,0
196653,163.953,-450.492,0,0
196913,166.618,-446.693,0,0
197174,169.261,-443.081,0,0
197434,171.88,-439.567,0,0
197694,174.415,-436.324,0,0
197955,176.629,-433.008,0,0
198215,178.787,-429.404,0,0
198475,181.175,-425.676,0,0
198735,183.692,-422.035,0,0
198996,186.173,-418.331,0,0
199256,188.569,-414.684,0,0
199516,190.887,-410.697,0,0
199777,193.534,-406.477,0,0
200037,196.552,-402.123,0,0
200297,199.793,-397.822,0,0
200558,203.366,-393.686,0,0
200818,206.999,-389.683,0,0
201078,210.536,-385.639,0,0
201339,214.294,-381.247,0,0
201599,218.479,-376.804,0,0
201859,223.163,-372.418,0,0
202120,228.148,-368.247,0,0
202380.025,233.457,-364.383,0,0
202640.35,238.99,-360.753,0,0
202900.675,244.485,-357.261,0,0
203161.0,250.235,-353.798,0,0
203421.325,256.273,-350.524,0,0
203681.65,262.597,-347.406,0,0
203941.975,269.219,-344.551,0,0
204202.3,275.986,-342.034,0,0
204462.625,283.07,-339.783,0,0
204722.95,290.042,-337.858,0,0
204983.275,297.164,-336.005,0,0
205243.6,304.893,-334.16,0,0
205503.925,313.205,-333.153,0,0
205764.25,321.563,-332.974,0,0
206024.575,329.709,-333.617,0,0
206284.9,337.493,-334.728,0,0
206545.225,345.079,-336.235,0,0
206805.55,352.201,-338.447,0,0
207065.875,358.477,-341.012,0,0
207326.2,363.945,-343.377,0,0
207586.525,368.795,-345.254,0,0
207846.85,373.48,-346.444,0,0
208107.175,378.359,-346.8,0,0
208367.5,383.685,-346.556,0,0
208627.825,389.845,-345.938,0,0
208888.15,397.429,-345.123,0,0
209148.475,406.129,-345.019,0,0
209408.8,415.426,-346.053,0,0
209669.125,425.13,-347.745,0,0
209929.45,435.542,-350.418,0,0
210189.775,446.507,-354.509,0,0
210450.1,457.541,-360.575,0,0
210710.425,467.503,-368.716,0,0
210970.75,475.612,-377.636,0,0
211231.075,482.639,-386.63,0,0
211491.4,488.952,-395.88,0,0
211751.725,494.518,-405.542,0,0
212012.05,498.996,-415.65,0,0
212272.375,502.226,-425.499,0,0
212532.7,505.052,-434.858,0,0
212793.025,507.63,-444.604,0,0
213053.35,508.876,-454.736,0,0
213313.675,508.809,-463.97,0,0
213574.0,508.718,-472.186,0,0
213834.325,508.805,-480.26,0,0
214094.65,508.695,-488.531,0,0
214354.975,507.839,-496.987,0,0
214615.3,506.197,-505.05,0,0
214875.625,503.972,-512.522,0,0
215135.95,501.349,-519.084,0,0
215396.275,498.982,-524.828,0,0
215656.6,497.093,-530.317,0,0
215916.925,495.668,-535.663,0,0
216177.25,494.656,-541.367,0,0
216437.575,493.754,-547.929,0,0
216697.9,492.09,-555.371,0,0
216958.225,489.113,-563.139,0,0
217218.55,484.684,-570.256,0,0
217478.875,479.743,-576.057,0,0
217739.2,475.112,-581.226,0,0
217999.525,470.441,-586.234,0,0
218259.85,465.447,-591.048,0,0
218520,460.255,-595.612,0,0
218780,454.554,-600.054,0,0
219041,448.065,-603.967,0,0
219301,441.078,-606.693,0,0
219561,434.18,-608.372,0,0
219822,427.524,-609.34,0,0
220082,420.996,-609.594,0,0
220342,414.743,-608.968,0,0
220603,409.068,-607.6,0,0
220863,404.007,-605.757,0,0
221123,399.541,-603.625,0,0
221384,395.549,-601.159,0,0
221644,392.108,-598.436,0,0
221904,389.297,-595.341,0,0
222165,387.338,-592.181,0,0
222425,386.056,-589.334,0,0
222685,385.169,-586.792,0,0
222946,384.506,-584.424,0,0
223206,384.188,-582.187,0,0
223466,384.107,-580.03,0,0
223727,384.375,-578.165,0,0
223987,384.804,-576.557,0,0
224247,385.138,-575.233,0,0
224508,385.295,-573.839,0,0
224768,385.537,-572.03,0,0
225028,386.261,-569.849,0,0
225289,387.713,-567.544,0,0
225549,389.907,-565.461,0,0
225809,392.825,-563.716,0,0
226070,396.329,-562.648,0,0
226330,400.117,-562.512,0,0
226590,403.761,-563.098,0,0
226851,407.109,-564.108,0,0
227111,410.403,-565.169,0,0
227371,413.884,-566.474,0,0
227632,417.62,-568.223,0,0
227892,421.597,-570.596,0,0
228152,425.432,-573.798,0,0
228413,429.002,-577.536,0,0
228673,432.216,-581.807,0,0
228933,435.079,-586.817,0,0
229193,437.169,-592.107,0,0
229454,438.64,-597.253,0,0
229714,439.988,-602.177,0,0
229974,441.614,-607.378,0,0
230235,443.086,-613.442,0,0
230495,443.978,-620.124,0,0
230755,443.968,-627.257,0,0
231016,442.883,-634.5,0,0
231276,440.84,-641.231,0,0
231536,438.493,-647.329,0,0
231797,436.19,-653.112,0,0
232057,433.99,-658.991,0,0
232317,431.617,-665.297,0,0
232578,428.528,-672.02,0,0
232838,424.569,-678.704,0,0
233098,419.952,-685.028,0,0
233359,414.935,-691.193,0,0
233619,409.142,-697.453,0,0
233879,402.145,-703.267,0,0
234140,394.529,-708.067,0,0
234400,386.621,-712.289,0,0
234660.3,378.089,-715.724,0,0
234920.625,368.936,-718.009,0,0
235180.95,359.609,-718.844,0,0
235441.275,350.896,-718.367,0,0
235701.6,343.081,-716.971,0,0
235961.925,336.012,-715.156,0,0
236222.25,329.788,-712.989,0,0
236482.575,324.362,-710.919,0,0
236742.9,319.412,-709.269,0,0
237003.225,314.396,-707.966,0,0
237263.55,309.056,-706.733,0,0
237523.875,303.485,-705.214,0,0
237784.2,297.793,-703.261,0,0
238044.525,292.02,-700.773,0,0
238304.85,286.167,-697.599,0,0
238565.175,280.719,-693.351,0,0
238825.5,276.13,-688.257,0,0
239085.825,272.792,-682.86,0,0
239346.15,270.701,-677.429,0,0
239606.475,269.764,-672.585,0,0
239866.8,269.576,-668.604,0,0
240127.125,269.797,-665.576,0,0
240387.45,269.953,-663.569,0,0
240647.775,269.754,-662.284,0,0
240908.1,269.02,-661.446,0,0
241168.425,267.656,-660.77,0,0
241428.75,265.89,-660.04,0,0
241689.075,263.775,-659.13,0,0
241949.4,261.375,-658.219,0,0
242209.725,258.402,-656.969,0,0
242470.05,255.173,-655.035,0,0
242730.375,252.07,-652.321,0,0
242990.7,249.56,-649.159,0,0
243251.025,247.408,-645.947,0,0
243511.35,245.35,-642.648,0,0
243771.675,243.425,-638.794,0,0
244032.0,242.128,-634.502,0,0
244292.325,241.716,-630.081,0,0
244552.65,242.161,-625.883,0,0
244812.975,243.289,-622.243,0,0
245073.3,244.699,-619.369,0,0
245333.625,246.159,-617.103,0,0
245593.95,247.559,-615.275,0,0
245854.275,248.837,-613.902,0,0
246114.6,249.858,-612.94,0,0
246374.925,250.456,-612.041,0,0
246635.25,250.909,-611.178,0,0
246895.575,251.105,-610.349,0,0
247155.9,251.167,-609.411,0,0
247416.225,251.14,-608.317,0,0
247676.55,251.169,-607.103,0,0
247936.875,251.381,-605.842,0,0
248197.2,251.649,-604.641,0,0
248457.525,251.876,-603.466,0,0
248717.85,252.181,-602.194,0,0
248978.175,252.676,-600.875,0,0
249238.5,253.282,-599.746,0,0
249498.825,254.008,-598.734,0,0
249759.15,254.733,-597.784,0,0
250019.475,255.608,-597.003,0,0
250279.8,256.402,-596.348,0,0
250540,257.143,-595.829,0,0
250800,257.896,-595.248,0,0
251061,258.766,-594.76,0,0
251321,259.655,-594.412,0,0
251581,260.66,-594.124,0,0
251842,261.776,-594.015,0,0
252102,262.929,-594.244,0,0
252362,263.938,-594.736,0,0
252623,264.798,-595.385,0,0
252883,265.589,-596.16,0,0
253143,266.258,-597.189,0,0
253404,266.702,-598.409,0,0
253664,266.905,-599.79,0,0
253924,266.802,-601.269,0,0
254185,266.346,-602.76,0,0
254445,265.565,-604.121,0,0
254705,264.535,-605.338,0,0
254966,263.447,-606.508,0,0
255226,262.055,-607.559,0,0
255486,260.554,-608.366,0,0
255747,258.894,-609.075,0,0
256007,257.144,-609.454,0,0
256267,255.369,-609.692,0,0
256528,253.57,-609.822,0,0
256788,251.723,-609.792,0,0
257048,249.756,-609.569,0,0
257309,247.7,-609.079,0,0
257569,245.718,-608.291,0,0
257829,243.882,-607.273,0,0
258090,242.179,-606.058,0,0
258350,240.673,-604.644,0,0
258610,239.446,-603.111,0,0
258871,238.429,-601.646,0,0
259131,237.579,-600.252,0,0
259391,236.739,-598.94,0,0
259651,235.841,-597.627,0,0
259912,234.92,-596.263,0,0
260172,233.902,-594.627,0,0
260432,233.085,-592.724,0,0
260693,232.461,-590.672,0,0
260953,232.078,-588.514,0,0
261213,231.975,-586.231,0,0
261474,232.171,-583.898,0,0
261734,232.706,-581.534,0,0
261994,233.63,-579.249,0,0
262255,234.908,-577.113,0,0
262515,236.546,-575.179,0,0
262775,238.496,-573.549,0,0
263036,240.696,-572.342,0,0
263296,243.074,-571.597,0,0
263556,245.441,-571.291,0,0
263817,247.732,-571.451,0,0
264077,249.855,-572.021,0,0
264337,251.582,-572.975,0,0
264598,253.037,-573.998,0,0
264858,254.206,-575.213,0,0
265118,254.941,-576.375,0,0
265379,255.407,-577.362,0,0
265639,255.845,-578.046,0,0
265899,256.339,-578.664,0,0
266160,256.936,-579.193,0,0
266420,257.691,-579.698,0,0
266680.25,258.702,-580.365,0,0
266940.575,259.741,-581.331,0,0
267200.9,260.651,-582.554,0,0
267461.225,261.367,-583.94,0,0
267721.55,261.941,-585.437,0,0
267981.875,262.331,-587.024,0,0
268242.2,262.518,-588.617,0,0
268502.525,262.492,-590.162,0,0
268762.85,262.293,-591.636,0,0
269023.175,261.969,-592.809,0,0
269283.5,261.758,-593.822,0,0
269543.825,261.683,-594.761,0,0
269804.15,261.775,-595.676,0,0
270064.475,262.008,-596.609,0,0
270324.8,262.438,-597.605,0,0
270585.125,263.012,-598.796,0,0
270845.45,263.754,-600.148,0,0
271105.775,264.589,-601.671,0,0
271366.1,265.644,-603.513,0,0
271626.425,266.959,-605.644,0,0
271886.75,268.421,-608.438,0,0
272147.075,269.945,-612.038,0,0
272407.4,271.116,-616.592,0,0
272667.725,271.473,-622.026,0,0
272928.05,270.798,-627.922,0,0
273188.375,269.172,-634.01,0,0
273448.7,266.483,-640.196,0,0
273709.025,262.77,-646.201,0,0
273969.35,257.992,-651.837,0,0
274229.675,252.383,-656.772,0,0
274490.0,246.132,-661.044,0,0
274750.325,239.446,-664.626,0,0
275010.65,232.242,-667.622,0,0
275270.975,224.492,-669.759,0,0
275531.3,216.426,-670.746,0,0
275791.625,208.431,-670.711,0,0
276051.95,200.754,-669.723,0,0
276312.275,193.464,-668.144,0,0
276572.6,186.437,-666.042,0,0
276832.925,179.627,-663.339,0,0
277093.25,173.136,-659.977,0,0
277353.575,167.13,-655.994,0,0
277613.9,161.746,-651.496,0,0
277874.225,157.086,-646.66,0,0
278134.55,153.06,-641.678,0,0
278394.875,149.697,-636.621,0,0
278655.2,146.952,-631.652,0,0
278915.525,144.66,-626.825,0,0
279175.85,142.711,-622.195,0,0
279436.175,141.086,-617.693,0,0
279696.5,139.709,-613.274,0,0
279956.825,138.611,-608.904,0,0
280217.15,137.903,-604.656,0,0
280477.475,137.527,-600.58,0,0
280737.8,137.523,-596.828,0,0
280998.125,137.723,-593.548,0,0
281258.45,137.885,-590.702,0,0
281518.775,137.891,-588.191,0,0
281779.1,137.667,-585.836,0,0
282039.425,137.223,-583.549,0,0
282299.75,136.591,-581.22,0,0
282560,135.773,-578.752,0,0
282820,134.903,-576.055,0,0
283081,134.117,-573.103,0,0
283341,133.488,-569.965,0,0
283601,133.11,-566.707,0,0
283862,132.973,-563.366,0,0
284122,133.12,-560.056,0,0
284382,133.491,-556.805,0,0
284643,134.074,-553.667,0,0
284903,134.841,-550.638,0,0
285163,135.762,-547.755,0,0
285424,136.86,-545.045,0,0
285684,138.071,-542.491,0,0
285944,139.361,-540.134,0,0
286205,140.734,-537.962,0,0
286465,142.168,-536.049,0,0
286725,143.516,-534.374,0,0
286986,144.779,-532.875,0,0
287246,145.902,-531.534,0,0
287506,146.832,-530.238,0,0
287767,147.648,-528.979,0,0
288027,148.301,-527.696,0,0
288287,148.849,-526.298,0,0
288548,149.377,-524.769,0,0
288808,149.958,-523.118,0,0
289068,150.601,-521.392,0,0
289329,151.367,-519.653,0,0
289589,152.216,-517.916,0,0
289849,153.06,-516.214,0,0
290109,153.969,-514.41,0,0
290370,154.976,-512.563,0,0
290630,156.195,-510.705,0,0
290890,157.577,-508.909,0,0
291151,159.084,-507.274,0,0
291411,160.667,-505.77,0,0
291671,162.293,-504.421,0,0
291932,163.886,-503.195,0,0
292192,165.43,-502.026,0,0
292452,166.972,-500.88,0,0
292713,168.566,-499.774,0,0
292973,170.155,-498.742,0,0
293233,171.722,-497.73,0,0
293494,173.303,-496.755,0,0
293754,174.918,-495.786,0,0
294014,176.554,-494.855,0,0
294275,178.199,-493.941,0,0
294535,179.839,-492.993,0,0
294795,181.592,-492,0,0
295056,183.469,-490.996,0,0
295316,185.489,-490.084,0,0
295576,187.599,-489.262,0,0
295837,189.78,-488.503,0,0
296097,192.041,-487.797,0,0
296357,194.443,-487.188,0,0
296618,196.976,-486.69,0,0
296878,199.62,-486.319,0,0
297138,202.376,-486.16,0,0
297399,205.191,-486.175,0,0
297659,208.056,-486.406,0,0
297919,210.91,-486.868,0,0
298180,213.691,-487.526,0,0
298440,216.419,-488.305,0,0
298700.2,219.074,-489.138,0,0
298960.525,221.83,-490.183,0,0
299220.85,224.474,-491.292,0,0
299481.175,227.164,-492.454,0,0
299741.5,230.023,-493.75,0,0
300001.825,232.72,-495.281,0,0
300262.15,235.584,-496.908,0,0
300522.475,238.454,-498.737,0,0
300782.8,241.434,-500.758,0,0
301043.125,244.429,-503.118,0,0
301303.45,247.407,-505.711,0,0
301563.775,250.516,-508.67,0,0
301824.1,253.717,-512.085,0,0
302084.425,256.809,-516.045,0,0
302344.75,259.632,-520.782,0,0
302605.075,262.072,-526.119,0,0
302865.4,263.677,-531.965,0,0
303125.725,264.562,-538.13,0,0
303386.05,264.605,-544.384,0,0
303646.375,263.845,-550.546,0,0
303906.7,262.366,-556.451,0,0
304167.025,260.334,-561.978,0,0
304427.35,257.889,-567.169,0,0
304687.675,255.081,-571.94,0,0
304948.0,252.021,-576.362,0,0
305208.325,248.788,-580.476,0,0
305468.65,245.34,-584.332,0,0
305728.975,241.661,-587.946,0,0
305989.3,237.761,-591.277,0,0
306249.625,233.604,-594.237,0,0
306509.95,229.294,-596.805,0,0
306770.275,224.903,-598.946,0,0
307030.6,220.53,-600.731,0,0
307290.925,216.178,-602.165,0,0
307551.25,211.896,-603.308,0,0
307811.575,207.689,-604.213,0,0
308071.9,203.517,-604.897,0,0
308332.225,199.392,-605.354,0,0
308592.55,195.289,-605.591,0,0
308852.875,191.237,-605.547,0,0
309113.2,187.263,-605.251,0,0
309373.525,183.462,-604.7,0,0
309633.85,179.832,-603.923,0,0
309894.175,176.371,-602.992,0,0
310154.5,173.139,-601.899,0,0
310414.825,170.126,-600.752,0,0
310675.15,167.281,-599.55,0,0
310935.475,164.597,-598.326,0,0
311195.8,162.024,-597.115,0,0
311456.125,159.58,-595.871,0,0
311716.45,157.207,-594.623,0,0
311976.775,154.916,-593.37,0,0
312237.1,152.693,-592.106,0,0
312497.425,150.547,-590.805,0,0
312757.75,148.453,-589.486,0,0
313018.075,146.439,-588.154,0,0
313278.4,144.449,-586.813,0,0
313538.725,142.477,-585.433,0,0
313799.05,140.555,-583.982,0,0
314059.375,138.699,-582.466,0,0
314319.7,136.895,-580.869,0,0
314580,135.208,-579.188,0,0
314840,133.623,-577.488,0,0
315101,132.169,-575.706,0,0
315361,130.892,-573.907,0,0
315621,129.73,-572.154,0,0
315882,128.699,-570.421,0,0
316142,127.763,-568.753,0,0
316402,126.937,-567.151,0,0
316663,126.197,-565.639,0,0
316923,125.462,-564.207,0,0
317183,124.764,-562.833,0,0
317444,124.084,-561.513,0,0
317704,123.384,-560.206,0,0
317964,122.735,-558.921,0,0
318225,122.069,-557.657,0,0
318485,121.441,-556.418,0,0
318745,120.851,-555.15,0,0
319006,120.285,-553.876,0,0
319266,119.823,-552.642,0,0
319526,119.422,-551.453,0,0
319787,119.045,-550.28,0,0
320047,118.724,-549.22,0,0
320307,118.381,-548.179,0,0
320567,118.126,-547.214,0,0
320828,117.836,-546.288,0,0
321088,117.561,-545.431,0,0
321348,117.262,-544.638,0,0
321609,116.956,-543.883,0,0
321869,116.627,-543.19,0,0
322129,116.27,-542.52,0,0
322390,115.879,-541.886,0,0
322650,115.465,-541.277,0,0
322910,115.01,-540.677,0,0
323171,114.493,-540.094,0,0
323431,113.949,-539.488,0,0
323691,113.374,-538.871,0,0
323952,112.781,-538.225,0,0
324212,112.177,-537.533,0,0
324472,111.586,-536.812,0,0
324733,111.023,-536.05,0,0
324993,110.503,-535.297,0,0
325253,109.994,-534.52,0,0
325514,109.571,-533.772,0,0
325774,109.17,-533.088,0,0
326034,108.759,-532.426,0,0
326295,108.322,-531.812,0,0
326555,107.909,-531.207,0,0
326815,107.485,-530.65,0,0
327076,107.034,-530.12,0,0
327336,106.543,-529.612,0,0
327596,106.035,-529.097,0,0
327857,105.485,-528.609,0,0
328117,104.919,-528.111,0,0
328377,104.316,-527.597,0,0
328638,103.696,-527.067,0,0
328898,103.062,-526.529,0,0
329158,102.453,-525.973,0,0
329419,101.833,-525.416,0,0
329679,101.197,-524.877,0,0
329939,100.575,-524.319,0,0
330200,99.916,-523.769,0,0
330460,99.2679,-523.205,0,0
330720.15,98.5548,-522.624,0,0
330980.475,97.9528,-522.065,0,0
331240.8,97.2849,-521.553,0,0
331501.125,96.5875,-521.068,0,0
331761.45,95.8499,-520.593,0,0
332021.775,95.0512,-519.998,0,0
332282.1,94.2829,-519.5,0,0
332542.425,93.4322,-519.039,0,0
332802.75,92.5096,-518.452,0,0
333063.075,91.6287,-517.891,0,0
333323.4,90.5514,-517.23,0,0
333583.725,89.6388,-516.516,0,0
333844.05,88.6136,-515.805,0,0
334104.375,87.6552,-514.986,0,0
334364.7,86.6321,-514.088,0,0
334625.025,85.6854,-513.173,0,0
334885.35,84.7627,-512.265,0,0
335145.675,83.8221,-511.294,0,0
335406.0,82.9783,-510.291,0,0
335666.325,82.0196,-509.237,0,0
335926.65,81.1053,-508.186,0,0
336186.975,80.2644,-507.075,0,0
336447.3,79.3285,-505.946,0,0
336707.625,78.5151,-504.821,0,0
336967.95,77.7539,-503.541,0,0
337228.275,77.0052,-502.244,0,0
337488.6,76.2797,-501.047,0,0
337748.925,75.6072,-499.758,0,0
338009.25,74.9651,-498.464,0,0
338269.575,74.3401,-497.171,0,0
338529.9,73.7939,-495.845,0,0
338790.225,73.2884,-494.548,0,0
339050.55,72.7686,-493.188,0,0
339310.875,72.2951,-491.829,0,0
339571.2,71.8517,-490.584,0,0
339831.525,71.4505,-489.328,0,0
340091.85,71.0561,-487.956,0,0
340352.175,70.7184,-486.669,0,0
340612.5,70.3182,-485.418,0,0
340872.825,70.0288,-484.063,0,0
341133.15,69.6841,-482.741,0,0
341393.475,69.4055,-481.415,0,0
341653.8,69.1577,-480.102,0,0
341914.125,68.926,-478.793,0,0
342174.45,68.7984,-477.415,0,0
342434.775,68.6328,-476.084,0,0
342695.1,68.5536,-474.759,0,0
342955.425,68.4618,-473.466,0,0
343215.75,68.4822,-472.186,0,0
343476.075,68.4467,-470.902,0,0
343736.4,68.5352,-469.666,0,0
343996.725,68.576,-468.459,0,0
344257.05,68.7128,-467.297,0,0
344517.375,68.832,-466.165,0,0
344777.7,68.9754,-465.086,0,0
345038.025,69.083,-463.963,0,0
345298.35,69.2312,-462.96,0,0
345558.675,69.3804,-461.95,0,0
345819.0,69.5444,-460.99,0,0
346079.325,69.6959,-460.023,0,0
346339.65,69.8374,-459.145,0,0
346599.975,69.9655,-458.227,0,0
346860,70.065,-457.445,0,0
347121,70.1144,-456.607,0,0
347381,70.1959,-455.819,0,0
347641,70.2521,-455.004,0,0
347902,70.1754,-454.237,0,0
348162,70.1159,-453.502,0,0
348422,70.0368,-452.683,0,0
348683,69.9094,-451.837,0,0
348943,69.7425,-450.953,0,0
349203,69.6087,-449.982,0,0
349464,69.5433,-449.039,0,0
349724,69.4434,-448.086,0,0
349984,69.3369,-447.11,0,0
350245,69.3102,-446.119,0,0
350505,69.2035,-445.119,0,0
350765,69.1276,-444.051,0,0
351025,69.0302,-442.957,0,0
351286,69.0304,-441.803,0,0
351546,69.1325,-440.678,0,0
351806,69.2374,-439.487,0,0
352067,69.4126,-438.346,0,0
352327,69.6898,-437.269,0,0
352587,69.9892,-436.19,0,0
352848,70.2714,-435.131,0,0
353108,70.6266,-434.118,0,0
353368,70.9923,-433.127,0,0
353629,71.4399,-432.238,0,0
353889,71.8158,-431.319,0,0
354149,72.1818,-430.487,0,0
354410,72.5727,-429.679,0,0
354670,72.974,-428.96,0,0
354930,73.4628,-428.176,0,0
355191,73.8619,-427.407,0,0
355451,74.3808,-426.822,0,0
355711,74.7526,-426.331,0,0
355972,75.1434,-425.859,0,0
356232,75.3938,-425.44,0,0
356492,75.5902,-425.019,0,0
356753,75.7145,-424.577,0,0
357013,75.7655,-424.156,0,0
357273,75.7554,-423.707,0,0
357534,75.6384,-423.162,0,0
357794,75.5632,-422.577,0,0
358054,75.4171,-421.989,0,0
358315,75.2896,-421.296,0,0
358575,75.1769,-420.538,0,0
358835,75.0106,-419.692,0,0
359096,74.9198,-418.819,0,0
359356,74.8605,-417.894,0,0
359616,74.8074,-416.903,0,0
359877,74.8631,-415.937,0,0
360137,74.897,-414.932,0,0
360397,75.08,-413.85,0,0
360658,75.2658,-412.808,0,0
360918,75.4919,-411.787,0,0
361178,75.8226,-410.753,0,0
361438,76.1407,-409.766,0,0
361699,76.5304,-408.766,0,0
361959,76.9744,-407.87,0,0
362219,77.4182,-406.986,0,0
362480,77.95,-406.112,0,0
362740.1,78.4134,-405.257,0,0
363000.425,78.9016,-404.48,0,0
363260.75,79.3955,-403.714,0,0
363521.075,79.9201,-402.921,0,0
363781.4,80.4316,-402.227,0,0
364041.725,80.9121,-401.485,0,0
364302.05,81.45,-400.818,0,0
364562.375,81.9912,-400.124,0,0
364822.7,82.591,-399.456,0,0
365083.025,83.2057,-398.88,0,0
365343.35,83.8116,-398.28,0,0
365603.675,84.45,-397.81,0,0
365864.0,85.0866,-397.393,0,0
366124.325,85.6013,-396.986,0,0
366384.65,86.0982,-396.668,0,0
366644.975,86.6008,-396.267,0,0
366905.3,87.0245,-395.896,0,0
367165.625,87.4638,-395.54,0,0
367425.95,87.8819,-395.199,0,0
367686.275,88.3116,-394.833,0,0
367946.6,88.7196,-394.476,0,0
368206.925,89.1486,-394.16,0,0
368467.25,89.5451,-393.855,0,0
368727.575,89.9814,-393.568,0,0
368987.9,90.3939,-393.331,0,0
369248.225,90.7566,-393.116,0,0
369508.55,91.193,-392.948,0,0
369768.875,91.527,-392.876,0,0
370029.2,91.7344,-392.841,0,0
370289.525,91.9489,-392.866,0,0
370549.85,91.9553,-392.868,0,0
370810.175,91.9524,-392.784,0,0
371070.5,91.8142,-392.696,0,0
371330.825,91.6003,-392.455,0,0
371591.15,91.3471,-392.204,0,0
371851.475,91.0156,-391.733,0,0
372111.8,90.7906,-391.268,0,0
372372.125,90.5784,-390.647,0,0
372632.45,90.4061,-390.018,0,0
372892.775,90.2907,-389.312,0,0
373153.1,90.2394,-388.542,0,0
373413.425,90.2053,-387.787,0,0
373673.75,90.2531,-386.994,0,0
373934.075,90.4157,-386.179,0,0
374194.4,90.531,-385.399,0,0
374454.725,90.7316,-384.639,0,0
374715.05,90.8931,-383.944,0,0
374975.375,91.1342,-383.186,0,0
375235.7,91.4062,-382.447,0,0
375496.025,91.701,-381.737,0,0
375756.35,92.0404,-381.018,0,0
376016.675,92.4103,-380.411,0,0
376277.0,92.7047,-379.756,0,0
376537.325,93.0223,-379.148,0,0
376797.65,93.244,-378.574,0,0
377057.975,93.5535,-377.94,0,0
377318.3,93.7752,-377.274,0,0
377578.625,94.0236,-376.603,0,0
377838.95,94.3254,-375.879,0,0
378099.275,94.6597,-375.108,0,0
378359.6,95.0112,-374.381,0,0
378619.925,95.4408,-373.634,0,0
378880,95.8987,-372.92,0,0
379141,96.3946,-372.216,0,0
379401,96.9186,-371.594,0,0
379661,97.4116,-370.92,0,0
379922,97.96,-370.329,0,0
380182,98.5084,-369.796,0,0
380442,99.0136,-369.221,0,0
380703,99.5173,-368.684,0,0
380963,100.017,-368.141,0,0
381223,100.527,-367.633,0,0
381483,101.015,-367.116,0,0
381744,101.487,-366.572,0,0
382004,101.964,-366.017,0,0
382264,102.514,-365.443,0,0
382525,103.067,-364.858,0,0
382785,103.643,-364.319,0,0
383045,104.309,-363.82,0,0
383306,104.908,-363.327,0,0
383566,105.514,-362.871,0,0
383826,106.117,-362.428,0,0
384087,106.71,-361.976,0,0
384347,107.359,-361.576,0,0
384607,108.002,-361.168,0,0
384868,108.613,-360.827,0,0
385128,109.255,-360.452,0,0
385388,109.822,-360.132,0,0
385649,110.346,-359.797,0,0
385909,110.83,-359.408,0,0
386169,111.372,-359.03,0,0
386430,111.966,-358.642,0,0
386690,112.504,-358.244,0,0
386950,113.09,-357.846,0,0
387211,113.641,-357.489,0,0
387471,114.175,-357.105,0,0
387731,114.746,-356.681,0,0
387992,115.279,-356.246,0,0
388252,115.827,-355.739,0,0
388512,116.427,-355.191,0,0
388773,117.132,-354.605,0,0
389033,117.925,-354.029,0,0
389293,118.787,-353.51,0,0
389554,119.724,-353.048,0,0
389814,120.685,-352.648,0,0
390074,121.695,-352.304,0,0
390335,122.674,-352.067,0,0
390595,123.647,-351.914,0,0
390855,124.594,-351.824,0,0
391116,125.491,-351.739,0,0
391376,126.318,-351.65,0,0
391636,127.148,-351.565,0,0
391896,127.914,-351.444,0,0
392157,128.805,-351.282,0,0
392417,129.647,-351.169,0,0
392677,130.501,-351.083,0,0
392938,131.401,-351.004,0,0
393198,132.264,-350.947,0,0
393458,133.095,-350.881,0,0
393719,133.95,-350.793,0,0
393979,134.77,-350.665,0,0
394239,135.661,-350.54,0,0
394500,136.592,-350.436,0,0
394760.05,137.577,-350.279,0,0
395020.375,138.637,-350.116,0,0
395280.7,139.725,-350.009,0,0
395541.025,140.896,-349.92,0,0
395801.35,142.174,-349.864,0,0
396061.675,143.489,-349.884,0,0
396322.0,144.886,-349.982,0,0
396582.325,146.328,-350.151,0,0
396842.65,147.876,-350.45,0,0
397102.975,149.405,-350.827,0,0
397363.3,151.016,-351.394,0,0
397623.625,152.588,-352.088,0,0
397883.95,154.157,-352.929,0,0
398144.275,155.731,-353.883,0,0
398404.6,157.246,-355.037,0,0
398664.925,158.699,-356.261,0,0
398925.25,160.054,-357.682,0,0
399185.575,161.321,-359.253,0,0
399445.9,162.489,-360.947,0,0
399706.225,163.536,-362.738,0,0
399966.55,164.353,-364.731,0,0
400006.6,164.423,-365.02,0,0