File: Accelerated corrosion test data/2025-10-10_06-00-03/sample_3.csv
Frequency (Hz),Impedance (ohms),Phase (Radians),Temperature (C),Humidity (%)
10000.0,251.387,-11798.1,0,0
10260.325,244.649,-11500.5,0,0
10520.65,239.245,-11217.7,0,0
10780.975,234.556,-10947.7,0,0
11041.3,229.294,-10695.7,0,0
11301.625,223.623,-10450.4,0,0
11561.95,218.713,-10216.6,0,0
11822.275,214.064,-9993.03,0,0
12082.6,211.711,-9779.41,0,0
12342.925,209.472,-9573.15,0,0
12603.25,202.796,-9378.88,0,0
12863.575,198.901,-9189.24,0,0
13123.9,198.87,-9005.77,0,0
13384.225,192.649,-8837.49,0,0
13644.55,189.671,-8669.29,0,0
13904.875,185.267,-8505.84,0,0
14165.2,184.762,-8348.56,0,0
14425.525,180.72,-8200.15,0,0
14685.8,178.093,-8053.8,0,0
14946.175,176.688,-7914.4,0,0
15206.5,173.702,-7775.38,0,0
15466.825,179.298,-7635.88,0,0
15727.15,194.951,-7534.76,0,0
15987.5,173.645,-7421.53,0,0
16247.8,167.41,-7292.04,0,0
16508.125,161.638,-7180.21,0,0
16768.45,166.205,-7059.19,0,0
17028.775,157.027,-6961.69,0,0
17289.1,160.557,-6847.76,0,0
17549.425,156.331,-6755.99,0,0
17809.75,156.052,-6651.32,0,0
18070.075,162.684,-6564.38,0,0
18330.4,150.769,-6469.91,0,0
18590.725,148.527,-6378.84,0,0
18851.05,144.838,-6288.81,0,0
19111.375,146.155,-6199.31,0,0
19371.7,145.319,-6116.46,0,0
19632.025,146.194,-6032.62,0,0
19892.35,146.859,-5951.7,0,0
20152.675,149.387,-5876.6,0,0
20413.0,158.768,-5798.81,0,0
20673.3,164.523,-5730.45,0,0
20933.65,161.921,-5679.37,0,0
21193.975,161.602,-5611.91,0,0
21454.3,145.728,-5552.72,0,0
21714.625,138.665,-5477.31,0,0
21974.9,141.496,-5411.65,0,0
22235.275,139.054,-5353.49,0,0
22495.6,137.104,-5290.55,0,0
22755.925,129.063,-5230.94,0,0
23016.25,127.72,-5171.93,0,0
23276.6,128.178,-5109.68,0,0
23536.9,128.899,-5063.42,0,0
23797.225,121.03,-5005.11,0,0
24057.55,119.04,-4947.51,0,0
24317.875,118.836,-4892.47,0,0
24578.2,116.483,-4842.18,0,0
24838.525,118.203,-4788.49,0,0
25098.85,115.897,-4742.53,0,0
25359.175,113.762,-4692.53,0,0
25619.5,113.288,-4644.67,0,0
25879.8,110.394,-4598.09,0,0
26140.1,108.276,-4550.32,0,0
26400.5,107.589,-4503.61,0,0
26660.8,107.509,-4458.77,0,0
26921.1,108.619,-4414.8,0,0
27181.4,108.566,-4373.92,0,0
27441.8,107.097,-4330.48,0,0
27702.1,107.816,-4290.66,0,0
27962.4,105.538,-4250.38,0,0
28222.7,103.829,-4207.56,0,0
28483.1,110.903,-4164.75,0,0
28743.4,112.668,-4130.6,0,0
29003.7,115.168,-4100.3,0,0
29264,108.256,-4067.06,0,0
29524.4,108.492,-4030.22,0,0
29784.7,104.261,-3995.67,0,0
30045,102.181,-3961.89,0,0
30305.3,100.345,-3924.39,0,0
30565.7,101.763,-3890.36,0,0
30826,101.195,-3858.15,0,0
31086.3,102.488,-3825.59,0,0
31346.6,98.6605,-3795.15,0,0
31607,97.69,-3760.69,0,0
31867.3,97.9641,-3726.83,0,0
32127.6,101.425,-3693.54,0,0
32387.9,109.579,-3665.11,0,0
32648.3,111.575,-3647.08,0,0
32908.6,104.153,-3623.4,0,0
33168.9,100.848,-3595.62,0,0
33429.2,99.4658,-3568.49,0,0
33689.6,93.5533,-3541.3,0,0
33949.9,90.8001,-3511.51,0,0
34210.2,90.7193,-3483.52,0,0
34470.5,89.8914,-3457.34,0,0
34730.9,87.627,-3430.97,0,0
34991.2,86.3145,-3404.48,0,0
35251.5,85.6211,-3378.28,0,0
35511.8,84.5298,-3353.09,0,0
35772.2,83.9625,-3327.86,0,0
36032.5,83.2705,-3303.1,0,0
36292.8,82.7091,-3278.59,0,0
36553.1,82.3309,-3254.72,0,0
36813.5,81.6981,-3231.25,0,0
37073.8,80.7954,-3208.24,0,0
37334.1,79.9903,-3184.9,0,0
37594.4,79.9103,-3162.5,0,0
37854.8,79.27,-3140.49,0,0
38115.1,78.7223,-3118.37,0,0
38375.4,78.2431,-3096.62,0,0
38635.7,77.7688,-3075.15,0,0
38896.1,77.3852,-3054.03,0,0
39156.4,77.1563,-3033.32,0,0
39416.7,77.0766,-3012.98,0,0
39677,76.193,-2992.83,0,0
39937.4,75.7515,-2972.55,0,0
40197.7,75.3304,-2952.65,0,0
40458,74.964,-2933.23,0,0
40718.3,74.6256,-2913.8,0,0
40978.7,74.2281,-2894.48,0,0
41239,74.0615,-2875.5,0,0
41499.3,74.2604,-2857.28,0,0
41759.6,74.0492,-2838.91,0,0
42020,73.6823,-2821.49,0,0
42280.275,73.6791,-2803.31,0,0
42540.6,73.0895,-2785.89,0,0
42800.925,73.3326,-2768.32,0,0
43061.25,72.5753,-2751.84,0,0
43321.575,71.9487,-2734.31,0,0
43581.9,71.7951,-2717.27,0,0
43842.225,71.6479,-2700.22,0,0
44102.55,72.0055,-2683.87,0,0
44362.875,71.9881,-2668.27,0,0
44623.2,71.2276,-2652.12,0,0
44883.525,71.0823,-2636.05,0,0
45143.85,70.9861,-2620.56,0,0
45404.175,70.449,-2605.25,0,0
45664.5,70.0411,-2589.29,0,0
45924.825,70.7155,-2574.08,0,0
46185.15,70.3359,-2560.11,0,0
46445.475,69.656,-2544.95,0,0
46705.8,69.6721,-2529.64,0,0
46966.125,69.6829,-2515.23,0,0
47226.45,69.5317,-2500.93,0,0
47486.775,69.5223,-2486.47,0,0
47747.1,70.1485,-2472.15,0,0
48007.425,70.4382,-2459.37,0,0
48267.75,70.3985,-2446.17,0,0
48528.075,69.4027,-2432.99,0,0
48788.4,69.2005,-2419.9,0,0
49048.725,68.3766,-2406.71,0,0
49309.05,67.7431,-2393.32,0,0
49569.375,67.9014,-2380.06,0,0
49829.7,67.6031,-2367.17,0,0
50090.025,66.9841,-2354.62,0,0
50350.35,66.3926,-2341.51,0,0
50610.675,66.3522,-2328.51,0,0
50871.0,66.1723,-2316.08,0,0
51131.325,66.1052,-2303.51,0,0
51391.65,66.017,-2291.11,0,0
51651.975,66.1678,-2278.88,0,0
51912.3,66.0218,-2266.91,0,0
52172.625,65.9821,-2254.84,0,0
52432.95,65.7244,-2242.82,0,0
52693.275,66.0177,-2230.8,0,0
52953.6,66.4129,-2219,0,0
53213.925,66.943,-2207.32,0,0
53474.25,67.8132,-2196.64,0,0
53734.575,67.9527,-2185.91,0,0
53994.9,68.2425,-2174.81,0,0
54255.225,69.1679,-2164.06,0,0
54515.55,69.9277,-2154.9,0,0
54775.875,69.4006,-2145.75,0,0
55036.2,68.4692,-2135.98,0,0
55296.525,67.9798,-2126.23,0,0
55556.85,66.5667,-2116.65,0,0
55817.175,64.9595,-2106.07,0,0
56077.5,64.1528,-2095.53,0,0
56337.825,63.2871,-2085.03,0,0
56598.15,62.2938,-2074.46,0,0
56858.475,61.6387,-2063.73,0,0
57118.8,61.2097,-2052.92,0,0
57379.125,61.0264,-2042.38,0,0
57639.45,60.9928,-2032.03,0,0
57899.775,61.067,-2021.81,0,0
58160.1,61.0761,-2011.83,0,0
58420.4,61.0083,-2001.81,0,0
58680.7,61.0346,-1991.92,0,0
58941.1,61.1866,-1982.06,0,0
59201.4,61.2039,-1972.18,0,0
59461.7,61.5621,-1962.56,0,0
59722,61.8218,-1953.1,0,0
59982.4,62.0795,-1943.71,0,0
60242.7,62.3069,-1934.44,0,0
60503,62.5582,-1925.2,0,0
60763.3,62.9422,-1915.84,0,0
61023.7,63.2403,-1906.71,0,0
61284,63.6068,-1897.71,0,0
61544.3,64.25,-1888.56,0,0
61804.6,64.7077,-1880.08,0,0
62065,64.9129,-1871.16,0,0
62325.3,65.5752,-1862.3,0,0
62585.6,66.0387,-1853.6,0,0
62845.9,66.6192,-1844.56,0,0
63106.3,67.7523,-1835.85,0,0
63366.6,68.6591,-1827.6,0,0
63626.9,69.5722,-1818.65,0,0
63887.2,71.0685,-1810.34,0,0
64147.6,72.6035,-1801.72,0,0
64407.9,74.7634,-1793.56,0,0
64668.2,77.1187,-1785.74,0,0
64928.5,80.0195,-1778.07,0,0
65188.9,84.1401,-1772.08,0,0
65449.2,86.5577,-1767.74,0,0
65709.5,88.5535,-1762.95,0,0
65969.8,91.8698,-1759.93,0,0
66230.2,91.3535,-1760.48,0,0
66490.5,85.7675,-1757.81,0,0
66750.8,80.7816,-1751.7,0,0
67011.1,77.7196,-1742.8,0,0
67271.5,75.9049,-1734.86,0,0
67531.8,74.7692,-1726.32,0,0
67792.1,74.7953,-1718.28,0,0
68052.4,74.7425,-1710.51,0,0
68312.8,75.8752,-1703.37,0,0
68573.1,76.0902,-1697.18,0,0
68833.4,76.0966,-1690.86,0,0
69093.7,76.6992,-1684.29,0,0
69354.1,77.0617,-1678.87,0,0
69614.4,76.7695,-1673.51,0,0
69874.7,75.8913,-1668.03,0,0
70135,75.0226,-1662.24,0,0
70395.4,74.1296,-1656.41,0,0
70655.7,73.0032,-1650.42,0,0
70916,71.7824,-1644.05,0,0
71176.3,70.701,-1637.59,0,0
71436.7,70.0332,-1630.97,0,0
71697,69.1471,-1624.1,0,0
71957.3,69.2769,-1617.28,0,0
72217.6,69.3687,-1610.91,0,0
72478,69.3294,-1604.84,0,0
72738.3,69.4963,-1598.96,0,0
72998.6,69.274,-1593.55,0,0
73258.9,68.6914,-1587.96,0,0
73519.3,68.227,-1582.16,0,0
73779.6,67.873,-1576.54,0,0
74039.9,67.3129,-1571.03,0,0
74300.225,66.544,-1565.39,0,0
74560.55,65.8134,-1559.78,0,0
74820.875,65.0688,-1554.06,0,0
75081.2,64.2806,-1548.39,0,0
75341.525,63.4992,-1542.64,0,0
75601.85,62.8209,-1536.82,0,0
75862.175,61.9825,-1531.02,0,0
76122.5,61.2501,-1525.06,0,0
76382.825,60.7396,-1519.16,0,0
76643.15,60.0945,-1513.34,0,0
76903.475,59.5575,-1507.45,0,0
77163.8,59.1221,-1501.67,0,0
77424.125,58.6933,-1495.95,0,0
77684.45,58.1768,-1490.24,0,0
77944.775,57.6784,-1484.6,0,0
78205.1,57.1482,-1478.84,0,0
78465.425,56.685,-1473.08,0,0
78725.75,56.2587,-1467.44,0,0
78986.075,55.8389,-1461.77,0,0
79246.4,55.5489,-1456.14,0,0
79506.725,55.1556,-1450.43,0,0
79767.05,54.8852,-1444.78,0,0
80027.375,54.5668,-1439.29,0,0
80287.7,54.3878,-1433.76,0,0
80548.025,54.1309,-1428.28,0,0
80808.35,53.8536,-1422.77,0,0
81068.675,53.7106,-1417.37,0,0
81329.0,53.4609,-1411.9,0,0
81589.325,53.3619,-1406.51,0,0
81849.65,53.225,-1401.16,0,0
82109.975,53.0036,-1395.88,0,0
82370.3,52.9133,-1390.51,0,0
82630.625,52.79,-1385.26,0,0
82890.95,52.7604,-1380.03,0,0
83151.275,52.6179,-1374.89,0,0
83411.6,52.529,-1369.72,0,0
83671.925,52.4883,-1364.57,0,0
83932.25,52.4516,-1359.42,0,0
84192.575,52.4401,-1354.37,0,0
84452.9,52.3488,-1349.33,0,0
84713.225,52.389,-1344.3,0,0
84973.55,52.2779,-1339.28,0,0
85233.875,52.356,-1334.19,0,0
85494.2,52.3869,-1329.36,0,0
85754.525,52.413,-1324.41,0,0
86014.85,52.4815,-1319.56,0,0
86275.175,52.4745,-1314.7,0,0
86535.5,52.4201,-1309.86,0,0
86795.825,52.4482,-1305,0,0
87056.15,52.5319,-1300.12,0,0
87316.475,52.5891,-1295.39,0,0
87576.8,52.7858,-1290.54,0,0
87837.125,52.9062,-1285.77,0,0
88097.45,53.0414,-1281.06,0,0
88357.775,53.1238,-1276.32,0,0
88618.1,53.2148,-1271.59,0,0
88878.425,53.5118,-1266.72,0,0
89138.75,53.8731,-1262.05,0,0
89399.075,54.3094,-1257.31,0,0
89659.4,54.8794,-1252.84,0,0
89919.725,55.3173,-1248.33,0,0
90180,55.8131,-1243.99,0,0
90440.4,56.3363,-1239.89,0,0
90700.7,56.6522,-1235.56,0,0
90961,57.0461,-1231.19,0,0
91221.3,57.4856,-1226.96,0,0
91481.7,58.0068,-1222.75,0,0
91742,58.5862,-1218.72,0,0
92002.3,59.0263,-1214.67,0,0
92262.6,59.6205,-1210.63,0,0
92523,60.3878,-1206.78,0,0
92783.3,60.962,-1203.25,0,0
93043.6,61.3523,-1199.5,0,0
93303.9,62.0631,-1195.9,0,0
93564.3,62.7789,-1192.61,0,0
93824.6,63.3477,-1189.57,0,0
94084.9,63.7755,-1186.8,0,0
94345.2,63.6149,-1184.28,0,0
94605.6,63.1353,-1181.39,0,0
94865.9,62.642,-1178.68,0,0
95126.2,61.3826,-1176,0,0
95386.5,59.6562,-1172.27,0,0
95646.9,58.6449,-1167.93,0,0
95907.2,57.9603,-1163.8,0,0
96167.5,57.2578,-1159.53,0,0
96427.8,56.8254,-1155.02,0,0
96688.2,56.777,-1150.75,0,0
96948.5,56.7402,-1146.71,0,0
97208.8,56.602,-1142.63,0,0
97469.1,56.6476,-1138.64,0,0
97729.5,56.5626,-1134.72,0,0
97989.8,56.5216,-1130.85,0,0
98250.1,56.481,-1127.01,0,0
98510.4,56.4867,-1123.12,0,0
98770.8,56.4692,-1119.37,0,0
99031.1,56.4067,-1115.65,0,0
99291.4,56.2798,-1111.98,0,0
99551.7,56.0307,-1108.18,0,0
99812.1,55.9019,-1104.27,0,0
100072,55.7707,-1100.47,0,0
100333,55.6303,-1096.64,0,0
100593,55.4761,-1092.67,0,0
100853,55.3072,-1088.64,0,0
101114,55.3856,-1084.59,0,0
101374,55.4097,-1080.59,0,0
101634,55.5528,-1076.47,0,0
101895,55.804,-1072.4,0,0
102155,56.1175,-1068.31,0,0
102415,56.5555,-1064.15,0,0
102676,57.4439,-1060.05,0,0
102936,58.4261,-1056.39,0,0
103196,59.2289,-1053.08,0,0
103457,59.8168,-1049.73,0,0
103717,60.476,-1046.34,0,0
103977,61.1614,-1042.96,0,0
104238,62.1993,-1039.7,0,0
104498,63.1832,-1037.02,0,0
104758,63.7795,-1034.67,0,0
105019,63.8891,-1032.28,0,0
105279,63.7735,-1029.58,0,0
105539,63.8417,-1026.76,0,0
105800,63.7778,-1024.12,0,0
106060,63.6313,-1021.52,0,0
106320.175,63.1698,-1018.79,0,0
106580.5,62.7362,-1015.86,0,0
106840.825,62.2967,-1012.92,0,0
107101.15,61.6312,-1009.81,0,0
107361.475,61.1069,-1006.51,0,0
107621.8,60.6402,-1003.11,0,0
107882.125,60.1957,-999.728,0,0
108142.45,59.7738,-996.255,0,0
108402.775,59.494,-992.754,0,0
108663.1,59.1312,-989.206,0,0
108923.425,58.8031,-985.497,0,0
109183.75,58.5844,-981.747,0,0
109444.075,58.633,-977.903,0,0
109704.4,58.6971,-974.289,0,0
109964.725,58.7413,-970.666,0,0
110225.05,58.7912,-966.913,0,0
110485.375,58.9516,-963.126,0,0
110745.7,59.5056,-959.228,0,0
111006.025,60.0798,-955.589,0,0
111266.35,60.6495,-952.423,0,0
111526.675,61.0272,-949.06,0,0
111787.0,61.5414,-945.63,0,0
112047.325,62.0706,-942.411,0,0
112307.65,62.5854,-939.188,0,0
112567.975,63.0198,-936.168,0,0
112828.3,63.2711,-933.039,0,0
113088.625,63.5877,-929.824,0,0
113348.95,63.9089,-926.674,0,0
113609.275,64.2413,-923.532,0,0
113869.6,64.4902,-920.33,0,0
114129.925,64.7785,-917.057,0,0
114390.25,65.0936,-913.843,0,0
114650.575,65.2344,-910.541,0,0
114910.9,65.6281,-907.04,0,0
115171.225,66.1699,-903.575,0,0
115431.55,66.8421,-900.205,0,0
115691.875,67.4498,-896.999,0,0
115952.2,68.0888,-893.735,0,0
116212.525,68.7085,-890.307,0,0
116472.85,69.5246,-886.921,0,0
116733.175,70.5664,-883.635,0,0
116993.5,71.5692,-880.531,0,0
117253.825,72.4177,-877.528,0,0
117514.15,73.262,-874.294,0,0
117774.475,74.5251,-870.791,0,0
118034.8,76.247,-867.738,0,0
118295.125,77.9768,-865.118,0,0
118555.45,79.5136,-862.963,0,0
118815.775,80.6363,-860.899,0,0
119076.1,81.6798,-858.485,0,0
119336.425,82.9315,-855.933,0,0
119596.75,84.6925,-853.72,0,0
119857.075,86.4402,-852.167,0,0
120117.4,87.8323,-851.146,0,0
120377.725,88.5977,-850.362,0,0
120638.05,88.8211,-849.393,0,0
120898.375,88.799,-848.285,0,0
121158.7,88.5221,-846.94,0,0
121419.025,87.9662,-845.52,0,0
121679.35,87.053,-843.657,0,0
121939.675,86.225,-841.145,0,0
122200.0,85.9131,-838.349,0,0
122460,85.908,-835.639,0,0
122721,85.9537,-833.048,0,0
122981,86.1289,-830.373,0,0
123241,86.5637,-827.799,0,0
123502,86.9522,-825.519,0,0
123762,87.1708,-823.264,0,0
124022,87.4807,-820.892,0,0
124283,87.8205,-818.619,0,0
124543,88.1419,-816.433,0,0
124803,88.3876,-814.262,0,0
125064,88.737,-812.137,0,0
125324,89.005,-810.102,0,0
125584,89.2156,-808.046,0,0
125845,89.4352,-806.103,0,0
126105,89.5539,-804.212,0,0
126365,89.5392,-802.368,0,0
126626,89.3424,-800.443,0,0
126886,89.1227,-798.471,0,0
127146,88.8894,-796.382,0,0
127406,88.7682,-794.213,0,0
127667,88.3599,-792.206,0,0
127927,88.0792,-790.024,0,0
128187,87.7163,-787.857,0,0
128448,87.2588,-785.617,0,0
128708,86.7155,-783.191,0,0
128968,86.2495,-780.527,0,0
129229,86.0117,-777.822,0,0
129489,85.8409,-775.215,0,0
129749,85.6377,-772.58,0,0
130010,85.4616,-769.783,0,0
130270,85.5958,-766.852,0,0
130530,85.9471,-764.185,0,0
130791,86.375,-761.782,0,0
131051,86.6533,-759.575,0,0
131311,86.7581,-757.462,0,0
131572,86.7444,-755.315,0,0
131832,86.5954,-753.114,0,0
132092,86.375,-750.89,0,0
132353,86.0915,-748.539,0,0
132613,85.8895,-746.005,0,0
132873,85.8671,-743.524,0,0
133134,85.813,-741.189,0,0
133394,85.6702,-738.852,0,0
133654,85.4845,-736.546,0,0
133915,85.1624,-734.202,0,0
134175,84.7791,-731.643,0,0
134435,84.5821,-729.15,0,0
134696,84.3155,-726.624,0,0
134956,84.0429,-724.06,0,0
135216,83.6826,-721.32,0,0
135477,83.5113,-718.59,0,0
135737,83.3166,-715.969,0,0
135997,83.0401,-713.315,0,0
136258,82.6596,-710.566,0,0
136518,82.3077,-707.624,0,0
136778,82.0912,-704.558,0,0
137039,82.1109,-701.435,0,0
137299,82.2378,-698.374,0,0
137559,82.4968,-695.475,0,0
137819,82.7395,-692.677,0,0
138080,82.8778,-689.828,0,0
138340.125,83.1993,-686.955,0,0
138600.45,83.6729,-684.359,0,0
138860.775,83.8789,-682.059,0,0
139121.1,83.8424,-679.668,0,0
139381.425,83.6425,-677.14,0,0
139641.75,83.3727,-674.492,0,0
139902.075,83.0895,-671.677,0,0
140162.4,82.937,-668.684,0,0
140422.725,82.9882,-665.633,0,0
140683.05,83.122,-662.809,0,0
140943.375,83.1184,-660.104,0,0
141203.7,82.9766,-657.331,0,0
141464.025,82.7859,-654.471,0,0
141724.35,82.4696,-651.514,0,0
141984.675,82.2192,-648.346,0,0
142245.0,82.1587,-645.085,0,0
142505.325,82.0991,-641.907,0,0
142765.65,82.0026,-638.65,0,0
143025.975,81.9585,-635.27,0,0
143286.3,81.9978,-631.943,0,0
143546.625,82.0183,-628.481,0,0
143806.95,82.1491,-625.032,0,0
144067.275,82.3004,-621.525,0,0
144327.6,82.5075,-618.027,0,0
144587.925,82.7347,-614.43,0,0
144848.25,83.0428,-610.808,0,0
145108.575,83.4617,-607.184,0,0
145368.9,83.8925,-603.605,0,0
145629.225,84.2692,-599.96,0,0
145889.55,84.6879,-596.258,0,0
146149.875,85.1726,-592.426,0,0
146410.2,85.8293,-588.612,0,0
146670.525,86.4879,-584.817,0,0
146930.85,87.1819,-580.963,0,0
147191.175,87.9844,-577.063,0,0
147451.5,88.7712,-573.16,0,0
147711.825,89.6513,-569.094,0,0
147972.15,90.768,-565.007,0,0
148232.475,91.9814,-561.021,0,0
148492.8,93.2016,-557.098,0,0
148753.125,94.4318,-553.083,0,0
149013.45,95.7667,-549.016,0,0
149273.775,97.1992,-544.875,0,0
149534.1,98.7908,-540.648,0,0
149794.425,100.676,-536.392,0,0
150054.75,102.766,-532.329,0,0
150315.075,104.992,-528.306,0,0
150575.4,107.389,-524.426,0,0
150835.725,109.945,-520.736,0,0
151096.05,112.513,-517.329,0,0
151356.375,114.987,-514.028,0,0
151616.7,117.501,-510.792,0,0
151877.025,119.978,-507.656,0,0
152137.35,122.502,-504.538,0,0
152397.675,125.112,-501.58,0,0
152658.0,127.694,-498.771,0,0
152918.325,130.261,-496.106,0,0
153178.65,132.753,-493.66,0,0
153438.975,134.967,-491.34,0,0
153699.3,137.034,-488.874,0,0
153959.625,139.048,-486.413,0,0
154219.95,141.054,-483.912,0,0
154480,142.976,-481.545,0,0
154741,144.433,-479.26,0,0
155001,145.599,-476.514,0,0
155261,146.841,-472.97,0,0
155522,148.742,-469.25,0,0
155782,151.153,-465.909,0,0
156042,153.398,-462.94,0,0
156303,155.305,-459.696,0,0
156563,157.323,-456.213,0,0
156823,159.563,-452.227,0,0
157084,162.575,-448.371,0,0
157344,166.113,-444.779,0,0
157604,169.956,-442.036,0,0
157864,173.279,-439.873,0,0
158125,176.489,-437.798,0,0
158385,179.331,-436.363,0,0
158645,181.112,-435.111,0,0
158906,182.018,-433.19,0,0
159166,182.544,-430.151,0,0
159426,183.582,-426.581,0,0
159687,184.267,-422.712,0,0
159947,185.048,-417.437,0,0
160207,187.214,-411.255,0,0
160468,190.335,-405.418,0,0
160728,194.306,-399.352,0,0
160988,199.28,-394.151,0,0
161249,203.762,-390.001,0,0
161509,207.572,-385.078,0,0
161769,212.26,-379.242,0,0
162030,218.439,-373.656,0,0
162290,224.965,-369.033,0,0
162550,231.707,-364.64,0,0
162811,238.409,-360.845,0,0
163071,245.144,-356.875,0,0
163331,252.446,-352.694,0,0
163592,260.558,-348.788,0,0
163852,269.201,-345.434,0,0
164112,278.335,-342.826,0,0
164373,287.416,-340.634,0,0
164633,296.982,-338.327,0,0
164893,308.045,-336.6,0,0
165154,320.248,-336.821,0,0
165414,331.475,-339.632,0,0
165674,341.001,-342.831,0,0
165935,350.378,-345.48,0,0
166195,360.387,-348.816,0,0
166455,370.349,-353.845,0,0
166716,379.314,-360.027,0,0
166976,387.01,-366.827,0,0
167236,393.58,-373.909,0,0
167497,399.146,-380.991,0,0
167757,404.043,-387.531,0,0
168017,409.118,-393.775,0,0
168277,414.164,-401.003,0,0
168538,417.988,-408.6,0,0
168798,421.222,-416.233,0,0
169058,423.943,-423.869,0,0
169319,426.471,-431.948,0,0
169579,427.68,-441.182,0,0
169839,426.383,-450.34,0,0
170100,423.134,-457.543,0,0
170360.075,419.884,-462.624,0,0
170620.4,417.142,-466.734,0,0
170880.725,414.52,-470.372,0,0
171141.05,411.779,-473.399,0,0
171401.375,408.983,-475.371,0,0
171661.7,407.071,-476.233,0,0
171922.025,406.359,-477.376,0,0
172182.35,405.455,-478.869,0,0
172442.675,404.374,-480.031,0,0
172703.0,403.301,-480.052,0,0
172963.325,403.943,-479.111,0,0
173223.65,406.572,-479.266,0,0
173483.975,409.3,-481.469,0,0
173744.3,410.847,-484.567,0,0
174004.625,411.457,-487.136,0,0
174264.95,412.946,-489.103,0,0
174525.275,415.279,-492.482,0,0
174785.6,416.404,-497.177,0,0
175045.925,416.371,-501.596,0,0
175306.25,415.798,-505.86,0,0
175566.575,414.956,-509.598,0,0
175826.9,414.168,-513.449,0,0
176087.225,412.883,-517.461,0,0
176347.55,411.125,-521.251,0,0
176607.875,409.495,-524.732,0,0
176868.2,407.89,-529.211,0,0
177128.525,404.516,-534.363,0,0
177388.85,399.364,-538.307,0,0
177649.175,394.001,-540.529,0,0
177909.5,388.975,-542.233,0,0
178169.825,383.212,-543.344,0,0
178430.15,377.178,-542.693,0,0
178690.475,372.125,-540.737,0,0
178950.8,368.163,-538.195,0,0
179211.125,365.127,-535.49,0,0
179471.45,362.541,-532.84,0,0
179731.775,360.416,-529.8,0,0
179992.1,359.29,-526.437,0,0
180252.425,359.301,-523.591,0,0
180512.75,359.544,-521.596,0,0
180773.075,359.96,-519.843,0,0
181033.4,360.489,-518.473,0,0
181293.725,361.357,-517.352,0,0
181554.05,362.576,-516.812,0,0
181814.375,364.146,-517.179,0,0
182074.7,365.021,-519.175,0,0
182335.025,364.313,-521.627,0,0
182595.35,362.144,-523.345,0,0
182855.675,359.788,-524.073,0,0
183116.0,357.535,-524.392,0,0
183376.325,355.334,-524.691,0,0
183636.65,352.819,-525.01,0,0
183896.975,349.494,-525.04,0,0
184157.3,345.811,-524.06,0,0
184417.625,342.559,-522.231,0,0
184677.95,339.766,-520.314,0,0
184938.275,336.88,-518.259,0,0
185198.6,334,-515.773,0,0
185458.925,331.311,-512.883,0,0
185719.25,328.744,-509.696,0,0
185979.575,326.183,-506.013,0,0
186239.9,324.107,-501.609,0,0
186500,322.714,-496.772,0,0
186761,322.182,-491.799,0,0
187021,322.377,-487.085,0,0
187281,322.921,-482.752,0,0
187542,323.654,-478.529,0,0
187802,324.825,-474.393,0,0
188062,326.363,-470.613,0,0
188322,328.199,-467.26,0,0
188583,330.051,-464.558,0,0
188843,331.326,-462.381,0,0
189103,331.908,-459.857,0,0
189364,332.52,-456.568,0,0
189624,333.71,-452.957,0,0
189884,335.417,-449.417,0,0
190145,337.559,-446.258,0,0
190405,339.66,-443.542,0,0
190665,341.561,-440.991,0,0
190926,343.397,-438.441,0,0
191186,345.246,-435.936,0,0
191446,347.002,-433.394,0,0
191707,348.664,-430.658,0,0
191967,350.54,-427.743,0,0
192227,352.602,-425.003,0,0
192488,354.419,-422.355,0,0
192748,355.996,-419.331,0,0
193008,357.701,-415.587,0,0
193269,360.086,-411.375,0,0
193529,363.326,-407.23,0,0
193789,366.981,-403.405,0,0
194050,370.887,-399.612,0,0
194310,375.275,-395.836,0,0
194570,380.34,-392.159,0,0
194831,386.021,-388.839,0,0
195091,392.483,-386.267,0,0
195351,399.144,-384.573,0,0
195612,405.901,-383.795,0,0
195872,412.432,-383.792,0,0
196132,418.774,-384.316,0,0
196393,425.323,-385.621,0,0
196653,431.122,-388.031,0,0
196913,435.798,-391.209,0,0
197174,438.819,-394.402,0,0
197434,440.778,-396.595,0,0
197694,442.592,-397.695,0,0
197955,445.048,-398.078,0,0
198215,448.134,-398.723,0,0
198475,451.195,-399.913,0,0
198735,453.675,-401.483,0,0
198996,455.273,-402.698,0,0
199256,456.886,-402.71,0,0
199516,459.558,-402.462,0,0
199777,462.845,-403.093,0,0
200037,465.453,-404.687,0,0
200297,466.787,-406.3,0,0
200558,467.195,-406.821,0,0
200818,467.652,-406.001,0,0
201078,468.921,-404.199,0,0
201339,471.119,-402.168,0,0
201599,473.973,-400.307,0,0
201859,477.161,-398.617,0,0
202120,480.486,-396.949,0,0
202380.025,484.207,-394.906,0,0
202640.35,488.858,-392.909,0,0
202900.675,494.161,-391.383,0,0
203161.0,499.877,-390.41,0,0
203421.325,505.925,-390.005,0,0
203681.65,512.155,-390.134,0,0
203941.975,518.406,-390.851,0,0
204202.3,524.664,-392.037,0,0
204462.625,530.948,-394,0,0
204722.95,536.787,-396.609,0,0
204983.275,542.239,-399.494,0,0
205243.6,547.511,-402.68,0,0
205503.925,552.215,-406.391,0,0
205764.25,556.199,-410.572,0,0
206024.575,559.047,-414.777,0,0
206284.9,560.591,-418.246,0,0
206545.225,561.979,-420.3,0,0
206805.55,563.598,-421.424,0,0
207065.875,565.549,-421.616,0,0
207326.2,568.553,-420.948,0,0
207586.525,573.001,-420.292,0,0
207846.85,578.265,-420.367,0,0
208107.175,583.869,-420.904,0,0
208367.5,589.852,-421.754,0,0
208627.825,596.36,-423.158,0,0
208888.15,603.033,-425.216,0,0
209148.475,609.748,-427.816,0,0
209408.8,616.575,-430.901,0,0
209669.125,623.379,-434.568,0,0
209929.45,630.169,-438.809,0,0
210189.775,636.73,-443.605,0,0
210450.1,643.022,-448.773,0,0
210710.425,649.199,-454.238,0,0
210970.75,655.158,-460.103,0,0
211231.075,660.852,-466.471,0,0
211491.4,666.111,-473.225,0,0
211751.725,670.874,-480.225,0,0
212012.05,675.348,-486.964,0,0
212272.375,679.689,-493.926,0,0
212532.7,683.836,-500.97,0,0
212793.025,687.868,-508.082,0,0
213053.35,692.009,-515.498,0,0
213313.675,696.053,-523.453,0,0
213574.0,699.576,-531.88,0,0
213834.325,702.434,-540.595,0,0
214094.65,704.789,-549.111,0,0
214354.975,706.947,-557.492,0,0
214615.3,708.987,-565.862,0,0
214875.625,711.159,-574.449,0,0
215135.95,713.017,-583.463,0,0
215396.275,714.443,-593.063,0,0
215656.6,715.343,-602.688,0,0
215916.925,715.556,-612.219,0,0
216177.25,715.358,-621.725,0,0
216437.575,714.954,-631.234,0,0
216697.9,714.035,-640.942,0,0
216958.225,712.38,-650.813,0,0
217218.55,709.907,-660.33,0,0
217478.875,707.06,-669.052,0,0
217739.2,704.214,-677.223,0,0
217999.525,701.572,-685.4,0,0
218259.85,698.757,-693.695,0,0
218520,695.577,-702.147,0,0
218780,691.654,-710.265,0,0
219041,687.417,-717.606,0,0
219301,683.397,-724.393,0,0
219561,679.865,-730.994,0,0
219822,676.726,-737.736,0,0
220082,673.625,-745.025,0,0
220342,670.319,-753.157,0,0
220603,665.922,-761.379,0,0
220863,660.926,-769.203,0,0
221123,655.641,-776.88,0,0
221384,649.829,-784.402,0,0
221644,643.932,-791.691,0,0
221904,637.593,-799.199,0,0
222165,630.266,-806.375,0,0
222425,622.159,-812.799,0,0
222685,614.104,-818.486,0,0
222946,605.672,-823.991,0,0
223206,596.642,-828.876,0,0
223466,587.065,-832.937,0,0
223727,577.36,-835.616,0,0
223987,567.963,-837.177,0,0
224247,559.083,-837.731,0,0
224508,550.954,-837.57,0,0
224768,543.666,-836.739,0,0
225028,537.136,-835.489,0,0
225289,531.779,-834.221,0,0
225549,527.304,-833.21,0,0
225809,523.667,-832.459,0,0
226070,520.501,-832.451,0,0
226330,517.684,-833.167,0,0
226590,514.615,-834.679,0,0
226851,511.416,-836.369,0,0
227111,508.005,-838.461,0,0
227371,504.529,-840.866,0,0
227632,500.471,-843.705,0,0
227892,495.877,-846.476,0,0
228152,490.918,-849.06,0,0
228413,485.767,-851.504,0,0
228673,480.226,-853.786,0,0
228933,474.446,-855.686,0,0
229193,468.525,-857.136,0,0
229454,462.625,-858.29,0,0
229714,456.867,-859.268,0,0
229974,451.071,-860.004,0,0
230235,445.655,-860.474,0,0
230495,440.084,-861.12,0,0
230755,434.46,-861.614,0,0
231016,428.693,-861.799,0,0
231276,423.06,-861.633,0,0
231536,417.671,-861.352,0,0
231797,412.472,-861.001,0,0
232057,407.343,-860.571,0,0
232317,402.291,-860.119,0,0
232578,397.436,-859.624,0,0
232838,392.579,-859.111,0,0
233098,387.71,-858.617,0,0
233359,382.863,-857.94,0,0
233619,378.121,-857.208,0,0
233879,373.49,-856.466,0,0
234140,368.78,-855.743,0,0
234400,364.038,-854.973,0,0
234660.3,359.395,-854.048,0,0
234920.625,354.968,-853.131,0,0
235180.95,350.495,-852.216,0,0
235441.275,346.12,-851.499,0,0
235701.6,341.463,-850.7,0,0
235961.925,336.689,-849.795,0,0
236222.25,331.728,-848.79,0,0
236482.575,326.775,-847.457,0,0
236742.9,321.931,-845.959,0,0
237003.225,317.219,-844.335,0,0
237263.55,312.508,-842.787,0,0
237523.875,307.716,-841.162,0,0
237784.2,302.781,-839.328,0,0
238044.525,297.793,-837.254,0,0
238304.85,292.839,-834.854,0,0
238565.175,287.978,-832.224,0,0
238825.5,283.203,-829.202,0,0
239085.825,278.72,-825.934,0,0
239346.15,274.468,-822.378,0,0
239606.475,270.626,-818.788,0,0
239866.8,267.1,-815.149,0,0
240127.125,263.817,-811.583,0,0
240387.45,260.832,-808.047,0,0
240647.775,257.847,-804.619,0,0
240908.1,255.02,-801.264,0,0
241168.425,252.222,-797.856,0,0
241428.75,249.502,-794.397,0,0
241689.075,246.821,-790.809,0,0
241949.4,244.383,-786.877,0,0
242209.725,242.417,-782.992,0,0
242470.05,240.822,-779.252,0,0
242730.375,239.373,-775.834,0,0
242990.7,237.963,-772.542,0,0
243251.025,236.666,-769.283,0,0
243511.35,235.489,-766.065,0,0
243771.675,234.525,-763.048,0,0
244032.0,233.592,-760.184,0,0
244292.325,232.647,-757.51,0,0
244552.65,231.542,-754.847,0,0
244812.975,230.654,-752.286,0,0
245073.3,229.795,-749.937,0,0
245333.625,228.941,-747.644,0,0
245593.95,227.879,-745.55,0,0
245854.275,226.761,-743.222,0,0
246114.6,225.635,-740.952,0,0
246374.925,224.494,-738.608,0,0
246635.25,223.429,-736.227,0,0
246895.575,222.515,-733.816,0,0
247155.9,221.499,-731.407,0,0
247416.225,220.696,-729.067,0,0
247676.55,219.842,-726.723,0,0
247936.875,219.012,-724.363,0,0
248197.2,218.213,-721.817,0,0
248457.525,217.621,-719.286,0,0
248717.85,217.349,-716.718,0,0
248978.175,217.277,-714.427,0,0
249238.5,217.354,-712.379,0,0
249498.825,217.364,-710.537,0,0
249759.15,217.436,-708.828,0,0
250019.475,217.341,-707.472,0,0
250279.8,217.293,-706.272,0,0
250540,216.971,-705.357,0,0
250800,216.348,-704.368,0,0
251061,215.578,-703.426,0,0
251321,214.553,-702.443,0,0
251581,213.408,-701.333,0,0
251842,212.098,-700.169,0,0
252102,210.661,-698.839,0,0
252362,209.06,-697.428,0,0
252623,207.37,-695.711,0,0
252883,205.6,-693.754,0,0
253143,203.86,-691.497,0,0
253404,202.23,-689.027,0,0
253664,200.769,-686.327,0,0
253924,199.442,-683.436,0,0
254185,198.395,-680.422,0,0
254445,197.507,-677.235,0,0
254705,196.859,-674.028,0,0
254966,196.351,-670.785,0,0
255226,196.087,-667.452,0,0
255486,196.062,-664.05,0,0
255747,196.262,-660.502,0,0
256007,196.837,-657.048,0,0
256267,197.732,-653.542,0,0
256528,199.009,-650.235,0,0
256788,200.633,-647.166,0,0
257048,202.504,-644.427,0,0
257309,204.524,-642.085,0,0
257569,206.514,-640.067,0,0
257829,208.456,-638.28,0,0
258090,210.274,-636.787,0,0
258350,211.903,-635.355,0,0
258610,213.398,-633.892,0,0
258871,214.946,-632.234,0,0
259131,216.66,-630.451,0,0
259391,218.794,-628.715,0,0
259651,221.28,-627.106,0,0
259912,224.122,-625.871,0,0
260172,227.134,-625.068,0,0
260432,230.146,-624.714,0,0
260693,233.211,-624.686,0,0
260953,236.284,-625.058,0,0
261213,239.442,-625.856,0,0
261474,242.499,-627.333,0,0
261734,245.19,-629.368,0,0
261994,247.422,-631.788,0,0
262255,249.18,-634.504,0,0
262515,250.472,-637.411,0,0
262775,251.218,-640.408,0,0
263036,251.46,-643.407,0,0
263296,251.325,-646.311,0,0
263556,250.83,-649.148,0,0
263817,250.049,-651.882,0,0
264077,248.909,-654.59,0,0
264337,247.4,-657.203,0,0
264598,245.468,-659.655,0,0
264858,243.153,-661.763,0,0
265118,240.658,-663.561,0,0
265379,237.953,-665.002,0,0
265639,235.13,-666.109,0,0
265899,232.206,-666.897,0,0
266160,229.205,-667.415,0,0
266420,226.14,-667.577,0,0
266680.25,223.118,-667.442,0,0
266940.575,220.13,-666.929,0,0
267200.9,217.27,-666.128,0,0
267461.225,214.527,-665.114,0,0
267721.55,211.909,-663.853,0,0
267981.875,209.476,-662.348,0,0
268242.2,207.32,-660.662,0,0
268502.525,205.386,-658.8,0,0
268762.85,203.666,-656.935,0,0
269023.175,202.248,-654.998,0,0
269283.5,201.028,-653.176,0,0
269543.825,199.905,-651.404,0,0
269804.15,198.813,-649.711,0,0
270064.475,197.768,-647.969,0,0
270324.8,196.772,-646.162,0,0
270585.125,195.9,-644.271,0,0
270845.45,195.243,-642.313,0,0
271105.775,194.724,-640.381,0,0
271366.1,194.462,-638.491,0,0
271626.425,194.247,-636.817,0,0
271886.75,194.134,-635.152,0,0
272147.075,194.143,-633.6,0,0
272407.4,194.209,-632.157,0,0
272667.725,194.184,-630.929,0,0
272928.05,194.039,-629.792,0,0
273188.375,193.761,-628.601,0,0
273448.7,193.356,-627.232,0,0
273709.025,193.04,-625.632,0,0
273969.35,192.912,-623.951,0,0
274229.675,192.89,-622.182,0,0
274490.0,193.1,-620.397,0,0
274750.325,193.495,-618.663,0,0
275010.65,194.056,-616.893,0,0
275270.975,194.834,-615.17,0,0
275531.3,195.808,-613.586,0,0
275791.625,197.006,-612.108,0,0
276051.95,198.406,-610.834,0,0
276312.275,199.908,-609.798,0,0
276572.6,201.512,-608.977,0,0
276832.925,203.233,-608.394,0,0
277093.25,205.053,-608.15,0,0
277353.575,206.806,-608.258,0,0
277613.9,208.402,-608.666,0,0
277874.225,209.84,-609.251,0,0
278134.55,211.179,-609.985,0,0
278394.875,212.369,-610.938,0,0
278655.2,213.42,-612.078,0,0
278915.525,214.23,-613.391,0,0
279175.85,214.852,-614.803,0,0
279436.175,215.176,-616.332,0,0
279696.5,215.286,-617.887,0,0
279956.825,215.146,-619.472,0,0
280217.15,214.817,-621.078,0,0
280477.475,214.175,-622.61,0,0
280737.8,213.305,-624.002,0,0
280998.125,212.301,-625.283,0,0
281258.45,211.211,-626.387,0,0
281518.775,210.074,-627.448,0,0
281779.1,208.799,-628.464,0,0
282039.425,207.357,-629.376,0,0
282299.75,205.796,-630.153,0,0
282560,204.137,-630.737,0,0
282820,202.468,-631.2,0,0
283081,200.755,-631.518,0,0
283341,199.046,-631.684,0,0
283601,197.244,-631.764,0,0
283862,195.468,-631.703,0,0
284122,193.726,-631.531,0,0
284382,191.977,-631.224,0,0
284643,190.201,-630.805,0,0
284903,188.459,-630.238,0,0
285163,186.776,-629.583,0,0
285424,185.107,-628.788,0,0
285684,183.518,-627.876,0,0
285944,182.015,-626.795,0,0
286205,180.617,-625.629,0,0
286465,179.38,-624.373,0,0
286725,178.234,-623.051,0,0
286986,177.223,-621.678,0,0
287246,176.371,-620.231,0,0
287506,175.703,-618.753,0,0
287767,175.265,-617.243,0,0
288027,175.016,-615.896,0,0
288287,174.927,-614.716,0,0
288548,174.897,-613.71,0,0
288808,174.852,-612.831,0,0
289068,174.883,-612.073,0,0
289329,174.829,-611.467,0,0
289589,174.768,-610.994,0,0
289849,174.584,-610.586,0,0
290109,174.284,-610.203,0,0
290370,173.942,-609.75,0,0
290630,173.578,-609.331,0,0
290890,173.262,-608.938,0,0
291151,172.848,-608.6,0,0
291411,172.344,-608.291,0,0
291671,171.725,-607.946,0,0
291932,171.031,-607.505,0,0
292192,170.232,-606.93,0,0
292452,169.483,-606.215,0,0
292713,168.775,-605.348,0,0
292973,168.18,-604.387,0,0
293233,167.721,-603.324,0,0
293494,167.421,-602.203,0,0
293754,167.278,-601.068,0,0
294014,167.352,-600.005,0,0
294275,167.569,-599.044,0,0
294535,167.887,-598.23,0,0
294795,168.277,-597.506,0,0
295056,168.779,-596.933,0,0
295316,169.278,-596.533,0,0
295576,169.853,-596.311,0,0
295837,170.372,-596.254,0,0
296097,170.868,-596.422,0,0
296357,171.219,-596.706,0,0
296618,171.423,-597.088,0,0
296878,171.53,-597.551,0,0
297138,171.529,-598.086,0,0
297399,171.406,-598.688,0,0
297659,171.155,-599.336,0,0
297919,170.737,-599.993,0,0
298180,170.173,-600.651,0,0
298440,169.469,-601.241,0,0
298700.2,168.678,-601.771,0,0
298960.525,167.768,-602.232,0,0
299220.85,166.838,-602.627,0,0
299481.175,165.86,-602.95,0,0
299741.5,164.825,-603.236,0,0
300001.825,163.751,-603.472,0,0
300262.15,162.627,-603.652,0,0
300522.475,161.456,-603.777,0,0
300782.8,160.239,-603.866,0,0
301043.125,159.01,-603.872,0,0
301303.45,157.731,-603.831,0,0
301563.775,156.445,-603.719,0,0
301824.1,155.071,-603.53,0,0
302084.425,153.718,-603.266,0,0
302344.75,152.343,-602.904,0,0
302605.075,151.038,-602.443,0,0
302865.4,149.747,-601.918,0,0
303125.725,148.505,-601.367,0,0
303386.05,147.29,-600.782,0,0
303646.375,146.083,-600.169,0,0
303906.7,144.873,-599.522,0,0
304167.025,143.684,-598.814,0,0
304427.35,142.496,-598.063,0,0
304687.675,141.361,-597.254,0,0
304948.0,140.238,-596.356,0,0
305208.325,139.18,-595.469,0,0
305468.65,138.187,-594.494,0,0
305728.975,137.196,-593.517,0,0
305989.3,136.271,-592.488,0,0
306249.625,135.427,-591.407,0,0
306509.95,134.669,-590.305,0,0
306770.275,133.975,-589.203,0,0
307030.6,133.38,-588.121,0,0
307290.925,132.89,-587.088,0,0
307551.25,132.445,-586.095,0,0
307811.575,132.04,-585.14,0,0
308071.9,131.685,-584.272,0,0
308332.225,131.365,-583.465,0,0
308592.55,131.035,-582.743,0,0
308852.875,130.691,-582.072,0,0
309113.2,130.329,-581.457,0,0
309373.525,129.938,-580.895,0,0
309633.85,129.517,-580.375,0,0
309894.175,129.011,-579.874,0,0
310154.5,128.492,-579.383,0,0
310414.825,127.921,-578.898,0,0
310675.15,127.301,-578.436,0,0
310935.475,126.604,-577.937,0,0
311195.8,125.907,-577.411,0,0
311456.125,125.158,-576.872,0,0
311716.45,124.362,-576.303,0,0
311976.775,123.542,-575.72,0,0
312237.1,122.652,-575.082,0,0
312497.425,121.715,-574.358,0,0
312757.75,120.736,-573.539,0,0
313018.075,119.802,-572.609,0,0
313278.4,118.913,-571.603,0,0
313538.725,118.069,-570.507,0,0
313799.05,117.295,-569.366,0,0
314059.375,116.568,-568.175,0,0
314319.7,115.907,-566.938,0,0
314580,115.35,-565.679,0,0
314840,114.771,-564.349,0,0
315101,114.398,-562.924,0,0
315361,114.079,-561.63,0,0
315621,113.88,-560.197,0,0
315882,113.894,-558.937,0,0
316142,113.922,-557.615,0,0
316402,113.954,-556.504,0,0
316663,114.113,-555.414,0,0
316923,114.416,-554.512,0,0
317183,114.667,-553.691,0,0
317444,114.841,-552.822,0,0
317704,115.059,-552.095,0,0
317964,115.178,-551.455,0,0
318225,115.332,-550.885,0,0
318485,115.334,-550.387,0,0
318745,115.389,-549.761,0,0
319006,115.375,-549.222,0,0
319266,115.357,-548.707,0,0
319526,115.291,-548.068,0,0
319787,115.21,-547.581,0,0
320047,115.234,-547.009,0,0
320307,115.197,-546.436,0,0
320567,115.181,-545.824,0,0
320828,115.212,-545.236,0,0
321088,115.238,-544.68,0,0
321348,115.316,-544.072,0,0
321609,115.478,-543.559,0,0
321869,115.719,-543.102,0,0
322129,116.003,-542.643,0,0
322390,116.227,-542.345,0,0
322650,116.484,-542.257,0,0
322910,116.695,-542.117,0,0
323171,116.866,-542.101,0,0
323431,116.984,-542.209,0,0
323691,116.965,-542.367,0,0
323952,116.846,-542.492,0,0
324212,116.728,-542.711,0,0
324472,116.479,-542.876,0,0
324733,116.128,-543.079,0,0
324993,115.688,-543.207,0,0
325253,115.237,-543.504,0,0
325514,114.637,-543.636,0,0
325774,113.987,-543.834,0,0
326034,113.353,-543.813,0,0
326295,112.628,-543.873,0,0
326555,111.864,-543.863,0,0
326815,111.013,-543.816,0,0
327076,110.142,-543.7,0,0
327336,109.302,-543.575,0,0
327596,108.333,-543.33,0,0
327857,107.386,-543.054,0,0
328117,106.596,-542.66,0,0
328377,105.663,-542.29,0,0
328638,104.822,-541.936,0,0
328898,103.986,-541.453,0,0
329158,103.104,-541.067,0,0
329419,102.236,-540.51,0,0
329679,101.364,-539.989,0,0
329939,100.585,-539.475,0,0
330200,99.7822,-538.892,0,0
330460,98.9897,-538.345,0,0
330720.15,98.1285,-537.826,0,0
330980.475,97.3589,-537.251,0,0
331240.8,96.4426,-536.688,0,0
331501.125,95.6781,-536.115,0,0
331761.45,94.7093,-535.487,0,0
332021.775,93.8475,-534.774,0,0
332282.1,92.9156,-534.083,0,0
332542.425,92.1007,-533.348,0,0
332802.75,91.2413,-532.557,0,0
333063.075,90.3521,-531.781,0,0
333323.4,89.4918,-530.973,0,0
333583.725,88.5919,-530.109,0,0
333844.05,87.7732,-529.214,0,0
334104.375,86.8411,-528.236,0,0
334364.7,86.0145,-527.25,0,0
334625.025,85.2384,-526.097,0,0
334885.35,84.4284,-525.019,0,0
335145.675,83.6865,-523.856,0,0
335406.0,83.0308,-522.798,0,0
335666.325,82.38,-521.559,0,0
335926.65,81.757,-520.381,0,0
336186.975,81.2554,-519.176,0,0
336447.3,80.6905,-517.985,0,0
336707.625,80.2606,-516.768,0,0
336967.95,79.8621,-515.569,0,0
337228.275,79.443,-514.326,0,0
337488.6,78.9835,-513.15,0,0
337748.925,78.6234,-512.015,0,0
338009.25,78.2308,-510.717,0,0
338269.575,77.9004,-509.472,0,0
338529.9,77.5771,-508.255,0,0
338790.225,77.2882,-506.957,0,0
339050.55,77.0632,-505.651,0,0
339310.875,76.8969,-504.315,0,0
339571.2,76.7239,-502.979,0,0
339831.525,76.6472,-501.588,0,0
340091.85,76.6552,-500.19,0,0
340352.175,76.7563,-498.866,0,0
340612.5,76.8702,-497.571,0,0
340872.825,77.179,-496.23,0,0
341133.15,77.4364,-494.978,0,0
341393.475,77.8102,-493.779,0,0
341653.8,78.205,-492.63,0,0
341914.125,78.7043,-491.601,0,0
342174.45,79.2592,-490.68,0,0
342434.775,79.7876,-489.805,0,0
342695.1,80.3046,-488.978,0,0
342955.425,80.8859,-488.33,0,0
343215.75,81.2933,-487.763,0,0
343476.075,81.8017,-487.236,0,0
343736.4,82.2114,-486.679,0,0
343996.725,82.5465,-486.285,0,0
344257.05,82.8858,-485.913,0,0
344517.375,83.1312,-485.546,0,0
344777.7,83.312,-485.28,0,0
345038.025,83.4499,-485,0,0
345298.35,83.4979,-484.641,0,0
345558.675,83.5138,-484.363,0,0
345819.0,83.4298,-483.978,0,0
346079.325,83.3552,-483.561,0,0
346339.65,83.316,-483.106,0,0
346599.975,83.1807,-482.697,0,0
346860,83.1141,-482.215,0,0
347121,82.9571,-481.681,0,0
347381,82.9306,-481.221,0,0
347641,82.7663,-480.713,0,0
347902,82.6927,-480.197,0,0
348162,82.4954,-479.628,0,0
348422,82.3616,-479.055,0,0
348683,82.2161,-478.407,0,0
348943,82.153,-477.774,0,0
349203,82.0085,-477.108,0,0
349464,81.9855,-476.38,0,0
349724,81.9807,-475.7,0,0
349984,81.9962,-474.916,0,0
350245,82.1088,-474.26,0,0
350505,82.2391,-473.507,0,0
350765,82.4277,-472.826,0,0
351025,82.7688,-472.168,0,0
351286,83.0068,-471.592,0,0
351546,83.376,-471.065,0,0
351806,83.7845,-470.663,0,0
352067,84.1141,-470.409,0,0
352327,84.3844,-470.123,0,0
352587,84.5863,-470.017,0,0
352848,84.7387,-469.988,0,0
353108,84.853,-469.864,0,0
353368,84.8232,-469.82,0,0
353629,84.7433,-469.803,0,0
353889,84.5005,-469.721,0,0
354149,84.2424,-469.633,0,0
354410,84.0126,-469.464,0,0
354670,83.5583,-469.205,0,0
354930,83.2105,-468.924,0,0
355191,82.9211,-468.58,0,0
355451,82.5466,-468.13,0,0
355711,82.1408,-467.728,0,0
355972,81.8425,-467.289,0,0
356232,81.5497,-466.83,0,0
356492,81.1938,-466.343,0,0
356753,80.8822,-465.841,0,0
357013,80.566,-465.313,0,0
357273,80.1691,-464.78,0,0
357534,79.902,-464.174,0,0
357794,79.5377,-463.508,0,0
358054,79.2439,-462.841,0,0
358315,79.094,-462.198,0,0
358575,78.8284,-461.465,0,0
358835,78.6676,-460.724,0,0
359096,78.544,-459.978,0,0
359356,78.4924,-459.283,0,0
359616,78.4516,-458.597,0,0
359877,78.3541,-457.867,0,0
360137,78.4308,-457.231,0,0
360397,78.4524,-456.613,0,0
360658,78.4555,-456.004,0,0
360918,78.4703,-455.492,0,0
361178,78.46,-454.937,0,0
361438,78.4618,-454.361,0,0
361699,78.4171,-453.8,0,0
361959,78.3461,-453.315,0,0
362219,78.3267,-452.684,0,0
362480,78.2792,-452.111,0,0
362740.1,78.293,-451.466,0,0
363000.425,78.2784,-450.862,0,0
363260.75,78.2649,-450.213,0,0
363521.075,78.3742,-449.566,0,0
363781.4,78.4795,-448.857,0,0
364041.725,78.6799,-448.227,0,0
364302.05,78.9674,-447.621,0,0
364562.375,79.2717,-447.137,0,0
364822.7,79.6164,-446.718,0,0
365083.025,79.9072,-446.392,0,0
365343.35,80.2536,-446.118,0,0
365603.675,80.5356,-445.993,0,0
365864.0,80.6747,-445.955,0,0
366124.325,80.7942,-445.922,0,0
366384.65,80.8027,-445.935,0,0
366644.975,80.7034,-445.916,0,0
366905.3,80.4855,-445.864,0,0
367165.625,80.2359,-445.785,0,0
367425.95,79.8565,-445.702,0,0
367686.275,79.4722,-445.499,0,0
367946.6,79.027,-445.273,0,0
368206.925,78.4825,-444.985,0,0
368467.25,77.99,-444.524,0,0
368727.575,77.445,-443.943,0,0
368987.9,76.9263,-443.296,0,0
369248.225,76.4955,-442.563,0,0
369508.55,76.1258,-441.647,0,0
369768.875,75.8641,-440.773,0,0
370029.2,75.8499,-439.843,0,0
370289.525,75.8793,-438.906,0,0
370549.85,76.0149,-438.033,0,0
370810.175,76.2598,-437.264,0,0
371070.5,76.6476,-436.564,0,0
371330.825,77.0522,-436.023,0,0
371591.15,77.4704,-435.626,0,0
371851.475,77.8148,-435.329,0,0
372111.8,78.1207,-435.128,0,0
372372.125,78.3028,-435.084,0,0
372632.45,78.4476,-435.03,0,0
372892.775,78.4379,-434.983,0,0
373153.1,78.2983,-434.993,0,0
373413.425,78.0872,-434.974,0,0
373673.75,77.7518,-434.806,0,0
373934.075,77.3615,-434.605,0,0
374194.4,76.9667,-434.287,0,0
374454.725,76.5378,-433.928,0,0
374715.05,76.1781,-433.509,0,0
374975.375,75.789,-433.051,0,0
375235.7,75.4448,-432.498,0,0
375496.025,74.9997,-431.942,0,0
375756.35,74.6976,-431.301,0,0
376016.675,74.4183,-430.615,0,0
376277.0,74.1542,-429.855,0,0
376537.325,73.9792,-429.093,0,0
376797.65,73.8227,-428.277,0,0
377057.975,73.8035,-427.517,0,0
377318.3,73.7793,-426.804,0,0
377578.625,73.8564,-426.059,0,0
377838.95,73.922,-425.327,0,0
378099.275,74.0505,-424.68,0,0
378359.6,74.1994,-424.028,0,0
378619.925,74.3592,-423.434,0,0
378880,74.5368,-422.842,0,0
379141,74.6897,-422.33,0,0
379401,74.9621,-421.744,0,0
379661,75.1523,-421.3,0,0
379922,75.371,-420.922,0,0
380182,75.6293,-420.594,0,0
380442,75.7996,-420.264,0,0
380703,75.9559,-419.943,0,0
380963,76.0758,-419.74,0,0
381223,76.1294,-419.432,0,0
381483,76.1744,-419.178,0,0
381744,76.2107,-418.886,0,0
382004,76.2099,-418.61,0,0
382264,76.2266,-418.313,0,0
382525,76.2246,-418.065,0,0
382785,76.2142,-417.842,0,0
383045,76.1558,-417.57,0,0
383306,76.0984,-417.336,0,0
383566,76.0043,-417.09,0,0
383826,75.9152,-416.797,0,0
384087,75.7054,-416.624,0,0
384347,75.5192,-416.331,0,0
384607,75.3417,-416.057,0,0
384868,75.134,-415.757,0,0
385128,74.8254,-415.377,0,0
385388,74.5759,-415.039,0,0
385649,74.3175,-414.62,0,0
385909,74.0103,-414.204,0,0
386169,73.7909,-413.705,0,0
386430,73.548,-413.237,0,0
386690,73.3032,-412.76,0,0
386950,73.1165,-412.223,0,0
387211,72.8785,-411.664,0,0
387471,72.6706,-411.121,0,0
387731,72.4091,-410.546,0,0
387992,72.1742,-409.923,0,0
388252,71.9948,-409.331,0,0
388512,71.7851,-408.665,0,0
388773,71.5838,-407.962,0,0
389033,71.479,-407.256,0,0
389293,71.3632,-406.505,0,0
389554,71.2161,-405.733,0,0
389814,71.1502,-404.933,0,0
390074,71.1896,-404.125,0,0
390335,71.2146,-403.33,0,0
390595,71.3078,-402.548,0,0
390855,71.389,-401.716,0,0
391116,71.5786,-400.871,0,0
391376,71.7794,-400.135,0,0
391636,72.0425,-399.314,0,0
391896,72.3007,-398.596,0,0
392157,72.6523,-397.871,0,0
392417,73.0611,-397.132,0,0
392677,73.4565,-396.506,0,0
392938,73.9656,-395.878,0,0
393198,74.4183,-395.3,0,0
393458,74.9635,-394.789,0,0
393719,75.446,-394.366,0,0
393979,75.9749,-393.979,0,0
394239,76.4672,-393.632,0,0
394500,76.9852,-393.321,0,0
394760.05,77.4408,-393.082,0,0
395020.375,77.9132,-392.868,0,0
395280.7,78.3717,-392.684,0,0
395541.025,78.788,-392.587,0,0
395801.35,79.1575,-392.456,0,0
396061.675,79.5545,-392.413,0,0
396322.0,79.9232,-392.34,0,0
396582.325,80.2292,-392.334,0,0
396842.65,80.5421,-392.345,0,0
397102.975,80.8156,-392.387,0,0
397363.3,81.0399,-392.472,0,0
397623.625,81.2083,-392.565,0,0
397883.95,81.355,-392.665,0,0
398144.275,81.445,-392.83,0,0
398404.6,81.4715,-392.97,0,0
398664.925,81.4542,-393.121,0,0
398925.25,81.3865,-393.184,0,0
399185.575,81.262,-393.289,0,0
399445.9,81.1346,-393.347,0,0
399706.225,80.8728,-393.365,0,0
399966.55,80.7346,-393.336,0,0
400006.6,80.6882,-393.344,0,0