File: Accelerated corrosion test data/2025-10-10_06-00-03/sample_1.csv
Frequency (Hz),Impedance (ohms),Phase (Radians),Temperature (C),Humidity (%)
10000.0,240.477,-12196.7,0,0
10260.325,239.065,-11882.1,0,0
10520.65,230.254,-11603.5,0,0
10780.975,226.061,-11319.4,0,0
11041.3,219.903,-11059.3,0,0
11301.625,214.177,-10802.8,0,0
11561.95,210.746,-10558.8,0,0
11822.275,207.516,-10321.5,0,0
12082.6,224.953,-10090.7,0,0
12342.925,211.089,-9915.18,0,0
12603.25,195.037,-9704.04,0,0
12863.575,191.081,-9502.48,0,0
13123.9,200.026,-9309.21,0,0
13384.225,185.419,-9139.19,0,0
13644.55,181.085,-8958.81,0,0
13904.875,181.237,-8781.32,0,0
14165.2,192.201,-8645.47,0,0
14425.525,212.222,-8473.07,0,0
14685.8,199.834,-8312.56,0,0
14946.175,177.694,-8213.95,0,0
15206.5,182.784,-8048.83,0,0
15466.825,174.178,-7932.51,0,0
15727.15,173.708,-7802.43,0,0
15987.5,160.591,-7673.4,0,0
16247.8,157.298,-7547.24,0,0
16508.125,155.642,-7423.82,0,0
16768.45,159.773,-7306.84,0,0
17028.775,163.212,-7199.64,0,0
17289.1,153.78,-7096.99,0,0
17549.425,153.766,-6993.47,0,0
17809.75,146.681,-6889.45,0,0
18070.075,148.063,-6788.6,0,0
18330.4,141.406,-6693.72,0,0
18590.725,137.961,-6599.55,0,0
18851.05,138.235,-6501.53,0,0
19111.375,135.711,-6420.46,0,0
19371.7,133.156,-6328.28,0,0
19632.025,132.14,-6239.88,0,0
19892.35,136.169,-6154.4,0,0
20152.675,135.446,-6066.87,0,0
20413.0,155.394,-5978.43,0,0
20673.3,168.32,-5937.31,0,0
20933.65,151.114,-5867.23,0,0
21193.975,160.194,-5805.46,0,0
21454.3,142.763,-5730.78,0,0
21714.625,138.354,-5662.9,0,0
21974.9,137.609,-5579.46,0,0
22235.275,174.208,-5534.84,0,0
22495.6,142.28,-5494.91,0,0
22755.925,127.318,-5425.48,0,0
23016.25,122.871,-5358.66,0,0
23276.6,119.045,-5297.31,0,0
23536.9,115.49,-5236.52,0,0
23797.225,112.85,-5175.38,0,0
24057.55,114.927,-5114.82,0,0
24317.875,112.709,-5066.19,0,0
24578.2,111.173,-5006.68,0,0
24838.525,110.797,-4956.61,0,0
25098.85,110.766,-4902.22,0,0
25359.175,105.725,-4853.6,0,0
25619.5,105.092,-4802.31,0,0
25879.8,103.515,-4751.16,0,0
26140.1,103.812,-4701.68,0,0
26400.5,102.435,-4652.23,0,0
26660.8,105.255,-4601.79,0,0
26921.1,114.285,-4554.67,0,0
27181.4,120.681,-4521.11,0,0
27441.8,111.459,-4486.62,0,0
27702.1,103.304,-4437.95,0,0
27962.4,111.14,-4388.33,0,0
28222.7,110.769,-4350,0,0
28483.1,120.931,-4307.13,0,0
28743.4,130.64,-4288.34,0,0
29003.7,117.735,-4252.4,0,0
29264,118.926,-4217.04,0,0
29524.4,107.53,-4183.93,0,0
29784.7,105.465,-4141.78,0,0
30045,101.875,-4109.53,0,0
30305.3,100.195,-4070.83,0,0
30565.7,97.0052,-4032.43,0,0
30826,101.085,-3997.35,0,0
31086.3,103.408,-3968.76,0,0
31346.6,99.7611,-3940.05,0,0
31607,94.0233,-3902.64,0,0
31867.3,97.2629,-3869.14,0,0
32127.6,98.2857,-3838.49,0,0
32387.9,98.3755,-3812.74,0,0
32648.3,94.1883,-3780.71,0,0
32908.6,96.5838,-3752.43,0,0
33168.9,91.3747,-3724.91,0,0
33429.2,88.7803,-3695.72,0,0
33689.6,86.3192,-3666.05,0,0
33949.9,85.7111,-3634.97,0,0
34210.2,86.3979,-3609.12,0,0
34470.5,83.475,-3581.82,0,0
34730.9,81.9845,-3553.74,0,0
34991.2,81.3327,-3526.77,0,0
35251.5,80.4346,-3500.11,0,0
35511.8,79.4333,-3473.68,0,0
35772.2,79.4645,-3447.97,0,0
36032.5,77.9292,-3422.94,0,0
36292.8,77.377,-3397.39,0,0
36553.1,76.4722,-3372.54,0,0
36813.5,76.0923,-3347.81,0,0
37073.8,76.3149,-3324.11,0,0
37334.1,75.3016,-3300.7,0,0
37594.4,74.9795,-3277.03,0,0
37854.8,74.2243,-3254.58,0,0
38115.1,73.6178,-3231.61,0,0
38375.4,73.4121,-3208.79,0,0
38635.7,73.0339,-3187.25,0,0
38896.1,72.4916,-3165.15,0,0
39156.4,72.3837,-3142.87,0,0
39416.7,72.3145,-3122.81,0,0
39677,71.3206,-3101.48,0,0
39937.4,71.2087,-3080.38,0,0
40197.7,71.2355,-3059.99,0,0
40458,70.8744,-3039.69,0,0
40718.3,70.8603,-3018.99,0,0
40978.7,72.3109,-2999.76,0,0
41239,72.3199,-2981.64,0,0
41499.3,71.6678,-2963.17,0,0
41759.6,70.899,-2945.06,0,0
42020,70.4707,-2925.56,0,0
42280.275,70.3318,-2907.35,0,0
42540.6,70.8281,-2889.56,0,0
42800.925,70.2208,-2872.33,0,0
43061.25,69.4032,-2854.44,0,0
43321.575,68.979,-2837.29,0,0
43581.9,68.743,-2820.03,0,0
43842.225,68.0745,-2802.56,0,0
44102.55,68.1672,-2785.01,0,0
44362.875,68.9825,-2768.18,0,0
44623.2,69.1629,-2752.78,0,0
44883.525,68.3892,-2736.77,0,0
45143.85,68.7009,-2721.22,0,0
45404.175,69.1364,-2705.36,0,0
45664.5,67.8406,-2690.73,0,0
45924.825,66.93,-2675.03,0,0
46185.15,66.4752,-2660.01,0,0
46445.475,65.6529,-2644.97,0,0
46705.8,65.1718,-2629.44,0,0
46966.125,65.0066,-2614.83,0,0
47226.45,64.7139,-2599.6,0,0
47486.775,64.6834,-2585.51,0,0
47747.1,63.9536,-2571.24,0,0
48007.425,63.682,-2557.11,0,0
48267.75,63.7007,-2542.76,0,0
48528.075,62.7244,-2529.42,0,0
48788.4,61.6513,-2515.02,0,0
49048.725,61.5006,-2500.99,0,0
49309.05,61.6791,-2487.18,0,0
49569.375,61.4827,-2474.09,0,0
49829.7,61.1161,-2461.08,0,0
50090.025,60.5359,-2448.03,0,0
50350.35,59.9275,-2434.55,0,0
50610.675,59.6537,-2421.18,0,0
50871.0,59.3496,-2408.34,0,0
51131.325,59.5399,-2395.56,0,0
51391.65,59.4366,-2383.36,0,0
51651.975,58.7474,-2370.96,0,0
51912.3,58.528,-2358.51,0,0
52172.625,58.3362,-2346.22,0,0
52432.95,58.1888,-2333.98,0,0
52693.275,57.8991,-2321.95,0,0
52953.6,57.7768,-2310.12,0,0
53213.925,57.8636,-2298.38,0,0
53474.25,57.6191,-2286.84,0,0
53734.575,57.4486,-2275.41,0,0
53994.9,57.3517,-2264.29,0,0
54255.225,56.925,-2253.06,0,0
54515.55,56.5448,-2241.85,0,0
54775.875,56.1948,-2230.53,0,0
55036.2,56.0004,-2219.33,0,0
55296.525,56.1797,-2208.39,0,0
55556.85,55.9227,-2197.69,0,0
55817.175,55.7337,-2187.2,0,0
56077.5,55.222,-2176.43,0,0
56337.825,55.0706,-2165.52,0,0
56598.15,55.1291,-2155.02,0,0
56858.475,54.9888,-2144.7,0,0
57118.8,54.7969,-2134.55,0,0
57379.125,54.6875,-2124.15,0,0
57639.45,54.8746,-2114.02,0,0
57899.775,54.7735,-2104.05,0,0
58160.1,54.7077,-2094.21,0,0
58420.4,54.6982,-2084.52,0,0
58680.7,54.464,-2074.78,0,0
58941.1,54.418,-2064.96,0,0
59201.4,54.6062,-2055.37,0,0
59461.7,54.6329,-2046.25,0,0
59722,54.2823,-2036.82,0,0
59982.4,54.3914,-2027.38,0,0
60242.7,54.2641,-2018.22,0,0
60503,54.3149,-2008.97,0,0
60763.3,54.7066,-2000.24,0,0
61023.7,54.1929,-1991.79,0,0
61284,53.8127,-1982.81,0,0
61544.3,53.4065,-1973.74,0,0
61804.6,53.5468,-1964.9,0,0
62065,53.3158,-1956.39,0,0
62325.3,52.9707,-1947.43,0,0
62585.6,52.7597,-1938.71,0,0
62845.9,52.7862,-1930.04,0,0
63106.3,52.8166,-1921.31,0,0
63366.6,52.6233,-1912.97,0,0
63626.9,52.6436,-1904.42,0,0
63887.2,52.6043,-1896.02,0,0
64147.6,52.8145,-1887.51,0,0
64407.9,52.823,-1879.2,0,0
64668.2,53.1933,-1870.88,0,0
64928.5,53.7519,-1862.63,0,0
65188.9,54.1375,-1854.83,0,0
65449.2,54.7696,-1847.11,0,0
65709.5,55.4028,-1840.17,0,0
65969.8,55.3025,-1833.01,0,0
66230.2,55.0797,-1825.78,0,0
66490.5,54.9519,-1818.45,0,0
66750.8,54.9892,-1811.22,0,0
67011.1,54.487,-1804.3,0,0
67271.5,53.8195,-1796.53,0,0
67531.8,54.3264,-1788.78,0,0
67792.1,54.6334,-1781.79,0,0
68052.4,54.3036,-1775.48,0,0
68312.8,53.6308,-1768.16,0,0
68573.1,53.4827,-1760.97,0,0
68833.4,53.7529,-1753.96,0,0
69093.7,53.4867,-1747.43,0,0
69354.1,53.0525,-1740.44,0,0
69614.4,52.8715,-1733.78,0,0
69874.7,52.2702,-1727.08,0,0
70135,51.8616,-1720.2,0,0
70395.4,51.2139,-1713.28,0,0
70655.7,51.0091,-1706.23,0,0
70916,50.7136,-1699.35,0,0
71176.3,50.4972,-1692.56,0,0
71436.7,50.4405,-1685.83,0,0
71697,49.9544,-1679.29,0,0
71957.3,49.3698,-1672.48,0,0
72217.6,48.9659,-1665.91,0,0
72478,48.71,-1658.85,0,0
72738.3,48.5049,-1651.93,0,0
72998.6,48.4983,-1645.02,0,0
73258.9,48.5794,-1638.47,0,0
73519.3,48.4128,-1632.04,0,0
73779.6,48.2528,-1625.38,0,0
74039.9,48.3107,-1618.79,0,0
74300.225,48.3658,-1612.36,0,0
74560.55,48.3761,-1605.88,0,0
74820.875,48.4735,-1599.44,0,0
75081.2,48.6483,-1593.21,0,0
75341.525,48.7759,-1587.01,0,0
75601.85,48.6158,-1580.67,0,0
75862.175,48.7898,-1574.33,0,0
76122.5,49.0944,-1568.17,0,0
76382.825,49.484,-1562.13,0,0
76643.15,49.6526,-1556.27,0,0
76903.475,49.6682,-1550.27,0,0
77163.8,49.9732,-1544.33,0,0
77424.125,50.2327,-1538.59,0,0
77684.45,50.342,-1532.88,0,0
77944.775,50.5459,-1527.01,0,0
78205.1,50.8756,-1521.09,0,0
78465.425,51.4899,-1515.49,0,0
78725.75,51.9415,-1510.35,0,0
78986.075,52.005,-1505.2,0,0
79246.4,51.9772,-1500.05,0,0
79506.725,51.912,-1494.66,0,0
79767.05,51.664,-1489.57,0,0
80027.375,51.4835,-1484.07,0,0
80287.7,51.2789,-1478.83,0,0
80548.025,50.8464,-1473.36,0,0
80808.35,50.6445,-1467.71,0,0
81068.675,50.475,-1461.96,0,0
81329.0,50.7164,-1456.34,0,0
81589.325,50.8598,-1450.97,0,0
81849.65,50.962,-1445.57,0,0
82109.975,51.11,-1440.13,0,0
82370.3,51.2722,-1434.87,0,0
82630.625,51.2935,-1429.59,0,0
82890.95,51.3851,-1424.17,0,0
83151.275,51.6457,-1418.72,0,0
83411.6,51.9827,-1413.54,0,0
83671.925,52.2519,-1408.32,0,0
83932.25,52.5465,-1403.09,0,0
84192.575,52.8019,-1397.97,0,0
84452.9,53.1606,-1392.89,0,0
84713.225,53.5706,-1387.87,0,0
84973.55,54.0442,-1382.77,0,0
85233.875,54.7476,-1377.98,0,0
85494.2,55.1248,-1373.42,0,0
85754.525,55.3741,-1368.81,0,0
86014.85,55.5839,-1364.17,0,0
86275.175,55.7509,-1359.53,0,0
86535.5,55.9373,-1354.83,0,0
86795.825,56.1473,-1350.23,0,0
87056.15,56.1539,-1345.47,0,0
87316.475,56.5444,-1340.85,0,0
87576.8,56.6445,-1336.44,0,0
87837.125,56.5111,-1331.94,0,0
88097.45,56.3566,-1327.1,0,0
88357.775,56.4524,-1321.94,0,0
88618.1,56.8089,-1316.93,0,0
88878.425,57.2493,-1312.12,0,0
89138.75,57.7176,-1307.2,0,0
89399.075,58.1334,-1302.45,0,0
89659.4,58.762,-1297.51,0,0
89919.725,59.4496,-1292.82,0,0
90180,60.3717,-1288.16,0,0
90440.4,61.0619,-1283.79,0,0
90700.7,61.6567,-1279.07,0,0
90961,62.4965,-1274.3,0,0
91221.3,63.9157,-1269.83,0,0
91481.7,65.4118,-1265.69,0,0
91742,66.7931,-1261.73,0,0
92002.3,67.969,-1258.01,0,0
92262.6,69.0405,-1254.23,0,0
92523,70.279,-1250.35,0,0
92783.3,72.0595,-1246.74,0,0
93043.6,73.8333,-1243.96,0,0
93303.9,74.9609,-1241.14,0,0
93564.3,76.6661,-1238.47,0,0
93824.6,78.8492,-1237.25,0,0
94084.9,78.9434,-1237.64,0,0
94345.2,76.5003,-1237.12,0,0
94605.6,73.6999,-1233.87,0,0
94865.9,72.7435,-1230.42,0,0
95126.2,71.1889,-1227.29,0,0
95386.5,69.8697,-1223.54,0,0
95646.9,68.4723,-1219.75,0,0
95907.2,67.1342,-1215.43,0,0
96167.5,66.3978,-1210.74,0,0
96427.8,66.5467,-1206.34,0,0
96688.2,66.2903,-1202.88,0,0
96948.5,65.4278,-1199.05,0,0
97208.8,64.8032,-1194.9,0,0
97469.1,64.4094,-1190.52,0,0
97729.5,64.2316,-1186.24,0,0
97989.8,64.2289,-1182,0,0
98250.1,64.4351,-1178,0,0
98510.4,64.5454,-1174.36,0,0
98770.8,64.2131,-1170.71,0,0
99031.1,63.8362,-1166.7,0,0
99291.4,63.6508,-1162.65,0,0
99551.7,63.4746,-1158.65,0,0
99812.1,63.3188,-1154.48,0,0
100072,63.4641,-1150.38,0,0
100333,63.497,-1146.47,0,0
100593,63.4792,-1142.42,0,0
100853,63.6342,-1138.53,0,0
101114,63.6109,-1134.54,0,0
101374,63.6241,-1130.65,0,0
101634,63.476,-1126.67,0,0
101895,63.2328,-1122.5,0,0
102155,63.0677,-1118.01,0,0
102415,63.2117,-1113.09,0,0
102676,64.0699,-1108.1,0,0
102936,65.3252,-1103.76,0,0
103196,66.3519,-1099.76,0,0
103457,67.3512,-1095.78,0,0
103717,68.3356,-1091.77,0,0
103977,69.5051,-1087.62,0,0
104238,71.0708,-1083.62,0,0
104498,72.8082,-1080.33,0,0
104758,74.1209,-1077.32,0,0
105019,75.0698,-1074.31,0,0
105279,75.883,-1070.91,0,0
105539,77.0716,-1067.4,0,0
105800,78.434,-1064.13,0,0
106060,79.9028,-1060.9,0,0
106320.175,81.4098,-1058.08,0,0
106580.5,82.8462,-1055.43,0,0
106840.825,84.0477,-1052.89,0,0
107101.15,85.1926,-1050.19,0,0
107361.475,86.7064,-1047.61,0,0
107621.8,87.9746,-1045.67,0,0
107882.125,88.7224,-1043.58,0,0
108142.45,89.4981,-1041.28,0,0
108402.775,90.3746,-1038.94,0,0
108663.1,91.4224,-1036.72,0,0
108923.425,92.3877,-1034.83,0,0
109183.75,93.239,-1033.01,0,0
109444.075,93.9349,-1031.45,0,0
109704.4,94.3261,-1029.92,0,0
109964.725,94.3395,-1028.41,0,0
110225.05,93.934,-1026.57,0,0
110485.375,93.5616,-1024.42,0,0
110745.7,93.4018,-1021.79,0,0
111006.025,93.4096,-1019.22,0,0
111266.35,93.6845,-1016.56,0,0
111526.675,94.5109,-1014.03,0,0
111787.0,95.0377,-1012.13,0,0
112047.325,95.2806,-1010.16,0,0
112307.65,95.6634,-1008.06,0,0
112567.975,95.9861,-1006.23,0,0
112828.3,96.264,-1004.47,0,0
113088.625,96.4817,-1002.73,0,0
113348.95,96.5762,-1001.18,0,0
113609.275,96.5218,-999.74,0,0
113869.6,96.1931,-998.291,0,0
114129.925,95.5443,-996.723,0,0
114390.25,94.8263,-994.898,0,0
114650.575,94.1645,-992.976,0,0
114910.9,93.5373,-991.131,0,0
115171.225,92.7215,-989.201,0,0
115431.55,91.9151,-987.281,0,0
115691.875,90.7996,-985.195,0,0
115952.2,89.5809,-982.797,0,0
116212.525,88.6135,-980.234,0,0
116472.85,87.6747,-977.583,0,0
116733.175,86.914,-974.939,0,0
116993.5,86.0754,-972.331,0,0
117253.825,85.0752,-969.587,0,0
117514.15,84.133,-966.55,0,0
117774.475,83.3927,-963.491,0,0
118034.8,82.8123,-960.287,0,0
118295.125,82.4885,-957.234,0,0
118555.45,82.0022,-954.246,0,0
118815.775,81.6067,-951.095,0,0
119076.1,81.3832,-947.87,0,0
119336.425,81.2935,-944.749,0,0
119596.75,81.3185,-941.715,0,0
119857.075,81.3941,-938.705,0,0
120117.4,81.6209,-935.868,0,0
120377.725,81.7245,-933.22,0,0
120638.05,81.8305,-930.642,0,0
120898.375,81.8142,-928.247,0,0
121158.7,81.5937,-925.796,0,0
121419.025,81.36,-923.171,0,0
121679.35,81.1232,-920.647,0,0
121939.675,80.6861,-918.031,0,0
122200.0,80.3168,-915.216,0,0
122460,80.0264,-912.391,0,0
122721,79.7262,-909.557,0,0
122981,79.4444,-906.696,0,0
123241,79.1666,-903.723,0,0
123502,79.0055,-900.688,0,0
123762,78.9056,-897.684,0,0
124022,78.8464,-894.646,0,0
124283,78.8636,-891.609,0,0
124543,78.9607,-888.578,0,0
124803,79.1166,-885.659,0,0
125064,79.2199,-882.763,0,0
125324,79.2831,-879.808,0,0
125584,79.4976,-876.844,0,0
125845,79.7133,-873.949,0,0
126105,79.9209,-871.029,0,0
126365,80.2106,-868.068,0,0
126626,80.5486,-865.255,0,0
126886,80.8116,-862.427,0,0
127146,81.124,-859.585,0,0
127406,81.3384,-856.726,0,0
127667,81.6866,-853.878,0,0
127927,82.0069,-850.903,0,0
128187,82.523,-848.091,0,0
128448,82.9833,-845.227,0,0
128708,83.4939,-842.481,0,0
128968,83.9299,-839.748,0,0
129229,84.2855,-836.883,0,0
129489,84.786,-833.89,0,0
129749,85.4522,-830.866,0,0
130010,86.3264,-827.943,0,0
130270,87.3613,-825.135,0,0
130530,88.4589,-822.52,0,0
130791,89.4819,-820.057,0,0
131051,90.5084,-817.745,0,0
131311,91.4938,-815.467,0,0
131572,92.4817,-813.363,0,0
131832,93.2812,-811.363,0,0
132092,94.0108,-809.363,0,0
132353,94.6285,-807.351,0,0
132613,95.1297,-805.29,0,0
132873,95.6633,-803.098,0,0
133134,96.3006,-800.916,0,0
133394,96.9361,-798.859,0,0
133654,97.5165,-796.742,0,0
133915,98.0984,-794.662,0,0
134175,98.6752,-792.616,0,0
134435,99.1792,-790.643,0,0
134696,99.5879,-788.579,0,0
134956,99.9945,-786.386,0,0
135216,100.492,-784.134,0,0
135477,101.058,-781.981,0,0
135737,101.602,-779.784,0,0
135997,102.202,-777.506,0,0
136258,102.986,-775.216,0,0
136518,103.864,-773.053,0,0
136778,104.839,-771.013,0,0
137039,105.828,-769.14,0,0
137299,106.779,-767.298,0,0
137559,107.898,-765.557,0,0
137819,108.94,-764.298,0,0
138080,109.615,-763.288,0,0
138340.125,109.926,-762.096,0,0
138600.45,110.114,-760.852,0,0
138860.775,110.096,-759.543,0,0
139121.1,109.958,-757.945,0,0
139381.425,109.966,-756.18,0,0
139641.75,110.092,-754.498,0,0
139902.075,110.075,-752.878,0,0
140162.4,109.888,-751.213,0,0
140422.725,109.74,-749.232,0,0
140683.05,109.586,-747.267,0,0
140943.375,109.551,-745.175,0,0
141203.7,109.48,-743.035,0,0
141464.025,109.587,-740.855,0,0
141724.35,109.676,-738.81,0,0
141984.675,109.601,-736.575,0,0
142245.0,109.764,-734.195,0,0
142505.325,110.157,-731.946,0,0
142765.65,110.473,-729.9,0,0
143025.975,110.629,-727.784,0,0
143286.3,110.799,-725.616,0,0
143546.625,110.936,-723.311,0,0
143806.95,111.26,-720.919,0,0
144067.275,111.691,-718.612,0,0
144327.6,112.111,-716.464,0,0
144587.925,112.447,-714.165,0,0
144848.25,112.985,-711.841,0,0
145108.575,113.527,-709.663,0,0
145368.9,114.121,-707.433,0,0
145629.225,114.813,-705.341,0,0
145889.55,115.417,-703.335,0,0
146149.875,115.922,-701.389,0,0
146410.2,116.33,-699.313,0,0
146670.525,116.953,-697.057,0,0
146930.85,117.846,-695.017,0,0
147191.175,118.63,-693.421,0,0
147451.5,118.974,-691.87,0,0
147711.825,119.162,-690.034,0,0
147972.15,119.33,-688.077,0,0
148232.475,119.616,-685.864,0,0
148492.8,120.168,-683.659,0,0
148753.125,120.742,-681.648,0,0
149013.45,121.332,-679.63,0,0
149273.775,122.052,-677.722,0,0
149534.1,122.748,-676.014,0,0
149794.425,123.285,-674.56,0,0
150054.75,123.502,-673.191,0,0
150315.075,123.374,-671.612,0,0
150575.4,123.163,-669.888,0,0
150835.725,122.859,-667.973,0,0
151096.05,122.393,-665.795,0,0
151356.375,122.136,-663.236,0,0
151616.7,122.114,-660.696,0,0
151877.025,122.134,-658.206,0,0
152137.35,122.131,-655.674,0,0
152397.675,121.956,-653.096,0,0
152658.0,121.731,-650.164,0,0
152918.325,121.707,-646.877,0,0
153178.65,122.092,-643.452,0,0
153438.975,122.708,-640.155,0,0
153699.3,123.426,-636.934,0,0
153959.625,124.137,-633.723,0,0
154219.95,124.987,-630.381,0,0
154480,125.99,-626.985,0,0
154741,127.172,-623.557,0,0
155001,128.666,-620.151,0,0
155261,130.212,-616.953,0,0
155522,131.743,-613.694,0,0
155782,133.569,-610.338,0,0
156042,135.653,-607.156,0,0
156303,137.871,-604.102,0,0
156563,140.093,-601.256,0,0
156823,142.406,-598.295,0,0
157084,145.161,-595.435,0,0
157344,148.149,-593.022,0,0
157604,151.104,-591.16,0,0
157864,153.604,-589.576,0,0
158125,155.764,-587.874,0,0
158385,158.044,-586.01,0,0
158645,160.343,-584.391,0,0
158906,162.129,-582.815,0,0
159166,163.754,-580.7,0,0
159426,165.736,-578.11,0,0
159687,168.167,-575.36,0,0
159947,171.119,-572.676,0,0
160207,174.509,-570.253,0,0
160468,178.117,-568.21,0,0
160728,181.955,-566.44,0,0
160988,185.964,-565.073,0,0
161249,190.165,-564.212,0,0
161509,194.267,-563.932,0,0
161769,198.076,-564.205,0,0
162030,201.368,-564.757,0,0
162290,204.174,-565.381,0,0
162550,206.658,-565.823,0,0
162811,208.994,-566.08,0,0
163071,211.432,-566.16,0,0
163331,213.93,-566.364,0,0
163592,216.466,-566.598,0,0
163852,219.025,-567.081,0,0
164112,221.334,-567.692,0,0
164373,223.572,-568.214,0,0
164633,225.764,-568.73,0,0
164893,228.045,-569.179,0,0
165154,230.491,-569.695,0,0
165414,233.038,-570.421,0,0
165674,235.803,-571.455,0,0
165935,238.586,-573.009,0,0
166195,241.144,-575.19,0,0
166455,243.028,-577.811,0,0
166716,244.17,-580.317,0,0
166976,245.127,-582.44,0,0
167236,246.242,-584.661,0,0
167497,246.979,-587.303,0,0
167757,247.195,-589.838,0,0
168017,247.115,-592.331,0,0
168277,246.575,-594.746,0,0
168538,245.734,-596.839,0,0
168798,244.822,-598.769,0,0
169058,243.54,-600.637,0,0
169319,242.006,-602.218,0,0
169579,240.166,-603.576,0,0
169839,237.994,-604.503,0,0
170100,235.802,-604.821,0,0
170360.075,233.82,-604.705,0,0
170620.4,232.079,-604.22,0,0
170880.725,230.626,-603.646,0,0
171141.05,229.443,-602.966,0,0
171401.375,228.379,-602.437,0,0
171661.7,227.248,-601.971,0,0
171922.025,226.01,-601.419,0,0
172182.35,224.709,-600.582,0,0
172442.675,223.624,-599.522,0,0
172703.0,222.747,-598.4,0,0
172963.325,222.024,-597.353,0,0
173223.65,221.353,-596.302,0,0
173483.975,220.672,-595.256,0,0
173744.3,219.995,-594.131,0,0
174004.625,219.384,-592.889,0,0
174264.95,219.011,-591.551,0,0
174525.275,218.773,-590.299,0,0
174785.6,218.584,-589.129,0,0
175045.925,218.472,-588.027,0,0
175306.25,218.235,-586.887,0,0
175566.575,218.471,-585.595,0,0
175826.9,218.935,-584.737,0,0
176087.225,219.191,-584.327,0,0
176347.55,219.152,-584.001,0,0
176607.875,218.909,-583.645,0,0
176868.2,218.521,-583.241,0,0
177128.525,217.942,-582.627,0,0
177388.85,217.506,-581.737,0,0
177649.175,217.441,-580.923,0,0
177909.5,217.475,-580.535,0,0
178169.825,217.152,-580.46,0,0
178430.15,216.389,-580.367,0,0
178690.475,215.413,-579.951,0,0
178950.8,214.426,-579.355,0,0
179211.125,213.426,-578.676,0,0
179471.45,212.502,-577.899,0,0
179731.775,211.545,-577.117,0,0
179992.1,210.639,-576.493,0,0
180252.425,209.339,-575.957,0,0
180512.75,207.776,-575.107,0,0
180773.075,206.218,-573.941,0,0
181033.4,204.676,-572.675,0,0
181293.725,203.058,-571.184,0,0
181554.05,201.527,-569.475,0,0
181814.375,200.138,-567.578,0,0
182074.7,198.943,-565.623,0,0
182335.025,197.82,-563.794,0,0
182595.35,196.533,-562.078,0,0
182855.675,195.059,-560.103,0,0
183116.0,193.569,-557.966,0,0
183376.325,192.026,-555.597,0,0
183636.65,190.524,-552.9,0,0
183896.975,189.22,-549.979,0,0
184157.3,188.092,-546.84,0,0
184417.625,187.262,-543.648,0,0
184677.95,186.499,-540.447,0,0
184938.275,185.86,-537.017,0,0
185198.6,185.521,-533.411,0,0
185458.925,185.611,-529.924,0,0
185719.25,185.799,-526.673,0,0
185979.575,185.981,-523.422,0,0
186239.9,186.311,-520.114,0,0
186500,186.878,-516.898,0,0
186761,187.504,-513.991,0,0
187021,187.961,-511.066,0,0
187281,188.48,-508.017,0,0
187542,189.173,-504.964,0,0
187802,189.94,-502.004,0,0
188062,190.765,-499.28,0,0
188322,191.434,-496.609,0,0
188583,192.103,-493.904,0,0
188843,192.604,-491.05,0,0
189103,193.154,-488.134,0,0
189364,193.754,-485.104,0,0
189624,194.52,-481.949,0,0
189884,195.347,-478.865,0,0
190145,196.239,-475.747,0,0
190405,197.273,-472.519,0,0
190665,198.379,-469.388,0,0
190926,199.537,-466.331,0,0
191186,200.598,-463.273,0,0
191446,201.652,-460.08,0,0
191707,202.868,-456.701,0,0
191967,204.224,-453.248,0,0
192227,205.76,-449.743,0,0
192488,207.545,-446.462,0,0
192748,209.291,-443.224,0,0
193008,210.995,-439.909,0,0
193269,212.906,-436.618,0,0
193529,214.88,-433.385,0,0
193789,216.794,-430.26,0,0
194050,218.78,-426.981,0,0
194310,220.741,-423.737,0,0
194570,222.757,-420.4,0,0
194831,224.874,-416.926,0,0
195091,227.161,-413.415,0,0
195351,229.636,-409.888,0,0
195612,232.321,-406.363,0,0
195872,235.001,-402.94,0,0
196132,237.652,-399.577,0,0
196393,240.443,-395.919,0,0
196653,243.519,-392.223,0,0
196913,246.813,-388.585,0,0
197174,250.383,-385.127,0,0
197434,253.98,-381.697,0,0
197694,257.632,-378.318,0,0
197955,261.546,-374.846,0,0
198215,265.815,-371.506,0,0
198475,270.008,-368.56,0,0
198735,274.349,-365.619,0,0
198996,278.669,-362.948,0,0
199256,282.892,-360.252,0,0
199516,287.118,-357.673,0,0
199777,291.137,-354.817,0,0
200037,295.306,-351.746,0,0
200297,299.719,-348.391,0,0
200558,304.459,-345.024,0,0
200818,309.576,-341.498,0,0
201078,315.096,-338.119,0,0
201339,320.863,-334.815,0,0
201599,326.92,-331.416,0,0
201859,333.538,-328.105,0,0
202120,340.679,-324.99,0,0
202380.025,348.325,-322.151,0,0
202640.35,356.347,-319.918,0,0
202900.675,364.688,-318.235,0,0
203161.0,372.875,-316.926,0,0
203421.325,381.158,-315.851,0,0
203681.65,389.738,-314.694,0,0
203941.975,398.817,-313.833,0,0
204202.3,408.537,-313.393,0,0
204462.625,418.797,-313.796,0,0
204722.95,429.526,-315.102,0,0
204983.275,440.281,-317.593,0,0
205243.6,450.843,-321.183,0,0
205503.925,460.749,-325.902,0,0
205764.25,470.034,-331.04,0,0
206024.575,478.741,-336.792,0,0
206284.9,486.987,-342.816,0,0
206545.225,494.804,-349.152,0,0
206805.55,502.423,-355.964,0,0
207065.875,509.528,-363.633,0,0
207326.2,515.66,-371.818,0,0
207586.525,520.793,-380.176,0,0
207846.85,525.085,-388.392,0,0
208107.175,528.819,-396.425,0,0
208367.5,532.033,-404.429,0,0
208627.825,534.714,-412.297,0,0
208888.15,537.112,-420.189,0,0
209148.475,538.615,-428.248,0,0
209408.8,539.58,-435.878,0,0
209669.125,540.038,-443.322,0,0
209929.45,539.929,-450.565,0,0
210189.775,539.059,-457.526,0,0
210450.1,537.426,-463.733,0,0
210710.425,535.529,-469.006,0,0
210970.75,533.62,-473.597,0,0
211231.075,531.619,-477.493,0,0
211491.4,529.715,-480.749,0,0
211751.725,528.063,-483.427,0,0
212012.05,526.48,-485.541,0,0
212272.375,525.096,-487.043,0,0
212532.7,524.243,-487.571,0,0
212793.025,524.488,-487.677,0,0
213053.35,525.871,-487.92,0,0
213313.675,527.968,-488.812,0,0
213574.0,530.371,-490.297,0,0
213834.325,532.759,-492.337,0,0
214094.65,534.974,-494.724,0,0
214354.975,536.945,-497.03,0,0
214615.3,539.362,-499.335,0,0
214875.625,541.759,-502.112,0,0
215135.95,543.888,-505.087,0,0
215396.275,546.084,-507.904,0,0
215656.6,548.548,-510.916,0,0
215916.925,550.889,-514.524,0,0
216177.25,552.587,-518.397,0,0
216437.575,553.734,-521.919,0,0
216697.9,554.766,-524.917,0,0
216958.225,555.854,-527.343,0,0
217218.55,557.529,-529.301,0,0
217478.875,559.996,-531.287,0,0
217739.2,563.16,-533.66,0,0
217999.525,566.481,-536.812,0,0
218259.85,569.624,-540.509,0,0
218520,572.472,-544.402,0,0
218780,575.022,-548.232,0,0
219041,577.709,-551.932,0,0
219301,580.654,-555.592,0,0
219561,583.889,-559.522,0,0
219822,587.323,-563.776,0,0
220082,590.88,-568.383,0,0
220342,594.438,-573.509,0,0
220603,597.993,-578.734,0,0
220863,601.675,-584.356,0,0
221123,605.372,-590.367,0,0
221384,609.188,-596.951,0,0
221644,612.937,-604.187,0,0
221904,616.413,-612.121,0,0
222165,619.538,-620.771,0,0
222425,621.98,-630.032,0,0
222685,623.669,-639.713,0,0
222946,624.707,-649.522,0,0
223206,624.948,-659.551,0,0
223466,624.588,-669.412,0,0
223727,623.764,-679.218,0,0
223987,622.388,-689.112,0,0
224247,620.449,-698.783,0,0
224508,618.08,-708.462,0,0
224768,615.269,-717.848,0,0
225028,612.352,-727.37,0,0
225289,608.686,-736.655,0,0
225549,604.863,-745.786,0,0
225809,600.819,-754.698,0,0
226070,596.442,-763.785,0,0
226330,591.539,-773.05,0,0
226590,585.959,-782.237,0,0
226851,579.629,-791.316,0,0
227111,572.648,-799.987,0,0
227371,565.098,-808.157,0,0
227632,557.049,-815.77,0,0
227892,548.616,-822.853,0,0
228152,539.672,-829.51,0,0
228413,530.415,-835.47,0,0
228673,520.813,-840.679,0,0
228933,511.146,-845.103,0,0
229193,501.476,-848.673,0,0
229454,492.071,-851.744,0,0
229714,482.801,-854.342,0,0
229974,473.612,-856.435,0,0
230235,464.522,-857.859,0,0
230495,455.715,-858.935,0,0
230755,447.113,-859.514,0,0
231016,438.735,-859.792,0,0
231276,430.701,-859.651,0,0
231536,423.077,-859.291,0,0
231797,415.723,-858.611,0,0
232057,408.75,-857.781,0,0
232317,402.08,-856.754,0,0
232578,395.734,-855.615,0,0
232838,389.771,-854.489,0,0
233098,384.056,-853.384,0,0
233359,378.644,-852.365,0,0
233619,373.361,-851.459,0,0
233879,368.095,-850.631,0,0
234140,362.863,-849.822,0,0
234400,357.647,-848.958,0,0
234660.3,352.603,-847.994,0,0
234920.625,347.482,-847.204,0,0
235180.95,342.598,-846.155,0,0
235441.275,337.601,-845.103,0,0
235701.6,332.582,-844.067,0,0
235961.925,327.78,-842.9,0,0
236222.25,322.939,-841.78,0,0
236482.575,318.128,-840.551,0,0
236742.9,313.352,-839.185,0,0
237003.225,308.666,-837.734,0,0
237263.55,303.988,-836.146,0,0
237523.875,299.488,-834.447,0,0
237784.2,295.147,-832.645,0,0
238044.525,291.068,-830.879,0,0
238304.85,287.004,-829.175,0,0
238565.175,282.965,-827.636,0,0
238825.5,278.803,-826.052,0,0
239085.825,274.723,-824.275,0,0
239346.15,270.585,-822.411,0,0
239606.475,266.497,-820.393,0,0
239866.8,262.424,-818.155,0,0
240127.125,258.753,-815.977,0,0
240387.45,255.108,-813.729,0,0
240647.775,251.621,-811.522,0,0
240908.1,248.251,-809.285,0,0
241168.425,244.723,-807.14,0,0
241428.75,241.244,-804.825,0,0
241689.075,238.09,-802.42,0,0
241949.4,234.82,-799.943,0,0
242209.725,231.863,-797.404,0,0
242470.05,229.09,-794.922,0,0
242730.375,226.357,-792.569,0,0
242990.7,223.658,-790.255,0,0
243251.025,220.986,-787.998,0,0
243511.35,218.364,-785.61,0,0
243771.675,215.904,-783.386,0,0
244032.0,213.402,-781.093,0,0
244292.325,210.973,-778.841,0,0
244552.65,208.582,-776.733,0,0
244812.975,206.106,-774.496,0,0
245073.3,203.68,-772.364,0,0
245333.625,201.265,-770.128,0,0
245593.95,198.992,-767.911,0,0
245854.275,196.719,-765.59,0,0
246114.6,194.407,-763.296,0,0
246374.925,192.15,-761.1,0,0
246635.25,189.801,-758.702,0,0
246895.575,187.555,-756.365,0,0
247155.9,185.393,-753.855,0,0
247416.225,183.295,-751.369,0,0
247676.55,181.265,-748.875,0,0
247936.875,179.33,-746.284,0,0
248197.2,177.548,-743.789,0,0
248457.525,175.78,-741.259,0,0
248717.85,174.027,-738.771,0,0
248978.175,172.283,-736.321,0,0
249238.5,170.843,-733.77,0,0
249498.825,169.135,-731.33,0,0
249759.15,167.757,-728.809,0,0
250019.475,166.343,-726.338,0,0
250279.8,164.915,-723.948,0,0
250540,163.522,-721.592,0,0
250800,162.072,-719.235,0,0
251061,160.741,-716.785,0,0
251321,159.428,-714.348,0,0
251581,158.171,-711.924,0,0
251842,156.96,-709.559,0,0
252102,155.752,-707.14,0,0
252362,154.532,-704.718,0,0
252623,153.363,-702.252,0,0
252883,152.242,-699.794,0,0
253143,151.208,-697.302,0,0
253404,150.189,-694.776,0,0
253664,149.167,-692.265,0,0
253924,148.219,-689.688,0,0
254185,147.342,-687.068,0,0
254445,146.626,-684.453,0,0
254705,145.999,-681.848,0,0
254966,145.392,-679.159,0,0
255226,145.059,-676.729,0,0
255486,144.655,-674.263,0,0
255747,144.297,-671.88,0,0
256007,143.945,-669.552,0,0
256267,143.605,-667.222,0,0
256528,143.26,-664.929,0,0
256788,142.99,-662.577,0,0
257048,142.754,-660.292,0,0
257309,142.533,-658,0,0
257569,142.321,-655.709,0,0
257829,142.131,-653.395,0,0
258090,141.997,-651.037,0,0
258350,141.925,-648.642,0,0
258610,141.957,-646.237,0,0
258871,142.109,-643.79,0,0
259131,142.405,-641.355,0,0
259391,142.775,-638.948,0,0
259651,143.305,-636.69,0,0
259912,144.014,-634.51,0,0
260172,144.622,-632.333,0,0
260432,145.464,-630.306,0,0
260693,146.34,-628.384,0,0
260953,147.21,-626.565,0,0
261213,148.133,-624.824,0,0
261474,149.112,-623.174,0,0
261734,150.062,-621.653,0,0
261994,151.104,-620.219,0,0
262255,152.091,-618.852,0,0
262515,153.131,-617.577,0,0
262775,154.136,-616.372,0,0
263036,155.145,-615.226,0,0
263296,156.212,-614.149,0,0
263556,157.281,-613.125,0,0
263817,158.408,-612.207,0,0
264077,159.521,-611.348,0,0
264337,160.631,-610.534,0,0
264598,161.822,-609.892,0,0
264858,163.018,-609.263,0,0
265118,164.328,-608.77,0,0
265379,165.618,-608.442,0,0
265639,167.05,-608.259,0,0
265899,168.481,-608.437,0,0
266160,169.802,-608.768,0,0
266420,171.043,-609.362,0,0
266680.25,172.145,-610.234,0,0
266940.575,173.029,-611.352,0,0
267200.9,173.625,-612.624,0,0
267461.225,173.91,-614.023,0,0
267721.55,173.891,-615.48,0,0
267981.875,173.575,-616.928,0,0
268242.2,172.954,-618.401,0,0
268502.525,171.974,-619.847,0,0
268762.85,170.698,-621.111,0,0
269023.175,169.099,-622.14,0,0
269283.5,167.358,-622.919,0,0
269543.825,165.425,-623.459,0,0
269804.15,163.435,-623.695,0,0
270064.475,161.334,-623.766,0,0
270324.8,159.246,-623.477,0,0
270585.125,157.135,-622.987,0,0
270845.45,155.088,-622.279,0,0
271105.775,153.053,-621.296,0,0
271366.1,151.199,-620.128,0,0
271626.425,149.491,-618.832,0,0
271886.75,147.795,-617.35,0,0
272147.075,146.375,-615.753,0,0
272407.4,145.018,-614.059,0,0
272667.725,143.858,-612.323,0,0
272928.05,142.828,-610.474,0,0
273188.375,142.001,-608.61,0,0
273448.7,141.326,-606.753,0,0
273709.025,140.845,-604.89,0,0
273969.35,140.469,-603.111,0,0
274229.675,140.221,-601.443,0,0
274490.0,140.048,-599.857,0,0
274750.325,139.849,-598.27,0,0
275010.65,139.767,-596.699,0,0
275270.975,139.717,-595.191,0,0
275531.3,139.787,-593.733,0,0
275791.625,139.879,-592.372,0,0
276051.95,139.94,-591.045,0,0
276312.275,140.036,-589.697,0,0
276572.6,140.221,-588.372,0,0
276832.925,140.466,-587.065,0,0
277093.25,140.806,-585.801,0,0
277353.575,141.267,-584.658,0,0
277613.9,141.745,-583.627,0,0
277874.225,142.287,-582.702,0,0
278134.55,142.767,-581.959,0,0
278394.875,143.183,-581.272,0,0
278655.2,143.562,-580.639,0,0
278915.525,143.975,-580.026,0,0
279175.85,144.324,-579.507,0,0
279436.175,144.669,-579.058,0,0
279696.5,144.975,-578.726,0,0
279956.825,145.183,-578.417,0,0
280217.15,145.351,-578.148,0,0
280477.475,145.439,-577.883,0,0
280737.8,145.49,-577.694,0,0
280998.125,145.467,-577.471,0,0
281258.45,145.434,-577.338,0,0
281518.775,145.332,-577.262,0,0
281779.1,145.086,-577.231,0,0
282039.425,144.635,-577.194,0,0
282299.75,144.092,-577.036,0,0
282560,143.491,-576.768,0,0
282820,142.896,-576.418,0,0
283081,142.264,-575.992,0,0
283341,141.637,-575.547,0,0
283601,140.954,-575.063,0,0
283862,140.225,-574.48,0,0
284122,139.562,-573.804,0,0
284382,138.905,-573.112,0,0
284643,138.275,-572.357,0,0
284903,137.704,-571.543,0,0
285163,137.11,-570.75,0,0
285424,136.579,-569.974,0,0
285684,136.015,-569.187,0,0
285944,135.407,-568.397,0,0
286205,134.777,-567.592,0,0
286465,134.033,-566.737,0,0
286725,133.248,-565.713,0,0
286986,132.486,-564.557,0,0
287246,131.778,-563.304,0,0
287506,131.178,-561.972,0,0
287767,130.581,-560.529,0,0
288027,130.058,-558.975,0,0
288287,129.654,-557.236,0,0
288548,129.526,-555.432,0,0
288808,129.636,-553.595,0,0
289068,130.021,-551.859,0,0
289329,130.591,-550.316,0,0
289589,131.237,-548.988,0,0
289849,131.872,-547.879,0,0
290109,132.532,-546.846,0,0
290370,133.205,-545.955,0,0
290630,133.843,-545.2,0,0
290890,134.385,-544.567,0,0
291151,134.864,-543.998,0,0
291411,135.237,-543.46,0,0
291671,135.573,-542.944,0,0
291932,135.846,-542.477,0,0
292192,136.089,-542.047,0,0
292452,136.23,-541.671,0,0
292713,136.212,-541.33,0,0
292973,136.067,-540.939,0,0
293233,135.809,-540.476,0,0
293494,135.436,-539.898,0,0
293754,134.98,-539.137,0,0
294014,134.51,-538.209,0,0
294275,134.077,-537.066,0,0
294535,133.742,-535.749,0,0
294795,133.57,-534.278,0,0
295056,133.596,-532.738,0,0
295316,133.815,-531.156,0,0
295576,134.21,-529.583,0,0
295837,134.775,-528.084,0,0
296097,135.492,-526.631,0,0
296357,136.353,-525.305,0,0
296618,137.295,-524.126,0,0
296878,138.257,-523.069,0,0
297138,139.23,-522.117,0,0
297399,140.203,-521.229,0,0
297659,141.162,-520.391,0,0
297919,142.152,-519.607,0,0
298180,143.143,-518.879,0,0
298440,144.16,-518.193,0,0
298700.2,145.187,-517.54,0,0
298960.525,146.169,-517.019,0,0
299220.85,147.296,-516.484,0,0
299481.175,148.37,-515.962,0,0
299741.5,149.447,-515.6,0,0
300001.825,150.473,-515.249,0,0
300262.15,151.526,-514.856,0,0
300522.475,152.528,-514.581,0,0
300782.8,153.531,-514.231,0,0
301043.125,154.658,-513.835,0,0
301303.45,155.87,-513.549,0,0
301563.775,157.161,-513.31,0,0
301824.1,158.451,-513.189,0,0
302084.425,159.853,-513.189,0,0
302344.75,161.205,-513.311,0,0
302605.075,162.563,-513.469,0,0
302865.4,163.926,-513.889,0,0
303125.725,165.269,-514.408,0,0
303386.05,166.544,-515.101,0,0
303646.375,167.66,-515.822,0,0
303906.7,168.695,-516.601,0,0
304167.025,169.627,-517.417,0,0
304427.35,170.482,-518.302,0,0
304687.675,171.288,-519.129,0,0
304948.0,172.105,-519.958,0,0
305208.325,172.813,-520.895,0,0
305468.65,173.508,-521.82,0,0
305728.975,174.082,-522.773,0,0
305989.3,174.801,-523.754,0,0
306249.625,175.401,-524.738,0,0
306509.95,176.035,-525.851,0,0
306770.275,176.681,-527.064,0,0
307030.6,177.222,-528.414,0,0
307290.925,177.537,-529.881,0,0
307551.25,177.775,-531.283,0,0
307811.575,177.918,-532.719,0,0
308071.9,177.908,-534.193,0,0
308332.225,177.776,-535.669,0,0
308592.55,177.503,-537.155,0,0
308852.875,177.238,-538.504,0,0
309113.2,176.754,-539.784,0,0
309373.525,176.249,-541.095,0,0
309633.85,175.742,-542.257,0,0
309894.175,175.234,-543.288,0,0
310154.5,174.799,-544.411,0,0
310414.825,174.382,-545.607,0,0
310675.15,173.824,-546.779,0,0
310935.475,173.219,-548.01,0,0
311195.8,172.641,-549.314,0,0
311456.125,171.843,-550.651,0,0
311716.45,171.057,-551.875,0,0
311976.775,170.046,-553.247,0,0
312237.1,168.991,-554.54,0,0
312497.425,167.721,-555.86,0,0
312757.75,166.357,-557.012,0,0
313018.075,164.91,-558.142,0,0
313278.4,163.361,-558.961,0,0
313538.725,161.778,-559.776,0,0
313799.05,160.243,-560.483,0,0
314059.375,158.646,-561.102,0,0
314319.7,157.018,-561.534,0,0
314580,155.496,-561.939,0,0
314840,153.856,-562.317,0,0
315101,152.408,-562.638,0,0
315361,150.811,-562.839,0,0
315621,149.385,-563.061,0,0
315882,147.844,-563.261,0,0
316142,146.445,-563.432,0,0
316402,144.954,-563.589,0,0
316663,143.459,-563.683,0,0
316923,141.815,-563.776,0,0
317183,140.287,-563.805,0,0
317444,138.711,-563.781,0,0
317704,137.159,-563.734,0,0
317964,135.531,-563.545,0,0
318225,133.822,-563.342,0,0
318485,132.347,-563.024,0,0
318745,130.732,-562.649,0,0
319006,129.154,-562.216,0,0
319266,127.699,-561.814,0,0
319526,126.193,-561.358,0,0
319787,124.607,-560.83,0,0
320047,123.181,-560.184,0,0
320307,121.66,-559.59,0,0
320567,120.117,-558.813,0,0
320828,118.759,-558.066,0,0
321088,117.414,-557.199,0,0
321348,116.228,-556.385,0,0
321609,114.984,-555.48,0,0
321869,113.762,-554.569,0,0
322129,112.547,-553.605,0,0
322390,111.44,-552.656,0,0
322650,110.298,-551.724,0,0
322910,109.196,-550.734,0,0
323171,108.207,-549.563,0,0
323431,107.228,-548.406,0,0
323691,106.427,-547.288,0,0
323952,105.638,-546.059,0,0
324212,105.035,-544.96,0,0
324472,104.384,-543.84,0,0
324733,103.854,-542.662,0,0
324993,103.357,-541.66,0,0
325253,103.026,-540.625,0,0
325514,102.652,-539.626,0,0
325774,102.266,-538.721,0,0
326034,101.89,-537.92,0,0
326295,101.55,-537.14,0,0
326555,101.208,-536.249,0,0
326815,100.845,-535.515,0,0
327076,100.55,-534.71,0,0
327336,100.296,-533.957,0,0
327596,100.116,-533.29,0,0
327857,99.8229,-532.576,0,0
328117,99.6122,-531.975,0,0
328377,99.3511,-531.397,0,0
328638,99.0792,-530.868,0,0
328898,98.8725,-530.3,0,0
329158,98.6336,-529.936,0,0
329419,98.3724,-529.491,0,0
329679,98.1292,-529.136,0,0
329939,97.7319,-528.806,0,0
330200,97.3949,-528.476,0,0
330460,97.0283,-528.166,0,0
330720.15,96.547,-527.899,0,0
330980.475,96.0419,-527.624,0,0
331240.8,95.5703,-527.285,0,0
331501.125,94.9613,-526.884,0,0
331761.45,94.4165,-526.603,0,0
332021.775,93.8467,-526.287,0,0
332282.1,93.1508,-525.972,0,0
332542.425,92.5164,-525.596,0,0
332802.75,91.8912,-525.152,0,0
333063.075,91.2759,-524.729,0,0
333323.4,90.615,-524.344,0,0
333583.725,89.9155,-523.958,0,0
333844.05,89.2559,-523.504,0,0
334104.375,88.495,-523.023,0,0
334364.7,87.7464,-522.569,0,0
334625.025,87.0024,-522.021,0,0
334885.35,86.3399,-521.552,0,0
335145.675,85.5767,-520.964,0,0
335406.0,84.7622,-520.352,0,0
335666.325,83.9872,-519.814,0,0
335926.65,83.2663,-519.174,0,0
336186.975,82.4793,-518.541,0,0
336447.3,81.8079,-517.811,0,0
336707.625,81.0465,-517.114,0,0
336967.95,80.3316,-516.391,0,0
337228.275,79.7223,-515.693,0,0
337488.6,78.9851,-514.88,0,0
337748.925,78.3496,-514.132,0,0
338009.25,77.6936,-513.41,0,0
338269.575,77.1456,-512.597,0,0
338529.9,76.4498,-511.831,0,0
338790.225,75.8771,-510.995,0,0
339050.55,75.2232,-510.249,0,0
339310.875,74.6808,-509.441,0,0
339571.2,74.1021,-508.586,0,0
339831.525,73.5218,-507.708,0,0
340091.85,72.9842,-506.896,0,0
340352.175,72.4167,-506.041,0,0
340612.5,71.9052,-505.224,0,0
340872.825,71.4408,-504.33,0,0
341133.15,70.9643,-503.542,0,0
341393.475,70.5643,-502.642,0,0
341653.8,70.0916,-501.835,0,0
341914.125,69.6432,-500.978,0,0
342174.45,69.2555,-500.164,0,0
342434.775,68.8443,-499.378,0,0
342695.1,68.3501,-498.535,0,0
342955.425,67.9763,-497.723,0,0
343215.75,67.4991,-496.896,0,0
343476.075,67.1734,-496.132,0,0
343736.4,66.7593,-495.252,0,0
343996.725,66.3041,-494.471,0,0
344257.05,65.8925,-493.696,0,0
344517.375,65.4702,-492.893,0,0
344777.7,65.0778,-492.057,0,0
345038.025,64.6494,-491.228,0,0
345298.35,64.1918,-490.325,0,0
345558.675,63.7514,-489.494,0,0
345819.0,63.3294,-488.631,0,0
346079.325,62.9894,-487.742,0,0
346339.65,62.6176,-486.864,0,0
346599.975,62.3077,-485.94,0,0
346860,61.8816,-485.062,0,0
347121,61.5505,-484.107,0,0
347381,61.213,-483.165,0,0
347641,60.8905,-482.249,0,0
347902,60.6114,-481.323,0,0
348162,60.3016,-480.375,0,0
348422,60.0767,-479.402,0,0
348683,59.8488,-478.462,0,0
348943,59.6221,-477.572,0,0
349203,59.408,-476.577,0,0
349464,59.1943,-475.7,0,0
349724,59.0883,-474.737,0,0
349984,58.8898,-473.842,0,0
350245,58.7482,-472.875,0,0
350505,58.6271,-472.057,0,0
350765,58.5478,-471.116,0,0
351025,58.4141,-470.259,0,0
351286,58.2954,-469.381,0,0
351546,58.2049,-468.506,0,0
351806,58.1332,-467.663,0,0
352067,58.0364,-466.816,0,0
352327,58.0098,-465.973,0,0
352587,57.9433,-465.136,0,0
352848,57.8545,-464.355,0,0
353108,57.7744,-463.568,0,0
353368,57.7086,-462.784,0,0
353629,57.6285,-461.957,0,0
353889,57.5179,-461.183,0,0
354149,57.405,-460.426,0,0
354410,57.3509,-459.595,0,0
354670,57.2802,-458.813,0,0
354930,57.2408,-457.997,0,0
355191,57.1247,-457.17,0,0
355451,57.0826,-456.337,0,0
355711,56.9873,-455.544,0,0
355972,56.986,-454.726,0,0
356232,56.9346,-453.875,0,0
356492,56.9646,-453.023,0,0
356753,56.913,-452.233,0,0
357013,56.9358,-451.437,0,0
357273,57.0143,-450.698,0,0
357534,57.0151,-449.857,0,0
357794,57.0798,-449.093,0,0
358054,57.104,-448.376,0,0
358315,57.1515,-447.659,0,0
358575,57.1743,-446.921,0,0
358835,57.2079,-446.173,0,0
359096,57.2591,-445.45,0,0
359356,57.2944,-444.74,0,0
359616,57.2435,-443.979,0,0
359877,57.3359,-443.266,0,0
360137,57.3839,-442.493,0,0
360397,57.4164,-441.817,0,0
360658,57.5212,-441.05,0,0
360918,57.5565,-440.385,0,0
361178,57.6673,-439.644,0,0
361438,57.6647,-438.983,0,0
361699,57.7462,-438.306,0,0
361959,57.841,-437.604,0,0
362219,57.8327,-436.936,0,0
362480,57.8825,-436.257,0,0
362740.1,57.9546,-435.572,0,0
363000.425,57.9727,-434.838,0,0
363260.75,58.108,-434.161,0,0
363521.075,58.1569,-433.413,0,0
363781.4,58.1804,-432.737,0,0
364041.725,58.289,-432.088,0,0
364302.05,58.4137,-431.385,0,0
364562.375,58.5174,-430.714,0,0
364822.7,58.5878,-430.001,0,0
365083.025,58.6557,-429.319,0,0
365343.35,58.7161,-428.681,0,0
365603.675,58.7972,-427.975,0,0
365864.0,58.874,-427.311,0,0
366124.325,58.9404,-426.642,0,0
366384.65,59.029,-425.955,0,0
366644.975,59.1066,-425.261,0,0
366905.3,59.1576,-424.561,0,0
367165.625,59.2677,-423.896,0,0
367425.95,59.3352,-423.152,0,0
367686.275,59.3787,-422.448,0,0
367946.6,59.4569,-421.704,0,0
368206.925,59.4767,-420.918,0,0
368467.25,59.551,-420.084,0,0
368727.575,59.6054,-419.267,0,0
368987.9,59.7267,-418.312,0,0
369248.225,59.9222,-417.378,0,0
369508.55,60.1672,-416.442,0,0
369768.875,60.464,-415.445,0,0
370029.2,60.8179,-414.528,0,0
370289.525,61.2183,-413.594,0,0
370549.85,61.7315,-412.654,0,0
370810.175,62.2774,-411.821,0,0
371070.5,62.9164,-411.021,0,0
371330.825,63.5165,-410.26,0,0
371591.15,64.1496,-409.539,0,0
371851.475,64.8044,-408.867,0,0
372111.8,65.498,-408.297,0,0
372372.125,66.1981,-407.701,0,0
372632.45,66.8827,-407.261,0,0
372892.775,67.5822,-406.769,0,0
373153.1,68.2588,-406.36,0,0
373413.425,68.9654,-405.957,0,0
373673.75,69.6215,-405.59,0,0
373934.075,70.3211,-405.293,0,0
374194.4,71.0304,-405.029,0,0
374454.725,71.6613,-404.844,0,0
374715.05,72.3467,-404.681,0,0
374975.375,72.9368,-404.583,0,0
375235.7,73.515,-404.498,0,0
375496.025,74.0201,-404.45,0,0
375756.35,74.4682,-404.403,0,0
376016.675,74.98,-404.327,0,0
376277.0,75.3849,-404.378,0,0
376537.325,75.7267,-404.294,0,0
376797.65,76.1286,-404.257,0,0
377057.975,76.5168,-404.246,0,0
377318.3,76.8859,-404.139,0,0
377578.625,77.2607,-404.095,0,0
377838.95,77.6468,-404.11,0,0
378099.275,78.008,-404.08,0,0
378359.6,78.3253,-404.1,0,0
378619.925,78.6406,-404.139,0,0
378880,78.9128,-404.163,0,0
379141,79.1898,-404.176,0,0
379401,79.4356,-404.228,0,0
379661,79.6927,-404.256,0,0
379922,79.9615,-404.183,0,0
380182,80.1814,-404.199,0,0
380442,80.4902,-404.166,0,0
380703,80.7974,-404.138,0,0
380963,81.204,-404.187,0,0
381223,81.6318,-404.303,0,0
381483,82.0597,-404.521,0,0
381744,82.4595,-404.819,0,0
382004,82.7441,-405.128,0,0
382264,83.0108,-405.59,0,0
382525,83.1851,-406.057,0,0
382785,83.2045,-406.556,0,0
383045,83.1902,-407.026,0,0
383306,83.1238,-407.536,0,0
383566,82.9706,-407.992,0,0
383826,82.7587,-408.502,0,0
384087,82.5161,-408.933,0,0
384347,82.1867,-409.283,0,0
384607,81.7832,-409.686,0,0
384868,81.3617,-409.972,0,0
385128,80.8643,-410.202,0,0
385388,80.3165,-410.415,0,0
385649,79.7982,-410.611,0,0
385909,79.2517,-410.727,0,0
386169,78.6747,-410.818,0,0
386430,78.0735,-410.848,0,0
386690,77.4639,-410.888,0,0
386950,76.8356,-410.819,0,0
387211,76.2033,-410.699,0,0
387471,75.5268,-410.538,0,0
387731,74.9221,-410.301,0,0
387992,74.2921,-409.991,0,0
388252,73.743,-409.686,0,0
388512,73.2106,-409.284,0,0
388773,72.6937,-408.863,0,0
389033,72.2827,-408.441,0,0
389293,71.8799,-408.037,0,0
389554,71.5042,-407.579,0,0
389814,71.1603,-407.174,0,0
390074,70.9025,-406.744,0,0
390335,70.6049,-406.361,0,0
390595,70.3414,-405.983,0,0
390855,70.0916,-405.665,0,0
391116,69.8534,-405.35,0,0
391376,69.5633,-405.052,0,0
391636,69.2989,-404.788,0,0
391896,68.9831,-404.484,0,0
392157,68.6327,-404.199,0,0
392417,68.3205,-403.964,0,0
392677,68.0006,-403.687,0,0
392938,67.6215,-403.425,0,0
393198,67.2245,-403.158,0,0
393458,66.8122,-402.828,0,0
393719,66.3273,-402.562,0,0
393979,65.8755,-402.157,0,0
394239,65.3994,-401.785,0,0
394500,64.9092,-401.373,0,0
394760.05,64.4016,-400.924,0,0
395020.375,63.9264,-400.424,0,0
395280.7,63.4585,-399.896,0,0
395541.025,63.0211,-399.341,0,0
395801.35,62.5402,-398.77,0,0
396061.675,62.1261,-398.115,0,0
396322.0,61.7601,-397.493,0,0
396582.325,61.3717,-396.84,0,0
396842.65,61.0281,-396.18,0,0
397102.975,60.7018,-395.509,0,0
397363.3,60.4186,-394.86,0,0
397623.625,60.1849,-394.189,0,0
397883.95,59.937,-393.514,0,0
398144.275,59.6341,-392.848,0,0
398404.6,59.4321,-392.163,0,0
398664.925,59.1943,-391.508,0,0
398925.25,58.9769,-390.856,0,0
399185.575,58.7831,-390.142,0,0
399445.9,58.5918,-389.491,0,0
399706.225,58.3519,-388.799,0,0
399966.55,58.1654,-388.062,0,0
400006.6,58.1716,-387.985,0,0