File: Accelerated corrosion test data/2025-10-10_06-00-03/sample_6.csv
Frequency (Hz),Impedance (ohms),Phase (Radians),Temperature (C),Humidity (%)
10000.0,4214.9,-6570.81,0,0
10260.325,4076.41,-6494.01,0,0
10520.65,3945.25,-6416.1,0,0
10780.975,3819.69,-6339.91,0,0
11041.3,3699.45,-6263.15,0,0
11301.625,3584.84,-6188.08,0,0
11561.95,3475.44,-6113.33,0,0
11822.275,3371.06,-6039.31,0,0
12082.6,3270.36,-5966.37,0,0
12342.925,3174.1,-5894.13,0,0
12603.25,3084.72,-5821.95,0,0
12863.575,2996.89,-5751.73,0,0
13123.9,2914.8,-5684.22,0,0
13384.225,2833.5,-5618.32,0,0
13644.55,2754.91,-5552.23,0,0
13904.875,2679.46,-5486.32,0,0
14165.2,2607.6,-5421.5,0,0
14425.525,2538.52,-5357.59,0,0
14685.8,2472.73,-5294.24,0,0
14946.175,2409.98,-5233.92,0,0
15206.5,2348.11,-5172.48,0,0
15466.825,2289.91,-5113.36,0,0
15727.15,2233.1,-5055.51,0,0
15987.5,2178.62,-4998.12,0,0
16247.8,2126.05,-4941.96,0,0
16508.125,2075.23,-4886.37,0,0
16768.45,2026.43,-4832.02,0,0
17028.775,1980.3,-4779.16,0,0
17289.1,1934.43,-4727.11,0,0
17549.425,1889.9,-4675.95,0,0
17809.75,1847.65,-4625.26,0,0
18070.075,1806.96,-4574.69,0,0
18330.4,1766.71,-4525.85,0,0
18590.725,1728.6,-4478.55,0,0
18851.05,1692.68,-4430.77,0,0
19111.375,1657.99,-4385.22,0,0
19371.7,1623.11,-4341.03,0,0
19632.025,1589.12,-4296.36,0,0
19892.35,1556.48,-4252.95,0,0
20152.675,1525.46,-4209.99,0,0
20413.0,1494.52,-4168.21,0,0
20673.3,1464.44,-4126.43,0,0
20933.65,1435.36,-4085.43,0,0
21193.975,1407.99,-4045.47,0,0
21454.3,1381.08,-4006,0,0
21714.625,1354.65,-3966.74,0,0
21974.9,1329.2,-3928.89,0,0
22235.275,1303.98,-3891.26,0,0
22495.6,1280.12,-3853.93,0,0
22755.925,1258.22,-3816.07,0,0
23016.25,1238.19,-3780.32,0,0
23276.6,1218.1,-3747.67,0,0
23536.9,1196.26,-3715.79,0,0
23797.225,1174.62,-3682.62,0,0
24057.55,1153.31,-3650.21,0,0
24317.875,1133.4,-3617.03,0,0
24578.2,1113.67,-3585.56,0,0
24838.525,1094.61,-3553.89,0,0
25098.85,1076.53,-3522.22,0,0
25359.175,1058.57,-3492.05,0,0
25619.5,1041.32,-3461.42,0,0
25879.8,1024.36,-3431.99,0,0
26140.1,1007.62,-3402.66,0,0
26400.5,991.482,-3373.48,0,0
26660.8,975.903,-3344.71,0,0
26921.1,961.229,-3316.99,0,0
27181.4,946.584,-3289.26,0,0
27441.8,932.477,-3261.93,0,0
27702.1,918.792,-3235.52,0,0
27962.4,904.575,-3209.59,0,0
28222.7,891.668,-3183.74,0,0
28483.1,877.759,-3158.55,0,0
28743.4,864.639,-3133.28,0,0
29003.7,851.72,-3108.2,0,0
29264,839.13,-3082.89,0,0
29524.4,828.232,-3057.72,0,0
29784.7,817.059,-3033.54,0,0
30045,806.736,-3010.39,0,0
30305.3,795.872,-2987.65,0,0
30565.7,784.924,-2964.88,0,0
30826,774.346,-2942.32,0,0
31086.3,764.391,-2920.04,0,0
31346.6,754.178,-2898.17,0,0
31607,744.263,-2875.91,0,0
31867.3,735.421,-2854.78,0,0
32127.6,726.293,-2832.94,0,0
32387.9,718.183,-2811.45,0,0
32648.3,711.312,-2790.65,0,0
32908.6,703.86,-2772.19,0,0
33168.9,696.407,-2753.34,0,0
33429.2,688.652,-2735.16,0,0
33689.6,680.985,-2717.12,0,0
33949.9,672.836,-2700.52,0,0
34210.2,663.627,-2683.44,0,0
34470.5,654.139,-2665.05,0,0
34730.9,646.393,-2646.72,0,0
34991.2,638.649,-2628.55,0,0
35251.5,631.514,-2611.45,0,0
35511.8,624.36,-2595.06,0,0
35772.2,616.37,-2578.87,0,0
36032.5,607.37,-2562.18,0,0
36292.8,599.453,-2544.8,0,0
36553.1,592.072,-2527.47,0,0
36813.5,585.092,-2510.37,0,0
37073.8,578.418,-2493.6,0,0
37334.1,571.59,-2477.06,0,0
37594.4,565.021,-2460.59,0,0
37854.8,558.685,-2444.56,0,0
38115.1,552.335,-2428.3,0,0
38375.4,546.567,-2412.43,0,0
38635.7,540.507,-2396.56,0,0
38896.1,534.834,-2380.51,0,0
39156.4,529.429,-2364.77,0,0
39416.7,525.15,-2349.2,0,0
39677,520.488,-2334.51,0,0
39937.4,516.048,-2319.91,0,0
40197.7,511.765,-2305.52,0,0
40458,507.714,-2291.91,0,0
40718.3,503.194,-2277.94,0,0
40978.7,499.044,-2265.06,0,0
41239,494.396,-2251.89,0,0
41499.3,489.703,-2238.51,0,0
41759.6,485.88,-2225.7,0,0
42020,481.515,-2213.52,0,0
42280.275,476.813,-2201.5,0,0
42540.6,471.405,-2189.37,0,0
42800.925,465.794,-2175.99,0,0
43061.25,461.288,-2162.13,0,0
43321.575,457.352,-2148.78,0,0
43581.9,453.957,-2135.78,0,0
43842.225,450.295,-2122.81,0,0
44102.55,447.277,-2110.39,0,0
44362.875,444.52,-2097.98,0,0
44623.2,441.767,-2086.29,0,0
44883.525,439.24,-2074.64,0,0
45143.85,436.648,-2062.77,0,0
45404.175,434.255,-2051.99,0,0
45664.5,431.702,-2041.05,0,0
45924.825,429.592,-2030.75,0,0
46185.15,427.535,-2020.71,0,0
46445.475,424.693,-2010.97,0,0
46705.8,422.33,-2001.69,0,0
46966.125,419.743,-1992.32,0,0
47226.45,416.743,-1983.33,0,0
47486.775,413.949,-1974.4,0,0
47747.1,410.66,-1965.4,0,0
48007.425,407.986,-1956.61,0,0
48267.75,404.659,-1948.42,0,0
48528.075,400.828,-1939.66,0,0
48788.4,397.582,-1931.1,0,0
49048.725,394.189,-1923.09,0,0
49309.05,390.103,-1915.02,0,0
49569.375,386.066,-1907.07,0,0
49829.7,381.242,-1898.77,0,0
50090.025,376.569,-1890.06,0,0
50350.35,372.264,-1881.18,0,0
50610.675,367.658,-1872.3,0,0
50871.0,363.115,-1862.85,0,0
51131.325,358.81,-1853,0,0
51391.65,355.405,-1843.51,0,0
51651.975,351.975,-1834.38,0,0
51912.3,348.327,-1825.47,0,0
52172.625,344.712,-1816.15,0,0
52432.95,341.475,-1806.5,0,0
52693.275,338.648,-1797.6,0,0
52953.6,335.757,-1788.87,0,0
53213.925,332.644,-1780.43,0,0
53474.25,329.444,-1772.07,0,0
53734.575,325.871,-1763.62,0,0
53994.9,322.393,-1754.69,0,0
54255.225,319.196,-1745.68,0,0
54515.55,316.251,-1736.77,0,0
54775.875,313.407,-1727.96,0,0
55036.2,310.635,-1719.38,0,0
55296.525,307.638,-1710.85,0,0
55556.85,304.717,-1702.07,0,0
55817.175,301.852,-1693.17,0,0
56077.5,299.161,-1684.23,0,0
56337.825,296.647,-1675.02,0,0
56598.15,294.684,-1665.61,0,0
56858.475,293.173,-1656.88,0,0
57118.8,291.688,-1648.38,0,0
57379.125,290.353,-1640,0,0
57639.45,289.176,-1631.91,0,0
57899.775,288.01,-1624.2,0,0
58160.1,286.48,-1616.67,0,0
58420.4,285.023,-1609.25,0,0
58680.7,283.344,-1601.86,0,0
58941.1,281.802,-1594.29,0,0
59201.4,280.43,-1586.9,0,0
59461.7,279.038,-1579.78,0,0
59722,277.487,-1572.63,0,0
59982.4,275.847,-1565.64,0,0
60242.7,274.345,-1558.2,0,0
60503,273.081,-1551.07,0,0
60763.3,271.695,-1544.05,0,0
61023.7,270.732,-1536.74,0,0
61284,269.978,-1529.98,0,0
61544.3,269.27,-1523.71,0,0
61804.6,268.015,-1517.88,0,0
62065,266.057,-1511.93,0,0
62325.3,263.806,-1505.46,0,0
62585.6,261.669,-1498.06,0,0
62845.9,260.573,-1490.33,0,0
63106.3,260.453,-1483.27,0,0
63366.6,260.723,-1477.03,0,0
63626.9,260.138,-1471.57,0,0
63887.2,259.813,-1466.01,0,0
64147.6,259.011,-1461.42,0,0
64407.9,257.248,-1456.56,0,0
64668.2,255.275,-1451.37,0,0
64928.5,253.154,-1445.97,0,0
65188.9,250.96,-1440.11,0,0
65449.2,249.153,-1434.16,0,0
65709.5,247.338,-1428.2,0,0
65969.8,245.615,-1422.18,0,0
66230.2,243.664,-1416.22,0,0
66490.5,241.828,-1410.02,0,0
66750.8,240.143,-1403.53,0,0
67011.1,238.742,-1397.21,0,0
67271.5,237.576,-1390.65,0,0
67531.8,236.486,-1384.16,0,0
67792.1,235.643,-1377.82,0,0
68052.4,234.844,-1371.42,0,0
68312.8,234.47,-1365.52,0,0
68573.1,233.963,-1359.9,0,0
68833.4,233.808,-1354.04,0,0
69093.7,233.399,-1348.52,0,0
69354.1,232.99,-1343.04,0,0
69614.4,232.734,-1337.74,0,0
69874.7,232.608,-1332.63,0,0
70135,232.374,-1327.84,0,0
70395.4,232.008,-1323.12,0,0
70655.7,231.638,-1318.63,0,0
70916,231.153,-1314.25,0,0
71176.3,230.57,-1310.03,0,0
71436.7,229.77,-1305.87,0,0
71697,228.753,-1301.77,0,0
71957.3,227.392,-1297.51,0,0
72217.6,226.007,-1293.06,0,0
72478,224.663,-1288.58,0,0
72738.3,223.241,-1283.83,0,0
72998.6,221.982,-1279.3,0,0
73258.9,220.785,-1274.5,0,0
73519.3,219.52,-1269.95,0,0
73779.6,218.272,-1265.08,0,0
74039.9,217.164,-1260.26,0,0
74300.225,216.088,-1255.31,0,0
74560.55,215.305,-1250.48,0,0
74820.875,214.658,-1245.77,0,0
75081.2,213.809,-1241.25,0,0
75341.525,213.038,-1236.77,0,0
75601.85,212.239,-1232.36,0,0
75862.175,211.399,-1228,0,0
76122.5,210.569,-1223.64,0,0
76382.825,209.803,-1219.27,0,0
76643.15,209.014,-1214.99,0,0
76903.475,208.184,-1210.82,0,0
77163.8,207.372,-1206.58,0,0
77424.125,206.489,-1202.41,0,0
77684.45,205.575,-1198.27,0,0
77944.775,204.623,-1194.18,0,0
78205.1,203.732,-1190.02,0,0
78465.425,202.782,-1185.82,0,0
78725.75,201.991,-1181.65,0,0
78986.075,201.075,-1177.58,0,0
79246.4,200.193,-1173.56,0,0
79506.725,199.306,-1169.51,0,0
79767.05,198.544,-1165.46,0,0
80027.375,197.595,-1161.46,0,0
80287.7,196.682,-1157.54,0,0
80548.025,195.716,-1153.55,0,0
80808.35,194.81,-1149.66,0,0
81068.675,193.741,-1145.68,0,0
81329.0,192.743,-1141.68,0,0
81589.325,191.75,-1137.68,0,0
81849.65,190.715,-1133.7,0,0
82109.975,189.715,-1129.6,0,0
82370.3,188.807,-1125.54,0,0
82630.625,187.897,-1121.54,0,0
82890.95,186.985,-1117.37,0,0
83151.275,186.106,-1113.36,0,0
83411.6,185.266,-1109.38,0,0
83671.925,184.405,-1105.35,0,0
83932.25,183.573,-1101.31,0,0
84192.575,182.659,-1097.32,0,0
84452.9,181.906,-1093.39,0,0
84713.225,181.028,-1089.26,0,0
84973.55,180.271,-1085.26,0,0
85233.875,179.453,-1081.19,0,0
85494.2,178.731,-1076.97,0,0
85754.525,178.079,-1072.82,0,0
86014.85,177.397,-1068.65,0,0
86275.175,176.936,-1064.48,0,0
86535.5,176.519,-1060.23,0,0
86795.825,176.284,-1056.13,0,0
87056.15,176.049,-1052.16,0,0
87316.475,175.781,-1048.15,0,0
87576.8,175.548,-1044.28,0,0
87837.125,175.292,-1040.31,0,0
88097.45,175.375,-1036.43,0,0
88357.775,175.35,-1032.51,0,0
88618.1,175.615,-1028.77,0,0
88878.425,175.777,-1025.1,0,0
89138.75,175.944,-1021.66,0,0
89399.075,176.26,-1018.26,0,0
89659.4,176.545,-1015.1,0,0
89919.725,176.916,-1012.04,0,0
90180,177.037,-1009.51,0,0
90440.4,176.997,-1006.57,0,0
90700.7,177.017,-1003.85,0,0
90961,176.767,-1001.43,0,0
91221.3,176.415,-998.953,0,0
91481.7,175.792,-996.537,0,0
91742,174.802,-994.06,0,0
92002.3,173.542,-991.126,0,0
92262.6,172.748,-987.956,0,0
92523,171.847,-984.867,0,0
92783.3,170.806,-981.75,0,0
93043.6,169.942,-978.154,0,0
93303.9,169.347,-974.679,0,0
93564.3,168.883,-971.314,0,0
93824.6,168.325,-967.843,0,0
94084.9,167.901,-964.253,0,0
94345.2,167.767,-960.753,0,0
94605.6,167.801,-957.278,0,0
94865.9,168.107,-954.267,0,0
95126.2,168.041,-951.467,0,0
95386.5,168.026,-948.556,0,0
95646.9,167.94,-945.794,0,0
95907.2,167.85,-943.176,0,0
96167.5,167.586,-940.582,0,0
96427.8,167.329,-938.014,0,0
96688.2,167,-935.562,0,0
96948.5,166.517,-933.278,0,0
97208.8,165.724,-930.915,0,0
97469.1,164.64,-928.285,0,0
97729.5,163.638,-925.267,0,0
97989.8,162.707,-922.205,0,0
98250.1,161.98,-918.855,0,0
98510.4,161.555,-915.481,0,0
98770.8,161.275,-912.263,0,0
99031.1,161.156,-909.097,0,0
99291.4,161.119,-906.031,0,0
99551.7,161.1,-903.197,0,0
99812.1,161.105,-900.33,0,0
100072,161.209,-897.677,0,0
100333,161.291,-895.132,0,0
100593,161.389,-892.903,0,0
100853,161.206,-890.858,0,0
101114,160.823,-888.884,0,0
101374,160.084,-886.767,0,0
101634,159.326,-884.408,0,0
101895,158.618,-881.997,0,0
102155,157.961,-879.505,0,0
102415,157.436,-877.022,0,0
102676,156.939,-874.656,0,0
102936,156.322,-872.473,0,0
103196,155.576,-870.356,0,0
103457,154.693,-868.188,0,0
103717,153.73,-865.947,0,0
103977,152.758,-863.741,0,0
104238,151.578,-861.71,0,0
104498,150.025,-859.52,0,0
104758,148.438,-857.024,0,0
105019,146.741,-854.452,0,0
105279,144.785,-851.611,0,0
105539,142.887,-848.465,0,0
105800,140.936,-844.965,0,0
106060,139.234,-841.15,0,0
106320.175,137.668,-837.082,0,0
106580.5,136.43,-832.873,0,0
106840.825,135.46,-828.431,0,0
107101.15,134.923,-824.02,0,0
107361.475,134.611,-819.842,0,0
107621.8,134.388,-815.563,0,0
107882.125,134.486,-811.371,0,0
108142.45,134.718,-807.379,0,0
108402.775,135.11,-803.477,0,0
108663.1,135.533,-799.838,0,0
108923.425,135.808,-796.455,0,0
109183.75,135.99,-792.758,0,0
109444.075,136.33,-789.097,0,0
109704.4,136.896,-785.422,0,0
109964.725,137.615,-781.84,0,0
110225.05,138.273,-778.544,0,0
110485.375,139.104,-775.098,0,0
110745.7,139.911,-771.63,0,0
111006.025,140.875,-768.279,0,0
111266.35,141.871,-765.007,0,0
111526.675,143.125,-761.873,0,0
111787.0,144.526,-758.724,0,0
112047.325,146.219,-756.138,0,0
112307.65,147.732,-753.774,0,0
112567.975,149.187,-751.781,0,0
112828.3,150.122,-749.942,0,0
113088.625,151.057,-747.735,0,0
113348.95,152.184,-745.748,0,0
113609.275,152.986,-743.895,0,0
113869.6,153.887,-742,0,0
114129.925,154.578,-739.957,0,0
114390.25,155.297,-738.004,0,0
114650.575,156.12,-735.881,0,0
114910.9,157.225,-733.917,0,0
115171.225,158.265,-732.08,0,0
115431.55,159.485,-730.291,0,0
115691.875,160.88,-728.847,0,0
115952.2,162.172,-727.702,0,0
116212.525,163.697,-726.802,0,0
116472.85,165.059,-726.521,0,0
116733.175,165.987,-727.016,0,0
116993.5,165.956,-727.822,0,0
117253.825,164.973,-728.439,0,0
117514.15,163.32,-728.421,0,0
117774.475,161.406,-727.801,0,0
118034.8,159.398,-726.556,0,0
118295.125,157.444,-724.699,0,0
118555.45,155.83,-722.66,0,0
118815.775,154.404,-720.308,0,0
119076.1,153.163,-717.83,0,0
119336.425,152.085,-715.096,0,0
119596.75,151.261,-712.248,0,0
119857.075,150.807,-709.337,0,0
120117.4,150.464,-706.532,0,0
120377.725,150.566,-703.54,0,0
120638.05,151.28,-700.853,0,0
120898.375,152.186,-699.041,0,0
121158.7,152.689,-697.72,0,0
121419.025,152.766,-696.625,0,0
121679.35,152.412,-695.626,0,0
121939.675,151.567,-694.509,0,0
122200.0,150.38,-692.98,0,0
122460,149.209,-691.018,0,0
122721,148.145,-688.709,0,0
122981,147.487,-686.314,0,0
123241,146.916,-684.06,0,0
123502,146.324,-681.658,0,0
123762,146.019,-679.333,0,0
124022,145.755,-677.249,0,0
124283,145.277,-675.254,0,0
124543,144.782,-673.153,0,0
124803,144.258,-671.047,0,0
125064,143.66,-668.997,0,0
125324,142.95,-666.845,0,0
125584,142.295,-664.56,0,0
125845,141.667,-662.248,0,0
126105,141.017,-659.872,0,0
126365,140.409,-657.548,0,0
126626,139.749,-655.063,0,0
126886,139.12,-652.526,0,0
127146,138.433,-650.059,0,0
127406,137.843,-646.952,0,0
127667,137.394,-644.095,0,0
127927,137.161,-641.17,0,0
128187,137.16,-638.247,0,0
128448,137.204,-635.407,0,0
128708,137.336,-632.56,0,0
128968,137.777,-629.851,0,0
129229,138.308,-627.388,0,0
129489,138.674,-625.197,0,0
129749,138.889,-623.011,0,0
130010,139.116,-620.952,0,0
130270,139.25,-618.97,0,0
130530,139.152,-616.972,0,0
130791,138.979,-614.867,0,0
131051,138.811,-612.707,0,0
131311,138.62,-610.504,0,0
131572,138.408,-608.287,0,0
131832,138.172,-605.99,0,0
132092,137.926,-603.59,0,0
132353,137.732,-601.148,0,0
132613,137.582,-598.64,0,0
132873,137.605,-596.199,0,0
133134,137.571,-593.804,0,0
133394,137.489,-591.471,0,0
133654,137.37,-589.014,0,0
133915,137.265,-586.553,0,0
134175,137.126,-584.004,0,0
134435,137.108,-581.437,0,0
134696,137.128,-578.844,0,0
134956,137.198,-576.275,0,0
135216,137.187,-573.657,0,0
135477,137.251,-571.026,0,0
135737,137.34,-568.298,0,0
135997,137.507,-565.534,0,0
136258,137.834,-562.792,0,0
136518,138.151,-560.048,0,0
136778,138.623,-557.315,0,0
137039,139.139,-554.717,0,0
137299,139.616,-552.083,0,0
137559,140.212,-549.46,0,0
137819,140.82,-546.986,0,0
138080,141.431,-544.555,0,0
138340.125,141.995,-542.178,0,0
138600.45,142.565,-539.738,0,0
138860.775,143.139,-537.274,0,0
139121.1,143.724,-534.837,0,0
139381.425,144.389,-532.482,0,0
139641.75,144.949,-530.045,0,0
139902.075,145.745,-527.669,0,0
140162.4,146.514,-525.24,0,0
140422.725,147.195,-522.867,0,0
140683.05,148.051,-520.386,0,0
140943.375,149.129,-518.055,0,0
141203.7,150.273,-515.901,0,0
141464.025,151.375,-513.939,0,0
141724.35,152.368,-512.186,0,0
141984.675,153.145,-510.576,0,0
142245.0,153.947,-508.846,0,0
142505.325,154.529,-507.156,0,0
142765.65,155.156,-505.37,0,0
143025.975,155.621,-503.646,0,0
143286.3,155.985,-501.838,0,0
143546.625,156.384,-500.003,0,0
143806.95,156.77,-498.029,0,0
144067.275,157.153,-496.012,0,0
144327.6,157.644,-493.999,0,0
144587.925,158.124,-491.876,0,0
144848.25,158.81,-489.819,0,0
145108.575,159.454,-487.738,0,0
145368.9,160.202,-485.937,0,0
145629.225,160.95,-484.188,0,0
145889.55,161.403,-482.49,0,0
146149.875,161.874,-480.718,0,0
146410.2,162.431,-478.998,0,0
146670.525,162.88,-477.245,0,0
146930.85,163.24,-475.608,0,0
147191.175,163.507,-474.04,0,0
147451.5,163.695,-472.4,0,0
147711.825,163.678,-470.709,0,0
147972.15,163.49,-468.954,0,0
148232.475,163.239,-466.898,0,0
148492.8,163.04,-464.691,0,0
148753.125,162.842,-462.318,0,0
149013.45,162.682,-459.826,0,0
149273.775,162.752,-457.183,0,0
149534.1,162.825,-454.564,0,0
149794.425,162.981,-451.857,0,0
150054.75,163.291,-449.036,0,0
150315.075,163.517,-446.162,0,0
150575.4,163.937,-443.259,0,0
150835.725,164.404,-440.236,0,0
151096.05,165.028,-437.25,0,0
151356.375,165.732,-434.063,0,0
151616.7,166.665,-430.861,0,0
151877.025,167.826,-427.56,0,0
152137.35,169.35,-424.344,0,0
152397.675,171.131,-421.286,0,0
152658.0,173.211,-418.691,0,0
152918.325,175.172,-416.406,0,0
153178.65,177.072,-414.275,0,0
153438.975,179.063,-412.289,0,0
153699.3,180.922,-410.818,0,0
153959.625,182.37,-409.531,0,0
154219.95,183.417,-408.203,0,0
154480,184.103,-406.667,0,0
154741,184.78,-404.827,0,0
155001,185.456,-402.697,0,0
155261,186.287,-400.287,0,0
155522,187.42,-397.763,0,0
155782,188.848,-395.343,0,0
156042,190.406,-393.096,0,0
156303,192.261,-390.912,0,0
156563,194.255,-389.04,0,0
156823,196.289,-387.703,0,0
157084,197.892,-386.638,0,0
157344,199.152,-385.714,0,0
157604,200.142,-384.791,0,0
157864,200.879,-383.776,0,0
158125,201.282,-382.593,0,0
158385,201.759,-381.189,0,0
158645,202.047,-379.682,0,0
158906,202.332,-377.891,0,0
159166,202.66,-375.974,0,0
159426,203.105,-373.901,0,0
159687,203.615,-371.854,0,0
159947,204.189,-369.749,0,0
160207,204.747,-367.526,0,0
160468,205.315,-365.385,0,0
160728,205.986,-363.125,0,0
160988,206.681,-360.851,0,0
161249,207.41,-358.55,0,0
161509,208.257,-356.333,0,0
161769,208.983,-354.145,0,0
162030,209.553,-351.887,0,0
162290,210.105,-349.394,0,0
162550,210.766,-346.782,0,0
162811,211.551,-344.017,0,0
163071,212.46,-341.288,0,0
163331,213.538,-338.564,0,0
163592,214.653,-335.857,0,0
163852,215.842,-333.198,0,0
164112,217.007,-330.582,0,0
164373,218.177,-327.998,0,0
164633,219.317,-325.34,0,0
164893,220.461,-322.589,0,0
165154,221.677,-319.772,0,0
165414,223.046,-316.902,0,0
165674,224.415,-314.059,0,0
165935,225.902,-311.198,0,0
166195,227.507,-308.287,0,0
166455,229.213,-305.509,0,0
166716,230.922,-302.824,0,0
166976,232.586,-300.143,0,0
167236,234.204,-297.41,0,0
167497,235.817,-294.608,0,0
167757,237.629,-291.754,0,0
168017,239.455,-288.873,0,0
168277,241.393,-286.012,0,0
168538,243.417,-283.195,0,0
168798,245.515,-280.399,0,0
169058,247.719,-277.738,0,0
169319,249.873,-275.163,0,0
169579,252.03,-272.605,0,0
169839,254.115,-270.079,0,0
170100,256.229,-267.568,0,0
170360.075,258.287,-265.077,0,0
170620.4,260.344,-262.458,0,0
170880.725,262.413,-259.871,0,0
171141.05,264.508,-257.296,0,0
171401.375,266.627,-254.648,0,0
171661.7,268.816,-251.987,0,0
171922.025,270.967,-249.35,0,0
172182.35,273.086,-246.771,0,0
172442.675,275.253,-244.046,0,0
172703.0,277.481,-241.368,0,0
172963.325,279.675,-238.652,0,0
173223.65,281.76,-235.967,0,0
173483.975,283.862,-233.216,0,0
173744.3,285.97,-230.265,0,0
174004.625,288.13,-227.258,0,0
174264.95,290.212,-224.164,0,0
174525.275,292.388,-220.911,0,0
174785.6,294.607,-217.537,0,0
175045.925,297.002,-214.044,0,0
175306.25,299.48,-210.411,0,0
175566.575,302.091,-206.737,0,0
175826.9,304.842,-202.977,0,0
176087.225,307.678,-199.168,0,0
176347.55,310.679,-195.224,0,0
176607.875,313.85,-191.215,0,0
176868.2,317.191,-187.091,0,0
177128.525,320.756,-182.984,0,0
177388.85,324.45,-178.804,0,0
177649.175,328.366,-174.598,0,0
177909.5,332.496,-170.343,0,0
178169.825,336.844,-166.103,0,0
178430.15,341.508,-161.823,0,0
178690.475,346.463,-157.607,0,0
178950.8,351.72,-153.499,0,0
179211.125,357.206,-149.592,0,0
179471.45,362.961,-145.846,0,0
179731.775,368.902,-142.423,0,0
179992.1,374.835,-139.276,0,0
180252.425,380.81,-136.366,0,0
180512.75,386.608,-133.663,0,0
180773.075,392.391,-130.921,0,0
181033.4,398.21,-128.186,0,0
181293.725,404.032,-125.389,0,0
181554.05,409.999,-122.588,0,0
181814.375,416.093,-119.802,0,0
182074.7,422.354,-116.997,0,0
182335.025,428.787,-114.346,0,0
182595.35,435.338,-111.959,0,0
182855.675,441.955,-109.786,0,0
183116.0,448.359,-107.62,0,0
183376.325,454.729,-105.546,0,0
183636.65,460.97,-103.29,0,0
183896.975,467.184,-101.029,0,0
184157.3,473.416,-98.425,0,0
184417.625,479.857,-95.6089,0,0
184677.95,486.541,-92.5407,0,0
184938.275,493.621,-89.3688,0,0
185198.6,501,-86.1629,0,0
185458.925,508.584,-82.7588,0,0
185719.25,516.578,-79.2828,0,0
185979.575,525.179,-75.7508,0,0
186239.9,534.095,-72.2972,0,0
186500,543.65,-68.8733,0,0
186761,553.629,-65.7799,0,0
187021,563.967,-62.7778,0,0
187281,574.924,-59.865,0,0
187542,586.446,-57.1305,0,0
187802,598.466,-54.8084,0,0
188062,611.069,-52.8506,0,0
188322,624.183,-51.3547,0,0
188583,637.756,-50.2757,0,0
188843,651.932,-49.711,0,0
189103,666.681,-49.9201,0,0
189364,681.917,-50.8409,0,0
189624,697.376,-52.8312,0,0
189884,712.973,-55.5671,0,0
190145,728.886,-59.063,0,0
190405,744.914,-63.6069,0,0
190665,760.91,-69.2716,0,0
190926,776.551,-76.1152,0,0
191186,791.547,-83.893,0,0
191446,805.975,-92.1856,0,0
191707,819.85,-101.112,0,0
191967,833.207,-110.323,0,0
192227,846.104,-119.842,0,0
192488,858.557,-129.601,0,0
192748,870.735,-139.478,0,0
193008,882.723,-149.467,0,0
193269,894.706,-159.726,0,0
193529,906.614,-170.256,0,0
193789,918.538,-181.131,0,0
194050,930.532,-192.571,0,0
194310,942.366,-204.545,0,0
194570,954.077,-217.139,0,0
194831,965.605,-230.313,0,0
195091,976.792,-244.041,0,0
195351,988.129,-258.495,0,0
195612,998.728,-273.575,0,0
195872,1008.92,-289.506,0,0
196132,1018.69,-305.812,0,0
196393,1027.95,-322.904,0,0
196653,1036.78,-340.545,0,0
196913,1044.83,-358.687,0,0
197174,1052.32,-377.594,0,0
197434,1059.09,-397.268,0,0
197694,1064.7,-417.16,0,0
197955,1069.63,-437.553,0,0
198215,1073.58,-458.066,0,0
198475,1076.75,-478.836,0,0
198735,1078.94,-499.986,0,0
198996,1080.36,-521.349,0,0
199256,1080.79,-542.598,0,0
199516,1080.34,-564.151,0,0
199777,1078.84,-585.928,0,0
200037,1076.54,-607.206,0,0
200297,1073.45,-628.978,0,0
200558,1069.14,-650.597,0,0
200818,1063.72,-672.444,0,0
201078,1057.02,-693.593,0,0
201339,1049.69,-714.443,0,0
201599,1041.2,-735.028,0,0
201859,1031.61,-754.957,0,0
202120,1021.05,-774.424,0,0
202380.025,1009.48,-793.159,0,0
202640.35,997.058,-811.146,0,0
202900.675,984.112,-827.989,0,0
203161.0,970.517,-844.595,0,0
203421.325,956.056,-859.829,0,0
203681.65,941.485,-874.063,0,0
203941.975,926.278,-888.119,0,0
204202.3,911.094,-900.337,0,0
204462.625,895.625,-912.616,0,0
204722.95,879.435,-923.534,0,0
204983.275,863.427,-933.582,0,0
205243.6,847.449,-943.154,0,0
205503.925,830.954,-951.706,0,0
205764.25,814.512,-959.499,0,0
206024.575,797.993,-966.585,0,0
206284.9,781.849,-972.768,0,0
206545.225,765.627,-978.307,0,0
206805.55,749.649,-983.27,0,0
207065.875,733.923,-987.075,0,0
207326.2,718.152,-990.899,0,0
207586.525,702.659,-993.87,0,0
207846.85,687.525,-996.156,0,0
208107.175,672.51,-998.07,0,0
208367.5,657.877,-999.31,0,0
208627.825,643.587,-1000.15,0,0
208888.15,629.342,-1000.65,0,0
209148.475,615.593,-1000.54,0,0
209408.8,601.996,-1000.09,0,0
209669.125,588.851,-999.278,0,0
209929.45,575.878,-998.135,0,0
210189.775,563.419,-996.984,0,0
210450.1,551.089,-995.329,0,0
210710.425,539.212,-993.448,0,0
210970.75,527.375,-991.173,0,0
211231.075,515.579,-988.553,0,0
211491.4,504.604,-986.092,0,0
211751.725,493.522,-983.059,0,0
212012.05,482.875,-979.926,0,0
212272.375,472.589,-976.055,0,0
212532.7,462.632,-972.273,0,0
212793.025,453.229,-968.367,0,0
213053.35,444.269,-964.283,0,0
213313.675,435.519,-960.35,0,0
213574.0,427.071,-956.48,0,0
213834.325,418.835,-952.535,0,0
214094.65,410.627,-948.634,0,0
214354.975,402.701,-944.628,0,0
214615.3,394.906,-940.406,0,0
214875.625,387.451,-936.365,0,0
215135.95,379.691,-931.76,0,0
215396.275,372.631,-927.419,0,0
215656.6,365.752,-922.992,0,0
215916.925,359.086,-918.263,0,0
216177.25,352.594,-913.735,0,0
216437.575,346.268,-909.064,0,0
216697.9,340.165,-904.459,0,0
216958.225,334.306,-899.897,0,0
217218.55,328.6,-895.276,0,0
217478.875,323.015,-890.493,0,0
217739.2,317.587,-885.8,0,0
217999.525,312.252,-881.147,0,0
218259.85,307.112,-876.353,0,0
218520,302.105,-871.506,0,0
218780,297.364,-866.705,0,0
219041,292.773,-861.972,0,0
219301,288.172,-857.061,0,0
219561,283.72,-852.213,0,0
219822,279.558,-847.386,0,0
220082,275.583,-842.488,0,0
220342,271.601,-837.505,0,0
220603,267.963,-832.513,0,0
220863,264.375,-827.594,0,0
221123,260.92,-822.681,0,0
221384,257.587,-817.564,0,0
221644,254.375,-812.574,0,0
221904,251.489,-807.515,0,0
222165,248.718,-802.578,0,0
222425,246.079,-797.526,0,0
222685,243.668,-792.367,0,0
222946,241.465,-787.316,0,0
223206,239.473,-782.344,0,0
223466,237.673,-777.194,0,0
223727,236.061,-772.192,0,0
223987,234.696,-767.327,0,0
224247,233.647,-762.514,0,0
224508,232.768,-757.753,0,0
224768,232.375,-753.181,0,0
225028,231.642,-748.871,0,0
225289,231.599,-744.758,0,0
225549,231.681,-740.919,0,0
225809,231.696,-737.116,0,0
226070,231.79,-734.04,0,0
226330,231.922,-731.061,0,0
226590,232.062,-728.303,0,0
226851,232.026,-726.12,0,0
227111,231.853,-723.686,0,0
227371,231.551,-721.668,0,0
227632,230.891,-719.625,0,0
227892,230.156,-717.75,0,0
228152,229.093,-715.818,0,0
228413,228.09,-713.833,0,0
228673,226.906,-711.722,0,0
228933,225.635,-709.595,0,0
229193,224.208,-707.28,0,0
229454,222.905,-704.944,0,0
229714,221.448,-702.468,0,0
229974,220.21,-699.954,0,0
230235,218.893,-697.369,0,0
230495,217.712,-694.643,0,0
230755,216.503,-691.824,0,0
231016,215.369,-689.042,0,0
231276,214.332,-686.19,0,0
231536,213.373,-683.396,0,0
231797,212.459,-680.42,0,0
232057,211.612,-677.517,0,0
232317,210.9,-674.576,0,0
232578,210.181,-671.618,0,0
232838,209.579,-668.661,0,0
233098,209.062,-665.725,0,0
233359,208.623,-662.729,0,0
233619,208.221,-659.718,0,0
233879,207.96,-656.788,0,0
234140,207.74,-653.853,0,0
234400,207.62,-650.967,0,0
234660.3,207.66,-648.008,0,0
234920.625,207.651,-645.068,0,0
235180.95,207.896,-642.268,0,0
235441.275,207.987,-639.513,0,0
235701.6,208.277,-636.661,0,0
235961.925,208.626,-633.944,0,0
236222.25,209.08,-631.257,0,0
236482.575,209.516,-628.611,0,0
236742.9,210.15,-625.984,0,0
237003.225,210.721,-623.403,0,0
237263.55,211.412,-620.905,0,0
237523.875,212.121,-618.428,0,0
237784.2,212.932,-615.991,0,0
238044.525,213.818,-613.594,0,0
238304.85,214.768,-611.251,0,0
238565.175,215.81,-608.945,0,0
238825.5,216.841,-606.747,0,0
239085.825,218.001,-604.589,0,0
239346.15,219.1,-602.432,0,0
239606.475,220.446,-600.384,0,0
239866.8,221.739,-598.581,0,0
240127.125,223.103,-596.641,0,0
240387.45,224.545,-594.874,0,0
240647.775,225.988,-593.1,0,0
240908.1,227.446,-591.47,0,0
241168.425,229.024,-589.981,0,0
241428.75,230.643,-588.487,0,0
241689.075,232.106,-587.191,0,0
241949.4,233.732,-585.82,0,0
242209.725,235.325,-584.576,0,0
242470.05,236.94,-583.415,0,0
242730.375,238.633,-582.367,0,0
242990.7,240.298,-581.309,0,0
243251.025,241.972,-580.319,0,0
243511.35,243.707,-579.417,0,0
243771.675,245.503,-578.553,0,0
244032.0,247.368,-577.769,0,0
244292.325,249.252,-577.151,0,0
244552.65,251.222,-576.698,0,0
244812.975,253.298,-576.262,0,0
245073.3,255.208,-576.112,0,0
245333.625,257.218,-576.052,0,0
245593.95,259.037,-576.206,0,0
245854.275,260.813,-576.298,0,0
246114.6,262.543,-576.596,0,0
246374.925,264.178,-576.953,0,0
246635.25,265.8,-577.287,0,0
246895.575,267.37,-577.798,0,0
247155.9,268.919,-578.231,0,0
247416.225,270.356,-578.946,0,0
247676.55,271.791,-579.591,0,0
247936.875,273.19,-580.177,0,0
248197.2,274.449,-580.913,0,0
248457.525,275.657,-581.705,0,0
248717.85,276.822,-582.49,0,0
248978.175,278.005,-583.173,0,0
249238.5,279.083,-583.801,0,0
249498.825,280.191,-584.387,0,0
249759.15,281.34,-584.899,0,0
250019.475,282.812,-585.53,0,0
250279.8,284.438,-586.067,0,0
250540,286.296,-586.76,0,0
250800,288.381,-587.831,0,0
251061,290.506,-589.199,0,0
251321,292.593,-590.957,0,0
251581,294.594,-593.053,0,0
251842,296.424,-595.457,0,0
252102,298.052,-598.163,0,0
252362,299.441,-601.082,0,0
252623,300.522,-604.207,0,0
252883,301.341,-607.376,0,0
253143,301.906,-610.653,0,0
253404,302.245,-614.034,0,0
253664,302.296,-617.469,0,0
253924,302.12,-620.934,0,0
254185,301.566,-624.457,0,0
254445,301.042,-627.971,0,0
254705,300.036,-631.579,0,0
254966,298.65,-634.896,0,0
255226,297.258,-638.328,0,0
255486,295.417,-641.547,0,0
255747,293.453,-644.545,0,0
256007,291.119,-647.635,0,0
256267,288.784,-650.371,0,0
256528,286.297,-653.044,0,0
256788,283.642,-655.427,0,0
257048,280.91,-657.512,0,0
257309,277.99,-659.63,0,0
257569,275.076,-661.5,0,0
257829,272.122,-663.206,0,0
258090,269.105,-664.709,0,0
258350,266.097,-666.099,0,0
258610,263.107,-667.334,0,0
258871,260.092,-668.408,0,0
259131,257.017,-669.365,0,0
259391,254.013,-670.247,0,0
259651,251.003,-671.048,0,0
259912,247.896,-671.515,0,0
260172,244.846,-672.191,0,0
260432,241.8,-672.402,0,0
260693,238.831,-672.71,0,0
260953,235.968,-672.912,0,0
261213,233.009,-672.944,0,0
261474,230.093,-672.912,0,0
261734,227.265,-672.818,0,0
261994,224.447,-672.577,0,0
262255,221.692,-672.294,0,0
262515,219.056,-671.934,0,0
262775,216.4,-671.591,0,0
263036,213.816,-671.099,0,0
263296,211.292,-670.594,0,0
263556,208.766,-670.078,0,0
263817,206.344,-669.498,0,0
264077,203.844,-668.959,0,0
264337,201.513,-668.29,0,0
264598,199.064,-667.592,0,0
264858,196.707,-666.807,0,0
265118,194.462,-666.036,0,0
265379,192.18,-665.216,0,0
265639,189.968,-664.367,0,0
265899,187.665,-663.437,0,0
266160,185.619,-662.416,0,0
266420,183.603,-661.578,0,0
266680.25,181.577,-660.683,0,0
266940.575,179.578,-659.595,0,0
267200.9,177.634,-658.617,0,0
267461.225,175.646,-657.586,0,0
267721.55,173.743,-656.545,0,0
267981.875,171.823,-655.497,0,0
268242.2,169.952,-654.424,0,0
268502.525,168.111,-653.374,0,0
268762.85,166.319,-652.252,0,0
269023.175,164.573,-651.09,0,0
269283.5,162.774,-649.995,0,0
269543.825,161.006,-648.795,0,0
269804.15,159.312,-647.758,0,0
270064.475,157.742,-646.449,0,0
270324.8,155.994,-645.292,0,0
270585.125,154.484,-644.089,0,0
270845.45,152.858,-642.95,0,0
271105.775,151.385,-641.675,0,0
271366.1,149.803,-640.413,0,0
271626.425,148.337,-639.176,0,0
271886.75,146.855,-637.784,0,0
272147.075,145.442,-636.617,0,0
272407.4,143.989,-635.308,0,0
272667.725,142.563,-634.004,0,0
272928.05,141.216,-632.731,0,0
273188.375,139.94,-631.377,0,0
273448.7,138.541,-630.042,0,0
273709.025,137.31,-628.777,0,0
273969.35,135.984,-627.397,0,0
274229.675,134.793,-626.083,0,0
274490.0,133.592,-624.744,0,0
274750.325,132.407,-623.505,0,0
275010.65,131.26,-622.063,0,0
275270.975,130.117,-620.744,0,0
275531.3,128.994,-619.419,0,0
275791.625,127.918,-618.092,0,0
276051.95,126.815,-616.77,0,0
276312.275,125.746,-615.428,0,0
276572.6,124.778,-614.094,0,0
276832.925,123.736,-612.749,0,0
277093.25,122.8,-611.374,0,0
277353.575,121.803,-610.043,0,0
277613.9,120.895,-608.7,0,0
277874.225,119.96,-607.371,0,0
278134.55,119.049,-606.033,0,0
278394.875,118.146,-604.698,0,0
278655.2,117.308,-603.349,0,0
278915.525,116.47,-601.99,0,0
279175.85,115.589,-600.615,0,0
279436.175,114.873,-599.264,0,0
279696.5,114.059,-597.835,0,0
279956.825,113.377,-596.431,0,0
280217.15,112.718,-595.091,0,0
280477.475,112.053,-593.722,0,0
280737.8,111.473,-592.361,0,0
280998.125,110.906,-591.051,0,0
281258.45,110.409,-589.801,0,0
281518.775,109.921,-588.547,0,0
281779.1,109.408,-587.39,0,0
282039.425,108.887,-586.228,0,0
282299.75,108.371,-585.097,0,0
282560,107.83,-583.987,0,0
282820,107.284,-582.872,0,0
283081,106.726,-581.741,0,0
283341,106.177,-580.619,0,0
283601,105.606,-579.472,0,0
283862,105.073,-578.304,0,0
284122,104.534,-577.137,0,0
284382,104.086,-575.989,0,0
284643,103.642,-574.84,0,0
284903,103.193,-573.636,0,0
285163,102.766,-572.494,0,0
285424,102.475,-571.384,0,0
285684,102.19,-570.248,0,0
285944,101.868,-569.221,0,0
286205,101.623,-568.229,0,0
286465,101.396,-567.267,0,0
286725,101.078,-566.416,0,0
286986,100.777,-565.612,0,0
287246,100.4,-564.816,0,0
287506,99.9999,-564.023,0,0
287767,99.5631,-563.236,0,0
288027,99.0583,-562.448,0,0
288287,98.5462,-561.629,0,0
288548,98.0342,-560.774,0,0
288808,97.5015,-559.898,0,0
289068,96.9921,-559.012,0,0
289329,96.4854,-558.109,0,0
289589,95.9892,-557.216,0,0
289849,95.4971,-556.287,0,0
290109,95.02,-555.342,0,0
290370,94.5591,-554.418,0,0
290630,94.0978,-553.504,0,0
290890,93.6877,-552.55,0,0
291151,93.2792,-551.679,0,0
291411,92.8728,-550.772,0,0
291671,92.4581,-549.883,0,0
291932,92.0759,-548.994,0,0
292192,91.6578,-548.143,0,0
292452,91.2927,-547.296,0,0
292713,90.875,-546.486,0,0
292973,90.4718,-545.661,0,0
293233,90.0636,-544.867,0,0
293494,89.6368,-544.081,0,0
293754,89.1875,-543.285,0,0
294014,88.7351,-542.537,0,0
294275,88.2141,-541.704,0,0
294535,87.7101,-540.939,0,0
294795,87.2006,-540.151,0,0
295056,86.6463,-539.303,0,0
295316,86.1138,-538.442,0,0
295576,85.5528,-537.558,0,0
295837,84.9669,-536.607,0,0
296097,84.4286,-535.67,0,0
296357,83.8713,-534.696,0,0
296618,83.358,-533.708,0,0
296878,82.8557,-532.644,0,0
297138,82.3828,-531.578,0,0
297399,81.9675,-530.497,0,0
297659,81.609,-529.387,0,0
297919,81.2992,-528.264,0,0
298180,81.0452,-527.163,0,0
298440,80.8362,-526.109,0,0
298700.2,80.7147,-525.076,0,0
298960.525,80.5324,-524.088,0,0
299220.85,80.511,-523.123,0,0
299481.175,80.3456,-522.423,0,0
299741.5,80.171,-521.573,0,0
300001.825,80.0187,-520.754,0,0
300262.15,79.8388,-520.006,0,0
300522.475,79.5897,-519.269,0,0
300782.8,79.3784,-518.499,0,0
301043.125,79.0981,-517.783,0,0
301303.45,78.8363,-516.997,0,0
301563.775,78.5753,-516.3,0,0
301824.1,78.2925,-515.52,0,0
302084.425,78.0491,-514.729,0,0
302344.75,77.7587,-513.976,0,0
302605.075,77.4489,-513.192,0,0
302865.4,77.1526,-512.391,0,0
303125.725,76.8476,-511.592,0,0
303386.05,76.5399,-510.77,0,0
303646.375,76.2932,-509.964,0,0
303906.7,76.0743,-509.135,0,0
304167.025,75.7689,-508.328,0,0
304427.35,75.5673,-507.496,0,0
304687.675,75.3783,-506.735,0,0
304948.0,75.115,-505.901,0,0
305208.325,74.9713,-505.172,0,0
305468.65,74.8216,-504.351,0,0
305728.975,74.6592,-503.578,0,0
305989.3,74.4548,-502.89,0,0
306249.625,74.297,-502.161,0,0
306509.95,74.1295,-501.53,0,0
306770.275,73.9652,-500.865,0,0
307030.6,73.7655,-500.19,0,0
307290.925,73.4748,-499.547,0,0
307551.25,73.2042,-498.899,0,0
307811.575,72.9272,-498.258,0,0
308071.9,72.6859,-497.573,0,0
308332.225,72.409,-496.939,0,0
308592.55,72.112,-496.234,0,0
308852.875,71.8704,-495.523,0,0
309113.2,71.6061,-494.903,0,0
309373.525,71.3205,-494.184,0,0
309633.85,71.027,-493.449,0,0
309894.175,70.7948,-492.76,0,0
310154.5,70.5066,-492.046,0,0
310414.825,70.2821,-491.432,0,0
310675.15,70.0295,-490.695,0,0
310935.475,69.7073,-490.031,0,0
311195.8,69.4683,-489.343,0,0
311456.125,69.219,-488.654,0,0
311716.45,68.9683,-488.032,0,0
311976.775,68.6744,-487.333,0,0
312237.1,68.3889,-486.643,0,0
312497.425,68.1079,-485.952,0,0
312757.75,67.8261,-485.306,0,0
313018.075,67.5455,-484.64,0,0
313278.4,67.2904,-483.864,0,0
313538.725,66.9724,-483.208,0,0
313799.05,66.6887,-482.524,0,0
314059.375,66.4097,-481.772,0,0
314319.7,66.1253,-481.041,0,0
314580,65.8915,-480.318,0,0
314840,65.6414,-479.606,0,0
315101,65.3532,-478.927,0,0
315361,65.1304,-478.149,0,0
315621,64.8757,-477.433,0,0
315882,64.6628,-476.751,0,0
316142,64.4607,-475.999,0,0
316402,64.2173,-475.279,0,0
316663,64.0255,-474.592,0,0
316923,63.7332,-473.857,0,0
317183,63.5633,-473.172,0,0
317444,63.341,-472.507,0,0
317704,63.1075,-471.807,0,0
317964,62.8905,-471.107,0,0
318225,62.6968,-470.423,0,0
318485,62.4343,-469.73,0,0
318745,62.181,-469.043,0,0
319006,61.9998,-468.352,0,0
319266,61.7159,-467.602,0,0
319526,61.5104,-466.922,0,0
319787,61.3501,-466.195,0,0
320047,61.0359,-465.458,0,0
320307,60.8749,-464.752,0,0
320567,60.6566,-464.05,0,0
320828,60.4843,-463.329,0,0
321088,60.2597,-462.658,0,0
321348,60.1278,-461.909,0,0
321609,59.9084,-461.164,0,0
321869,59.8204,-460.491,0,0
322129,59.5992,-459.801,0,0
322390,59.4204,-459.082,0,0
322650,59.2778,-458.386,0,0
322910,59.1411,-457.723,0,0
323171,58.986,-457.06,0,0
323431,58.8277,-456.346,0,0
323691,58.6839,-455.725,0,0
323952,58.5297,-455.055,0,0
324212,58.3788,-454.392,0,0
324472,58.2383,-453.695,0,0
324733,58.0181,-453.091,0,0
324993,57.8667,-452.431,0,0
325253,57.7807,-451.797,0,0
325514,57.553,-451.152,0,0
325774,57.3388,-450.436,0,0
326034,57.1897,-449.846,0,0
326295,57.0412,-449.225,0,0
326555,56.8301,-448.55,0,0
326815,56.6277,-447.89,0,0
327076,56.4811,-447.244,0,0
327336,56.3073,-446.555,0,0
327596,56.1407,-445.871,0,0
327857,55.9458,-445.225,0,0
328117,55.8023,-444.515,0,0
328377,55.6598,-443.888,0,0
328638,55.4868,-443.225,0,0
328898,55.3305,-442.531,0,0
329158,55.1591,-441.842,0,0
329419,54.9979,-441.222,0,0
329679,54.8794,-440.557,0,0
329939,54.7263,-439.882,0,0
330200,54.5896,-439.166,0,0
330460,54.4763,-438.525,0,0
330720.15,54.3246,-437.853,0,0
330980.475,54.1699,-437.144,0,0
331240.8,54.0083,-436.466,0,0
331501.125,53.9145,-435.817,0,0
331761.45,53.7628,-435.13,0,0
332021.775,53.6727,-434.467,0,0
332282.1,53.5482,-433.777,0,0
332542.425,53.4476,-433.118,0,0
332802.75,53.3449,-432.43,0,0
333063.075,53.2986,-431.796,0,0
333323.4,53.1439,-431.116,0,0
333583.725,53.0875,-430.443,0,0
333844.05,52.9737,-429.768,0,0
334104.375,52.8915,-429.153,0,0
334364.7,52.8249,-428.516,0,0
334625.025,52.7608,-427.798,0,0
334885.35,52.6725,-427.198,0,0
335145.675,52.6486,-426.56,0,0
335406.0,52.5415,-425.908,0,0
335666.325,52.4982,-425.269,0,0
335926.65,52.4037,-424.626,0,0
336186.975,52.3885,-424.091,0,0
336447.3,52.2724,-423.441,0,0
336707.625,52.1962,-422.826,0,0
336967.95,52.1261,-422.18,0,0
337228.275,52.0816,-421.621,0,0
337488.6,52.0169,-420.989,0,0
337748.925,51.9338,-420.384,0,0
338009.25,51.8373,-419.791,0,0
338269.575,51.7885,-419.214,0,0
338529.9,51.6959,-418.569,0,0
338790.225,51.624,-417.929,0,0
339050.55,51.5076,-417.343,0,0
339310.875,51.455,-416.763,0,0
339571.2,51.3963,-416.111,0,0
339831.525,51.3213,-415.518,0,0
340091.85,51.2307,-414.891,0,0
340352.175,51.1828,-414.288,0,0
340612.5,51.1399,-413.674,0,0
340872.825,51.1108,-413.054,0,0
341133.15,51.0186,-412.414,0,0
341393.475,50.993,-411.852,0,0
341653.8,50.9484,-411.193,0,0
341914.125,50.9182,-410.612,0,0
342174.45,50.9314,-410.007,0,0
342434.775,50.9038,-409.396,0,0
342695.1,50.9059,-408.799,0,0
342955.425,50.9118,-408.255,0,0
343215.75,50.9412,-407.681,0,0
343476.075,50.9582,-407.174,0,0
343736.4,50.9167,-406.639,0,0
343996.725,50.9102,-406.159,0,0
344257.05,50.8646,-405.672,0,0
344517.375,50.7852,-405.158,0,0
344777.7,50.7105,-404.638,0,0
345038.025,50.5778,-404.098,0,0
345298.35,50.4605,-403.591,0,0
345558.675,50.3741,-402.982,0,0
345819.0,50.2287,-402.451,0,0
346079.325,50.1558,-401.832,0,0
346339.65,50.1318,-401.22,0,0
346599.975,50.0212,-400.645,0,0
346860,49.9543,-400.053,0,0
347121,49.9136,-399.458,0,0
347381,49.8559,-398.841,0,0
347641,49.8219,-398.247,0,0
347902,49.7938,-397.676,0,0
348162,49.7551,-397.089,0,0
348422,49.7277,-396.45,0,0
348683,49.7157,-395.89,0,0
348943,49.7196,-395.321,0,0
349203,49.6786,-394.712,0,0
349464,49.7153,-394.13,0,0
349724,49.7239,-393.555,0,0
349984,49.6887,-393.031,0,0
350245,49.7339,-392.412,0,0
350505,49.7572,-391.899,0,0
350765,49.7626,-391.311,0,0
351025,49.8207,-390.786,0,0
351286,49.8094,-390.249,0,0
351546,49.8302,-389.733,0,0
351806,49.8472,-389.162,0,0
352067,49.8635,-388.641,0,0
352327,49.9098,-388.115,0,0
352587,49.9155,-387.613,0,0
352848,49.9775,-387.084,0,0
353108,49.9695,-386.57,0,0
353368,49.9987,-386.085,0,0
353629,50.0417,-385.596,0,0
353889,50.0905,-385.147,0,0
354149,50.0759,-384.629,0,0
354410,50.1035,-384.188,0,0
354670,50.1415,-383.703,0,0
354930,50.1136,-383.2,0,0
355191,50.099,-382.753,0,0
355451,50.1245,-382.292,0,0
355711,50.097,-381.861,0,0
355972,50.1126,-381.395,0,0
356232,50.0712,-380.914,0,0
356492,50.079,-380.418,0,0
356753,50.029,-379.968,0,0
357013,50.0184,-379.495,0,0
357273,49.9753,-379.04,0,0
357534,49.9625,-378.545,0,0
357794,49.9479,-378.056,0,0
358054,49.9428,-377.628,0,0
358315,49.9039,-377.107,0,0
358575,49.9111,-376.643,0,0
358835,49.8941,-376.219,0,0
359096,49.8878,-375.724,0,0
359356,49.9097,-375.293,0,0
359616,49.8738,-374.78,0,0
359877,49.8735,-374.335,0,0
360137,49.8058,-373.92,0,0
360397,49.7933,-373.517,0,0
360658,49.7153,-373.044,0,0
360918,49.6945,-372.593,0,0
361178,49.6387,-372.142,0,0
361438,49.5994,-371.681,0,0
361699,49.5056,-371.248,0,0
361959,49.4845,-370.749,0,0
362219,49.3822,-370.264,0,0
362480,49.3662,-369.817,0,0
362740.1,49.319,-369.289,0,0
363000.425,49.2735,-368.853,0,0
363260.75,49.2102,-368.37,0,0
363521.075,49.1804,-367.854,0,0
363781.4,49.1076,-367.39,0,0
364041.725,49.0417,-366.908,0,0
364302.05,49.0409,-366.408,0,0
364562.375,48.9878,-365.902,0,0
364822.7,48.9446,-365.408,0,0
365083.025,48.9282,-364.909,0,0
365343.35,48.9409,-364.381,0,0
365603.675,48.9183,-363.938,0,0
365864.0,48.8711,-363.441,0,0
366124.325,48.8716,-362.886,0,0
366384.65,48.8607,-362.457,0,0
366644.975,48.8672,-361.966,0,0
366905.3,48.8428,-361.47,0,0
367165.625,48.8888,-360.979,0,0
367425.95,48.849,-360.533,0,0
367686.275,48.8603,-360.043,0,0
367946.6,48.8247,-359.598,0,0
368206.925,48.8651,-359.117,0,0
368467.25,48.8067,-358.677,0,0
368727.575,48.8135,-358.192,0,0
368987.9,48.7491,-357.72,0,0
369248.225,48.7861,-357.269,0,0
369508.55,48.8055,-356.777,0,0
369768.875,48.7635,-356.314,0,0
370029.2,48.7398,-355.824,0,0
370289.525,48.7949,-355.34,0,0
370549.85,48.7594,-354.874,0,0
370810.175,48.7736,-354.424,0,0
371070.5,48.8057,-353.924,0,0
371330.825,48.8259,-353.444,0,0
371591.15,48.8103,-353.003,0,0
371851.475,48.8568,-352.547,0,0
372111.8,48.8831,-352.088,0,0
372372.125,48.9296,-351.655,0,0
372632.45,48.9569,-351.263,0,0
372892.775,48.9909,-350.782,0,0
373153.1,49.0261,-350.403,0,0
373413.425,49.0502,-350.015,0,0
373673.75,49.0655,-349.632,0,0
373934.075,49.0905,-349.246,0,0
374194.4,49.0904,-348.892,0,0
374454.725,49.0405,-348.528,0,0
374715.05,49.0133,-348.185,0,0
374975.375,48.9242,-347.796,0,0
375235.7,48.849,-347.437,0,0
375496.025,48.7715,-347.002,0,0
375756.35,48.6649,-346.61,0,0
376016.675,48.5549,-346.222,0,0
376277.0,48.4803,-345.74,0,0
376537.325,48.3945,-345.317,0,0
376797.65,48.3077,-344.879,0,0
377057.975,48.2068,-344.43,0,0
377318.3,48.1259,-343.938,0,0
377578.625,48.077,-343.5,0,0
377838.95,47.9827,-343.026,0,0
378099.275,47.9087,-342.569,0,0
378359.6,47.845,-342.067,0,0
378619.925,47.7809,-341.574,0,0
378880,47.7064,-341.106,0,0
379141,47.6346,-340.63,0,0
379401,47.5403,-340.15,0,0
379661,47.4961,-339.655,0,0
379922,47.4153,-339.155,0,0
380182,47.3533,-338.651,0,0
380442,47.3027,-338.133,0,0
380703,47.2615,-337.62,0,0
380963,47.1842,-337.097,0,0
381223,47.1266,-336.591,0,0
381483,47.0983,-336.042,0,0
381744,47.076,-335.478,0,0
382004,47.0915,-334.899,0,0
382264,47.1114,-334.369,0,0
382525,47.1336,-333.828,0,0
382785,47.156,-333.278,0,0
383045,47.2366,-332.823,0,0
383306,47.3229,-332.325,0,0
383566,47.3762,-331.867,0,0
383826,47.4582,-331.451,0,0
384087,47.4669,-331.056,0,0
384347,47.4334,-330.626,0,0
384607,47.4336,-330.197,0,0
384868,47.3846,-329.793,0,0
385128,47.3323,-329.35,0,0
385388,47.2777,-328.888,0,0
385649,47.1931,-328.413,0,0
385909,47.1913,-327.934,0,0
386169,47.1389,-327.487,0,0
386430,47.1261,-326.989,0,0
386690,47.097,-326.48,0,0
386950,47.0785,-325.992,0,0
387211,47.0288,-325.504,0,0
387471,47.008,-324.998,0,0
387731,47.0071,-324.505,0,0
387992,46.9656,-324.009,0,0
388252,46.9402,-323.508,0,0
388512,46.8993,-322.965,0,0
388773,46.8974,-322.483,0,0
389033,46.9129,-321.948,0,0
389293,46.8779,-321.454,0,0
389554,46.8906,-320.934,0,0
389814,46.8677,-320.427,0,0
390074,46.8583,-319.88,0,0
390335,46.8576,-319.402,0,0
390595,46.9071,-318.916,0,0
390855,46.8909,-318.385,0,0
391116,46.8932,-317.848,0,0
391376,46.9027,-317.373,0,0
391636,46.8822,-316.855,0,0
391896,46.8993,-316.348,0,0
392157,46.8957,-315.82,0,0
392417,46.9295,-315.305,0,0
392677,46.9293,-314.794,0,0
392938,46.9325,-314.278,0,0
393198,46.9618,-313.767,0,0
393458,46.9709,-313.244,0,0
393719,46.9978,-312.708,0,0
393979,47.0015,-312.192,0,0
394239,47.0343,-311.661,0,0
394500,47.0467,-311.137,0,0
394760.05,47.0677,-310.627,0,0
395020.375,47.0843,-310.091,0,0
395280.7,47.1216,-309.564,0,0
395541.025,47.1552,-309.039,0,0
395801.35,47.1814,-308.517,0,0
396061.675,47.194,-307.97,0,0
396322.0,47.2526,-307.445,0,0
396582.325,47.2815,-306.928,0,0
396842.65,47.327,-306.394,0,0
397102.975,47.3523,-305.847,0,0
397363.3,47.407,-305.31,0,0
397623.625,47.4079,-304.79,0,0
397883.95,47.474,-304.24,0,0
398144.275,47.5154,-303.723,0,0
398404.6,47.5798,-303.186,0,0
398664.925,47.6062,-302.616,0,0
398925.25,47.6606,-302.073,0,0
399185.575,47.7196,-301.55,0,0
399445.9,47.7978,-301.018,0,0
399706.225,47.8734,-300.433,0,0
399966.55,47.9093,-299.925,0,0
400006.6,47.927,-299.829,0,0