File: Accelerated corrosion test data/2025-10-10_06-00-03/sample_4.csv
Frequency (Hz),Impedance (ohms),Phase (Radians),Temperature (C),Humidity (%)
10000.0,263.753,-11871.3,0,0
10260.325,260.283,-11573.1,0,0
10520.65,250.888,-11288.9,0,0
10780.975,244.521,-11018.6,0,0
11041.3,239.391,-10760,0,0
11301.625,234.547,-10517.1,0,0
11561.95,229.343,-10281.1,0,0
11822.275,224.753,-10056.2,0,0
12082.6,219.871,-9841.56,0,0
12342.925,215.227,-9634.91,0,0
12603.25,212.905,-9435.85,0,0
12863.575,208.5,-9248.21,0,0
13123.9,207.677,-9069.51,0,0
13384.225,199.325,-8891.22,0,0
13644.55,195.795,-8720.61,0,0
13904.875,192.711,-8555.48,0,0
14165.2,193.541,-8393.32,0,0
14425.525,197.674,-8245.44,0,0
14685.8,202.291,-8130.34,0,0
14946.175,181.581,-7973.61,0,0
15206.5,181.714,-7831.41,0,0
15466.825,187.046,-7688.12,0,0
15727.15,189.751,-7586.53,0,0
15987.5,187.979,-7472.63,0,0
16247.8,170.862,-7342.89,0,0
16508.125,186.017,-7215.01,0,0
16768.45,178.149,-7114.69,0,0
17028.775,172.304,-7027.61,0,0
17289.1,160.52,-6913.95,0,0
17549.425,159.081,-6809.7,0,0
17809.75,156.313,-6708.24,0,0
18070.075,152.51,-6610.09,0,0
18330.4,154.371,-6514.52,0,0
18590.725,153.54,-6425.41,0,0
18851.05,149.825,-6340.99,0,0
19111.375,145.505,-6251.91,0,0
19371.7,143.044,-6166.72,0,0
19632.025,141.788,-6082.59,0,0
19892.35,144.138,-6001.81,0,0
20152.675,143.73,-5925.09,0,0
20413.0,141.023,-5851.74,0,0
20673.3,140.748,-5777.04,0,0
20933.65,137.31,-5703.33,0,0
21193.975,140.246,-5628.56,0,0
21454.3,151.689,-5563.07,0,0
21714.625,145.484,-5506.58,0,0
21974.9,149.301,-5435.14,0,0
22235.275,149.226,-5389.31,0,0
22495.6,136.268,-5333.39,0,0
22755.925,128.594,-5268.92,0,0
23016.25,125.053,-5206.8,0,0
23276.6,122.587,-5146.65,0,0
23536.9,121.315,-5089.16,0,0
23797.225,118.944,-5032.55,0,0
24057.55,117.454,-4976.64,0,0
24317.875,116.51,-4922.08,0,0
24578.2,114.828,-4868.81,0,0
24838.525,114.743,-4816.76,0,0
25098.85,114.599,-4765.63,0,0
25359.175,113.133,-4718.61,0,0
25619.5,112.23,-4668.59,0,0
25879.8,110.599,-4624.89,0,0
26140.1,108.041,-4576.58,0,0
26400.5,107.312,-4529.96,0,0
26660.8,106.689,-4483.13,0,0
26921.1,107.082,-4439.41,0,0
27181.4,105.537,-4394.98,0,0
27441.8,106.26,-4350.42,0,0
27702.1,109.367,-4306.13,0,0
27962.4,116.134,-4264.55,0,0
28222.7,120.005,-4235.3,0,0
28483.1,113.717,-4201.77,0,0
28743.4,110.062,-4160.97,0,0
29003.7,112.995,-4119.92,0,0
29264,116.533,-4088.21,0,0
29524.4,113.218,-4056.58,0,0
29784.7,108.429,-4026.6,0,0
30045,107.091,-3988.8,0,0
30305.3,101.699,-3955.32,0,0
30565.7,100.162,-3919.65,0,0
30826,98.7287,-3885.27,0,0
31086.3,97.9981,-3851.42,0,0
31346.6,99.1924,-3818.05,0,0
31607,97.4097,-3787.83,0,0
31867.3,97.1811,-3755.35,0,0
32127.6,99.7532,-3725.12,0,0
32387.9,98.1862,-3699.11,0,0
32648.3,96.8332,-3668.76,0,0
32908.6,95.2128,-3641.98,0,0
33168.9,92.4899,-3613.07,0,0
33429.2,89.925,-3584.31,0,0
33689.6,88.5328,-3555.25,0,0
33949.9,87.4234,-3526.83,0,0
34210.2,87.8922,-3499.07,0,0
34470.5,86.1821,-3473.17,0,0
34730.9,84.9409,-3445.94,0,0
34991.2,84.7386,-3419.54,0,0
35251.5,84.1803,-3393.67,0,0
35511.8,83.2793,-3368.47,0,0
35772.2,82.5788,-3343.36,0,0
36032.5,81.763,-3318.35,0,0
36292.8,81.1788,-3293.95,0,0
36553.1,80.7531,-3269.47,0,0
36813.5,80.6514,-3245.43,0,0
37073.8,80.7181,-3222.07,0,0
37334.1,79.8564,-3199.75,0,0
37594.4,79.2332,-3176.68,0,0
37854.8,79.2148,-3154.42,0,0
38115.1,77.9891,-3132.55,0,0
38375.4,77.1722,-3109.89,0,0
38635.7,77.3181,-3087.79,0,0
38896.1,77.3373,-3066.19,0,0
39156.4,76.867,-3045.74,0,0
39416.7,76.485,-3024.48,0,0
39677,76.3923,-3002.89,0,0
39937.4,76.8973,-2982.26,0,0
40197.7,78.3391,-2961.79,0,0
40458,80.3341,-2942.92,0,0
40718.3,79.5625,-2926.03,0,0
40978.7,79.2592,-2905.84,0,0
41239,80.3238,-2887.62,0,0
41499.3,82.4171,-2871.2,0,0
41759.6,78.7288,-2855.03,0,0
42020,77.9268,-2836.56,0,0
42280.275,76.9155,-2817.55,0,0
42540.6,78.9468,-2799.86,0,0
42800.925,78.0822,-2785.5,0,0
43061.25,75.5395,-2767.12,0,0
43321.575,75.5615,-2750.33,0,0
43581.9,74.3647,-2733.63,0,0
43842.225,74.1839,-2716.48,0,0
44102.55,73.4983,-2700.8,0,0
44362.875,72.2252,-2683.53,0,0
44623.2,72.2903,-2667.13,0,0
44883.525,71.9909,-2651.2,0,0
45143.85,71.4142,-2635.62,0,0
45404.175,70.6403,-2618.84,0,0
45664.5,71.4497,-2602.27,0,0
45924.825,72.7636,-2588.23,0,0
46185.15,71.4154,-2574.68,0,0
46445.475,70.4597,-2558,0,0
46705.8,71.5734,-2543.08,0,0
46966.125,71.5881,-2529.38,0,0
47226.45,71.6636,-2514.71,0,0
47486.775,71.655,-2502.32,0,0
47747.1,69.9605,-2488.51,0,0
48007.425,69.4942,-2474.39,0,0
48267.75,68.3128,-2460.82,0,0
48528.075,67.9071,-2446.89,0,0
48788.4,67.2787,-2433.19,0,0
49048.725,66.0583,-2419.31,0,0
49309.05,66.3379,-2405.13,0,0
49569.375,65.5108,-2392.25,0,0
49829.7,64.8955,-2378.39,0,0
50090.025,64.776,-2365.33,0,0
50350.35,64.6303,-2351.88,0,0
50610.675,64.3743,-2339.06,0,0
50871.0,64.1477,-2326,0,0
51131.325,63.9405,-2312.96,0,0
51391.65,63.726,-2300.03,0,0
51651.975,63.9119,-2287.21,0,0
51912.3,63.9611,-2274.75,0,0
52172.625,64.1937,-2261.86,0,0
52432.95,64.1323,-2249.77,0,0
52693.275,64.4499,-2236.95,0,0
52953.6,65.6046,-2224.36,0,0
53213.925,66.4878,-2212.59,0,0
53474.25,67.6539,-2200.63,0,0
53734.575,68.9376,-2188.87,0,0
53994.9,71.5939,-2177.51,0,0
54255.225,73.6701,-2167.93,0,0
54515.55,75.9703,-2159.21,0,0
54775.875,75.9527,-2151.95,0,0
55036.2,74.3473,-2143.4,0,0
55296.525,73.5543,-2133.62,0,0
55556.85,71.9952,-2124.96,0,0
55817.175,70.2305,-2114.51,0,0
56077.5,68.7067,-2104.42,0,0
56337.825,67.13,-2093.66,0,0
56598.15,66.0605,-2082.16,0,0
56858.475,65.8243,-2071.02,0,0
57118.8,65.6543,-2060.29,0,0
57379.125,66.1811,-2049.38,0,0
57639.45,66.3138,-2039.27,0,0
57899.775,66.3157,-2029.03,0,0
58160.1,66.7447,-2018.54,0,0
58420.4,67.6157,-2008.6,0,0
58680.7,68.0832,-1999.75,0,0
58941.1,67.5706,-1989.34,0,0
59201.4,68.6144,-1978.36,0,0
59461.7,70.7099,-1968.41,0,0
59722,73.1044,-1959.33,0,0
59982.4,75.7451,-1951.46,0,0
60242.7,76.8795,-1944.89,0,0
60503,77.5492,-1937.19,0,0
60763.3,79.864,-1930.04,0,0
61023.7,80.4773,-1926.32,0,0
61284,78.4111,-1921.26,0,0
61544.3,74.6836,-1915.47,0,0
61804.6,71.0919,-1905.8,0,0
62065,69.9521,-1896.82,0,0
62325.3,68.7399,-1888.73,0,0
62585.6,66.1268,-1880.08,0,0
62845.9,65.185,-1869.63,0,0
63106.3,64.7152,-1860.93,0,0
63366.6,64.2147,-1851.66,0,0
63626.9,64.3442,-1842.56,0,0
63887.2,64.45,-1834.81,0,0
64147.6,63.5966,-1825.65,0,0
64407.9,63.8243,-1816.59,0,0
64668.2,64.5625,-1808.19,0,0
64928.5,64.9606,-1800.21,0,0
65188.9,65.1191,-1792.16,0,0
65449.2,65.3706,-1784.4,0,0
65709.5,65.2665,-1776.13,0,0
65969.8,66.5435,-1767.78,0,0
66230.2,67.4273,-1760.59,0,0
66490.5,67.9844,-1753.2,0,0
66750.8,68.5523,-1746,0,0
67011.1,69.1584,-1738.66,0,0
67271.5,70.3363,-1731.61,0,0
67531.8,71.4176,-1725.05,0,0
67792.1,72.2935,-1718.89,0,0
68052.4,73.0542,-1713.13,0,0
68312.8,73.4359,-1707.49,0,0
68573.1,73.7815,-1702.34,0,0
68833.4,73.1592,-1697.97,0,0
69093.7,71.504,-1692.73,0,0
69354.1,69.4659,-1686.91,0,0
69614.4,67.439,-1679.93,0,0
69874.7,66.4724,-1672.69,0,0
70135,65.5371,-1665.83,0,0
70395.4,64.1695,-1658.75,0,0
70655.7,63.9129,-1650.53,0,0
70916,65.0819,-1644.07,0,0
71176.3,64.7458,-1638.38,0,0
71436.7,64.1731,-1632.18,0,0
71697,63.9171,-1626.43,0,0
71957.3,62.4191,-1620.77,0,0
72217.6,60.6605,-1614.24,0,0
72478,59.2443,-1607.2,0,0
72738.3,58.3164,-1599.75,0,0
72998.6,57.6883,-1592.44,0,0
73258.9,57.1094,-1584.82,0,0
73519.3,57.4969,-1577.43,0,0
73779.6,57.8005,-1570.53,0,0
74039.9,58.2903,-1563.82,0,0
74300.225,58.4112,-1557.4,0,0
74560.55,58.6352,-1550.65,0,0
74820.875,59.0967,-1544.22,0,0
75081.2,59.7792,-1537.73,0,0
75341.525,60.5906,-1531.74,0,0
75601.85,61.0003,-1526.09,0,0
75862.175,61.2772,-1520.24,0,0
76122.5,61.652,-1514.36,0,0
76382.825,62.2215,-1508.88,0,0
76643.15,62.3042,-1503.52,0,0
76903.475,62.0152,-1497.6,0,0
77163.8,62.8716,-1491.18,0,0
77424.125,64.0947,-1485.9,0,0
77684.45,65.0019,-1481.13,0,0
77944.775,65.5863,-1476.8,0,0
78205.1,65.4909,-1472.35,0,0
78465.425,65.277,-1467.91,0,0
78725.75,64.743,-1463.36,0,0
78986.075,63.9488,-1458.72,0,0
79246.4,63.0143,-1453.7,0,0
79506.725,62.2631,-1448.28,0,0
79767.05,61.5884,-1442.87,0,0
80027.375,61.2246,-1437.33,0,0
80287.7,60.8728,-1431.91,0,0
80548.025,60.7284,-1426.45,0,0
80808.35,60.5969,-1421.15,0,0
81068.675,60.5206,-1415.93,0,0
81329.0,60.5103,-1410.83,0,0
81589.325,60.3632,-1405.83,0,0
81849.65,60.1441,-1400.91,0,0
82109.975,59.7969,-1395.93,0,0
82370.3,59.6095,-1390.9,0,0
82630.625,59.3247,-1385.87,0,0
82890.95,59.1044,-1380.87,0,0
83151.275,58.8196,-1375.93,0,0
83411.6,58.5427,-1371.01,0,0
83671.925,58.268,-1365.97,0,0
83932.25,58.1214,-1360.99,0,0
84192.575,57.8925,-1356.02,0,0
84452.9,57.7231,-1351.11,0,0
84713.225,57.4541,-1346.23,0,0
84973.55,57.3801,-1341.32,0,0
85233.875,57.3402,-1336.57,0,0
85494.2,57.0122,-1331.76,0,0
85754.525,56.8,-1327.04,0,0
86014.85,56.6783,-1322.2,0,0
86275.175,56.5207,-1317.44,0,0
86535.5,56.4525,-1312.71,0,0
86795.825,56.375,-1308.11,0,0
87056.15,56.1815,-1303.58,0,0
87316.475,55.8947,-1299.01,0,0
87576.8,55.7852,-1294.38,0,0
87837.125,55.4939,-1290.04,0,0
88097.45,55.0163,-1285.64,0,0
88357.775,54.3479,-1280.91,0,0
88618.1,53.9644,-1275.88,0,0
88878.425,53.7627,-1271.02,0,0
89138.75,53.6335,-1266.2,0,0
89399.075,53.4595,-1261.35,0,0
89659.4,53.5091,-1256.57,0,0
89919.725,53.5258,-1251.93,0,0
90180,53.482,-1247.39,0,0
90440.4,53.401,-1242.89,0,0
90700.7,53.3685,-1238.25,0,0
90961,53.2934,-1233.7,0,0
91221.3,53.2383,-1229.03,0,0
91481.7,53.3001,-1224.31,0,0
91742,53.4526,-1219.73,0,0
92002.3,53.6744,-1215.14,0,0
92262.6,53.9929,-1210.7,0,0
92523,54.3357,-1206.39,0,0
92783.3,54.6743,-1202.28,0,0
93043.6,54.9245,-1198.29,0,0
93303.9,54.9845,-1194.38,0,0
93564.3,54.8342,-1190.43,0,0
93824.6,54.6785,-1186.39,0,0
94084.9,54.4575,-1182.5,0,0
94345.2,53.9916,-1178.39,0,0
94605.6,53.5569,-1174.07,0,0
94865.9,53.2511,-1169.61,0,0
95126.2,53.0365,-1165.12,0,0
95386.5,52.9148,-1160.65,0,0
95646.9,52.8666,-1156.12,0,0
95907.2,52.9753,-1151.64,0,0
96167.5,53.0546,-1147.22,0,0
96427.8,53.2704,-1142.81,0,0
96688.2,53.4301,-1138.53,0,0
96948.5,53.6141,-1134.23,0,0
97208.8,53.7476,-1129.94,0,0
97469.1,53.9853,-1125.71,0,0
97729.5,54.0857,-1121.45,0,0
97989.8,54.3068,-1117.07,0,0
98250.1,54.654,-1112.74,0,0
98510.4,55.007,-1108.53,0,0
98770.8,55.3195,-1104.24,0,0
99031.1,55.8173,-1099.92,0,0
99291.4,56.4545,-1095.74,0,0
99551.7,57.0593,-1091.8,0,0
99812.1,57.4656,-1087.88,0,0
100072,57.9032,-1083.63,0,0
100333,58.7698,-1079.4,0,0
100593,60.0394,-1075.61,0,0
100853,61.0062,-1072.36,0,0
101114,61.5891,-1069.12,0,0
101374,62.355,-1065.91,0,0
101634,62.9378,-1063.23,0,0
101895,62.8638,-1060.72,0,0
102155,62.1399,-1058.05,0,0
102415,61.0454,-1054.68,0,0
102676,59.9797,-1050.8,0,0
102936,59.1093,-1046.56,0,0
103196,58.4517,-1041.98,0,0
103457,58.0612,-1037.17,0,0
103717,57.9981,-1032.18,0,0
103977,58.3902,-1027.22,0,0
104238,58.9673,-1022.53,0,0
104498,59.6514,-1017.8,0,0
104758,60.5666,-1013.13,0,0
105019,61.6302,-1008.63,0,0
105279,62.8443,-1004.3,0,0
105539,64.0278,-1000.14,0,0
105800,65.3068,-995.986,0,0
106060,66.6804,-992.052,0,0
106320.175,68.0449,-988.16,0,0
106580.5,69.4534,-984.383,0,0
106840.825,70.8856,-980.748,0,0
107101.15,72.2377,-977.255,0,0
107361.475,73.4732,-973.745,0,0
107621.8,74.7475,-970.168,0,0
107882.125,76.1549,-966.563,0,0
108142.45,77.6864,-963.077,0,0
108402.775,79.3596,-959.591,0,0
108663.1,81.1202,-956.359,0,0
108923.425,82.9369,-953.32,0,0
109183.75,84.6938,-950.441,0,0
109444.075,86.5336,-947.76,0,0
109704.4,88.2123,-945.275,0,0
109964.725,89.6475,-942.955,0,0
110225.05,91.0399,-940.497,0,0
110485.375,92.5352,-938.159,0,0
110745.7,93.7582,-935.984,0,0
111006.025,95.015,-933.725,0,0
111266.35,96.2867,-931.58,0,0
111526.675,97.2613,-929.481,0,0
111787.0,98.3152,-927.305,0,0
112047.325,99.5052,-925.109,0,0
112307.65,100.624,-923.205,0,0
112567.975,101.602,-921.221,0,0
112828.3,102.57,-919.379,0,0
113088.625,103.446,-917.499,0,0
113348.95,104.313,-915.79,0,0
113609.275,105.059,-914.017,0,0
113869.6,105.691,-912.309,0,0
114129.925,106.278,-910.617,0,0
114390.25,106.819,-908.905,0,0
114650.575,107.295,-907.226,0,0
114910.9,107.767,-905.559,0,0
115171.225,108.122,-903.996,0,0
115431.55,108.369,-902.461,0,0
115691.875,108.456,-900.863,0,0
115952.2,108.452,-899.223,0,0
116212.525,108.452,-897.499,0,0
116472.85,108.397,-895.834,0,0
116733.175,108.149,-894.166,0,0
116993.5,107.79,-892.323,0,0
117253.825,107.387,-890.377,0,0
117514.15,106.946,-888.3,0,0
117774.475,106.478,-886.036,0,0
118034.8,106.12,-883.515,0,0
118295.125,106.022,-880.927,0,0
118555.45,105.979,-878.433,0,0
118815.775,105.964,-875.671,0,0
119076.1,106.254,-872.721,0,0
119336.425,107.186,-869.76,0,0
119596.75,108.795,-867.434,0,0
119857.075,110.315,-865.911,0,0
120117.4,111.613,-865.013,0,0
120377.725,112.375,-864.733,0,0
120638.05,112.384,-864.723,0,0
120898.375,111.443,-864.625,0,0
121158.7,109.953,-863.845,0,0
121419.025,108.364,-862.44,0,0
121679.35,106.895,-860.657,0,0
121939.675,105.49,-858.619,0,0
122200.0,104.218,-856.363,0,0
122460,103.102,-853.931,0,0
122721,102.151,-851.378,0,0
122981,101.423,-848.866,0,0
123241,100.669,-846.42,0,0
123502,99.9479,-843.91,0,0
123762,99.3194,-841.376,0,0
124022,98.7244,-838.877,0,0
124283,98.1414,-836.399,0,0
124543,97.5708,-833.877,0,0
124803,97.0146,-831.345,0,0
125064,96.6322,-828.75,0,0
125324,96.2682,-826.339,0,0
125584,95.8966,-823.955,0,0
125845,95.506,-821.603,0,0
126105,95.1943,-819.371,0,0
126365,94.7176,-817.333,0,0
126626,94.0229,-815.331,0,0
126886,93.1801,-813.102,0,0
127146,92.3371,-810.851,0,0
127406,91.4034,-808.347,0,0
127667,90.7554,-806.109,0,0
127927,89.8588,-803.884,0,0
128187,88.7324,-801.632,0,0
128448,87.4167,-799.229,0,0
128708,86.0924,-796.571,0,0
128968,84.8435,-793.835,0,0
129229,83.4471,-790.999,0,0
129489,82.1231,-787.97,0,0
129749,80.8051,-784.771,0,0
130010,79.5486,-781.412,0,0
130270,78.4453,-777.847,0,0
130530,77.5339,-774.279,0,0
130791,76.66,-770.763,0,0
131051,75.7933,-767.141,0,0
131311,75.0181,-763.376,0,0
131572,74.4635,-759.599,0,0
131832,73.9814,-755.867,0,0
132092,73.5317,-752.205,0,0
132353,73.0529,-748.409,0,0
132613,72.7274,-744.557,0,0
132873,72.5238,-740.753,0,0
133134,72.3602,-736.991,0,0
133394,72.2368,-733.224,0,0
133654,72.1618,-729.406,0,0
133915,72.1826,-725.6,0,0
134175,72.2421,-721.812,0,0
134435,72.3919,-718.048,0,0
134696,72.5339,-714.282,0,0
134956,72.7561,-710.519,0,0
135216,73.0232,-706.701,0,0
135477,73.4311,-702.956,0,0
135737,73.8927,-699.24,0,0
135997,74.397,-695.635,0,0
136258,74.8148,-692.04,0,0
136518,75.3501,-688.424,0,0
136778,75.9702,-684.876,0,0
137039,76.5296,-681.418,0,0
137299,77.0778,-678.06,0,0
137559,77.5252,-674.703,0,0
137819,77.907,-671.322,0,0
138080,78.2429,-667.847,0,0
138340.125,78.5661,-664.294,0,0
138600.45,78.9896,-660.612,0,0
138860.775,79.455,-656.929,0,0
139121.1,79.8908,-653.176,0,0
139381.425,80.4711,-649.333,0,0
139641.75,81.1911,-645.534,0,0
139902.075,81.8996,-641.765,0,0
140162.4,82.6765,-637.938,0,0
140422.725,83.5193,-634.124,0,0
140683.05,84.4506,-630.304,0,0
140943.375,85.4563,-626.49,0,0
141203.7,86.5316,-622.682,0,0
141464.025,87.7023,-618.956,0,0
141724.35,88.8744,-615.303,0,0
141984.675,90.0386,-611.684,0,0
142245.0,91.1748,-608.018,0,0
142505.325,92.3887,-604.378,0,0
142765.65,93.6333,-600.76,0,0
143025.975,94.8781,-597.071,0,0
143286.3,96.1965,-593.381,0,0
143546.625,97.5203,-589.796,0,0
143806.95,98.901,-586.189,0,0
144067.275,100.272,-582.56,0,0
144327.6,101.667,-578.852,0,0
144587.925,103.147,-575.173,0,0
144848.25,104.669,-571.478,0,0
145108.575,106.242,-567.731,0,0
145368.9,107.873,-564.008,0,0
145629.225,109.572,-560.298,0,0
145889.55,111.32,-556.566,0,0
146149.875,113.165,-552.813,0,0
146410.2,115.05,-549.022,0,0
146670.525,117.085,-545.287,0,0
146930.85,119.188,-541.636,0,0
147191.175,121.319,-538.028,0,0
147451.5,123.468,-534.415,0,0
147711.825,125.693,-530.821,0,0
147972.15,127.948,-527.265,0,0
148232.475,130.185,-523.632,0,0
148492.8,132.556,-519.928,0,0
148753.125,135.084,-516.261,0,0
149013.45,137.701,-512.631,0,0
149273.775,140.413,-509.086,0,0
149534.1,143.135,-505.529,0,0
149794.425,145.961,-501.933,0,0
150054.75,148.949,-498.36,0,0
150315.075,151.991,-494.881,0,0
150575.4,155.162,-491.392,0,0
150835.725,158.444,-487.886,0,0
151096.05,161.937,-484.301,0,0
151356.375,165.823,-480.914,0,0
151616.7,169.8,-477.847,0,0
151877.025,173.742,-474.972,0,0
152137.35,177.681,-471.996,0,0
152397.675,181.986,-469.08,0,0
152658.0,186.644,-466.546,0,0
152918.325,191.265,-464.481,0,0
153178.65,195.771,-462.603,0,0
153438.975,200.335,-460.923,0,0
153699.3,204.901,-459.596,0,0
153959.625,209.321,-458.591,0,0
154219.95,213.524,-457.852,0,0
154480,217.53,-457.277,0,0
154741,221.086,-456.985,0,0
155001,224.203,-456.44,0,0
155261,227.266,-455.312,0,0
155522,230.797,-454.134,0,0
155782,234.564,-453.186,0,0
156042,238.319,-452.733,0,0
156303,241.734,-452.531,0,0
156563,244.978,-452.399,0,0
156823,247.661,-452.246,0,0
157084,250.157,-451.667,0,0
157344,252.842,-450.789,0,0
157604,255.697,-449.94,0,0
157864,258.404,-448.909,0,0
158125,261.396,-447.531,0,0
158385,264.917,-446.271,0,0
158645,268.542,-445.357,0,0
158906,272.28,-444.356,0,0
159166,276.501,-443.591,0,0
159426,280.79,-443.405,0,0
159687,285.055,-443.593,0,0
159947,289.226,-444.218,0,0
160207,293.284,-445.233,0,0
160468,297.159,-446.547,0,0
160728,300.691,-448.434,0,0
160988,303.46,-450.868,0,0
161249,305.238,-452.981,0,0
161509,306.48,-454.575,0,0
161769,307.738,-455.632,0,0
162030,308.888,-456.47,0,0
162290,309.979,-457.236,0,0
162550,311.028,-457.628,0,0
162811,311.9,-457.879,0,0
163071,312.683,-457.772,0,0
163331,313.554,-457.358,0,0
163592,314.585,-456.637,0,0
163852,315.889,-455.642,0,0
164112,317.218,-454.501,0,0
164373,319.044,-453.065,0,0
164633,321.297,-451.681,0,0
164893,323.834,-450.553,0,0
165154,326.274,-449.589,0,0
165414,328.749,-448.329,0,0
165674,331.41,-446.941,0,0
165935,334.618,-445.295,0,0
166195,338.365,-443.874,0,0
166455,342.566,-442.515,0,0
166716,347.172,-441.475,0,0
166976,352.636,-440.802,0,0
167236,358.4,-441.003,0,0
167497,364.179,-441.818,0,0
167757,370.197,-443.306,0,0
168017,376.289,-445.676,0,0
168277,382.218,-448.974,0,0
168538,387.474,-453.102,0,0
168798,392.134,-457.552,0,0
169058,396.474,-462.382,0,0
169319,400.422,-467.76,0,0
169579,403.534,-473.585,0,0
169839,406.259,-479.265,0,0
170100,409.037,-485.303,0,0
170360.075,411.37,-492.45,0,0
170620.4,412.441,-500.465,0,0
170880.725,412.026,-508.595,0,0
171141.05,410.184,-516.482,0,0
171401.375,407.161,-523.668,0,0
171661.7,403.547,-530.046,0,0
171922.025,399.379,-536.016,0,0
172182.35,394.422,-541.403,0,0
172442.675,388.932,-545.996,0,0
172703.0,383.059,-549.91,0,0
172963.325,376.665,-553.12,0,0
173223.65,369.908,-555.273,0,0
173483.975,363.247,-556.612,0,0
173744.3,356.407,-557.035,0,0
174004.625,349.861,-556.479,0,0
174264.95,343.682,-555.413,0,0
174525.275,337.701,-553.749,0,0
174785.6,332.062,-551.428,0,0
175045.925,326.909,-548.764,0,0
175306.25,321.956,-545.778,0,0
175566.575,317.146,-542.312,0,0
175826.9,312.836,-538.173,0,0
176087.225,309.238,-533.749,0,0
176347.55,306.089,-529.2,0,0
176607.875,303.437,-524.527,0,0
176868.2,301.219,-519.781,0,0
177128.525,299.412,-514.994,0,0
177388.85,298.018,-510.238,0,0
177649.175,297.015,-505.475,0,0
177909.5,296.47,-500.875,0,0
178169.825,296.156,-496.549,0,0
178430.15,295.907,-492.437,0,0
178690.475,295.66,-488.337,0,0
178950.8,295.564,-484.174,0,0
179211.125,295.697,-479.961,0,0
179471.45,296.069,-475.86,0,0
179731.775,296.713,-471.813,0,0
179992.1,297.475,-468.026,0,0
180252.425,298.315,-464.429,0,0
180512.75,299.12,-460.956,0,0
180773.075,299.899,-457.523,0,0
181033.4,300.751,-454.076,0,0
181293.725,301.631,-450.733,0,0
181554.05,302.53,-447.475,0,0
181814.375,303.4,-444.278,0,0
182074.7,304.151,-441.135,0,0
182335.025,304.775,-437.918,0,0
182595.35,305.353,-434.557,0,0
182855.675,305.955,-431.055,0,0
183116.0,306.522,-427.454,0,0
183376.325,307.129,-423.634,0,0
183636.65,307.853,-419.662,0,0
183896.975,308.671,-415.565,0,0
184157.3,309.614,-411.321,0,0
184417.625,310.702,-406.942,0,0
184677.95,311.972,-402.463,0,0
184938.275,313.374,-397.902,0,0
185198.6,314.891,-393.26,0,0
185458.925,316.576,-388.491,0,0
185719.25,318.462,-383.596,0,0
185979.575,320.546,-378.645,0,0
186239.9,322.825,-373.602,0,0
186500,325.377,-368.511,0,0
186761,328.049,-363.414,0,0
187021,330.945,-358.263,0,0
187281,334.036,-353.086,0,0
187542,337.298,-347.823,0,0
187802,340.787,-342.51,0,0
188062,344.493,-337.116,0,0
188322,348.488,-331.648,0,0
188583,352.697,-326.179,0,0
188843,357.234,-320.698,0,0
189103,362.144,-315.121,0,0
189364,367.277,-309.599,0,0
189624,372.688,-304.021,0,0
189884,378.566,-298.429,0,0
190145,384.747,-293.038,0,0
190405,391.381,-287.583,0,0
190665,398.4,-282.318,0,0
190926,405.827,-277.313,0,0
191186,413.468,-272.423,0,0
191446,421.476,-267.731,0,0
191707,429.884,-263.195,0,0
191967,438.684,-258.925,0,0
192227,447.815,-254.969,0,0
192488,457.212,-251.266,0,0
192748,466.954,-247.913,0,0
193008,476.971,-244.891,0,0
193269,487.217,-242.18,0,0
193529,497.808,-239.973,0,0
193789,508.409,-238.079,0,0
194050,519.313,-236.496,0,0
194310,530.364,-235.396,0,0
194570,541.571,-234.454,0,0
194831,552.93,-234.01,0,0
195091,564.409,-233.869,0,0
195351,576.029,-234.063,0,0
195612,587.741,-234.484,0,0
195872,599.706,-235.109,0,0
196132,612.012,-236.056,0,0
196393,624.662,-237.423,0,0
196653,637.549,-239.266,0,0
196913,650.682,-241.498,0,0
197174,664.238,-244.145,0,0
197434,678.346,-247.477,0,0
197694,692.693,-251.635,0,0
197955,707.217,-256.617,0,0
198215,721.951,-262.398,0,0
198475,736.882,-269.051,0,0
198735,751.939,-276.76,0,0
198996,767.031,-285.604,0,0
199256,782.051,-295.723,0,0
199516,796.642,-307.155,0,0
199777,810.613,-319.843,0,0
200037,823.852,-333.591,0,0
200297,836.155,-348.258,0,0
200558,847.634,-363.888,0,0
200818,858.142,-380.333,0,0
201078,867.468,-397.531,0,0
201339,875.45,-415.476,0,0
201599,882.135,-433.633,0,0
201859,887.523,-451.962,0,0
202120,891.637,-470.253,0,0
202380.025,894.897,-488.234,0,0
202640.35,896.934,-506.344,0,0
202900.675,897.702,-524.109,0,0
203161.0,897.686,-540.987,0,0
203421.325,897.522,-557.497,0,0
203681.65,897.102,-574.23,0,0
203941.975,895.709,-591.086,0,0
204202.3,893.378,-607.838,0,0
204462.625,889.947,-624.091,0,0
204722.95,885.905,-639.728,0,0
204983.275,881.653,-654.857,0,0
205243.6,876.585,-669.764,0,0
205503.925,870.806,-684.254,0,0
205764.25,864.574,-697.963,0,0
206024.575,858.16,-711.009,0,0
206284.9,851.642,-723.462,0,0
206545.225,845.262,-735.628,0,0
206805.55,838.94,-747.932,0,0
207065.875,832.405,-760.362,0,0
207326.2,825.247,-773.465,0,0
207586.525,816.795,-786.801,0,0
207846.85,806.896,-799.608,0,0
208107.175,795.871,-811.435,0,0
208367.5,784.037,-822.114,0,0
208627.825,771.773,-831.588,0,0
208888.15,759.135,-839.897,0,0
209148.475,746.3,-847.185,0,0
209408.8,733.375,-852.984,0,0
209669.125,721.171,-857.892,0,0
209929.45,709.156,-862.097,0,0
210189.775,697.408,-865.56,0,0
210450.1,686.058,-868.287,0,0
210710.425,675.097,-870.571,0,0
210970.75,664.469,-872.249,0,0
211231.075,654.148,-873.424,0,0
211491.4,644.187,-874.083,0,0
211751.725,634.734,-874.292,0,0
212012.05,625.721,-874.005,0,0
212272.375,617.241,-873.423,0,0
212532.7,609.484,-872.517,0,0
212793.025,602.319,-871.65,0,0
213053.35,595.376,-870.918,0,0
213313.675,588.718,-869.927,0,0
213574.0,582.426,-868.799,0,0
213834.325,576.51,-867.439,0,0
214094.65,571.114,-865.846,0,0
214354.975,566.468,-864.138,0,0
214615.3,562.667,-862.806,0,0
214875.625,559.375,-862.005,0,0
215135.95,556.43,-861.711,0,0
215396.275,553.607,-862.194,0,0
215656.6,550.618,-863.236,0,0
215916.925,547.303,-864.661,0,0
216177.25,543.74,-866.388,0,0
216437.575,539.715,-868.216,0,0
216697.9,535.176,-870.021,0,0
216958.225,530.33,-871.46,0,0
217218.55,525.497,-872.472,0,0
217478.875,520.842,-873.246,0,0
217739.2,516.373,-874.028,0,0
217999.525,511.944,-874.739,0,0
218259.85,507.585,-875.465,0,0
218520,503.209,-876.385,0,0
218780,498.775,-877.09,0,0
219041,494.489,-877.702,0,0
219301,490.343,-878.456,0,0
219561,486.178,-879.301,0,0
219822,481.963,-880.145,0,0
220082,477.619,-881.212,0,0
220342,473.114,-882.199,0,0
220603,468.445,-883.091,0,0
220863,463.641,-883.77,0,0
221123,458.9,-884.289,0,0
221384,454.223,-884.702,0,0
221644,449.54,-885.16,0,0
221904,444.86,-885.526,0,0
222165,440.01,-885.726,0,0
222425,435.251,-885.848,0,0
222685,430.655,-885.625,0,0
222946,426.321,-885.549,0,0
223206,421.889,-885.561,0,0
223466,417.511,-885.578,0,0
223727,413.057,-885.58,0,0
223987,408.637,-885.441,0,0
224247,404.456,-885.265,0,0
224508,400.234,-885.381,0,0
224768,395.886,-885.679,0,0
225028,391.473,-885.974,0,0
225289,386.778,-886.292,0,0
225549,381.848,-886.493,0,0
225809,376.795,-886.724,0,0
226070,371.378,-886.729,0,0
226330,365.896,-886.496,0,0
226590,360.347,-885.938,0,0
226851,354.842,-885.133,0,0
227111,349.225,-884.188,0,0
227371,343.667,-882.998,0,0
227632,338.18,-881.672,0,0
227892,332.609,-880.204,0,0
228152,326.923,-878.491,0,0
228413,321.234,-876.316,0,0
228673,315.675,-873.896,0,0
228933,310.304,-871.153,0,0
229193,305.254,-868.124,0,0
229454,300.43,-864.926,0,0
229714,295.699,-861.642,0,0
229974,291.28,-858.224,0,0
230235,287.195,-854.77,0,0
230495,283.333,-851.226,0,0
230755,279.507,-847.592,0,0
231016,276.087,-843.936,0,0
231276,272.799,-840.336,0,0
231536,269.729,-836.771,0,0
231797,266.753,-833.238,0,0
232057,263.939,-829.677,0,0
232317,261.251,-826.192,0,0
232578,258.66,-822.761,0,0
232838,256.172,-819.252,0,0
233098,253.807,-815.802,0,0
233359,251.627,-812.337,0,0
233619,249.628,-808.86,0,0
233879,247.772,-805.535,0,0
234140,245.932,-802.282,0,0
234400,244.121,-799.138,0,0
234660.3,242.411,-795.826,0,0
234920.625,240.801,-792.606,0,0
235180.95,239.346,-789.404,0,0
235441.275,238.158,-786.334,0,0
235701.6,236.909,-783.519,0,0
235961.925,235.667,-780.723,0,0
236222.25,234.27,-777.991,0,0
236482.575,232.922,-775.202,0,0
236742.9,231.574,-772.303,0,0
237003.225,230.321,-769.403,0,0
237263.55,229.183,-766.429,0,0
237523.875,228.173,-763.412,0,0
237784.2,227.321,-760.41,0,0
238044.525,226.645,-757.433,0,0
238304.85,226.195,-754.565,0,0
238565.175,225.834,-751.837,0,0
238825.5,225.616,-749.347,0,0
239085.825,225.404,-746.973,0,0
239346.15,225.167,-744.72,0,0
239606.475,224.917,-742.577,0,0
239866.8,224.768,-740.485,0,0
240127.125,224.638,-738.629,0,0
240387.45,224.417,-736.818,0,0
240647.775,224.177,-735.103,0,0
240908.1,223.894,-733.463,0,0
241168.425,223.597,-731.93,0,0
241428.75,223.212,-730.414,0,0
241689.075,222.828,-729.026,0,0
241949.4,222.446,-727.7,0,0
242209.725,221.953,-726.399,0,0
242470.05,221.381,-725.162,0,0
242730.375,220.707,-724.015,0,0
242990.7,219.99,-722.804,0,0
243251.025,219.199,-721.586,0,0
243511.35,218.369,-720.39,0,0
243771.675,217.502,-719.259,0,0
244032.0,216.458,-718.125,0,0
244292.325,215.322,-716.917,0,0
244552.65,214.061,-715.7,0,0
244812.975,212.731,-714.231,0,0
245073.3,211.394,-712.755,0,0
245333.625,210.03,-711.042,0,0
245593.95,208.762,-709.281,0,0
245854.275,207.534,-707.41,0,0
246114.6,206.375,-705.486,0,0
246374.925,205.304,-703.462,0,0
246635.25,204.236,-701.433,0,0
246895.575,203.252,-699.308,0,0
247155.9,202.429,-697.085,0,0
247416.225,201.748,-694.865,0,0
247676.55,201.266,-692.719,0,0
247936.875,200.934,-690.69,0,0
248197.2,200.566,-688.827,0,0
248457.525,200.127,-687.07,0,0
248717.85,199.705,-685.303,0,0
248978.175,199.204,-683.63,0,0
249238.5,198.753,-681.956,0,0
249498.825,198.252,-680.197,0,0
249759.15,197.743,-678.53,0,0
250019.475,197.32,-676.782,0,0
250279.8,196.743,-675.136,0,0
250540,196.302,-673.522,0,0
250800,195.848,-671.852,0,0
251061,195.33,-670.381,0,0
251321,194.768,-668.857,0,0
251581,194.113,-667.315,0,0
251842,193.4,-665.834,0,0
252102,192.584,-664.371,0,0
252362,191.623,-662.801,0,0
252623,190.513,-661.153,0,0
252883,189.317,-659.342,0,0
253143,188.052,-657.291,0,0
253404,186.791,-655.024,0,0
253664,185.627,-652.499,0,0
253924,184.659,-649.855,0,0
254185,183.822,-647.101,0,0
254445,183.053,-644.263,0,0
254705,182.448,-641.354,0,0
254966,181.994,-638.415,0,0
255226,181.499,-635.381,0,0
255486,181.06,-632.334,0,0
255747,180.729,-629.056,0,0
256007,180.587,-625.56,0,0
256267,180.701,-621.904,0,0
256528,181.089,-618.272,0,0
256788,181.759,-614.661,0,0
257048,182.55,-611.074,0,0
257309,183.514,-607.478,0,0
257569,184.684,-603.84,0,0
257829,186.134,-600.148,0,0
258090,187.894,-596.6,0,0
258350,189.83,-593.157,0,0
258610,191.917,-589.814,0,0
258871,194.215,-586.481,0,0
259131,196.766,-583.22,0,0
259391,199.671,-580.096,0,0
259651,202.823,-577.162,0,0
259912,206.136,-574.52,0,0
260172,209.636,-572.082,0,0
260432,213.237,-569.86,0,0
260693,217.056,-567.807,0,0
260953,221.099,-566.069,0,0
261213,225.304,-564.711,0,0
261474,229.518,-563.772,0,0
261734,233.705,-563.163,0,0
261994,237.748,-562.805,0,0
262255,241.715,-562.615,0,0
262515,245.619,-562.557,0,0
262775,249.635,-562.613,0,0
263036,253.758,-562.911,0,0
263296,257.938,-563.495,0,0
263556,262.152,-564.4,0,0
263817,266.366,-565.669,0,0
264077,270.507,-567.301,0,0
264337,274.688,-569.576,0,0
264598,278.313,-571.976,0,0
264858,281.745,-574.627,0,0
265118,285.028,-577.384,0,0
265379,288.016,-580.343,0,0
265639,290.894,-583.432,0,0
265899,293.683,-586.792,0,0
266160,296.24,-590.44,0,0
266420,298.49,-594.443,0,0
266680.25,300.385,-598.66,0,0
266940.575,301.817,-603.011,0,0
267200.9,302.733,-607.383,0,0
267461.225,303.427,-611.718,0,0
267721.55,303.794,-616.105,0,0
267981.875,303.805,-620.412,0,0
268242.2,303.537,-624.611,0,0
268502.525,303.111,-628.795,0,0
268762.85,302.376,-633.078,0,0
269023.175,301.372,-637.47,0,0
269283.5,299.713,-641.898,0,0
269543.825,297.37,-646.101,0,0
269804.15,294.491,-649.77,0,0
270064.475,291.411,-652.7,0,0
270324.8,288.332,-655.137,0,0
270585.125,285.416,-657.033,0,0
270845.45,282.645,-658.644,0,0
271105.775,280.09,-659.999,0,0
271366.1,277.872,-661.151,0,0
271626.425,275.947,-662.33,0,0
271886.75,274.241,-663.606,0,0
272147.075,272.604,-665.114,0,0
272407.4,270.822,-666.781,0,0
272667.725,268.924,-668.533,0,0
272928.05,266.878,-670.278,0,0
273188.375,264.736,-672.013,0,0
273448.7,262.541,-673.742,0,0
273709.025,260.224,-675.558,0,0
273969.35,257.697,-677.417,0,0
274229.675,254.919,-679.227,0,0
274490.0,251.96,-680.941,0,0
274750.325,248.722,-682.602,0,0
275010.65,245.285,-684.119,0,0
275270.975,241.501,-685.439,0,0
275531.3,237.499,-686.435,0,0
275791.625,233.328,-687.127,0,0
276051.95,229.01,-687.415,0,0
276312.275,224.629,-687.273,0,0
276572.6,220.285,-686.798,0,0
276832.925,216.021,-685.948,0,0
277093.25,211.801,-684.751,0,0
277353.575,207.691,-683.116,0,0
277613.9,203.825,-681.14,0,0
277874.225,200.249,-678.859,0,0
278134.55,196.944,-676.352,0,0
278394.875,193.866,-673.618,0,0
278655.2,191.155,-670.618,0,0
278915.525,188.848,-667.382,0,0
279175.85,187.041,-664.093,0,0
279436.175,185.746,-660.841,0,0
279696.5,184.895,-657.771,0,0
279956.825,184.416,-654.949,0,0
280217.15,184.176,-652.461,0,0
280477.475,184.079,-650.425,0,0
280737.8,183.917,-648.594,0,0
280998.125,183.666,-646.898,0,0
281258.45,183.448,-645.306,0,0
281518.775,183.259,-643.88,0,0
281779.1,182.938,-642.618,0,0
282039.425,182.468,-641.368,0,0
282299.75,181.924,-639.969,0,0
282560,181.423,-638.432,0,0
282820,181.211,-636.769,0,0
283081,181.275,-635.213,0,0
283341,181.528,-633.887,0,0
283601,181.862,-632.832,0,0
283862,182.196,-632.07,0,0
284122,182.424,-631.564,0,0
284382,182.466,-631.236,0,0
284643,182.276,-630.977,0,0
284903,181.935,-630.767,0,0
285163,181.469,-630.585,0,0
285424,180.83,-630.329,0,0
285684,180.098,-630.08,0,0
285944,179.254,-629.842,0,0
286205,178.217,-629.643,0,0
286465,176.866,-629.323,0,0
286725,175.297,-628.717,0,0
286986,173.658,-627.786,0,0
287246,172.04,-626.47,0,0
287506,170.556,-624.97,0,0
287767,169.176,-623.296,0,0
288027,167.922,-621.408,0,0
288287,166.777,-619.317,0,0
288548,165.796,-616.969,0,0
288808,165.086,-614.393,0,0
289068,164.707,-611.6,0,0
289329,164.779,-608.699,0,0
289589,165.327,-605.838,0,0
289849,166.278,-603.066,0,0
290109,167.634,-600.529,0,0
290370,169.316,-598.244,0,0
290630,171.279,-596.267,0,0
290890,173.456,-594.623,0,0
291151,175.824,-593.366,0,0
291411,178.301,-592.474,0,0
291671,180.826,-591.987,0,0
291932,183.334,-591.866,0,0
292192,185.787,-592.107,0,0
292452,188.187,-592.672,0,0
292713,190.48,-593.615,0,0
292973,192.626,-594.937,0,0
293233,194.538,-596.6,0,0
293494,196.14,-598.549,0,0
293754,197.389,-600.725,0,0
294014,198.326,-603.049,0,0
294275,198.956,-605.506,0,0
294535,199.21,-608.099,0,0
294795,199.087,-610.773,0,0
295056,198.552,-613.388,0,0
295316,197.626,-615.928,0,0
295576,196.382,-618.301,0,0
295837,194.821,-620.487,0,0
296097,193.007,-622.495,0,0
296357,190.946,-624.239,0,0
296618,188.692,-625.701,0,0
296878,186.319,-626.821,0,0
297138,183.915,-627.619,0,0
297399,181.577,-628.129,0,0
297659,179.324,-628.462,0,0
297919,177.121,-628.604,0,0
298180,175.021,-628.604,0,0
298440,173.027,-628.467,0,0
298700.2,171.15,-628.295,0,0
298960.525,169.337,-628.079,0,0
299220.85,167.543,-627.839,0,0
299481.175,165.817,-627.492,0,0
299741.5,164.132,-627.133,0,0
300001.825,162.48,-626.79,0,0
300262.15,160.834,-626.414,0,0
300522.475,159.186,-626.003,0,0
300782.8,157.538,-625.557,0,0
301043.125,155.896,-625.068,0,0
301303.45,154.233,-624.526,0,0
301563.775,152.559,-623.878,0,0
301824.1,150.906,-623.145,0,0
302084.425,149.307,-622.307,0,0
302344.75,147.817,-621.389,0,0
302605.075,146.438,-620.479,0,0
302865.4,145.112,-619.565,0,0
303125.725,143.859,-618.709,0,0
303386.05,142.548,-617.858,0,0
303646.375,141.223,-616.986,0,0
303906.7,139.908,-616.043,0,0
304167.025,138.643,-615.051,0,0
304427.35,137.374,-614.024,0,0
304687.675,136.149,-612.958,0,0
304948.0,134.985,-611.807,0,0
305208.325,133.864,-610.633,0,0
305468.65,132.819,-609.449,0,0
305728.975,131.826,-608.223,0,0
305989.3,130.889,-606.995,0,0
306249.625,130.035,-605.755,0,0
306509.95,129.232,-604.482,0,0
306770.275,128.529,-603.194,0,0
307030.6,127.906,-601.951,0,0
307290.925,127.372,-600.732,0,0
307551.25,126.911,-599.556,0,0
307811.575,126.49,-598.472,0,0
308071.9,126.126,-597.44,0,0
308332.225,125.785,-596.474,0,0
308592.55,125.47,-595.584,0,0
308852.875,125.158,-594.781,0,0
309113.2,124.822,-594.064,0,0
309373.525,124.411,-593.406,0,0
309633.85,123.963,-592.772,0,0
309894.175,123.475,-592.16,0,0
310154.5,122.951,-591.547,0,0
310414.825,122.353,-590.964,0,0
310675.15,121.698,-590.373,0,0
310935.475,120.991,-589.737,0,0
311195.8,120.249,-589.001,0,0
311456.125,119.513,-588.245,0,0
311716.45,118.806,-587.418,0,0
311976.775,118.132,-586.567,0,0
312237.1,117.473,-585.721,0,0
312497.425,116.835,-584.851,0,0
312757.75,116.22,-583.967,0,0
313018.075,115.605,-583.069,0,0
313278.4,115.003,-582.124,0,0
313538.725,114.471,-581.15,0,0
313799.05,113.987,-580.149,0,0
314059.375,113.597,-579.145,0,0
314319.7,113.225,-578.172,0,0
314580,112.928,-577.241,0,0
314840,112.692,-576.384,0,0
315101,112.426,-575.582,0,0
315361,112.177,-574.728,0,0
315621,111.881,-573.996,0,0
315882,111.731,-573.292,0,0
316142,111.573,-572.64,0,0
316402,111.373,-571.974,0,0
316663,111.176,-571.358,0,0
316923,110.981,-570.765,0,0
317183,110.846,-570.293,0,0
317444,110.585,-569.851,0,0
317704,110.347,-569.304,0,0
317964,110.139,-569.009,0,0
318225,109.794,-568.639,0,0
318485,109.489,-568.4,0,0
318745,109.138,-567.996,0,0
319006,108.788,-567.692,0,0
319266,108.372,-567.582,0,0
319526,107.903,-567.37,0,0
319787,107.362,-567.282,0,0
320047,106.738,-567.186,0,0
320307,106.042,-567.084,0,0
320567,105.309,-566.989,0,0
320828,104.424,-566.897,0,0
321088,103.446,-566.692,0,0
321348,102.44,-566.559,0,0
321609,101.285,-566.286,0,0
321869,100.066,-566.039,0,0
322129,98.7395,-565.65,0,0
322390,97.3713,-565.199,0,0
322650,95.8903,-564.546,0,0
322910,94.4054,-563.648,0,0
323171,92.926,-562.669,0,0
323431,91.4595,-561.588,0,0
323691,90.1173,-560.318,0,0
323952,88.9667,-559.038,0,0
324212,87.9309,-557.576,0,0
324472,86.9343,-556.066,0,0
324733,86.1168,-554.702,0,0
324993,85.4037,-553.184,0,0
325253,84.7191,-551.814,0,0
325514,84.1649,-550.348,0,0
325774,83.6022,-549.075,0,0
326034,83.0557,-547.753,0,0
326295,82.5832,-546.508,0,0
326555,81.9814,-545.243,0,0
326815,81.5081,-543.949,0,0
327076,80.923,-542.658,0,0
327336,80.3632,-541.355,0,0
327596,79.952,-540.045,0,0
327857,79.4485,-538.634,0,0
328117,78.9502,-537.254,0,0
328377,78.6565,-535.873,0,0
328638,78.2689,-534.468,0,0
328898,77.9936,-533.063,0,0
329158,77.7622,-531.514,0,0
329419,77.6546,-529.966,0,0
329679,77.5846,-528.546,0,0
329939,77.5941,-527.144,0,0
330200,77.7,-525.769,0,0
330460,77.9259,-524.45,0,0
330720.15,78.1083,-523.158,0,0
330980.475,78.4041,-522.023,0,0
331240.8,78.6785,-520.919,0,0
331501.125,78.9879,-519.882,0,0
331761.45,79.2978,-518.97,0,0
332021.775,79.549,-518.086,0,0
332282.1,79.8221,-517.395,0,0
332542.425,80.0499,-516.605,0,0
332802.75,80.2027,-515.957,0,0
333063.075,80.3249,-515.348,0,0
333323.4,80.4071,-514.71,0,0
333583.725,80.4096,-514.147,0,0
333844.05,80.3925,-513.555,0,0
334104.375,80.2817,-512.979,0,0
334364.7,80.1454,-512.428,0,0
334625.025,79.924,-511.827,0,0
334885.35,79.635,-511.21,0,0
335145.675,79.3533,-510.57,0,0
335406.0,79.0595,-509.919,0,0
335666.325,78.772,-509.222,0,0
335926.65,78.3797,-508.453,0,0
336186.975,77.9132,-507.629,0,0
336447.3,77.5518,-506.847,0,0
336707.625,77.0504,-505.901,0,0
336967.95,76.6155,-504.842,0,0
337228.275,76.2005,-503.831,0,0
337488.6,75.8671,-502.626,0,0
337748.925,75.6501,-501.476,0,0
338009.25,75.4195,-500.245,0,0
338269.575,75.2679,-499.044,0,0
338529.9,75.1297,-497.769,0,0
338790.225,75.0556,-496.507,0,0
339050.55,75.0537,-495.222,0,0
339310.875,75.0889,-493.981,0,0
339571.2,75.2028,-492.681,0,0
339831.525,75.3975,-491.397,0,0
340091.85,75.6042,-490.113,0,0
340352.175,75.869,-488.826,0,0
340612.5,76.2348,-487.581,0,0
340872.825,76.6289,-486.368,0,0
341133.15,77.0814,-485.135,0,0
341393.475,77.6709,-483.938,0,0
341653.8,78.2906,-482.848,0,0
341914.125,79.0061,-481.776,0,0
342174.45,79.8584,-480.763,0,0
342434.775,80.7315,-479.909,0,0
342695.1,81.5291,-479.147,0,0
342955.425,82.4688,-478.517,0,0
343215.75,83.4381,-477.983,0,0
343476.075,84.2954,-477.62,0,0
343736.4,85.1529,-477.321,0,0
343996.725,85.8783,-477.157,0,0
344257.05,86.5877,-477.029,0,0
344517.375,87.2469,-477.008,0,0
344777.7,87.7174,-476.997,0,0
345038.025,88.1838,-477.041,0,0
345298.35,88.5974,-477.071,0,0
345558.675,88.9135,-477.188,0,0
345819.0,89.1295,-477.324,0,0
346079.325,89.3354,-477.407,0,0
346339.65,89.3828,-477.478,0,0
346599.975,89.4368,-477.58,0,0
346860,89.3847,-477.658,0,0
347121,89.2659,-477.757,0,0
347381,89.1046,-477.756,0,0
347641,88.9363,-477.692,0,0
347902,88.6738,-477.685,0,0
348162,88.4824,-477.58,0,0
348422,88.1259,-477.476,0,0
348683,87.8535,-477.346,0,0
348943,87.5228,-477.157,0,0
349203,87.142,-476.935,0,0
349464,86.7264,-476.736,0,0
349724,86.3223,-476.363,0,0
349984,85.8255,-476.035,0,0
350245,85.3905,-475.663,0,0
350505,85.0251,-475.209,0,0
350765,84.6367,-474.764,0,0
351025,84.1896,-474.228,0,0
351286,83.813,-473.769,0,0
351546,83.4383,-473.153,0,0
351806,83.0907,-472.593,0,0
352067,82.6547,-471.99,0,0
352327,82.2886,-471.281,0,0
352587,82.0009,-470.547,0,0
352848,81.7298,-469.845,0,0
353108,81.4669,-469.096,0,0
353368,81.2673,-468.336,0,0
353629,81.0903,-467.494,0,0
353889,80.9834,-466.783,0,0
354149,80.9761,-465.913,0,0
354410,81.0239,-465.193,0,0
354670,81.089,-464.477,0,0
354930,81.2107,-463.831,0,0
355191,81.2919,-463.299,0,0
355451,81.3753,-462.747,0,0
355711,81.4457,-462.3,0,0
355972,81.3863,-461.819,0,0
356232,81.4158,-461.36,0,0
356492,81.4144,-460.948,0,0
356753,81.325,-460.527,0,0
357013,81.2841,-460.136,0,0
357273,81.1051,-459.728,0,0
357534,80.945,-459.311,0,0
357794,80.7407,-458.916,0,0
358054,80.4883,-458.492,0,0
358315,80.154,-457.935,0,0
358575,79.8874,-457.452,0,0
358835,79.5342,-456.79,0,0
359096,79.2184,-456.217,0,0
359356,78.9051,-455.49,0,0
359616,78.6462,-454.643,0,0
359877,78.4126,-453.901,0,0
360137,78.279,-453.015,0,0
360397,78.0824,-452.134,0,0
360658,78.0276,-451.309,0,0
360918,77.9915,-450.521,0,0
361178,77.9159,-449.678,0,0
361438,77.9391,-448.797,0,0
361699,77.9809,-447.945,0,0
361959,78.0963,-447.095,0,0
362219,78.2071,-446.296,0,0
362480,78.3604,-445.462,0,0
362740.1,78.5742,-444.695,0,0
363000.425,78.7827,-444.013,0,0
363260.75,79.0081,-443.345,0,0
363521.075,79.2184,-442.693,0,0
363781.4,79.4148,-442.132,0,0
364041.725,79.553,-441.517,0,0
364302.05,79.6451,-440.994,0,0
364562.375,79.7582,-440.451,0,0
364822.7,79.7841,-439.882,0,0
365083.025,79.7725,-439.205,0,0
365343.35,79.7857,-438.621,0,0
365603.675,79.7768,-437.945,0,0
365864.0,79.7417,-437.208,0,0
366124.325,79.7661,-436.433,0,0
366384.65,79.7845,-435.602,0,0
366644.975,79.8107,-434.677,0,0
366905.3,79.9466,-433.724,0,0
367165.625,80.1457,-432.821,0,0
367425.95,80.3762,-431.871,0,0
367686.275,80.6918,-430.955,0,0
367946.6,81.0907,-429.974,0,0
368206.925,81.5242,-428.993,0,0
368467.25,81.9965,-428.042,0,0
368727.575,82.565,-427.131,0,0
368987.9,83.2385,-426.216,0,0
369248.225,83.9558,-425.341,0,0
369508.55,84.7193,-424.497,0,0
369768.875,85.591,-423.751,0,0
370029.2,86.4866,-423.037,0,0
370289.525,87.5163,-422.465,0,0
370549.85,88.4914,-421.909,0,0
370810.175,89.4736,-421.5,0,0
371070.5,90.5784,-421.105,0,0
371330.825,91.6451,-420.84,0,0
371591.15,92.702,-420.657,0,0
371851.475,93.7951,-420.6,0,0
372111.8,94.8834,-420.683,0,0
372372.125,95.9119,-420.835,0,0
372632.45,96.9215,-421.144,0,0
372892.775,97.8926,-421.547,0,0
373153.1,98.7214,-422.034,0,0
373413.425,99.4551,-422.621,0,0
373673.75,100.05,-423.285,0,0
373934.075,100.552,-423.934,0,0
374194.4,100.923,-424.629,0,0
374454.725,101.168,-425.327,0,0
374715.05,101.308,-426.085,0,0
374975.375,101.356,-426.721,0,0
375235.7,101.286,-427.243,0,0
375496.025,101.148,-427.746,0,0
375756.35,101.001,-428.176,0,0
376016.675,100.817,-428.567,0,0
376277.0,100.601,-428.898,0,0
376537.325,100.358,-429.156,0,0
376797.65,100.156,-429.381,0,0
377057.975,99.9292,-429.525,0,0
377318.3,99.7772,-429.663,0,0
377578.625,99.5792,-429.83,0,0
377838.95,99.4444,-429.941,0,0
378099.275,99.2716,-430.109,0,0
378359.6,99.12,-430.335,0,0
378619.925,98.9469,-430.456,0,0
378880,98.716,-430.659,0,0
379141,98.4643,-430.864,0,0
379401,98.1523,-431.033,0,0
379661,97.777,-431.089,0,0
379922,97.4205,-431.126,0,0
380182,97.1284,-431.147,0,0
380442,96.7774,-431.107,0,0
380703,96.5945,-431.058,0,0
380963,96.2586,-431.037,0,0
381223,95.9319,-430.987,0,0
381483,95.6119,-430.914,0,0
381744,95.3245,-430.728,0,0
382004,95.0753,-430.515,0,0
382264,94.926,-430.278,0,0
382525,94.9566,-430.008,0,0
382785,94.9714,-429.851,0,0
383045,95.1745,-429.865,0,0
383306,95.3708,-429.959,0,0
383566,95.5443,-430.23,0,0
383826,95.6394,-430.689,0,0
384087,95.6192,-431.27,0,0
384347,95.4021,-431.91,0,0
384607,95.0215,-432.559,0,0
384868,94.472,-433.224,0,0
385128,93.7911,-433.812,0,0
385388,93.0013,-434.297,0,0
385649,92.1022,-434.833,0,0
385909,91.001,-435.21,0,0
386169,89.8235,-435.355,0,0
386430,88.6345,-435.441,0,0
386690,87.4099,-435.346,0,0
386950,86.1642,-435.066,0,0
387211,84.908,-434.68,0,0
387471,83.7947,-434.125,0,0
387731,82.711,-433.501,0,0
387992,81.7351,-432.751,0,0
388252,80.8692,-431.864,0,0
388512,80.0614,-430.925,0,0
388773,79.4783,-429.922,0,0
389033,78.9753,-428.951,0,0
389293,78.6025,-427.911,0,0
389554,78.4258,-426.967,0,0
389814,78.3225,-426.075,0,0
390074,78.3761,-425.284,0,0
390335,78.4977,-424.612,0,0
390595,78.6496,-424.042,0,0
390855,78.8525,-423.649,0,0
391116,79.0069,-423.37,0,0
391376,79.123,-423.224,0,0
391636,79.2176,-423.18,0,0
391896,79.1689,-423.268,0,0
392157,79.0618,-423.418,0,0
392417,78.7889,-423.647,0,0
392677,78.3277,-423.874,0,0
392938,77.6912,-424.083,0,0
393198,76.9766,-424.233,0,0
393458,76.152,-424.266,0,0
393719,75.2761,-424.156,0,0
393979,74.2683,-423.965,0,0
394239,73.2836,-423.646,0,0
394500,72.3113,-423.254,0,0
394760.05,71.3713,-422.706,0,0
395020.375,70.3825,-422.105,0,0
395280.7,69.4823,-421.416,0,0
395541.025,68.6229,-420.654,0,0
395801.35,67.8237,-419.835,0,0
396061.675,67.0485,-418.972,0,0
396322.0,66.3684,-418.089,0,0
396582.325,65.7527,-417.11,0,0
396842.65,65.1198,-416.181,0,0
397102.975,64.6124,-415.228,0,0
397363.3,64.114,-414.259,0,0
397623.625,63.6744,-413.302,0,0
397883.95,63.2806,-412.349,0,0
398144.275,62.8318,-411.397,0,0
398404.6,62.4933,-410.468,0,0
398664.925,62.1499,-409.505,0,0
398925.25,61.8096,-408.529,0,0
399185.575,61.5174,-407.527,0,0
399445.9,61.231,-406.517,0,0
399706.225,60.9953,-405.564,0,0
399966.55,60.7603,-404.522,0,0
400006.6,60.7593,-404.304,0,0