File: Accelerated corrosion test data/2025-10-10_06-00-03/sample_8.csv
Frequency (Hz),Impedance (ohms),Phase (Radians),Temperature (C),Humidity (%)
10000.0,311.968,-10963.3,0,0
10260.325,303.792,-10688.7,0,0
10520.65,296.96,-10427.2,0,0
10780.975,289.532,-10178.6,0,0
11041.3,282.977,-9941.3,0,0
11301.625,276.596,-9715.97,0,0
11561.95,270.824,-9499.25,0,0
11822.275,264.433,-9292.51,0,0
12082.6,262.431,-9092.51,0,0
12342.925,259.812,-8906.34,0,0
12603.25,254.684,-8725.16,0,0
12863.575,250.652,-8554.39,0,0
13123.9,242.74,-8389.8,0,0
13384.225,236.796,-8228.09,0,0
13644.55,234.025,-8073.41,0,0
13904.875,226.23,-7924.51,0,0
14165.2,221.211,-7779.97,0,0
14425.525,216.213,-7640.66,0,0
14685.8,213.043,-7507.81,0,0
14946.175,209.408,-7376.87,0,0
15206.5,206.18,-7251.31,0,0
15466.825,202.646,-7130.51,0,0
15727.15,199.286,-7013.64,0,0
15987.5,196.3,-6901.32,0,0
16247.8,193.256,-6791.52,0,0
16508.125,190.062,-6685.6,0,0
16768.45,186.888,-6582.55,0,0
17028.775,183.997,-6482.54,0,0
17289.1,181.3,-6385.67,0,0
17549.425,178.79,-6291.02,0,0
17809.75,176.333,-6199.3,0,0
18070.075,174.424,-6111.82,0,0
18330.4,171.653,-6024.67,0,0
18590.725,169.71,-5939.53,0,0
18851.05,170.122,-5856.48,0,0
19111.375,168.216,-5777.54,0,0
19371.7,171.11,-5700.95,0,0
19632.025,167.34,-5628.36,0,0
19892.35,163.947,-5558.37,0,0
20152.675,160.944,-5485.11,0,0
20413.0,160.415,-5415.14,0,0
20673.3,159.772,-5348.14,0,0
20933.65,158.046,-5284.48,0,0
21193.975,154.969,-5221.21,0,0
21454.3,152.846,-5157.25,0,0
21714.625,151.097,-5094.9,0,0
21974.9,150.265,-5035.22,0,0
22235.275,150.93,-4977.2,0,0
22495.6,148.654,-4920.22,0,0
22755.925,147.352,-4866.36,0,0
23016.25,144.696,-4811.8,0,0
23276.6,141.551,-4759.76,0,0
23536.9,139.763,-4706.4,0,0
23797.225,137.587,-4655.06,0,0
24057.55,135.933,-4604.51,0,0
24317.875,134.688,-4555.39,0,0
24578.2,132.522,-4506.6,0,0
24838.525,131.362,-4459.05,0,0
25098.85,130.352,-4413.17,0,0
25359.175,128.661,-4367.67,0,0
25619.5,127.463,-4323.13,0,0
25879.8,126.07,-4278.44,0,0
26140.1,125.469,-4236.86,0,0
26400.5,124.308,-4194.84,0,0
26660.8,123.203,-4153.66,0,0
26921.1,122.49,-4112.01,0,0
27181.4,122.556,-4072.95,0,0
27441.8,121.31,-4034.08,0,0
27702.1,121.175,-3996.43,0,0
27962.4,119.16,-3959.82,0,0
28222.7,119.512,-3921.49,0,0
28483.1,118.739,-3886,0,0
28743.4,118.4,-3850.12,0,0
29003.7,117.673,-3815.98,0,0
29264,117.982,-3781.43,0,0
29524.4,117.249,-3748.41,0,0
29784.7,117.224,-3715.11,0,0
30045,117.231,-3683.47,0,0
30305.3,117.326,-3652.2,0,0
30565.7,116.516,-3621.64,0,0
30826,115.778,-3591.14,0,0
31086.3,114.926,-3561.25,0,0
31346.6,114.601,-3531.3,0,0
31607,114.239,-3502.16,0,0
31867.3,114.048,-3473.87,0,0
32127.6,113.795,-3445.68,0,0
32387.9,113.131,-3417.55,0,0
32648.3,113.446,-3390.05,0,0
32908.6,114.431,-3362.62,0,0
33168.9,114.299,-3336.93,0,0
33429.2,115.477,-3311.48,0,0
33689.6,116.937,-3287.57,0,0
33949.9,116.306,-3265,0,0
34210.2,115.428,-3241.69,0,0
34470.5,113.981,-3218.53,0,0
34730.9,113.117,-3194.91,0,0
34991.2,113.19,-3172.48,0,0
35251.5,111.775,-3151.16,0,0
35511.8,109.698,-3128.95,0,0
35772.2,107.638,-3107.09,0,0
36032.5,106.215,-3085.23,0,0
36292.8,104.37,-3063.47,0,0
36553.1,102.542,-3041.77,0,0
36813.5,101.067,-3020.4,0,0
37073.8,99.9272,-2999.14,0,0
37334.1,98.4903,-2978.27,0,0
37594.4,96.8357,-2957.46,0,0
37854.8,95.6766,-2936.82,0,0
38115.1,94.0858,-2916.71,0,0
38375.4,92.8789,-2896.47,0,0
38635.7,91.7393,-2876.19,0,0
38896.1,90.6477,-2856.64,0,0
39156.4,89.3568,-2837.22,0,0
39416.7,88.4476,-2817.52,0,0
39677,87.6683,-2798.61,0,0
39937.4,86.4183,-2779.69,0,0
40197.7,85.8747,-2760.5,0,0
40458,85.8425,-2742,0,0
40718.3,85.6941,-2724.11,0,0
40978.7,84.758,-2706.83,0,0
41239,84.2615,-2688.89,0,0
41499.3,83.7195,-2671.7,0,0
41759.6,83.2352,-2654.5,0,0
42020,82.7002,-2637.7,0,0
42280.275,82.29,-2620.91,0,0
42540.6,81.8534,-2603.97,0,0
42800.925,81.8131,-2587.66,0,0
43061.25,81.6752,-2571.37,0,0
43321.575,81.833,-2555.85,0,0
43581.9,81.8543,-2540.81,0,0
43842.225,81.4852,-2525.91,0,0
44102.55,80.6962,-2510.91,0,0
44362.875,80.1173,-2495.93,0,0
44623.2,79.1839,-2481.03,0,0
44883.525,78.5659,-2466.31,0,0
45143.85,78.102,-2451.44,0,0
45404.175,77.8081,-2437.06,0,0
45664.5,77.0796,-2422.96,0,0
45924.825,76.5311,-2408.75,0,0
46185.15,76.1742,-2394.57,0,0
46445.475,75.7074,-2380.7,0,0
46705.8,75.2862,-2366.78,0,0
46966.125,74.9112,-2353.27,0,0
47226.45,74.8282,-2339.61,0,0
47486.775,74.5127,-2326.44,0,0
47747.1,74.2389,-2313.43,0,0
48007.425,73.9659,-2300.73,0,0
48267.75,73.6512,-2287.72,0,0
48528.075,73.5866,-2275.12,0,0
48788.4,72.9652,-2262.92,0,0
49048.725,72.3716,-2250.5,0,0
49309.05,71.9349,-2238.01,0,0
49569.375,71.5815,-2225.91,0,0
49829.7,71.0674,-2213.67,0,0
50090.025,70.8037,-2201.59,0,0
50350.35,70.5313,-2189.53,0,0
50610.675,70.3448,-2177.76,0,0
50871.0,70.0572,-2165.93,0,0
51131.325,69.8949,-2154.35,0,0
51391.65,69.6883,-2142.84,0,0
51651.975,69.7317,-2131.59,0,0
51912.3,69.7085,-2120.58,0,0
52172.625,69.4138,-2109.49,0,0
52432.95,69.3892,-2098.63,0,0
52693.275,69.3228,-2087.78,0,0
52953.6,69.3862,-2077.2,0,0
53213.925,69.3525,-2066.85,0,0
53474.25,69.2007,-2056.58,0,0
53734.575,69.2133,-2046.73,0,0
53994.9,68.7203,-2037.08,0,0
54255.225,67.9907,-2027.27,0,0
54515.55,67.3035,-2017.11,0,0
54775.875,67.0014,-2007.04,0,0
55036.2,66.5082,-1997.39,0,0
55296.525,65.6695,-1987.6,0,0
55556.85,65.003,-1977.65,0,0
55817.175,64.5089,-1967.86,0,0
56077.5,63.8986,-1957.98,0,0
56337.825,63.5021,-1948.12,0,0
56598.15,63.0977,-1938.34,0,0
56858.475,62.8071,-1928.6,0,0
57118.8,62.6543,-1919.01,0,0
57379.125,62.4726,-1909.58,0,0
57639.45,62.4189,-1900.38,0,0
57899.775,62.171,-1891.07,0,0
58160.1,62.0198,-1881.88,0,0
58420.4,62.0405,-1872.74,0,0
58680.7,61.9761,-1863.74,0,0
58941.1,62.0921,-1854.97,0,0
59201.4,62.1582,-1846.49,0,0
59461.7,61.8667,-1838.11,0,0
59722,61.5288,-1829.54,0,0
59982.4,61.2189,-1821.03,0,0
60242.7,60.8739,-1812.54,0,0
60503,60.5446,-1803.9,0,0
60763.3,60.4292,-1795.3,0,0
61023.7,60.3056,-1786.85,0,0
61284,60.3564,-1778.46,0,0
61544.3,60.5449,-1770.19,0,0
61804.6,60.589,-1762.37,0,0
62065,60.2814,-1754.4,0,0
62325.3,60.2551,-1746.26,0,0
62585.6,60.2213,-1738.11,0,0
62845.9,60.448,-1730.08,0,0
63106.3,60.6475,-1722.25,0,0
63366.6,61.0214,-1714.55,0,0
63626.9,61.1782,-1707.07,0,0
63887.2,61.4917,-1699.62,0,0
64147.6,61.8843,-1692.18,0,0
64407.9,62.4136,-1685.38,0,0
64668.2,62.2444,-1678.63,0,0
64928.5,62.0358,-1671.77,0,0
65188.9,61.965,-1664.96,0,0
65449.2,61.5933,-1658.17,0,0
65709.5,61.2189,-1651.14,0,0
65969.8,61.0726,-1644.38,0,0
66230.2,60.8538,-1637.68,0,0
66490.5,60.1239,-1630.99,0,0
66750.8,59.526,-1623.92,0,0
67011.1,59.1485,-1616.86,0,0
67271.5,58.8325,-1609.74,0,0
67531.8,58.6203,-1602.86,0,0
67792.1,58.4786,-1596.06,0,0
68052.4,58.2404,-1589.2,0,0
68312.8,58.199,-1582.38,0,0
68573.1,58.0379,-1575.64,0,0
68833.4,57.7516,-1568.93,0,0
69093.7,57.7038,-1562.2,0,0
69354.1,57.6553,-1555.6,0,0
69614.4,57.7349,-1548.9,0,0
69874.7,57.7757,-1542.44,0,0
70135,57.8622,-1536.04,0,0
70395.4,57.9145,-1529.69,0,0
70655.7,57.9796,-1523.45,0,0
70916,57.9465,-1517.21,0,0
71176.3,58.057,-1510.97,0,0
71436.7,58.1466,-1504.86,0,0
71697,58.3194,-1498.79,0,0
71957.3,58.4049,-1493.02,0,0
72217.6,58.5084,-1487.18,0,0
72478,58.2951,-1481.47,0,0
72738.3,58.0315,-1475.76,0,0
72998.6,57.7996,-1469.85,0,0
73258.9,57.4255,-1463.92,0,0
73519.3,57.4348,-1457.92,0,0
73779.6,57.4457,-1452.15,0,0
74039.9,57.4402,-1446.36,0,0
74300.225,57.3708,-1440.82,0,0
74560.55,57.1354,-1435.1,0,0
74820.875,56.9451,-1429.27,0,0
75081.2,56.8535,-1423.63,0,0
75341.525,56.7393,-1417.92,0,0
75601.85,56.7618,-1412.18,0,0
75862.175,56.7514,-1406.55,0,0
76122.5,56.8212,-1401.01,0,0
76382.825,56.8611,-1395.55,0,0
76643.15,56.9392,-1390.1,0,0
76903.475,56.9374,-1384.78,0,0
77163.8,56.8296,-1379.48,0,0
77424.125,56.7873,-1374.15,0,0
77684.45,56.7472,-1368.78,0,0
77944.775,56.6856,-1363.53,0,0
78205.1,56.5799,-1358.27,0,0
78465.425,56.4964,-1353.01,0,0
78725.75,56.3647,-1347.67,0,0
78986.075,56.3268,-1342.29,0,0
79246.4,56.3532,-1337.1,0,0
79506.725,56.2625,-1331.87,0,0
79767.05,56.3512,-1326.58,0,0
80027.375,56.4684,-1321.32,0,0
80287.7,56.5279,-1316.22,0,0
80548.025,56.6006,-1311.11,0,0
80808.35,56.6086,-1306.03,0,0
81068.675,56.5722,-1300.83,0,0
81329.0,56.7233,-1295.64,0,0
81589.325,56.9502,-1290.53,0,0
81849.65,57.1659,-1285.44,0,0
82109.975,57.5416,-1280.26,0,0
82370.3,57.9886,-1275.46,0,0
82630.625,58.2263,-1270.65,0,0
82890.95,58.5667,-1265.91,0,0
83151.275,58.8588,-1261.2,0,0
83411.6,59.1131,-1256.43,0,0
83671.925,59.4367,-1251.65,0,0
83932.25,59.8207,-1246.96,0,0
84192.575,60.2861,-1242.51,0,0
84452.9,60.5571,-1238.04,0,0
84713.225,61.0552,-1233.59,0,0
84973.55,61.5303,-1229.51,0,0
85233.875,61.45,-1225.55,0,0
85494.2,61.239,-1221.35,0,0
85754.525,60.9879,-1216.88,0,0
86014.85,60.7825,-1212.26,0,0
86275.175,60.8706,-1207.53,0,0
86535.5,60.8861,-1202.9,0,0
86795.825,61.045,-1198.25,0,0
87056.15,61.3749,-1193.61,0,0
87316.475,61.6868,-1189.14,0,0
87576.8,61.8969,-1184.67,0,0
87837.125,62.2716,-1180.14,0,0
88097.45,62.705,-1175.64,0,0
88357.775,63.0335,-1171.37,0,0
88618.1,63.4818,-1166.97,0,0
88878.425,63.8548,-1162.75,0,0
89138.75,64.2711,-1158.4,0,0
89399.075,64.6876,-1154.14,0,0
89659.4,65.1078,-1149.72,0,0
89919.725,65.6921,-1145.39,0,0
90180,66.4062,-1141.12,0,0
90440.4,67.0915,-1136.95,0,0
90700.7,67.8083,-1132.73,0,0
90961,68.714,-1128.68,0,0
91221.3,69.8439,-1124.67,0,0
91481.7,70.9137,-1120.95,0,0
91742,71.9255,-1117.59,0,0
92002.3,72.7433,-1114.34,0,0
92262.6,73.4718,-1111.02,0,0
92523,74.203,-1107.94,0,0
92783.3,74.6809,-1104.88,0,0
93043.6,75.2067,-1101.92,0,0
93303.9,75.1615,-1099.4,0,0
93564.3,74.8061,-1096.27,0,0
93824.6,74.3254,-1092.94,0,0
94084.9,73.9694,-1089.02,0,0
94345.2,74.1704,-1085.21,0,0
94605.6,74.2518,-1081.48,0,0
94865.9,74.6871,-1077.58,0,0
95126.2,75.0366,-1074,0,0
95386.5,75.6102,-1070.34,0,0
95646.9,76.2068,-1067.13,0,0
95907.2,76.4017,-1063.95,0,0
96167.5,76.5176,-1060.52,0,0
96427.8,76.8311,-1056.94,0,0
96688.2,77.3891,-1053.53,0,0
96948.5,77.839,-1050.18,0,0
97208.8,78.3256,-1046.89,0,0
97469.1,78.8574,-1043.63,0,0
97729.5,79.5093,-1040.52,0,0
97989.8,80.1253,-1037.67,0,0
98250.1,80.3999,-1034.88,0,0
98510.4,80.817,-1031.95,0,0
98770.8,81.3132,-1029.31,0,0
99031.1,81.4095,-1026.89,0,0
99291.4,81.1679,-1024.27,0,0
99551.7,80.8547,-1021.31,0,0
99812.1,80.7579,-1018.18,0,0
100072,80.8528,-1015.02,0,0
100333,81.0168,-1012.08,0,0
100593,81.1462,-1009.17,0,0
100853,81.2494,-1006.42,0,0
101114,81.1795,-1003.66,0,0
101374,81.0662,-1000.86,0,0
101634,81.0314,-998.054,0,0
101895,80.8674,-995.423,0,0
102155,80.4329,-992.615,0,0
102415,80.0538,-989.707,0,0
102676,79.5895,-986.661,0,0
102936,79.2291,-983.534,0,0
103196,78.8754,-980.359,0,0
103457,78.531,-977.015,0,0
103717,78.4604,-973.659,0,0
103977,78.4382,-970.37,0,0
104238,78.547,-967.151,0,0
104498,78.5349,-964.085,0,0
104758,78.4647,-961.004,0,0
105019,78.3387,-957.916,0,0
105279,78.1627,-954.537,0,0
105539,78.2999,-951.115,0,0
105800,78.581,-947.848,0,0
106060,78.848,-944.729,0,0
106320.175,79.1328,-941.561,0,0
106580.5,79.5028,-938.476,0,0
106840.825,79.9694,-935.507,0,0
107101.15,80.4204,-932.74,0,0
107361.475,80.6964,-930.138,0,0
107621.8,80.8727,-927.517,0,0
107882.125,80.8264,-924.901,0,0
108142.45,80.7187,-922.101,0,0
108402.775,80.6957,-919.155,0,0
108663.1,80.8125,-916.207,0,0
108923.425,80.9064,-913.347,0,0
109183.75,81.0413,-910.478,0,0
109444.075,81.1784,-907.569,0,0
109704.4,81.3954,-904.753,0,0
109964.725,81.6353,-901.951,0,0
110225.05,81.852,-899.278,0,0
110485.375,82.0088,-896.603,0,0
110745.7,82.2301,-893.998,0,0
111006.025,82.2917,-891.433,0,0
111266.35,82.1841,-888.797,0,0
111526.675,82.2905,-885.947,0,0
111787.0,82.4464,-883.232,0,0
112047.325,82.6116,-880.654,0,0
112307.65,82.6088,-878.026,0,0
112567.975,82.7171,-875.351,0,0
112828.3,82.761,-872.67,0,0
113088.625,82.8846,-870.04,0,0
113348.95,82.9516,-867.444,0,0
113609.275,83.0694,-864.888,0,0
113869.6,83.1316,-862.374,0,0
114129.925,83.1341,-859.853,0,0
114390.25,83.0659,-857.23,0,0
114650.575,83.0041,-854.634,0,0
114910.9,82.9802,-851.994,0,0
115171.225,83.0129,-849.43,0,0
115431.55,82.9916,-846.902,0,0
115691.875,82.906,-844.32,0,0
115952.2,82.7691,-841.672,0,0
116212.525,82.7883,-839.018,0,0
116472.85,82.7526,-836.444,0,0
116733.175,82.5777,-833.837,0,0
116993.5,82.375,-831.076,0,0
117253.825,82.3644,-828.152,0,0
117514.15,82.5016,-825.303,0,0
117774.475,82.7262,-822.594,0,0
118034.8,82.8598,-819.996,0,0
118295.125,83.0063,-817.399,0,0
118555.45,83.1475,-814.751,0,0
118815.775,83.3708,-812.135,0,0
119076.1,83.546,-809.684,0,0
119336.425,83.7317,-807.371,0,0
119596.75,83.649,-805.039,0,0
119857.075,83.546,-802.576,0,0
120117.4,83.3983,-800.043,0,0
120377.725,83.2915,-797.483,0,0
120638.05,83.1718,-794.813,0,0
120898.375,83.122,-792.099,0,0
121158.7,83.2329,-789.418,0,0
121419.025,83.2921,-786.892,0,0
121679.35,83.2645,-784.297,0,0
121939.675,83.2816,-781.647,0,0
122200.0,83.3202,-778.991,0,0
122460,83.5157,-776.379,0,0
122721,83.6302,-773.906,0,0
122981,83.6162,-771.479,0,0
123241,83.5303,-768.945,0,0
123502,83.452,-766.35,0,0
123762,83.4137,-763.709,0,0
124022,83.3635,-761.039,0,0
124283,83.3781,-758.29,0,0
124543,83.4896,-755.533,0,0
124803,83.6475,-752.838,0,0
125064,83.8304,-750.235,0,0
125324,84.0259,-747.69,0,0
125584,84.1478,-745.107,0,0
125845,84.222,-742.593,0,0
126105,84.299,-740.024,0,0
126365,84.3384,-737.391,0,0
126626,84.4406,-734.759,0,0
126886,84.5985,-732.137,0,0
127146,84.8609,-729.615,0,0
127406,85.0061,-727.007,0,0
127667,85.0318,-724.569,0,0
127927,85.1162,-722.011,0,0
128187,85.179,-719.402,0,0
128448,85.3402,-716.74,0,0
128708,85.4848,-714.214,0,0
128968,85.539,-711.656,0,0
129229,85.6643,-709.041,0,0
129489,85.6925,-706.447,0,0
129749,85.762,-703.799,0,0
130010,85.8224,-701.053,0,0
130270,85.9794,-698.25,0,0
130530,86.2534,-695.45,0,0
130791,86.6907,-692.8,0,0
131051,87.0439,-690.268,0,0
131311,87.3336,-687.792,0,0
131572,87.6683,-685.338,0,0
131832,87.8133,-683.05,0,0
132092,87.7436,-680.585,0,0
132353,87.6495,-678.005,0,0
132613,87.6634,-675.241,0,0
132873,87.7772,-672.511,0,0
133134,87.9146,-669.759,0,0
133394,88.0909,-667.07,0,0
133654,88.1693,-664.364,0,0
133915,88.249,-661.563,0,0
134175,88.3233,-658.606,0,0
134435,88.6003,-655.598,0,0
134696,88.9388,-652.684,0,0
134956,89.3292,-649.683,0,0
135216,89.9404,-646.669,0,0
135477,90.6385,-643.846,0,0
135737,91.382,-641.14,0,0
135997,92.1265,-638.516,0,0
136258,92.9286,-636.171,0,0
136518,93.4625,-633.915,0,0
136778,93.9187,-631.706,0,0
137039,94.195,-629.588,0,0
137299,94.1778,-627.335,0,0
137559,94.168,-624.945,0,0
137819,94.0262,-622.471,0,0
138080,93.7676,-619.814,0,0
138340.125,93.5378,-616.861,0,0
138600.45,93.5185,-613.728,0,0
138860.775,93.6553,-610.554,0,0
139121.1,93.9535,-607.396,0,0
139381.425,94.4089,-604.386,0,0
139641.75,94.7108,-601.476,0,0
139902.075,94.9482,-598.359,0,0
140162.4,95.3542,-595.241,0,0
140422.725,95.758,-592.174,0,0
140683.05,96.1348,-589.088,0,0
140943.375,96.5158,-585.876,0,0
141203.7,97.0501,-582.628,0,0
141464.025,97.6621,-579.483,0,0
141724.35,98.2358,-576.378,0,0
141984.675,98.7203,-573.225,0,0
142245.0,99.1949,-569.98,0,0
142505.325,99.755,-566.614,0,0
142765.65,100.445,-563.243,0,0
143025.975,101.166,-559.881,0,0
143286.3,101.876,-556.481,0,0
143546.625,102.632,-553.029,0,0
143806.95,103.395,-549.512,0,0
144067.275,104.266,-545.905,0,0
144327.6,105.22,-542.269,0,0
144587.925,106.169,-538.543,0,0
144848.25,107.34,-534.603,0,0
145108.575,108.838,-530.663,0,0
145368.9,110.521,-526.851,0,0
145629.225,112.38,-523.163,0,0
145889.55,114.351,-519.682,0,0
146149.875,116.292,-516.346,0,0
146410.2,118.204,-513.106,0,0
146670.525,120.105,-509.808,0,0
146930.85,122.112,-506.561,0,0
147191.175,124.197,-503.382,0,0
147451.5,126.441,-500.385,0,0
147711.825,128.46,-497.86,0,0
147972.15,129.861,-495.182,0,0
148232.475,131.161,-491.93,0,0
148492.8,132.668,-488.341,0,0
148753.125,134.471,-484.477,0,0
149013.45,136.627,-480.533,0,0
149273.775,139.135,-476.496,0,0
149534.1,142.005,-472.536,0,0
149794.425,145.175,-468.721,0,0
150054.75,148.721,-465.064,0,0
150315.075,152.378,-461.637,0,0
150575.4,156.406,-458.271,0,0
150835.725,160.782,-455.219,0,0
151096.05,165.514,-452.376,0,0
151356.375,170.712,-450.317,0,0
151616.7,175.893,-449.136,0,0
151877.025,180.68,-448.688,0,0
152137.35,185.174,-448.627,0,0
152397.675,189.146,-449.277,0,0
152658.0,192.083,-450.085,0,0
152918.325,194.474,-450.428,0,0
153178.65,196.888,-450.584,0,0
153438.975,198.963,-450.796,0,0
153699.3,200.605,-450.821,0,0
153959.625,202.225,-450.498,0,0
154219.95,203.981,-450.175,0,0
154480,205.236,-449.828,0,0
154741,206.335,-448.871,0,0
155001,207.754,-447.118,0,0
155261,210.038,-445.392,0,0
155522,212.865,-444.025,0,0
155782,215.923,-443.127,0,0
156042,219.553,-442.74,0,0
156303,223.44,-443.795,0,0
156563,226.103,-446.458,0,0
156823,226.51,-449.5,0,0
157084,224.989,-451.457,0,0
157344,222.834,-451.488,0,0
157604,221.123,-450.139,0,0
157864,220.055,-447.955,0,0
158125,219.576,-445.142,0,0
158385,219.973,-442.081,0,0
158645,221.209,-438.698,0,0
158906,223.359,-435.881,0,0
159166,225.98,-433.661,0,0
159426,228.89,-432.134,0,0
159687,231.672,-431.653,0,0
159947,233.623,-431.873,0,0
160207,234.508,-432.042,0,0
160468,234.92,-431.816,0,0
160728,234.977,-431.278,0,0
160988,234.534,-429.696,0,0
161249,234.369,-427.264,0,0
161509,234.846,-424.219,0,0
161769,236.283,-421.065,0,0
162030,238.255,-418.005,0,0
162290,240.891,-415.242,0,0
162550,243.909,-412.968,0,0
162811,247.081,-411.271,0,0
163071,250.21,-410.042,0,0
163331,253.285,-409.028,0,0
163592,256.438,-408.485,0,0
163852,259.417,-408.418,0,0
164112,262.025,-408.839,0,0
164373,263.886,-409.145,0,0
164633,266.051,-409.212,0,0
164893,268.148,-409.647,0,0
165154,270.204,-410.438,0,0
165414,272.256,-411.842,0,0
165674,273.245,-414.243,0,0
165935,272.649,-416.296,0,0
166195,271.193,-417.391,0,0
166455,269.873,-417.735,0,0
166716,268.309,-417.957,0,0
166976,266.377,-417.438,0,0
167236,264.345,-416.233,0,0
167497,262.7,-414.442,0,0
167757,261.318,-412.489,0,0
168017,259.849,-410.256,0,0
168277,258.476,-407.704,0,0
168538,257.37,-404.879,0,0
168798,256.224,-401.79,0,0
169058,255.302,-398.273,0,0
169319,254.682,-394.422,0,0
169579,254.708,-390.474,0,0
169839,254.95,-386.828,0,0
170100,255.045,-383.215,0,0
170360.075,254.953,-379.167,0,0
170620.4,255.373,-374.86,0,0
170880.725,256.042,-370.565,0,0
171141.05,256.878,-366.276,0,0
171401.375,257.402,-362.02,0,0
171661.7,257.977,-357.017,0,0
171922.025,259.108,-351.345,0,0
172182.35,261.199,-345.334,0,0
172442.675,264.292,-339.608,0,0
172703.0,267.797,-334.427,0,0
172963.325,271.68,-329.843,0,0
173223.65,275.571,-325.617,0,0
173483.975,279.519,-321.656,0,0
173744.3,283.659,-318.142,0,0
174004.625,287.828,-314.926,0,0
174264.95,291.635,-311.971,0,0
174525.275,295.362,-309.156,0,0
174785.6,298.688,-306.416,0,0
175045.925,301.814,-303.604,0,0
175306.25,304.743,-300.536,0,0
175566.575,307.575,-297.378,0,0
175826.9,310.119,-293.653,0,0
176087.225,312.908,-289.235,0,0
176347.55,316.432,-284.269,0,0
176607.875,320.756,-279.331,0,0
176868.2,325.855,-274.538,0,0
177128.525,331.339,-270.419,0,0
177388.85,336.806,-266.887,0,0
177649.175,341.956,-263.233,0,0
177909.5,347.159,-259.026,0,0
178169.825,353.324,-254.691,0,0
178430.15,360.238,-250.771,0,0
178690.475,367.651,-247.497,0,0
178950.8,375.292,-244.899,0,0
179211.125,382.845,-242.778,0,0
179471.45,390.4,-241.309,0,0
179731.775,397.459,-240.086,0,0
179992.1,404.514,-238.698,0,0
180252.425,412.075,-237.58,0,0
180512.75,419.699,-237.779,0,0
180773.075,426.386,-237.568,0,0
181033.4,433.318,-237.664,0,0
181293.725,439.825,-238.2,0,0
181554.05,445.718,-238.446,0,0
181814.375,451.804,-238.35,0,0
182074.7,458.162,-238.259,0,0
182335.025,464.842,-238.474,0,0
182595.35,471.609,-238.681,0,0
182855.675,478.455,-239.552,0,0
183116.0,485.107,-241.154,0,0
183376.325,490.893,-243.123,0,0
183636.65,495.991,-244.876,0,0
183896.975,500.672,-246.285,0,0
184157.3,504.961,-247.071,0,0
184417.625,509.285,-247.143,0,0
184677.95,514.047,-247.103,0,0
184938.275,518.697,-246.603,0,0
185198.6,523.684,-245.335,0,0
185458.925,529.822,-243.821,0,0
185719.25,536.537,-242.653,0,0
185979.575,543.836,-241.85,0,0
186239.9,551.521,-241.049,0,0
186500,559.864,-240.93,0,0
186761,568.212,-241.665,0,0
187021,576.183,-242.595,0,0
187281,584.248,-243.606,0,0
187542,592.338,-244.551,0,0
187802,600.835,-245.381,0,0
188062,610.093,-246.462,0,0
188322,619.987,-248.236,0,0
188583,630.344,-251.087,0,0
188843,640.588,-255.264,0,0
189103,650.041,-260.702,0,0
189364,658.014,-266.633,0,0
189624,665.031,-272.233,0,0
189884,671.694,-277.266,0,0
190145,678.133,-282.083,0,0
190405,684.162,-286.676,0,0
190665,689.7,-290.216,0,0
190926,696.292,-292.354,0,0
191186,704.698,-294.652,0,0
191446,713.913,-298.102,0,0
191707,723.507,-302.374,0,0
191967,733.275,-307.959,0,0
192227,742.099,-314.656,0,0
192488,749.809,-321.492,0,0
192748,756.313,-327.62,0,0
193008,762.802,-331.6,0,0
193269,771.58,-334.376,0,0
193529,782.588,-337.919,0,0
193789,794.946,-342.571,0,0
194050,808.894,-348.814,0,0
194310,823.743,-357.642,0,0
194570,838.047,-369.333,0,0
194831,850.713,-382.857,0,0
195091,861.374,-397.13,0,0
195351,872.125,-411.478,0,0
195612,882.882,-426.41,0,0
195872,893.816,-442.836,0,0
196132,904.163,-461.411,0,0
196393,912.812,-482.093,0,0
196653,919.13,-504.269,0,0
196913,923.146,-526.752,0,0
197174,924.788,-549.43,0,0
197434,924.882,-571.497,0,0
197694,923.73,-593.836,0,0
197955,920.388,-615.979,0,0
198215,915.252,-637.438,0,0
198475,908.492,-657.934,0,0
198735,900.544,-677.355,0,0
198996,891.719,-695.662,0,0
199256,882.039,-712.912,0,0
199516,872.128,-729.206,0,0
199777,861.977,-745.394,0,0
200037,850.302,-761.446,0,0
200297,837.221,-776.788,0,0
200558,822.521,-790.333,0,0
200818,807.424,-801.902,0,0
201078,792.52,-811.328,0,0
201339,778.508,-819.726,0,0
201599,764.993,-828.198,0,0
201859,751.003,-836.282,0,0
202120,736.458,-843.679,0,0
202380.025,721.264,-850.508,0,0
202640.35,704.92,-855.844,0,0
202900.675,688.389,-858.897,0,0
203161.0,672.954,-860.07,0,0
203421.325,658.46,-860.345,0,0
203681.65,644.726,-859.633,0,0
203941.975,631.995,-858.106,0,0
204202.3,620.183,-856.062,0,0
204462.625,609.585,-853.508,0,0
204722.95,600.12,-851.168,0,0
204983.275,590.86,-849.162,0,0
205243.6,581.852,-847.099,0,0
205503.925,573.066,-844.984,0,0
205764.25,564.237,-842.752,0,0
206024.575,555.212,-839.976,0,0
206284.9,546.333,-836.316,0,0
206545.225,538.161,-831.506,0,0
206805.55,531.167,-826.049,0,0
207065.875,525.596,-820.459,0,0
207326.2,521.127,-815.131,0,0
207586.525,517.587,-810.422,0,0
207846.85,514.393,-806.292,0,0
208107.175,511.572,-802.589,0,0
208367.5,508.863,-799.167,0,0
208627.825,506.372,-796.056,0,0
208888.15,504.043,-792.994,0,0
209148.475,502.064,-790.135,0,0
209408.8,500.24,-787.382,0,0
209669.125,498.644,-784.624,0,0
209929.45,497.695,-782.02,0,0
210189.775,497.144,-779.953,0,0
210450.1,496.442,-778.342,0,0
210710.425,495.911,-776.814,0,0
210970.75,495.644,-775.761,0,0
211231.075,495.504,-774.981,0,0
211491.4,495.374,-774.562,0,0
211751.725,495.363,-774.579,0,0
212012.05,495.424,-775.172,0,0
212272.375,495.032,-776.173,0,0
212532.7,494.368,-777.328,0,0
212793.025,493.545,-778.659,0,0
213053.35,492.396,-780.3,0,0
213313.675,490.997,-782.183,0,0
213574.0,489.101,-784.08,0,0
213834.325,486.924,-785.874,0,0
214094.65,484.43,-787.63,0,0
214354.975,481.589,-789.219,0,0
214615.3,478.61,-790.501,0,0
214875.625,475.477,-791.533,0,0
215135.95,472.257,-792.488,0,0
215396.275,469.087,-793.309,0,0
215656.6,465.626,-793.72,0,0
215916.925,461.96,-793.889,0,0
216177.25,458.536,-793.648,0,0
216437.575,455.148,-793.097,0,0
216697.9,451.858,-792.159,0,0
216958.225,448.918,-790.716,0,0
217218.55,446.675,-789.012,0,0
217478.875,445.024,-787.458,0,0
217739.2,443.812,-786.08,0,0
217999.525,443.018,-785.017,0,0
218259.85,442.534,-784.415,0,0
218520,441.862,-784.171,0,0
218780,441.105,-784.28,0,0
219041,440.274,-784.438,0,0
219301,439.388,-784.451,0,0
219561,438.659,-784.562,0,0
219822,438.154,-784.823,0,0
220082,437.682,-785.334,0,0
220342,437.292,-785.88,0,0
220603,437.007,-786.809,0,0
220863,436.584,-788.034,0,0
221123,436.041,-789.674,0,0
221384,435.153,-791.295,0,0
221644,434.313,-792.776,0,0
221904,433.401,-794.497,0,0
222165,432.595,-796.393,0,0
222425,431.68,-798.527,0,0
222685,430.503,-800.984,0,0
222946,428.903,-803.762,0,0
223206,426.769,-806.312,0,0
223466,424.444,-808.692,0,0
223727,422.073,-810.772,0,0
223987,419.81,-812.76,0,0
224247,417.57,-814.877,0,0
224508,415.515,-816.945,0,0
224768,413.105,-819.432,0,0
225028,410.815,-821.813,0,0
225289,408.525,-824.569,0,0
225549,405.681,-827.891,0,0
225809,402.077,-831.224,0,0
226070,397.907,-834.242,0,0
226330,393.271,-836.833,0,0
226590,388.512,-838.86,0,0
226851,383.805,-840.73,0,0
227111,378.962,-842.347,0,0
227371,373.746,-843.993,0,0
227632,368.407,-845.089,0,0
227892,363.007,-845.735,0,0
228152,357.618,-845.775,0,0
228413,352.61,-845.345,0,0
228673,348.105,-844.751,0,0
228933,343.95,-844.13,0,0
229193,340.155,-843.68,0,0
229454,336.378,-843.458,0,0
229714,332.585,-843.58,0,0
229974,328.71,-843.638,0,0
230235,324.708,-843.942,0,0
230495,320.319,-844.246,0,0
230755,315.58,-844.442,0,0
231016,310.727,-844.091,0,0
231276,305.884,-843.657,0,0
231536,301.158,-843.009,0,0
231797,296.239,-842.274,0,0
232057,291.292,-841.3,0,0
232317,286.268,-840.066,0,0
232578,281.279,-838.539,0,0
232838,276.409,-836.645,0,0
233098,271.787,-834.569,0,0
233359,267.403,-832.401,0,0
233619,262.977,-830.192,0,0
233879,258.663,-827.828,0,0
234140,254.39,-825.277,0,0
234400,250.289,-822.557,0,0
234660.3,246.279,-819.7,0,0
234920.625,242.469,-816.663,0,0
235180.95,238.847,-813.375,0,0
235441.275,235.466,-810.042,0,0
235701.6,232.485,-806.593,0,0
235961.925,229.615,-803.108,0,0
236222.25,226.937,-799.686,0,0
236482.575,224.508,-796.276,0,0
236742.9,222.251,-792.803,0,0
237003.225,220.216,-789.421,0,0
237263.55,218.311,-786.097,0,0
237523.875,216.581,-782.832,0,0
237784.2,214.975,-779.551,0,0
238044.525,213.621,-776.343,0,0
238304.85,212.439,-773.255,0,0
238565.175,211.366,-770.157,0,0
238825.5,210.562,-767.222,0,0
239085.825,210.023,-764.363,0,0
239346.15,209.766,-761.899,0,0
239606.475,209.502,-759.869,0,0
239866.8,209.283,-758.161,0,0
240127.125,208.821,-756.701,0,0
240387.45,208.124,-755.518,0,0
240647.775,207.216,-754.521,0,0
240908.1,206.13,-753.516,0,0
241168.425,204.781,-752.637,0,0
241428.75,203.139,-751.696,0,0
241689.075,201.271,-750.608,0,0
241949.4,199.255,-749.373,0,0
242209.725,197.151,-747.983,0,0
242470.05,194.975,-746.374,0,0
242730.375,192.697,-744.598,0,0
242990.7,190.526,-742.536,0,0
243251.025,188.468,-740.36,0,0
243511.35,186.522,-738.093,0,0
243771.675,184.651,-735.725,0,0
244032.0,182.825,-733.263,0,0
244292.325,181.172,-730.751,0,0
244552.65,179.608,-728.131,0,0
244812.975,178.225,-725.535,0,0
245073.3,176.863,-722.98,0,0
245333.625,175.546,-720.51,0,0
245593.95,174.231,-717.818,0,0
245854.275,173.021,-715.106,0,0
246114.6,172.047,-712.211,0,0
246374.925,171.227,-709.377,0,0
246635.25,170.631,-706.658,0,0
246895.575,170.215,-704.095,0,0
247155.9,169.838,-701.645,0,0
247416.225,169.38,-699.534,0,0
247676.55,168.901,-697.47,0,0
247936.875,168.235,-695.392,0,0
248197.2,167.52,-693.337,0,0
248457.525,166.681,-691.191,0,0
248717.85,165.808,-688.927,0,0
248978.175,164.915,-686.555,0,0
249238.5,164.027,-684.05,0,0
249498.825,163.264,-681.443,0,0
249759.15,162.567,-678.617,0,0
250019.475,162.033,-675.792,0,0
250279.8,161.681,-672.785,0,0
250540,161.567,-669.786,0,0
250800,161.634,-666.77,0,0
251061,161.8,-663.754,0,0
251321,162.197,-660.758,0,0
251581,162.886,-657.792,0,0
251842,163.866,-654.904,0,0
252102,165.11,-652.245,0,0
252362,166.533,-649.924,0,0
252623,168.091,-647.888,0,0
252883,169.692,-646.261,0,0
253143,171.157,-644.961,0,0
253404,172.378,-643.967,0,0
253664,173.389,-643.084,0,0
253924,174.158,-642.294,0,0
254185,174.661,-641.483,0,0
254445,174.848,-640.637,0,0
254705,175.067,-639.555,0,0
254966,175.293,-638.319,0,0
255226,175.441,-637.007,0,0
255486,175.761,-635.672,0,0
255747,175.986,-634.279,0,0
256007,176.262,-632.739,0,0
256267,176.716,-631.219,0,0
256528,177.236,-629.753,0,0
256788,177.849,-628.287,0,0
257048,178.397,-626.864,0,0
257309,179.003,-625.376,0,0
257569,179.735,-623.848,0,0
257829,180.575,-622.36,0,0
258090,181.521,-620.939,0,0
258350,182.606,-619.554,0,0
258610,183.691,-618.299,0,0
258871,184.844,-617.113,0,0
259131,186.049,-616.015,0,0
259391,187.288,-615.051,0,0
259651,188.591,-614.197,0,0
259912,189.982,-613.356,0,0
260172,191.217,-612.79,0,0
260432,192.394,-612.273,0,0
260693,193.536,-611.781,0,0
260953,194.665,-611.307,0,0
261213,195.855,-610.9,0,0
261474,196.999,-610.573,0,0
261734,198.109,-610.303,0,0
261994,199.28,-610.128,0,0
262255,200.461,-610.075,0,0
262515,201.513,-610.234,0,0
262775,202.325,-610.468,0,0
263036,202.946,-610.571,0,0
263296,203.593,-610.569,0,0
263556,204.245,-610.607,0,0
263817,204.806,-610.697,0,0
264077,205.158,-610.713,0,0
264337,205.489,-610.554,0,0
264598,205.782,-610.214,0,0
264858,206.124,-609.687,0,0
265118,206.599,-609.085,0,0
265379,207.287,-608.344,0,0
265639,208.115,-607.552,0,0
265899,209.18,-606.704,0,0
266160,210.426,-605.86,0,0
266420,212.022,-605.057,0,0
266680.25,213.818,-604.362,0,0
266940.575,215.879,-603.887,0,0
267200.9,218.111,-603.606,0,0
267461.225,220.603,-603.57,0,0
267721.55,223.236,-603.866,0,0
267981.875,225.932,-604.512,0,0
268242.2,228.798,-605.457,0,0
268502.525,231.701,-606.879,0,0
268762.85,234.524,-608.782,0,0
269023.175,237.223,-611.077,0,0
269283.5,239.717,-613.641,0,0
269543.825,241.846,-616.65,0,0
269804.15,243.747,-619.981,0,0
270064.475,245.38,-623.509,0,0
270324.8,246.658,-627.222,0,0
270585.125,247.741,-631.21,0,0
270845.45,248.324,-635.336,0,0
271105.775,248.617,-639.694,0,0
271366.1,248.481,-644.168,0,0
271626.425,247.864,-648.723,0,0
271886.75,246.819,-653.323,0,0
272147.075,245.256,-657.866,0,0
272407.4,243.241,-662.307,0,0
272667.725,240.84,-666.594,0,0
272928.05,238.019,-670.682,0,0
273188.375,234.823,-674.544,0,0
273448.7,231.294,-678.217,0,0
273709.025,227.377,-681.603,0,0
273969.35,223.096,-684.625,0,0
274229.675,218.443,-687.277,0,0
274490.0,213.625,-689.3,0,0
274750.325,208.599,-690.91,0,0
275010.65,203.532,-692.046,0,0
275270.975,198.358,-692.517,0,0
275531.3,193.477,-692.539,0,0
275791.625,188.74,-692.1,0,0
276051.95,184.304,-691.376,0,0
276312.275,180.159,-690.38,0,0
276572.6,176.305,-689.249,0,0
276832.925,172.67,-688.001,0,0
277093.25,169.197,-686.688,0,0
277353.575,165.84,-685.294,0,0
277613.9,162.666,-683.771,0,0
277874.225,159.662,-682.187,0,0
278134.55,156.756,-680.561,0,0
278394.875,153.948,-678.919,0,0
278655.2,151.207,-677.168,0,0
278915.525,148.497,-675.333,0,0
279175.85,145.88,-673.31,0,0
279436.175,143.43,-671.172,0,0
279696.5,141.192,-668.789,0,0
279956.825,139.213,-666.405,0,0
280217.15,137.463,-663.982,0,0
280477.475,135.939,-661.536,0,0
280737.8,134.645,-659.137,0,0
280998.125,133.537,-656.799,0,0
281258.45,132.61,-654.576,0,0
281518.775,131.81,-652.417,0,0
281779.1,131.155,-650.375,0,0
282039.425,130.625,-648.397,0,0
282299.75,130.246,-646.53,0,0
282560,129.961,-644.842,0,0
282820,129.757,-643.376,0,0
283081,129.503,-642.082,0,0
283341,129.145,-640.913,0,0
283601,128.703,-639.772,0,0
283862,128.157,-638.643,0,0
284122,127.587,-637.448,0,0
284382,127.049,-636.216,0,0
284643,126.497,-634.954,0,0
284903,125.989,-633.583,0,0
285163,125.579,-632.155,0,0
285424,125.36,-630.614,0,0
285684,125.467,-629.11,0,0
285944,125.761,-627.75,0,0
286205,126.206,-626.652,0,0
286465,126.81,-625.708,0,0
286725,127.496,-625.04,0,0
286986,128.249,-624.686,0,0
287246,128.972,-624.663,0,0
287506,129.61,-624.977,0,0
287767,130.011,-625.665,0,0
288027,130.116,-626.554,0,0
288287,129.831,-627.631,0,0
288548,129.147,-628.727,0,0
288808,128.094,-629.755,0,0
289068,126.772,-630.617,0,0
289329,125.203,-631.285,0,0
289589,123.472,-631.777,0,0
289849,121.646,-632.033,0,0
290109,119.685,-632.085,0,0
290370,117.738,-631.885,0,0
290630,115.91,-631.462,0,0
290890,114.155,-630.958,0,0
291151,112.462,-630.428,0,0
291411,110.813,-629.87,0,0
291671,109.164,-629.302,0,0
291932,107.471,-628.721,0,0
292192,105.722,-628.075,0,0
292452,103.947,-627.321,0,0
292713,102.176,-626.452,0,0
292973,100.407,-625.495,0,0
293233,98.7135,-624.395,0,0
293494,97.0151,-623.243,0,0
293754,95.4249,-622.041,0,0
294014,93.852,-620.781,0,0
294275,92.314,-619.49,0,0
294535,90.8288,-618.116,0,0
294795,89.3567,-616.661,0,0
295056,87.9795,-615.146,0,0
295316,86.6591,-613.614,0,0
295576,85.4035,-612.008,0,0
295837,84.2629,-610.371,0,0
296097,83.2082,-608.706,0,0
296357,82.2301,-607.075,0,0
296618,81.3255,-605.471,0,0
296878,80.4888,-603.876,0,0
297138,79.6244,-602.362,0,0
297399,78.8008,-600.804,0,0
297659,78.026,-599.238,0,0
297919,77.2721,-597.662,0,0
298180,76.5577,-596.079,0,0
298440,75.8579,-594.49,0,0
298700.2,75.2147,-592.907,0,0
298960.525,74.6194,-591.322,0,0
299220.85,74.0391,-589.727,0,0
299481.175,73.4802,-588.121,0,0
299741.5,72.9911,-586.54,0,0
300001.825,72.5063,-584.913,0,0
300262.15,72.0931,-583.275,0,0
300522.475,71.7253,-581.639,0,0
300782.8,71.4472,-579.993,0,0
301043.125,71.2049,-578.342,0,0
301303.45,71.0614,-576.712,0,0
301563.775,70.997,-575.122,0,0
301824.1,71.0092,-573.593,0,0
302084.425,71.0693,-572.109,0,0
302344.75,71.1835,-570.711,0,0
302605.075,71.2859,-569.402,0,0
302865.4,71.4288,-568.119,0,0
303125.725,71.5709,-566.899,0,0
303386.05,71.698,-565.725,0,0
303646.375,71.8383,-564.585,0,0
303906.7,71.9893,-563.496,0,0
304167.025,72.1197,-562.427,0,0
304427.35,72.2594,-561.383,0,0
304687.675,72.4183,-560.364,0,0
304948.0,72.5685,-559.349,0,0
305208.325,72.7704,-558.395,0,0
305468.65,72.9552,-557.467,0,0
305728.975,73.1564,-556.567,0,0
305989.3,73.3867,-555.743,0,0
306249.625,73.6029,-554.945,0,0
306509.95,73.7965,-554.205,0,0
306770.275,73.9831,-553.495,0,0
307030.6,74.166,-552.833,0,0
307290.925,74.338,-552.201,0,0
307551.25,74.4907,-551.598,0,0
307811.575,74.6326,-551.02,0,0
308071.9,74.7751,-550.469,0,0
308332.225,74.9412,-549.99,0,0
308592.55,75.0831,-549.598,0,0
308852.875,75.1574,-549.285,0,0
309113.2,75.1465,-549.065,0,0
309373.525,75.01,-548.831,0,0
309633.85,74.7574,-548.574,0,0
309894.175,74.4505,-548.259,0,0
310154.5,74.0833,-547.886,0,0
310414.825,73.7232,-547.46,0,0
310675.15,73.3595,-546.987,0,0
310935.475,72.9859,-546.494,0,0
311195.8,72.622,-545.994,0,0
311456.125,72.2714,-545.472,0,0
311716.45,71.9078,-544.959,0,0
311976.775,71.5425,-544.42,0,0
312237.1,71.1632,-543.904,0,0
312497.425,70.7812,-543.372,0,0
312757.75,70.3871,-542.823,0,0
313018.075,69.9792,-542.275,0,0
313278.4,69.5602,-541.748,0,0
313538.725,69.1186,-541.198,0,0
313799.05,68.6303,-540.639,0,0
314059.375,68.132,-540.046,0,0
314319.7,67.6189,-539.412,0,0
314580,67.1064,-538.757,0,0
314840,66.6089,-538.005,0,0
315101,66.0844,-537.248,0,0
315361,65.6454,-536.527,0,0
315621,65.1874,-535.729,0,0
315882,64.7854,-534.942,0,0
316142,64.3401,-534.133,0,0
316402,63.9192,-533.236,0,0
316663,63.5461,-532.406,0,0
316923,63.2615,-531.5,0,0
317183,62.9262,-530.609,0,0
317444,62.6789,-529.769,0,0
317704,62.4376,-528.92,0,0
317964,62.209,-528.056,0,0
318225,62.0471,-527.263,0,0
318485,61.8712,-526.541,0,0
318745,61.789,-525.684,0,0
319006,61.6583,-524.915,0,0
319266,61.4612,-524.216,0,0
319526,61.3495,-523.467,0,0
319787,61.3433,-522.748,0,0
320047,61.2556,-522.108,0,0
320307,61.1776,-521.441,0,0
320567,61.0967,-520.865,0,0
320828,60.9807,-520.435,0,0
321088,60.8587,-519.88,0,0
321348,60.6921,-519.407,0,0
321609,60.5019,-518.93,0,0
321869,60.2029,-518.412,0,0
322129,59.9543,-517.965,0,0
322390,59.6155,-517.453,0,0
322650,59.3543,-516.95,0,0
322910,59.0337,-516.414,0,0
323171,58.7765,-515.891,0,0
323431,58.4306,-515.406,0,0
323691,58.0727,-514.939,0,0
323952,57.7242,-514.494,0,0
324212,57.3113,-513.971,0,0
324472,56.8684,-513.457,0,0
324733,56.3963,-512.899,0,0
324993,55.8523,-512.379,0,0
325253,55.3294,-511.8,0,0
325514,54.8436,-511.154,0,0
325774,54.3174,-510.433,0,0
326034,53.8676,-509.643,0,0
326295,53.3952,-508.892,0,0
326555,52.9487,-508.154,0,0
326815,52.4927,-507.403,0,0
327076,52.0807,-506.643,0,0
327336,51.7074,-505.855,0,0
327596,51.3342,-505.044,0,0
327857,50.9713,-504.31,0,0
328117,50.5555,-503.429,0,0
328377,50.1435,-502.725,0,0
328638,49.8976,-501.846,0,0
328898,49.5178,-501.08,0,0
329158,49.1924,-500.32,0,0
329419,48.8183,-499.554,0,0
329679,48.4614,-498.703,0,0
329939,48.1843,-497.941,0,0
330200,47.8839,-497.101,0,0
330460,47.523,-496.24,0,0
330720.15,47.2225,-495.425,0,0
330980.475,46.9228,-494.568,0,0
331240.8,46.6272,-493.736,0,0
331501.125,46.3841,-492.816,0,0
331761.45,46.0574,-491.955,0,0
332021.775,45.7733,-491.098,0,0
332282.1,45.4974,-490.203,0,0
332542.425,45.2564,-489.263,0,0
332802.75,45.0984,-488.377,0,0
333063.075,44.8613,-487.462,0,0
333323.4,44.757,-486.545,0,0
333583.725,44.5757,-485.628,0,0
333844.05,44.4767,-484.659,0,0
334104.375,44.3999,-483.817,0,0
334364.7,44.315,-482.861,0,0
334625.025,44.2904,-481.991,0,0
334885.35,44.2778,-481.151,0,0
335145.675,44.2614,-480.271,0,0
335406.0,44.2744,-479.445,0,0
335666.325,44.2318,-478.594,0,0
335926.65,44.3577,-477.861,0,0
336186.975,44.3445,-477.119,0,0
336447.3,44.3687,-476.425,0,0
336707.625,44.3853,-475.704,0,0
336967.95,44.4159,-475.037,0,0
337228.275,44.4315,-474.364,0,0
337488.6,44.4067,-473.738,0,0
337748.925,44.4036,-473.052,0,0
338009.25,44.3733,-472.508,0,0
338269.575,44.4132,-471.84,0,0
338529.9,44.312,-471.257,0,0
338790.225,44.2065,-470.662,0,0
339050.55,44.1469,-470.037,0,0
339310.875,44.0621,-469.459,0,0
339571.2,43.9741,-468.842,0,0
339831.525,43.8638,-468.243,0,0
340091.85,43.7662,-467.62,0,0
340352.175,43.6151,-467.02,0,0
340612.5,43.4866,-466.418,0,0
340872.825,43.2907,-465.846,0,0
341133.15,43.2092,-465.179,0,0
341393.475,43.0377,-464.542,0,0
341653.8,42.8463,-463.901,0,0
341914.125,42.6847,-463.261,0,0
342174.45,42.5032,-462.557,0,0
342434.775,42.3132,-461.88,0,0
342695.1,42.1767,-461.172,0,0
342955.425,42.0561,-460.425,0,0
343215.75,41.8551,-459.739,0,0
343476.075,41.7509,-459.001,0,0
343736.4,41.5583,-458.348,0,0
343996.725,41.4457,-457.627,0,0
344257.05,41.3336,-456.841,0,0
344517.375,41.2288,-456.121,0,0
344777.7,41.1264,-455.374,0,0
345038.025,41.0615,-454.621,0,0
345298.35,40.9705,-453.821,0,0
345558.675,40.8806,-453.104,0,0
345819.0,40.8017,-452.381,0,0
346079.325,40.7429,-451.554,0,0
346339.65,40.7037,-450.835,0,0
346599.975,40.6836,-450.098,0,0
346860,40.6516,-449.336,0,0
347121,40.6523,-448.587,0,0
347381,40.6499,-447.804,0,0
347641,40.6637,-447.089,0,0
347902,40.7144,-446.339,0,0
348162,40.7199,-445.631,0,0
348422,40.7894,-444.879,0,0
348683,40.8318,-444.165,0,0
348943,40.8903,-443.531,0,0
349203,40.9521,-442.806,0,0
349464,41.0345,-442.111,0,0
349724,41.0816,-441.447,0,0
349984,41.1196,-440.775,0,0
350245,41.2068,-440.101,0,0
350505,41.3113,-439.469,0,0
350765,41.4272,-438.781,0,0
351025,41.5255,-438.191,0,0
351286,41.5822,-437.547,0,0
351546,41.6964,-436.974,0,0
351806,41.7642,-436.337,0,0
352067,41.8397,-435.774,0,0
352327,41.9091,-435.129,0,0
352587,41.9811,-434.555,0,0
352848,42.0707,-433.956,0,0
353108,42.167,-433.361,0,0
353368,42.2987,-432.818,0,0
353629,42.3781,-432.234,0,0
353889,42.4977,-431.702,0,0
354149,42.5586,-431.139,0,0
354410,42.6876,-430.611,0,0
354670,42.8081,-430.104,0,0
354930,42.8294,-429.586,0,0
355191,42.9035,-429.095,0,0
355451,42.9842,-428.627,0,0
355711,43.0579,-428.15,0,0
355972,43.0816,-427.656,0,0
356232,43.1727,-427.185,0,0
356492,43.1973,-426.709,0,0
356753,43.2656,-426.276,0,0
357013,43.2136,-425.81,0,0
357273,43.2494,-425.363,0,0
357534,43.1963,-424.908,0,0
357794,43.18,-424.434,0,0
358054,43.1079,-423.928,0,0
358315,43.0669,-423.438,0,0
358575,43.0078,-422.902,0,0
358835,42.9728,-422.437,0,0
359096,42.8885,-421.875,0,0
359356,42.8602,-421.353,0,0
359616,42.8391,-420.801,0,0
359877,42.7552,-420.21,0,0
360137,42.7602,-419.669,0,0
360397,42.684,-419.107,0,0
360658,42.6911,-418.547,0,0
360918,42.6791,-417.979,0,0
361178,42.6354,-417.418,0,0
361438,42.6408,-416.834,0,0
361699,42.6644,-416.256,0,0
361959,42.6218,-415.702,0,0
362219,42.6321,-415.103,0,0
362480,42.6023,-414.502,0,0
362740.1,42.6283,-413.97,0,0
363000.425,42.6428,-413.329,0,0
363260.75,42.6671,-412.707,0,0
363521.075,42.6958,-412.16,0,0
363781.4,42.6889,-411.542,0,0
364041.725,42.7475,-410.948,0,0
364302.05,42.8644,-410.337,0,0
364562.375,42.882,-409.718,0,0
364822.7,42.964,-409.097,0,0
365083.025,43.0309,-408.457,0,0
365343.35,43.1655,-407.899,0,0
365603.675,43.3557,-407.353,0,0
365864.0,43.5008,-406.754,0,0
366124.325,43.6485,-406.264,0,0
366384.65,43.7757,-405.751,0,0
366644.975,43.8965,-405.239,0,0
366905.3,44.0133,-404.78,0,0
367165.625,44.0989,-404.235,0,0
367425.95,44.1985,-403.773,0,0
367686.275,44.245,-403.237,0,0
367946.6,44.3288,-402.798,0,0
368206.925,44.4376,-402.254,0,0
368467.25,44.4443,-401.706,0,0
368727.575,44.5377,-401.133,0,0
368987.9,44.6785,-400.601,0,0
369248.225,44.8013,-400.045,0,0
369508.55,44.9694,-399.457,0,0
369768.875,45.1289,-398.878,0,0
370029.2,45.3283,-398.368,0,0
370289.525,45.5756,-397.836,0,0
370549.85,45.827,-397.357,0,0
370810.175,46.067,-396.933,0,0
371070.5,46.3321,-396.467,0,0
371330.825,46.5532,-396.122,0,0
371591.15,46.7718,-395.744,0,0
371851.475,46.957,-395.436,0,0
372111.8,47.191,-395.031,0,0
372372.125,47.3763,-394.717,0,0
372632.45,47.4868,-394.398,0,0
372892.775,47.6737,-394.099,0,0
373153.1,47.8066,-393.793,0,0
373413.425,47.9218,-393.524,0,0
373673.75,47.9871,-393.244,0,0
373934.075,48.0981,-392.937,0,0
374194.4,48.1542,-392.622,0,0
374454.725,48.18,-392.293,0,0
374715.05,48.2823,-391.952,0,0
374975.375,48.3352,-391.629,0,0
375235.7,48.3708,-391.302,0,0
375496.025,48.3682,-390.922,0,0
375756.35,48.4565,-390.589,0,0
376016.675,48.5329,-390.249,0,0
376277.0,48.6127,-389.889,0,0
376537.325,48.6822,-389.539,0,0
376797.65,48.8202,-389.184,0,0
377057.975,48.9069,-388.891,0,0
377318.3,49.011,-388.586,0,0
377578.625,49.0833,-388.315,0,0
377838.95,49.16,-388.059,0,0
378099.275,49.1967,-387.886,0,0
378359.6,49.2227,-387.667,0,0
378619.925,49.1394,-387.432,0,0
378880,49.0569,-387.196,0,0
379141,48.9629,-386.923,0,0
379401,48.8009,-386.594,0,0
379661,48.6721,-386.229,0,0
379922,48.5801,-385.756,0,0
380182,48.507,-385.248,0,0
380442,48.5631,-384.738,0,0
380703,48.6603,-384.276,0,0
380963,48.8138,-383.827,0,0
381223,49.0351,-383.518,0,0
381483,49.236,-383.244,0,0
381744,49.3897,-383.065,0,0
382004,49.5443,-382.955,0,0
382264,49.5654,-382.84,0,0
382525,49.5416,-382.772,0,0
382785,49.403,-382.709,0,0
383045,49.2648,-382.592,0,0
383306,49.0948,-382.445,0,0
383566,48.8898,-382.272,0,0
383826,48.5956,-382.074,0,0
384087,48.317,-381.785,0,0
384347,48.0299,-381.537,0,0
384607,47.7317,-381.217,0,0
384868,47.4359,-380.828,0,0
385128,47.1149,-380.434,0,0
385388,46.822,-380,0,0
385649,46.5445,-379.553,0,0
385909,46.3134,-379.097,0,0
386169,46.0667,-378.566,0,0
386430,45.8239,-378.076,0,0
386690,45.6307,-377.52,0,0
386950,45.4116,-376.997,0,0
387211,45.2331,-376.41,0,0
387471,45.0944,-375.841,0,0
387731,44.9304,-375.264,0,0
387992,44.8068,-374.667,0,0
388252,44.701,-374.078,0,0
388512,44.5768,-373.464,0,0
388773,44.5053,-372.85,0,0
389033,44.4849,-372.296,0,0
389293,44.4826,-371.705,0,0
389554,44.4564,-371.1,0,0
389814,44.4604,-370.546,0,0
390074,44.4986,-369.997,0,0
390335,44.5217,-369.467,0,0
390595,44.5006,-368.961,0,0
390855,44.5084,-368.46,0,0
391116,44.5263,-367.957,0,0
391376,44.5062,-367.426,0,0
391636,44.5046,-366.92,0,0
391896,44.523,-366.418,0,0
392157,44.5093,-365.933,0,0
392417,44.5029,-365.393,0,0
392677,44.4893,-364.916,0,0
392938,44.4634,-364.407,0,0
393198,44.4798,-363.879,0,0
393458,44.4857,-363.343,0,0
393719,44.4946,-362.828,0,0
393979,44.5007,-362.303,0,0
394239,44.5224,-361.776,0,0
394500,44.524,-361.254,0,0
394760.05,44.5423,-360.714,0,0
395020.375,44.5686,-360.177,0,0
395280.7,44.6488,-359.644,0,0
395541.025,44.6644,-359.09,0,0
395801.35,44.7666,-358.571,0,0
396061.675,44.8078,-358.039,0,0
396322.0,44.9458,-357.51,0,0
396582.325,45.0167,-357.02,0,0
396842.65,45.1311,-356.542,0,0
397102.975,45.225,-356.085,0,0
397363.3,45.3149,-355.622,0,0
397623.625,45.4013,-355.179,0,0
397883.95,45.4897,-354.733,0,0
398144.275,45.5399,-354.308,0,0
398404.6,45.5816,-353.883,0,0
398664.925,45.6277,-353.46,0,0
398925.25,45.6676,-353.019,0,0
399185.575,45.6605,-352.546,0,0
399445.9,45.6932,-352.126,0,0
399706.225,45.6918,-351.649,0,0
399966.55,45.7137,-351.174,0,0
400006.6,45.7047,-351.114,0,0