File: Accelerated corrosion test data/2025-10-23_06-00-04/sample_1.csv
Frequency (Hz),Impedance (ohms),Phase (Radians),Temperature (C),Humidity (%)
10000.0,240.957,-12234.5,0,0
10260.325,242.291,-11919.3,0,0
10520.65,230.452,-11639.1,0,0
10780.975,227.198,-11354.4,0,0
11041.3,219.977,-11094.3,0,0
11301.625,214.565,-10837,0,0
11561.95,210.93,-10592.2,0,0
11822.275,208.683,-10352.2,0,0
12082.6,233.457,-10122.9,0,0
12342.925,209.815,-9950.48,0,0
12603.25,195.462,-9733.67,0,0
12863.575,191.713,-9531.67,0,0
13123.9,202.249,-9339.1,0,0
13384.225,185.859,-9168.62,0,0
13644.55,180.922,-8986.2,0,0
13904.875,182.796,-8807.38,0,0
14165.2,191.81,-8673.8,0,0
14425.525,215.262,-8509.97,0,0
14685.8,205.955,-8343.02,0,0
14946.175,177.175,-8236.56,0,0
15206.5,190.788,-8074.61,0,0
15466.825,172.994,-7960.58,0,0
15727.15,171.797,-7826.3,0,0
15987.5,160.178,-7698.1,0,0
16247.8,156.813,-7571.51,0,0
16508.125,154.947,-7448.35,0,0
16768.45,158.162,-7329.77,0,0
17028.775,164.628,-7220.82,0,0
17289.1,154.652,-7119.93,0,0
17549.425,150.862,-7015.42,0,0
17809.75,145.695,-6910.35,0,0
18070.075,148.52,-6810.41,0,0
18330.4,142.358,-6715.09,0,0
18590.725,137.886,-6619.84,0,0
18851.05,138.721,-6521.26,0,0
19111.375,135.707,-6440.59,0,0
19371.7,132.867,-6348.16,0,0
19632.025,132.168,-6258.92,0,0
19892.35,137.267,-6171.51,0,0
20152.675,135.806,-6085,0,0
20413.0,157.404,-5995.31,0,0
20673.3,169.449,-5955.61,0,0
20933.65,148.342,-5887.83,0,0
21193.975,162.309,-5824.51,0,0
21454.3,141.596,-5751.43,0,0
21714.625,135.668,-5677.85,0,0
21974.9,140.937,-5596.71,0,0
22235.275,175.039,-5556.1,0,0
22495.6,140.754,-5513.45,0,0
22755.925,126.425,-5443.22,0,0
23016.25,122.133,-5376.72,0,0
23276.6,118.633,-5314.31,0,0
23536.9,115.376,-5253.32,0,0
23797.225,112.522,-5191.84,0,0
24057.55,115.107,-5131.32,0,0
24317.875,112.475,-5082.82,0,0
24578.2,110.619,-5023.1,0,0
24838.525,110.17,-4972.54,0,0
25098.85,110.669,-4918.45,0,0
25359.175,105.588,-4868.12,0,0
25619.5,104.695,-4817.67,0,0
25879.8,103.015,-4765.69,0,0
26140.1,104.006,-4716.26,0,0
26400.5,102.754,-4666.62,0,0
26660.8,105.009,-4615.76,0,0
26921.1,114.738,-4567.01,0,0
27181.4,122.761,-4537.86,0,0
27441.8,109.584,-4500.72,0,0
27702.1,103.594,-4451.88,0,0
27962.4,111.56,-4402.31,0,0
28222.7,110.736,-4363.82,0,0
28483.1,121.009,-4320.15,0,0
28743.4,130.304,-4302.37,0,0
29003.7,118.032,-4264.19,0,0
29264,119.23,-4231.84,0,0
29524.4,107.916,-4198.4,0,0
29784.7,105.93,-4155.29,0,0
30045,102.121,-4123.62,0,0
30305.3,99.7708,-4084.94,0,0
30565.7,97.3163,-4046.11,0,0
30826,101.005,-4009.33,0,0
31086.3,104.05,-3983.38,0,0
31346.6,99.6347,-3952.63,0,0
31607,93.8694,-3915.15,0,0
31867.3,98.3224,-3882.52,0,0
32127.6,97.53,-3852.09,0,0
32387.9,98.0839,-3824.87,0,0
32648.3,94.4585,-3793.04,0,0
32908.6,96.6581,-3765.85,0,0
33168.9,91.5285,-3737.26,0,0
33429.2,88.9165,-3708.1,0,0
33689.6,85.9572,-3678.4,0,0
33949.9,85.4089,-3647,0,0
34210.2,86.4047,-3621.35,0,0
34470.5,83.3362,-3593.92,0,0
34730.9,81.7761,-3565.17,0,0
34991.2,81.2807,-3538.6,0,0
35251.5,80.2674,-3511.75,0,0
35511.8,79.2923,-3485.41,0,0
35772.2,78.929,-3459.64,0,0
36032.5,77.5954,-3434.11,0,0
36292.8,77.046,-3408.68,0,0
36553.1,76.3528,-3383.67,0,0
36813.5,76.1424,-3358.83,0,0
37073.8,75.9483,-3335.06,0,0
37334.1,75.1519,-3311.49,0,0
37594.4,74.8986,-3287.9,0,0
37854.8,73.8029,-3265.36,0,0
38115.1,73.2653,-3242,0,0
38375.4,73.134,-3219.34,0,0
38635.7,72.9253,-3197.7,0,0
38896.1,72.2778,-3175.38,0,0
39156.4,72.5677,-3153.3,0,0
39416.7,72.1605,-3133.09,0,0
39677,71.2111,-3111.61,0,0
39937.4,70.8728,-3090.83,0,0
40197.7,71.1354,-3069.82,0,0
40458,70.9094,-3049.64,0,0
40718.3,70.9065,-3029,0,0
40978.7,72.489,-3009.47,0,0
41239,72.1999,-2991.31,0,0
41499.3,71.7349,-2973.04,0,0
41759.6,70.8491,-2954.34,0,0
42020,70.5366,-2935.17,0,0
42280.275,70.4256,-2917.18,0,0
42540.6,70.8481,-2899.12,0,0
42800.925,70.0715,-2882.23,0,0
43061.25,69.5777,-2863.99,0,0
43321.575,69.1071,-2847.14,0,0
43581.9,68.0942,-2829.87,0,0
43842.225,67.8417,-2812.11,0,0
44102.55,68.011,-2794.63,0,0
44362.875,68.7787,-2777.47,0,0
44623.2,69.1222,-2762.22,0,0
44883.525,68.3277,-2746.36,0,0
45143.85,67.9806,-2730.57,0,0
45404.175,68.1331,-2714.79,0,0
45664.5,67.2983,-2699.59,0,0
45924.825,66.4488,-2684.62,0,0
46185.15,65.7854,-2668.89,0,0
46445.475,64.8477,-2653.17,0,0
46705.8,65.2943,-2637.68,0,0
46966.125,64.9717,-2623.64,0,0
47226.45,64.2659,-2608.34,0,0
47486.775,64.5971,-2593.46,0,0
47747.1,64.088,-2579.62,0,0
48007.425,63.6137,-2565.44,0,0
48267.75,63.4834,-2551.53,0,0
48528.075,62.3656,-2537.99,0,0
48788.4,61.5889,-2523.38,0,0
49048.725,61.7117,-2509.36,0,0
49309.05,61.5607,-2495.67,0,0
49569.375,61.3703,-2482.43,0,0
49829.7,60.8299,-2469.71,0,0
50090.025,59.8414,-2456.09,0,0
50350.35,59.4756,-2442.73,0,0
50610.675,59.4133,-2429.35,0,0
50871.0,59.244,-2416.54,0,0
51131.325,59.0559,-2403.78,0,0
51391.65,59.0246,-2391.38,0,0
51651.975,58.6121,-2379.12,0,0
51912.3,58.1946,-2366.41,0,0
52172.625,58.037,-2354.12,0,0
52432.95,57.869,-2341.92,0,0
52693.275,57.6978,-2329.91,0,0
52953.6,57.6335,-2317.92,0,0
53213.925,57.5482,-2306.37,0,0
53474.25,57.3208,-2294.8,0,0
53734.575,57.1664,-2283.29,0,0
53994.9,57.0353,-2272.12,0,0
54255.225,56.5436,-2260.88,0,0
54515.55,56.0522,-2249.46,0,0
54775.875,55.8345,-2238.13,0,0
55036.2,55.6068,-2226.9,0,0
55296.525,55.6752,-2216.02,0,0
55556.85,55.4541,-2205.24,0,0
55817.175,55.217,-2194.52,0,0
56077.5,54.8615,-2183.78,0,0
56337.825,54.6986,-2172.98,0,0
56598.15,54.6129,-2162.33,0,0
56858.475,54.7212,-2152.08,0,0
57118.8,54.4938,-2141.74,0,0
57379.125,54.3809,-2131.36,0,0
57639.45,54.4596,-2121.32,0,0
57899.775,54.2357,-2111.32,0,0
58160.1,54.3017,-2101.24,0,0
58420.4,54.3805,-2091.58,0,0
58680.7,54.0474,-2081.79,0,0
58941.1,54.0212,-2071.94,0,0
59201.4,54.3239,-2062.36,0,0
59461.7,54.1461,-2053.18,0,0
59722,54.0208,-2043.73,0,0
59982.4,53.9826,-2034.31,0,0
60242.7,53.93,-2025,0,0
60503,54.1334,-2015.82,0,0
60763.3,54.2267,-2007.24,0,0
61023.7,53.752,-1998.59,0,0
61284,53.4087,-1989.63,0,0
61544.3,52.994,-1980.59,0,0
61804.6,53.245,-1971.63,0,0
62065,52.9076,-1963.11,0,0
62325.3,52.4936,-1954.28,0,0
62585.6,52.3301,-1945.42,0,0
62845.9,52.2625,-1936.46,0,0
63106.3,52.3634,-1928.02,0,0
63366.6,52.2969,-1919.48,0,0
63626.9,52.0973,-1911.03,0,0
63887.2,52.255,-1902.46,0,0
64147.6,52.2953,-1894,0,0
64407.9,52.458,-1885.47,0,0
64668.2,52.7449,-1877.17,0,0
64928.5,53.2879,-1869.05,0,0
65188.9,53.8751,-1861.04,0,0
65449.2,54.4042,-1853.61,0,0
65709.5,54.9198,-1846.32,0,0
65969.8,54.865,-1839.29,0,0
66230.2,54.754,-1832.03,0,0
66490.5,54.7526,-1824.87,0,0
66750.8,54.357,-1817.77,0,0
67011.1,54.0463,-1810.42,0,0
67271.5,53.4369,-1802.92,0,0
67531.8,53.7886,-1794.96,0,0
67792.1,54.2168,-1788.12,0,0
68052.4,53.9328,-1781.84,0,0
68312.8,52.8456,-1774.26,0,0
68573.1,52.8596,-1767.01,0,0
68833.4,53.0762,-1759.91,0,0
69093.7,52.7959,-1753.27,0,0
69354.1,52.4703,-1746.16,0,0
69614.4,52.5146,-1739.47,0,0
69874.7,52.0892,-1732.83,0,0
70135,51.4578,-1726.28,0,0
70395.4,50.8171,-1719.24,0,0
70655.7,50.41,-1712.13,0,0
70916,50.115,-1705.16,0,0
71176.3,49.9958,-1698.26,0,0
71436.7,49.9785,-1691.55,0,0
71697,49.5752,-1685.15,0,0
71957.3,49.0268,-1678.27,0,0
72217.6,48.5562,-1671.47,0,0
72478,48.2464,-1664.52,0,0
72738.3,48.0724,-1657.59,0,0
72998.6,48.137,-1650.81,0,0
73258.9,48.3129,-1644.22,0,0
73519.3,47.9369,-1637.81,0,0
73779.6,47.8886,-1631.01,0,0
74039.9,47.8841,-1624.46,0,0
74300.225,47.8716,-1617.88,0,0
74560.55,47.8665,-1611.4,0,0
74820.875,48.0528,-1604.95,0,0
75081.2,48.2173,-1598.74,0,0
75341.525,48.2828,-1592.45,0,0
75601.85,48.3229,-1586.21,0,0
75862.175,48.4371,-1579.95,0,0
76122.5,48.6997,-1573.72,0,0
76382.825,48.9559,-1567.61,0,0
76643.15,49.1712,-1561.64,0,0
76903.475,49.3109,-1555.72,0,0
77163.8,49.5942,-1549.79,0,0
77424.125,49.8278,-1543.95,0,0
77684.45,50.0347,-1538.23,0,0
77944.775,50.1532,-1532.33,0,0
78205.1,50.5154,-1526.44,0,0
78465.425,51.151,-1520.9,0,0
78725.75,51.5627,-1515.81,0,0
78986.075,51.5806,-1510.57,0,0
79246.4,51.7082,-1505.5,0,0
79506.725,51.4238,-1500.35,0,0
79767.05,51.028,-1494.93,0,0
80027.375,51.0325,-1489.44,0,0
80287.7,50.9023,-1484.15,0,0
80548.025,50.4122,-1478.66,0,0
80808.35,50.2691,-1473.09,0,0
81068.675,50.0534,-1467.43,0,0
81329.0,50.1258,-1461.73,0,0
81589.325,50.1942,-1456.18,0,0
81849.65,50.3757,-1450.66,0,0
82109.975,50.6049,-1445.33,0,0
82370.3,50.7713,-1439.98,0,0
82630.625,50.8133,-1434.71,0,0
82890.95,50.8214,-1429.36,0,0
83151.275,51.1411,-1423.92,0,0
83411.6,51.4425,-1418.72,0,0
83671.925,51.6166,-1413.51,0,0
83932.25,51.8416,-1408.25,0,0
84192.575,52.2066,-1403.12,0,0
84452.9,52.6211,-1398.01,0,0
84713.225,52.9246,-1393,0,0
84973.55,53.2508,-1387.88,0,0
85233.875,53.8818,-1382.92,0,0
85494.2,54.3936,-1378.25,0,0
85754.525,54.558,-1373.67,0,0
86014.85,54.8438,-1369,0,0
86275.175,55.0256,-1364.34,0,0
86535.5,55.2227,-1359.54,0,0
86795.825,55.3452,-1355.02,0,0
87056.15,55.356,-1350.15,0,0
87316.475,55.7628,-1345.46,0,0
87576.8,55.8664,-1341.04,0,0
87837.125,55.8257,-1336.3,0,0
88097.45,55.7201,-1331.48,0,0
88357.775,55.8144,-1326.48,0,0
88618.1,56.2445,-1321.35,0,0
88878.425,56.6683,-1316.5,0,0
89138.75,57.1441,-1311.61,0,0
89399.075,57.7156,-1306.84,0,0
89659.4,58.4153,-1301.99,0,0
89919.725,59.1387,-1297.4,0,0
90180,59.7183,-1293.04,0,0
90440.4,60.1819,-1288.37,0,0
90700.7,60.9651,-1283.47,0,0
90961,61.85,-1278.97,0,0
91221.3,63.1673,-1274.22,0,0
91481.7,64.5171,-1270.1,0,0
91742,65.7746,-1266.11,0,0
92002.3,66.8201,-1262.21,0,0
92262.6,68.0139,-1258.16,0,0
92523,69.443,-1254.29,0,0
92783.3,71.2854,-1250.45,0,0
93043.6,73.0112,-1247.58,0,0
93303.9,74.5514,-1244.75,0,0
93564.3,76.4856,-1242.16,0,0
93824.6,78.6634,-1241.2,0,0
94084.9,78.7208,-1241.77,0,0
94345.2,76.0069,-1241.08,0,0
94605.6,73.4717,-1237.71,0,0
94865.9,72.5786,-1234.5,0,0
95126.2,70.725,-1231.13,0,0
95386.5,69.4974,-1227.34,0,0
95646.9,68.2601,-1223.42,0,0
95907.2,67.1012,-1219.18,0,0
96167.5,66.392,-1214.54,0,0
96427.8,66.4095,-1210.25,0,0
96688.2,66.3265,-1206.62,0,0
96948.5,65.6794,-1202.89,0,0
97208.8,65.1743,-1198.8,0,0
97469.1,64.83,-1194.67,0,0
97729.5,64.5149,-1190.53,0,0
97989.8,64.3042,-1186.39,0,0
98250.1,64.3173,-1182.22,0,0
98510.4,64.4505,-1178.49,0,0
98770.8,64.267,-1174.75,0,0
99031.1,64.0139,-1170.85,0,0
99291.4,63.789,-1166.98,0,0
99551.7,63.5711,-1163.01,0,0
99812.1,63.405,-1159.06,0,0
100072,63.2246,-1154.96,0,0
100333,63.184,-1150.97,0,0
100593,63.0492,-1146.83,0,0
100853,63.0785,-1142.83,0,0
101114,63.0628,-1138.75,0,0
101374,63.0206,-1134.61,0,0
101634,62.9525,-1130.5,0,0
101895,62.8624,-1126.21,0,0
102155,63.0323,-1121.5,0,0
102415,63.4382,-1116.97,0,0
102676,64.177,-1112.32,0,0
102936,65.2073,-1108.08,0,0
103196,66.0135,-1103.87,0,0
103457,67.1425,-1099.69,0,0
103717,68.2793,-1095.73,0,0
103977,69.4837,-1091.6,0,0
104238,71.2768,-1087.72,0,0
104498,72.9411,-1084.74,0,0
104758,74.073,-1081.76,0,0
105019,74.8176,-1078.67,0,0
105279,75.5777,-1075.45,0,0
105539,76.5616,-1071.9,0,0
105800,77.8423,-1068.63,0,0
106060,79.0968,-1065.42,0,0
106320.175,80.5434,-1062.42,0,0
106580.5,81.7946,-1059.59,0,0
106840.825,83.0025,-1056.92,0,0
107101.15,84.1427,-1054.14,0,0
107361.475,85.5603,-1051.43,0,0
107621.8,86.8638,-1049.2,0,0
107882.125,87.8009,-1047.08,0,0
108142.45,88.5845,-1044.71,0,0
108402.775,89.455,-1042.45,0,0
108663.1,90.2796,-1040.16,0,0
108923.425,91.213,-1037.84,0,0
109183.75,92.1901,-1035.75,0,0
109444.075,93.1132,-1033.97,0,0
109704.4,93.7406,-1032.34,0,0
109964.725,94.0062,-1030.84,0,0
110225.05,94.0061,-1029.24,0,0
110485.375,93.4987,-1027.15,0,0
110745.7,93.2803,-1024.63,0,0
111006.025,93.3374,-1022.01,0,0
111266.35,93.43,-1019.28,0,0
111526.675,94.0661,-1016.58,0,0
111787.0,94.904,-1014.14,0,0
112047.325,95.5988,-1011.99,0,0
112307.65,96.2789,-1010.18,0,0
112567.975,96.9691,-1008.23,0,0
112828.3,97.5654,-1006.71,0,0
113088.625,97.9079,-1005.32,0,0
113348.95,98.0373,-1004,0,0
113609.275,97.8657,-1002.74,0,0
113869.6,97.3899,-1001.34,0,0
114129.925,96.7236,-999.641,0,0
114390.25,96.292,-997.749,0,0
114650.575,95.9115,-995.96,0,0
114910.9,95.3257,-994.368,0,0
115171.225,94.5375,-992.608,0,0
115431.55,93.6768,-990.722,0,0
115691.875,92.6545,-988.722,0,0
115952.2,91.6758,-986.496,0,0
116212.525,90.6839,-984.19,0,0
116472.85,89.8563,-981.803,0,0
116733.175,89.0739,-979.426,0,0
116993.5,88.0075,-977.152,0,0
117253.825,86.8785,-974.541,0,0
117514.15,85.7855,-971.683,0,0
117774.475,84.8967,-968.798,0,0
118034.8,84.0482,-965.709,0,0
118295.125,83.4598,-962.548,0,0
118555.45,82.8513,-959.543,0,0
118815.775,82.3602,-956.362,0,0
119076.1,81.9574,-953.137,0,0
119336.425,81.8166,-950.044,0,0
119596.75,81.6684,-946.995,0,0
119857.075,81.6865,-943.848,0,0
120117.4,81.8659,-941.069,0,0
120377.725,81.9056,-938.385,0,0
120638.05,81.9069,-935.77,0,0
120898.375,81.8844,-933.328,0,0
121158.7,81.5916,-930.93,0,0
121419.025,81.2026,-928.396,0,0
121679.35,80.7327,-925.799,0,0
121939.675,80.1918,-922.967,0,0
122200.0,79.7818,-920.021,0,0
122460,79.4284,-917.11,0,0
122721,79.1041,-914.071,0,0
122981,78.9954,-911.008,0,0
123241,78.8252,-908.039,0,0
123502,78.7094,-905.005,0,0
123762,78.6815,-901.97,0,0
124022,78.7246,-899.008,0,0
124283,78.7525,-896.057,0,0
124543,78.7686,-893.128,0,0
124803,78.7989,-890.174,0,0
125064,78.9369,-887.306,0,0
125324,78.9547,-884.366,0,0
125584,79.1284,-881.289,0,0
125845,79.3982,-878.441,0,0
126105,79.5221,-875.592,0,0
126365,79.6977,-872.634,0,0
126626,79.8854,-869.746,0,0
126886,80.1036,-866.872,0,0
127146,80.4377,-863.845,0,0
127406,80.7958,-860.983,0,0
127667,80.9694,-858.121,0,0
127927,81.2365,-855.111,0,0
128187,81.698,-852.086,0,0
128448,82.3138,-849.229,0,0
128708,82.9356,-846.415,0,0
128968,83.4421,-843.721,0,0
129229,83.8258,-840.962,0,0
129489,84.3068,-838.046,0,0
129749,84.9203,-835.172,0,0
130010,85.7413,-832.211,0,0
130270,86.6837,-829.479,0,0
130530,87.5584,-826.867,0,0
130791,88.4495,-824.331,0,0
131051,89.3035,-821.797,0,0
131311,90.2891,-819.367,0,0
131572,91.3095,-817.104,0,0
131832,92.1461,-814.897,0,0
132092,92.9542,-812.865,0,0
132353,93.5907,-810.82,0,0
132613,94.1107,-808.638,0,0
132873,94.7239,-806.372,0,0
133134,95.4219,-804.157,0,0
133394,96.0522,-802.076,0,0
133654,96.6216,-799.881,0,0
133915,97.1467,-797.668,0,0
134175,97.788,-795.375,0,0
134435,98.5515,-793.169,0,0
134696,99.2948,-791.06,0,0
134956,100.054,-789.032,0,0
135216,100.661,-786.956,0,0
135477,101.191,-784.966,0,0
135737,101.854,-782.809,0,0
135997,102.354,-780.63,0,0
136258,103.101,-778.4,0,0
136518,103.946,-776.127,0,0
136778,105.087,-773.949,0,0
137039,106.181,-772.122,0,0
137299,107.32,-770.321,0,0
137559,108.512,-768.78,0,0
137819,109.59,-767.627,0,0
138080,110.267,-766.649,0,0
138340.125,110.578,-765.564,0,0
138600.45,110.856,-764.331,0,0
138860.775,111.039,-763.164,0,0
139121.1,110.875,-761.94,0,0
139381.425,110.635,-760.388,0,0
139641.75,110.463,-758.637,0,0
139902.075,110.454,-756.848,0,0
140162.4,110.291,-755.079,0,0
140422.725,110.209,-753.271,0,0
140683.05,110.048,-751.379,0,0
140943.375,109.869,-749.375,0,0
141203.7,109.766,-747.246,0,0
141464.025,109.824,-745.041,0,0
141724.35,109.892,-743.008,0,0
141984.675,109.809,-740.951,0,0
142245.0,109.773,-738.545,0,0
142505.325,110.034,-736.207,0,0
142765.65,110.285,-734.019,0,0
143025.975,110.461,-731.762,0,0
143286.3,110.67,-729.454,0,0
143546.625,110.989,-727.004,0,0
143806.95,111.518,-724.722,0,0
144067.275,112.06,-722.602,0,0
144327.6,112.47,-720.608,0,0
144587.925,112.676,-718.512,0,0
144848.25,112.942,-716.06,0,0
145108.575,113.675,-713.577,0,0
145368.9,114.465,-711.48,0,0
145629.225,115.083,-709.594,0,0
145889.55,115.537,-707.509,0,0
146149.875,116.155,-705.337,0,0
146410.2,116.91,-703.344,0,0
146670.525,117.593,-701.388,0,0
146930.85,118.442,-699.52,0,0
147191.175,119.164,-698.066,0,0
147451.5,119.494,-696.541,0,0
147711.825,119.675,-694.899,0,0
147972.15,119.854,-693.174,0,0
148232.475,119.884,-691.213,0,0
148492.8,120.126,-689.069,0,0
148753.125,120.52,-687.051,0,0
149013.45,120.804,-685.056,0,0
149273.775,121.234,-682.905,0,0
149534.1,121.952,-680.943,0,0
149794.425,122.477,-679.37,0,0
150054.75,122.685,-677.843,0,0
150315.075,122.711,-676.131,0,0
150575.4,122.693,-674.368,0,0
150835.725,122.511,-672.566,0,0
151096.05,122.188,-670.52,0,0
151356.375,121.856,-668.208,0,0
151616.7,121.715,-665.8,0,0
151877.025,121.611,-663.383,0,0
152137.35,121.351,-660.912,0,0
152397.675,121.075,-658.193,0,0
152658.0,120.893,-655.183,0,0
152918.325,120.917,-651.951,0,0
153178.65,121.27,-648.677,0,0
153438.975,121.713,-645.514,0,0
153699.3,122.282,-642.237,0,0
153959.625,123.012,-638.993,0,0
154219.95,123.782,-635.765,0,0
154480,124.653,-632.433,0,0
154741,125.811,-629.011,0,0
155001,126.973,-625.819,0,0
155261,128.21,-622.535,0,0
155522,129.475,-619.133,0,0
155782,131.087,-615.576,0,0
156042,133.026,-612.157,0,0
156303,135.286,-608.817,0,0
156563,137.65,-605.757,0,0
156823,140.172,-602.87,0,0
157084,142.872,-600.165,0,0
157344,145.772,-597.818,0,0
157604,148.537,-595.974,0,0
157864,150.905,-594.402,0,0
158125,152.986,-592.68,0,0
158385,155.067,-590.869,0,0
158645,157.017,-589.279,0,0
158906,158.472,-587.569,0,0
159166,159.735,-585.079,0,0
159426,161.546,-582.057,0,0
159687,164.053,-579.085,0,0
159947,166.905,-576.135,0,0
160207,170.341,-573.499,0,0
160468,173.882,-571.286,0,0
160728,177.589,-569.211,0,0
160988,181.625,-567.538,0,0
161249,185.825,-566.381,0,0
161509,189.938,-565.805,0,0
161769,193.831,-565.567,0,0
162030,197.533,-565.711,0,0
162290,200.864,-566.276,0,0
162550,203.709,-566.911,0,0
162811,206.209,-567.558,0,0
163071,208.274,-568.001,0,0
163331,210.262,-568.128,0,0
163592,212.258,-568.009,0,0
163852,214.433,-567.687,0,0
164112,216.88,-567.322,0,0
164373,219.758,-567.094,0,0
164633,222.661,-567.383,0,0
164893,225.393,-567.794,0,0
165154,228.29,-568.244,0,0
165414,231.209,-569.157,0,0
165674,234.033,-570.255,0,0
165935,236.825,-571.638,0,0
166195,239.508,-573.505,0,0
166455,241.679,-575.814,0,0
166716,243.219,-578.046,0,0
166976,244.499,-579.971,0,0
167236,246.055,-581.719,0,0
167497,247.806,-584.085,0,0
167757,248.873,-587.017,0,0
168017,249.206,-589.888,0,0
168277,249.181,-592.494,0,0
168538,248.885,-594.998,0,0
168798,248.305,-597.379,0,0
169058,247.422,-599.744,0,0
169319,246.014,-601.98,0,0
169579,244.056,-603.827,0,0
169839,241.846,-605.037,0,0
170100,239.677,-605.643,0,0
170360.075,237.645,-605.713,0,0
170620.4,236.014,-605.448,0,0
170880.725,234.52,-605.351,0,0
171141.05,232.791,-604.996,0,0
171401.375,231.271,-604.046,0,0
171661.7,230.367,-603.014,0,0
171922.025,229.663,-602.326,0,0
172182.35,228.764,-601.557,0,0
172442.675,228.179,-600.474,0,0
172703.0,228.046,-599.605,0,0
172963.325,227.935,-599.25,0,0
173223.65,227.401,-599.098,0,0
173483.975,226.582,-598.739,0,0
173744.3,225.666,-598.091,0,0
174004.625,224.994,-597.186,0,0
174264.95,224.448,-596.239,0,0
174525.275,224.116,-595.32,0,0
174785.6,223.973,-594.489,0,0
175045.925,223.663,-593.819,0,0
175306.25,223.351,-593.202,0,0
175566.575,223.128,-592.551,0,0
175826.9,222.984,-591.972,0,0
176087.225,222.756,-591.586,0,0
176347.55,222.367,-591.379,0,0
176607.875,221.665,-591.02,0,0
176868.2,220.889,-590.372,0,0
177128.525,220.307,-589.557,0,0
177388.85,219.916,-588.784,0,0
177649.175,219.636,-588.128,0,0
177909.5,219.364,-587.742,0,0
178169.825,218.836,-587.547,0,0
178430.15,218.083,-587.252,0,0
178690.475,217.239,-586.883,0,0
178950.8,216.338,-586.541,0,0
179211.125,215.202,-586.106,0,0
179471.45,214.142,-585.487,0,0
179731.775,213.133,-585.098,0,0
179992.1,211.806,-584.998,0,0
180252.425,209.67,-584.436,0,0
180512.75,207.626,-583.209,0,0
180773.075,205.83,-581.699,0,0
181033.4,204.138,-580.149,0,0
181293.725,202.529,-578.388,0,0
181554.05,201.055,-576.614,0,0
181814.375,199.546,-574.836,0,0
182074.7,197.948,-572.922,0,0
182335.025,196.326,-570.62,0,0
182595.35,195.032,-568.128,0,0
182855.675,193.92,-565.723,0,0
183116.0,192.836,-563.304,0,0
183376.325,191.723,-560.785,0,0
183636.65,190.73,-558.163,0,0
183896.975,189.823,-555.444,0,0
184157.3,189.033,-552.702,0,0
184417.625,188.27,-549.908,0,0
184677.95,187.497,-546.973,0,0
184938.275,186.889,-543.843,0,0
185198.6,186.524,-540.624,0,0
185458.925,186.462,-537.545,0,0
185719.25,186.406,-534.554,0,0
185979.575,186.359,-531.522,0,0
186239.9,186.501,-528.429,0,0
186500,186.655,-525.601,0,0
186761,186.631,-522.636,0,0
187021,186.609,-519.51,0,0
187281,186.848,-516.106,0,0
187542,187.463,-512.721,0,0
187802,188.361,-509.581,0,0
188062,189.249,-506.633,0,0
188322,190.052,-503.837,0,0
188583,190.833,-501.153,0,0
188843,191.52,-498.496,0,0
189103,192.338,-495.687,0,0
189364,193.1,-493.026,0,0
189624,193.639,-490.404,0,0
189884,194.114,-487.512,0,0
190145,194.768,-484.493,0,0
190405,195.526,-481.476,0,0
190665,196.251,-478.343,0,0
190926,196.995,-475.185,0,0
191186,197.83,-471.971,0,0
191446,198.791,-468.721,0,0
191707,199.748,-465.294,0,0
191967,200.938,-461.778,0,0
192227,202.272,-458.272,0,0
192488,203.711,-454.779,0,0
192748,205.2,-451.273,0,0
193008,206.818,-447.598,0,0
193269,208.736,-444.074,0,0
193529,210.765,-440.559,0,0
193789,212.885,-437.147,0,0
194050,215.129,-433.768,0,0
194310,217.46,-430.593,0,0
194570,219.682,-427.327,0,0
194831,221.874,-424.201,0,0
195091,224.122,-420.82,0,0
195351,226.613,-417.375,0,0
195612,229.269,-413.966,0,0
195872,231.981,-410.588,0,0
196132,234.797,-407.177,0,0
196393,237.91,-403.792,0,0
196653,241.189,-400.673,0,0
196913,244.432,-397.667,0,0
197174,247.611,-394.651,0,0
197434,250.995,-391.653,0,0
197694,254.376,-388.75,0,0
197955,257.899,-385.889,0,0
198215,261.294,-383.121,0,0
198475,264.734,-380.337,0,0
198735,268.243,-377.473,0,0
198996,271.637,-374.652,0,0
199256,275.087,-371.609,0,0
199516,278.589,-368.406,0,0
199777,282.394,-365.024,0,0
200037,286.639,-361.441,0,0
200297,291.13,-358.106,0,0
200558,295.938,-354.928,0,0
200818,300.708,-351.788,0,0
201078,305.488,-348.585,0,0
201339,310.489,-345.264,0,0
201599,315.873,-341.76,0,0
201859,321.629,-338.234,0,0
202120,327.879,-334.745,0,0
202380.025,334.705,-331.365,0,0
202640.35,341.94,-328.282,0,0
202900.675,349.468,-325.581,0,0
203161.0,357.427,-323.091,0,0
203421.325,365.785,-320.767,0,0
203681.65,374.551,-318.84,0,0
203941.975,384.016,-317.305,0,0
204202.3,393.989,-316.569,0,0
204462.625,404.309,-316.742,0,0
204722.95,414.692,-317.801,0,0
204983.275,425.057,-319.595,0,0
205243.6,435.293,-322.503,0,0
205503.925,445.2,-325.884,0,0
205764.25,454.793,-330.063,0,0
206024.575,464.107,-334.857,0,0
206284.9,473.077,-340.32,0,0
206545.225,481.56,-346.541,0,0
206805.55,489.27,-353.519,0,0
207065.875,495.885,-360.745,0,0
207326.2,501.688,-367.766,0,0
207586.525,507.22,-374.556,0,0
207846.85,512.647,-381.448,0,0
208107.175,517.869,-388.672,0,0
208367.5,522.582,-396.335,0,0
208627.825,526.742,-404.301,0,0
208888.15,530.183,-412.391,0,0
209148.475,532.902,-420.452,0,0
209408.8,535.286,-428.618,0,0
209669.125,537.166,-437.083,0,0
209929.45,537.962,-445.759,0,0
210189.775,537.296,-454.259,0,0
210450.1,535.106,-461.99,0,0
210710.425,532.319,-468.202,0,0
210970.75,529.459,-473.13,0,0
211231.075,526.751,-477.209,0,0
211491.4,524.095,-480.427,0,0
211751.725,521.623,-482.724,0,0
212012.05,519.518,-484.168,0,0
212272.375,518.172,-484.665,0,0
212532.7,517.878,-484.674,0,0
212793.025,518.677,-484.665,0,0
213053.35,520.371,-485.013,0,0
213313.675,522.641,-486.168,0,0
213574.0,524.858,-487.579,0,0
213834.325,527.47,-489.199,0,0
214094.65,530.335,-491.512,0,0
214354.975,533.065,-494.027,0,0
214615.3,535.559,-496.928,0,0
214875.625,537.944,-500.23,0,0
215135.95,539.969,-503.189,0,0
215396.275,542.231,-506.064,0,0
215656.6,544.701,-509.273,0,0
215916.925,547.008,-512.759,0,0
216177.25,548.867,-516.368,0,0
216437.575,550.56,-519.837,0,0
216697.9,552.258,-523.14,0,0
216958.225,554.027,-526.208,0,0
217218.55,556.214,-529.435,0,0
217478.875,558.464,-532.907,0,0
217739.2,560.531,-536.791,0,0
217999.525,562.163,-540.736,0,0
218259.85,563.545,-544.328,0,0
218520,564.981,-547.451,0,0
218780,566.805,-550.331,0,0
219041,569.188,-553.238,0,0
219301,571.865,-556.5,0,0
219561,574.666,-559.964,0,0
219822,577.556,-563.365,0,0
220082,580.835,-567.061,0,0
220342,584.598,-571.257,0,0
220603,588.376,-575.907,0,0
220863,592.245,-581.092,0,0
221123,596.265,-586.787,0,0
221384,600.092,-593.214,0,0
221644,603.743,-600.042,0,0
221904,607.254,-607.484,0,0
222165,610.446,-615.648,0,0
222425,612.963,-624.372,0,0
222685,614.825,-633.477,0,0
222946,615.996,-642.684,0,0
223206,616.626,-652.018,0,0
223466,616.912,-661.449,0,0
223727,616.51,-671.036,0,0
223987,615.528,-680.67,0,0
224247,614.04,-690.095,0,0
224508,612.154,-699.665,0,0
224768,609.695,-708.786,0,0
225028,606.873,-717.849,0,0
225289,604.013,-727.001,0,0
225549,600.627,-736.022,0,0
225809,596.799,-744.853,0,0
226070,592.745,-753.95,0,0
226330,588.096,-763.167,0,0
226590,582.732,-772.133,0,0
226851,576.679,-780.599,0,0
227111,570.146,-788.566,0,0
227371,563.51,-796.23,0,0
227632,556.632,-803.627,0,0
227892,549.368,-810.889,0,0
228152,541.431,-817.879,0,0
228413,533.116,-824.295,0,0
228673,524.247,-830.162,0,0
228933,515.159,-835.174,0,0
229193,506.011,-839.596,0,0
229454,496.807,-843.424,0,0
229714,487.517,-846.614,0,0
229974,478.427,-849.233,0,0
230235,469.282,-851.153,0,0
230495,460.516,-852.632,0,0
230755,452.06,-853.686,0,0
231016,443.854,-854.356,0,0
231276,435.795,-854.713,0,0
231536,428.065,-854.895,0,0
231797,420.426,-854.751,0,0
232057,413.052,-854.304,0,0
232317,405.897,-853.477,0,0
232578,399.112,-852.396,0,0
232838,392.673,-851.01,0,0
233098,386.71,-849.572,0,0
233359,381.182,-848.048,0,0
233619,376.082,-846.639,0,0
233879,371.179,-845.237,0,0
234140,366.614,-844.051,0,0
234400,362.138,-843.094,0,0
234660.3,357.94,-842.336,0,0
234920.625,353.805,-841.925,0,0
235180.95,349.45,-841.435,0,0
235441.275,344.878,-841.466,0,0
235701.6,340,-841.284,0,0
235961.925,335.058,-841.018,0,0
236222.25,329.921,-840.295,0,0
236482.575,324.87,-839.545,0,0
236742.9,319.846,-838.667,0,0
237003.225,314.873,-837.486,0,0
237263.55,310.011,-836.273,0,0
237523.875,305.237,-834.901,0,0
237784.2,300.589,-833.483,0,0
238044.525,295.98,-831.905,0,0
238304.85,291.425,-830.326,0,0
238565.175,286.92,-828.586,0,0
238825.5,282.558,-826.62,0,0
239085.825,278.368,-824.758,0,0
239346.15,274.39,-822.714,0,0
239606.475,270.466,-820.579,0,0
239866.8,266.438,-818.692,0,0
240127.125,262.585,-816.839,0,0
240387.45,258.928,-814.5,0,0
240647.775,255.407,-812.392,0,0
240908.1,251.814,-810.255,0,0
241168.425,248.347,-807.97,0,0
241428.75,244.985,-805.829,0,0
241689.075,241.721,-803.615,0,0
241949.4,238.413,-801.376,0,0
242209.725,235.181,-799.015,0,0
242470.05,232.007,-796.639,0,0
242730.375,229.004,-794.096,0,0
242990.7,226.149,-791.532,0,0
243251.025,223.526,-789.087,0,0
243511.35,221.035,-786.597,0,0
243771.675,218.552,-784.218,0,0
244032.0,216.16,-782.007,0,0
244292.325,213.952,-779.666,0,0
244552.65,211.635,-777.628,0,0
244812.975,209.488,-775.686,0,0
245073.3,207.123,-773.526,0,0
245333.625,204.641,-771.472,0,0
245593.95,202.287,-769.417,0,0
245854.275,199.985,-767.325,0,0
246114.6,197.576,-765.164,0,0
246374.925,195.182,-763.152,0,0
246635.25,192.755,-760.971,0,0
246895.575,190.378,-758.613,0,0
247155.9,188.048,-756.176,0,0
247416.225,185.876,-753.712,0,0
247676.55,183.726,-751.194,0,0
247936.875,181.754,-748.706,0,0
248197.2,179.823,-746.268,0,0
248457.525,177.99,-743.752,0,0
248717.85,176.127,-741.337,0,0
248978.175,174.36,-738.781,0,0
249238.5,172.544,-736.26,0,0
249498.825,170.866,-733.816,0,0
249759.15,169.296,-731.321,0,0
250019.475,167.781,-728.703,0,0
250279.8,166.288,-726.226,0,0
250540,164.882,-723.724,0,0
250800,163.525,-721.261,0,0
251061,162.295,-718.766,0,0
251321,161.105,-716.324,0,0
251581,159.891,-714.018,0,0
251842,158.654,-711.721,0,0
252102,157.413,-709.424,0,0
252362,156.172,-707.019,0,0
252623,154.956,-704.633,0,0
252883,153.762,-702.258,0,0
253143,152.585,-699.792,0,0
253404,151.467,-697.234,0,0
253664,150.39,-694.612,0,0
253924,149.497,-691.954,0,0
254185,148.642,-689.353,0,0
254445,147.938,-686.659,0,0
254705,147.407,-684.107,0,0
254966,146.981,-681.594,0,0
255226,146.527,-679.169,0,0
255486,146.07,-676.788,0,0
255747,145.67,-674.448,0,0
256007,145.3,-672.328,0,0
256267,144.843,-670.088,0,0
256528,144.442,-667.807,0,0
256788,144.061,-665.472,0,0
257048,143.76,-663.204,0,0
257309,143.418,-660.988,0,0
257569,143.108,-658.716,0,0
257829,142.842,-656.371,0,0
258090,142.589,-654.011,0,0
258350,142.476,-651.596,0,0
258610,142.447,-649.165,0,0
258871,142.541,-646.735,0,0
259131,142.711,-644.288,0,0
259391,143.115,-641.952,0,0
259651,143.559,-639.649,0,0
259912,144.099,-637.287,0,0
260172,144.773,-635.196,0,0
260432,145.561,-633.148,0,0
260693,146.292,-631.144,0,0
260953,147.188,-629.334,0,0
261213,148.103,-627.65,0,0
261474,148.958,-626.082,0,0
261734,149.84,-624.545,0,0
261994,150.71,-623.068,0,0
262255,151.565,-621.664,0,0
262515,152.45,-620.283,0,0
262775,153.388,-618.956,0,0
263036,154.388,-617.71,0,0
263296,155.388,-616.501,0,0
263556,156.385,-615.408,0,0
263817,157.4,-614.323,0,0
264077,158.496,-613.333,0,0
264337,159.629,-612.347,0,0
264598,160.888,-611.524,0,0
264858,162.161,-610.791,0,0
265118,163.546,-610.276,0,0
265379,164.883,-609.81,0,0
265639,166.275,-609.572,0,0
265899,167.66,-609.557,0,0
266160,168.962,-609.761,0,0
266420,170.226,-610.139,0,0
266680.25,171.427,-610.709,0,0
266940.575,172.504,-611.523,0,0
267200.9,173.379,-612.557,0,0
267461.225,174.075,-613.8,0,0
267721.55,174.471,-615.189,0,0
267981.875,174.593,-616.679,0,0
268242.2,174.407,-618.273,0,0
268502.525,173.82,-619.946,0,0
268762.85,172.923,-621.437,0,0
269023.175,171.708,-622.833,0,0
269283.5,170.226,-624.079,0,0
269543.825,168.457,-625.103,0,0
269804.15,166.48,-625.879,0,0
270064.475,164.383,-626.439,0,0
270324.8,162.261,-626.599,0,0
270585.125,159.872,-626.609,0,0
270845.45,157.617,-626.253,0,0
271105.775,155.22,-625.669,0,0
271366.1,152.965,-624.752,0,0
271626.425,150.826,-623.574,0,0
271886.75,148.79,-622.189,0,0
272147.075,146.962,-620.566,0,0
272407.4,145.402,-618.856,0,0
272667.725,144.04,-617.041,0,0
272928.05,142.83,-615.202,0,0
273188.375,141.794,-613.349,0,0
273448.7,140.909,-611.525,0,0
273709.025,140.167,-609.676,0,0
273969.35,139.568,-607.853,0,0
274229.675,139.068,-606.11,0,0
274490.0,138.642,-604.33,0,0
274750.325,138.334,-602.676,0,0
275010.65,138.042,-601,0,0
275270.975,137.861,-599.411,0,0
275531.3,137.755,-597.839,0,0
275791.625,137.72,-596.215,0,0
276051.95,137.734,-594.755,0,0
276312.275,137.813,-593.335,0,0
276572.6,137.981,-591.937,0,0
276832.925,138.168,-590.625,0,0
277093.25,138.401,-589.353,0,0
277353.575,138.718,-588.152,0,0
277613.9,139.095,-587.036,0,0
277874.225,139.478,-586.063,0,0
278134.55,139.855,-585.188,0,0
278394.875,140.206,-584.423,0,0
278655.2,140.509,-583.746,0,0
278915.525,140.733,-583.141,0,0
279175.85,140.905,-582.575,0,0
279436.175,141.026,-582.028,0,0
279696.5,141.052,-581.556,0,0
279956.825,141.024,-581.138,0,0
280217.15,140.941,-580.617,0,0
280477.475,140.725,-579.935,0,0
280737.8,140.619,-579.293,0,0
280998.125,140.564,-578.652,0,0
281258.45,140.509,-578.061,0,0
281518.775,140.485,-577.551,0,0
281779.1,140.4,-577.087,0,0
282039.425,140.202,-576.705,0,0
282299.75,139.92,-576.31,0,0
282560,139.531,-575.852,0,0
282820,139.082,-575.362,0,0
283081,138.565,-574.816,0,0
283341,137.934,-574.106,0,0
283601,137.417,-573.192,0,0
283862,137.023,-572.222,0,0
284122,136.759,-571.319,0,0
284382,136.569,-570.368,0,0
284643,136.378,-569.544,0,0
284903,136.29,-568.761,0,0
285163,136.19,-568.07,0,0
285424,135.938,-567.403,0,0
285684,135.7,-566.794,0,0
285944,135.343,-566.242,0,0
286205,134.891,-565.631,0,0
286465,134.338,-564.892,0,0
286725,133.731,-564.141,0,0
286986,133.068,-563.247,0,0
287246,132.35,-562.19,0,0
287506,131.678,-560.946,0,0
287767,131.177,-559.54,0,0
288027,130.785,-558.007,0,0
288287,130.594,-556.418,0,0
288548,130.571,-554.858,0,0
288808,130.689,-553.313,0,0
289068,130.967,-551.819,0,0
289329,131.318,-550.35,0,0
289589,131.852,-548.983,0,0
289849,132.545,-547.745,0,0
290109,133.309,-546.674,0,0
290370,134.137,-545.823,0,0
290630,134.885,-545.187,0,0
290890,135.457,-544.775,0,0
291151,135.916,-544.34,0,0
291411,136.32,-543.948,0,0
291671,136.627,-543.567,0,0
291932,136.876,-543.287,0,0
292192,136.953,-543.04,0,0
292452,136.858,-542.751,0,0
292713,136.637,-542.373,0,0
292973,136.322,-541.846,0,0
293233,135.997,-541.205,0,0
293494,135.69,-540.42,0,0
293754,135.393,-539.566,0,0
294014,135.151,-538.608,0,0
294275,134.882,-537.561,0,0
294535,134.696,-536.42,0,0
294795,134.59,-535.202,0,0
295056,134.609,-533.89,0,0
295316,134.73,-532.49,0,0
295576,135.006,-531.086,0,0
295837,135.42,-529.738,0,0
296097,135.929,-528.377,0,0
296357,136.548,-527.077,0,0
296618,137.283,-525.839,0,0
296878,138.116,-524.681,0,0
297138,139.004,-523.627,0,0
297399,139.919,-522.658,0,0
297659,140.854,-521.749,0,0
297919,141.827,-520.916,0,0
298180,142.843,-520.138,0,0
298440,143.857,-519.474,0,0
298700.2,144.868,-518.835,0,0
298960.525,145.832,-518.385,0,0
299220.85,146.685,-517.838,0,0
299481.175,147.586,-517.384,0,0
299741.5,148.504,-516.84,0,0
300001.825,149.458,-516.245,0,0
300262.15,150.394,-515.644,0,0
300522.475,151.487,-515.088,0,0
300782.8,152.679,-514.539,0,0
301043.125,153.916,-514.114,0,0
301303.45,155.282,-513.78,0,0
301563.775,156.712,-513.479,0,0
301824.1,158.224,-513.444,0,0
302084.425,159.801,-513.494,0,0
302344.75,161.203,-513.869,0,0
302605.075,162.521,-514.293,0,0
302865.4,163.715,-514.882,0,0
303125.725,164.829,-515.389,0,0
303386.05,165.794,-516.003,0,0
303646.375,166.819,-516.565,0,0
303906.7,167.75,-517.081,0,0
304167.025,168.733,-517.702,0,0
304427.35,169.653,-518.428,0,0
304687.675,170.511,-519.215,0,0
304948.0,171.326,-520.078,0,0
305208.325,172.079,-520.92,0,0
305468.65,172.802,-521.575,0,0
305728.975,173.517,-522.485,0,0
305989.3,174.313,-523.357,0,0
306249.625,175.018,-524.332,0,0
306509.95,175.824,-525.3,0,0
306770.275,176.495,-526.46,0,0
307030.6,177.062,-527.778,0,0
307290.925,177.568,-529.185,0,0
307551.25,178.035,-530.627,0,0
307811.575,178.366,-532.213,0,0
308071.9,178.372,-533.675,0,0
308332.225,178.411,-535.145,0,0
308592.55,178.185,-536.817,0,0
308852.875,177.829,-538.249,0,0
309113.2,177.482,-539.642,0,0
309373.525,177.082,-540.928,0,0
309633.85,176.518,-542.233,0,0
309894.175,176.037,-543.474,0,0
310154.5,175.444,-544.714,0,0
310414.825,174.971,-545.95,0,0
310675.15,174.239,-547.132,0,0
310935.475,173.505,-548.425,0,0
311195.8,172.623,-549.613,0,0
311456.125,171.804,-550.866,0,0
311716.45,170.845,-551.951,0,0
311976.775,169.746,-553.069,0,0
312237.1,168.593,-554.068,0,0
312497.425,167.408,-554.967,0,0
312757.75,166.206,-555.826,0,0
313018.075,164.97,-556.579,0,0
313278.4,163.711,-557.359,0,0
313538.725,162.428,-557.9,0,0
313799.05,161.237,-558.514,0,0
314059.375,159.956,-558.99,0,0
314319.7,158.829,-559.53,0,0
314580,157.621,-560.036,0,0
314840,156.397,-560.532,0,0
315101,155.253,-560.953,0,0
315361,154.045,-561.492,0,0
315621,152.778,-561.983,0,0
315882,151.577,-562.458,0,0
316142,150.206,-563.033,0,0
316402,148.811,-563.469,0,0
316663,147.276,-563.959,0,0
316923,145.64,-564.382,0,0
317183,144.112,-564.567,0,0
317444,142.472,-564.756,0,0
317704,140.845,-564.907,0,0
317964,139.188,-564.959,0,0
318225,137.427,-565.015,0,0
318485,135.824,-564.946,0,0
318745,134.08,-564.674,0,0
319006,132.451,-564.482,0,0
319266,130.813,-564.124,0,0
319526,129.143,-563.84,0,0
319787,127.53,-563.424,0,0
320047,125.886,-563.001,0,0
320307,124.341,-562.382,0,0
320567,122.728,-561.839,0,0
320828,121.227,-561.181,0,0
321088,119.584,-560.469,0,0
321348,118.059,-559.69,0,0
321609,116.574,-558.754,0,0
321869,115.093,-557.822,0,0
322129,113.691,-556.855,0,0
322390,112.348,-555.76,0,0
322650,111.141,-554.575,0,0
322910,109.958,-553.374,0,0
323171,108.974,-552.126,0,0
323431,108.027,-550.758,0,0
323691,107.204,-549.443,0,0
323952,106.514,-548.232,0,0
324212,105.919,-547.181,0,0
324472,105.34,-545.93,0,0
324733,104.772,-544.885,0,0
324993,104.31,-543.785,0,0
325253,103.907,-542.738,0,0
325514,103.561,-541.72,0,0
325774,103.239,-540.754,0,0
326034,102.909,-539.82,0,0
326295,102.759,-538.923,0,0
326555,102.527,-538.131,0,0
326815,102.376,-537.436,0,0
327076,102.177,-536.75,0,0
327336,102.047,-536.168,0,0
327596,101.783,-535.612,0,0
327857,101.545,-535.137,0,0
328117,101.278,-534.685,0,0
328377,100.984,-534.302,0,0
328638,100.631,-533.808,0,0
328898,100.35,-533.443,0,0
329158,100.007,-533.147,0,0
329419,99.582,-532.728,0,0
329679,99.1632,-532.494,0,0
329939,98.6885,-532.096,0,0
330200,98.307,-531.752,0,0
330460,97.7497,-531.514,0,0
330720.15,97.2457,-531.129,0,0
330980.475,96.6054,-530.945,0,0
331240.8,96.0045,-530.585,0,0
331501.125,95.364,-530.253,0,0
331761.45,94.7666,-529.958,0,0
332021.775,93.9954,-529.584,0,0
332282.1,93.3424,-529.221,0,0
332542.425,92.6651,-528.787,0,0
332802.75,91.8926,-528.406,0,0
333063.075,91.1732,-527.99,0,0
333323.4,90.4912,-527.576,0,0
333583.725,89.6722,-527.062,0,0
333844.05,88.9024,-526.568,0,0
334104.375,88.0684,-526.079,0,0
334364.7,87.3152,-525.5,0,0
334625.025,86.5007,-524.918,0,0
334885.35,85.6894,-524.324,0,0
335145.675,84.8373,-523.73,0,0
335406.0,84.0256,-522.999,0,0
335666.325,83.3295,-522.279,0,0
335926.65,82.5853,-521.599,0,0
336186.975,81.8816,-520.816,0,0
336447.3,81.1759,-520.105,0,0
336707.625,80.4179,-519.332,0,0
336967.95,79.7965,-518.562,0,0
337228.275,79.0996,-517.71,0,0
337488.6,78.4524,-516.909,0,0
337748.925,77.8664,-516.117,0,0
338009.25,77.1422,-515.318,0,0
338269.575,76.6148,-514.49,0,0
338529.9,76.0447,-513.713,0,0
338790.225,75.5196,-512.805,0,0
339050.55,74.9591,-511.963,0,0
339310.875,74.4381,-511.198,0,0
339571.2,73.9401,-510.248,0,0
339831.525,73.3607,-509.529,0,0
340091.85,72.8921,-508.678,0,0
340352.175,72.3831,-507.757,0,0
340612.5,72.0124,-506.968,0,0
340872.825,71.5451,-506.19,0,0
341133.15,71.0872,-505.338,0,0
341393.475,70.6645,-504.526,0,0
341653.8,70.2845,-503.768,0,0
341914.125,69.9058,-503.012,0,0
342174.45,69.4572,-502.205,0,0
342434.775,68.9761,-501.476,0,0
342695.1,68.5258,-500.65,0,0
342955.425,68.1111,-499.904,0,0
343215.75,67.7012,-499.071,0,0
343476.075,67.2412,-498.299,0,0
343736.4,66.8689,-497.489,0,0
343996.725,66.4163,-496.662,0,0
344257.05,66.016,-495.93,0,0
344517.375,65.5463,-495.114,0,0
344777.7,65.0824,-494.333,0,0
345038.025,64.6484,-493.496,0,0
345298.35,64.1889,-492.632,0,0
345558.675,63.8338,-491.792,0,0
345819.0,63.384,-490.938,0,0
346079.325,62.9571,-490.145,0,0
346339.65,62.6061,-489.238,0,0
346599.975,62.1997,-488.297,0,0
346860,61.8048,-487.449,0,0
347121,61.4205,-486.519,0,0
347381,61.0732,-485.572,0,0
347641,60.7475,-484.625,0,0
347902,60.4228,-483.667,0,0
348162,60.1365,-482.676,0,0
348422,59.9346,-481.707,0,0
348683,59.7021,-480.769,0,0
348943,59.4849,-479.862,0,0
349203,59.2606,-478.913,0,0
349464,59.1334,-478.052,0,0
349724,58.9288,-477.134,0,0
349984,58.7595,-476.25,0,0
350245,58.5798,-475.359,0,0
350505,58.435,-474.493,0,0
350765,58.3149,-473.631,0,0
351025,58.149,-472.795,0,0
351286,57.9534,-471.916,0,0
351546,57.8318,-471.072,0,0
351806,57.7121,-470.164,0,0
352067,57.6197,-469.321,0,0
352327,57.511,-468.504,0,0
352587,57.4547,-467.703,0,0
352848,57.3776,-466.813,0,0
353108,57.2985,-466.053,0,0
353368,57.1972,-465.246,0,0
353629,57.0326,-464.386,0,0
353889,57.0109,-463.621,0,0
354149,56.9199,-462.854,0,0
354410,56.7961,-462.029,0,0
354670,56.6769,-461.239,0,0
354930,56.6459,-460.426,0,0
355191,56.605,-459.589,0,0
355451,56.4987,-458.822,0,0
355711,56.4531,-458.037,0,0
355972,56.3915,-457.238,0,0
356232,56.3623,-456.469,0,0
356492,56.2702,-455.653,0,0
356753,56.262,-454.867,0,0
357013,56.2321,-454.088,0,0
357273,56.1736,-453.339,0,0
357534,56.1037,-452.559,0,0
357794,56.129,-451.816,0,0
358054,56.0753,-451.027,0,0
358315,56.0177,-450.263,0,0
358575,55.9768,-449.469,0,0
358835,55.9527,-448.743,0,0
359096,55.9101,-447.894,0,0
359356,55.9141,-447.155,0,0
359616,55.9799,-446.321,0,0
359877,55.9505,-445.499,0,0
360137,55.9716,-444.805,0,0
360397,56.066,-444.019,0,0
360658,56.1197,-443.22,0,0
360918,56.1579,-442.526,0,0
361178,56.201,-441.77,0,0
361438,56.2467,-441.038,0,0
361699,56.3204,-440.382,0,0
361959,56.3191,-439.643,0,0
362219,56.3486,-438.922,0,0
362480,56.3825,-438.216,0,0
362740.1,56.4427,-437.469,0,0
363000.425,56.4611,-436.726,0,0
363260.75,56.4806,-435.957,0,0
363521.075,56.5655,-435.235,0,0
363781.4,56.6153,-434.482,0,0
364041.725,56.6819,-433.723,0,0
364302.05,56.783,-432.946,0,0
364562.375,56.8818,-432.204,0,0
364822.7,56.9994,-431.409,0,0
365083.025,57.1146,-430.748,0,0
365343.35,57.2381,-430,0,0
365603.675,57.3836,-429.331,0,0
365864.0,57.5401,-428.62,0,0
366124.325,57.6503,-427.958,0,0
366384.65,57.7518,-427.253,0,0
366644.975,57.82,-426.612,0,0
366905.3,57.8714,-425.901,0,0
367165.625,57.9186,-425.236,0,0
367425.95,57.922,-424.475,0,0
367686.275,57.9946,-423.734,0,0
367946.6,58.0706,-422.883,0,0
368206.925,58.1618,-422.043,0,0
368467.25,58.3273,-421.197,0,0
368727.575,58.4701,-420.292,0,0
368987.9,58.7031,-419.42,0,0
369248.225,58.9318,-418.539,0,0
369508.55,59.2421,-417.661,0,0
369768.875,59.5599,-416.756,0,0
370029.2,59.907,-415.923,0,0
370289.525,60.2855,-415.11,0,0
370549.85,60.6758,-414.266,0,0
370810.175,61.1427,-413.441,0,0
371070.5,61.6203,-412.634,0,0
371330.825,62.1315,-411.816,0,0
371591.15,62.7056,-411.039,0,0
371851.475,63.3434,-410.331,0,0
372111.8,63.9787,-409.669,0,0
372372.125,64.6699,-409.086,0,0
372632.45,65.3591,-408.502,0,0
372892.775,65.9708,-408.006,0,0
373153.1,66.6915,-407.571,0,0
373413.425,67.3475,-407.181,0,0
373673.75,68.0237,-406.821,0,0
373934.075,68.6596,-406.477,0,0
374194.4,69.2652,-406.182,0,0
374454.725,69.8465,-405.945,0,0
374715.05,70.422,-405.683,0,0
374975.375,70.9714,-405.465,0,0
375235.7,71.489,-405.245,0,0
375496.025,71.9791,-405.043,0,0
375756.35,72.4957,-404.872,0,0
376016.675,73.0038,-404.662,0,0
376277.0,73.5065,-404.573,0,0
376537.325,73.9715,-404.416,0,0
376797.65,74.4544,-404.251,0,0
377057.975,74.9285,-404.159,0,0
377318.3,75.3971,-404.062,0,0
377578.625,75.8479,-404.037,0,0
377838.95,76.2978,-404.011,0,0
378099.275,76.647,-404.021,0,0
378359.6,76.9902,-403.987,0,0
378619.925,77.3356,-403.998,0,0
378880,77.627,-403.996,0,0
379141,77.9079,-404.01,0,0
379401,78.1581,-403.985,0,0
379661,78.4355,-403.956,0,0
379922,78.7399,-403.883,0,0
380182,78.9131,-403.784,0,0
380442,79.2854,-403.69,0,0
380703,79.6529,-403.633,0,0
380963,80.0435,-403.623,0,0
381223,80.4818,-403.57,0,0
381483,80.9493,-403.681,0,0
381744,81.391,-403.803,0,0
382004,81.7882,-404.07,0,0
382264,82.1441,-404.292,0,0
382525,82.4673,-404.654,0,0
382785,82.7501,-405.034,0,0
383045,83.0019,-405.465,0,0
383306,83.1428,-405.96,0,0
383566,83.1996,-406.425,0,0
383826,83.1713,-406.945,0,0
384087,83.1294,-407.433,0,0
384347,82.9739,-407.892,0,0
384607,82.6852,-408.369,0,0
384868,82.4096,-408.745,0,0
385128,82.0244,-409.152,0,0
385388,81.6147,-409.416,0,0
385649,81.2034,-409.725,0,0
385909,80.7494,-409.935,0,0
386169,80.2271,-410.131,0,0
386430,79.7165,-410.258,0,0
386690,79.2314,-410.384,0,0
386950,78.6818,-410.429,0,0
387211,78.142,-410.423,0,0
387471,77.5957,-410.422,0,0
387731,77.0133,-410.357,0,0
387992,76.4499,-410.289,0,0
388252,75.8517,-410.082,0,0
388512,75.3436,-409.891,0,0
388773,74.8076,-409.638,0,0
389033,74.3363,-409.325,0,0
389293,73.8947,-409.017,0,0
389554,73.5002,-408.724,0,0
389814,73.0923,-408.388,0,0
390074,72.7023,-408.13,0,0
390335,72.3611,-407.807,0,0
390595,72.0079,-407.512,0,0
390855,71.704,-407.2,0,0
391116,71.3828,-406.907,0,0
391376,71.0737,-406.658,0,0
391636,70.7309,-406.421,0,0
391896,70.4343,-406.203,0,0
392157,70.047,-406.005,0,0
392417,69.6163,-405.775,0,0
392677,69.2504,-405.531,0,0
392938,68.7719,-405.3,0,0
393198,68.3106,-405.048,0,0
393458,67.7669,-404.766,0,0
393719,67.269,-404.452,0,0
393979,66.7309,-404.081,0,0
394239,66.2351,-403.641,0,0
394500,65.6565,-403.179,0,0
394760.05,65.1896,-402.694,0,0
395020.375,64.7022,-402.142,0,0
395280.7,64.2699,-401.647,0,0
395541.025,63.7801,-401.082,0,0
395801.35,63.3579,-400.516,0,0
396061.675,62.9168,-399.934,0,0
396322.0,62.5081,-399.326,0,0
396582.325,62.1379,-398.682,0,0
396842.65,61.7467,-398.086,0,0
397102.975,61.3769,-397.434,0,0
397363.3,61.0597,-396.758,0,0
397623.625,60.7371,-396.062,0,0
397883.95,60.4326,-395.383,0,0
398144.275,60.1368,-394.691,0,0
398404.6,59.9197,-393.952,0,0
398664.925,59.6669,-393.232,0,0
398925.25,59.4531,-392.525,0,0
399185.575,59.2696,-391.798,0,0
399445.9,59.1652,-391.085,0,0
399706.225,59.0009,-390.395,0,0
399966.55,58.9388,-389.7,0,0
400006.6,58.8741,-389.58,0,0