File: Accelerated corrosion test data/2025-10-23_06-00-04/sample_4.csv
Frequency (Hz),Impedance (ohms),Phase (Radians),Temperature (C),Humidity (%)
10000.0,263.202,-11953.3,0,0
10260.325,259.576,-11654.4,0,0
10520.65,249.896,-11367,0,0
10780.975,244.124,-11094.3,0,0
11041.3,239.249,-10833.9,0,0
11301.625,233.523,-10589.6,0,0
11561.95,228.497,-10352,0,0
11822.275,223.406,-10125.4,0,0
12082.6,219.046,-9908.49,0,0
12342.925,214.491,-9700.48,0,0
12603.25,213.822,-9499.89,0,0
12863.575,207.322,-9312.11,0,0
13123.9,205.724,-9132.83,0,0
13384.225,198.807,-8951.99,0,0
13644.55,196.131,-8779.58,0,0
13904.875,192.946,-8612.54,0,0
14165.2,194.72,-8447.51,0,0
14425.525,199.571,-8296.99,0,0
14685.8,194.946,-8186.22,0,0
14946.175,180.903,-8028.67,0,0
15206.5,179.603,-7881.82,0,0
15466.825,200.38,-7735.08,0,0
15727.15,184.088,-7636.29,0,0
15987.5,186.964,-7524.84,0,0
16247.8,170.536,-7391.14,0,0
16508.125,192.451,-7282.18,0,0
16768.45,182.663,-7164.05,0,0
17028.775,167.479,-7074.05,0,0
17289.1,159.42,-6959.84,0,0
17549.425,157.97,-6855.9,0,0
17809.75,154.966,-6754.79,0,0
18070.075,152.664,-6654.6,0,0
18330.4,153.767,-6559.63,0,0
18590.725,151.509,-6469.18,0,0
18851.05,148.971,-6384.1,0,0
19111.375,144.896,-6294.31,0,0
19371.7,142.201,-6208.4,0,0
19632.025,141.265,-6123.62,0,0
19892.35,144.331,-6043.26,0,0
20152.675,142.962,-5965.87,0,0
20413.0,140.173,-5890.64,0,0
20673.3,140.351,-5816.29,0,0
20933.65,136.95,-5741.1,0,0
21193.975,141.45,-5666.25,0,0
21454.3,152.649,-5600.49,0,0
21714.625,146.387,-5545,0,0
21974.9,151.653,-5473.72,0,0
22235.275,147.284,-5428.74,0,0
22495.6,134.745,-5369.4,0,0
22755.925,127.552,-5304.89,0,0
23016.25,124.44,-5242.04,0,0
23276.6,122.346,-5181.63,0,0
23536.9,120.142,-5123.94,0,0
23797.225,118.206,-5066.54,0,0
24057.55,116.618,-5010.49,0,0
24317.875,115.615,-4955.6,0,0
24578.2,113.422,-4901.58,0,0
24838.525,113.869,-4849.26,0,0
25098.85,115.222,-4797.84,0,0
25359.175,113.034,-4750.22,0,0
25619.5,111.688,-4700.73,0,0
25879.8,109.472,-4656.18,0,0
26140.1,107.781,-4607.17,0,0
26400.5,106.643,-4559.95,0,0
26660.8,106.145,-4513.53,0,0
26921.1,106.048,-4468.85,0,0
27181.4,105.018,-4424.22,0,0
27441.8,105.875,-4378.94,0,0
27702.1,109.915,-4334.09,0,0
27962.4,117.448,-4294.35,0,0
28222.7,119.223,-4266.13,0,0
28483.1,112.521,-4229.58,0,0
28743.4,109.752,-4188.85,0,0
29003.7,112.886,-4146.66,0,0
29264,118.452,-4116.87,0,0
29524.4,113.861,-4086.84,0,0
29784.7,107.467,-4053.36,0,0
30045,106.359,-4016.62,0,0
30305.3,101.034,-3982.77,0,0
30565.7,99.7441,-3946.37,0,0
30826,98.6646,-3912.5,0,0
31086.3,97.339,-3877.48,0,0
31346.6,98.7599,-3844.69,0,0
31607,97.5521,-3812.42,0,0
31867.3,96.9724,-3781.01,0,0
32127.6,100.449,-3750.44,0,0
32387.9,98.1362,-3724.86,0,0
32648.3,96.7426,-3694.75,0,0
32908.6,94.1593,-3667.32,0,0
33168.9,92.0079,-3637.86,0,0
33429.2,89.3877,-3608.61,0,0
33689.6,88.2383,-3579.41,0,0
33949.9,86.9378,-3550.8,0,0
34210.2,87.2791,-3523.32,0,0
34470.5,85.59,-3496.8,0,0
34730.9,84.49,-3469.54,0,0
34991.2,83.9234,-3442.39,0,0
35251.5,83.6588,-3416.78,0,0
35511.8,82.7407,-3391.29,0,0
35772.2,82.2525,-3365.78,0,0
36032.5,81.4436,-3341.18,0,0
36292.8,80.4388,-3316.06,0,0
36553.1,80.2975,-3291.24,0,0
36813.5,80.1753,-3267.22,0,0
37073.8,80.3087,-3244.32,0,0
37334.1,78.887,-3221.28,0,0
37594.4,78.6509,-3198.08,0,0
37854.8,78.3737,-3175.66,0,0
38115.1,77.59,-3153.85,0,0
38375.4,76.7143,-3130.88,0,0
38635.7,76.6481,-3108.61,0,0
38896.1,76.7495,-3087.29,0,0
39156.4,76.1555,-3066.09,0,0
39416.7,76.0188,-3044.64,0,0
39677,75.9785,-3023.18,0,0
39937.4,76.8214,-3001.92,0,0
40197.7,78.5872,-2981.79,0,0
40458,80.5368,-2963.71,0,0
40718.3,78.6994,-2945.77,0,0
40978.7,78.9112,-2925.4,0,0
41239,80.4961,-2907.26,0,0
41499.3,81.8111,-2891.23,0,0
41759.6,78.3776,-2873.77,0,0
42020,77.3286,-2855.82,0,0
42280.275,76.0765,-2836.35,0,0
42540.6,78.5513,-2818.83,0,0
42800.925,77.307,-2804.3,0,0
43061.25,74.7068,-2786.23,0,0
43321.575,75.2772,-2768.97,0,0
43581.9,74.1196,-2752.23,0,0
43842.225,73.4956,-2734.92,0,0
44102.55,73.2925,-2719.03,0,0
44362.875,71.7877,-2701.68,0,0
44623.2,72.4207,-2684.95,0,0
44883.525,71.6381,-2669.32,0,0
45143.85,71.0113,-2653.12,0,0
45404.175,70.5236,-2636.37,0,0
45664.5,71.4976,-2620.5,0,0
45924.825,72.0134,-2606.03,0,0
46185.15,70.6755,-2591.82,0,0
46445.475,70.0261,-2575.11,0,0
46705.8,70.9014,-2560.39,0,0
46966.125,71.1287,-2546.17,0,0
47226.45,71.5238,-2532.09,0,0
47486.775,71.0933,-2519.34,0,0
47747.1,69.6388,-2505.3,0,0
48007.425,69.0519,-2491.21,0,0
48267.75,68.0129,-2477.56,0,0
48528.075,67.4231,-2463.36,0,0
48788.4,66.5108,-2449.66,0,0
49048.725,65.7326,-2435.55,0,0
49309.05,65.8158,-2421.86,0,0
49569.375,64.8513,-2408.54,0,0
49829.7,64.4473,-2394.31,0,0
50090.025,64.292,-2381.22,0,0
50350.35,64.0809,-2367.75,0,0
50610.675,63.8526,-2354.68,0,0
50871.0,63.7075,-2341.73,0,0
51131.325,63.3846,-2328.57,0,0
51391.65,63.3427,-2315.68,0,0
51651.975,63.379,-2302.91,0,0
51912.3,63.1627,-2290.13,0,0
52172.625,63.7268,-2277.33,0,0
52432.95,63.795,-2265,0,0
52693.275,63.8937,-2252.18,0,0
52953.6,64.9022,-2239.4,0,0
53213.925,66.072,-2227.51,0,0
53474.25,67.0609,-2215.66,0,0
53734.575,68.2268,-2203.67,0,0
53994.9,70.9455,-2192.13,0,0
54255.225,73.102,-2182.3,0,0
54515.55,75.465,-2174.13,0,0
54775.875,75.495,-2166.51,0,0
55036.2,73.9846,-2158.01,0,0
55296.525,72.9578,-2148.06,0,0
55556.85,71.5108,-2139.33,0,0
55817.175,69.2827,-2129.02,0,0
56077.5,67.8899,-2118.3,0,0
56337.825,66.4007,-2107.49,0,0
56598.15,65.5323,-2096.04,0,0
56858.475,65.1703,-2084.79,0,0
57118.8,65.4123,-2073.99,0,0
57379.125,65.5073,-2063.48,0,0
57639.45,65.6957,-2053.07,0,0
57899.775,65.9072,-2042.71,0,0
58160.1,66.1243,-2032.33,0,0
58420.4,67.2846,-2022.02,0,0
58680.7,67.3288,-2013.51,0,0
58941.1,66.9908,-2002.73,0,0
59201.4,67.9096,-1991.96,0,0
59461.7,69.8508,-1981.77,0,0
59722,72.1536,-1972.55,0,0
59982.4,74.9014,-1965.05,0,0
60242.7,75.2334,-1957.63,0,0
60503,76.921,-1949.31,0,0
60763.3,79.9161,-1942.77,0,0
61023.7,80.0758,-1938.9,0,0
61284,78.1567,-1934.42,0,0
61544.3,73.6253,-1928.26,0,0
61804.6,71.0105,-1918.53,0,0
62065,69.4132,-1909.76,0,0
62325.3,67.9223,-1901.69,0,0
62585.6,65.2577,-1892.54,0,0
62845.9,64.5538,-1882.33,0,0
63106.3,64.0828,-1873.57,0,0
63366.6,63.2306,-1864,0,0
63626.9,63.6587,-1854.62,0,0
63887.2,63.5427,-1846.85,0,0
64147.6,62.6697,-1837.58,0,0
64407.9,63.1305,-1828.62,0,0
64668.2,63.6563,-1820.21,0,0
64928.5,64.0431,-1812.11,0,0
65188.9,64.221,-1804.24,0,0
65449.2,64.1573,-1796.01,0,0
65709.5,64.454,-1787.37,0,0
65969.8,65.8988,-1779.04,0,0
66230.2,66.7188,-1772.03,0,0
66490.5,67.2675,-1764.73,0,0
66750.8,67.7669,-1757.48,0,0
67011.1,68.2616,-1749.57,0,0
67271.5,69.5972,-1742.54,0,0
67531.8,70.5685,-1736.04,0,0
67792.1,71.4877,-1729.55,0,0
68052.4,72.5223,-1723.58,0,0
68312.8,73.3081,-1718,0,0
68573.1,73.8986,-1713.16,0,0
68833.4,73.3238,-1708.5,0,0
69093.7,71.8006,-1703.6,0,0
69354.1,69.5114,-1697.94,0,0
69614.4,67.467,-1690.78,0,0
69874.7,66.5103,-1683.82,0,0
70135,65.1999,-1677.11,0,0
70395.4,63.7763,-1669.62,0,0
70655.7,63.7102,-1661.36,0,0
70916,64.6591,-1655.2,0,0
71176.3,64.2478,-1649.19,0,0
71436.7,63.8701,-1643.05,0,0
71697,63.2561,-1637.49,0,0
71957.3,61.4627,-1631.72,0,0
72217.6,59.8371,-1624.66,0,0
72478,58.6337,-1617.3,0,0
72738.3,57.9505,-1610.18,0,0
72998.6,56.9266,-1602.91,0,0
73258.9,56.6535,-1595.06,0,0
73519.3,57.0599,-1587.75,0,0
73779.6,57.3485,-1580.91,0,0
74039.9,57.6178,-1574.35,0,0
74300.225,57.3755,-1567.53,0,0
74560.55,57.839,-1560.52,0,0
74820.875,58.4726,-1553.9,0,0
75081.2,59.2202,-1547.47,0,0
75341.525,59.8803,-1541.58,0,0
75601.85,60.2313,-1535.72,0,0
75862.175,60.5736,-1529.71,0,0
76122.5,61.1696,-1523.74,0,0
76382.825,61.6988,-1518.2,0,0
76643.15,61.8675,-1512.75,0,0
76903.475,61.6106,-1506.72,0,0
77163.8,62.7802,-1500.32,0,0
77424.125,63.9219,-1495.11,0,0
77684.45,64.9763,-1490.2,0,0
77944.775,65.5388,-1485.95,0,0
78205.1,65.4087,-1481.57,0,0
78465.425,65.3312,-1477.05,0,0
78725.75,64.7982,-1472.67,0,0
78986.075,63.9944,-1467.91,0,0
79246.4,63.049,-1462.87,0,0
79506.725,62.3019,-1457.4,0,0
79767.05,61.7269,-1452.02,0,0
80027.375,61.3007,-1446.55,0,0
80287.7,60.9957,-1441.06,0,0
80548.025,60.8266,-1435.52,0,0
80808.35,60.7556,-1430.17,0,0
81068.675,60.8053,-1425.04,0,0
81329.0,60.7419,-1420.02,0,0
81589.325,60.6415,-1415.03,0,0
81849.65,60.3848,-1410.08,0,0
82109.975,60.0511,-1405.05,0,0
82370.3,59.8535,-1400.01,0,0
82630.625,59.5979,-1395.06,0,0
82890.95,59.3746,-1390.17,0,0
83151.275,59.0219,-1385.25,0,0
83411.6,58.7135,-1380.22,0,0
83671.925,58.4033,-1375.22,0,0
83932.25,58.1746,-1370.28,0,0
84192.575,57.9987,-1365.26,0,0
84452.9,57.7552,-1360.48,0,0
84713.225,57.5441,-1355.46,0,0
84973.55,57.3736,-1350.66,0,0
85233.875,57.1563,-1345.78,0,0
85494.2,56.9341,-1341,0,0
85754.525,56.6113,-1336.21,0,0
86014.85,56.3559,-1331.32,0,0
86275.175,56.2955,-1326.5,0,0
86535.5,56.1444,-1321.76,0,0
86795.825,55.9669,-1317.21,0,0
87056.15,55.6936,-1312.47,0,0
87316.475,55.5341,-1307.79,0,0
87576.8,55.3132,-1303.27,0,0
87837.125,54.9803,-1298.71,0,0
88097.45,54.4802,-1294.15,0,0
88357.775,53.8906,-1289.2,0,0
88618.1,53.717,-1284.16,0,0
88878.425,53.6062,-1279.42,0,0
89138.75,53.3553,-1274.7,0,0
89399.075,53.2056,-1269.78,0,0
89659.4,53.2751,-1264.85,0,0
89919.725,53.3537,-1260.24,0,0
90180,53.3118,-1255.69,0,0
90440.4,53.2447,-1251.11,0,0
90700.7,53.1293,-1246.6,0,0
90961,53.079,-1241.94,0,0
91221.3,53.0475,-1237.26,0,0
91481.7,53.0738,-1232.58,0,0
91742,53.2186,-1227.91,0,0
92002.3,53.3631,-1223.3,0,0
92262.6,53.8036,-1218.84,0,0
92523,54.1345,-1214.54,0,0
92783.3,54.419,-1210.34,0,0
93043.6,54.7601,-1206.22,0,0
93303.9,54.8683,-1202.28,0,0
93564.3,55.0139,-1198.36,0,0
93824.6,54.9957,-1194.6,0,0
94084.9,54.5985,-1190.82,0,0
94345.2,54.0057,-1186.8,0,0
94605.6,53.5486,-1182.47,0,0
94865.9,53.1473,-1177.99,0,0
95126.2,52.8829,-1173.55,0,0
95386.5,52.6417,-1169,0,0
95646.9,52.6165,-1164.51,0,0
95907.2,52.6072,-1160.02,0,0
96167.5,52.6905,-1155.51,0,0
96427.8,52.8957,-1151.2,0,0
96688.2,52.9727,-1146.87,0,0
96948.5,52.9696,-1142.52,0,0
97208.8,53.0803,-1138.22,0,0
97469.1,53.2456,-1133.9,0,0
97729.5,53.3891,-1129.49,0,0
97989.8,53.6359,-1125.11,0,0
98250.1,53.9935,-1120.83,0,0
98510.4,54.2668,-1116.57,0,0
98770.8,54.6374,-1112.26,0,0
99031.1,55.0464,-1107.98,0,0
99291.4,55.5582,-1103.83,0,0
99551.7,56.0392,-1099.84,0,0
99812.1,56.406,-1095.74,0,0
100072,57.007,-1091.44,0,0
100333,57.8026,-1087.34,0,0
100593,58.8599,-1083.56,0,0
100853,59.6415,-1080.29,0,0
101114,60.1193,-1076.85,0,0
101374,60.8206,-1073.48,0,0
101634,61.4077,-1070.61,0,0
101895,61.3272,-1068.03,0,0
102155,60.5416,-1065.11,0,0
102415,59.5112,-1061.6,0,0
102676,58.6597,-1057.55,0,0
102936,57.9127,-1053.27,0,0
103196,57.3894,-1048.77,0,0
103457,56.9716,-1044,0,0
103717,57.1071,-1039.11,0,0
103977,57.3659,-1034.38,0,0
104238,57.753,-1029.64,0,0
104498,58.3888,-1024.88,0,0
104758,59.1533,-1020.14,0,0
105019,60.1772,-1015.56,0,0
105279,61.2245,-1011.22,0,0
105539,62.3874,-1006.81,0,0
105800,63.6978,-1002.58,0,0
106060,65.0428,-998.488,0,0
106320.175,66.3787,-994.54,0,0
106580.5,67.8,-990.705,0,0
106840.825,69.2364,-987.032,0,0
107101.15,70.5493,-983.471,0,0
107361.475,71.7005,-979.893,0,0
107621.8,72.8736,-976.145,0,0
107882.125,74.3405,-972.336,0,0
108142.45,75.8738,-968.721,0,0
108402.775,77.6001,-965.222,0,0
108663.1,79.2886,-961.881,0,0
108923.425,81.0588,-958.581,0,0
109183.75,83.0348,-955.493,0,0
109444.075,84.8748,-952.768,0,0
109704.4,86.6332,-950.196,0,0
109964.725,88.0629,-947.639,0,0
110225.05,89.6605,-945.042,0,0
110485.375,91.2246,-942.718,0,0
110745.7,92.7227,-940.508,0,0
111006.025,93.8945,-938.29,0,0
111266.35,95.1203,-936.14,0,0
111526.675,96.0752,-933.794,0,0
111787.0,97.4086,-931.402,0,0
112047.325,98.7252,-929.239,0,0
112307.65,99.8746,-927.179,0,0
112567.975,100.991,-925.217,0,0
112828.3,102.118,-923.207,0,0
113088.625,103.139,-921.426,0,0
113348.95,104.085,-919.597,0,0
113609.275,104.919,-917.802,0,0
113869.6,105.692,-916.059,0,0
114129.925,106.355,-914.344,0,0
114390.25,107.086,-912.57,0,0
114650.575,107.765,-910.924,0,0
114910.9,108.309,-909.362,0,0
115171.225,108.698,-907.782,0,0
115431.55,108.961,-906.227,0,0
115691.875,109.115,-904.563,0,0
115952.2,109.345,-902.864,0,0
116212.525,109.41,-901.263,0,0
116472.85,109.452,-899.533,0,0
116733.175,109.419,-897.785,0,0
116993.5,109.299,-896.023,0,0
117253.825,109.051,-894.213,0,0
117514.15,108.698,-892.122,0,0
117774.475,108.421,-889.976,0,0
118034.8,108.214,-887.539,0,0
118295.125,108.238,-885.17,0,0
118555.45,108.18,-882.795,0,0
118815.775,108.187,-880.128,0,0
119076.1,108.611,-877.286,0,0
119336.425,109.627,-874.45,0,0
119596.75,111.213,-872.34,0,0
119857.075,112.621,-870.86,0,0
120117.4,114.106,-870.019,0,0
120377.725,114.96,-869.964,0,0
120638.05,114.902,-870.273,0,0
120898.375,113.789,-870.251,0,0
121158.7,112.201,-869.462,0,0
121419.025,110.609,-868.154,0,0
121679.35,109.017,-866.44,0,0
121939.675,107.52,-864.371,0,0
122200.0,106.243,-862.119,0,0
122460,105.114,-859.666,0,0
122721,104.189,-857.215,0,0
122981,103.326,-854.816,0,0
123241,102.47,-852.333,0,0
123502,101.615,-849.737,0,0
123762,100.903,-847.099,0,0
124022,100.324,-844.391,0,0
124283,99.8914,-841.704,0,0
124543,99.5222,-839.135,0,0
124803,99.2378,-836.549,0,0
125064,98.9978,-834.023,0,0
125324,98.8932,-831.64,0,0
125584,98.7177,-829.393,0,0
125845,98.5661,-827.264,0,0
126105,98.247,-825.296,0,0
126365,97.7855,-823.329,0,0
126626,97.2723,-821.311,0,0
126886,96.6498,-819.363,0,0
127146,95.9268,-817.32,0,0
127406,95.3474,-815.384,0,0
127667,94.5567,-813.498,0,0
127927,93.5407,-811.813,0,0
128187,92.1664,-810,0,0
128448,90.6294,-807.843,0,0
128708,89.0168,-805.526,0,0
128968,87.2762,-802.962,0,0
129229,85.5895,-800.118,0,0
129489,83.9509,-797.042,0,0
129749,82.4288,-793.872,0,0
130010,80.9609,-790.469,0,0
130270,79.7148,-786.995,0,0
130530,78.5227,-783.512,0,0
130791,77.3845,-779.858,0,0
131051,76.4196,-776.131,0,0
131311,75.5577,-772.372,0,0
131572,74.7972,-768.621,0,0
131832,74.1045,-764.868,0,0
132092,73.494,-761.014,0,0
132353,73.0327,-757.17,0,0
132613,72.6329,-753.371,0,0
132873,72.3134,-749.561,0,0
133134,72.0146,-745.773,0,0
133394,71.7509,-741.971,0,0
133654,71.5368,-738.129,0,0
133915,71.5068,-734.24,0,0
134175,71.4658,-730.443,0,0
134435,71.4819,-726.674,0,0
134696,71.5172,-722.877,0,0
134956,71.6044,-719.049,0,0
135216,71.7982,-715.188,0,0
135477,72.1471,-711.442,0,0
135737,72.4446,-707.714,0,0
135997,72.7601,-704.051,0,0
136258,73.1063,-700.369,0,0
136518,73.5197,-696.677,0,0
136778,73.9915,-693.027,0,0
137039,74.5176,-689.531,0,0
137299,74.8473,-686.173,0,0
137559,75.0986,-682.635,0,0
137819,75.3673,-679.008,0,0
138080,75.6746,-675.307,0,0
138340.125,76.0662,-671.546,0,0
138600.45,76.4801,-667.792,0,0
138860.775,76.9261,-663.988,0,0
139121.1,77.4716,-660.092,0,0
139381.425,78.1585,-656.273,0,0
139641.75,78.8464,-652.479,0,0
139902.075,79.5591,-648.704,0,0
140162.4,80.2519,-644.812,0,0
140422.725,81.1011,-640.9,0,0
140683.05,82.053,-637.005,0,0
140943.375,83.091,-633.143,0,0
141203.7,84.191,-629.364,0,0
141464.025,85.3166,-625.61,0,0
141724.35,86.4891,-621.918,0,0
141984.675,87.6956,-618.25,0,0
142245.0,88.8551,-614.633,0,0
142505.325,90.0593,-610.959,0,0
142765.65,91.3348,-607.297,0,0
143025.975,92.6077,-603.66,0,0
143286.3,93.989,-600.154,0,0
143546.625,95.2642,-596.624,0,0
143806.95,96.5003,-593.062,0,0
144067.275,97.8073,-589.433,0,0
144327.6,99.1391,-585.809,0,0
144587.925,100.498,-582.204,0,0
144848.25,101.873,-578.501,0,0
145108.575,103.311,-574.788,0,0
145368.9,104.872,-571.051,0,0
145629.225,106.454,-567.309,0,0
145889.55,108.095,-563.562,0,0
146149.875,109.805,-559.833,0,0
146410.2,111.613,-556.078,0,0
146670.525,113.484,-552.387,0,0
146930.85,115.383,-548.726,0,0
147191.175,117.294,-545.055,0,0
147451.5,119.292,-541.332,0,0
147711.825,121.392,-537.615,0,0
147972.15,123.531,-533.96,0,0
148232.475,125.703,-530.286,0,0
148492.8,127.953,-526.58,0,0
148753.125,130.321,-522.889,0,0
149013.45,132.764,-519.307,0,0
149273.775,135.074,-515.761,0,0
149534.1,137.375,-511.943,0,0
149794.425,140.022,-507.955,0,0
150054.75,142.964,-504.098,0,0
150315.075,145.98,-500.42,0,0
150575.4,149.023,-496.713,0,0
150835.725,152.276,-493.002,0,0
151096.05,155.673,-489.369,0,0
151356.375,159.201,-485.78,0,0
151616.7,162.975,-482.268,0,0
151877.025,166.871,-478.846,0,0
152137.35,171.068,-475.452,0,0
152397.675,175.647,-472.422,0,0
152658.0,180.238,-469.867,0,0
152918.325,184.739,-467.483,0,0
153178.65,189.345,-465.224,0,0
153438.975,194.144,-463.32,0,0
153699.3,198.849,-461.859,0,0
153959.625,203.344,-460.668,0,0
154219.95,207.731,-459.734,0,0
154480,211.853,-459.092,0,0
154741,215.441,-458.558,0,0
155001,218.799,-457.647,0,0
155261,222.242,-456.461,0,0
155522,226.179,-455.413,0,0
155782,230.076,-454.862,0,0
156042,233.383,-454.493,0,0
156303,236.575,-453.799,0,0
156563,239.894,-453.127,0,0
156823,243.249,-452.449,0,0
157084,246.7,-452.042,0,0
157344,249.766,-451.892,0,0
157604,252.536,-451.444,0,0
157864,255.183,-450.665,0,0
158125,258.126,-449.615,0,0
158385,261.448,-448.553,0,0
158645,264.914,-447.634,0,0
158906,268.642,-446.811,0,0
159166,272.865,-446.373,0,0
159426,276.998,-446.59,0,0
159687,280.57,-447.375,0,0
159947,283.745,-447.906,0,0
160207,286.867,-448.491,0,0
160468,290.139,-449.157,0,0
160728,293.075,-450.099,0,0
160988,295.658,-451.065,0,0
161249,298.212,-452.122,0,0
161509,300.627,-453.039,0,0
161769,302.8,-454.033,0,0
162030,304.869,-455.134,0,0
162290,306.651,-456.482,0,0
162550,307.812,-457.681,0,0
162811,308.487,-458.571,0,0
163071,308.986,-458.934,0,0
163331,309.708,-458.958,0,0
163592,310.078,-458.798,0,0
163852,310.495,-457.955,0,0
164112,311.037,-456.772,0,0
164373,311.957,-455.038,0,0
164633,313.424,-453.207,0,0
164893,314.994,-451.482,0,0
165154,316.527,-449.354,0,0
165414,318.685,-446.507,0,0
165674,321.74,-443.617,0,0
165935,325.68,-440.984,0,0
166195,330.086,-438.944,0,0
166455,334.788,-437.004,0,0
166716,340.214,-435.392,0,0
166976,346.416,-434.648,0,0
167236,352.521,-435.026,0,0
167497,358.159,-435.873,0,0
167757,363.953,-436.927,0,0
168017,369.832,-438.606,0,0
168277,375.456,-440.827,0,0
168538,381.074,-443.048,0,0
168798,387.225,-445.981,0,0
169058,393.358,-450.018,0,0
169319,398.813,-455.173,0,0
169579,403.615,-460.615,0,0
169839,408.206,-466.77,0,0
170100,412.137,-473.735,0,0
170360.075,415.147,-481.482,0,0
170620.4,416.857,-489.777,0,0
170880.725,417.159,-497.95,0,0
171141.05,416.529,-505.79,0,0
171401.375,415.279,-513.305,0,0
171661.7,413.363,-520.942,0,0
171922.025,410.142,-528.585,0,0
172182.35,405.795,-535.472,0,0
172442.675,400.611,-541.642,0,0
172703.0,394.623,-546.894,0,0
172963.325,388.257,-551.025,0,0
173223.65,381.655,-554.415,0,0
173483.975,374.64,-556.886,0,0
173744.3,367.683,-558.218,0,0
174004.625,361.048,-558.807,0,0
174264.95,354.468,-558.914,0,0
174525.275,348.034,-558.305,0,0
174785.6,341.726,-557.238,0,0
175045.925,335.41,-555.56,0,0
175306.25,329.242,-552.973,0,0
175566.575,323.667,-549.59,0,0
175826.9,318.756,-545.85,0,0
176087.225,314.269,-541.825,0,0
176347.55,310.251,-537.385,0,0
176607.875,306.865,-532.774,0,0
176868.2,303.973,-528.025,0,0
177128.525,301.55,-523.292,0,0
177388.85,299.412,-518.556,0,0
177649.175,297.662,-513.758,0,0
177909.5,296.217,-508.989,0,0
178169.825,295.063,-504.15,0,0
178430.15,294.287,-499.265,0,0
178690.475,293.859,-494.484,0,0
178950.8,293.771,-489.775,0,0
179211.125,293.972,-485.207,0,0
179471.45,294.48,-480.788,0,0
179731.775,295.2,-476.724,0,0
179992.1,295.978,-472.813,0,0
180252.425,296.823,-469.135,0,0
180512.75,297.644,-465.589,0,0
180773.075,298.474,-462.062,0,0
181033.4,299.389,-458.689,0,0
181293.725,300.302,-455.463,0,0
181554.05,301.144,-452.289,0,0
181814.375,301.948,-449.177,0,0
182074.7,302.686,-446.081,0,0
182335.025,303.352,-443.042,0,0
182595.35,303.873,-439.944,0,0
182855.675,304.262,-436.76,0,0
183116.0,304.546,-433.319,0,0
183376.325,304.97,-429.585,0,0
183636.65,305.512,-425.767,0,0
183896.975,306.14,-421.81,0,0
184157.3,306.901,-417.692,0,0
184417.625,307.87,-413.489,0,0
184677.95,309.029,-409.261,0,0
184938.275,310.306,-405.041,0,0
185198.6,311.681,-400.822,0,0
185458.925,313.157,-396.622,0,0
185719.25,314.558,-392.416,0,0
185979.575,315.937,-388.094,0,0
186239.9,317.413,-383.526,0,0
186500,319.056,-378.86,0,0
186761,320.796,-374.091,0,0
187021,322.622,-369.058,0,0
187281,324.611,-363.932,0,0
187542,326.946,-358.638,0,0
187802,329.495,-353.361,0,0
188062,332.119,-347.901,0,0
188322,335.032,-342.454,0,0
188583,338.138,-336.847,0,0
188843,341.463,-331.133,0,0
189103,345.017,-325.368,0,0
189364,348.814,-319.397,0,0
189624,352.935,-313.318,0,0
189884,357.471,-307.178,0,0
190145,362.297,-301.057,0,0
190405,367.396,-294.969,0,0
190665,372.937,-288.805,0,0
190926,378.689,-282.636,0,0
191186,384.901,-276.355,0,0
191446,391.54,-270.145,0,0
191707,398.674,-264.109,0,0
191967,406.251,-258.101,0,0
192227,414.251,-252.253,0,0
192488,422.682,-246.648,0,0
192748,431.503,-241.344,0,0
193008,440.596,-236.303,0,0
193269,450.091,-231.461,0,0
193529,459.853,-226.84,0,0
193789,470.05,-222.565,0,0
194050,480.52,-218.629,0,0
194310,491.019,-214.998,0,0
194570,501.811,-211.386,0,0
194831,513.003,-207.986,0,0
195091,524.452,-204.854,0,0
195351,536.245,-201.929,0,0
195612,548.379,-199.082,0,0
195872,561.115,-196.471,0,0
196132,574.317,-194.21,0,0
196393,588.006,-192.388,0,0
196653,602.151,-190.912,0,0
196913,616.844,-189.875,0,0
197174,632.008,-189.41,0,0
197434,647.64,-189.452,0,0
197694,663.835,-190.034,0,0
197955,680.572,-191.292,0,0
198215,697.894,-193.147,0,0
198475,715.99,-195.75,0,0
198735,735.006,-199.465,0,0
198996,754.726,-204.839,0,0
199256,774.609,-211.919,0,0
199516,794.328,-220.617,0,0
199777,813.774,-230.829,0,0
200037,833.108,-242.365,0,0
200297,851.984,-255.707,0,0
200558,870.117,-270.473,0,0
200818,887.216,-286.654,0,0
201078,903.471,-304.147,0,0
201339,918.538,-323.053,0,0
201599,931.967,-343.029,0,0
201859,943.761,-363.583,0,0
202120,954.442,-384.182,0,0
202380.025,964.511,-405.297,0,0
202640.35,973.085,-426.992,0,0
202900.675,980.704,-449.2,0,0
203161.0,987.327,-472.084,0,0
203421.325,992.356,-496.028,0,0
203681.65,995.242,-520.292,0,0
203941.975,995.827,-544.062,0,0
204202.3,995.162,-566.476,0,0
204462.625,994.318,-588.332,0,0
204722.95,992.895,-610.481,0,0
204983.275,989.789,-632.703,0,0
205243.6,985.65,-654.423,0,0
205503.925,980.611,-675.449,0,0
205764.25,974.798,-696.146,0,0
206024.575,968.034,-716.503,0,0
206284.9,960.237,-736.678,0,0
206545.225,951.7,-756.694,0,0
206805.55,941.545,-776.282,0,0
207065.875,929.924,-795.466,0,0
207326.2,916.994,-813.179,0,0
207586.525,903.158,-829.485,0,0
207846.85,888.791,-844.516,0,0
208107.175,874.177,-858.559,0,0
208367.5,858.665,-871.798,0,0
208627.825,842.372,-883.638,0,0
208888.15,825.469,-893.695,0,0
209148.475,808.859,-902.223,0,0
209408.8,792.327,-909.335,0,0
209669.125,776.403,-915.124,0,0
209929.45,761.26,-919.92,0,0
210189.775,746.111,-924.035,0,0
210450.1,731.765,-927.272,0,0
210710.425,717.547,-929.811,0,0
210970.75,704.137,-931.449,0,0
211231.075,691.467,-932.715,0,0
211491.4,679.207,-933.631,0,0
211751.725,667.316,-934.219,0,0
212012.05,655.951,-934.433,0,0
212272.375,644.861,-934.342,0,0
212532.7,634.2,-933.971,0,0
212793.025,623.574,-933.41,0,0
213053.35,612.867,-931.844,0,0
213313.675,603.257,-929.273,0,0
213574.0,594.667,-926.465,0,0
213834.325,587.068,-923.628,0,0
214094.65,580.488,-920.789,0,0
214354.975,574.747,-918.481,0,0
214615.3,569.711,-916.689,0,0
214875.625,564.867,-915.614,0,0
215135.95,560.255,-915.393,0,0
215396.275,555.244,-915.565,0,0
215656.6,549.893,-915.903,0,0
215916.925,544.155,-916.219,0,0
216177.25,538.315,-916.408,0,0
216437.575,532.436,-916.198,0,0
216697.9,526.725,-915.8,0,0
216958.225,521.38,-915.38,0,0
217218.55,516.104,-915.099,0,0
217478.875,510.832,-914.979,0,0
217739.2,505.589,-914.72,0,0
217999.525,500.438,-914.315,0,0
218259.85,495.467,-914.038,0,0
218520,490.499,-913.948,0,0
218780,485.602,-913.913,0,0
219041,480.539,-913.987,0,0
219301,475.226,-914.009,0,0
219561,469.897,-913.906,0,0
219822,464.434,-913.773,0,0
220082,459.012,-913.324,0,0
220342,453.433,-912.782,0,0
220603,447.828,-911.799,0,0
220863,442.551,-910.69,0,0
221123,437.644,-909.399,0,0
221384,432.741,-908.293,0,0
221644,428.037,-907.048,0,0
221904,423.251,-905.805,0,0
222165,418.467,-904.36,0,0
222425,413.964,-902.607,0,0
222685,409.826,-900.776,0,0
222946,406.043,-898.987,0,0
223206,402.731,-897.508,0,0
223466,399.501,-896.136,0,0
223727,396.384,-895.266,0,0
223987,393.116,-894.674,0,0
224247,389.774,-894.134,0,0
224508,386.22,-893.902,0,0
224768,382.584,-893.554,0,0
225028,378.823,-893.419,0,0
225289,374.822,-893.288,0,0
225549,370.644,-893.139,0,0
225809,366.327,-892.817,0,0
226070,362.059,-892.486,0,0
226330,357.632,-892.153,0,0
226590,353.134,-891.734,0,0
226851,348.347,-891.32,0,0
227111,343.358,-890.806,0,0
227371,338.165,-889.762,0,0
227632,333.024,-888.545,0,0
227892,327.899,-887.233,0,0
228152,322.786,-885.614,0,0
228413,317.707,-883.763,0,0
228673,312.659,-881.636,0,0
228933,307.866,-879.404,0,0
229193,303.133,-876.938,0,0
229454,298.51,-874.379,0,0
229714,293.98,-871.558,0,0
229974,289.82,-868.8,0,0
230235,285.627,-865.894,0,0
230495,281.5,-863.145,0,0
230755,277.494,-859.917,0,0
231016,273.6,-856.792,0,0
231276,269.947,-853.446,0,0
231536,266.542,-850.066,0,0
231797,263.371,-846.771,0,0
232057,260.308,-843.494,0,0
232317,257.329,-840.285,0,0
232578,254.416,-837.115,0,0
232838,251.505,-833.88,0,0
233098,248.699,-830.631,0,0
233359,246.017,-827.355,0,0
233619,243.387,-823.967,0,0
233879,241.02,-820.489,0,0
234140,238.735,-817.066,0,0
234400,236.69,-813.894,0,0
234660.3,234.643,-810.597,0,0
234920.625,232.735,-807.525,0,0
235180.95,230.949,-804.43,0,0
235441.275,228.943,-801.492,0,0
235701.6,227.004,-798.408,0,0
235961.925,225.085,-795.349,0,0
236222.25,223.181,-792.189,0,0
236482.575,221.417,-788.971,0,0
236742.9,219.716,-785.729,0,0
237003.225,218.144,-782.39,0,0
237263.55,216.804,-779.016,0,0
237523.875,215.567,-775.759,0,0
237784.2,214.495,-772.549,0,0
238044.525,213.502,-769.385,0,0
238304.85,212.64,-766.292,0,0
238565.175,211.879,-763.297,0,0
238825.5,211.175,-760.41,0,0
239085.825,210.543,-757.553,0,0
239346.15,210.005,-754.835,0,0
239606.475,209.445,-752.089,0,0
239866.8,208.92,-749.45,0,0
240127.125,208.464,-746.85,0,0
240387.45,208.14,-744.457,0,0
240647.775,207.781,-741.933,0,0
240908.1,207.521,-739.67,0,0
241168.425,207.328,-737.5,0,0
241428.75,207.086,-735.459,0,0
241689.075,206.901,-733.493,0,0
241949.4,206.504,-731.589,0,0
242209.725,206.233,-729.782,0,0
242470.05,205.925,-728.02,0,0
242730.375,205.555,-726.381,0,0
242990.7,205.159,-724.818,0,0
243251.025,204.681,-723.336,0,0
243511.35,204.041,-721.941,0,0
243771.675,203.389,-720.555,0,0
244032.0,202.493,-719.083,0,0
244292.325,201.606,-717.657,0,0
244552.65,200.583,-716.158,0,0
244812.975,199.469,-714.55,0,0
245073.3,198.383,-712.836,0,0
245333.625,197.354,-711.137,0,0
245593.95,196.318,-709.317,0,0
245854.275,195.202,-707.501,0,0
246114.6,194.147,-705.605,0,0
246374.925,193.048,-703.631,0,0
246635.25,191.945,-701.502,0,0
246895.575,190.919,-699.401,0,0
247155.9,189.935,-697.097,0,0
247416.225,189.052,-694.788,0,0
247676.55,188.25,-692.486,0,0
247936.875,187.509,-690.149,0,0
248197.2,186.855,-687.714,0,0
248457.525,186.272,-685.378,0,0
248717.85,185.836,-682.883,0,0
248978.175,185.55,-680.531,0,0
249238.5,185.238,-678.219,0,0
249498.825,185.124,-675.918,0,0
249759.15,184.993,-673.776,0,0
250019.475,184.898,-671.68,0,0
250279.8,184.911,-669.709,0,0
250540,184.876,-667.857,0,0
250800,184.72,-666.18,0,0
251061,184.417,-664.496,0,0
251321,184.043,-662.812,0,0
251581,183.569,-661.081,0,0
251842,183.076,-659.236,0,0
252102,182.473,-657.346,0,0
252362,181.877,-655.353,0,0
252623,181.292,-653.217,0,0
252883,180.813,-651.038,0,0
253143,180.42,-648.782,0,0
253404,180.037,-646.647,0,0
253664,179.677,-644.542,0,0
253924,179.211,-642.377,0,0
254185,178.683,-640.179,0,0
254445,178.069,-637.839,0,0
254705,177.379,-635.267,0,0
254966,176.815,-632.532,0,0
255226,176.284,-629.694,0,0
255486,175.963,-626.591,0,0
255747,175.698,-623.417,0,0
256007,175.603,-620.079,0,0
256267,175.71,-616.662,0,0
256528,176.063,-613.192,0,0
256788,176.565,-609.716,0,0
257048,177.232,-606.204,0,0
257309,178.068,-602.573,0,0
257569,179.164,-598.928,0,0
257829,180.529,-595.392,0,0
258090,182.03,-591.767,0,0
258350,183.787,-588.136,0,0
258610,185.857,-584.542,0,0
258871,188.212,-581.075,0,0
259131,190.823,-577.817,0,0
259391,193.542,-574.755,0,0
259651,196.505,-571.746,0,0
259912,199.62,-568.997,0,0
260172,202.928,-566.426,0,0
260432,206.293,-563.999,0,0
260693,209.854,-561.721,0,0
260953,213.521,-559.687,0,0
261213,217.319,-557.827,0,0
261474,221.235,-556.168,0,0
261734,225.283,-554.641,0,0
261994,229.555,-553.258,0,0
262255,234.12,-552.16,0,0
262515,238.945,-551.494,0,0
262775,243.882,-551.442,0,0
263036,248.499,-551.803,0,0
263296,253.138,-552.733,0,0
263556,257.419,-554.048,0,0
263817,261.373,-555.592,0,0
264077,265.05,-557.238,0,0
264337,268.501,-558.865,0,0
264598,271.745,-560.626,0,0
264858,274.939,-562.33,0,0
265118,278.148,-563.986,0,0
265379,281.399,-565.767,0,0
265639,284.686,-567.664,0,0
265899,288.13,-569.77,0,0
266160,291.653,-572.225,0,0
266420,295.143,-575.109,0,0
266680.25,298.484,-578.326,0,0
266940.575,301.765,-581.984,0,0
267200.9,304.766,-586.137,0,0
267461.225,307.322,-590.757,0,0
267721.55,309.409,-595.621,0,0
267981.875,311.012,-600.766,0,0
268242.2,312.035,-606.143,0,0
268502.525,312.336,-611.547,0,0
268762.85,312.044,-616.821,0,0
269023.175,311.247,-621.929,0,0
269283.5,309.981,-626.699,0,0
269543.825,308.279,-631.23,0,0
269804.15,306.23,-635.278,0,0
270064.475,304.003,-638.932,0,0
270324.8,301.758,-642.3,0,0
270585.125,299.459,-645.14,0,0
270845.45,297.266,-647.721,0,0
271105.775,295.273,-650.318,0,0
271366.1,293.513,-653.066,0,0
271626.425,291.331,-655.99,0,0
271886.75,288.931,-658.739,0,0
272147.075,286.2,-661.258,0,0
272407.4,283.278,-663.483,0,0
272667.725,280.333,-665.252,0,0
272928.05,277.587,-666.715,0,0
273188.375,275.141,-668.115,0,0
273448.7,272.874,-669.61,0,0
273709.025,270.624,-671.332,0,0
273969.35,268.181,-673.137,0,0
274229.675,265.555,-675.008,0,0
274490.0,262.64,-676.893,0,0
274750.325,259.534,-678.544,0,0
275010.65,256.281,-680.148,0,0
275270.975,252.822,-681.637,0,0
275531.3,249.155,-683.003,0,0
275791.625,245.252,-684.137,0,0
276051.95,240.999,-685.012,0,0
276312.275,236.557,-685.47,0,0
276572.6,231.986,-685.456,0,0
276832.925,227.497,-684.974,0,0
277093.25,223.023,-684.068,0,0
277353.575,218.652,-682.728,0,0
277613.9,214.413,-680.924,0,0
277874.225,210.441,-678.599,0,0
278134.55,206.937,-675.726,0,0
278394.875,204.066,-672.648,0,0
278655.2,201.772,-669.522,0,0
278915.525,200.026,-666.399,0,0
279175.85,198.851,-663.43,0,0
279436.175,198.133,-660.854,0,0
279696.5,197.545,-658.694,0,0
279956.825,197.009,-657.05,0,0
280217.15,196.213,-655.494,0,0
280477.475,195.3,-653.908,0,0
280737.8,194.374,-652.336,0,0
280998.125,193.499,-650.723,0,0
281258.45,192.77,-649.026,0,0
281518.775,192.149,-647.301,0,0
281779.1,191.749,-645.63,0,0
282039.425,191.503,-644.088,0,0
282299.75,191.322,-642.674,0,0
282560,191.262,-641.335,0,0
282820,191.32,-640.16,0,0
283081,191.472,-639.216,0,0
283341,191.601,-638.5,0,0
283601,191.699,-637.943,0,0
283862,191.732,-637.621,0,0
284122,191.649,-637.469,0,0
284382,191.433,-637.421,0,0
284643,191.017,-637.612,0,0
284903,190.352,-637.79,0,0
285163,189.448,-638.114,0,0
285424,188.19,-638.368,0,0
285684,186.632,-638.553,0,0
285944,184.707,-638.443,0,0
286205,182.595,-637.83,0,0
286465,180.588,-636.828,0,0
286725,178.845,-635.491,0,0
286986,177.316,-634.145,0,0
287246,175.869,-632.755,0,0
287506,174.325,-631.35,0,0
287767,172.778,-629.72,0,0
288027,171.281,-627.76,0,0
288287,169.926,-625.574,0,0
288548,168.829,-623.146,0,0
288808,168.032,-620.57,0,0
289068,167.55,-617.911,0,0
289329,167.391,-615.226,0,0
289589,167.464,-612.541,0,0
289849,167.87,-609.854,0,0
290109,168.628,-607.212,0,0
290370,169.75,-604.669,0,0
290630,171.234,-602.329,0,0
290890,173.019,-600.315,0,0
291151,175.033,-598.618,0,0
291411,177.233,-597.282,0,0
291671,179.512,-596.317,0,0
291932,181.857,-595.698,0,0
292192,184.228,-595.468,0,0
292452,186.543,-595.602,0,0
292713,188.758,-596.083,0,0
292973,190.792,-596.878,0,0
293233,192.674,-597.917,0,0
293494,194.403,-599.206,0,0
293754,195.97,-600.721,0,0
294014,197.337,-602.529,0,0
294275,198.476,-604.602,0,0
294535,199.179,-606.906,0,0
294795,199.541,-609.347,0,0
295056,199.529,-611.871,0,0
295316,199.024,-614.345,0,0
295576,198.167,-616.713,0,0
295837,196.932,-618.943,0,0
296097,195.451,-620.9,0,0
296357,193.774,-622.632,0,0
296618,191.933,-624.092,0,0
296878,189.999,-625.322,0,0
297138,188.004,-626.33,0,0
297399,185.987,-627.091,0,0
297659,184.016,-627.674,0,0
297919,182.078,-628.115,0,0
298180,180.219,-628.457,0,0
298440,178.386,-628.719,0,0
298700.2,176.549,-628.909,0,0
298960.525,174.734,-629.037,0,0
299220.85,172.949,-629.121,0,0
299481.175,171.111,-629.133,0,0
299741.5,169.273,-629.043,0,0
300001.825,167.411,-628.913,0,0
300262.15,165.57,-628.628,0,0
300522.475,163.776,-628.25,0,0
300782.8,162.021,-627.817,0,0
301043.125,160.308,-627.287,0,0
301303.45,158.67,-626.691,0,0
301563.775,157.112,-626.109,0,0
301824.1,155.591,-625.489,0,0
302084.425,154.112,-624.89,0,0
302344.75,152.597,-624.28,0,0
302605.075,151.106,-623.639,0,0
302865.4,149.602,-623.006,0,0
303125.725,148.064,-622.293,0,0
303386.05,146.528,-621.508,0,0
303646.375,145.019,-620.65,0,0
303906.7,143.565,-619.715,0,0
304167.025,142.175,-618.719,0,0
304427.35,140.832,-617.71,0,0
304687.675,139.505,-616.694,0,0
304948.0,138.222,-615.666,0,0
305208.325,136.954,-614.551,0,0
305468.65,135.76,-613.438,0,0
305728.975,134.589,-612.245,0,0
305989.3,133.486,-611.043,0,0
306249.625,132.426,-609.768,0,0
306509.95,131.46,-608.478,0,0
306770.275,130.573,-607.179,0,0
307030.6,129.796,-605.855,0,0
307290.925,129.08,-604.548,0,0
307551.25,128.474,-603.273,0,0
307811.575,127.977,-602.064,0,0
308071.9,127.548,-600.949,0,0
308332.225,127.166,-599.946,0,0
308592.55,126.714,-599.041,0,0
308852.875,126.261,-598.199,0,0
309113.2,125.757,-597.406,0,0
309373.525,125.215,-596.648,0,0
309633.85,124.572,-595.906,0,0
309894.175,123.915,-595.117,0,0
310154.5,123.171,-594.332,0,0
310414.825,122.47,-593.463,0,0
310675.15,121.754,-592.556,0,0
310935.475,121.073,-591.626,0,0
311195.8,120.376,-590.648,0,0
311456.125,119.749,-589.636,0,0
311716.45,119.144,-588.617,0,0
311976.775,118.574,-587.589,0,0
312237.1,118.051,-586.547,0,0
312497.425,117.568,-585.515,0,0
312757.75,117.127,-584.442,0,0
313018.075,116.748,-583.405,0,0
313278.4,116.43,-582.403,0,0
313538.725,116.155,-581.432,0,0
313799.05,115.906,-580.516,0,0
314059.375,115.665,-579.649,0,0
314319.7,115.406,-578.846,0,0
314580,115.159,-578.044,0,0
314840,114.833,-577.319,0,0
315101,114.474,-576.502,0,0
315361,114.277,-575.786,0,0
315621,113.99,-574.931,0,0
315882,113.769,-574.258,0,0
316142,113.595,-573.458,0,0
316402,113.392,-572.793,0,0
316663,113.156,-572.197,0,0
316923,112.957,-571.506,0,0
317183,112.815,-570.968,0,0
317444,112.655,-570.378,0,0
317704,112.485,-569.795,0,0
317964,112.293,-569.363,0,0
318225,112.112,-568.806,0,0
318485,111.986,-568.429,0,0
318745,111.809,-568.171,0,0
319006,111.597,-567.898,0,0
319266,111.278,-567.677,0,0
319526,110.965,-567.516,0,0
319787,110.553,-567.467,0,0
320047,110.164,-567.343,0,0
320307,109.595,-567.319,0,0
320567,108.926,-567.363,0,0
320828,108.21,-567.209,0,0
321088,107.383,-567.137,0,0
321348,106.464,-566.971,0,0
321609,105.446,-566.83,0,0
321869,104.391,-566.657,0,0
322129,103.238,-566.422,0,0
322390,102.06,-566.074,0,0
322650,100.704,-565.603,0,0
322910,99.3656,-565.05,0,0
323171,98.0262,-564.276,0,0
323431,96.6742,-563.47,0,0
323691,95.4688,-562.386,0,0
323952,94.1988,-561.356,0,0
324212,93.071,-560.301,0,0
324472,92.1005,-559.13,0,0
324733,91.0565,-557.915,0,0
324993,90.1652,-556.785,0,0
325253,89.2916,-555.448,0,0
325514,88.4723,-554.266,0,0
325774,87.5505,-552.968,0,0
326034,86.8377,-551.672,0,0
326295,86.159,-550.392,0,0
326555,85.5623,-549.053,0,0
326815,84.8799,-547.792,0,0
327076,84.3642,-546.561,0,0
327336,83.8027,-545.28,0,0
327596,83.2312,-544.045,0,0
327857,82.6813,-542.756,0,0
328117,82.1208,-541.491,0,0
328377,81.5533,-540.145,0,0
328638,80.9523,-538.76,0,0
328898,80.5574,-537.266,0,0
329158,80.1771,-535.779,0,0
329419,79.9497,-534.256,0,0
329679,79.7208,-532.827,0,0
329939,79.6363,-531.256,0,0
330200,79.5748,-529.86,0,0
330460,79.5951,-528.471,0,0
330720.15,79.6875,-527.019,0,0
330980.475,79.9513,-525.795,0,0
331240.8,80.1097,-524.498,0,0
331501.125,80.4358,-523.374,0,0
331761.45,80.83,-522.297,0,0
332021.775,81.1665,-521.378,0,0
332282.1,81.5228,-520.562,0,0
332542.425,81.8299,-519.86,0,0
332802.75,82.0466,-519.236,0,0
333063.075,82.1465,-518.647,0,0
333323.4,82.2246,-518.06,0,0
333583.725,82.1887,-517.557,0,0
333844.05,82.1039,-517.049,0,0
334104.375,81.9248,-516.527,0,0
334364.7,81.7432,-515.96,0,0
334625.025,81.5088,-515.32,0,0
334885.35,81.0957,-514.766,0,0
335145.675,80.7974,-514.087,0,0
335406.0,80.4073,-513.397,0,0
335666.325,80.0454,-512.562,0,0
335926.65,79.6944,-511.822,0,0
336186.975,79.3035,-510.939,0,0
336447.3,78.9476,-510.131,0,0
336707.625,78.5213,-509.185,0,0
336967.95,78.2298,-508.227,0,0
337228.275,77.8226,-507.214,0,0
337488.6,77.4584,-506.292,0,0
337748.925,77.0957,-505.25,0,0
338009.25,76.7639,-504.191,0,0
338269.575,76.4697,-503.015,0,0
338529.9,76.1307,-501.8,0,0
338790.225,75.848,-500.515,0,0
339050.55,75.7384,-499.222,0,0
339310.875,75.6099,-497.907,0,0
339571.2,75.5057,-496.658,0,0
339831.525,75.6346,-495.281,0,0
340091.85,75.6874,-493.897,0,0
340352.175,75.8972,-492.508,0,0
340612.5,76.1008,-491.181,0,0
340872.825,76.4524,-489.872,0,0
341133.15,76.8891,-488.579,0,0
341393.475,77.3078,-487.375,0,0
341653.8,77.9135,-486.124,0,0
341914.125,78.5489,-484.973,0,0
342174.45,79.2271,-483.868,0,0
342434.775,79.9687,-482.938,0,0
342695.1,80.7911,-482.047,0,0
342955.425,81.5965,-481.293,0,0
343215.75,82.3766,-480.631,0,0
343476.075,83.1669,-480.036,0,0
343736.4,83.9528,-479.524,0,0
343996.725,84.7129,-479.051,0,0
344257.05,85.4071,-478.778,0,0
344517.375,86.1025,-478.529,0,0
344777.7,86.6906,-478.314,0,0
345038.025,87.2654,-478.159,0,0
345298.35,87.7743,-478.061,0,0
345558.675,88.2387,-478.012,0,0
345819.0,88.5596,-477.97,0,0
346079.325,88.8867,-477.929,0,0
346339.65,89.2067,-477.962,0,0
346599.975,89.3388,-478.008,0,0
346860,89.4631,-478.05,0,0
347121,89.4956,-478.062,0,0
347381,89.5233,-478.058,0,0
347641,89.4463,-478.022,0,0
347902,89.3459,-477.96,0,0
348162,89.177,-477.878,0,0
348422,89.0644,-477.754,0,0
348683,88.8971,-477.63,0,0
348943,88.7625,-477.464,0,0
349203,88.4786,-477.355,0,0
349464,88.2659,-477.246,0,0
349724,88.0272,-477.031,0,0
349984,87.6526,-476.853,0,0
350245,87.2773,-476.603,0,0
350505,86.8669,-476.357,0,0
350765,86.4788,-476.044,0,0
351025,86.0336,-475.658,0,0
351286,85.6182,-475.25,0,0
351546,85.1358,-474.786,0,0
351806,84.7595,-474.211,0,0
352067,84.3963,-473.647,0,0
352327,84.0455,-472.997,0,0
352587,83.7153,-472.346,0,0
352848,83.4322,-471.653,0,0
353108,83.2679,-470.982,0,0
353368,83.0649,-470.391,0,0
353629,82.855,-469.75,0,0
353889,82.7125,-469.172,0,0
354149,82.5274,-468.479,0,0
354410,82.4298,-467.953,0,0
354670,82.1938,-467.324,0,0
354930,82.0091,-466.758,0,0
355191,81.8291,-466.172,0,0
355451,81.656,-465.51,0,0
355711,81.4413,-464.815,0,0
355972,81.3405,-464.139,0,0
356232,81.2334,-463.458,0,0
356492,81.1704,-462.787,0,0
356753,81.154,-462.087,0,0
357013,81.1047,-461.502,0,0
357273,81.068,-460.925,0,0
357534,81.0517,-460.328,0,0
357794,81.0004,-459.848,0,0
358054,80.9605,-459.329,0,0
358315,80.8449,-458.861,0,0
358575,80.6844,-458.327,0,0
358835,80.5468,-457.812,0,0
359096,80.359,-457.268,0,0
359356,80.1366,-456.725,0,0
359616,79.9347,-456.113,0,0
359877,79.7104,-455.443,0,0
360137,79.4199,-454.84,0,0
360397,79.2151,-454.07,0,0
360658,79.031,-453.351,0,0
360918,78.8733,-452.527,0,0
361178,78.7725,-451.726,0,0
361438,78.6982,-450.869,0,0
361699,78.6749,-450.156,0,0
361959,78.6473,-449.389,0,0
362219,78.6826,-448.676,0,0
362480,78.6879,-447.91,0,0
362740.1,78.6494,-447.169,0,0
363000.425,78.6648,-446.414,0,0
363260.75,78.6209,-445.703,0,0
363521.075,78.7304,-444.932,0,0
363781.4,78.6894,-444.186,0,0
364041.725,78.6789,-443.43,0,0
364302.05,78.701,-442.702,0,0
364562.375,78.7674,-441.908,0,0
364822.7,78.7868,-441.166,0,0
365083.025,78.9117,-440.368,0,0
365343.35,78.9411,-439.569,0,0
365603.675,78.979,-438.809,0,0
365864.0,79.0745,-437.98,0,0
366124.325,79.1341,-437.197,0,0
366384.65,79.2041,-436.325,0,0
366644.975,79.2841,-435.449,0,0
366905.3,79.3392,-434.49,0,0
367165.625,79.52,-433.536,0,0
367425.95,79.7348,-432.517,0,0
367686.275,80.04,-431.517,0,0
367946.6,80.378,-430.49,0,0
368206.925,80.856,-429.502,0,0
368467.25,81.3157,-428.546,0,0
368727.575,81.8039,-427.597,0,0
368987.9,82.3094,-426.695,0,0
369248.225,82.8807,-425.732,0,0
369508.55,83.5145,-424.754,0,0
369768.875,84.2568,-423.793,0,0
370029.2,85.1061,-422.888,0,0
370289.525,86.0207,-422.054,0,0
370549.85,87.0118,-421.207,0,0
370810.175,88.1101,-420.527,0,0
371070.5,89.2644,-419.913,0,0
371330.825,90.4652,-419.432,0,0
371591.15,91.6962,-419.019,0,0
371851.475,92.9682,-418.817,0,0
372111.8,94.1975,-418.753,0,0
372372.125,95.5063,-418.817,0,0
372632.45,96.6332,-419.034,0,0
372892.775,97.7357,-419.334,0,0
373153.1,98.7167,-419.76,0,0
373413.425,99.6086,-420.285,0,0
373673.75,100.33,-420.904,0,0
373934.075,101.004,-421.508,0,0
374194.4,101.523,-422.136,0,0
374454.725,101.915,-422.783,0,0
374715.05,102.224,-423.383,0,0
374975.375,102.403,-423.974,0,0
375235.7,102.6,-424.453,0,0
375496.025,102.674,-424.999,0,0
375756.35,102.745,-425.436,0,0
376016.675,102.802,-425.911,0,0
376277.0,102.785,-426.332,0,0
376537.325,102.689,-426.697,0,0
376797.65,102.533,-427.027,0,0
377057.975,102.377,-427.296,0,0
377318.3,102.234,-427.555,0,0
377578.625,102.099,-427.665,0,0
377838.95,102.006,-427.839,0,0
378099.275,101.908,-427.958,0,0
378359.6,101.815,-428.098,0,0
378619.925,101.784,-428.162,0,0
378880,101.742,-428.384,0,0
379141,101.625,-428.562,0,0
379401,101.535,-428.754,0,0
379661,101.399,-429.05,0,0
379922,101.239,-429.254,0,0
380182,100.951,-429.4,0,0
380442,100.667,-429.556,0,0
380703,100.376,-429.634,0,0
380963,100.076,-429.622,0,0
381223,99.7994,-429.573,0,0
381483,99.6576,-429.428,0,0
381744,99.6096,-429.351,0,0
382004,99.5429,-429.239,0,0
382264,99.6558,-429.292,0,0
382525,99.5862,-429.338,0,0
382785,99.6708,-429.456,0,0
383045,99.6813,-429.653,0,0
383306,99.6999,-429.856,0,0
383566,99.7522,-430.142,0,0
383826,99.7494,-430.513,0,0
384087,99.7244,-430.974,0,0
384347,99.5975,-431.571,0,0
384607,99.3401,-432.224,0,0
384868,98.9114,-432.86,0,0
385128,98.3493,-433.54,0,0
385388,97.6258,-434.128,0,0
385649,96.7834,-434.65,0,0
385909,95.8753,-435.007,0,0
386169,94.789,-435.304,0,0
386430,93.6876,-435.534,0,0
386690,92.5835,-435.575,0,0
386950,91.4286,-435.465,0,0
387211,90.3069,-435.256,0,0
387471,89.1744,-434.881,0,0
387731,88.1662,-434.408,0,0
387992,87.1549,-433.801,0,0
388252,86.3915,-433.129,0,0
388512,85.5985,-432.403,0,0
388773,84.9778,-431.601,0,0
389033,84.4667,-430.801,0,0
389293,84.1092,-430.045,0,0
389554,83.8639,-429.289,0,0
389814,83.6518,-428.635,0,0
390074,83.5319,-428.08,0,0
390335,83.4628,-427.657,0,0
390595,83.3989,-427.274,0,0
390855,83.3646,-427.026,0,0
391116,83.2527,-426.872,0,0
391376,83.1359,-426.796,0,0
391636,82.9071,-426.757,0,0
391896,82.5522,-426.79,0,0
392157,82.1542,-426.792,0,0
392417,81.631,-426.763,0,0
392677,81.1065,-426.794,0,0
392938,80.4968,-426.727,0,0
393198,79.823,-426.658,0,0
393458,79.1057,-426.548,0,0
393719,78.3043,-426.384,0,0
393979,77.5071,-426.142,0,0
394239,76.6364,-425.835,0,0
394500,75.8137,-425.445,0,0
394760.05,74.9741,-424.985,0,0
395020.375,74.0815,-424.541,0,0
395280.7,73.2423,-423.966,0,0
395541.025,72.4401,-423.398,0,0
395801.35,71.6312,-422.746,0,0
396061.675,70.8651,-422.075,0,0
396322.0,70.1444,-421.353,0,0
396582.325,69.3712,-420.585,0,0
396842.65,68.6633,-419.815,0,0
397102.975,67.9947,-419.009,0,0
397363.3,67.2784,-418.144,0,0
397623.625,66.5831,-417.241,0,0
397883.95,66.0071,-416.325,0,0
398144.275,65.4251,-415.406,0,0
398404.6,64.8462,-414.423,0,0
398664.925,64.4019,-413.421,0,0
398925.25,63.902,-412.394,0,0
399185.575,63.441,-411.339,0,0
399445.9,63.0918,-410.302,0,0
399706.225,62.7254,-409.194,0,0
399966.55,62.4104,-408.173,0,0
400006.6,62.3801,-407.971,0,0