File: Accelerated corrosion test data/2025-10-23_06-00-04/sample_8.csv
Frequency (Hz),Impedance (ohms),Phase (Radians),Temperature (C),Humidity (%)
10000.0,301.853,-11010.8,0,0
10260.325,294.005,-10734.7,0,0
10520.65,287.205,-10472,0,0
10780.975,280.173,-10222.1,0,0
11041.3,274.199,-9983.55,0,0
11301.625,267.705,-9757.3,0,0
11561.95,262.465,-9539.58,0,0
11822.275,256.416,-9331.46,0,0
12082.6,255.186,-9130.98,0,0
12342.925,252.439,-8944.42,0,0
12603.25,247.457,-8762.27,0,0
12863.575,243.993,-8591.26,0,0
13123.9,235.551,-8425.51,0,0
13384.225,229.581,-8262.92,0,0
13644.55,226.728,-8107.92,0,0
13904.875,219.328,-7958.53,0,0
14165.2,214.298,-7813.7,0,0
14425.525,210.737,-7672.25,0,0
14685.8,206.518,-7537.81,0,0
14946.175,202.738,-7407.51,0,0
15206.5,199.63,-7282.01,0,0
15466.825,196.354,-7160.81,0,0
15727.15,193.304,-7043.56,0,0
15987.5,190.109,-6929.92,0,0
16247.8,187.07,-6820,0,0
16508.125,184.424,-6713.38,0,0
16768.45,181.096,-6609.84,0,0
17028.775,178.785,-6509.49,0,0
17289.1,175.912,-6411.63,0,0
17549.425,173.099,-6317.16,0,0
17809.75,171.938,-6224.92,0,0
18070.075,169.209,-6137.06,0,0
18330.4,166.637,-6049.1,0,0
18590.725,164.715,-5963.51,0,0
18851.05,166.438,-5880.34,0,0
19111.375,164.021,-5800.6,0,0
19371.7,166.086,-5725.33,0,0
19632.025,163.694,-5651.96,0,0
19892.35,159.564,-5580.98,0,0
20152.675,157.748,-5507.86,0,0
20413.0,157.956,-5437.94,0,0
20673.3,158.518,-5371.32,0,0
20933.65,154.333,-5308.71,0,0
21193.975,150.257,-5244.21,0,0
21454.3,148.013,-5180.02,0,0
21714.625,146.332,-5117.12,0,0
21974.9,145.856,-5056.78,0,0
22235.275,145.903,-4998.34,0,0
22495.6,144.673,-4941.67,0,0
22755.925,142.901,-4887.79,0,0
23016.25,141.928,-4833.23,0,0
23276.6,137.31,-4780.46,0,0
23536.9,134.997,-4727.1,0,0
23797.225,133.078,-4675.72,0,0
24057.55,130.974,-4624.39,0,0
24317.875,129.608,-4575.03,0,0
24578.2,127.652,-4526.42,0,0
24838.525,126.437,-4478.13,0,0
25098.85,125.351,-4432.01,0,0
25359.175,123.693,-4386.28,0,0
25619.5,123.264,-4341.4,0,0
25879.8,122.049,-4296.97,0,0
26140.1,121.057,-4254.75,0,0
26400.5,119.655,-4212.97,0,0
26660.8,118.301,-4171.14,0,0
26921.1,118.413,-4129.51,0,0
27181.4,118.105,-4090.67,0,0
27441.8,117.502,-4051.43,0,0
27702.1,116.492,-4014.22,0,0
27962.4,114.133,-3976.36,0,0
28222.7,115.418,-3939.74,0,0
28483.1,114.151,-3902.93,0,0
28743.4,113.856,-3867.64,0,0
29003.7,112.982,-3833.53,0,0
29264,113.187,-3799.47,0,0
29524.4,111.89,-3766.3,0,0
29784.7,111.542,-3732.71,0,0
30045,110.803,-3700.96,0,0
30305.3,110.006,-3669.92,0,0
30565.7,108.982,-3638.7,0,0
30826,107.678,-3607.89,0,0
31086.3,106.423,-3577.39,0,0
31346.6,105.719,-3546.64,0,0
31607,105.123,-3517.14,0,0
31867.3,104.697,-3487.84,0,0
32127.6,104.045,-3459.31,0,0
32387.9,103.79,-3430.52,0,0
32648.3,103.461,-3402.48,0,0
32908.6,103.825,-3375.19,0,0
33168.9,103.701,-3348.15,0,0
33429.2,104.025,-3321.61,0,0
33689.6,104.414,-3296.08,0,0
33949.9,104.648,-3270.53,0,0
34210.2,105.018,-3245.7,0,0
34470.5,105.12,-3221.19,0,0
34730.9,105.607,-3196.9,0,0
34991.2,106.812,-3173.4,0,0
35251.5,107.444,-3150.55,0,0
35511.8,108.32,-3128.64,0,0
35772.2,108.511,-3106.98,0,0
36032.5,109.116,-3086.56,0,0
36292.8,108.48,-3065.88,0,0
36553.1,108.105,-3046.13,0,0
36813.5,106.8,-3025.95,0,0
37073.8,106.393,-3006.29,0,0
37334.1,104.803,-2987.17,0,0
37594.4,102.591,-2968.08,0,0
37854.8,100.612,-2948.6,0,0
38115.1,98.3767,-2928.99,0,0
38375.4,96.185,-2909.47,0,0
38635.7,94.0824,-2889.76,0,0
38896.1,92.1038,-2870.19,0,0
39156.4,90.1192,-2850.25,0,0
39416.7,88.9681,-2830.58,0,0
39677,87.9079,-2811.39,0,0
39937.4,86.2896,-2792.04,0,0
40197.7,86.1698,-2772.7,0,0
40458,86.266,-2754.3,0,0
40718.3,85.7058,-2736.88,0,0
40978.7,84.7549,-2719.11,0,0
41239,84.0436,-2701.47,0,0
41499.3,83.3965,-2684.11,0,0
41759.6,82.9964,-2667.1,0,0
42020,82.1078,-2650.1,0,0
42280.275,81.2302,-2633.09,0,0
42540.6,81.2375,-2616.31,0,0
42800.925,80.9047,-2599.56,0,0
43061.25,81.1316,-2583.7,0,0
43321.575,81.2455,-2568.22,0,0
43581.9,81.055,-2553.43,0,0
43842.225,80.052,-2538.62,0,0
44102.55,78.844,-2523.7,0,0
44362.875,78.1351,-2508.48,0,0
44623.2,77.3,-2493.33,0,0
44883.525,76.6016,-2478.38,0,0
45143.85,75.9696,-2463.86,0,0
45404.175,75.3936,-2449.26,0,0
45664.5,74.7972,-2434.66,0,0
45924.825,74.2609,-2420.59,0,0
46185.15,73.7537,-2406.42,0,0
46445.475,73.264,-2392.34,0,0
46705.8,72.8123,-2378.5,0,0
46966.125,72.3571,-2364.81,0,0
47226.45,72.1253,-2351.22,0,0
47486.775,71.6334,-2338.05,0,0
47747.1,71.1708,-2324.73,0,0
48007.425,70.962,-2311.54,0,0
48267.75,70.7637,-2298.74,0,0
48528.075,70.2695,-2286.26,0,0
48788.4,69.7385,-2273.71,0,0
49048.725,69.2682,-2260.95,0,0
49309.05,68.9039,-2248.62,0,0
49569.375,68.5844,-2236.17,0,0
49829.7,68.0149,-2224.02,0,0
50090.025,67.7343,-2211.8,0,0
50350.35,67.6324,-2199.92,0,0
50610.675,67.2201,-2187.97,0,0
50871.0,66.8792,-2176.34,0,0
51131.325,66.6954,-2164.54,0,0
51391.65,66.4475,-2153.03,0,0
51651.975,66.4625,-2141.58,0,0
51912.3,66.3571,-2130.44,0,0
52172.625,66.1414,-2119.28,0,0
52432.95,66.0313,-2108.3,0,0
52693.275,66.0953,-2097.26,0,0
52953.6,66.1861,-2086.63,0,0
53213.925,66.3119,-2076.16,0,0
53474.25,66.5326,-2065.89,0,0
53734.575,66.5757,-2056.26,0,0
53994.9,65.6184,-2046.7,0,0
54255.225,65.0028,-2036.43,0,0
54515.55,64.5927,-2026.48,0,0
54775.875,64.0561,-2016.41,0,0
55036.2,63.4769,-2006.74,0,0
55296.525,62.8291,-1996.95,0,0
55556.85,62.1591,-1986.92,0,0
55817.175,61.6368,-1977.06,0,0
56077.5,61.0242,-1967.14,0,0
56337.825,60.68,-1957.29,0,0
56598.15,60.3116,-1947.59,0,0
56858.475,60.051,-1937.89,0,0
57118.8,59.9361,-1928.4,0,0
57379.125,59.6908,-1919.01,0,0
57639.45,59.5521,-1909.73,0,0
57899.775,59.2874,-1900.46,0,0
58160.1,59.3187,-1891.37,0,0
58420.4,59.0089,-1882.43,0,0
58680.7,58.9125,-1873.48,0,0
58941.1,58.7701,-1864.66,0,0
59201.4,58.7025,-1856.09,0,0
59461.7,58.3024,-1847.4,0,0
59722,57.9392,-1838.85,0,0
59982.4,57.657,-1830.12,0,0
60242.7,57.4241,-1821.45,0,0
60503,57.277,-1812.85,0,0
60763.3,57.2571,-1804.37,0,0
61023.7,57.2571,-1795.92,0,0
61284,57.2193,-1787.75,0,0
61544.3,57.2499,-1779.74,0,0
61804.6,56.9181,-1771.62,0,0
62065,56.7269,-1763.43,0,0
62325.3,56.6319,-1755.26,0,0
62585.6,56.774,-1747.25,0,0
62845.9,57.0656,-1739.35,0,0
63106.3,57.2426,-1731.54,0,0
63366.6,57.5061,-1724.19,0,0
63626.9,57.4602,-1716.81,0,0
63887.2,57.5092,-1709.43,0,0
64147.6,57.3384,-1702.27,0,0
64407.9,57.1591,-1694.92,0,0
64668.2,57.0475,-1687.78,0,0
64928.5,56.8985,-1680.52,0,0
65188.9,56.8404,-1673.52,0,0
65449.2,56.4668,-1666.36,0,0
65709.5,56.5173,-1659.14,0,0
65969.8,56.4782,-1652.31,0,0
66230.2,56.084,-1645.57,0,0
66490.5,55.5968,-1638.85,0,0
66750.8,55.1527,-1631.78,0,0
67011.1,54.9228,-1624.57,0,0
67271.5,54.8203,-1617.66,0,0
67531.8,54.6158,-1610.83,0,0
67792.1,54.3219,-1604.01,0,0
68052.4,54.1888,-1597.29,0,0
68312.8,53.8867,-1590.56,0,0
68573.1,53.6043,-1583.78,0,0
68833.4,53.5058,-1576.99,0,0
69093.7,53.435,-1570.14,0,0
69354.1,53.4263,-1563.51,0,0
69614.4,53.5634,-1556.87,0,0
69874.7,53.5094,-1550.51,0,0
70135,53.6996,-1544.19,0,0
70395.4,53.6126,-1537.96,0,0
70655.7,53.5409,-1531.68,0,0
70916,53.472,-1525.4,0,0
71176.3,53.4437,-1519.13,0,0
71436.7,53.5489,-1513.04,0,0
71697,53.6423,-1507.18,0,0
71957.3,53.4885,-1501.28,0,0
72217.6,53.4149,-1495.38,0,0
72478,53.1978,-1489.53,0,0
72738.3,52.8369,-1483.66,0,0
72998.6,52.6195,-1477.72,0,0
73258.9,52.4175,-1471.59,0,0
73519.3,52.4965,-1465.7,0,0
73779.6,52.3702,-1460.04,0,0
74039.9,52.1928,-1454.3,0,0
74300.225,52.0457,-1448.61,0,0
74560.55,51.8739,-1442.83,0,0
74820.875,51.6678,-1436.95,0,0
75081.2,51.663,-1431.29,0,0
75341.525,51.5269,-1425.61,0,0
75601.85,51.441,-1419.98,0,0
75862.175,51.4275,-1414.32,0,0
76122.5,51.4125,-1408.73,0,0
76382.825,51.3913,-1403.25,0,0
76643.15,51.4161,-1397.91,0,0
76903.475,51.3003,-1392.54,0,0
77163.8,51.1204,-1387.15,0,0
77424.125,51.0275,-1381.83,0,0
77684.45,50.9307,-1376.43,0,0
77944.775,50.8448,-1371.16,0,0
78205.1,50.6915,-1365.92,0,0
78465.425,50.4589,-1360.65,0,0
78725.75,50.3237,-1355.28,0,0
78986.075,50.266,-1350.06,0,0
79246.4,50.0754,-1344.83,0,0
79506.725,49.9434,-1339.55,0,0
79767.05,49.8665,-1334.28,0,0
80027.375,49.6797,-1329.03,0,0
80287.7,49.6894,-1323.78,0,0
80548.025,49.6552,-1318.55,0,0
80808.35,49.6325,-1313.39,0,0
81068.675,49.7305,-1308.09,0,0
81329.0,49.8326,-1302.95,0,0
81589.325,49.979,-1297.9,0,0
81849.65,50.1079,-1292.86,0,0
82109.975,50.2445,-1287.95,0,0
82370.3,50.2962,-1282.89,0,0
82630.625,50.4953,-1277.84,0,0
82890.95,50.8373,-1272.95,0,0
83151.275,51.1069,-1268.27,0,0
83411.6,51.165,-1263.49,0,0
83671.925,51.4531,-1258.71,0,0
83932.25,51.9412,-1254.07,0,0
84192.575,52.1566,-1249.76,0,0
84452.9,52.3301,-1245.41,0,0
84713.225,52.2284,-1241.32,0,0
84973.55,51.7262,-1236.96,0,0
85233.875,51.3915,-1232.21,0,0
85494.2,51.2643,-1227.38,0,0
85754.525,51.1293,-1222.68,0,0
86014.85,51.0718,-1217.84,0,0
86275.175,51.1085,-1213.12,0,0
86535.5,51.1767,-1208.39,0,0
86795.825,51.3693,-1203.68,0,0
87056.15,51.6024,-1199.09,0,0
87316.475,51.7339,-1194.67,0,0
87576.8,51.7888,-1190.18,0,0
87837.125,51.8711,-1185.5,0,0
88097.45,52.0521,-1180.97,0,0
88357.775,52.1345,-1176.5,0,0
88618.1,52.2737,-1171.96,0,0
88878.425,52.4517,-1167.47,0,0
89138.75,52.547,-1162.79,0,0
89399.075,52.7352,-1158.18,0,0
89659.4,53.0096,-1153.55,0,0
89919.725,53.4249,-1149,0,0
90180,53.9457,-1144.3,0,0
90440.4,54.4867,-1139.72,0,0
90700.7,55.3306,-1135.17,0,0
90961,56.2456,-1130.87,0,0
91221.3,57.2828,-1126.81,0,0
91481.7,58.0839,-1123.14,0,0
91742,58.58,-1119.53,0,0
92002.3,58.8416,-1115.79,0,0
92262.6,58.9793,-1111.89,0,0
92523,59.0863,-1107.88,0,0
92783.3,59.4599,-1103.62,0,0
93043.6,60.1516,-1099.55,0,0
93303.9,60.6423,-1095.69,0,0
93564.3,61.2906,-1091.82,0,0
93824.6,61.857,-1087.97,0,0
94084.9,62.4517,-1084.24,0,0
94345.2,62.9045,-1080.84,0,0
94605.6,63.0396,-1077.1,0,0
94865.9,63.3401,-1073.33,0,0
95126.2,63.5464,-1069.47,0,0
95386.5,63.9558,-1065.48,0,0
95646.9,64.3441,-1061.72,0,0
95907.2,64.5846,-1057.71,0,0
96167.5,65.1458,-1053.74,0,0
96427.8,65.7325,-1049.6,0,0
96688.2,66.5914,-1045.72,0,0
96948.5,67.3343,-1042,0,0
97208.8,68.0195,-1038.21,0,0
97469.1,68.8192,-1034.36,0,0
97729.5,69.7925,-1030.53,0,0
97989.8,70.933,-1026.83,0,0
98250.1,72.0546,-1023.35,0,0
98510.4,73.2304,-1019.94,0,0
98770.8,74.4814,-1016.72,0,0
99031.1,75.527,-1013.8,0,0
99291.4,76.3306,-1010.9,0,0
99551.7,77.1165,-1007.76,0,0
99812.1,77.9508,-1004.64,0,0
100072,78.9974,-1001.4,0,0
100333,80.2298,-998.435,0,0
100593,81.3316,-995.728,0,0
100853,82.488,-993.053,0,0
101114,83.5696,-990.644,0,0
101374,84.4455,-988.361,0,0
101634,85.3493,-986.102,0,0
101895,85.9469,-984.068,0,0
102155,86.3781,-981.968,0,0
102415,86.6958,-979.881,0,0
102676,86.8274,-977.67,0,0
102936,86.9442,-975.353,0,0
103196,87.0712,-973.014,0,0
103457,87.1972,-970.632,0,0
103717,87.407,-968.317,0,0
103977,87.48,-966.178,0,0
104238,87.3223,-964.035,0,0
104498,86.9917,-961.856,0,0
104758,86.4588,-959.399,0,0
105019,85.9441,-956.756,0,0
105279,85.556,-953.83,0,0
105539,85.3851,-950.905,0,0
105800,85.2279,-948.087,0,0
106060,85.1356,-945.138,0,0
106320.175,85.1305,-942.231,0,0
106580.5,85.2893,-939.466,0,0
106840.825,85.2715,-936.831,0,0
107101.15,85.212,-934.14,0,0
107361.475,85.1987,-931.472,0,0
107621.8,84.9273,-928.865,0,0
107882.125,84.5478,-925.949,0,0
108142.45,84.4187,-922.81,0,0
108402.775,84.4115,-919.675,0,0
108663.1,84.6983,-916.521,0,0
108923.425,85.0634,-913.54,0,0
109183.75,85.5143,-910.684,0,0
109444.075,85.9223,-908.011,0,0
109704.4,86.327,-905.383,0,0
109964.725,86.6216,-902.875,0,0
110225.05,86.8331,-900.396,0,0
110485.375,87.0588,-897.861,0,0
110745.7,87.2557,-895.453,0,0
111006.025,87.3346,-893.073,0,0
111266.35,87.3941,-890.382,0,0
111526.675,87.6016,-887.778,0,0
111787.0,87.8546,-885.34,0,0
112047.325,87.948,-882.949,0,0
112307.65,88.0855,-880.494,0,0
112567.975,88.2488,-878.156,0,0
112828.3,88.3207,-875.827,0,0
113088.625,88.3626,-873.457,0,0
113348.95,88.307,-871.154,0,0
113609.275,88.2225,-868.721,0,0
113869.6,88.2146,-866.284,0,0
114129.925,88.1773,-863.883,0,0
114390.25,88.2662,-861.407,0,0
114650.575,88.2514,-859.097,0,0
114910.9,88.2282,-856.721,0,0
115171.225,88.2227,-854.363,0,0
115431.55,88.183,-852.21,0,0
115691.875,87.9628,-850,0,0
115952.2,87.5315,-847.657,0,0
116212.525,87.2532,-845.145,0,0
116472.85,86.9373,-842.6,0,0
116733.175,86.6486,-839.892,0,0
116993.5,86.5741,-837.114,0,0
117253.825,86.6498,-834.502,0,0
117514.15,86.672,-831.975,0,0
117774.475,86.778,-829.487,0,0
118034.8,86.7697,-827.131,0,0
118295.125,86.6762,-824.715,0,0
118555.45,86.6036,-822.198,0,0
118815.775,86.6324,-819.778,0,0
119076.1,86.5915,-817.43,0,0
119336.425,86.3918,-815.104,0,0
119596.75,86.2424,-812.66,0,0
119857.075,86.1263,-810.226,0,0
120117.4,85.8991,-807.766,0,0
120377.725,85.6538,-805.283,0,0
120638.05,85.4838,-802.639,0,0
120898.375,85.4827,-799.962,0,0
121158.7,85.5756,-797.454,0,0
121419.025,85.6309,-795.071,0,0
121679.35,85.5868,-792.666,0,0
121939.675,85.5316,-790.286,0,0
122200.0,85.4705,-787.853,0,0
122460,85.482,-785.528,0,0
122721,85.3989,-783.22,0,0
122981,85.244,-780.969,0,0
123241,85.0244,-778.65,0,0
123502,84.7543,-776.295,0,0
123762,84.4617,-773.857,0,0
124022,84.231,-771.388,0,0
124283,84.0048,-768.935,0,0
124543,83.7351,-766.508,0,0
124803,83.4315,-764.006,0,0
125064,83.1679,-761.462,0,0
125324,82.8348,-758.916,0,0
125584,82.5301,-756.383,0,0
125845,82.1933,-753.767,0,0
126105,81.8841,-751.073,0,0
126365,81.5817,-748.36,0,0
126626,81.3864,-745.581,0,0
126886,81.1907,-742.855,0,0
127146,81.0869,-740.141,0,0
127406,80.8718,-737.393,0,0
127667,80.7327,-734.487,0,0
127927,80.655,-731.635,0,0
128187,80.6281,-728.857,0,0
128448,80.6436,-726.077,0,0
128708,80.6225,-723.34,0,0
128968,80.583,-720.586,0,0
129229,80.5507,-717.794,0,0
129489,80.4915,-715.033,0,0
129749,80.3894,-712.191,0,0
130010,80.3713,-709.197,0,0
130270,80.4753,-706.101,0,0
130530,80.7842,-703.121,0,0
130791,81.2708,-700.26,0,0
131051,81.6607,-697.548,0,0
131311,82.0938,-694.906,0,0
131572,82.357,-692.477,0,0
131832,82.4668,-689.901,0,0
132092,82.6131,-687.274,0,0
132353,82.7864,-684.645,0,0
132613,82.9865,-682.032,0,0
132873,83.1475,-679.531,0,0
133134,83.1891,-676.951,0,0
133394,83.1672,-674.246,0,0
133654,83.1322,-671.472,0,0
133915,83.1873,-668.575,0,0
134175,83.3629,-665.6,0,0
134435,83.7313,-662.716,0,0
134696,84.0477,-659.896,0,0
134956,84.4212,-657.02,0,0
135216,84.8716,-654.307,0,0
135477,85.3187,-651.554,0,0
135737,85.8978,-648.943,0,0
135997,86.4072,-646.574,0,0
136258,86.6339,-644.318,0,0
136518,86.6959,-641.871,0,0
136778,86.7521,-639.444,0,0
137039,86.6628,-636.946,0,0
137299,86.4755,-634.356,0,0
137559,86.2573,-631.575,0,0
137819,86.0371,-628.629,0,0
138080,85.8227,-625.587,0,0
138340.125,85.7083,-622.252,0,0
138600.45,85.9153,-618.837,0,0
138860.775,86.3184,-615.541,0,0
139121.1,86.7775,-612.369,0,0
139381.425,87.1789,-609.32,0,0
139641.75,87.5408,-606.153,0,0
139902.075,88.0061,-602.979,0,0
140162.4,88.5631,-599.893,0,0
140422.725,88.9708,-596.842,0,0
140683.05,89.3312,-593.723,0,0
140943.375,89.787,-590.44,0,0
141203.7,90.3878,-587.224,0,0
141464.025,90.9283,-584.188,0,0
141724.35,91.2456,-581.046,0,0
141984.675,91.5638,-577.618,0,0
142245.0,92.1046,-574.047,0,0
142505.325,92.8102,-570.456,0,0
142765.65,93.6178,-566.962,0,0
143025.975,94.4455,-563.444,0,0
143286.3,95.419,-559.836,0,0
143546.625,96.5339,-556.411,0,0
143806.95,97.4938,-553.077,0,0
144067.275,98.4051,-549.611,0,0
144327.6,99.3702,-546.033,0,0
144587.925,100.464,-542.296,0,0
144848.25,101.801,-538.552,0,0
145108.575,103.252,-534.923,0,0
145368.9,104.785,-531.329,0,0
145629.225,106.41,-527.871,0,0
145889.55,107.918,-524.405,0,0
146149.875,109.481,-520.738,0,0
146410.2,111.389,-517.058,0,0
146670.525,113.486,-513.59,0,0
146930.85,115.6,-510.375,0,0
147191.175,117.575,-507.387,0,0
147451.5,119.311,-504.376,0,0
147711.825,120.898,-501.209,0,0
147972.15,122.467,-497.786,0,0
148232.475,124.132,-494.081,0,0
148492.8,126.069,-490.192,0,0
148753.125,128.326,-486.23,0,0
149013.45,130.77,-482.356,0,0
149273.775,133.337,-478.429,0,0
149534.1,136.001,-474.32,0,0
149794.425,139.225,-469.927,0,0
150054.75,143.134,-465.713,0,0
150315.075,147.541,-461.922,0,0
150575.4,152.279,-458.359,0,0
150835.725,157.473,-455.322,0,0
151096.05,162.924,-452.944,0,0
151356.375,168.564,-451.248,0,0
151616.7,174.051,-450.412,0,0
151877.025,179.113,-450.136,0,0
152137.35,183.808,-450.24,0,0
152397.675,187.953,-450.88,0,0
152658.0,191.468,-451.363,0,0
152918.325,195.004,-451.792,0,0
153178.65,198.196,-452.667,0,0
153438.975,200.607,-453.484,0,0
153699.3,202.53,-453.843,0,0
153959.625,204.919,-453.409,0,0
154219.95,207.768,-453.648,0,0
154480,209.83,-454.24,0,0
154741,211.564,-453.896,0,0
155001,214.457,-453.084,0,0
155261,217.871,-453.166,0,0
155522,221.529,-454.109,0,0
155782,224.874,-456.261,0,0
156042,227.217,-459.322,0,0
156303,228.294,-462.708,0,0
156563,227.823,-465.922,0,0
156823,225.993,-468.087,0,0
157084,223.658,-468.818,0,0
157344,221.329,-468.193,0,0
157604,219.553,-466.221,0,0
157864,219.451,-463.676,0,0
158125,220.301,-461.531,0,0
158385,221.629,-460.019,0,0
158645,223.014,-459.154,0,0
158906,224.118,-458.524,0,0
159166,225.474,-457.906,0,0
159426,227.102,-458.176,0,0
159687,227.697,-459.258,0,0
159947,227.054,-460.217,0,0
160207,225.818,-460.5,0,0
160468,223.878,-460.376,0,0
160728,221.282,-458.854,0,0
160988,219.216,-455.767,0,0
161249,218.25,-451.885,0,0
161509,218.617,-447.708,0,0
161769,220.314,-444.061,0,0
162030,222.118,-441.163,0,0
162290,224.369,-438.512,0,0
162550,227.013,-436.747,0,0
162811,229.367,-435.706,0,0
163071,231.215,-434.895,0,0
163331,233.052,-434.242,0,0
163592,234.607,-433.821,0,0
163852,235.676,-433.288,0,0
164112,236.708,-432.523,0,0
164373,238.122,-431.604,0,0
164633,239.831,-431.364,0,0
164893,241.197,-431.618,0,0
165154,242.285,-432.292,0,0
165414,242.574,-433.136,0,0
165674,242.425,-433.833,0,0
165935,241.699,-434.517,0,0
166195,240.704,-434.809,0,0
166455,239.413,-435.265,0,0
166716,236.996,-435.406,0,0
166976,234.043,-434.303,0,0
167236,231.544,-432.149,0,0
167497,229.801,-429.707,0,0
167757,228.274,-427.472,0,0
168017,226.517,-425.136,0,0
168277,224.711,-422.658,0,0
168538,222.585,-419.931,0,0
168798,220.355,-416.368,0,0
169058,218.561,-412.165,0,0
169319,217.55,-407.734,0,0
169579,216.758,-403.588,0,0
169839,215.789,-399.291,0,0
170100,215.161,-394.491,0,0
170360.075,214.794,-389.747,0,0
170620.4,214.681,-384.913,0,0
170880.725,214.893,-379.996,0,0
171141.05,214.979,-375.227,0,0
171401.375,214.977,-370.026,0,0
171661.7,215.471,-364.1,0,0
171922.025,216.86,-358.142,0,0
172182.35,218.829,-352.611,0,0
172442.675,220.925,-347.605,0,0
172703.0,222.864,-342.502,0,0
172963.325,225.246,-337.375,0,0
173223.65,227.764,-332.601,0,0
173483.975,230.347,-328.041,0,0
173744.3,232.849,-323.682,0,0
174004.625,235.172,-319.324,0,0
174264.95,237.725,-314.94,0,0
174525.275,240.048,-310.971,0,0
174785.6,241.836,-306.778,0,0
175045.925,243.412,-302.055,0,0
175306.25,245.212,-296.701,0,0
175566.575,247.524,-290.958,0,0
175826.9,250.422,-285.094,0,0
176087.225,253.681,-279.436,0,0
176347.55,257.225,-273.87,0,0
176607.875,260.968,-268.523,0,0
176868.2,264.63,-263.428,0,0
177128.525,268.026,-258.326,0,0
177388.85,271.108,-252.712,0,0
177649.175,274.411,-246.386,0,0
177909.5,278.453,-239.326,0,0
178169.825,283.475,-232.225,0,0
178430.15,289.226,-225.122,0,0
178690.475,295.442,-218.43,0,0
178950.8,302.198,-211.801,0,0
179211.125,309.861,-205.192,0,0
179471.45,317.767,-199.955,0,0
179731.775,325.406,-194.581,0,0
179992.1,333.86,-189.295,0,0
180252.425,342.65,-185,0,0
180512.75,350.96,-181.049,0,0
180773.075,359.269,-176.912,0,0
181033.4,367.971,-172.799,0,0
181293.725,376.87,-168.795,0,0
181554.05,386.268,-164.442,0,0
181814.375,396.832,-160.365,0,0
182074.7,408.506,-157.32,0,0
182335.025,420.532,-155.776,0,0
182595.35,432.347,-155.579,0,0
182855.675,443.44,-156.521,0,0
183116.0,453.903,-158.12,0,0
183376.325,463.346,-160.574,0,0
183636.65,471.275,-163.279,0,0
183896.975,477.539,-164.652,0,0
184157.3,483.892,-164.2,0,0
184417.625,491.555,-162.539,0,0
184677.95,500.803,-161.134,0,0
184938.275,510.898,-160.393,0,0
185198.6,521.555,-160.696,0,0
185458.925,532.448,-162.199,0,0
185719.25,542.39,-164.718,0,0
185979.575,551.786,-166.824,0,0
186239.9,561.771,-169.177,0,0
186500,571.51,-172.529,0,0
186761,580.504,-175.978,0,0
187021,589.455,-179.559,0,0
187281,598.04,-183.523,0,0
187542,606.089,-187.348,0,0
187802,614.159,-190.987,0,0
188062,622.51,-194.696,0,0
188322,630.84,-199.09,0,0
188583,638.498,-203.96,0,0
188843,645.423,-208.733,0,0
189103,651.872,-213.109,0,0
189364,658.097,-216.915,0,0
189624,664.555,-220.229,0,0
189884,671.26,-223.448,0,0
190145,677.708,-226.359,0,0
190405,684.669,-228.42,0,0
190665,692.779,-230.245,0,0
190926,702.378,-232.481,0,0
191186,712.763,-236.504,0,0
191446,722.394,-242.205,0,0
191707,730.689,-248.644,0,0
191967,737.38,-254.828,0,0
192227,743.169,-259.558,0,0
192488,749.232,-262.927,0,0
192748,755.629,-264.686,0,0
193008,764.241,-265.292,0,0
193269,774.964,-266.279,0,0
193529,787.177,-267.892,0,0
193789,801.355,-270.384,0,0
194050,816.944,-275.062,0,0
194310,832.717,-281.587,0,0
194570,848.698,-289.674,0,0
194831,864.812,-299.143,0,0
195091,881.039,-310.121,0,0
195351,897.225,-322.683,0,0
195612,913.677,-337.025,0,0
195872,929.91,-353.941,0,0
196132,944.674,-373.346,0,0
196393,957.281,-394.273,0,0
196653,968.27,-415.896,0,0
196913,978.347,-438.182,0,0
197174,986.989,-461.757,0,0
197434,994.56,-486.595,0,0
197694,1000.13,-513.044,0,0
197955,1003.36,-540.574,0,0
198215,1004.05,-568.736,0,0
198475,1002,-597.416,0,0
198735,996.457,-625.917,0,0
198996,988.168,-653.011,0,0
199256,977.47,-678.774,0,0
199516,964.494,-703.106,0,0
199777,949.516,-724.984,0,0
200037,933.199,-744.079,0,0
200297,916.92,-760.704,0,0
200558,900.792,-775.341,0,0
200818,885.307,-788.581,0,0
201078,870.509,-801.232,0,0
201339,855.673,-813.83,0,0
201599,840.291,-826.533,0,0
201859,823.947,-839.111,0,0
202120,804.912,-851.364,0,0
202380.025,783.311,-860.605,0,0
202640.35,761.305,-865.739,0,0
202900.675,740.903,-867.481,0,0
203161.0,722.382,-867.325,0,0
203421.325,705.821,-865.813,0,0
203681.65,691.339,-863.646,0,0
203941.975,678.239,-862.288,0,0
204202.3,665.387,-861.064,0,0
204462.625,652.322,-859.615,0,0
204722.95,639.686,-857.383,0,0
204983.275,626.998,-854.594,0,0
205243.6,614.715,-850.623,0,0
205503.925,603.062,-845.692,0,0
205764.25,592.513,-839.532,0,0
206024.575,583.286,-832.487,0,0
206284.9,575.723,-825.111,0,0
206545.225,569.782,-817.634,0,0
206805.55,565.45,-810.7,0,0
207065.875,562.065,-804.609,0,0
207326.2,559.174,-799.189,0,0
207586.525,556.781,-794.065,0,0
207846.85,555.229,-789.503,0,0
208107.175,554.176,-785.731,0,0
208367.5,553.177,-782.901,0,0
208627.825,551.939,-780.381,0,0
208888.15,550.617,-778.144,0,0
209148.475,549.221,-775.911,0,0
209408.8,547.666,-773.584,0,0
209669.125,546.613,-770.761,0,0
209929.45,546.2,-767.754,0,0
210189.775,546.705,-765.245,0,0
210450.1,547.621,-763.38,0,0
210710.425,548.994,-761.899,0,0
210970.75,550.572,-761.222,0,0
211231.075,552.098,-760.961,0,0
211491.4,553.968,-761.174,0,0
211751.725,555.892,-762.277,0,0
212012.05,557.598,-764.146,0,0
212272.375,558.841,-766.344,0,0
212532.7,559.956,-768.89,0,0
212793.025,560.71,-771.884,0,0
213053.35,561.128,-775.163,0,0
213313.675,561.133,-778.701,0,0
213574.0,560.779,-782.317,0,0
213834.325,560.09,-785.973,0,0
214094.65,559.102,-789.56,0,0
214354.975,558.107,-793.168,0,0
214615.3,557.103,-796.784,0,0
214875.625,555.674,-800.572,0,0
215135.95,554.144,-804.626,0,0
215396.275,552.45,-808.753,0,0
215656.6,550.505,-813.06,0,0
215916.925,547.632,-817.483,0,0
216177.25,544.904,-821.25,0,0
216437.575,541.995,-825.339,0,0
216697.9,538.888,-829.232,0,0
216958.225,535.753,-833.012,0,0
217218.55,532.514,-836.883,0,0
217478.875,529.278,-840.843,0,0
217739.2,525.807,-845.101,0,0
217999.525,521.857,-849.645,0,0
218259.85,517.266,-854.106,0,0
218520,512.168,-858.334,0,0
218780,506.513,-862.172,0,0
219041,500.69,-865.541,0,0
219301,494.646,-868.507,0,0
219561,488.429,-871.349,0,0
219822,481.898,-873.715,0,0
220082,475.352,-875.837,0,0
220342,468.544,-877.424,0,0
220603,461.57,-878.472,0,0
220863,454.751,-878.904,0,0
221123,447.963,-878.728,0,0
221384,441.628,-878.06,0,0
221644,435.668,-877.139,0,0
221904,429.985,-875.969,0,0
222165,424.532,-874.696,0,0
222425,419.319,-873.17,0,0
222685,414.464,-871.298,0,0
222946,409.888,-869.186,0,0
223206,406.02,-866.976,0,0
223466,402.644,-864.909,0,0
223727,399.566,-863.065,0,0
223987,396.79,-861.583,0,0
224247,394.075,-860.02,0,0
224508,391.515,-858.582,0,0
224768,389.467,-857.173,0,0
225028,387.745,-856.304,0,0
225289,386.103,-855.777,0,0
225549,384.399,-855.755,0,0
225809,382.78,-856.257,0,0
226070,380.569,-856.879,0,0
226330,378.252,-857.793,0,0
226590,375.779,-858.628,0,0
226851,372.947,-859.693,0,0
227111,369.767,-860.769,0,0
227371,366.273,-861.73,0,0
227632,362.528,-862.406,0,0
227892,358.71,-862.766,0,0
228152,355.062,-862.746,0,0
228413,351.78,-862.605,0,0
228673,348.848,-862.632,0,0
228933,345.914,-863.047,0,0
229193,342.879,-863.795,0,0
229454,339.589,-864.775,0,0
229714,336.089,-865.707,0,0
229974,332.246,-866.838,0,0
230235,328.116,-867.887,0,0
230495,323.587,-868.818,0,0
230755,318.757,-869.662,0,0
231016,313.844,-870.068,0,0
231276,308.706,-870.342,0,0
231536,303.42,-870.393,0,0
231797,298.103,-870.088,0,0
232057,292.885,-869.564,0,0
232317,287.601,-868.991,0,0
232578,282.136,-868.325,0,0
232838,276.566,-867.403,0,0
233098,270.85,-866.226,0,0
233359,265.021,-864.676,0,0
233619,259.2,-862.738,0,0
233879,253.316,-860.461,0,0
234140,247.658,-857.795,0,0
234400,242.106,-854.73,0,0
234660.3,236.749,-851.164,0,0
234920.625,231.729,-847.283,0,0
235180.95,227.244,-843.463,0,0
235441.275,222.918,-839.211,0,0
235701.6,218.94,-834.95,0,0
235961.925,215.264,-830.768,0,0
236222.25,211.93,-826.399,0,0
236482.575,208.823,-822.168,0,0
236742.9,205.946,-817.854,0,0
237003.225,203.292,-813.577,0,0
237263.55,200.804,-809.295,0,0
237523.875,198.531,-804.986,0,0
237784.2,196.446,-800.737,0,0
238044.525,194.49,-796.452,0,0
238304.85,192.834,-792.028,0,0
238565.175,191.562,-787.637,0,0
238825.5,190.678,-783.275,0,0
239085.825,190.19,-779.166,0,0
239346.15,189.876,-775.483,0,0
239606.475,189.783,-772.051,0,0
239866.8,189.693,-768.965,0,0
240127.125,189.677,-766.031,0,0
240387.45,189.7,-763.337,0,0
240647.775,189.755,-760.869,0,0
240908.1,189.837,-758.749,0,0
241168.425,189.776,-756.997,0,0
241428.75,189.426,-755.378,0,0
241689.075,188.808,-754.005,0,0
241949.4,187.944,-752.552,0,0
242209.725,186.919,-750.98,0,0
242470.05,185.704,-749.382,0,0
242730.375,184.417,-747.61,0,0
242990.7,183.202,-745.667,0,0
243251.025,181.928,-743.8,0,0
243511.35,180.603,-741.831,0,0
243771.675,179.212,-739.719,0,0
244032.0,177.865,-737.445,0,0
244292.325,176.729,-735.034,0,0
244552.65,175.747,-732.639,0,0
244812.975,174.85,-730.323,0,0
245073.3,173.779,-728.058,0,0
245333.625,172.692,-725.568,0,0
245593.95,171.888,-722.96,0,0
245854.275,171.29,-720.282,0,0
246114.6,170.911,-717.686,0,0
246374.925,170.725,-715.298,0,0
246635.25,170.587,-713.154,0,0
246895.575,170.432,-711.172,0,0
247155.9,170.08,-709.375,0,0
247416.225,169.611,-707.504,0,0
247676.55,169.101,-705.552,0,0
247936.875,168.71,-703.599,0,0
248197.2,168.27,-701.574,0,0
248457.525,167.892,-699.605,0,0
248717.85,167.51,-697.659,0,0
248978.175,167.141,-695.624,0,0
249238.5,166.831,-693.57,0,0
249498.825,166.585,-691.565,0,0
249759.15,166.309,-689.565,0,0
250019.475,166.008,-687.443,0,0
250279.8,165.889,-685.303,0,0
250540,165.83,-683.232,0,0
250800,165.949,-681.044,0,0
251061,166.205,-678.927,0,0
251321,166.627,-676.889,0,0
251581,167.214,-674.933,0,0
251842,167.878,-673.212,0,0
252102,168.615,-671.648,0,0
252362,169.431,-670.249,0,0
252623,170.283,-669.121,0,0
252883,171.08,-668.258,0,0
253143,171.713,-667.627,0,0
253404,172.126,-667.115,0,0
253664,172.387,-666.713,0,0
253924,172.411,-666.392,0,0
254185,172.336,-666.105,0,0
254445,171.997,-665.789,0,0
254705,171.412,-665.487,0,0
254966,170.71,-665.12,0,0
255226,169.762,-664.617,0,0
255486,168.633,-663.917,0,0
255747,167.399,-662.941,0,0
256007,166.224,-661.72,0,0
256267,165.077,-660.369,0,0
256528,163.953,-658.885,0,0
256788,162.843,-657.234,0,0
257048,161.832,-655.357,0,0
257309,160.985,-653.335,0,0
257569,160.253,-651.215,0,0
257829,159.688,-649.043,0,0
258090,159.241,-646.775,0,0
258350,158.998,-644.491,0,0
258610,158.853,-642.185,0,0
258871,158.949,-639.777,0,0
259131,159.238,-637.393,0,0
259391,159.795,-635.136,0,0
259651,160.479,-633.083,0,0
259912,161.265,-631.207,0,0
260172,162.032,-629.482,0,0
260432,162.81,-627.872,0,0
260693,163.533,-626.327,0,0
260953,164.314,-624.795,0,0
261213,165.097,-623.386,0,0
261474,165.871,-622.056,0,0
261734,166.635,-620.809,0,0
261994,167.362,-619.668,0,0
262255,167.911,-618.59,0,0
262515,168.307,-617.462,0,0
262775,168.67,-616.096,0,0
263036,169.146,-614.568,0,0
263296,169.769,-613.045,0,0
263556,170.443,-611.6,0,0
263817,171.073,-610.144,0,0
264077,171.736,-608.619,0,0
264337,172.372,-607.036,0,0
264598,173.157,-605.289,0,0
264858,174.042,-603.418,0,0
265118,175.104,-601.527,0,0
265379,176.303,-599.487,0,0
265639,177.806,-597.392,0,0
265899,179.601,-595.256,0,0
266160,181.737,-593.201,0,0
266420,184.182,-591.282,0,0
266680.25,186.891,-589.569,0,0
266940.575,189.905,-588.036,0,0
267200.9,193.153,-586.727,0,0
267461.225,196.648,-585.734,0,0
267721.55,200.453,-585.13,0,0
267981.875,204.358,-584.943,0,0
268242.2,208.301,-585.236,0,0
268502.525,212.199,-585.933,0,0
268762.85,216.02,-587,0,0
269023.175,219.763,-588.34,0,0
269283.5,223.44,-589.942,0,0
269543.825,227.083,-591.887,0,0
269804.15,230.829,-594.106,0,0
270064.475,234.531,-596.905,0,0
270324.8,238.134,-600.28,0,0
270585.125,241.43,-604.07,0,0
270845.45,244.275,-608.399,0,0
271105.775,246.686,-613.055,0,0
271366.1,248.632,-617.967,0,0
271626.425,250.18,-623.08,0,0
271886.75,251.338,-628.413,0,0
272147.075,252.014,-633.993,0,0
272407.4,252.247,-639.766,0,0
272667.725,251.88,-645.757,0,0
272928.05,250.949,-651.95,0,0
273188.375,249.165,-658.234,0,0
273448.7,246.56,-664.385,0,0
273709.025,243.168,-670.292,0,0
273969.35,238.963,-675.728,0,0
274229.675,234.126,-680.506,0,0
274490.0,228.983,-684.56,0,0
274750.325,223.544,-687.949,0,0
275010.65,218.025,-690.821,0,0
275270.975,212.252,-692.98,0,0
275531.3,206.674,-694.672,0,0
275791.625,201.057,-695.803,0,0
276051.95,195.528,-696.455,0,0
276312.275,190.148,-696.643,0,0
276572.6,184.882,-696.524,0,0
276832.925,179.872,-696.025,0,0
277093.25,175.028,-695.201,0,0
277353.575,170.416,-694.147,0,0
277613.9,165.982,-692.77,0,0
277874.225,161.787,-691.319,0,0
278134.55,157.757,-689.684,0,0
278394.875,153.782,-687.905,0,0
278655.2,149.972,-685.784,0,0
278915.525,146.407,-683.46,0,0
279175.85,143.087,-680.885,0,0
279436.175,140.129,-678.183,0,0
279696.5,137.544,-675.407,0,0
279956.825,135.182,-672.588,0,0
280217.15,133.107,-669.695,0,0
280477.475,131.395,-666.834,0,0
280737.8,129.962,-664.113,0,0
280998.125,128.744,-661.478,0,0
281258.45,127.719,-658.978,0,0
281518.775,126.89,-656.646,0,0
281779.1,126.126,-654.443,0,0
282039.425,125.481,-652.316,0,0
282299.75,124.988,-650.367,0,0
282560,124.541,-648.646,0,0
282820,124.073,-647.08,0,0
283081,123.517,-645.613,0,0
283341,122.864,-644.119,0,0
283601,122.192,-642.623,0,0
283862,121.549,-641.085,0,0
284122,120.98,-639.483,0,0
284382,120.512,-637.925,0,0
284643,120.079,-636.341,0,0
284903,119.741,-634.669,0,0
285163,119.592,-633.016,0,0
285424,119.642,-631.454,0,0
285684,119.867,-630.007,0,0
285944,120.144,-628.715,0,0
286205,120.523,-627.536,0,0
286465,121.032,-626.441,0,0
286725,121.726,-625.543,0,0
286986,122.568,-624.905,0,0
287246,123.482,-624.634,0,0
287506,124.354,-624.77,0,0
287767,125.058,-625.288,0,0
288027,125.524,-626.116,0,0
288287,125.683,-627.195,0,0
288548,125.451,-628.442,0,0
288808,124.862,-629.744,0,0
289068,123.901,-631.111,0,0
289329,122.532,-632.445,0,0
289589,120.768,-633.601,0,0
289849,118.713,-634.482,0,0
290109,116.397,-635.016,0,0
290370,114.025,-635.194,0,0
290630,111.708,-635.135,0,0
290890,109.396,-634.798,0,0
291151,107.165,-634.357,0,0
291411,105.013,-633.824,0,0
291671,102.874,-633.19,0,0
291932,100.704,-632.47,0,0
292192,98.5436,-631.601,0,0
292452,96.4013,-630.613,0,0
292713,94.2967,-629.5,0,0
292973,92.2379,-628.296,0,0
293233,90.2266,-626.962,0,0
293494,88.274,-625.555,0,0
293754,86.3709,-624.027,0,0
294014,84.5634,-622.399,0,0
294275,82.8411,-620.671,0,0
294535,81.2526,-618.897,0,0
294795,79.7475,-617.025,0,0
295056,78.4043,-615.133,0,0
295316,77.1249,-613.205,0,0
295576,75.998,-611.332,0,0
295837,74.9196,-609.459,0,0
296097,73.9473,-607.63,0,0
296357,73.026,-605.816,0,0
296618,72.1259,-604.046,0,0
296878,71.2724,-602.275,0,0
297138,70.4499,-600.52,0,0
297399,69.6388,-598.763,0,0
297659,68.8559,-597.005,0,0
297919,68.1231,-595.243,0,0
298180,67.4165,-593.462,0,0
298440,66.7363,-591.664,0,0
298700.2,66.114,-589.854,0,0
298960.525,65.5277,-588.025,0,0
299220.85,64.9799,-586.19,0,0
299481.175,64.5045,-584.339,0,0
299741.5,64.078,-582.444,0,0
300001.825,63.7492,-580.585,0,0
300262.15,63.4841,-578.721,0,0
300522.475,63.2761,-576.889,0,0
300782.8,63.1274,-575.059,0,0
301043.125,63.0531,-573.268,0,0
301303.45,63.0444,-571.488,0,0
301563.775,63.0987,-569.756,0,0
301824.1,63.2201,-568.069,0,0
302084.425,63.3829,-566.434,0,0
302344.75,63.5885,-564.843,0,0
302605.075,63.8381,-563.319,0,0
302865.4,64.1168,-561.851,0,0
303125.725,64.431,-560.437,0,0
303386.05,64.7602,-559.056,0,0
303646.375,65.1003,-557.738,0,0
303906.7,65.467,-556.465,0,0
304167.025,65.8511,-555.242,0,0
304427.35,66.2508,-554.045,0,0
304687.675,66.6987,-552.922,0,0
304948.0,67.1738,-551.871,0,0
305208.325,67.61,-550.866,0,0
305468.65,68.0708,-549.945,0,0
305728.975,68.547,-549.082,0,0
305989.3,68.9576,-548.279,0,0
306249.625,69.3309,-547.534,0,0
306509.95,69.7007,-546.823,0,0
306770.275,70.0384,-546.128,0,0
307030.6,70.344,-545.453,0,0
307290.925,70.6751,-544.802,0,0
307551.25,71.024,-544.17,0,0
307811.575,71.378,-543.621,0,0
308071.9,71.736,-543.169,0,0
308332.225,72.0482,-542.81,0,0
308592.55,72.2603,-542.54,0,0
308852.875,72.3641,-542.293,0,0
309113.2,72.3495,-542.075,0,0
309373.525,72.2165,-541.791,0,0
309633.85,72.0335,-541.436,0,0
309894.175,71.8282,-541.068,0,0
310154.5,71.6297,-540.581,0,0
310414.825,71.4299,-540.108,0,0
310675.15,71.214,-539.575,0,0
310935.475,71.072,-539.058,0,0
311195.8,70.9416,-538.526,0,0
311456.125,70.8085,-538.041,0,0
311716.45,70.6515,-537.592,0,0
311976.775,70.4698,-537.159,0,0
312237.1,70.2437,-536.738,0,0
312497.425,69.9906,-536.306,0,0
312757.75,69.686,-535.848,0,0
313018.075,69.3781,-535.387,0,0
313278.4,69.0358,-534.893,0,0
313538.725,68.6806,-534.356,0,0
313799.05,68.3348,-533.802,0,0
314059.375,68.0127,-533.226,0,0
314319.7,67.6929,-532.648,0,0
314580,67.2756,-532.073,0,0
314840,67.0087,-531.491,0,0
315101,66.6425,-530.938,0,0
315361,66.2083,-530.335,0,0
315621,65.8432,-529.656,0,0
315882,65.4896,-529.007,0,0
316142,65.0828,-528.256,0,0
316402,64.7616,-527.487,0,0
316663,64.4872,-526.701,0,0
316923,64.2812,-525.984,0,0
317183,64.0466,-525.294,0,0
317444,63.7737,-524.596,0,0
317704,63.4992,-523.905,0,0
317964,63.2662,-523.254,0,0
318225,63.0055,-522.48,0,0
318485,62.7014,-521.744,0,0
318745,62.5117,-520.956,0,0
319006,62.2936,-520.197,0,0
319266,62.1818,-519.398,0,0
319526,62.0658,-518.632,0,0
319787,62.0507,-517.891,0,0
320047,62.0056,-517.243,0,0
320307,61.9236,-516.699,0,0
320567,61.9254,-516.045,0,0
320828,61.7691,-515.523,0,0
321088,61.7361,-514.922,0,0
321348,61.6377,-514.343,0,0
321609,61.5446,-513.919,0,0
321869,61.4564,-513.372,0,0
322129,61.2548,-512.917,0,0
322390,61.13,-512.523,0,0
322650,60.978,-512.102,0,0
322910,60.749,-511.671,0,0
323171,60.5541,-511.346,0,0
323431,60.2448,-510.93,0,0
323691,59.8961,-510.578,0,0
323952,59.5169,-510.197,0,0
324212,59.1111,-509.763,0,0
324472,58.6997,-509.216,0,0
324733,58.2589,-508.766,0,0
324993,57.7764,-508.311,0,0
325253,57.3561,-507.735,0,0
325514,56.8336,-507.114,0,0
325774,56.3466,-506.534,0,0
326034,55.8885,-505.885,0,0
326295,55.413,-505.204,0,0
326555,55.0201,-504.501,0,0
326815,54.6167,-503.78,0,0
327076,54.1361,-503.08,0,0
327336,53.8255,-502.357,0,0
327596,53.4329,-501.631,0,0
327857,53.1077,-500.905,0,0
328117,52.7874,-500.172,0,0
328377,52.4083,-499.539,0,0
328638,52.0224,-498.79,0,0
328898,51.6329,-498.046,0,0
329158,51.3179,-497.276,0,0
329419,50.9058,-496.532,0,0
329679,50.5536,-495.827,0,0
329939,50.2202,-495.027,0,0
330200,49.8958,-494.253,0,0
330460,49.4992,-493.424,0,0
330720.15,49.1764,-492.671,0,0
330980.475,48.8037,-491.842,0,0
331240.8,48.5329,-491.012,0,0
331501.125,48.1908,-490.155,0,0
331761.45,47.8567,-489.319,0,0
332021.775,47.5528,-488.445,0,0
332282.1,47.3069,-487.556,0,0
332542.425,47.0478,-486.629,0,0
332802.75,46.7848,-485.728,0,0
333063.075,46.641,-484.771,0,0
333323.4,46.4619,-483.848,0,0
333583.725,46.2445,-482.923,0,0
333844.05,46.1302,-481.961,0,0
334104.375,46.0773,-481.048,0,0
334364.7,46.0329,-480.138,0,0
334625.025,46.0529,-479.192,0,0
334885.35,46.1397,-478.33,0,0
335145.675,46.1518,-477.427,0,0
335406.0,46.2528,-476.689,0,0
335666.325,46.3334,-475.915,0,0
335926.65,46.4741,-475.229,0,0
336186.975,46.5082,-474.515,0,0
336447.3,46.5683,-473.863,0,0
336707.625,46.6423,-473.243,0,0
336967.95,46.6584,-472.617,0,0
337228.275,46.6744,-472.1,0,0
337488.6,46.7061,-471.514,0,0
337748.925,46.6737,-471.033,0,0
338009.25,46.6184,-470.499,0,0
338269.575,46.5333,-469.981,0,0
338529.9,46.4282,-469.434,0,0
338790.225,46.2522,-468.864,0,0
339050.55,46.1029,-468.348,0,0
339310.875,45.9373,-467.811,0,0
339571.2,45.7546,-467.303,0,0
339831.525,45.5867,-466.679,0,0
340091.85,45.391,-466.044,0,0
340352.175,45.1547,-465.494,0,0
340612.5,44.9172,-464.833,0,0
340872.825,44.6483,-464.253,0,0
341133.15,44.4153,-463.597,0,0
341393.475,44.2014,-462.912,0,0
341653.8,43.9503,-462.198,0,0
341914.125,43.7246,-461.488,0,0
342174.45,43.4542,-460.774,0,0
342434.775,43.2889,-460.025,0,0
342695.1,43.0608,-459.266,0,0
342955.425,42.8819,-458.473,0,0
343215.75,42.6734,-457.728,0,0
343476.075,42.4996,-456.916,0,0
343736.4,42.3004,-456.134,0,0
343996.725,42.1051,-455.297,0,0
344257.05,42.0074,-454.459,0,0
344517.375,41.8403,-453.657,0,0
344777.7,41.7567,-452.789,0,0
345038.025,41.6412,-451.918,0,0
345298.35,41.5472,-451.121,0,0
345558.675,41.5411,-450.211,0,0
345819.0,41.5312,-449.393,0,0
346079.325,41.4902,-448.537,0,0
346339.65,41.4911,-447.705,0,0
346599.975,41.5526,-446.845,0,0
346860,41.5123,-445.995,0,0
347121,41.592,-445.192,0,0
347381,41.6429,-444.373,0,0
347641,41.6872,-443.551,0,0
347902,41.7378,-442.8,0,0
348162,41.8205,-441.99,0,0
348422,41.9207,-441.225,0,0
348683,42.0316,-440.441,0,0
348943,42.1092,-439.673,0,0
349203,42.234,-438.837,0,0
349464,42.3648,-438.095,0,0
349724,42.5178,-437.266,0,0
349984,42.6677,-436.441,0,0
350245,42.8994,-435.708,0,0
350505,43.0977,-434.953,0,0
350765,43.2859,-434.253,0,0
351025,43.5725,-433.525,0,0
351286,43.7966,-432.858,0,0
351546,44.0425,-432.208,0,0
351806,44.3145,-431.565,0,0
352067,44.5704,-430.913,0,0
352327,44.8238,-430.356,0,0
352587,45.1207,-429.756,0,0
352848,45.2991,-429.164,0,0
353108,45.5613,-428.632,0,0
353368,45.8118,-428.088,0,0
353629,46.0374,-427.552,0,0
353889,46.2865,-427.052,0,0
354149,46.5042,-426.534,0,0
354410,46.6704,-426.046,0,0
354670,46.8763,-425.545,0,0
354930,47.0966,-425.06,0,0
355191,47.3077,-424.567,0,0
355451,47.493,-424.112,0,0
355711,47.6807,-423.687,0,0
355972,47.855,-423.242,0,0
356232,48.0656,-422.774,0,0
356492,48.2123,-422.395,0,0
356753,48.3698,-421.93,0,0
357013,48.5135,-421.493,0,0
357273,48.6282,-421.081,0,0
357534,48.7815,-420.68,0,0
357794,48.8783,-420.263,0,0
358054,48.9844,-419.825,0,0
358315,49.0919,-419.393,0,0
358575,49.228,-418.981,0,0
358835,49.3581,-418.519,0,0
359096,49.4885,-418.138,0,0
359356,49.5475,-417.715,0,0
359616,49.7146,-417.294,0,0
359877,49.8251,-416.863,0,0
360137,49.9241,-416.437,0,0
360397,50.0503,-415.964,0,0
360658,50.2024,-415.626,0,0
360918,50.2913,-415.213,0,0
361178,50.3986,-414.821,0,0
361438,50.5482,-414.449,0,0
361699,50.6709,-414.036,0,0
361959,50.7702,-413.653,0,0
362219,50.8599,-413.298,0,0
362480,50.9474,-412.949,0,0
362740.1,51.0467,-412.582,0,0
363000.425,51.1499,-412.194,0,0
363260.75,51.2045,-411.899,0,0
363521.075,51.2598,-411.489,0,0
363781.4,51.3833,-411.192,0,0
364041.725,51.4037,-410.808,0,0
364302.05,51.485,-410.439,0,0
364562.375,51.5336,-410.118,0,0
364822.7,51.5721,-409.791,0,0
365083.025,51.6113,-409.399,0,0
365343.35,51.6409,-409.011,0,0
365603.675,51.613,-408.691,0,0
365864.0,51.6668,-408.336,0,0
366124.325,51.674,-407.967,0,0
366384.65,51.6763,-407.603,0,0
366644.975,51.7475,-407.214,0,0
366905.3,51.733,-406.807,0,0
367165.625,51.7542,-406.421,0,0
367425.95,51.7626,-406.006,0,0
367686.275,51.7608,-405.633,0,0
367946.6,51.7522,-405.216,0,0
368206.925,51.7641,-404.784,0,0
368467.25,51.8096,-404.349,0,0
368727.575,51.8173,-403.931,0,0
368987.9,51.9192,-403.449,0,0
369248.225,51.963,-402.918,0,0
369508.55,52.0611,-402.507,0,0
369768.875,52.2267,-402.035,0,0
370029.2,52.4114,-401.57,0,0
370289.525,52.6116,-401.135,0,0
370549.85,52.8435,-400.791,0,0
370810.175,53.0742,-400.462,0,0
371070.5,53.3095,-400.199,0,0
371330.825,53.5169,-399.955,0,0
371591.15,53.7002,-399.731,0,0
371851.475,53.8677,-399.573,0,0
372111.8,54.0226,-399.409,0,0
372372.125,54.1503,-399.27,0,0
372632.45,54.2315,-399.143,0,0
372892.775,54.2672,-399.015,0,0
373153.1,54.3024,-398.911,0,0
373413.425,54.3075,-398.809,0,0
373673.75,54.2887,-398.73,0,0
373934.075,54.1864,-398.641,0,0
374194.4,54.0969,-398.499,0,0
374454.725,53.9097,-398.389,0,0
374715.05,53.7064,-398.267,0,0
374975.375,53.5219,-398.046,0,0
375235.7,53.2613,-397.842,0,0
375496.025,53.056,-397.545,0,0
375756.35,52.8045,-397.247,0,0
376016.675,52.5969,-396.862,0,0
376277.0,52.4239,-396.518,0,0
376537.325,52.2516,-396.119,0,0
376797.65,52.1712,-395.757,0,0
377057.975,52.0929,-395.384,0,0
377318.3,52.0141,-395.03,0,0
377578.625,51.9039,-394.743,0,0
377838.95,51.8262,-394.447,0,0
378099.275,51.6797,-394.163,0,0
378359.6,51.5106,-393.904,0,0
378619.925,51.2833,-393.613,0,0
378880,51.0251,-393.304,0,0
379141,50.7611,-392.882,0,0
379401,50.4842,-392.464,0,0
379661,50.2176,-391.954,0,0
379922,50.0268,-391.371,0,0
380182,49.8795,-390.786,0,0
380442,49.7942,-390.139,0,0
380703,49.8472,-389.559,0,0
380963,49.9606,-389.011,0,0
381223,50.1134,-388.53,0,0
381483,50.2534,-388.126,0,0
381744,50.401,-387.802,0,0
382004,50.5574,-387.542,0,0
382264,50.6759,-387.402,0,0
382525,50.6587,-387.195,0,0
382785,50.6225,-387.081,0,0
383045,50.563,-386.89,0,0
383306,50.4171,-386.746,0,0
383566,50.2767,-386.609,0,0
383826,50.1176,-386.444,0,0
384087,49.81,-386.247,0,0
384347,49.5677,-386.011,0,0
384607,49.2583,-385.792,0,0
384868,48.9167,-385.517,0,0
385128,48.6059,-385.207,0,0
385388,48.2636,-384.812,0,0
385649,47.9095,-384.425,0,0
385909,47.5904,-383.997,0,0
386169,47.2185,-383.565,0,0
386430,46.8866,-383.109,0,0
386690,46.5529,-382.606,0,0
386950,46.2565,-382.08,0,0
387211,45.9591,-381.536,0,0
387471,45.6474,-380.938,0,0
387731,45.3908,-380.308,0,0
387992,45.1019,-379.74,0,0
388252,44.89,-379.079,0,0
388512,44.7155,-378.392,0,0
388773,44.5561,-377.766,0,0
389033,44.435,-377.108,0,0
389293,44.3065,-376.448,0,0
389554,44.2517,-375.821,0,0
389814,44.1606,-375.186,0,0
390074,44.0968,-374.523,0,0
390335,44.0445,-373.943,0,0
390595,44.0501,-373.346,0,0
390855,43.9746,-372.741,0,0
391116,43.9555,-372.168,0,0
391376,43.9527,-371.606,0,0
391636,43.9172,-371.055,0,0
391896,43.8589,-370.472,0,0
392157,43.8338,-369.926,0,0
392417,43.8298,-369.376,0,0
392677,43.7756,-368.837,0,0
392938,43.7376,-368.277,0,0
393198,43.6791,-367.716,0,0
393458,43.6396,-367.147,0,0
393719,43.5924,-366.547,0,0
393979,43.5547,-366.004,0,0
394239,43.5512,-365.391,0,0
394500,43.5437,-364.804,0,0
394760.05,43.528,-364.197,0,0
395020.375,43.5431,-363.602,0,0
395280.7,43.5712,-362.971,0,0
395541.025,43.6044,-362.364,0,0
395801.35,43.663,-361.792,0,0
396061.675,43.7386,-361.202,0,0
396322.0,43.8226,-360.608,0,0
396582.325,43.8874,-360.059,0,0
396842.65,43.9507,-359.508,0,0
397102.975,44.0494,-358.971,0,0
397363.3,44.1033,-358.41,0,0
397623.625,44.1621,-357.897,0,0
397883.95,44.2404,-357.376,0,0
398144.275,44.3271,-356.822,0,0
398404.6,44.3933,-356.298,0,0
398664.925,44.4746,-355.78,0,0
398925.25,44.5446,-355.271,0,0
399185.575,44.6536,-354.752,0,0
399445.9,44.6755,-354.272,0,0
399706.225,44.7316,-353.753,0,0
399966.55,44.8068,-353.236,0,0
400006.6,44.8078,-353.153,0,0