File: Accelerated corrosion test data/2025-10-23_06-00-04/sample_3.csv
Frequency (Hz),Impedance (ohms),Phase (Radians),Temperature (C),Humidity (%)
10000.0,251.697,-11921.1,0,0
10260.325,245.678,-11621,0,0
10520.65,240.308,-11335.1,0,0
10780.975,236.326,-11061.8,0,0
11041.3,229.398,-10807.2,0,0
11301.625,224.061,-10559.2,0,0
11561.95,219.924,-10323.1,0,0
11822.275,215.36,-10096.9,0,0
12082.6,212.37,-9880.92,0,0
12342.925,211.257,-9673.73,0,0
12603.25,203.407,-9476.8,0,0
12863.575,199.972,-9284.43,0,0
13123.9,200.56,-9099.14,0,0
13384.225,193.122,-8929.34,0,0
13644.55,189.375,-8758.74,0,0
13904.875,186.193,-8593.71,0,0
14165.2,185.145,-8437.06,0,0
14425.525,180.82,-8283.69,0,0
14685.8,179.966,-8137.91,0,0
14946.175,176.525,-7996.3,0,0
15206.5,175.031,-7853.6,0,0
15466.825,186.803,-7714.68,0,0
15727.15,192.324,-7614.41,0,0
15987.5,171.149,-7498.37,0,0
16247.8,168.145,-7368.78,0,0
16508.125,161.902,-7253.67,0,0
16768.45,171.489,-7134.14,0,0
17028.775,158.144,-7032.86,0,0
17289.1,165.045,-6919.76,0,0
17549.425,156.461,-6825.39,0,0
17809.75,157.523,-6720.47,0,0
18070.075,161.046,-6635.1,0,0
18330.4,152.288,-6537.24,0,0
18590.725,148.611,-6445.64,0,0
18851.05,146.825,-6353.9,0,0
19111.375,145.356,-6264.62,0,0
19371.7,145.926,-6177.94,0,0
19632.025,148.595,-6092.97,0,0
19892.35,147.842,-6018.36,0,0
20152.675,149.072,-5933.43,0,0
20413.0,166.323,-5862.33,0,0
20673.3,164.055,-5792.6,0,0
20933.65,164.037,-5739.07,0,0
21193.975,161.496,-5673.07,0,0
21454.3,144.866,-5610.48,0,0
21714.625,139.956,-5533.97,0,0
21974.9,146.207,-5470.63,0,0
22235.275,138.715,-5408.72,0,0
22495.6,136.775,-5346.42,0,0
22755.925,129.513,-5285.19,0,0
23016.25,128.225,-5225.14,0,0
23276.6,129.622,-5162.18,0,0
23536.9,129.026,-5116.73,0,0
23797.225,121.581,-5056.96,0,0
24057.55,119.484,-4998.94,0,0
24317.875,120.31,-4943.33,0,0
24578.2,116.831,-4893.03,0,0
24838.525,118.905,-4839.06,0,0
25098.85,115.359,-4791.81,0,0
25359.175,113.633,-4740.89,0,0
25619.5,114.022,-4692.97,0,0
25879.8,111.024,-4645.96,0,0
26140.1,108.673,-4598.15,0,0
26400.5,107.925,-4550.19,0,0
26660.8,108.21,-4504.31,0,0
26921.1,109.961,-4460.09,0,0
27181.4,109.074,-4419.31,0,0
27441.8,108.082,-4375.15,0,0
27702.1,108.712,-4335.53,0,0
27962.4,105.918,-4293.45,0,0
28222.7,104.769,-4250.15,0,0
28483.1,112.737,-4207.88,0,0
28743.4,115.278,-4174.11,0,0
29003.7,115.581,-4145.09,0,0
29264,108.503,-4109.72,0,0
29524.4,109.363,-4072.42,0,0
29784.7,104.728,-4036.66,0,0
30045,102.415,-4002.42,0,0
30305.3,101.638,-3964.77,0,0
30565.7,102.601,-3930.86,0,0
30826,102.248,-3898.41,0,0
31086.3,103.223,-3865.13,0,0
31346.6,99.6904,-3834.66,0,0
31607,98.3138,-3799.96,0,0
31867.3,99.2501,-3765.21,0,0
32127.6,102.822,-3730.88,0,0
32387.9,112.315,-3704.11,0,0
32648.3,114.546,-3687.1,0,0
32908.6,104.182,-3661.46,0,0
33168.9,101.655,-3634.16,0,0
33429.2,99.4319,-3607.87,0,0
33689.6,93.0142,-3578.73,0,0
33949.9,91.1496,-3548.22,0,0
34210.2,91.1879,-3520.06,0,0
34470.5,90.1561,-3494.02,0,0
34730.9,88.0182,-3467.31,0,0
34991.2,86.6003,-3440.16,0,0
35251.5,85.7958,-3413.42,0,0
35511.8,85.2174,-3388.4,0,0
35772.2,84.3295,-3362.98,0,0
36032.5,83.7523,-3337.65,0,0
36292.8,82.982,-3313.07,0,0
36553.1,82.7182,-3289.15,0,0
36813.5,81.53,-3265.54,0,0
37073.8,81.0607,-3242.07,0,0
37334.1,80.5378,-3218.37,0,0
37594.4,80.0098,-3195.67,0,0
37854.8,79.5414,-3173.17,0,0
38115.1,79.1312,-3150.93,0,0
38375.4,78.5936,-3128.9,0,0
38635.7,78.1093,-3107.25,0,0
38896.1,77.6692,-3086.03,0,0
39156.4,77.5941,-3065,0,0
39416.7,76.9833,-3044.69,0,0
39677,76.5248,-3024.14,0,0
39937.4,75.7922,-3003.66,0,0
40197.7,75.5246,-2983.54,0,0
40458,74.9729,-2963.85,0,0
40718.3,74.7118,-2944.04,0,0
40978.7,74.6088,-2924.65,0,0
41239,74.5019,-2905.4,0,0
41499.3,74.6197,-2886.97,0,0
41759.6,74.7014,-2868.5,0,0
42020,74.0285,-2850.85,0,0
42280.275,73.8842,-2832.62,0,0
42540.6,73.3936,-2815.08,0,0
42800.925,73.4259,-2797.37,0,0
43061.25,72.9015,-2780.26,0,0
43321.575,72.047,-2762.98,0,0
43581.9,71.9742,-2745.45,0,0
43842.225,72.0806,-2728.55,0,0
44102.55,72.033,-2711.54,0,0
44362.875,72.2502,-2696.25,0,0
44623.2,71.5682,-2680.04,0,0
44883.525,71.1358,-2663.69,0,0
45143.85,71.4218,-2648.04,0,0
45404.175,70.7303,-2632.39,0,0
45664.5,70.4518,-2616.57,0,0
45924.825,71.1919,-2601.29,0,0
46185.15,70.2671,-2587.03,0,0
46445.475,69.9881,-2571.34,0,0
46705.8,70.0352,-2555.9,0,0
46966.125,70.1438,-2541.76,0,0
47226.45,69.7637,-2527.4,0,0
47486.775,69.9878,-2512.55,0,0
47747.1,70.6105,-2498.08,0,0
48007.425,70.5505,-2485.4,0,0
48267.75,70.553,-2471.8,0,0
48528.075,69.928,-2458.65,0,0
48788.4,69.3346,-2445.5,0,0
49048.725,68.4853,-2432.09,0,0
49309.05,68.0993,-2418.29,0,0
49569.375,67.9423,-2405.09,0,0
49829.7,67.6916,-2392.08,0,0
50090.025,67.0222,-2379.26,0,0
50350.35,66.4476,-2366.06,0,0
50610.675,66.4103,-2352.99,0,0
50871.0,66.2213,-2340.26,0,0
51131.325,66.1195,-2327.66,0,0
51391.65,66.137,-2315.15,0,0
51651.975,66.2771,-2302.7,0,0
51912.3,66.0949,-2290.69,0,0
52172.625,65.9723,-2278.57,0,0
52432.95,65.8303,-2266.41,0,0
52693.275,66.0211,-2254.27,0,0
52953.6,66.3459,-2242.37,0,0
53213.925,66.9234,-2230.58,0,0
53474.25,67.6332,-2219.59,0,0
53734.575,67.814,-2208.65,0,0
53994.9,68.0615,-2197.56,0,0
54255.225,69.0762,-2186.66,0,0
54515.55,69.9449,-2177.34,0,0
54775.875,69.1386,-2167.99,0,0
55036.2,68.4728,-2157.73,0,0
55296.525,67.8765,-2148.24,0,0
55556.85,66.856,-2138.44,0,0
55817.175,65.1782,-2128.07,0,0
56077.5,64.1371,-2117.24,0,0
56337.825,63.4524,-2106.63,0,0
56598.15,62.458,-2096.07,0,0
56858.475,61.7383,-2085.35,0,0
57118.8,61.1024,-2074.36,0,0
57379.125,60.9618,-2063.6,0,0
57639.45,60.8913,-2053.12,0,0
57899.775,61.1054,-2042.89,0,0
58160.1,61.0612,-2032.79,0,0
58420.4,60.907,-2022.75,0,0
58680.7,60.8955,-2012.55,0,0
58941.1,61.0076,-2002.69,0,0
59201.4,61.3092,-1992.69,0,0
59461.7,61.5424,-1983.01,0,0
59722,61.8152,-1973.39,0,0
59982.4,62.0864,-1963.92,0,0
60242.7,62.3196,-1954.7,0,0
60503,62.6116,-1945.25,0,0
60763.3,62.8215,-1935.95,0,0
61023.7,63.0486,-1926.71,0,0
61284,63.4662,-1917.57,0,0
61544.3,63.9542,-1908.25,0,0
61804.6,64.4962,-1899.58,0,0
62065,64.6943,-1890.63,0,0
62325.3,65.2695,-1881.53,0,0
62585.6,65.8892,-1872.93,0,0
62845.9,66.4241,-1863.78,0,0
63106.3,67.3822,-1854.66,0,0
63366.6,68.7439,-1846.37,0,0
63626.9,69.553,-1837.46,0,0
63887.2,70.5905,-1829.13,0,0
64147.6,71.8865,-1819.94,0,0
64407.9,74.7722,-1811.28,0,0
64668.2,77.3646,-1804.11,0,0
64928.5,80.0052,-1796.06,0,0
65188.9,83.9192,-1790.28,0,0
65449.2,86.677,-1785.36,0,0
65709.5,88.7863,-1780.55,0,0
65969.8,92.0837,-1777.84,0,0
66230.2,92.0024,-1778.37,0,0
66490.5,85.321,-1776.15,0,0
66750.8,80.4766,-1768.95,0,0
67011.1,78.0101,-1760.34,0,0
67271.5,75.5605,-1752.09,0,0
67531.8,74.6615,-1743.52,0,0
67792.1,74.7245,-1735.33,0,0
68052.4,74.8062,-1727.29,0,0
68312.8,75.9541,-1720.34,0,0
68573.1,75.7523,-1713.8,0,0
68833.4,76.2334,-1706.88,0,0
69093.7,77.0396,-1700.45,0,0
69354.1,77.6965,-1694.99,0,0
69614.4,77.5485,-1689.64,0,0
69874.7,76.7857,-1684.12,0,0
70135,76.0329,-1678.51,0,0
70395.4,75.2492,-1672.5,0,0
70655.7,74.166,-1666.73,0,0
70916,72.8241,-1660.57,0,0
71176.3,71.5209,-1653.85,0,0
71436.7,70.9816,-1647.1,0,0
71697,70.1352,-1640.24,0,0
71957.3,70.2359,-1633.2,0,0
72217.6,70.4979,-1626.82,0,0
72478,70.739,-1620.82,0,0
72738.3,70.8081,-1615.08,0,0
72998.6,70.6199,-1609.63,0,0
73258.9,70.128,-1603.8,0,0
73519.3,69.7469,-1598.2,0,0
73779.6,69.4924,-1592.57,0,0
74039.9,68.8355,-1587.3,0,0
74300.225,68.1071,-1581.7,0,0
74560.55,67.3926,-1576.06,0,0
74820.875,66.5788,-1570.51,0,0
75081.2,65.9297,-1564.77,0,0
75341.525,65.0339,-1558.95,0,0
75601.85,64.1634,-1553.18,0,0
75862.175,63.3478,-1547.41,0,0
76122.5,62.6183,-1541.44,0,0
76382.825,61.948,-1535.64,0,0
76643.15,61.2932,-1529.77,0,0
76903.475,60.7141,-1523.88,0,0
77163.8,60.1489,-1518.03,0,0
77424.125,59.5673,-1512.34,0,0
77684.45,59.0309,-1506.55,0,0
77944.775,58.453,-1500.81,0,0
78205.1,57.9235,-1495.06,0,0
78465.425,57.412,-1489.3,0,0
78725.75,56.9313,-1483.53,0,0
78986.075,56.4634,-1477.81,0,0
79246.4,56.0909,-1472.11,0,0
79506.725,55.7233,-1466.42,0,0
79767.05,55.2613,-1460.71,0,0
80027.375,54.9881,-1455.07,0,0
80287.7,54.7056,-1449.41,0,0
80548.025,54.4736,-1443.96,0,0
80808.35,54.2722,-1438.37,0,0
81068.675,53.9837,-1432.92,0,0
81329.0,53.7522,-1427.43,0,0
81589.325,53.5714,-1421.96,0,0
81849.65,53.4192,-1416.54,0,0
82109.975,53.3229,-1411.08,0,0
82370.3,53.1855,-1405.81,0,0
82630.625,53.0179,-1400.45,0,0
82890.95,52.919,-1395.2,0,0
83151.275,52.8352,-1389.96,0,0
83411.6,52.7237,-1384.74,0,0
83671.925,52.6207,-1379.58,0,0
83932.25,52.6358,-1374.39,0,0
84192.575,52.5521,-1369.25,0,0
84452.9,52.5657,-1364.22,0,0
84713.225,52.4407,-1359.21,0,0
84973.55,52.4139,-1353.99,0,0
85233.875,52.3783,-1349.07,0,0
85494.2,52.4047,-1344.07,0,0
85754.525,52.4507,-1339.05,0,0
86014.85,52.4027,-1334.16,0,0
86275.175,52.3834,-1329.31,0,0
86535.5,52.3853,-1324.39,0,0
86795.825,52.3476,-1319.51,0,0
87056.15,52.4152,-1314.6,0,0
87316.475,52.496,-1309.65,0,0
87576.8,52.5965,-1304.95,0,0
87837.125,52.7275,-1300.24,0,0
88097.45,52.8881,-1295.39,0,0
88357.775,52.8513,-1290.61,0,0
88618.1,53.0311,-1285.74,0,0
88878.425,53.2213,-1280.99,0,0
89138.75,53.6813,-1276.1,0,0
89399.075,54.1547,-1271.46,0,0
89659.4,54.6015,-1266.93,0,0
89919.725,55.068,-1262.5,0,0
90180,55.4271,-1258.29,0,0
90440.4,55.7538,-1253.96,0,0
90700.7,55.9248,-1249.7,0,0
90961,56.3426,-1245.32,0,0
91221.3,56.8202,-1241.12,0,0
91481.7,57.1623,-1236.89,0,0
91742,57.5098,-1232.76,0,0
92002.3,57.9117,-1228.65,0,0
92262.6,58.331,-1224.47,0,0
92523,59.0845,-1220.49,0,0
92783.3,59.4911,-1216.87,0,0
93043.6,59.8049,-1212.93,0,0
93303.9,60.513,-1209.11,0,0
93564.3,61.1848,-1205.65,0,0
93824.6,61.8371,-1202.41,0,0
94084.9,62.2098,-1199.66,0,0
94345.2,61.9757,-1197.11,0,0
94605.6,61.3165,-1194.1,0,0
94865.9,60.7494,-1191,0,0
95126.2,59.5684,-1188.02,0,0
95386.5,58.2481,-1184.28,0,0
95646.9,57.1474,-1180.04,0,0
95907.2,56.3911,-1175.77,0,0
96167.5,55.7082,-1171.31,0,0
96427.8,55.4482,-1166.81,0,0
96688.2,55.2763,-1162.48,0,0
96948.5,55.254,-1158.36,0,0
97208.8,55.1643,-1154.23,0,0
97469.1,55.0516,-1150.18,0,0
97729.5,54.9994,-1146.1,0,0
97989.8,54.9869,-1142.04,0,0
98250.1,54.9806,-1138.05,0,0
98510.4,55.0211,-1134.08,0,0
98770.8,55.0549,-1130.18,0,0
99031.1,54.9789,-1126.34,0,0
99291.4,54.9218,-1122.43,0,0
99551.7,54.9252,-1118.56,0,0
99812.1,54.8434,-1114.61,0,0
100072,54.8817,-1110.78,0,0
100333,54.772,-1106.9,0,0
100593,54.6174,-1102.97,0,0
100853,54.5834,-1098.9,0,0
101114,54.7012,-1094.75,0,0
101374,54.8365,-1090.75,0,0
101634,54.9459,-1086.65,0,0
101895,55.2283,-1082.53,0,0
102155,55.6199,-1078.4,0,0
102415,56.2147,-1074.17,0,0
102676,57.1492,-1070.26,0,0
102936,58.0273,-1066.68,0,0
103196,58.7144,-1063.29,0,0
103457,59.2931,-1059.82,0,0
103717,59.9082,-1056.36,0,0
103977,60.6676,-1052.89,0,0
104238,61.6603,-1049.66,0,0
104498,62.5215,-1046.86,0,0
104758,63.0326,-1044.3,0,0
105019,63.2557,-1041.57,0,0
105279,63.3126,-1038.74,0,0
105539,63.6018,-1035.83,0,0
105800,63.714,-1033.19,0,0
106060,63.6893,-1030.5,0,0
106320.175,63.3441,-1027.74,0,0
106580.5,63.0207,-1024.7,0,0
106840.825,62.8392,-1021.83,0,0
107101.15,62.3797,-1018.76,0,0
107361.475,62.0001,-1015.58,0,0
107621.8,61.6363,-1012.38,0,0
107882.125,61.3164,-1009.08,0,0
108142.45,60.9913,-1005.84,0,0
108402.775,60.5465,-1002.6,0,0
108663.1,60.0312,-999.089,0,0
108923.425,59.6253,-995.375,0,0
109183.75,59.4871,-991.579,0,0
109444.075,59.5974,-987.926,0,0
109704.4,59.5296,-984.427,0,0
109964.725,59.4448,-980.75,0,0
110225.05,59.3734,-976.994,0,0
110485.375,59.6093,-973.113,0,0
110745.7,60.014,-969.338,0,0
111006.025,60.4601,-965.84,0,0
111266.35,60.9004,-962.405,0,0
111526.675,61.4927,-958.972,0,0
111787.0,62.0434,-955.594,0,0
112047.325,62.4197,-952.38,0,0
112307.65,62.8665,-949.186,0,0
112567.975,63.3257,-946.037,0,0
112828.3,63.6816,-942.924,0,0
113088.625,64.0267,-939.9,0,0
113348.95,64.2069,-936.852,0,0
113609.275,64.321,-933.666,0,0
113869.6,64.507,-930.421,0,0
114129.925,64.8019,-927.243,0,0
114390.25,64.8788,-923.97,0,0
114650.575,65.0763,-920.536,0,0
114910.9,65.3023,-916.976,0,0
115171.225,65.7152,-913.465,0,0
115431.55,66.3123,-909.981,0,0
115691.875,66.9436,-906.654,0,0
115952.2,67.4447,-903.283,0,0
116212.525,68.0832,-899.905,0,0
116472.85,68.8282,-896.408,0,0
116733.175,69.7159,-893.145,0,0
116993.5,70.503,-889.873,0,0
117253.825,71.3343,-886.559,0,0
117514.15,72.1907,-882.992,0,0
117774.475,73.6345,-879.39,0,0
118034.8,75.4764,-876.358,0,0
118295.125,77.1455,-873.847,0,0
118555.45,78.466,-871.569,0,0
118815.775,79.2968,-869.024,0,0
119076.1,80.5757,-866.093,0,0
119336.425,82.2531,-863.354,0,0
119596.75,84.2568,-861.079,0,0
119857.075,86.3611,-859.34,0,0
120117.4,88.255,-858.417,0,0
120377.725,89.2721,-858.067,0,0
120638.05,89.6174,-857.456,0,0
120898.375,89.4864,-856.873,0,0
121158.7,88.6282,-855.918,0,0
121419.025,87.5471,-854.303,0,0
121679.35,86.3406,-852.119,0,0
121939.675,85.4806,-849.215,0,0
122200.0,85.118,-846.232,0,0
122460,85.0458,-843.223,0,0
122721,85.2881,-840.3,0,0
122981,85.688,-837.533,0,0
123241,86.1667,-834.947,0,0
123502,86.5424,-832.586,0,0
123762,86.8272,-830.085,0,0
124022,87.2554,-827.571,0,0
124283,87.697,-825.205,0,0
124543,88.0932,-822.867,0,0
124803,88.51,-820.645,0,0
125064,88.9039,-818.258,0,0
125324,89.4519,-815.996,0,0
125584,89.9784,-813.953,0,0
125845,90.3993,-812.047,0,0
126105,90.6721,-810.201,0,0
126365,90.7223,-808.344,0,0
126626,90.6988,-806.32,0,0
126886,90.7937,-804.249,0,0
127146,90.8154,-802.084,0,0
127406,90.9011,-800.122,0,0
127667,90.8555,-798.267,0,0
127927,90.7722,-796.269,0,0
128187,90.5169,-794.322,0,0
128448,90.0213,-792.186,0,0
128708,89.6199,-789.791,0,0
128968,89.4311,-787.345,0,0
129229,89.2641,-784.909,0,0
129489,89.1323,-782.531,0,0
129749,88.9436,-780.042,0,0
130010,88.8271,-777.33,0,0
130270,89.0557,-774.673,0,0
130530,89.4564,-772.305,0,0
130791,89.7879,-770.209,0,0
131051,89.8923,-768.201,0,0
131311,89.8412,-766.255,0,0
131572,89.649,-764.223,0,0
131832,89.292,-762.078,0,0
132092,88.9692,-759.757,0,0
132353,88.7134,-757.39,0,0
132613,88.5454,-755.014,0,0
132873,88.3733,-752.734,0,0
133134,88.0673,-750.462,0,0
133394,87.7619,-748.111,0,0
133654,87.3791,-745.703,0,0
133915,86.9781,-743.162,0,0
134175,86.7137,-740.539,0,0
134435,86.5659,-738.031,0,0
134696,86.3418,-735.567,0,0
134956,85.9856,-733.079,0,0
135216,85.6285,-730.421,0,0
135477,85.4153,-727.787,0,0
135737,85.2002,-725.187,0,0
135997,84.8896,-722.624,0,0
136258,84.4115,-719.912,0,0
136518,84.0168,-716.963,0,0
136778,83.6992,-713.962,0,0
137039,83.5336,-710.901,0,0
137299,83.5229,-707.766,0,0
137559,83.7009,-704.624,0,0
137819,84.0412,-701.739,0,0
138080,84.3511,-698.959,0,0
138340.125,84.6129,-696.229,0,0
138600.45,84.9033,-693.592,0,0
138860.775,85.1519,-691.166,0,0
139121.1,85.2227,-688.784,0,0
139381.425,85.117,-686.373,0,0
139641.75,84.8107,-683.817,0,0
139902.075,84.6345,-681.044,0,0
140162.4,84.5959,-678.202,0,0
140422.725,84.5246,-675.59,0,0
140683.05,84.3447,-672.921,0,0
140943.375,84.0619,-670.228,0,0
141203.7,83.6828,-667.41,0,0
141464.025,83.3056,-664.463,0,0
141724.35,82.9325,-661.344,0,0
141984.675,82.6727,-658.144,0,0
142245.0,82.4893,-654.942,0,0
142505.325,82.2983,-651.693,0,0
142765.65,82.1164,-648.38,0,0
143025.975,82.0148,-644.938,0,0
143286.3,82.0437,-641.542,0,0
143546.625,82.0839,-638.107,0,0
143806.95,82.1438,-634.65,0,0
144067.275,82.1799,-631.12,0,0
144327.6,82.3615,-627.508,0,0
144587.925,82.6197,-623.936,0,0
144848.25,82.9053,-620.315,0,0
145108.575,83.2862,-616.724,0,0
145368.9,83.5941,-613.183,0,0
145629.225,83.9009,-609.588,0,0
145889.55,84.1881,-605.842,0,0
146149.875,84.603,-601.935,0,0
146410.2,85.2533,-598.026,0,0
146670.525,85.9131,-594.268,0,0
146930.85,86.5397,-590.415,0,0
147191.175,87.2821,-586.527,0,0
147451.5,88.0447,-582.59,0,0
147711.825,88.9426,-578.595,0,0
147972.15,89.9453,-574.659,0,0
148232.475,90.947,-570.722,0,0
148492.8,91.9773,-566.713,0,0
148753.125,93.0969,-562.609,0,0
149013.45,94.3813,-558.454,0,0
149273.775,95.8054,-554.249,0,0
149534.1,97.4017,-549.973,0,0
149794.425,99.2823,-545.791,0,0
150054.75,101.317,-541.821,0,0
150315.075,103.38,-537.959,0,0
150575.4,105.508,-534.135,0,0
150835.725,107.711,-530.393,0,0
151096.05,110.053,-526.771,0,0
151356.375,112.439,-523.205,0,0
151616.7,114.972,-519.719,0,0
151877.025,117.625,-516.526,0,0
152137.35,120.16,-513.595,0,0
152397.675,122.537,-510.735,0,0
152658.0,124.866,-507.911,0,0
152918.325,127.17,-505.142,0,0
153178.65,129.403,-502.501,0,0
153438.975,131.446,-499.832,0,0
153699.3,133.441,-497.12,0,0
153959.625,135.392,-494.316,0,0
154219.95,137.489,-491.536,0,0
154480,139.425,-488.959,0,0
154741,140.93,-486.1,0,0
155001,142.754,-482.729,0,0
155261,144.93,-479.483,0,0
155522,147.325,-476.434,0,0
155782,149.475,-473.633,0,0
156042,151.444,-470.797,0,0
156303,153.264,-467.667,0,0
156563,155.132,-464.108,0,0
156823,157.586,-460.158,0,0
157084,160.801,-456.481,0,0
157344,164.129,-453.535,0,0
157604,167.649,-450.914,0,0
157864,171.029,-448.884,0,0
158125,173.896,-447.41,0,0
158385,175.886,-446.148,0,0
158645,177.172,-444.378,0,0
158906,178.17,-442.065,0,0
159166,178.811,-439.271,0,0
159426,179.466,-435.469,0,0
159687,180.586,-431.41,0,0
159947,181.696,-426.603,0,0
160207,183.85,-421.096,0,0
160468,187.077,-416.048,0,0
160728,190.3,-411.586,0,0
160988,192.835,-407.232,0,0
161249,195.339,-401.526,0,0
161509,199.449,-395.143,0,0
161769,204.802,-389.636,0,0
162030,210.227,-385.146,0,0
162290,215.056,-380.768,0,0
162550,220.133,-376.068,0,0
162811,225.184,-371.289,0,0
163071,230.681,-365.641,0,0
163331,237.301,-359.78,0,0
163592,245.339,-353.984,0,0
163852,254.609,-349.36,0,0
164112,264.028,-345.958,0,0
164373,273.459,-342.858,0,0
164633,283.529,-340.313,0,0
164893,294.082,-338.43,0,0
165154,305.292,-337.572,0,0
165414,316.619,-338.189,0,0
165674,327.506,-340.014,0,0
165935,337.621,-342.511,0,0
166195,347.944,-345.099,0,0
166455,358.685,-349.239,0,0
166716,368.438,-355.013,0,0
166976,376.796,-361.78,0,0
167236,383.71,-368.274,0,0
167497,390.423,-374.953,0,0
167757,396.158,-381.85,0,0
168017,401.322,-389.097,0,0
168277,405.687,-396.474,0,0
168538,408.932,-403.627,0,0
168798,411.899,-410.218,0,0
169058,414.896,-417.054,0,0
169319,417.241,-424.684,0,0
169579,418.06,-432.66,0,0
169839,416.886,-440.199,0,0
170100,414.333,-445.678,0,0
170360.075,412.449,-449.007,0,0
170620.4,411.631,-451.67,0,0
170880.725,411.306,-454.773,0,0
171141.05,410.368,-457.629,0,0
171401.375,409.849,-459.503,0,0
171661.7,409.989,-461.495,0,0
171922.025,410.101,-463.509,0,0
172182.35,410.266,-465.311,0,0
172442.675,410.593,-466.715,0,0
172703.0,411.795,-467.751,0,0
172963.325,414.02,-469.644,0,0
173223.65,415.808,-472.866,0,0
173483.975,416.377,-476.204,0,0
173744.3,416.454,-478.674,0,0
174004.625,417.147,-480.219,0,0
174264.95,419.21,-481.992,0,0
174525.275,421.589,-485.509,0,0
174785.6,422.514,-489.853,0,0
175045.925,422.546,-493.159,0,0
175306.25,423.431,-495.508,0,0
175566.575,425.916,-498.529,0,0
175826.9,428.481,-503.975,0,0
176087.225,429.24,-510.708,0,0
176347.55,428.722,-517.619,0,0
176607.875,426.949,-525.032,0,0
176868.2,423.112,-532.579,0,0
177128.525,417.022,-538.811,0,0
177388.85,410.117,-542.689,0,0
177649.175,403.653,-545.053,0,0
177909.5,397.313,-546.892,0,0
178169.825,390.154,-547.64,0,0
178430.15,383.085,-546.242,0,0
178690.475,377.518,-543.074,0,0
178950.8,373.631,-539.747,0,0
179211.125,370.75,-536.503,0,0
179471.45,368.421,-533.486,0,0
179731.775,366.468,-530.235,0,0
179992.1,365.471,-526.66,0,0
180252.425,365.536,-523.554,0,0
180512.75,366.091,-520.94,0,0
180773.075,367.279,-518.872,0,0
181033.4,368.635,-517.671,0,0
181293.725,370.002,-517.019,0,0
181554.05,371.331,-516.842,0,0
181814.375,372.735,-517.416,0,0
182074.7,373.541,-518.635,0,0
182335.025,373.85,-519.974,0,0
182595.35,373.775,-521.848,0,0
182855.675,372.894,-523.79,0,0
183116.0,371.527,-525.561,0,0
183376.325,369.657,-527.426,0,0
183636.65,366.841,-529.072,0,0
183896.975,363.395,-529.757,0,0
184157.3,360.172,-529.482,0,0
184417.625,357.395,-529.272,0,0
184677.95,354.078,-529.141,0,0
184938.275,350.28,-528.262,0,0
185198.6,346.51,-526.712,0,0
185458.925,342.906,-524.583,0,0
185719.25,339.361,-521.999,0,0
185979.575,335.89,-518.649,0,0
186239.9,332.924,-514.384,0,0
186500,331.04,-509.567,0,0
186761,330.3,-504.987,0,0
187021,330.042,-500.978,0,0
187281,329.861,-497.298,0,0
187542,329.788,-493.782,0,0
187802,329.854,-490.422,0,0
188062,329.912,-487.216,0,0
188322,329.883,-484.088,0,0
188583,329.644,-480.898,0,0
188843,329.216,-477.27,0,0
189103,329.151,-472.972,0,0
189364,329.838,-468.343,0,0
189624,331.383,-463.989,0,0
189884,333.31,-460.21,0,0
190145,335.36,-456.82,0,0
190405,337.37,-453.892,0,0
190665,339.109,-451.151,0,0
190926,340.734,-448.392,0,0
191186,342.37,-445.628,0,0
191446,343.968,-442.918,0,0
191707,345.305,-440.158,0,0
191967,346.708,-437.123,0,0
192227,348.157,-434.036,0,0
192488,349.408,-430.536,0,0
192748,351.107,-426.56,0,0
193008,353.333,-422.382,0,0
193269,356.123,-418.12,0,0
193529,359.526,-414.113,0,0
193789,363.285,-410.496,0,0
194050,367.071,-407.093,0,0
194310,371.161,-403.838,0,0
194570,375.466,-400.7,0,0
194831,379.783,-397.81,0,0
195091,384.332,-394.735,0,0
195351,389.609,-391.512,0,0
195612,395.881,-388.814,0,0
195872,402.722,-387.265,0,0
196132,409.376,-386.794,0,0
196393,415.83,-387.115,0,0
196653,422.016,-388.508,0,0
196913,427.234,-390.478,0,0
197174,431.563,-392.454,0,0
197434,435.606,-394.415,0,0
197694,439.064,-396.793,0,0
197955,441.518,-398.966,0,0
198215,443.439,-400.302,0,0
198475,445.756,-401.334,0,0
198735,447.775,-402.766,0,0
198996,448.981,-403.465,0,0
199256,450.529,-403.397,0,0
199516,452.415,-403.197,0,0
199777,454.451,-403.16,0,0
200037,456.105,-403.162,0,0
200297,457.422,-402.861,0,0
200558,458.383,-401.733,0,0
200818,460.034,-399.508,0,0
201078,462.533,-397.136,0,0
201339,465.631,-394.691,0,0
201599,469.191,-392.273,0,0
201859,473.473,-389.771,0,0
202120,478.299,-387.58,0,0
202380.025,484.07,-385.671,0,0
202640.35,490.34,-384.985,0,0
202900.675,496.108,-384.99,0,0
203161.0,501.684,-385.015,0,0
203421.325,507.441,-385.136,0,0
203681.65,513.55,-385.484,0,0
203941.975,520.085,-386.313,0,0
204202.3,526.978,-388.145,0,0
204462.625,533.406,-391.344,0,0
204722.95,538.725,-395.122,0,0
204983.275,543.157,-399.038,0,0
205243.6,546.502,-402.966,0,0
205503.925,549.045,-406.246,0,0
205764.25,551.506,-409.048,0,0
206024.575,553.186,-411.658,0,0
206284.9,554.219,-412.993,0,0
206545.225,555.481,-412.717,0,0
206805.55,558.013,-411.287,0,0
207065.875,562.332,-409.542,0,0
207326.2,567.824,-408.729,0,0
207586.525,573.438,-408.535,0,0
207846.85,579.503,-408.38,0,0
208107.175,586.624,-408.565,0,0
208367.5,594.171,-409.941,0,0
208627.825,601.725,-412.271,0,0
208888.15,609.086,-415.189,0,0
209148.475,616.211,-418.578,0,0
209408.8,623.028,-422.306,0,0
209669.125,629.91,-426.497,0,0
209929.45,636.924,-431.032,0,0
210189.775,643.547,-436.2,0,0
210450.1,649.753,-441.73,0,0
210710.425,655.901,-447.287,0,0
210970.75,661.863,-453.377,0,0
211231.075,667.575,-459.774,0,0
211491.4,672.924,-466.62,0,0
211751.725,677.71,-473.48,0,0
212012.05,682.33,-480.219,0,0
212272.375,687.021,-486.977,0,0
212532.7,691.765,-493.917,0,0
212793.025,696.666,-501.451,0,0
213053.35,701.387,-509.61,0,0
213313.675,705.535,-518.584,0,0
213574.0,708.605,-527.835,0,0
213834.325,711.089,-536.94,0,0
214094.65,713.097,-545.776,0,0
214354.975,714.644,-554.617,0,0
214615.3,715.993,-563.138,0,0
214875.625,717.363,-571.62,0,0
215135.95,718.688,-580.211,0,0
215396.275,719.8,-589.256,0,0
215656.6,720.136,-598.262,0,0
215916.925,720.09,-606.95,0,0
216177.25,719.845,-615.672,0,0
216437.575,719.56,-624.351,0,0
216697.9,718.942,-633.157,0,0
216958.225,717.869,-641.831,0,0
217218.55,716.611,-650.291,0,0
217478.875,715.524,-658.814,0,0
217739.2,713.909,-667.7,0,0
217999.525,711.758,-676.444,0,0
218259.85,709.182,-684.981,0,0
218520,706.356,-693.234,0,0
218780,703.343,-701.127,0,0
219041,700.147,-709.037,0,0
219301,696.626,-716.625,0,0
219561,693.017,-723.723,0,0
219822,689.801,-730.787,0,0
220082,686.627,-737.725,0,0
220342,683.706,-745.05,0,0
220603,680.683,-752.904,0,0
220863,677.106,-761.018,0,0
221123,673.231,-769.384,0,0
221384,668.744,-778.051,0,0
221644,663.344,-787.136,0,0
221904,656.786,-795.888,0,0
222165,649.339,-804.15,0,0
222425,641.076,-811.639,0,0
222685,632.508,-818.301,0,0
222946,623.476,-824.516,0,0
223206,613.478,-829.537,0,0
223466,603.455,-833.003,0,0
223727,594.134,-835.377,0,0
223987,585.232,-837.051,0,0
224247,576.915,-838.033,0,0
224508,569.195,-838.476,0,0
224768,562.397,-838.397,0,0
225028,556.387,-838.317,0,0
225289,550.8,-838.14,0,0
225549,545.818,-838.518,0,0
225809,540.95,-838.822,0,0
226070,536.644,-839.143,0,0
226330,532.613,-839.87,0,0
226590,529.015,-840.779,0,0
226851,525.611,-842.343,0,0
227111,522.286,-844.508,0,0
227371,518.413,-847.417,0,0
227632,513.537,-850.465,0,0
227892,508.097,-853.032,0,0
228152,502.524,-854.959,0,0
228413,496.908,-856.674,0,0
228673,491.363,-858.063,0,0
228933,485.938,-859.08,0,0
229193,480.816,-860.118,0,0
229454,475.904,-861.194,0,0
229714,470.921,-862.633,0,0
229974,465.697,-864.008,0,0
230235,460.091,-865.419,0,0
230495,454.363,-866.442,0,0
230755,448.528,-867.276,0,0
231016,442.582,-867.71,0,0
231276,436.87,-867.781,0,0
231536,431.22,-867.637,0,0
231797,425.913,-867.405,0,0
232057,420.667,-867.152,0,0
232317,415.43,-866.732,0,0
232578,410.363,-866.223,0,0
232838,405.443,-865.76,0,0
233098,400.495,-865.243,0,0
233359,395.605,-864.606,0,0
233619,390.834,-863.86,0,0
233879,386.185,-863.05,0,0
234140,381.667,-862.171,0,0
234400,377.383,-861.514,0,0
234660.3,372.927,-860.867,0,0
234920.625,368.665,-860.485,0,0
235180.95,364.048,-859.802,0,0
235441.275,359.472,-859.504,0,0
235701.6,354.719,-859.17,0,0
235961.925,349.603,-858.373,0,0
236222.25,344.543,-857.384,0,0
236482.575,339.581,-856.069,0,0
236742.9,334.809,-854.727,0,0
237003.225,330.039,-853.447,0,0
237263.55,325.112,-852.126,0,0
237523.875,320.094,-850.597,0,0
237784.2,315.063,-848.772,0,0
238044.525,310.091,-846.578,0,0
238304.85,305.297,-844.239,0,0
238565.175,300.762,-841.728,0,0
238825.5,296.291,-839.146,0,0
239085.825,291.969,-836.436,0,0
239346.15,287.758,-833.595,0,0
239606.475,283.7,-830.584,0,0
239866.8,279.759,-827.656,0,0
240127.125,276.039,-824.827,0,0
240387.45,272.405,-821.687,0,0
240647.775,268.67,-818.572,0,0
240908.1,265.053,-815.316,0,0
241168.425,261.527,-811.751,0,0
241428.75,258.388,-807.907,0,0
241689.075,255.413,-804.092,0,0
241949.4,252.775,-800.058,0,0
242209.725,250.55,-796.195,0,0
242470.05,248.564,-792.36,0,0
242730.375,246.893,-788.51,0,0
242990.7,245.652,-784.96,0,0
243251.025,244.611,-781.769,0,0
243511.35,243.615,-778.973,0,0
243771.675,242.394,-776.454,0,0
244032.0,241.071,-774.146,0,0
244292.325,239.394,-771.812,0,0
244552.65,237.622,-769.366,0,0
244812.975,236.058,-766.706,0,0
245073.3,234.351,-764.102,0,0
245333.625,232.708,-761.438,0,0
245593.95,231.381,-758.666,0,0
245854.275,230.002,-755.795,0,0
246114.6,228.691,-753.202,0,0
246374.925,227.507,-750.476,0,0
246635.25,226.371,-747.8,0,0
246895.575,225.289,-745.096,0,0
247155.9,224.282,-742.534,0,0
247416.225,223.277,-739.976,0,0
247676.55,222.313,-737.269,0,0
247936.875,221.331,-734.478,0,0
248197.2,220.657,-731.58,0,0
248457.525,220.253,-728.712,0,0
248717.85,220.14,-726.013,0,0
248978.175,220.265,-723.663,0,0
249238.5,220.29,-721.601,0,0
249498.825,220.251,-719.713,0,0
249759.15,220.131,-717.945,0,0
250019.475,219.959,-716.253,0,0
250279.8,219.977,-714.73,0,0
250540,219.671,-713.404,0,0
250800,219.277,-712.173,0,0
251061,218.74,-710.913,0,0
251321,218.089,-709.74,0,0
251581,217.296,-708.566,0,0
251842,216.303,-707.366,0,0
252102,215.168,-706.101,0,0
252362,213.909,-704.685,0,0
252623,212.573,-703.112,0,0
252883,211.199,-701.43,0,0
253143,209.828,-699.701,0,0
253404,208.284,-697.764,0,0
253664,206.712,-695.516,0,0
253924,205.275,-692.966,0,0
254185,203.994,-690.267,0,0
254445,202.957,-687.529,0,0
254705,202.089,-684.516,0,0
254966,201.175,-681.639,0,0
255226,200.601,-678.527,0,0
255486,200.044,-675.179,0,0
255747,199.879,-671.712,0,0
256007,200.114,-668.181,0,0
256267,200.736,-664.74,0,0
256528,201.722,-661.525,0,0
256788,202.854,-658.584,0,0
257048,203.998,-655.86,0,0
257309,205.26,-653.187,0,0
257569,206.627,-650.598,0,0
257829,208.155,-648.154,0,0
258090,209.692,-645.815,0,0
258350,211.385,-643.58,0,0
258610,213.173,-641.362,0,0
258871,215.158,-639.175,0,0
259131,217.494,-637.064,0,0
259391,219.982,-635.116,0,0
259651,222.832,-633.562,0,0
259912,225.864,-632.321,0,0
260172,229.008,-631.273,0,0
260432,232.375,-630.614,0,0
260693,236.137,-630.416,0,0
260953,240.023,-630.966,0,0
261213,243.772,-632.423,0,0
261474,246.968,-634.605,0,0
261734,249.539,-637.181,0,0
261994,251.622,-640.027,0,0
262255,253.129,-643.095,0,0
262515,254.029,-646.316,0,0
262775,254.386,-649.411,0,0
263036,254.321,-652.392,0,0
263296,253.879,-655.332,0,0
263556,253.163,-657.984,0,0
263817,252.063,-660.601,0,0
264077,250.638,-663.014,0,0
264337,249.01,-665.12,0,0
264598,247.398,-667.089,0,0
264858,245.502,-668.944,0,0
265118,243.556,-670.676,0,0
265379,241.309,-672.385,0,0
265639,238.854,-673.791,0,0
265899,236.089,-675.07,0,0
266160,233.149,-676.085,0,0
266420,229.932,-676.736,0,0
266680.25,226.686,-676.983,0,0
266940.575,223.415,-676.795,0,0
267200.9,220.232,-676.238,0,0
267461.225,217.189,-675.366,0,0
267721.55,214.332,-674.249,0,0
267981.875,211.661,-672.94,0,0
268242.2,209.167,-671.455,0,0
268502.525,206.805,-669.822,0,0
268762.85,204.652,-668.052,0,0
269023.175,202.66,-666.289,0,0
269283.5,200.875,-664.352,0,0
269543.825,199.104,-662.339,0,0
269804.15,197.575,-660.243,0,0
270064.475,196.224,-658.042,0,0
270324.8,195.202,-655.84,0,0
270585.125,194.329,-653.668,0,0
270845.45,193.639,-651.549,0,0
271105.775,193.191,-649.626,0,0
271366.1,192.756,-647.812,0,0
271626.425,192.275,-646.127,0,0
271886.75,191.851,-644.48,0,0
272147.075,191.344,-642.842,0,0
272407.4,190.869,-641.261,0,0
272667.725,190.354,-639.582,0,0
272928.05,189.912,-637.791,0,0
273188.375,189.531,-635.998,0,0
273448.7,189.269,-634.119,0,0
273709.025,189.139,-632.217,0,0
273969.35,189.139,-630.38,0,0
274229.675,189.269,-628.425,0,0
274490.0,189.373,-626.613,0,0
274750.325,189.748,-624.787,0,0
275010.65,190.018,-622.915,0,0
275270.975,190.657,-620.971,0,0
275531.3,191.411,-619.172,0,0
275791.625,192.363,-617.388,0,0
276051.95,193.421,-615.78,0,0
276312.275,194.698,-614.25,0,0
276572.6,196.164,-612.963,0,0
276832.925,197.689,-611.898,0,0
277093.25,199.254,-611.101,0,0
277353.575,200.852,-610.469,0,0
277613.9,202.413,-610.032,0,0
277874.225,204.022,-609.732,0,0
278134.55,205.686,-609.64,0,0
278394.875,207.329,-609.809,0,0
278655.2,208.898,-610.269,0,0
278915.525,210.358,-610.937,0,0
279175.85,211.585,-611.815,0,0
279436.175,212.762,-612.895,0,0
279696.5,213.726,-614.072,0,0
279956.825,214.421,-615.523,0,0
280217.15,214.793,-617.016,0,0
280477.475,215.015,-618.561,0,0
280737.8,214.984,-620.031,0,0
280998.125,214.715,-621.488,0,0
281258.45,214.316,-622.93,0,0
281518.775,213.679,-624.371,0,0
281779.1,212.82,-625.67,0,0
282039.425,211.726,-626.875,0,0
282299.75,210.616,-627.873,0,0
282560,209.419,-628.742,0,0
282820,208.163,-629.558,0,0
283081,206.766,-630.252,0,0
283341,205.337,-630.79,0,0
283601,203.821,-631.219,0,0
283862,202.312,-631.508,0,0
284122,200.737,-631.715,0,0
284382,199.178,-631.795,0,0
284643,197.603,-631.687,0,0
284903,196.064,-631.445,0,0
285163,194.518,-631.101,0,0
285424,193.166,-630.645,0,0
285684,191.752,-630.183,0,0
285944,190.452,-629.564,0,0
286205,189.184,-628.93,0,0
286465,187.983,-628.212,0,0
286725,186.881,-627.441,0,0
286986,185.837,-626.641,0,0
287246,184.851,-625.827,0,0
287506,183.968,-624.99,0,0
287767,183.155,-624.167,0,0
288027,182.368,-623.312,0,0
288287,181.655,-622.439,0,0
288548,181.033,-621.52,0,0
288808,180.524,-620.615,0,0
289068,180.133,-619.768,0,0
289329,179.893,-619.039,0,0
289589,179.664,-618.477,0,0
289849,179.507,-618.02,0,0
290109,179.242,-617.703,0,0
290370,178.825,-617.475,0,0
290630,178.379,-617.291,0,0
290890,177.841,-617.133,0,0
291151,177.194,-616.985,0,0
291411,176.44,-616.827,0,0
291671,175.602,-616.651,0,0
291932,174.661,-616.376,0,0
292192,173.609,-616.007,0,0
292452,172.56,-615.459,0,0
292713,171.497,-614.744,0,0
292973,170.532,-613.95,0,0
293233,169.648,-613.049,0,0
293494,168.814,-612.075,0,0
293754,168.082,-611.018,0,0
294014,167.464,-609.876,0,0
294275,167.016,-608.696,0,0
294535,166.743,-607.464,0,0
294795,166.699,-606.282,0,0
295056,166.805,-605.241,0,0
295316,167.07,-604.396,0,0
295576,167.433,-603.725,0,0
295837,167.766,-603.243,0,0
296097,168.051,-602.911,0,0
296357,168.287,-602.723,0,0
296618,168.454,-602.669,0,0
296878,168.534,-602.707,0,0
297138,168.504,-602.809,0,0
297399,168.392,-602.946,0,0
297659,168.184,-603.108,0,0
297919,167.882,-603.296,0,0
298180,167.56,-603.452,0,0
298440,167.176,-603.646,0,0
298700.2,166.732,-603.856,0,0
298960.525,166.222,-604.094,0,0
299220.85,165.649,-604.385,0,0
299481.175,164.94,-604.598,0,0
299741.5,164.196,-604.814,0,0
300001.825,163.377,-605.01,0,0
300262.15,162.457,-605.156,0,0
300522.475,161.529,-605.266,0,0
300782.8,160.511,-605.389,0,0
301043.125,159.446,-605.41,0,0
301303.45,158.281,-605.399,0,0
301563.775,157.087,-605.313,0,0
301824.1,155.845,-605.102,0,0
302084.425,154.59,-604.805,0,0
302344.75,153.351,-604.444,0,0
302605.075,152.151,-603.957,0,0
302865.4,150.982,-603.458,0,0
303125.725,149.843,-602.905,0,0
303386.05,148.718,-602.319,0,0
303646.375,147.606,-601.741,0,0
303906.7,146.489,-601.083,0,0
304167.025,145.39,-600.378,0,0
304427.35,144.296,-599.613,0,0
304687.675,143.27,-598.824,0,0
304948.0,142.254,-597.961,0,0
305208.325,141.344,-597.08,0,0
305468.65,140.437,-596.155,0,0
305728.975,139.559,-595.283,0,0
305989.3,138.737,-594.351,0,0
306249.625,137.922,-593.41,0,0
306509.95,137.136,-592.44,0,0
306770.275,136.408,-591.427,0,0
307030.6,135.745,-590.414,0,0
307290.925,135.153,-589.403,0,0
307551.25,134.577,-588.397,0,0
307811.575,134.069,-587.398,0,0
308071.9,133.62,-586.41,0,0
308332.225,133.203,-585.434,0,0
308592.55,132.871,-584.484,0,0
308852.875,132.576,-583.581,0,0
309113.2,132.352,-582.741,0,0
309373.525,132.168,-581.969,0,0
309633.85,131.967,-581.272,0,0
309894.175,131.804,-580.687,0,0
310154.5,131.591,-580.164,0,0
310414.825,131.325,-579.732,0,0
310675.15,130.987,-579.353,0,0
310935.475,130.586,-579.029,0,0
311195.8,130.081,-578.688,0,0
311456.125,129.497,-578.344,0,0
311716.45,128.861,-577.983,0,0
311976.775,128.119,-577.598,0,0
312237.1,127.332,-577.151,0,0
312497.425,126.471,-576.655,0,0
312757.75,125.581,-576.079,0,0
313018.075,124.633,-575.419,0,0
313278.4,123.687,-574.648,0,0
313538.725,122.777,-573.76,0,0
313799.05,121.889,-572.829,0,0
314059.375,121.06,-571.79,0,0
314319.7,120.236,-570.689,0,0
314580,119.542,-569.48,0,0
314840,118.927,-568.209,0,0
315101,118.425,-566.988,0,0
315361,118.066,-565.64,0,0
315621,117.738,-564.379,0,0
315882,117.52,-563.235,0,0
316142,117.353,-562.065,0,0
316402,117.245,-560.863,0,0
316663,117.21,-559.91,0,0
316923,117.223,-558.858,0,0
317183,117.25,-557.913,0,0
317444,117.305,-556.997,0,0
317704,117.356,-556.075,0,0
317964,117.379,-555.253,0,0
318225,117.553,-554.465,0,0
318485,117.519,-553.698,0,0
318745,117.646,-552.946,0,0
319006,117.711,-552.386,0,0
319266,117.794,-551.772,0,0
319526,117.849,-551.206,0,0
319787,117.741,-550.63,0,0
320047,117.69,-550.001,0,0
320307,117.639,-549.313,0,0
320567,117.633,-548.591,0,0
320828,117.689,-547.979,0,0
321088,117.728,-547.237,0,0
321348,117.918,-546.572,0,0
321609,118.155,-545.947,0,0
321869,118.452,-545.337,0,0
322129,118.822,-544.871,0,0
322390,119.246,-544.425,0,0
322650,119.679,-544.205,0,0
322910,120.041,-544.029,0,0
323171,120.332,-544.024,0,0
323431,120.581,-544.064,0,0
323691,120.858,-544.24,0,0
323952,120.933,-544.455,0,0
324212,120.933,-544.74,0,0
324472,120.835,-545.039,0,0
324733,120.619,-545.395,0,0
324993,120.327,-545.683,0,0
325253,119.955,-546.066,0,0
325514,119.474,-546.394,0,0
325774,118.948,-546.663,0,0
326034,118.223,-546.879,0,0
326295,117.515,-547.08,0,0
326555,116.706,-547.241,0,0
326815,115.868,-547.319,0,0
327076,114.949,-547.288,0,0
327336,114.064,-547.25,0,0
327596,113.147,-547.159,0,0
327857,112.163,-546.973,0,0
328117,111.127,-546.727,0,0
328377,110.153,-546.398,0,0
328638,109.231,-545.972,0,0
328898,108.303,-545.577,0,0
329158,107.366,-545.12,0,0
329419,106.57,-544.593,0,0
329679,105.731,-544.096,0,0
329939,104.897,-543.693,0,0
330200,104.045,-543.183,0,0
330460,103.271,-542.646,0,0
330720.15,102.369,-542.194,0,0
330980.475,101.505,-541.681,0,0
331240.8,100.652,-541.104,0,0
331501.125,99.6974,-540.538,0,0
331761.45,98.7862,-539.884,0,0
332021.775,97.9035,-539.216,0,0
332282.1,97.009,-538.603,0,0
332542.425,96.0795,-537.922,0,0
332802.75,95.1939,-537.151,0,0
333063.075,94.2684,-536.447,0,0
333323.4,93.3699,-535.567,0,0
333583.725,92.5448,-534.753,0,0
333844.05,91.6249,-533.872,0,0
334104.375,90.778,-532.941,0,0
334364.7,89.8909,-532.025,0,0
334625.025,89.0435,-530.994,0,0
334885.35,88.2597,-530.096,0,0
335145.675,87.4789,-529.014,0,0
335406.0,86.6804,-527.891,0,0
335666.325,85.9516,-526.719,0,0
335926.65,85.277,-525.529,0,0
336186.975,84.6482,-524.349,0,0
336447.3,84.0537,-523.121,0,0
336707.625,83.4645,-521.938,0,0
336967.95,83.0307,-520.69,0,0
337228.275,82.5891,-519.463,0,0
337488.6,82.1615,-518.302,0,0
337748.925,81.7594,-517.078,0,0
338009.25,81.3817,-515.908,0,0
338269.575,81.0207,-514.782,0,0
338529.9,80.6169,-513.549,0,0
338790.225,80.19,-512.433,0,0
339050.55,79.8991,-511.122,0,0
339310.875,79.5405,-509.823,0,0
339571.2,79.1566,-508.462,0,0
339831.525,78.9822,-507.138,0,0
340091.85,78.8473,-505.667,0,0
340352.175,78.7598,-504.284,0,0
340612.5,78.8459,-502.92,0,0
340872.825,78.8859,-501.496,0,0
341133.15,79.0448,-500.114,0,0
341393.475,79.3031,-498.75,0,0
341653.8,79.6176,-497.442,0,0
341914.125,80.11,-496.186,0,0
342174.45,80.5995,-495.099,0,0
342434.775,81.15,-494.022,0,0
342695.1,81.7789,-493.066,0,0
342955.425,82.3575,-492.304,0,0
343215.75,82.9743,-491.553,0,0
343476.075,83.5072,-490.895,0,0
343736.4,84.0751,-490.401,0,0
343996.725,84.5227,-489.946,0,0
344257.05,85.0037,-489.516,0,0
344517.375,85.2591,-489.202,0,0
344777.7,85.6136,-488.838,0,0
345038.025,85.819,-488.544,0,0
345298.35,86.0233,-488.3,0,0
345558.675,86.1055,-488.054,0,0
345819.0,86.1371,-487.715,0,0
346079.325,86.1702,-487.479,0,0
346339.65,86.1331,-487.16,0,0
346599.975,85.9886,-486.913,0,0
346860,85.82,-486.644,0,0
347121,85.5622,-486.281,0,0
347381,85.3091,-485.791,0,0
347641,85.0081,-485.357,0,0
347902,84.6908,-484.85,0,0
348162,84.4058,-484.254,0,0
348422,84.2036,-483.572,0,0
348683,83.8929,-482.899,0,0
348943,83.6744,-482.113,0,0
349203,83.4298,-481.279,0,0
349464,83.3555,-480.422,0,0
349724,83.3576,-479.535,0,0
349984,83.4156,-478.641,0,0
350245,83.6169,-477.808,0,0
350505,83.7874,-476.962,0,0
350765,84.0556,-476.234,0,0
351025,84.4235,-475.562,0,0
351286,84.824,-475.023,0,0
351546,85.1877,-474.503,0,0
351806,85.3883,-474.125,0,0
352067,85.7072,-473.74,0,0
352327,85.9924,-473.497,0,0
352587,86.1897,-473.213,0,0
352848,86.4004,-472.979,0,0
353108,86.4791,-472.843,0,0
353368,86.5292,-472.765,0,0
353629,86.4944,-472.604,0,0
353889,86.3782,-472.477,0,0
354149,86.2734,-472.289,0,0
354410,86.0422,-472.001,0,0
354670,85.805,-471.822,0,0
354930,85.6105,-471.473,0,0
355191,85.3602,-471.183,0,0
355451,85.048,-470.868,0,0
355711,84.7112,-470.472,0,0
355972,84.4356,-470.18,0,0
356232,84.0998,-469.726,0,0
356492,83.6922,-469.31,0,0
356753,83.3913,-468.774,0,0
357013,83.0176,-468.181,0,0
357273,82.63,-467.598,0,0
357534,82.3817,-466.929,0,0
357794,82.0947,-466.185,0,0
358054,81.9137,-465.454,0,0
358315,81.7855,-464.721,0,0
358575,81.7133,-463.964,0,0
358835,81.6672,-463.326,0,0
359096,81.7068,-462.67,0,0
359356,81.6989,-462.037,0,0
359616,81.7939,-461.44,0,0
359877,81.828,-460.833,0,0
360137,81.8446,-460.395,0,0
360397,81.8317,-459.857,0,0
360658,81.8132,-459.456,0,0
360918,81.7906,-458.957,0,0
361178,81.7343,-458.524,0,0
361438,81.5055,-458.104,0,0
361699,81.372,-457.566,0,0
361959,81.2066,-457.08,0,0
362219,81.0105,-456.434,0,0
362480,80.8663,-455.804,0,0
362740.1,80.7526,-455.031,0,0
363000.425,80.7185,-454.267,0,0
363260.75,80.7712,-453.499,0,0
363521.075,80.8454,-452.735,0,0
363781.4,80.9918,-452.066,0,0
364041.725,81.2263,-451.371,0,0
364302.05,81.5444,-450.774,0,0
364562.375,81.8586,-450.202,0,0
364822.7,82.1532,-449.753,0,0
365083.025,82.5167,-449.344,0,0
365343.35,82.8629,-448.992,0,0
365603.675,83.1545,-448.751,0,0
365864.0,83.4674,-448.612,0,0
366124.325,83.6713,-448.502,0,0
366384.65,83.7844,-448.455,0,0
366644.975,83.8769,-448.43,0,0
366905.3,83.8414,-448.397,0,0
367165.625,83.7021,-448.47,0,0
367425.95,83.5096,-448.45,0,0
367686.275,83.182,-448.41,0,0
367946.6,82.6899,-448.302,0,0
368206.925,82.1884,-448.117,0,0
368467.25,81.6608,-447.774,0,0
368727.575,81.1236,-447.249,0,0
368987.9,80.62,-446.735,0,0
369248.225,80.1594,-445.974,0,0
369508.55,79.8296,-445.206,0,0
369768.875,79.6243,-444.377,0,0
370029.2,79.5178,-443.465,0,0
370289.525,79.5374,-442.722,0,0
370549.85,79.6648,-441.882,0,0
370810.175,79.9032,-441.251,0,0
371070.5,80.1847,-440.63,0,0
371330.825,80.4978,-440.164,0,0
371591.15,80.7249,-439.735,0,0
371851.475,80.9786,-439.476,0,0
372111.8,81.2067,-439.224,0,0
372372.125,81.3453,-439.115,0,0
372632.45,81.4037,-439.049,0,0
372892.775,81.3491,-439.003,0,0
373153.1,81.1914,-438.961,0,0
373413.425,80.9567,-438.885,0,0
373673.75,80.5578,-438.676,0,0
373934.075,80.2019,-438.382,0,0
374194.4,79.7984,-438.016,0,0
374454.725,79.4456,-437.668,0,0
374715.05,79.0383,-437.183,0,0
374975.375,78.6999,-436.681,0,0
375235.7,78.3829,-436.183,0,0
375496.025,78.0403,-435.566,0,0
375756.35,77.7386,-434.947,0,0
376016.675,77.5413,-434.237,0,0
376277.0,77.2835,-433.562,0,0
376537.325,77.1328,-432.907,0,0
376797.65,76.998,-432.148,0,0
377057.975,76.9022,-431.496,0,0
377318.3,76.8661,-430.792,0,0
377578.625,76.8124,-430.052,0,0
377838.95,76.7949,-429.35,0,0
378099.275,76.8709,-428.613,0,0
378359.6,77.0036,-427.864,0,0
378619.925,77.1143,-427.145,0,0
378880,77.4044,-426.504,0,0
379141,77.7109,-425.919,0,0
379401,78.0565,-425.475,0,0
379661,78.4405,-425.046,0,0
379922,78.779,-424.714,0,0
380182,78.9798,-424.488,0,0
380442,79.1831,-424.324,0,0
380703,79.2102,-424.179,0,0
380963,79.2682,-424.012,0,0
381223,79.2587,-423.794,0,0
381483,79.2288,-423.571,0,0
381744,79.1769,-423.314,0,0
382004,79.1345,-423.038,0,0
382264,79.0485,-422.769,0,0
382525,79.0004,-422.462,0,0
382785,78.9538,-422.219,0,0
383045,78.9047,-421.946,0,0
383306,78.7504,-421.752,0,0
383566,78.6411,-421.543,0,0
383826,78.4744,-421.345,0,0
384087,78.2496,-421.142,0,0
384347,77.949,-420.809,0,0
384607,77.6788,-420.545,0,0
384868,77.3495,-420.15,0,0
385128,77.0903,-419.803,0,0
385388,76.7621,-419.371,0,0
385649,76.4417,-418.953,0,0
385909,76.1287,-418.501,0,0
386169,75.8599,-418.027,0,0
386430,75.5037,-417.529,0,0
386690,75.2079,-416.98,0,0
386950,74.8522,-416.419,0,0
387211,74.5746,-415.811,0,0
387471,74.2613,-415.155,0,0
387731,73.9536,-414.505,0,0
387992,73.6872,-413.749,0,0
388252,73.4868,-412.973,0,0
388512,73.252,-412.206,0,0
388773,73.0947,-411.383,0,0
389033,73.019,-410.533,0,0
389293,72.8952,-409.666,0,0
389554,72.8536,-408.8,0,0
389814,72.8614,-407.887,0,0
390074,72.9139,-407,0,0
390335,73.0759,-406.085,0,0
390595,73.2764,-405.166,0,0
390855,73.5101,-404.255,0,0
391116,73.8282,-403.426,0,0
391376,74.2203,-402.629,0,0
391636,74.6464,-401.87,0,0
391896,75.1152,-401.165,0,0
392157,75.633,-400.533,0,0
392417,76.161,-399.988,0,0
392677,76.6136,-399.487,0,0
392938,77.0518,-399.024,0,0
393198,77.5365,-398.593,0,0
393458,77.9522,-398.213,0,0
393719,78.4095,-397.809,0,0
393979,78.8194,-397.406,0,0
394239,79.2588,-397.085,0,0
394500,79.6771,-396.756,0,0
394760.05,80.1469,-396.489,0,0
395020.375,80.5688,-396.193,0,0
395280.7,80.9745,-396.024,0,0
395541.025,81.4537,-395.826,0,0
395801.35,81.8789,-395.669,0,0
396061.675,82.2719,-395.577,0,0
396322.0,82.6782,-395.512,0,0
396582.325,83.0718,-395.514,0,0
396842.65,83.371,-395.532,0,0
397102.975,83.639,-395.548,0,0
397363.3,83.8783,-395.598,0,0
397623.625,84.1179,-395.675,0,0
397883.95,84.2686,-395.687,0,0
398144.275,84.415,-395.781,0,0
398404.6,84.5605,-395.882,0,0
398664.925,84.6747,-395.986,0,0
398925.25,84.6961,-396.124,0,0
399185.575,84.7716,-396.239,0,0
399445.9,84.7435,-396.399,0,0
399706.225,84.6741,-396.552,0,0
399966.55,84.5495,-396.678,0,0
400006.6,84.5736,-396.715,0,0