File: Accelerated corrosion test data/2025-10-23_06-00-04/sample_6.csv
Frequency (Hz),Impedance (ohms),Phase (Radians),Temperature (C),Humidity (%)
10000.0,4143.17,-6714.1,0,0
10260.325,4005.53,-6630.91,0,0
10520.65,3873.8,-6547.25,0,0
10780.975,3748.56,-6464.66,0,0
11041.3,3628.75,-6382.49,0,0
11301.625,3514.65,-6302.1,0,0
11561.95,3406.19,-6222.43,0,0
11822.275,3302.35,-6144.08,0,0
12082.6,3202.56,-6066.55,0,0
12342.925,3107.47,-5989.74,0,0
12603.25,3016.8,-5912.44,0,0
12863.575,2930.62,-5840.05,0,0
13123.9,2849.1,-5768.01,0,0
13384.225,2769.09,-5699.01,0,0
13644.55,2691.6,-5629.47,0,0
13904.875,2617.5,-5560.28,0,0
14165.2,2546.39,-5492.9,0,0
14425.525,2478.33,-5425.86,0,0
14685.8,2413.36,-5360.81,0,0
14946.175,2351.84,-5296.67,0,0
15206.5,2291.68,-5234.14,0,0
15466.825,2233.62,-5172.47,0,0
15727.15,2178.1,-5112.31,0,0
15987.5,2124.85,-5052.89,0,0
16247.8,2072.96,-4994.8,0,0
16508.125,2023.22,-4937.92,0,0
16768.45,1975.6,-4881.34,0,0
17028.775,1929.86,-4826.7,0,0
17289.1,1885.45,-4772.57,0,0
17549.425,1841.77,-4720.34,0,0
17809.75,1800.99,-4668.39,0,0
18070.075,1759.64,-4617.37,0,0
18330.4,1720.96,-4567.17,0,0
18590.725,1683.46,-4518,0,0
18851.05,1648.75,-4468.37,0,0
19111.375,1614.19,-4421.86,0,0
19371.7,1580.35,-4375.51,0,0
19632.025,1548.05,-4330.88,0,0
19892.35,1515.71,-4286.99,0,0
20152.675,1484.68,-4242.5,0,0
20413.0,1454.81,-4199.88,0,0
20673.3,1425.88,-4157.1,0,0
20933.65,1397.62,-4115.66,0,0
21193.975,1370.37,-4074,0,0
21454.3,1344.52,-4034.17,0,0
21714.625,1318.41,-3994.49,0,0
21974.9,1294.02,-3955.38,0,0
22235.275,1269.91,-3917.88,0,0
22495.6,1246.3,-3879.48,0,0
22755.925,1223.4,-3841.92,0,0
23016.25,1202.22,-3804.02,0,0
23276.6,1183.24,-3768.21,0,0
23536.9,1163.79,-3736.23,0,0
23797.225,1143.21,-3702.79,0,0
24057.55,1123.07,-3669.76,0,0
24317.875,1103.86,-3636.53,0,0
24578.2,1084.55,-3603.94,0,0
24838.525,1066.31,-3571.53,0,0
25098.85,1049.37,-3539.83,0,0
25359.175,1032.86,-3509.05,0,0
25619.5,1015.78,-3478.7,0,0
25879.8,999.193,-3448.69,0,0
26140.1,982.603,-3419.43,0,0
26400.5,967.429,-3390.21,0,0
26660.8,952.37,-3360.95,0,0
26921.1,938.428,-3332.5,0,0
27181.4,924.136,-3304.97,0,0
27441.8,910.334,-3277.54,0,0
27702.1,897.775,-3251.11,0,0
27962.4,884.574,-3225.84,0,0
28222.7,870.444,-3200.37,0,0
28483.1,856.996,-3174.98,0,0
28743.4,843.826,-3149.08,0,0
29003.7,830.852,-3123.63,0,0
29264,818.819,-3097.92,0,0
29524.4,807.47,-3072.39,0,0
29784.7,796.948,-3046.83,0,0
30045,787.801,-3023.71,0,0
30305.3,776.716,-2999.89,0,0
30565.7,769.523,-2976.7,0,0
30826,759.91,-2956.77,0,0
31086.3,749.551,-2936.64,0,0
31346.6,738.159,-2914.81,0,0
31607,728.652,-2893.19,0,0
31867.3,718.673,-2871.01,0,0
32127.6,709.966,-2850.29,0,0
32387.9,700.608,-2829.3,0,0
32648.3,692.851,-2807.76,0,0
32908.6,685.848,-2788.67,0,0
33168.9,677.881,-2769.94,0,0
33429.2,670.128,-2752.01,0,0
33689.6,660.943,-2734.47,0,0
33949.9,651.229,-2716.19,0,0
34210.2,641.899,-2697.05,0,0
34470.5,633.221,-2677.86,0,0
34730.9,625.814,-2658.97,0,0
34991.2,617.966,-2640.65,0,0
35251.5,610.578,-2622.69,0,0
35511.8,603.095,-2605.02,0,0
35772.2,595.741,-2587.83,0,0
36032.5,587.976,-2570.29,0,0
36292.8,580.853,-2552.63,0,0
36553.1,573.857,-2535.04,0,0
36813.5,567.253,-2517.74,0,0
37073.8,560.709,-2500.69,0,0
37334.1,554.618,-2483.8,0,0
37594.4,548.743,-2467.31,0,0
37854.8,542.735,-2450.86,0,0
38115.1,536.807,-2434.78,0,0
38375.4,531.256,-2418.67,0,0
38635.7,525.785,-2402.53,0,0
38896.1,520.742,-2386.72,0,0
39156.4,515.888,-2371.25,0,0
39416.7,511.415,-2355.72,0,0
39677,507.17,-2340.66,0,0
39937.4,503.191,-2326.63,0,0
40197.7,498.778,-2312.45,0,0
40458,494.834,-2298.32,0,0
40718.3,490.993,-2285.42,0,0
40978.7,486.3,-2272.4,0,0
41239,481.607,-2259.17,0,0
41499.3,476.928,-2245.62,0,0
41759.6,473.24,-2233.13,0,0
42020,468.563,-2221.09,0,0
42280.275,463.14,-2208.92,0,0
42540.6,457.785,-2196.05,0,0
42800.925,453.018,-2183.05,0,0
43061.25,447.978,-2169.51,0,0
43321.575,443.658,-2155.3,0,0
43581.9,440.554,-2141.74,0,0
43842.225,437.508,-2128.75,0,0
44102.55,434.257,-2116.35,0,0
44362.875,431.322,-2103.82,0,0
44623.2,428.468,-2091.83,0,0
44883.525,425.961,-2080.14,0,0
45143.85,423.337,-2068.54,0,0
45404.175,420.322,-2057.32,0,0
45664.5,417.347,-2046.35,0,0
45924.825,415.045,-2035.54,0,0
46185.15,413.079,-2024.83,0,0
46445.475,411.052,-2014.93,0,0
46705.8,407.86,-2005.12,0,0
46966.125,405.127,-1995.27,0,0
47226.45,402.338,-1985.91,0,0
47486.775,398.98,-1976.09,0,0
47747.1,396.175,-1966.02,0,0
48007.425,393.936,-1956.61,0,0
48267.75,390.816,-1947.65,0,0
48528.075,387.565,-1938.43,0,0
48788.4,384.941,-1929.06,0,0
49048.725,382.046,-1920.29,0,0
49309.05,379.298,-1912.01,0,0
49569.375,375.555,-1903.71,0,0
49829.7,371.885,-1894.87,0,0
50090.025,368.628,-1886.15,0,0
50350.35,364.908,-1878.12,0,0
50610.675,360.508,-1869.23,0,0
50871.0,356.417,-1860.15,0,0
51131.325,352.398,-1850.71,0,0
51391.65,349.419,-1841.55,0,0
51651.975,345.693,-1832.29,0,0
51912.3,342.763,-1822.83,0,0
52172.625,339.18,-1814.14,0,0
52432.95,335.992,-1804.28,0,0
52693.275,333.379,-1794.95,0,0
52953.6,331.18,-1785.64,0,0
53213.925,329.084,-1777.27,0,0
53474.25,326.221,-1769.21,0,0
53734.575,323.037,-1760.77,0,0
53994.9,319.818,-1751.79,0,0
54255.225,316.92,-1742.47,0,0
54515.55,314.778,-1733.15,0,0
54775.875,313.027,-1724.36,0,0
55036.2,311.223,-1715.94,0,0
55296.525,309.167,-1707.7,0,0
55556.85,307.28,-1699.52,0,0
55817.175,305.012,-1691.55,0,0
56077.5,302.804,-1683.28,0,0
56337.825,300.508,-1674.75,0,0
56598.15,298.699,-1665.82,0,0
56858.475,297.659,-1657.09,0,0
57118.8,296.996,-1648.77,0,0
57379.125,296.601,-1641.04,0,0
57639.45,296.092,-1633.78,0,0
57899.775,295.789,-1626.85,0,0
58160.1,295.117,-1620.56,0,0
58420.4,294.297,-1614.69,0,0
58680.7,292.956,-1608.98,0,0
58941.1,291.297,-1603.31,0,0
59201.4,289.478,-1597.59,0,0
59461.7,287.387,-1591.92,0,0
59722,285.047,-1586.25,0,0
59982.4,282.414,-1580.36,0,0
60242.7,279.828,-1574.14,0,0
60503,277.475,-1568.1,0,0
60763.3,274.642,-1561.99,0,0
61023.7,271.778,-1555.8,0,0
61284,268.54,-1549.25,0,0
61544.3,265.351,-1542.45,0,0
61804.6,262.226,-1535.12,0,0
62065,259.396,-1527.22,0,0
62325.3,257.213,-1519.14,0,0
62585.6,255.61,-1510.68,0,0
62845.9,255.123,-1502.64,0,0
63106.3,255.028,-1495.32,0,0
63366.6,255.245,-1488.91,0,0
63626.9,255.054,-1483.08,0,0
63887.2,254.511,-1477.93,0,0
64147.6,253.272,-1473.08,0,0
64407.9,251.399,-1468.17,0,0
64668.2,249.063,-1462.55,0,0
64928.5,246.859,-1456.52,0,0
65188.9,245.065,-1450.15,0,0
65449.2,243.509,-1443.56,0,0
65709.5,242.182,-1437.27,0,0
65969.8,241.283,-1431.33,0,0
66230.2,240.393,-1425.38,0,0
66490.5,239.302,-1419.78,0,0
66750.8,238.107,-1414.28,0,0
67011.1,237.034,-1408.9,0,0
67271.5,235.744,-1403.41,0,0
67531.8,234.472,-1397.96,0,0
67792.1,233.149,-1392.72,0,0
68052.4,231.79,-1387.19,0,0
68312.8,230.566,-1381.91,0,0
68573.1,229.353,-1376.55,0,0
68833.4,228.179,-1371.12,0,0
69093.7,227.066,-1365.89,0,0
69354.1,225.877,-1360.89,0,0
69614.4,224.576,-1355.77,0,0
69874.7,223.478,-1350.8,0,0
70135,222.044,-1345.91,0,0
70395.4,220.802,-1341,0,0
70655.7,219.4,-1336.04,0,0
70916,217.885,-1331.14,0,0
71176.3,216.389,-1326.15,0,0
71436.7,214.943,-1321,0,0
71697,213.371,-1315.94,0,0
71957.3,212.178,-1310.85,0,0
72217.6,210.82,-1305.75,0,0
72478,209.659,-1300.77,0,0
72738.3,208.418,-1295.87,0,0
72998.6,207.146,-1290.97,0,0
73258.9,205.902,-1286.09,0,0
73519.3,204.678,-1281.32,0,0
73779.6,203.442,-1276.51,0,0
74039.9,202.188,-1271.55,0,0
74300.225,200.912,-1266.83,0,0
74560.55,199.843,-1262.07,0,0
74820.875,198.661,-1257.42,0,0
75081.2,197.509,-1252.77,0,0
75341.525,196.275,-1248.14,0,0
75601.85,194.947,-1243.56,0,0
75862.175,193.747,-1238.93,0,0
76122.5,192.419,-1234.24,0,0
76382.825,191.195,-1229.52,0,0
76643.15,189.96,-1224.88,0,0
76903.475,188.756,-1220.26,0,0
77163.8,187.594,-1215.56,0,0
77424.125,186.321,-1210.92,0,0
77684.45,185.104,-1206.22,0,0
77944.775,183.955,-1201.58,0,0
78205.1,182.816,-1196.94,0,0
78465.425,181.679,-1192.28,0,0
78725.75,180.567,-1187.65,0,0
78986.075,179.496,-1182.99,0,0
79246.4,178.371,-1178.38,0,0
79506.725,177.335,-1173.75,0,0
79767.05,176.297,-1169.09,0,0
80027.375,175.285,-1164.54,0,0
80287.7,174.253,-1159.82,0,0
80548.025,173.319,-1155.12,0,0
80808.35,172.373,-1150.4,0,0
81068.675,171.503,-1145.77,0,0
81329.0,170.762,-1141.09,0,0
81589.325,170.016,-1136.46,0,0
81849.65,169.355,-1131.94,0,0
82109.975,168.701,-1127.43,0,0
82370.3,168.067,-1122.99,0,0
82630.625,167.388,-1118.56,0,0
82890.95,166.684,-1114.16,0,0
83151.275,166.022,-1109.66,0,0
83411.6,165.349,-1105.22,0,0
83671.925,164.698,-1100.68,0,0
83932.25,164.099,-1096.25,0,0
84192.575,163.627,-1091.7,0,0
84452.9,163.193,-1087.24,0,0
84713.225,162.866,-1082.78,0,0
84973.55,162.554,-1078.38,0,0
85233.875,162.428,-1073.89,0,0
85494.2,162.321,-1069.64,0,0
85754.525,162.24,-1065.47,0,0
86014.85,162.184,-1061.45,0,0
86275.175,162.05,-1057.42,0,0
86535.5,161.968,-1053.45,0,0
86795.825,161.871,-1049.55,0,0
87056.15,161.704,-1045.53,0,0
87316.475,161.613,-1041.61,0,0
87576.8,161.647,-1037.83,0,0
87837.125,161.562,-1033.95,0,0
88097.45,161.533,-1030.3,0,0
88357.775,161.36,-1026.4,0,0
88618.1,161.46,-1022.54,0,0
88878.425,161.534,-1018.79,0,0
89138.75,161.759,-1015.09,0,0
89399.075,162.202,-1011.47,0,0
89659.4,162.686,-1008.15,0,0
89919.725,162.968,-1005.15,0,0
90180,163.184,-1002.22,0,0
90440.4,163.335,-999.385,0,0
90700.7,163.048,-996.714,0,0
90961,162.554,-993.846,0,0
91221.3,162.032,-991.21,0,0
91481.7,161.199,-988.176,0,0
91742,160.343,-984.72,0,0
92002.3,160.025,-981.02,0,0
92262.6,159.952,-977.65,0,0
92523,159.788,-974.551,0,0
92783.3,159.342,-971.591,0,0
93043.6,158.799,-968.365,0,0
93303.9,158.33,-965.122,0,0
93564.3,157.822,-961.757,0,0
93824.6,157.548,-958.176,0,0
94084.9,157.343,-954.735,0,0
94345.2,157.449,-951.337,0,0
94605.6,157.467,-948.335,0,0
94865.9,157.314,-945.314,0,0
95126.2,156.984,-942.206,0,0
95386.5,156.88,-938.901,0,0
95646.9,157.039,-935.703,0,0
95907.2,157.212,-932.746,0,0
96167.5,157.334,-930.018,0,0
96427.8,157.337,-927.357,0,0
96688.2,157.117,-924.798,0,0
96948.5,156.837,-922.122,0,0
97208.8,156.487,-919.515,0,0
97469.1,156.043,-916.895,0,0
97729.5,155.382,-914.194,0,0
97989.8,154.703,-911.18,0,0
98250.1,154.281,-908.029,0,0
98510.4,153.924,-904.985,0,0
98770.8,153.644,-901.8,0,0
99031.1,153.596,-898.665,0,0
99291.4,153.6,-895.703,0,0
99551.7,153.7,-892.841,0,0
99812.1,153.678,-890.131,0,0
100072,153.724,-887.374,0,0
100333,153.734,-884.835,0,0
100593,153.713,-882.385,0,0
100853,153.678,-879.961,0,0
101114,153.522,-877.668,0,0
101374,153.26,-875.443,0,0
101634,152.759,-873.179,0,0
101895,152.207,-870.699,0,0
102155,151.75,-868.169,0,0
102415,151.409,-865.629,0,0
102676,151.158,-863.165,0,0
102936,150.927,-860.94,0,0
103196,150.445,-858.908,0,0
103457,149.714,-856.717,0,0
103717,149.024,-854.382,0,0
103977,148.455,-852.085,0,0
104238,147.878,-850.02,0,0
104498,146.931,-848.165,0,0
104758,145.591,-846.173,0,0
105019,144.023,-843.775,0,0
105279,142.586,-841.39,0,0
105539,140.861,-838.806,0,0
105800,139.008,-835.955,0,0
106060,137.141,-832.706,0,0
106320.175,135.3,-829.171,0,0
106580.5,133.582,-825.234,0,0
106840.825,132.235,-820.86,0,0
107101.15,131.421,-816.393,0,0
107361.475,131.002,-812.066,0,0
107621.8,130.739,-807.991,0,0
107882.125,130.498,-803.849,0,0
108142.45,130.529,-799.623,0,0
108402.775,130.788,-795.582,0,0
108663.1,131.213,-791.639,0,0
108923.425,131.767,-787.859,0,0
109183.75,132.366,-784.373,0,0
109444.075,132.907,-780.787,0,0
109704.4,133.502,-777.311,0,0
109964.725,134.142,-773.992,0,0
110225.05,134.893,-770.64,0,0
110485.375,135.635,-767.269,0,0
110745.7,136.615,-763.797,0,0
111006.025,137.842,-760.452,0,0
111266.35,139.098,-757.465,0,0
111526.675,140.551,-754.498,0,0
111787.0,142.105,-751.883,0,0
112047.325,143.703,-749.527,0,0
112307.65,145.354,-747.647,0,0
112567.975,146.664,-746.047,0,0
112828.3,147.668,-744.681,0,0
113088.625,148.415,-743.348,0,0
113348.95,148.743,-741.992,0,0
113609.275,149.011,-740.306,0,0
113869.6,149.386,-738.611,0,0
114129.925,149.565,-737.016,0,0
114390.25,149.713,-735.321,0,0
114650.575,149.769,-733.562,0,0
114910.9,149.787,-731.634,0,0
115171.225,149.91,-729.68,0,0
115431.55,150.226,-727.624,0,0
115691.875,150.891,-725.549,0,0
115952.2,151.808,-724.145,0,0
116212.525,152.451,-723.221,0,0
116472.85,152.668,-722.515,0,0
116733.175,152.462,-722.009,0,0
116993.5,151.791,-721.411,0,0
117253.825,150.666,-720.73,0,0
117514.15,149.158,-719.656,0,0
117774.475,147.426,-718.213,0,0
118034.8,145.599,-716.29,0,0
118295.125,143.777,-713.934,0,0
118555.45,142.247,-711.209,0,0
118815.775,140.894,-708.322,0,0
119076.1,139.644,-705.322,0,0
119336.425,138.649,-701.94,0,0
119596.75,138.037,-698.508,0,0
119857.075,137.718,-695.124,0,0
120117.4,137.603,-691.824,0,0
120377.725,137.625,-688.513,0,0
120638.05,137.987,-685.273,0,0
120898.375,138.509,-682.28,0,0
121158.7,139.206,-679.468,0,0
121419.025,140.14,-676.94,0,0
121679.35,140.922,-674.961,0,0
121939.675,141.357,-673.212,0,0
122200.0,141.459,-671.484,0,0
122460,141.389,-669.64,0,0
122721,141.14,-667.672,0,0
122981,140.876,-665.56,0,0
123241,140.681,-663.324,0,0
123502,140.49,-661.081,0,0
123762,140.369,-658.837,0,0
124022,140.251,-656.573,0,0
124283,140.161,-654.383,0,0
124543,140.04,-652.194,0,0
124803,139.884,-650.029,0,0
125064,139.663,-647.931,0,0
125324,139.343,-645.704,0,0
125584,138.948,-643.468,0,0
125845,138.56,-641.115,0,0
126105,138.185,-638.671,0,0
126365,137.861,-636.21,0,0
126626,137.515,-633.704,0,0
126886,137.128,-631.142,0,0
127146,136.721,-628.442,0,0
127406,136.498,-625.583,0,0
127667,136.313,-622.674,0,0
127927,136.209,-619.692,0,0
128187,136.204,-616.615,0,0
128448,136.555,-613.578,0,0
128708,137,-610.65,0,0
128968,137.549,-607.847,0,0
129229,138.101,-605.143,0,0
129489,138.695,-602.591,0,0
129749,139.212,-600.128,0,0
130010,139.802,-597.65,0,0
130270,140.264,-595.207,0,0
130530,140.741,-592.793,0,0
130791,141.218,-590.429,0,0
131051,141.647,-588.019,0,0
131311,142.101,-585.612,0,0
131572,142.594,-583.159,0,0
131832,143.112,-580.727,0,0
132092,143.674,-578.315,0,0
132353,144.264,-575.921,0,0
132613,144.934,-573.574,0,0
132873,145.557,-571.253,0,0
133134,146.216,-568.988,0,0
133394,146.898,-566.687,0,0
133654,147.594,-564.49,0,0
133915,148.223,-562.324,0,0
134175,148.886,-560.146,0,0
134435,149.488,-558.035,0,0
134696,150.183,-555.828,0,0
134956,150.888,-553.641,0,0
135216,151.61,-551.502,0,0
135477,152.352,-549.421,0,0
135737,153.165,-547.347,0,0
135997,153.99,-545.35,0,0
136258,154.801,-543.421,0,0
136518,155.624,-541.481,0,0
136778,156.473,-539.691,0,0
137039,157.251,-537.963,0,0
137299,157.947,-536.292,0,0
137559,158.618,-534.638,0,0
137819,159.225,-533.003,0,0
138080,159.795,-531.418,0,0
138340.125,160.224,-529.795,0,0
138600.45,160.718,-528.077,0,0
138860.775,161.183,-526.472,0,0
139121.1,161.558,-524.84,0,0
139381.425,161.98,-523.255,0,0
139641.75,162.256,-521.505,0,0
139902.075,162.449,-519.788,0,0
140162.4,162.8,-518.011,0,0
140422.725,163.109,-516.136,0,0
140683.05,163.429,-514.356,0,0
140943.375,163.754,-512.401,0,0
141203.7,164.223,-510.612,0,0
141464.025,164.742,-508.887,0,0
141724.35,165.227,-507.251,0,0
141984.675,165.499,-505.729,0,0
142245.0,165.641,-504.165,0,0
142505.325,165.637,-502.48,0,0
142765.65,165.624,-500.735,0,0
143025.975,165.554,-498.856,0,0
143286.3,165.416,-496.862,0,0
143546.625,165.445,-494.544,0,0
143806.95,165.597,-492.166,0,0
144067.275,166.031,-489.866,0,0
144327.6,166.561,-487.629,0,0
144587.925,167.278,-485.457,0,0
144848.25,167.916,-483.533,0,0
145108.575,168.547,-481.561,0,0
145368.9,169.274,-479.853,0,0
145629.225,169.712,-478.235,0,0
145889.55,170.059,-476.585,0,0
146149.875,170.354,-474.97,0,0
146410.2,170.599,-473.246,0,0
146670.525,170.73,-471.469,0,0
146930.85,170.945,-469.739,0,0
147191.175,170.967,-468.047,0,0
147451.5,170.839,-466.313,0,0
147711.825,170.692,-464.392,0,0
147972.15,170.534,-462.305,0,0
148232.475,170.311,-460.27,0,0
148492.8,170.094,-457.948,0,0
148753.125,170.036,-455.541,0,0
149013.45,169.99,-453.003,0,0
149273.775,169.975,-450.505,0,0
149534.1,170.078,-447.823,0,0
149794.425,170.229,-445.065,0,0
150054.75,170.581,-442.323,0,0
150315.075,170.985,-439.681,0,0
150575.4,171.362,-437.058,0,0
150835.725,171.777,-434.328,0,0
151096.05,172.269,-431.512,0,0
151356.375,172.78,-428.76,0,0
151616.7,173.384,-425.869,0,0
151877.025,174.091,-422.766,0,0
152137.35,175.089,-419.75,0,0
152397.675,176.389,-416.829,0,0
152658.0,177.845,-414.156,0,0
152918.325,179.244,-411.803,0,0
153178.65,180.635,-409.485,0,0
153438.975,181.981,-407.433,0,0
153699.3,183.137,-405.468,0,0
153959.625,184.072,-403.639,0,0
154219.95,184.862,-401.587,0,0
154480,185.487,-399.477,0,0
154741,186.037,-397.186,0,0
155001,186.732,-394.658,0,0
155261,187.532,-391.924,0,0
155522,188.522,-389.192,0,0
155782,189.789,-386.411,0,0
156042,191.289,-383.758,0,0
156303,192.919,-381.37,0,0
156563,194.548,-379.174,0,0
156823,196.069,-377.153,0,0
157084,197.613,-375.147,0,0
157344,199.127,-373.314,0,0
157604,200.457,-371.661,0,0
157864,201.642,-370.175,0,0
158125,202.615,-368.614,0,0
158385,203.319,-366.865,0,0
158645,203.99,-364.981,0,0
158906,204.689,-362.864,0,0
159166,205.531,-360.666,0,0
159426,206.44,-358.483,0,0
159687,207.424,-356.41,0,0
159947,208.213,-354.259,0,0
160207,209.121,-352.136,0,0
160468,209.918,-349.872,0,0
160728,210.812,-347.604,0,0
160988,211.667,-345.322,0,0
161249,212.587,-342.926,0,0
161509,213.489,-340.483,0,0
161769,214.518,-338.043,0,0
162030,215.557,-335.638,0,0
162290,216.575,-333.11,0,0
162550,217.755,-330.572,0,0
162811,218.97,-328.052,0,0
163071,220.266,-325.657,0,0
163331,221.539,-323.318,0,0
163592,222.808,-320.977,0,0
163852,224.048,-318.731,0,0
164112,225.208,-316.463,0,0
164373,226.363,-314.269,0,0
164633,227.392,-311.937,0,0
164893,228.331,-309.715,0,0
165154,229.186,-307.234,0,0
165414,230.063,-304.725,0,0
165674,230.922,-302.058,0,0
165935,231.78,-299.347,0,0
166195,232.684,-296.448,0,0
166455,233.642,-293.462,0,0
166716,234.722,-290.382,0,0
166976,235.877,-287.221,0,0
167236,237.118,-284.031,0,0
167497,238.474,-280.764,0,0
167757,239.917,-277.439,0,0
168017,241.533,-274.147,0,0
168277,243.163,-270.855,0,0
168538,244.904,-267.569,0,0
168798,246.763,-264.334,0,0
169058,248.633,-261.173,0,0
169319,250.489,-258.065,0,0
169579,252.346,-254.958,0,0
169839,254.186,-251.756,0,0
170100,256.08,-248.545,0,0
170360.075,257.95,-245.263,0,0
170620.4,259.896,-241.983,0,0
170880.725,261.902,-238.712,0,0
171141.05,263.924,-235.423,0,0
171401.375,265.841,-232.139,0,0
171661.7,267.752,-228.724,0,0
171922.025,269.731,-225.164,0,0
172182.35,271.744,-221.523,0,0
172442.675,273.848,-217.812,0,0
172703.0,276.061,-214.084,0,0
172963.325,278.26,-210.237,0,0
173223.65,280.532,-206.327,0,0
173483.975,282.846,-202.296,0,0
173744.3,285.288,-198.172,0,0
174004.625,287.812,-193.927,0,0
174264.95,290.494,-189.553,0,0
174525.275,293.32,-185.126,0,0
174785.6,296.335,-180.601,0,0
175045.925,299.458,-176.003,0,0
175306.25,302.747,-171.45,0,0
175566.575,306.153,-166.805,0,0
175826.9,309.755,-162.092,0,0
176087.225,313.429,-157.315,0,0
176347.55,317.343,-152.485,0,0
176607.875,321.408,-147.583,0,0
176868.2,325.716,-142.673,0,0
177128.525,330.212,-137.735,0,0
177388.85,334.902,-132.786,0,0
177649.175,339.812,-127.843,0,0
177909.5,344.893,-122.971,0,0
178169.825,350.196,-118.003,0,0
178430.15,355.681,-113.127,0,0
178690.475,361.412,-108.211,0,0
178950.8,367.326,-103.259,0,0
179211.125,373.561,-98.3519,0,0
179471.45,380.087,-93.6207,0,0
179731.775,386.887,-89.0099,0,0
179992.1,393.819,-84.5871,0,0
180252.425,401.002,-80.3199,0,0
180512.75,408.25,-76.1976,0,0
180773.075,415.618,-72.2369,0,0
181033.4,422.956,-68.3476,0,0
181293.725,430.469,-64.4247,0,0
181554.05,438.194,-60.4868,0,0
181814.375,446.043,-56.6734,0,0
182074.7,454.09,-52.9922,0,0
182335.025,462.189,-49.4163,0,0
182595.35,470.4,-45.7565,0,0
182855.675,478.704,-42.0889,0,0
183116.0,487.252,-38.4438,0,0
183376.325,495.947,-34.6139,0,0
183636.65,504.991,-30.6677,0,0
183896.975,514.431,-26.8635,0,0
184157.3,524.176,-23.0921,0,0
184417.625,534.26,-19.4409,0,0
184677.95,544.697,-15.7858,0,0
184938.275,555.392,-12.1901,0,0
185198.6,566.569,-8.61816,0,0
185458.925,578.103,-5.1732,0,0
185719.25,590.144,-1.91079,0,0
185979.575,602.61,1.3906,0,0
186239.9,615.627,4.48682,0,0
186500,629.197,7.36537,0,0
186761,643.405,9.91895,0,0
187021,658.181,12.1222,0,0
187281,673.539,13.9711,0,0
187542,689.548,15.3169,0,0
187802,706.194,16.1517,0,0
188062,723.236,16.37,0,0
188322,741.028,15.9918,0,0
188583,759.382,14.8828,0,0
188843,778.337,12.8801,0,0
189103,797.787,9.93222,0,0
189364,817.585,5.96134,0,0
189624,837.743,0.829374,0,0
189884,858.095,-5.34611,0,0
190145,878.567,-12.6621,0,0
190405,899.113,-21.2591,0,0
190665,919.584,-30.8726,0,0
190926,939.887,-41.7046,0,0
191186,960.079,-53.7276,0,0
191446,980.103,-66.9337,0,0
191707,999.576,-81.3329,0,0
191967,1018.74,-96.9236,0,0
192227,1037.25,-113.688,0,0
192488,1055.26,-131.644,0,0
192748,1072.54,-150.668,0,0
193008,1088.98,-170.82,0,0
193269,1104.49,-191.972,0,0
193529,1119.03,-214.07,0,0
193789,1132.67,-237.073,0,0
194050,1145.15,-260.878,0,0
194310,1156.57,-285.585,0,0
194570,1166.65,-310.953,0,0
194831,1175.45,-337.024,0,0
195091,1182.86,-363.406,0,0
195351,1189,-390.397,0,0
195612,1193.81,-418.083,0,0
195872,1197.12,-445.591,0,0
196132,1198.84,-473.334,0,0
196393,1198.97,-501.242,0,0
196653,1197.69,-528.91,0,0
196913,1194.99,-556.279,0,0
197174,1190.76,-583.426,0,0
197434,1185.25,-610.039,0,0
197694,1178.33,-635.967,0,0
197955,1170.3,-661.384,0,0
198215,1160.94,-685.993,0,0
198475,1150.81,-709.885,0,0
198735,1139.35,-732.612,0,0
198996,1127.45,-754.96,0,0
199256,1114.45,-776.543,0,0
199516,1100.97,-796.725,0,0
199777,1086.66,-815.74,0,0
200037,1071.58,-834.685,0,0
200297,1056.66,-852.248,0,0
200558,1040.36,-869.242,0,0
200818,1024.17,-885.142,0,0
201078,1007.42,-900.264,0,0
201339,990.06,-914.038,0,0
201599,972.655,-927.378,0,0
201859,954.76,-939.226,0,0
202120,936.951,-950.487,0,0
202380.025,918.842,-960.648,0,0
202640.35,900.877,-969.826,0,0
202900.675,882.715,-977.845,0,0
203161.0,865.055,-985.051,0,0
203421.325,847.409,-991.372,0,0
203681.65,830.038,-997.334,0,0
203941.975,812.914,-1002.05,0,0
204202.3,795.796,-1006.26,0,0
204462.625,779.542,-1009.78,0,0
204722.95,763.004,-1013.02,0,0
204983.275,747.047,-1015.21,0,0
205243.6,731.438,-1017.39,0,0
205503.925,716.45,-1018.72,0,0
205764.25,701.35,-1019.67,0,0
206024.575,686.712,-1020.33,0,0
206284.9,672.583,-1020.43,0,0
206545.225,658.523,-1020.19,0,0
206805.55,644.878,-1019.65,0,0
207065.875,631.956,-1018.87,0,0
207326.2,618.88,-1017.64,0,0
207586.525,606.334,-1016.15,0,0
207846.85,594.205,-1014.56,0,0
208107.175,582.319,-1012.76,0,0
208367.5,570.846,-1010.57,0,0
208627.825,559.643,-1008.41,0,0
208888.15,548.794,-1005.91,0,0
209148.475,538.129,-1003.27,0,0
209408.8,527.839,-1000.61,0,0
209669.125,517.978,-998.061,0,0
209929.45,507.924,-995.086,0,0
210189.775,498.868,-992.169,0,0
210450.1,489.34,-989.589,0,0
210710.425,480.367,-986.419,0,0
210970.75,471.328,-983.859,0,0
211231.075,462.393,-980.712,0,0
211491.4,453.337,-977.583,0,0
211751.725,444.636,-974.067,0,0
212012.05,436.052,-970.373,0,0
212272.375,427.824,-966.56,0,0
212532.7,419.833,-962.624,0,0
212793.025,412.054,-958.575,0,0
213053.35,404.559,-954.437,0,0
213313.675,397.285,-950.353,0,0
213574.0,390.233,-946.219,0,0
213834.325,383.376,-942.025,0,0
214094.65,376.652,-937.818,0,0
214354.975,369.965,-933.534,0,0
214615.3,363.744,-929.233,0,0
214875.625,357.366,-924.587,0,0
215135.95,351.371,-920.127,0,0
215396.275,345.694,-915.621,0,0
215656.6,340.22,-911.236,0,0
215916.925,334.827,-906.574,0,0
216177.25,329.579,-902.134,0,0
216437.575,324.566,-897.569,0,0
216697.9,319.742,-893.213,0,0
216958.225,315.008,-888.756,0,0
217218.55,310.452,-884.334,0,0
217478.875,306.016,-879.98,0,0
217739.2,301.624,-875.607,0,0
217999.525,297.365,-871.235,0,0
218259.85,293.214,-866.944,0,0
218520,289.133,-862.609,0,0
218780,285.257,-858.31,0,0
219041,281.539,-854.024,0,0
219301,277.691,-849.542,0,0
219561,274.078,-845.309,0,0
219822,270.674,-841.089,0,0
220082,267.215,-836.824,0,0
220342,263.989,-832.392,0,0
220603,260.797,-828.241,0,0
220863,257.805,-823.936,0,0
221123,254.678,-819.688,0,0
221384,251.8,-815.418,0,0
221644,248.929,-811.2,0,0
221904,246.276,-806.991,0,0
222165,243.701,-802.751,0,0
222425,241.163,-798.449,0,0
222685,238.628,-794.209,0,0
222946,236.335,-789.937,0,0
223206,234.086,-785.748,0,0
223466,231.952,-781.472,0,0
223727,229.911,-777.313,0,0
223987,228.026,-773.019,0,0
224247,226.16,-768.814,0,0
224508,224.558,-764.736,0,0
224768,222.826,-760.531,0,0
225028,221.5,-756.463,0,0
225289,220.206,-752.344,0,0
225549,218.897,-748.362,0,0
225809,217.894,-744.346,0,0
226070,216.823,-740.707,0,0
226330,215.858,-736.767,0,0
226590,214.995,-733.054,0,0
226851,214.199,-729.479,0,0
227111,213.356,-725.83,0,0
227371,212.545,-722.537,0,0
227632,211.879,-719.093,0,0
227892,211.135,-715.735,0,0
228152,210.338,-712.437,0,0
228413,209.684,-709.146,0,0
228673,208.987,-705.784,0,0
228933,208.284,-702.525,0,0
229193,207.602,-699.185,0,0
229454,206.991,-695.883,0,0
229714,206.542,-692.616,0,0
229974,206.009,-689.319,0,0
230235,205.569,-686.017,0,0
230495,205.133,-682.698,0,0
230755,204.904,-679.355,0,0
231016,204.581,-676.165,0,0
231276,204.436,-672.85,0,0
231536,204.274,-669.631,0,0
231797,204.268,-666.307,0,0
232057,204.279,-663.084,0,0
232317,204.408,-659.885,0,0
232578,204.559,-656.708,0,0
232838,204.816,-653.507,0,0
233098,205.088,-650.333,0,0
233359,205.524,-647.211,0,0
233619,206.017,-644.092,0,0
233879,206.566,-640.996,0,0
234140,207.145,-637.965,0,0
234400,207.897,-634.916,0,0
234660.3,208.736,-631.995,0,0
234920.625,209.586,-629.129,0,0
235180.95,210.627,-626.18,0,0
235441.275,211.592,-623.42,0,0
235701.6,212.8,-620.635,0,0
235961.925,214,-617.945,0,0
236222.25,215.284,-615.281,0,0
236482.575,216.618,-612.7,0,0
236742.9,218.096,-610.183,0,0
237003.225,219.616,-607.699,0,0
237263.55,221.231,-605.302,0,0
237523.875,222.897,-602.999,0,0
237784.2,224.638,-600.759,0,0
238044.525,226.482,-598.582,0,0
238304.85,228.403,-596.543,0,0
238565.175,230.403,-594.584,0,0
238825.5,232.488,-592.694,0,0
239085.825,234.623,-590.883,0,0
239346.15,236.775,-589.324,0,0
239606.475,239.088,-587.798,0,0
239866.8,241.277,-586.377,0,0
240127.125,243.735,-585.115,0,0
240387.45,246.028,-583.899,0,0
240647.775,248.469,-582.785,0,0
240908.1,250.996,-581.888,0,0
241168.425,253.474,-581.08,0,0
241428.75,255.973,-580.433,0,0
241689.075,258.581,-580.023,0,0
241949.4,261.114,-579.633,0,0
242209.725,263.68,-579.308,0,0
242470.05,266.243,-579.251,0,0
242730.375,268.809,-579.25,0,0
242990.7,271.329,-579.455,0,0
243251.025,273.918,-579.793,0,0
243511.35,276.56,-580.274,0,0
243771.675,279.104,-580.898,0,0
244032.0,281.67,-581.825,0,0
244292.325,284.168,-582.87,0,0
244552.65,286.636,-584.241,0,0
244812.975,288.997,-585.713,0,0
245073.3,290.997,-587.438,0,0
245333.625,292.991,-589.308,0,0
245593.95,294.683,-591.295,0,0
245854.275,296.291,-593.353,0,0
246114.6,297.598,-595.528,0,0
246374.925,298.717,-597.656,0,0
246635.25,299.713,-599.868,0,0
246895.575,300.47,-601.972,0,0
247155.9,301.229,-603.982,0,0
247416.225,301.849,-606.122,0,0
247676.55,302.348,-608.175,0,0
247936.875,302.776,-610.177,0,0
248197.2,303.065,-612.298,0,0
248457.525,303.374,-614.413,0,0
248717.85,303.48,-616.4,0,0
248978.175,303.43,-618.312,0,0
249238.5,303.515,-620.098,0,0
249498.825,303.489,-621.801,0,0
249759.15,303.537,-623.666,0,0
250019.475,303.72,-625.321,0,0
250279.8,304.139,-627.175,0,0
250540,304.367,-629.164,0,0
250800,304.758,-631.374,0,0
251061,304.991,-633.811,0,0
251321,305.101,-636.429,0,0
251581,305.078,-639.164,0,0
251842,304.744,-642.03,0,0
252102,304.255,-644.982,0,0
252362,303.508,-647.893,0,0
252623,302.632,-650.825,0,0
252883,301.555,-653.834,0,0
253143,300.324,-656.808,0,0
253404,298.855,-659.827,0,0
253664,297.228,-662.819,0,0
253924,295.338,-665.783,0,0
254185,293.316,-668.638,0,0
254445,290.966,-671.436,0,0
254705,288.314,-674.05,0,0
254966,285.778,-676.668,0,0
255226,282.798,-679.013,0,0
255486,279.717,-681.225,0,0
255747,276.636,-683.135,0,0
256007,273.408,-684.963,0,0
256267,270.08,-686.633,0,0
256528,266.65,-688.063,0,0
256788,263.211,-689.352,0,0
257048,259.765,-690.443,0,0
257309,256.313,-691.327,0,0
257569,252.914,-692.085,0,0
257829,249.434,-692.623,0,0
258090,246.026,-693.079,0,0
258350,242.653,-693.446,0,0
258610,239.318,-693.52,0,0
258871,236.009,-693.617,0,0
259131,232.703,-693.536,0,0
259391,229.643,-693.427,0,0
259651,226.486,-693.183,0,0
259912,223.289,-692.776,0,0
260172,220.253,-692.41,0,0
260432,217.258,-691.954,0,0
260693,214.179,-691.387,0,0
260953,211.313,-690.689,0,0
261213,208.45,-690.035,0,0
261474,205.653,-689.243,0,0
261734,202.883,-688.329,0,0
261994,200.184,-687.473,0,0
262255,197.557,-686.494,0,0
262515,194.99,-685.489,0,0
262775,192.43,-684.368,0,0
263036,190.024,-683.253,0,0
263296,187.643,-682.14,0,0
263556,185.303,-680.962,0,0
263817,183.042,-679.78,0,0
264077,180.89,-678.573,0,0
264337,178.685,-677.305,0,0
264598,176.465,-676.154,0,0
264858,174.453,-674.806,0,0
265118,172.351,-673.553,0,0
265379,170.449,-672.28,0,0
265639,168.514,-670.974,0,0
265899,166.615,-669.561,0,0
266160,164.731,-668.189,0,0
266420,162.925,-666.802,0,0
266680.25,161.178,-665.449,0,0
266940.575,159.494,-664.114,0,0
267200.9,157.773,-662.74,0,0
267461.225,156.161,-661.357,0,0
267721.55,154.533,-660.014,0,0
267981.875,152.96,-658.608,0,0
268242.2,151.44,-657.268,0,0
268502.525,149.956,-655.881,0,0
268762.85,148.412,-654.533,0,0
269023.175,146.975,-653.143,0,0
269283.5,145.54,-651.804,0,0
269543.825,144.132,-650.304,0,0
269804.15,142.739,-648.983,0,0
270064.475,141.299,-647.575,0,0
270324.8,140.047,-646.238,0,0
270585.125,138.694,-644.894,0,0
270845.45,137.5,-643.467,0,0
271105.775,136.173,-642.076,0,0
271366.1,134.911,-640.736,0,0
271626.425,133.693,-639.363,0,0
271886.75,132.495,-637.991,0,0
272147.075,131.342,-636.594,0,0
272407.4,130.154,-635.226,0,0
272667.725,129.048,-633.847,0,0
272928.05,127.973,-632.497,0,0
273188.375,126.898,-631.116,0,0
273448.7,125.783,-629.714,0,0
273709.025,124.727,-628.374,0,0
273969.35,123.701,-627.038,0,0
274229.675,122.648,-625.593,0,0
274490.0,121.692,-624.357,0,0
274750.325,120.692,-622.933,0,0
275010.65,119.752,-621.542,0,0
275270.975,118.737,-620.118,0,0
275531.3,117.898,-618.881,0,0
275791.625,117.001,-617.523,0,0
276051.95,116.046,-616.185,0,0
276312.275,115.113,-614.779,0,0
276572.6,114.254,-613.446,0,0
276832.925,113.378,-612.098,0,0
277093.25,112.555,-610.761,0,0
277353.575,111.734,-609.393,0,0
277613.9,110.925,-608.037,0,0
277874.225,110.128,-606.659,0,0
278134.55,109.343,-605.297,0,0
278394.875,108.614,-603.921,0,0
278655.2,107.865,-602.577,0,0
278915.525,107.15,-601.169,0,0
279175.85,106.409,-599.708,0,0
279436.175,105.745,-598.406,0,0
279696.5,105.14,-596.912,0,0
279956.825,104.518,-595.53,0,0
280217.15,104.044,-594.134,0,0
280477.475,103.565,-592.75,0,0
280737.8,103.151,-591.405,0,0
280998.125,102.724,-590.087,0,0
281258.45,102.382,-588.854,0,0
281518.775,102.01,-587.654,0,0
281779.1,101.66,-586.502,0,0
282039.425,101.271,-585.403,0,0
282299.75,100.867,-584.31,0,0
282560,100.427,-583.239,0,0
282820,99.9756,-582.169,0,0
283081,99.5196,-581.106,0,0
283341,99.0427,-580.027,0,0
283601,98.5966,-578.934,0,0
283862,98.1165,-577.816,0,0
284122,97.6767,-576.722,0,0
284382,97.2343,-575.622,0,0
284643,96.8351,-574.553,0,0
284903,96.4551,-573.393,0,0
285163,96.0969,-572.244,0,0
285424,95.78,-571.196,0,0
285684,95.4631,-570.144,0,0
285944,95.2004,-569.114,0,0
286205,94.9378,-568.125,0,0
286465,94.6774,-567.18,0,0
286725,94.3829,-566.314,0,0
286986,94.0896,-565.462,0,0
287246,93.7484,-564.629,0,0
287506,93.3752,-563.823,0,0
287767,92.97,-562.981,0,0
288027,92.5385,-562.177,0,0
288287,92.0914,-561.355,0,0
288548,91.6376,-560.487,0,0
288808,91.1555,-559.609,0,0
289068,90.6965,-558.704,0,0
289329,90.2161,-557.827,0,0
289589,89.7614,-556.903,0,0
289849,89.3071,-555.962,0,0
290109,88.8802,-555.071,0,0
290370,88.4249,-554.121,0,0
290630,88.0371,-553.19,0,0
290890,87.6375,-552.308,0,0
291151,87.244,-551.353,0,0
291411,86.8915,-550.454,0,0
291671,86.4749,-549.569,0,0
291932,86.139,-548.697,0,0
292192,85.7808,-547.826,0,0
292452,85.4062,-546.992,0,0
292713,85.0469,-546.146,0,0
292973,84.6572,-545.329,0,0
293233,84.241,-544.542,0,0
293494,83.8108,-543.738,0,0
293754,83.3458,-542.912,0,0
294014,82.9043,-542.118,0,0
294275,82.4273,-541.276,0,0
294535,81.9259,-540.4,0,0
294795,81.4464,-539.517,0,0
295056,80.9293,-538.653,0,0
295316,80.4864,-537.727,0,0
295576,79.9747,-536.762,0,0
295837,79.5182,-535.829,0,0
296097,79.0634,-534.837,0,0
296357,78.6312,-533.839,0,0
296618,78.2283,-532.816,0,0
296878,77.83,-531.799,0,0
297138,77.4747,-530.771,0,0
297399,77.1488,-529.728,0,0
297659,76.8843,-528.695,0,0
297919,76.6319,-527.676,0,0
298180,76.4306,-526.657,0,0
298440,76.2643,-525.696,0,0
298700.2,76.0689,-524.801,0,0
298960.525,75.9373,-523.887,0,0
299220.85,75.7894,-523.075,0,0
299481.175,75.6935,-522.27,0,0
299741.5,75.4349,-521.48,0,0
300001.825,75.2056,-520.739,0,0
300262.15,74.9962,-519.997,0,0
300522.475,74.7388,-519.21,0,0
300782.8,74.4936,-518.402,0,0
301043.125,74.1922,-517.708,0,0
301303.45,73.9449,-516.874,0,0
301563.775,73.5958,-516.065,0,0
301824.1,73.2839,-515.29,0,0
302084.425,72.9965,-514.574,0,0
302344.75,72.6859,-513.68,0,0
302605.075,72.4562,-512.912,0,0
302865.4,72.1037,-512.115,0,0
303125.725,71.8721,-511.215,0,0
303386.05,71.5337,-510.416,0,0
303646.375,71.2187,-509.54,0,0
303906.7,70.9528,-508.734,0,0
304167.025,70.7699,-507.883,0,0
304427.35,70.5168,-507.03,0,0
304687.675,70.2944,-506.238,0,0
304948.0,70.1138,-505.452,0,0
305208.325,69.936,-504.57,0,0
305468.65,69.7897,-503.757,0,0
305728.975,69.5292,-503.028,0,0
305989.3,69.3906,-502.31,0,0
306249.625,69.1593,-501.56,0,0
306509.95,68.9548,-500.845,0,0
306770.275,68.7784,-500.138,0,0
307030.6,68.5102,-499.352,0,0
307290.925,68.3091,-498.672,0,0
307551.25,68.0025,-497.885,0,0
307811.575,67.7983,-497.161,0,0
308071.9,67.5575,-496.416,0,0
308332.225,67.3123,-495.648,0,0
308592.55,67.0475,-494.905,0,0
308852.875,66.8222,-494.143,0,0
309113.2,66.6037,-493.349,0,0
309373.525,66.3926,-492.665,0,0
309633.85,66.172,-491.915,0,0
309894.175,65.9772,-491.142,0,0
310154.5,65.7006,-490.402,0,0
310414.825,65.5501,-489.684,0,0
310675.15,65.3435,-488.918,0,0
310935.475,65.1423,-488.19,0,0
311195.8,64.9179,-487.461,0,0
311456.125,64.7458,-486.708,0,0
311716.45,64.4987,-486.008,0,0
311976.775,64.2985,-485.303,0,0
312237.1,64.1018,-484.591,0,0
312497.425,63.8748,-483.87,0,0
312757.75,63.699,-483.099,0,0
313018.075,63.4612,-482.449,0,0
313278.4,63.2224,-481.717,0,0
313538.725,63.0329,-481.02,0,0
313799.05,62.7974,-480.285,0,0
314059.375,62.5674,-479.548,0,0
314319.7,62.3841,-478.85,0,0
314580,62.2366,-478.068,0,0
314840,62.0281,-477.392,0,0
315101,61.8306,-476.627,0,0
315361,61.5836,-475.93,0,0
315621,61.3909,-475.175,0,0
315882,61.314,-474.481,0,0
316142,61.033,-473.751,0,0
316402,60.8918,-473.031,0,0
316663,60.6744,-472.35,0,0
316923,60.5094,-471.6,0,0
317183,60.3617,-470.946,0,0
317444,60.1853,-470.23,0,0
317704,59.963,-469.482,0,0
317964,59.8135,-468.813,0,0
318225,59.622,-468.131,0,0
318485,59.4485,-467.409,0,0
318745,59.2646,-466.664,0,0
319006,59.083,-466.019,0,0
319266,58.9344,-465.301,0,0
319526,58.7619,-464.571,0,0
319787,58.5937,-463.884,0,0
320047,58.4642,-463.132,0,0
320307,58.3088,-462.449,0,0
320567,58.1506,-461.742,0,0
320828,58.0242,-461.051,0,0
321088,57.8426,-460.39,0,0
321348,57.7176,-459.678,0,0
321609,57.6001,-459.004,0,0
321869,57.4653,-458.302,0,0
322129,57.3111,-457.642,0,0
322390,57.1902,-456.942,0,0
322650,57.0623,-456.295,0,0
322910,56.9308,-455.645,0,0
323171,56.759,-454.951,0,0
323431,56.6481,-454.324,0,0
323691,56.5632,-453.628,0,0
323952,56.4098,-453.023,0,0
324212,56.2753,-452.302,0,0
324472,56.1257,-451.69,0,0
324733,56.0016,-451.029,0,0
324993,55.8054,-450.414,0,0
325253,55.6875,-449.748,0,0
325514,55.5455,-449.085,0,0
325774,55.4303,-448.425,0,0
326034,55.2383,-447.8,0,0
326295,55.1218,-447.14,0,0
326555,54.9888,-446.475,0,0
326815,54.8205,-445.829,0,0
327076,54.6614,-445.178,0,0
327336,54.4883,-444.515,0,0
327596,54.3834,-443.866,0,0
327857,54.2338,-443.159,0,0
328117,54.0884,-442.518,0,0
328377,53.9303,-441.815,0,0
328638,53.8558,-441.157,0,0
328898,53.7126,-440.465,0,0
329158,53.6136,-439.802,0,0
329419,53.5047,-439.154,0,0
329679,53.3792,-438.481,0,0
329939,53.2578,-437.86,0,0
330200,53.1591,-437.129,0,0
330460,53.0707,-436.475,0,0
330720.15,53.0026,-435.801,0,0
330980.475,52.9032,-435.19,0,0
331240.8,52.8297,-434.481,0,0
331501.125,52.7056,-433.871,0,0
331761.45,52.6277,-433.23,0,0
332021.775,52.5766,-432.569,0,0
332282.1,52.489,-431.883,0,0
332542.425,52.3533,-431.269,0,0
332802.75,52.3302,-430.618,0,0
333063.075,52.2504,-429.996,0,0
333323.4,52.1601,-429.358,0,0
333583.725,52.0913,-428.749,0,0
333844.05,51.9573,-428.141,0,0
334104.375,51.9444,-427.438,0,0
334364.7,51.8427,-426.893,0,0
334625.025,51.7573,-426.243,0,0
334885.35,51.6725,-425.636,0,0
335145.675,51.6503,-425.018,0,0
335406.0,51.544,-424.348,0,0
335666.325,51.4297,-423.795,0,0
335926.65,51.4102,-423.179,0,0
336186.975,51.3105,-422.51,0,0
336447.3,51.2777,-421.945,0,0
336707.625,51.2036,-421.317,0,0
336967.95,51.138,-420.707,0,0
337228.275,51.076,-420.107,0,0
337488.6,50.9903,-419.477,0,0
337748.925,50.9562,-418.893,0,0
338009.25,50.9113,-418.266,0,0
338269.575,50.7523,-417.66,0,0
338529.9,50.6884,-417.048,0,0
338790.225,50.6404,-416.482,0,0
339050.55,50.5804,-415.869,0,0
339310.875,50.5375,-415.208,0,0
339571.2,50.4516,-414.589,0,0
339831.525,50.3589,-414.021,0,0
340091.85,50.3409,-413.379,0,0
340352.175,50.2885,-412.774,0,0
340612.5,50.2026,-412.208,0,0
340872.825,50.1742,-411.563,0,0
341133.15,50.1558,-410.964,0,0
341393.475,50.0923,-410.301,0,0
341653.8,50.029,-409.734,0,0
341914.125,50.0159,-409.102,0,0
342174.45,50.0199,-408.519,0,0
342434.775,49.9683,-407.915,0,0
342695.1,49.9848,-407.271,0,0
342955.425,49.9334,-406.745,0,0
343215.75,49.9456,-406.124,0,0
343476.075,49.9678,-405.569,0,0
343736.4,49.9342,-405.016,0,0
343996.725,49.9266,-404.418,0,0
344257.05,49.917,-403.893,0,0
344517.375,49.8776,-403.346,0,0
344777.7,49.834,-402.791,0,0
345038.025,49.7751,-402.174,0,0
345298.35,49.7224,-401.635,0,0
345558.675,49.7076,-401.06,0,0
345819.0,49.6265,-400.493,0,0
346079.325,49.6277,-399.865,0,0
346339.65,49.6088,-399.267,0,0
346599.975,49.601,-398.685,0,0
346860,49.5703,-398.097,0,0
347121,49.5583,-397.538,0,0
347381,49.5755,-396.948,0,0
347641,49.5606,-396.405,0,0
347902,49.5996,-395.792,0,0
348162,49.5937,-395.234,0,0
348422,49.6198,-394.661,0,0
348683,49.6136,-394.117,0,0
348943,49.6207,-393.537,0,0
349203,49.6853,-392.97,0,0
349464,49.6968,-392.393,0,0
349724,49.7009,-391.86,0,0
349984,49.7773,-391.301,0,0
350245,49.7765,-390.793,0,0
350505,49.8404,-390.226,0,0
350765,49.8738,-389.706,0,0
351025,49.933,-389.172,0,0
351286,49.9619,-388.693,0,0
351546,49.9797,-388.173,0,0
351806,50.0306,-387.659,0,0
352067,50.046,-387.173,0,0
352327,50.0767,-386.646,0,0
352587,50.1346,-386.183,0,0
352848,50.1789,-385.672,0,0
353108,50.1921,-385.224,0,0
353368,50.2563,-384.717,0,0
353629,50.2771,-384.267,0,0
353889,50.3154,-383.812,0,0
354149,50.345,-383.363,0,0
354410,50.3681,-382.932,0,0
354670,50.3759,-382.464,0,0
354930,50.3932,-381.973,0,0
355191,50.4321,-381.515,0,0
355451,50.4084,-381.115,0,0
355711,50.4066,-380.674,0,0
355972,50.3894,-380.221,0,0
356232,50.3868,-379.769,0,0
356492,50.3366,-379.334,0,0
356753,50.3144,-378.866,0,0
357013,50.3464,-378.435,0,0
357273,50.2574,-377.942,0,0
357534,50.2483,-377.541,0,0
357794,50.1916,-377.038,0,0
358054,50.1546,-376.618,0,0
358315,50.1526,-376.17,0,0
358575,50.0999,-375.67,0,0
358835,50.0757,-375.144,0,0
359096,50.0881,-374.768,0,0
359356,50.008,-374.286,0,0
359616,49.9859,-373.831,0,0
359877,50.0057,-373.338,0,0
360137,49.9637,-372.906,0,0
360397,49.9238,-372.407,0,0
360658,49.8855,-371.936,0,0
360918,49.8436,-371.498,0,0
361178,49.7528,-370.996,0,0
361438,49.7559,-370.587,0,0
361699,49.703,-370.08,0,0
361959,49.6701,-369.641,0,0
362219,49.6278,-369.156,0,0
362480,49.5657,-368.648,0,0
362740.1,49.5468,-368.216,0,0
363000.425,49.5114,-367.715,0,0
363260.75,49.493,-367.198,0,0
363521.075,49.4535,-366.734,0,0
363781.4,49.437,-366.27,0,0
364041.725,49.3901,-365.773,0,0
364302.05,49.3464,-365.271,0,0
364562.375,49.351,-364.783,0,0
364822.7,49.3181,-364.287,0,0
365083.025,49.3205,-363.813,0,0
365343.35,49.3008,-363.334,0,0
365603.675,49.3026,-362.793,0,0
365864.0,49.2756,-362.369,0,0
366124.325,49.2593,-361.87,0,0
366384.65,49.2677,-361.362,0,0
366644.975,49.2579,-360.914,0,0
366905.3,49.2872,-360.449,0,0
367165.625,49.2946,-359.978,0,0
367425.95,49.2986,-359.531,0,0
367686.275,49.2728,-359.039,0,0
367946.6,49.2935,-358.559,0,0
368206.925,49.2597,-358.135,0,0
368467.25,49.2755,-357.649,0,0
368727.575,49.2687,-357.187,0,0
368987.9,49.2673,-356.716,0,0
369248.225,49.2529,-356.257,0,0
369508.55,49.2217,-355.799,0,0
369768.875,49.223,-355.317,0,0
370029.2,49.1801,-354.786,0,0
370289.525,49.2116,-354.345,0,0
370549.85,49.2357,-353.872,0,0
370810.175,49.2574,-353.438,0,0
371070.5,49.2557,-352.909,0,0
371330.825,49.2605,-352.459,0,0
371591.15,49.2919,-351.989,0,0
371851.475,49.3274,-351.557,0,0
372111.8,49.3522,-351.06,0,0
372372.125,49.3877,-350.646,0,0
372632.45,49.4271,-350.245,0,0
372892.775,49.4566,-349.78,0,0
373153.1,49.4925,-349.383,0,0
373413.425,49.517,-348.978,0,0
373673.75,49.5227,-348.584,0,0
373934.075,49.549,-348.189,0,0
374194.4,49.5198,-347.803,0,0
374454.725,49.5006,-347.423,0,0
374715.05,49.5096,-347.028,0,0
374975.375,49.4601,-346.658,0,0
375235.7,49.3945,-346.27,0,0
375496.025,49.3245,-345.871,0,0
375756.35,49.2824,-345.466,0,0
376016.675,49.208,-345.019,0,0
376277.0,49.1285,-344.611,0,0
376537.325,49.0644,-344.167,0,0
376797.65,48.9807,-343.717,0,0
377057.975,48.9224,-343.267,0,0
377318.3,48.8557,-342.811,0,0
377578.625,48.7656,-342.348,0,0
377838.95,48.6918,-341.876,0,0
378099.275,48.6567,-341.393,0,0
378359.6,48.6141,-340.937,0,0
378619.925,48.5194,-340.449,0,0
378880,48.4661,-340.003,0,0
379141,48.4296,-339.491,0,0
379401,48.389,-339.024,0,0
379661,48.321,-338.536,0,0
379922,48.3002,-337.985,0,0
380182,48.2199,-337.485,0,0
380442,48.1767,-337.028,0,0
380703,48.1129,-336.508,0,0
380963,48.1025,-336.01,0,0
381223,48.0551,-335.459,0,0
381483,48.0637,-334.956,0,0
381744,48.053,-334.403,0,0
382004,48.0577,-333.896,0,0
382264,48.0831,-333.354,0,0
382525,48.1085,-332.83,0,0
382785,48.1271,-332.309,0,0
383045,48.2223,-331.802,0,0
383306,48.2576,-331.341,0,0
383566,48.3192,-330.89,0,0
383826,48.3595,-330.457,0,0
384087,48.3871,-330.059,0,0
384347,48.3968,-329.572,0,0
384607,48.3457,-329.185,0,0
384868,48.3115,-328.74,0,0
385128,48.2322,-328.264,0,0
385388,48.2675,-327.762,0,0
385649,48.2584,-327.299,0,0
385909,48.1977,-326.822,0,0
386169,48.2138,-326.347,0,0
386430,48.2074,-325.85,0,0
386690,48.2342,-325.338,0,0
386950,48.2079,-324.871,0,0
387211,48.1623,-324.401,0,0
387471,48.1389,-323.897,0,0
387731,48.1478,-323.407,0,0
387992,48.1301,-322.929,0,0
388252,48.1219,-322.449,0,0
388512,48.1286,-321.91,0,0
388773,48.1074,-321.426,0,0
389033,48.1242,-320.917,0,0
389293,48.1106,-320.414,0,0
389554,48.0895,-319.87,0,0
389814,48.122,-319.382,0,0
390074,48.1243,-318.883,0,0
390335,48.122,-318.372,0,0
390595,48.1294,-317.871,0,0
390855,48.1636,-317.361,0,0
391116,48.1861,-316.847,0,0
391376,48.1796,-316.364,0,0
391636,48.2178,-315.832,0,0
391896,48.2358,-315.291,0,0
392157,48.2521,-314.812,0,0
392417,48.279,-314.29,0,0
392677,48.3083,-313.79,0,0
392938,48.2812,-313.259,0,0
393198,48.311,-312.756,0,0
393458,48.3593,-312.255,0,0
393719,48.377,-311.731,0,0
393979,48.4036,-311.218,0,0
394239,48.4398,-310.697,0,0
394500,48.4384,-310.163,0,0
394760.05,48.5011,-309.65,0,0
395020.375,48.5098,-309.119,0,0
395280.7,48.5355,-308.606,0,0
395541.025,48.5966,-308.071,0,0
395801.35,48.6255,-307.554,0,0
396061.675,48.676,-307.019,0,0
396322.0,48.6917,-306.495,0,0
396582.325,48.7539,-305.954,0,0
396842.65,48.8082,-305.455,0,0
397102.975,48.8343,-304.911,0,0
397363.3,48.9104,-304.387,0,0
397623.625,48.926,-303.859,0,0
397883.95,48.9951,-303.314,0,0
398144.275,49.0442,-302.786,0,0
398404.6,49.1052,-302.251,0,0
398664.925,49.1532,-301.699,0,0
398925.25,49.1908,-301.155,0,0
399185.575,49.2564,-300.637,0,0
399445.9,49.3299,-300.102,0,0
399706.225,49.4012,-299.548,0,0
399966.55,49.4268,-299.007,0,0
400006.6,49.4696,-298.931,0,0