File: Accelerated corrosion test data/2025-10-23_06-00-04/sample_7.csv
Frequency (Hz),Impedance (ohms),Phase (Radians),Temperature (C),Humidity (%)
10000.0,272.673,-12124,0,0
10260.325,267.379,-11832.7,0,0
10520.65,257.185,-11533.6,0,0
10780.975,252.013,-11251.1,0,0
11041.3,249.606,-10983.3,0,0
11301.625,246.372,-10726.4,0,0
11561.95,250.37,-10476.5,0,0
11822.275,259.588,-10244.4,0,0
12082.6,269.136,-10017.8,0,0
12342.925,319.24,-9869.82,0,0
12603.25,257.002,-9670.62,0,0
12863.575,267.934,-9492.61,0,0
13123.9,235.333,-9301.76,0,0
13384.225,227.339,-9126.29,0,0
13644.55,225.883,-8946.81,0,0
13904.875,209.232,-8774.9,0,0
14165.2,210.742,-8603.86,0,0
14425.525,203.801,-8465.57,0,0
14685.8,201.602,-8314.64,0,0
14946.175,197.815,-8167.23,0,0
15206.5,193.122,-8036.66,0,0
15466.825,186.02,-7893.48,0,0
15727.15,182.211,-7765.74,0,0
15987.5,179.112,-7635.38,0,0
16247.8,176.2,-7517.05,0,0
16508.125,170.747,-7394.04,0,0
16768.45,170.705,-7274.94,0,0
17028.775,169.131,-7164.69,0,0
17289.1,165,-7055.54,0,0
17549.425,164.056,-6946.64,0,0
17809.75,168.768,-6837.03,0,0
18070.075,166.478,-6740.34,0,0
18330.4,176.329,-6632.69,0,0
18590.725,198.794,-6545.15,0,0
18851.05,190.942,-6472.11,0,0
19111.375,182.012,-6393.76,0,0
19371.7,212.805,-6324.93,0,0
19632.025,169.99,-6255.49,0,0
19892.35,158.015,-6152.82,0,0
20152.675,168.02,-6073.1,0,0
20413.0,170.234,-5997.88,0,0
20673.3,173.228,-5916.42,0,0
20933.65,185.528,-5862.26,0,0
21193.975,163.216,-5801.26,0,0
21454.3,152.638,-5725.35,0,0
21714.625,156.81,-5661.32,0,0
21974.9,144.139,-5595.62,0,0
22235.275,139.097,-5525.64,0,0
22495.6,137.65,-5462.13,0,0
22755.925,132.115,-5397.04,0,0
23016.25,128.651,-5333.26,0,0
23276.6,127.326,-5270.49,0,0
23536.9,127.966,-5210.64,0,0
23797.225,126.734,-5154.25,0,0
24057.55,123.196,-5096.95,0,0
24317.875,121.588,-5039.4,0,0
24578.2,122.876,-4984.53,0,0
24838.525,120.795,-4930.84,0,0
25098.85,119.785,-4879.53,0,0
25359.175,118.391,-4826.62,0,0
25619.5,117.208,-4774.01,0,0
25879.8,118.321,-4724.57,0,0
26140.1,118.56,-4672.58,0,0
26400.5,122.588,-4626.05,0,0
26660.8,119.401,-4578.75,0,0
26921.1,119.824,-4528.82,0,0
27181.4,125.239,-4479.22,0,0
27441.8,129.061,-4433.13,0,0
27702.1,137.986,-4385.14,0,0
27962.4,152.124,-4336.41,0,0
28222.7,179.609,-4303.39,0,0
28483.1,193.86,-4287.36,0,0
28743.4,199.449,-4280.75,0,0
29003.7,176.802,-4267.57,0,0
29264,153.178,-4234.03,0,0
29524.4,139.951,-4192.89,0,0
29784.7,130.949,-4152.37,0,0
30045,127.472,-4107.55,0,0
30305.3,128.202,-4070.13,0,0
30565.7,128.363,-4034.27,0,0
30826,129.642,-4000.42,0,0
31086.3,131.372,-3970.66,0,0
31346.6,129.448,-3939.59,0,0
31607,129.5,-3915.3,0,0
31867.3,120.708,-3884.74,0,0
32127.6,118.115,-3852.71,0,0
32387.9,115.067,-3822.79,0,0
32648.3,110.757,-3792.95,0,0
32908.6,107.305,-3762.54,0,0
33168.9,103.778,-3732.52,0,0
33429.2,100.68,-3702.34,0,0
33689.6,98.0799,-3672.16,0,0
33949.9,96.3111,-3642.9,0,0
34210.2,94.355,-3613.79,0,0
34470.5,92.6838,-3584.9,0,0
34730.9,91.4535,-3556.46,0,0
34991.2,90.6124,-3528.8,0,0
35251.5,89.3275,-3501.8,0,0
35511.8,88.4428,-3474.66,0,0
35772.2,87.9633,-3448.04,0,0
36032.5,87.7757,-3422.35,0,0
36292.8,87.2517,-3397.19,0,0
36553.1,86.3091,-3371.92,0,0
36813.5,85.5944,-3346.91,0,0
37073.8,85.2588,-3322.17,0,0
37334.1,85.2169,-3298.16,0,0
37594.4,85.0108,-3274.47,0,0
37854.8,84.5162,-3250.7,0,0
38115.1,84.506,-3226.65,0,0
38375.4,84.9176,-3203.34,0,0
38635.7,86.0642,-3180.27,0,0
38896.1,87.9222,-3157.42,0,0
39156.4,89.6665,-3135.52,0,0
39416.7,93.0849,-3114.22,0,0
39677,97.6422,-3095.75,0,0
39937.4,99.5684,-3080.66,0,0
40197.7,99.0986,-3065.27,0,0
40458,96.7639,-3050.05,0,0
40718.3,93.3308,-3032.2,0,0
40978.7,89.5991,-3013.84,0,0
41239,86.6153,-2994.42,0,0
41499.3,84.6888,-2974.65,0,0
41759.6,83.398,-2955.53,0,0
42020,81.4295,-2936.98,0,0
42280.275,79.7596,-2917.45,0,0
42540.6,79.3992,-2897.64,0,0
42800.925,79.6273,-2879.33,0,0
43061.25,79.0496,-2860.99,0,0
43321.575,79.761,-2844.33,0,0
43581.9,78.4478,-2826.56,0,0
43842.225,78.4414,-2808.22,0,0
44102.55,79.5253,-2790.43,0,0
44362.875,81.4244,-2774.73,0,0
44623.2,81.459,-2759.8,0,0
44883.525,80.6185,-2745.71,0,0
45143.85,79.6972,-2730.21,0,0
45404.175,78.2953,-2713.52,0,0
45664.5,79.7174,-2697.55,0,0
45924.825,80.3801,-2684.05,0,0
46185.15,79.0949,-2671.47,0,0
46445.475,76.8261,-2657.97,0,0
46705.8,74.2062,-2643.11,0,0
46966.125,71.4611,-2626.97,0,0
47226.45,70.7801,-2611.09,0,0
47486.775,70.3429,-2595.8,0,0
47747.1,70.0602,-2581.13,0,0
48007.425,69.4417,-2566.79,0,0
48267.75,69.225,-2552.38,0,0
48528.075,68.4389,-2538.65,0,0
48788.4,67.7933,-2524.38,0,0
49048.725,67.3036,-2510.4,0,0
49309.05,67.097,-2496.93,0,0
49569.375,66.7413,-2483.15,0,0
49829.7,66.051,-2469.6,0,0
50090.025,65.846,-2456.23,0,0
50350.35,65.4254,-2443.15,0,0
50610.675,65.0789,-2430.02,0,0
50871.0,64.7649,-2417.18,0,0
51131.325,64.3513,-2404.52,0,0
51391.65,63.997,-2391.73,0,0
51651.975,63.7506,-2379.28,0,0
51912.3,63.558,-2366.86,0,0
52172.625,63.5503,-2354.61,0,0
52432.95,63.2976,-2342.63,0,0
52693.275,63.0587,-2330.58,0,0
52953.6,63.112,-2318.88,0,0
53213.925,63.0833,-2307.25,0,0
53474.25,62.8399,-2296.11,0,0
53734.575,62.3438,-2284.6,0,0
53994.9,61.8379,-2273.22,0,0
54255.225,61.7208,-2262.07,0,0
54515.55,61.3342,-2250.88,0,0
54775.875,60.9966,-2239.74,0,0
55036.2,60.749,-2228.85,0,0
55296.525,60.5171,-2217.94,0,0
55556.85,60.2855,-2207.07,0,0
55817.175,59.9445,-2196.42,0,0
56077.5,59.7754,-2185.59,0,0
56337.825,59.7678,-2175.05,0,0
56598.15,59.5387,-2164.87,0,0
56858.475,59.4248,-2154.48,0,0
57118.8,59.3308,-2144.37,0,0
57379.125,59.0562,-2134.25,0,0
57639.45,58.8551,-2124.23,0,0
57899.775,58.5882,-2114.15,0,0
58160.1,58.52,-2104.01,0,0
58420.4,58.8102,-2094.28,0,0
58680.7,58.7501,-2084.84,0,0
58941.1,58.6134,-2075.33,0,0
59201.4,58.5794,-2065.81,0,0
59461.7,58.7926,-2056.36,0,0
59722,59.0356,-2047.47,0,0
59982.4,58.8971,-2038.48,0,0
60242.7,58.9085,-2029.72,0,0
60503,58.5921,-2021.1,0,0
60763.3,58.0662,-2012.31,0,0
61023.7,57.7402,-2003.52,0,0
61284,57.4416,-1994.8,0,0
61544.3,57.0408,-1986.17,0,0
61804.6,56.6119,-1977.57,0,0
62065,56.1749,-1968.7,0,0
62325.3,55.9362,-1960.06,0,0
62585.6,55.5852,-1951.47,0,0
62845.9,55.3225,-1942.99,0,0
63106.3,55.0843,-1934.45,0,0
63366.6,54.9361,-1925.88,0,0
63626.9,54.9892,-1917.79,0,0
63887.2,54.7259,-1909.79,0,0
64147.6,54.4127,-1901.47,0,0
64407.9,54.4021,-1893.27,0,0
64668.2,54.2268,-1885.15,0,0
64928.5,54.2675,-1877.08,0,0
65188.9,54.3633,-1869.21,0,0
65449.2,54.4831,-1861.51,0,0
65709.5,54.5286,-1854.03,0,0
65969.8,54.4153,-1846.9,0,0
66230.2,54.0885,-1839.23,0,0
66490.5,53.8593,-1832.01,0,0
66750.8,53.3824,-1824.55,0,0
67011.1,52.8372,-1817.39,0,0
67271.5,52.4524,-1809.76,0,0
67531.8,52.2869,-1802.26,0,0
67792.1,51.9231,-1794.87,0,0
68052.4,51.7687,-1787.61,0,0
68312.8,51.5952,-1780.14,0,0
68573.1,51.3242,-1772.87,0,0
68833.4,51.2142,-1765.66,0,0
69093.7,51.142,-1758.68,0,0
69354.1,50.8374,-1751.81,0,0
69614.4,50.8997,-1744.68,0,0
69874.7,50.7653,-1737.59,0,0
70135,50.624,-1730.71,0,0
70395.4,50.6151,-1723.67,0,0
70655.7,50.4816,-1717.02,0,0
70916,50.6456,-1710.43,0,0
71176.3,50.5874,-1703.89,0,0
71436.7,50.4249,-1697.48,0,0
71697,50.1486,-1690.96,0,0
71957.3,49.9574,-1684.46,0,0
72217.6,49.7318,-1678.01,0,0
72478,49.4523,-1671.55,0,0
72738.3,49.3203,-1665.06,0,0
72998.6,48.8403,-1658.63,0,0
73258.9,49.0461,-1652.19,0,0
73519.3,48.8227,-1645.97,0,0
73779.6,48.6886,-1639.52,0,0
74039.9,48.5796,-1633.34,0,0
74300.225,48.5039,-1627.14,0,0
74560.55,48.3743,-1621,0,0
74820.875,48.1878,-1614.89,0,0
75081.2,48.1821,-1608.78,0,0
75341.525,48.2017,-1602.73,0,0
75601.85,47.9512,-1596.76,0,0
75862.175,47.7394,-1590.81,0,0
76122.5,47.7153,-1584.79,0,0
76382.825,47.6213,-1578.89,0,0
76643.15,47.537,-1572.99,0,0
76903.475,47.4746,-1567.14,0,0
77163.8,47.5167,-1561.42,0,0
77424.125,47.4453,-1555.68,0,0
77684.45,47.3819,-1550,0,0
77944.775,47.3048,-1544.39,0,0
78205.1,47.1553,-1538.65,0,0
78465.425,47.1614,-1533.06,0,0
78725.75,47.1769,-1527.57,0,0
78986.075,47.0901,-1522.01,0,0
79246.4,47.045,-1516.53,0,0
79506.725,46.9608,-1511.05,0,0
79767.05,46.9089,-1505.62,0,0
80027.375,46.9345,-1500.3,0,0
80287.7,46.8519,-1494.9,0,0
80548.025,46.7821,-1489.66,0,0
80808.35,46.707,-1484.38,0,0
81068.675,46.5674,-1479.06,0,0
81329.0,46.5068,-1473.89,0,0
81589.325,46.4481,-1468.62,0,0
81849.65,46.327,-1463.39,0,0
82109.975,46.3129,-1458.24,0,0
82370.3,46.3258,-1453,0,0
82630.625,46.3236,-1447.9,0,0
82890.95,46.2688,-1442.85,0,0
83151.275,46.2252,-1437.81,0,0
83411.6,46.1308,-1432.74,0,0
83671.925,46.1884,-1427.63,0,0
83932.25,46.2265,-1422.68,0,0
84192.575,46.2512,-1417.74,0,0
84452.9,46.387,-1412.79,0,0
84713.225,46.3335,-1408.04,0,0
84973.55,46.2844,-1403.32,0,0
85233.875,46.3985,-1398.55,0,0
85494.2,46.3905,-1393.68,0,0
85754.525,46.332,-1389.03,0,0
86014.85,46.2884,-1384.2,0,0
86275.175,46.391,-1379.51,0,0
86535.5,46.3814,-1374.87,0,0
86795.825,46.3882,-1370.14,0,0
87056.15,46.4141,-1365.48,0,0
87316.475,46.5189,-1361.01,0,0
87576.8,46.5019,-1356.47,0,0
87837.125,46.4959,-1352.04,0,0
88097.45,46.4167,-1347.58,0,0
88357.775,46.3487,-1343.15,0,0
88618.1,46.2632,-1338.68,0,0
88878.425,46.0986,-1334.19,0,0
89138.75,45.9745,-1329.69,0,0
89399.075,45.9232,-1325.16,0,0
89659.4,45.9628,-1320.61,0,0
89919.725,45.8875,-1316.11,0,0
90180,45.8675,-1311.71,0,0
90440.4,45.9013,-1307.21,0,0
90700.7,45.9709,-1302.84,0,0
90961,45.9412,-1298.5,0,0
91221.3,46.0517,-1294.04,0,0
91481.7,46.0518,-1289.69,0,0
91742,46.0757,-1285.38,0,0
92002.3,46.1021,-1280.97,0,0
92262.6,46.3099,-1276.65,0,0
92523,46.3814,-1272.39,0,0
92783.3,46.422,-1268.12,0,0
93043.6,46.6287,-1263.53,0,0
93303.9,46.9701,-1259.05,0,0
93564.3,47.5271,-1254.68,0,0
93824.6,48.1898,-1250.48,0,0
94084.9,49.1528,-1246.53,0,0
94345.2,49.9641,-1243.2,0,0
94605.6,50.2832,-1239.99,0,0
94865.9,50.2848,-1236.67,0,0
95126.2,50.2411,-1233.29,0,0
95386.5,49.9932,-1230.02,0,0
95646.9,49.4363,-1226.44,0,0
95907.2,49.0294,-1222.53,0,0
96167.5,48.6542,-1218.61,0,0
96427.8,48.3898,-1214.51,0,0
96688.2,48.2742,-1210.39,0,0
96948.5,48.3614,-1206.37,0,0
97208.8,48.4367,-1202.49,0,0
97469.1,48.3412,-1198.54,0,0
97729.5,48.5015,-1194.53,0,0
97989.8,48.7435,-1190.72,0,0
98250.1,48.8474,-1186.89,0,0
98510.4,49.0661,-1183.29,0,0
98770.8,49.0847,-1179.68,0,0
99031.1,48.9976,-1176.09,0,0
99291.4,48.8465,-1172.28,0,0
99551.7,48.5802,-1168.44,0,0
99812.1,48.5478,-1164.28,0,0
100072,48.8282,-1160.08,0,0
100333,49.2333,-1156.37,0,0
100593,49.4323,-1152.73,0,0
100853,49.646,-1148.82,0,0
101114,50.1519,-1145.08,0,0
101374,50.4192,-1141.52,0,0
101634,50.635,-1137.8,0,0
101895,50.9862,-1134.11,0,0
102155,51.4089,-1130.4,0,0
102415,52.0152,-1126.77,0,0
102676,52.5956,-1123.43,0,0
102936,52.9436,-1119.98,0,0
103196,53.5323,-1116.56,0,0
103457,54.2,-1113.27,0,0
103717,54.882,-1110.36,0,0
103977,55.0681,-1107.67,0,0
104238,55.0304,-1104.56,0,0
104498,55.171,-1101.4,0,0
104758,55.4911,-1098.24,0,0
105019,55.635,-1095.49,0,0
105279,55.4488,-1092.41,0,0
105539,55.3105,-1089.11,0,0
105800,55.3877,-1085.95,0,0
106060,55.2037,-1082.8,0,0
106320.175,55.1498,-1079.29,0,0
106580.5,55.3445,-1075.89,0,0
106840.825,55.5056,-1072.67,0,0
107101.15,55.6203,-1069.54,0,0
107361.475,55.5486,-1066.29,0,0
107621.8,55.5052,-1062.88,0,0
107882.125,55.602,-1059.4,0,0
108142.45,55.8551,-1055.98,0,0
108402.775,56.2215,-1052.59,0,0
108663.1,56.5474,-1049.46,0,0
108923.425,56.6938,-1046.35,0,0
109183.75,56.7287,-1043.12,0,0
109444.075,56.8215,-1039.73,0,0
109704.4,57.019,-1036.29,0,0
109964.725,57.0387,-1032.92,0,0
110225.05,57.1849,-1029.16,0,0
110485.375,57.7633,-1025.53,0,0
110745.7,58.4776,-1021.87,0,0
111006.025,59.3537,-1018.63,0,0
111266.35,59.994,-1015.51,0,0
111526.675,60.2137,-1012.17,0,0
111787.0,60.9169,-1008.62,0,0
112047.325,61.829,-1005.15,0,0
112307.65,62.7928,-1001.81,0,0
112567.975,63.8907,-998.524,0,0
112828.3,65.0727,-995.474,0,0
113088.625,66.2614,-992.504,0,0
113348.95,67.3698,-989.812,0,0
113609.275,68.2805,-986.966,0,0
113869.6,69.3382,-983.923,0,0
114129.925,70.6233,-981.039,0,0
114390.25,72.0845,-978.351,0,0
114650.575,73.2843,-975.937,0,0
114910.9,74.457,-973.173,0,0
115171.225,75.9026,-970.416,0,0
115431.55,77.5949,-967.903,0,0
115691.875,79.5916,-965.629,0,0
115952.2,81.4399,-963.854,0,0
116212.525,83.1173,-962.186,0,0
116472.85,84.9818,-960.751,0,0
116733.175,86.5118,-959.839,0,0
116993.5,87.5352,-958.941,0,0
117253.825,88.5129,-957.75,0,0
117514.15,89.7867,-956.777,0,0
117774.475,90.7655,-956.187,0,0
118034.8,91.379,-955.42,0,0
118295.125,92.1593,-954.597,0,0
118555.45,93.0914,-954.014,0,0
118815.775,93.8746,-954.047,0,0
119076.1,94.0678,-954.305,0,0
119336.425,93.85,-954.67,0,0
119596.75,93.3898,-954.817,0,0
119857.075,92.6078,-955.262,0,0
120117.4,91.1159,-955.6,0,0
120377.725,89.1168,-955.821,0,0
120638.05,86.3715,-955.332,0,0
120898.375,83.6841,-954.038,0,0
121158.7,81.0277,-952.292,0,0
121419.025,78.7383,-949.782,0,0
121679.35,77.1275,-947.367,0,0
121939.675,75.5129,-945.175,0,0
122200.0,73.8079,-942.944,0,0
122460,72.0408,-940.479,0,0
122721,70.4706,-937.874,0,0
122981,68.9362,-935.162,0,0
123241,67.4883,-932.299,0,0
123502,66.2237,-929.361,0,0
123762,65.1987,-926.291,0,0
124022,64.3839,-923.428,0,0
124283,63.5037,-920.775,0,0
124543,62.5905,-917.987,0,0
124803,61.8408,-915.3,0,0
125064,60.9154,-912.723,0,0
125324,59.8064,-910.055,0,0
125584,58.7543,-907.031,0,0
125845,57.9501,-904.066,0,0
126105,57.1087,-901.182,0,0
126365,56.1486,-898.179,0,0
126626,55.4033,-894.991,0,0
126886,54.8029,-891.886,0,0
127146,54.1684,-888.786,0,0
127406,53.6023,-885.548,0,0
127667,53.3104,-882.372,0,0
127927,53.1552,-879.31,0,0
128187,52.9114,-876.473,0,0
128448,52.5345,-873.642,0,0
128708,52.2633,-870.739,0,0
128968,51.8665,-867.876,0,0
129229,51.5579,-864.894,0,0
129489,51.3767,-862.06,0,0
129749,50.9903,-859.268,0,0
130010,50.6552,-856.273,0,0
130270,50.516,-853.388,0,0
130530,50.3005,-850.635,0,0
130791,49.8357,-847.874,0,0
131051,49.3887,-844.909,0,0
131311,49.0102,-841.764,0,0
131572,48.8544,-838.604,0,0
131832,48.7917,-835.556,0,0
132092,48.5873,-832.593,0,0
132353,48.4064,-829.383,0,0
132613,48.4242,-826.205,0,0
132873,48.4665,-823.041,0,0
133134,48.5919,-819.917,0,0
133394,48.7486,-816.764,0,0
133654,48.9669,-813.584,0,0
133915,49.3278,-810.354,0,0
134175,49.9425,-807.11,0,0
134435,50.7811,-804.248,0,0
134696,51.3758,-801.699,0,0
134956,51.7153,-798.845,0,0
135216,52.446,-795.844,0,0
135477,53.3445,-793.119,0,0
135737,54.5683,-790.595,0,0
135997,55.7946,-788.479,0,0
136258,56.7381,-786.898,0,0
136518,57.3531,-785.507,0,0
136778,57.4981,-784.21,0,0
137039,57.207,-782.874,0,0
137299,56.5498,-781.134,0,0
137559,55.8782,-778.997,0,0
137819,55.3078,-776.759,0,0
138080,54.747,-774.394,0,0
138340.125,54.088,-771.776,0,0
138600.45,53.6357,-769.086,0,0
138860.775,53.1629,-766.245,0,0
139121.1,52.9163,-763.193,0,0
139381.425,52.9313,-760.227,0,0
139641.75,53.0626,-757.408,0,0
139902.075,53.2063,-754.69,0,0
140162.4,53.3345,-752.016,0,0
140422.725,53.3055,-749.528,0,0
140683.05,53.1339,-746.87,0,0
140943.375,53.0779,-744.058,0,0
141203.7,52.9507,-741.197,0,0
141464.025,52.9317,-738.233,0,0
141724.35,53.0566,-735.221,0,0
141984.675,53.3209,-732.229,0,0
142245.0,53.614,-729.296,0,0
142505.325,53.9408,-726.414,0,0
142765.65,54.2712,-723.456,0,0
143025.975,54.7809,-720.471,0,0
143286.3,55.4621,-717.646,0,0
143546.625,56.1283,-714.974,0,0
143806.95,56.8379,-712.439,0,0
144067.275,57.4548,-710.047,0,0
144327.6,57.8983,-707.708,0,0
144587.925,58.2283,-705.341,0,0
144848.25,58.5187,-702.853,0,0
145108.575,58.8768,-700.415,0,0
145368.9,59.1064,-698.001,0,0
145629.225,59.3807,-695.495,0,0
145889.55,59.596,-693.022,0,0
146149.875,59.8096,-690.384,0,0
146410.2,60.1701,-687.739,0,0
146670.525,60.594,-685.187,0,0
146930.85,60.944,-682.711,0,0
147191.175,61.2718,-680.268,0,0
147451.5,61.4847,-677.925,0,0
147711.825,61.5963,-675.363,0,0
147972.15,61.9076,-672.836,0,0
148232.475,62.1124,-670.496,0,0
148492.8,62.1114,-668.117,0,0
148753.125,61.9767,-665.656,0,0
149013.45,61.7437,-663.029,0,0
149273.775,61.4848,-660.147,0,0
149534.1,61.3834,-657.135,0,0
149794.425,61.311,-654.099,0,0
150054.75,61.2463,-650.997,0,0
150315.075,61.192,-647.812,0,0
150575.4,61.219,-644.506,0,0
150835.725,61.3491,-641.104,0,0
151096.05,61.5109,-637.648,0,0
151356.375,61.8166,-634.074,0,0
151616.7,62.2592,-630.505,0,0
151877.025,62.8049,-626.913,0,0
152137.35,63.4056,-623.39,0,0
152397.675,64.0351,-619.807,0,0
152658.0,64.795,-616.213,0,0
152918.325,65.6067,-612.607,0,0
153178.65,66.4466,-609.017,0,0
153438.975,67.3861,-605.438,0,0
153699.3,68.2786,-601.795,0,0
153959.625,69.2962,-598.081,0,0
154219.95,70.4413,-594.371,0,0
154480,71.6107,-590.679,0,0
154741,72.8072,-586.927,0,0
155001,74.2097,-583.044,0,0
155261,75.7563,-579.189,0,0
155522,77.4209,-575.417,0,0
155782,79.2077,-571.635,0,0
156042,81.1725,-567.935,0,0
156303,83.1827,-564.282,0,0
156563,85.2963,-560.668,0,0
156823,87.5352,-557.132,0,0
157084,89.9239,-553.601,0,0
157344,92.5362,-550.155,0,0
157604,95.3007,-547.012,0,0
157864,98.0803,-544.143,0,0
158125,100.779,-541.358,0,0
158385,103.659,-538.758,0,0
158645,106.533,-536.654,0,0
158906,109.063,-534.874,0,0
159166,111.215,-533.249,0,0
159426,112.95,-531.654,0,0
159687,114.313,-529.878,0,0
159947,115.41,-527.875,0,0
160207,116.308,-525.639,0,0
160468,116.984,-523.139,0,0
160728,117.623,-520.288,0,0
160988,118.033,-517.086,0,0
161249,118.477,-513.142,0,0
161509,119.281,-508.791,0,0
161769,120.481,-504.006,0,0
162030,122.211,-498.994,0,0
162290,124.454,-493.977,0,0
162550,127.028,-489.086,0,0
162811,129.729,-484.16,0,0
163071,132.735,-479.046,0,0
163331,136.263,-473.786,0,0
163592,140.376,-468.816,0,0
163852,144.742,-464.322,0,0
164112,148.914,-460.104,0,0
164373,153.188,-455.73,0,0
164633,157.636,-451.293,0,0
164893,162.271,-447.069,0,0
165154,166.612,-442.944,0,0
165414,170.89,-438.103,0,0
165674,175.778,-432.59,0,0
165935,181.59,-426.841,0,0
166195,188.352,-421.223,0,0
166455,195.899,-415.92,0,0
166716,203.998,-411.078,0,0
166976,212.417,-406.554,0,0
167236,221.574,-401.928,0,0
167497,231.797,-397.837,0,0
167757,242.628,-394.606,0,0
168017,253.944,-391.959,0,0
168277,266.165,-390.039,0,0
168538,278.988,-389.42,0,0
168798,291.96,-390,0,0
169058,305.218,-391.682,0,0
169319,318.484,-394.902,0,0
169579,330.812,-399.426,0,0
169839,342.696,-403.885,0,0
170100,355.101,-409.043,0,0
170360.075,368.375,-415.644,0,0
170620.4,380.876,-424.674,0,0
170880.725,391.523,-434.917,0,0
171141.05,401.141,-445.056,0,0
171401.375,410.826,-455.999,0,0
171661.7,419.839,-468.115,0,0
171922.025,428.147,-481.548,0,0
172182.35,435.116,-496.532,0,0
172442.675,440.069,-512.691,0,0
172703.0,442.666,-529.187,0,0
172963.325,443.88,-545.539,0,0
173223.65,443.556,-562.778,0,0
173483.975,440.076,-580.878,0,0
173744.3,432.679,-597.744,0,0
174004.625,422.731,-611.763,0,0
174264.95,411.677,-622.997,0,0
174525.275,399.8,-632.044,0,0
174785.6,386.998,-638.186,0,0
175045.925,375.135,-640.799,0,0
175306.25,365.518,-641.965,0,0
175566.575,356.422,-642.729,0,0
175826.9,348.015,-641.516,0,0
176087.225,341.549,-639.076,0,0
176347.55,336.861,-636.458,0,0
176607.875,333.591,-633.777,0,0
176868.2,331.794,-631.461,0,0
177128.525,330.89,-629.633,0,0
177388.85,330.953,-627.996,0,0
177649.175,332.504,-626.893,0,0
177909.5,335.675,-627.161,0,0
178169.825,339.793,-629.792,0,0
178430.15,343.75,-635.448,0,0
178690.475,345.468,-643.942,0,0
178950.8,343.802,-653.152,0,0
179211.125,339.64,-661.084,0,0
179471.45,334.867,-667.234,0,0
179731.775,330.208,-673.275,0,0
179992.1,324.393,-678.775,0,0
180252.425,318.697,-683.277,0,0
180512.75,313.296,-688.211,0,0
180773.075,306.559,-693.63,0,0
181033.4,298.597,-698.233,0,0
181293.725,289.724,-701.739,0,0
181554.05,280.722,-703.613,0,0
181814.375,272.725,-704.981,0,0
182074.7,264.311,-706.894,0,0
182335.025,254.37,-708.206,0,0
182595.35,243.67,-707.465,0,0
182855.675,233.605,-704.815,0,0
183116.0,224.58,-700.872,0,0
183376.325,217.049,-696.324,0,0
183636.65,210.422,-692.148,0,0
183896.975,203.827,-687.838,0,0
184157.3,197.709,-682.985,0,0
184417.625,192.445,-677.865,0,0
184677.95,188.089,-672.926,0,0
184938.275,183.883,-668.669,0,0
185198.6,179.439,-664.532,0,0
185458.925,174.798,-660.085,0,0
185719.25,170.194,-655.157,0,0
185979.575,166.055,-649.5,0,0
186239.9,162.776,-643.711,0,0
186500,159.955,-638.145,0,0
186761,157.402,-632.553,0,0
187021,155.302,-626.854,0,0
187281,153.789,-621.225,0,0
187542,152.866,-615.967,0,0
187802,152.345,-611.135,0,0
188062,151.993,-607.082,0,0
188322,151.353,-603.527,0,0
188583,150.453,-600.419,0,0
188843,148.724,-597.498,0,0
189103,146.459,-593.976,0,0
189364,144.273,-589.891,0,0
189624,142.365,-585.476,0,0
189884,140.545,-580.963,0,0
190145,138.947,-576.122,0,0
190405,137.727,-571.362,0,0
190665,136.396,-566.613,0,0
190926,135.086,-561.438,0,0
191186,134.395,-555.824,0,0
191446,134.456,-550.59,0,0
191707,134.576,-545.948,0,0
191967,134.339,-541.481,0,0
192227,133.854,-536.804,0,0
192488,133.459,-531.655,0,0
192748,133.517,-526.214,0,0
193008,134.038,-520.832,0,0
193269,134.899,-515.653,0,0
193529,135.905,-510.72,0,0
193789,136.862,-505.91,0,0
194050,137.84,-500.983,0,0
194310,139.061,-495.964,0,0
194570,140.624,-490.938,0,0
194831,142.574,-486.109,0,0
195091,144.625,-481.626,0,0
195351,146.685,-477.361,0,0
195612,148.725,-473.155,0,0
195872,150.895,-469.094,0,0
196132,153.129,-465.167,0,0
196393,155.276,-461.374,0,0
196653,157.362,-457.508,0,0
196913,159.818,-453.695,0,0
197174,162.329,-450.168,0,0
197434,164.775,-446.923,0,0
197694,167.117,-443.891,0,0
197955,169.084,-440.866,0,0
198215,170.987,-437.713,0,0
198475,172.799,-434.39,0,0
198735,174.684,-431.062,0,0
198996,176.56,-427.726,0,0
199256,178.308,-424.335,0,0
199516,179.872,-420.79,0,0
199777,181.507,-416.755,0,0
200037,183.462,-412.525,0,0
200297,185.755,-408.125,0,0
200558,188.324,-403.842,0,0
200818,190.938,-399.616,0,0
201078,193.608,-395.365,0,0
201339,196.303,-390.972,0,0
201599,199.299,-386.393,0,0
201859,202.459,-381.601,0,0
202120,206.042,-376.667,0,0
202380.025,210.086,-371.863,0,0
202640.35,214.47,-367.149,0,0
202900.675,219.075,-362.627,0,0
203161.0,223.86,-358.271,0,0
203421.325,228.87,-353.967,0,0
203681.65,234.119,-349.656,0,0
203941.975,239.569,-345.434,0,0
204202.3,245.349,-341.315,0,0
204462.625,251.572,-337.258,0,0
204722.95,258.107,-333.488,0,0
204983.275,264.907,-329.785,0,0
205243.6,272.295,-326.202,0,0
205503.925,280.439,-323.155,0,0
205764.25,288.907,-321.181,0,0
206024.575,297.275,-320.193,0,0
206284.9,305.109,-319.77,0,0
206545.225,312.491,-319.706,0,0
206805.55,319.457,-319.892,0,0
207065.875,325.976,-319.997,0,0
207326.2,332.152,-319.973,0,0
207586.525,338.314,-319.788,0,0
207846.85,344.185,-319.234,0,0
208107.175,350.369,-318.178,0,0
208367.5,356.898,-316.917,0,0
208627.825,363.934,-315.337,0,0
208888.15,371.671,-313.494,0,0
209148.475,380.391,-311.884,0,0
209408.8,389.914,-310.59,0,0
209669.125,400.399,-309.624,0,0
209929.45,412.12,-309.451,0,0
210189.775,424.898,-310.574,0,0
210450.1,438.675,-313.872,0,0
210710.425,451.69,-320.033,0,0
210970.75,462.863,-327.36,0,0
211231.075,473.176,-334.721,0,0
211491.4,483.449,-342.894,0,0
211751.725,492.968,-352.627,0,0
212012.05,500.628,-363.502,0,0
212272.375,506.232,-374.163,0,0
212532.7,510.95,-383.804,0,0
212793.025,515.602,-393.362,0,0
213053.35,519.216,-403.267,0,0
213313.675,521.636,-412.088,0,0
213574.0,524.545,-419.816,0,0
213834.325,528.271,-427.744,0,0
214094.65,532.168,-436.559,0,0
214354.975,535.293,-446.428,0,0
214615.3,537.158,-456.365,0,0
214875.625,538.147,-465.707,0,0
215135.95,538.941,-474.843,0,0
215396.275,539.131,-483.525,0,0
215656.6,539.486,-491.635,0,0
215916.925,540.26,-499.82,0,0
216177.25,541.211,-508.72,0,0
216437.575,541.795,-518.398,0,0
216697.9,541.335,-528.769,0,0
216958.225,539.563,-539.159,0,0
217218.55,536.859,-548.983,0,0
217478.875,533.882,-558.359,0,0
217739.2,530.649,-567.772,0,0
217999.525,526.599,-577.633,0,0
218259.85,521.189,-587.389,0,0
218520,514.537,-596.401,0,0
218780,506.852,-604.536,0,0
219041,498.413,-611.586,0,0
219301,489.258,-617.343,0,0
219561,479.706,-621.735,0,0
219822,470.134,-624.596,0,0
220082,460.911,-625.767,0,0
220342,452.722,-625.742,0,0
220603,445.555,-625.214,0,0
220863,438.899,-624.227,0,0
221123,432.796,-622.799,0,0
221384,427.479,-620.896,0,0
221644,422.802,-618.759,0,0
221904,418.822,-616.343,0,0
222165,415.652,-613.707,0,0
222425,413.472,-611.262,0,0
222685,411.994,-609.524,0,0
222946,410.5,-608.276,0,0
223206,408.997,-607.095,0,0
223466,407.798,-605.967,0,0
223727,406.795,-605.141,0,0
223987,405.762,-604.609,0,0
224247,404.532,-604.233,0,0
224508,403.11,-603.641,0,0
224768,401.585,-602.672,0,0
225028,400.22,-601.241,0,0
225289,399.422,-599.322,0,0
225549,399.453,-597.104,0,0
225809,400.411,-595.288,0,0
226070,401.916,-594.056,0,0
226330,403.721,-593.418,0,0
226590,405.595,-593.298,0,0
226851,407.469,-593.473,0,0
227111,409.375,-593.819,0,0
227371,411.521,-594.441,0,0
227632,413.983,-595.388,0,0
227892,416.752,-597.005,0,0
228152,419.484,-599.374,0,0
228413,421.858,-602.324,0,0
228673,423.963,-605.851,0,0
228933,425.532,-609.832,0,0
229193,426.333,-613.932,0,0
229454,426.706,-617.878,0,0
229714,427.045,-621.312,0,0
229974,427.932,-624.95,0,0
230235,428.898,-629.208,0,0
230495,429.507,-634.385,0,0
230755,429.254,-639.945,0,0
231016,427.999,-645.439,0,0
231276,426.257,-650.336,0,0
231536,424.635,-654.815,0,0
231797,423.206,-659.409,0,0
232057,421.721,-664.195,0,0
232317,420.281,-669.329,0,0
232578,418.522,-675.183,0,0
232838,415.993,-681.533,0,0
233098,412.508,-688.128,0,0
233359,407.991,-694.628,0,0
233619,402.541,-700.833,0,0
233879,396.126,-706.578,0,0
234140,388.882,-711.37,0,0
234400,381.441,-715.224,0,0
234660.3,373.852,-718.617,0,0
234920.625,365.562,-721.4,0,0
235180.95,356.953,-723.154,0,0
235441.275,348.472,-723.34,0,0
235701.6,340.602,-722.936,0,0
235961.925,333.072,-721.889,0,0
236222.25,326.216,-720.256,0,0
236482.575,320.014,-718.449,0,0
236742.9,314.605,-716.881,0,0
237003.225,308.759,-715.739,0,0
237263.55,302.211,-714.2,0,0
237523.875,295.467,-711.574,0,0
237784.2,289.403,-707.922,0,0
238044.525,284.06,-703.76,0,0
238304.85,279.354,-699.305,0,0
238565.175,275.38,-694.386,0,0
238825.5,272.419,-689.234,0,0
239085.825,270.607,-684.227,0,0
239346.15,269.804,-679.799,0,0
239606.475,269.777,-676.144,0,0
239866.8,270.129,-673.621,0,0
240127.125,270.246,-672.143,0,0
240387.45,270.047,-671.754,0,0
240647.775,268.909,-671.816,0,0
240908.1,266.932,-671.663,0,0
241168.425,264.609,-671.465,0,0
241428.75,261.899,-671.145,0,0
241689.075,258.533,-670.587,0,0
241949.4,254.771,-669.676,0,0
242209.725,250.523,-667.987,0,0
242470.05,246.26,-665.272,0,0
242730.375,242.538,-661.558,0,0
242990.7,239.847,-657.409,0,0
243251.025,237.835,-653.364,0,0
243511.35,236.169,-649.511,0,0
243771.675,234.703,-645.535,0,0
244032.0,233.851,-641.163,0,0
244292.325,233.959,-636.91,0,0
244552.65,235.009,-633.39,0,0
244812.975,236.403,-630.871,0,0
245073.3,237.467,-629.355,0,0
245333.625,237.962,-628.178,0,0
245593.95,238.05,-627.337,0,0
245854.275,237.766,-626.622,0,0
246114.6,237.039,-625.873,0,0
246374.925,235.904,-624.873,0,0
246635.25,234.58,-623.644,0,0
246895.575,233.264,-622.069,0,0
247155.9,232.024,-620.268,0,0
247416.225,230.887,-618.381,0,0
247676.55,229.755,-616.462,0,0
247936.875,228.545,-614.383,0,0
248197.2,227.315,-612.076,0,0
248457.525,226.231,-609.451,0,0
248717.85,225.491,-606.599,0,0
248978.175,224.965,-603.685,0,0
249238.5,224.706,-600.721,0,0
249498.825,224.59,-597.779,0,0
249759.15,224.799,-594.901,0,0
250019.475,225.094,-591.881,0,0
250279.8,225.672,-588.939,0,0
250540,226.494,-586.063,0,0
250800,227.627,-583.135,0,0
251061,228.988,-580.44,0,0
251321,230.471,-577.933,0,0
251581,232.066,-575.413,0,0
251842,234.001,-572.881,0,0
252102,236.377,-570.535,0,0
252362,239.071,-568.575,0,0
252623,241.964,-566.974,0,0
252883,245.066,-565.811,0,0
253143,248.272,-565.147,0,0
253404,251.425,-565.026,0,0
253664,254.381,-565.342,0,0
253924,257.156,-566.09,0,0
254185,259.6,-567.098,0,0
254445,261.765,-568.296,0,0
254705,263.805,-569.772,0,0
254966,265.568,-571.294,0,0
255226,267.121,-573.154,0,0
255486,268.223,-575.193,0,0
255747,268.957,-577.396,0,0
256007,269.222,-579.511,0,0
256267,269.156,-581.468,0,0
256528,268.886,-583.286,0,0
256788,268.351,-585.048,0,0
257048,267.486,-586.617,0,0
257309,266.39,-587.868,0,0
257569,265.149,-588.806,0,0
257829,263.923,-589.393,0,0
258090,262.754,-589.626,0,0
258350,261.851,-589.582,0,0
258610,261.254,-589.526,0,0
258871,260.866,-589.579,0,0
259131,260.558,-589.797,0,0
259391,260.243,-590.199,0,0
259651,259.686,-590.717,0,0
259912,258.86,-591.256,0,0
260172,257.878,-591.511,0,0
260432,256.798,-591.591,0,0
260693,255.832,-591.463,0,0
260953,254.945,-591.206,0,0
261213,254.039,-590.742,0,0
261474,253.321,-590.157,0,0
261734,252.693,-589.493,0,0
261994,252.113,-588.723,0,0
262255,251.751,-587.695,0,0
262515,251.738,-586.556,0,0
262775,252.134,-585.442,0,0
263036,252.901,-584.507,0,0
263296,253.981,-583.902,0,0
263556,255.176,-583.688,0,0
263817,256.394,-583.819,0,0
264077,257.667,-584.283,0,0
264337,258.836,-585.206,0,0
264598,259.568,-586.42,0,0
264858,259.851,-587.785,0,0
265118,259.82,-588.886,0,0
265379,259.822,-589.87,0,0
265639,259.696,-590.768,0,0
265899,259.609,-591.598,0,0
266160,259.585,-592.328,0,0
266420,259.659,-593.105,0,0
266680.25,259.916,-594.051,0,0
266940.575,260.142,-595.341,0,0
267200.9,260.23,-596.864,0,0
267461.225,260.009,-598.597,0,0
267721.55,259.506,-600.479,0,0
267981.875,258.495,-602.353,0,0
268242.2,257.044,-603.967,0,0
268502.525,255.401,-605.214,0,0
268762.85,253.705,-606.164,0,0
269023.175,251.969,-606.786,0,0
269283.5,250.26,-607.1,0,0
269543.825,248.635,-607.096,0,0
269804.15,247.192,-606.767,0,0
270064.475,246.119,-606.167,0,0
270324.8,245.407,-605.364,0,0
270585.125,245.226,-604.67,0,0
270845.45,245.391,-603.979,0,0
271105.775,245.987,-603.456,0,0
271366.1,247.13,-603.076,0,0
271626.425,248.879,-603.22,0,0
271886.75,251.108,-604.137,0,0
272147.075,253.529,-606.069,0,0
272407.4,255.793,-609.224,0,0
272667.725,257.338,-613.381,0,0
272928.05,257.839,-618.411,0,0
273188.375,257.362,-623.545,0,0
273448.7,255.951,-628.745,0,0
273709.025,253.684,-633.924,0,0
273969.35,250.65,-638.913,0,0
274229.675,246.866,-643.593,0,0
274490.0,242.429,-647.94,0,0
274750.325,237.461,-652.009,0,0
275010.65,231.808,-655.69,0,0
275270.975,225.425,-658.681,0,0
275531.3,218.411,-661.021,0,0
275791.625,211.106,-662.257,0,0
276051.95,203.674,-662.655,0,0
276312.275,196.275,-662.168,0,0
276572.6,188.961,-660.86,0,0
276832.925,181.873,-658.746,0,0
277093.25,175.162,-655.762,0,0
277353.575,169.059,-652.122,0,0
277613.9,163.594,-648.019,0,0
277874.225,158.798,-643.628,0,0
278134.55,154.531,-639.023,0,0
278394.875,150.828,-634.242,0,0
278655.2,147.736,-629.334,0,0
278915.525,145.271,-624.499,0,0
279175.85,143.277,-619.937,0,0
279436.175,141.506,-615.565,0,0
279696.5,139.989,-611.252,0,0
279956.825,138.703,-606.936,0,0
280217.15,137.845,-602.605,0,0
280477.475,137.477,-598.534,0,0
280737.8,137.446,-594.878,0,0
280998.125,137.473,-591.709,0,0
281258.45,137.387,-588.904,0,0
281518.775,137.142,-586.301,0,0
281779.1,136.745,-583.769,0,0
282039.425,136.211,-581.253,0,0
282299.75,135.551,-578.736,0,0
282560,134.787,-576.129,0,0
282820,133.89,-573.318,0,0
283081,133.039,-570.207,0,0
283341,132.395,-566.805,0,0
283601,132.07,-563.218,0,0
283862,132.143,-559.564,0,0
284122,132.559,-555.995,0,0
284382,133.276,-552.541,0,0
284643,134.21,-549.279,0,0
284903,135.363,-546.167,0,0
285163,136.725,-543.216,0,0
285424,138.326,-540.544,0,0
285684,140.041,-538.147,0,0
285944,141.819,-536.055,0,0
286205,143.597,-534.242,0,0
286465,145.361,-532.724,0,0
286725,146.999,-531.46,0,0
286986,148.557,-530.432,0,0
287246,149.913,-529.637,0,0
287506,151.012,-529.02,0,0
287767,151.808,-528.444,0,0
288027,152.32,-527.821,0,0
288287,152.638,-527.023,0,0
288548,152.86,-526.052,0,0
288808,153.08,-524.969,0,0
289068,153.298,-523.797,0,0
289329,153.448,-522.529,0,0
289589,153.536,-521.172,0,0
289849,153.603,-519.607,0,0
290109,153.76,-517.793,0,0
290370,154.093,-515.754,0,0
290630,154.76,-513.632,0,0
290890,155.711,-511.585,0,0
291151,156.83,-509.71,0,0
291411,158.016,-507.963,0,0
291671,159.215,-506.314,0,0
291932,160.439,-504.712,0,0
292192,161.708,-503.136,0,0
292452,163.031,-501.582,0,0
292713,164.417,-500.078,0,0
292973,165.881,-498.589,0,0
293233,167.409,-497.154,0,0
293494,168.986,-495.783,0,0
293754,170.624,-494.476,0,0
294014,172.283,-493.202,0,0
294275,173.982,-491.954,0,0
294535,175.765,-490.707,0,0
294795,177.602,-489.505,0,0
295056,179.573,-488.281,0,0
295316,181.622,-487.172,0,0
295576,183.763,-486.12,0,0
295837,185.978,-485.122,0,0
296097,188.314,-484.2,0,0
296357,190.735,-483.337,0,0
296618,193.297,-482.574,0,0
296878,195.999,-481.956,0,0
297138,198.784,-481.496,0,0
297399,201.641,-481.2,0,0
297659,204.553,-481.095,0,0
297919,207.477,-481.167,0,0
298180,210.369,-481.36,0,0
298440,213.268,-481.614,0,0
298700.2,216.247,-481.96,0,0
298960.525,219.304,-482.358,0,0
299220.85,222.554,-482.981,0,0
299481.175,225.842,-483.789,0,0
299741.5,229.281,-484.802,0,0
300001.825,232.709,-486.061,0,0
300262.15,236.149,-487.521,0,0
300522.475,239.847,-489.111,0,0
300782.8,243.599,-491.099,0,0
301043.125,247.501,-493.477,0,0
301303.45,251.402,-496.265,0,0
301563.775,255.319,-499.601,0,0
301824.1,259.182,-503.501,0,0
302084.425,262.836,-507.939,0,0
302344.75,266.172,-513.077,0,0
302605.075,268.955,-518.775,0,0
302865.4,271.122,-525.065,0,0
303125.725,272.469,-531.712,0,0
303386.05,272.955,-538.491,0,0
303646.375,272.606,-545.199,0,0
303906.7,271.533,-551.697,0,0
304167.025,269.854,-557.907,0,0
304427.35,267.657,-563.726,0,0
304687.675,265.093,-569.134,0,0
304948.0,262.313,-574.28,0,0
305208.325,259.268,-579.195,0,0
305468.65,255.921,-583.932,0,0
305728.975,252.182,-588.456,0,0
305989.3,248.018,-592.623,0,0
306249.625,243.596,-596.303,0,0
306509.95,238.969,-599.522,0,0
306770.275,234.251,-602.282,0,0
307030.6,229.542,-604.627,0,0
307290.925,224.868,-606.64,0,0
307551.25,220.222,-608.387,0,0
307811.575,215.562,-609.895,0,0
308071.9,210.85,-611.139,0,0
308332.225,206.072,-612.119,0,0
308592.55,201.251,-612.767,0,0
308852.875,196.413,-613.016,0,0
309113.2,191.633,-612.855,0,0
309373.525,187.08,-612.264,0,0
309633.85,182.76,-611.328,0,0
309894.175,178.842,-610.176,0,0
310154.5,175.206,-608.892,0,0
310414.825,171.896,-607.574,0,0
310675.15,168.798,-606.279,0,0
310935.475,165.844,-605.008,0,0
311195.8,163.035,-603.75,0,0
311456.125,160.302,-602.521,0,0
311716.45,157.654,-601.238,0,0
311976.775,155.082,-599.966,0,0
312237.1,152.589,-598.673,0,0
312497.425,150.155,-597.419,0,0
312757.75,147.7,-596.136,0,0
313018.075,145.291,-594.777,0,0
313278.4,142.871,-593.381,0,0
313538.725,140.467,-591.862,0,0
313799.05,138.145,-590.231,0,0
314059.375,135.906,-588.466,0,0
314319.7,133.784,-586.592,0,0
314580,131.774,-584.646,0,0
314840,129.959,-582.596,0,0
315101,128.305,-580.541,0,0
315361,126.814,-578.483,0,0
315621,125.482,-576.429,0,0
315882,124.317,-574.424,0,0
316142,123.263,-572.461,0,0
316402,122.337,-570.58,0,0
316663,121.497,-568.81,0,0
316923,120.695,-567.104,0,0
317183,119.889,-565.458,0,0
317444,119.115,-563.816,0,0
317704,118.444,-562.192,0,0
317964,117.803,-560.647,0,0
318225,117.228,-559.128,0,0
318485,116.659,-557.633,0,0
318745,116.129,-556.165,0,0
319006,115.66,-554.727,0,0
319266,115.248,-553.306,0,0
319526,114.886,-551.996,0,0
319787,114.569,-550.723,0,0
320047,114.27,-549.514,0,0
320307,113.999,-548.383,0,0
320567,113.713,-547.324,0,0
320828,113.377,-546.302,0,0
321088,113.051,-545.307,0,0
321348,112.683,-544.317,0,0
321609,112.335,-543.321,0,0
321869,111.986,-542.338,0,0
322129,111.672,-541.377,0,0
322390,111.392,-540.441,0,0
322650,111.108,-539.556,0,0
322910,110.809,-538.704,0,0
323171,110.524,-537.876,0,0
323431,110.202,-537.072,0,0
323691,109.884,-536.285,0,0
323952,109.579,-535.501,0,0
324212,109.218,-534.733,0,0
324472,108.892,-533.979,0,0
324733,108.54,-533.209,0,0
324993,108.204,-532.417,0,0
325253,107.879,-531.621,0,0
325514,107.644,-530.815,0,0
325774,107.447,-530.073,0,0
326034,107.28,-529.381,0,0
326295,107.117,-528.727,0,0
326555,106.965,-528.159,0,0
326815,106.817,-527.632,0,0
327076,106.636,-527.189,0,0
327336,106.417,-526.8,0,0
327596,106.162,-526.441,0,0
327857,105.854,-526.116,0,0
328117,105.498,-525.844,0,0
328377,105.087,-525.579,0,0
328638,104.58,-525.3,0,0
328898,104.051,-525.011,0,0
329158,103.497,-524.714,0,0
329419,102.946,-524.381,0,0
329679,102.349,-524.08,0,0
329939,101.727,-523.765,0,0
330200,101.089,-523.439,0,0
330460,100.417,-523.143,0,0
330720.15,99.6846,-522.816,0,0
330980.475,99.0099,-522.504,0,0
331240.8,98.1609,-522.21,0,0
331501.125,97.3899,-521.931,0,0
331761.45,96.5131,-521.539,0,0
332021.775,95.477,-521.262,0,0
332282.1,94.5814,-520.833,0,0
332542.425,93.4722,-520.346,0,0
332802.75,92.46,-519.917,0,0
333063.075,91.3126,-519.428,0,0
333323.4,90.1614,-518.773,0,0
333583.725,88.9962,-518.107,0,0
333844.05,87.9239,-517.288,0,0
334104.375,86.8213,-516.537,0,0
334364.7,85.7841,-515.589,0,0
334625.025,84.7198,-514.716,0,0
334885.35,83.6745,-513.789,0,0
335145.675,82.6406,-512.816,0,0
335406.0,81.7176,-511.846,0,0
335666.325,80.7617,-510.853,0,0
335926.65,79.7234,-509.795,0,0
336186.975,78.7977,-508.697,0,0
336447.3,77.897,-507.609,0,0
336707.625,76.9483,-506.52,0,0
336967.95,76.024,-505.237,0,0
337228.275,75.1567,-503.999,0,0
337488.6,74.3581,-502.755,0,0
337748.925,73.5262,-501.415,0,0
338009.25,72.8463,-500.13,0,0
338269.575,72.1652,-498.888,0,0
338529.9,71.5005,-497.591,0,0
338790.225,70.9176,-496.302,0,0
339050.55,70.3112,-494.95,0,0
339310.875,69.7019,-493.627,0,0
339571.2,69.1774,-492.348,0,0
339831.525,68.5862,-491.11,0,0
340091.85,68.0555,-489.716,0,0
340352.175,67.5463,-488.35,0,0
340612.5,67.0186,-487.009,0,0
340872.825,66.6057,-485.656,0,0
341133.15,66.1775,-484.251,0,0
341393.475,65.7334,-482.79,0,0
341653.8,65.4595,-481.426,0,0
341914.125,65.11,-479.958,0,0
342174.45,64.8264,-478.492,0,0
342434.775,64.6186,-477.053,0,0
342695.1,64.481,-475.677,0,0
342955.425,64.3486,-474.243,0,0
343215.75,64.2702,-472.804,0,0
343476.075,64.1664,-471.43,0,0
343736.4,64.2474,-470.026,0,0
343996.725,64.3133,-468.69,0,0
344257.05,64.4167,-467.428,0,0
344517.375,64.5957,-466.14,0,0
344777.7,64.7714,-464.907,0,0
345038.025,64.9541,-463.832,0,0
345298.35,65.1965,-462.681,0,0
345558.675,65.4344,-461.645,0,0
345819.0,65.6252,-460.655,0,0
346079.325,65.865,-459.798,0,0
346339.65,66.0135,-458.992,0,0
346599.975,66.19,-458.197,0,0
346860,66.2743,-457.415,0,0
347121,66.2635,-456.704,0,0
347381,66.2165,-456.011,0,0
347641,66.1237,-455.286,0,0
347902,65.9575,-454.563,0,0
348162,65.7518,-453.758,0,0
348422,65.4598,-452.98,0,0
348683,65.1525,-452.073,0,0
348943,64.9008,-451.1,0,0
349203,64.6372,-450.075,0,0
349464,64.3718,-449.055,0,0
349724,64.1728,-447.95,0,0
349984,63.9629,-446.846,0,0
350245,63.7887,-445.764,0,0
350505,63.5835,-444.577,0,0
350765,63.3783,-443.432,0,0
351025,63.2958,-442.161,0,0
351286,63.2036,-440.841,0,0
351546,63.1853,-439.529,0,0
351806,63.2703,-438.217,0,0
352067,63.3749,-436.905,0,0
352327,63.6024,-435.585,0,0
352587,63.9223,-434.341,0,0
352848,64.2131,-433.087,0,0
353108,64.5545,-431.894,0,0
353368,64.9291,-430.78,0,0
353629,65.3835,-429.661,0,0
353889,65.8451,-428.587,0,0
354149,66.3198,-427.59,0,0
354410,66.773,-426.663,0,0
354670,67.3138,-425.751,0,0
354930,67.8694,-424.855,0,0
355191,68.4093,-424.093,0,0
355451,69.0032,-423.426,0,0
355711,69.4994,-422.855,0,0
355972,69.9735,-422.274,0,0
356232,70.3652,-421.821,0,0
356492,70.6766,-421.434,0,0
356753,70.8882,-421.082,0,0
357013,71.0383,-420.68,0,0
357273,71.0787,-420.298,0,0
357534,71.0124,-419.903,0,0
357794,70.9049,-419.445,0,0
358054,70.6444,-418.862,0,0
358315,70.4048,-418.193,0,0
358575,70.1359,-417.462,0,0
358835,69.8525,-416.626,0,0
359096,69.5852,-415.735,0,0
359356,69.3959,-414.697,0,0
359616,69.2288,-413.638,0,0
359877,69.1352,-412.542,0,0
360137,69.1036,-411.399,0,0
360397,69.1251,-410.215,0,0
360658,69.2017,-409.033,0,0
360918,69.3589,-407.851,0,0
361178,69.5387,-406.589,0,0
361438,69.8293,-405.407,0,0
361699,70.1156,-404.23,0,0
361959,70.5243,-403.06,0,0
362219,70.9014,-401.905,0,0
362480,71.3788,-400.836,0,0
362740.1,71.8677,-399.77,0,0
363000.425,72.3232,-398.674,0,0
363260.75,72.8439,-397.652,0,0
363521.075,73.4044,-396.6,0,0
363781.4,74.0067,-395.562,0,0
364041.725,74.6248,-394.577,0,0
364302.05,75.3221,-393.593,0,0
364562.375,76.0687,-392.719,0,0
364822.7,76.7994,-391.787,0,0
365083.025,77.581,-391.022,0,0
365343.35,78.3832,-390.26,0,0
365603.675,79.2395,-389.602,0,0
365864.0,80.0132,-389.023,0,0
366124.325,80.7058,-388.475,0,0
366384.65,81.3866,-387.993,0,0
366644.975,82.0683,-387.445,0,0
366905.3,82.6948,-386.925,0,0
367165.625,83.3086,-386.399,0,0
367425.95,84.0262,-385.926,0,0
367686.275,84.6815,-385.489,0,0
367946.6,85.3389,-385.092,0,0
368206.925,85.9298,-384.618,0,0
368467.25,86.5763,-384.275,0,0
368727.575,87.1958,-383.885,0,0
368987.9,87.7973,-383.576,0,0
369248.225,88.4679,-383.225,0,0
369508.55,89.076,-383.036,0,0
369768.875,89.6659,-382.834,0,0
370029.2,90.2449,-382.763,0,0
370289.525,90.7565,-382.724,0,0
370549.85,91.1676,-382.715,0,0
370810.175,91.3756,-382.747,0,0
371070.5,91.5554,-382.707,0,0
371330.825,91.6059,-382.637,0,0
371591.15,91.6131,-382.464,0,0
371851.475,91.5448,-382.181,0,0
372111.8,91.5159,-381.816,0,0
372372.125,91.4818,-381.358,0,0
372632.45,91.475,-380.85,0,0
372892.775,91.51,-380.277,0,0
373153.1,91.5622,-379.654,0,0
373413.425,91.7047,-379.001,0,0
373673.75,91.8567,-378.314,0,0
373934.075,92.1312,-377.657,0,0
374194.4,92.4309,-376.965,0,0
374454.725,92.7724,-376.3,0,0
374715.05,93.1971,-375.677,0,0
374975.375,93.6146,-375.13,0,0
375235.7,94.0901,-374.567,0,0
375496.025,94.5069,-374.084,0,0
375756.35,94.9532,-373.647,0,0
376016.675,95.3882,-373.292,0,0
376277.0,95.7299,-372.925,0,0
376537.325,96.0209,-372.597,0,0
376797.65,96.2863,-372.24,0,0
377057.975,96.5011,-371.907,0,0
377318.3,96.6384,-371.448,0,0
377578.625,96.8365,-370.981,0,0
377838.95,96.9982,-370.412,0,0
378099.275,97.1829,-369.876,0,0
378359.6,97.4056,-369.232,0,0
378619.925,97.6443,-368.617,0,0
378880,97.9631,-367.966,0,0
379141,98.321,-367.34,0,0
379401,98.706,-366.702,0,0
379661,99.1444,-366.12,0,0
379922,99.5716,-365.555,0,0
380182,99.8993,-365.009,0,0
380442,100.333,-364.43,0,0
380703,100.703,-363.851,0,0
380963,101.118,-363.289,0,0
381223,101.555,-362.724,0,0
381483,101.958,-362.138,0,0
381744,102.415,-361.571,0,0
382004,102.905,-360.963,0,0
382264,103.357,-360.379,0,0
382525,103.907,-359.815,0,0
382785,104.425,-359.256,0,0
383045,104.998,-358.773,0,0
383306,105.545,-358.277,0,0
383566,106.043,-357.793,0,0
383826,106.571,-357.361,0,0
384087,107.089,-356.845,0,0
384347,107.624,-356.371,0,0
384607,108.177,-355.95,0,0
384868,108.75,-355.429,0,0
385128,109.327,-355.026,0,0
385388,109.813,-354.599,0,0
385649,110.349,-354.183,0,0
385909,110.818,-353.757,0,0
386169,111.301,-353.347,0,0
386430,111.836,-352.878,0,0
386690,112.345,-352.451,0,0
386950,112.817,-352.019,0,0
387211,113.232,-351.572,0,0
387471,113.622,-351.081,0,0
387731,113.999,-350.495,0,0
387992,114.345,-349.782,0,0
388252,114.835,-348.974,0,0
388512,115.433,-348.131,0,0
388773,116.117,-347.25,0,0
389033,116.93,-346.375,0,0
389293,117.883,-345.584,0,0
389554,118.918,-344.858,0,0
389814,119.983,-344.202,0,0
390074,121.118,-343.629,0,0
390335,122.253,-343.159,0,0
390595,123.368,-342.755,0,0
390855,124.515,-342.378,0,0
391116,125.665,-342.056,0,0
391376,126.791,-341.785,0,0
391636,127.902,-341.565,0,0
391896,129.016,-341.372,0,0
392157,130.118,-341.203,0,0
392417,131.229,-341.097,0,0
392677,132.296,-341.07,0,0
392938,133.312,-341.1,0,0
393198,134.244,-341.11,0,0
393458,135.129,-341.053,0,0
393719,136,-340.992,0,0
393979,136.816,-340.888,0,0
394239,137.617,-340.744,0,0
394500,138.439,-340.431,0,0
394760.05,139.34,-340.106,0,0
395020.375,140.31,-339.688,0,0
395280.7,141.435,-339.338,0,0
395541.025,142.598,-338.961,0,0
395801.35,143.83,-338.543,0,0
396061.675,145.174,-338.172,0,0
396322.0,146.611,-337.781,0,0
396582.325,148.116,-337.427,0,0
396842.65,149.78,-337.163,0,0
397102.975,151.542,-336.873,0,0
397363.3,153.498,-336.667,0,0
397623.625,155.548,-336.592,0,0
397883.95,157.721,-336.639,0,0
398144.275,160.058,-336.815,0,0
398404.6,162.533,-337.236,0,0
398664.925,165.11,-337.796,0,0
398925.25,167.779,-338.695,0,0
399185.575,170.502,-339.878,0,0
399445.9,173.278,-341.425,0,0
399706.225,175.923,-343.292,0,0
399966.55,178.423,-345.545,0,0
400006.6,178.792,-345.9,0,0