File: Accelerated corrosion test data/2025-10-23_06-00-04/sample_2.csv
Frequency (Hz),Impedance (ohms),Phase (Radians),Temperature (C),Humidity (%)
10000.0,227.879,-11488.7,0,0
10260.325,221.664,-11199.9,0,0
10520.65,216.862,-10924.9,0,0
10780.975,212.223,-10662.6,0,0
11041.3,206.588,-10413.8,0,0
11301.625,202.623,-10175,0,0
11561.95,198.974,-9946.21,0,0
11822.275,197.553,-9736.43,0,0
12082.6,191.787,-9524.97,0,0
12342.925,186.655,-9327.48,0,0
12603.25,182.685,-9135.16,0,0
12863.575,179.202,-8949.79,0,0
13123.9,176.338,-8775.58,0,0
13384.225,172.387,-8604.29,0,0
13644.55,170.13,-8437.65,0,0
13904.875,185.184,-8284.18,0,0
14165.2,164.442,-8138.74,0,0
14425.525,161.609,-7987.48,0,0
14685.8,163.408,-7841.02,0,0
14946.175,158.349,-7711.93,0,0
15206.5,164.022,-7591.33,0,0
15466.825,158.359,-7455.15,0,0
15727.15,150.791,-7340.48,0,0
15987.5,148.042,-7218.55,0,0
16247.8,147.972,-7104.21,0,0
16508.125,142.515,-6993.07,0,0
16768.45,139.852,-6884.35,0,0
17028.775,138.511,-6779.47,0,0
17289.1,137.636,-6678.62,0,0
17549.425,134.02,-6578.56,0,0
17809.75,131.505,-6482.53,0,0
18070.075,130.881,-6389.34,0,0
18330.4,129.234,-6297.67,0,0
18590.725,127.975,-6209.11,0,0
18851.05,126.558,-6122.95,0,0
19111.375,127.923,-6040.64,0,0
19371.7,127.566,-5963.42,0,0
19632.025,122.213,-5884.3,0,0
19892.35,119.905,-5806.1,0,0
20152.675,118.26,-5729.67,0,0
20413.0,117.609,-5655.11,0,0
20673.3,116.892,-5582.02,0,0
20933.65,117.772,-5509.79,0,0
21193.975,124.761,-5442.4,0,0
21454.3,131.684,-5381.7,0,0
21714.625,127.231,-5325.92,0,0
21974.9,121.115,-5259.66,0,0
22235.275,118.153,-5204.94,0,0
22495.6,114.37,-5144.02,0,0
22755.925,111.417,-5082.48,0,0
23016.25,112.062,-5027.38,0,0
23276.6,112.365,-4972.73,0,0
23536.9,108.27,-4917.09,0,0
23797.225,106.538,-4862.27,0,0
24057.55,106.699,-4811.69,0,0
24317.875,102.694,-4759.94,0,0
24578.2,101.049,-4708.48,0,0
24838.525,99.1736,-4658.91,0,0
25098.85,98.6867,-4609.24,0,0
25359.175,97.1902,-4561.88,0,0
25619.5,96.8762,-4514.92,0,0
25879.8,95.4832,-4468.49,0,0
26140.1,96.2655,-4423.65,0,0
26400.5,95.3622,-4380.57,0,0
26660.8,95.7125,-4338.12,0,0
26921.1,94.6919,-4295.69,0,0
27181.4,93.2099,-4255.59,0,0
27441.8,91.6376,-4215.08,0,0
27702.1,90.3787,-4174.77,0,0
27962.4,89.3587,-4133.88,0,0
28222.7,89.3661,-4095.35,0,0
28483.1,89.3106,-4057.04,0,0
28743.4,88.5708,-4019.88,0,0
29003.7,90.1923,-3982.11,0,0
29264,90.1948,-3946.15,0,0
29524.4,93.3952,-3910.39,0,0
29784.7,96.5573,-3881.01,0,0
30045,93.3897,-3849.98,0,0
30305.3,94.2479,-3816.8,0,0
30565.7,90.5063,-3788.95,0,0
30826,87.2135,-3755.82,0,0
31086.3,86.4291,-3723.5,0,0
31346.6,84.6092,-3692.15,0,0
31607,85.0678,-3661.28,0,0
31867.3,82.5587,-3631.8,0,0
32127.6,81.924,-3600.91,0,0
32387.9,82.0425,-3569.98,0,0
32648.3,83.8631,-3542.65,0,0
32908.6,83.213,-3516.28,0,0
33168.9,81.1771,-3489.24,0,0
33429.2,79.1724,-3461.95,0,0
33689.6,79.2359,-3434.76,0,0
33949.9,78.6216,-3408.4,0,0
34210.2,76.6981,-3382.49,0,0
34470.5,75.8997,-3356.01,0,0
34730.9,75.4283,-3330.14,0,0
34991.2,74.9426,-3305.06,0,0
35251.5,74.4242,-3280.5,0,0
35511.8,73.7774,-3255.89,0,0
35772.2,73.4047,-3232.01,0,0
36032.5,72.6382,-3208.52,0,0
36292.8,72.3465,-3184.76,0,0
36553.1,71.5673,-3161.69,0,0
36813.5,71.3458,-3139.03,0,0
37073.8,70.8807,-3116.44,0,0
37334.1,70.6176,-3094.24,0,0
37594.4,70.379,-3072.77,0,0
37854.8,70.0335,-3051.04,0,0
38115.1,69.4396,-3030.22,0,0
38375.4,68.9036,-3009.31,0,0
38635.7,68.6994,-2988.46,0,0
38896.1,68.296,-2968.08,0,0
39156.4,67.6985,-2947.99,0,0
39416.7,67.4552,-2928.27,0,0
39677,67.0173,-2908.63,0,0
39937.4,66.46,-2889.35,0,0
40197.7,66.329,-2869.97,0,0
40458,66.019,-2850.85,0,0
40718.3,66.125,-2832.26,0,0
40978.7,65.7022,-2814.26,0,0
41239,65.4722,-2795.71,0,0
41499.3,65.3882,-2778.13,0,0
41759.6,64.9186,-2760.27,0,0
42020,64.7084,-2742.92,0,0
42280.275,64.6925,-2725.8,0,0
42540.6,64.2862,-2708.9,0,0
42800.925,63.8269,-2692.22,0,0
43061.25,63.584,-2675.3,0,0
43321.575,63.3134,-2658.8,0,0
43581.9,63.1389,-2642.64,0,0
43842.225,62.8469,-2626.58,0,0
44102.55,62.5995,-2610.39,0,0
44362.875,62.3843,-2594.71,0,0
44623.2,62.0537,-2579.42,0,0
44883.525,61.8347,-2563.81,0,0
45143.85,61.5558,-2548.2,0,0
45404.175,61.8012,-2533.49,0,0
45664.5,61.2466,-2518.83,0,0
45924.825,61.6641,-2503.65,0,0
46185.15,61.7938,-2489.84,0,0
46445.475,60.9399,-2475.78,0,0
46705.8,60.5078,-2461.18,0,0
46966.125,60.4392,-2447.07,0,0
47226.45,60.4505,-2432.76,0,0
47486.775,60.9797,-2419.56,0,0
47747.1,60.3301,-2405.79,0,0
48007.425,60.3711,-2391.89,0,0
48267.75,61.1544,-2378.41,0,0
48528.075,61.6087,-2366.58,0,0
48788.4,60.9972,-2354.31,0,0
49048.725,60.367,-2342.03,0,0
49309.05,59.6817,-2329.47,0,0
49569.375,58.9588,-2316.79,0,0
49829.7,58.4662,-2304.03,0,0
50090.025,58.3387,-2291.73,0,0
50350.35,57.4851,-2279.28,0,0
50610.675,57.3942,-2266.78,0,0
50871.0,57.4754,-2254.75,0,0
51131.325,57.1313,-2243.34,0,0
51391.65,56.9428,-2231.51,0,0
51651.975,56.3139,-2219.87,0,0
51912.3,55.8422,-2208.24,0,0
52172.625,55.5398,-2196.58,0,0
52432.95,55.2672,-2184.98,0,0
52693.275,55.0254,-2173.54,0,0
52953.6,54.792,-2162.22,0,0
53213.925,54.7221,-2151,0,0
53474.25,54.6009,-2139.99,0,0
53734.575,54.3565,-2129.08,0,0
53994.9,54.1242,-2118.16,0,0
54255.225,54.0849,-2107.29,0,0
54515.55,54.1798,-2096.63,0,0
54775.875,54.0835,-2086.19,0,0
55036.2,53.9014,-2075.76,0,0
55296.525,53.818,-2065.34,0,0
55556.85,53.7105,-2055.08,0,0
55817.175,53.7385,-2044.91,0,0
56077.5,53.7193,-2034.75,0,0
56337.825,53.6978,-2024.85,0,0
56598.15,53.5844,-2014.99,0,0
56858.475,53.5807,-2005.02,0,0
57118.8,53.7109,-1995.37,0,0
57379.125,53.7717,-1985.66,0,0
57639.45,53.7262,-1976.1,0,0
57899.775,54.0115,-1966.76,0,0
58160.1,53.8959,-1957.51,0,0
58420.4,53.8594,-1948.12,0,0
58680.7,53.7415,-1938.8,0,0
58941.1,53.8497,-1929.59,0,0
59201.4,53.9837,-1920.36,0,0
59461.7,54.3646,-1911.27,0,0
59722,54.7202,-1902.34,0,0
59982.4,55.4021,-1893.31,0,0
60242.7,56.1371,-1885.09,0,0
60503,56.1785,-1877.05,0,0
60763.3,56.0606,-1868.57,0,0
61023.7,56.7157,-1860.05,0,0
61284,57.0617,-1851.92,0,0
61544.3,57.8056,-1843.84,0,0
61804.6,58.6807,-1836.7,0,0
62065,58.882,-1830.24,0,0
62325.3,57.6114,-1822.98,0,0
62585.6,57.4969,-1815.12,0,0
62845.9,57.4627,-1807.99,0,0
63106.3,56.3812,-1801,0,0
63366.6,55.4772,-1792.88,0,0
63626.9,55.1646,-1785.38,0,0
63887.2,54.2993,-1777.72,0,0
64147.6,53.9678,-1770.12,0,0
64407.9,53.1909,-1762.62,0,0
64668.2,52.8662,-1754.96,0,0
64928.5,51.8056,-1747.55,0,0
65188.9,50.9603,-1739.59,0,0
65449.2,50.4045,-1731.25,0,0
65709.5,50.4078,-1723.1,0,0
65969.8,50.583,-1715.37,0,0
66230.2,50.5858,-1707.83,0,0
66490.5,50.7687,-1700.29,0,0
66750.8,50.8894,-1693.05,0,0
67011.1,50.7931,-1685.45,0,0
67271.5,51.0572,-1677.86,0,0
67531.8,51.6608,-1670.63,0,0
67792.1,52.414,-1663.45,0,0
68052.4,53.2208,-1656.74,0,0
68312.8,53.4769,-1650.7,0,0
68573.1,53.4023,-1643.9,0,0
68833.4,54.1027,-1637.06,0,0
69093.7,54.7597,-1630.87,0,0
69354.1,55.0513,-1625.05,0,0
69614.4,55.4044,-1619.07,0,0
69874.7,55.6713,-1613.41,0,0
70135,55.5844,-1608.14,0,0
70395.4,55.3028,-1602.89,0,0
70655.7,54.1112,-1597.6,0,0
70916,52.9103,-1591.51,0,0
71176.3,52.1813,-1585.15,0,0
71436.7,51.6704,-1579.02,0,0
71697,51.2143,-1573.29,0,0
71957.3,50.0025,-1567.46,0,0
72217.6,48.7805,-1561.21,0,0
72478,47.6447,-1554.62,0,0
72738.3,46.7895,-1547.95,0,0
72998.6,46.3027,-1541.05,0,0
73258.9,46.1134,-1534.52,0,0
73519.3,45.4465,-1528.2,0,0
73779.6,44.9751,-1521.48,0,0
74039.9,44.735,-1514.62,0,0
74300.225,44.8409,-1508.04,0,0
74560.55,44.8034,-1501.69,0,0
74820.875,44.8986,-1495.25,0,0
75081.2,45.0574,-1488.97,0,0
75341.525,45.293,-1482.65,0,0
75601.85,45.5405,-1476.53,0,0
75862.175,45.8463,-1470.34,0,0
76122.5,46.3445,-1464.29,0,0
76382.825,46.8002,-1458.42,0,0
76643.15,47.1771,-1452.64,0,0
76903.475,47.6495,-1446.84,0,0
77163.8,48.1378,-1441.06,0,0
77424.125,48.8729,-1435.48,0,0
77684.45,49.5898,-1430.08,0,0
77944.775,50.3725,-1424.75,0,0
78205.1,51.1306,-1419.59,0,0
78465.425,51.9873,-1414.86,0,0
78725.75,52.4804,-1410.26,0,0
78986.075,52.8774,-1405.78,0,0
79246.4,53.0785,-1401.4,0,0
79506.725,53.2114,-1397.1,0,0
79767.05,53.0205,-1392.92,0,0
80027.375,52.5003,-1388.64,0,0
80287.7,51.7287,-1384.13,0,0
80548.025,51.0831,-1379.28,0,0
80808.35,50.348,-1374.34,0,0
81068.675,49.8784,-1369.24,0,0
81329.0,49.3934,-1364.15,0,0
81589.325,48.9622,-1359.05,0,0
81849.65,48.6072,-1353.9,0,0
82109.975,48.3195,-1348.69,0,0
82370.3,48.0564,-1343.52,0,0
82630.625,47.8613,-1338.28,0,0
82890.95,47.8698,-1333.09,0,0
83151.275,47.8902,-1327.95,0,0
83411.6,48.025,-1322.96,0,0
83671.925,48.1813,-1318,0,0
83932.25,48.3116,-1313.07,0,0
84192.575,48.5115,-1308.26,0,0
84452.9,48.7239,-1303.62,0,0
84713.225,48.8269,-1298.88,0,0
84973.55,48.9059,-1294.2,0,0
85233.875,48.9476,-1289.41,0,0
85494.2,49.1666,-1284.62,0,0
85754.525,49.4934,-1280.02,0,0
86014.85,49.801,-1275.61,0,0
86275.175,49.9838,-1271.16,0,0
86535.5,50.1858,-1266.76,0,0
86795.825,50.1953,-1262.43,0,0
87056.15,50.4635,-1257.95,0,0
87316.475,50.622,-1253.71,0,0
87576.8,50.7605,-1249.61,0,0
87837.125,50.7418,-1245.32,0,0
88097.45,50.6443,-1240.97,0,0
88357.775,50.745,-1236.59,0,0
88618.1,51.0486,-1232.44,0,0
88878.425,50.8304,-1228.29,0,0
89138.75,50.8525,-1223.75,0,0
89399.075,51.1198,-1219.65,0,0
89659.4,51.1248,-1215.33,0,0
89919.725,51.502,-1211.06,0,0
90180,51.8229,-1207.25,0,0
90440.4,51.4716,-1203.46,0,0
90700.7,51.0147,-1199.21,0,0
90961,51.1409,-1194.3,0,0
91221.3,51.7956,-1190,0,0
91481.7,52.1925,-1186.04,0,0
91742,52.39,-1182.03,0,0
92002.3,52.7641,-1177.87,0,0
92262.6,53.2384,-1173.74,0,0
92523,53.6756,-1169.94,0,0
92783.3,54.2123,-1166.28,0,0
93043.6,54.5045,-1162.64,0,0
93303.9,54.8616,-1158.95,0,0
93564.3,55.2745,-1155.35,0,0
93824.6,55.8793,-1151.93,0,0
94084.9,56.0221,-1149.1,0,0
94345.2,55.548,-1145.99,0,0
94605.6,55.1811,-1142.21,0,0
94865.9,55.2461,-1138.65,0,0
95126.2,54.9052,-1135.36,0,0
95386.5,54.0594,-1131.62,0,0
95646.9,53.6791,-1127,0,0
95907.2,54.0733,-1122.53,0,0
96167.5,54.8909,-1118.52,0,0
96427.8,55.648,-1114.98,0,0
96688.2,56.4129,-1111.55,0,0
96948.5,57.1255,-1108.35,0,0
97208.8,57.8801,-1105.34,0,0
97469.1,58.4294,-1103.09,0,0
97729.5,57.9824,-1100.75,0,0
97989.8,57.3397,-1097.79,0,0
98250.1,57.0722,-1094.47,0,0
98510.4,56.9932,-1091.53,0,0
98770.8,56.624,-1088.73,0,0
99031.1,56.1188,-1085.89,0,0
99291.4,55.2999,-1083.11,0,0
99551.7,54.1951,-1079.84,0,0
99812.1,53.2213,-1076.07,0,0
100072,52.8921,-1072.29,0,0
100333,52.7343,-1068.87,0,0
100593,52.3461,-1065.82,0,0
100853,51.5438,-1062.76,0,0
101114,50.5156,-1059.31,0,0
101374,49.5243,-1055.87,0,0
101634,48.2594,-1051.97,0,0
101895,47.3203,-1047.44,0,0
102155,47.0915,-1043.02,0,0
102415,47.0318,-1039.07,0,0
102676,46.6521,-1035.24,0,0
102936,46.0631,-1031.12,0,0
103196,45.7682,-1026.78,0,0
103457,45.7003,-1022.3,0,0
103717,45.8694,-1017.92,0,0
103977,46.1214,-1013.59,0,0
104238,46.6317,-1009.2,0,0
104498,47.5076,-1005.03,0,0
104758,48.385,-1001.21,0,0
105019,49.21,-997.762,0,0
105279,49.7342,-994.196,0,0
105539,50.4377,-990.387,0,0
105800,51.4058,-986.696,0,0
106060,52.5231,-983.256,0,0
106320.175,53.7146,-980.058,0,0
106580.5,55.0023,-977.224,0,0
106840.825,56.0453,-974.724,0,0
107101.15,56.8673,-972.356,0,0
107361.475,57.6116,-970.289,0,0
107621.8,57.6487,-968.351,0,0
107882.125,57.5742,-965.984,0,0
108142.45,57.581,-963.81,0,0
108402.775,57.0979,-961.476,0,0
108663.1,56.6931,-958.847,0,0
108923.425,56.2161,-956.342,0,0
109183.75,55.542,-953.649,0,0
109444.075,54.8792,-950.624,0,0
109704.4,54.2248,-947.724,0,0
109964.725,53.4928,-944.618,0,0
110225.05,52.8005,-941.202,0,0
110485.375,52.1475,-937.747,0,0
110745.7,51.7902,-934.093,0,0
111006.025,51.5713,-930.455,0,0
111266.35,51.4757,-926.945,0,0
111526.675,51.383,-923.34,0,0
111787.0,51.3385,-919.737,0,0
112047.325,51.375,-916.215,0,0
112307.65,51.5503,-912.759,0,0
112567.975,51.4814,-909.305,0,0
112828.3,51.6369,-905.805,0,0
113088.625,51.7998,-902.285,0,0
113348.95,52.1496,-898.676,0,0
113609.275,52.5697,-895.238,0,0
113869.6,52.8477,-891.897,0,0
114129.925,53.1506,-888.507,0,0
114390.25,53.5815,-885.057,0,0
114650.575,54.0216,-881.705,0,0
114910.9,54.5042,-878.352,0,0
115171.225,55.1646,-874.977,0,0
115431.55,55.7866,-871.795,0,0
115691.875,56.3346,-868.674,0,0
115952.2,56.9189,-865.487,0,0
116212.525,57.545,-862.286,0,0
116472.85,58.23,-859.131,0,0
116733.175,58.9755,-856.066,0,0
116993.5,59.6592,-853.06,0,0
117253.825,60.4327,-850.085,0,0
117514.15,61.2107,-847.095,0,0
117774.475,62.1118,-844.166,0,0
118034.8,63.096,-841.455,0,0
118295.125,63.9008,-838.838,0,0
118555.45,64.7053,-836.211,0,0
118815.775,65.526,-833.61,0,0
119076.1,66.4717,-831.228,0,0
119336.425,67.1069,-828.941,0,0
119596.75,67.852,-826.477,0,0
119857.075,68.6718,-824.321,0,0
120117.4,69.3018,-822.316,0,0
120377.725,69.7309,-820.332,0,0
120638.05,70.0196,-818.309,0,0
120898.375,70.2165,-816.318,0,0
121158.7,70.2412,-814.24,0,0
121419.025,70.2047,-812.071,0,0
121679.35,70.1644,-809.883,0,0
121939.675,69.9674,-807.618,0,0
122200.0,69.7431,-805.19,0,0
122460,69.526,-802.674,0,0
122721,69.4057,-800.033,0,0
122981,69.319,-797.449,0,0
123241,69.2605,-794.783,0,0
123502,69.2454,-792.158,0,0
123762,69.1643,-789.544,0,0
124022,69.0866,-786.843,0,0
124283,69.0322,-784.16,0,0
124543,68.9336,-781.432,0,0
124803,68.8361,-778.684,0,0
125064,68.739,-775.843,0,0
125324,68.6633,-772.89,0,0
125584,68.6253,-769.877,0,0
125845,68.698,-766.826,0,0
126105,68.8046,-763.813,0,0
126365,68.9636,-760.747,0,0
126626,69.1703,-757.656,0,0
126886,69.4628,-754.48,0,0
127146,70.0231,-751.322,0,0
127406,70.4346,-748.351,0,0
127667,71.039,-745.408,0,0
127927,71.6614,-742.509,0,0
128187,72.2464,-739.624,0,0
128448,72.8559,-736.779,0,0
128708,73.4846,-733.977,0,0
128968,74.1805,-731.235,0,0
129229,74.8349,-728.6,0,0
129489,75.4588,-725.993,0,0
129749,76.0048,-723.341,0,0
130010,76.6054,-720.634,0,0
130270,77.3854,-717.966,0,0
130530,78.1728,-715.539,0,0
130791,78.8852,-713.215,0,0
131051,79.4398,-710.975,0,0
131311,79.9071,-708.723,0,0
131572,80.2268,-706.459,0,0
131832,80.4598,-704.136,0,0
132092,80.7147,-701.686,0,0
132353,80.8571,-699.213,0,0
132613,81.0912,-696.578,0,0
132873,81.34,-694.029,0,0
133134,81.6205,-691.392,0,0
133394,81.9386,-688.777,0,0
133654,82.2541,-686.19,0,0
133915,82.5279,-683.639,0,0
134175,82.6806,-681.168,0,0
134435,82.6882,-678.514,0,0
134696,82.7503,-675.648,0,0
134956,82.8732,-672.725,0,0
135216,83.0914,-669.708,0,0
135477,83.4173,-666.67,0,0
135737,83.8162,-663.695,0,0
135997,84.2327,-660.672,0,0
136258,84.684,-657.633,0,0
136518,85.187,-654.625,0,0
136778,85.6969,-651.675,0,0
137039,86.1667,-648.644,0,0
137299,86.7328,-645.51,0,0
137559,87.4219,-642.457,0,0
137819,88.1298,-639.408,0,0
138080,88.8821,-636.535,0,0
138340.125,89.4563,-633.662,0,0
138600.45,89.9532,-630.677,0,0
138860.775,90.5207,-627.558,0,0
139121.1,91.1349,-624.459,0,0
139381.425,91.7312,-621.341,0,0
139641.75,92.2745,-618.155,0,0
139902.075,92.8237,-614.793,0,0
140162.4,93.4802,-611.263,0,0
140422.725,94.3524,-607.666,0,0
140683.05,95.3426,-604.034,0,0
140943.375,96.5181,-600.486,0,0
141203.7,97.6246,-596.931,0,0
141464.025,98.886,-593.254,0,0
141724.35,100.351,-589.554,0,0
141984.675,102.071,-585.897,0,0
142245.0,103.964,-582.462,0,0
142505.325,105.866,-579.258,0,0
142765.65,107.644,-576.142,0,0
143025.975,109.429,-573.037,0,0
143286.3,111.14,-569.872,0,0
143546.625,112.968,-566.591,0,0
143806.95,114.992,-563.354,0,0
144067.275,117.102,-560.299,0,0
144327.6,119.132,-557.352,0,0
144587.925,121.117,-554.316,0,0
144848.25,123.219,-551.211,0,0
145108.575,125.475,-548.275,0,0
145368.9,127.625,-545.404,0,0
145629.225,129.805,-542.429,0,0
145889.55,132.071,-539.501,0,0
146149.875,134.327,-536.531,0,0
146410.2,136.673,-533.534,0,0
146670.525,139.131,-530.528,0,0
146930.85,141.659,-527.522,0,0
147191.175,144.232,-524.5,0,0
147451.5,146.976,-521.38,0,0
147711.825,149.89,-518.307,0,0
147972.15,152.902,-515.208,0,0
148232.475,156.123,-512.002,0,0
148492.8,159.681,-508.831,0,0
148753.125,163.432,-505.726,0,0
149013.45,167.591,-502.489,0,0
149273.775,172.508,-499.523,0,0
149534.1,177.754,-497.285,0,0
149794.425,183.017,-495.511,0,0
150054.75,188.377,-494.023,0,0
150315.075,194.062,-492.909,0,0
150575.4,200.062,-492.618,0,0
150835.725,205.787,-493.279,0,0
151096.05,210.973,-494.474,0,0
151356.375,215.704,-495.922,0,0
151616.7,220.208,-497.611,0,0
151877.025,224.546,-499.687,0,0
152137.35,228.406,-502.356,0,0
152397.675,231.516,-505.257,0,0
152658.0,234.067,-508.053,0,0
152918.325,236.273,-510.829,0,0
153178.65,238.175,-513.713,0,0
153438.975,239.495,-516.728,0,0
153699.3,240.203,-519.583,0,0
153959.625,240.451,-522.171,0,0
154219.95,240.246,-524.318,0,0
154480,239.872,-525.991,0,0
154741,239.52,-527.347,0,0
155001,239.069,-528.296,0,0
155261,238.85,-529.019,0,0
155522,238.966,-529.792,0,0
155782,238.961,-530.951,0,0
156042,238.434,-532.108,0,0
156303,237.432,-533.067,0,0
156563,236.471,-533.501,0,0
156823,235.503,-533.806,0,0
157084,234.325,-533.844,0,0
157344,233.034,-533.331,0,0
157604,232.29,-532.371,0,0
157864,231.957,-531.559,0,0
158125,231.712,-530.967,0,0
158385,231.361,-530.463,0,0
158645,231.04,-529.877,0,0
158906,230.545,-529.29,0,0
159166,230.071,-528.577,0,0
159426,229.453,-527.775,0,0
159687,229.031,-526.687,0,0
159947,228.686,-525.61,0,0
160207,228.404,-524.328,0,0
160468,228.237,-523.213,0,0
160728,228.017,-521.959,0,0
160988,227.864,-520.198,0,0
161249,228.402,-518.017,0,0
161509,230.126,-516.486,0,0
161769,231.855,-515.799,0,0
162030,233.735,-515.785,0,0
162290,235.144,-516.966,0,0
162550,235.421,-518.532,0,0
162811,234.77,-519.819,0,0
163071,233.9,-520.766,0,0
163331,232.698,-521.705,0,0
163592,230.949,-522.624,0,0
163852,228.768,-523.018,0,0
164112,226.257,-522.963,0,0
164373,223.57,-522.384,0,0
164633,221.041,-521.566,0,0
164893,218.271,-520.519,0,0
165154,215.185,-518.911,0,0
165414,212.258,-516.529,0,0
165674,209.703,-514.024,0,0
165935,207.39,-511.194,0,0
166195,205.16,-508.26,0,0
166455,202.943,-504.909,0,0
166716,201.014,-501.266,0,0
166976,199.55,-497.282,0,0
167236,198.658,-493.539,0,0
167497,197.502,-490.287,0,0
167757,196.252,-486.507,0,0
168017,195.084,-482.497,0,0
168277,194.174,-478.227,0,0
168538,193.632,-473.987,0,0
168798,193.215,-469.706,0,0
169058,192.856,-465.355,0,0
169319,192.68,-460.862,0,0
169579,192.671,-456.119,0,0
169839,193.107,-451.327,0,0
170100,194.01,-446.798,0,0
170360.075,194.903,-442.547,0,0
170620.4,195.561,-438.467,0,0
170880.725,196.036,-433.994,0,0
171141.05,196.905,-429.247,0,0
171401.375,198.238,-424.603,0,0
171661.7,199.442,-420.144,0,0
171922.025,200.808,-415.584,0,0
172182.35,202.257,-411.021,0,0
172442.675,203.825,-406.39,0,0
172703.0,205.637,-401.556,0,0
172963.325,207.713,-396.91,0,0
173223.65,209.834,-392.385,0,0
173483.975,211.952,-387.667,0,0
173744.3,214.394,-382.76,0,0
174004.625,217.163,-377.997,0,0
174264.95,220.047,-373.342,0,0
174525.275,223.123,-368.584,0,0
174785.6,226.685,-363.914,0,0
175045.925,230.404,-359.55,0,0
175306.25,234.073,-355.154,0,0
175566.575,238.185,-350.758,0,0
175826.9,242.781,-346.832,0,0
176087.225,247.193,-343.413,0,0
176347.55,251.414,-339.811,0,0
176607.875,255.989,-336.147,0,0
176868.2,260.889,-332.574,0,0
177128.525,266.315,-329.357,0,0
177388.85,271.978,-326.771,0,0
177649.175,277.634,-324.887,0,0
177909.5,283.107,-323.589,0,0
178169.825,287.996,-322.64,0,0
178430.15,292.679,-321.738,0,0
178690.475,297.402,-320.902,0,0
178950.8,302.12,-320.794,0,0
179211.125,306.234,-321.206,0,0
179471.45,309.399,-321.873,0,0
179731.775,311.782,-322.441,0,0
179992.1,314.307,-320.874,0,0
180252.425,316.163,-321.081,0,0
180512.75,317.015,-320.574,0,0
180773.075,317.249,-319.014,0,0
181033.4,317.912,-316.264,0,0
181293.725,319.12,-312.801,0,0
181554.05,321.092,-308.903,0,0
181814.375,323.689,-305.083,0,0
182074.7,326.548,-301.261,0,0
182335.025,329.968,-297.677,0,0
182595.35,333.438,-294.645,0,0
182855.675,336.148,-291.411,0,0
183116.0,339.053,-287.359,0,0
183376.325,342.584,-283.082,0,0
183636.65,346.457,-278.873,0,0
183896.975,350.437,-274.532,0,0
184157.3,354.702,-269.8,0,0
184417.625,359.743,-264.745,0,0
184677.95,365.538,-260.084,0,0
184938.275,371.656,-255.664,0,0
185198.6,378.181,-251.491,0,0
185458.925,385.214,-247.765,0,0
185719.25,392.287,-244.674,0,0
185979.575,399,-241.791,0,0
186239.9,405.813,-238.763,0,0
186500,413.063,-235.758,0,0
186761,420.553,-233.139,0,0
187021,428.144,-230.453,0,0
187281,436.115,-228.204,0,0
187542,444.005,-226.217,0,0
187802,452.242,-224.075,0,0
188062,461.199,-222.688,0,0
188322,469.841,-222.258,0,0
188583,477.794,-222.38,0,0
188843,484.969,-222.435,0,0
189103,491.564,-221.836,0,0
189364,498.4,-220.422,0,0
189624,505.768,-218.615,0,0
189884,513.659,-216.691,0,0
190145,522.077,-214.671,0,0
190405,531.013,-212.799,0,0
190665,540.413,-211.118,0,0
190926,550.032,-209.459,0,0
191186,560.48,-207.693,0,0
191446,571.727,-206.36,0,0
191707,583.348,-205.752,0,0
191967,595.217,-205.347,0,0
192227,607.738,-205.175,0,0
192488,621.043,-205.532,0,0
192748,634.978,-206.645,0,0
193008,649.536,-208.617,0,0
193269,664.622,-211.721,0,0
193529,679.954,-216.065,0,0
193789,695.318,-221.724,0,0
194050,710.356,-228.731,0,0
194310,724.785,-236.686,0,0
194570,738.982,-245.334,0,0
194831,752.866,-255.125,0,0
195091,765.994,-266.16,0,0
195351,777.95,-277.967,0,0
195612,788.703,-289.963,0,0
195872,798.495,-301.732,0,0
196132,808.242,-313.313,0,0
196393,817.846,-325.217,0,0
196653,827.078,-337.494,0,0
196913,835.953,-349.802,0,0
197174,844.837,-362.207,0,0
197434,854.058,-375.038,0,0
197694,863.586,-388.995,0,0
197955,872.603,-404.399,0,0
198215,880.329,-421.097,0,0
198475,886.579,-438.275,0,0
198735,891.645,-455.417,0,0
198996,895.726,-472.619,0,0
199256,898.998,-489.562,0,0
199516,901.674,-506.48,0,0
199777,904.15,-523.572,0,0
200037,905.905,-541.309,0,0
200297,906.574,-559.319,0,0
200558,906.056,-577.108,0,0
200818,904.968,-594.819,0,0
201078,902.961,-612.784,0,0
201339,899.509,-631.115,0,0
201599,894.314,-648.724,0,0
201859,888.125,-664.859,0,0
202120,881.715,-679.954,0,0
202380.025,875.384,-694.584,0,0
202640.35,868.732,-709.006,0,0
202900.675,861.57,-723.151,0,0
203161.0,853.887,-736.846,0,0
203421.325,845.722,-750.248,0,0
203681.65,836.683,-763.065,0,0
203941.975,827.376,-774.747,0,0
204202.3,818.567,-785.859,0,0
204462.625,810.014,-797.104,0,0
204722.95,800.781,-809.01,0,0
204983.275,790.429,-820.742,0,0
205243.6,778.755,-832.116,0,0
205503.925,766.08,-842.091,0,0
205764.25,752.322,-850.653,0,0
206024.575,738.873,-857.186,0,0
206284.9,726.279,-862.549,0,0
206545.225,714.366,-867.442,0,0
206805.55,702.581,-871.934,0,0
207065.875,690.832,-876.086,0,0
207326.2,679.037,-879.373,0,0
207586.525,667.547,-881.722,0,0
207846.85,656.746,-882.905,0,0
208107.175,647.156,-883.675,0,0
208367.5,638.417,-884.673,0,0
208627.825,630.306,-885.657,0,0
208888.15,622.845,-886.765,0,0
209148.475,616.076,-888.474,0,0
209408.8,609.529,-891.165,0,0
209669.125,601.963,-894.553,0,0
209929.45,593.912,-898.119,0,0
210189.775,584.984,-900.997,0,0
210450.1,576.295,-903.344,0,0
210710.425,567.478,-905.761,0,0
210970.75,558.114,-908.12,0,0
211231.075,548.307,-910.065,0,0
211491.4,537.842,-911.311,0,0
211751.725,527.286,-911.288,0,0
212012.05,517.156,-910.216,0,0
212272.375,507.847,-908.51,0,0
212532.7,499.251,-906.589,0,0
212793.025,491.005,-904.664,0,0
213053.35,482.971,-902.642,0,0
213313.675,475.27,-900.331,0,0
213574.0,467.817,-897.997,0,0
213834.325,460.512,-895.381,0,0
214094.65,453.55,-892.56,0,0
214354.975,446.853,-889.728,0,0
214615.3,440.568,-886.559,0,0
214875.625,434.584,-883.5,0,0
215135.95,428.786,-880.522,0,0
215396.275,423.021,-877.39,0,0
215656.6,417.45,-874.103,0,0
215916.925,412.111,-870.382,0,0
216177.25,407.263,-866.583,0,0
216437.575,402.684,-862.852,0,0
216697.9,398.452,-859.146,0,0
216958.225,394.591,-855.375,0,0
217218.55,390.971,-851.722,0,0
217478.875,387.777,-848.205,0,0
217739.2,384.674,-844.928,0,0
217999.525,381.636,-841.709,0,0
218259.85,378.611,-838.533,0,0
218520,375.687,-835.294,0,0
218780,373.085,-831.94,0,0
219041,370.759,-828.667,0,0
219301,368.675,-825.478,0,0
219561,366.761,-822.413,0,0
219822,365.189,-819.552,0,0
220082,363.607,-816.743,0,0
220342,362.053,-814.415,0,0
220603,360.408,-811.942,0,0
220863,358.9,-809.355,0,0
221123,357.69,-806.832,0,0
221384,356.663,-804.386,0,0
221644,355.767,-802.203,0,0
221904,354.957,-800.153,0,0
222165,354.287,-798.311,0,0
222425,353.67,-796.599,0,0
222685,353.136,-795.121,0,0
222946,352.494,-793.833,0,0
223206,351.756,-792.7,0,0
223466,350.888,-791.645,0,0
223727,349.987,-790.529,0,0
223987,349.133,-789.248,0,0
224247,348.441,-788.149,0,0
224508,347.905,-787.114,0,0
224768,347.141,-786.354,0,0
225028,346.524,-785.531,0,0
225289,345.709,-784.897,0,0
225549,344.89,-784.034,0,0
225809,344.194,-783.114,0,0
226070,343.637,-782.239,0,0
226330,343.284,-781.453,0,0
226590,343.001,-780.736,0,0
226851,342.852,-780.284,0,0
227111,342.847,-779.948,0,0
227371,342.846,-779.798,0,0
227632,342.906,-779.777,0,0
227892,343.054,-780.086,0,0
228152,343.302,-780.663,0,0
228413,343.401,-781.721,0,0
228673,343.242,-782.989,0,0
228933,342.849,-784.57,0,0
229193,342.086,-786.308,0,0
229454,341.035,-788.017,0,0
229714,339.619,-789.727,0,0
229974,337.926,-791.692,0,0
230235,335.895,-793.161,0,0
230495,333.883,-794.507,0,0
230755,331.842,-795.838,0,0
231016,329.698,-797.055,0,0
231276,327.498,-798.371,0,0
231536,325.224,-799.585,0,0
231797,322.832,-800.899,0,0
232057,320.248,-802.237,0,0
232317,317.458,-803.461,0,0
232578,314.447,-804.653,0,0
232838,311.212,-805.632,0,0
233098,307.86,-806.418,0,0
233359,304.455,-806.967,0,0
233619,301,-807.372,0,0
233879,297.642,-807.441,0,0
234140,294.319,-807.498,0,0
234400,290.989,-807.469,0,0
234660.3,287.79,-807.256,0,0
234920.625,284.697,-807.007,0,0
235180.95,281.599,-806.719,0,0
235441.275,278.487,-806.525,0,0
235701.6,275.279,-806.281,0,0
235961.925,272.153,-805.839,0,0
236222.25,268.93,-805.508,0,0
236482.575,265.756,-805.045,0,0
236742.9,262.444,-804.593,0,0
237003.225,259.075,-804.038,0,0
237263.55,255.63,-803.294,0,0
237523.875,252.193,-802.398,0,0
237784.2,248.749,-801.259,0,0
238044.525,245.452,-799.976,0,0
238304.85,242.356,-798.588,0,0
238565.175,239.389,-797.235,0,0
238825.5,236.386,-795.879,0,0
239085.825,233.374,-794.506,0,0
239346.15,230.479,-793.053,0,0
239606.475,227.563,-791.591,0,0
239866.8,224.68,-790.07,0,0
240127.125,221.759,-788.315,0,0
240387.45,218.901,-786.611,0,0
240647.775,216.223,-784.668,0,0
240908.1,213.646,-782.783,0,0
241168.425,211.16,-780.859,0,0
241428.75,208.702,-778.915,0,0
241689.075,206.303,-776.861,0,0
241949.4,203.985,-774.736,0,0
242209.725,201.877,-772.604,0,0
242470.05,199.889,-770.446,0,0
242730.375,198.06,-768.37,0,0
242990.7,196.33,-766.365,0,0
243251.025,194.724,-764.427,0,0
243511.35,193.18,-762.556,0,0
243771.675,191.714,-760.779,0,0
244032.0,190.296,-759.046,0,0
244292.325,188.816,-757.588,0,0
244552.65,187.468,-756.107,0,0
244812.975,186.018,-754.761,0,0
245073.3,184.61,-753.59,0,0
245333.625,183.186,-752.58,0,0
245593.95,181.543,-751.684,0,0
245854.275,179.73,-750.862,0,0
246114.6,177.573,-750.175,0,0
246374.925,175.231,-749.338,0,0
246635.25,172.682,-748.392,0,0
246895.575,169.973,-747.145,0,0
247155.9,167.214,-745.739,0,0
247416.225,164.339,-744.12,0,0
247676.55,161.52,-742.363,0,0
247936.875,158.856,-740.382,0,0
248197.2,156.164,-738.22,0,0
248457.525,153.535,-736.017,0,0
248717.85,150.905,-733.703,0,0
248978.175,148.407,-731.349,0,0
249238.5,145.811,-728.755,0,0
249498.825,143.387,-726.024,0,0
249759.15,141.082,-723.236,0,0
250019.475,138.757,-720.36,0,0
250279.8,136.579,-717.274,0,0
250540,134.529,-714.096,0,0
250800,132.528,-710.868,0,0
251061,130.762,-707.464,0,0
251321,129.121,-704.042,0,0
251581,127.731,-700.528,0,0
251842,126.508,-697.048,0,0
252102,125.447,-693.606,0,0
252362,124.466,-690.187,0,0
252623,123.646,-686.796,0,0
252883,122.912,-683.471,0,0
253143,122.28,-680.199,0,0
253404,121.718,-676.949,0,0
253664,121.192,-673.751,0,0
253924,120.771,-670.581,0,0
254185,120.299,-667.411,0,0
254445,120.021,-664.232,0,0
254705,119.677,-661.02,0,0
254966,119.447,-657.713,0,0
255226,119.438,-654.453,0,0
255486,119.493,-651.118,0,0
255747,119.744,-647.821,0,0
256007,120.108,-644.663,0,0
256267,120.615,-641.544,0,0
256528,121.214,-638.573,0,0
256788,121.827,-635.644,0,0
257048,122.5,-632.787,0,0
257309,123.242,-629.956,0,0
257569,124.014,-627.176,0,0
257829,124.896,-624.42,0,0
258090,125.877,-621.724,0,0
258350,126.877,-619.082,0,0
258610,128.009,-616.507,0,0
258871,129.22,-613.986,0,0
259131,130.523,-611.55,0,0
259391,131.936,-609.208,0,0
259651,133.349,-606.937,0,0
259912,134.885,-604.831,0,0
260172,136.399,-602.796,0,0
260432,138.033,-600.856,0,0
260693,139.705,-599.055,0,0
260953,141.344,-597.376,0,0
261213,143.044,-595.795,0,0
261474,144.739,-594.258,0,0
261734,146.432,-592.889,0,0
261994,148.155,-591.618,0,0
262255,149.84,-590.452,0,0
262515,151.548,-589.386,0,0
262775,153.208,-588.427,0,0
263036,154.814,-587.535,0,0
263296,156.399,-586.715,0,0
263556,157.966,-585.964,0,0
263817,159.51,-585.261,0,0
264077,161.056,-584.643,0,0
264337,162.583,-584.102,0,0
264598,164.121,-583.668,0,0
264858,165.538,-583.279,0,0
265118,167.03,-582.975,0,0
265379,168.37,-582.823,0,0
265639,169.667,-582.64,0,0
265899,170.914,-582.577,0,0
266160,172.056,-582.491,0,0
266420,173.154,-582.416,0,0
266680.25,174.242,-582.365,0,0
266940.575,175.262,-582.307,0,0
267200.9,176.306,-582.314,0,0
267461.225,177.347,-582.361,0,0
267721.55,178.342,-582.508,0,0
267981.875,179.297,-582.708,0,0
268242.2,180.194,-582.956,0,0
268502.525,180.983,-583.287,0,0
268762.85,181.646,-583.65,0,0
269023.175,182.2,-583.99,0,0
269283.5,182.657,-584.365,0,0
269543.825,182.978,-584.659,0,0
269804.15,183.215,-584.846,0,0
270064.475,183.377,-585.009,0,0
270324.8,183.538,-584.979,0,0
270585.125,183.537,-584.839,0,0
270845.45,183.672,-584.544,0,0
271105.775,183.878,-584.177,0,0
271366.1,184.214,-583.698,0,0
271626.425,184.689,-583.202,0,0
271886.75,185.231,-582.638,0,0
272147.075,185.897,-582.124,0,0
272407.4,186.634,-581.552,0,0
272667.725,187.536,-580.998,0,0
272928.05,188.559,-580.493,0,0
273188.375,189.684,-580.036,0,0
273448.7,190.949,-579.61,0,0
273709.025,192.342,-579.238,0,0
273969.35,193.966,-578.887,0,0
274229.675,195.822,-578.655,0,0
274490.0,197.971,-578.644,0,0
274750.325,200.355,-579.085,0,0
275010.65,202.87,-579.817,0,0
275270.975,205.391,-581.148,0,0
275531.3,207.801,-582.876,0,0
275791.625,210.019,-585.085,0,0
276051.95,211.97,-587.718,0,0
276312.275,213.532,-590.722,0,0
276572.6,214.615,-593.981,0,0
276832.925,215.135,-597.358,0,0
277093.25,215.235,-600.668,0,0
277353.575,215.004,-603.873,0,0
277613.9,214.472,-607.043,0,0
277874.225,213.624,-610.197,0,0
278134.55,212.457,-613.233,0,0
278394.875,210.981,-616.111,0,0
278655.2,209.248,-618.768,0,0
278915.525,207.313,-621.228,0,0
279175.85,205.238,-623.501,0,0
279436.175,203.035,-625.545,0,0
279696.5,200.633,-627.518,0,0
279956.825,198.154,-629.157,0,0
280217.15,195.535,-630.605,0,0
280477.475,192.954,-631.788,0,0
280737.8,190.369,-632.789,0,0
280998.125,187.929,-633.631,0,0
281258.45,185.485,-634.407,0,0
281518.775,183.006,-635.208,0,0
281779.1,180.5,-635.932,0,0
282039.425,177.865,-636.612,0,0
282299.75,175.103,-637.168,0,0
282560,172.167,-637.574,0,0
282820,169.14,-637.732,0,0
283081,166.033,-637.64,0,0
283341,162.903,-637.191,0,0
283601,159.934,-636.386,0,0
283862,157.247,-635.31,0,0
284122,154.888,-634.184,0,0
284382,152.87,-633.153,0,0
284643,150.91,-632.326,0,0
284903,148.833,-631.759,0,0
285163,146.65,-631.198,0,0
285424,144.195,-630.617,0,0
285684,141.58,-629.866,0,0
285944,138.751,-628.876,0,0
286205,135.883,-627.654,0,0
286465,132.983,-626.095,0,0
286725,130.071,-624.212,0,0
286986,127.268,-622.027,0,0
287246,124.578,-619.548,0,0
287506,122.059,-616.726,0,0
287767,119.787,-613.572,0,0
288027,117.824,-610.139,0,0
288287,116.232,-606.499,0,0
288548,115.043,-602.673,0,0
288808,114.348,-598.743,0,0
289068,114.085,-594.824,0,0
289329,114.208,-590.968,0,0
289589,114.781,-587.176,0,0
289849,115.753,-583.576,0,0
290109,117.03,-580.16,0,0
290370,118.655,-576.93,0,0
290630,120.634,-573.876,0,0
290890,122.987,-571.146,0,0
291151,125.734,-568.78,0,0
291411,128.792,-566.911,0,0
291671,132.06,-565.646,0,0
291932,135.358,-565.037,0,0
292192,138.543,-565.013,0,0
292452,141.563,-565.57,0,0
292713,144.246,-566.698,0,0
292973,146.418,-568.282,0,0
293233,148.043,-570.09,0,0
293494,149.17,-572.077,0,0
293754,149.722,-574.048,0,0
294014,149.75,-575.866,0,0
294275,149.303,-577.447,0,0
294535,148.529,-578.634,0,0
294795,147.618,-579.292,0,0
295056,146.698,-579.476,0,0
295316,146.123,-579.181,0,0
295576,145.877,-578.615,0,0
295837,146.224,-577.935,0,0
296097,147.203,-577.442,0,0
296357,148.719,-577.469,0,0
296618,150.429,-578.286,0,0
296878,152,-579.917,0,0
297138,153.032,-582.211,0,0
297399,153.36,-584.876,0,0
297659,152.931,-587.619,0,0
297919,151.88,-590.168,0,0
298180,150.336,-592.423,0,0
298440,148.466,-594.3,0,0
298700.2,146.389,-595.8,0,0
298960.525,144.25,-596.943,0,0
299220.85,142.049,-597.83,0,0
299481.175,139.863,-598.462,0,0
299741.5,137.676,-598.901,0,0
300001.825,135.481,-599.067,0,0
300262.15,133.326,-599.04,0,0
300522.475,131.287,-598.811,0,0
300782.8,129.341,-598.367,0,0
301043.125,127.576,-597.82,0,0
301303.45,125.969,-597.175,0,0
301563.775,124.524,-596.5,0,0
301824.1,123.214,-595.799,0,0
302084.425,122.022,-595.115,0,0
302344.75,120.969,-594.424,0,0
302605.075,120.086,-593.817,0,0
302865.4,119.301,-593.34,0,0
303125.725,118.545,-593.031,0,0
303386.05,117.754,-592.88,0,0
303646.375,116.869,-592.84,0,0
303906.7,115.855,-592.848,0,0
304167.025,114.766,-592.869,0,0
304427.35,113.592,-592.907,0,0
304687.675,112.322,-592.943,0,0
304948.0,110.918,-593.018,0,0
305208.325,109.375,-592.956,0,0
305468.65,107.739,-592.826,0,0
305728.975,106.048,-592.564,0,0
305989.3,104.344,-592.16,0,0
306249.625,102.649,-591.641,0,0
306509.95,100.972,-591.038,0,0
306770.275,99.3352,-590.35,0,0
307030.6,97.7247,-589.594,0,0
307290.925,96.1649,-588.772,0,0
307551.25,94.6433,-587.897,0,0
307811.575,93.1556,-586.997,0,0
308071.9,91.6917,-586.064,0,0
308332.225,90.2461,-585.076,0,0
308592.55,88.8121,-584.042,0,0
308852.875,87.4292,-582.931,0,0
309113.2,86.1102,-581.79,0,0
309373.525,84.8577,-580.634,0,0
309633.85,83.6469,-579.446,0,0
309894.175,82.4864,-578.297,0,0
310154.5,81.3067,-577.123,0,0
310414.825,80.1884,-575.922,0,0
310675.15,79.0563,-574.694,0,0
310935.475,77.9938,-573.449,0,0
311195.8,76.9634,-572.174,0,0
311456.125,75.9613,-570.893,0,0
311716.45,74.9778,-569.615,0,0
311976.775,74.0587,-568.297,0,0
312237.1,73.1597,-566.976,0,0
312497.425,72.3007,-565.639,0,0
312757.75,71.4829,-564.296,0,0
313018.075,70.7121,-562.977,0,0
313278.4,69.9749,-561.666,0,0
313538.725,69.2546,-560.357,0,0
313799.05,68.5479,-559.053,0,0
314059.375,67.88,-557.756,0,0
314319.7,67.2175,-556.425,0,0
314580,66.6219,-555.186,0,0
314840,66.0506,-553.87,0,0
315101,65.3584,-552.6,0,0
315361,64.7945,-551.278,0,0
315621,64.299,-549.988,0,0
315882,63.6587,-548.694,0,0
316142,63.1431,-547.524,0,0
316402,62.5799,-546.164,0,0
316663,62.1274,-544.842,0,0
316923,61.6997,-543.562,0,0
317183,61.1796,-542.212,0,0
317444,60.8088,-540.857,0,0
317704,60.4244,-539.55,0,0
317964,60.0234,-538.198,0,0
318225,59.7316,-536.935,0,0
318485,59.4362,-535.611,0,0
318745,59.1744,-534.327,0,0
319006,58.9144,-533.107,0,0
319266,58.6837,-531.873,0,0
319526,58.4049,-530.67,0,0
319787,58.173,-529.542,0,0
320047,58.0058,-528.29,0,0
320307,57.6874,-527.18,0,0
320567,57.4739,-525.988,0,0
320828,57.185,-524.784,0,0
321088,56.9898,-523.602,0,0
321348,56.8068,-522.353,0,0
321609,56.6074,-521.161,0,0
321869,56.4538,-519.968,0,0
322129,56.2653,-518.746,0,0
322390,56.1412,-517.558,0,0
322650,55.9768,-516.269,0,0
322910,55.7762,-515.1,0,0
323171,55.7366,-513.892,0,0
323431,55.6226,-512.629,0,0
323691,55.4919,-511.321,0,0
323952,55.4761,-510.057,0,0
324212,55.4508,-508.725,0,0
324472,55.4453,-507.374,0,0
324733,55.4609,-506.02,0,0
324993,55.6942,-504.623,0,0
325253,55.8657,-503.201,0,0
325514,56.1811,-501.826,0,0
325774,56.6279,-500.466,0,0
326034,57.1295,-499.199,0,0
326295,57.7852,-497.968,0,0
326555,58.4479,-496.865,0,0
326815,59.1962,-495.913,0,0
327076,59.9109,-495.04,0,0
327336,60.5304,-494.316,0,0
327596,61.1863,-493.751,0,0
327857,61.7692,-493.158,0,0
328117,62.2782,-492.579,0,0
328377,62.6946,-492.011,0,0
328638,63.186,-491.478,0,0
328898,63.5952,-491.002,0,0
329158,64.0544,-490.491,0,0
329419,64.5457,-490.066,0,0
329679,64.9434,-489.664,0,0
329939,65.3955,-489.314,0,0
330200,65.8358,-488.991,0,0
330460,66.2213,-488.775,0,0
330720.15,66.5853,-488.624,0,0
330980.475,66.9335,-488.472,0,0
331240.8,67.1664,-488.403,0,0
331501.125,67.3621,-488.386,0,0
331761.45,67.4495,-488.348,0,0
332021.775,67.5167,-488.445,0,0
332282.1,67.4407,-488.46,0,0
332542.425,67.3539,-488.483,0,0
332802.75,67.1398,-488.575,0,0
333063.075,66.7722,-488.586,0,0
333323.4,66.3656,-488.511,0,0
333583.725,65.9408,-488.407,0,0
333844.05,65.3787,-488.224,0,0
334104.375,64.8711,-487.895,0,0
334364.7,64.3413,-487.551,0,0
334625.025,63.8065,-487.127,0,0
334885.35,63.2676,-486.636,0,0
335145.675,62.7832,-486.145,0,0
335406.0,62.3353,-485.594,0,0
335666.325,61.8606,-485.009,0,0
335926.65,61.4158,-484.402,0,0
336186.975,61.0521,-483.825,0,0
336447.3,60.6079,-483.169,0,0
336707.625,60.1939,-482.557,0,0
336967.95,59.7732,-481.809,0,0
337228.275,59.375,-481.143,0,0
337488.6,59.0656,-480.503,0,0
337748.925,58.6657,-479.767,0,0
338009.25,58.3311,-479.103,0,0
338269.575,57.983,-478.351,0,0
338529.9,57.6781,-477.586,0,0
338790.225,57.37,-476.849,0,0
339050.55,57.0965,-476.158,0,0
339310.875,56.7799,-475.347,0,0
339571.2,56.4098,-474.534,0,0
339831.525,56.1311,-473.722,0,0
340091.85,55.8697,-472.972,0,0
340352.175,55.6019,-472.145,0,0
340612.5,55.3714,-471.3,0,0
340872.825,55.1131,-470.499,0,0
341133.15,54.9173,-469.599,0,0
341393.475,54.6948,-468.731,0,0
341653.8,54.5488,-467.903,0,0
341914.125,54.3408,-467.028,0,0
342174.45,54.1872,-466.151,0,0
342434.775,53.9884,-465.234,0,0
342695.1,53.8748,-464.357,0,0
342955.425,53.7583,-463.442,0,0
343215.75,53.6697,-462.504,0,0
343476.075,53.5808,-461.548,0,0
343736.4,53.5299,-460.616,0,0
343996.725,53.5368,-459.687,0,0
344257.05,53.5417,-458.755,0,0
344517.375,53.5989,-457.815,0,0
344777.7,53.6412,-456.926,0,0
345038.025,53.697,-455.992,0,0
345298.35,53.857,-455.054,0,0
345558.675,53.9228,-454.234,0,0
345819.0,54.0976,-453.323,0,0
346079.325,54.2377,-452.454,0,0
346339.65,54.4397,-451.607,0,0
346599.975,54.6179,-450.763,0,0
346860,54.8067,-449.969,0,0
347121,55.0332,-449.142,0,0
347381,55.2518,-448.342,0,0
347641,55.4236,-447.535,0,0
347902,55.6869,-446.711,0,0
348162,56.0054,-445.974,0,0
348422,56.2895,-445.198,0,0
348683,56.5642,-444.426,0,0
348943,56.9162,-443.738,0,0
349203,57.2521,-443.027,0,0
349464,57.5796,-442.315,0,0
349724,57.9541,-441.644,0,0
349984,58.3175,-441.021,0,0
350245,58.7172,-440.415,0,0
350505,59.108,-439.858,0,0
350765,59.4955,-439.324,0,0
351025,59.8902,-438.811,0,0
351286,60.1647,-438.389,0,0
351546,60.5189,-437.916,0,0
351806,60.8379,-437.467,0,0
352067,61.1134,-437.102,0,0
352327,61.356,-436.653,0,0
352587,61.6519,-436.235,0,0
352848,61.8818,-435.719,0,0
353108,62.1114,-435.351,0,0
353368,62.3127,-434.889,0,0
353629,62.5461,-434.422,0,0
353889,62.8474,-433.952,0,0
354149,63.054,-433.49,0,0
354410,63.3139,-433.038,0,0
354670,63.5572,-432.594,0,0
354930,63.8504,-432.109,0,0
355191,64.1186,-431.733,0,0
355451,64.3807,-431.291,0,0
355711,64.6023,-430.872,0,0
355972,64.8556,-430.419,0,0
356232,65.1272,-429.978,0,0
356492,65.463,-429.522,0,0
356753,65.7994,-429.128,0,0
357013,66.164,-428.684,0,0
357273,66.5482,-428.317,0,0
357534,66.938,-427.95,0,0
357794,67.377,-427.65,0,0
358054,67.7634,-427.411,0,0
358315,68.1749,-427.169,0,0
358575,68.6047,-426.984,0,0
358835,68.9639,-426.818,0,0
359096,69.3701,-426.64,0,0
359356,69.69,-426.524,0,0
359616,70.0192,-426.494,0,0
359877,70.3013,-426.47,0,0
360137,70.5978,-426.429,0,0
360397,70.8299,-426.402,0,0
360658,71.0167,-426.389,0,0
360918,71.24,-426.425,0,0
361178,71.3511,-426.439,0,0
361438,71.4726,-426.405,0,0
361699,71.5612,-426.437,0,0
361959,71.671,-426.422,0,0
362219,71.6985,-426.427,0,0
362480,71.724,-426.467,0,0
362740.1,71.7523,-426.45,0,0
363000.425,71.7325,-426.492,0,0
363260.75,71.6609,-426.502,0,0
363521.075,71.6254,-426.473,0,0
363781.4,71.5463,-426.46,0,0
364041.725,71.4398,-426.401,0,0
364302.05,71.2373,-426.331,0,0
364562.375,71.1062,-426.242,0,0
364822.7,70.9861,-426.126,0,0
365083.025,70.8146,-426.029,0,0
365343.35,70.6527,-425.784,0,0
365603.675,70.4692,-425.654,0,0
365864.0,70.3601,-425.434,0,0
366124.325,70.2187,-425.303,0,0
366384.65,70.1251,-424.996,0,0
366644.975,70.0047,-424.789,0,0
366905.3,69.8744,-424.542,0,0
367165.625,69.7681,-424.281,0,0
367425.95,69.719,-424.029,0,0
367686.275,69.7245,-423.779,0,0
367946.6,69.6973,-423.48,0,0
368206.925,69.6859,-423.245,0,0
368467.25,69.7608,-423.01,0,0
368727.575,69.7659,-422.846,0,0
368987.9,69.8616,-422.746,0,0
369248.225,69.9556,-422.705,0,0
369508.55,69.9481,-422.7,0,0
369768.875,69.897,-422.727,0,0
370029.2,69.7945,-422.74,0,0
370289.525,69.5646,-422.733,0,0
370549.85,69.3642,-422.691,0,0
370810.175,69.1624,-422.653,0,0
371070.5,68.892,-422.522,0,0
371330.825,68.6253,-422.42,0,0
371591.15,68.3669,-422.268,0,0
371851.475,68.2177,-422.075,0,0
372111.8,67.9813,-421.937,0,0
372372.125,67.7917,-421.727,0,0
372632.45,67.6595,-421.607,0,0
372892.775,67.4703,-421.447,0,0
373153.1,67.288,-421.365,0,0
373413.425,67.0869,-421.204,0,0
373673.75,66.8516,-421.094,0,0
373934.075,66.6443,-421.022,0,0
374194.4,66.3734,-420.911,0,0
374454.725,66.1216,-420.78,0,0
374715.05,65.8279,-420.671,0,0
374975.375,65.4965,-420.523,0,0
375235.7,65.1621,-420.379,0,0
375496.025,64.8197,-420.215,0,0
375756.35,64.4781,-420.046,0,0
376016.675,64.1332,-419.849,0,0
376277.0,63.7938,-419.617,0,0
376537.325,63.4734,-419.397,0,0
376797.65,63.1069,-419.195,0,0
377057.975,62.786,-418.881,0,0
377318.3,62.525,-418.691,0,0
377578.625,62.2333,-418.481,0,0
377838.95,61.9493,-418.27,0,0
378099.275,61.5719,-418.175,0,0
378359.6,61.173,-418.037,0,0
378619.925,60.7479,-417.884,0,0
378880,60.2505,-417.769,0,0
379141,59.6668,-417.577,0,0
379401,59.0607,-417.385,0,0
379661,58.3672,-416.988,0,0
379922,57.6399,-416.512,0,0
380182,57.0046,-415.914,0,0
380442,56.4,-415.224,0,0
380703,55.9071,-414.414,0,0
380963,55.6267,-413.565,0,0
381223,55.4569,-412.795,0,0
381483,55.3929,-412.094,0,0
381744,55.4831,-411.516,0,0
382004,55.5155,-411.093,0,0
382264,55.5508,-410.775,0,0
382525,55.4717,-410.499,0,0
382785,55.2974,-410.313,0,0
383045,55.1079,-410.105,0,0
383306,54.7919,-409.942,0,0
383566,54.4529,-409.734,0,0
383826,54.0544,-409.448,0,0
384087,53.6304,-409.146,0,0
384347,53.1651,-408.837,0,0
384607,52.6889,-408.449,0,0
384868,52.267,-408.054,0,0
385128,51.7349,-407.611,0,0
385388,51.2906,-407.082,0,0
385649,50.8276,-406.616,0,0
385909,50.3656,-406.074,0,0
386169,49.9334,-405.47,0,0
386430,49.5449,-404.873,0,0
386690,49.1139,-404.257,0,0
386950,48.754,-403.618,0,0
387211,48.3999,-402.929,0,0
387471,48.0462,-402.314,0,0
387731,47.7066,-401.643,0,0
387992,47.4109,-400.942,0,0
388252,47.1193,-400.249,0,0
388512,46.8332,-399.5,0,0
388773,46.6403,-398.76,0,0
389033,46.388,-398.023,0,0
389293,46.2566,-397.258,0,0
389554,46.1526,-396.462,0,0
389814,46.0713,-395.754,0,0
390074,46.029,-395.094,0,0
390335,46.0375,-394.371,0,0
390595,46.0434,-393.75,0,0
390855,46.1161,-393.212,0,0
391116,46.1704,-392.685,0,0
391376,46.2207,-392.186,0,0
391636,46.1862,-391.798,0,0
391896,46.1598,-391.43,0,0
392157,46.0746,-391.101,0,0
392417,45.94,-390.784,0,0
392677,45.6833,-390.435,0,0
392938,45.425,-390.078,0,0
393198,45.0746,-389.667,0,0
393458,44.735,-389.178,0,0
393719,44.3512,-388.758,0,0
393979,43.915,-388.202,0,0
394239,43.5586,-387.593,0,0
394500,43.1513,-386.973,0,0
394760.05,42.7397,-386.272,0,0
395020.375,42.3711,-385.499,0,0
395280.7,42.062,-384.692,0,0
395541.025,41.7993,-383.887,0,0
395801.35,41.5554,-383.019,0,0
396061.675,41.3501,-382.167,0,0
396322.0,41.179,-381.305,0,0
396582.325,41.0919,-380.403,0,0
396842.65,40.9527,-379.573,0,0
397102.975,40.9242,-378.689,0,0
397363.3,40.8889,-377.848,0,0
397623.625,40.8903,-376.987,0,0
397883.95,40.922,-376.14,0,0
398144.275,40.991,-375.31,0,0
398404.6,41.0686,-374.456,0,0
398664.925,41.1627,-373.696,0,0
398925.25,41.3211,-372.869,0,0
399185.575,41.4697,-372.11,0,0
399445.9,41.6092,-371.393,0,0
399706.225,41.7759,-370.652,0,0
399966.55,41.9459,-369.996,0,0
400006.6,41.9909,-369.877,0,0