File: Accelerated corrosion test data/2025-10-20_13-55-17/sample_1.csv
Frequency (Hz),Impedance (ohms),Phase (Radians),Temperature (C),Humidity (%)
10000.0,240.595,-12237.4,0,0
10260.325,245.057,-11921.6,0,0
10520.65,230.512,-11641,0,0
10780.975,226.978,-11356.2,0,0
11041.3,219.487,-11096.4,0,0
11301.625,214.611,-10838.3,0,0
11561.95,210.373,-10594.4,0,0
11822.275,209.131,-10353.1,0,0
12082.6,236.084,-10123.6,0,0
12342.925,209.549,-9950.91,0,0
12603.25,195.045,-9735.62,0,0
12863.575,191.646,-9532.86,0,0
13123.9,201.118,-9341.53,0,0
13384.225,185.434,-9169.54,0,0
13644.55,181.837,-8987.24,0,0
13904.875,183.522,-8807.79,0,0
14165.2,189.853,-8672.99,0,0
14425.525,213.093,-8516.92,0,0
14685.8,208.119,-8343.79,0,0
14946.175,176.017,-8237.12,0,0
15206.5,191.91,-8077.23,0,0
15466.825,172.696,-7960.61,0,0
15727.15,171.721,-7829.39,0,0
15987.5,159.961,-7699.79,0,0
16247.8,156.889,-7572.01,0,0
16508.125,154.963,-7449.19,0,0
16768.45,157.679,-7332.05,0,0
17028.775,164.098,-7223.16,0,0
17289.1,154.532,-7120.62,0,0
17549.425,151.63,-7016.6,0,0
17809.75,147.026,-6910.93,0,0
18070.075,149.37,-6812.37,0,0
18330.4,142.713,-6715.76,0,0
18590.725,137.537,-6622.13,0,0
18851.05,139.138,-6523.6,0,0
19111.375,134.982,-6441.24,0,0
19371.7,132.886,-6348.48,0,0
19632.025,132.047,-6259.33,0,0
19892.35,137.295,-6172.37,0,0
20152.675,136.046,-6085.29,0,0
20413.0,158.551,-5995.86,0,0
20673.3,170.417,-5956.4,0,0
20933.65,148.962,-5888.3,0,0
21193.975,162.315,-5824.1,0,0
21454.3,141.623,-5750.85,0,0
21714.625,136.503,-5678.26,0,0
21974.9,140.328,-5596.4,0,0
22235.275,177.207,-5555.12,0,0
22495.6,140.714,-5513.33,0,0
22755.925,126.335,-5444.29,0,0
23016.25,122.106,-5377.14,0,0
23276.6,118.775,-5316.17,0,0
23536.9,115.354,-5256.34,0,0
23797.225,112.351,-5195.21,0,0
24057.55,114.939,-5134.89,0,0
24317.875,112.37,-5086.06,0,0
24578.2,110.642,-5025.61,0,0
24838.525,110.561,-4975.12,0,0
25098.85,110.81,-4921.54,0,0
25359.175,105.839,-4872.1,0,0
25619.5,104.589,-4820.01,0,0
25879.8,103.037,-4769.14,0,0
26140.1,103.729,-4718.96,0,0
26400.5,102.617,-4668.94,0,0
26660.8,104.997,-4617.74,0,0
26921.1,114.996,-4568.43,0,0
27181.4,123.145,-4538.54,0,0
27441.8,110.386,-4502.86,0,0
27702.1,103.854,-4453.82,0,0
27962.4,111.812,-4403.64,0,0
28222.7,110.768,-4365.72,0,0
28483.1,120.79,-4321.07,0,0
28743.4,131.95,-4303.74,0,0
29003.7,118.631,-4265.44,0,0
29264,119.443,-4233.12,0,0
29524.4,107.446,-4199.81,0,0
29784.7,106.095,-4156.56,0,0
30045,101.743,-4125.16,0,0
30305.3,100.005,-4086.27,0,0
30565.7,97.0587,-4047.22,0,0
30826,101.543,-4009.8,0,0
31086.3,105.122,-3985.06,0,0
31346.6,99.4099,-3954.57,0,0
31607,93.9615,-3916.86,0,0
31867.3,98.8616,-3884.49,0,0
32127.6,97.4235,-3854.3,0,0
32387.9,97.7343,-3826.83,0,0
32648.3,93.5102,-3795.06,0,0
32908.6,95.5619,-3766.76,0,0
33168.9,90.452,-3737.88,0,0
33429.2,89.0278,-3708.6,0,0
33689.6,86.2154,-3679.39,0,0
33949.9,85.0173,-3648.09,0,0
34210.2,87.0097,-3621.47,0,0
34470.5,84.0456,-3594.92,0,0
34730.9,82.4013,-3566.57,0,0
34991.2,81.207,-3539.77,0,0
35251.5,80.2767,-3512.9,0,0
35511.8,79.7456,-3486.31,0,0
35772.2,79.4965,-3460.96,0,0
36032.5,77.8415,-3435.26,0,0
36292.8,77.0642,-3409.6,0,0
36553.1,76.3673,-3384.86,0,0
36813.5,76.3742,-3359.81,0,0
37073.8,76.0614,-3336.15,0,0
37334.1,75.2543,-3312.34,0,0
37594.4,75.0141,-3288.94,0,0
37854.8,73.9969,-3266.4,0,0
38115.1,73.2763,-3243.15,0,0
38375.4,73.2346,-3220.42,0,0
38635.7,72.8975,-3198.37,0,0
38896.1,72.3438,-3176.35,0,0
39156.4,72.4928,-3154.4,0,0
39416.7,72.1071,-3134,0,0
39677,71.1935,-3112.34,0,0
39937.4,70.997,-3091.46,0,0
40197.7,71.2434,-3070.64,0,0
40458,70.9395,-3050.42,0,0
40718.3,70.9639,-3029.79,0,0
40978.7,72.6851,-3010.18,0,0
41239,72.5418,-2992.42,0,0
41499.3,71.6876,-2974.14,0,0
41759.6,70.8421,-2955.47,0,0
42020,70.8452,-2936.15,0,0
42280.275,69.7801,-2917.6,0,0
42540.6,71.007,-2899.69,0,0
42800.925,70.2755,-2882.81,0,0
43061.25,69.4734,-2864.72,0,0
43321.575,69.0639,-2847.62,0,0
43581.9,68.2534,-2830.1,0,0
43842.225,67.7232,-2812.2,0,0
44102.55,67.707,-2794.5,0,0
44362.875,68.9284,-2777.55,0,0
44623.2,68.9923,-2762.32,0,0
44883.525,68.4608,-2746.13,0,0
45143.85,68.3257,-2730.35,0,0
45404.175,68.6863,-2714.68,0,0
45664.5,67.6772,-2699.5,0,0
45924.825,66.8105,-2684.18,0,0
46185.15,66.0931,-2668.25,0,0
46445.475,64.8644,-2652.44,0,0
46705.8,65.2271,-2637.45,0,0
46966.125,64.9527,-2622.98,0,0
47226.45,64.6634,-2607.6,0,0
47486.775,64.7032,-2593.13,0,0
47747.1,64.1265,-2579.06,0,0
48007.425,63.6112,-2564.68,0,0
48267.75,63.61,-2550.79,0,0
48528.075,62.3823,-2537.1,0,0
48788.4,61.6511,-2522.67,0,0
49048.725,61.5971,-2508.72,0,0
49309.05,61.3571,-2494.66,0,0
49569.375,61.3047,-2481.56,0,0
49829.7,60.7978,-2468.77,0,0
50090.025,60.0504,-2455.43,0,0
50350.35,59.531,-2442.29,0,0
50610.675,59.5092,-2429.05,0,0
50871.0,59.3238,-2415.95,0,0
51131.325,59.2169,-2403.1,0,0
51391.65,59.161,-2390.51,0,0
51651.975,58.5559,-2378.54,0,0
51912.3,58.2107,-2366.13,0,0
52172.625,57.9605,-2353.46,0,0
52432.95,58.1159,-2341.34,0,0
52693.275,57.6635,-2329.2,0,0
52953.6,57.752,-2317.18,0,0
53213.925,57.6121,-2305.65,0,0
53474.25,57.2143,-2294.15,0,0
53734.575,57.188,-2282.52,0,0
53994.9,57.0327,-2271.41,0,0
54255.225,56.5693,-2260.21,0,0
54515.55,56.2457,-2248.84,0,0
54775.875,55.8802,-2237.64,0,0
55036.2,55.619,-2226.27,0,0
55296.525,55.6322,-2215.31,0,0
55556.85,55.5332,-2204.62,0,0
55817.175,55.2309,-2193.96,0,0
56077.5,54.8839,-2183.2,0,0
56337.825,54.6579,-2172.34,0,0
56598.15,54.7437,-2161.66,0,0
56858.475,54.7012,-2151.42,0,0
57118.8,54.6216,-2141.32,0,0
57379.125,54.3565,-2130.95,0,0
57639.45,54.5189,-2120.88,0,0
57899.775,54.3112,-2110.83,0,0
58160.1,54.374,-2100.53,0,0
58420.4,54.2294,-2090.81,0,0
58680.7,54.2,-2080.99,0,0
58941.1,54.0155,-2071.05,0,0
59201.4,54.3093,-2061.04,0,0
59461.7,54.3335,-2052.15,0,0
59722,54.0713,-2042.17,0,0
59982.4,53.978,-2031.92,0,0
60242.7,53.8911,-2023.06,0,0
60503,54.1151,-2013.89,0,0
60763.3,54.2769,-2004.94,0,0
61023.7,53.818,-1996.15,0,0
61284,53.3582,-1987.5,0,0
61544.3,52.9993,-1978.62,0,0
61804.6,53.2717,-1969.7,0,0
62065,52.9758,-1961.16,0,0
62325.3,52.5801,-1952.02,0,0
62585.6,52.4197,-1943.16,0,0
62845.9,52.4446,-1934.33,0,0
63106.3,52.4535,-1925.97,0,0
63366.6,52.4153,-1917.53,0,0
63626.9,52.3682,-1908.93,0,0
63887.2,52.3855,-1900.29,0,0
64147.6,52.3001,-1891.98,0,0
64407.9,52.5028,-1883.38,0,0
64668.2,52.8463,-1875.19,0,0
64928.5,53.3767,-1866.97,0,0
65188.9,53.9361,-1859.07,0,0
65449.2,54.6283,-1851.57,0,0
65709.5,55.0974,-1844.4,0,0
65969.8,55.0498,-1837.52,0,0
66230.2,55.0969,-1830.24,0,0
66490.5,54.9027,-1822.85,0,0
66750.8,54.4623,-1815.56,0,0
67011.1,53.7854,-1808.56,0,0
67271.5,53.4577,-1800.84,0,0
67531.8,53.9008,-1793.13,0,0
67792.1,54.4374,-1786.22,0,0
68052.4,53.9671,-1779.99,0,0
68312.8,52.981,-1772.64,0,0
68573.1,52.8853,-1765.05,0,0
68833.4,53.262,-1757.95,0,0
69093.7,52.9288,-1751.22,0,0
69354.1,52.6225,-1744.24,0,0
69614.4,52.5818,-1737.55,0,0
69874.7,52.142,-1730.75,0,0
70135,51.8045,-1724.32,0,0
70395.4,51.0314,-1717.28,0,0
70655.7,50.6211,-1710.34,0,0
70916,50.3776,-1703.33,0,0
71176.3,50.0524,-1696.48,0,0
71436.7,50.1367,-1689.8,0,0
71697,49.606,-1683.37,0,0
71957.3,49.134,-1676.64,0,0
72217.6,48.5989,-1669.71,0,0
72478,48.2944,-1662.68,0,0
72738.3,48.2866,-1655.78,0,0
72998.6,48.1771,-1648.87,0,0
73258.9,48.3349,-1642.44,0,0
73519.3,48.1917,-1635.97,0,0
73779.6,47.969,-1629.22,0,0
74039.9,47.9597,-1622.72,0,0
74300.225,48.0388,-1616.17,0,0
74560.55,47.9717,-1609.64,0,0
74820.875,48.2706,-1603.16,0,0
75081.2,48.2854,-1596.96,0,0
75341.525,48.411,-1590.82,0,0
75601.85,48.3682,-1584.47,0,0
75862.175,48.5379,-1578.15,0,0
76122.5,48.7652,-1571.98,0,0
76382.825,49.0413,-1565.9,0,0
76643.15,49.2559,-1560.03,0,0
76903.475,49.4587,-1553.95,0,0
77163.8,49.671,-1548.03,0,0
77424.125,49.89,-1542.32,0,0
77684.45,50.114,-1536.51,0,0
77944.775,50.2304,-1530.65,0,0
78205.1,50.6377,-1524.74,0,0
78465.425,51.26,-1519.2,0,0
78725.75,51.689,-1514.07,0,0
78986.075,51.7275,-1508.92,0,0
79246.4,51.793,-1503.78,0,0
79506.725,51.5497,-1498.7,0,0
79767.05,51.2186,-1493.18,0,0
80027.375,51.1212,-1487.8,0,0
80287.7,50.9075,-1482.58,0,0
80548.025,50.5224,-1477.01,0,0
80808.35,50.414,-1471.38,0,0
81068.675,50.232,-1465.79,0,0
81329.0,50.2537,-1460.14,0,0
81589.325,50.3605,-1454.57,0,0
81849.65,50.5566,-1449.03,0,0
82109.975,50.7258,-1443.78,0,0
82370.3,50.8366,-1438.49,0,0
82630.625,50.8806,-1433.23,0,0
82890.95,50.8639,-1427.83,0,0
83151.275,51.1457,-1422.35,0,0
83411.6,51.4481,-1417.13,0,0
83671.925,51.6599,-1411.92,0,0
83932.25,51.921,-1406.65,0,0
84192.575,52.2907,-1401.47,0,0
84452.9,52.7724,-1396.34,0,0
84713.225,53.0038,-1391.36,0,0
84973.55,53.3762,-1386.26,0,0
85233.875,54.0146,-1381.4,0,0
85494.2,54.5115,-1376.81,0,0
85754.525,54.6444,-1372.24,0,0
86014.85,54.8836,-1367.47,0,0
86275.175,55.0429,-1362.79,0,0
86535.5,55.236,-1358.16,0,0
86795.825,55.3755,-1353.46,0,0
87056.15,55.5045,-1348.66,0,0
87316.475,55.8704,-1343.98,0,0
87576.8,55.9188,-1339.56,0,0
87837.125,55.7558,-1334.83,0,0
88097.45,55.9046,-1329.96,0,0
88357.775,55.8461,-1325.13,0,0
88618.1,56.2395,-1319.97,0,0
88878.425,56.8414,-1315.21,0,0
89138.75,57.1992,-1310.49,0,0
89399.075,57.5603,-1305.41,0,0
89659.4,58.304,-1300.64,0,0
89919.725,59.0249,-1296.01,0,0
90180,59.5562,-1291.58,0,0
90440.4,60.3175,-1286.8,0,0
90700.7,61.0949,-1282.14,0,0
90961,61.688,-1277.39,0,0
91221.3,63.0195,-1272.51,0,0
91481.7,64.6108,-1268.39,0,0
91742,65.8435,-1264.41,0,0
92002.3,66.9507,-1260.69,0,0
92262.6,68.2362,-1256.48,0,0
92523,69.6533,-1252.74,0,0
92783.3,71.5594,-1248.99,0,0
93043.6,73.3066,-1246.3,0,0
93303.9,74.5375,-1243.37,0,0
93564.3,76.5058,-1240.53,0,0
93824.6,78.9376,-1239.65,0,0
94084.9,78.9861,-1240.46,0,0
94345.2,76.3139,-1239.79,0,0
94605.6,73.6412,-1236.54,0,0
94865.9,72.4436,-1233.21,0,0
95126.2,70.7987,-1229.79,0,0
95386.5,69.4317,-1226.04,0,0
95646.9,68.3187,-1222.13,0,0
95907.2,67.0456,-1217.82,0,0
96167.5,66.466,-1213.09,0,0
96427.8,66.6215,-1208.88,0,0
96688.2,66.3823,-1205.45,0,0
96948.5,65.616,-1201.65,0,0
97208.8,65.0725,-1197.43,0,0
97469.1,64.714,-1193.25,0,0
97729.5,64.4424,-1189.07,0,0
97989.8,64.3551,-1184.92,0,0
98250.1,64.4093,-1180.84,0,0
98510.4,64.5615,-1177.1,0,0
98770.8,64.3563,-1173.45,0,0
99031.1,63.9527,-1169.56,0,0
99291.4,63.8134,-1165.55,0,0
99551.7,63.661,-1161.63,0,0
99812.1,63.524,-1157.63,0,0
100072,63.4623,-1153.68,0,0
100333,63.285,-1149.72,0,0
100593,63.1448,-1145.67,0,0
100853,63.1568,-1141.59,0,0
101114,63.0789,-1137.49,0,0
101374,63.1347,-1133.43,0,0
101634,62.9994,-1129.33,0,0
101895,62.8926,-1124.99,0,0
102155,63.0204,-1120.36,0,0
102415,63.4707,-1115.78,0,0
102676,64.1961,-1111.15,0,0
102936,65.2008,-1106.89,0,0
103196,66.0851,-1102.82,0,0
103457,67.0556,-1098.73,0,0
103717,68.0022,-1094.66,0,0
103977,69.1931,-1090.37,0,0
104238,71.0082,-1086.47,0,0
104498,72.7508,-1083.41,0,0
104758,73.7797,-1080.39,0,0
105019,74.7224,-1077.38,0,0
105279,75.4525,-1074.02,0,0
105539,76.496,-1070.49,0,0
105800,77.8327,-1067.17,0,0
106060,79.1764,-1063.94,0,0
106320.175,80.6296,-1061.02,0,0
106580.5,81.9301,-1058.3,0,0
106840.825,83.0333,-1055.7,0,0
107101.15,84.1326,-1052.86,0,0
107361.475,85.5485,-1050.15,0,0
107621.8,86.8428,-1048,0,0
107882.125,87.7546,-1045.91,0,0
108142.45,88.5085,-1043.6,0,0
108402.775,89.2987,-1041.16,0,0
108663.1,90.2288,-1038.84,0,0
108923.425,91.0745,-1036.57,0,0
109183.75,92.0224,-1034.34,0,0
109444.075,93.1306,-1032.59,0,0
109704.4,93.7318,-1031.09,0,0
109964.725,93.9808,-1029.56,0,0
110225.05,93.8578,-1027.94,0,0
110485.375,93.3353,-1025.82,0,0
110745.7,93.1376,-1023.18,0,0
111006.025,93.3004,-1020.6,0,0
111266.35,93.493,-1018.01,0,0
111526.675,94.2777,-1015.37,0,0
111787.0,95.0513,-1012.83,0,0
112047.325,95.8205,-1010.83,0,0
112307.65,96.3747,-1008.95,0,0
112567.975,96.937,-1006.99,0,0
112828.3,97.4726,-1005.54,0,0
113088.625,97.7845,-1003.99,0,0
113348.95,98.0173,-1002.72,0,0
113609.275,97.8538,-1001.36,0,0
113869.6,97.4202,-999.996,0,0
114129.925,96.8323,-998.253,0,0
114390.25,96.3933,-996.498,0,0
114650.575,96.0609,-994.663,0,0
114910.9,95.4706,-993.039,0,0
115171.225,94.6983,-991.508,0,0
115431.55,93.768,-989.622,0,0
115691.875,92.7097,-987.652,0,0
115952.2,91.6821,-985.465,0,0
116212.525,90.6861,-983.119,0,0
116472.85,89.7816,-980.692,0,0
116733.175,88.9022,-978.359,0,0
116993.5,87.8655,-975.988,0,0
117253.825,86.695,-973.356,0,0
117514.15,85.6331,-970.405,0,0
117774.475,84.7781,-967.46,0,0
118034.8,83.8735,-964.43,0,0
118295.125,83.2897,-961.208,0,0
118555.45,82.8306,-958.123,0,0
118815.775,82.4061,-955.04,0,0
119076.1,82.0349,-951.926,0,0
119336.425,81.7729,-948.823,0,0
119596.75,81.6145,-945.701,0,0
119857.075,81.653,-942.576,0,0
120117.4,81.8447,-939.725,0,0
120377.725,81.9808,-937.041,0,0
120638.05,82.0247,-934.526,0,0
120898.375,81.965,-932.121,0,0
121158.7,81.6261,-929.718,0,0
121419.025,81.1886,-927.117,0,0
121679.35,80.8425,-924.543,0,0
121939.675,80.283,-921.793,0,0
122200.0,79.8582,-918.871,0,0
122460,79.4641,-915.947,0,0
122721,79.135,-912.905,0,0
122981,78.972,-909.895,0,0
123241,78.7292,-906.89,0,0
123502,78.6253,-903.824,0,0
123762,78.5771,-900.734,0,0
124022,78.5975,-897.752,0,0
124283,78.7007,-894.812,0,0
124543,78.7002,-891.924,0,0
124803,78.7662,-888.907,0,0
125064,78.8604,-885.997,0,0
125324,78.8232,-883.058,0,0
125584,79.0204,-879.999,0,0
125845,79.2613,-877.075,0,0
126105,79.517,-874.214,0,0
126365,79.6702,-871.312,0,0
126626,79.8907,-868.436,0,0
126886,80.0894,-865.546,0,0
127146,80.2977,-862.605,0,0
127406,80.6144,-859.661,0,0
127667,80.9314,-856.711,0,0
127927,81.3055,-853.652,0,0
128187,81.8783,-850.746,0,0
128448,82.4427,-847.844,0,0
128708,82.996,-845.127,0,0
128968,83.4274,-842.445,0,0
129229,83.7964,-839.578,0,0
129489,84.321,-836.632,0,0
129749,84.9149,-833.702,0,0
130010,85.7779,-830.675,0,0
130270,86.793,-827.933,0,0
130530,87.706,-825.348,0,0
130791,88.619,-822.805,0,0
131051,89.5175,-820.293,0,0
131311,90.5557,-817.825,0,0
131572,91.592,-815.617,0,0
131832,92.4433,-813.518,0,0
132092,93.2182,-811.38,0,0
132353,93.9211,-809.33,0,0
132613,94.4863,-807.164,0,0
132873,95.1634,-804.925,0,0
133134,95.8883,-802.745,0,0
133394,96.5663,-800.679,0,0
133654,97.0829,-798.528,0,0
133915,97.6781,-796.319,0,0
134175,98.4104,-794.038,0,0
134435,99.1446,-791.973,0,0
134696,99.9025,-789.856,0,0
134956,100.578,-787.906,0,0
135216,101.24,-785.828,0,0
135477,101.815,-783.878,0,0
135737,102.337,-781.855,0,0
135997,102.984,-779.661,0,0
136258,103.64,-777.434,0,0
136518,104.465,-775.156,0,0
136778,105.528,-773.078,0,0
137039,106.503,-771.267,0,0
137299,107.659,-769.401,0,0
137559,108.894,-767.854,0,0
137819,109.955,-766.787,0,0
138080,110.511,-765.781,0,0
138340.125,110.818,-764.55,0,0
138600.45,111.174,-763.224,0,0
138860.775,111.401,-762.069,0,0
139121.1,111.372,-760.764,0,0
139381.425,111.264,-759.309,0,0
139641.75,111.209,-757.709,0,0
139902.075,111.137,-756.151,0,0
140162.4,110.946,-754.473,0,0
140422.725,110.746,-752.759,0,0
140683.05,110.393,-750.842,0,0
140943.375,110.226,-748.814,0,0
141203.7,110.142,-746.705,0,0
141464.025,110.106,-744.522,0,0
141724.35,110.116,-742.494,0,0
141984.675,109.978,-740.385,0,0
142245.0,109.904,-737.994,0,0
142505.325,110.143,-735.589,0,0
142765.65,110.376,-733.384,0,0
143025.975,110.559,-731.171,0,0
143286.3,110.776,-728.861,0,0
143546.625,111.069,-726.351,0,0
143806.95,111.612,-724.123,0,0
144067.275,112.191,-721.988,0,0
144327.6,112.582,-720.021,0,0
144587.925,112.76,-717.959,0,0
144848.25,113.017,-715.622,0,0
145108.575,113.495,-713.315,0,0
145368.9,114.122,-711.022,0,0
145629.225,114.674,-708.894,0,0
145889.55,115.314,-706.685,0,0
146149.875,116.092,-704.554,0,0
146410.2,116.821,-702.661,0,0
146670.525,117.442,-700.744,0,0
146930.85,118.187,-698.9,0,0
147191.175,118.805,-697.313,0,0
147451.5,119.205,-695.696,0,0
147711.825,119.502,-694.03,0,0
147972.15,119.619,-692.303,0,0
148232.475,119.676,-690.341,0,0
148492.8,119.914,-688.249,0,0
148753.125,120.19,-686.198,0,0
149013.45,120.399,-683.991,0,0
149273.775,121.022,-681.711,0,0
149534.1,121.879,-679.759,0,0
149794.425,122.464,-678.261,0,0
150054.75,122.759,-676.708,0,0
150315.075,122.906,-675.064,0,0
150575.4,122.981,-673.485,0,0
150835.725,122.743,-671.919,0,0
151096.05,122.185,-669.976,0,0
151356.375,121.75,-667.576,0,0
151616.7,121.577,-665.127,0,0
151877.025,121.454,-662.713,0,0
152137.35,121.154,-660.255,0,0
152397.675,120.768,-657.504,0,0
152658.0,120.473,-654.388,0,0
152918.325,120.548,-651.072,0,0
153178.65,120.907,-647.742,0,0
153438.975,121.463,-644.488,0,0
153699.3,122.067,-641.33,0,0
153959.625,122.706,-638.095,0,0
154219.95,123.521,-634.782,0,0
154480,124.404,-631.504,0,0
154741,125.42,-628.094,0,0
155001,126.635,-624.788,0,0
155261,127.952,-621.511,0,0
155522,129.243,-618.079,0,0
155782,130.861,-614.505,0,0
156042,132.874,-610.972,0,0
156303,135.204,-607.736,0,0
156563,137.66,-604.855,0,0
156823,140.038,-602.129,0,0
157084,142.509,-599.417,0,0
157344,145.289,-596.955,0,0
157604,148.061,-594.93,0,0
157864,150.524,-593.258,0,0
158125,152.628,-591.529,0,0
158385,154.827,-589.686,0,0
158645,156.81,-588.141,0,0
158906,158.309,-586.501,0,0
159166,159.426,-584.168,0,0
159426,161.081,-581.102,0,0
159687,163.486,-577.898,0,0
159947,166.371,-574.689,0,0
160207,169.992,-571.893,0,0
160468,173.851,-569.699,0,0
160728,177.802,-567.927,0,0
160988,181.781,-566.378,0,0
161249,185.941,-565.353,0,0
161509,189.886,-565.011,0,0
161769,193.53,-564.821,0,0
162030,197.022,-564.873,0,0
162290,200.255,-565.305,0,0
162550,203.021,-565.794,0,0
162811,205.505,-566.339,0,0
163071,207.452,-566.73,0,0
163331,209.31,-566.574,0,0
163592,211.447,-566.117,0,0
163852,213.854,-565.666,0,0
164112,216.51,-565.32,0,0
164373,219.422,-565.145,0,0
164633,222.357,-565.392,0,0
164893,225.104,-565.727,0,0
165154,228.151,-566.081,0,0
165414,231.25,-566.982,0,0
165674,234.109,-568.125,0,0
165935,237.03,-569.534,0,0
166195,239.712,-571.538,0,0
166455,241.806,-573.709,0,0
166716,243.438,-575.762,0,0
166976,245.042,-577.652,0,0
167236,246.78,-579.623,0,0
167497,248.442,-582.136,0,0
167757,249.498,-585.026,0,0
168017,249.94,-587.92,0,0
168277,249.888,-590.588,0,0
168538,249.597,-593.063,0,0
168798,249.033,-595.361,0,0
169058,248.202,-597.621,0,0
169319,247.125,-599.751,0,0
169579,245.588,-601.757,0,0
169839,243.52,-603.337,0,0
170100,241.257,-604.257,0,0
170360.075,238.958,-604.417,0,0
170620.4,237.271,-604.227,0,0
170880.725,235.666,-604.113,0,0
171141.05,233.923,-603.722,0,0
171401.375,232.434,-602.777,0,0
171661.7,231.534,-601.717,0,0
171922.025,230.882,-600.872,0,0
172182.35,230.237,-600.065,0,0
172442.675,229.902,-599.223,0,0
172703.0,229.833,-598.745,0,0
172963.325,229.434,-598.7,0,0
173223.65,228.605,-598.5,0,0
173483.975,227.666,-597.979,0,0
173744.3,226.866,-597.067,0,0
174004.625,226.503,-596.05,0,0
174264.95,226.331,-595.438,0,0
174525.275,225.928,-594.965,0,0
174785.6,225.452,-594.303,0,0
175045.925,225.004,-593.623,0,0
175306.25,224.801,-592.906,0,0
175566.575,224.723,-592.355,0,0
175826.9,224.647,-592.109,0,0
176087.225,224.244,-592.086,0,0
176347.55,223.464,-591.91,0,0
176607.875,222.631,-591.538,0,0
176868.2,221.79,-590.974,0,0
177128.525,221.07,-590.365,0,0
177388.85,220.292,-589.671,0,0
177649.175,219.695,-588.892,0,0
177909.5,219.282,-588.254,0,0
178169.825,218.813,-587.931,0,0
178430.15,217.972,-587.717,0,0
178690.475,216.89,-587.371,0,0
178950.8,215.689,-586.879,0,0
179211.125,214.427,-586.134,0,0
179471.45,213.312,-585.32,0,0
179731.775,212.16,-584.746,0,0
179992.1,210.573,-584.205,0,0
180252.425,208.74,-583.172,0,0
180512.75,207.033,-581.716,0,0
180773.075,205.595,-580.105,0,0
181033.4,204.207,-578.555,0,0
181293.725,202.797,-576.932,0,0
181554.05,201.527,-575.214,0,0
181814.375,200.141,-573.632,0,0
182074.7,198.546,-571.852,0,0
182335.025,196.94,-569.642,0,0
182595.35,195.63,-567.191,0,0
182855.675,194.566,-564.684,0,0
183116.0,193.626,-562.283,0,0
183376.325,192.728,-559.905,0,0
183636.65,191.853,-557.553,0,0
183896.975,190.917,-555.131,0,0
184157.3,189.903,-552.571,0,0
184417.625,188.959,-549.776,0,0
184677.95,188.171,-546.809,0,0
184938.275,187.577,-543.78,0,0
185198.6,187.203,-540.735,0,0
185458.925,186.927,-537.746,0,0
185719.25,186.68,-534.771,0,0
185979.575,186.481,-531.715,0,0
186239.9,186.446,-528.625,0,0
186500,186.511,-525.52,0,0
186761,186.592,-522.593,0,0
187021,186.53,-519.409,0,0
187281,186.634,-516.012,0,0
187542,187.22,-512.463,0,0
187802,188.16,-509.27,0,0
188062,189.099,-506.333,0,0
188322,189.849,-503.581,0,0
188583,190.473,-500.831,0,0
188843,191.177,-497.961,0,0
189103,191.963,-495.154,0,0
189364,192.805,-492.371,0,0
189624,193.364,-489.719,0,0
189884,193.978,-486.892,0,0
190145,194.569,-483.842,0,0
190405,195.399,-480.868,0,0
190665,195.975,-477.863,0,0
190926,196.659,-474.645,0,0
191186,197.466,-471.312,0,0
191446,198.356,-467.961,0,0
191707,199.362,-464.425,0,0
191967,200.503,-460.771,0,0
192227,201.957,-457.147,0,0
192488,203.611,-453.558,0,0
192748,205.296,-450.075,0,0
193008,207.063,-446.57,0,0
193269,208.981,-443.097,0,0
193529,210.98,-439.662,0,0
193789,213.163,-436.361,0,0
194050,215.371,-433.087,0,0
194310,217.521,-429.937,0,0
194570,219.649,-426.762,0,0
194831,221.819,-423.451,0,0
195091,224.136,-419.999,0,0
195351,226.552,-416.508,0,0
195612,229.187,-413.073,0,0
195872,232.059,-409.697,0,0
196132,234.944,-406.402,0,0
196393,238.01,-403.059,0,0
196653,241.229,-399.953,0,0
196913,244.451,-396.912,0,0
197174,247.617,-393.935,0,0
197434,250.939,-390.945,0,0
197694,254.338,-387.991,0,0
197955,257.801,-385.267,0,0
198215,261.119,-382.489,0,0
198475,264.411,-379.659,0,0
198735,267.818,-376.645,0,0
198996,271.319,-373.629,0,0
199256,274.815,-370.593,0,0
199516,278.357,-367.345,0,0
199777,282.113,-363.807,0,0
200037,286.33,-360.163,0,0
200297,291.032,-356.721,0,0
200558,295.795,-353.466,0,0
200818,300.581,-350.352,0,0
201078,305.421,-347.114,0,0
201339,310.392,-343.739,0,0
201599,315.741,-339.996,0,0
201859,321.672,-336.334,0,0
202120,328.117,-332.692,0,0
202380.025,335.088,-329.196,0,0
202640.35,342.571,-326.039,0,0
202900.675,350.521,-323.281,0,0
203161.0,358.932,-320.956,0,0
203421.325,367.435,-319.146,0,0
203681.65,376.24,-317.465,0,0
203941.975,385.694,-316.217,0,0
204202.3,395.703,-315.704,0,0
204462.625,405.891,-316.09,0,0
204722.95,416.058,-317.132,0,0
204983.275,426.443,-319.003,0,0
205243.6,436.72,-321.831,0,0
205503.925,446.568,-325.439,0,0
205764.25,456.09,-329.627,0,0
206024.575,465.358,-334.442,0,0
206284.9,474.145,-339.82,0,0
206545.225,482.688,-345.992,0,0
206805.55,490.473,-352.725,0,0
207065.875,497.528,-359.906,0,0
207326.2,503.737,-367.173,0,0
207586.525,509.431,-374.417,0,0
207846.85,514.699,-381.742,0,0
208107.175,519.797,-389.411,0,0
208367.5,524.125,-397.178,0,0
208627.825,528.091,-405.19,0,0
208888.15,531.455,-413.224,0,0
209148.475,534.273,-421.505,0,0
209408.8,536.418,-429.933,0,0
209669.125,537.921,-438.526,0,0
209929.45,538.303,-447.145,0,0
210189.775,537.409,-455.623,0,0
210450.1,535.298,-463.091,0,0
210710.425,532.424,-469.304,0,0
210970.75,529.661,-474.117,0,0
211231.075,526.935,-478.274,0,0
211491.4,524.338,-481.801,0,0
211751.725,521.447,-484.427,0,0
212012.05,518.894,-485.909,0,0
212272.375,516.998,-486.233,0,0
212532.7,516.282,-486.021,0,0
212793.025,516.67,-485.624,0,0
213053.35,517.987,-485.335,0,0
213313.675,520.228,-485.28,0,0
213574.0,523.264,-486.011,0,0
213834.325,526.741,-487.53,0,0
214094.65,530.154,-490.002,0,0
214354.975,533.137,-493.124,0,0
214615.3,535.598,-496.732,0,0
214875.625,537.586,-499.969,0,0
215135.95,539.525,-503.206,0,0
215396.275,541.513,-506.252,0,0
215656.6,543.469,-509.459,0,0
215916.925,545.355,-512.781,0,0
216177.25,547.035,-515.947,0,0
216437.575,548.911,-519.055,0,0
216697.9,550.833,-522.25,0,0
216958.225,552.596,-525.507,0,0
217218.55,554.381,-528.652,0,0
217478.875,556.271,-531.827,0,0
217739.2,558.17,-535.097,0,0
217999.525,559.93,-538.407,0,0
218259.85,561.676,-541.48,0,0
218520,563.586,-544.205,0,0
218780,565.971,-546.898,0,0
219041,568.82,-549.773,0,0
219301,571.911,-552.918,0,0
219561,575.323,-556.378,0,0
219822,578.865,-560.092,0,0
220082,582.821,-564.201,0,0
220342,586.765,-568.875,0,0
220603,590.636,-574.293,0,0
220863,594.205,-579.898,0,0
221123,597.882,-585.798,0,0
221384,601.562,-592.223,0,0
221644,605.218,-599.074,0,0
221904,608.71,-606.651,0,0
222165,611.812,-615.067,0,0
222425,614.147,-623.867,0,0
222685,615.858,-633.017,0,0
222946,617.091,-642.1,0,0
223206,617.627,-651.462,0,0
223466,617.857,-660.907,0,0
223727,617.398,-670.459,0,0
223987,616.654,-680.051,0,0
224247,615.391,-689.561,0,0
224508,613.696,-699.257,0,0
224768,611.15,-709.109,0,0
225028,608.285,-718.572,0,0
225289,604.888,-727.861,0,0
225549,600.916,-737.045,0,0
225809,596.816,-745.726,0,0
226070,592.461,-754.547,0,0
226330,587.557,-763.251,0,0
226590,582.096,-771.936,0,0
226851,576.047,-780.203,0,0
227111,569.819,-788.159,0,0
227371,562.997,-795.687,0,0
227632,556.122,-803.034,0,0
227892,548.724,-810.072,0,0
228152,540.892,-816.706,0,0
228413,532.649,-822.93,0,0
228673,524.202,-828.565,0,0
228933,515.471,-833.501,0,0
229193,506.649,-837.999,0,0
229454,497.744,-841.975,0,0
229714,488.847,-845.388,0,0
229974,479.679,-848.203,0,0
230235,470.697,-850.501,0,0
230495,461.98,-852.298,0,0
230755,453.316,-853.704,0,0
231016,444.802,-854.485,0,0
231276,436.529,-854.988,0,0
231536,428.456,-855.06,0,0
231797,420.802,-854.667,0,0
232057,413.325,-854.05,0,0
232317,406.161,-853.132,0,0
232578,399.313,-851.776,0,0
232838,393.267,-850.437,0,0
233098,387.602,-849.106,0,0
233359,382.244,-847.769,0,0
233619,377.121,-846.616,0,0
233879,372.14,-845.504,0,0
234140,367.386,-844.516,0,0
234400,362.841,-843.616,0,0
234660.3,358.35,-843.08,0,0
234920.625,353.762,-842.809,0,0
235180.95,349.018,-842.408,0,0
235441.275,344.11,-841.898,0,0
235701.6,339.162,-841.246,0,0
235961.925,334.279,-840.364,0,0
236222.25,329.545,-839.474,0,0
236482.575,324.886,-838.565,0,0
236742.9,320.269,-837.665,0,0
237003.225,315.759,-836.837,0,0
237263.55,311.003,-835.96,0,0
237523.875,306.199,-835.049,0,0
237784.2,301.367,-833.941,0,0
238044.525,296.475,-832.628,0,0
238304.85,291.558,-831.121,0,0
238565.175,286.75,-829.353,0,0
238825.5,282.079,-827.378,0,0
239085.825,277.782,-825.181,0,0
239346.15,273.667,-823.018,0,0
239606.475,269.674,-820.892,0,0
239866.8,265.72,-818.791,0,0
240127.125,261.875,-816.515,0,0
240387.45,258.031,-814.169,0,0
240647.775,254.45,-811.769,0,0
240908.1,251.095,-809.488,0,0
241168.425,247.742,-807.243,0,0
241428.75,244.431,-804.98,0,0
241689.075,241.195,-802.664,0,0
241949.4,237.862,-800.38,0,0
242209.725,234.844,-797.9,0,0
242470.05,231.855,-795.465,0,0
242730.375,229.028,-793.015,0,0
242990.7,226.353,-790.487,0,0
243251.025,223.756,-788.067,0,0
243511.35,221.353,-785.688,0,0
243771.675,218.973,-783.404,0,0
244032.0,216.729,-781.215,0,0
244292.325,214.472,-779.134,0,0
244552.65,212.173,-777.152,0,0
244812.975,210.101,-775.127,0,0
245073.3,207.257,-773.368,0,0
245333.625,204.826,-771.383,0,0
245593.95,202.268,-769.295,0,0
245854.275,199.852,-767.158,0,0
246114.6,197.404,-764.96,0,0
246374.925,195.061,-762.787,0,0
246635.25,192.624,-760.539,0,0
246895.575,190.229,-758.113,0,0
247155.9,188.008,-755.749,0,0
247416.225,185.728,-753.297,0,0
247676.55,183.674,-750.672,0,0
247936.875,181.58,-748.2,0,0
248197.2,179.603,-745.79,0,0
248457.525,177.804,-743.227,0,0
248717.85,175.974,-740.616,0,0
248978.175,174.186,-738.099,0,0
249238.5,172.475,-735.565,0,0
249498.825,170.844,-732.993,0,0
249759.15,169.304,-730.379,0,0
250019.475,167.949,-727.849,0,0
250279.8,166.569,-725.433,0,0
250540,165.157,-723.027,0,0
250800,163.751,-720.549,0,0
251061,162.476,-718.123,0,0
251321,161.292,-715.662,0,0
251581,160.171,-713.279,0,0
251842,158.958,-711.03,0,0
252102,157.692,-708.723,0,0
252362,156.547,-706.356,0,0
252623,155.365,-704.061,0,0
252883,154.178,-701.668,0,0
253143,152.933,-699.236,0,0
253404,151.864,-696.711,0,0
253664,150.827,-694.108,0,0
253924,149.925,-691.495,0,0
254185,149.138,-688.917,0,0
254445,148.427,-686.348,0,0
254705,147.815,-683.887,0,0
254966,147.303,-681.357,0,0
255226,146.795,-678.997,0,0
255486,146.415,-676.581,0,0
255747,145.955,-674.362,0,0
256007,145.463,-672.077,0,0
256267,145.058,-669.784,0,0
256528,144.591,-667.502,0,0
256788,144.246,-665.186,0,0
257048,143.86,-662.995,0,0
257309,143.583,-660.614,0,0
257569,143.321,-658.406,0,0
257829,143.051,-656.061,0,0
258090,142.842,-653.694,0,0
258350,142.702,-651.319,0,0
258610,142.645,-648.911,0,0
258871,142.698,-646.534,0,0
259131,142.883,-644.094,0,0
259391,143.198,-641.639,0,0
259651,143.683,-639.329,0,0
259912,144.258,-637.067,0,0
260172,144.95,-634.906,0,0
260432,145.639,-632.909,0,0
260693,146.432,-630.967,0,0
260953,147.264,-629.096,0,0
261213,148.15,-627.337,0,0
261474,149.029,-625.711,0,0
261734,149.925,-624.184,0,0
261994,150.822,-622.697,0,0
262255,151.747,-621.294,0,0
262515,152.63,-619.978,0,0
262775,153.612,-618.661,0,0
263036,154.554,-617.392,0,0
263296,155.62,-616.258,0,0
263556,156.601,-615.132,0,0
263817,157.652,-614.104,0,0
264077,158.746,-613.149,0,0
264337,159.879,-612.267,0,0
264598,161.029,-611.436,0,0
264858,162.278,-610.744,0,0
265118,163.594,-610.167,0,0
265379,164.883,-609.816,0,0
265639,166.23,-609.542,0,0
265899,167.594,-609.549,0,0
266160,168.898,-609.654,0,0
266420,170.223,-610.017,0,0
266680.25,171.41,-610.606,0,0
266940.575,172.502,-611.425,0,0
267200.9,173.404,-612.528,0,0
267461.225,174.065,-613.839,0,0
267721.55,174.416,-615.298,0,0
267981.875,174.433,-616.831,0,0
268242.2,174.11,-618.454,0,0
268502.525,173.532,-620.008,0,0
268762.85,172.481,-621.504,0,0
269023.175,171.184,-622.903,0,0
269283.5,169.587,-624.054,0,0
269543.825,167.761,-625.065,0,0
269804.15,165.615,-625.676,0,0
270064.475,163.478,-626.039,0,0
270324.8,161.202,-626.076,0,0
270585.125,158.954,-625.903,0,0
270845.45,156.674,-625.389,0,0
271105.775,154.459,-624.632,0,0
271366.1,152.346,-623.652,0,0
271626.425,150.34,-622.361,0,0
271886.75,148.455,-620.924,0,0
272147.075,146.795,-619.376,0,0
272407.4,145.317,-617.688,0,0
272667.725,144.02,-615.927,0,0
272928.05,142.917,-614.097,0,0
273188.375,141.972,-612.314,0,0
273448.7,141.113,-610.563,0,0
273709.025,140.41,-608.807,0,0
273969.35,139.739,-607.027,0,0
274229.675,139.209,-605.257,0,0
274490.0,138.78,-603.557,0,0
274750.325,138.492,-601.826,0,0
275010.65,138.237,-600.139,0,0
275270.975,138.152,-598.5,0,0
275531.3,138.051,-596.961,0,0
275791.625,138.037,-595.405,0,0
276051.95,138.132,-593.932,0,0
276312.275,138.276,-592.508,0,0
276572.6,138.492,-591.17,0,0
276832.925,138.772,-589.913,0,0
277093.25,139.097,-588.742,0,0
277353.575,139.425,-587.722,0,0
277613.9,139.745,-586.724,0,0
277874.225,140.052,-585.863,0,0
278134.55,140.348,-585.085,0,0
278394.875,140.583,-584.388,0,0
278655.2,140.769,-583.746,0,0
278915.525,140.852,-583.19,0,0
279175.85,140.815,-582.607,0,0
279436.175,140.735,-581.975,0,0
279696.5,140.655,-581.273,0,0
279956.825,140.573,-580.579,0,0
280217.15,140.536,-579.826,0,0
280477.475,140.403,-579.075,0,0
280737.8,140.465,-578.317,0,0
280998.125,140.563,-577.556,0,0
281258.45,140.661,-576.989,0,0
281518.775,140.786,-576.485,0,0
281779.1,140.84,-576.047,0,0
282039.425,140.745,-575.75,0,0
282299.75,140.508,-575.457,0,0
282560,140.09,-575.011,0,0
282820,139.649,-574.488,0,0
283081,139.279,-573.803,0,0
283341,138.991,-573.045,0,0
283601,138.754,-572.312,0,0
283862,138.535,-571.774,0,0
284122,138.262,-571.139,0,0
284382,137.989,-570.454,0,0
284643,137.791,-569.909,0,0
284903,137.375,-569.344,0,0
285163,137.014,-568.759,0,0
285424,136.589,-568.233,0,0
285684,136.114,-567.603,0,0
285944,135.486,-566.956,0,0
286205,134.891,-566.216,0,0
286465,134.296,-565.381,0,0
286725,133.513,-564.517,0,0
286986,132.898,-563.475,0,0
287246,132.33,-562.362,0,0
287506,131.693,-561.108,0,0
287767,131.177,-559.792,0,0
288027,130.713,-558.295,0,0
288287,130.399,-556.76,0,0
288548,130.214,-555.132,0,0
288808,130.295,-553.426,0,0
289068,130.638,-551.763,0,0
289329,131.147,-550.236,0,0
289589,131.86,-548.936,0,0
289849,132.589,-547.772,0,0
290109,133.368,-546.899,0,0
290370,134.086,-546.232,0,0
290630,134.665,-545.711,0,0
290890,135.115,-545.246,0,0
291151,135.397,-544.781,0,0
291411,135.588,-544.332,0,0
291671,135.669,-543.864,0,0
291932,135.692,-543.34,0,0
292192,135.611,-542.822,0,0
292452,135.603,-542.191,0,0
292713,135.549,-541.674,0,0
292973,135.371,-541.025,0,0
293233,135.293,-540.161,0,0
293494,135.026,-539.331,0,0
293754,134.934,-538.4,0,0
294014,134.858,-537.499,0,0
294275,134.8,-536.389,0,0
294535,134.802,-535.329,0,0
294795,134.9,-534.268,0,0
295056,134.966,-533.115,0,0
295316,135.051,-531.893,0,0
295576,135.253,-530.661,0,0
295837,135.707,-529.407,0,0
296097,136.061,-528.209,0,0
296357,136.529,-526.939,0,0
296618,137.105,-525.678,0,0
296878,137.822,-524.501,0,0
297138,138.614,-523.363,0,0
297399,139.447,-522.153,0,0
297659,140.302,-521.163,0,0
297919,141.337,-520.141,0,0
298180,142.388,-519.255,0,0
298440,143.503,-518.456,0,0
298700.2,144.494,-517.682,0,0
298960.525,145.695,-516.987,0,0
299220.85,146.908,-516.376,0,0
299481.175,148.098,-515.898,0,0
299741.5,149.302,-515.445,0,0
300001.825,150.534,-515.187,0,0
300262.15,151.687,-514.839,0,0
300522.475,152.74,-514.722,0,0
300782.8,153.85,-514.483,0,0
301043.125,154.988,-514.292,0,0
301303.45,156.137,-514.106,0,0
301563.775,157.365,-514.016,0,0
301824.1,158.643,-514.008,0,0
302084.425,159.914,-514.056,0,0
302344.75,161.23,-514.321,0,0
302605.075,162.485,-514.683,0,0
302865.4,163.637,-515.279,0,0
303125.725,164.679,-515.808,0,0
303386.05,165.557,-516.35,0,0
303646.375,166.485,-516.87,0,0
303906.7,167.145,-517.348,0,0
304167.025,168.058,-517.929,0,0
304427.35,168.979,-518.394,0,0
304687.675,169.805,-519.104,0,0
304948.0,170.614,-519.77,0,0
305208.325,171.518,-520.475,0,0
305468.65,172.177,-521.275,0,0
305728.975,173.028,-521.991,0,0
305989.3,173.85,-522.799,0,0
306249.625,174.718,-523.745,0,0
306509.95,175.481,-524.843,0,0
306770.275,176.265,-526.119,0,0
307030.6,176.832,-527.435,0,0
307290.925,177.347,-528.957,0,0
307551.25,177.605,-530.424,0,0
307811.575,177.81,-531.851,0,0
308071.9,177.727,-533.318,0,0
308332.225,177.722,-534.665,0,0
308592.55,177.532,-536.121,0,0
308852.875,177.292,-537.474,0,0
309113.2,176.987,-538.867,0,0
309373.525,176.563,-540.064,0,0
309633.85,176.105,-541.235,0,0
309894.175,175.608,-542.435,0,0
310154.5,175.257,-543.585,0,0
310414.825,174.718,-544.77,0,0
310675.15,174.181,-546.004,0,0
310935.475,173.588,-547.279,0,0
311195.8,172.876,-548.515,0,0
311456.125,172.086,-549.754,0,0
311716.45,171.201,-551.005,0,0
311976.775,170.304,-552.221,0,0
312237.1,169.127,-553.431,0,0
312497.425,167.844,-554.48,0,0
312757.75,166.596,-555.412,0,0
313018.075,165.268,-556.251,0,0
313278.4,163.919,-556.948,0,0
313538.725,162.58,-557.582,0,0
313799.05,161.436,-558.13,0,0
314059.375,160.052,-558.562,0,0
314319.7,158.927,-559.054,0,0
314580,157.838,-559.486,0,0
314840,156.684,-559.997,0,0
315101,155.571,-560.45,0,0
315361,154.409,-561.187,0,0
315621,153.147,-561.754,0,0
315882,151.768,-562.308,0,0
316142,150.444,-562.822,0,0
316402,148.86,-563.303,0,0
316663,147.367,-563.765,0,0
316923,145.713,-564.103,0,0
317183,144.112,-564.353,0,0
317444,142.471,-564.592,0,0
317704,140.735,-564.695,0,0
317964,139.15,-564.777,0,0
318225,137.468,-564.724,0,0
318485,135.772,-564.636,0,0
318745,133.986,-564.495,0,0
319006,132.296,-564.248,0,0
319266,130.618,-563.899,0,0
319526,128.993,-563.554,0,0
319787,127.28,-563.093,0,0
320047,125.648,-562.63,0,0
320307,124.017,-562.025,0,0
320567,122.475,-561.447,0,0
320828,120.866,-560.809,0,0
321088,119.348,-560.021,0,0
321348,117.744,-559.14,0,0
321609,116.292,-558.239,0,0
321869,114.77,-557.299,0,0
322129,113.476,-556.27,0,0
322390,112.126,-555.033,0,0
322650,110.919,-553.91,0,0
322910,109.826,-552.67,0,0
323171,108.853,-551.405,0,0
323431,107.942,-550.035,0,0
323691,107.16,-548.86,0,0
323952,106.464,-547.553,0,0
324212,105.814,-546.458,0,0
324472,105.299,-545.253,0,0
324733,104.821,-544.1,0,0
324993,104.311,-543.094,0,0
325253,103.948,-542.005,0,0
325514,103.585,-541.073,0,0
325774,103.289,-540.072,0,0
326034,103.052,-539.165,0,0
326295,102.784,-538.253,0,0
326555,102.617,-537.487,0,0
326815,102.435,-536.818,0,0
327076,102.236,-536.156,0,0
327336,102.086,-535.581,0,0
327596,101.832,-535.056,0,0
327857,101.552,-534.566,0,0
328117,101.305,-534.047,0,0
328377,101.038,-533.659,0,0
328638,100.733,-533.245,0,0
328898,100.353,-532.831,0,0
329158,100.022,-532.467,0,0
329419,99.6554,-532.142,0,0
329679,99.1627,-531.84,0,0
329939,98.7577,-531.476,0,0
330200,98.2433,-531.171,0,0
330460,97.7438,-530.88,0,0
330720.15,97.2469,-530.514,0,0
330980.475,96.6621,-530.185,0,0
331240.8,96.0719,-529.833,0,0
331501.125,95.4764,-529.43,0,0
331761.45,94.8435,-529.164,0,0
332021.775,94.343,-528.765,0,0
332282.1,93.6216,-528.364,0,0
332542.425,92.9378,-527.992,0,0
332802.75,92.3071,-527.676,0,0
333063.075,91.5918,-527.289,0,0
333323.4,90.842,-526.901,0,0
333583.725,90.0558,-526.52,0,0
333844.05,89.2506,-526.096,0,0
334104.375,88.4276,-525.583,0,0
334364.7,87.6138,-525.038,0,0
334625.025,86.7759,-524.45,0,0
334885.35,85.9261,-523.809,0,0
335145.675,85.0942,-523.164,0,0
335406.0,84.3154,-522.497,0,0
335666.325,83.5606,-521.854,0,0
335926.65,82.7974,-521.091,0,0
336186.975,82.0808,-520.322,0,0
336447.3,81.4086,-519.663,0,0
336707.625,80.6973,-518.75,0,0
336967.95,79.9881,-518.044,0,0
337228.275,79.3134,-517.189,0,0
337488.6,78.7018,-516.421,0,0
337748.925,78.052,-515.655,0,0
338009.25,77.4641,-514.857,0,0
338269.575,76.8655,-513.982,0,0
338529.9,76.2437,-513.098,0,0
338790.225,75.7809,-512.289,0,0
339050.55,75.2285,-511.399,0,0
339310.875,74.7477,-510.631,0,0
339571.2,74.3027,-509.783,0,0
339831.525,73.7596,-508.998,0,0
340091.85,73.2588,-508.152,0,0
340352.175,72.7992,-507.343,0,0
340612.5,72.4029,-506.62,0,0
340872.825,71.9232,-505.815,0,0
341133.15,71.4949,-505.034,0,0
341393.475,71.0465,-504.246,0,0
341653.8,70.6057,-503.492,0,0
341914.125,70.1572,-502.686,0,0
342174.45,69.6753,-501.916,0,0
342434.775,69.1839,-501.203,0,0
342695.1,68.726,-500.404,0,0
342955.425,68.3204,-499.539,0,0
343215.75,67.8689,-498.788,0,0
343476.075,67.3687,-497.901,0,0
343736.4,67.0229,-497.194,0,0
343996.725,66.5592,-496.329,0,0
344257.05,66.1144,-495.514,0,0
344517.375,65.7105,-494.748,0,0
344777.7,65.3188,-493.9,0,0
345038.025,64.8561,-493.008,0,0
345298.35,64.5111,-492.267,0,0
345558.675,64.0522,-491.405,0,0
345819.0,63.6404,-490.584,0,0
346079.325,63.2139,-489.74,0,0
346339.65,62.7545,-488.819,0,0
346599.975,62.4253,-488.012,0,0
346860,61.9869,-487.058,0,0
347121,61.6358,-486.094,0,0
347381,61.234,-485.151,0,0
347641,60.8884,-484.215,0,0
347902,60.6426,-483.22,0,0
348162,60.3321,-482.31,0,0
348422,60.1429,-481.361,0,0
348683,59.9086,-480.417,0,0
348943,59.7334,-479.466,0,0
349203,59.4829,-478.595,0,0
349464,59.327,-477.749,0,0
349724,59.1296,-476.865,0,0
349984,58.926,-475.956,0,0
350245,58.7265,-475.093,0,0
350505,58.5401,-474.244,0,0
350765,58.3295,-473.306,0,0
351025,58.2033,-472.416,0,0
351286,58.0645,-471.558,0,0
351546,57.937,-470.618,0,0
351806,57.8669,-469.726,0,0
352067,57.6999,-468.88,0,0
352327,57.6969,-467.993,0,0
352587,57.5654,-467.223,0,0
352848,57.4553,-466.401,0,0
353108,57.3959,-465.617,0,0
353368,57.3012,-464.785,0,0
353629,57.2181,-463.974,0,0
353889,57.1393,-463.123,0,0
354149,57.0451,-462.301,0,0
354410,56.9574,-461.526,0,0
354670,56.9007,-460.75,0,0
354930,56.8337,-459.96,0,0
355191,56.7421,-459.116,0,0
355451,56.7953,-458.38,0,0
355711,56.6686,-457.588,0,0
355972,56.625,-456.765,0,0
356232,56.5971,-456.009,0,0
356492,56.5483,-455.258,0,0
356753,56.4946,-454.492,0,0
357013,56.4515,-453.712,0,0
357273,56.4173,-452.936,0,0
357534,56.3773,-452.16,0,0
357794,56.3019,-451.373,0,0
358054,56.2925,-450.645,0,0
358315,56.2251,-449.828,0,0
358575,56.1452,-449.076,0,0
358835,56.1559,-448.276,0,0
359096,56.1631,-447.447,0,0
359356,56.1808,-446.693,0,0
359616,56.1826,-445.859,0,0
359877,56.2945,-445.089,0,0
360137,56.2607,-444.344,0,0
360397,56.3585,-443.611,0,0
360658,56.4095,-442.888,0,0
360918,56.4385,-442.095,0,0
361178,56.4439,-441.442,0,0
361438,56.5485,-440.717,0,0
361699,56.5656,-439.957,0,0
361959,56.5494,-439.215,0,0
362219,56.6773,-438.521,0,0
362480,56.6518,-437.79,0,0
362740.1,56.7089,-436.986,0,0
363000.425,56.7605,-436.32,0,0
363260.75,56.7832,-435.574,0,0
363521.075,56.8625,-434.788,0,0
363781.4,56.8906,-434.033,0,0
364041.725,57.0378,-433.3,0,0
364302.05,57.0648,-432.485,0,0
364562.375,57.2325,-431.752,0,0
364822.7,57.3242,-431.042,0,0
365083.025,57.4894,-430.308,0,0
365343.35,57.6173,-429.605,0,0
365603.675,57.7939,-428.902,0,0
365864.0,57.9239,-428.204,0,0
366124.325,58.0527,-427.609,0,0
366384.65,58.1803,-426.944,0,0
366644.975,58.2312,-426.337,0,0
366905.3,58.2608,-425.678,0,0
367165.625,58.2915,-424.983,0,0
367425.95,58.371,-424.218,0,0
367686.275,58.3504,-423.411,0,0
367946.6,58.4513,-422.639,0,0
368206.925,58.5361,-421.8,0,0
368467.25,58.6419,-420.909,0,0
368727.575,58.8061,-420.068,0,0
368987.9,58.9937,-419.16,0,0
369248.225,59.2636,-418.289,0,0
369508.55,59.5289,-417.39,0,0
369768.875,59.8834,-416.531,0,0
370029.2,60.246,-415.699,0,0
370289.525,60.6142,-414.832,0,0
370549.85,61.0536,-414.009,0,0
370810.175,61.4886,-413.188,0,0
371070.5,61.9604,-412.363,0,0
371330.825,62.527,-411.594,0,0
371591.15,63.1334,-410.839,0,0
371851.475,63.7669,-410.119,0,0
372111.8,64.3521,-409.526,0,0
372372.125,65.0376,-408.901,0,0
372632.45,65.7196,-408.37,0,0
372892.775,66.3697,-407.904,0,0
373153.1,67.02,-407.469,0,0
373413.425,67.6589,-407.071,0,0
373673.75,68.2929,-406.694,0,0
373934.075,68.9231,-406.35,0,0
374194.4,69.5591,-406.078,0,0
374454.725,70.1469,-405.765,0,0
374715.05,70.7439,-405.483,0,0
374975.375,71.2808,-405.332,0,0
375235.7,71.8255,-405.092,0,0
375496.025,72.3738,-404.907,0,0
375756.35,72.8586,-404.771,0,0
376016.675,73.3545,-404.659,0,0
376277.0,73.8164,-404.522,0,0
376537.325,74.2601,-404.392,0,0
376797.65,74.7408,-404.328,0,0
377057.975,75.1301,-404.186,0,0
377318.3,75.606,-404.133,0,0
377578.625,75.9821,-404.043,0,0
377838.95,76.4235,-403.976,0,0
378099.275,76.79,-403.955,0,0
378359.6,77.1463,-403.975,0,0
378619.925,77.467,-403.987,0,0
378880,77.778,-403.93,0,0
379141,78.083,-403.945,0,0
379401,78.3087,-403.925,0,0
379661,78.5685,-403.844,0,0
379922,78.8233,-403.779,0,0
380182,79.0835,-403.673,0,0
380442,79.4349,-403.519,0,0
380703,79.8064,-403.458,0,0
380963,80.2736,-403.448,0,0
381223,80.735,-403.498,0,0
381483,81.1433,-403.587,0,0
381744,81.5897,-403.79,0,0
382004,82.0171,-404.08,0,0
382264,82.267,-404.384,0,0
382525,82.6079,-404.679,0,0
382785,82.8151,-405.028,0,0
383045,82.9995,-405.428,0,0
383306,83.129,-405.871,0,0
383566,83.2599,-406.342,0,0
383826,83.2419,-406.836,0,0
384087,83.1481,-407.304,0,0
384347,82.982,-407.752,0,0
384607,82.784,-408.19,0,0
384868,82.5195,-408.65,0,0
385128,82.1544,-408.963,0,0
385388,81.7848,-409.333,0,0
385649,81.3111,-409.613,0,0
385909,80.8835,-409.889,0,0
386169,80.3418,-410.053,0,0
386430,79.8534,-410.282,0,0
386690,79.3579,-410.367,0,0
386950,78.7711,-410.437,0,0
387211,78.1666,-410.42,0,0
387471,77.6135,-410.421,0,0
387731,77.0074,-410.388,0,0
387992,76.4379,-410.234,0,0
388252,75.8181,-410.038,0,0
388512,75.2933,-409.85,0,0
388773,74.7627,-409.561,0,0
389033,74.2336,-409.216,0,0
389293,73.7766,-408.895,0,0
389554,73.3612,-408.535,0,0
389814,72.9887,-408.202,0,0
390074,72.5934,-407.852,0,0
390335,72.287,-407.489,0,0
390595,72.0046,-407.207,0,0
390855,71.7021,-406.901,0,0
391116,71.4044,-406.654,0,0
391376,71.1085,-406.4,0,0
391636,70.8564,-406.2,0,0
391896,70.4337,-405.978,0,0
392157,70.1106,-405.781,0,0
392417,69.7057,-405.545,0,0
392677,69.2895,-405.334,0,0
392938,68.8573,-405.12,0,0
393198,68.3231,-404.774,0,0
393458,67.8426,-404.486,0,0
393719,67.3874,-404.178,0,0
393979,66.854,-403.863,0,0
394239,66.4156,-403.444,0,0
394500,65.8499,-403.019,0,0
394760.05,65.3789,-402.56,0,0
395020.375,64.8624,-402.101,0,0
395280.7,64.3662,-401.637,0,0
395541.025,63.886,-401.043,0,0
395801.35,63.4195,-400.518,0,0
396061.675,62.918,-399.962,0,0
396322.0,62.4615,-399.315,0,0
396582.325,62.0218,-398.661,0,0
396842.65,61.6219,-397.968,0,0
397102.975,61.2731,-397.305,0,0
397363.3,60.9111,-396.594,0,0
397623.625,60.6087,-395.842,0,0
397883.95,60.3059,-395.138,0,0
398144.275,60.087,-394.369,0,0
398404.6,59.8247,-393.673,0,0
398664.925,59.664,-392.97,0,0
398925.25,59.5076,-392.202,0,0
399185.575,59.3321,-391.477,0,0
399445.9,59.2165,-390.773,0,0
399706.225,59.08,-390.078,0,0
399966.55,59.0049,-389.4,0,0
400006.6,59.0286,-389.281,0,0