File: Accelerated corrosion test data/2025-10-20_13-55-17/sample_7.csv
Frequency (Hz),Impedance (ohms),Phase (Radians),Temperature (C),Humidity (%)
10000.0,274.533,-12102.7,0,0
10260.325,275.674,-11812.6,0,0
10520.65,258.425,-11511.5,0,0
10780.975,252.727,-11230.3,0,0
11041.3,250.104,-10962,0,0
11301.625,246.955,-10705.7,0,0
11561.95,249.058,-10457.2,0,0
11822.275,258.706,-10227.2,0,0
12082.6,264.638,-10005.5,0,0
12342.925,326.929,-9825.15,0,0
12603.25,262.37,-9661.85,0,0
12863.575,271.081,-9456.61,0,0
13123.9,238.942,-9284.81,0,0
13384.225,232.677,-9109.08,0,0
13644.55,221.382,-8922.91,0,0
13904.875,208.076,-8762.58,0,0
14165.2,203.84,-8589.58,0,0
14425.525,207.656,-8453.03,0,0
14685.8,203.86,-8296.88,0,0
14946.175,198.407,-8150.16,0,0
15206.5,197.649,-8020.31,0,0
15466.825,184.055,-7878.94,0,0
15727.15,185.985,-7750.44,0,0
15987.5,180.308,-7622.19,0,0
16247.8,178.774,-7501.29,0,0
16508.125,171.517,-7380.29,0,0
16768.45,170.363,-7261.48,0,0
17028.775,169.636,-7150.81,0,0
17289.1,167.216,-7043.64,0,0
17549.425,166.381,-6934.06,0,0
17809.75,166.359,-6824.98,0,0
18070.075,168.357,-6727.37,0,0
18330.4,175.096,-6620.71,0,0
18590.725,194.48,-6530.29,0,0
18851.05,194.144,-6469.69,0,0
19111.375,183.617,-6386.93,0,0
19371.7,211.945,-6301.7,0,0
19632.025,173.968,-6244.4,0,0
19892.35,157.575,-6144.88,0,0
20152.675,169.479,-6059.93,0,0
20413.0,171.854,-5983.1,0,0
20673.3,171.666,-5906.75,0,0
20933.65,182.563,-5847.33,0,0
21193.975,162.521,-5790.63,0,0
21454.3,153.745,-5714.04,0,0
21714.625,157.633,-5647.95,0,0
21974.9,145.975,-5585.23,0,0
22235.275,139.541,-5515.22,0,0
22495.6,138.145,-5449.52,0,0
22755.925,133.136,-5386.95,0,0
23016.25,129.913,-5323.51,0,0
23276.6,127.479,-5260.74,0,0
23536.9,127.831,-5199.93,0,0
23797.225,127.836,-5143.72,0,0
24057.55,124.182,-5087.48,0,0
24317.875,122.046,-5030.24,0,0
24578.2,122.974,-4974.32,0,0
24838.525,121.79,-4921.69,0,0
25098.85,120.08,-4869.81,0,0
25359.175,118.945,-4817.53,0,0
25619.5,117.35,-4765.94,0,0
25879.8,118.908,-4715.21,0,0
26140.1,118.085,-4664.32,0,0
26400.5,122.805,-4615.53,0,0
26660.8,120.33,-4570.55,0,0
26921.1,120.304,-4520.8,0,0
27181.4,125.322,-4470.86,0,0
27441.8,129.584,-4426,0,0
27702.1,137.985,-4375.96,0,0
27962.4,150.996,-4330.07,0,0
28222.7,177.115,-4293.76,0,0
28483.1,194.075,-4280.11,0,0
28743.4,195.739,-4270.54,0,0
29003.7,177.351,-4257.63,0,0
29264,154.083,-4225.11,0,0
29524.4,141.721,-4184.91,0,0
29784.7,133.139,-4144.19,0,0
30045,127.26,-4101.83,0,0
30305.3,127.696,-4062.69,0,0
30565.7,129.835,-4026.63,0,0
30826,130.684,-3993.39,0,0
31086.3,131.649,-3963.21,0,0
31346.6,128.97,-3933.45,0,0
31607,130.454,-3906.34,0,0
31867.3,120.48,-3878.12,0,0
32127.6,117.902,-3844.79,0,0
32387.9,114.964,-3814.73,0,0
32648.3,111.286,-3785.67,0,0
32908.6,107.453,-3754.86,0,0
33168.9,104.377,-3725.27,0,0
33429.2,101.363,-3695.07,0,0
33689.6,98.5663,-3665.11,0,0
33949.9,96.8611,-3635.74,0,0
34210.2,94.8196,-3606.63,0,0
34470.5,93.2423,-3578.01,0,0
34730.9,91.8557,-3549.64,0,0
34991.2,90.9155,-3522.11,0,0
35251.5,90.1082,-3495.16,0,0
35511.8,88.7443,-3468.16,0,0
35772.2,87.9883,-3441.26,0,0
36032.5,87.9953,-3415.59,0,0
36292.8,87.7951,-3390.64,0,0
36553.1,86.7797,-3365.47,0,0
36813.5,85.9483,-3340.48,0,0
37073.8,85.783,-3315.87,0,0
37334.1,85.8121,-3291.73,0,0
37594.4,85.4545,-3268.25,0,0
37854.8,84.6834,-3244.62,0,0
38115.1,84.5409,-3220.52,0,0
38375.4,85.289,-3197.19,0,0
38635.7,86.1683,-3174.08,0,0
38896.1,87.8465,-3151.28,0,0
39156.4,90.2232,-3129.79,0,0
39416.7,93.0576,-3107.98,0,0
39677,97.4812,-3089.45,0,0
39937.4,100.383,-3074.49,0,0
40197.7,99.7429,-3059.19,0,0
40458,97.4603,-3044.26,0,0
40718.3,93.39,-3026.56,0,0
40978.7,89.7495,-3008.09,0,0
41239,87.0865,-2988.61,0,0
41499.3,84.7309,-2969.17,0,0
41759.6,83.6118,-2949.76,0,0
42020,81.9902,-2931.07,0,0
42280.275,80.2239,-2911.81,0,0
42540.6,79.4707,-2892.37,0,0
42800.925,79.8095,-2873.4,0,0
43061.25,79.6284,-2855.52,0,0
43321.575,80.5845,-2838.5,0,0
43581.9,78.8057,-2821.35,0,0
43842.225,78.3574,-2802.78,0,0
44102.55,79.3682,-2785.07,0,0
44362.875,81.1441,-2768.6,0,0
44623.2,82.4563,-2753.66,0,0
44883.525,82.2691,-2740.87,0,0
45143.85,80.2983,-2725.71,0,0
45404.175,78.4586,-2709.66,0,0
45664.5,78.598,-2692.62,0,0
45924.825,80.3616,-2679.08,0,0
46185.15,79.429,-2666.04,0,0
46445.475,77.1239,-2652.55,0,0
46705.8,74.4605,-2637.91,0,0
46966.125,72.161,-2622.28,0,0
47226.45,70.9068,-2606.14,0,0
47486.775,70.7531,-2590.91,0,0
47747.1,70.1321,-2576.32,0,0
48007.425,69.7939,-2561.83,0,0
48267.75,69.3348,-2547.65,0,0
48528.075,68.9001,-2533.68,0,0
48788.4,68.0785,-2519.64,0,0
49048.725,67.3974,-2505.67,0,0
49309.05,67.1253,-2491.9,0,0
49569.375,66.8685,-2478.41,0,0
49829.7,66.245,-2464.97,0,0
50090.025,65.8956,-2451.45,0,0
50350.35,65.5748,-2438.42,0,0
50610.675,65.376,-2425.58,0,0
50871.0,65.0372,-2412.68,0,0
51131.325,64.6886,-2400.03,0,0
51391.65,64.304,-2387.27,0,0
51651.975,64.2102,-2374.85,0,0
51912.3,63.8672,-2362.46,0,0
52172.625,63.7072,-2350.01,0,0
52432.95,63.5572,-2337.9,0,0
52693.275,63.4442,-2326.07,0,0
52953.6,63.3761,-2314.25,0,0
53213.925,63.2864,-2302.77,0,0
53474.25,63.1904,-2291.54,0,0
53734.575,62.7541,-2280.18,0,0
53994.9,62.3377,-2269.06,0,0
54255.225,62.0172,-2257.65,0,0
54515.55,61.5825,-2246.63,0,0
54775.875,61.2627,-2235.57,0,0
55036.2,61.0437,-2224.61,0,0
55296.525,60.6541,-2213.67,0,0
55556.85,60.4854,-2202.95,0,0
55817.175,60.31,-2192.13,0,0
56077.5,59.9529,-2181.38,0,0
56337.825,59.9082,-2170.8,0,0
56598.15,59.8196,-2160.49,0,0
56858.475,59.6437,-2150.34,0,0
57118.8,59.6081,-2140.07,0,0
57379.125,59.4158,-2130.07,0,0
57639.45,59.2223,-2120.2,0,0
57899.775,58.8933,-2110.22,0,0
58160.1,58.8103,-2100,0,0
58420.4,59.08,-2090.01,0,0
58680.7,59.4021,-2080.65,0,0
58941.1,59.1901,-2071.5,0,0
59201.4,58.9975,-2062.07,0,0
59461.7,58.9238,-2052.52,0,0
59722,59.1806,-2043.55,0,0
59982.4,58.9883,-2034.64,0,0
60242.7,59.0459,-2025.56,0,0
60503,58.96,-2017.17,0,0
60763.3,58.501,-2008.49,0,0
61023.7,58.0128,-1999.78,0,0
61284,57.6329,-1990.99,0,0
61544.3,57.3818,-1982.29,0,0
61804.6,56.8203,-1973.71,0,0
62065,56.3322,-1965.1,0,0
62325.3,55.9838,-1956.42,0,0
62585.6,55.7989,-1947.82,0,0
62845.9,55.5461,-1939.22,0,0
63106.3,55.3075,-1930.64,0,0
63366.6,55.17,-1922.32,0,0
63626.9,55.2867,-1913.99,0,0
63887.2,54.9696,-1906,0,0
64147.6,54.7466,-1897.86,0,0
64407.9,54.5819,-1889.65,0,0
64668.2,54.4498,-1881.58,0,0
64928.5,54.4422,-1873.61,0,0
65188.9,54.4934,-1865.65,0,0
65449.2,54.6816,-1857.92,0,0
65709.5,54.8006,-1850.44,0,0
65969.8,54.5974,-1843.07,0,0
66230.2,54.4189,-1835.73,0,0
66490.5,54.0874,-1828.45,0,0
66750.8,53.6942,-1821.13,0,0
67011.1,53.3365,-1813.82,0,0
67271.5,52.7732,-1806.31,0,0
67531.8,52.4866,-1798.83,0,0
67792.1,52.4354,-1791.32,0,0
68052.4,52.048,-1784.13,0,0
68312.8,51.6988,-1776.8,0,0
68573.1,51.6936,-1769.54,0,0
68833.4,51.4659,-1762.49,0,0
69093.7,51.3041,-1755.32,0,0
69354.1,51.1815,-1748.19,0,0
69614.4,51.1935,-1741.25,0,0
69874.7,50.9597,-1734.42,0,0
70135,50.8847,-1727.39,0,0
70395.4,50.7679,-1720.64,0,0
70655.7,50.7257,-1713.73,0,0
70916,50.7864,-1707.03,0,0
71176.3,50.7474,-1700.58,0,0
71436.7,50.6238,-1694.01,0,0
71697,50.4236,-1687.61,0,0
71957.3,50.2066,-1681.12,0,0
72217.6,50.0113,-1674.72,0,0
72478,49.7429,-1668.24,0,0
72738.3,49.6194,-1661.88,0,0
72998.6,49.3122,-1655.45,0,0
73258.9,49.2655,-1649.05,0,0
73519.3,49.1075,-1642.77,0,0
73779.6,48.9221,-1636.45,0,0
74039.9,48.715,-1630.26,0,0
74300.225,48.6724,-1624.01,0,0
74560.55,48.5532,-1617.87,0,0
74820.875,48.4499,-1611.82,0,0
75081.2,48.3635,-1605.71,0,0
75341.525,48.2651,-1599.68,0,0
75601.85,48.1829,-1593.77,0,0
75862.175,48.0496,-1587.79,0,0
76122.5,47.9391,-1581.86,0,0
76382.825,47.8583,-1575.92,0,0
76643.15,47.735,-1570.01,0,0
76903.475,47.658,-1564.19,0,0
77163.8,47.6333,-1558.43,0,0
77424.125,47.5975,-1552.67,0,0
77684.45,47.5252,-1547.01,0,0
77944.775,47.5324,-1541.31,0,0
78205.1,47.4088,-1535.8,0,0
78465.425,47.337,-1530.17,0,0
78725.75,47.2355,-1524.56,0,0
78986.075,47.2465,-1519.02,0,0
79246.4,47.1932,-1513.58,0,0
79506.725,47.1777,-1508.06,0,0
79767.05,47.1815,-1502.69,0,0
80027.375,47.1958,-1497.31,0,0
80287.7,47.1153,-1492.02,0,0
80548.025,47.0561,-1486.75,0,0
80808.35,46.9581,-1481.49,0,0
81068.675,46.9049,-1476.28,0,0
81329.0,46.7421,-1471.03,0,0
81589.325,46.6769,-1465.83,0,0
81849.65,46.6317,-1460.66,0,0
82109.975,46.5074,-1455.47,0,0
82370.3,46.4547,-1450.33,0,0
82630.625,46.4479,-1445.13,0,0
82890.95,46.4259,-1440.08,0,0
83151.275,46.3852,-1435.08,0,0
83411.6,46.3796,-1429.99,0,0
83671.925,46.3073,-1424.91,0,0
83932.25,46.3678,-1419.89,0,0
84192.575,46.4191,-1414.98,0,0
84452.9,46.5013,-1410.05,0,0
84713.225,46.6,-1405.18,0,0
84973.55,46.6011,-1400.42,0,0
85233.875,46.5935,-1395.63,0,0
85494.2,46.6596,-1390.9,0,0
85754.525,46.5766,-1386.21,0,0
86014.85,46.5704,-1381.53,0,0
86275.175,46.6417,-1376.71,0,0
86535.5,46.757,-1372.18,0,0
86795.825,46.6932,-1367.63,0,0
87056.15,46.4757,-1362.92,0,0
87316.475,46.6461,-1358.3,0,0
87576.8,46.7305,-1353.83,0,0
87837.125,46.8115,-1349.33,0,0
88097.45,46.7541,-1344.94,0,0
88357.775,46.6935,-1340.53,0,0
88618.1,46.5356,-1336.1,0,0
88878.425,46.4328,-1331.62,0,0
89138.75,46.2174,-1327.2,0,0
89399.075,46.1683,-1322.69,0,0
89659.4,46.0434,-1318.15,0,0
89919.725,46.1349,-1313.62,0,0
90180,46.0485,-1309.22,0,0
90440.4,46.0727,-1304.66,0,0
90700.7,46.0761,-1300.43,0,0
90961,46.2447,-1296.07,0,0
91221.3,46.1935,-1291.62,0,0
91481.7,46.2589,-1287.3,0,0
91742,46.3054,-1282.96,0,0
92002.3,46.3734,-1278.64,0,0
92262.6,46.4872,-1274.34,0,0
92523,46.5295,-1270.04,0,0
92783.3,46.5409,-1265.68,0,0
93043.6,46.6122,-1261.33,0,0
93303.9,46.7999,-1256.73,0,0
93564.3,47.3292,-1252.24,0,0
93824.6,48.1449,-1247.85,0,0
94084.9,49.0237,-1243.79,0,0
94345.2,50.0067,-1240.28,0,0
94605.6,50.7432,-1237.07,0,0
94865.9,50.8976,-1234.2,0,0
95126.2,50.5473,-1230.99,0,0
95386.5,50.265,-1227.6,0,0
95646.9,49.7839,-1224.09,0,0
95907.2,49.1791,-1220.26,0,0
96167.5,48.8174,-1216.24,0,0
96427.8,48.5967,-1212.17,0,0
96688.2,48.4489,-1208.05,0,0
96948.5,48.433,-1204.01,0,0
97208.8,48.5402,-1199.93,0,0
97469.1,48.647,-1196.07,0,0
97729.5,48.6356,-1192.07,0,0
97989.8,48.9555,-1188.14,0,0
98250.1,49.2457,-1184.54,0,0
98510.4,49.278,-1180.81,0,0
98770.8,49.3673,-1177.2,0,0
99031.1,49.4411,-1173.55,0,0
99291.4,49.3314,-1169.91,0,0
99551.7,49.231,-1166.25,0,0
99812.1,48.9537,-1162.36,0,0
100072,48.9381,-1158.15,0,0
100333,49.3572,-1154.08,0,0
100593,49.8571,-1150.33,0,0
100853,50.0231,-1146.73,0,0
101114,50.2493,-1142.93,0,0
101374,50.7469,-1139.22,0,0
101634,51.0664,-1135.74,0,0
101895,51.2705,-1132.04,0,0
102155,51.7621,-1128.44,0,0
102415,52.1126,-1124.83,0,0
102676,52.6539,-1121.34,0,0
102936,52.9974,-1117.93,0,0
103196,53.5988,-1114.4,0,0
103457,54.2278,-1111.17,0,0
103717,54.881,-1108.02,0,0
103977,55.4089,-1105.39,0,0
104238,55.2131,-1102.59,0,0
104498,55.2026,-1099.18,0,0
104758,55.5477,-1095.94,0,0
105019,55.9772,-1093.11,0,0
105279,55.8439,-1090.29,0,0
105539,55.5973,-1087.24,0,0
105800,55.4046,-1083.98,0,0
106060,55.2982,-1080.71,0,0
106320.175,55.1091,-1077.3,0,0
106580.5,55.155,-1073.78,0,0
106840.825,55.3123,-1070.27,0,0
107101.15,55.7079,-1066.88,0,0
107361.475,55.9099,-1063.81,0,0
107621.8,55.9417,-1060.52,0,0
107882.125,56.1088,-1057.29,0,0
108142.45,56.1216,-1053.91,0,0
108402.775,56.4291,-1050.45,0,0
108663.1,56.8165,-1047.15,0,0
108923.425,57.1055,-1044.13,0,0
109183.75,57.1319,-1040.97,0,0
109444.075,57.2546,-1037.58,0,0
109704.4,57.3643,-1034.33,0,0
109964.725,57.5114,-1030.81,0,0
110225.05,57.644,-1027.41,0,0
110485.375,58.0566,-1023.6,0,0
110745.7,58.7046,-1020.04,0,0
111006.025,59.3756,-1016.59,0,0
111266.35,60.2095,-1013.37,0,0
111526.675,60.8622,-1010.11,0,0
111787.0,61.4117,-1006.7,0,0
112047.325,62.2354,-1003.27,0,0
112307.65,63.204,-999.975,0,0
112567.975,64.2501,-996.679,0,0
112828.3,65.4019,-993.506,0,0
113088.625,66.6737,-990.453,0,0
113348.95,68.1009,-987.656,0,0
113609.275,69.2115,-985.252,0,0
113869.6,70.0285,-982.562,0,0
114129.925,71.0463,-979.606,0,0
114390.25,72.3398,-976.777,0,0
114650.575,73.8152,-974.101,0,0
114910.9,75.2098,-971.84,0,0
115171.225,76.4529,-969.432,0,0
115431.55,77.8407,-967.007,0,0
115691.875,79.2872,-964.66,0,0
115952.2,81.1621,-962.443,0,0
116212.525,83.0039,-960.746,0,0
116472.85,84.8219,-959.279,0,0
116733.175,86.4549,-958.259,0,0
116993.5,87.7113,-957.459,0,0
117253.825,88.6448,-956.525,0,0
117514.15,89.6465,-955.576,0,0
117774.475,90.6462,-954.858,0,0
118034.8,91.1768,-954.414,0,0
118295.125,91.5016,-953.605,0,0
118555.45,92.2294,-952.708,0,0
118815.775,93.0632,-952.365,0,0
119076.1,93.4993,-952.475,0,0
119336.425,93.3858,-952.767,0,0
119596.75,92.9849,-953.082,0,0
119857.075,92.0964,-953.477,0,0
120117.4,90.4996,-953.776,0,0
120377.725,88.6043,-953.551,0,0
120638.05,86.3921,-953.232,0,0
120898.375,83.7506,-952.293,0,0
121158.7,81.0245,-950.863,0,0
121419.025,78.2107,-948.622,0,0
121679.35,76.1955,-945.742,0,0
121939.675,74.6975,-943.198,0,0
122200.0,73.2352,-940.821,0,0
122460,71.5512,-938.494,0,0
122721,69.9534,-935.735,0,0
122981,68.6275,-933.077,0,0
123241,67.14,-930.425,0,0
123502,65.6557,-927.467,0,0
123762,64.4688,-924.314,0,0
124022,63.6346,-921.124,0,0
124283,62.9547,-918.27,0,0
124543,62.2114,-915.456,0,0
124803,61.5328,-912.658,0,0
125064,60.879,-910.047,0,0
125324,60.079,-907.553,0,0
125584,58.9665,-904.852,0,0
125845,58.0102,-901.906,0,0
126105,57.1895,-898.959,0,0
126365,56.436,-896.043,0,0
126626,55.585,-893.113,0,0
126886,54.914,-889.969,0,0
127146,54.2721,-886.974,0,0
127406,53.5923,-883.778,0,0
127667,53.1149,-880.532,0,0
127927,52.8873,-877.326,0,0
128187,52.7791,-874.411,0,0
128448,52.5069,-871.597,0,0
128708,52.1076,-868.76,0,0
128968,51.6932,-865.823,0,0
129229,51.4151,-862.851,0,0
129489,51.2369,-859.938,0,0
129749,50.893,-857.092,0,0
130010,50.548,-854.143,0,0
130270,50.3469,-851.072,0,0
130530,50.31,-848.158,0,0
130791,50.1717,-845.519,0,0
131051,49.7941,-842.744,0,0
131311,49.4235,-839.859,0,0
131572,48.9904,-836.791,0,0
131832,48.7891,-833.607,0,0
132092,48.7106,-830.483,0,0
132353,48.5927,-827.408,0,0
132613,48.5497,-824.274,0,0
132873,48.569,-821.08,0,0
133134,48.6986,-817.891,0,0
133394,48.8931,-814.767,0,0
133654,49.1385,-811.605,0,0
133915,49.523,-808.431,0,0
134175,50.0544,-805.318,0,0
134435,50.8624,-802.252,0,0
134696,51.5495,-799.581,0,0
134956,52.118,-796.934,0,0
135216,52.7491,-794.212,0,0
135477,53.5496,-791.484,0,0
135737,54.4121,-789.016,0,0
135997,55.4948,-786.665,0,0
136258,56.4758,-784.868,0,0
136518,57.165,-783.314,0,0
136778,57.509,-781.86,0,0
137039,57.4932,-780.609,0,0
137299,56.8662,-779.049,0,0
137559,56.0851,-777.016,0,0
137819,55.5068,-774.595,0,0
138080,55.0523,-772.231,0,0
138340.125,54.5154,-769.707,0,0
138600.45,54.0889,-767.055,0,0
138860.775,53.7196,-764.315,0,0
139121.1,53.4147,-761.493,0,0
139381.425,53.2582,-758.577,0,0
139641.75,53.2223,-755.711,0,0
139902.075,53.25,-752.84,0,0
140162.4,53.425,-750.022,0,0
140422.725,53.6473,-747.389,0,0
140683.05,53.6621,-744.828,0,0
140943.375,53.6055,-742.172,0,0
141203.7,53.5963,-739.406,0,0
141464.025,53.539,-736.622,0,0
141724.35,53.5312,-733.699,0,0
141984.675,53.6879,-730.688,0,0
142245.0,54.0054,-727.775,0,0
142505.325,54.2906,-724.932,0,0
142765.65,54.5398,-722.043,0,0
143025.975,54.8978,-719.062,0,0
143286.3,55.5154,-716.15,0,0
143546.625,56.1781,-713.452,0,0
143806.95,56.7642,-710.841,0,0
144067.275,57.3623,-708.262,0,0
144327.6,57.9487,-705.855,0,0
144587.925,58.4209,-703.5,0,0
144848.25,58.822,-701.156,0,0
145108.575,59.1469,-698.811,0,0
145368.9,59.3689,-696.526,0,0
145629.225,59.3952,-694.072,0,0
145889.55,59.513,-691.464,0,0
146149.875,59.716,-688.793,0,0
146410.2,59.9624,-686.088,0,0
146670.525,60.3451,-683.417,0,0
146930.85,60.7247,-680.864,0,0
147191.175,61.0803,-678.314,0,0
147451.5,61.428,-675.872,0,0
147711.825,61.5509,-673.434,0,0
147972.15,61.7219,-670.732,0,0
148232.475,62.0751,-668.174,0,0
148492.8,62.2549,-665.775,0,0
148753.125,62.2688,-663.271,0,0
149013.45,62.1854,-660.647,0,0
149273.775,62.1214,-657.908,0,0
149534.1,62.0411,-655.073,0,0
149794.425,61.9677,-652.148,0,0
150054.75,61.8997,-649.131,0,0
150315.075,61.8511,-645.985,0,0
150575.4,61.8544,-642.733,0,0
150835.725,61.9499,-639.4,0,0
151096.05,62.0895,-635.978,0,0
151356.375,62.3299,-632.44,0,0
151616.7,62.691,-628.861,0,0
151877.025,63.2011,-625.259,0,0
152137.35,63.7832,-621.675,0,0
152397.675,64.4161,-618.097,0,0
152658.0,65.1497,-614.412,0,0
152918.325,65.9492,-610.75,0,0
153178.65,66.8625,-607.1,0,0
153438.975,67.851,-603.436,0,0
153699.3,68.9357,-599.878,0,0
153959.625,69.9564,-596.272,0,0
154219.95,71.0469,-592.55,0,0
154480,72.2804,-588.778,0,0
154741,73.6218,-585.046,0,0
155001,75.0406,-581.266,0,0
155261,76.6365,-577.454,0,0
155522,78.4041,-573.698,0,0
155782,80.2683,-570.007,0,0
156042,82.2291,-566.399,0,0
156303,84.3244,-562.881,0,0
156563,86.4293,-559.413,0,0
156823,88.6096,-556.008,0,0
157084,90.9066,-552.618,0,0
157344,93.3553,-549.239,0,0
157604,96.0776,-546.042,0,0
157864,98.8904,-543.188,0,0
158125,101.602,-540.614,0,0
158385,104.255,-538.192,0,0
158645,106.879,-535.984,0,0
158906,109.343,-534.094,0,0
159166,111.492,-532.42,0,0
159426,113.198,-530.837,0,0
159687,114.431,-529.122,0,0
159947,115.375,-527.162,0,0
160207,116.06,-524.864,0,0
160468,116.569,-522.1,0,0
160728,117.147,-518.878,0,0
160988,117.926,-515.464,0,0
161249,118.53,-511.724,0,0
161509,119.264,-507.344,0,0
161769,120.427,-502.494,0,0
162030,122.206,-497.421,0,0
162290,124.488,-492.335,0,0
162550,127.202,-487.349,0,0
162811,130.081,-482.581,0,0
163071,132.995,-477.705,0,0
163331,136.156,-472.54,0,0
163592,139.973,-467.15,0,0
163852,144.389,-462.139,0,0
164112,149.061,-457.53,0,0
164373,153.734,-453.288,0,0
164633,158.47,-448.977,0,0
164893,163.281,-444.861,0,0
165154,167.94,-440.911,0,0
165414,172.307,-436.442,0,0
165674,177.144,-431.234,0,0
165935,182.75,-425.657,0,0
166195,189.041,-419.998,0,0
166455,196.426,-414.318,0,0
166716,204.792,-409.093,0,0
166976,213.683,-404.498,0,0
167236,223.003,-400.12,0,0
167497,233.197,-395.942,0,0
167757,244.489,-392.597,0,0
168017,256.36,-390.415,0,0
168277,268.455,-389.023,0,0
168538,281.039,-388.435,0,0
168798,294.246,-388.93,0,0
169058,307.689,-390.787,0,0
169319,321.376,-394.036,0,0
169579,334.588,-399.275,0,0
169839,346.328,-405.4,0,0
170100,357.622,-411.364,0,0
170360.075,369.346,-417.814,0,0
170620.4,381.694,-425.585,0,0
170880.725,393.685,-435.771,0,0
171141.05,403.766,-447.485,0,0
171401.375,412.351,-459.56,0,0
171661.7,420.193,-472.16,0,0
171922.025,427.092,-485.393,0,0
172182.35,433.248,-499.552,0,0
172442.675,438.269,-515.217,0,0
172703.0,440.523,-532.218,0,0
172963.325,440.115,-548.37,0,0
173223.65,438.502,-564.015,0,0
173483.975,435.236,-579.696,0,0
173744.3,429.735,-595.4,0,0
174004.625,421.015,-609.972,0,0
174264.95,410.051,-621.526,0,0
174525.275,398.55,-630.238,0,0
174785.6,386.924,-636.702,0,0
175045.925,375.064,-640.879,0,0
175306.25,364.227,-642.083,0,0
175566.575,355.407,-642.308,0,0
175826.9,346.834,-641.756,0,0
176087.225,339.497,-638.925,0,0
176347.55,335.116,-635.235,0,0
176607.875,333.001,-632.604,0,0
176868.2,331.503,-631.19,0,0
177128.525,330.306,-630.034,0,0
177388.85,330.182,-628.939,0,0
177649.175,330.891,-628.793,0,0
177909.5,332.06,-629.053,0,0
178169.825,334.568,-629.874,0,0
178430.15,338.743,-632.842,0,0
178690.475,342.777,-639.633,0,0
178950.8,344.053,-649.379,0,0
179211.125,341.528,-659.946,0,0
179471.45,335.659,-669.29,0,0
179731.775,328.181,-676.153,0,0
179992.1,320.73,-681.119,0,0
180252.425,313.233,-685.023,0,0
180512.75,306.263,-687.989,0,0
180773.075,299.855,-691.013,0,0
181033.4,292.98,-694.276,0,0
181293.725,285.626,-697.389,0,0
181554.05,277.067,-699.929,0,0
181814.375,268.315,-700.72,0,0
182074.7,260.62,-701.069,0,0
182335.025,252.634,-701.998,0,0
182595.35,243.252,-702.283,0,0
182855.675,233.465,-700.738,0,0
183116.0,224.171,-697.701,0,0
183376.325,215.9,-693.39,0,0
183636.65,208.951,-688.691,0,0
183896.975,202.746,-684.193,0,0
184157.3,196.835,-679.582,0,0
184417.625,191.337,-674.708,0,0
184677.95,186.401,-669.449,0,0
184938.275,182.428,-664.256,0,0
185198.6,178.959,-659.753,0,0
185458.925,175.214,-655.759,0,0
185719.25,171.078,-651.758,0,0
185979.575,166.484,-647.062,0,0
186239.9,162.465,-641.398,0,0
186500,159.405,-635.609,0,0
186761,156.78,-630.094,0,0
187021,154.396,-624.6,0,0
187281,152.299,-618.952,0,0
187542,150.846,-613.196,0,0
187802,150.072,-607.77,0,0
188062,149.71,-602.916,0,0
188322,149.435,-598.72,0,0
188583,148.936,-594.959,0,0
188843,148.199,-591.608,0,0
189103,146.877,-588.356,0,0
189364,145.126,-584.776,0,0
189624,143.423,-580.721,0,0
189884,141.881,-576.648,0,0
190145,140.097,-572.318,0,0
190405,138.526,-567.508,0,0
190665,137.422,-562.589,0,0
190926,136.377,-557.729,0,0
191186,135.397,-552.548,0,0
191446,135.008,-547.096,0,0
191707,135.157,-541.992,0,0
191967,135.318,-537.282,0,0
192227,135.279,-532.708,0,0
192488,135.119,-527.89,0,0
192748,135.144,-522.786,0,0
193008,135.478,-517.555,0,0
193269,136.218,-512.285,0,0
193529,137.297,-507.25,0,0
193789,138.403,-502.468,0,0
194050,139.549,-497.672,0,0
194310,140.808,-492.879,0,0
194570,142.243,-488.042,0,0
194831,143.929,-483.25,0,0
195091,145.917,-478.562,0,0
195351,148.121,-474.164,0,0
195612,150.285,-470.022,0,0
195872,152.381,-466.074,0,0
196132,154.545,-462.025,0,0
196393,156.916,-458.172,0,0
196653,159.225,-454.465,0,0
196913,161.64,-450.828,0,0
197174,164.037,-447.332,0,0
197434,166.57,-444.054,0,0
197694,168.931,-441.097,0,0
197955,170.93,-438.31,0,0
198215,172.647,-435.266,0,0
198475,174.299,-432.005,0,0
198735,176.013,-428.578,0,0
198996,177.734,-425.025,0,0
199256,179.487,-421.42,0,0
199516,181.258,-417.772,0,0
199777,182.929,-413.838,0,0
200037,184.773,-409.5,0,0
200297,186.886,-404.997,0,0
200558,189.408,-400.415,0,0
200818,192.199,-395.933,0,0
201078,195.109,-391.509,0,0
201339,198.044,-387.072,0,0
201599,201.142,-382.425,0,0
201859,204.477,-377.514,0,0
202120,208.263,-372.537,0,0
202380.025,212.448,-367.525,0,0
202640.35,217.282,-362.699,0,0
202900.675,222.297,-358.229,0,0
203161.0,227.412,-354.01,0,0
203421.325,232.747,-349.941,0,0
203681.65,238.198,-345.968,0,0
203941.975,243.834,-342.075,0,0
204202.3,249.676,-338.223,0,0
204462.625,255.737,-334.459,0,0
204722.95,262.191,-330.876,0,0
204983.275,268.803,-327.345,0,0
205243.6,275.742,-323.744,0,0
205503.925,283.667,-320.247,0,0
205764.25,292.326,-317.675,0,0
206024.575,301.091,-316.223,0,0
206284.9,309.576,-315.463,0,0
206545.225,317.828,-315.408,0,0
206805.55,325.666,-315.883,0,0
207065.875,332.912,-316.741,0,0
207326.2,339.468,-317.506,0,0
207586.525,345.755,-317.95,0,0
207846.85,351.613,-318.394,0,0
208107.175,357.21,-318.013,0,0
208367.5,363.135,-316.717,0,0
208627.825,369.975,-315,0,0
208888.15,377.824,-313.097,0,0
209148.475,386.828,-311.34,0,0
209408.8,396.9,-310.191,0,0
209669.125,407.911,-309.906,0,0
209929.45,419.842,-310.445,0,0
210189.775,432.494,-312.471,0,0
210450.1,445.664,-316.181,0,0
210710.425,458.954,-322.17,0,0
210970.75,470.77,-330.487,0,0
211231.075,480.743,-339.469,0,0
211491.4,489.611,-348.902,0,0
211751.725,497.377,-358.61,0,0
212012.05,504.211,-368.511,0,0
212272.375,510.023,-378.709,0,0
212532.7,514.484,-388.634,0,0
212793.025,518.46,-397.854,0,0
213053.35,522.374,-406.923,0,0
213313.675,525.73,-416.049,0,0
213574.0,528.722,-424.791,0,0
213834.325,531.757,-433.441,0,0
214094.65,534.768,-442.271,0,0
214354.975,537.754,-451.529,0,0
214615.3,540.171,-461.618,0,0
214875.625,541.326,-472.011,0,0
215135.95,541.416,-481.96,0,0
215396.275,540.841,-491.439,0,0
215656.6,539.884,-500.085,0,0
215916.925,539.2,-508.204,0,0
216177.25,538.888,-516.259,0,0
216437.575,538.86,-524.904,0,0
216697.9,538.458,-534.459,0,0
216958.225,536.979,-544.765,0,0
217218.55,534.044,-555.066,0,0
217478.875,529.956,-564.849,0,0
217739.2,525.084,-573.886,0,0
217999.525,519.801,-582.203,0,0
218259.85,514.255,-590.232,0,0
218520,507.906,-598.086,0,0
218780,500.762,-605.379,0,0
219041,492.803,-611.996,0,0
219301,483.856,-617.544,0,0
219561,474.358,-621.415,0,0
219822,465.026,-623.705,0,0
220082,456.102,-624.545,0,0
220342,447.918,-624.17,0,0
220603,440.807,-622.892,0,0
220863,434.758,-621.269,0,0
221123,429.451,-619.475,0,0
221384,424.771,-617.495,0,0
221644,420.713,-615.402,0,0
221904,417.191,-613.241,0,0
222165,414.154,-611.001,0,0
222425,411.825,-608.537,0,0
222685,410.349,-606.315,0,0
222946,409.372,-604.822,0,0
223206,408.293,-603.783,0,0
223466,407.202,-602.709,0,0
223727,406.371,-601.689,0,0
223987,405.701,-600.983,0,0
224247,404.955,-600.534,0,0
224508,404.093,-600.042,0,0
224768,403.147,-599.325,0,0
225028,402.236,-598.398,0,0
225289,401.563,-597.141,0,0
225549,401.354,-595.361,0,0
225809,402.099,-593.583,0,0
226070,403.673,-592.24,0,0
226330,405.654,-591.507,0,0
226590,407.921,-591.462,0,0
226851,410.148,-592.083,0,0
227111,412.186,-593.118,0,0
227371,414.185,-594.307,0,0
227632,416.176,-595.726,0,0
227892,418.228,-597.417,0,0
228152,420.497,-599.429,0,0
228413,422.686,-601.912,0,0
228673,424.897,-604.888,0,0
228933,427.025,-608.445,0,0
229193,428.737,-612.679,0,0
229454,429.653,-617.254,0,0
229714,429.913,-621.602,0,0
229974,430.021,-625.559,0,0
230235,430.737,-629.45,0,0
230495,431.732,-634.19,0,0
230755,432.093,-639.924,0,0
231016,431.355,-646.113,0,0
231276,429.545,-651.829,0,0
231536,427.573,-656.942,0,0
231797,425.651,-661.979,0,0
232057,423.655,-667.062,0,0
232317,421.517,-672.261,0,0
232578,419.263,-677.76,0,0
232838,416.677,-683.762,0,0
233098,413.422,-690.189,0,0
233359,409.284,-696.891,0,0
233619,404.126,-703.706,0,0
233879,397.489,-710.516,0,0
234140,389.288,-716.268,0,0
234400,380.223,-720.391,0,0
234660.3,371.22,-723.043,0,0
234920.625,362.465,-724.757,0,0
235180.95,353.661,-725.859,0,0
235441.275,344.591,-725.82,0,0
235701.6,336.107,-724.405,0,0
235961.925,328.683,-722.064,0,0
236222.25,322.317,-719.496,0,0
236482.575,316.73,-717.111,0,0
236742.9,311.456,-714.688,0,0
237003.225,306.796,-712.514,0,0
237263.55,302.197,-710.899,0,0
237523.875,296.997,-709.374,0,0
237784.2,291.416,-707.271,0,0
238044.525,285.865,-704.492,0,0
238304.85,280.67,-700.994,0,0
238565.175,276.029,-696.949,0,0
238825.5,272.079,-692.485,0,0
239085.825,268.906,-687.718,0,0
239346.15,266.734,-683.011,0,0
239606.475,265.35,-678.622,0,0
239866.8,264.738,-674.694,0,0
240127.125,264.884,-671.559,0,0
240387.45,265.419,-669.656,0,0
240647.775,265.487,-669.002,0,0
240908.1,264.354,-669.166,0,0
241168.425,262.1,-668.941,0,0
241428.75,259.59,-668.241,0,0
241689.075,256.92,-667.325,0,0
241949.4,253.992,-666.308,0,0
242209.725,250.695,-665.126,0,0
242470.05,246.755,-663.396,0,0
242730.375,242.75,-660.506,0,0
242990.7,239.313,-656.698,0,0
243251.025,236.82,-652.374,0,0
243511.35,235.132,-648.236,0,0
243771.675,233.791,-644.235,0,0
244032.0,232.768,-640.14,0,0
244292.325,232.371,-635.938,0,0
244552.65,232.778,-631.951,0,0
244812.975,233.842,-628.603,0,0
245073.3,235.224,-626.103,0,0
245333.625,236.392,-624.347,0,0
245593.95,237.218,-623.338,0,0
245854.275,237.541,-622.66,0,0
246114.6,237.228,-622.007,0,0
246374.925,236.436,-621.14,0,0
246635.25,235.517,-619.962,0,0
246895.575,234.662,-618.649,0,0
247155.9,233.546,-617.273,0,0
247416.225,232.346,-615.629,0,0
247676.55,231.089,-613.72,0,0
247936.875,230.096,-611.464,0,0
248197.2,229.244,-609.106,0,0
248457.525,228.563,-606.612,0,0
248717.85,228.006,-604.07,0,0
248978.175,227.666,-601.503,0,0
249238.5,227.45,-598.884,0,0
249498.825,227.38,-596.172,0,0
249759.15,227.594,-593.346,0,0
250019.475,227.996,-590.514,0,0
250279.8,228.642,-587.719,0,0
250540,229.574,-585.005,0,0
250800,230.687,-582.363,0,0
251061,232.021,-579.802,0,0
251321,233.599,-577.336,0,0
251581,235.401,-575.036,0,0
251842,237.398,-572.859,0,0
252102,239.695,-570.88,0,0
252362,242.293,-569.15,0,0
252623,245.107,-567.81,0,0
252883,248.035,-566.829,0,0
253143,251.123,-566.272,0,0
253404,254.263,-566.243,0,0
253664,257.264,-566.741,0,0
253924,260.064,-567.685,0,0
254185,262.55,-569.031,0,0
254445,264.634,-570.739,0,0
254705,266.311,-572.619,0,0
254966,267.582,-574.521,0,0
255226,268.624,-576.42,0,0
255486,269.375,-578.459,0,0
255747,269.81,-580.599,0,0
256007,269.834,-582.763,0,0
256267,269.424,-584.759,0,0
256528,268.764,-586.432,0,0
256788,268.023,-588.018,0,0
257048,266.991,-589.437,0,0
257309,265.768,-590.664,0,0
257569,264.355,-591.535,0,0
257829,262.865,-592.066,0,0
258090,261.464,-592.243,0,0
258350,260.248,-592.076,0,0
258610,259.332,-591.745,0,0
258871,258.829,-591.398,0,0
259131,258.563,-591.326,0,0
259391,258.304,-591.603,0,0
259651,257.786,-592.126,0,0
259912,256.888,-592.532,0,0
260172,255.742,-592.802,0,0
260432,254.489,-592.681,0,0
260693,253.349,-592.346,0,0
260953,252.314,-591.79,0,0
261213,251.39,-591.11,0,0
261474,250.596,-590.209,0,0
261734,249.982,-589.193,0,0
261994,249.552,-588.086,0,0
262255,249.335,-586.802,0,0
262515,249.477,-585.409,0,0
262775,250.084,-584.057,0,0
263036,251.137,-582.94,0,0
263296,252.557,-582.19,0,0
263556,254.135,-581.938,0,0
263817,255.669,-582.156,0,0
264077,257.134,-582.766,0,0
264337,258.419,-583.758,0,0
264598,259.332,-585.072,0,0
264858,259.851,-586.542,0,0
265118,259.971,-587.91,0,0
265379,259.947,-589.076,0,0
265639,259.904,-590.053,0,0
265899,259.942,-591.017,0,0
266160,259.984,-592.036,0,0
266420,260.06,-593.158,0,0
266680.25,260.013,-594.469,0,0
266940.575,259.897,-595.857,0,0
267200.9,259.594,-597.345,0,0
267461.225,259.127,-598.888,0,0
267721.55,258.405,-600.549,0,0
267981.875,257.432,-602.2,0,0
268242.2,256.066,-603.725,0,0
268502.525,254.391,-604.941,0,0
268762.85,252.541,-605.755,0,0
269023.175,250.76,-606.159,0,0
269283.5,249.119,-606.253,0,0
269543.825,247.691,-606.064,0,0
269804.15,246.453,-605.626,0,0
270064.475,245.621,-605.036,0,0
270324.8,245.049,-604.375,0,0
270585.125,244.897,-603.645,0,0
270845.45,245.166,-602.989,0,0
271105.775,245.963,-602.596,0,0
271366.1,247.139,-602.495,0,0
271626.425,248.703,-602.838,0,0
271886.75,250.684,-603.724,0,0
272147.075,252.938,-605.46,0,0
272407.4,255.138,-608.292,0,0
272667.725,256.98,-612.166,0,0
272928.05,257.986,-616.934,0,0
273188.375,257.958,-622.307,0,0
273448.7,256.866,-627.917,0,0
273709.025,254.671,-633.649,0,0
273969.35,251.492,-639.126,0,0
274229.675,247.277,-644.294,0,0
274490.0,242.284,-648.783,0,0
274750.325,236.781,-652.603,0,0
275010.65,230.934,-655.849,0,0
275270.975,224.552,-658.754,0,0
275531.3,217.505,-660.931,0,0
275791.625,210.047,-662.095,0,0
276051.95,202.482,-662.257,0,0
276312.275,195.033,-661.455,0,0
276572.6,187.863,-659.835,0,0
276832.925,181.131,-657.551,0,0
277093.25,174.74,-654.684,0,0
277353.575,168.721,-651.248,0,0
277613.9,163.166,-647.259,0,0
277874.225,158.258,-642.808,0,0
278134.55,154.009,-638.131,0,0
278394.875,150.348,-633.31,0,0
278655.2,147.252,-628.395,0,0
278915.525,144.717,-623.494,0,0
279175.85,142.719,-618.726,0,0
279436.175,141.113,-614.158,0,0
279696.5,139.82,-609.763,0,0
279956.825,138.815,-605.536,0,0
280217.15,138.035,-601.43,0,0
280477.475,137.529,-597.483,0,0
280737.8,137.365,-593.718,0,0
280998.125,137.47,-590.363,0,0
281258.45,137.633,-587.422,0,0
281518.775,137.634,-584.86,0,0
281779.1,137.38,-582.479,0,0
282039.425,136.904,-580.074,0,0
282299.75,136.323,-577.566,0,0
282560,135.649,-574.991,0,0
282820,134.972,-572.295,0,0
283081,134.31,-569.375,0,0
283341,133.832,-566.168,0,0
283601,133.449,-562.932,0,0
283862,133.4,-559.53,0,0
284122,133.639,-556.143,0,0
284382,134.227,-552.755,0,0
284643,135.024,-549.43,0,0
284903,136.176,-546.404,0,0
285163,137.446,-543.581,0,0
285424,138.996,-540.912,0,0
285684,140.678,-538.59,0,0
285944,142.364,-536.634,0,0
286205,143.893,-534.947,0,0
286465,145.387,-533.424,0,0
286725,146.933,-532.009,0,0
286986,148.319,-530.913,0,0
287246,149.707,-529.942,0,0
287506,150.782,-529.277,0,0
287767,151.559,-528.617,0,0
288027,152.097,-528.073,0,0
288287,152.371,-527.363,0,0
288548,152.454,-526.438,0,0
288808,152.469,-525.221,0,0
289068,152.511,-523.9,0,0
289329,152.663,-522.355,0,0
289589,152.735,-520.733,0,0
289849,152.985,-518.928,0,0
290109,153.342,-517.018,0,0
290370,153.8,-515.019,0,0
290630,154.574,-512.826,0,0
290890,155.513,-510.736,0,0
291151,156.795,-508.836,0,0
291411,158.254,-507.087,0,0
291671,159.632,-505.546,0,0
291932,160.957,-504.018,0,0
292192,162.255,-502.576,0,0
292452,163.505,-501.182,0,0
292713,164.941,-499.627,0,0
292973,166.45,-498.149,0,0
293233,168.124,-496.743,0,0
293494,169.745,-495.476,0,0
293754,171.466,-494.261,0,0
294014,173.209,-493.102,0,0
294275,174.895,-492.111,0,0
294535,176.607,-490.979,0,0
294795,178.316,-489.859,0,0
295056,180.097,-488.796,0,0
295316,182.099,-487.589,0,0
295576,184.268,-486.513,0,0
295837,186.444,-485.592,0,0
296097,188.792,-484.707,0,0
296357,191.238,-483.881,0,0
296618,193.652,-483.144,0,0
296878,196.312,-482.504,0,0
297138,199.09,-482.027,0,0
297399,201.936,-481.749,0,0
297659,204.856,-481.487,0,0
297919,207.811,-481.577,0,0
298180,210.812,-481.749,0,0
298440,213.867,-482.188,0,0
298700.2,216.906,-482.68,0,0
298960.525,219.984,-483.261,0,0
299220.85,223.164,-483.992,0,0
299481.175,226.378,-484.85,0,0
299741.5,229.711,-485.87,0,0
300001.825,233.236,-487.11,0,0
300262.15,236.8,-488.763,0,0
300522.475,240.4,-490.741,0,0
300782.8,244.032,-492.902,0,0
301043.125,247.744,-495.327,0,0
301303.45,251.541,-498.219,0,0
301563.775,255.307,-501.528,0,0
301824.1,259.075,-505.404,0,0
302084.425,262.685,-509.992,0,0
302344.75,265.909,-515.169,0,0
302605.075,268.673,-521.066,0,0
302865.4,270.718,-527.495,0,0
303125.725,271.921,-534.34,0,0
303386.05,272.175,-541.372,0,0
303646.375,271.437,-548.265,0,0
303906.7,269.921,-554.854,0,0
304167.025,267.771,-561.023,0,0
304427.35,265.124,-566.729,0,0
304687.675,262.104,-571.987,0,0
304948.0,258.861,-576.806,0,0
305208.325,255.465,-581.248,0,0
305468.65,251.934,-585.462,0,0
305728.975,248.22,-589.456,0,0
305989.3,244.208,-593.235,0,0
306249.625,239.929,-596.694,0,0
306509.95,235.45,-599.764,0,0
306770.275,230.773,-602.459,0,0
307030.6,226.022,-604.717,0,0
307290.925,221.248,-606.57,0,0
307551.25,216.517,-608.075,0,0
307811.575,211.805,-609.295,0,0
308071.9,207.146,-610.187,0,0
308332.225,202.521,-610.843,0,0
308592.55,197.907,-611.218,0,0
308852.875,193.361,-611.297,0,0
309113.2,188.913,-611.047,0,0
309373.525,184.57,-610.487,0,0
309633.85,180.434,-609.621,0,0
309894.175,176.563,-608.522,0,0
310154.5,172.996,-607.245,0,0
310414.825,169.71,-605.888,0,0
310675.15,166.641,-604.525,0,0
310935.475,163.747,-603.197,0,0
311195.8,161.012,-601.857,0,0
311456.125,158.36,-600.537,0,0
311716.45,155.81,-599.218,0,0
311976.775,153.346,-597.889,0,0
312237.1,150.947,-596.555,0,0
312497.425,148.638,-595.201,0,0
312757.75,146.355,-593.879,0,0
313018.075,144.097,-592.551,0,0
313278.4,141.852,-591.175,0,0
313538.725,139.62,-589.733,0,0
313799.05,137.38,-588.183,0,0
314059.375,135.229,-586.531,0,0
314319.7,133.159,-584.78,0,0
314580,131.193,-582.928,0,0
314840,129.332,-580.982,0,0
315101,127.653,-578.967,0,0
315361,126.138,-576.896,0,0
315621,124.801,-574.863,0,0
315882,123.618,-572.81,0,0
316142,122.568,-570.836,0,0
316402,121.648,-568.921,0,0
316663,120.836,-567.07,0,0
316923,120.127,-565.32,0,0
317183,119.45,-563.664,0,0
317444,118.824,-562.093,0,0
317704,118.194,-560.56,0,0
317964,117.591,-559.07,0,0
318225,117.006,-557.608,0,0
318485,116.45,-556.163,0,0
318745,115.932,-554.756,0,0
319006,115.441,-553.321,0,0
319266,115.033,-551.922,0,0
319526,114.705,-550.574,0,0
319787,114.432,-549.309,0,0
320047,114.191,-548.141,0,0
320307,113.943,-547.027,0,0
320567,113.709,-545.976,0,0
320828,113.428,-545.016,0,0
321088,113.136,-544.075,0,0
321348,112.815,-543.172,0,0
321609,112.465,-542.278,0,0
321869,112.103,-541.378,0,0
322129,111.747,-540.49,0,0
322390,111.419,-539.606,0,0
322650,111.096,-538.74,0,0
322910,110.764,-537.922,0,0
323171,110.438,-537.115,0,0
323431,110.109,-536.33,0,0
323691,109.76,-535.557,0,0
323952,109.409,-534.812,0,0
324212,109.055,-534.061,0,0
324472,108.676,-533.325,0,0
324733,108.277,-532.573,0,0
324993,107.871,-531.782,0,0
325253,107.514,-530.968,0,0
325514,107.222,-530.13,0,0
325774,106.986,-529.318,0,0
326034,106.83,-528.554,0,0
326295,106.709,-527.876,0,0
326555,106.599,-527.281,0,0
326815,106.471,-526.774,0,0
327076,106.33,-526.338,0,0
327336,106.15,-525.969,0,0
327596,105.912,-525.688,0,0
327857,105.587,-525.43,0,0
328117,105.168,-525.2,0,0
328377,104.686,-524.958,0,0
328638,104.128,-524.678,0,0
328898,103.558,-524.378,0,0
329158,102.959,-524.033,0,0
329419,102.343,-523.691,0,0
329679,101.734,-523.346,0,0
329939,101.095,-522.993,0,0
330200,100.434,-522.65,0,0
330460,99.7582,-522.291,0,0
330720.15,99.0331,-521.938,0,0
330980.475,98.2839,-521.565,0,0
331240.8,97.5396,-521.3,0,0
331501.125,96.7494,-520.908,0,0
331761.45,95.8765,-520.608,0,0
332021.775,94.9194,-520.253,0,0
332282.1,93.9471,-519.835,0,0
332542.425,92.8589,-519.405,0,0
332802.75,91.821,-518.873,0,0
333063.075,90.7101,-518.296,0,0
333323.4,89.6327,-517.667,0,0
333583.725,88.5259,-516.93,0,0
333844.05,87.4425,-516.2,0,0
334104.375,86.3557,-515.345,0,0
334364.7,85.2967,-514.409,0,0
334625.025,84.1694,-513.556,0,0
334885.35,83.1563,-512.634,0,0
335145.675,82.2,-511.605,0,0
335406.0,81.1979,-510.651,0,0
335666.325,80.2058,-509.625,0,0
335926.65,79.2992,-508.545,0,0
336186.975,78.3448,-507.476,0,0
336447.3,77.3988,-506.339,0,0
336707.625,76.4896,-505.15,0,0
336967.95,75.5938,-503.954,0,0
337228.275,74.7645,-502.717,0,0
337488.6,73.8856,-501.441,0,0
337748.925,73.1744,-500.121,0,0
338009.25,72.4095,-498.831,0,0
338269.575,71.7599,-497.476,0,0
338529.9,71.1857,-496.125,0,0
338790.225,70.6006,-494.813,0,0
339050.55,69.9973,-493.548,0,0
339310.875,69.4342,-492.227,0,0
339571.2,68.9095,-490.83,0,0
339831.525,68.4385,-489.542,0,0
340091.85,67.9237,-488.262,0,0
340352.175,67.4873,-486.903,0,0
340612.5,67.0077,-485.551,0,0
340872.825,66.5718,-484.208,0,0
341133.15,66.1818,-482.815,0,0
341393.475,65.7729,-481.408,0,0
341653.8,65.4166,-480.05,0,0
341914.125,65.1481,-478.56,0,0
342174.45,64.9345,-477.15,0,0
342434.775,64.7856,-475.699,0,0
342695.1,64.6056,-474.307,0,0
342955.425,64.4557,-472.925,0,0
343215.75,64.4132,-471.52,0,0
343476.075,64.4191,-470.128,0,0
343736.4,64.3883,-468.78,0,0
343996.725,64.5075,-467.424,0,0
344257.05,64.6119,-466.129,0,0
344517.375,64.7803,-464.876,0,0
344777.7,65.0074,-463.701,0,0
345038.025,65.2035,-462.517,0,0
345298.35,65.4332,-461.429,0,0
345558.675,65.6698,-460.433,0,0
345819.0,65.9609,-459.482,0,0
346079.325,66.1487,-458.608,0,0
346339.65,66.3237,-457.763,0,0
346599.975,66.4827,-457.016,0,0
346860,66.5489,-456.263,0,0
347121,66.5832,-455.592,0,0
347381,66.5294,-454.781,0,0
347641,66.4083,-454.141,0,0
347902,66.2237,-453.415,0,0
348162,66.0641,-452.63,0,0
348422,65.7938,-451.769,0,0
348683,65.5012,-450.919,0,0
348943,65.2524,-449.943,0,0
349203,65.0045,-448.947,0,0
349464,64.7527,-447.851,0,0
349724,64.5344,-446.784,0,0
349984,64.3819,-445.687,0,0
350245,64.2553,-444.563,0,0
350505,64.0596,-443.471,0,0
350765,63.9165,-442.335,0,0
351025,63.7817,-441.138,0,0
351286,63.6672,-439.849,0,0
351546,63.6845,-438.544,0,0
351806,63.7487,-437.172,0,0
352067,63.8381,-435.897,0,0
352327,64.0373,-434.592,0,0
352587,64.3737,-433.245,0,0
352848,64.6714,-432.046,0,0
353108,65.0496,-430.85,0,0
353368,65.5214,-429.697,0,0
353629,65.9689,-428.565,0,0
353889,66.4857,-427.576,0,0
354149,67.0299,-426.612,0,0
354410,67.5627,-425.722,0,0
354670,68.0638,-424.855,0,0
354930,68.5685,-424.095,0,0
355191,69.0978,-423.316,0,0
355451,69.6258,-422.679,0,0
355711,70.0843,-422.047,0,0
355972,70.5487,-421.538,0,0
356232,70.9266,-421.065,0,0
356492,71.2779,-420.646,0,0
356753,71.4581,-420.239,0,0
357013,71.6198,-419.923,0,0
357273,71.6271,-419.501,0,0
357534,71.5894,-419.104,0,0
357794,71.4637,-418.615,0,0
358054,71.3067,-418.115,0,0
358315,71,-417.478,0,0
358575,70.7622,-416.758,0,0
358835,70.4691,-415.909,0,0
359096,70.2371,-415.016,0,0
359356,70.0395,-414.007,0,0
359616,69.8977,-412.95,0,0
359877,69.7971,-411.842,0,0
360137,69.709,-410.742,0,0
360397,69.7717,-409.57,0,0
360658,69.8053,-408.402,0,0
360918,69.9875,-407.148,0,0
361178,70.1364,-405.993,0,0
361438,70.3782,-404.772,0,0
361699,70.7227,-403.592,0,0
361959,71.1021,-402.392,0,0
362219,71.5099,-401.215,0,0
362480,72.0064,-400.109,0,0
362740.1,72.5716,-398.988,0,0
363000.425,73.1104,-398.034,0,0
363260.75,73.6497,-396.997,0,0
363521.075,74.2019,-395.982,0,0
363781.4,74.7935,-395.035,0,0
364041.725,75.484,-394.054,0,0
364302.05,76.1151,-393.105,0,0
364562.375,76.8612,-392.227,0,0
364822.7,77.5724,-391.39,0,0
365083.025,78.3449,-390.592,0,0
365343.35,79.111,-389.85,0,0
365603.675,79.9303,-389.2,0,0
365864.0,80.6943,-388.601,0,0
366124.325,81.4806,-388.04,0,0
366384.65,82.194,-387.553,0,0
366644.975,82.7981,-387.086,0,0
366905.3,83.4405,-386.595,0,0
367165.625,84.0519,-386.176,0,0
367425.95,84.7248,-385.629,0,0
367686.275,85.2891,-385.146,0,0
367946.6,85.9315,-384.688,0,0
368206.925,86.6135,-384.265,0,0
368467.25,87.2775,-383.852,0,0
368727.575,87.9363,-383.532,0,0
368987.9,88.5535,-383.247,0,0
369248.225,89.2091,-383.008,0,0
369508.55,89.8383,-382.788,0,0
369768.875,90.4553,-382.633,0,0
370029.2,91.007,-382.542,0,0
370289.525,91.4857,-382.546,0,0
370549.85,91.8669,-382.539,0,0
370810.175,92.1448,-382.573,0,0
371070.5,92.3227,-382.572,0,0
371330.825,92.3941,-382.549,0,0
371591.15,92.3704,-382.429,0,0
371851.475,92.2647,-382.21,0,0
372111.8,92.19,-381.895,0,0
372372.125,92.089,-381.467,0,0
372632.45,92.0263,-380.946,0,0
372892.775,92.0718,-380.351,0,0
373153.1,92.0724,-379.732,0,0
373413.425,92.2284,-379.101,0,0
373673.75,92.3634,-378.453,0,0
373934.075,92.5859,-377.775,0,0
374194.4,92.8569,-377.107,0,0
374454.725,93.1878,-376.472,0,0
374715.05,93.5309,-375.828,0,0
374975.375,93.8913,-375.252,0,0
375235.7,94.2714,-374.707,0,0
375496.025,94.6848,-374.2,0,0
375756.35,95.0955,-373.744,0,0
376016.675,95.4556,-373.321,0,0
376277.0,95.8409,-372.9,0,0
376537.325,96.1353,-372.511,0,0
376797.65,96.4214,-372.136,0,0
377057.975,96.6172,-371.742,0,0
377318.3,96.7816,-371.304,0,0
377578.625,96.9207,-370.835,0,0
377838.95,97.0998,-370.249,0,0
378099.275,97.2636,-369.657,0,0
378359.6,97.4684,-369.023,0,0
378619.925,97.7524,-368.325,0,0
378880,98.055,-367.644,0,0
379141,98.3849,-366.965,0,0
379401,98.813,-366.248,0,0
379661,99.2403,-365.588,0,0
379922,99.742,-364.991,0,0
380182,100.237,-364.411,0,0
380442,100.682,-363.867,0,0
380703,101.093,-363.314,0,0
380963,101.584,-362.763,0,0
381223,102.034,-362.188,0,0
381483,102.499,-361.655,0,0
381744,102.99,-361.046,0,0
382004,103.47,-360.48,0,0
382264,103.997,-359.93,0,0
382525,104.542,-359.354,0,0
382785,105.152,-358.83,0,0
383045,105.717,-358.348,0,0
383306,106.25,-357.902,0,0
383566,106.783,-357.431,0,0
383826,107.334,-356.972,0,0
384087,107.854,-356.536,0,0
384347,108.386,-356.073,0,0
384607,108.93,-355.584,0,0
384868,109.537,-355.137,0,0
385128,110.049,-354.676,0,0
385388,110.653,-354.295,0,0
385649,111.157,-353.887,0,0
385909,111.642,-353.457,0,0
386169,112.173,-353.036,0,0
386430,112.675,-352.547,0,0
386690,113.222,-352.033,0,0
386950,113.799,-351.551,0,0
387211,114.348,-351.085,0,0
387471,114.909,-350.616,0,0
387731,115.424,-350.144,0,0
387992,115.916,-349.638,0,0
388252,116.452,-349.032,0,0
388512,117.008,-348.36,0,0
388773,117.648,-347.621,0,0
389033,118.407,-346.838,0,0
389293,119.301,-346.115,0,0
389554,120.264,-345.434,0,0
389814,121.28,-344.866,0,0
390074,122.38,-344.357,0,0
390335,123.449,-343.912,0,0
390595,124.53,-343.551,0,0
390855,125.576,-343.195,0,0
391116,126.631,-342.92,0,0
391376,127.705,-342.643,0,0
391636,128.707,-342.416,0,0
391896,129.771,-342.179,0,0
392157,130.823,-341.987,0,0
392417,131.866,-341.812,0,0
392677,132.938,-341.693,0,0
392938,133.98,-341.57,0,0
393198,135.007,-341.521,0,0
393458,136.014,-341.483,0,0
393719,136.938,-341.447,0,0
393979,137.808,-341.296,0,0
394239,138.678,-341.164,0,0
394500,139.605,-340.929,0,0
394760.05,140.553,-340.656,0,0
395020.375,141.632,-340.294,0,0
395280.7,142.8,-339.977,0,0
395541.025,144,-339.636,0,0
395801.35,145.351,-339.357,0,0
396061.675,146.754,-339.073,0,0
396322.0,148.197,-338.766,0,0
396582.325,149.821,-338.523,0,0
396842.65,151.564,-338.322,0,0
397102.975,153.46,-338.185,0,0
397363.3,155.461,-338.216,0,0
397623.625,157.582,-338.325,0,0
397883.95,159.804,-338.646,0,0
398144.275,162.125,-339.134,0,0
398404.6,164.479,-339.785,0,0
398664.925,166.931,-340.704,0,0
398925.25,169.444,-341.822,0,0
399185.575,171.922,-343.213,0,0
399445.9,174.444,-344.967,0,0
399706.225,176.858,-346.949,0,0
399966.55,179.12,-349.344,0,0
400006.6,179.462,-349.704,0,0