File: Accelerated corrosion test data/2025-10-20_13-55-17/sample_8.csv
Frequency (Hz),Impedance (ohms),Phase (Radians),Temperature (C),Humidity (%)
10000.0,306.484,-10978.9,0,0
10260.325,298.382,-10703.5,0,0
10520.65,291.457,-10442.1,0,0
10780.975,284.226,-10193,0,0
11041.3,277.841,-9955.26,0,0
11301.625,271.561,-9729.63,0,0
11561.95,265.533,-9512.24,0,0
11822.275,260.259,-9305.42,0,0
12082.6,258.616,-9105.43,0,0
12342.925,254.845,-8919.22,0,0
12603.25,250.168,-8737.23,0,0
12863.575,247.106,-8566.69,0,0
13123.9,238.424,-8401.45,0,0
13384.225,232.676,-8239.61,0,0
13644.55,229.97,-8084.82,0,0
13904.875,221.483,-7935.96,0,0
14165.2,216.614,-7790.24,0,0
14425.525,212.289,-7651.52,0,0
14685.8,209.1,-7517.03,0,0
14946.175,204.911,-7387,0,0
15206.5,201.948,-7261.46,0,0
15466.825,198.965,-7141.06,0,0
15727.15,195.738,-7023.89,0,0
15987.5,192.677,-6910.75,0,0
16247.8,189.534,-6801.21,0,0
16508.125,186.744,-6694.56,0,0
16768.45,183.519,-6591.64,0,0
17028.775,180.503,-6491.67,0,0
17289.1,177.974,-6394.39,0,0
17549.425,175.622,-6299.85,0,0
17809.75,173.405,-6207.67,0,0
18070.075,171.224,-6119.51,0,0
18330.4,168.135,-6032.71,0,0
18590.725,166.517,-5947.22,0,0
18851.05,167.469,-5864.05,0,0
19111.375,165.771,-5784.45,0,0
19371.7,167.386,-5708.7,0,0
19632.025,164.726,-5636.42,0,0
19892.35,161.469,-5565.51,0,0
20152.675,159.261,-5492.74,0,0
20413.0,159.679,-5423.42,0,0
20673.3,159.724,-5356.51,0,0
20933.65,155.69,-5294.09,0,0
21193.975,151.743,-5230.03,0,0
21454.3,149.439,-5165.81,0,0
21714.625,147.898,-5103.05,0,0
21974.9,146.973,-5043.12,0,0
22235.275,147.488,-4984.69,0,0
22495.6,145.941,-4927.89,0,0
22755.925,144.773,-4874.14,0,0
23016.25,142.877,-4819.79,0,0
23276.6,138.324,-4767.51,0,0
23536.9,136.124,-4713.86,0,0
23797.225,134.745,-4662.76,0,0
24057.55,132.499,-4612.46,0,0
24317.875,131.07,-4563.07,0,0
24578.2,128.622,-4513.99,0,0
24838.525,127.565,-4466.37,0,0
25098.85,126.862,-4420.19,0,0
25359.175,124.862,-4374.79,0,0
25619.5,124.457,-4329.89,0,0
25879.8,123.291,-4285.46,0,0
26140.1,122.544,-4243.43,0,0
26400.5,120.875,-4201.63,0,0
26660.8,119.228,-4159.6,0,0
26921.1,119.428,-4118.81,0,0
27181.4,119.649,-4079.79,0,0
27441.8,118.964,-4040.58,0,0
27702.1,117.715,-4003.81,0,0
27962.4,115.224,-3966.23,0,0
28222.7,116.388,-3928.67,0,0
28483.1,115.225,-3892.72,0,0
28743.4,114.821,-3857.3,0,0
29003.7,114.105,-3823.54,0,0
29264,114.387,-3789.31,0,0
29524.4,113.048,-3756.13,0,0
29784.7,112.089,-3722.85,0,0
30045,112.079,-3691.21,0,0
30305.3,110.99,-3660.07,0,0
30565.7,109.68,-3629.06,0,0
30826,108.57,-3598.19,0,0
31086.3,107.525,-3567.91,0,0
31346.6,106.377,-3537.38,0,0
31607,106.106,-3507.81,0,0
31867.3,105.409,-3478.67,0,0
32127.6,104.87,-3450.17,0,0
32387.9,104.563,-3421.44,0,0
32648.3,104.348,-3393.78,0,0
32908.6,104.648,-3366.33,0,0
33168.9,104.226,-3339.31,0,0
33429.2,104.641,-3313.04,0,0
33689.6,105.198,-3287.44,0,0
33949.9,105.242,-3262.1,0,0
34210.2,105.513,-3237.13,0,0
34470.5,105.688,-3212.96,0,0
34730.9,106.195,-3188.38,0,0
34991.2,107.137,-3165.02,0,0
35251.5,107.944,-3142.07,0,0
35511.8,108.568,-3120.33,0,0
35772.2,108.965,-3098.98,0,0
36032.5,109.134,-3077.97,0,0
36292.8,109.2,-3057.45,0,0
36553.1,108.529,-3038,0,0
36813.5,107.333,-3017.94,0,0
37073.8,106.904,-2998.03,0,0
37334.1,105.514,-2979.01,0,0
37594.4,103.162,-2960.15,0,0
37854.8,101.121,-2940.35,0,0
38115.1,99.3386,-2920.78,0,0
38375.4,96.8608,-2901.48,0,0
38635.7,95.0078,-2881.91,0,0
38896.1,92.9479,-2862.43,0,0
39156.4,90.9885,-2842.83,0,0
39416.7,89.7413,-2823.09,0,0
39677,88.5489,-2803.88,0,0
39937.4,87.4175,-2784.78,0,0
40197.7,86.7036,-2765.28,0,0
40458,86.8896,-2746.89,0,0
40718.3,86.4203,-2729.44,0,0
40978.7,85.4625,-2711.88,0,0
41239,84.7591,-2694.23,0,0
41499.3,84.0508,-2676.63,0,0
41759.6,83.5408,-2659.92,0,0
42020,82.7319,-2643.23,0,0
42280.275,82.0986,-2626.07,0,0
42540.6,81.5397,-2609.15,0,0
42800.925,81.3957,-2592.59,0,0
43061.25,81.8762,-2576.59,0,0
43321.575,81.7532,-2561.44,0,0
43581.9,81.8205,-2546.5,0,0
43842.225,80.7847,-2531.83,0,0
44102.55,79.583,-2517.01,0,0
44362.875,78.83,-2501.56,0,0
44623.2,78.0131,-2486.83,0,0
44883.525,77.0338,-2471.76,0,0
45143.85,76.7478,-2457.15,0,0
45404.175,76.2042,-2442.57,0,0
45664.5,75.4702,-2428.17,0,0
45924.825,75.091,-2414.01,0,0
46185.15,74.3384,-2400.1,0,0
46445.475,73.958,-2386.07,0,0
46705.8,73.317,-2371.98,0,0
46966.125,72.9907,-2358.59,0,0
47226.45,72.7628,-2345.1,0,0
47486.775,72.2203,-2331.61,0,0
47747.1,71.9525,-2318.5,0,0
48007.425,71.6187,-2305.63,0,0
48267.75,71.2207,-2292.75,0,0
48528.075,70.8421,-2279.9,0,0
48788.4,70.4153,-2267.53,0,0
49048.725,69.9226,-2254.93,0,0
49309.05,69.5559,-2242.53,0,0
49569.375,69.1446,-2230.34,0,0
49829.7,68.7699,-2218.11,0,0
50090.025,68.3749,-2205.94,0,0
50350.35,68.1079,-2194.03,0,0
50610.675,67.7785,-2182.29,0,0
50871.0,67.5182,-2170.53,0,0
51131.325,67.3029,-2158.86,0,0
51391.65,67.0308,-2147.3,0,0
51651.975,67.1533,-2135.92,0,0
51912.3,66.8536,-2124.85,0,0
52172.625,66.746,-2113.74,0,0
52432.95,66.6174,-2102.81,0,0
52693.275,66.4946,-2091.66,0,0
52953.6,66.5549,-2081.07,0,0
53213.925,66.7767,-2070.56,0,0
53474.25,66.9373,-2060.29,0,0
53734.575,67.0535,-2050.63,0,0
53994.9,66.3934,-2041.22,0,0
54255.225,65.6847,-2031,0,0
54515.55,65.3138,-2021.15,0,0
54775.875,64.6383,-2011.3,0,0
55036.2,64.1167,-2001.5,0,0
55296.525,63.2634,-1991.77,0,0
55556.85,62.6726,-1981.72,0,0
55817.175,62.1151,-1971.83,0,0
56077.5,61.5753,-1961.97,0,0
56337.825,61.1456,-1952.23,0,0
56598.15,60.8858,-1942.54,0,0
56858.475,60.6328,-1932.88,0,0
57118.8,60.4199,-1923.35,0,0
57379.125,60.2095,-1914.01,0,0
57639.45,60.0114,-1904.73,0,0
57899.775,59.7918,-1895.46,0,0
58160.1,59.6987,-1886.32,0,0
58420.4,59.6331,-1877.44,0,0
58680.7,59.4425,-1868.55,0,0
58941.1,59.2755,-1859.77,0,0
59201.4,59.1831,-1851.12,0,0
59461.7,58.8563,-1842.5,0,0
59722,58.5644,-1833.92,0,0
59982.4,58.2018,-1825.34,0,0
60242.7,57.9712,-1816.65,0,0
60503,57.754,-1808.07,0,0
60763.3,57.7008,-1799.61,0,0
61023.7,57.6353,-1791.24,0,0
61284,57.612,-1783.04,0,0
61544.3,57.6621,-1775,0,0
61804.6,57.4507,-1767.03,0,0
62065,57.1723,-1758.89,0,0
62325.3,57.1068,-1750.66,0,0
62585.6,57.2433,-1742.66,0,0
62845.9,57.392,-1734.79,0,0
63106.3,57.5736,-1727.08,0,0
63366.6,57.703,-1719.36,0,0
63626.9,57.8792,-1712.13,0,0
63887.2,57.8295,-1704.82,0,0
64147.6,57.8115,-1697.51,0,0
64407.9,57.7628,-1690.41,0,0
64668.2,57.5658,-1683.16,0,0
64928.5,57.4669,-1675.91,0,0
65188.9,57.3799,-1668.98,0,0
65449.2,57.0107,-1661.97,0,0
65709.5,56.8928,-1654.81,0,0
65969.8,56.8802,-1647.97,0,0
66230.2,56.5376,-1641.28,0,0
66490.5,56.0365,-1634.41,0,0
66750.8,55.5639,-1627.41,0,0
67011.1,55.2757,-1620.26,0,0
67271.5,55.1601,-1613.36,0,0
67531.8,54.9225,-1606.52,0,0
67792.1,54.7706,-1599.64,0,0
68052.4,54.5256,-1592.98,0,0
68312.8,54.3149,-1586.35,0,0
68573.1,54.0884,-1579.41,0,0
68833.4,53.9776,-1572.69,0,0
69093.7,53.839,-1565.87,0,0
69354.1,53.8648,-1559.29,0,0
69614.4,53.8976,-1552.68,0,0
69874.7,54.0574,-1546.28,0,0
70135,54.0659,-1540.01,0,0
70395.4,54.0787,-1533.7,0,0
70655.7,54.072,-1527.59,0,0
70916,53.9394,-1521.33,0,0
71176.3,53.9168,-1515.06,0,0
71436.7,54.0374,-1509.06,0,0
71697,54.0137,-1503.12,0,0
71957.3,53.7756,-1497.25,0,0
72217.6,53.7633,-1491.29,0,0
72478,53.7283,-1485.38,0,0
72738.3,53.3928,-1479.63,0,0
72998.6,53.0789,-1473.77,0,0
73258.9,52.9269,-1467.72,0,0
73519.3,52.9144,-1461.77,0,0
73779.6,52.9224,-1456.11,0,0
74039.9,52.6395,-1450.36,0,0
74300.225,52.4549,-1444.65,0,0
74560.55,52.2607,-1438.92,0,0
74820.875,52.0807,-1433.12,0,0
75081.2,52.0617,-1427.5,0,0
75341.525,51.9474,-1421.79,0,0
75601.85,51.8332,-1416.19,0,0
75862.175,51.7722,-1410.57,0,0
76122.5,51.7769,-1404.99,0,0
76382.825,51.7596,-1399.49,0,0
76643.15,51.8177,-1394.09,0,0
76903.475,51.6847,-1388.75,0,0
77163.8,51.5235,-1383.45,0,0
77424.125,51.4103,-1378.09,0,0
77684.45,51.297,-1372.74,0,0
77944.775,51.1966,-1367.42,0,0
78205.1,51.105,-1362.18,0,0
78465.425,50.9398,-1357.02,0,0
78725.75,50.7065,-1351.7,0,0
78986.075,50.5931,-1346.37,0,0
79246.4,50.4864,-1341.22,0,0
79506.725,50.3235,-1335.94,0,0
79767.05,50.2072,-1330.67,0,0
80027.375,50.1169,-1325.47,0,0
80287.7,50.0643,-1320.18,0,0
80548.025,50.0092,-1315.02,0,0
80808.35,50.0914,-1309.84,0,0
81068.675,50.0039,-1304.66,0,0
81329.0,50.0864,-1299.46,0,0
81589.325,50.243,-1294.38,0,0
81849.65,50.35,-1289.3,0,0
82109.975,50.5277,-1284.34,0,0
82370.3,50.6731,-1279.45,0,0
82630.625,50.7838,-1274.42,0,0
82890.95,50.9961,-1269.45,0,0
83151.275,51.2894,-1264.7,0,0
83411.6,51.4076,-1259.93,0,0
83671.925,51.7435,-1255.06,0,0
83932.25,52.1797,-1250.42,0,0
84192.575,52.4554,-1246.08,0,0
84452.9,52.7142,-1241.65,0,0
84713.225,52.8141,-1237.68,0,0
84973.55,52.4225,-1233.43,0,0
85233.875,51.9467,-1228.87,0,0
85494.2,51.6854,-1224.01,0,0
85754.525,51.6286,-1219.31,0,0
86014.85,51.5801,-1214.48,0,0
86275.175,51.6124,-1209.78,0,0
86535.5,51.599,-1205.06,0,0
86795.825,51.8133,-1200.33,0,0
87056.15,52.0714,-1195.76,0,0
87316.475,52.2121,-1191.33,0,0
87576.8,52.255,-1186.84,0,0
87837.125,52.3064,-1182.28,0,0
88097.45,52.4928,-1177.7,0,0
88357.775,52.6764,-1173.23,0,0
88618.1,52.7616,-1168.72,0,0
88878.425,52.962,-1164.16,0,0
89138.75,53.0211,-1159.71,0,0
89399.075,53.2642,-1155.09,0,0
89659.4,53.4993,-1150.46,0,0
89919.725,53.7847,-1145.74,0,0
90180,54.3519,-1141.15,0,0
90440.4,54.9122,-1136.65,0,0
90700.7,55.6647,-1132,0,0
90961,56.6434,-1127.64,0,0
91221.3,57.5435,-1123.55,0,0
91481.7,58.5166,-1119.67,0,0
91742,59.1642,-1116.18,0,0
92002.3,59.5542,-1112.57,0,0
92262.6,59.7403,-1108.83,0,0
92523,59.8886,-1104.88,0,0
92783.3,60.138,-1100.76,0,0
93043.6,60.6483,-1096.55,0,0
93303.9,61.2786,-1092.72,0,0
93564.3,61.8863,-1088.78,0,0
93824.6,62.5134,-1085,0,0
94084.9,63.17,-1081.36,0,0
94345.2,63.6742,-1078.01,0,0
94605.6,63.6185,-1074.43,0,0
94865.9,63.8769,-1070.51,0,0
95126.2,64.1539,-1066.71,0,0
95386.5,64.4331,-1062.69,0,0
95646.9,65.0087,-1058.85,0,0
95907.2,65.2662,-1054.99,0,0
96167.5,65.7841,-1051,0,0
96427.8,66.306,-1046.94,0,0
96688.2,67.1632,-1043.01,0,0
96948.5,68.0267,-1039.29,0,0
97208.8,68.7149,-1035.59,0,0
97469.1,69.4983,-1031.82,0,0
97729.5,70.3802,-1028.04,0,0
97989.8,71.441,-1024.36,0,0
98250.1,72.5701,-1020.85,0,0
98510.4,73.7095,-1017.4,0,0
98770.8,75.0352,-1014.2,0,0
99031.1,76.2227,-1011.35,0,0
99291.4,77.0946,-1008.52,0,0
99551.7,77.8212,-1005.58,0,0
99812.1,78.5892,-1002.49,0,0
100072,79.5254,-999.366,0,0
100333,80.6693,-996.422,0,0
100593,81.7579,-993.73,0,0
100853,82.754,-991.145,0,0
101114,83.7617,-988.722,0,0
101374,84.5657,-986.403,0,0
101634,85.3108,-984.072,0,0
101895,85.9598,-982.027,0,0
102155,86.359,-979.926,0,0
102415,86.6549,-977.853,0,0
102676,86.7459,-975.695,0,0
102936,86.7199,-973.434,0,0
103196,86.6998,-971.02,0,0
103457,86.7218,-968.526,0,0
103717,86.8352,-966.055,0,0
103977,86.9202,-963.724,0,0
104238,86.8691,-961.492,0,0
104498,86.659,-959.209,0,0
104758,86.1944,-956.803,0,0
105019,85.6909,-954.143,0,0
105279,85.3509,-951.267,0,0
105539,85.1757,-948.292,0,0
105800,85.0667,-945.437,0,0
106060,85.0119,-942.454,0,0
106320.175,85.1281,-939.568,0,0
106580.5,85.2726,-936.835,0,0
106840.825,85.2809,-934.247,0,0
107101.15,85.2056,-931.538,0,0
107361.475,85.2837,-928.822,0,0
107621.8,85.1452,-926.263,0,0
107882.125,84.7952,-923.573,0,0
108142.45,84.6384,-920.487,0,0
108402.775,84.5996,-917.392,0,0
108663.1,84.7224,-914.33,0,0
108923.425,85.029,-911.355,0,0
109183.75,85.4339,-908.447,0,0
109444.075,85.813,-905.723,0,0
109704.4,86.1611,-903.099,0,0
109964.725,86.5886,-900.547,0,0
110225.05,86.8729,-898.127,0,0
110485.375,86.9889,-895.633,0,0
110745.7,87.2044,-893.182,0,0
111006.025,87.2468,-890.672,0,0
111266.35,87.4249,-888.193,0,0
111526.675,87.5215,-885.478,0,0
111787.0,87.7679,-883.059,0,0
112047.325,87.9918,-880.695,0,0
112307.65,88.0787,-878.291,0,0
112567.975,88.2228,-875.967,0,0
112828.3,88.2945,-873.655,0,0
113088.625,88.2545,-871.312,0,0
113348.95,88.2578,-869.034,0,0
113609.275,88.148,-866.663,0,0
113869.6,88.089,-864.286,0,0
114129.925,88.0478,-861.844,0,0
114390.25,87.965,-859.419,0,0
114650.575,88.0438,-857.058,0,0
114910.9,88.0081,-854.64,0,0
115171.225,88.0641,-852.297,0,0
115431.55,88.0128,-850.216,0,0
115691.875,87.7077,-848.132,0,0
115952.2,87.2473,-845.775,0,0
116212.525,86.8494,-843.212,0,0
116472.85,86.5689,-840.662,0,0
116733.175,86.3148,-838.007,0,0
116993.5,86.1685,-835.406,0,0
117253.825,86.0474,-832.78,0,0
117514.15,86.0145,-830.211,0,0
117774.475,85.9703,-827.665,0,0
118034.8,85.9506,-825.212,0,0
118295.125,85.8648,-822.71,0,0
118555.45,85.7734,-820.244,0,0
118815.775,85.7925,-817.746,0,0
119076.1,85.8064,-815.289,0,0
119336.425,85.6331,-813.12,0,0
119596.75,85.363,-810.72,0,0
119857.075,85.1573,-808.199,0,0
120117.4,84.958,-805.713,0,0
120377.725,84.7821,-803.226,0,0
120638.05,84.5634,-800.68,0,0
120898.375,84.4303,-798.025,0,0
121158.7,84.4414,-795.471,0,0
121419.025,84.4146,-793.091,0,0
121679.35,84.2533,-790.658,0,0
121939.675,84.0569,-788.199,0,0
122200.0,83.9359,-785.673,0,0
122460,83.8304,-783.187,0,0
122721,83.6827,-780.752,0,0
122981,83.5157,-778.321,0,0
123241,83.3317,-775.845,0,0
123502,83.1527,-773.369,0,0
123762,82.9471,-770.923,0,0
124022,82.7013,-768.421,0,0
124283,82.447,-765.901,0,0
124543,82.1683,-763.353,0,0
124803,81.9131,-760.751,0,0
125064,81.6902,-758.155,0,0
125324,81.4352,-755.505,0,0
125584,81.2058,-752.87,0,0
125845,80.9486,-750.162,0,0
126105,80.7235,-747.431,0,0
126365,80.5459,-744.645,0,0
126626,80.4225,-741.87,0,0
126886,80.3422,-739.123,0,0
127146,80.204,-736.371,0,0
127406,80.1398,-733.569,0,0
127667,80.0545,-730.76,0,0
127927,80.0595,-727.909,0,0
128187,80.1502,-725.118,0,0
128448,80.231,-722.397,0,0
128708,80.2871,-719.742,0,0
128968,80.264,-717.051,0,0
129229,80.2602,-714.353,0,0
129489,80.2241,-711.647,0,0
129749,80.1289,-708.833,0,0
130010,80.0355,-705.88,0,0
130270,80.056,-702.803,0,0
130530,80.3483,-699.728,0,0
130791,80.8214,-696.89,0,0
131051,81.1861,-694.171,0,0
131311,81.587,-691.487,0,0
131572,81.9168,-688.981,0,0
131832,82.0505,-686.413,0,0
132092,82.2281,-683.761,0,0
132353,82.3871,-681.065,0,0
132613,82.6354,-678.401,0,0
132873,82.887,-675.847,0,0
133134,82.9896,-673.292,0,0
133394,82.984,-670.563,0,0
133654,83.0845,-667.797,0,0
133915,83.2123,-664.995,0,0
134175,83.3636,-662.12,0,0
134435,83.6517,-659.23,0,0
134696,83.9716,-656.416,0,0
134956,84.3371,-653.52,0,0
135216,84.7861,-650.75,0,0
135477,85.2433,-648.044,0,0
135737,85.8058,-645.338,0,0
135997,86.4064,-642.841,0,0
136258,86.7532,-640.589,0,0
136518,86.9039,-638.249,0,0
136778,86.9896,-635.83,0,0
137039,86.9498,-633.382,0,0
137299,86.8225,-630.768,0,0
137559,86.6462,-628.075,0,0
137819,86.4382,-625.213,0,0
138080,86.276,-622.229,0,0
138340.125,86.1351,-619.009,0,0
138600.45,86.2433,-615.673,0,0
138860.775,86.553,-612.377,0,0
139121.1,86.9328,-609.155,0,0
139381.425,87.3721,-606.027,0,0
139641.75,87.7517,-602.9,0,0
139902.075,88.1901,-599.689,0,0
140162.4,88.7323,-596.568,0,0
140422.725,89.1695,-593.516,0,0
140683.05,89.5265,-590.446,0,0
140943.375,89.909,-587.149,0,0
141203.7,90.4693,-583.834,0,0
141464.025,91.0862,-580.675,0,0
141724.35,91.5287,-577.533,0,0
141984.675,91.9072,-574.18,0,0
142245.0,92.4427,-570.676,0,0
142505.325,93.0962,-567.154,0,0
142765.65,93.8014,-563.621,0,0
143025.975,94.6357,-560.036,0,0
143286.3,95.5005,-556.365,0,0
143546.625,96.6511,-552.81,0,0
143806.95,97.7023,-549.389,0,0
144067.275,98.6278,-545.907,0,0
144327.6,99.6297,-542.243,0,0
144587.925,100.768,-538.458,0,0
144848.25,102.198,-534.616,0,0
145108.575,103.824,-530.915,0,0
145368.9,105.479,-527.382,0,0
145629.225,107.176,-523.868,0,0
145889.55,108.858,-520.442,0,0
146149.875,110.504,-516.887,0,0
146410.2,112.368,-513.234,0,0
146670.525,114.537,-509.696,0,0
146930.85,116.816,-506.479,0,0
147191.175,118.982,-503.516,0,0
147451.5,120.896,-500.67,0,0
147711.825,122.512,-497.742,0,0
147972.15,123.995,-494.468,0,0
148232.475,125.572,-490.831,0,0
148492.8,127.446,-486.868,0,0
148753.125,129.738,-482.83,0,0
149013.45,132.35,-478.886,0,0
149273.775,135.132,-475.016,0,0
149534.1,138.042,-471.048,0,0
149794.425,141.352,-466.978,0,0
150054.75,145.306,-463.143,0,0
150315.075,149.562,-459.516,0,0
150575.4,154.164,-456.133,0,0
150835.725,159.166,-453.176,0,0
151096.05,164.429,-450.668,0,0
151356.375,170.134,-448.876,0,0
151616.7,175.816,-448.06,0,0
151877.025,180.865,-448.09,0,0
152137.35,185.324,-448.316,0,0
152397.675,189.517,-448.876,0,0
152658.0,193.26,-449.754,0,0
152918.325,196.425,-450.468,0,0
153178.65,199.566,-451.342,0,0
153438.975,202.072,-452.403,0,0
153699.3,203.983,-453.248,0,0
153959.625,205.599,-453.456,0,0
154219.95,207.669,-453.517,0,0
154480,209.29,-453.815,0,0
154741,210.767,-453.054,0,0
155001,213.334,-452.065,0,0
155261,216.834,-451.81,0,0
155522,220.453,-452.763,0,0
155782,223.383,-454.9,0,0
156042,225.426,-457.544,0,0
156303,226.324,-460.632,0,0
156563,225.576,-463.438,0,0
156823,223.923,-465.114,0,0
157084,221.567,-465.654,0,0
157344,219.318,-464.659,0,0
157604,217.667,-462.309,0,0
157864,217.496,-459.36,0,0
158125,218.717,-456.931,0,0
158385,220.205,-455.172,0,0
158645,221.893,-453.981,0,0
158906,223.407,-453.169,0,0
159166,224.911,-452.498,0,0
159426,226.76,-452.512,0,0
159687,227.998,-453.543,0,0
159947,227.755,-454.67,0,0
160207,226.519,-455.059,0,0
160468,224.923,-454.625,0,0
160728,222.92,-453.261,0,0
160988,221.344,-450.583,0,0
161249,220.577,-447.286,0,0
161509,220.691,-443.65,0,0
161769,221.622,-439.879,0,0
162030,223.655,-436.43,0,0
162290,226.42,-433.72,0,0
162550,229.626,-431.99,0,0
162811,232.442,-431.422,0,0
163071,234.474,-431.12,0,0
163331,236.231,-431.024,0,0
163592,237.629,-431.054,0,0
163852,238.452,-430.955,0,0
164112,239.224,-430.567,0,0
164373,240.052,-430.01,0,0
164633,241.055,-429.57,0,0
164893,242.091,-429.465,0,0
165154,243.094,-429.541,0,0
165414,243.798,-430.206,0,0
165674,243.84,-431.228,0,0
165935,242.904,-432.273,0,0
166195,241.262,-432.478,0,0
166455,239.844,-432.369,0,0
166716,237.814,-432.352,0,0
166976,235.1,-431.672,0,0
167236,232.305,-429.835,0,0
167497,230.057,-427.519,0,0
167757,227.951,-424.98,0,0
168017,225.968,-422.211,0,0
168277,224.122,-419.141,0,0
168538,222.338,-416.062,0,0
168798,220.347,-412.557,0,0
169058,218.549,-408.433,0,0
169319,217.294,-403.861,0,0
169579,216.544,-399.343,0,0
169839,215.783,-394.879,0,0
170100,215.217,-390.088,0,0
170360.075,214.901,-385.119,0,0
170620.4,214.973,-380.095,0,0
170880.725,215.217,-375.106,0,0
171141.05,215.577,-370.281,0,0
171401.375,215.682,-365.126,0,0
171661.7,216.065,-359.266,0,0
171922.025,217.409,-353.211,0,0
172182.35,219.28,-347.483,0,0
172442.675,221.509,-342.153,0,0
172703.0,223.545,-337.127,0,0
172963.325,225.783,-332.008,0,0
173223.65,228.178,-326.786,0,0
173483.975,230.87,-321.71,0,0
173744.3,233.871,-316.945,0,0
174004.625,236.647,-312.526,0,0
174264.95,239.558,-308.207,0,0
174525.275,242.212,-304.399,0,0
174785.6,244.111,-300.465,0,0
175045.925,245.698,-295.751,0,0
175306.25,247.543,-290.478,0,0
175566.575,249.713,-284.712,0,0
175826.9,252.444,-278.584,0,0
176087.225,255.874,-272.511,0,0
176347.55,259.692,-266.705,0,0
176607.875,263.739,-261.177,0,0
176868.2,267.791,-255.905,0,0
177128.525,271.625,-250.685,0,0
177388.85,275.147,-245.212,0,0
177649.175,278.689,-238.985,0,0
177909.5,282.768,-232.196,0,0
178169.825,287.835,-225.033,0,0
178430.15,293.853,-218.055,0,0
178690.475,300.392,-211.56,0,0
178950.8,307.205,-205.184,0,0
179211.125,314.734,-199.1,0,0
179471.45,322.425,-193.802,0,0
179731.775,329.52,-188.327,0,0
179992.1,338.109,-181.558,0,0
180252.425,347.719,-176.693,0,0
180512.75,356.718,-172.857,0,0
180773.075,365.333,-168.806,0,0
181033.4,374.316,-164.592,0,0
181293.725,383.692,-160.526,0,0
181554.05,393.385,-156.278,0,0
181814.375,404.223,-152.192,0,0
182074.7,416.12,-149.108,0,0
182335.025,428.534,-147.363,0,0
182595.35,440.786,-147.149,0,0
182855.675,452.241,-148.092,0,0
183116.0,462.794,-149.333,0,0
183376.325,472.97,-150.977,0,0
183636.65,482.343,-153.034,0,0
183896.975,490.459,-155.076,0,0
184157.3,497.68,-155.883,0,0
184417.625,505.542,-154.99,0,0
184677.95,515.191,-153.877,0,0
184938.275,525.833,-153.706,0,0
185198.6,536.992,-154.424,0,0
185458.925,548.606,-156.365,0,0
185719.25,559.426,-159.567,0,0
185979.575,569.298,-162.794,0,0
186239.9,579.616,-165.967,0,0
186500,589.913,-170.214,0,0
186761,599.087,-175.023,0,0
187021,607.917,-179.645,0,0
187281,616.374,-184.531,0,0
187542,624.323,-189.313,0,0
187802,631.845,-193.95,0,0
188062,639.369,-198.04,0,0
188322,647.379,-202.345,0,0
188583,655.225,-207.26,0,0
188843,662.444,-212.296,0,0
189103,669.287,-217.211,0,0
189364,675.615,-221.862,0,0
189624,681.984,-225.725,0,0
189884,688.964,-229.459,0,0
190145,695.725,-233.351,0,0
190405,702.516,-236.569,0,0
190665,710.019,-239.422,0,0
190926,718.801,-242.059,0,0
191186,728.904,-246.289,0,0
191446,738.436,-252.101,0,0
191707,746.905,-258.676,0,0
191967,754.083,-265.307,0,0
192227,760.172,-270.842,0,0
192488,766.288,-274.891,0,0
192748,773.392,-277.671,0,0
193008,782.117,-279.489,0,0
193269,793.031,-281.644,0,0
193529,805.426,-284.704,0,0
193789,819.653,-288.857,0,0
194050,835.037,-295.363,0,0
194310,850.262,-303.875,0,0
194570,865.696,-313.782,0,0
194831,881.014,-325.779,0,0
195091,895.425,-339.384,0,0
195351,909.231,-353.916,0,0
195612,922.672,-369.459,0,0
195872,936.278,-386.566,0,0
196132,949.319,-406.16,0,0
196393,960.395,-427.965,0,0
196653,969.117,-450.75,0,0
196913,976.378,-473.987,0,0
197174,982.488,-498.098,0,0
197434,987.007,-523.515,0,0
197694,988.95,-550.199,0,0
197955,987.958,-577.22,0,0
198215,984.169,-603.495,0,0
198475,978.305,-628.843,0,0
198735,970.845,-653.327,0,0
198996,961.782,-677.088,0,0
199256,950.898,-700.446,0,0
199516,937.588,-722.905,0,0
199777,921.743,-743.412,0,0
200037,904.111,-760.815,0,0
200297,886.596,-774.973,0,0
200558,869.466,-786.911,0,0
200818,853.492,-797.42,0,0
201078,838.463,-806.813,0,0
201339,824.161,-816.486,0,0
201599,809.669,-826.372,0,0
201859,794.302,-836.242,0,0
202120,777.132,-845.786,0,0
202380.025,757.852,-853.137,0,0
202640.35,738.093,-857.171,0,0
202900.675,719.5,-858.453,0,0
203161.0,702.651,-858.084,0,0
203421.325,687.007,-856.668,0,0
203681.65,673,-854.253,0,0
203941.975,660.452,-851.921,0,0
204202.3,648.702,-849.658,0,0
204462.625,637.115,-847.817,0,0
204722.95,625.43,-845.371,0,0
204983.275,613.969,-842.231,0,0
205243.6,602.838,-838.156,0,0
205503.925,592.298,-833.027,0,0
205764.25,582.769,-826.971,0,0
206024.575,574.494,-820.384,0,0
206284.9,567.423,-813.292,0,0
206545.225,561.719,-805.779,0,0
206805.55,557.701,-798.472,0,0
207065.875,555.148,-791.967,0,0
207326.2,553.335,-786.363,0,0
207586.525,552.001,-781.433,0,0
207846.85,551.292,-777.059,0,0
208107.175,550.962,-773.601,0,0
208367.5,550.633,-770.912,0,0
208627.825,550.072,-768.768,0,0
208888.15,549.397,-766.918,0,0
209148.475,548.549,-765.203,0,0
209408.8,547.394,-763.231,0,0
209669.125,546.453,-760.953,0,0
209929.45,546.144,-758.271,0,0
210189.775,546.655,-755.968,0,0
210450.1,547.8,-753.876,0,0
210710.425,549.496,-752.452,0,0
210970.75,551.472,-751.684,0,0
211231.075,553.636,-751.568,0,0
211491.4,555.858,-751.888,0,0
211751.725,558.426,-752.898,0,0
212012.05,560.949,-754.985,0,0
212272.375,562.841,-757.728,0,0
212532.7,564.395,-760.894,0,0
212793.025,565.604,-764.253,0,0
213053.35,566.339,-768.119,0,0
213313.675,566.592,-772.225,0,0
213574.0,566.228,-776.325,0,0
213834.325,565.787,-780.319,0,0
214094.65,565.025,-784.318,0,0
214354.975,564.278,-788.194,0,0
214615.3,563.463,-792.169,0,0
214875.625,562.426,-796.618,0,0
215135.95,561.183,-801.191,0,0
215396.275,559.643,-805.826,0,0
215656.6,557.874,-810.685,0,0
215916.925,555.905,-815.809,0,0
216177.25,553.357,-821.27,0,0
216437.575,549.84,-826.65,0,0
216697.9,545.67,-831.018,0,0
216958.225,541.799,-835.411,0,0
217218.55,537.711,-839.697,0,0
217478.875,533.511,-843.963,0,0
217739.2,529.14,-848.056,0,0
217999.525,524.56,-852.321,0,0
218259.85,519.633,-856.39,0,0
218520,514.262,-860.297,0,0
218780,508.602,-863.954,0,0
219041,502.638,-867.252,0,0
219301,496.485,-870.302,0,0
219561,490.1,-872.85,0,0
219822,483.799,-875.18,0,0
220082,477.158,-877.224,0,0
220342,470.257,-878.786,0,0
220603,463.258,-879.735,0,0
220863,456.334,-880.005,0,0
221123,449.859,-879.838,0,0
221384,443.643,-879.157,0,0
221644,437.825,-878.349,0,0
221904,432.283,-877.465,0,0
222165,426.999,-876.399,0,0
222425,421.734,-875.094,0,0
222685,416.821,-873.658,0,0
222946,412.067,-871.894,0,0
223206,407.971,-869.692,0,0
223466,404.482,-867.697,0,0
223727,401.448,-865.97,0,0
223987,398.567,-864.59,0,0
224247,395.895,-863.494,0,0
224508,393.228,-862.419,0,0
224768,390.879,-861.316,0,0
225028,388.745,-860.464,0,0
225289,386.828,-860.202,0,0
225549,384.852,-860.264,0,0
225809,382.768,-860.829,0,0
226070,380.48,-861.538,0,0
226330,377.932,-862.448,0,0
226590,375.112,-863.609,0,0
226851,371.913,-864.774,0,0
227111,368.377,-866.019,0,0
227371,364.074,-866.952,0,0
227632,360.082,-867.556,0,0
227892,355.746,-867.794,0,0
228152,351.591,-867.658,0,0
228413,347.747,-867.334,0,0
228673,344.315,-866.997,0,0
228933,341.074,-866.893,0,0
229193,337.865,-867.303,0,0
229454,334.503,-867.846,0,0
229714,330.761,-868.473,0,0
229974,326.908,-869.265,0,0
230235,322.743,-869.977,0,0
230495,318.214,-870.781,0,0
230755,313.28,-871.273,0,0
231016,308.285,-871.446,0,0
231276,303.073,-871.469,0,0
231536,297.75,-871.253,0,0
231797,292.301,-870.688,0,0
232057,286.928,-869.859,0,0
232317,281.529,-868.913,0,0
232578,276.128,-867.815,0,0
232838,270.647,-866.564,0,0
233098,265.012,-864.988,0,0
233359,259.38,-863.187,0,0
233619,253.555,-860.941,0,0
233879,247.895,-858.261,0,0
234140,242.434,-855.289,0,0
234400,237.164,-852.016,0,0
234660.3,232.035,-848.373,0,0
234920.625,227.207,-844.438,0,0
235180.95,222.806,-840.205,0,0
235441.275,218.813,-835.813,0,0
235701.6,215.179,-831.555,0,0
235961.925,211.796,-827.142,0,0
236222.25,208.736,-822.767,0,0
236482.575,205.874,-818.427,0,0
236742.9,203.282,-814.115,0,0
237003.225,200.909,-809.878,0,0
237263.55,198.699,-805.706,0,0
237523.875,196.654,-801.544,0,0
237784.2,194.684,-797.403,0,0
238044.525,192.9,-793.218,0,0
238304.85,191.301,-789.014,0,0
238565.175,189.968,-784.696,0,0
238825.5,189.068,-780.377,0,0
239085.825,188.551,-776.293,0,0
239346.15,188.386,-772.556,0,0
239606.475,188.363,-769.108,0,0
239866.8,188.403,-765.977,0,0
240127.125,188.47,-763.184,0,0
240387.45,188.579,-760.61,0,0
240647.775,188.679,-758.277,0,0
240908.1,188.754,-756.191,0,0
241168.425,188.735,-754.542,0,0
241428.75,188.396,-753.109,0,0
241689.075,187.766,-751.781,0,0
241949.4,186.783,-750.424,0,0
242209.725,185.528,-748.887,0,0
242470.05,184.171,-747.211,0,0
242730.375,182.795,-745.263,0,0
242990.7,181.466,-743.239,0,0
243251.025,180.222,-741.083,0,0
243511.35,178.964,-738.974,0,0
243771.675,177.713,-736.722,0,0
244032.0,176.529,-734.303,0,0
244292.325,175.465,-731.857,0,0
244552.65,174.591,-729.333,0,0
244812.975,173.877,-726.902,0,0
245073.3,173.032,-724.664,0,0
245333.625,172.234,-722.26,0,0
245593.95,171.421,-719.67,0,0
245854.275,170.95,-717.037,0,0
246114.6,170.654,-714.424,0,0
246374.925,170.533,-712.08,0,0
246635.25,170.543,-709.886,0,0
246895.575,170.543,-707.928,0,0
247155.9,170.418,-706.116,0,0
247416.225,170.151,-704.358,0,0
247676.55,169.777,-702.56,0,0
247936.875,169.447,-700.705,0,0
248197.2,169.11,-698.827,0,0
248457.525,168.778,-696.964,0,0
248717.85,168.461,-695.136,0,0
248978.175,168.112,-693.235,0,0
249238.5,167.791,-691.345,0,0
249498.825,167.484,-689.372,0,0
249759.15,167.294,-687.438,0,0
250019.475,167.185,-685.455,0,0
250279.8,167.117,-683.485,0,0
250540,167.164,-681.437,0,0
250800,167.238,-679.53,0,0
251061,167.469,-677.584,0,0
251321,167.795,-675.734,0,0
251581,168.286,-673.959,0,0
251842,168.858,-672.388,0,0
252102,169.398,-670.962,0,0
252362,170.004,-669.64,0,0
252623,170.608,-668.443,0,0
252883,171.238,-667.529,0,0
253143,171.775,-666.84,0,0
253404,172.129,-666.277,0,0
253664,172.349,-665.868,0,0
253924,172.31,-665.504,0,0
254185,171.996,-665.162,0,0
254445,171.545,-664.679,0,0
254705,170.98,-664.218,0,0
254966,170.238,-663.586,0,0
255226,169.43,-662.954,0,0
255486,168.444,-662.122,0,0
255747,167.338,-661.17,0,0
256007,166.284,-659.965,0,0
256267,165.205,-658.698,0,0
256528,164.086,-657.235,0,0
256788,162.959,-655.647,0,0
257048,161.874,-653.728,0,0
257309,160.965,-651.704,0,0
257569,160.23,-649.497,0,0
257829,159.652,-647.175,0,0
258090,159.316,-644.783,0,0
258350,159.195,-642.4,0,0
258610,159.228,-640.012,0,0
258871,159.45,-637.665,0,0
259131,159.891,-635.317,0,0
259391,160.506,-633.096,0,0
259651,161.296,-631.062,0,0
259912,162.231,-629.251,0,0
260172,163.142,-627.632,0,0
260432,163.897,-626.121,0,0
260693,164.616,-624.731,0,0
260953,165.36,-623.243,0,0
261213,166.19,-621.874,0,0
261474,166.956,-620.596,0,0
261734,167.679,-619.341,0,0
261994,168.43,-618.146,0,0
262255,169.18,-617.041,0,0
262515,169.665,-616.027,0,0
262775,170.001,-614.825,0,0
263036,170.384,-613.39,0,0
263296,170.939,-611.866,0,0
263556,171.593,-610.386,0,0
263817,172.221,-608.896,0,0
264077,172.889,-607.294,0,0
264337,173.644,-605.602,0,0
264598,174.508,-603.858,0,0
264858,175.451,-602.039,0,0
265118,176.524,-600.041,0,0
265379,177.878,-598.01,0,0
265639,179.517,-595.953,0,0
265899,181.366,-593.783,0,0
266160,183.615,-591.682,0,0
266420,186.269,-589.712,0,0
266680.25,189.193,-587.966,0,0
266940.575,192.472,-586.464,0,0
267200.9,196.05,-585.237,0,0
267461.225,199.982,-584.412,0,0
267721.55,204.093,-584.098,0,0
267981.875,208.235,-584.286,0,0
268242.2,212.465,-584.989,0,0
268502.525,216.487,-586.148,0,0
268762.85,220.384,-587.685,0,0
269023.175,224.162,-589.588,0,0
269283.5,227.709,-591.689,0,0
269543.825,231.158,-594.026,0,0
269804.15,234.745,-596.64,0,0
270064.475,238.286,-599.708,0,0
270324.8,241.724,-603.403,0,0
270585.125,244.837,-607.668,0,0
270845.45,247.466,-612.395,0,0
271105.775,249.549,-617.536,0,0
271366.1,250.983,-622.862,0,0
271626.425,251.972,-628.316,0,0
271886.75,252.462,-633.84,0,0
272147.075,252.608,-639.423,0,0
272407.4,252.317,-645.212,0,0
272667.725,251.483,-651.23,0,0
272928.05,250.015,-657.398,0,0
273188.375,247.67,-663.602,0,0
273448.7,244.556,-669.642,0,0
273709.025,240.642,-675.294,0,0
273969.35,236.017,-680.39,0,0
274229.675,230.898,-684.836,0,0
274490.0,225.335,-688.603,0,0
274750.325,219.647,-691.664,0,0
275010.65,213.779,-694.007,0,0
275270.975,207.924,-695.801,0,0
275531.3,202.134,-696.956,0,0
275791.625,196.479,-697.638,0,0
276051.95,191.055,-697.886,0,0
276312.275,185.784,-697.834,0,0
276572.6,180.626,-697.414,0,0
276832.925,175.679,-696.704,0,0
277093.25,170.894,-695.706,0,0
277353.575,166.298,-694.413,0,0
277613.9,161.918,-692.894,0,0
277874.225,157.793,-691.181,0,0
278134.55,153.813,-689.292,0,0
278394.875,150.01,-687.224,0,0
278655.2,146.369,-684.976,0,0
278915.525,143.014,-682.499,0,0
279175.85,139.836,-679.86,0,0
279436.175,137.015,-677.087,0,0
279696.5,134.519,-674.172,0,0
279956.825,132.276,-671.268,0,0
280217.15,130.423,-668.318,0,0
280477.475,128.91,-665.444,0,0
280737.8,127.638,-662.683,0,0
280998.125,126.57,-660.118,0,0
281258.45,125.659,-657.699,0,0
281518.775,124.891,-655.441,0,0
281779.1,124.15,-653.29,0,0
282039.425,123.509,-651.25,0,0
282299.75,122.978,-649.279,0,0
282560,122.535,-647.493,0,0
282820,122.124,-645.88,0,0
283081,121.627,-644.412,0,0
283341,121.038,-642.983,0,0
283601,120.391,-641.497,0,0
283862,119.763,-639.967,0,0
284122,119.202,-638.397,0,0
284382,118.727,-636.755,0,0
284643,118.393,-635.191,0,0
284903,118.06,-633.623,0,0
285163,117.914,-632.009,0,0
285424,117.906,-630.455,0,0
285684,118.052,-628.985,0,0
285944,118.355,-627.631,0,0
286205,118.759,-626.436,0,0
286465,119.325,-625.341,0,0
286725,120.063,-624.485,0,0
286986,120.939,-623.94,0,0
287246,121.826,-623.776,0,0
287506,122.622,-624.015,0,0
287767,123.188,-624.587,0,0
288027,123.477,-625.44,0,0
288287,123.459,-626.486,0,0
288548,123.04,-627.663,0,0
288808,122.268,-628.886,0,0
289068,121.136,-630.051,0,0
289329,119.659,-631.088,0,0
289589,117.899,-631.956,0,0
289849,115.871,-632.6,0,0
290109,113.653,-632.913,0,0
290370,111.399,-632.926,0,0
290630,109.162,-632.663,0,0
290890,107.064,-632.234,0,0
291151,104.989,-631.693,0,0
291411,103.016,-631.071,0,0
291671,100.967,-630.451,0,0
291932,98.9303,-629.672,0,0
292192,96.8419,-628.77,0,0
292452,94.8103,-627.745,0,0
292713,92.8297,-626.581,0,0
292973,90.8927,-625.322,0,0
293233,89.0361,-623.965,0,0
293494,87.2346,-622.547,0,0
293754,85.4914,-621.071,0,0
294014,83.8101,-619.496,0,0
294275,82.1913,-617.846,0,0
294535,80.6717,-616.126,0,0
294795,79.2337,-614.318,0,0
295056,77.8937,-612.466,0,0
295316,76.7027,-610.603,0,0
295576,75.5837,-608.765,0,0
295837,74.5772,-606.898,0,0
296097,73.6666,-605.086,0,0
296357,72.7836,-603.318,0,0
296618,71.9389,-601.575,0,0
296878,71.1347,-599.855,0,0
297138,70.3524,-598.134,0,0
297399,69.5837,-596.441,0,0
297659,68.8321,-594.695,0,0
297919,68.1263,-592.95,0,0
298180,67.4562,-591.187,0,0
298440,66.8161,-589.399,0,0
298700.2,66.2563,-587.619,0,0
298960.525,65.696,-585.821,0,0
299220.85,65.2287,-584.01,0,0
299481.175,64.7991,-582.201,0,0
299741.5,64.4278,-580.393,0,0
300001.825,64.1238,-578.582,0,0
300262.15,63.861,-576.826,0,0
300522.475,63.66,-575.047,0,0
300782.8,63.5057,-573.285,0,0
301043.125,63.4128,-571.509,0,0
301303.45,63.4178,-569.751,0,0
301563.775,63.4911,-568.031,0,0
301824.1,63.6252,-566.362,0,0
302084.425,63.8388,-564.758,0,0
302344.75,64.0734,-563.205,0,0
302605.075,64.358,-561.734,0,0
302865.4,64.6532,-560.315,0,0
303125.725,64.9799,-558.939,0,0
303386.05,65.3472,-557.626,0,0
303646.375,65.7111,-556.374,0,0
303906.7,66.1003,-555.172,0,0
304167.025,66.4814,-554.048,0,0
304427.35,66.8707,-552.94,0,0
304687.675,67.253,-551.882,0,0
304948.0,67.6598,-550.876,0,0
305208.325,68.076,-549.912,0,0
305468.65,68.5027,-549.021,0,0
305728.975,68.9396,-548.194,0,0
305989.3,69.3404,-547.449,0,0
306249.625,69.6935,-546.728,0,0
306509.95,70.021,-546.06,0,0
306770.275,70.3245,-545.388,0,0
307030.6,70.6171,-544.728,0,0
307290.925,70.9049,-544.126,0,0
307551.25,71.1798,-543.55,0,0
307811.575,71.4584,-543.01,0,0
308071.9,71.7534,-542.552,0,0
308332.225,72.0088,-542.17,0,0
308592.55,72.1997,-541.863,0,0
308852.875,72.2944,-541.618,0,0
309113.2,72.2462,-541.398,0,0
309373.525,72.1121,-541.106,0,0
309633.85,71.886,-540.764,0,0
309894.175,71.6534,-540.369,0,0
310154.5,71.3904,-539.899,0,0
310414.825,71.1699,-539.381,0,0
310675.15,70.9458,-538.836,0,0
310935.475,70.7616,-538.289,0,0
311195.8,70.5855,-537.742,0,0
311456.125,70.4303,-537.208,0,0
311716.45,70.2831,-536.692,0,0
311976.775,70.1135,-536.209,0,0
312237.1,69.935,-535.761,0,0
312497.425,69.7076,-535.314,0,0
312757.75,69.4491,-534.857,0,0
313018.075,69.1766,-534.393,0,0
313278.4,68.8764,-533.923,0,0
313538.725,68.5441,-533.43,0,0
313799.05,68.1918,-532.924,0,0
314059.375,67.8379,-532.385,0,0
314319.7,67.4695,-531.845,0,0
314580,67.0754,-531.28,0,0
314840,66.6957,-530.693,0,0
315101,66.3508,-530.151,0,0
315361,65.9599,-529.412,0,0
315621,65.53,-528.684,0,0
315882,65.1471,-528.102,0,0
316142,64.7961,-527.349,0,0
316402,64.4348,-526.566,0,0
316663,64.1816,-525.771,0,0
316923,63.8793,-525.074,0,0
317183,63.6978,-524.309,0,0
317444,63.4423,-523.602,0,0
317704,63.2037,-522.945,0,0
317964,62.9835,-522.22,0,0
318225,62.7643,-521.505,0,0
318485,62.5448,-520.792,0,0
318745,62.2578,-520.015,0,0
319006,62.0741,-519.298,0,0
319266,61.9469,-518.506,0,0
319526,61.8245,-517.743,0,0
319787,61.7536,-517.033,0,0
320047,61.7659,-516.348,0,0
320307,61.7106,-515.709,0,0
320567,61.5937,-515.142,0,0
320828,61.5601,-514.633,0,0
321088,61.4871,-514.129,0,0
321348,61.3164,-513.576,0,0
321609,61.2102,-513.15,0,0
321869,61.082,-512.593,0,0
322129,60.9004,-512.184,0,0
322390,60.7479,-511.698,0,0
322650,60.5751,-511.251,0,0
322910,60.3461,-510.835,0,0
323171,60.0581,-510.497,0,0
323431,59.7545,-510.133,0,0
323691,59.3958,-509.728,0,0
323952,59.0555,-509.326,0,0
324212,58.5814,-508.814,0,0
324472,58.1516,-508.372,0,0
324733,57.6619,-507.809,0,0
324993,57.1703,-507.307,0,0
325253,56.6996,-506.681,0,0
325514,56.2705,-506.059,0,0
325774,55.7623,-505.398,0,0
326034,55.3452,-504.698,0,0
326295,54.9363,-503.985,0,0
326555,54.5095,-503.273,0,0
326815,54.1408,-502.559,0,0
327076,53.7862,-501.833,0,0
327336,53.4944,-501.107,0,0
327596,53.1159,-500.418,0,0
327857,52.8206,-499.737,0,0
328117,52.4628,-499.034,0,0
328377,52.0618,-498.338,0,0
328638,51.6882,-497.649,0,0
328898,51.3602,-496.9,0,0
329158,50.9196,-496.153,0,0
329419,50.5892,-495.323,0,0
329679,50.1722,-494.58,0,0
329939,49.8862,-493.755,0,0
330200,49.5777,-492.977,0,0
330460,49.2078,-492.182,0,0
330720.15,48.8793,-491.377,0,0
330980.475,48.5615,-490.543,0,0
331240.8,48.2839,-489.746,0,0
331501.125,48.0152,-488.907,0,0
331761.45,47.7165,-488.004,0,0
332021.775,47.4744,-487.099,0,0
332282.1,47.2113,-486.268,0,0
332542.425,46.9987,-485.367,0,0
332802.75,46.7786,-484.446,0,0
333063.075,46.6073,-483.581,0,0
333323.4,46.4218,-482.612,0,0
333583.725,46.2922,-481.713,0,0
333844.05,46.1964,-480.781,0,0
334104.375,46.1505,-479.878,0,0
334364.7,46.0875,-478.969,0,0
334625.025,46.1208,-478.103,0,0
334885.35,46.1443,-477.215,0,0
335145.675,46.2046,-476.426,0,0
335406.0,46.3265,-475.66,0,0
335666.325,46.3954,-474.929,0,0
335926.65,46.4393,-474.309,0,0
336186.975,46.4864,-473.619,0,0
336447.3,46.577,-472.978,0,0
336707.625,46.6035,-472.409,0,0
336967.95,46.6231,-471.724,0,0
337228.275,46.5796,-471.184,0,0
337488.6,46.5308,-470.651,0,0
337748.925,46.5313,-470.125,0,0
338009.25,46.4313,-469.538,0,0
338269.575,46.3402,-469.06,0,0
338529.9,46.2229,-468.483,0,0
338790.225,46.0622,-467.921,0,0
339050.55,45.918,-467.355,0,0
339310.875,45.7165,-466.786,0,0
339571.2,45.5486,-466.226,0,0
339831.525,45.376,-465.648,0,0
340091.85,45.1263,-464.999,0,0
340352.175,44.9514,-464.398,0,0
340612.5,44.7247,-463.788,0,0
340872.825,44.5124,-463.167,0,0
341133.15,44.2736,-462.457,0,0
341393.475,44.0721,-461.783,0,0
341653.8,43.8462,-461.063,0,0
341914.125,43.5917,-460.352,0,0
342174.45,43.3551,-459.646,0,0
342434.775,43.1692,-458.855,0,0
342695.1,42.9588,-458.128,0,0
342955.425,42.7153,-457.315,0,0
343215.75,42.586,-456.537,0,0
343476.075,42.431,-455.736,0,0
343736.4,42.2776,-454.948,0,0
343996.725,42.0966,-454.15,0,0
344257.05,41.9709,-453.28,0,0
344517.375,41.8546,-452.467,0,0
344777.7,41.8109,-451.647,0,0
345038.025,41.7508,-450.747,0,0
345298.35,41.6446,-449.929,0,0
345558.675,41.6486,-449.056,0,0
345819.0,41.6166,-448.227,0,0
346079.325,41.6276,-447.431,0,0
346339.65,41.622,-446.591,0,0
346599.975,41.6374,-445.761,0,0
346860,41.6727,-444.987,0,0
347121,41.7581,-444.109,0,0
347381,41.8155,-443.333,0,0
347641,41.9249,-442.507,0,0
347902,41.9578,-441.767,0,0
348162,42.0259,-440.968,0,0
348422,42.1465,-440.174,0,0
348683,42.2624,-439.398,0,0
348943,42.4062,-438.645,0,0
349203,42.5295,-437.886,0,0
349464,42.683,-437.113,0,0
349724,42.8166,-436.366,0,0
349984,43.0053,-435.589,0,0
350245,43.2061,-434.851,0,0
350505,43.3652,-434.126,0,0
350765,43.625,-433.485,0,0
351025,43.8699,-432.755,0,0
351286,44.1046,-432.079,0,0
351546,44.3489,-431.447,0,0
351806,44.5892,-430.833,0,0
352067,44.8249,-430.264,0,0
352327,45.0922,-429.695,0,0
352587,45.3171,-429.065,0,0
352848,45.5229,-428.534,0,0
353108,45.7893,-427.992,0,0
353368,45.9756,-427.469,0,0
353629,46.2172,-426.95,0,0
353889,46.3929,-426.427,0,0
354149,46.6139,-425.924,0,0
354410,46.8104,-425.431,0,0
354670,47.0435,-424.944,0,0
354930,47.185,-424.463,0,0
355191,47.4186,-423.951,0,0
355451,47.6193,-423.537,0,0
355711,47.7814,-423.064,0,0
355972,47.9674,-422.673,0,0
356232,48.1341,-422.232,0,0
356492,48.281,-421.855,0,0
356753,48.4027,-421.426,0,0
357013,48.5694,-420.962,0,0
357273,48.6848,-420.569,0,0
357534,48.8087,-420.15,0,0
357794,48.9809,-419.73,0,0
358054,49.0719,-419.309,0,0
358315,49.1893,-418.877,0,0
358575,49.3037,-418.524,0,0
358835,49.3694,-418.1,0,0
359096,49.4824,-417.687,0,0
359356,49.5952,-417.256,0,0
359616,49.673,-416.906,0,0
359877,49.77,-416.456,0,0
360137,49.89,-415.993,0,0
360397,49.9712,-415.587,0,0
360658,50.1135,-415.201,0,0
360918,50.2048,-414.793,0,0
361178,50.2919,-414.407,0,0
361438,50.4216,-414.02,0,0
361699,50.5097,-413.632,0,0
361959,50.5835,-413.3,0,0
362219,50.6833,-412.929,0,0
362480,50.7814,-412.592,0,0
362740.1,50.8223,-412.193,0,0
363000.425,50.8999,-411.82,0,0
363260.75,50.9249,-411.467,0,0
363521.075,50.9932,-411.134,0,0
363781.4,51.0236,-410.762,0,0
364041.725,51.036,-410.354,0,0
364302.05,51.0667,-410.025,0,0
364562.375,51.1357,-409.637,0,0
364822.7,51.1901,-409.263,0,0
365083.025,51.2505,-408.898,0,0
365343.35,51.257,-408.525,0,0
365603.675,51.2724,-408.164,0,0
365864.0,51.2911,-407.818,0,0
366124.325,51.3108,-407.423,0,0
366384.65,51.3028,-407.047,0,0
366644.975,51.3222,-406.635,0,0
366905.3,51.3185,-406.232,0,0
367165.625,51.3446,-405.839,0,0
367425.95,51.3498,-405.429,0,0
367686.275,51.3429,-405.021,0,0
367946.6,51.381,-404.577,0,0
368206.925,51.4178,-404.175,0,0
368467.25,51.4319,-403.757,0,0
368727.575,51.4867,-403.285,0,0
368987.9,51.5302,-402.842,0,0
369248.225,51.5984,-402.343,0,0
369508.55,51.7576,-401.863,0,0
369768.875,51.8787,-401.46,0,0
370029.2,52.052,-400.977,0,0
370289.525,52.2671,-400.602,0,0
370549.85,52.4941,-400.271,0,0
370810.175,52.712,-399.959,0,0
371070.5,52.9036,-399.673,0,0
371330.825,53.0961,-399.448,0,0
371591.15,53.2726,-399.263,0,0
371851.475,53.3965,-399.06,0,0
372111.8,53.5339,-398.906,0,0
372372.125,53.6472,-398.74,0,0
372632.45,53.6975,-398.619,0,0
372892.775,53.7133,-398.524,0,0
373153.1,53.7051,-398.412,0,0
373413.425,53.7212,-398.291,0,0
373673.75,53.6226,-398.196,0,0
373934.075,53.5163,-398.068,0,0
374194.4,53.3717,-397.901,0,0
374454.725,53.2342,-397.78,0,0
374715.05,52.9738,-397.561,0,0
374975.375,52.7719,-397.358,0,0
375235.7,52.5274,-397.079,0,0
375496.025,52.2741,-396.764,0,0
375756.35,52.0278,-396.444,0,0
376016.675,51.8146,-396.06,0,0
376277.0,51.6342,-395.646,0,0
376537.325,51.5325,-395.196,0,0
376797.65,51.4078,-394.816,0,0
377057.975,51.3493,-394.404,0,0
377318.3,51.2811,-394.064,0,0
377578.625,51.2204,-393.728,0,0
377838.95,51.139,-393.436,0,0
378099.275,50.9946,-393.137,0,0
378359.6,50.8487,-392.851,0,0
378619.925,50.6231,-392.537,0,0
378880,50.3771,-392.171,0,0
379141,50.1265,-391.791,0,0
379401,49.867,-391.324,0,0
379661,49.6434,-390.782,0,0
379922,49.454,-390.19,0,0
380182,49.3427,-389.576,0,0
380442,49.325,-388.947,0,0
380703,49.3854,-388.367,0,0
380963,49.5471,-387.822,0,0
381223,49.739,-387.361,0,0
381483,49.9571,-386.98,0,0
381744,50.1272,-386.685,0,0
382004,50.257,-386.468,0,0
382264,50.3406,-386.344,0,0
382525,50.3705,-386.206,0,0
382785,50.281,-386.062,0,0
383045,50.1565,-385.923,0,0
383306,50.0166,-385.767,0,0
383566,49.8584,-385.604,0,0
383826,49.6476,-385.38,0,0
384087,49.3889,-385.2,0,0
384347,49.0888,-384.963,0,0
384607,48.7811,-384.725,0,0
384868,48.4987,-384.386,0,0
385128,48.1372,-384.049,0,0
385388,47.8082,-383.685,0,0
385649,47.4329,-383.273,0,0
385909,47.1548,-382.833,0,0
386169,46.8173,-382.382,0,0
386430,46.4956,-381.888,0,0
386690,46.1711,-381.386,0,0
386950,45.889,-380.834,0,0
387211,45.5923,-380.3,0,0
387471,45.301,-379.671,0,0
387731,45.0589,-379.105,0,0
387992,44.8288,-378.494,0,0
388252,44.61,-377.832,0,0
388512,44.4548,-377.195,0,0
388773,44.2788,-376.515,0,0
389033,44.1473,-375.9,0,0
389293,44.0521,-375.226,0,0
389554,43.9781,-374.535,0,0
389814,43.9317,-373.91,0,0
390074,43.8745,-373.317,0,0
390335,43.8696,-372.692,0,0
390595,43.8299,-372.139,0,0
390855,43.7909,-371.539,0,0
391116,43.7767,-370.984,0,0
391376,43.7282,-370.384,0,0
391636,43.7731,-369.835,0,0
391896,43.7156,-369.255,0,0
392157,43.7015,-368.712,0,0
392417,43.6815,-368.178,0,0
392677,43.6581,-367.625,0,0
392938,43.625,-367.071,0,0
393198,43.58,-366.523,0,0
393458,43.5566,-365.949,0,0
393719,43.5094,-365.383,0,0
393979,43.4909,-364.796,0,0
394239,43.449,-364.209,0,0
394500,43.4582,-363.626,0,0
394760.05,43.464,-363.048,0,0
395020.375,43.4514,-362.422,0,0
395280.7,43.5084,-361.805,0,0
395541.025,43.5039,-361.226,0,0
395801.35,43.5709,-360.626,0,0
396061.675,43.6794,-360.015,0,0
396322.0,43.7427,-359.425,0,0
396582.325,43.8338,-358.876,0,0
396842.65,43.9073,-358.337,0,0
397102.975,43.9806,-357.814,0,0
397363.3,44.0587,-357.268,0,0
397623.625,44.1223,-356.719,0,0
397883.95,44.2062,-356.202,0,0
398144.275,44.2935,-355.664,0,0
398404.6,44.3883,-355.118,0,0
398664.925,44.4668,-354.612,0,0
398925.25,44.5446,-354.081,0,0
399185.575,44.597,-353.591,0,0
399445.9,44.7021,-353.073,0,0
399706.225,44.7829,-352.552,0,0
399966.55,44.8461,-351.995,0,0
400006.6,44.8256,-351.977,0,0