File: Accelerated corrosion test data/2025-10-20_13-55-17/sample_2.csv
Frequency (Hz),Impedance (ohms),Phase (Radians),Temperature (C),Humidity (%)
10000.0,222.365,-11494.7,0,0
10260.325,216.613,-11205.4,0,0
10520.65,211.609,-10929.8,0,0
10780.975,207.344,-10667.9,0,0
11041.3,202.045,-10418.6,0,0
11301.625,197.708,-10179.8,0,0
11561.95,194.908,-9950.52,0,0
11822.275,193.001,-9740.89,0,0
12082.6,187.906,-9529.27,0,0
12342.925,182.669,-9331.36,0,0
12603.25,178.423,-9138.85,0,0
12863.575,175.328,-8953.46,0,0
13123.9,173.009,-8778.91,0,0
13384.225,169.058,-8607.24,0,0
13644.55,166.341,-8440.97,0,0
13904.875,184.777,-8288.43,0,0
14165.2,160.475,-8141.86,0,0
14425.525,158.405,-7990.91,0,0
14685.8,161.586,-7844.04,0,0
14946.175,155.526,-7715.14,0,0
15206.5,160.535,-7595.01,0,0
15466.825,156.825,-7457.91,0,0
15727.15,147.666,-7342.96,0,0
15987.5,145.032,-7220.94,0,0
16247.8,144.806,-7106.15,0,0
16508.125,139.562,-6995.52,0,0
16768.45,137.376,-6886.58,0,0
17028.775,135.982,-6782.07,0,0
17289.1,135.029,-6680.93,0,0
17549.425,131.68,-6581.15,0,0
17809.75,129.429,-6485.02,0,0
18070.075,127.758,-6390.51,0,0
18330.4,126.38,-6299.79,0,0
18590.725,125.5,-6210.99,0,0
18851.05,124.283,-6124.88,0,0
19111.375,125.7,-6042.98,0,0
19371.7,124.895,-5965.45,0,0
19632.025,120.002,-5886.08,0,0
19892.35,117.791,-5807.72,0,0
20152.675,116.144,-5731.64,0,0
20413.0,115.544,-5656.81,0,0
20673.3,114.935,-5583.68,0,0
20933.65,115.644,-5511.47,0,0
21193.975,122.587,-5443.72,0,0
21454.3,129.746,-5382.96,0,0
21714.625,125.749,-5327.35,0,0
21974.9,119.645,-5261.59,0,0
22235.275,116.333,-5207.16,0,0
22495.6,112.446,-5145.34,0,0
22755.925,109.465,-5083.87,0,0
23016.25,110.105,-5029.05,0,0
23276.6,110.944,-4974.02,0,0
23536.9,106.1,-4918.88,0,0
23797.225,104.759,-4863.79,0,0
24057.55,104.554,-4812.28,0,0
24317.875,101.061,-4761.77,0,0
24578.2,98.7366,-4710.17,0,0
24838.525,97.8537,-4659.85,0,0
25098.85,97.2542,-4610.23,0,0
25359.175,95.4994,-4563.25,0,0
25619.5,95.4673,-4516.08,0,0
25879.8,93.9618,-4469.83,0,0
26140.1,95.1127,-4424.78,0,0
26400.5,93.4829,-4381.04,0,0
26660.8,94.2404,-4339.28,0,0
26921.1,92.9846,-4296.7,0,0
27181.4,91.759,-4256.53,0,0
27441.8,90.2434,-4216.08,0,0
27702.1,88.5125,-4175.37,0,0
27962.4,88.4157,-4134.51,0,0
28222.7,87.9248,-4096.02,0,0
28483.1,88.2266,-4058.22,0,0
28743.4,87.098,-4020.13,0,0
29003.7,89.4008,-3982.95,0,0
29264,89.0437,-3947.35,0,0
29524.4,92.1447,-3911.03,0,0
29784.7,95.4942,-3882.74,0,0
30045,93.1663,-3851.37,0,0
30305.3,92.6982,-3818.19,0,0
30565.7,88.8986,-3790.37,0,0
30826,85.8909,-3756.54,0,0
31086.3,85.5288,-3724.52,0,0
31346.6,83.4523,-3693.1,0,0
31607,83.9121,-3661.99,0,0
31867.3,81.6708,-3632.57,0,0
32127.6,80.7748,-3601.69,0,0
32387.9,81.1501,-3571.1,0,0
32648.3,82.3856,-3543.87,0,0
32908.6,82.0324,-3517.33,0,0
33168.9,80.5904,-3490.19,0,0
33429.2,78.2824,-3462.58,0,0
33689.6,78.1143,-3435.64,0,0
33949.9,77.0202,-3409.15,0,0
34210.2,75.8122,-3383.37,0,0
34470.5,74.7876,-3356.93,0,0
34730.9,74.4044,-3331.22,0,0
34991.2,74.0024,-3306.02,0,0
35251.5,73.3709,-3281.38,0,0
35511.8,72.7376,-3256.63,0,0
35772.2,72.3926,-3232.77,0,0
36032.5,71.6345,-3208.89,0,0
36292.8,71.1518,-3185.42,0,0
36553.1,70.7202,-3162.45,0,0
36813.5,70.3315,-3139.71,0,0
37073.8,69.9298,-3117.1,0,0
37334.1,69.6579,-3095.01,0,0
37594.4,69.4545,-3073.27,0,0
37854.8,69.168,-3051.68,0,0
38115.1,68.5805,-3030.98,0,0
38375.4,68.1174,-3009.99,0,0
38635.7,67.6827,-2989.16,0,0
38896.1,67.4075,-2968.61,0,0
39156.4,66.7444,-2948.76,0,0
39416.7,66.4887,-2928.76,0,0
39677,66.2711,-2909.27,0,0
39937.4,65.9035,-2890.07,0,0
40197.7,65.5055,-2870.71,0,0
40458,64.9573,-2851.71,0,0
40718.3,65.0952,-2832.8,0,0
40978.7,64.9119,-2814.82,0,0
41239,64.683,-2796.37,0,0
41499.3,64.7345,-2778.58,0,0
41759.6,64.3678,-2761.12,0,0
42020,64.0936,-2743.45,0,0
42280.275,63.9841,-2726.48,0,0
42540.6,63.5464,-2709.35,0,0
42800.925,63.203,-2692.71,0,0
43061.25,62.6995,-2675.91,0,0
43321.575,62.6488,-2659.34,0,0
43581.9,62.4962,-2643.31,0,0
43842.225,62.0439,-2627.3,0,0
44102.55,61.925,-2611.21,0,0
44362.875,62.0241,-2595.48,0,0
44623.2,61.212,-2580.11,0,0
44883.525,61.0097,-2564.48,0,0
45143.85,61.1544,-2548.92,0,0
45404.175,61.1265,-2534.39,0,0
45664.5,60.6364,-2519.37,0,0
45924.825,60.9018,-2504.32,0,0
46185.15,60.956,-2490.54,0,0
46445.475,60.2332,-2476.41,0,0
46705.8,59.9215,-2461.71,0,0
46966.125,59.8176,-2447.72,0,0
47226.45,59.8457,-2433.37,0,0
47486.775,60.0763,-2420.18,0,0
47747.1,59.6119,-2406.4,0,0
48007.425,59.6237,-2392.74,0,0
48267.75,60.197,-2379.02,0,0
48528.075,60.8019,-2367.18,0,0
48788.4,60.4841,-2354.85,0,0
49048.725,59.5619,-2342.59,0,0
49309.05,58.982,-2329.88,0,0
49569.375,58.3359,-2317.26,0,0
49829.7,57.7378,-2304.58,0,0
50090.025,57.5324,-2292.02,0,0
50350.35,56.9704,-2279.91,0,0
50610.675,56.7223,-2267.44,0,0
50871.0,56.8212,-2255.36,0,0
51131.325,56.6572,-2243.73,0,0
51391.65,56.2778,-2232.06,0,0
51651.975,55.8358,-2220.35,0,0
51912.3,55.2888,-2208.89,0,0
52172.625,54.8121,-2197.04,0,0
52432.95,54.6521,-2185.49,0,0
52693.275,54.306,-2174.11,0,0
52953.6,54.1446,-2162.68,0,0
53213.925,54.1001,-2151.56,0,0
53474.25,53.9245,-2140.45,0,0
53734.575,53.7339,-2129.49,0,0
53994.9,53.5631,-2118.68,0,0
54255.225,53.463,-2107.74,0,0
54515.55,53.4687,-2097.08,0,0
54775.875,53.4594,-2086.75,0,0
55036.2,53.3791,-2076.19,0,0
55296.525,53.1831,-2065.93,0,0
55556.85,53.0781,-2055.52,0,0
55817.175,53.2115,-2045.27,0,0
56077.5,53.0617,-2035.21,0,0
56337.825,53.0735,-2025.22,0,0
56598.15,53.015,-2015.35,0,0
56858.475,53.0912,-2005.45,0,0
57118.8,53.1631,-1995.91,0,0
57379.125,53.1119,-1986.19,0,0
57639.45,53.2265,-1976.54,0,0
57899.775,53.3134,-1967.17,0,0
58160.1,53.2857,-1958.01,0,0
58420.4,53.2157,-1948.58,0,0
58680.7,53.2578,-1939.16,0,0
58941.1,53.3864,-1929.97,0,0
59201.4,53.5871,-1920.76,0,0
59461.7,53.8929,-1911.72,0,0
59722,54.2218,-1902.77,0,0
59982.4,54.8306,-1893.66,0,0
60242.7,55.6224,-1885.52,0,0
60503,55.7036,-1877.54,0,0
60763.3,55.5907,-1868.97,0,0
61023.7,55.8002,-1860.55,0,0
61284,56.5399,-1851.96,0,0
61544.3,57.5565,-1844.16,0,0
61804.6,58.3803,-1837,0,0
62065,58.4078,-1830.68,0,0
62325.3,57.3379,-1823.41,0,0
62585.6,56.7351,-1815.49,0,0
62845.9,57.0644,-1808.1,0,0
63106.3,55.8523,-1801.58,0,0
63366.6,54.9587,-1793.18,0,0
63626.9,54.7885,-1785.75,0,0
63887.2,53.9592,-1778.12,0,0
64147.6,53.6,-1770.57,0,0
64407.9,52.9151,-1763.02,0,0
64668.2,52.3966,-1755.33,0,0
64928.5,51.5734,-1748.14,0,0
65188.9,50.5518,-1740.04,0,0
65449.2,50.0424,-1731.69,0,0
65709.5,50.2375,-1723.75,0,0
65969.8,50.2138,-1716.11,0,0
66230.2,50.1564,-1708.43,0,0
66490.5,50.3141,-1700.86,0,0
66750.8,50.4743,-1693.62,0,0
67011.1,50.3032,-1686.01,0,0
67271.5,50.4637,-1678.49,0,0
67531.8,51.2173,-1670.9,0,0
67792.1,52.0029,-1664,0,0
68052.4,52.8888,-1657.52,0,0
68312.8,52.671,-1651.44,0,0
68573.1,52.9102,-1644.43,0,0
68833.4,53.5618,-1637.54,0,0
69093.7,54.1476,-1631.34,0,0
69354.1,54.5439,-1625.55,0,0
69614.4,54.7146,-1619.26,0,0
69874.7,55.0571,-1613.7,0,0
70135,55.1227,-1608.44,0,0
70395.4,54.8434,-1603.22,0,0
70655.7,53.6985,-1597.93,0,0
70916,52.5842,-1591.56,0,0
71176.3,52.1355,-1585.6,0,0
71436.7,51.3595,-1579.75,0,0
71697,50.637,-1573.92,0,0
71957.3,49.5352,-1568.1,0,0
72217.6,48.2006,-1561.75,0,0
72478,47.1681,-1555.01,0,0
72738.3,46.4028,-1548.34,0,0
72998.6,45.8195,-1541.48,0,0
73258.9,45.5888,-1535.09,0,0
73519.3,44.8835,-1528.57,0,0
73779.6,44.4366,-1521.78,0,0
74039.9,44.3353,-1514.97,0,0
74300.225,44.4563,-1508.48,0,0
74560.55,44.4494,-1502.11,0,0
74820.875,44.4919,-1495.69,0,0
75081.2,44.5931,-1489.33,0,0
75341.525,44.9225,-1483.09,0,0
75601.85,45.1102,-1476.97,0,0
75862.175,45.4437,-1470.75,0,0
76122.5,45.9724,-1464.67,0,0
76382.825,46.4373,-1458.9,0,0
76643.15,46.8308,-1453.08,0,0
76903.475,47.3168,-1447.31,0,0
77163.8,47.8015,-1441.56,0,0
77424.125,48.5176,-1435.96,0,0
77684.45,49.2523,-1430.54,0,0
77944.775,49.9668,-1425.34,0,0
78205.1,50.658,-1420.14,0,0
78465.425,51.4746,-1415.31,0,0
78725.75,52.0049,-1410.77,0,0
78986.075,52.4956,-1406.26,0,0
79246.4,52.647,-1401.94,0,0
79506.725,52.7478,-1397.45,0,0
79767.05,52.6066,-1393.32,0,0
80027.375,52.1141,-1389.13,0,0
80287.7,51.2822,-1384.52,0,0
80548.025,50.6491,-1379.7,0,0
80808.35,50.0011,-1374.82,0,0
81068.675,49.4193,-1369.67,0,0
81329.0,49.0051,-1364.6,0,0
81589.325,48.6739,-1359.53,0,0
81849.65,48.2374,-1354.35,0,0
82109.975,47.9609,-1349.16,0,0
82370.3,47.7148,-1344.02,0,0
82630.625,47.4704,-1338.84,0,0
82890.95,47.4508,-1333.56,0,0
83151.275,47.5155,-1328.46,0,0
83411.6,47.6511,-1323.37,0,0
83671.925,47.857,-1318.46,0,0
83932.25,48.0401,-1313.52,0,0
84192.575,48.2242,-1308.86,0,0
84452.9,48.3684,-1304.12,0,0
84713.225,48.4001,-1299.46,0,0
84973.55,48.4501,-1294.72,0,0
85233.875,48.5704,-1290,0,0
85494.2,48.796,-1285.22,0,0
85754.525,49.0177,-1280.65,0,0
86014.85,49.2691,-1276.2,0,0
86275.175,49.4116,-1271.71,0,0
86535.5,49.627,-1267.29,0,0
86795.825,49.7195,-1262.9,0,0
87056.15,49.8046,-1258.48,0,0
87316.475,50.0993,-1254.24,0,0
87576.8,50.2232,-1250.01,0,0
87837.125,50.1982,-1245.7,0,0
88097.45,50.1012,-1241.4,0,0
88357.775,50.3115,-1236.88,0,0
88618.1,50.5133,-1232.9,0,0
88878.425,50.3158,-1228.73,0,0
89138.75,50.5221,-1224.06,0,0
89399.075,50.7857,-1220.26,0,0
89659.4,50.6235,-1215.91,0,0
89919.725,50.964,-1211.67,0,0
90180,51.2658,-1207.76,0,0
90440.4,50.9016,-1204.02,0,0
90700.7,50.4291,-1199.51,0,0
90961,50.5341,-1194.61,0,0
91221.3,51.2737,-1190.27,0,0
91481.7,51.7982,-1186.22,0,0
91742,52.0271,-1182.3,0,0
92002.3,52.2486,-1178.14,0,0
92262.6,53.0623,-1174,0,0
92523,53.6007,-1170.16,0,0
92783.3,54.1487,-1166.69,0,0
93043.6,54.5457,-1163.02,0,0
93303.9,54.8324,-1159.44,0,0
93564.3,55.2487,-1156.02,0,0
93824.6,55.7729,-1152.86,0,0
94084.9,55.6542,-1150.02,0,0
94345.2,55.1084,-1146.77,0,0
94605.6,54.7808,-1142.94,0,0
94865.9,54.7968,-1139.44,0,0
95126.2,54.2708,-1136.08,0,0
95386.5,53.6023,-1131.99,0,0
95646.9,53.3821,-1127.63,0,0
95907.2,53.7564,-1123.22,0,0
96167.5,54.561,-1119.18,0,0
96427.8,55.4029,-1115.66,0,0
96688.2,56.0605,-1112.48,0,0
96948.5,56.5612,-1109.33,0,0
97208.8,57.1498,-1106.25,0,0
97469.1,57.4979,-1103.8,0,0
97729.5,57.1,-1101.21,0,0
97989.8,56.6902,-1098.08,0,0
98250.1,56.6154,-1094.91,0,0
98510.4,56.4964,-1092.14,0,0
98770.8,56.02,-1089.3,0,0
99031.1,55.4976,-1086.5,0,0
99291.4,54.6493,-1083.65,0,0
99551.7,53.5176,-1080.41,0,0
99812.1,52.5014,-1076.62,0,0
100072,52.1548,-1072.72,0,0
100333,51.962,-1069.29,0,0
100593,51.6303,-1066.18,0,0
100853,50.7744,-1063.06,0,0
101114,49.8673,-1059.57,0,0
101374,48.8831,-1056.06,0,0
101634,47.6164,-1052.11,0,0
101895,46.8534,-1047.58,0,0
102155,46.7173,-1043.19,0,0
102415,46.6542,-1039.34,0,0
102676,46.244,-1035.56,0,0
102936,45.6561,-1031.41,0,0
103196,45.3884,-1027.02,0,0
103457,45.3216,-1022.51,0,0
103717,45.6336,-1018.16,0,0
103977,45.86,-1013.98,0,0
104238,46.39,-1009.61,0,0
104498,47.1844,-1005.55,0,0
104758,48.0259,-1001.68,0,0
105019,48.9318,-998.113,0,0
105279,49.5063,-994.577,0,0
105539,50.2062,-990.775,0,0
105800,51.26,-987.272,0,0
106060,52.2178,-983.94,0,0
106320.175,53.3546,-980.627,0,0
106580.5,54.6483,-977.777,0,0
106840.825,55.6611,-975.266,0,0
107101.15,56.6259,-972.883,0,0
107361.475,57.3047,-970.907,0,0
107621.8,57.363,-969.009,0,0
107882.125,57.294,-966.653,0,0
108142.45,57.2116,-964.552,0,0
108402.775,56.6347,-962.169,0,0
108663.1,56.3056,-959.531,0,0
108923.425,55.8506,-957.087,0,0
109183.75,55.0298,-954.396,0,0
109444.075,54.3538,-951.384,0,0
109704.4,53.7348,-948.386,0,0
109964.725,52.9754,-945.327,0,0
110225.05,52.1675,-941.945,0,0
110485.375,51.6631,-938.29,0,0
110745.7,51.2484,-934.742,0,0
111006.025,51.0285,-931.068,0,0
111266.35,50.8781,-927.535,0,0
111526.675,50.8657,-923.955,0,0
111787.0,50.7758,-920.498,0,0
112047.325,50.8541,-916.905,0,0
112307.65,50.9624,-913.599,0,0
112567.975,51.0082,-910.073,0,0
112828.3,51.0106,-906.629,0,0
113088.625,51.1905,-903.02,0,0
113348.95,51.4378,-899.432,0,0
113609.275,51.8349,-896.018,0,0
113869.6,52.102,-892.625,0,0
114129.925,52.3704,-889.226,0,0
114390.25,52.7986,-885.757,0,0
114650.575,53.2925,-882.373,0,0
114910.9,53.7533,-879.034,0,0
115171.225,54.3321,-875.708,0,0
115431.55,54.9823,-872.568,0,0
115691.875,55.4649,-869.416,0,0
115952.2,55.9537,-866.236,0,0
116212.525,56.5885,-862.958,0,0
116472.85,57.2248,-859.825,0,0
116733.175,57.9455,-856.716,0,0
116993.5,58.6375,-853.665,0,0
117253.825,59.3483,-850.664,0,0
117514.15,60.0933,-847.619,0,0
117774.475,60.9917,-844.67,0,0
118034.8,61.8942,-841.918,0,0
118295.125,62.6602,-839.256,0,0
118555.45,63.3885,-836.499,0,0
118815.775,64.2411,-833.762,0,0
119076.1,65.2157,-831.281,0,0
119336.425,65.9566,-828.917,0,0
119596.75,66.7188,-826.469,0,0
119857.075,67.5424,-824.193,0,0
120117.4,68.3038,-822.097,0,0
120377.725,68.7945,-820.125,0,0
120638.05,69.187,-818.058,0,0
120898.375,69.4395,-816.153,0,0
121158.7,69.3607,-814.109,0,0
121419.025,69.3612,-811.817,0,0
121679.35,69.3183,-809.549,0,0
121939.675,69.1774,-807.187,0,0
122200.0,69.1075,-804.722,0,0
122460,68.9976,-802.231,0,0
122721,68.9266,-799.602,0,0
122981,68.8874,-796.965,0,0
123241,68.905,-794.225,0,0
123502,69.0658,-791.585,0,0
123762,69.1809,-788.998,0,0
124022,69.2001,-786.46,0,0
124283,69.2159,-783.859,0,0
124543,69.1803,-781.252,0,0
124803,69.0837,-778.6,0,0
125064,69.0078,-775.849,0,0
125324,68.9272,-773.043,0,0
125584,68.8667,-770.094,0,0
125845,68.9242,-767.147,0,0
126105,69.0158,-764.197,0,0
126365,69.1106,-761.227,0,0
126626,69.2607,-758.184,0,0
126886,69.4762,-755.033,0,0
127146,69.8824,-751.933,0,0
127406,70.317,-748.882,0,0
127667,70.8473,-745.863,0,0
127927,71.3767,-742.96,0,0
128187,71.9407,-740.035,0,0
128448,72.5219,-737.065,0,0
128708,73.1681,-734.175,0,0
128968,73.9052,-731.366,0,0
129229,74.6397,-728.663,0,0
129489,75.2866,-725.997,0,0
129749,75.9478,-723.313,0,0
130010,76.6569,-720.55,0,0
130270,77.5621,-717.895,0,0
130530,78.4462,-715.451,0,0
130791,79.3013,-713.126,0,0
131051,79.9959,-710.949,0,0
131311,80.5424,-708.777,0,0
131572,80.9494,-706.593,0,0
131832,81.3151,-704.294,0,0
132092,81.6555,-702.013,0,0
132353,81.977,-699.68,0,0
132613,82.2242,-697.293,0,0
132873,82.4882,-694.864,0,0
133134,82.715,-692.401,0,0
133394,83.0616,-689.927,0,0
133654,83.3764,-687.494,0,0
133915,83.5668,-685.087,0,0
134175,83.6999,-682.668,0,0
134435,83.7109,-680.129,0,0
134696,83.7453,-677.442,0,0
134956,83.8292,-674.702,0,0
135216,83.9177,-671.867,0,0
135477,84.1454,-668.928,0,0
135737,84.4459,-666.021,0,0
135997,84.7082,-663.065,0,0
136258,85.0752,-660.103,0,0
136518,85.4656,-657.207,0,0
136778,85.8717,-654.278,0,0
137039,86.2537,-651.248,0,0
137299,86.8181,-648.222,0,0
137559,87.4541,-645.326,0,0
137819,88.0395,-642.448,0,0
138080,88.5917,-639.712,0,0
138340.125,88.9452,-636.952,0,0
138600.45,89.2398,-634.014,0,0
138860.775,89.5796,-630.95,0,0
139121.1,89.9349,-627.858,0,0
139381.425,90.337,-624.671,0,0
139641.75,90.7179,-621.461,0,0
139902.075,91.0302,-618.076,0,0
140162.4,91.4478,-614.42,0,0
140422.725,92.1141,-610.624,0,0
140683.05,93.0565,-606.859,0,0
140943.375,94.1056,-603.208,0,0
141203.7,95.197,-599.45,0,0
141464.025,96.53,-595.593,0,0
141724.35,98.1976,-591.861,0,0
141984.675,100.015,-588.431,0,0
142245.0,101.841,-585.259,0,0
142505.325,103.486,-582.225,0,0
142765.65,105.009,-579.209,0,0
143025.975,106.471,-576.103,0,0
143286.3,107.966,-572.86,0,0
143546.625,109.529,-569.598,0,0
143806.95,111.232,-566.298,0,0
144067.275,113.033,-563.153,0,0
144327.6,114.732,-560.028,0,0
144587.925,116.444,-556.751,0,0
144848.25,118.336,-553.406,0,0
145108.575,120.42,-550.144,0,0
145368.9,122.508,-546.98,0,0
145629.225,124.622,-543.864,0,0
145889.55,126.692,-540.794,0,0
146149.875,128.746,-537.599,0,0
146410.2,130.93,-534.318,0,0
146670.525,133.185,-530.996,0,0
146930.85,135.569,-527.626,0,0
147191.175,138.101,-524.166,0,0
147451.5,140.849,-520.735,0,0
147711.825,143.76,-517.327,0,0
147972.15,146.771,-513.9,0,0
148232.475,150.02,-510.338,0,0
148492.8,153.667,-506.789,0,0
148753.125,157.608,-503.402,0,0
149013.45,161.882,-500.001,0,0
149273.775,166.76,-496.912,0,0
149534.1,171.938,-494.393,0,0
149794.425,177.118,-492.302,0,0
150054.75,182.413,-490.476,0,0
150315.075,188.039,-488.904,0,0
150575.4,193.994,-488.007,0,0
150835.725,199.898,-487.978,0,0
151096.05,205.388,-488.543,0,0
151356.375,210.575,-489.377,0,0
151616.7,215.63,-490.549,0,0
151877.025,220.587,-492.276,0,0
152137.35,225.097,-494.694,0,0
152397.675,228.794,-497.481,0,0
152658.0,231.792,-500.245,0,0
152918.325,234.349,-502.879,0,0
153178.65,236.654,-505.484,0,0
153438.975,238.601,-508.288,0,0
153699.3,239.857,-511.055,0,0
153959.625,240.69,-513.442,0,0
154219.95,241.237,-515.555,0,0
154480,241.658,-517.342,0,0
154741,241.945,-518.901,0,0
155001,242.186,-520.178,0,0
155261,242.297,-521.197,0,0
155522,242.822,-522.336,0,0
155782,243.311,-523.662,0,0
156042,243.276,-525.097,0,0
156303,243.059,-526.313,0,0
156563,242.594,-527.318,0,0
156823,241.997,-528.059,0,0
157084,241.469,-528.713,0,0
157344,240.602,-529.405,0,0
157604,239.622,-529.455,0,0
157864,238.759,-529.314,0,0
158125,238.211,-529.127,0,0
158385,237.426,-529.273,0,0
158645,236.358,-528.864,0,0
158906,235.237,-527.982,0,0
159166,234.468,-526.963,0,0
159426,233.846,-525.597,0,0
159687,233.523,-524.12,0,0
159947,233.794,-522.423,0,0
160207,234.288,-521.293,0,0
160468,234.608,-520.487,0,0
160728,234.5,-519.278,0,0
160988,234.895,-517.491,0,0
161249,236.177,-515.782,0,0
161509,238.303,-514.564,0,0
161769,240.696,-514.424,0,0
162030,242.941,-515.421,0,0
162290,244.391,-517.481,0,0
162550,244.454,-519.773,0,0
162811,243.991,-521.547,0,0
163071,242.862,-523.392,0,0
163331,241.2,-525.029,0,0
163592,238.917,-526.141,0,0
163852,236.482,-526.52,0,0
164112,234.062,-526.811,0,0
164373,231.439,-526.77,0,0
164633,228.452,-526.347,0,0
164893,225.309,-525.618,0,0
165154,221.94,-524.334,0,0
165414,218.649,-522.178,0,0
165674,215.845,-519.431,0,0
165935,213.493,-516.606,0,0
166195,211.602,-513.872,0,0
166455,209.666,-511.165,0,0
166716,207.639,-508.311,0,0
166976,205.695,-505.121,0,0
167236,204.054,-502.201,0,0
167497,202.025,-499.061,0,0
167757,199.754,-495.364,0,0
168017,197.817,-491.053,0,0
168277,196.494,-486.265,0,0
168538,195.788,-481.468,0,0
168798,195.544,-477.067,0,0
169058,195.298,-472.845,0,0
169319,194.876,-468.462,0,0
169579,194.74,-463.823,0,0
169839,194.989,-459.164,0,0
170100,195.54,-454.697,0,0
170360.075,196.12,-450.565,0,0
170620.4,196.499,-446.317,0,0
170880.725,196.87,-441.808,0,0
171141.05,197.534,-437.09,0,0
171401.375,198.521,-432.298,0,0
171661.7,199.654,-427.702,0,0
171922.025,200.978,-422.919,0,0
172182.35,202.621,-418.303,0,0
172442.675,204.233,-413.801,0,0
172703.0,206.002,-409.228,0,0
172963.325,207.989,-404.84,0,0
173223.65,209.894,-400.551,0,0
173483.975,211.639,-396.049,0,0
173744.3,213.719,-391.307,0,0
174004.625,216.098,-386.522,0,0
174264.95,218.622,-381.804,0,0
174525.275,221.406,-377.026,0,0
174785.6,224.477,-372.221,0,0
175045.925,227.847,-367.477,0,0
175306.25,231.554,-362.777,0,0
175566.575,235.685,-358.46,0,0
175826.9,240.018,-354.482,0,0
176087.225,244.075,-350.805,0,0
176347.55,248.205,-346.691,0,0
176607.875,253.107,-342.763,0,0
176868.2,258.262,-339.213,0,0
177128.525,263.773,-336.154,0,0
177388.85,269.57,-333.865,0,0
177649.175,275.142,-332.342,0,0
177909.5,279.955,-331.347,0,0
178169.825,284.312,-330.135,0,0
178430.15,288.9,-328.628,0,0
178690.475,293.957,-327.648,0,0
178950.8,298.813,-327.721,0,0
179211.125,301.766,-327.012,0,0
179471.45,305.598,-327.277,0,0
179731.775,308.556,-328.053,0,0
179992.1,310.275,-328.555,0,0
180252.425,311.403,-327.885,0,0
180512.75,312.816,-326.817,0,0
180773.075,313.972,-325.571,0,0
181033.4,314.739,-323.678,0,0
181293.725,315.518,-320.995,0,0
181554.05,316.745,-317.495,0,0
181814.375,318.68,-313.792,0,0
182074.7,321.041,-310.044,0,0
182335.025,323.657,-306.436,0,0
182595.35,326.288,-302.845,0,0
182855.675,328.716,-298.869,0,0
183116.0,331.534,-294.279,0,0
183376.325,335.065,-289.418,0,0
183636.65,339.247,-284.59,0,0
183896.975,343.829,-279.999,0,0
184157.3,348.729,-275.435,0,0
184417.625,354.184,-270.928,0,0
184677.95,360.17,-266.984,0,0
184938.275,366.048,-263.534,0,0
185198.6,371.93,-260.189,0,0
185458.925,377.919,-256.882,0,0
185719.25,383.87,-253.747,0,0
185979.575,389.868,-250.43,0,0
186239.9,396.295,-246.946,0,0
186500,403.068,-243.985,0,0
186761,409.895,-241.135,0,0
187021,416.693,-237.976,0,0
187281,424.363,-234.833,0,0
187542,432.396,-232.447,0,0
187802,440.42,-230.465,0,0
188062,448.548,-228.778,0,0
188322,456.679,-227.577,0,0
188583,464.429,-226.857,0,0
188843,471.731,-226.006,0,0
189103,478.754,-224.933,0,0
189364,485.889,-223.469,0,0
189624,493.299,-221.68,0,0
189884,500.949,-219.633,0,0
190145,509.032,-217.177,0,0
190405,518.151,-214.792,0,0
190665,527.68,-212.917,0,0
190926,537.473,-211.033,0,0
191186,547.901,-209.053,0,0
191446,559.353,-207.623,0,0
191707,571.148,-207.045,0,0
191967,583.014,-206.76,0,0
192227,595.506,-206.812,0,0
192488,608.51,-207.536,0,0
192748,621.887,-208.738,0,0
193008,636.009,-210.623,0,0
193269,650.7,-213.692,0,0
193529,665.464,-218.105,0,0
193789,680.015,-223.727,0,0
194050,694.138,-230.516,0,0
194310,707.408,-237.895,0,0
194570,720.44,-245.527,0,0
194831,733.601,-253.864,0,0
195091,746.464,-263.233,0,0
195351,758.495,-273.506,0,0
195612,769.605,-284.176,0,0
195872,780.156,-294.704,0,0
196132,790.778,-305.354,0,0
196393,801.331,-316.684,0,0
196653,811.353,-328.66,0,0
196913,820.934,-340.871,0,0
197174,830.339,-353.389,0,0
197434,839.736,-366.51,0,0
197694,848.857,-380.644,0,0
197955,857.076,-395.764,0,0
198215,864.35,-411.339,0,0
198475,870.621,-427.266,0,0
198735,875.972,-443.152,0,0
198996,881.053,-459.22,0,0
199256,885.304,-475.828,0,0
199516,888.805,-492.38,0,0
199777,891.681,-509.279,0,0
200037,893.918,-526.284,0,0
200297,895.351,-543.612,0,0
200558,895.629,-561.215,0,0
200818,895.175,-578.73,0,0
201078,893.793,-596.632,0,0
201339,891.148,-614.571,0,0
201599,886.823,-631.983,0,0
201859,881.429,-648.408,0,0
202120,875.53,-663.84,0,0
202380.025,869.482,-678.509,0,0
202640.35,863.27,-693.194,0,0
202900.675,856.335,-707.479,0,0
203161.0,848.578,-721.404,0,0
203421.325,839.978,-734.397,0,0
203681.65,831.051,-746.328,0,0
203941.975,822.294,-757.02,0,0
204202.3,814.158,-767.516,0,0
204462.625,806.414,-778.342,0,0
204722.95,798.357,-789.686,0,0
204983.275,789.23,-801.45,0,0
205243.6,778.353,-812.583,0,0
205503.925,766.582,-822.25,0,0
205764.25,754.399,-830.502,0,0
206024.575,742.64,-837.472,0,0
206284.9,731.46,-843.576,0,0
206545.225,720.398,-849.596,0,0
206805.55,709.186,-855.382,0,0
207065.875,697.357,-860.327,0,0
207326.2,685.733,-863.661,0,0
207586.525,674.91,-866.075,0,0
207846.85,664.908,-867.795,0,0
208107.175,656.293,-868.971,0,0
208367.5,648.424,-870.808,0,0
208627.825,640.799,-872.913,0,0
208888.15,633.598,-874.996,0,0
209148.475,627.146,-877.77,0,0
209408.8,620.547,-881.377,0,0
209669.125,613.281,-885.535,0,0
209929.45,604.987,-889.925,0,0
210189.775,596.042,-893.478,0,0
210450.1,586.966,-896.734,0,0
210710.425,577.98,-899.801,0,0
210970.75,568.389,-902.803,0,0
211231.075,558.129,-905.233,0,0
211491.4,547.258,-906.784,0,0
211751.725,536.399,-907.113,0,0
212012.05,525.984,-906.225,0,0
212272.375,516.484,-904.693,0,0
212532.7,507.666,-903.053,0,0
212793.025,499.331,-901.279,0,0
213053.35,491.207,-899.471,0,0
213313.675,483.269,-897.411,0,0
213574.0,475.719,-895.114,0,0
213834.325,468.531,-892.565,0,0
214094.65,461.639,-890.134,0,0
214354.975,454.895,-887.527,0,0
214615.3,448.458,-884.973,0,0
214875.625,442.151,-882.127,0,0
215135.95,436.134,-879.277,0,0
215396.275,430.207,-876.345,0,0
215656.6,424.472,-873.081,0,0
215916.925,419.013,-869.573,0,0
216177.25,414.106,-866.042,0,0
216437.575,409.532,-862.559,0,0
216697.9,405.068,-859.071,0,0
216958.225,401.026,-855.527,0,0
217218.55,397.218,-851.998,0,0
217478.875,393.799,-848.614,0,0
217739.2,390.569,-845.377,0,0
217999.525,387.41,-842.342,0,0
218259.85,384.267,-839.311,0,0
218520,381.268,-836.176,0,0
218780,378.589,-832.97,0,0
219041,376.227,-829.992,0,0
219301,373.892,-827.181,0,0
219561,371.676,-824.455,0,0
219822,369.548,-821.751,0,0
220082,367.552,-819.236,0,0
220342,365.431,-816.731,0,0
220603,363.445,-814.045,0,0
220863,361.677,-811.226,0,0
221123,360.386,-808.382,0,0
221384,359.382,-805.81,0,0
221644,358.496,-803.686,0,0
221904,357.605,-801.693,0,0
222165,356.831,-799.882,0,0
222425,356.032,-798.233,0,0
222685,355.175,-796.748,0,0
222946,354.489,-795.304,0,0
223206,353.571,-794.103,0,0
223466,352.56,-792.981,0,0
223727,351.574,-791.653,0,0
223987,350.692,-790.386,0,0
224247,350.004,-789.054,0,0
224508,349.377,-788.019,0,0
224768,348.713,-787.043,0,0
225028,347.99,-786.154,0,0
225289,347.393,-785.313,0,0
225549,346.748,-784.461,0,0
225809,346.176,-783.603,0,0
226070,345.72,-782.896,0,0
226330,345.413,-782.287,0,0
226590,345.138,-781.667,0,0
226851,344.822,-781.359,0,0
227111,344.72,-781.143,0,0
227371,344.611,-780.991,0,0
227632,344.684,-781.102,0,0
227892,344.787,-781.425,0,0
228152,344.866,-782.238,0,0
228413,344.807,-783.339,0,0
228673,344.401,-784.779,0,0
228933,343.846,-786.19,0,0
229193,342.881,-787.954,0,0
229454,341.518,-789.599,0,0
229714,340.04,-791.267,0,0
229974,338.262,-792.766,0,0
230235,336.378,-794.223,0,0
230495,334.323,-795.605,0,0
230755,332.248,-796.894,0,0
231016,330.008,-798.2,0,0
231276,327.736,-799.431,0,0
231536,325.306,-800.683,0,0
231797,322.717,-801.857,0,0
232057,320.081,-803.059,0,0
232317,317.217,-804.184,0,0
232578,314.192,-805.142,0,0
232838,311.077,-805.952,0,0
233098,307.883,-806.596,0,0
233359,304.666,-807.183,0,0
233619,301.323,-807.545,0,0
233879,298.018,-807.844,0,0
234140,294.668,-807.978,0,0
234400,291.264,-807.998,0,0
234660.3,288,-807.87,0,0
234920.625,284.69,-807.71,0,0
235180.95,281.462,-807.462,0,0
235441.275,278.214,-807.104,0,0
235701.6,274.962,-806.632,0,0
235961.925,271.741,-806.153,0,0
236222.25,268.476,-805.702,0,0
236482.575,265.259,-805.209,0,0
236742.9,261.985,-804.637,0,0
237003.225,258.568,-803.925,0,0
237263.55,255.163,-803.084,0,0
237523.875,251.73,-802.067,0,0
237784.2,248.418,-800.818,0,0
238044.525,245.323,-799.505,0,0
238304.85,242.268,-798.171,0,0
238565.175,239.328,-796.765,0,0
238825.5,236.402,-795.527,0,0
239085.825,233.481,-794.198,0,0
239346.15,230.52,-792.863,0,0
239606.475,227.541,-791.278,0,0
239866.8,224.575,-789.673,0,0
240127.125,221.633,-787.977,0,0
240387.45,218.816,-786.192,0,0
240647.775,216.041,-784.294,0,0
240908.1,213.444,-782.331,0,0
241168.425,210.815,-780.274,0,0
241428.75,208.426,-778.273,0,0
241689.075,206.045,-776.052,0,0
241949.4,203.759,-773.841,0,0
242209.725,201.69,-771.554,0,0
242470.05,199.81,-769.228,0,0
242730.375,198.155,-767.017,0,0
242990.7,196.66,-764.899,0,0
243251.025,195.19,-762.936,0,0
243511.35,193.811,-761.079,0,0
243771.675,192.502,-759.315,0,0
244032.0,191.223,-757.651,0,0
244292.325,189.965,-756.135,0,0
244552.65,188.714,-754.708,0,0
244812.975,187.488,-753.426,0,0
245073.3,186.295,-752.438,0,0
245333.625,184.802,-751.482,0,0
245593.95,183.318,-750.673,0,0
245854.275,181.724,-749.967,0,0
246114.6,179.854,-749.367,0,0
246374.925,177.714,-748.836,0,0
246635.25,175.251,-748.138,0,0
246895.575,172.526,-747.338,0,0
247155.9,169.596,-746.216,0,0
247416.225,166.625,-744.817,0,0
247676.55,163.711,-743.204,0,0
247936.875,160.84,-741.364,0,0
248197.2,158.126,-739.444,0,0
248457.525,155.367,-737.37,0,0
248717.85,152.53,-735.185,0,0
248978.175,149.87,-732.802,0,0
249238.5,147.207,-730.365,0,0
249498.825,144.563,-727.725,0,0
249759.15,141.99,-724.962,0,0
250019.475,139.556,-722.032,0,0
250279.8,137.161,-718.967,0,0
250540,134.898,-715.75,0,0
250800,132.821,-712.493,0,0
251061,130.848,-708.962,0,0
251321,129.095,-705.473,0,0
251581,127.616,-701.817,0,0
251842,126.305,-698.201,0,0
252102,125.156,-694.588,0,0
252362,124.254,-690.979,0,0
252623,123.496,-687.493,0,0
252883,122.855,-684.081,0,0
253143,122.311,-680.782,0,0
253404,121.795,-677.497,0,0
253664,121.382,-674.25,0,0
253924,120.983,-671.071,0,0
254185,120.625,-667.914,0,0
254445,120.326,-664.704,0,0
254705,120.13,-661.532,0,0
254966,120.02,-658.302,0,0
255226,119.989,-655.15,0,0
255486,120.087,-651.859,0,0
255747,120.292,-648.662,0,0
256007,120.67,-645.57,0,0
256267,121.131,-642.484,0,0
256528,121.723,-639.476,0,0
256788,122.386,-636.577,0,0
257048,123.131,-633.724,0,0
257309,123.941,-630.993,0,0
257569,124.785,-628.291,0,0
257829,125.724,-625.653,0,0
258090,126.71,-623.076,0,0
258350,127.739,-620.602,0,0
258610,128.815,-618.173,0,0
258871,129.972,-615.815,0,0
259131,131.194,-613.508,0,0
259391,132.479,-611.269,0,0
259651,133.821,-609.156,0,0
259912,135.278,-607.108,0,0
260172,136.765,-605.209,0,0
260432,138.234,-603.36,0,0
260693,139.737,-601.645,0,0
260953,141.275,-600.012,0,0
261213,142.822,-598.491,0,0
261474,144.431,-597.058,0,0
261734,146.017,-595.75,0,0
261994,147.56,-594.561,0,0
262255,149.096,-593.449,0,0
262515,150.612,-592.43,0,0
262775,152.06,-591.472,0,0
263036,153.48,-590.607,0,0
263296,154.903,-589.757,0,0
263556,156.317,-588.94,0,0
263817,157.7,-588.203,0,0
264077,159.081,-587.536,0,0
264337,160.45,-586.888,0,0
264598,161.843,-586.361,0,0
264858,163.247,-585.857,0,0
265118,164.639,-585.483,0,0
265379,165.968,-585.25,0,0
265639,167.221,-585.156,0,0
265899,168.385,-585.12,0,0
266160,169.408,-585.058,0,0
266420,170.375,-584.999,0,0
266680.25,171.309,-584.943,0,0
266940.575,172.211,-584.916,0,0
267200.9,173.108,-584.912,0,0
267461.225,174.024,-584.956,0,0
267721.55,174.821,-585.138,0,0
267981.875,175.566,-585.289,0,0
268242.2,176.231,-585.575,0,0
268502.525,176.792,-585.941,0,0
268762.85,177.164,-586.323,0,0
269023.175,177.305,-586.633,0,0
269283.5,177.32,-586.808,0,0
269543.825,177.227,-586.862,0,0
269804.15,177.147,-586.736,0,0
270064.475,176.989,-586.362,0,0
270324.8,176.969,-585.955,0,0
270585.125,177.037,-585.372,0,0
270845.45,177.17,-584.79,0,0
271105.775,177.406,-584.185,0,0
271366.1,177.713,-583.583,0,0
271626.425,178.005,-582.9,0,0
271886.75,178.292,-582.135,0,0
272147.075,178.681,-581.243,0,0
272407.4,179.242,-580.248,0,0
272667.725,179.984,-579.183,0,0
272928.05,180.949,-578.105,0,0
273188.375,182.154,-577.035,0,0
273448.7,183.608,-576.027,0,0
273709.025,185.293,-575.172,0,0
273969.35,187.221,-574.442,0,0
274229.675,189.403,-573.971,0,0
274490.0,191.791,-573.772,0,0
274750.325,194.247,-573.892,0,0
275010.65,196.884,-574.403,0,0
275270.975,199.529,-575.272,0,0
275531.3,202.149,-576.538,0,0
275791.625,204.73,-578.284,0,0
276051.95,207.067,-580.496,0,0
276312.275,209.113,-583.142,0,0
276572.6,210.737,-586.08,0,0
276832.925,211.842,-589.167,0,0
277093.25,212.577,-592.382,0,0
277353.575,212.909,-595.622,0,0
277613.9,212.884,-598.898,0,0
277874.225,212.455,-602.099,0,0
278134.55,211.688,-605.177,0,0
278394.875,210.608,-608.092,0,0
278655.2,209.302,-610.792,0,0
278915.525,207.82,-613.342,0,0
279175.85,206.188,-615.734,0,0
279436.175,204.361,-618.013,0,0
279696.5,202.361,-620.114,0,0
279956.825,200.263,-622.012,0,0
280217.15,198.002,-623.655,0,0
280477.475,195.739,-625.115,0,0
280737.8,193.534,-626.346,0,0
280998.125,191.36,-627.504,0,0
281258.45,189.227,-628.667,0,0
281518.775,187.043,-629.816,0,0
281779.1,184.757,-630.975,0,0
282039.425,182.282,-632.121,0,0
282299.75,179.574,-633.168,0,0
282560,176.641,-634.017,0,0
282820,173.533,-634.613,0,0
283081,170.345,-634.818,0,0
283341,167.148,-634.673,0,0
283601,164.115,-634.163,0,0
283862,161.357,-633.404,0,0
284122,158.905,-632.591,0,0
284382,156.655,-631.869,0,0
284643,154.428,-631.354,0,0
284903,152.063,-630.919,0,0
285163,149.603,-630.407,0,0
285424,146.914,-629.852,0,0
285684,144.112,-629.057,0,0
285944,141.224,-628.099,0,0
286205,138.237,-626.901,0,0
286465,135.22,-625.387,0,0
286725,132.222,-623.545,0,0
286986,129.305,-621.368,0,0
287246,126.528,-618.865,0,0
287506,123.934,-616.057,0,0
287767,121.566,-612.935,0,0
288027,119.522,-609.534,0,0
288287,117.783,-605.863,0,0
288548,116.475,-601.927,0,0
288808,115.672,-597.852,0,0
289068,115.4,-593.752,0,0
289329,115.656,-589.73,0,0
289589,116.433,-585.851,0,0
289849,117.604,-582.252,0,0
290109,119.131,-578.981,0,0
290370,120.885,-576.011,0,0
290630,122.846,-573.28,0,0
290890,125.082,-570.774,0,0
291151,127.606,-568.633,0,0
291411,130.352,-566.84,0,0
291671,133.321,-565.501,0,0
291932,136.419,-564.689,0,0
292192,139.588,-564.431,0,0
292452,142.667,-564.818,0,0
292713,145.468,-565.854,0,0
292973,147.775,-567.437,0,0
293233,149.485,-569.353,0,0
293494,150.522,-571.395,0,0
293754,150.962,-573.365,0,0
294014,150.875,-575.104,0,0
294275,150.459,-576.476,0,0
294535,149.778,-577.438,0,0
294795,149.032,-577.981,0,0
295056,148.499,-578.059,0,0
295316,148.189,-577.866,0,0
295576,148.276,-577.469,0,0
295837,148.834,-577.087,0,0
296097,149.89,-576.969,0,0
296357,151.368,-577.349,0,0
296618,152.932,-578.425,0,0
296878,154.286,-580.259,0,0
297138,155.151,-582.672,0,0
297399,155.311,-585.406,0,0
297659,154.755,-588.225,0,0
297919,153.517,-590.83,0,0
298180,151.801,-593.077,0,0
298440,149.812,-594.881,0,0
298700.2,147.67,-596.307,0,0
298960.525,145.509,-597.442,0,0
299220.85,143.255,-598.319,0,0
299481.175,140.974,-598.963,0,0
299741.5,138.66,-599.351,0,0
300001.825,136.419,-599.443,0,0
300262.15,134.257,-599.272,0,0
300522.475,132.263,-598.934,0,0
300782.8,130.406,-598.441,0,0
301043.125,128.746,-597.884,0,0
301303.45,127.247,-597.277,0,0
301563.775,125.863,-596.669,0,0
301824.1,124.605,-596.037,0,0
302084.425,123.486,-595.464,0,0
302344.75,122.502,-594.938,0,0
302605.075,121.585,-594.519,0,0
302865.4,120.699,-594.228,0,0
303125.725,119.771,-594.058,0,0
303386.05,118.784,-593.982,0,0
303646.375,117.713,-593.921,0,0
303906.7,116.572,-593.884,0,0
304167.025,115.393,-593.86,0,0
304427.35,114.149,-593.822,0,0
304687.675,112.802,-593.827,0,0
304948.0,111.361,-593.824,0,0
305208.325,109.788,-593.76,0,0
305468.65,108.146,-593.589,0,0
305728.975,106.413,-593.295,0,0
305989.3,104.659,-592.874,0,0
306249.625,102.915,-592.335,0,0
306509.95,101.216,-591.697,0,0
306770.275,99.5627,-590.969,0,0
307030.6,97.9408,-590.178,0,0
307290.925,96.383,-589.328,0,0
307551.25,94.8375,-588.448,0,0
307811.575,93.3461,-587.538,0,0
308071.9,91.8782,-586.583,0,0
308332.225,90.4212,-585.62,0,0
308592.55,88.9751,-584.599,0,0
308852.875,87.5415,-583.509,0,0
309113.2,86.1866,-582.366,0,0
309373.525,84.8761,-581.183,0,0
309633.85,83.6332,-579.978,0,0
309894.175,82.4213,-578.787,0,0
310154.5,81.2296,-577.56,0,0
310414.825,80.0763,-576.338,0,0
310675.15,78.9359,-575.064,0,0
310935.475,77.8618,-573.757,0,0
311195.8,76.8258,-572.451,0,0
311456.125,75.8333,-571.142,0,0
311716.45,74.8794,-569.81,0,0
311976.775,73.9465,-568.51,0,0
312237.1,73.0645,-567.171,0,0
312497.425,72.2042,-565.83,0,0
312757.75,71.3796,-564.503,0,0
313018.075,70.5886,-563.156,0,0
313278.4,69.8151,-561.805,0,0
313538.725,69.0924,-560.464,0,0
313799.05,68.3924,-559.129,0,0
314059.375,67.7194,-557.763,0,0
314319.7,67.082,-556.411,0,0
314580,66.5272,-555.04,0,0
314840,65.8763,-553.841,0,0
315101,65.3732,-552.481,0,0
315361,64.7856,-551.219,0,0
315621,64.2183,-549.902,0,0
315882,63.7484,-548.574,0,0
316142,63.1897,-547.372,0,0
316402,62.6733,-546.051,0,0
316663,62.1936,-544.704,0,0
316923,61.7284,-543.42,0,0
317183,61.3618,-542.12,0,0
317444,61.028,-540.816,0,0
317704,60.68,-539.517,0,0
317964,60.2796,-538.213,0,0
318225,60.0077,-536.906,0,0
318485,59.7381,-535.713,0,0
318745,59.4973,-534.441,0,0
319006,59.1816,-533.269,0,0
319266,58.8511,-532.131,0,0
319526,58.6706,-530.949,0,0
319787,58.3856,-529.704,0,0
320047,58.132,-528.65,0,0
320307,57.7778,-527.437,0,0
320567,57.5586,-526.316,0,0
320828,57.305,-525.068,0,0
321088,57.0284,-523.899,0,0
321348,56.8828,-522.646,0,0
321609,56.6055,-521.467,0,0
321869,56.3512,-520.232,0,0
322129,56.2137,-519.069,0,0
322390,56.0163,-517.856,0,0
322650,55.9355,-516.601,0,0
322910,55.6632,-515.377,0,0
323171,55.6001,-514.158,0,0
323431,55.4623,-512.874,0,0
323691,55.3072,-511.579,0,0
323952,55.2373,-510.236,0,0
324212,55.2177,-508.921,0,0
324472,55.2001,-507.566,0,0
324733,55.2678,-506.174,0,0
324993,55.4261,-504.776,0,0
325253,55.6298,-503.361,0,0
325514,55.9806,-501.979,0,0
325774,56.422,-500.645,0,0
326034,56.9387,-499.356,0,0
326295,57.5331,-498.17,0,0
326555,58.1988,-497.035,0,0
326815,58.882,-496.071,0,0
327076,59.609,-495.253,0,0
327336,60.2533,-494.499,0,0
327596,60.895,-493.864,0,0
327857,61.4563,-493.313,0,0
328117,61.9329,-492.78,0,0
328377,62.359,-492.233,0,0
328638,62.7044,-491.681,0,0
328898,63.1405,-491.132,0,0
329158,63.5757,-490.588,0,0
329419,64.0084,-490.151,0,0
329679,64.4915,-489.71,0,0
329939,64.8798,-489.349,0,0
330200,65.3207,-489.005,0,0
330460,65.6903,-488.764,0,0
330720.15,66.0404,-488.533,0,0
330980.475,66.3253,-488.382,0,0
331240.8,66.5868,-488.188,0,0
331501.125,66.8263,-488.211,0,0
331761.45,66.9931,-488.212,0,0
332021.775,67.07,-488.217,0,0
332282.1,67.052,-488.314,0,0
332542.425,66.8916,-488.335,0,0
332802.75,66.6655,-488.376,0,0
333063.075,66.2816,-488.356,0,0
333323.4,65.9363,-488.289,0,0
333583.725,65.4532,-488.14,0,0
333844.05,64.9289,-487.924,0,0
334104.375,64.4957,-487.598,0,0
334364.7,63.9926,-487.195,0,0
334625.025,63.4206,-486.754,0,0
334885.35,62.9735,-486.281,0,0
335145.675,62.5058,-485.779,0,0
335406.0,62.0694,-485.316,0,0
335666.325,61.5712,-484.667,0,0
335926.65,61.1876,-484.168,0,0
336186.975,60.6694,-483.579,0,0
336447.3,60.2394,-482.934,0,0
336707.625,59.8434,-482.308,0,0
336967.95,59.399,-481.585,0,0
337228.275,59.0264,-480.894,0,0
337488.6,58.6677,-480.254,0,0
337748.925,58.2463,-479.437,0,0
338009.25,57.9366,-478.718,0,0
338269.575,57.6187,-477.975,0,0
338529.9,57.2224,-477.21,0,0
338790.225,56.9645,-476.46,0,0
339050.55,56.6068,-475.656,0,0
339310.875,56.3309,-474.88,0,0
339571.2,56.0599,-474.035,0,0
339831.525,55.8028,-473.281,0,0
340091.85,55.5431,-472.456,0,0
340352.175,55.2715,-471.573,0,0
340612.5,55.1088,-470.739,0,0
340872.825,54.8218,-469.892,0,0
341133.15,54.6614,-469.029,0,0
341393.475,54.4452,-468.189,0,0
341653.8,54.2768,-467.343,0,0
341914.125,54.1005,-466.456,0,0
342174.45,53.9582,-465.543,0,0
342434.775,53.8089,-464.661,0,0
342695.1,53.6525,-463.761,0,0
342955.425,53.6151,-462.831,0,0
343215.75,53.5,-461.957,0,0
343476.075,53.4448,-460.965,0,0
343736.4,53.4408,-460.019,0,0
343996.725,53.4323,-459.114,0,0
344257.05,53.4703,-458.17,0,0
344517.375,53.5088,-457.23,0,0
344777.7,53.5666,-456.281,0,0
345038.025,53.6638,-455.399,0,0
345298.35,53.8323,-454.522,0,0
345558.675,53.9214,-453.613,0,0
345819.0,54.0597,-452.741,0,0
346079.325,54.2346,-451.868,0,0
346339.65,54.418,-451.003,0,0
346599.975,54.6336,-450.158,0,0
346860,54.8629,-449.368,0,0
347121,55.0497,-448.506,0,0
347381,55.3008,-447.742,0,0
347641,55.5646,-446.942,0,0
347902,55.828,-446.137,0,0
348162,56.1256,-445.35,0,0
348422,56.371,-444.639,0,0
348683,56.7373,-443.853,0,0
348943,57.0428,-443.171,0,0
349203,57.3939,-442.423,0,0
349464,57.7726,-441.802,0,0
349724,58.0895,-441.119,0,0
349984,58.5086,-440.493,0,0
350245,58.8687,-439.885,0,0
350505,59.2758,-439.303,0,0
350765,59.7372,-438.777,0,0
351025,60.1168,-438.27,0,0
351286,60.4762,-437.807,0,0
351546,60.9065,-437.351,0,0
351806,61.2015,-436.966,0,0
352067,61.5213,-436.587,0,0
352327,61.7947,-436.246,0,0
352587,62.0344,-435.884,0,0
352848,62.2415,-435.481,0,0
353108,62.4391,-435.063,0,0
353368,62.6206,-434.66,0,0
353629,62.8203,-434.166,0,0
353889,63.0536,-433.716,0,0
354149,63.2838,-433.293,0,0
354410,63.4867,-432.865,0,0
354670,63.7835,-432.384,0,0
354930,64.0295,-431.919,0,0
355191,64.2774,-431.45,0,0
355451,64.5458,-431.019,0,0
355711,64.8293,-430.55,0,0
355972,65.1122,-430.162,0,0
356232,65.389,-429.682,0,0
356492,65.7195,-429.237,0,0
356753,66.0618,-428.855,0,0
357013,66.4385,-428.453,0,0
357273,66.8061,-428.128,0,0
357534,67.1928,-427.79,0,0
357794,67.6046,-427.474,0,0
358054,67.993,-427.201,0,0
358315,68.3983,-426.977,0,0
358575,68.8173,-426.78,0,0
358835,69.1722,-426.617,0,0
359096,69.5398,-426.494,0,0
359356,69.903,-426.401,0,0
359616,70.2632,-426.297,0,0
359877,70.5507,-426.24,0,0
360137,70.8465,-426.214,0,0
360397,71.0764,-426.243,0,0
360658,71.3285,-426.268,0,0
360918,71.4897,-426.283,0,0
361178,71.6609,-426.307,0,0
361438,71.7311,-426.368,0,0
361699,71.7899,-426.383,0,0
361959,71.8675,-426.468,0,0
362219,71.9204,-426.412,0,0
362480,71.9001,-426.446,0,0
362740.1,71.9004,-426.448,0,0
363000.425,71.8332,-426.431,0,0
363260.75,71.7641,-426.405,0,0
363521.075,71.6575,-426.412,0,0
363781.4,71.5837,-426.349,0,0
364041.725,71.4363,-426.296,0,0
364302.05,71.3351,-426.196,0,0
364562.375,71.1915,-426.116,0,0
364822.7,71.0298,-425.998,0,0
365083.025,70.888,-425.885,0,0
365343.35,70.7921,-425.716,0,0
365603.675,70.609,-425.525,0,0
365864.0,70.4823,-425.375,0,0
366124.325,70.2927,-425.163,0,0
366384.65,70.1856,-424.932,0,0
366644.975,69.9786,-424.675,0,0
366905.3,69.8995,-424.391,0,0
367165.625,69.8075,-424.142,0,0
367425.95,69.743,-423.85,0,0
367686.275,69.7232,-423.541,0,0
367946.6,69.6839,-423.298,0,0
368206.925,69.686,-422.994,0,0
368467.25,69.7945,-422.793,0,0
368727.575,69.8972,-422.601,0,0
368987.9,69.9807,-422.496,0,0
369248.225,70.0506,-422.427,0,0
369508.55,70.1516,-422.468,0,0
369768.875,70.0745,-422.458,0,0
370029.2,70.0501,-422.483,0,0
370289.525,69.892,-422.572,0,0
370549.85,69.7045,-422.585,0,0
370810.175,69.4415,-422.54,0,0
371070.5,69.216,-422.503,0,0
371330.825,68.8886,-422.441,0,0
371591.15,68.6549,-422.27,0,0
371851.475,68.3895,-422.099,0,0
372111.8,68.1857,-421.95,0,0
372372.125,68.0412,-421.751,0,0
372632.45,67.8316,-421.585,0,0
372892.775,67.6455,-421.479,0,0
373153.1,67.4448,-421.377,0,0
373413.425,67.262,-421.275,0,0
373673.75,67.0426,-421.213,0,0
373934.075,66.7876,-421.125,0,0
374194.4,66.5346,-421.014,0,0
374454.725,66.1916,-420.92,0,0
374715.05,65.8812,-420.773,0,0
374975.375,65.5587,-420.646,0,0
375235.7,65.2045,-420.531,0,0
375496.025,64.8171,-420.323,0,0
375756.35,64.4742,-420.11,0,0
376016.675,64.1258,-419.943,0,0
376277.0,63.7976,-419.699,0,0
376537.325,63.4562,-419.486,0,0
376797.65,63.0867,-419.226,0,0
377057.975,62.8143,-418.99,0,0
377318.3,62.5086,-418.782,0,0
377578.625,62.137,-418.565,0,0
377838.95,61.8505,-418.391,0,0
378099.275,61.4655,-418.27,0,0
378359.6,61.0995,-418.127,0,0
378619.925,60.6201,-417.988,0,0
378880,60.0721,-417.803,0,0
379141,59.5074,-417.613,0,0
379401,58.8565,-417.391,0,0
379661,58.1114,-416.995,0,0
379922,57.4552,-416.477,0,0
380182,56.7563,-415.825,0,0
380442,56.1922,-415.131,0,0
380703,55.7714,-414.293,0,0
380963,55.4706,-413.475,0,0
381223,55.3649,-412.712,0,0
381483,55.359,-412.042,0,0
381744,55.3347,-411.473,0,0
382004,55.4156,-411.042,0,0
382264,55.3894,-410.772,0,0
382525,55.3186,-410.477,0,0
382785,55.17,-410.275,0,0
383045,54.9164,-410.084,0,0
383306,54.605,-409.826,0,0
383566,54.2508,-409.658,0,0
383826,53.7897,-409.359,0,0
384087,53.3607,-409.041,0,0
384347,52.946,-408.686,0,0
384607,52.451,-408.28,0,0
384868,51.9756,-407.852,0,0
385128,51.4701,-407.395,0,0
385388,51.0326,-406.863,0,0
385649,50.5646,-406.349,0,0
385909,50.1607,-405.751,0,0
386169,49.7289,-405.131,0,0
386430,49.3331,-404.522,0,0
386690,48.9412,-403.907,0,0
386950,48.6027,-403.257,0,0
387211,48.3002,-402.612,0,0
387471,47.9531,-401.931,0,0
387731,47.654,-401.253,0,0
387992,47.3592,-400.597,0,0
388252,47.0608,-399.861,0,0
388512,46.8298,-399.153,0,0
388773,46.5846,-398.388,0,0
389033,46.3995,-397.659,0,0
389293,46.2552,-396.889,0,0
389554,46.1799,-396.138,0,0
389814,46.1173,-395.389,0,0
390074,46.1287,-394.635,0,0
390335,46.1864,-394.05,0,0
390595,46.2324,-393.448,0,0
390855,46.3269,-392.885,0,0
391116,46.3741,-392.393,0,0
391376,46.3893,-392,0,0
391636,46.4122,-391.626,0,0
391896,46.3139,-391.273,0,0
392157,46.2158,-390.961,0,0
392417,46.0096,-390.669,0,0
392677,45.7473,-390.313,0,0
392938,45.4679,-389.918,0,0
393198,45.1333,-389.53,0,0
393458,44.7482,-389.054,0,0
393719,44.3836,-388.557,0,0
393979,43.9695,-387.968,0,0
394239,43.598,-387.349,0,0
394500,43.1915,-386.734,0,0
394760.05,42.8497,-386.009,0,0
395020.375,42.4888,-385.243,0,0
395280.7,42.1637,-384.443,0,0
395541.025,41.8989,-383.62,0,0
395801.35,41.6854,-382.803,0,0
396061.675,41.5117,-381.886,0,0
396322.0,41.3718,-381.051,0,0
396582.325,41.2865,-380.203,0,0
396842.65,41.1933,-379.357,0,0
397102.975,41.169,-378.485,0,0
397363.3,41.1532,-377.643,0,0
397623.625,41.1677,-376.812,0,0
397883.95,41.2137,-375.968,0,0
398144.275,41.2679,-375.154,0,0
398404.6,41.3891,-374.367,0,0
398664.925,41.4701,-373.599,0,0
398925.25,41.6181,-372.832,0,0
399185.575,41.7228,-372.107,0,0
399445.9,41.8846,-371.377,0,0
399706.225,42.0251,-370.692,0,0
399966.55,42.2054,-370.012,0,0
400006.6,42.2102,-369.881,0,0