File: Accelerated corrosion test data/2025-10-20_13-55-17/sample_3.csv
Frequency (Hz),Impedance (ohms),Phase (Radians),Temperature (C),Humidity (%)
10000.0,253.654,-11897,0,0
10260.325,247.132,-11597.7,0,0
10520.65,241.208,-11312.2,0,0
10780.975,238.16,-11039.7,0,0
11041.3,230.976,-10786,0,0
11301.625,225.734,-10538.3,0,0
11561.95,220.861,-10302.9,0,0
11822.275,216.234,-10076.9,0,0
12082.6,213.605,-9861.08,0,0
12342.925,212.359,-9654.35,0,0
12603.25,204.522,-9457.71,0,0
12863.575,201.262,-9265.72,0,0
13123.9,202.51,-9081.6,0,0
13384.225,194.237,-8911.37,0,0
13644.55,191.4,-8740.49,0,0
13904.875,187.532,-8576.96,0,0
14165.2,185.726,-8419.53,0,0
14425.525,182.245,-8268.28,0,0
14685.8,180.627,-8121.87,0,0
14946.175,176.925,-7980.91,0,0
15206.5,176.33,-7838.86,0,0
15466.825,185.12,-7699.82,0,0
15727.15,195.894,-7598.69,0,0
15987.5,172.106,-7483.43,0,0
16247.8,168.837,-7354.61,0,0
16508.125,162.528,-7239.85,0,0
16768.45,170.267,-7118.8,0,0
17028.775,158.886,-7018.41,0,0
17289.1,165.573,-6905.46,0,0
17549.425,157.763,-6811.11,0,0
17809.75,157.375,-6707.3,0,0
18070.075,162.081,-6621.03,0,0
18330.4,153.242,-6524.63,0,0
18590.725,149.524,-6432.72,0,0
18851.05,146.385,-6341.37,0,0
19111.375,147.461,-6251.62,0,0
19371.7,146.412,-6167.09,0,0
19632.025,148.261,-6081.85,0,0
19892.35,151.041,-6002.73,0,0
20152.675,149.387,-5924.27,0,0
20413.0,164.534,-5849.44,0,0
20673.3,167.552,-5779.16,0,0
20933.65,164.3,-5728.35,0,0
21193.975,162.938,-5662.58,0,0
21454.3,145.212,-5599.59,0,0
21714.625,140.419,-5522.67,0,0
21974.9,146.94,-5460.48,0,0
22235.275,139.683,-5398.2,0,0
22495.6,137.171,-5335.75,0,0
22755.925,129.86,-5274.63,0,0
23016.25,129.158,-5215.04,0,0
23276.6,129.268,-5152,0,0
23536.9,130.137,-5106.59,0,0
23797.225,122.049,-5047.28,0,0
24057.55,120.226,-4989.09,0,0
24317.875,121.404,-4933.37,0,0
24578.2,117.79,-4883.18,0,0
24838.525,119.331,-4830,0,0
25098.85,116.863,-4782.26,0,0
25359.175,114.36,-4732.48,0,0
25619.5,114.404,-4683.7,0,0
25879.8,111.907,-4636.77,0,0
26140.1,109.847,-4588.7,0,0
26400.5,108.284,-4541.9,0,0
26660.8,108.845,-4495.64,0,0
26921.1,109.798,-4451.57,0,0
27181.4,109.879,-4411.17,0,0
27441.8,108.043,-4366.76,0,0
27702.1,109.541,-4326.86,0,0
27962.4,106.126,-4285.77,0,0
28222.7,105.213,-4242.21,0,0
28483.1,113.343,-4199.83,0,0
28743.4,116.427,-4165.74,0,0
29003.7,116.381,-4137.53,0,0
29264,107.422,-4101.47,0,0
29524.4,110.902,-4064.68,0,0
29784.7,105.307,-4029.16,0,0
30045,103.263,-3995.12,0,0
30305.3,101.69,-3957.07,0,0
30565.7,103.181,-3923.41,0,0
30826,102.102,-3890.91,0,0
31086.3,103.719,-3858.01,0,0
31346.6,100.04,-3827.34,0,0
31607,98.5478,-3792.94,0,0
31867.3,99.1213,-3758.38,0,0
32127.6,102.615,-3723.87,0,0
32387.9,112.197,-3696.57,0,0
32648.3,115.604,-3680.43,0,0
32908.6,104.103,-3654.29,0,0
33168.9,102.302,-3626.45,0,0
33429.2,99.863,-3600.16,0,0
33689.6,93.5831,-3571.6,0,0
33949.9,91.7163,-3541.29,0,0
34210.2,91.2796,-3513.27,0,0
34470.5,90.4663,-3486.73,0,0
34730.9,88.6281,-3460.63,0,0
34991.2,87.1732,-3433.62,0,0
35251.5,86.447,-3407.35,0,0
35511.8,85.3014,-3381.85,0,0
35772.2,84.8838,-3356.12,0,0
36032.5,84.0375,-3331.32,0,0
36292.8,83.1399,-3306.72,0,0
36553.1,83.2827,-3282.63,0,0
36813.5,82.2023,-3259,0,0
37073.8,81.4156,-3235.46,0,0
37334.1,80.9649,-3212.4,0,0
37594.4,80.526,-3189.48,0,0
37854.8,79.94,-3166.94,0,0
38115.1,79.539,-3144.96,0,0
38375.4,78.9067,-3123.22,0,0
38635.7,78.4588,-3101.33,0,0
38896.1,78.1049,-3079.88,0,0
39156.4,78.0971,-3058.81,0,0
39416.7,77.436,-3038.52,0,0
39677,76.8812,-3018.14,0,0
39937.4,76.4257,-2997.73,0,0
40197.7,76.0732,-2977.87,0,0
40458,75.6049,-2958.1,0,0
40718.3,75.1098,-2938.64,0,0
40978.7,74.9448,-2919.06,0,0
41239,74.8606,-2900.04,0,0
41499.3,74.9553,-2881.41,0,0
41759.6,75.1172,-2862.92,0,0
42020,74.3767,-2845.35,0,0
42280.275,74.0181,-2827.38,0,0
42540.6,73.6693,-2809.37,0,0
42800.925,74.0086,-2792.13,0,0
43061.25,73.1431,-2775.09,0,0
43321.575,72.6873,-2757.68,0,0
43581.9,72.3368,-2740.33,0,0
43842.225,72.4649,-2723.34,0,0
44102.55,72.7858,-2706.59,0,0
44362.875,72.5919,-2690.92,0,0
44623.2,71.9452,-2675.02,0,0
44883.525,71.7279,-2658.93,0,0
45143.85,71.6323,-2642.84,0,0
45404.175,70.9917,-2627.12,0,0
45664.5,70.6352,-2611.41,0,0
45924.825,71.6168,-2595.84,0,0
46185.15,70.7852,-2581.77,0,0
46445.475,70.2205,-2566.41,0,0
46705.8,70.4075,-2550.98,0,0
46966.125,70.5763,-2536.94,0,0
47226.45,69.858,-2522.36,0,0
47486.775,70.1126,-2507.78,0,0
47747.1,70.8109,-2493.46,0,0
48007.425,70.7396,-2480.41,0,0
48267.75,70.8821,-2467.02,0,0
48528.075,70.1364,-2453.86,0,0
48788.4,69.7419,-2440.73,0,0
49048.725,68.8964,-2427.45,0,0
49309.05,68.5051,-2413.68,0,0
49569.375,68.2899,-2400.36,0,0
49829.7,67.9578,-2387.64,0,0
50090.025,67.4056,-2374.63,0,0
50350.35,66.9076,-2361.46,0,0
50610.675,66.6375,-2348.33,0,0
50871.0,66.7925,-2335.75,0,0
51131.325,66.5235,-2323.11,0,0
51391.65,66.4053,-2310.58,0,0
51651.975,66.478,-2298.22,0,0
51912.3,66.5145,-2286.24,0,0
52172.625,66.2123,-2274.24,0,0
52432.95,66.2718,-2262.02,0,0
52693.275,66.2991,-2249.9,0,0
52953.6,66.6648,-2237.98,0,0
53213.925,67.2142,-2226.38,0,0
53474.25,68.0586,-2215.23,0,0
53734.575,68.2391,-2204.4,0,0
53994.9,68.2935,-2193.37,0,0
54255.225,69.36,-2182.55,0,0
54515.55,70.0836,-2172.99,0,0
54775.875,69.4645,-2163.87,0,0
55036.2,69.0054,-2153.56,0,0
55296.525,68.2962,-2144.16,0,0
55556.85,67.2485,-2134.57,0,0
55817.175,65.4357,-2123.87,0,0
56077.5,64.7682,-2113.26,0,0
56337.825,63.6748,-2102.73,0,0
56598.15,62.7583,-2092.1,0,0
56858.475,61.887,-2081.4,0,0
57118.8,61.3848,-2070.3,0,0
57379.125,61.3072,-2059.73,0,0
57639.45,61.2852,-2049.19,0,0
57899.775,61.315,-2038.97,0,0
58160.1,61.3149,-2028.92,0,0
58420.4,61.2537,-2018.83,0,0
58680.7,61.2463,-2008.7,0,0
58941.1,61.3577,-1998.6,0,0
59201.4,61.4468,-1988.73,0,0
59461.7,61.9122,-1979.19,0,0
59722,62.0511,-1969.6,0,0
59982.4,62.4264,-1960.1,0,0
60242.7,62.6224,-1950.75,0,0
60503,62.8422,-1941.52,0,0
60763.3,63.2127,-1932.19,0,0
61023.7,63.4811,-1922.91,0,0
61284,63.791,-1913.78,0,0
61544.3,64.3426,-1904.59,0,0
61804.6,64.9075,-1895.96,0,0
62065,65.1104,-1886.8,0,0
62325.3,65.6381,-1877.8,0,0
62585.6,66.2817,-1869.2,0,0
62845.9,66.6785,-1860.11,0,0
63106.3,67.8474,-1850.98,0,0
63366.6,68.9553,-1842.88,0,0
63626.9,69.9023,-1834.04,0,0
63887.2,71.0183,-1825.51,0,0
64147.6,72.3102,-1816.49,0,0
64407.9,75.2302,-1807.85,0,0
64668.2,77.641,-1800.45,0,0
64928.5,80.5349,-1792.71,0,0
65188.9,84.498,-1787.09,0,0
65449.2,86.7769,-1781.95,0,0
65709.5,89.3773,-1777.2,0,0
65969.8,92.5926,-1774.45,0,0
66230.2,92.1185,-1775.13,0,0
66490.5,86.094,-1773.02,0,0
66750.8,81.1754,-1766.07,0,0
67011.1,78.1951,-1757.64,0,0
67271.5,75.6365,-1749.2,0,0
67531.8,74.7568,-1740.46,0,0
67792.1,74.7077,-1731.91,0,0
68052.4,75.3561,-1724.11,0,0
68312.8,76.5521,-1717.37,0,0
68573.1,76.2228,-1711.17,0,0
68833.4,76.4143,-1704.17,0,0
69093.7,77.0753,-1697.42,0,0
69354.1,77.5924,-1691.87,0,0
69614.4,77.779,-1686.62,0,0
69874.7,77.0604,-1681.33,0,0
70135,76.0521,-1675.45,0,0
70395.4,75.3238,-1669.71,0,0
70655.7,74.0502,-1663.75,0,0
70916,72.7321,-1657.51,0,0
71176.3,71.6753,-1650.78,0,0
71436.7,71.1402,-1644.05,0,0
71697,70.3056,-1637.23,0,0
71957.3,70.2757,-1630.25,0,0
72217.6,70.6108,-1623.86,0,0
72478,70.6589,-1617.67,0,0
72738.3,70.9153,-1612.14,0,0
72998.6,70.5348,-1606.68,0,0
73258.9,70.0963,-1600.97,0,0
73519.3,69.7133,-1595.27,0,0
73779.6,69.4177,-1589.66,0,0
74039.9,68.8141,-1584.28,0,0
74300.225,68.0298,-1578.75,0,0
74560.55,67.2445,-1573.02,0,0
74820.875,66.4618,-1567.36,0,0
75081.2,65.7132,-1561.75,0,0
75341.525,64.8579,-1555.95,0,0
75601.85,64.1551,-1550.14,0,0
75862.175,63.3926,-1544.35,0,0
76122.5,62.5391,-1538.46,0,0
76382.825,61.8399,-1532.48,0,0
76643.15,61.3022,-1526.6,0,0
76903.475,60.6429,-1520.76,0,0
77163.8,60.2199,-1515.01,0,0
77424.125,59.6117,-1509.28,0,0
77684.45,59.0225,-1503.48,0,0
77944.775,58.5265,-1497.7,0,0
78205.1,57.9376,-1491.95,0,0
78465.425,57.4884,-1486.18,0,0
78725.75,57.0179,-1480.46,0,0
78986.075,56.594,-1474.77,0,0
79246.4,56.1417,-1469.06,0,0
79506.725,55.7452,-1463.42,0,0
79767.05,55.4462,-1457.63,0,0
80027.375,55.1724,-1451.99,0,0
80287.7,54.9391,-1446.43,0,0
80548.025,54.6261,-1440.96,0,0
80808.35,54.3641,-1435.41,0,0
81068.675,54.2038,-1429.92,0,0
81329.0,53.9512,-1424.46,0,0
81589.325,53.7616,-1418.97,0,0
81849.65,53.609,-1413.59,0,0
82109.975,53.4571,-1408.19,0,0
82370.3,53.2743,-1402.87,0,0
82630.625,53.246,-1397.59,0,0
82890.95,53.133,-1392.31,0,0
83151.275,53.0058,-1387.08,0,0
83411.6,52.8892,-1381.88,0,0
83671.925,52.8641,-1376.64,0,0
83932.25,52.8755,-1371.58,0,0
84192.575,52.7919,-1366.42,0,0
84452.9,52.7476,-1361.38,0,0
84713.225,52.7033,-1356.25,0,0
84973.55,52.6204,-1351.22,0,0
85233.875,52.5921,-1346.26,0,0
85494.2,52.5995,-1341.23,0,0
85754.525,52.6171,-1336.26,0,0
86014.85,52.6311,-1331.38,0,0
86275.175,52.6255,-1326.47,0,0
86535.5,52.6444,-1321.55,0,0
86795.825,52.7834,-1316.8,0,0
87056.15,52.6775,-1311.92,0,0
87316.475,52.6932,-1306.92,0,0
87576.8,52.9219,-1302.13,0,0
87837.125,53.0573,-1297.37,0,0
88097.45,53.096,-1292.76,0,0
88357.775,53.125,-1287.79,0,0
88618.1,53.2528,-1282.98,0,0
88878.425,53.5593,-1278.27,0,0
89138.75,53.8445,-1273.3,0,0
89399.075,54.3961,-1268.66,0,0
89659.4,54.9154,-1264.42,0,0
89919.725,55.2539,-1259.82,0,0
90180,55.7511,-1255.64,0,0
90440.4,56.1459,-1251.45,0,0
90700.7,56.3553,-1246.95,0,0
90961,56.8014,-1242.68,0,0
91221.3,57.279,-1238.36,0,0
91481.7,57.6462,-1234.25,0,0
91742,57.835,-1230.09,0,0
92002.3,58.2884,-1226.01,0,0
92262.6,58.7276,-1221.8,0,0
92523,59.6487,-1217.92,0,0
92783.3,59.9755,-1214.34,0,0
93043.6,60.2978,-1210.59,0,0
93303.9,60.8876,-1206.6,0,0
93564.3,61.5668,-1203.13,0,0
93824.6,62.2246,-1200.01,0,0
94084.9,62.6573,-1197.35,0,0
94345.2,62.3614,-1194.75,0,0
94605.6,61.7175,-1191.71,0,0
94865.9,61.1372,-1188.72,0,0
95126.2,60.0367,-1185.63,0,0
95386.5,58.602,-1181.93,0,0
95646.9,57.5911,-1177.72,0,0
95907.2,56.7931,-1173.43,0,0
96167.5,56.0583,-1169.06,0,0
96427.8,55.7172,-1164.46,0,0
96688.2,55.6545,-1160.24,0,0
96948.5,55.6201,-1156.03,0,0
97208.8,55.4752,-1151.98,0,0
97469.1,55.3867,-1147.86,0,0
97729.5,55.3425,-1143.83,0,0
97989.8,55.3154,-1139.82,0,0
98250.1,55.2767,-1135.82,0,0
98510.4,55.3074,-1131.81,0,0
98770.8,55.438,-1128,0,0
99031.1,55.3191,-1124.19,0,0
99291.4,55.2067,-1120.31,0,0
99551.7,55.1869,-1116.42,0,0
99812.1,55.1187,-1112.51,0,0
100072,55.1093,-1108.59,0,0
100333,55.0516,-1104.67,0,0
100593,54.993,-1100.79,0,0
100853,54.8535,-1096.76,0,0
101114,54.9316,-1092.67,0,0
101374,55.0403,-1088.66,0,0
101634,55.1678,-1084.55,0,0
101895,55.4616,-1080.38,0,0
102155,55.8659,-1076.28,0,0
102415,56.4601,-1072.07,0,0
102676,57.3653,-1068.12,0,0
102936,58.3169,-1064.51,0,0
103196,59.0417,-1061.22,0,0
103457,59.5064,-1057.91,0,0
103717,60.0768,-1054.3,0,0
103977,60.8459,-1050.82,0,0
104238,61.8153,-1047.49,0,0
104498,62.8233,-1044.83,0,0
104758,63.256,-1042.27,0,0
105019,63.4554,-1039.62,0,0
105279,63.4862,-1036.79,0,0
105539,63.6824,-1033.82,0,0
105800,63.8204,-1031.17,0,0
106060,63.7458,-1028.49,0,0
106320.175,63.4148,-1025.77,0,0
106580.5,63.1232,-1022.69,0,0
106840.825,62.8745,-1019.81,0,0
107101.15,62.3429,-1016.74,0,0
107361.475,62.0366,-1013.48,0,0
107621.8,61.7041,-1010.26,0,0
107882.125,61.3401,-1007.02,0,0
108142.45,61.0422,-1003.73,0,0
108402.775,60.6636,-1000.44,0,0
108663.1,60.133,-996.973,0,0
108923.425,59.7537,-993.268,0,0
109183.75,59.5615,-989.498,0,0
109444.075,59.624,-985.805,0,0
109704.4,59.6057,-982.194,0,0
109964.725,59.5604,-978.658,0,0
110225.05,59.5682,-974.943,0,0
110485.375,59.7193,-971.057,0,0
110745.7,60.1174,-967.144,0,0
111006.025,60.5985,-963.543,0,0
111266.35,61.2609,-960.168,0,0
111526.675,61.7278,-956.734,0,0
111787.0,62.2557,-953.44,0,0
112047.325,62.7045,-950.338,0,0
112307.65,63.1504,-947.049,0,0
112567.975,63.4507,-944.025,0,0
112828.3,63.8427,-940.858,0,0
113088.625,64.1096,-937.798,0,0
113348.95,64.3423,-934.756,0,0
113609.275,64.4761,-931.531,0,0
113869.6,64.6632,-928.191,0,0
114129.925,64.9852,-924.933,0,0
114390.25,65.1726,-921.751,0,0
114650.575,65.3347,-918.36,0,0
114910.9,65.6501,-914.858,0,0
115171.225,66.0583,-911.359,0,0
115431.55,66.6723,-907.954,0,0
115691.875,67.2017,-904.614,0,0
115952.2,67.8091,-901.275,0,0
116212.525,68.42,-897.904,0,0
116472.85,69.146,-894.43,0,0
116733.175,70.0174,-891.105,0,0
116993.5,70.8662,-887.839,0,0
117253.825,71.6408,-884.564,0,0
117514.15,72.459,-880.971,0,0
117774.475,73.8901,-877.299,0,0
118034.8,75.8889,-874.251,0,0
118295.125,77.4879,-871.798,0,0
118555.45,78.8732,-869.477,0,0
118815.775,79.8628,-867.007,0,0
119076.1,81.1446,-864.14,0,0
119336.425,82.8432,-861.576,0,0
119596.75,84.7174,-859.354,0,0
119857.075,86.656,-857.607,0,0
120117.4,88.6854,-856.635,0,0
120377.725,89.7008,-856.448,0,0
120638.05,89.7931,-855.796,0,0
120898.375,89.7035,-855.111,0,0
121158.7,88.8373,-854.112,0,0
121419.025,87.7228,-852.402,0,0
121679.35,86.6885,-850.079,0,0
121939.675,86.0072,-847.286,0,0
122200.0,85.7025,-844.469,0,0
122460,85.5235,-841.613,0,0
122721,85.6248,-838.662,0,0
122981,85.9964,-835.8,0,0
123241,86.5358,-833.235,0,0
123502,86.9477,-830.891,0,0
123762,87.2084,-828.46,0,0
124022,87.6229,-825.947,0,0
124283,88.0852,-823.589,0,0
124543,88.5086,-821.3,0,0
124803,88.8904,-819.093,0,0
125064,89.2694,-816.807,0,0
125324,89.7204,-814.619,0,0
125584,90.1708,-812.521,0,0
125845,90.6253,-810.587,0,0
126105,90.8557,-808.768,0,0
126365,90.9064,-806.947,0,0
126626,90.8328,-804.948,0,0
126886,90.8291,-802.854,0,0
127146,90.8846,-800.794,0,0
127406,90.7863,-798.751,0,0
127667,90.8736,-796.886,0,0
127927,90.625,-794.868,0,0
128187,90.3172,-792.84,0,0
128448,89.8446,-790.755,0,0
128708,89.3219,-788.339,0,0
128968,89.0238,-785.69,0,0
129229,88.9806,-783.132,0,0
129489,88.9639,-780.71,0,0
129749,88.7398,-778.292,0,0
130010,88.6262,-775.505,0,0
130270,88.9674,-772.832,0,0
130530,89.3534,-770.483,0,0
130791,89.6816,-768.365,0,0
131051,89.8306,-766.39,0,0
131311,89.7713,-764.459,0,0
131572,89.5628,-762.437,0,0
131832,89.1828,-760.291,0,0
132092,88.8407,-758.012,0,0
132353,88.5683,-755.579,0,0
132613,88.3743,-753.136,0,0
132873,88.2534,-750.808,0,0
133134,88.0227,-748.479,0,0
133394,87.7886,-746.156,0,0
133654,87.49,-743.835,0,0
133915,87.0002,-741.385,0,0
134175,86.7124,-738.727,0,0
134435,86.5464,-736.179,0,0
134696,86.2913,-733.728,0,0
134956,85.915,-731.223,0,0
135216,85.6071,-728.535,0,0
135477,85.4487,-725.879,0,0
135737,85.1972,-723.387,0,0
135997,84.8452,-720.768,0,0
136258,84.3591,-717.965,0,0
136518,83.9588,-715.068,0,0
136778,83.7112,-712.016,0,0
137039,83.6033,-708.941,0,0
137299,83.5296,-705.904,0,0
137559,83.7063,-702.793,0,0
137819,83.9976,-699.834,0,0
138080,84.3939,-697.061,0,0
138340.125,84.6527,-694.366,0,0
138600.45,84.8998,-691.752,0,0
138860.775,85.1494,-689.302,0,0
139121.1,85.0953,-686.922,0,0
139381.425,84.9399,-684.339,0,0
139641.75,84.7611,-681.732,0,0
139902.075,84.5667,-678.95,0,0
140162.4,84.5233,-676.124,0,0
140422.725,84.512,-673.425,0,0
140683.05,84.385,-670.787,0,0
140943.375,84.1339,-668.071,0,0
141203.7,83.8423,-665.272,0,0
141464.025,83.4794,-662.381,0,0
141724.35,83.0847,-659.358,0,0
141984.675,82.7814,-656.093,0,0
142245.0,82.5971,-652.86,0,0
142505.325,82.4283,-649.614,0,0
142765.65,82.2661,-646.255,0,0
143025.975,82.1888,-642.863,0,0
143286.3,82.1863,-639.422,0,0
143546.625,82.2471,-635.965,0,0
143806.95,82.3459,-632.501,0,0
144067.275,82.4113,-628.982,0,0
144327.6,82.5824,-625.372,0,0
144587.925,82.8614,-621.765,0,0
144848.25,83.2043,-618.149,0,0
145108.575,83.5876,-614.582,0,0
145368.9,83.974,-611.04,0,0
145629.225,84.3004,-607.453,0,0
145889.55,84.5622,-603.779,0,0
146149.875,84.9401,-599.896,0,0
146410.2,85.532,-595.982,0,0
146670.525,86.2056,-592.17,0,0
146930.85,86.8211,-588.265,0,0
147191.175,87.6011,-584.33,0,0
147451.5,88.4299,-580.379,0,0
147711.825,89.3372,-576.401,0,0
147972.15,90.3224,-572.444,0,0
148232.475,91.3464,-568.441,0,0
148492.8,92.4799,-564.399,0,0
148753.125,93.6891,-560.338,0,0
149013.45,94.9723,-556.223,0,0
149273.775,96.3706,-552.022,0,0
149534.1,98.0277,-547.772,0,0
149794.425,99.9399,-543.575,0,0
150054.75,101.955,-539.532,0,0
150315.075,104.138,-535.679,0,0
150575.4,106.328,-531.898,0,0
150835.725,108.595,-528.194,0,0
151096.05,110.956,-524.601,0,0
151356.375,113.385,-521.113,0,0
151616.7,115.908,-517.722,0,0
151877.025,118.5,-514.541,0,0
152137.35,121.057,-511.603,0,0
152397.675,123.466,-508.776,0,0
152658.0,125.818,-505.979,0,0
152918.325,128.107,-503.248,0,0
153178.65,130.35,-500.621,0,0
153438.975,132.369,-498.033,0,0
153699.3,134.343,-495.245,0,0
153959.625,136.374,-492.445,0,0
154219.95,138.492,-489.697,0,0
154480,140.436,-487.161,0,0
154741,142.095,-484.486,0,0
155001,143.813,-481.322,0,0
155261,145.596,-478.193,0,0
155522,147.788,-475.073,0,0
155782,149.785,-472.018,0,0
156042,151.818,-468.854,0,0
156303,153.776,-465.558,0,0
156563,155.955,-462.075,0,0
156823,158.402,-458.344,0,0
157084,161.364,-454.699,0,0
157344,164.71,-451.406,0,0
157604,168.39,-448.603,0,0
157864,172.042,-446.725,0,0
158125,174.783,-445.443,0,0
158385,176.702,-443.976,0,0
158645,178.047,-442,0,0
158906,179.327,-439.796,0,0
159166,180.01,-437.184,0,0
159426,180.592,-433.544,0,0
159687,181.48,-429.392,0,0
159947,182.698,-424.535,0,0
160207,184.68,-418.97,0,0
160468,187.816,-413.494,0,0
160728,191.435,-408.75,0,0
160988,194.436,-404.503,0,0
161249,197.107,-399.101,0,0
161509,201.012,-392.952,0,0
161769,206.152,-387.273,0,0
162030,211.541,-382.298,0,0
162290,216.723,-377.553,0,0
162550,222.407,-372.435,0,0
162811,228.373,-367.806,0,0
163071,234.362,-362.775,0,0
163331,241.261,-357.285,0,0
163592,249.6,-352.022,0,0
163852,258.86,-348.131,0,0
164112,268.165,-345.026,0,0
164373,277.405,-342.355,0,0
164633,287.271,-339.892,0,0
164893,297.929,-338.186,0,0
165154,309.117,-337.95,0,0
165414,320.027,-338.862,0,0
165674,330.634,-341.033,0,0
165935,340.455,-343.607,0,0
166195,350.235,-346.426,0,0
166455,360.339,-350.374,0,0
166716,369.776,-355.471,0,0
166976,378.505,-361.613,0,0
167236,386.016,-368.277,0,0
167497,392.53,-375.337,0,0
167757,398.281,-382.436,0,0
168017,403.261,-389.629,0,0
168277,407.607,-396.708,0,0
168538,411.292,-403.671,0,0
168798,414.941,-410.775,0,0
169058,417.895,-418.332,0,0
169319,419.862,-426.464,0,0
169579,420.377,-434.585,0,0
169839,419.222,-442.194,0,0
170100,416.767,-448.283,0,0
170360.075,414.19,-452.373,0,0
170620.4,412.357,-455.286,0,0
170880.725,411.234,-458.115,0,0
171141.05,409.842,-460.616,0,0
171401.375,408.885,-461.939,0,0
171661.7,409.141,-463.393,0,0
171922.025,409.42,-465.475,0,0
172182.35,409.417,-467.514,0,0
172442.675,409.132,-468.895,0,0
172703.0,409.865,-469.319,0,0
172963.325,412.178,-470.525,0,0
173223.65,414.353,-473.407,0,0
173483.975,415.341,-476.633,0,0
173744.3,415.765,-479.358,0,0
174004.625,416.344,-481.341,0,0
174264.95,417.854,-483.188,0,0
174525.275,420.078,-486.176,0,0
174785.6,421.212,-490.361,0,0
175045.925,421.529,-493.64,0,0
175306.25,422.722,-496.579,0,0
175566.575,424.589,-500.442,0,0
175826.9,425.999,-505.975,0,0
176087.225,425.778,-511.983,0,0
176347.55,424.847,-517.745,0,0
176607.875,423.46,-524.083,0,0
176868.2,420.64,-531.193,0,0
177128.525,415.096,-537.947,0,0
177388.85,407.752,-542.141,0,0
177649.175,400.917,-543.892,0,0
177909.5,394.884,-545.285,0,0
178169.825,388.066,-545.993,0,0
178430.15,381.201,-544.46,0,0
178690.475,375.881,-541.42,0,0
178950.8,371.965,-538.048,0,0
179211.125,369.003,-534.582,0,0
179471.45,366.935,-531.056,0,0
179731.775,365.765,-527.48,0,0
179992.1,365.589,-524.377,0,0
180252.425,365.865,-522.031,0,0
180512.75,366.218,-519.959,0,0
180773.075,367.118,-518.139,0,0
181033.4,368.278,-516.949,0,0
181293.725,369.604,-516.303,0,0
181554.05,370.916,-516.488,0,0
181814.375,371.96,-517.078,0,0
182074.7,372.661,-518.606,0,0
182335.025,372.396,-520.329,0,0
182595.35,371.592,-521.929,0,0
182855.675,370.205,-523.486,0,0
183116.0,368.444,-524.644,0,0
183376.325,366.478,-525.707,0,0
183636.65,364.141,-526.627,0,0
183896.975,361.249,-527.12,0,0
184157.3,358.285,-527.061,0,0
184417.625,355.517,-526.889,0,0
184677.95,352,-526.696,0,0
184938.275,348.086,-525.436,0,0
185198.6,344.535,-523.442,0,0
185458.925,341.274,-521.043,0,0
185719.25,338.118,-518.402,0,0
185979.575,334.938,-514.993,0,0
186239.9,332.243,-511.068,0,0
186500,330.213,-506.349,0,0
186761,329.36,-501.563,0,0
187021,329.303,-497.277,0,0
187281,329.37,-493.588,0,0
187542,329.369,-490.091,0,0
187802,329.411,-486.55,0,0
188062,329.695,-482.976,0,0
188322,330.209,-479.706,0,0
188583,330.518,-476.69,0,0
188843,330.439,-473.42,0,0
189103,330.481,-469.548,0,0
189364,331.151,-465.333,0,0
189624,332.394,-461.231,0,0
189884,334.027,-457.378,0,0
190145,335.922,-453.846,0,0
190405,337.875,-450.564,0,0
190665,339.907,-447.541,0,0
190926,341.915,-444.717,0,0
191186,343.789,-442.116,0,0
191446,345.488,-439.566,0,0
191707,346.951,-436.857,0,0
191967,348.459,-433.863,0,0
192227,350.07,-430.796,0,0
192488,351.591,-427.444,0,0
192748,353.331,-423.662,0,0
193008,355.547,-419.588,0,0
193269,358.36,-415.359,0,0
193529,361.887,-411.248,0,0
193789,365.982,-407.645,0,0
194050,370.034,-404.534,0,0
194310,374.208,-401.614,0,0
194570,378.415,-398.768,0,0
194831,382.789,-396.046,0,0
195091,387.356,-393.264,0,0
195351,392.37,-390.514,0,0
195612,398.095,-387.821,0,0
195872,404.65,-385.901,0,0
196132,411.493,-385.121,0,0
196393,418.143,-385.428,0,0
196653,424.311,-386.521,0,0
196913,429.773,-388.672,0,0
197174,434.083,-390.612,0,0
197434,438.248,-392.244,0,0
197694,442.218,-394.36,0,0
197955,445.647,-396.701,0,0
198215,448.238,-398.895,0,0
198475,450.539,-400.747,0,0
198735,452.475,-402.75,0,0
198996,453.439,-404.116,0,0
199256,454.555,-404.529,0,0
199516,456.022,-404.747,0,0
199777,457.46,-405.011,0,0
200037,458.498,-405.089,0,0
200297,459.113,-404.594,0,0
200558,459.732,-402.952,0,0
200818,461.251,-400.307,0,0
201078,463.898,-397.511,0,0
201339,467.259,-394.962,0,0
201599,471.084,-392.631,0,0
201859,475.307,-390.416,0,0
202120,480.093,-388.284,0,0
202380.025,485.561,-386.382,0,0
202640.35,491.758,-385.37,0,0
202900.675,497.88,-385.253,0,0
203161.0,503.71,-385.53,0,0
203421.325,509.437,-385.975,0,0
203681.65,515.355,-386.635,0,0
203941.975,521.481,-387.678,0,0
204202.3,527.874,-389.401,0,0
204462.625,534.027,-392.263,0,0
204722.95,539.007,-395.763,0,0
204983.275,543.291,-399.074,0,0
205243.6,546.904,-402.37,0,0
205503.925,549.816,-405.235,0,0
205764.25,552.486,-407.337,0,0
206024.575,555.319,-409.359,0,0
206284.9,557.502,-411.069,0,0
206545.225,559.739,-411.56,0,0
206805.55,562.689,-411.3,0,0
207065.875,566.832,-410.64,0,0
207326.2,571.954,-410.5,0,0
207586.525,577.308,-410.836,0,0
207846.85,582.915,-411.143,0,0
208107.175,589.302,-411.516,0,0
208367.5,596.683,-412.599,0,0
208627.825,604.249,-414.904,0,0
208888.15,611.649,-418.194,0,0
209148.475,618.503,-422.241,0,0
209408.8,624.824,-426.45,0,0
209669.125,630.845,-430.559,0,0
209929.45,637.153,-434.81,0,0
210189.775,643.339,-439.436,0,0
210450.1,649.559,-444.416,0,0
210710.425,655.829,-449.981,0,0
210970.75,661.896,-455.868,0,0
211231.075,667.642,-462.334,0,0
211491.4,672.95,-469.24,0,0
211751.725,677.582,-476.245,0,0
212012.05,681.931,-482.922,0,0
212272.375,686.48,-489.471,0,0
212532.7,691.157,-496.394,0,0
212793.025,695.819,-503.937,0,0
213053.35,700.368,-511.924,0,0
213313.675,704.479,-520.622,0,0
213574.0,707.764,-529.625,0,0
213834.325,710.063,-538.744,0,0
214094.65,712.114,-547.6,0,0
214354.975,713.705,-556.392,0,0
214615.3,715.072,-564.939,0,0
214875.625,716.158,-573.184,0,0
215135.95,717.286,-581.608,0,0
215396.275,718.414,-590.204,0,0
215656.6,719.059,-599.034,0,0
215916.925,719.426,-607.754,0,0
216177.25,719.72,-616.502,0,0
216437.575,719.752,-625.522,0,0
216697.9,719.403,-634.765,0,0
216958.225,718.525,-644,0,0
217218.55,717.095,-653.445,0,0
217478.875,715.334,-662.597,0,0
217739.2,712.872,-671.701,0,0
217999.525,709.805,-680.407,0,0
218259.85,706.557,-688.651,0,0
218520,703.213,-696.609,0,0
218780,699.608,-704.043,0,0
219041,696.152,-711.261,0,0
219301,692.72,-718.153,0,0
219561,689.548,-725.12,0,0
219822,686.34,-732.125,0,0
220082,683.077,-739.201,0,0
220342,679.721,-746.377,0,0
220603,676.43,-753.959,0,0
220863,672.67,-761.757,0,0
221123,668.347,-769.845,0,0
221384,663.673,-777.775,0,0
221644,658.611,-785.844,0,0
221904,652.736,-794.27,0,0
222165,645.842,-802.53,0,0
222425,637.834,-810.202,0,0
222685,628.918,-816.84,0,0
222946,619.915,-822.503,0,0
223206,610.426,-827.263,0,0
223466,600.678,-830.668,0,0
223727,591.649,-832.878,0,0
223987,583.083,-834.664,0,0
224247,574.732,-835.712,0,0
224508,567.248,-836.141,0,0
224768,560.336,-836.088,0,0
225028,554.186,-835.738,0,0
225289,549.027,-835.615,0,0
225549,544.316,-835.801,0,0
225809,539.898,-836.251,0,0
226070,535.735,-836.908,0,0
226330,531.774,-837.872,0,0
226590,527.897,-838.968,0,0
226851,524.268,-840.338,0,0
227111,520.935,-842.204,0,0
227371,517.254,-844.804,0,0
227632,512.673,-847.84,0,0
227892,507.488,-850.398,0,0
228152,502.124,-852.504,0,0
228413,496.635,-854.162,0,0
228673,491.428,-855.498,0,0
228933,486.378,-856.859,0,0
229193,481.332,-858.114,0,0
229454,476.491,-859.596,0,0
229714,471.447,-861.161,0,0
229974,465.981,-862.776,0,0
230235,460.365,-864.223,0,0
230495,454.474,-865.216,0,0
230755,448.715,-865.986,0,0
231016,442.914,-866.47,0,0
231276,437.219,-866.662,0,0
231536,431.724,-866.724,0,0
231797,426.298,-866.608,0,0
232057,420.956,-866.436,0,0
232317,415.647,-866.061,0,0
232578,410.515,-865.642,0,0
232838,405.599,-865.146,0,0
233098,400.645,-864.637,0,0
233359,395.774,-864.129,0,0
233619,391.041,-863.611,0,0
233879,386.149,-862.948,0,0
234140,381.429,-862.196,0,0
234400,376.939,-861.397,0,0
234660.3,372.498,-860.699,0,0
234920.625,368.062,-860.081,0,0
235180.95,363.663,-859.479,0,0
235441.275,359.034,-859.114,0,0
235701.6,354.251,-858.672,0,0
235961.925,349.233,-858.11,0,0
236222.25,343.995,-857.2,0,0
236482.575,338.857,-855.936,0,0
236742.9,333.832,-854.539,0,0
237003.225,329.088,-853.002,0,0
237263.55,324.155,-851.621,0,0
237523.875,319.174,-850.052,0,0
237784.2,314.128,-848.142,0,0
238044.525,309.076,-846.057,0,0
238304.85,304.246,-843.544,0,0
238565.175,299.691,-840.918,0,0
238825.5,295.198,-838.37,0,0
239085.825,290.871,-835.618,0,0
239346.15,286.632,-832.673,0,0
239606.475,282.666,-829.627,0,0
239866.8,278.771,-826.668,0,0
240127.125,275.111,-823.553,0,0
240387.45,271.271,-820.516,0,0
240647.775,267.665,-817.304,0,0
240908.1,264.038,-814.017,0,0
241168.425,260.552,-810.461,0,0
241428.75,257.383,-806.634,0,0
241689.075,254.531,-802.583,0,0
241949.4,251.881,-798.637,0,0
242209.725,249.65,-794.544,0,0
242470.05,247.77,-790.626,0,0
242730.375,246.102,-786.803,0,0
242990.7,245.005,-783.156,0,0
243251.025,244.158,-779.973,0,0
243511.35,243.251,-777.291,0,0
243771.675,242.141,-774.906,0,0
244032.0,240.811,-772.717,0,0
244292.325,239.101,-770.466,0,0
244552.65,237.311,-768.047,0,0
244812.975,235.578,-765.362,0,0
245073.3,233.897,-762.554,0,0
245333.625,232.428,-759.774,0,0
245593.95,231.004,-756.906,0,0
245854.275,229.749,-754.05,0,0
246114.6,228.578,-751.288,0,0
246374.925,227.509,-748.523,0,0
246635.25,226.62,-745.826,0,0
246895.575,225.796,-743.201,0,0
247155.9,224.932,-740.811,0,0
247416.225,223.998,-738.36,0,0
247676.55,223.007,-735.836,0,0
247936.875,222.112,-733.137,0,0
248197.2,221.375,-730.389,0,0
248457.525,220.947,-727.579,0,0
248717.85,220.845,-724.931,0,0
248978.175,220.984,-722.52,0,0
249238.5,221.205,-720.501,0,0
249498.825,221.305,-718.83,0,0
249759.15,221.266,-717.299,0,0
250019.475,221.103,-715.922,0,0
250279.8,220.843,-714.697,0,0
250540,220.277,-713.566,0,0
250800,219.598,-712.513,0,0
251061,218.78,-711.132,0,0
251321,217.917,-709.898,0,0
251581,216.864,-708.696,0,0
251842,215.652,-707.379,0,0
252102,214.327,-705.895,0,0
252362,212.9,-704.309,0,0
252623,211.494,-702.444,0,0
252883,210.222,-700.525,0,0
253143,208.88,-698.53,0,0
253404,207.522,-696.476,0,0
253664,206.13,-694.161,0,0
253924,204.811,-691.583,0,0
254185,203.634,-688.815,0,0
254445,202.711,-685.956,0,0
254705,201.958,-682.925,0,0
254966,201.309,-679.936,0,0
255226,200.839,-676.862,0,0
255486,200.513,-673.668,0,0
255747,200.465,-670.328,0,0
256007,200.731,-667.067,0,0
256267,201.348,-663.728,0,0
256528,202.279,-660.584,0,0
256788,203.315,-657.645,0,0
257048,204.564,-654.913,0,0
257309,205.837,-652.309,0,0
257569,207.255,-649.816,0,0
257829,208.714,-647.412,0,0
258090,210.281,-645.124,0,0
258350,211.951,-642.905,0,0
258610,213.809,-640.687,0,0
258871,215.888,-638.585,0,0
259131,218.225,-636.726,0,0
259391,220.759,-635.053,0,0
259651,223.51,-633.59,0,0
259912,226.302,-632.446,0,0
260172,229.277,-631.609,0,0
260432,232.387,-630.922,0,0
260693,235.888,-630.597,0,0
260953,239.619,-630.915,0,0
261213,243.372,-632.158,0,0
261474,246.735,-634.226,0,0
261734,249.475,-636.813,0,0
261994,251.54,-639.775,0,0
262255,253.012,-642.941,0,0
262515,253.793,-646.122,0,0
262775,254.062,-649.26,0,0
263036,254.002,-652.273,0,0
263296,253.545,-654.94,0,0
263556,252.823,-657.703,0,0
263817,251.793,-660.348,0,0
264077,250.373,-662.844,0,0
264337,248.658,-665.021,0,0
264598,246.825,-666.975,0,0
264858,244.934,-668.793,0,0
265118,242.82,-670.561,0,0
265379,240.456,-672.186,0,0
265639,237.876,-673.59,0,0
265899,234.988,-674.781,0,0
266160,231.964,-675.659,0,0
266420,228.688,-676.131,0,0
266680.25,225.389,-676.272,0,0
266940.575,222.028,-675.928,0,0
267200.9,218.84,-675.128,0,0
267461.225,215.875,-673.994,0,0
267721.55,213.16,-672.641,0,0
267981.875,210.655,-671.182,0,0
268242.2,208.382,-669.633,0,0
268502.525,206.253,-667.973,0,0
268762.85,204.204,-666.231,0,0
269023.175,202.304,-664.429,0,0
269283.5,200.541,-662.47,0,0
269543.825,199.008,-660.434,0,0
269804.15,197.658,-658.341,0,0
270064.475,196.422,-656.156,0,0
270324.8,195.491,-654.042,0,0
270585.125,194.683,-651.947,0,0
270845.45,194.116,-649.879,0,0
271105.775,193.565,-647.98,0,0
271366.1,193.163,-646.12,0,0
271626.425,192.848,-644.324,0,0
271886.75,192.652,-642.685,0,0
272147.075,192.39,-641.205,0,0
272407.4,192.026,-639.864,0,0
272667.725,191.527,-638.376,0,0
272928.05,191.008,-636.79,0,0
273188.375,190.576,-635.097,0,0
273448.7,190.215,-633.324,0,0
273709.025,189.985,-631.506,0,0
273969.35,189.872,-629.623,0,0
274229.675,189.937,-627.686,0,0
274490.0,190.021,-625.8,0,0
274750.325,190.347,-623.85,0,0
275010.65,190.848,-621.943,0,0
275270.975,191.462,-620.061,0,0
275531.3,192.351,-618.262,0,0
275791.625,193.346,-616.571,0,0
276051.95,194.502,-614.99,0,0
276312.275,195.87,-613.569,0,0
276572.6,197.366,-612.319,0,0
276832.925,199.01,-611.344,0,0
277093.25,200.674,-610.651,0,0
277353.575,202.316,-610.189,0,0
277613.9,203.934,-609.93,0,0
277874.225,205.529,-609.837,0,0
278134.55,207.133,-609.917,0,0
278394.875,208.728,-610.266,0,0
278655.2,210.254,-610.883,0,0
278915.525,211.533,-611.7,0,0
279175.85,212.653,-612.732,0,0
279436.175,213.593,-613.854,0,0
279696.5,214.421,-615.122,0,0
279956.825,215.036,-616.627,0,0
280217.15,215.366,-618.18,0,0
280477.475,215.368,-619.771,0,0
280737.8,215.144,-621.257,0,0
280998.125,214.707,-622.731,0,0
281258.45,214.169,-624.088,0,0
281518.775,213.454,-625.472,0,0
281779.1,212.496,-626.77,0,0
282039.425,211.344,-627.952,0,0
282299.75,210.086,-628.963,0,0
282560,208.773,-629.842,0,0
282820,207.325,-630.648,0,0
283081,205.78,-631.267,0,0
283341,204.164,-631.736,0,0
283601,202.534,-631.972,0,0
283862,200.958,-632.089,0,0
284122,199.39,-632.158,0,0
284382,197.837,-632.132,0,0
284643,196.28,-632.002,0,0
284903,194.653,-631.733,0,0
285163,193.112,-631.346,0,0
285424,191.546,-630.883,0,0
285684,190.126,-630.225,0,0
285944,188.72,-629.548,0,0
286205,187.4,-628.749,0,0
286465,186.21,-627.895,0,0
286725,185.049,-626.983,0,0
286986,184.031,-625.99,0,0
287246,183.146,-625.058,0,0
287506,182.269,-624.148,0,0
287767,181.516,-623.195,0,0
288027,180.774,-622.282,0,0
288287,180.074,-621.333,0,0
288548,179.453,-620.328,0,0
288808,178.93,-619.258,0,0
289068,178.639,-618.217,0,0
289329,178.529,-617.342,0,0
289589,178.539,-616.655,0,0
289849,178.459,-616.192,0,0
290109,178.323,-615.91,0,0
290370,178.078,-615.705,0,0
290630,177.711,-615.578,0,0
290890,177.204,-615.449,0,0
291151,176.572,-615.299,0,0
291411,175.888,-615.112,0,0
291671,175.098,-614.904,0,0
291932,174.2,-614.639,0,0
292192,173.152,-614.277,0,0
292452,172.084,-613.696,0,0
292713,171.037,-612.955,0,0
292973,170.086,-612.026,0,0
293233,169.271,-610.987,0,0
293494,168.586,-609.875,0,0
293754,168.084,-608.749,0,0
294014,167.671,-607.583,0,0
294275,167.452,-606.429,0,0
294535,167.359,-605.319,0,0
294795,167.447,-604.285,0,0
295056,167.658,-603.393,0,0
295316,167.972,-602.676,0,0
295576,168.333,-602.101,0,0
295837,168.692,-601.689,0,0
296097,168.998,-601.426,0,0
296357,169.277,-601.274,0,0
296618,169.498,-601.262,0,0
296878,169.652,-601.345,0,0
297138,169.727,-601.516,0,0
297399,169.686,-601.75,0,0
297659,169.548,-602.043,0,0
297919,169.279,-602.362,0,0
298180,168.928,-602.691,0,0
298440,168.516,-603,0,0
298700.2,168.048,-603.322,0,0
298960.525,167.478,-603.661,0,0
299220.85,166.869,-603.964,0,0
299481.175,166.162,-604.321,0,0
299741.5,165.349,-604.619,0,0
300001.825,164.445,-604.897,0,0
300262.15,163.49,-605.102,0,0
300522.475,162.434,-605.297,0,0
300782.8,161.353,-605.41,0,0
301043.125,160.22,-605.463,0,0
301303.45,159.034,-605.459,0,0
301563.775,157.801,-605.378,0,0
301824.1,156.518,-605.218,0,0
302084.425,155.213,-604.965,0,0
302344.75,153.888,-604.623,0,0
302605.075,152.59,-604.163,0,0
302865.4,151.366,-603.629,0,0
303125.725,150.165,-603.037,0,0
303386.05,149.024,-602.446,0,0
303646.375,147.876,-601.797,0,0
303906.7,146.723,-601.142,0,0
304167.025,145.602,-600.39,0,0
304427.35,144.505,-599.624,0,0
304687.675,143.447,-598.786,0,0
304948.0,142.439,-597.906,0,0
305208.325,141.509,-596.985,0,0
305468.65,140.626,-596.033,0,0
305728.975,139.778,-595.106,0,0
305989.3,138.996,-594.163,0,0
306249.625,138.223,-593.229,0,0
306509.95,137.493,-592.282,0,0
306770.275,136.796,-591.299,0,0
307030.6,136.147,-590.305,0,0
307290.925,135.587,-589.339,0,0
307551.25,135.06,-588.383,0,0
307811.575,134.571,-587.435,0,0
308071.9,134.117,-586.513,0,0
308332.225,133.74,-585.62,0,0
308592.55,133.384,-584.769,0,0
308852.875,133.05,-583.986,0,0
309113.2,132.721,-583.208,0,0
309373.525,132.433,-582.515,0,0
309633.85,132.16,-581.877,0,0
309894.175,131.856,-581.277,0,0
310154.5,131.58,-580.72,0,0
310414.825,131.241,-580.281,0,0
310675.15,130.858,-579.881,0,0
310935.475,130.382,-579.53,0,0
311195.8,129.811,-579.203,0,0
311456.125,129.175,-578.838,0,0
311716.45,128.456,-578.465,0,0
311976.775,127.681,-578.032,0,0
312237.1,126.84,-577.568,0,0
312497.425,125.934,-577.033,0,0
312757.75,124.988,-576.416,0,0
313018.075,123.998,-575.694,0,0
313278.4,123.003,-574.847,0,0
313538.725,122.044,-573.935,0,0
313799.05,121.127,-572.874,0,0
314059.375,120.298,-571.775,0,0
314319.7,119.5,-570.58,0,0
314580,118.82,-569.325,0,0
314840,118.225,-568.074,0,0
315101,117.754,-566.622,0,0
315361,117.403,-565.333,0,0
315621,117.132,-564.051,0,0
315882,116.946,-562.81,0,0
316142,116.898,-561.618,0,0
316402,116.911,-560.482,0,0
316663,116.894,-559.407,0,0
316923,117.004,-558.379,0,0
317183,117.01,-557.481,0,0
317444,117.164,-556.619,0,0
317704,117.155,-555.776,0,0
317964,117.226,-554.937,0,0
318225,117.206,-554.199,0,0
318485,117.355,-553.516,0,0
318745,117.421,-552.801,0,0
319006,117.544,-552.115,0,0
319266,117.545,-551.526,0,0
319526,117.578,-550.909,0,0
319787,117.538,-550.349,0,0
320047,117.572,-549.802,0,0
320307,117.464,-549.121,0,0
320567,117.495,-548.457,0,0
320828,117.567,-547.774,0,0
321088,117.616,-547.184,0,0
321348,117.728,-546.467,0,0
321609,117.945,-545.856,0,0
321869,118.281,-545.353,0,0
322129,118.565,-544.887,0,0
322390,118.92,-544.508,0,0
322650,119.266,-544.212,0,0
322910,119.634,-544.009,0,0
323171,119.969,-544,0,0
323431,120.22,-544.088,0,0
323691,120.432,-544.241,0,0
323952,120.495,-544.456,0,0
324212,120.456,-544.72,0,0
324472,120.413,-545.033,0,0
324733,120.084,-545.432,0,0
324993,119.776,-545.7,0,0
325253,119.344,-546.033,0,0
325514,118.851,-546.3,0,0
325774,118.261,-546.674,0,0
326034,117.601,-546.89,0,0
326295,116.822,-547.02,0,0
326555,116.035,-547.137,0,0
326815,115.215,-547.143,0,0
327076,114.311,-547.115,0,0
327336,113.433,-547.058,0,0
327596,112.419,-546.927,0,0
327857,111.424,-546.755,0,0
328117,110.43,-546.52,0,0
328377,109.496,-546.103,0,0
328638,108.598,-545.769,0,0
328898,107.587,-545.339,0,0
329158,106.678,-544.843,0,0
329419,105.847,-544.341,0,0
329679,105.023,-543.772,0,0
329939,104.16,-543.321,0,0
330200,103.362,-542.824,0,0
330460,102.49,-542.311,0,0
330720.15,101.697,-541.783,0,0
330980.475,100.83,-541.31,0,0
331240.8,99.8644,-540.726,0,0
331501.125,99.0692,-540.152,0,0
331761.45,98.1702,-539.556,0,0
332021.775,97.1575,-538.819,0,0
332282.1,96.1874,-538.126,0,0
332542.425,95.4119,-537.343,0,0
332802.75,94.4966,-536.627,0,0
333063.075,93.6262,-535.822,0,0
333323.4,92.7579,-535.08,0,0
333583.725,91.8833,-534.183,0,0
333844.05,91.0051,-533.268,0,0
334104.375,90.1917,-532.402,0,0
334364.7,89.2843,-531.448,0,0
334625.025,88.4599,-530.529,0,0
334885.35,87.6789,-529.421,0,0
335145.675,86.9159,-528.365,0,0
335406.0,86.1187,-527.206,0,0
335666.325,85.4043,-526.114,0,0
335926.65,84.7717,-524.954,0,0
336186.975,84.1074,-523.765,0,0
336447.3,83.5408,-522.489,0,0
336707.625,83.0815,-521.362,0,0
336967.95,82.5274,-520.105,0,0
337228.275,82.0244,-518.913,0,0
337488.6,81.607,-517.654,0,0
337748.925,81.2071,-516.405,0,0
338009.25,80.7742,-515.218,0,0
338269.575,80.4841,-514.016,0,0
338529.9,80.1554,-512.818,0,0
338790.225,79.7716,-511.596,0,0
339050.55,79.4331,-510.281,0,0
339310.875,79.1498,-509.008,0,0
339571.2,78.8993,-507.72,0,0
339831.525,78.6935,-506.278,0,0
340091.85,78.6115,-504.913,0,0
340352.175,78.4982,-503.524,0,0
340612.5,78.619,-502.122,0,0
340872.825,78.6935,-500.754,0,0
341133.15,78.9366,-499.394,0,0
341393.475,79.2151,-498.107,0,0
341653.8,79.6225,-496.849,0,0
341914.125,80.0616,-495.643,0,0
342174.45,80.5529,-494.514,0,0
342434.775,81.1596,-493.523,0,0
342695.1,81.7053,-492.647,0,0
342955.425,82.2915,-491.854,0,0
343215.75,82.8502,-491.174,0,0
343476.075,83.3685,-490.574,0,0
343736.4,83.8486,-490.014,0,0
343996.725,84.3197,-489.571,0,0
344257.05,84.7196,-489.15,0,0
344517.375,85.0833,-488.821,0,0
344777.7,85.2953,-488.493,0,0
345038.025,85.5531,-488.201,0,0
345298.35,85.753,-487.9,0,0
345558.675,85.7593,-487.647,0,0
345819.0,85.8592,-487.461,0,0
346079.325,85.8573,-487.118,0,0
346339.65,85.8117,-486.856,0,0
346599.975,85.6685,-486.603,0,0
346860,85.3988,-486.26,0,0
347121,85.2419,-485.886,0,0
347381,84.955,-485.482,0,0
347641,84.6188,-484.983,0,0
347902,84.3472,-484.438,0,0
348162,84.0318,-483.852,0,0
348422,83.7661,-483.142,0,0
348683,83.5364,-482.407,0,0
348943,83.2725,-481.665,0,0
349203,83.1023,-480.842,0,0
349464,83.0646,-479.998,0,0
349724,83.0399,-479.116,0,0
349984,83.1063,-478.25,0,0
350245,83.234,-477.426,0,0
350505,83.4718,-476.613,0,0
350765,83.7321,-475.842,0,0
351025,84.0516,-475.207,0,0
351286,84.4729,-474.638,0,0
351546,84.8382,-474.165,0,0
351806,85.1603,-473.72,0,0
352067,85.3891,-473.427,0,0
352327,85.6709,-473.137,0,0
352587,85.8959,-472.88,0,0
352848,86.047,-472.718,0,0
353108,86.2247,-472.524,0,0
353368,86.2304,-472.417,0,0
353629,86.1849,-472.299,0,0
353889,86.1006,-472.192,0,0
354149,85.8878,-471.968,0,0
354410,85.6418,-471.768,0,0
354670,85.473,-471.554,0,0
354930,85.211,-471.277,0,0
355191,84.8779,-470.957,0,0
355451,84.6185,-470.582,0,0
355711,84.2589,-470.284,0,0
355972,83.9424,-469.826,0,0
356232,83.5525,-469.456,0,0
356492,83.2497,-468.922,0,0
356753,82.8809,-468.469,0,0
357013,82.5157,-467.881,0,0
357273,82.1666,-467.276,0,0
357534,81.841,-466.592,0,0
357794,81.5783,-465.918,0,0
358054,81.3618,-465.185,0,0
358315,81.2151,-464.41,0,0
358575,81.1882,-463.714,0,0
358835,81.1582,-462.977,0,0
359096,81.1351,-462.3,0,0
359356,81.1196,-461.69,0,0
359616,81.1852,-461.154,0,0
359877,81.1651,-460.498,0,0
360137,81.1734,-459.951,0,0
360397,81.2011,-459.462,0,0
360658,81.1952,-458.988,0,0
360918,81.133,-458.488,0,0
361178,81.0224,-458.051,0,0
361438,80.9407,-457.481,0,0
361699,80.7433,-457.021,0,0
361959,80.588,-456.398,0,0
362219,80.4541,-455.805,0,0
362480,80.3361,-455.131,0,0
362740.1,80.1795,-454.416,0,0
363000.425,80.2387,-453.661,0,0
363260.75,80.2925,-452.925,0,0
363521.075,80.3858,-452.234,0,0
363781.4,80.6119,-451.474,0,0
364041.725,80.9054,-450.894,0,0
364302.05,81.0518,-450.293,0,0
364562.375,81.3619,-449.732,0,0
364822.7,81.7041,-449.305,0,0
365083.025,82.0078,-448.829,0,0
365343.35,82.3178,-448.479,0,0
365603.675,82.6564,-448.232,0,0
365864.0,82.9201,-447.992,0,0
366124.325,83.1915,-447.904,0,0
366384.65,83.4075,-447.912,0,0
366644.975,83.4288,-447.921,0,0
366905.3,83.3598,-447.963,0,0
367165.625,83.2923,-448,0,0
367425.95,83.0294,-447.991,0,0
367686.275,82.6825,-448.007,0,0
367946.6,82.2479,-447.846,0,0
368206.925,81.7278,-447.714,0,0
368467.25,81.1879,-447.368,0,0
368727.575,80.6299,-446.905,0,0
368987.9,80.0619,-446.305,0,0
369248.225,79.6056,-445.641,0,0
369508.55,79.233,-444.819,0,0
369768.875,78.9821,-444.01,0,0
370029.2,78.8377,-443.116,0,0
370289.525,78.7529,-442.245,0,0
370549.85,78.934,-441.402,0,0
370810.175,79.1139,-440.631,0,0
371070.5,79.4302,-439.972,0,0
371330.825,79.7756,-439.463,0,0
371591.15,80.1216,-439.042,0,0
371851.475,80.4183,-438.76,0,0
372111.8,80.6831,-438.609,0,0
372372.125,80.8468,-438.483,0,0
372632.45,80.8464,-438.443,0,0
372892.775,80.8373,-438.342,0,0
373153.1,80.6596,-438.321,0,0
373413.425,80.3619,-438.263,0,0
373673.75,80.0003,-438.046,0,0
373934.075,79.6314,-437.754,0,0
374194.4,79.2883,-437.443,0,0
374454.725,78.9236,-437,0,0
374715.05,78.5306,-436.533,0,0
374975.375,78.1909,-436.059,0,0
375235.7,77.8468,-435.48,0,0
375496.025,77.5385,-434.9,0,0
375756.35,77.2986,-434.285,0,0
376016.675,77.0154,-433.583,0,0
376277.0,76.8306,-432.939,0,0
376537.325,76.6504,-432.203,0,0
376797.65,76.5325,-431.576,0,0
377057.975,76.4806,-430.805,0,0
377318.3,76.4515,-430.149,0,0
377578.625,76.427,-429.387,0,0
377838.95,76.4621,-428.697,0,0
378099.275,76.5855,-428.001,0,0
378359.6,76.7027,-427.331,0,0
378619.925,76.9152,-426.698,0,0
378880,77.0881,-426.169,0,0
379141,77.3084,-425.628,0,0
379401,77.5334,-425.212,0,0
379661,77.7773,-424.717,0,0
379922,78.0174,-424.429,0,0
380182,78.1798,-424.131,0,0
380442,78.3045,-423.842,0,0
380703,78.3728,-423.616,0,0
380963,78.4198,-423.366,0,0
381223,78.4561,-423.086,0,0
381483,78.4663,-422.771,0,0
381744,78.3993,-422.467,0,0
382004,78.4122,-422.202,0,0
382264,78.4043,-421.845,0,0
382525,78.4083,-421.577,0,0
382785,78.3881,-421.342,0,0
383045,78.3397,-421.127,0,0
383306,78.2668,-420.891,0,0
383566,78.1329,-420.69,0,0
383826,77.964,-420.505,0,0
384087,77.7417,-420.21,0,0
384347,77.4906,-419.993,0,0
384607,77.2906,-419.646,0,0
384868,76.9579,-419.357,0,0
385128,76.6263,-418.976,0,0
385388,76.3436,-418.565,0,0
385649,76.0699,-418.152,0,0
385909,75.7391,-417.67,0,0
386169,75.497,-417.206,0,0
386430,75.0949,-416.705,0,0
386690,74.8211,-416.205,0,0
386950,74.5234,-415.612,0,0
387211,74.2027,-415.016,0,0
387471,73.9422,-414.376,0,0
387731,73.6503,-413.722,0,0
387992,73.429,-412.965,0,0
388252,73.1911,-412.248,0,0
388512,73.0044,-411.461,0,0
388773,72.784,-410.652,0,0
389033,72.673,-409.809,0,0
389293,72.6122,-408.938,0,0
389554,72.5505,-408.097,0,0
389814,72.5683,-407.245,0,0
390074,72.6695,-406.317,0,0
390335,72.7974,-405.398,0,0
390595,72.9942,-404.521,0,0
390855,73.2817,-403.677,0,0
391116,73.5731,-402.834,0,0
391376,73.9506,-402.078,0,0
391636,74.3506,-401.304,0,0
391896,74.7772,-400.619,0,0
392157,75.2531,-400.011,0,0
392417,75.7188,-399.393,0,0
392677,76.1658,-398.883,0,0
392938,76.6686,-398.425,0,0
393198,77.1327,-398.002,0,0
393458,77.5736,-397.578,0,0
393719,77.9467,-397.232,0,0
393979,78.4076,-396.86,0,0
394239,78.8233,-396.495,0,0
394500,79.2505,-396.21,0,0
394760.05,79.6976,-395.927,0,0
395020.375,80.14,-395.647,0,0
395280.7,80.5579,-395.442,0,0
395541.025,81.0007,-395.273,0,0
395801.35,81.3794,-395.13,0,0
396061.675,81.7451,-394.983,0,0
396322.0,82.122,-394.897,0,0
396582.325,82.4812,-394.855,0,0
396842.65,82.7777,-394.807,0,0
397102.975,83.0738,-394.811,0,0
397363.3,83.3374,-394.844,0,0
397623.625,83.5335,-394.9,0,0
397883.95,83.8086,-394.969,0,0
398144.275,83.971,-395.031,0,0
398404.6,84.1207,-395.146,0,0
398664.925,84.2477,-395.268,0,0
398925.25,84.321,-395.39,0,0
399185.575,84.3291,-395.539,0,0
399445.9,84.303,-395.693,0,0
399706.225,84.2352,-395.865,0,0
399966.55,84.08,-396.004,0,0
400006.6,84.0436,-396.022,0,0