File: Accelerated corrosion test data/2025-10-07_06-00-03/sample_4.csv
Frequency (Hz),Impedance (ohms),Phase (Radians),Temperature (C),Humidity (%)
10000.0,264.399,-11865.8,0,0
10260.325,260.679,-11567.7,0,0
10520.65,251.831,-11284,0,0
10780.975,245.476,-11013.9,0,0
11041.3,240.294,-10755.3,0,0
11301.625,235.122,-10512.4,0,0
11561.95,229.396,-10276.8,0,0
11822.275,225.889,-10051.5,0,0
12082.6,220.621,-9837.09,0,0
12342.925,216,-9630.75,0,0
12603.25,213.662,-9431.26,0,0
12863.575,209.004,-9244.82,0,0
13123.9,209.032,-9065.39,0,0
13384.225,200.06,-8887.78,0,0
13644.55,196.752,-8716.84,0,0
13904.875,194.29,-8551.87,0,0
14165.2,194.754,-8388.87,0,0
14425.525,199.381,-8238.91,0,0
14685.8,201.942,-8126.9,0,0
14946.175,183.243,-7970.53,0,0
15206.5,182.212,-7827.46,0,0
15466.825,188.858,-7683.79,0,0
15727.15,189.346,-7585.65,0,0
15987.5,189.322,-7465.73,0,0
16247.8,171.515,-7339.91,0,0
16508.125,188.434,-7210.64,0,0
16768.45,179.018,-7112.73,0,0
17028.775,173.198,-7024.66,0,0
17289.1,161.657,-6911.45,0,0
17549.425,159.579,-6807,0,0
17809.75,156.357,-6705.76,0,0
18070.075,153.797,-6606.74,0,0
18330.4,154.208,-6510.96,0,0
18590.725,153.879,-6422.6,0,0
18851.05,150.909,-6338.86,0,0
19111.375,145.563,-6249.61,0,0
19371.7,143.61,-6164.29,0,0
19632.025,142.213,-6080.24,0,0
19892.35,144.652,-5999.17,0,0
20152.675,144.294,-5922.31,0,0
20413.0,141.549,-5849.57,0,0
20673.3,141.155,-5774.33,0,0
20933.65,137.565,-5701.33,0,0
21193.975,140.68,-5626.25,0,0
21454.3,152.684,-5561.07,0,0
21714.625,145.788,-5503.6,0,0
21974.9,149.241,-5433.04,0,0
22235.275,149.634,-5387.69,0,0
22495.6,136.746,-5331.81,0,0
22755.925,129.305,-5266.72,0,0
23016.25,125.788,-5205.03,0,0
23276.6,123.018,-5144.97,0,0
23536.9,121.487,-5087.08,0,0
23797.225,119.927,-5030.29,0,0
24057.55,117.762,-4974.52,0,0
24317.875,116.548,-4919.72,0,0
24578.2,114.823,-4867.01,0,0
24838.525,114.819,-4814.72,0,0
25098.85,114.861,-4763.65,0,0
25359.175,113.952,-4716.31,0,0
25619.5,112.847,-4667.32,0,0
25879.8,111.463,-4622.7,0,0
26140.1,109.237,-4574.23,0,0
26400.5,108.41,-4528.13,0,0
26660.8,106.97,-4482.01,0,0
26921.1,107.253,-4437.93,0,0
27181.4,105.923,-4393.09,0,0
27441.8,106.486,-4348.48,0,0
27702.1,109.599,-4304.28,0,0
27962.4,117.291,-4263.24,0,0
28222.7,120.262,-4233.44,0,0
28483.1,115.611,-4200.19,0,0
28743.4,110.735,-4160.42,0,0
29003.7,111.964,-4119.08,0,0
29264,117.593,-4086.05,0,0
29524.4,112.475,-4055.25,0,0
29784.7,110.571,-4023.33,0,0
30045,107.786,-3989.08,0,0
30305.3,102.185,-3954.83,0,0
30565.7,100.143,-3918.33,0,0
30826,99.0018,-3883.79,0,0
31086.3,98.4778,-3850.07,0,0
31346.6,99.3025,-3816.64,0,0
31607,98.53,-3786.77,0,0
31867.3,97.5556,-3754.8,0,0
32127.6,99.7481,-3723.54,0,0
32387.9,98.8259,-3697.34,0,0
32648.3,97.5474,-3667.61,0,0
32908.6,95.4437,-3640.6,0,0
33168.9,93.1499,-3611.65,0,0
33429.2,90.4131,-3582.91,0,0
33689.6,88.9517,-3554.16,0,0
33949.9,87.6016,-3525.6,0,0
34210.2,87.9028,-3497.98,0,0
34470.5,86.7363,-3472.17,0,0
34730.9,85.8252,-3444.83,0,0
34991.2,85.036,-3418.47,0,0
35251.5,84.4246,-3392.41,0,0
35511.8,83.9271,-3367.03,0,0
35772.2,83.5498,-3341.81,0,0
36032.5,81.8988,-3317.48,0,0
36292.8,81.4023,-3292.76,0,0
36553.1,81.078,-3268.06,0,0
36813.5,80.9866,-3244.15,0,0
37073.8,80.9228,-3221.05,0,0
37334.1,80.0644,-3198.77,0,0
37594.4,79.4525,-3175.53,0,0
37854.8,79.4698,-3153.14,0,0
38115.1,78.6982,-3131.42,0,0
38375.4,77.6194,-3109,0,0
38635.7,77.423,-3086.85,0,0
38896.1,77.8377,-3065.45,0,0
39156.4,77.2287,-3044.6,0,0
39416.7,76.8329,-3023.36,0,0
39677,76.6487,-3002.28,0,0
39937.4,77.096,-2981.33,0,0
40197.7,78.5221,-2960.66,0,0
40458,80.7339,-2941.68,0,0
40718.3,79.5826,-2925.03,0,0
40978.7,79.6559,-2905.01,0,0
41239,79.9778,-2886.65,0,0
41499.3,82.5655,-2869.13,0,0
41759.6,79.9354,-2854.09,0,0
42020,78.3008,-2835.86,0,0
42280.275,76.9422,-2816.57,0,0
42540.6,78.9716,-2798.98,0,0
42800.925,78.2212,-2784.34,0,0
43061.25,75.8844,-2766.35,0,0
43321.575,76.0119,-2749.11,0,0
43581.9,74.8543,-2732.74,0,0
43842.225,74.1914,-2715.67,0,0
44102.55,73.9348,-2699.68,0,0
44362.875,72.7068,-2682.81,0,0
44623.2,72.4528,-2666.42,0,0
44883.525,72.3771,-2650.51,0,0
45143.85,71.7232,-2634.46,0,0
45404.175,70.76,-2618.1,0,0
45664.5,71.6117,-2601.31,0,0
45924.825,72.9745,-2586.71,0,0
46185.15,72.0387,-2573.89,0,0
46445.475,70.6495,-2557.54,0,0
46705.8,71.6513,-2542.22,0,0
46966.125,71.9703,-2528.78,0,0
47226.45,71.7447,-2514.11,0,0
47486.775,71.9767,-2501.35,0,0
47747.1,70.4077,-2487.72,0,0
48007.425,69.8142,-2473.45,0,0
48267.75,68.7975,-2460.13,0,0
48528.075,68.2055,-2446.05,0,0
48788.4,67.4031,-2432.29,0,0
49048.725,66.4642,-2418.55,0,0
49309.05,66.3355,-2404.44,0,0
49569.375,65.7839,-2391.35,0,0
49829.7,65.3261,-2377.58,0,0
50090.025,65.0807,-2364.53,0,0
50350.35,64.7555,-2351.1,0,0
50610.675,64.6153,-2338.01,0,0
50871.0,64.4024,-2325.19,0,0
51131.325,64.1336,-2312.31,0,0
51391.65,63.8584,-2299.34,0,0
51651.975,64.1792,-2286.38,0,0
51912.3,64.1725,-2273.83,0,0
52172.625,64.4408,-2261.19,0,0
52432.95,64.5096,-2248.99,0,0
52693.275,64.7281,-2236.29,0,0
52953.6,65.9574,-2223.64,0,0
53213.925,66.8491,-2211.93,0,0
53474.25,67.9775,-2199.93,0,0
53734.575,69.2669,-2188.17,0,0
53994.9,71.7473,-2176.81,0,0
54255.225,73.7767,-2167.22,0,0
54515.55,75.9863,-2158.29,0,0
54775.875,76.4547,-2151.24,0,0
55036.2,74.5314,-2143,0,0
55296.525,73.5469,-2133.06,0,0
55556.85,72.094,-2124.07,0,0
55817.175,70.4256,-2113.78,0,0
56077.5,68.9508,-2103.79,0,0
56337.825,67.4459,-2093,0,0
56598.15,66.2783,-2081.62,0,0
56858.475,66.0302,-2070.55,0,0
57118.8,65.8455,-2059.49,0,0
57379.125,66.2152,-2048.8,0,0
57639.45,66.3055,-2038.56,0,0
57899.775,66.6122,-2028.42,0,0
58160.1,66.8227,-2018.15,0,0
58420.4,67.586,-2007.9,0,0
58680.7,68.3734,-1998.83,0,0
58941.1,67.7158,-1988.54,0,0
59201.4,68.8105,-1977.8,0,0
59461.7,70.8988,-1967.57,0,0
59722,73.4045,-1958.87,0,0
59982.4,75.7121,-1950.97,0,0
60242.7,77.0772,-1944.08,0,0
60503,78.0842,-1936.63,0,0
60763.3,79.9475,-1929.78,0,0
61023.7,80.441,-1925.69,0,0
61284,78.4944,-1920.59,0,0
61544.3,74.9492,-1914.61,0,0
61804.6,71.618,-1905.48,0,0
62065,69.8263,-1896.5,0,0
62325.3,68.8482,-1887.92,0,0
62585.6,66.4237,-1879.64,0,0
62845.9,65.2369,-1869.16,0,0
63106.3,64.9019,-1860.11,0,0
63366.6,64.5292,-1851.01,0,0
63626.9,64.6883,-1841.99,0,0
63887.2,64.8683,-1834.14,0,0
64147.6,63.7127,-1825.42,0,0
64407.9,63.7799,-1816,0,0
64668.2,64.646,-1807.44,0,0
64928.5,65.1307,-1799.64,0,0
65188.9,65.2375,-1791.7,0,0
65449.2,65.6263,-1783.71,0,0
65709.5,65.4544,-1775.6,0,0
65969.8,66.5424,-1767.03,0,0
66230.2,67.5995,-1759.96,0,0
66490.5,68.0535,-1752.65,0,0
66750.8,68.8101,-1745.48,0,0
67011.1,69.3022,-1738.13,0,0
67271.5,70.45,-1731.06,0,0
67531.8,71.7098,-1724.39,0,0
67792.1,72.3977,-1718.4,0,0
68052.4,73.2536,-1712.55,0,0
68312.8,73.7287,-1706.94,0,0
68573.1,73.9799,-1701.85,0,0
68833.4,73.4639,-1697.23,0,0
69093.7,71.7062,-1692.18,0,0
69354.1,69.7265,-1686.13,0,0
69614.4,67.5987,-1679.54,0,0
69874.7,66.5118,-1671.98,0,0
70135,65.9159,-1665.23,0,0
70395.4,64.6319,-1658.29,0,0
70655.7,64.0912,-1650.24,0,0
70916,65.148,-1643.47,0,0
71176.3,64.989,-1638.04,0,0
71436.7,64.2803,-1631.84,0,0
71697,63.8768,-1625.84,0,0
71957.3,62.6122,-1620.21,0,0
72217.6,60.9197,-1613.75,0,0
72478,59.424,-1606.73,0,0
72738.3,58.5059,-1599.37,0,0
72998.6,57.7044,-1592.16,0,0
73258.9,57.25,-1584.36,0,0
73519.3,57.5561,-1576.93,0,0
73779.6,57.8486,-1570,0,0
74039.9,58.3436,-1563.11,0,0
74300.225,58.6711,-1556.78,0,0
74560.55,58.8974,-1550.17,0,0
74820.875,59.2996,-1543.75,0,0
75081.2,59.8452,-1537.25,0,0
75341.525,60.6832,-1531.31,0,0
75601.85,61.1108,-1525.65,0,0
75862.175,61.4417,-1519.76,0,0
76122.5,61.8366,-1513.9,0,0
76382.825,62.3654,-1508.37,0,0
76643.15,62.4787,-1503.01,0,0
76903.475,62.2299,-1497.2,0,0
77163.8,62.9216,-1490.76,0,0
77424.125,64.2376,-1485.39,0,0
77684.45,65.1362,-1480.71,0,0
77944.775,65.6424,-1476.24,0,0
78205.1,65.6701,-1471.91,0,0
78465.425,65.4376,-1467.4,0,0
78725.75,64.9293,-1462.9,0,0
78986.075,64.117,-1458.26,0,0
79246.4,63.2664,-1453.22,0,0
79506.725,62.4846,-1447.84,0,0
79767.05,61.8159,-1442.43,0,0
80027.375,61.3634,-1436.92,0,0
80287.7,61.0552,-1431.47,0,0
80548.025,60.8967,-1426.06,0,0
80808.35,60.7266,-1420.68,0,0
81068.675,60.7657,-1415.47,0,0
81329.0,60.6574,-1410.41,0,0
81589.325,60.5155,-1405.43,0,0
81849.65,60.2973,-1400.5,0,0
82109.975,59.9674,-1395.52,0,0
82370.3,59.7434,-1390.47,0,0
82630.625,59.5137,-1385.43,0,0
82890.95,59.2147,-1380.49,0,0
83151.275,59.0039,-1375.56,0,0
83411.6,58.6542,-1370.63,0,0
83671.925,58.4359,-1365.56,0,0
83932.25,58.2498,-1360.62,0,0
84192.575,58.0049,-1355.65,0,0
84452.9,57.8105,-1350.77,0,0
84713.225,57.6154,-1345.91,0,0
84973.55,57.5132,-1340.98,0,0
85233.875,57.3698,-1336.14,0,0
85494.2,57.1413,-1331.36,0,0
85754.525,57.0679,-1326.64,0,0
86014.85,56.8073,-1321.87,0,0
86275.175,56.6757,-1317.06,0,0
86535.5,56.6198,-1312.33,0,0
86795.825,56.4816,-1307.8,0,0
87056.15,56.2985,-1303.19,0,0
87316.475,56.0929,-1298.65,0,0
87576.8,55.9264,-1294.05,0,0
87837.125,55.6297,-1289.71,0,0
88097.45,55.1413,-1285.25,0,0
88357.775,54.4571,-1280.58,0,0
88618.1,53.9346,-1275.5,0,0
88878.425,53.8878,-1270.53,0,0
89138.75,53.7692,-1265.81,0,0
89399.075,53.6419,-1261.07,0,0
89659.4,53.6176,-1256.12,0,0
89919.725,53.6093,-1251.58,0,0
90180,53.6672,-1246.95,0,0
90440.4,53.5999,-1242.37,0,0
90700.7,53.5892,-1237.83,0,0
90961,53.5791,-1233.42,0,0
91221.3,53.4106,-1228.66,0,0
91481.7,53.5051,-1224.01,0,0
91742,53.5836,-1219.42,0,0
92002.3,53.8508,-1214.77,0,0
92262.6,54.1829,-1210.34,0,0
92523,54.5461,-1206.08,0,0
92783.3,54.8342,-1201.89,0,0
93043.6,55.1361,-1197.93,0,0
93303.9,55.1882,-1194.03,0,0
93564.3,55.0731,-1190.09,0,0
93824.6,54.8943,-1186.15,0,0
94084.9,54.5796,-1182.18,0,0
94345.2,54.1595,-1178.08,0,0
94605.6,53.7745,-1173.75,0,0
94865.9,53.3872,-1169.4,0,0
95126.2,53.1689,-1164.81,0,0
95386.5,53.0724,-1160.4,0,0
95646.9,52.952,-1155.84,0,0
95907.2,53.0546,-1151.36,0,0
96167.5,53.2419,-1146.96,0,0
96427.8,53.405,-1142.56,0,0
96688.2,53.5973,-1138.25,0,0
96948.5,53.7213,-1134.01,0,0
97208.8,53.9253,-1129.67,0,0
97469.1,54.1347,-1125.47,0,0
97729.5,54.1968,-1121.24,0,0
97989.8,54.446,-1116.87,0,0
98250.1,54.7653,-1112.51,0,0
98510.4,55.1362,-1108.32,0,0
98770.8,55.4006,-1104.11,0,0
99031.1,55.8564,-1099.76,0,0
99291.4,56.4612,-1095.54,0,0
99551.7,57.1317,-1091.54,0,0
99812.1,57.6392,-1087.68,0,0
100072,58.0169,-1083.54,0,0
100333,58.7886,-1079.36,0,0
100593,59.9126,-1075.44,0,0
100853,61.0125,-1072.1,0,0
101114,61.6643,-1068.99,0,0
101374,62.2927,-1065.81,0,0
101634,62.8161,-1063.02,0,0
101895,62.7981,-1060.49,0,0
102155,62.0726,-1057.76,0,0
102415,61.0087,-1054.43,0,0
102676,60.0067,-1050.57,0,0
102936,59.1174,-1046.35,0,0
103196,58.4517,-1041.8,0,0
103457,58.053,-1037,0,0
103717,57.9666,-1032.05,0,0
103977,58.3013,-1027.05,0,0
104238,58.9938,-1022.31,0,0
104498,59.5843,-1017.66,0,0
104758,60.4544,-1012.96,0,0
105019,61.5419,-1008.46,0,0
105279,62.7559,-1004.1,0,0
105539,63.9653,-999.957,0,0
105800,65.2464,-995.883,0,0
106060,66.5064,-991.894,0,0
106320.175,67.8621,-988.053,0,0
106580.5,69.2134,-984.26,0,0
106840.825,70.6436,-980.645,0,0
107101.15,71.9793,-977.1,0,0
107361.475,73.207,-973.612,0,0
107621.8,74.48,-970.056,0,0
107882.125,75.7971,-966.425,0,0
108142.45,77.3532,-962.846,0,0
108402.775,78.9107,-959.374,0,0
108663.1,80.7427,-956.05,0,0
108923.425,82.5599,-952.989,0,0
109183.75,84.2884,-950.134,0,0
109444.075,86.0022,-947.37,0,0
109704.4,87.6923,-944.829,0,0
109964.725,89.2125,-942.492,0,0
110225.05,90.5953,-940.004,0,0
110485.375,91.9881,-937.604,0,0
110745.7,93.3502,-935.297,0,0
111006.025,94.5014,-933.117,0,0
111266.35,95.6073,-930.944,0,0
111526.675,96.8445,-928.716,0,0
111787.0,97.9475,-926.471,0,0
112047.325,99.1265,-924.271,0,0
112307.65,100.297,-922.235,0,0
112567.975,101.398,-920.338,0,0
112828.3,102.345,-918.403,0,0
113088.625,103.292,-916.489,0,0
113348.95,104.131,-914.806,0,0
113609.275,104.987,-913.029,0,0
113869.6,105.66,-911.272,0,0
114129.925,106.277,-909.605,0,0
114390.25,106.869,-907.923,0,0
114650.575,107.418,-906.199,0,0
114910.9,107.894,-904.482,0,0
115171.225,108.407,-902.932,0,0
115431.55,108.655,-901.479,0,0
115691.875,108.781,-899.886,0,0
115952.2,108.82,-898.315,0,0
116212.525,108.823,-896.596,0,0
116472.85,108.803,-895.012,0,0
116733.175,108.551,-893.335,0,0
116993.5,108.244,-891.511,0,0
117253.825,107.868,-889.593,0,0
117514.15,107.519,-887.525,0,0
117774.475,107.109,-885.324,0,0
118034.8,106.706,-882.963,0,0
118295.125,106.472,-880.337,0,0
118555.45,106.417,-877.677,0,0
118815.775,106.551,-874.987,0,0
119076.1,106.984,-872.155,0,0
119336.425,107.801,-869.338,0,0
119596.75,109.27,-866.939,0,0
119857.075,110.918,-865.433,0,0
120117.4,112.186,-864.684,0,0
120377.725,112.894,-864.43,0,0
120638.05,112.855,-864.378,0,0
120898.375,111.982,-864.271,0,0
121158.7,110.467,-863.508,0,0
121419.025,108.92,-862.119,0,0
121679.35,107.421,-860.376,0,0
121939.675,106.038,-858.385,0,0
122200.0,104.736,-856.173,0,0
122460,103.549,-853.78,0,0
122721,102.5,-851.222,0,0
122981,101.792,-848.653,0,0
123241,101.051,-846.196,0,0
123502,100.313,-843.702,0,0
123762,99.6732,-841.185,0,0
124022,99.062,-838.673,0,0
124283,98.4922,-836.22,0,0
124543,97.9391,-833.728,0,0
124803,97.3443,-831.204,0,0
125064,96.8911,-828.645,0,0
125324,96.5024,-826.139,0,0
125584,96.1304,-823.79,0,0
125845,95.7633,-821.399,0,0
126105,95.3979,-819.108,0,0
126365,94.9876,-817.023,0,0
126626,94.3767,-815.052,0,0
126886,93.5139,-812.893,0,0
127146,92.6217,-810.633,0,0
127406,91.6914,-808.259,0,0
127667,90.9205,-805.866,0,0
127927,90.0933,-803.588,0,0
128187,89.0675,-801.432,0,0
128448,87.7046,-799.073,0,0
128708,86.3631,-796.466,0,0
128968,85.0546,-793.673,0,0
129229,83.695,-790.795,0,0
129489,82.349,-787.753,0,0
129749,81.0906,-784.531,0,0
130010,79.8363,-781.18,0,0
130270,78.7361,-777.675,0,0
130530,77.7986,-774.079,0,0
130791,76.9641,-770.581,0,0
131051,76.0805,-766.997,0,0
131311,75.309,-763.276,0,0
131572,74.6889,-759.459,0,0
131832,74.2433,-755.682,0,0
132092,73.7878,-752.017,0,0
132353,73.3125,-748.326,0,0
132613,72.97,-744.475,0,0
132873,72.7262,-740.662,0,0
133134,72.5937,-736.862,0,0
133394,72.4698,-733.136,0,0
133654,72.3705,-729.332,0,0
133915,72.3371,-725.511,0,0
134175,72.4334,-721.671,0,0
134435,72.5688,-717.919,0,0
134696,72.7205,-714.171,0,0
134956,72.9301,-710.382,0,0
135216,73.2414,-706.572,0,0
135477,73.6341,-702.806,0,0
135737,74.0736,-699.077,0,0
135997,74.5836,-695.499,0,0
136258,74.9721,-691.953,0,0
136518,75.4897,-688.278,0,0
136778,76.0696,-684.715,0,0
137039,76.6835,-681.208,0,0
137299,77.2969,-677.838,0,0
137559,77.7977,-674.547,0,0
137819,78.1744,-671.182,0,0
138080,78.5072,-667.759,0,0
138340.125,78.8089,-664.212,0,0
138600.45,79.1793,-660.537,0,0
138860.775,79.6267,-656.844,0,0
139121.1,80.0854,-653.068,0,0
139381.425,80.6638,-649.245,0,0
139641.75,81.375,-645.449,0,0
139902.075,82.0671,-641.674,0,0
140162.4,82.8572,-637.84,0,0
140422.725,83.7088,-634.001,0,0
140683.05,84.6415,-630.216,0,0
140943.375,85.6376,-626.374,0,0
141203.7,86.738,-622.592,0,0
141464.025,87.8958,-618.861,0,0
141724.35,89.0986,-615.211,0,0
141984.675,90.2498,-611.655,0,0
142245.0,91.3934,-607.983,0,0
142505.325,92.5988,-604.335,0,0
142765.65,93.8305,-600.705,0,0
143025.975,95.0803,-597.065,0,0
143286.3,96.3529,-593.408,0,0
143546.625,97.6931,-589.757,0,0
143806.95,99.0556,-586.112,0,0
144067.275,100.462,-582.484,0,0
144327.6,101.856,-578.846,0,0
144587.925,103.322,-575.153,0,0
144848.25,104.833,-571.458,0,0
145108.575,106.399,-567.755,0,0
145368.9,108.003,-564.049,0,0
145629.225,109.67,-560.313,0,0
145889.55,111.432,-556.572,0,0
146149.875,113.282,-552.808,0,0
146410.2,115.189,-549.076,0,0
146670.525,117.181,-545.358,0,0
146930.85,119.277,-541.68,0,0
147191.175,121.391,-538.063,0,0
147451.5,123.529,-534.441,0,0
147711.825,125.761,-530.835,0,0
147972.15,127.996,-527.3,0,0
148232.475,130.207,-523.69,0,0
148492.8,132.536,-519.991,0,0
148753.125,135.027,-516.268,0,0
149013.45,137.653,-512.603,0,0
149273.775,140.379,-509.038,0,0
149534.1,143.12,-505.499,0,0
149794.425,145.942,-501.894,0,0
150054.75,148.938,-498.301,0,0
150315.075,152.004,-494.81,0,0
150575.4,155.204,-491.287,0,0
150835.725,158.543,-487.843,0,0
151096.05,162.062,-484.325,0,0
151356.375,165.854,-480.928,0,0
151616.7,169.831,-477.838,0,0
151877.025,173.828,-474.96,0,0
152137.35,177.781,-472.135,0,0
152397.675,181.965,-469.249,0,0
152658.0,186.509,-466.639,0,0
152918.325,191.133,-464.505,0,0
153178.65,195.679,-462.649,0,0
153438.975,200.174,-460.977,0,0
153699.3,204.721,-459.593,0,0
153959.625,209.156,-458.592,0,0
154219.95,213.293,-457.809,0,0
154480,217.262,-457.147,0,0
154741,220.93,-456.689,0,0
155001,224.259,-456.202,0,0
155261,227.301,-455.269,0,0
155522,230.778,-454.175,0,0
155782,234.447,-453.296,0,0
156042,238.148,-452.829,0,0
156303,241.505,-452.435,0,0
156563,244.774,-452.202,0,0
156823,247.519,-452.122,0,0
157084,250.033,-451.604,0,0
157344,252.7,-450.705,0,0
157604,255.467,-449.87,0,0
157864,258.202,-448.899,0,0
158125,261.077,-447.502,0,0
158385,264.602,-446.044,0,0
158645,268.21,-445.089,0,0
158906,271.882,-444.121,0,0
159166,276.09,-443.254,0,0
159426,280.543,-443.035,0,0
159687,284.832,-443.151,0,0
159947,289.299,-443.733,0,0
160207,293.372,-445.055,0,0
160468,296.965,-446.538,0,0
160728,300.177,-448.441,0,0
160988,302.999,-450.248,0,0
161249,305.347,-452.274,0,0
161509,306.875,-454.255,0,0
161769,307.782,-455.671,0,0
162030,308.746,-456.481,0,0
162290,309.675,-457.13,0,0
162550,310.549,-457.525,0,0
162811,311.394,-457.705,0,0
163071,312.204,-457.484,0,0
163331,313.083,-456.892,0,0
163592,314.115,-456.152,0,0
163852,315.255,-455.148,0,0
164112,316.804,-453.816,0,0
164373,318.563,-452.29,0,0
164633,320.804,-450.79,0,0
164893,323.456,-449.504,0,0
165154,326.235,-448.349,0,0
165414,329.06,-447.289,0,0
165674,331.926,-446.261,0,0
165935,334.989,-444.853,0,0
166195,338.536,-443.524,0,0
166455,342.515,-442.278,0,0
166716,346.978,-441.098,0,0
166976,352.253,-440.304,0,0
167236,357.933,-440.132,0,0
167497,363.923,-440.789,0,0
167757,369.996,-442.256,0,0
168017,376.273,-444.386,0,0
168277,382.475,-447.57,0,0
168538,387.972,-451.89,0,0
168798,392.634,-456.534,0,0
169058,396.91,-461.351,0,0
169319,400.921,-466.62,0,0
169579,404.431,-472.414,0,0
169839,407.303,-478.479,0,0
170100,409.832,-484.86,0,0
170360.075,411.895,-491.837,0,0
170620.4,413.066,-499.569,0,0
170880.725,412.869,-507.691,0,0
171141.05,411.242,-515.708,0,0
171401.375,408.308,-523.196,0,0
171661.7,404.415,-529.755,0,0
171922.025,400.085,-535.522,0,0
172182.35,395.313,-540.756,0,0
172442.675,390.003,-545.439,0,0
172703.0,384.211,-549.494,0,0
172963.325,377.902,-552.864,0,0
173223.65,371.034,-555.26,0,0
173483.975,364.187,-556.526,0,0
173744.3,357.364,-556.997,0,0
174004.625,350.767,-556.503,0,0
174264.95,344.595,-555.412,0,0
174525.275,338.554,-553.814,0,0
174785.6,332.856,-551.514,0,0
175045.925,327.687,-548.73,0,0
175306.25,322.784,-545.753,0,0
175566.575,318.108,-542.334,0,0
175826.9,313.773,-538.334,0,0
176087.225,310.095,-533.926,0,0
176347.55,306.962,-529.431,0,0
176607.875,304.3,-524.842,0,0
176868.2,302.037,-520.144,0,0
177128.525,300.171,-515.405,0,0
177388.85,298.725,-510.648,0,0
177649.175,297.668,-505.93,0,0
177909.5,297.012,-501.271,0,0
178169.825,296.709,-496.858,0,0
178430.15,296.524,-492.765,0,0
178690.475,296.294,-488.705,0,0
178950.8,296.222,-484.582,0,0
179211.125,296.34,-480.49,0,0
179471.45,296.641,-476.413,0,0
179731.775,297.16,-472.429,0,0
179992.1,297.868,-468.546,0,0
180252.425,298.671,-464.936,0,0
180512.75,299.509,-461.42,0,0
180773.075,300.291,-457.99,0,0
181033.4,301.114,-454.594,0,0
181293.725,301.962,-451.232,0,0
181554.05,302.856,-447.944,0,0
181814.375,303.692,-444.751,0,0
182074.7,304.456,-441.592,0,0
182335.025,305.108,-438.36,0,0
182595.35,305.716,-435.022,0,0
182855.675,306.294,-431.564,0,0
183116.0,306.869,-428.022,0,0
183376.325,307.43,-424.249,0,0
183636.65,308.096,-420.285,0,0
183896.975,308.873,-416.179,0,0
184157.3,309.785,-411.912,0,0
184417.625,310.863,-407.541,0,0
184677.95,312.114,-403.067,0,0
184938.275,313.502,-398.528,0,0
185198.6,314.993,-393.893,0,0
185458.925,316.648,-389.142,0,0
185719.25,318.493,-384.241,0,0
185979.575,320.55,-379.258,0,0
186239.9,322.828,-374.22,0,0
186500,325.357,-369.093,0,0
186761,327.996,-363.985,0,0
187021,330.885,-358.896,0,0
187281,333.913,-353.707,0,0
187542,337.214,-348.451,0,0
187802,340.633,-343.125,0,0
188062,344.383,-337.695,0,0
188322,348.342,-332.213,0,0
188583,352.585,-326.746,0,0
188843,357.036,-321.22,0,0
189103,361.94,-315.634,0,0
189364,367.085,-310.143,0,0
189624,372.545,-304.636,0,0
189884,378.253,-299.081,0,0
190145,384.422,-293.488,0,0
190405,391.041,-288.114,0,0
190665,398.068,-282.838,0,0
190926,405.475,-277.796,0,0
191186,413.152,-272.908,0,0
191446,421.171,-268.202,0,0
191707,429.503,-263.657,0,0
191967,438.237,-259.369,0,0
192227,447.379,-255.385,0,0
192488,456.819,-251.73,0,0
192748,466.425,-248.336,0,0
193008,476.407,-245.318,0,0
193269,486.748,-242.586,0,0
193529,497.25,-240.25,0,0
193789,507.965,-238.428,0,0
194050,518.797,-236.86,0,0
194310,529.75,-235.582,0,0
194570,540.924,-234.687,0,0
194831,552.302,-234.059,0,0
195091,563.918,-233.857,0,0
195351,575.608,-234.052,0,0
195612,587.372,-234.541,0,0
195872,599.368,-235.271,0,0
196132,611.599,-236.298,0,0
196393,624.123,-237.598,0,0
196653,637.033,-239.321,0,0
196913,650.261,-241.538,0,0
197174,663.806,-244.22,0,0
197434,677.867,-247.461,0,0
197694,692.29,-251.588,0,0
197955,706.944,-256.58,0,0
198215,721.769,-262.444,0,0
198475,736.711,-269.211,0,0
198735,751.726,-277.046,0,0
198996,766.713,-285.981,0,0
199256,781.608,-295.994,0,0
199516,796.179,-307.42,0,0
199777,810.125,-320.119,0,0
200037,823.339,-333.891,0,0
200297,835.57,-348.572,0,0
200558,846.977,-364.149,0,0
200818,857.293,-380.489,0,0
201078,866.652,-397.553,0,0
201339,874.722,-415.308,0,0
201599,881.524,-433.332,0,0
201859,887.069,-451.677,0,0
202120,891.345,-470.112,0,0
202380.025,894.632,-488.41,0,0
202640.35,896.649,-506.663,0,0
202900.675,897.25,-524.697,0,0
203161.0,896.905,-541.63,0,0
203421.325,896.495,-557.926,0,0
203681.65,895.858,-574.455,0,0
203941.975,894.362,-591.105,0,0
204202.3,891.893,-607.512,0,0
204462.625,888.788,-623.575,0,0
204722.95,884.836,-638.924,0,0
204983.275,880.594,-654.012,0,0
205243.6,876.29,-668.892,0,0
205503.925,870.534,-683.735,0,0
205764.25,864.255,-697.659,0,0
206024.575,857.822,-710.601,0,0
206284.9,851.348,-723.276,0,0
206545.225,844.845,-735.717,0,0
206805.55,838.164,-748.028,0,0
207065.875,831.228,-760.365,0,0
207326.2,823.897,-772.913,0,0
207586.525,815.7,-785.712,0,0
207846.85,806.268,-798.433,0,0
208107.175,795.687,-810.38,0,0
208367.5,784.092,-821.29,0,0
208627.825,771.742,-830.975,0,0
208888.15,759.141,-839.534,0,0
209148.475,746.259,-846.899,0,0
209408.8,733.259,-852.921,0,0
209669.125,720.716,-857.783,0,0
209929.45,708.734,-861.679,0,0
210189.775,696.925,-865.096,0,0
210450.1,685.495,-867.804,0,0
210710.425,674.647,-869.859,0,0
210970.75,664.23,-871.616,0,0
211231.075,654.057,-872.916,0,0
211491.4,644.084,-873.608,0,0
211751.725,634.657,-873.845,0,0
212012.05,625.558,-873.795,0,0
212272.375,617.019,-873.187,0,0
212532.7,609.115,-872.303,0,0
212793.025,601.788,-871.348,0,0
213053.35,594.946,-870.475,0,0
213313.675,588.256,-869.485,0,0
213574.0,581.993,-868.251,0,0
213834.325,576.172,-866.736,0,0
214094.65,570.956,-865.081,0,0
214354.975,566.521,-863.583,0,0
214615.3,562.764,-862.387,0,0
214875.625,559.536,-861.76,0,0
215135.95,556.385,-861.7,0,0
215396.275,553.316,-862.241,0,0
215656.6,550.117,-863.207,0,0
215916.925,546.772,-864.427,0,0
216177.25,543.203,-865.897,0,0
216437.575,539.316,-867.63,0,0
216697.9,534.919,-869.414,0,0
216958.225,530.192,-870.963,0,0
217218.55,525.382,-872.038,0,0
217478.875,520.675,-872.878,0,0
217739.2,516.139,-873.631,0,0
217999.525,511.697,-874.425,0,0
218259.85,507.253,-875.227,0,0
218520,502.854,-876.008,0,0
218780,498.38,-876.851,0,0
219041,494.108,-877.35,0,0
219301,489.779,-877.965,0,0
219561,485.691,-878.692,0,0
219822,481.41,-879.533,0,0
220082,477.164,-880.448,0,0
220342,472.755,-881.399,0,0
220603,468.192,-882.253,0,0
220863,463.476,-883.04,0,0
221123,458.739,-883.628,0,0
221384,454.01,-884.092,0,0
221644,449.415,-884.535,0,0
221904,444.617,-884.972,0,0
222165,439.859,-885.122,0,0
222425,435.105,-885.203,0,0
222685,430.52,-884.945,0,0
222946,426.071,-884.719,0,0
223206,421.717,-884.745,0,0
223466,417.361,-884.658,0,0
223727,413.069,-884.62,0,0
223987,408.725,-884.696,0,0
224247,404.556,-884.606,0,0
224508,400.258,-884.679,0,0
224768,395.88,-884.848,0,0
225028,391.601,-885.029,0,0
225289,386.92,-885.484,0,0
225549,382.125,-885.782,0,0
225809,377.042,-886.048,0,0
226070,371.714,-886.115,0,0
226330,366.204,-886.015,0,0
226590,360.497,-885.41,0,0
226851,354.831,-884.644,0,0
227111,349.397,-883.478,0,0
227371,343.843,-882.33,0,0
227632,338.434,-880.993,0,0
227892,332.974,-879.581,0,0
228152,327.313,-877.888,0,0
228413,321.648,-875.886,0,0
228673,316.127,-873.545,0,0
228933,310.697,-870.922,0,0
229193,305.436,-867.972,0,0
229454,300.494,-864.842,0,0
229714,295.713,-861.359,0,0
229974,291.441,-857.882,0,0
230235,287.211,-854.408,0,0
230495,283.395,-850.767,0,0
230755,279.624,-847.147,0,0
231016,276.182,-843.49,0,0
231276,272.924,-839.834,0,0
231536,269.86,-836.257,0,0
231797,266.946,-832.829,0,0
232057,264.11,-829.297,0,0
232317,261.392,-825.779,0,0
232578,258.829,-822.288,0,0
232838,256.351,-818.866,0,0
233098,253.934,-815.364,0,0
233359,251.778,-811.851,0,0
233619,249.767,-808.371,0,0
233879,247.879,-805.018,0,0
234140,246.178,-801.773,0,0
234400,244.385,-798.603,0,0
234660.3,242.667,-795.396,0,0
234920.625,241.021,-792.226,0,0
235180.95,239.592,-788.956,0,0
235441.275,238.363,-785.944,0,0
235701.6,237.162,-783.016,0,0
235961.925,236.01,-780.207,0,0
236222.25,234.656,-777.489,0,0
236482.575,233.278,-774.767,0,0
236742.9,231.975,-771.954,0,0
237003.225,230.706,-769.03,0,0
237263.55,229.601,-766.069,0,0
237523.875,228.588,-763.114,0,0
237784.2,227.699,-760.113,0,0
238044.525,227.037,-757.127,0,0
238304.85,226.605,-754.283,0,0
238565.175,226.305,-751.598,0,0
238825.5,226.02,-749.076,0,0
239085.825,225.786,-746.815,0,0
239346.15,225.562,-744.53,0,0
239606.475,225.387,-742.344,0,0
239866.8,225.185,-740.396,0,0
240127.125,225.015,-738.453,0,0
240387.45,224.814,-736.645,0,0
240647.775,224.529,-734.979,0,0
240908.1,224.32,-733.382,0,0
241168.425,223.946,-731.825,0,0
241428.75,223.569,-730.396,0,0
241689.075,223.226,-728.983,0,0
241949.4,222.716,-727.605,0,0
242209.725,222.273,-726.276,0,0
242470.05,221.75,-725.025,0,0
242730.375,221.106,-723.896,0,0
242990.7,220.356,-722.705,0,0
243251.025,219.53,-721.51,0,0
243511.35,218.717,-720.311,0,0
243771.675,217.872,-719.151,0,0
244032.0,216.824,-718.098,0,0
244292.325,215.649,-716.915,0,0
244552.65,214.423,-715.638,0,0
244812.975,213.113,-714.3,0,0
245073.3,211.725,-712.865,0,0
245333.625,210.432,-711.115,0,0
245593.95,209.082,-709.407,0,0
245854.275,207.859,-707.586,0,0
246114.6,206.596,-705.69,0,0
246374.925,205.418,-703.681,0,0
246635.25,204.407,-701.585,0,0
246895.575,203.388,-699.476,0,0
247155.9,202.529,-697.267,0,0
247416.225,201.812,-694.984,0,0
247676.55,201.279,-692.779,0,0
247936.875,200.936,-690.691,0,0
248197.2,200.572,-688.785,0,0
248457.525,200.249,-686.987,0,0
248717.85,199.836,-685.237,0,0
248978.175,199.48,-683.592,0,0
249238.5,198.951,-682,0,0
249498.825,198.421,-680.279,0,0
249759.15,197.899,-678.641,0,0
250019.475,197.304,-677.058,0,0
250279.8,196.781,-675.278,0,0
250540,196.338,-673.596,0,0
250800,195.83,-671.982,0,0
251061,195.334,-670.393,0,0
251321,194.747,-668.876,0,0
251581,194.148,-667.34,0,0
251842,193.43,-665.838,0,0
252102,192.63,-664.347,0,0
252362,191.708,-662.798,0,0
252623,190.603,-661.181,0,0
252883,189.382,-659.407,0,0
253143,188.09,-657.379,0,0
253404,186.802,-655.061,0,0
253664,185.663,-652.535,0,0
253924,184.659,-649.849,0,0
254185,183.845,-647.084,0,0
254445,183.187,-644.271,0,0
254705,182.532,-641.389,0,0
254966,182.046,-638.409,0,0
255226,181.551,-635.45,0,0
255486,181.119,-632.35,0,0
255747,180.801,-629.111,0,0
256007,180.649,-625.634,0,0
256267,180.676,-622.023,0,0
256528,181.098,-618.328,0,0
256788,181.729,-614.672,0,0
257048,182.583,-611.087,0,0
257309,183.587,-607.54,0,0
257569,184.749,-603.952,0,0
257829,186.153,-600.353,0,0
258090,187.862,-596.79,0,0
258350,189.741,-593.383,0,0
258610,191.791,-590.046,0,0
258871,194.014,-586.712,0,0
259131,196.488,-583.405,0,0
259391,199.318,-580.185,0,0
259651,202.427,-577.179,0,0
259912,205.813,-574.476,0,0
260172,209.359,-572.02,0,0
260432,213.033,-569.821,0,0
260693,216.908,-567.799,0,0
260953,220.891,-566.1,0,0
261213,225.038,-564.672,0,0
261474,229.245,-563.676,0,0
261734,233.443,-563.027,0,0
261994,237.516,-562.651,0,0
262255,241.529,-562.501,0,0
262515,245.462,-562.489,0,0
262775,249.428,-562.577,0,0
263036,253.501,-562.883,0,0
263296,257.647,-563.434,0,0
263556,262.125,-564.235,0,0
263817,266.385,-565.805,0,0
264077,270.351,-567.558,0,0
264337,274.088,-569.61,0,0
264598,277.641,-571.788,0,0
264858,281.128,-574.233,0,0
265118,284.428,-576.898,0,0
265379,287.603,-579.836,0,0
265639,290.456,-582.885,0,0
265899,293.248,-586.21,0,0
266160,296.029,-589.738,0,0
266420,298.456,-593.727,0,0
266680.25,300.471,-598.014,0,0
266940.575,302.004,-602.538,0,0
267200.9,302.967,-607.103,0,0
267461.225,303.544,-611.622,0,0
267721.55,303.676,-616.029,0,0
267981.875,303.526,-620.146,0,0
268242.2,303.232,-624.245,0,0
268502.525,302.75,-628.332,0,0
268762.85,302.089,-632.49,0,0
269023.175,301.041,-636.737,0,0
269283.5,299.574,-641.027,0,0
269543.825,297.608,-645.164,0,0
269804.15,295.011,-649.041,0,0
270064.475,291.959,-652.426,0,0
270324.8,288.689,-654.97,0,0
270585.125,285.494,-656.971,0,0
270845.45,282.626,-658.56,0,0
271105.775,279.976,-659.832,0,0
271366.1,277.604,-660.872,0,0
271626.425,275.716,-661.862,0,0
271886.75,274.047,-662.999,0,0
272147.075,272.454,-664.455,0,0
272407.4,270.885,-666.112,0,0
272667.725,269.103,-667.905,0,0
272928.05,267.131,-669.807,0,0
273188.375,264.91,-671.667,0,0
273448.7,262.613,-673.384,0,0
273709.025,260.209,-675.113,0,0
273969.35,257.754,-676.849,0,0
274229.675,255.046,-678.647,0,0
274490.0,252.127,-680.391,0,0
274750.325,248.966,-682.021,0,0
275010.65,245.501,-683.623,0,0
275270.975,241.778,-684.903,0,0
275531.3,237.813,-685.89,0,0
275791.625,233.689,-686.542,0,0
276051.95,229.382,-686.889,0,0
276312.275,225.065,-686.822,0,0
276572.6,220.771,-686.364,0,0
276832.925,216.481,-685.548,0,0
277093.25,212.323,-684.355,0,0
277353.575,208.314,-682.844,0,0
277613.9,204.447,-681.037,0,0
277874.225,200.793,-678.808,0,0
278134.55,197.387,-676.308,0,0
278394.875,194.343,-673.509,0,0
278655.2,191.678,-670.535,0,0
278915.525,189.39,-667.408,0,0
279175.85,187.539,-664.221,0,0
279436.175,186.133,-661.077,0,0
279696.5,185.224,-657.964,0,0
279956.825,184.556,-655.131,0,0
280217.15,184.309,-652.563,0,0
280477.475,184.171,-650.406,0,0
280737.8,184.053,-648.508,0,0
280998.125,183.893,-646.764,0,0
281258.45,183.719,-645.245,0,0
281518.775,183.543,-643.902,0,0
281779.1,183.243,-642.667,0,0
282039.425,182.763,-641.484,0,0
282299.75,182.164,-640.2,0,0
282560,181.592,-638.708,0,0
282820,181.213,-637.045,0,0
283081,181.159,-635.41,0,0
283341,181.378,-633.961,0,0
283601,181.739,-632.844,0,0
283862,182.056,-632.038,0,0
284122,182.293,-631.46,0,0
284382,182.351,-631.117,0,0
284643,182.141,-630.83,0,0
284903,181.813,-630.57,0,0
285163,181.355,-630.338,0,0
285424,180.739,-630,0,0
285684,180.079,-629.699,0,0
285944,179.298,-629.413,0,0
286205,178.397,-629.173,0,0
286465,177.167,-628.906,0,0
286725,175.677,-628.416,0,0
286986,174.07,-627.576,0,0
287246,172.438,-626.403,0,0
287506,170.926,-624.963,0,0
287767,169.489,-623.326,0,0
288027,168.214,-621.432,0,0
288287,167.062,-619.35,0,0
288548,166.083,-617.058,0,0
288808,165.386,-614.516,0,0
289068,164.968,-611.835,0,0
289329,164.891,-608.991,0,0
289589,165.299,-606.096,0,0
289849,166.192,-603.262,0,0
290109,167.463,-600.59,0,0
290370,169.152,-598.23,0,0
290630,171.098,-596.207,0,0
290890,173.35,-594.485,0,0
291151,175.778,-593.177,0,0
291411,178.315,-592.291,0,0
291671,180.894,-591.85,0,0
291932,183.407,-591.809,0,0
292192,185.839,-592.106,0,0
292452,188.16,-592.723,0,0
292713,190.365,-593.636,0,0
292973,192.431,-594.878,0,0
293233,194.345,-596.421,0,0
293494,195.988,-598.306,0,0
293754,197.301,-600.439,0,0
294014,198.307,-602.753,0,0
294275,198.942,-605.213,0,0
294535,199.245,-607.768,0,0
294795,199.148,-610.387,0,0
295056,198.707,-613.074,0,0
295316,197.782,-615.63,0,0
295576,196.547,-618.025,0,0
295837,194.999,-620.234,0,0
296097,193.178,-622.232,0,0
296357,191.142,-623.952,0,0
296618,188.923,-625.436,0,0
296878,186.578,-626.573,0,0
297138,184.19,-627.42,0,0
297399,181.843,-627.979,0,0
297659,179.588,-628.322,0,0
297919,177.397,-628.5,0,0
298180,175.282,-628.518,0,0
298440,173.266,-628.421,0,0
298700.2,171.34,-628.236,0,0
298960.525,169.514,-628,0,0
299220.85,167.744,-627.752,0,0
299481.175,166.012,-627.406,0,0
299741.5,164.324,-627.057,0,0
300001.825,162.686,-626.691,0,0
300262.15,161.067,-626.304,0,0
300522.475,159.427,-625.906,0,0
300782.8,157.797,-625.45,0,0
301043.125,156.167,-624.993,0,0
301303.45,154.526,-624.487,0,0
301563.775,152.85,-623.897,0,0
301824.1,151.206,-623.211,0,0
302084.425,149.57,-622.423,0,0
302344.75,148.002,-621.543,0,0
302605.075,146.565,-620.623,0,0
302865.4,145.213,-619.685,0,0
303125.725,143.917,-618.78,0,0
303386.05,142.613,-617.909,0,0
303646.375,141.29,-617.026,0,0
303906.7,139.958,-616.077,0,0
304167.025,138.654,-615.037,0,0
304427.35,137.423,-613.974,0,0
304687.675,136.217,-612.891,0,0
304948.0,135.11,-611.755,0,0
305208.325,133.97,-610.586,0,0
305468.65,132.952,-609.395,0,0
305728.975,131.975,-608.171,0,0
305989.3,131.076,-606.955,0,0
306249.625,130.218,-605.704,0,0
306509.95,129.433,-604.456,0,0
306770.275,128.744,-603.2,0,0
307030.6,128.145,-601.98,0,0
307290.925,127.627,-600.802,0,0
307551.25,127.148,-599.672,0,0
307811.575,126.728,-598.634,0,0
308071.9,126.317,-597.653,0,0
308332.225,125.932,-596.722,0,0
308592.55,125.56,-595.845,0,0
308852.875,125.177,-595.048,0,0
309113.2,124.77,-594.306,0,0
309373.525,124.334,-593.614,0,0
309633.85,123.824,-592.918,0,0
309894.175,123.345,-592.266,0,0
310154.5,122.777,-591.606,0,0
310414.825,122.213,-590.969,0,0
310675.15,121.603,-590.344,0,0
310935.475,120.923,-589.691,0,0
311195.8,120.229,-588.985,0,0
311456.125,119.5,-588.236,0,0
311716.45,118.774,-587.44,0,0
311976.775,118.094,-586.569,0,0
312237.1,117.44,-585.691,0,0
312497.425,116.811,-584.812,0,0
312757.75,116.195,-583.937,0,0
313018.075,115.602,-583.015,0,0
313278.4,115.038,-582.068,0,0
313538.725,114.498,-581.11,0,0
313799.05,114.03,-580.159,0,0
314059.375,113.601,-579.179,0,0
314319.7,113.225,-578.24,0,0
314580,112.904,-577.331,0,0
314840,112.66,-576.403,0,0
315101,112.416,-575.523,0,0
315361,112.126,-574.712,0,0
315621,111.849,-573.947,0,0
315882,111.685,-573.222,0,0
316142,111.555,-572.607,0,0
316402,111.358,-571.917,0,0
316663,111.105,-571.23,0,0
316923,110.926,-570.693,0,0
317183,110.825,-570.229,0,0
317444,110.601,-569.668,0,0
317704,110.363,-569.22,0,0
317964,110.174,-568.917,0,0
318225,109.897,-568.577,0,0
318485,109.539,-568.21,0,0
318745,109.167,-567.975,0,0
319006,108.739,-567.726,0,0
319266,108.336,-567.546,0,0
319526,107.926,-567.327,0,0
319787,107.334,-567.212,0,0
320047,106.696,-567.111,0,0
320307,105.937,-566.967,0,0
320567,105.256,-566.868,0,0
320828,104.36,-566.664,0,0
321088,103.488,-566.525,0,0
321348,102.362,-566.44,0,0
321609,101.263,-566.211,0,0
321869,100.06,-565.925,0,0
322129,98.7392,-565.542,0,0
322390,97.3362,-565.051,0,0
322650,95.8537,-564.441,0,0
322910,94.3996,-563.549,0,0
323171,92.9549,-562.556,0,0
323431,91.5427,-561.537,0,0
323691,90.2029,-560.185,0,0
323952,89.0454,-558.875,0,0
324212,87.9361,-557.469,0,0
324472,86.9766,-555.981,0,0
324733,86.1487,-554.525,0,0
324993,85.4727,-553.073,0,0
325253,84.7877,-551.719,0,0
325514,84.2084,-550.389,0,0
325774,83.661,-549.01,0,0
326034,83.0901,-547.74,0,0
326295,82.5284,-546.515,0,0
326555,81.9823,-545.249,0,0
326815,81.4467,-543.931,0,0
327076,80.9122,-542.581,0,0
327336,80.392,-541.308,0,0
327596,79.9024,-539.923,0,0
327857,79.4709,-538.568,0,0
328117,79.0643,-537.176,0,0
328377,78.6152,-535.83,0,0
328638,78.3116,-534.331,0,0
328898,77.972,-532.976,0,0
329158,77.839,-531.456,0,0
329419,77.6087,-529.959,0,0
329679,77.5861,-528.58,0,0
329939,77.6551,-527.053,0,0
330200,77.7661,-525.746,0,0
330460,77.8986,-524.398,0,0
330720.15,78.0819,-523.165,0,0
330980.475,78.3279,-521.989,0,0
331240.8,78.6643,-520.864,0,0
331501.125,78.9636,-519.913,0,0
331761.45,79.2337,-518.938,0,0
332021.775,79.5099,-518.125,0,0
332282.1,79.7451,-517.329,0,0
332542.425,79.9431,-516.644,0,0
332802.75,80.1404,-515.881,0,0
333063.075,80.2749,-515.243,0,0
333323.4,80.2763,-514.688,0,0
333583.725,80.2915,-514.075,0,0
333844.05,80.2855,-513.542,0,0
334104.375,80.1332,-512.956,0,0
334364.7,80.0167,-512.321,0,0
334625.025,79.787,-511.781,0,0
334885.35,79.5006,-511.084,0,0
335145.675,79.2798,-510.432,0,0
335406.0,78.9444,-509.777,0,0
335666.325,78.6041,-509.086,0,0
335926.65,78.2345,-508.229,0,0
336186.975,77.8568,-507.484,0,0
336447.3,77.4959,-506.654,0,0
336707.625,77.076,-505.754,0,0
336967.95,76.6271,-504.729,0,0
337228.275,76.2547,-503.646,0,0
337488.6,75.9266,-502.516,0,0
337748.925,75.6631,-501.386,0,0
338009.25,75.4081,-500.125,0,0
338269.575,75.2624,-498.933,0,0
338529.9,75.1563,-497.636,0,0
338790.225,75.0874,-496.385,0,0
339050.55,75.1112,-495.104,0,0
339310.875,75.0988,-493.844,0,0
339571.2,75.2056,-492.564,0,0
339831.525,75.375,-491.298,0,0
340091.85,75.5585,-490.021,0,0
340352.175,75.924,-488.8,0,0
340612.5,76.2189,-487.499,0,0
340872.825,76.6174,-486.297,0,0
341133.15,77.1125,-485.082,0,0
341393.475,77.6811,-483.912,0,0
341653.8,78.2803,-482.766,0,0
341914.125,79.0033,-481.703,0,0
342174.45,79.8321,-480.715,0,0
342434.775,80.6521,-479.836,0,0
342695.1,81.5316,-479.051,0,0
342955.425,82.4613,-478.423,0,0
343215.75,83.3744,-477.888,0,0
343476.075,84.2694,-477.489,0,0
343736.4,85.0703,-477.21,0,0
343996.725,85.9091,-477.003,0,0
344257.05,86.586,-476.924,0,0
344517.375,87.2209,-476.856,0,0
344777.7,87.7434,-476.848,0,0
345038.025,88.2842,-476.913,0,0
345298.35,88.6123,-476.999,0,0
345558.675,88.9211,-477.078,0,0
345819.0,89.1712,-477.206,0,0
346079.325,89.2916,-477.257,0,0
346339.65,89.4143,-477.321,0,0
346599.975,89.4114,-477.437,0,0
346860,89.4019,-477.579,0,0
347121,89.2877,-477.562,0,0
347381,89.1933,-477.586,0,0
347641,88.9375,-477.572,0,0
347902,88.7133,-477.526,0,0
348162,88.4696,-477.412,0,0
348422,88.1942,-477.364,0,0
348683,87.8204,-477.14,0,0
348943,87.5446,-477.024,0,0
349203,87.1464,-476.809,0,0
349464,86.7747,-476.59,0,0
349724,86.3166,-476.257,0,0
349984,85.9158,-475.881,0,0
350245,85.537,-475.539,0,0
350505,85.1036,-475.099,0,0
350765,84.6558,-474.671,0,0
351025,84.2114,-474.165,0,0
351286,83.8822,-473.668,0,0
351546,83.4477,-473.048,0,0
351806,83.0984,-472.511,0,0
352067,82.734,-471.916,0,0
352327,82.3351,-471.193,0,0
352587,82.07,-470.533,0,0
352848,81.7779,-469.747,0,0
353108,81.4938,-469.043,0,0
353368,81.2528,-468.302,0,0
353629,81.0587,-467.497,0,0
353889,80.9442,-466.648,0,0
354149,80.9199,-465.83,0,0
354410,80.9466,-465.071,0,0
354670,81.0813,-464.342,0,0
354930,81.145,-463.679,0,0
355191,81.3103,-463.081,0,0
355451,81.3712,-462.624,0,0
355711,81.5105,-462.119,0,0
355972,81.4775,-461.653,0,0
356232,81.4993,-461.236,0,0
356492,81.4667,-460.82,0,0
356753,81.4127,-460.389,0,0
357013,81.339,-459.997,0,0
357273,81.181,-459.607,0,0
357534,81.0214,-459.203,0,0
357794,80.7751,-458.788,0,0
358054,80.6001,-458.381,0,0
358315,80.3442,-457.911,0,0
358575,80.0287,-457.353,0,0
358835,79.6117,-456.809,0,0
359096,79.3055,-456.183,0,0
359356,78.9477,-455.476,0,0
359616,78.6138,-454.696,0,0
359877,78.4227,-453.811,0,0
360137,78.19,-452.979,0,0
360397,78.0535,-452.093,0,0
360658,77.9668,-451.223,0,0
360918,77.9462,-450.368,0,0
361178,77.9271,-449.528,0,0
361438,77.9828,-448.702,0,0
361699,77.9887,-447.826,0,0
361959,78.0715,-446.965,0,0
362219,78.2597,-446.187,0,0
362480,78.383,-445.39,0,0
362740.1,78.5862,-444.672,0,0
363000.425,78.7651,-443.946,0,0
363260.75,79.0455,-443.262,0,0
363521.075,79.2256,-442.63,0,0
363781.4,79.4236,-442.014,0,0
364041.725,79.5486,-441.455,0,0
364302.05,79.7593,-440.943,0,0
364562.375,79.8102,-440.385,0,0
364822.7,79.8019,-439.818,0,0
365083.025,79.848,-439.273,0,0
365343.35,79.8281,-438.597,0,0
365603.675,79.7926,-437.907,0,0
365864.0,79.7466,-437.231,0,0
366124.325,79.6866,-436.427,0,0
366384.65,79.7558,-435.587,0,0
366644.975,79.7883,-434.72,0,0
366905.3,79.8716,-433.772,0,0
367165.625,80.1128,-432.809,0,0
367425.95,80.2838,-431.888,0,0
367686.275,80.5877,-430.845,0,0
367946.6,80.9543,-429.884,0,0
368206.925,81.405,-428.912,0,0
368467.25,81.8837,-427.954,0,0
368727.575,82.4878,-427.012,0,0
368987.9,83.1478,-426.098,0,0
369248.225,83.8653,-425.199,0,0
369508.55,84.647,-424.367,0,0
369768.875,85.5046,-423.597,0,0
370029.2,86.4316,-422.902,0,0
370289.525,87.4033,-422.314,0,0
370549.85,88.368,-421.756,0,0
370810.175,89.4278,-421.254,0,0
371070.5,90.4668,-420.939,0,0
371330.825,91.5537,-420.68,0,0
371591.15,92.6538,-420.449,0,0
371851.475,93.7718,-420.448,0,0
372111.8,94.8995,-420.457,0,0
372372.125,95.967,-420.638,0,0
372632.45,96.9845,-420.945,0,0
372892.775,97.9043,-421.372,0,0
373153.1,98.7812,-421.884,0,0
373413.425,99.5075,-422.537,0,0
373673.75,100.142,-423.165,0,0
373934.075,100.553,-423.878,0,0
374194.4,100.968,-424.607,0,0
374454.725,101.136,-425.254,0,0
374715.05,101.254,-425.904,0,0
374975.375,101.292,-426.492,0,0
375235.7,101.243,-427.063,0,0
375496.025,101.077,-427.551,0,0
375756.35,100.976,-427.958,0,0
376016.675,100.797,-428.32,0,0
376277.0,100.669,-428.634,0,0
376537.325,100.413,-428.973,0,0
376797.65,100.26,-429.137,0,0
377057.975,100.05,-429.35,0,0
377318.3,99.8354,-429.526,0,0
377578.625,99.6851,-429.674,0,0
377838.95,99.4891,-429.823,0,0
378099.275,99.4013,-430.016,0,0
378359.6,99.1488,-430.155,0,0
378619.925,98.9481,-430.357,0,0
378880,98.6773,-430.513,0,0
379141,98.3991,-430.659,0,0
379401,98.1247,-430.799,0,0
379661,97.8301,-430.875,0,0
379922,97.5386,-430.866,0,0
380182,97.2239,-430.913,0,0
380442,96.9701,-430.94,0,0
380703,96.7498,-430.91,0,0
380963,96.4064,-430.944,0,0
381223,96.1347,-430.921,0,0
381483,95.8022,-430.877,0,0
381744,95.4685,-430.764,0,0
382004,95.1665,-430.542,0,0
382264,95.0182,-430.334,0,0
382525,94.9097,-430.078,0,0
382785,94.9506,-429.909,0,0
383045,95.0641,-429.87,0,0
383306,95.2839,-429.952,0,0
383566,95.4295,-430.199,0,0
383826,95.4887,-430.594,0,0
384087,95.4747,-431.096,0,0
384347,95.3094,-431.753,0,0
384607,94.9654,-432.404,0,0
384868,94.452,-433.019,0,0
385128,93.7328,-433.646,0,0
385388,92.931,-434.173,0,0
385649,91.978,-434.573,0,0
385909,90.9609,-434.886,0,0
386169,89.7931,-435.046,0,0
386430,88.6639,-435.141,0,0
386690,87.5045,-435.034,0,0
386950,86.2587,-434.758,0,0
387211,85.1142,-434.395,0,0
387471,83.9756,-433.927,0,0
387731,82.8865,-433.328,0,0
387992,81.9319,-432.543,0,0
388252,80.9845,-431.718,0,0
388512,80.1981,-430.787,0,0
388773,79.586,-429.779,0,0
389033,79.1062,-428.794,0,0
389293,78.7884,-427.865,0,0
389554,78.6064,-426.932,0,0
389814,78.4678,-426.072,0,0
390074,78.4609,-425.321,0,0
390335,78.5293,-424.6,0,0
390595,78.6974,-424.019,0,0
390855,78.8581,-423.603,0,0
391116,79.0247,-423.281,0,0
391376,79.1693,-423.119,0,0
391636,79.1736,-423.074,0,0
391896,79.1932,-423.138,0,0
392157,79.0988,-423.283,0,0
392417,78.817,-423.475,0,0
392677,78.3751,-423.711,0,0
392938,77.8471,-423.921,0,0
393198,77.1159,-424.051,0,0
393458,76.2931,-424.09,0,0
393719,75.3879,-424.036,0,0
393979,74.4178,-423.885,0,0
394239,73.4295,-423.585,0,0
394500,72.4394,-423.193,0,0
394760.05,71.4553,-422.687,0,0
395020.375,70.4712,-422.049,0,0
395280.7,69.5938,-421.374,0,0
395541.025,68.7,-420.592,0,0
395801.35,67.9118,-419.772,0,0
396061.675,67.156,-418.937,0,0
396322.0,66.4433,-418.035,0,0
396582.325,65.7822,-417.107,0,0
396842.65,65.1952,-416.169,0,0
397102.975,64.6739,-415.203,0,0
397363.3,64.1625,-414.237,0,0
397623.625,63.6873,-413.29,0,0
397883.95,63.2953,-412.325,0,0
398144.275,62.8702,-411.356,0,0
398404.6,62.5121,-410.389,0,0
398664.925,62.1389,-409.468,0,0
398925.25,61.8527,-408.505,0,0
399185.575,61.5094,-407.494,0,0
399445.9,61.2556,-406.476,0,0
399706.225,61.023,-405.459,0,0
399966.55,60.8549,-404.447,0,0
400006.6,60.788,-404.297,0,0