File: Accelerated corrosion test data/2025-10-07_06-00-03/sample_3.csv
Frequency (Hz),Impedance (ohms),Phase (Radians),Temperature (C),Humidity (%)
10000.0,251.642,-11785.5,0,0
10260.325,245.01,-11488.2,0,0
10520.65,239.942,-11206.4,0,0
10780.975,235.539,-10935.9,0,0
11041.3,230.014,-10684.7,0,0
11301.625,224.405,-10439.3,0,0
11561.95,219.128,-10205.5,0,0
11822.275,215.305,-9982.29,0,0
12082.6,212.152,-9768.97,0,0
12342.925,209.709,-9563.18,0,0
12603.25,203.26,-9368.92,0,0
12863.575,199.559,-9179.11,0,0
13123.9,199.412,-8996.05,0,0
13384.225,192.876,-8827.86,0,0
13644.55,189.549,-8659.85,0,0
13904.875,185.373,-8496.84,0,0
14165.2,185.803,-8340.45,0,0
14425.525,181.04,-8191.07,0,0
14685.8,179.186,-8046.43,0,0
14946.175,175.86,-7907.35,0,0
15206.5,172.919,-7767.84,0,0
15466.825,179.957,-7629.07,0,0
15727.15,193.59,-7524.44,0,0
15987.5,174.454,-7414.61,0,0
16247.8,167.878,-7285,0,0
16508.125,162.002,-7172.67,0,0
16768.45,165.596,-7052.01,0,0
17028.775,158.27,-6954.15,0,0
17289.1,161.093,-6840.41,0,0
17549.425,156.133,-6748.89,0,0
17809.75,157.584,-6643.81,0,0
18070.075,164.089,-6556.93,0,0
18330.4,151.505,-6463.97,0,0
18590.725,148.887,-6371.97,0,0
18851.05,145.354,-6282.04,0,0
19111.375,146.633,-6192.72,0,0
19371.7,145.642,-6109.79,0,0
19632.025,145.976,-6026.58,0,0
19892.35,149.941,-5944.59,0,0
20152.675,147.462,-5871.04,0,0
20413.0,157.337,-5789.92,0,0
20673.3,166.679,-5727.58,0,0
20933.65,161.321,-5670.91,0,0
21193.975,163.972,-5606.5,0,0
21454.3,146.024,-5547.09,0,0
21714.625,138.549,-5471.88,0,0
21974.9,142.738,-5405.48,0,0
22235.275,138.422,-5347.27,0,0
22495.6,137.767,-5285.02,0,0
22755.925,129.457,-5225.08,0,0
23016.25,128.186,-5166.52,0,0
23276.6,128.098,-5103.83,0,0
23536.9,129.709,-5057.99,0,0
23797.225,121.744,-4999.74,0,0
24057.55,119.099,-4942.69,0,0
24317.875,118.803,-4887.52,0,0
24578.2,117.588,-4837,0,0
24838.525,118.766,-4783.03,0,0
25098.85,116.297,-4737.52,0,0
25359.175,113.841,-4687.57,0,0
25619.5,113.63,-4639.85,0,0
25879.8,110.893,-4593.36,0,0
26140.1,109.152,-4545.93,0,0
26400.5,107.627,-4498.65,0,0
26660.8,108.091,-4453.98,0,0
26921.1,108.138,-4409.69,0,0
27181.4,108.861,-4368.83,0,0
27441.8,107.292,-4325.71,0,0
27702.1,108.752,-4286,0,0
27962.4,105.175,-4246.41,0,0
28222.7,103.876,-4203.53,0,0
28483.1,110.219,-4160.1,0,0
28743.4,113.314,-4125.08,0,0
29003.7,115.494,-4095.82,0,0
29264,107.368,-4062.86,0,0
29524.4,110.299,-4024.76,0,0
29784.7,104.576,-3991.43,0,0
30045,102.612,-3957.58,0,0
30305.3,100.837,-3920.31,0,0
30565.7,102.8,-3885.98,0,0
30826,100.641,-3853.97,0,0
31086.3,102.532,-3821.22,0,0
31346.6,99.0985,-3790.96,0,0
31607,97.8157,-3756.74,0,0
31867.3,98.2635,-3723.13,0,0
32127.6,101.338,-3690.06,0,0
32387.9,109.545,-3661.09,0,0
32648.3,112.497,-3643.21,0,0
32908.6,103.79,-3619.32,0,0
33168.9,101.538,-3591.85,0,0
33429.2,99.5734,-3564.7,0,0
33689.6,94.1622,-3537.9,0,0
33949.9,90.9395,-3507.87,0,0
34210.2,90.8573,-3479.94,0,0
34470.5,90.1939,-3453.36,0,0
34730.9,88.0488,-3427.6,0,0
34991.2,86.4001,-3400.89,0,0
35251.5,85.7419,-3374.74,0,0
35511.8,85.0588,-3349.33,0,0
35772.2,84.3082,-3324.56,0,0
36032.5,83.395,-3299.76,0,0
36292.8,83.0197,-3275.2,0,0
36553.1,82.6071,-3251.54,0,0
36813.5,81.6338,-3227.92,0,0
37073.8,81.0559,-3204.84,0,0
37334.1,80.4799,-3181.84,0,0
37594.4,80.1337,-3159.07,0,0
37854.8,79.6302,-3137.09,0,0
38115.1,78.8788,-3115.05,0,0
38375.4,78.4054,-3093.53,0,0
38635.7,78.0916,-3071.97,0,0
38896.1,77.7685,-3050.81,0,0
39156.4,77.3504,-3030.13,0,0
39416.7,77.0172,-3009.81,0,0
39677,76.5225,-2989.66,0,0
39937.4,75.9391,-2969.57,0,0
40197.7,75.5816,-2949.57,0,0
40458,75.2632,-2930.01,0,0
40718.3,74.9675,-2910.83,0,0
40978.7,74.5413,-2891.59,0,0
41239,74.4385,-2872.41,0,0
41499.3,74.3374,-2854.05,0,0
41759.6,74.4217,-2835.8,0,0
42020,73.9767,-2818.28,0,0
42280.275,73.8097,-2800.34,0,0
42540.6,73.438,-2783.03,0,0
42800.925,73.3182,-2765.32,0,0
43061.25,72.7017,-2748.46,0,0
43321.575,72.0638,-2731.62,0,0
43581.9,71.9603,-2714.35,0,0
43842.225,72.0459,-2697.4,0,0
44102.55,71.9851,-2680.82,0,0
44362.875,72.0035,-2665.47,0,0
44623.2,71.4872,-2649.42,0,0
44883.525,71.1869,-2633.54,0,0
45143.85,71.085,-2617.7,0,0
45404.175,70.6279,-2602.61,0,0
45664.5,70.208,-2586.63,0,0
45924.825,71.0241,-2571.5,0,0
46185.15,70.5338,-2557.26,0,0
46445.475,69.9872,-2542.12,0,0
46705.8,69.8725,-2527.17,0,0
46966.125,70.1063,-2512.46,0,0
47226.45,69.8073,-2498.3,0,0
47486.775,69.3262,-2483.94,0,0
47747.1,70.3203,-2469.38,0,0
48007.425,70.6529,-2456.54,0,0
48267.75,70.7389,-2443.64,0,0
48528.075,69.5118,-2430.42,0,0
48788.4,69.4979,-2417.11,0,0
49048.725,68.664,-2404.21,0,0
49309.05,67.9641,-2390.81,0,0
49569.375,67.8613,-2377.35,0,0
49829.7,67.7172,-2364.62,0,0
50090.025,67.1487,-2351.99,0,0
50350.35,66.7433,-2338.9,0,0
50610.675,66.516,-2325.95,0,0
50871.0,66.5218,-2313.49,0,0
51131.325,66.3775,-2301.07,0,0
51391.65,66.1747,-2288.57,0,0
51651.975,66.2254,-2276.38,0,0
51912.3,66.178,-2264.41,0,0
52172.625,66.0692,-2252.4,0,0
52432.95,66.0576,-2240.29,0,0
52693.275,66.2269,-2228.43,0,0
52953.6,66.562,-2216.67,0,0
53213.925,67.3401,-2205,0,0
53474.25,68.0561,-2194.2,0,0
53734.575,68.2426,-2183.42,0,0
53994.9,68.3843,-2172.56,0,0
54255.225,69.3579,-2161.79,0,0
54515.55,70.1403,-2152.53,0,0
54775.875,69.6687,-2143.33,0,0
55036.2,68.7112,-2133.54,0,0
55296.525,68.2015,-2123.91,0,0
55556.85,66.9424,-2114.4,0,0
55817.175,65.1586,-2103.9,0,0
56077.5,64.2704,-2093.35,0,0
56337.825,63.5727,-2082.7,0,0
56598.15,62.6237,-2072.22,0,0
56858.475,61.8815,-2061.63,0,0
57118.8,61.3724,-2050.74,0,0
57379.125,61.3149,-2040.19,0,0
57639.45,61.2347,-2029.68,0,0
57899.775,61.3117,-2019.62,0,0
58160.1,61.2808,-2009.63,0,0
58420.4,61.1053,-1999.74,0,0
58680.7,61.2117,-1989.62,0,0
58941.1,61.2807,-1979.85,0,0
59201.4,61.4194,-1970.06,0,0
59461.7,61.751,-1960.48,0,0
59722,62.0346,-1950.99,0,0
59982.4,62.32,-1941.58,0,0
60242.7,62.5705,-1932.25,0,0
60503,62.7073,-1923.08,0,0
60763.3,63.0931,-1913.79,0,0
61023.7,63.4854,-1904.57,0,0
61284,63.9578,-1895.66,0,0
61544.3,64.3766,-1886.58,0,0
61804.6,64.9603,-1878.01,0,0
62065,65.3204,-1869.29,0,0
62325.3,65.7363,-1860.35,0,0
62585.6,66.2473,-1851.62,0,0
62845.9,66.8869,-1842.62,0,0
63106.3,67.9634,-1833.89,0,0
63366.6,68.7344,-1825.63,0,0
63626.9,69.8382,-1816.54,0,0
63887.2,71.4395,-1808.36,0,0
64147.6,72.8642,-1799.88,0,0
64407.9,74.9256,-1791.77,0,0
64668.2,77.335,-1783.49,0,0
64928.5,80.1259,-1776.4,0,0
65188.9,84.4422,-1770.02,0,0
65449.2,87.1048,-1766.07,0,0
65709.5,88.7031,-1761.37,0,0
65969.8,91.7842,-1757.96,0,0
66230.2,91.5235,-1758.36,0,0
66490.5,86.1797,-1756.29,0,0
66750.8,80.9138,-1749.96,0,0
67011.1,77.7263,-1740.69,0,0
67271.5,76.4945,-1732.91,0,0
67531.8,74.7925,-1724.89,0,0
67792.1,75.0161,-1716.57,0,0
68052.4,75.1108,-1708.82,0,0
68312.8,76.1442,-1701.63,0,0
68573.1,76.3211,-1695.54,0,0
68833.4,76.2978,-1689.37,0,0
69093.7,76.6459,-1682.82,0,0
69354.1,77.1416,-1677.34,0,0
69614.4,76.6349,-1671.96,0,0
69874.7,76.0178,-1666.36,0,0
70135,75.0318,-1660.7,0,0
70395.4,74.0453,-1654.68,0,0
70655.7,73.0283,-1648.66,0,0
70916,71.9104,-1642.56,0,0
71176.3,70.7436,-1636.02,0,0
71436.7,70.0454,-1629.29,0,0
71697,69.2488,-1622.61,0,0
71957.3,69.2043,-1615.48,0,0
72217.6,69.2848,-1609.31,0,0
72478,69.4129,-1603.19,0,0
72738.3,69.3857,-1597.41,0,0
72998.6,69.2703,-1591.93,0,0
73258.9,68.6368,-1586.32,0,0
73519.3,68.1686,-1580.56,0,0
73779.6,67.7419,-1574.91,0,0
74039.9,67.2144,-1569.4,0,0
74300.225,66.4248,-1563.85,0,0
74560.55,65.7021,-1558.14,0,0
74820.875,64.9812,-1552.36,0,0
75081.2,64.1631,-1546.61,0,0
75341.525,63.4611,-1540.88,0,0
75601.85,62.7203,-1535.08,0,0
75862.175,61.9415,-1529.19,0,0
76122.5,61.2931,-1523.32,0,0
76382.825,60.6377,-1517.44,0,0
76643.15,60.0657,-1511.54,0,0
76903.475,59.6032,-1505.75,0,0
77163.8,59.1528,-1499.92,0,0
77424.125,58.6865,-1494.19,0,0
77684.45,58.2524,-1488.56,0,0
77944.775,57.6848,-1482.84,0,0
78205.1,57.1468,-1477.16,0,0
78465.425,56.7203,-1471.42,0,0
78725.75,56.3666,-1465.7,0,0
78986.075,55.9191,-1460.06,0,0
79246.4,55.5612,-1454.43,0,0
79506.725,55.2162,-1448.75,0,0
79767.05,54.9713,-1443.18,0,0
80027.375,54.6232,-1437.56,0,0
80287.7,54.4121,-1431.96,0,0
80548.025,54.2083,-1426.51,0,0
80808.35,53.9757,-1421.14,0,0
81068.675,53.7725,-1415.62,0,0
81329.0,53.6208,-1410.24,0,0
81589.325,53.4293,-1404.82,0,0
81849.65,53.2523,-1399.49,0,0
82109.975,53.1586,-1394.13,0,0
82370.3,53.0005,-1388.85,0,0
82630.625,52.9343,-1383.51,0,0
82890.95,52.8217,-1378.4,0,0
83151.275,52.7257,-1373.18,0,0
83411.6,52.7219,-1368.01,0,0
83671.925,52.5753,-1362.91,0,0
83932.25,52.5891,-1357.8,0,0
84192.575,52.588,-1352.66,0,0
84452.9,52.5266,-1347.7,0,0
84713.225,52.4637,-1342.64,0,0
84973.55,52.3541,-1337.57,0,0
85233.875,52.4722,-1332.61,0,0
85494.2,52.466,-1327.68,0,0
85754.525,52.5388,-1322.73,0,0
86014.85,52.6341,-1317.85,0,0
86275.175,52.6121,-1313.02,0,0
86535.5,52.6314,-1308.19,0,0
86795.825,52.6221,-1303.42,0,0
87056.15,52.6661,-1298.49,0,0
87316.475,52.7408,-1293.75,0,0
87576.8,52.8395,-1288.85,0,0
87837.125,53.0437,-1284.19,0,0
88097.45,53.2049,-1279.38,0,0
88357.775,53.3571,-1274.69,0,0
88618.1,53.4684,-1270.05,0,0
88878.425,53.6938,-1265.16,0,0
89138.75,54.0497,-1260.36,0,0
89399.075,54.5685,-1255.69,0,0
89659.4,54.9117,-1251.1,0,0
89919.725,55.4443,-1246.69,0,0
90180,56.069,-1242.31,0,0
90440.4,56.5406,-1238.1,0,0
90700.7,56.9274,-1233.81,0,0
90961,57.2681,-1229.44,0,0
91221.3,57.7349,-1225.21,0,0
91481.7,58.2949,-1221.06,0,0
91742,58.8619,-1217,0,0
92002.3,59.4009,-1212.99,0,0
92262.6,60.0615,-1208.95,0,0
92523,60.7549,-1205.1,0,0
92783.3,61.3603,-1201.45,0,0
93043.6,61.8955,-1197.81,0,0
93303.9,62.656,-1194.18,0,0
93564.3,63.4535,-1191.03,0,0
93824.6,63.9111,-1188.07,0,0
94084.9,64.2128,-1185.26,0,0
94345.2,64.1073,-1182.55,0,0
94605.6,63.927,-1179.69,0,0
94865.9,63.5935,-1177.27,0,0
95126.2,62.0889,-1174.76,0,0
95386.5,60.3606,-1171.13,0,0
95646.9,59.0212,-1166.76,0,0
95907.2,58.4066,-1162.41,0,0
96167.5,57.7683,-1158.16,0,0
96427.8,57.4031,-1153.75,0,0
96688.2,57.32,-1149.41,0,0
96948.5,57.3247,-1145.39,0,0
97208.8,57.2185,-1141.39,0,0
97469.1,57.1984,-1137.39,0,0
97729.5,57.2348,-1133.58,0,0
97989.8,57.1635,-1129.75,0,0
98250.1,57.0816,-1125.89,0,0
98510.4,57.0608,-1122.07,0,0
98770.8,57.0562,-1118.3,0,0
99031.1,57.0124,-1114.65,0,0
99291.4,56.8394,-1111.04,0,0
99551.7,56.5729,-1107.24,0,0
99812.1,56.345,-1103.36,0,0
100072,56.2376,-1099.5,0,0
100333,56.0829,-1095.68,0,0
100593,55.8749,-1091.8,0,0
100853,55.756,-1087.82,0,0
101114,55.6812,-1083.74,0,0
101374,55.7242,-1079.73,0,0
101634,55.8098,-1075.58,0,0
101895,56.0924,-1071.48,0,0
102155,56.391,-1067.41,0,0
102415,56.8003,-1063.21,0,0
102676,57.6559,-1059.1,0,0
102936,58.7184,-1055.45,0,0
103196,59.5174,-1052.15,0,0
103457,60.0809,-1048.82,0,0
103717,60.6845,-1045.38,0,0
103977,61.4838,-1041.95,0,0
104238,62.5171,-1038.79,0,0
104498,63.598,-1036.12,0,0
104758,64.173,-1033.86,0,0
105019,64.1997,-1031.5,0,0
105279,64.1201,-1028.83,0,0
105539,64.1205,-1026.03,0,0
105800,64.0905,-1023.43,0,0
106060,63.7861,-1020.9,0,0
106320.175,63.2622,-1018.16,0,0
106580.5,62.75,-1015.14,0,0
106840.825,62.2716,-1012.17,0,0
107101.15,61.6257,-1009.11,0,0
107361.475,60.9947,-1005.77,0,0
107621.8,60.4897,-1002.36,0,0
107882.125,60.0541,-998.898,0,0
108142.45,59.6607,-995.35,0,0
108402.775,59.3105,-991.808,0,0
108663.1,58.9754,-988.243,0,0
108923.425,58.664,-984.556,0,0
109183.75,58.4093,-980.803,0,0
109444.075,58.4533,-976.918,0,0
109704.4,58.6317,-973.197,0,0
109964.725,58.6737,-969.62,0,0
110225.05,58.7681,-965.804,0,0
110485.375,58.9492,-962.018,0,0
110745.7,59.4714,-958.246,0,0
111006.025,60.0214,-954.672,0,0
111266.35,60.7673,-951.302,0,0
111526.675,61.1584,-948.087,0,0
111787.0,61.506,-944.651,0,0
112047.325,62.0376,-941.398,0,0
112307.65,62.5013,-938.145,0,0
112567.975,62.9673,-935.032,0,0
112828.3,63.2413,-931.964,0,0
113088.625,63.5037,-928.732,0,0
113348.95,63.7913,-925.549,0,0
113609.275,64.2234,-922.356,0,0
113869.6,64.4295,-919.208,0,0
114129.925,64.8243,-915.934,0,0
114390.25,65.0836,-912.717,0,0
114650.575,65.3081,-909.364,0,0
114910.9,65.7628,-905.888,0,0
115171.225,66.2612,-902.427,0,0
115431.55,66.9023,-899.073,0,0
115691.875,67.579,-895.802,0,0
115952.2,68.2762,-892.508,0,0
116212.525,68.8953,-889.19,0,0
116472.85,69.6963,-885.803,0,0
116733.175,70.7592,-882.424,0,0
116993.5,71.8543,-879.41,0,0
117253.825,72.692,-876.512,0,0
117514.15,73.469,-873.338,0,0
117774.475,74.6797,-869.842,0,0
118034.8,76.3941,-866.741,0,0
118295.125,78.1106,-864.082,0,0
118555.45,79.7875,-861.846,0,0
118815.775,80.9683,-859.866,0,0
119076.1,81.9825,-857.609,0,0
119336.425,83.0934,-855.028,0,0
119596.75,84.9533,-852.8,0,0
119857.075,86.7671,-851.443,0,0
120117.4,87.933,-850.511,0,0
120377.725,88.5012,-849.582,0,0
120638.05,88.7115,-848.484,0,0
120898.375,88.7167,-847.29,0,0
121158.7,88.4757,-845.927,0,0
121419.025,87.9478,-844.441,0,0
121679.35,87.1494,-842.533,0,0
121939.675,86.4323,-840.04,0,0
122200.0,86.1618,-837.347,0,0
122460,86.0794,-834.668,0,0
122721,86.2122,-832.075,0,0
122981,86.3595,-829.453,0,0
123241,86.7706,-826.88,0,0
123502,87.2171,-824.605,0,0
123762,87.4453,-822.446,0,0
124022,87.6519,-820.137,0,0
124283,87.9973,-817.839,0,0
124543,88.2884,-815.644,0,0
124803,88.5873,-813.503,0,0
125064,88.8508,-811.407,0,0
125324,89.0747,-809.399,0,0
125584,89.2391,-807.345,0,0
125845,89.419,-805.36,0,0
126105,89.5454,-803.499,0,0
126365,89.5287,-801.657,0,0
126626,89.3399,-799.766,0,0
126886,89.066,-797.831,0,0
127146,88.837,-795.616,0,0
127406,88.5747,-793.516,0,0
127667,88.1663,-791.438,0,0
127927,87.8456,-789.235,0,0
128187,87.558,-786.972,0,0
128448,87.0634,-784.765,0,0
128708,86.5159,-782.385,0,0
128968,86.0023,-779.753,0,0
129229,85.6929,-776.957,0,0
129489,85.5303,-774.356,0,0
129749,85.3048,-771.628,0,0
130010,85.2052,-768.821,0,0
130270,85.2933,-765.963,0,0
130530,85.597,-763.246,0,0
130791,86.0101,-760.728,0,0
131051,86.3836,-758.514,0,0
131311,86.4772,-756.396,0,0
131572,86.4499,-754.208,0,0
131832,86.3546,-751.997,0,0
132092,86.197,-749.747,0,0
132353,85.8942,-747.429,0,0
132613,85.7097,-744.897,0,0
132873,85.6618,-742.423,0,0
133134,85.6179,-740.086,0,0
133394,85.4702,-737.733,0,0
133654,85.3111,-735.341,0,0
133915,85.0368,-733.002,0,0
134175,84.7249,-730.524,0,0
134435,84.4801,-727.986,0,0
134696,84.2216,-725.426,0,0
134956,83.842,-722.911,0,0
135216,83.4552,-720.194,0,0
135477,83.3034,-717.339,0,0
135737,83.1776,-714.75,0,0
135997,82.8971,-712.071,0,0
136258,82.5979,-709.306,0,0
136518,82.2887,-706.404,0,0
136778,82.0824,-703.321,0,0
137039,82.1031,-700.253,0,0
137299,82.2187,-697.247,0,0
137559,82.4189,-694.286,0,0
137819,82.6672,-691.504,0,0
138080,82.7908,-688.648,0,0
138340.125,83.1028,-685.752,0,0
138600.45,83.5545,-683.122,0,0
138860.775,83.8016,-680.779,0,0
139121.1,83.6758,-678.39,0,0
139381.425,83.5305,-675.781,0,0
139641.75,83.3479,-673.115,0,0
139902.075,83.1357,-670.329,0,0
140162.4,82.9405,-667.354,0,0
140422.725,82.9456,-664.336,0,0
140683.05,83.0851,-661.471,0,0
140943.375,83.1,-658.741,0,0
141203.7,82.9906,-655.942,0,0
141464.025,82.812,-653.088,0,0
141724.35,82.572,-650.087,0,0
141984.675,82.3652,-646.969,0,0
142245.0,82.2527,-643.739,0,0
142505.325,82.2413,-640.506,0,0
142765.65,82.1955,-637.299,0,0
143025.975,82.1392,-633.978,0,0
143286.3,82.1453,-630.651,0,0
143546.625,82.1868,-627.173,0,0
143806.95,82.2847,-623.688,0,0
144067.275,82.4695,-620.158,0,0
144327.6,82.7437,-616.68,0,0
144587.925,82.9489,-613.13,0,0
144848.25,83.2456,-609.534,0,0
145108.575,83.6315,-605.901,0,0
145368.9,84.04,-602.274,0,0
145629.225,84.4556,-598.637,0,0
145889.55,84.8948,-594.94,0,0
146149.875,85.3776,-591.141,0,0
146410.2,85.9831,-587.293,0,0
146670.525,86.6521,-583.446,0,0
146930.85,87.3633,-579.569,0,0
147191.175,88.1823,-575.644,0,0
147451.5,89.0474,-571.729,0,0
147711.825,89.9529,-567.739,0,0
147972.15,91.0171,-563.648,0,0
148232.475,92.2674,-559.626,0,0
148492.8,93.5204,-555.731,0,0
148753.125,94.7613,-551.76,0,0
149013.45,96.0743,-547.694,0,0
149273.775,97.4974,-543.576,0,0
149534.1,99.0431,-539.353,0,0
149794.425,100.887,-535.033,0,0
150054.75,103.025,-530.862,0,0
150315.075,105.296,-526.836,0,0
150575.4,107.762,-523.003,0,0
150835.725,110.298,-519.354,0,0
151096.05,112.822,-515.882,0,0
151356.375,115.36,-512.54,0,0
151616.7,117.929,-509.298,0,0
151877.025,120.492,-506.183,0,0
152137.35,123.065,-503.12,0,0
152397.675,125.712,-500.199,0,0
152658.0,128.279,-497.476,0,0
152918.325,130.776,-494.83,0,0
153178.65,133.288,-492.405,0,0
153438.975,135.438,-490.169,0,0
153699.3,137.368,-487.657,0,0
153959.625,139.388,-485.038,0,0
154219.95,141.463,-482.552,0,0
154480,143.385,-480.19,0,0
154741,144.763,-477.869,0,0
155001,146.022,-474.974,0,0
155261,147.22,-471.446,0,0
155522,149.192,-467.544,0,0
155782,151.827,-464.074,0,0
156042,154.266,-461.246,0,0
156303,156.248,-458.319,0,0
156563,158.069,-454.831,0,0
156823,160.372,-450.84,0,0
157084,163.347,-447.071,0,0
157344,166.817,-443.602,0,0
157604,170.488,-440.818,0,0
157864,173.741,-438.596,0,0
158125,176.602,-436.452,0,0
158385,179.5,-434.533,0,0
158645,181.617,-433.03,0,0
158906,182.603,-431.348,0,0
159166,183.096,-428.302,0,0
159426,184.256,-424.387,0,0
159687,185.468,-420.438,0,0
159947,186.391,-415.6,0,0
160207,188.304,-409.556,0,0
160468,191.44,-403.68,0,0
160728,195.216,-397.58,0,0
160988,200.256,-391.907,0,0
161249,205.368,-387.674,0,0
161509,209.482,-383.309,0,0
161769,213.865,-377.716,0,0
162030,219.724,-371.803,0,0
162290,226.495,-366.864,0,0
162550,233.554,-362.46,0,0
162811,240.747,-358.712,0,0
163071,247.759,-355.083,0,0
163331,255.177,-351.469,0,0
163592,262.881,-347.879,0,0
163852,271.214,-344.322,0,0
164112,280.528,-341.355,0,0
164373,290.056,-339.414,0,0
164633,299.512,-337.514,0,0
164893,310.091,-335.879,0,0
165154,322.115,-335.572,0,0
165414,334.113,-337.77,0,0
165674,344.421,-341.497,0,0
165935,353.653,-344.821,0,0
166195,363.71,-348.235,0,0
166455,373.772,-353.608,0,0
166716,382.332,-359.923,0,0
166976,390.241,-366.557,0,0
167236,397.305,-373.983,0,0
167497,402.926,-381.54,0,0
167757,407.946,-388.429,0,0
168017,413.067,-395.143,0,0
168277,417.932,-403.026,0,0
168538,421.337,-411.593,0,0
168798,423.409,-419.578,0,0
169058,425.122,-426.824,0,0
169319,427.271,-433.936,0,0
169579,429.022,-442.628,0,0
169839,428.186,-452.077,0,0
170100,424.975,-459.996,0,0
170360.075,421.124,-465.493,0,0
170620.4,417.665,-469.554,0,0
170880.725,414.693,-472.882,0,0
171141.05,411.747,-475.662,0,0
171401.375,408.832,-477.456,0,0
171661.7,406.757,-478.198,0,0
171922.025,405.775,-479.053,0,0
172182.35,404.777,-480.039,0,0
172442.675,404.116,-480.792,0,0
172703.0,403.453,-481.079,0,0
172963.325,403.914,-480.629,0,0
173223.65,406,-480.678,0,0
173483.975,408.57,-482.623,0,0
173744.3,410.076,-485.426,0,0
174004.625,410.786,-487.843,0,0
174264.95,412.153,-489.537,0,0
174525.275,414.745,-492.574,0,0
174785.6,416.216,-497.159,0,0
175045.925,416.503,-501.616,0,0
175306.25,416.305,-506.073,0,0
175566.575,415.792,-510.366,0,0
175826.9,414.704,-514.913,0,0
176087.225,412.736,-519.223,0,0
176347.55,410.418,-522.996,0,0
176607.875,408.192,-526.217,0,0
176868.2,406.231,-530.03,0,0
177128.525,403.105,-534.447,0,0
177388.85,398.35,-538.071,0,0
177649.175,393.485,-540.245,0,0
177909.5,388.625,-542.198,0,0
178169.825,382.814,-543.491,0,0
178430.15,376.718,-542.933,0,0
178690.475,371.597,-540.861,0,0
178950.8,367.638,-538.276,0,0
179211.125,364.654,-535.502,0,0
179471.45,362.285,-532.905,0,0
179731.775,360.137,-530.091,0,0
179992.1,358.654,-526.934,0,0
180252.425,358.373,-523.794,0,0
180512.75,358.847,-521.42,0,0
180773.075,359.575,-519.871,0,0
181033.4,360.136,-518.885,0,0
181293.725,360.505,-517.927,0,0
181554.05,361.425,-517.098,0,0
181814.375,362.914,-517.207,0,0
182074.7,363.774,-518.838,0,0
182335.025,363.253,-521.156,0,0
182595.35,361.128,-523.042,0,0
182855.675,358.558,-523.743,0,0
183116.0,356.126,-523.804,0,0
183376.325,353.902,-523.761,0,0
183636.65,351.396,-523.748,0,0
183896.975,348.443,-523.328,0,0
184157.3,345.467,-522.47,0,0
184417.625,342.299,-520.889,0,0
184677.95,339.537,-518.945,0,0
184938.275,336.874,-517.024,0,0
185198.6,334.017,-514.736,0,0
185458.925,331.255,-511.935,0,0
185719.25,328.61,-508.754,0,0
185979.575,326.063,-505.027,0,0
186239.9,323.879,-500.642,0,0
186500,322.472,-495.646,0,0
186761,321.967,-490.535,0,0
187021,322.316,-485.67,0,0
187281,323.119,-481.317,0,0
187542,324.028,-477.273,0,0
187802,325.155,-473.273,0,0
188062,326.631,-469.531,0,0
188322,328.423,-466.063,0,0
188583,330.364,-463.201,0,0
188843,331.846,-460.93,0,0
189103,332.612,-458.538,0,0
189364,333.313,-455.419,0,0
189624,334.44,-452.003,0,0
189884,336.104,-448.514,0,0
190145,338.199,-445.328,0,0
190405,340.284,-442.59,0,0
190665,342.325,-440.026,0,0
190926,344.2,-437.556,0,0
191186,346.042,-435.003,0,0
191446,347.817,-432.45,0,0
191707,349.551,-429.733,0,0
191967,351.461,-426.826,0,0
192227,353.596,-423.99,0,0
192488,355.675,-421.308,0,0
192748,357.513,-418.508,0,0
193008,359.308,-415.166,0,0
193269,361.529,-411.239,0,0
193529,364.48,-407.136,0,0
193789,367.995,-403.199,0,0
194050,371.85,-399.336,0,0
194310,376.237,-395.4,0,0
194570,381.448,-391.548,0,0
194831,387.592,-388.33,0,0
195091,394.323,-386.104,0,0
195351,400.915,-384.978,0,0
195612,407.302,-384.58,0,0
195872,413.359,-384.612,0,0
196132,419.33,-384.981,0,0
196393,425.26,-385.882,0,0
196653,431.189,-387.49,0,0
196913,436.507,-390.286,0,0
197174,440.362,-393.687,0,0
197434,442.674,-396.489,0,0
197694,444.508,-398.002,0,0
197955,446.908,-398.962,0,0
198215,450.006,-399.994,0,0
198475,452.775,-401.655,0,0
198735,454.823,-403.523,0,0
198996,455.927,-404.762,0,0
199256,457.046,-404.727,0,0
199516,459.232,-404.132,0,0
199777,462.359,-404.206,0,0
200037,465.153,-405.373,0,0
200297,466.794,-406.747,0,0
200558,467.492,-407.361,0,0
200818,468.176,-406.849,0,0
201078,469.364,-405.502,0,0
201339,471.136,-403.675,0,0
201599,473.675,-401.76,0,0
201859,476.597,-399.962,0,0
202120,479.737,-398.01,0,0
202380.025,483.426,-395.86,0,0
202640.35,488.065,-393.689,0,0
202900.675,493.393,-392.098,0,0
203161.0,499.042,-391.082,0,0
203421.325,504.948,-390.472,0,0
203681.65,511.237,-390.411,0,0
203941.975,517.595,-391.117,0,0
204202.3,523.743,-392.352,0,0
204462.625,529.89,-394.144,0,0
204722.95,535.681,-396.34,0,0
204983.275,541.347,-398.927,0,0
205243.6,547.007,-402.128,0,0
205503.925,551.932,-405.943,0,0
205764.25,555.903,-410.201,0,0
206024.575,558.89,-414.34,0,0
206284.9,560.732,-417.89,0,0
206545.225,562.077,-420.112,0,0
206805.55,563.775,-421.135,0,0
207065.875,566.092,-421.498,0,0
207326.2,569.255,-421.347,0,0
207586.525,573.388,-421.106,0,0
207846.85,578.366,-421.275,0,0
208107.175,583.671,-421.869,0,0
208367.5,589.429,-422.645,0,0
208627.825,595.704,-423.93,0,0
208888.15,602.241,-425.776,0,0
209148.475,608.906,-428.248,0,0
209408.8,615.768,-431.171,0,0
209669.125,622.701,-434.854,0,0
209929.45,629.41,-439.088,0,0
210189.775,635.883,-443.962,0,0
210450.1,642.079,-449.104,0,0
210710.425,648.09,-454.631,0,0
210970.75,653.752,-460.369,0,0
211231.075,659.221,-466.382,0,0
211491.4,664.495,-472.716,0,0
211751.725,669.522,-479.211,0,0
212012.05,674.211,-486.155,0,0
212272.375,678.651,-493.072,0,0
212532.7,682.82,-500.13,0,0
212793.025,686.863,-507.181,0,0
213053.35,690.981,-514.456,0,0
213313.675,695.022,-522.183,0,0
213574.0,698.733,-530.389,0,0
213834.325,701.934,-538.925,0,0
214094.65,704.593,-547.688,0,0
214354.975,706.693,-556.22,0,0
214615.3,708.643,-564.518,0,0
214875.625,710.845,-572.766,0,0
215135.95,712.967,-581.745,0,0
215396.275,714.702,-591.101,0,0
215656.6,715.833,-600.701,0,0
215916.925,716.458,-610.219,0,0
216177.25,716.814,-620.134,0,0
216437.575,716.541,-630.131,0,0
216697.9,715.656,-640.312,0,0
216958.225,713.859,-650.495,0,0
217218.55,711.295,-660.101,0,0
217478.875,708.318,-668.902,0,0
217739.2,705.454,-677.347,0,0
217999.525,702.662,-685.586,0,0
218259.85,699.769,-693.904,0,0
218520,696.616,-702.568,0,0
218780,692.746,-710.81,0,0
219041,688.172,-718.515,0,0
219301,683.783,-725.39,0,0
219561,679.862,-731.722,0,0
219822,676.479,-738.232,0,0
220082,673.304,-745.114,0,0
220342,670.28,-752.721,0,0
220603,666.52,-760.979,0,0
220863,661.862,-769.473,0,0
221123,656.322,-777.635,0,0
221384,650.271,-785.247,0,0
221644,643.927,-792.375,0,0
221904,637.589,-799.538,0,0
222165,630.493,-806.757,0,0
222425,622.629,-813.311,0,0
222685,614.445,-819.286,0,0
222946,605.874,-824.782,0,0
223206,596.747,-829.882,0,0
223466,587.011,-833.918,0,0
223727,576.886,-836.731,0,0
223987,567.301,-837.943,0,0
224247,558.513,-838.117,0,0
224508,550.602,-837.842,0,0
224768,543.396,-837.163,0,0
225028,537.02,-836.087,0,0
225289,531.517,-834.808,0,0
225549,527.011,-833.849,0,0
225809,523.06,-832.97,0,0
226070,519.976,-832.894,0,0
226330,517.199,-833.589,0,0
226590,514.136,-834.922,0,0
226851,510.986,-836.634,0,0
227111,507.787,-838.767,0,0
227371,504.041,-841.286,0,0
227632,500.06,-843.941,0,0
227892,495.475,-846.696,0,0
228152,490.624,-849.194,0,0
228413,485.54,-851.699,0,0
228673,480.066,-853.927,0,0
228933,474.391,-855.996,0,0
229193,468.445,-857.692,0,0
229454,462.61,-859.078,0,0
229714,456.623,-860.069,0,0
229974,450.857,-860.901,0,0
230235,445.067,-861.478,0,0
230495,439.379,-862.089,0,0
230755,433.63,-862.564,0,0
231016,427.751,-862.757,0,0
231276,422.053,-862.463,0,0
231536,416.598,-862.153,0,0
231797,411.287,-861.802,0,0
232057,406.166,-861.386,0,0
232317,401.007,-860.871,0,0
232578,395.911,-860.221,0,0
232838,390.957,-859.518,0,0
233098,386.09,-858.78,0,0
233359,381.296,-858.031,0,0
233619,376.59,-857.159,0,0
233879,372.053,-856.298,0,0
234140,367.611,-855.579,0,0
234400,362.932,-854.869,0,0
234660.3,358.264,-853.945,0,0
234920.625,353.756,-852.945,0,0
235180.95,349.342,-852.064,0,0
235441.275,344.866,-851.371,0,0
235701.6,340.251,-850.637,0,0
235961.925,335.377,-849.794,0,0
236222.25,330.35,-848.747,0,0
236482.575,325.299,-847.47,0,0
236742.9,320.341,-845.919,0,0
237003.225,315.518,-844.179,0,0
237263.55,310.744,-842.367,0,0
237523.875,306.043,-840.558,0,0
237784.2,301.189,-838.666,0,0
238044.525,296.3,-836.485,0,0
238304.85,291.393,-834.139,0,0
238565.175,286.53,-831.429,0,0
238825.5,281.807,-828.387,0,0
239085.825,277.311,-825.111,0,0
239346.15,273.107,-821.621,0,0
239606.475,269.261,-817.997,0,0
239866.8,265.578,-814.233,0,0
240127.125,262.3,-810.563,0,0
240387.45,259.35,-807.056,0,0
240647.775,256.524,-803.547,0,0
240908.1,253.707,-799.958,0,0
241168.425,251.042,-796.557,0,0
241428.75,248.311,-792.803,0,0
241689.075,245.899,-789.311,0,0
241949.4,243.56,-785.578,0,0
242209.725,241.474,-781.69,0,0
242470.05,239.989,-777.9,0,0
242730.375,238.619,-774.401,0,0
242990.7,237.278,-771.194,0,0
243251.025,236.007,-768.008,0,0
243511.35,234.716,-764.829,0,0
243771.675,233.638,-761.649,0,0
244032.0,232.763,-758.651,0,0
244292.325,231.895,-756.037,0,0
244552.65,231.042,-753.449,0,0
244812.975,230.103,-750.888,0,0
245073.3,229.345,-748.274,0,0
245333.625,228.568,-746.055,0,0
245593.95,227.703,-743.929,0,0
245854.275,226.638,-741.771,0,0
246114.6,225.604,-739.524,0,0
246374.925,224.476,-737.3,0,0
246635.25,223.405,-734.963,0,0
246895.575,222.473,-732.638,0,0
247155.9,221.564,-730.321,0,0
247416.225,220.645,-727.952,0,0
247676.55,219.887,-725.603,0,0
247936.875,219.016,-723.228,0,0
248197.2,218.24,-720.772,0,0
248457.525,217.682,-718.288,0,0
248717.85,217.31,-715.789,0,0
248978.175,217.237,-713.559,0,0
249238.5,217.262,-711.398,0,0
249498.825,217.364,-709.659,0,0
249759.15,217.383,-708.244,0,0
250019.475,217.299,-706.707,0,0
250279.8,217.167,-705.465,0,0
250540,216.749,-704.452,0,0
250800,216.144,-703.52,0,0
251061,215.307,-702.541,0,0
251321,214.293,-701.517,0,0
251581,213.099,-700.423,0,0
251842,211.784,-699.216,0,0
252102,210.294,-697.895,0,0
252362,208.737,-696.296,0,0
252623,207.016,-694.586,0,0
252883,205.307,-692.55,0,0
253143,203.621,-690.35,0,0
253404,201.999,-687.86,0,0
253664,200.529,-685.051,0,0
253924,199.341,-682.11,0,0
254185,198.346,-679.025,0,0
254445,197.559,-675.853,0,0
254705,197.025,-672.649,0,0
254966,196.519,-669.374,0,0
255226,196.353,-666.087,0,0
255486,196.315,-662.731,0,0
255747,196.627,-659.277,0,0
256007,197.191,-655.745,0,0
256267,198.227,-652.379,0,0
256528,199.581,-649.212,0,0
256788,201.146,-646.28,0,0
257048,202.892,-643.619,0,0
257309,204.794,-641.248,0,0
257569,206.887,-639.16,0,0
257829,208.822,-637.461,0,0
258090,210.694,-635.881,0,0
258350,212.368,-634.509,0,0
258610,213.948,-633.109,0,0
258871,215.478,-631.581,0,0
259131,217.176,-629.946,0,0
259391,219.186,-628.219,0,0
259651,221.523,-626.596,0,0
259912,224.243,-625.346,0,0
260172,227.188,-624.54,0,0
260432,230.156,-624.107,0,0
260693,233.096,-623.938,0,0
260953,236.183,-624.202,0,0
261213,239.399,-624.901,0,0
261474,242.56,-626.208,0,0
261734,245.368,-628.185,0,0
261994,247.758,-630.619,0,0
262255,249.646,-633.373,0,0
262515,250.991,-636.372,0,0
262775,251.774,-639.474,0,0
263036,252.024,-642.564,0,0
263296,251.807,-645.524,0,0
263556,251.285,-648.34,0,0
263817,250.511,-651.104,0,0
264077,249.305,-653.794,0,0
264337,247.897,-656.406,0,0
264598,245.934,-658.833,0,0
264858,243.72,-660.919,0,0
265118,241.298,-662.771,0,0
265379,238.611,-664.259,0,0
265639,235.77,-665.427,0,0
265899,232.83,-666.297,0,0
266160,229.814,-666.813,0,0
266420,226.774,-667.045,0,0
266680.25,223.772,-667.01,0,0
266940.575,220.734,-666.445,0,0
267200.9,217.746,-665.697,0,0
267461.225,214.971,-664.613,0,0
267721.55,212.403,-663.282,0,0
267981.875,210.037,-661.821,0,0
268242.2,207.872,-660.148,0,0
268502.525,205.924,-658.395,0,0
268762.85,204.177,-656.587,0,0
269023.175,202.608,-654.688,0,0
269283.5,201.293,-652.808,0,0
269543.825,200.097,-650.943,0,0
269804.15,199.067,-649.145,0,0
270064.475,198.005,-647.308,0,0
270324.8,197.107,-645.51,0,0
270585.125,196.258,-643.51,0,0
270845.45,195.582,-641.654,0,0
271105.775,195.151,-639.669,0,0
271366.1,194.854,-637.805,0,0
271626.425,194.652,-636.048,0,0
271886.75,194.582,-634.354,0,0
272147.075,194.593,-632.74,0,0
272407.4,194.737,-631.308,0,0
272667.725,194.863,-629.955,0,0
272928.05,194.864,-628.813,0,0
273188.375,194.722,-627.654,0,0
273448.7,194.524,-626.368,0,0
273709.025,194.288,-624.901,0,0
273969.35,194.22,-623.366,0,0
274229.675,194.224,-621.796,0,0
274490.0,194.447,-620.116,0,0
274750.325,194.807,-618.453,0,0
275010.65,195.242,-616.852,0,0
275270.975,195.962,-615.263,0,0
275531.3,196.836,-613.683,0,0
275791.625,197.954,-612.259,0,0
276051.95,199.33,-610.951,0,0
276312.275,200.838,-609.913,0,0
276572.6,202.471,-609.11,0,0
276832.925,204.187,-608.564,0,0
277093.25,205.955,-608.326,0,0
277353.575,207.755,-608.466,0,0
277613.9,209.404,-608.939,0,0
277874.225,210.849,-609.607,0,0
278134.55,212.16,-610.461,0,0
278394.875,213.338,-611.51,0,0
278655.2,214.355,-612.814,0,0
278915.525,215.061,-614.303,0,0
279175.85,215.469,-615.834,0,0
279436.175,215.604,-617.381,0,0
279696.5,215.551,-618.941,0,0
279956.825,215.261,-620.528,0,0
280217.15,214.793,-622.07,0,0
280477.475,214.07,-623.495,0,0
280737.8,213.121,-624.879,0,0
280998.125,212.015,-626.05,0,0
281258.45,210.855,-627.095,0,0
281518.775,209.656,-628.057,0,0
281779.1,208.372,-628.974,0,0
282039.425,206.93,-629.864,0,0
282299.75,205.351,-630.624,0,0
282560,203.617,-631.239,0,0
282820,201.837,-631.638,0,0
283081,200.04,-631.869,0,0
283341,198.227,-631.92,0,0
283601,196.426,-631.853,0,0
283862,194.672,-631.691,0,0
284122,192.864,-631.359,0,0
284382,191.159,-630.926,0,0
284643,189.501,-630.411,0,0
284903,187.949,-629.893,0,0
285163,186.233,-629.181,0,0
285424,184.615,-628.415,0,0
285684,183.066,-627.473,0,0
285944,181.538,-626.416,0,0
286205,180.126,-625.192,0,0
286465,178.859,-623.906,0,0
286725,177.701,-622.552,0,0
286986,176.686,-621.111,0,0
287246,175.832,-619.575,0,0
287506,175.199,-617.997,0,0
287767,174.808,-616.442,0,0
288027,174.632,-614.997,0,0
288287,174.621,-613.746,0,0
288548,174.717,-612.709,0,0
288808,174.805,-611.838,0,0
289068,174.899,-611.162,0,0
289329,174.864,-610.576,0,0
289589,174.813,-610.125,0,0
289849,174.602,-609.68,0,0
290109,174.398,-609.278,0,0
290370,174.103,-608.802,0,0
290630,173.761,-608.375,0,0
290890,173.479,-607.992,0,0
291151,173.143,-607.628,0,0
291411,172.73,-607.281,0,0
291671,172.2,-606.932,0,0
291932,171.572,-606.525,0,0
292192,170.859,-605.982,0,0
292452,170.197,-605.292,0,0
292713,169.596,-604.509,0,0
292973,169.057,-603.615,0,0
293233,168.644,-602.66,0,0
293494,168.351,-601.653,0,0
293754,168.182,-600.613,0,0
294014,168.213,-599.599,0,0
294275,168.399,-598.626,0,0
294535,168.721,-597.839,0,0
294795,169.17,-597.151,0,0
295056,169.649,-596.621,0,0
295316,170.283,-596.204,0,0
295576,170.846,-596.062,0,0
295837,171.417,-596.111,0,0
296097,171.882,-596.308,0,0
296357,172.245,-596.684,0,0
296618,172.443,-597.13,0,0
296878,172.53,-597.68,0,0
297138,172.502,-598.255,0,0
297399,172.36,-598.9,0,0
297659,172.075,-599.595,0,0
297919,171.655,-600.309,0,0
298180,171.062,-601.016,0,0
298440,170.322,-601.673,0,0
298700.2,169.473,-602.29,0,0
298960.525,168.514,-602.802,0,0
299220.85,167.525,-603.233,0,0
299481.175,166.462,-603.58,0,0
299741.5,165.38,-603.881,0,0
300001.825,164.2,-604.137,0,0
300262.15,163.024,-604.31,0,0
300522.475,161.789,-604.42,0,0
300782.8,160.536,-604.5,0,0
301043.125,159.232,-604.493,0,0
301303.45,157.922,-604.431,0,0
301563.775,156.576,-604.306,0,0
301824.1,155.217,-604.097,0,0
302084.425,153.834,-603.805,0,0
302344.75,152.451,-603.41,0,0
302605.075,151.078,-602.977,0,0
302865.4,149.745,-602.447,0,0
303125.725,148.474,-601.863,0,0
303386.05,147.218,-601.235,0,0
303646.375,146.011,-600.6,0,0
303906.7,144.786,-599.887,0,0
304167.025,143.575,-599.162,0,0
304427.35,142.423,-598.377,0,0
304687.675,141.281,-597.519,0,0
304948.0,140.22,-596.658,0,0
305208.325,139.141,-595.738,0,0
305468.65,138.141,-594.799,0,0
305728.975,137.15,-593.836,0,0
305989.3,136.224,-592.825,0,0
306249.625,135.358,-591.744,0,0
306509.95,134.558,-590.649,0,0
306770.275,133.854,-589.536,0,0
307030.6,133.249,-588.419,0,0
307290.925,132.737,-587.34,0,0
307551.25,132.286,-586.332,0,0
307811.575,131.886,-585.385,0,0
308071.9,131.533,-584.488,0,0
308332.225,131.214,-583.666,0,0
308592.55,130.909,-582.924,0,0
308852.875,130.588,-582.261,0,0
309113.2,130.22,-581.656,0,0
309373.525,129.843,-581.113,0,0
309633.85,129.4,-580.601,0,0
309894.175,128.909,-580.118,0,0
310154.5,128.331,-579.662,0,0
310414.825,127.74,-579.157,0,0
310675.15,127.099,-578.681,0,0
310935.475,126.404,-578.17,0,0
311195.8,125.699,-577.613,0,0
311456.125,124.947,-577.049,0,0
311716.45,124.171,-576.496,0,0
311976.775,123.326,-575.909,0,0
312237.1,122.415,-575.255,0,0
312497.425,121.475,-574.531,0,0
312757.75,120.508,-573.697,0,0
313018.075,119.547,-572.769,0,0
313278.4,118.633,-571.734,0,0
313538.725,117.77,-570.628,0,0
313799.05,116.998,-569.445,0,0
314059.375,116.255,-568.225,0,0
314319.7,115.594,-566.937,0,0
314580,115.018,-565.583,0,0
314840,114.583,-564.285,0,0
315101,114.161,-562.864,0,0
315361,113.892,-561.532,0,0
315621,113.77,-560.18,0,0
315882,113.746,-558.82,0,0
316142,113.888,-557.579,0,0
316402,113.998,-556.438,0,0
316663,114.204,-555.332,0,0
316923,114.394,-554.45,0,0
317183,114.704,-553.547,0,0
317444,114.959,-552.848,0,0
317704,115.179,-552.163,0,0
317964,115.301,-551.571,0,0
318225,115.435,-551.034,0,0
318485,115.525,-550.508,0,0
318745,115.544,-550.049,0,0
319006,115.491,-549.475,0,0
319266,115.482,-549.017,0,0
319526,115.446,-548.534,0,0
319787,115.373,-547.958,0,0
320047,115.267,-547.387,0,0
320307,115.258,-546.814,0,0
320567,115.221,-546.28,0,0
320828,115.165,-545.753,0,0
321088,115.159,-545.179,0,0
321348,115.2,-544.591,0,0
321609,115.318,-544.186,0,0
321869,115.505,-543.674,0,0
322129,115.728,-543.254,0,0
322390,115.917,-542.954,0,0
322650,116.12,-542.757,0,0
322910,116.307,-542.629,0,0
323171,116.452,-542.653,0,0
323431,116.549,-542.669,0,0
323691,116.418,-542.801,0,0
323952,116.334,-542.967,0,0
324212,116.089,-543.135,0,0
324472,115.891,-543.269,0,0
324733,115.499,-543.43,0,0
324993,115.096,-543.647,0,0
325253,114.62,-543.823,0,0
325514,114.053,-543.905,0,0
325774,113.278,-544.014,0,0
326034,112.717,-543.993,0,0
326295,111.996,-543.998,0,0
326555,111.108,-544.031,0,0
326815,110.278,-543.918,0,0
327076,109.471,-543.76,0,0
327336,108.584,-543.651,0,0
327596,107.689,-543.313,0,0
327857,106.788,-543.01,0,0
328117,105.876,-542.712,0,0
328377,105.056,-542.215,0,0
328638,104.147,-541.818,0,0
328898,103.327,-541.31,0,0
329158,102.5,-540.871,0,0
329419,101.672,-540.327,0,0
329679,100.869,-539.827,0,0
329939,100.103,-539.294,0,0
330200,99.2482,-538.72,0,0
330460,98.4786,-538.167,0,0
330720.15,97.701,-537.713,0,0
330980.475,96.8307,-537.185,0,0
331240.8,95.9537,-536.594,0,0
331501.125,95.1491,-536.012,0,0
331761.45,94.2367,-535.372,0,0
332021.775,93.2905,-534.719,0,0
332282.1,92.4574,-533.994,0,0
332542.425,91.6042,-533.227,0,0
332802.75,90.6843,-532.478,0,0
333063.075,89.8238,-531.592,0,0
333323.4,89.0081,-530.744,0,0
333583.725,88.1164,-529.904,0,0
333844.05,87.2111,-529.007,0,0
334104.375,86.3197,-527.958,0,0
334364.7,85.4742,-527.026,0,0
334625.025,84.7422,-525.992,0,0
334885.35,83.9745,-524.834,0,0
335145.675,83.192,-523.651,0,0
335406.0,82.5562,-522.51,0,0
335666.325,81.9529,-521.332,0,0
335926.65,81.348,-520.1,0,0
336186.975,80.8472,-518.812,0,0
336447.3,80.3104,-517.668,0,0
336707.625,79.7947,-516.385,0,0
336967.95,79.4269,-515.195,0,0
337228.275,79.0494,-513.952,0,0
337488.6,78.5862,-512.803,0,0
337748.925,78.2329,-511.545,0,0
338009.25,77.8806,-510.36,0,0
338269.575,77.6148,-509.108,0,0
338529.9,77.3131,-507.847,0,0
338790.225,77.0626,-506.576,0,0
339050.55,76.8191,-505.255,0,0
339310.875,76.6385,-503.955,0,0
339571.2,76.4909,-502.577,0,0
339831.525,76.4155,-501.276,0,0
340091.85,76.4542,-499.831,0,0
340352.175,76.5844,-498.532,0,0
340612.5,76.7596,-497.164,0,0
340872.825,77.0013,-495.856,0,0
341133.15,77.3458,-494.622,0,0
341393.475,77.7703,-493.489,0,0
341653.8,78.2016,-492.363,0,0
341914.125,78.6644,-491.418,0,0
342174.45,79.2166,-490.441,0,0
342434.775,79.7659,-489.579,0,0
342695.1,80.2918,-488.881,0,0
342955.425,80.8125,-488.207,0,0
343215.75,81.3434,-487.618,0,0
343476.075,81.7489,-487.134,0,0
343736.4,82.1723,-486.715,0,0
343996.725,82.516,-486.313,0,0
344257.05,82.7772,-485.95,0,0
344517.375,83.0031,-485.627,0,0
344777.7,83.1713,-485.351,0,0
345038.025,83.2616,-485.003,0,0
345298.35,83.2666,-484.641,0,0
345558.675,83.238,-484.316,0,0
345819.0,83.2523,-483.904,0,0
346079.325,83.1565,-483.491,0,0
346339.65,83.0612,-483.124,0,0
346599.975,82.9562,-482.661,0,0
346860,82.9239,-482.166,0,0
347121,82.7915,-481.719,0,0
347381,82.7183,-481.212,0,0
347641,82.578,-480.722,0,0
347902,82.4441,-480.213,0,0
348162,82.2724,-479.697,0,0
348422,82.1286,-479.078,0,0
348683,81.97,-478.432,0,0
348943,81.8159,-477.785,0,0
349203,81.7968,-477.061,0,0
349464,81.7328,-476.35,0,0
349724,81.7391,-475.622,0,0
349984,81.8358,-474.902,0,0
350245,81.8698,-474.215,0,0
350505,82.0731,-473.501,0,0
350765,82.2113,-472.789,0,0
351025,82.5337,-472.179,0,0
351286,82.8461,-471.613,0,0
351546,83.1887,-471.142,0,0
351806,83.5277,-470.849,0,0
352067,83.8651,-470.501,0,0
352327,84.0833,-470.324,0,0
352587,84.3213,-470.24,0,0
352848,84.4073,-470.107,0,0
353108,84.4809,-470.013,0,0
353368,84.4132,-470.008,0,0
353629,84.2925,-469.92,0,0
353889,84.0808,-469.893,0,0
354149,83.8153,-469.744,0,0
354410,83.4741,-469.521,0,0
354670,83.1856,-469.305,0,0
354930,82.7514,-469.05,0,0
355191,82.3737,-468.684,0,0
355451,81.9464,-468.326,0,0
355711,81.6053,-467.831,0,0
355972,81.2602,-467.324,0,0
356232,80.9008,-466.828,0,0
356492,80.6004,-466.332,0,0
356753,80.2324,-465.79,0,0
357013,79.913,-465.202,0,0
357273,79.6486,-464.663,0,0
357534,79.3355,-464.027,0,0
357794,79.0217,-463.416,0,0
358054,78.7449,-462.799,0,0
358315,78.5154,-462.093,0,0
358575,78.2913,-461.37,0,0
358835,78.0916,-460.635,0,0
359096,78.0068,-459.884,0,0
359356,77.8458,-459.169,0,0
359616,77.828,-458.453,0,0
359877,77.8141,-457.727,0,0
360137,77.7477,-457.061,0,0
360397,77.7991,-456.435,0,0
360658,77.8111,-455.836,0,0
360918,77.8568,-455.208,0,0
361178,77.8669,-454.697,0,0
361438,77.7879,-454.066,0,0
361699,77.846,-453.523,0,0
361959,77.8433,-452.952,0,0
362219,77.7826,-452.368,0,0
362480,77.7777,-451.758,0,0
362740.1,77.7918,-451.174,0,0
363000.425,77.7283,-450.525,0,0
363260.75,77.7882,-449.894,0,0
363521.075,77.9202,-449.222,0,0
363781.4,78.0667,-448.552,0,0
364041.725,78.3031,-447.944,0,0
364302.05,78.4979,-447.37,0,0
364562.375,78.783,-446.884,0,0
364822.7,79.1394,-446.465,0,0
365083.025,79.4912,-446.161,0,0
365343.35,79.7442,-445.881,0,0
365603.675,80.0505,-445.688,0,0
365864.0,80.183,-445.635,0,0
366124.325,80.3552,-445.577,0,0
366384.65,80.394,-445.613,0,0
366644.975,80.3004,-445.618,0,0
366905.3,80.1125,-445.608,0,0
367165.625,79.8377,-445.54,0,0
367425.95,79.4583,-445.489,0,0
367686.275,79.0192,-445.303,0,0
367946.6,78.5399,-445.11,0,0
368206.925,78.024,-444.795,0,0
368467.25,77.4703,-444.378,0,0
368727.575,76.91,-443.834,0,0
368987.9,76.352,-443.196,0,0
369248.225,75.9302,-442.421,0,0
369508.55,75.4935,-441.514,0,0
369768.875,75.2646,-440.59,0,0
370029.2,75.159,-439.623,0,0
370289.525,75.1955,-438.648,0,0
370549.85,75.3282,-437.746,0,0
370810.175,75.6182,-436.936,0,0
371070.5,76.0208,-436.203,0,0
371330.825,76.4367,-435.647,0,0
371591.15,76.8492,-435.234,0,0
371851.475,77.2472,-434.968,0,0
372111.8,77.5377,-434.799,0,0
372372.125,77.7801,-434.709,0,0
372632.45,77.8339,-434.657,0,0
372892.775,77.8711,-434.593,0,0
373153.1,77.7559,-434.573,0,0
373413.425,77.4935,-434.544,0,0
373673.75,77.1837,-434.423,0,0
373934.075,76.7943,-434.221,0,0
374194.4,76.3884,-433.894,0,0
374454.725,76.0027,-433.54,0,0
374715.05,75.5662,-433.054,0,0
374975.375,75.2675,-432.585,0,0
375235.7,74.8834,-432.072,0,0
375496.025,74.5518,-431.438,0,0
375756.35,74.1641,-430.87,0,0
376016.675,73.891,-430.166,0,0
376277.0,73.6589,-429.422,0,0
376537.325,73.4729,-428.635,0,0
376797.65,73.3651,-427.852,0,0
377057.975,73.2473,-427.107,0,0
377318.3,73.314,-426.316,0,0
377578.625,73.3738,-425.627,0,0
377838.95,73.4448,-424.88,0,0
378099.275,73.568,-424.257,0,0
378359.6,73.705,-423.553,0,0
378619.925,73.8793,-422.996,0,0
378880,74.0426,-422.398,0,0
379141,74.2242,-421.905,0,0
379401,74.5097,-421.333,0,0
379661,74.665,-420.94,0,0
379922,74.9055,-420.483,0,0
380182,75.0867,-420.146,0,0
380442,75.256,-419.797,0,0
380703,75.3886,-419.471,0,0
380963,75.4821,-419.149,0,0
381223,75.6025,-418.873,0,0
381483,75.6527,-418.56,0,0
381744,75.7248,-418.313,0,0
382004,75.7193,-418.003,0,0
382264,75.8134,-417.749,0,0
382525,75.8327,-417.495,0,0
382785,75.7854,-417.243,0,0
383045,75.7611,-417.033,0,0
383306,75.6632,-416.753,0,0
383566,75.5552,-416.535,0,0
383826,75.5113,-416.301,0,0
384087,75.3477,-416.009,0,0
384347,75.1446,-415.753,0,0
384607,74.9471,-415.487,0,0
384868,74.709,-415.175,0,0
385128,74.4526,-414.844,0,0
385388,74.2183,-414.45,0,0
385649,73.9779,-414.101,0,0
385909,73.7248,-413.609,0,0
386169,73.491,-413.142,0,0
386430,73.2405,-412.683,0,0
386690,72.994,-412.198,0,0
386950,72.7727,-411.627,0,0
387211,72.5308,-411.1,0,0
387471,72.3024,-410.548,0,0
387731,72.17,-409.964,0,0
387992,71.9515,-409.345,0,0
388252,71.7453,-408.716,0,0
388512,71.5387,-408.082,0,0
388773,71.3444,-407.43,0,0
389033,71.1987,-406.71,0,0
389293,71.0923,-405.971,0,0
389554,70.9588,-405.227,0,0
389814,70.928,-404.418,0,0
390074,70.9262,-403.622,0,0
390335,70.9477,-402.816,0,0
390595,71.0528,-401.988,0,0
390855,71.1726,-401.175,0,0
391116,71.3204,-400.407,0,0
391376,71.5404,-399.64,0,0
391636,71.7843,-398.859,0,0
391896,72.0663,-398.128,0,0
392157,72.406,-397.396,0,0
392417,72.7884,-396.67,0,0
392677,73.23,-395.964,0,0
392938,73.6789,-395.391,0,0
393198,74.1557,-394.831,0,0
393458,74.6658,-394.326,0,0
393719,75.1565,-393.863,0,0
393979,75.6848,-393.425,0,0
394239,76.1977,-393.102,0,0
394500,76.695,-392.822,0,0
394760.05,77.1676,-392.566,0,0
395020.375,77.662,-392.331,0,0
395280.7,78.1285,-392.135,0,0
395541.025,78.5476,-392.025,0,0
395801.35,78.9663,-391.915,0,0
396061.675,79.4204,-391.883,0,0
396322.0,79.7501,-391.814,0,0
396582.325,80.0658,-391.899,0,0
396842.65,80.3635,-391.907,0,0
397102.975,80.6059,-391.981,0,0
397363.3,80.8434,-392.038,0,0
397623.625,81.0244,-392.161,0,0
397883.95,81.1064,-392.299,0,0
398144.275,81.2075,-392.398,0,0
398404.6,81.2063,-392.583,0,0
398664.925,81.1838,-392.658,0,0
398925.25,81.0951,-392.771,0,0
399185.575,80.9955,-392.879,0,0
399445.9,80.8233,-392.888,0,0
399706.225,80.6166,-392.919,0,0
399966.55,80.4078,-392.897,0,0
400006.6,80.3866,-392.896,0,0