File: Accelerated corrosion test data/2025-10-07_06-00-03/sample_8.csv
Frequency (Hz),Impedance (ohms),Phase (Radians),Temperature (C),Humidity (%)
10000.0,310.858,-10953.9,0,0
10260.325,302.176,-10679.7,0,0
10520.65,295.243,-10418.6,0,0
10780.975,287.65,-10170.4,0,0
11041.3,281.872,-9933.34,0,0
11301.625,275.523,-9707.92,0,0
11561.95,269.071,-9491.56,0,0
11822.275,264.1,-9284.17,0,0
12082.6,261.169,-9084.99,0,0
12342.925,258.649,-8898.73,0,0
12603.25,253.793,-8718.12,0,0
12863.575,249.53,-8547.44,0,0
13123.9,241.831,-8382.68,0,0
13384.225,236.046,-8220.71,0,0
13644.55,232.905,-8065.26,0,0
13904.875,225.39,-7917.8,0,0
14165.2,220.546,-7773.5,0,0
14425.525,216.847,-7633.72,0,0
14685.8,212.788,-7500.5,0,0
14946.175,208.549,-7371.1,0,0
15206.5,205.063,-7245.05,0,0
15466.825,201.849,-7124.83,0,0
15727.15,198.422,-7007.93,0,0
15987.5,195.434,-6895.32,0,0
16247.8,192.287,-6785.7,0,0
16508.125,189.406,-6679.57,0,0
16768.45,186.376,-6576.91,0,0
17028.775,183.604,-6477.15,0,0
17289.1,180.702,-6380.15,0,0
17549.425,178.193,-6286.26,0,0
17809.75,176.666,-6194.19,0,0
18070.075,173.803,-6106.58,0,0
18330.4,170.629,-6019.42,0,0
18590.725,169.06,-5934.3,0,0
18851.05,169.56,-5851.61,0,0
19111.375,167.64,-5772.64,0,0
19371.7,170.504,-5695.97,0,0
19632.025,166.431,-5623.75,0,0
19892.35,163.532,-5553.56,0,0
20152.675,160.509,-5481.1,0,0
20413.0,159.629,-5410.46,0,0
20673.3,159.042,-5343.45,0,0
20933.65,157.425,-5279.99,0,0
21193.975,154.544,-5216.6,0,0
21454.3,152.28,-5152.4,0,0
21714.625,150.46,-5090.57,0,0
21974.9,150.081,-5030.86,0,0
22235.275,150.324,-4972.75,0,0
22495.6,148.509,-4916.41,0,0
22755.925,146.79,-4862.27,0,0
23016.25,144.282,-4807.67,0,0
23276.6,140.765,-4755.18,0,0
23536.9,139.898,-4702.59,0,0
23797.225,137.734,-4650.9,0,0
24057.55,135.531,-4600.66,0,0
24317.875,133.843,-4551.1,0,0
24578.2,132.111,-4503.15,0,0
24838.525,131.168,-4455.46,0,0
25098.85,129.867,-4409.16,0,0
25359.175,128.229,-4363.66,0,0
25619.5,127.806,-4319.3,0,0
25879.8,126.1,-4275.13,0,0
26140.1,125.353,-4233.28,0,0
26400.5,124.141,-4190.92,0,0
26660.8,123.012,-4150.29,0,0
26921.1,122.274,-4108.97,0,0
27181.4,122.064,-4069.3,0,0
27441.8,121.195,-4030.82,0,0
27702.1,120.616,-3993.28,0,0
27962.4,118.743,-3956.71,0,0
28222.7,118.856,-3918.07,0,0
28483.1,118.183,-3882.85,0,0
28743.4,117.966,-3846.96,0,0
29003.7,117.575,-3813.09,0,0
29264,117.407,-3778.27,0,0
29524.4,116.444,-3744.95,0,0
29784.7,116.676,-3712.31,0,0
30045,116.799,-3680.84,0,0
30305.3,116.276,-3649.13,0,0
30565.7,115.569,-3618.96,0,0
30826,114.723,-3587.85,0,0
31086.3,114.019,-3558.81,0,0
31346.6,113.606,-3528.54,0,0
31607,112.883,-3499.22,0,0
31867.3,112.816,-3470.91,0,0
32127.6,112.455,-3442.76,0,0
32387.9,111.932,-3414.54,0,0
32648.3,112.186,-3387.11,0,0
32908.6,112.941,-3359.45,0,0
33168.9,112.972,-3333.97,0,0
33429.2,113.931,-3308.2,0,0
33689.6,115.197,-3284.06,0,0
33949.9,114.732,-3260.94,0,0
34210.2,113.835,-3237.58,0,0
34470.5,112.969,-3214.26,0,0
34730.9,112.221,-3190.54,0,0
34991.2,111.957,-3168.14,0,0
35251.5,111.185,-3146.28,0,0
35511.8,109.846,-3124.52,0,0
35772.2,107.845,-3102.92,0,0
36032.5,106.606,-3081.08,0,0
36292.8,104.565,-3059.56,0,0
36553.1,103.066,-3038.07,0,0
36813.5,101.397,-3016.85,0,0
37073.8,100.506,-2995.38,0,0
37334.1,98.9488,-2974.78,0,0
37594.4,97.3223,-2954.4,0,0
37854.8,95.9609,-2933.63,0,0
38115.1,94.6556,-2913.71,0,0
38375.4,93.1923,-2893.65,0,0
38635.7,92.1163,-2873.77,0,0
38896.1,90.9447,-2853.96,0,0
39156.4,89.6983,-2834.42,0,0
39416.7,88.7357,-2815.01,0,0
39677,87.9017,-2796.17,0,0
39937.4,86.7155,-2777.04,0,0
40197.7,85.9225,-2757.94,0,0
40458,85.7436,-2739.38,0,0
40718.3,85.5761,-2721.44,0,0
40978.7,84.904,-2704.06,0,0
41239,84.4144,-2686.63,0,0
41499.3,83.8692,-2668.99,0,0
41759.6,83.4642,-2652.01,0,0
42020,82.8312,-2635.17,0,0
42280.275,82.0585,-2618.5,0,0
42540.6,81.9585,-2601.62,0,0
42800.925,81.8064,-2584.8,0,0
43061.25,81.7388,-2569.02,0,0
43321.575,82.0096,-2553.38,0,0
43581.9,82.0179,-2538.19,0,0
43842.225,81.3905,-2523.48,0,0
44102.55,80.6329,-2508.61,0,0
44362.875,80.0838,-2493.61,0,0
44623.2,79.4404,-2478.8,0,0
44883.525,78.6808,-2463.96,0,0
45143.85,78.2932,-2449.35,0,0
45404.175,77.6923,-2434.83,0,0
45664.5,77.2502,-2420.48,0,0
45924.825,76.6853,-2406.52,0,0
46185.15,76.1125,-2392.37,0,0
46445.475,75.9348,-2378.68,0,0
46705.8,75.4182,-2364.56,0,0
46966.125,75.0688,-2350.98,0,0
47226.45,74.7349,-2337.64,0,0
47486.775,74.4382,-2324.44,0,0
47747.1,74.4103,-2311.29,0,0
48007.425,73.9716,-2298.5,0,0
48267.75,73.612,-2285.76,0,0
48528.075,73.3548,-2273.15,0,0
48788.4,72.9753,-2260.79,0,0
49048.725,72.3246,-2248.66,0,0
49309.05,71.8852,-2235.95,0,0
49569.375,71.4859,-2223.64,0,0
49829.7,71.0965,-2211.55,0,0
50090.025,70.7697,-2199.53,0,0
50350.35,70.4837,-2187.62,0,0
50610.675,70.2719,-2175.79,0,0
50871.0,70.0173,-2163.96,0,0
51131.325,69.6506,-2152.31,0,0
51391.65,69.721,-2140.88,0,0
51651.975,69.6388,-2129.38,0,0
51912.3,69.6133,-2118.51,0,0
52172.625,69.5891,-2107.52,0,0
52432.95,69.298,-2096.8,0,0
52693.275,69.2328,-2085.7,0,0
52953.6,69.3709,-2075.19,0,0
53213.925,69.3737,-2064.86,0,0
53474.25,69.2604,-2054.61,0,0
53734.575,69.3618,-2044.95,0,0
53994.9,68.6692,-2035.26,0,0
54255.225,68.0268,-2025.41,0,0
54515.55,67.1719,-2015.19,0,0
54775.875,66.8899,-2005.09,0,0
55036.2,66.3045,-1995.43,0,0
55296.525,65.7115,-1985.65,0,0
55556.85,64.9864,-1975.74,0,0
55817.175,64.513,-1965.87,0,0
56077.5,63.9445,-1956.2,0,0
56337.825,63.3901,-1946.2,0,0
56598.15,63.0867,-1936.46,0,0
56858.475,62.8876,-1926.77,0,0
57118.8,62.6379,-1917.16,0,0
57379.125,62.4886,-1907.79,0,0
57639.45,62.37,-1898.46,0,0
57899.775,62.225,-1889.24,0,0
58160.1,62.1201,-1880.09,0,0
58420.4,62.0285,-1870.93,0,0
58680.7,61.9613,-1861.98,0,0
58941.1,62.117,-1853.21,0,0
59201.4,62.2336,-1844.71,0,0
59461.7,61.9122,-1836.39,0,0
59722,61.4887,-1827.88,0,0
59982.4,61.1297,-1819.28,0,0
60242.7,60.8275,-1810.77,0,0
60503,60.51,-1802.23,0,0
60763.3,60.3825,-1793.56,0,0
61023.7,60.3995,-1785.12,0,0
61284,60.4337,-1776.79,0,0
61544.3,60.5658,-1768.58,0,0
61804.6,60.5458,-1760.6,0,0
62065,60.2887,-1752.64,0,0
62325.3,60.1988,-1744.51,0,0
62585.6,60.2739,-1736.42,0,0
62845.9,60.3816,-1728.52,0,0
63106.3,60.6468,-1720.6,0,0
63366.6,60.9293,-1712.87,0,0
63626.9,61.2357,-1705.32,0,0
63887.2,61.4989,-1697.93,0,0
64147.6,61.7964,-1690.61,0,0
64407.9,62.1371,-1683.76,0,0
64668.2,62.2183,-1677.01,0,0
64928.5,61.9618,-1670.1,0,0
65188.9,61.9625,-1663.27,0,0
65449.2,61.6482,-1656.54,0,0
65709.5,61.1878,-1649.45,0,0
65969.8,61.1392,-1642.54,0,0
66230.2,60.779,-1635.84,0,0
66490.5,60.2421,-1629.25,0,0
66750.8,59.5357,-1622.23,0,0
67011.1,59.3026,-1615.14,0,0
67271.5,59.0868,-1608.27,0,0
67531.8,58.8056,-1601.29,0,0
67792.1,58.5116,-1594.49,0,0
68052.4,58.2785,-1587.68,0,0
68312.8,58.1604,-1580.76,0,0
68573.1,58.0641,-1574.09,0,0
68833.4,57.8779,-1567.33,0,0
69093.7,57.7349,-1560.69,0,0
69354.1,57.7382,-1554.01,0,0
69614.4,57.6265,-1547.23,0,0
69874.7,57.9131,-1540.9,0,0
70135,57.9701,-1534.47,0,0
70395.4,58.109,-1528.05,0,0
70655.7,58.1415,-1521.88,0,0
70916,58.1488,-1515.61,0,0
71176.3,58.2765,-1509.4,0,0
71436.7,58.345,-1503.38,0,0
71697,58.5202,-1497.44,0,0
71957.3,58.5693,-1491.58,0,0
72217.6,58.4847,-1485.66,0,0
72478,58.5732,-1479.9,0,0
72738.3,58.3381,-1474.36,0,0
72998.6,57.964,-1468.55,0,0
73258.9,57.6773,-1462.61,0,0
73519.3,57.4721,-1456.58,0,0
73779.6,57.4826,-1450.72,0,0
74039.9,57.5155,-1444.88,0,0
74300.225,57.4544,-1439.28,0,0
74560.55,57.2854,-1433.56,0,0
74820.875,57.0993,-1427.93,0,0
75081.2,57.0577,-1422.16,0,0
75341.525,56.9343,-1416.47,0,0
75601.85,56.8926,-1410.82,0,0
75862.175,56.988,-1405.18,0,0
76122.5,57.0752,-1399.63,0,0
76382.825,57.1113,-1394.21,0,0
76643.15,57.1455,-1388.83,0,0
76903.475,57.1508,-1383.44,0,0
77163.8,57.063,-1378.16,0,0
77424.125,57.04,-1372.84,0,0
77684.45,56.9965,-1367.52,0,0
77944.775,56.8968,-1362.24,0,0
78205.1,56.8285,-1357.03,0,0
78465.425,56.6705,-1351.79,0,0
78725.75,56.4748,-1346.44,0,0
78986.075,56.4893,-1341.02,0,0
79246.4,56.5137,-1335.86,0,0
79506.725,56.4655,-1330.57,0,0
79767.05,56.5323,-1325.29,0,0
80027.375,56.612,-1320.13,0,0
80287.7,56.6896,-1314.95,0,0
80548.025,56.7946,-1309.86,0,0
80808.35,56.8291,-1304.83,0,0
81068.675,56.7778,-1299.68,0,0
81329.0,56.8954,-1294.46,0,0
81589.325,57.1086,-1289.35,0,0
81849.65,57.2872,-1284.26,0,0
82109.975,57.6255,-1279.18,0,0
82370.3,58.09,-1274.3,0,0
82630.625,58.3374,-1269.48,0,0
82890.95,58.7136,-1264.68,0,0
83151.275,59.0333,-1259.93,0,0
83411.6,59.2902,-1255.28,0,0
83671.925,59.5834,-1250.52,0,0
83932.25,60.0188,-1245.86,0,0
84192.575,60.504,-1241.33,0,0
84452.9,60.8427,-1236.91,0,0
84713.225,61.2692,-1232.57,0,0
84973.55,61.6437,-1228.49,0,0
85233.875,61.5857,-1224.56,0,0
85494.2,61.2782,-1220.3,0,0
85754.525,61.0168,-1215.76,0,0
86014.85,60.916,-1211.04,0,0
86275.175,60.9846,-1206.43,0,0
86535.5,61.0781,-1201.76,0,0
86795.825,61.2007,-1197.09,0,0
87056.15,61.5644,-1192.48,0,0
87316.475,61.9595,-1188.08,0,0
87576.8,62.183,-1183.69,0,0
87837.125,62.4053,-1179.06,0,0
88097.45,62.8174,-1174.59,0,0
88357.775,63.281,-1170.28,0,0
88618.1,63.6581,-1166,0,0
88878.425,64.0003,-1161.65,0,0
89138.75,64.407,-1157.34,0,0
89399.075,64.8579,-1153.03,0,0
89659.4,65.3899,-1148.78,0,0
89919.725,65.8906,-1144.45,0,0
90180,66.5482,-1140.17,0,0
90440.4,67.1906,-1135.89,0,0
90700.7,68.0859,-1131.72,0,0
90961,69.007,-1127.72,0,0
91221.3,70.0052,-1123.76,0,0
91481.7,71.1517,-1120.09,0,0
91742,72.1375,-1116.73,0,0
92002.3,72.9582,-1113.41,0,0
92262.6,73.7361,-1110.27,0,0
92523,74.5097,-1107.3,0,0
92783.3,74.8321,-1104.42,0,0
93043.6,75.0446,-1101.49,0,0
93303.9,74.8464,-1098.76,0,0
93564.3,74.2804,-1095.31,0,0
93824.6,74.1368,-1091.46,0,0
94084.9,74.3473,-1087.77,0,0
94345.2,74.617,-1084.25,0,0
94605.6,74.616,-1080.79,0,0
94865.9,74.9205,-1076.9,0,0
95126.2,75.2207,-1073.53,0,0
95386.5,75.4945,-1069.83,0,0
95646.9,76.105,-1066.45,0,0
95907.2,76.2314,-1063.25,0,0
96167.5,76.3759,-1059.74,0,0
96427.8,76.7176,-1056.13,0,0
96688.2,77.33,-1052.65,0,0
96948.5,77.8596,-1049.41,0,0
97208.8,78.2645,-1046.2,0,0
97469.1,78.7409,-1042.91,0,0
97729.5,79.3457,-1039.73,0,0
97989.8,79.9688,-1036.81,0,0
98250.1,80.4255,-1034.01,0,0
98510.4,80.7376,-1031.22,0,0
98770.8,81.0382,-1028.49,0,0
99031.1,81.1941,-1025.91,0,0
99291.4,81.0303,-1023.27,0,0
99551.7,80.809,-1020.32,0,0
99812.1,80.7392,-1017.18,0,0
100072,80.8729,-1014.08,0,0
100333,81.0342,-1011.13,0,0
100593,81.2154,-1008.3,0,0
100853,81.2672,-1005.56,0,0
101114,81.2015,-1002.82,0,0
101374,81.0289,-999.948,0,0
101634,81.0205,-997.14,0,0
101895,80.8634,-994.459,0,0
102155,80.4172,-991.655,0,0
102415,80.0704,-988.742,0,0
102676,79.7105,-985.634,0,0
102936,79.3628,-982.486,0,0
103196,79.0999,-979.322,0,0
103457,78.8738,-975.971,0,0
103717,78.8633,-972.657,0,0
103977,78.9416,-969.453,0,0
104238,79.0651,-966.404,0,0
104498,79.0165,-963.492,0,0
104758,78.8669,-960.469,0,0
105019,78.6723,-957.336,0,0
105279,78.5227,-954.01,0,0
105539,78.6571,-950.598,0,0
105800,78.9728,-947.336,0,0
106060,79.2765,-944.263,0,0
106320.175,79.505,-941.228,0,0
106580.5,79.8929,-938.138,0,0
106840.825,80.3336,-935.243,0,0
107101.15,80.751,-932.559,0,0
107361.475,80.9894,-930.043,0,0
107621.8,81.0867,-927.399,0,0
107882.125,81.0434,-924.824,0,0
108142.45,80.9177,-922.106,0,0
108402.775,80.7523,-919.216,0,0
108663.1,80.7378,-916.238,0,0
108923.425,80.8515,-913.339,0,0
109183.75,80.9831,-910.473,0,0
109444.075,81.1297,-907.623,0,0
109704.4,81.3393,-904.795,0,0
109964.725,81.5681,-902.118,0,0
110225.05,81.763,-899.487,0,0
110485.375,81.8427,-896.838,0,0
110745.7,81.9764,-894.28,0,0
111006.025,81.9474,-891.636,0,0
111266.35,81.9124,-888.968,0,0
111526.675,81.7828,-886.251,0,0
111787.0,81.8519,-883.585,0,0
112047.325,81.8642,-880.888,0,0
112307.65,81.9405,-878.278,0,0
112567.975,81.9838,-875.624,0,0
112828.3,82.0048,-872.966,0,0
113088.625,82.0551,-870.322,0,0
113348.95,82.0545,-867.739,0,0
113609.275,82.048,-865.154,0,0
113869.6,82.0268,-862.57,0,0
114129.925,81.9186,-860.004,0,0
114390.25,81.7512,-857.368,0,0
114650.575,81.664,-854.669,0,0
114910.9,81.5946,-851.953,0,0
115171.225,81.6376,-849.243,0,0
115431.55,81.6756,-846.721,0,0
115691.875,81.558,-844.097,0,0
115952.2,81.4214,-841.466,0,0
116212.525,81.3574,-838.764,0,0
116472.85,81.3405,-836.105,0,0
116733.175,81.1409,-833.531,0,0
116993.5,80.9929,-830.807,0,0
117253.825,80.876,-827.924,0,0
117514.15,80.875,-825.058,0,0
117774.475,81.0049,-822.265,0,0
118034.8,81.1188,-819.542,0,0
118295.125,81.2229,-816.86,0,0
118555.45,81.3462,-814.135,0,0
118815.775,81.5711,-811.534,0,0
119076.1,81.7464,-809.073,0,0
119336.425,81.7263,-806.66,0,0
119596.75,81.611,-804.117,0,0
119857.075,81.5385,-801.542,0,0
120117.4,81.4628,-798.866,0,0
120377.725,81.416,-796.202,0,0
120638.05,81.3898,-793.551,0,0
120898.375,81.3242,-790.87,0,0
121158.7,81.3684,-788.142,0,0
121419.025,81.4192,-785.469,0,0
121679.35,81.4612,-782.829,0,0
121939.675,81.484,-780.136,0,0
122200.0,81.6116,-777.441,0,0
122460,81.7543,-774.751,0,0
122721,81.9253,-772.259,0,0
122981,81.919,-769.805,0,0
123241,81.787,-767.248,0,0
123502,81.6353,-764.533,0,0
123762,81.6444,-761.712,0,0
124022,81.6909,-758.914,0,0
124283,81.7951,-756.127,0,0
124543,81.9422,-753.304,0,0
124803,82.1744,-750.559,0,0
125064,82.4815,-747.868,0,0
125324,82.7686,-745.242,0,0
125584,82.9916,-742.679,0,0
125845,83.1833,-740.092,0,0
126105,83.3872,-737.548,0,0
126365,83.5232,-734.984,0,0
126626,83.7142,-732.364,0,0
126886,83.9189,-729.759,0,0
127146,84.1928,-727.185,0,0
127406,84.4303,-724.696,0,0
127667,84.5839,-722.229,0,0
127927,84.6841,-719.773,0,0
128187,84.8122,-717.241,0,0
128448,84.9457,-714.693,0,0
128708,85.0262,-712.233,0,0
128968,85.031,-709.713,0,0
129229,85.0507,-707.06,0,0
129489,85.2639,-704.426,0,0
129749,85.3299,-701.85,0,0
130010,85.3491,-699.168,0,0
130270,85.4218,-696.343,0,0
130530,85.6311,-693.431,0,0
130791,86.1107,-690.612,0,0
131051,86.5663,-688.034,0,0
131311,86.9342,-685.535,0,0
131572,87.3667,-683.089,0,0
131832,87.57,-680.884,0,0
132092,87.4827,-678.515,0,0
132353,87.4007,-675.901,0,0
132613,87.3659,-673.123,0,0
132873,87.4415,-670.266,0,0
133134,87.7223,-667.441,0,0
133394,88.0085,-664.704,0,0
133654,88.2406,-662.006,0,0
133915,88.494,-659.29,0,0
134175,88.6553,-656.506,0,0
134435,88.9472,-653.653,0,0
134696,89.2445,-650.767,0,0
134956,89.7211,-647.847,0,0
135216,90.2444,-644.917,0,0
135477,90.9173,-642.057,0,0
135737,91.6872,-639.374,0,0
135997,92.5464,-636.843,0,0
136258,93.3236,-634.587,0,0
136518,93.8415,-632.51,0,0
136778,94.2099,-630.363,0,0
137039,94.4323,-628.256,0,0
137299,94.3925,-626.108,0,0
137559,94.2568,-623.801,0,0
137819,93.9905,-621.287,0,0
138080,93.6819,-618.573,0,0
138340.125,93.3946,-615.632,0,0
138600.45,93.2803,-612.434,0,0
138860.775,93.4886,-609.229,0,0
139121.1,93.7832,-606.121,0,0
139381.425,94.1675,-603.037,0,0
139641.75,94.5497,-600.113,0,0
139902.075,94.7622,-597.107,0,0
140162.4,95.082,-594,0,0
140422.725,95.4779,-590.944,0,0
140683.05,95.7696,-587.886,0,0
140943.375,96.0657,-584.672,0,0
141203.7,96.4819,-581.366,0,0
141464.025,97.0265,-578.083,0,0
141724.35,97.6039,-574.865,0,0
141984.675,98.1564,-571.66,0,0
142245.0,98.6345,-568.409,0,0
142505.325,99.1523,-565.005,0,0
142765.65,99.7999,-561.515,0,0
143025.975,100.589,-558.035,0,0
143286.3,101.371,-554.691,0,0
143546.625,102.151,-551.238,0,0
143806.95,102.956,-547.751,0,0
144067.275,103.77,-544.13,0,0
144327.6,104.711,-540.445,0,0
144587.925,105.711,-536.679,0,0
144848.25,106.857,-532.723,0,0
145108.575,108.341,-528.696,0,0
145368.9,110.129,-524.811,0,0
145629.225,112.075,-521.073,0,0
145889.55,114.186,-517.618,0,0
146149.875,116.184,-514.363,0,0
146410.2,118.136,-511.147,0,0
146670.525,120.084,-507.896,0,0
146930.85,122.182,-504.723,0,0
147191.175,124.235,-501.702,0,0
147451.5,126.374,-498.732,0,0
147711.825,128.456,-496.153,0,0
147972.15,129.904,-493.625,0,0
148232.475,131.112,-490.503,0,0
148492.8,132.513,-486.896,0,0
148753.125,134.394,-483.048,0,0
149013.45,136.549,-479.289,0,0
149273.775,138.85,-475.431,0,0
149534.1,141.559,-471.563,0,0
149794.425,144.497,-467.753,0,0
150054.75,147.789,-464.079,0,0
150315.075,151.223,-460.442,0,0
150575.4,155.109,-456.924,0,0
150835.725,159.43,-453.575,0,0
151096.05,164.245,-450.684,0,0
151356.375,169.484,-448.59,0,0
151616.7,174.611,-447.386,0,0
151877.025,179.423,-446.9,0,0
152137.35,183.794,-446.892,0,0
152397.675,187.597,-447.296,0,0
152658.0,190.551,-448.017,0,0
152918.325,192.851,-448.348,0,0
153178.65,195.033,-448.341,0,0
153438.975,197.092,-448.356,0,0
153699.3,198.688,-448.225,0,0
153959.625,200.265,-447.78,0,0
154219.95,201.672,-447.144,0,0
154480,203.161,-446.301,0,0
154741,204.398,-445.096,0,0
155001,206.097,-443.268,0,0
155261,208.67,-441.353,0,0
155522,211.719,-440.035,0,0
155782,214.982,-439.228,0,0
156042,218.431,-438.982,0,0
156303,222.14,-440.013,0,0
156563,224.566,-442.733,0,0
156823,224.816,-445.364,0,0
157084,223.511,-446.845,0,0
157344,221.483,-446.698,0,0
157604,219.793,-445.014,0,0
157864,218.78,-442.521,0,0
158125,218.328,-439.205,0,0
158385,219.11,-435.413,0,0
158645,220.96,-431.961,0,0
158906,223.628,-429.02,0,0
159166,226.79,-426.77,0,0
159426,230.153,-425.453,0,0
159687,233.343,-425.199,0,0
159947,235.571,-425.749,0,0
160207,236.622,-426.171,0,0
160468,236.991,-426.134,0,0
160728,236.768,-425.41,0,0
160988,236.325,-423.625,0,0
161249,236.6,-420.845,0,0
161509,237.484,-417.752,0,0
161769,239.323,-414.634,0,0
162030,241.737,-411.855,0,0
162290,244.43,-409.219,0,0
162550,247.916,-406.883,0,0
162811,251.563,-405.403,0,0
163071,255.037,-404.607,0,0
163331,258.344,-403.984,0,0
163592,261.731,-403.774,0,0
163852,264.931,-404.23,0,0
164112,267.545,-405.116,0,0
164373,269.422,-406.156,0,0
164633,271.025,-406.616,0,0
164893,272.796,-407.194,0,0
165154,274.456,-407.892,0,0
165414,276.355,-409.063,0,0
165674,277.44,-411.259,0,0
165935,277.072,-413.585,0,0
166195,275.691,-414.857,0,0
166455,274.35,-415.249,0,0
166716,272.843,-415.529,0,0
166976,270.794,-415.331,0,0
167236,268.584,-414.207,0,0
167497,266.767,-412.514,0,0
167757,265.282,-410.57,0,0
168017,263.691,-408.387,0,0
168277,262.169,-405.753,0,0
168538,260.933,-402.815,0,0
168798,259.854,-399.535,0,0
169058,258.988,-396.096,0,0
169319,258.416,-392.207,0,0
169579,258.298,-388.127,0,0
169839,258.722,-384.198,0,0
170100,259.041,-380.708,0,0
170360.075,258.982,-376.789,0,0
170620.4,259.239,-372.291,0,0
170880.725,260.046,-367.817,0,0
171141.05,261.036,-363.398,0,0
171401.375,262.102,-358.834,0,0
171661.7,263.109,-353.997,0,0
171922.025,264.584,-348.631,0,0
172182.35,266.901,-343.04,0,0
172442.675,270.058,-337.586,0,0
172703.0,273.779,-332.82,0,0
172963.325,277.529,-328.538,0,0
173223.65,281.215,-324.635,0,0
173483.975,284.985,-320.894,0,0
173744.3,288.843,-317.383,0,0
174004.625,292.76,-313.856,0,0
174264.95,296.726,-310.736,0,0
174525.275,300.618,-307.8,0,0
174785.6,304.367,-305.191,0,0
175045.925,307.529,-302.514,0,0
175306.25,310.568,-299.631,0,0
175566.575,313.544,-296.506,0,0
175826.9,316.375,-292.922,0,0
176087.225,319.468,-288.647,0,0
176347.55,323.337,-284.135,0,0
176607.875,327.871,-279.75,0,0
176868.2,332.782,-275.576,0,0
177128.525,338.114,-271.784,0,0
177388.85,343.516,-268.539,0,0
177649.175,348.496,-265.52,0,0
177909.5,353.221,-261.945,0,0
178169.825,358.623,-257.761,0,0
178430.15,364.818,-253.719,0,0
178690.475,371.625,-249.893,0,0
178950.8,379.223,-246.817,0,0
179211.125,386.856,-244.608,0,0
179471.45,394.387,-243.116,0,0
179731.775,401.511,-241.893,0,0
179992.1,408.564,-240.71,0,0
180252.425,415.925,-239.646,0,0
180512.75,423.615,-239.765,0,0
180773.075,430.34,-239.95,0,0
181033.4,436.778,-240.024,0,0
181293.725,443.075,-240.339,0,0
181554.05,449.034,-240.596,0,0
181814.375,454.846,-240.449,0,0
182074.7,461.028,-240.319,0,0
182335.025,467.133,-240.369,0,0
182595.35,473.458,-240.259,0,0
182855.675,480.427,-240.46,0,0
183116.0,487.307,-241.654,0,0
183376.325,493.5,-243.678,0,0
183636.65,498.445,-245.145,0,0
183896.975,503.31,-246.029,0,0
184157.3,507.987,-246.639,0,0
184417.625,512.244,-246.622,0,0
184677.95,517.311,-245.545,0,0
184938.275,523.219,-244.535,0,0
185198.6,529.517,-243.813,0,0
185458.925,536.082,-242.925,0,0
185719.25,543.139,-242.265,0,0
185979.575,550.455,-241.774,0,0
186239.9,558.3,-241.346,0,0
186500,567.032,-241.351,0,0
186761,575.765,-242.52,0,0
187021,584.131,-244.183,0,0
187281,592.181,-246.076,0,0
187542,599.867,-247.751,0,0
187802,607.895,-248.882,0,0
188062,616.779,-250.133,0,0
188322,626.387,-251.992,0,0
188583,636.326,-254.832,0,0
188843,646.346,-258.568,0,0
189103,656.093,-263.384,0,0
189364,664.961,-269.302,0,0
189624,672.458,-275.302,0,0
189884,679.332,-280.769,0,0
190145,686,-285.885,0,0
190405,692.278,-290.97,0,0
190665,697.973,-295.172,0,0
190926,704.312,-298.025,0,0
191186,712.383,-300.623,0,0
191446,721.336,-304.221,0,0
191707,730.873,-308.594,0,0
191967,740.684,-314.181,0,0
192227,749.849,-320.97,0,0
192488,757.933,-327.9,0,0
192748,765.145,-334.333,0,0
193008,772.389,-338.978,0,0
193269,781.839,-342.68,0,0
193529,793.299,-347.529,0,0
193789,805.676,-354.039,0,0
194050,819.069,-361.833,0,0
194310,833.046,-372.019,0,0
194570,846.702,-384.569,0,0
194831,859.23,-399.391,0,0
195091,869.825,-415.632,0,0
195351,878.489,-432.148,0,0
195612,886.248,-448.124,0,0
195872,894.375,-464.32,0,0
196132,902.734,-482.087,0,0
196393,910.269,-502.145,0,0
196653,915.414,-524.096,0,0
196913,917.926,-546.301,0,0
197174,918.333,-568.236,0,0
197434,917.225,-589.641,0,0
197694,915.05,-610.988,0,0
197955,911.049,-632.498,0,0
198215,904.916,-653.316,0,0
198475,897.238,-672.928,0,0
198735,888.675,-691.23,0,0
198996,879.461,-708.671,0,0
199256,869.572,-725.182,0,0
199516,859.211,-741.196,0,0
199777,848.022,-756.692,0,0
200037,835.754,-771.733,0,0
200297,822.37,-785.742,0,0
200558,807.914,-798.448,0,0
200818,792.368,-809.456,0,0
201078,776.875,-818.29,0,0
201339,762.117,-825.516,0,0
201599,748.195,-832.218,0,0
201859,734.535,-838.686,0,0
202120,720.676,-844.813,0,0
202380.025,706.178,-850.575,0,0
202640.35,690.862,-855.181,0,0
202900.675,675.26,-857.998,0,0
203161.0,660.178,-858.846,0,0
203421.325,646.333,-858.574,0,0
203681.65,633.334,-857.737,0,0
203941.975,621.027,-856.073,0,0
204202.3,609.812,-854.123,0,0
204462.625,599.055,-851.692,0,0
204722.95,589.26,-848.97,0,0
204983.275,580.232,-846.231,0,0
205243.6,571.681,-843.807,0,0
205503.925,563.356,-841.452,0,0
205764.25,554.849,-839.02,0,0
206024.575,546.24,-836.18,0,0
206284.9,537.831,-832.489,0,0
206545.225,529.91,-827.912,0,0
206805.55,522.912,-822.426,0,0
207065.875,517.369,-816.849,0,0
207326.2,512.924,-811.394,0,0
207586.525,509.356,-806.373,0,0
207846.85,506.471,-801.914,0,0
208107.175,503.987,-798.186,0,0
208367.5,501.542,-794.848,0,0
208627.825,499.079,-791.91,0,0
208888.15,496.541,-788.959,0,0
209148.475,494.143,-785.82,0,0
209408.8,492.053,-782.555,0,0
209669.125,490.565,-779.238,0,0
209929.45,489.66,-776.068,0,0
210189.775,489.414,-773.412,0,0
210450.1,489.516,-771.308,0,0
210710.425,489.761,-769.832,0,0
210970.75,489.873,-769.026,0,0
211231.075,489.73,-768.553,0,0
211491.4,489.451,-768.084,0,0
211751.725,489.397,-767.68,0,0
212012.05,489.521,-767.71,0,0
212272.375,489.562,-768.272,0,0
212532.7,489.115,-769.23,0,0
212793.025,488.676,-770.173,0,0
213053.35,488.038,-771.447,0,0
213313.675,487.127,-772.912,0,0
213574.0,485.977,-774.529,0,0
213834.325,484.467,-776.17,0,0
214094.65,482.856,-777.983,0,0
214354.975,480.828,-779.736,0,0
214615.3,478.45,-781.519,0,0
214875.625,475.87,-783.103,0,0
215135.95,472.896,-784.436,0,0
215396.275,469.773,-785.508,0,0
215656.6,466.471,-786.363,0,0
215916.925,463.052,-786.788,0,0
216177.25,459.512,-786.819,0,0
216437.575,456.217,-786.259,0,0
216697.9,453.215,-785.417,0,0
216958.225,450.482,-784.315,0,0
217218.55,448.188,-782.9,0,0
217478.875,446.418,-781.391,0,0
217739.2,445.18,-779.999,0,0
217999.525,444.392,-778.796,0,0
218259.85,443.973,-777.892,0,0
218520,443.822,-777.423,0,0
218780,443.748,-777.403,0,0
219041,443.753,-777.731,0,0
219301,443.571,-778.358,0,0
219561,443.282,-779.151,0,0
219822,442.937,-780.05,0,0
220082,442.602,-781.325,0,0
220342,441.994,-782.714,0,0
220603,441.187,-783.947,0,0
220863,440.395,-785.398,0,0
221123,439.67,-786.802,0,0
221384,438.692,-788.317,0,0
221644,437.982,-789.873,0,0
221904,437.424,-791.564,0,0
222165,436.873,-793.851,0,0
222425,435.972,-796.501,0,0
222685,434.643,-799.301,0,0
222946,432.971,-802.411,0,0
223206,430.652,-805.246,0,0
223466,428.032,-807.856,0,0
223727,425.446,-810.151,0,0
223987,422.938,-812.129,0,0
224247,420.65,-814.341,0,0
224508,418.364,-816.586,0,0
224768,415.917,-819.065,0,0
225028,413.347,-821.641,0,0
225289,410.754,-824.396,0,0
225549,407.762,-827.351,0,0
225809,404.18,-830.609,0,0
226070,400.085,-833.535,0,0
226330,395.597,-836.149,0,0
226590,390.872,-838.541,0,0
226851,386.013,-840.548,0,0
227111,380.982,-842.27,0,0
227371,375.916,-843.768,0,0
227632,370.542,-845.106,0,0
227892,364.898,-845.875,0,0
228152,359.264,-845.95,0,0
228413,354.048,-845.432,0,0
228673,349.445,-844.636,0,0
228933,345.255,-843.956,0,0
229193,341.433,-843.326,0,0
229454,337.764,-843.133,0,0
229714,334.16,-843.079,0,0
229974,330.318,-843.428,0,0
230235,326.352,-843.868,0,0
230495,321.866,-844.311,0,0
230755,317.13,-844.623,0,0
231016,311.931,-844.481,0,0
231276,306.895,-843.864,0,0
231536,301.955,-843.048,0,0
231797,297.053,-842.165,0,0
232057,292.074,-841.071,0,0
232317,287.222,-839.667,0,0
232578,282.32,-838.181,0,0
232838,277.495,-836.302,0,0
233098,272.931,-834.28,0,0
233359,268.454,-832.124,0,0
233619,264.178,-829.914,0,0
233879,259.797,-827.754,0,0
234140,255.466,-825.171,0,0
234400,251.325,-822.477,0,0
234660.3,247.25,-819.482,0,0
234920.625,243.446,-816.436,0,0
235180.95,239.729,-813.162,0,0
235441.275,236.47,-809.814,0,0
235701.6,233.419,-806.409,0,0
235961.925,230.541,-803.004,0,0
236222.25,227.877,-799.554,0,0
236482.575,225.426,-796.08,0,0
236742.9,223.249,-792.656,0,0
237003.225,221.235,-789.237,0,0
237263.55,219.45,-785.948,0,0
237523.875,217.801,-782.813,0,0
237784.2,216.325,-779.745,0,0
238044.525,214.916,-776.811,0,0
238304.85,213.537,-773.871,0,0
238565.175,212.264,-771.004,0,0
238825.5,211.107,-768.021,0,0
239085.825,210.305,-765.016,0,0
239346.15,209.928,-762.336,0,0
239606.475,209.687,-760.2,0,0
239866.8,209.445,-758.432,0,0
240127.125,209.03,-756.895,0,0
240387.45,208.211,-755.807,0,0
240647.775,207.329,-754.682,0,0
240908.1,206.113,-753.605,0,0
241168.425,204.73,-752.657,0,0
241428.75,203.082,-751.645,0,0
241689.075,201.201,-750.484,0,0
241949.4,199.265,-749.248,0,0
242209.725,197.127,-747.951,0,0
242470.05,194.823,-746.304,0,0
242730.375,192.501,-744.516,0,0
242990.7,190.299,-742.323,0,0
243251.025,188.162,-740.096,0,0
243511.35,186.21,-737.758,0,0
243771.675,184.277,-735.316,0,0
244032.0,182.373,-732.769,0,0
244292.325,180.62,-730.113,0,0
244552.65,179.078,-727.352,0,0
244812.975,177.711,-724.53,0,0
245073.3,176.493,-721.843,0,0
245333.625,175.281,-719.216,0,0
245593.95,174.033,-716.459,0,0
245854.275,173.034,-713.583,0,0
246114.6,172.116,-710.715,0,0
246374.925,171.475,-707.908,0,0
246635.25,170.953,-705.154,0,0
246895.575,170.616,-702.545,0,0
247155.9,170.349,-700.195,0,0
247416.225,169.969,-698.046,0,0
247676.55,169.553,-696.053,0,0
247936.875,168.885,-694.06,0,0
248197.2,168.171,-691.996,0,0
248457.525,167.318,-689.843,0,0
248717.85,166.434,-687.552,0,0
248978.175,165.505,-685.058,0,0
249238.5,164.761,-682.449,0,0
249498.825,164.111,-679.658,0,0
249759.15,163.621,-676.764,0,0
250019.475,163.331,-673.908,0,0
250279.8,163.259,-670.991,0,0
250540,163.25,-668.168,0,0
250800,163.399,-665.323,0,0
251061,163.637,-662.499,0,0
251321,164.072,-659.63,0,0
251581,164.715,-656.836,0,0
251842,165.553,-653.991,0,0
252102,166.748,-651.415,0,0
252362,168.109,-649.041,0,0
252623,169.642,-646.955,0,0
252883,171.234,-645.245,0,0
253143,172.732,-643.904,0,0
253404,174.028,-642.831,0,0
253664,175.105,-641.919,0,0
253924,175.942,-641.165,0,0
254185,176.534,-640.407,0,0
254445,176.938,-639.472,0,0
254705,177.245,-638.431,0,0
254966,177.507,-637.326,0,0
255226,177.769,-636.092,0,0
255486,178.101,-634.729,0,0
255747,178.409,-633.404,0,0
256007,178.774,-631.954,0,0
256267,179.291,-630.489,0,0
256528,179.878,-629.042,0,0
256788,180.513,-627.649,0,0
257048,181.156,-626.322,0,0
257309,181.839,-624.925,0,0
257569,182.555,-623.502,0,0
257829,183.51,-622.042,0,0
258090,184.498,-620.635,0,0
258350,185.611,-619.33,0,0
258610,186.856,-618.128,0,0
258871,188.121,-617.017,0,0
259131,189.462,-616.013,0,0
259391,190.892,-615.188,0,0
259651,192.329,-614.553,0,0
259912,193.758,-613.951,0,0
260172,195.133,-613.608,0,0
260432,196.361,-613.428,0,0
260693,197.422,-613.277,0,0
260953,198.43,-613.02,0,0
261213,199.439,-612.836,0,0
261474,200.477,-612.71,0,0
261734,201.463,-612.635,0,0
261994,202.416,-612.612,0,0
262255,203.339,-612.627,0,0
262515,204.188,-612.845,0,0
262775,204.881,-613.115,0,0
263036,205.312,-613.277,0,0
263296,205.715,-613.258,0,0
263556,206.181,-613.137,0,0
263817,206.733,-613.064,0,0
264077,207.198,-613.097,0,0
264337,207.513,-613.007,0,0
264598,207.798,-612.772,0,0
264858,208.128,-612.284,0,0
265118,208.616,-611.755,0,0
265379,209.309,-611.041,0,0
265639,210.153,-610.318,0,0
265899,211.128,-609.607,0,0
266160,212.313,-608.75,0,0
266420,213.782,-608.045,0,0
266680.25,215.584,-607.409,0,0
266940.575,217.629,-606.998,0,0
267200.9,219.879,-606.818,0,0
267461.225,222.309,-606.913,0,0
267721.55,224.894,-607.347,0,0
267981.875,227.559,-608.183,0,0
268242.2,230.275,-609.312,0,0
268502.525,232.938,-610.87,0,0
268762.85,235.707,-612.653,0,0
269023.175,238.33,-615.088,0,0
269283.5,240.614,-617.944,0,0
269543.825,242.597,-621.126,0,0
269804.15,244.144,-624.471,0,0
270064.475,245.461,-628.159,0,0
270324.8,246.428,-631.815,0,0
270585.125,247.252,-635.737,0,0
270845.45,247.707,-639.874,0,0
271105.775,247.758,-644.203,0,0
271366.1,247.372,-648.662,0,0
271626.425,246.51,-653.208,0,0
271886.75,245.178,-657.755,0,0
272147.075,243.376,-662.093,0,0
272407.4,241.195,-666.421,0,0
272667.725,238.594,-670.579,0,0
272928.05,235.545,-674.524,0,0
273188.375,232.096,-678.26,0,0
273448.7,228.255,-681.662,0,0
273709.025,224.084,-684.647,0,0
273969.35,219.691,-687.297,0,0
274229.675,215.069,-689.492,0,0
274490.0,210.391,-691.337,0,0
274750.325,205.498,-692.765,0,0
275010.65,200.507,-693.669,0,0
275270.975,195.471,-694.066,0,0
275531.3,190.689,-693.887,0,0
275791.625,186.203,-693.506,0,0
276051.95,181.81,-692.742,0,0
276312.275,177.645,-691.742,0,0
276572.6,173.707,-690.541,0,0
276832.925,170.034,-689.144,0,0
277093.25,166.562,-687.691,0,0
277353.575,163.255,-686.139,0,0
277613.9,160.149,-684.5,0,0
277874.225,157.143,-682.786,0,0
278134.55,154.351,-681.016,0,0
278394.875,151.626,-679.223,0,0
278655.2,149.005,-677.389,0,0
278915.525,146.467,-675.401,0,0
279175.85,144.007,-673.317,0,0
279436.175,141.748,-671.109,0,0
279696.5,139.667,-668.842,0,0
279956.825,137.779,-666.445,0,0
280217.15,136.192,-664.11,0,0
280477.475,134.8,-661.732,0,0
280737.8,133.558,-659.411,0,0
280998.125,132.551,-657.171,0,0
281258.45,131.708,-655.074,0,0
281518.775,130.938,-653.049,0,0
281779.1,130.251,-651.156,0,0
282039.425,129.663,-649.345,0,0
282299.75,129.095,-647.583,0,0
282560,128.701,-645.932,0,0
282820,128.334,-644.413,0,0
283081,127.996,-643.067,0,0
283341,127.589,-641.855,0,0
283601,127.064,-640.65,0,0
283862,126.541,-639.421,0,0
284122,126,-638.143,0,0
284382,125.523,-636.87,0,0
284643,124.985,-635.545,0,0
284903,124.56,-634.241,0,0
285163,124.197,-632.785,0,0
285424,124.022,-631.293,0,0
285684,124.08,-629.905,0,0
285944,124.32,-628.607,0,0
286205,124.737,-627.484,0,0
286465,125.252,-626.615,0,0
286725,125.898,-625.944,0,0
286986,126.586,-625.626,0,0
287246,127.256,-625.619,0,0
287506,127.773,-625.966,0,0
287767,128.047,-626.626,0,0
288027,127.982,-627.487,0,0
288287,127.566,-628.452,0,0
288548,126.779,-629.419,0,0
288808,125.686,-630.279,0,0
289068,124.319,-630.993,0,0
289329,122.779,-631.523,0,0
289589,121.035,-631.878,0,0
289849,119.227,-632.038,0,0
290109,117.39,-631.97,0,0
290370,115.483,-631.644,0,0
290630,113.663,-631.165,0,0
290890,111.996,-630.595,0,0
291151,110.395,-629.952,0,0
291411,108.867,-629.348,0,0
291671,107.317,-628.773,0,0
291932,105.695,-628.196,0,0
292192,104.035,-627.575,0,0
292452,102.309,-626.838,0,0
292713,100.521,-625.977,0,0
292973,98.7706,-624.984,0,0
293233,97.0663,-623.919,0,0
293494,95.4211,-622.742,0,0
293754,93.8248,-621.484,0,0
294014,92.3188,-620.215,0,0
294275,90.8544,-618.878,0,0
294535,89.4109,-617.491,0,0
294795,88.0152,-616.076,0,0
295056,86.6908,-614.606,0,0
295316,85.4115,-613.065,0,0
295576,84.2069,-611.52,0,0
295837,83.0271,-609.971,0,0
296097,81.9342,-608.328,0,0
296357,80.94,-606.691,0,0
296618,80.0022,-605.064,0,0
296878,79.1215,-603.449,0,0
297138,78.2946,-601.851,0,0
297399,77.4988,-600.273,0,0
297659,76.7554,-598.674,0,0
297919,76.0369,-597.138,0,0
298180,75.3422,-595.547,0,0
298440,74.6655,-593.962,0,0
298700.2,74.0312,-592.356,0,0
298960.525,73.4494,-590.774,0,0
299220.85,72.9014,-589.199,0,0
299481.175,72.4053,-587.601,0,0
299741.5,71.9016,-586.001,0,0
300001.825,71.4543,-584.403,0,0
300262.15,71.0618,-582.779,0,0
300522.475,70.703,-581.151,0,0
300782.8,70.4155,-579.519,0,0
301043.125,70.1856,-577.904,0,0
301303.45,70.0394,-576.303,0,0
301563.775,69.9529,-574.721,0,0
301824.1,69.9866,-573.196,0,0
302084.425,70.0309,-571.715,0,0
302344.75,70.1508,-570.335,0,0
302605.075,70.2699,-569.007,0,0
302865.4,70.4027,-567.744,0,0
303125.725,70.5492,-566.553,0,0
303386.05,70.6807,-565.402,0,0
303646.375,70.798,-564.279,0,0
303906.7,70.9205,-563.198,0,0
304167.025,71.0612,-562.132,0,0
304427.35,71.1642,-561.113,0,0
304687.675,71.2856,-560.096,0,0
304948.0,71.4135,-559.067,0,0
305208.325,71.5858,-558.103,0,0
305468.65,71.7211,-557.139,0,0
305728.975,71.9381,-556.235,0,0
305989.3,72.1466,-555.367,0,0
306249.625,72.3645,-554.57,0,0
306509.95,72.5615,-553.822,0,0
306770.275,72.7339,-553.112,0,0
307030.6,72.8855,-552.427,0,0
307290.925,73.037,-551.76,0,0
307551.25,73.1833,-551.14,0,0
307811.575,73.333,-550.544,0,0
308071.9,73.4653,-549.99,0,0
308332.225,73.6127,-549.492,0,0
308592.55,73.7132,-549.097,0,0
308852.875,73.7766,-548.754,0,0
309113.2,73.7461,-548.467,0,0
309373.525,73.5975,-548.189,0,0
309633.85,73.3686,-547.888,0,0
309894.175,73.0639,-547.544,0,0
310154.5,72.723,-547.135,0,0
310414.825,72.3465,-546.681,0,0
310675.15,72.0204,-546.196,0,0
310935.475,71.6507,-545.664,0,0
311195.8,71.3118,-545.127,0,0
311456.125,70.9596,-544.581,0,0
311716.45,70.6022,-544.046,0,0
311976.775,70.2604,-543.502,0,0
312237.1,69.9021,-542.954,0,0
312497.425,69.5384,-542.421,0,0
312757.75,69.1377,-541.864,0,0
313018.075,68.7358,-541.305,0,0
313278.4,68.3364,-540.727,0,0
313538.725,67.9115,-540.139,0,0
313799.05,67.4496,-539.57,0,0
314059.375,66.9491,-538.947,0,0
314319.7,66.4657,-538.301,0,0
314580,65.9886,-537.583,0,0
314840,65.5099,-536.85,0,0
315101,64.9937,-536.037,0,0
315361,64.5617,-535.321,0,0
315621,64.0857,-534.503,0,0
315882,63.655,-533.622,0,0
316142,63.3125,-532.769,0,0
316402,63.0035,-531.944,0,0
316663,62.641,-531.059,0,0
316923,62.4026,-530.193,0,0
317183,62.1554,-529.307,0,0
317444,61.935,-528.558,0,0
317704,61.6678,-527.675,0,0
317964,61.5099,-526.842,0,0
318225,61.2871,-526.023,0,0
318485,61.2229,-525.148,0,0
318745,61.0396,-524.416,0,0
319006,60.9608,-523.667,0,0
319266,60.8899,-522.891,0,0
319526,60.7886,-522.176,0,0
319787,60.7346,-521.44,0,0
320047,60.6745,-520.812,0,0
320307,60.6292,-520.271,0,0
320567,60.5774,-519.644,0,0
320828,60.4778,-519.079,0,0
321088,60.3179,-518.578,0,0
321348,60.1786,-518.091,0,0
321609,59.9636,-517.697,0,0
321869,59.8161,-517.167,0,0
322129,59.5374,-516.705,0,0
322390,59.2486,-516.246,0,0
322650,58.9641,-515.762,0,0
322910,58.6758,-515.208,0,0
323171,58.3651,-514.732,0,0
323431,58.0748,-514.208,0,0
323691,57.7861,-513.727,0,0
323952,57.4207,-513.221,0,0
324212,57.0169,-512.74,0,0
324472,56.6423,-512.254,0,0
324733,56.1077,-511.789,0,0
324993,55.6601,-511.154,0,0
325253,55.1741,-510.575,0,0
325514,54.6972,-509.911,0,0
325774,54.2146,-509.307,0,0
326034,53.6537,-508.632,0,0
326295,53.2306,-507.844,0,0
326555,52.7804,-507.12,0,0
326815,52.3648,-506.37,0,0
327076,51.9297,-505.601,0,0
327336,51.5271,-504.824,0,0
327596,51.1242,-504.04,0,0
327857,50.8132,-503.264,0,0
328117,50.4147,-502.454,0,0
328377,50.073,-501.685,0,0
328638,49.7626,-500.892,0,0
328898,49.3793,-500.097,0,0
329158,49.0895,-499.331,0,0
329419,48.7365,-498.5,0,0
329679,48.4337,-497.711,0,0
329939,48.0815,-496.884,0,0
330200,47.7447,-496.064,0,0
330460,47.4351,-495.27,0,0
330720.15,47.2019,-494.393,0,0
330980.475,46.8141,-493.566,0,0
331240.8,46.6295,-492.725,0,0
331501.125,46.3371,-491.867,0,0
331761.45,46.051,-490.993,0,0
332021.775,45.8318,-490.12,0,0
332282.1,45.5849,-489.252,0,0
332542.425,45.355,-488.352,0,0
332802.75,45.201,-487.523,0,0
333063.075,44.9497,-486.558,0,0
333323.4,44.7918,-485.697,0,0
333583.725,44.6656,-484.755,0,0
333844.05,44.5342,-483.902,0,0
334104.375,44.3819,-483.033,0,0
334364.7,44.3471,-482.135,0,0
334625.025,44.3229,-481.259,0,0
334885.35,44.2127,-480.417,0,0
335145.675,44.2488,-479.567,0,0
335406.0,44.2313,-478.729,0,0
335666.325,44.2323,-477.974,0,0
335926.65,44.3066,-477.229,0,0
336186.975,44.3063,-476.409,0,0
336447.3,44.3238,-475.732,0,0
336707.625,44.3321,-475.019,0,0
336967.95,44.3968,-474.326,0,0
337228.275,44.357,-473.676,0,0
337488.6,44.4096,-472.983,0,0
337748.925,44.3083,-472.318,0,0
338009.25,44.357,-471.764,0,0
338269.575,44.2753,-471.113,0,0
338529.9,44.2503,-470.453,0,0
338790.225,44.195,-469.907,0,0
339050.55,44.1577,-469.301,0,0
339310.875,44.0526,-468.717,0,0
339571.2,43.9227,-468.091,0,0
339831.525,43.8488,-467.509,0,0
340091.85,43.7198,-466.974,0,0
340352.175,43.5506,-466.283,0,0
340612.5,43.4614,-465.695,0,0
340872.825,43.3501,-465.102,0,0
341133.15,43.2154,-464.522,0,0
341393.475,43.0043,-463.857,0,0
341653.8,42.8483,-463.261,0,0
341914.125,42.6733,-462.588,0,0
342174.45,42.4546,-461.945,0,0
342434.775,42.2922,-461.227,0,0
342695.1,42.1316,-460.562,0,0
342955.425,41.9374,-459.855,0,0
343215.75,41.8501,-459.113,0,0
343476.075,41.678,-458.418,0,0
343736.4,41.5584,-457.698,0,0
343996.725,41.4026,-456.949,0,0
344257.05,41.2937,-456.237,0,0
344517.375,41.1664,-455.478,0,0
344777.7,41.0862,-454.725,0,0
345038.025,41.0047,-454.016,0,0
345298.35,40.9004,-453.259,0,0
345558.675,40.8105,-452.507,0,0
345819.0,40.7968,-451.716,0,0
346079.325,40.7042,-450.989,0,0
346339.65,40.644,-450.227,0,0
346599.975,40.5716,-449.465,0,0
346860,40.5758,-448.726,0,0
347121,40.5612,-448.031,0,0
347381,40.5954,-447.22,0,0
347641,40.5673,-446.468,0,0
347902,40.6644,-445.755,0,0
348162,40.6022,-445.033,0,0
348422,40.681,-444.324,0,0
348683,40.7296,-443.614,0,0
348943,40.7872,-442.925,0,0
349203,40.836,-442.233,0,0
349464,40.8511,-441.523,0,0
349724,40.9603,-440.827,0,0
349984,41.0158,-440.138,0,0
350245,41.1098,-439.471,0,0
350505,41.1567,-438.827,0,0
350765,41.2585,-438.142,0,0
351025,41.3335,-437.543,0,0
351286,41.4439,-436.917,0,0
351546,41.5681,-436.318,0,0
351806,41.6577,-435.699,0,0
352067,41.7546,-435.153,0,0
352327,41.8353,-434.553,0,0
352587,41.9176,-433.977,0,0
352848,41.9598,-433.391,0,0
353108,42.0049,-432.779,0,0
353368,42.1227,-432.185,0,0
353629,42.2015,-431.627,0,0
353889,42.3099,-431.012,0,0
354149,42.352,-430.467,0,0
354410,42.4571,-429.959,0,0
354670,42.5622,-429.435,0,0
354930,42.5825,-428.916,0,0
355191,42.7141,-428.392,0,0
355451,42.7683,-427.854,0,0
355711,42.8981,-427.359,0,0
355972,42.9739,-426.861,0,0
356232,43.0189,-426.404,0,0
356492,43.0703,-425.934,0,0
356753,43.0742,-425.531,0,0
357013,43.0788,-425.008,0,0
357273,43.0475,-424.536,0,0
357534,43.071,-424.051,0,0
357794,43.0303,-423.614,0,0
358054,43.0244,-423.091,0,0
358315,42.9466,-422.594,0,0
358575,42.9437,-422.097,0,0
358835,42.8533,-421.569,0,0
359096,42.7781,-421.03,0,0
359356,42.7498,-420.46,0,0
359616,42.7368,-419.956,0,0
359877,42.6657,-419.362,0,0
360137,42.6451,-418.806,0,0
360397,42.6145,-418.209,0,0
360658,42.6065,-417.664,0,0
360918,42.6034,-417.091,0,0
361178,42.5903,-416.457,0,0
361438,42.5808,-415.909,0,0
361699,42.6231,-415.333,0,0
361959,42.5942,-414.716,0,0
362219,42.6425,-414.169,0,0
362480,42.6187,-413.573,0,0
362740.1,42.6202,-412.952,0,0
363000.425,42.6942,-412.367,0,0
363260.75,42.7357,-411.767,0,0
363521.075,42.7594,-411.115,0,0
363781.4,42.8079,-410.535,0,0
364041.725,42.8799,-409.903,0,0
364302.05,42.9392,-409.298,0,0
364562.375,43.0694,-408.725,0,0
364822.7,43.1686,-408.096,0,0
365083.025,43.2844,-407.463,0,0
365343.35,43.4199,-406.866,0,0
365603.675,43.5858,-406.341,0,0
365864.0,43.7378,-405.753,0,0
366124.325,43.9227,-405.247,0,0
366384.65,44.1007,-404.743,0,0
366644.975,44.272,-404.226,0,0
366905.3,44.3657,-403.771,0,0
367165.625,44.5059,-403.308,0,0
367425.95,44.5909,-402.827,0,0
367686.275,44.688,-402.331,0,0
367946.6,44.7815,-401.817,0,0
368206.925,44.8423,-401.315,0,0
368467.25,44.9345,-400.773,0,0
368727.575,45.0415,-400.278,0,0
368987.9,45.1374,-399.706,0,0
369248.225,45.2843,-399.141,0,0
369508.55,45.4224,-398.559,0,0
369768.875,45.6862,-398.027,0,0
370029.2,45.8651,-397.474,0,0
370289.525,46.0929,-396.929,0,0
370549.85,46.4067,-396.465,0,0
370810.175,46.6928,-396.047,0,0
371070.5,46.9777,-395.665,0,0
371330.825,47.2801,-395.291,0,0
371591.15,47.5336,-394.962,0,0
371851.475,47.7207,-394.625,0,0
372111.8,47.9481,-394.363,0,0
372372.125,48.14,-394.076,0,0
372632.45,48.3289,-393.794,0,0
372892.775,48.4706,-393.507,0,0
373153.1,48.6188,-393.233,0,0
373413.425,48.7154,-393.013,0,0
373673.75,48.8165,-392.742,0,0
373934.075,48.8739,-392.489,0,0
374194.4,48.9503,-392.208,0,0
374454.725,49.0005,-391.915,0,0
374715.05,49.0279,-391.625,0,0
374975.375,49.0568,-391.323,0,0
375235.7,49.0978,-390.997,0,0
375496.025,49.0918,-390.678,0,0
375756.35,49.1118,-390.341,0,0
376016.675,49.146,-389.997,0,0
376277.0,49.2198,-389.603,0,0
376537.325,49.323,-389.3,0,0
376797.65,49.3843,-388.974,0,0
377057.975,49.4951,-388.669,0,0
377318.3,49.577,-388.35,0,0
377578.625,49.6606,-388.124,0,0
377838.95,49.7076,-387.884,0,0
378099.275,49.7404,-387.659,0,0
378359.6,49.7164,-387.448,0,0
378619.925,49.6471,-387.252,0,0
378880,49.5551,-387.019,0,0
379141,49.4199,-386.702,0,0
379401,49.2964,-386.371,0,0
379661,49.1757,-385.964,0,0
379922,49.0809,-385.544,0,0
380182,49.0584,-385.045,0,0
380442,49.1097,-384.537,0,0
380703,49.1943,-384.086,0,0
380963,49.3961,-383.696,0,0
381223,49.6129,-383.361,0,0
381483,49.7934,-383.173,0,0
381744,49.9453,-383.002,0,0
382004,50.0509,-382.921,0,0
382264,50.0731,-382.845,0,0
382525,50.0278,-382.818,0,0
382785,49.8806,-382.754,0,0
383045,49.6907,-382.638,0,0
383306,49.4941,-382.509,0,0
383566,49.2102,-382.338,0,0
383826,48.9162,-382.145,0,0
384087,48.6197,-381.843,0,0
384347,48.2844,-381.554,0,0
384607,48.0047,-381.198,0,0
384868,47.6443,-380.868,0,0
385128,47.408,-380.432,0,0
385388,47.0312,-380.002,0,0
385649,46.7786,-379.551,0,0
385909,46.512,-379.064,0,0
386169,46.243,-378.538,0,0
386430,46.052,-378.05,0,0
386690,45.8427,-377.461,0,0
386950,45.6348,-376.936,0,0
387211,45.4124,-376.355,0,0
387471,45.2442,-375.753,0,0
387731,45.0977,-375.22,0,0
387992,44.967,-374.591,0,0
388252,44.839,-373.97,0,0
388512,44.7847,-373.354,0,0
388773,44.679,-372.75,0,0
389033,44.625,-372.156,0,0
389293,44.6341,-371.564,0,0
389554,44.6266,-370.979,0,0
389814,44.6678,-370.389,0,0
390074,44.709,-369.892,0,0
390335,44.7077,-369.359,0,0
390595,44.7588,-368.848,0,0
390855,44.7515,-368.335,0,0
391116,44.758,-367.838,0,0
391376,44.7472,-367.326,0,0
391636,44.7446,-366.844,0,0
391896,44.7349,-366.333,0,0
392157,44.7243,-365.827,0,0
392417,44.7013,-365.325,0,0
392677,44.7341,-364.833,0,0
392938,44.6714,-364.305,0,0
393198,44.67,-363.807,0,0
393458,44.697,-363.288,0,0
393719,44.6857,-362.734,0,0
393979,44.7066,-362.243,0,0
394239,44.7391,-361.721,0,0
394500,44.7346,-361.233,0,0
394760.05,44.767,-360.682,0,0
395020.375,44.7597,-360.162,0,0
395280.7,44.8242,-359.627,0,0
395541.025,44.8643,-359.104,0,0
395801.35,44.8876,-358.559,0,0
396061.675,44.9452,-358.037,0,0
396322.0,45.0594,-357.526,0,0
396582.325,45.1281,-357.036,0,0
396842.65,45.2225,-356.536,0,0
397102.975,45.2652,-356.035,0,0
397363.3,45.3894,-355.608,0,0
397623.625,45.4521,-355.146,0,0
397883.95,45.5285,-354.672,0,0
398144.275,45.5868,-354.264,0,0
398404.6,45.6451,-353.801,0,0
398664.925,45.6865,-353.388,0,0
398925.25,45.7215,-352.954,0,0
399185.575,45.7176,-352.481,0,0
399445.9,45.7376,-352.025,0,0
399706.225,45.7807,-351.587,0,0
399966.55,45.7458,-351.133,0,0
400006.6,45.7559,-351.03,0,0