File: Accelerated corrosion test data/2025-10-07_06-00-03/sample_6.csv
Frequency (Hz),Impedance (ohms),Phase (Radians),Temperature (C),Humidity (%)
10000.0,4252.08,-6452.19,0,0
10260.325,4114.55,-6379.19,0,0
10520.65,3983.72,-6306.63,0,0
10780.975,3858.74,-6234.16,0,0
11041.3,3739.9,-6160.78,0,0
11301.625,3625.61,-6090,0,0
11561.95,3515.94,-6019.13,0,0
11822.275,3412.19,-5948.8,0,0
12082.6,3311.34,-5878.81,0,0
12342.925,3215.44,-5809.09,0,0
12603.25,3125.89,-5739.84,0,0
12863.575,3038.51,-5673.46,0,0
13123.9,2956.76,-5608.07,0,0
13384.225,2874.88,-5546.01,0,0
13644.55,2795.42,-5481.48,0,0
13904.875,2719.71,-5418.39,0,0
14165.2,2647.91,-5355.57,0,0
14425.525,2578.48,-5293.89,0,0
14685.8,2512.22,-5233.53,0,0
14946.175,2448.48,-5174.28,0,0
15206.5,2386.93,-5114.97,0,0
15466.825,2328.47,-5058.03,0,0
15727.15,2271.54,-5001.79,0,0
15987.5,2216.36,-4946.45,0,0
16247.8,2163.85,-4891.92,0,0
16508.125,2112.21,-4837.56,0,0
16768.45,2063.28,-4784.29,0,0
17028.775,2016.63,-4733.23,0,0
17289.1,1970.33,-4682.59,0,0
17549.425,1925.61,-4633.21,0,0
17809.75,1883.67,-4583.55,0,0
18070.075,1841.9,-4534.95,0,0
18330.4,1800.59,-4486.46,0,0
18590.725,1763.1,-4440.15,0,0
18851.05,1725.8,-4393.46,0,0
19111.375,1690.37,-4349.12,0,0
19371.7,1655.68,-4306.01,0,0
19632.025,1621.5,-4263.31,0,0
19892.35,1588.5,-4220.82,0,0
20152.675,1555.73,-4178.32,0,0
20413.0,1524.68,-4137.37,0,0
20673.3,1494.49,-4096.88,0,0
20933.65,1464.74,-4056.32,0,0
21193.975,1437.13,-4016.64,0,0
21454.3,1409.44,-3978.12,0,0
21714.625,1382.93,-3939.94,0,0
21974.9,1357.24,-3902.5,0,0
22235.275,1331.87,-3865.66,0,0
22495.6,1307.02,-3827.96,0,0
22755.925,1284.73,-3790,0,0
23016.25,1264.78,-3754.7,0,0
23276.6,1245.85,-3723.8,0,0
23536.9,1223.36,-3692.14,0,0
23797.225,1201.41,-3660.58,0,0
24057.55,1179.94,-3628.28,0,0
24317.875,1158.73,-3596.62,0,0
24578.2,1138.28,-3565.22,0,0
24838.525,1118.98,-3534.1,0,0
25098.85,1100.29,-3502.74,0,0
25359.175,1082.66,-3472.42,0,0
25619.5,1064.59,-3443.17,0,0
25879.8,1047.03,-3414.1,0,0
26140.1,1030.4,-3385.04,0,0
26400.5,1013.84,-3356.07,0,0
26660.8,997.92,-3327.75,0,0
26921.1,982.733,-3300.07,0,0
27181.4,967.729,-3272.57,0,0
27441.8,953.759,-3245.71,0,0
27702.1,939.37,-3219.39,0,0
27962.4,926.462,-3193.15,0,0
28222.7,911.963,-3169.1,0,0
28483.1,898.473,-3143.83,0,0
28743.4,884.479,-3118.82,0,0
29003.7,871.396,-3093.27,0,0
29264,859.014,-3068.29,0,0
29524.4,847.829,-3043.66,0,0
29784.7,836.737,-3020.9,0,0
30045,824.894,-2996.93,0,0
30305.3,814.305,-2974.5,0,0
30565.7,804.117,-2952.34,0,0
30826,792.454,-2930.52,0,0
31086.3,781.705,-2908.31,0,0
31346.6,771.03,-2886.18,0,0
31607,760.905,-2863.76,0,0
31867.3,751.911,-2841.72,0,0
32127.6,743.424,-2820.59,0,0
32387.9,734.932,-2799.94,0,0
32648.3,727.395,-2778.72,0,0
32908.6,720.06,-2760.1,0,0
33168.9,711.839,-2740.68,0,0
33429.2,704.898,-2722.08,0,0
33689.6,697.834,-2704.69,0,0
33949.9,689.754,-2687.69,0,0
34210.2,681.561,-2670.78,0,0
34470.5,672.712,-2653.36,0,0
34730.9,664.517,-2635.6,0,0
34991.2,656.877,-2618.25,0,0
35251.5,649.694,-2601.04,0,0
35511.8,642.66,-2585.11,0,0
35772.2,634.794,-2569.39,0,0
36032.5,626.395,-2553.27,0,0
36292.8,618.452,-2537.12,0,0
36553.1,610.5,-2520.51,0,0
36813.5,603.114,-2504.61,0,0
37073.8,595.705,-2488.22,0,0
37334.1,588.043,-2472.35,0,0
37594.4,580.858,-2455.73,0,0
37854.8,574.154,-2439.86,0,0
38115.1,567.359,-2423.82,0,0
38375.4,561.105,-2408.2,0,0
38635.7,554.703,-2392.61,0,0
38896.1,548.641,-2376.83,0,0
39156.4,543.027,-2361.41,0,0
39416.7,537.624,-2346.25,0,0
39677,532.511,-2331.19,0,0
39937.4,527.302,-2316.64,0,0
40197.7,522.487,-2302.42,0,0
40458,517.622,-2288.28,0,0
40718.3,512.843,-2274.56,0,0
40978.7,507.765,-2261.24,0,0
41239,502.659,-2247.24,0,0
41499.3,498.145,-2233.29,0,0
41759.6,494.04,-2220.11,0,0
42020,489.47,-2207.38,0,0
42280.275,485.164,-2195.02,0,0
42540.6,479.735,-2182.57,0,0
42800.925,474.546,-2169.13,0,0
43061.25,469.708,-2155.74,0,0
43321.575,465.7,-2142.93,0,0
43581.9,462.108,-2129.3,0,0
43842.225,458.66,-2116.4,0,0
44102.55,455.255,-2103.78,0,0
44362.875,452.35,-2091.53,0,0
44623.2,448.61,-2079.3,0,0
44883.525,446.153,-2066.9,0,0
45143.85,443.482,-2054.82,0,0
45404.175,441.391,-2043.44,0,0
45664.5,439.176,-2032.38,0,0
45924.825,436.697,-2021.13,0,0
46185.15,434.823,-2010.17,0,0
46445.475,433.223,-2000.2,0,0
46705.8,430.724,-1990.55,0,0
46966.125,428.679,-1980.68,0,0
47226.45,426.518,-1971.06,0,0
47486.775,424.572,-1961.95,0,0
47747.1,422.204,-1952.64,0,0
48007.425,420.301,-1943.85,0,0
48267.75,418.112,-1935.35,0,0
48528.075,416.132,-1927.31,0,0
48788.4,413.863,-1919.48,0,0
49048.725,411.545,-1912.23,0,0
49309.05,408.745,-1905.56,0,0
49569.375,404.995,-1899.04,0,0
49829.7,400.12,-1892.35,0,0
50090.025,395.577,-1884.82,0,0
50350.35,390.73,-1877.57,0,0
50610.675,384.714,-1869.44,0,0
50871.0,379.612,-1859.8,0,0
51131.325,375.595,-1850.6,0,0
51391.65,371.575,-1841.89,0,0
51651.975,367.098,-1833.01,0,0
51912.3,362.923,-1823.87,0,0
52172.625,359.487,-1814.25,0,0
52432.95,356.2,-1805.14,0,0
52693.275,353.292,-1796.04,0,0
52953.6,350.594,-1787.72,0,0
53213.925,347.385,-1779.89,0,0
53474.25,343.813,-1771.9,0,0
53734.575,339.861,-1763.59,0,0
53994.9,336.306,-1754.95,0,0
54255.225,333.027,-1746.3,0,0
54515.55,329.803,-1737.65,0,0
54775.875,326.872,-1729.04,0,0
55036.2,323.824,-1720.9,0,0
55296.525,320.463,-1712.78,0,0
55556.85,316.895,-1704.26,0,0
55817.175,313.59,-1695.25,0,0
56077.5,310.567,-1686.22,0,0
56337.825,307.75,-1676.93,0,0
56598.15,305.745,-1667.41,0,0
56858.475,304.343,-1658.28,0,0
57118.8,303.166,-1649.67,0,0
57379.125,302.325,-1641.32,0,0
57639.45,301.577,-1633.7,0,0
57899.775,300.774,-1626.52,0,0
58160.1,299.515,-1619.93,0,0
58420.4,298.07,-1613.52,0,0
58680.7,296.063,-1607.02,0,0
58941.1,294.359,-1600.27,0,0
59201.4,292.536,-1594,0,0
59461.7,290.305,-1587.55,0,0
59722,288.164,-1581.19,0,0
59982.4,285.585,-1574.76,0,0
60242.7,282.926,-1568.03,0,0
60503,280.55,-1561.31,0,0
60763.3,278.098,-1554.44,0,0
61023.7,275.565,-1547.84,0,0
61284,273.078,-1540.91,0,0
61544.3,270.377,-1533.89,0,0
61804.6,267.664,-1526.57,0,0
62065,265.058,-1518.89,0,0
62325.3,263.095,-1510.78,0,0
62585.6,261.581,-1502.56,0,0
62845.9,260.944,-1494.75,0,0
63106.3,260.826,-1487.16,0,0
63366.6,261.259,-1480.49,0,0
63626.9,261.806,-1474.78,0,0
63887.2,261.34,-1470.29,0,0
64147.6,259.966,-1465.62,0,0
64407.9,257.955,-1460.95,0,0
64668.2,255.248,-1455.86,0,0
64928.5,252.821,-1449.78,0,0
65188.9,250.729,-1443.34,0,0
65449.2,249.298,-1437.08,0,0
65709.5,247.688,-1431.4,0,0
65969.8,246.18,-1426.2,0,0
66230.2,244.148,-1420.67,0,0
66490.5,241.836,-1414.93,0,0
66750.8,239.575,-1409.11,0,0
67011.1,237.201,-1403.14,0,0
67271.5,234.851,-1397.09,0,0
67531.8,232.735,-1390.54,0,0
67792.1,230.635,-1384.12,0,0
68052.4,228.792,-1377.52,0,0
68312.8,227.34,-1370.94,0,0
68573.1,225.558,-1364.34,0,0
68833.4,224.355,-1357.76,0,0
69093.7,222.846,-1351.34,0,0
69354.1,221.801,-1344.91,0,0
69614.4,220.631,-1338.32,0,0
69874.7,219.745,-1331.86,0,0
70135,218.929,-1325.62,0,0
70395.4,218.399,-1319.26,0,0
70655.7,217.778,-1312.99,0,0
70916,217.252,-1306.76,0,0
71176.3,216.93,-1300.67,0,0
71436.7,216.841,-1294.67,0,0
71697,216.819,-1288.85,0,0
71957.3,216.793,-1283.22,0,0
72217.6,216.733,-1277.65,0,0
72478,216.803,-1272.21,0,0
72738.3,216.972,-1267,0,0
72998.6,217.26,-1262.22,0,0
73258.9,217.196,-1257.27,0,0
73519.3,217.34,-1252.58,0,0
73779.6,217.182,-1248.17,0,0
74039.9,216.861,-1243.62,0,0
74300.225,216.355,-1238.96,0,0
74560.55,216.009,-1234.4,0,0
74820.875,215.709,-1229.82,0,0
75081.2,215.465,-1225.28,0,0
75341.525,215.245,-1220.86,0,0
75601.85,214.918,-1216.53,0,0
75862.175,214.542,-1212.16,0,0
76122.5,214.28,-1207.88,0,0
76382.825,213.952,-1203.63,0,0
76643.15,213.679,-1199.37,0,0
76903.475,213.298,-1195.18,0,0
77163.8,212.863,-1191.08,0,0
77424.125,212.613,-1186.98,0,0
77684.45,212.332,-1183.01,0,0
77944.775,211.963,-1179.08,0,0
78205.1,211.613,-1175.22,0,0
78465.425,211.108,-1171.4,0,0
78725.75,210.62,-1167.63,0,0
78986.075,209.994,-1163.81,0,0
79246.4,209.509,-1160.12,0,0
79506.725,208.815,-1156.4,0,0
79767.05,208.147,-1152.67,0,0
80027.375,207.471,-1148.99,0,0
80287.7,206.802,-1145.27,0,0
80548.025,205.986,-1141.65,0,0
80808.35,205.23,-1137.89,0,0
81068.675,204.415,-1134.21,0,0
81329.0,203.586,-1130.49,0,0
81589.325,202.658,-1126.77,0,0
81849.65,201.735,-1123.09,0,0
82109.975,200.811,-1119.25,0,0
82370.3,199.881,-1115.44,0,0
82630.625,198.972,-1111.6,0,0
82890.95,198.075,-1107.76,0,0
83151.275,197.12,-1103.9,0,0
83411.6,196.24,-1100.02,0,0
83671.925,195.251,-1096.04,0,0
83932.25,194.405,-1091.98,0,0
84192.575,193.59,-1087.82,0,0
84452.9,192.847,-1083.69,0,0
84713.225,192.131,-1079.54,0,0
84973.55,191.5,-1075.21,0,0
85233.875,191.118,-1071.09,0,0
85494.2,190.804,-1067.04,0,0
85754.525,190.571,-1063.05,0,0
86014.85,190.416,-1059.22,0,0
86275.175,190.212,-1055.33,0,0
86535.5,189.986,-1051.5,0,0
86795.825,189.851,-1047.87,0,0
87056.15,189.644,-1044.28,0,0
87316.475,189.343,-1040.76,0,0
87576.8,188.921,-1037.2,0,0
87837.125,188.625,-1033.39,0,0
88097.45,188.23,-1029.83,0,0
88357.775,187.964,-1026.15,0,0
88618.1,187.755,-1022.51,0,0
88878.425,187.409,-1018.74,0,0
89138.75,187.738,-1014.38,0,0
89399.075,187.826,-1011.31,0,0
89659.4,187.911,-1007.67,0,0
89919.725,188.161,-1004.26,0,0
90180,188.411,-1001.07,0,0
90440.4,188.624,-998.012,0,0
90700.7,188.846,-995.321,0,0
90961,188.863,-992.501,0,0
91221.3,188.681,-989.74,0,0
91481.7,188.269,-986.962,0,0
91742,187.938,-984.273,0,0
92002.3,187.204,-980.95,0,0
92262.6,186.843,-977.911,0,0
92523,186.421,-974.545,0,0
92783.3,186.32,-971.212,0,0
93043.6,186.174,-968.106,0,0
93303.9,185.948,-965.098,0,0
93564.3,185.642,-961.923,0,0
93824.6,185.125,-958.677,0,0
94084.9,184.887,-955.029,0,0
94345.2,184.961,-951.303,0,0
94605.6,185.662,-947.822,0,0
94865.9,186.301,-944.833,0,0
95126.2,186.988,-941.982,0,0
95386.5,187.294,-939.665,0,0
95646.9,187.536,-936.824,0,0
95907.2,188.032,-934.225,0,0
96167.5,188.488,-931.913,0,0
96427.8,188.963,-929.708,0,0
96688.2,188.999,-927.782,0,0
96948.5,188.749,-925.82,0,0
97208.8,188.227,-923.583,0,0
97469.1,187.83,-921.116,0,0
97729.5,187.484,-918.585,0,0
97989.8,187.073,-915.816,0,0
98250.1,186.824,-912.93,0,0
98510.4,186.985,-909.76,0,0
98770.8,187.549,-906.944,0,0
99031.1,188.421,-904.278,0,0
99291.4,189.587,-902.253,0,0
99551.7,190.487,-900.808,0,0
99812.1,190.947,-899.722,0,0
100072,191.015,-898.677,0,0
100333,190.946,-897.827,0,0
100593,190.48,-897.035,0,0
100853,189.413,-896.251,0,0
101114,187.867,-894.899,0,0
101374,186.522,-893.073,0,0
101634,185.357,-891.064,0,0
101895,184.322,-888.996,0,0
102155,183.555,-886.992,0,0
102415,182.743,-885.229,0,0
102676,181.912,-883.539,0,0
102936,180.99,-882.124,0,0
103196,179.561,-880.917,0,0
103457,177.811,-879.302,0,0
103717,176.03,-877.647,0,0
103977,174.119,-875.812,0,0
104238,172.101,-873.912,0,0
104498,169.798,-871.966,0,0
104758,167.121,-869.785,0,0
105019,164.195,-866.916,0,0
105279,161.551,-863.551,0,0
105539,158.903,-860.008,0,0
105800,156.389,-855.945,0,0
106060,154.147,-851.325,0,0
106320.175,152.645,-846.589,0,0
106580.5,151.471,-841.738,0,0
106840.825,150.68,-836.933,0,0
107101.15,150.383,-832.246,0,0
107361.475,150.221,-827.859,0,0
107621.8,150.13,-823.612,0,0
107882.125,150.29,-819.061,0,0
108142.45,151.038,-814.913,0,0
108402.775,151.743,-811.418,0,0
108663.1,152.264,-807.995,0,0
108923.425,152.65,-804.698,0,0
109183.75,153.014,-801.392,0,0
109444.075,153.457,-798.012,0,0
109704.4,153.862,-794.562,0,0
109964.725,154.414,-791.273,0,0
110225.05,154.97,-788.055,0,0
110485.375,155.47,-785.05,0,0
110745.7,156.09,-781.755,0,0
111006.025,156.785,-778.606,0,0
111266.35,157.457,-775.519,0,0
111526.675,158.504,-772.475,0,0
111787.0,159.339,-769.78,0,0
112047.325,160.371,-766.813,0,0
112307.65,161.448,-764.002,0,0
112567.975,162.535,-761.557,0,0
112828.3,163.383,-759.19,0,0
113088.625,164.471,-756.673,0,0
113348.95,165.636,-754.484,0,0
113609.275,166.582,-752.383,0,0
113869.6,167.504,-750.205,0,0
114129.925,168.485,-748.33,0,0
114390.25,169.253,-746.419,0,0
114650.575,169.989,-744.41,0,0
114910.9,170.779,-742.192,0,0
115171.225,172.005,-740.388,0,0
115431.55,172.811,-738.86,0,0
115691.875,173.489,-737.034,0,0
115952.2,174.423,-735.215,0,0
116212.525,175.674,-733.506,0,0
116472.85,177.089,-732.449,0,0
116733.175,178.085,-731.829,0,0
116993.5,178.534,-731.339,0,0
117253.825,178.613,-730.843,0,0
117514.15,178.37,-730.33,0,0
117774.475,177.76,-729.534,0,0
118034.8,176.831,-728.467,0,0
118295.125,175.833,-726.807,0,0
118555.45,175.085,-724.894,0,0
118815.775,174.448,-722.868,0,0
119076.1,174.016,-720.555,0,0
119336.425,173.652,-718.166,0,0
119596.75,173.604,-715.62,0,0
119857.075,173.743,-712.885,0,0
120117.4,174.649,-710.318,0,0
120377.725,175.95,-707.894,0,0
120638.05,177.807,-706.098,0,0
120898.375,179.679,-705.406,0,0
121158.7,180.877,-705.474,0,0
121419.025,181.335,-705.96,0,0
121679.35,180.746,-706.426,0,0
121939.675,179.339,-706.251,0,0
122200.0,177.948,-705.2,0,0
122460,176.773,-703.856,0,0
122721,175.68,-702.318,0,0
122981,174.822,-700.521,0,0
123241,174.251,-698.757,0,0
123502,173.608,-697.098,0,0
123762,173.055,-695.335,0,0
124022,172.598,-693.687,0,0
124283,172.029,-692.23,0,0
124543,171.396,-690.599,0,0
124803,170.685,-688.983,0,0
125064,169.945,-687.208,0,0
125324,169.339,-685.383,0,0
125584,168.768,-683.408,0,0
125845,168.191,-681.683,0,0
126105,167.507,-679.977,0,0
126365,166.701,-678.133,0,0
126626,165.907,-676.079,0,0
126886,165.122,-673.922,0,0
127146,164.378,-671.552,0,0
127406,163.996,-669.154,0,0
127667,163.707,-666.806,0,0
127927,163.329,-664.669,0,0
128187,163.087,-662.034,0,0
128448,163.081,-659.535,0,0
128708,163.326,-657.022,0,0
128968,163.85,-654.868,0,0
129229,164.465,-652.948,0,0
129489,164.873,-651.431,0,0
129749,165.09,-650.008,0,0
130010,165.264,-648.578,0,0
130270,165.297,-647.177,0,0
130530,165.256,-645.862,0,0
130791,165.074,-644.567,0,0
131051,164.785,-643.138,0,0
131311,164.479,-641.773,0,0
131572,164.191,-640.302,0,0
131832,163.809,-639.025,0,0
132092,163.288,-637.662,0,0
132353,162.711,-636.183,0,0
132613,162.22,-634.649,0,0
132873,161.691,-633.23,0,0
133134,161.04,-631.798,0,0
133394,160.187,-630.385,0,0
133654,159.257,-628.814,0,0
133915,158.323,-627.125,0,0
134175,157.35,-625.307,0,0
134435,156.394,-623.478,0,0
134696,155.408,-621.587,0,0
134956,154.377,-619.484,0,0
135216,153.345,-617.294,0,0
135477,152.48,-614.974,0,0
135737,151.583,-612.647,0,0
135997,150.818,-610.239,0,0
136258,150.007,-607.673,0,0
136518,149.375,-605.187,0,0
136778,148.708,-602.632,0,0
137039,148.131,-600.064,0,0
137299,147.625,-597.463,0,0
137559,147.16,-594.804,0,0
137819,146.768,-592.131,0,0
138080,146.451,-589.498,0,0
138340.125,146.066,-586.81,0,0
138600.45,145.832,-584.042,0,0
138860.775,145.697,-581.294,0,0
139121.1,145.646,-578.601,0,0
139381.425,145.594,-575.943,0,0
139641.75,145.652,-573.207,0,0
139902.075,145.625,-570.608,0,0
140162.4,145.666,-567.914,0,0
140422.725,145.775,-565.2,0,0
140683.05,145.964,-562.484,0,0
140943.375,146.199,-559.706,0,0
141203.7,146.64,-557,0,0
141464.025,147.193,-554.401,0,0
141724.35,147.759,-551.983,0,0
141984.675,148.216,-549.666,0,0
142245.0,148.592,-547.36,0,0
142505.325,148.923,-544.995,0,0
142765.65,149.254,-542.527,0,0
143025.975,149.734,-540.095,0,0
143286.3,150.24,-537.713,0,0
143546.625,150.741,-535.388,0,0
143806.95,151.215,-533.044,0,0
144067.275,151.729,-530.574,0,0
144327.6,152.372,-528.11,0,0
144587.925,153.188,-525.68,0,0
144848.25,154.213,-523.413,0,0
145108.575,155.336,-521.409,0,0
145368.9,156.306,-519.665,0,0
145629.225,157.064,-518.099,0,0
145889.55,157.647,-516.563,0,0
146149.875,158.091,-514.99,0,0
146410.2,158.403,-513.406,0,0
146670.525,158.619,-511.74,0,0
146930.85,158.8,-510.063,0,0
147191.175,158.898,-508.367,0,0
147451.5,158.852,-506.605,0,0
147711.825,158.686,-504.689,0,0
147972.15,158.549,-502.578,0,0
148232.475,158.466,-500.379,0,0
148492.8,158.514,-498.086,0,0
148753.125,158.595,-495.779,0,0
149013.45,158.683,-493.544,0,0
149273.775,158.692,-491.212,0,0
149534.1,158.618,-488.751,0,0
149794.425,158.615,-486.142,0,0
150054.75,158.747,-483.442,0,0
150315.075,158.887,-480.591,0,0
150575.4,159.216,-477.634,0,0
150835.725,159.639,-474.754,0,0
151096.05,160.085,-471.688,0,0
151356.375,160.644,-468.51,0,0
151616.7,161.425,-465.076,0,0
151877.025,162.657,-461.55,0,0
152137.35,164.388,-458.131,0,0
152397.675,166.369,-455.071,0,0
152658.0,168.62,-452.265,0,0
152918.325,171.163,-449.95,0,0
153178.65,173.542,-448.045,0,0
153438.975,175.864,-446.547,0,0
153699.3,177.861,-445.529,0,0
153959.625,179.436,-444.576,0,0
154219.95,180.652,-443.604,0,0
154480,181.47,-442.581,0,0
154741,182.061,-441.242,0,0
155001,182.621,-439.413,0,0
155261,183.305,-437.331,0,0
155522,184.334,-435.084,0,0
155782,185.636,-432.867,0,0
156042,187.194,-430.632,0,0
156303,189.157,-428.504,0,0
156563,191.485,-426.708,0,0
156823,193.907,-425.528,0,0
157084,196.115,-424.933,0,0
157344,197.916,-424.876,0,0
157604,199.137,-424.704,0,0
157864,200.003,-424.439,0,0
158125,200.636,-424.082,0,0
158385,201.136,-423.582,0,0
158645,201.389,-422.94,0,0
158906,201.625,-422.156,0,0
159166,201.845,-421.181,0,0
159426,201.971,-420.24,0,0
159687,202.208,-419.019,0,0
159947,202.348,-417.768,0,0
160207,202.537,-416.538,0,0
160468,202.705,-415.321,0,0
160728,202.803,-413.918,0,0
160988,202.924,-412.195,0,0
161249,203.445,-410.72,0,0
161509,203.873,-409.361,0,0
161769,204.088,-408.22,0,0
162030,204.161,-407.001,0,0
162290,204.082,-405.685,0,0
162550,203.782,-404.122,0,0
162811,203.512,-402.248,0,0
163071,203.435,-400.25,0,0
163331,203.588,-398.271,0,0
163592,203.75,-396.339,0,0
163852,203.851,-394.582,0,0
164112,203.74,-392.669,0,0
164373,203.68,-390.621,0,0
164633,203.591,-388.434,0,0
164893,203.494,-386.109,0,0
165154,203.448,-383.578,0,0
165414,203.511,-380.943,0,0
165674,203.747,-378.111,0,0
165935,204.341,-375.236,0,0
166195,205.129,-372.466,0,0
166455,206.077,-369.943,0,0
166716,206.859,-367.6,0,0
166976,207.528,-365.316,0,0
167236,208.135,-362.838,0,0
167497,208.794,-360.273,0,0
167757,209.598,-357.679,0,0
168017,210.447,-355.069,0,0
168277,211.429,-352.554,0,0
168538,212.299,-350.031,0,0
168798,213.182,-347.479,0,0
169058,214.175,-344.98,0,0
169319,215.177,-342.453,0,0
169579,216.216,-339.873,0,0
169839,217.274,-337.345,0,0
170100,218.416,-334.797,0,0
170360.075,219.427,-332.316,0,0
170620.4,220.517,-329.9,0,0
170880.725,221.59,-327.422,0,0
171141.05,222.64,-324.959,0,0
171401.375,223.613,-322.388,0,0
171661.7,224.59,-319.766,0,0
171922.025,225.636,-317.104,0,0
172182.35,226.68,-314.351,0,0
172442.675,227.832,-311.555,0,0
172703.0,229.092,-308.839,0,0
172963.325,230.34,-306.153,0,0
173223.65,231.499,-303.402,0,0
173483.975,232.721,-300.678,0,0
173744.3,233.847,-297.957,0,0
174004.625,234.877,-295.086,0,0
174264.95,235.93,-292.153,0,0
174525.275,237.029,-289.115,0,0
174785.6,238.075,-285.968,0,0
175045.925,239.164,-282.591,0,0
175306.25,240.345,-279.152,0,0
175566.575,241.644,-275.541,0,0
175826.9,243.015,-271.864,0,0
176087.225,244.559,-268.096,0,0
176347.55,246.149,-264.251,0,0
176607.875,247.881,-260.264,0,0
176868.2,249.759,-256.194,0,0
177128.525,251.76,-252.038,0,0
177388.85,253.939,-247.807,0,0
177649.175,256.305,-243.52,0,0
177909.5,258.793,-239.174,0,0
178169.825,261.475,-234.777,0,0
178430.15,264.429,-230.331,0,0
178690.475,267.506,-225.783,0,0
178950.8,270.857,-221.255,0,0
179211.125,274.528,-216.655,0,0
179471.45,278.514,-212.202,0,0
179731.775,282.779,-207.862,0,0
179992.1,287.287,-203.719,0,0
180252.425,291.984,-199.782,0,0
180512.75,296.875,-196.015,0,0
180773.075,301.825,-192.555,0,0
181033.4,306.837,-189.261,0,0
181293.725,311.791,-186.035,0,0
181554.05,316.922,-182.937,0,0
181814.375,322.266,-179.994,0,0
182074.7,327.587,-177.32,0,0
182335.025,332.97,-174.854,0,0
182595.35,338.298,-172.577,0,0
182855.675,343.561,-170.419,0,0
183116.0,348.834,-168.435,0,0
183376.325,353.902,-166.48,0,0
183636.65,358.921,-164.562,0,0
183896.975,364.032,-162.514,0,0
184157.3,369.316,-160.588,0,0
184417.625,374.741,-158.888,0,0
184677.95,380.043,-157.399,0,0
184938.275,385.244,-156.04,0,0
185198.6,390.371,-154.859,0,0
185458.925,395.316,-153.782,0,0
185719.25,400.039,-152.721,0,0
185979.575,404.632,-151.701,0,0
186239.9,409.013,-150.558,0,0
186500,413.254,-149.322,0,0
186761,417.182,-148.179,0,0
187021,420.83,-146.63,0,0
187281,424.301,-144.712,0,0
187542,427.723,-142.382,0,0
187802,431.122,-139.506,0,0
188062,434.746,-136.205,0,0
188322,438.605,-132.395,0,0
188583,442.629,-128.144,0,0
188843,447.149,-123.227,0,0
189103,452.308,-117.962,0,0
189364,458.073,-112.44,0,0
189624,464.494,-106.629,0,0
189884,471.681,-100.623,0,0
190145,479.585,-94.5013,0,0
190405,488.553,-88.3312,0,0
190665,498.457,-82.2844,0,0
190926,509.121,-76.6692,0,0
191186,520.72,-71.3864,0,0
191446,533.321,-66.7077,0,0
191707,546.581,-62.9205,0,0
191967,560.418,-59.9007,0,0
192227,574.362,-58.0093,0,0
192488,588.448,-56.6044,0,0
192748,602.551,-55.8044,0,0
193008,616.795,-55.2376,0,0
193269,631.494,-54.9808,0,0
193529,646.77,-55.2274,0,0
193789,662.508,-56.1555,0,0
194050,678.697,-57.8455,0,0
194310,695.384,-60.3645,0,0
194570,712.451,-63.952,0,0
194831,729.566,-68.6049,0,0
195091,746.669,-74.5156,0,0
195351,763.828,-81.5233,0,0
195612,780.318,-89.5803,0,0
195872,796.554,-98.5301,0,0
196132,812.38,-108.296,0,0
196393,827.631,-118.764,0,0
196653,842.447,-129.865,0,0
196913,856.924,-141.599,0,0
197174,870.831,-154.085,0,0
197434,884.317,-167.229,0,0
197694,897.092,-180.982,0,0
197955,909.321,-194.973,0,0
198215,920.945,-209.314,0,0
198475,932.236,-223.858,0,0
198735,943.609,-238.98,0,0
198996,954.665,-254.677,0,0
199256,964.928,-271.358,0,0
199516,974.682,-288.368,0,0
199777,983.985,-305.949,0,0
200037,992.256,-324.166,0,0
200297,1000.33,-342.336,0,0
200558,1007.95,-361.498,0,0
200818,1015.02,-381.056,0,0
201078,1021.42,-401.527,0,0
201339,1027.1,-422.619,0,0
201599,1031.7,-444.658,0,0
201859,1035.15,-467.313,0,0
202120,1037.33,-490.598,0,0
202380.025,1037.88,-515.24,0,0
202640.35,1036.37,-539.611,0,0
202900.675,1032.99,-563.621,0,0
203161.0,1027.75,-586.838,0,0
203421.325,1021.12,-609.251,0,0
203681.65,1013.21,-630.604,0,0
203941.975,1004.57,-651.084,0,0
204202.3,994.909,-670.523,0,0
204462.625,984.757,-689.362,0,0
204722.95,973.534,-706.899,0,0
204983.275,962.251,-724.268,0,0
205243.6,950.038,-740.143,0,0
205503.925,937.381,-755.168,0,0
205764.25,924.518,-769.59,0,0
206024.575,911.082,-782.991,0,0
206284.9,897.294,-795.324,0,0
206545.225,883.56,-806.823,0,0
206805.55,869.461,-817.631,0,0
207065.875,855.733,-826.912,0,0
207326.2,841.875,-835.92,0,0
207586.525,828.119,-843.965,0,0
207846.85,814.771,-851.277,0,0
208107.175,801.51,-857.859,0,0
208367.5,788.69,-863.972,0,0
208627.825,775.955,-869.6,0,0
208888.15,763.69,-874.675,0,0
209148.475,751.771,-879.259,0,0
209408.8,740.625,-883.728,0,0
209669.125,729.173,-887.883,0,0
209929.45,718.613,-892.234,0,0
210189.775,708.368,-896.236,0,0
210450.1,697.725,-900.862,0,0
210710.425,687.584,-905.345,0,0
210970.75,677.094,-910.392,0,0
211231.075,666.527,-915.315,0,0
211491.4,655.041,-920.491,0,0
211751.725,642.912,-925.255,0,0
212012.05,630.17,-929.667,0,0
212272.375,616.938,-933.221,0,0
212532.7,603.583,-935.96,0,0
212793.025,589.91,-937.47,0,0
213053.35,576.437,-938.387,0,0
213313.675,563.31,-938.535,0,0
213574.0,550.598,-937.921,0,0
213834.325,538.151,-936.958,0,0
214094.65,526.205,-935.442,0,0
214354.975,514.505,-933.531,0,0
214615.3,503.2,-931.323,0,0
214875.625,492.221,-928.411,0,0
215135.95,481.834,-925.882,0,0
215396.275,471.826,-922.275,0,0
215656.6,462.264,-918.986,0,0
215916.925,453.082,-915.457,0,0
216177.25,444.27,-911.92,0,0
216437.575,435.811,-908.248,0,0
216697.9,427.716,-904.459,0,0
216958.225,419.784,-900.632,0,0
217218.55,412.156,-896.749,0,0
217478.875,404.907,-892.997,0,0
217739.2,397.586,-889.014,0,0
217999.525,390.494,-884.896,0,0
218259.85,383.914,-880.852,0,0
218520,377.356,-876.806,0,0
218780,370.952,-872.683,0,0
219041,364.897,-868.476,0,0
219301,359.007,-864.314,0,0
219561,353.224,-860.192,0,0
219822,347.695,-855.844,0,0
220082,342.492,-851.682,0,0
220342,337.177,-847.375,0,0
220603,332.175,-843.011,0,0
220863,327.288,-838.781,0,0
221123,322.478,-834.551,0,0
221384,317.954,-830.122,0,0
221644,313.545,-825.599,0,0
221904,309.216,-821.342,0,0
222165,305.053,-816.817,0,0
222425,300.966,-812.291,0,0
222685,297.234,-807.672,0,0
222946,293.462,-802.996,0,0
223206,289.955,-798.365,0,0
223466,286.739,-793.731,0,0
223727,283.745,-788.933,0,0
223987,280.995,-783.972,0,0
224247,278.486,-779.19,0,0
224508,276.105,-774.518,0,0
224768,274.202,-769.534,0,0
225028,272.064,-764.867,0,0
225289,270.628,-760.231,0,0
225549,269.655,-755.802,0,0
225809,268.727,-751.515,0,0
226070,268.091,-747.228,0,0
226330,267.648,-743.307,0,0
226590,267.509,-739.589,0,0
226851,267.469,-736.334,0,0
227111,267.678,-733.357,0,0
227371,267.858,-730.737,0,0
227632,267.916,-728.631,0,0
227892,268.05,-726.78,0,0
228152,267.918,-725.251,0,0
228413,267.69,-724.017,0,0
228673,267.04,-722.943,0,0
228933,266.241,-722.17,0,0
229193,264.942,-721.174,0,0
229454,263.632,-720.317,0,0
229714,261.941,-719.305,0,0
229974,259.974,-718.445,0,0
230235,258.036,-717.053,0,0
230495,255.948,-715.924,0,0
230755,253.656,-714.385,0,0
231016,251.349,-712.678,0,0
231276,249.059,-710.931,0,0
231536,246.731,-708.931,0,0
231797,244.48,-706.826,0,0
232057,242.182,-704.595,0,0
232317,240.014,-702.316,0,0
232578,237.951,-699.752,0,0
232838,235.914,-697.215,0,0
233098,234.017,-694.572,0,0
233359,232.285,-691.89,0,0
233619,230.556,-689.002,0,0
233879,228.949,-686.29,0,0
234140,227.35,-683.409,0,0
234400,226.138,-680.444,0,0
234660.3,224.786,-677.545,0,0
234920.625,223.876,-674.647,0,0
235180.95,222.84,-671.743,0,0
235441.275,221.761,-669.006,0,0
235701.6,220.824,-666.008,0,0
235961.925,220.097,-663.251,0,0
236222.25,219.462,-660.435,0,0
236482.575,218.866,-657.725,0,0
236742.9,218.344,-655.015,0,0
237003.225,217.85,-652.268,0,0
237263.55,217.386,-649.622,0,0
237523.875,217.103,-646.986,0,0
237784.2,216.688,-644.36,0,0
238044.525,216.453,-641.782,0,0
238304.85,216.255,-639.186,0,0
238565.175,216.15,-636.761,0,0
238825.5,216.108,-634.215,0,0
239085.825,216.1,-631.793,0,0
239346.15,216.028,-629.277,0,0
239606.475,216.057,-626.915,0,0
239866.8,216.147,-624.388,0,0
240127.125,216.335,-622.177,0,0
240387.45,216.526,-619.88,0,0
240647.775,216.754,-617.636,0,0
240908.1,217.13,-615.329,0,0
241168.425,217.402,-613.153,0,0
241428.75,217.732,-610.845,0,0
241689.075,218.13,-608.695,0,0
241949.4,218.577,-606.558,0,0
242209.725,219.046,-604.358,0,0
242470.05,219.574,-602.237,0,0
242730.375,220.211,-600.061,0,0
242990.7,220.81,-597.964,0,0
243251.025,221.494,-595.853,0,0
243511.35,222.25,-593.843,0,0
243771.675,223.075,-591.875,0,0
244032.0,224.003,-589.808,0,0
244292.325,224.932,-587.887,0,0
244552.65,225.896,-585.909,0,0
244812.975,226.857,-583.956,0,0
245073.3,228.14,-582.11,0,0
245333.625,229.174,-580.259,0,0
245593.95,230.505,-578.384,0,0
245854.275,231.751,-576.48,0,0
246114.6,233.208,-574.717,0,0
246374.925,234.726,-572.934,0,0
246635.25,236.413,-571.201,0,0
246895.575,238.22,-569.445,0,0
247155.9,240.132,-567.902,0,0
247416.225,242.285,-566.511,0,0
247676.55,244.492,-565.111,0,0
247936.875,246.689,-563.974,0,0
248197.2,249.227,-563.018,0,0
248457.525,251.604,-562.378,0,0
248717.85,254.172,-561.736,0,0
248978.175,256.449,-561.414,0,0
249238.5,258.901,-561.351,0,0
249498.825,261.039,-561.116,0,0
249759.15,263.49,-561.234,0,0
250019.475,265.607,-561.514,0,0
250279.8,267.589,-561.495,0,0
250540,269.701,-561.402,0,0
250800,271.821,-561.463,0,0
251061,274.267,-561.463,0,0
251321,276.804,-561.583,0,0
251581,279.586,-561.814,0,0
251842,282.475,-562.298,0,0
252102,285.564,-563.079,0,0
252362,288.891,-564.22,0,0
252623,292.105,-565.827,0,0
252883,295.269,-567.648,0,0
253143,298.475,-570.005,0,0
253404,301.456,-572.746,0,0
253664,304.172,-575.725,0,0
253924,306.671,-579.181,0,0
254185,308.971,-582.768,0,0
254445,310.807,-586.883,0,0
254705,312.431,-590.826,0,0
254966,313.316,-595.343,0,0
255226,314.341,-599.771,0,0
255486,314.618,-604.241,0,0
255747,314.454,-608.718,0,0
256007,314.042,-613.257,0,0
256267,313.414,-617.743,0,0
256528,312.236,-622.054,0,0
256788,310.791,-626.224,0,0
257048,309.136,-630.397,0,0
257309,307.167,-634.289,0,0
257569,304.923,-638.033,0,0
257829,302.521,-641.551,0,0
258090,299.929,-644.912,0,0
258350,297.141,-648.074,0,0
258610,294.299,-651.011,0,0
258871,291.231,-653.868,0,0
259131,288.059,-656.512,0,0
259391,284.939,-658.847,0,0
259651,281.539,-661.265,0,0
259912,278.067,-663.202,0,0
260172,274.713,-665.182,0,0
260432,270.86,-666.708,0,0
260693,267.371,-668.268,0,0
260953,263.681,-669.576,0,0
261213,260.024,-670.61,0,0
261474,256.372,-671.494,0,0
261734,252.695,-672.209,0,0
261994,249.094,-672.694,0,0
262255,245.526,-673.008,0,0
262515,242.041,-673.207,0,0
262775,238.662,-673.239,0,0
263036,235.301,-673.22,0,0
263296,232.158,-673.053,0,0
263556,228.952,-672.702,0,0
263817,225.848,-672.416,0,0
264077,222.836,-672.175,0,0
264337,219.879,-671.832,0,0
264598,217.057,-671.329,0,0
264858,213.895,-670.542,0,0
265118,211.275,-670.063,0,0
265379,208.327,-669.347,0,0
265639,205.589,-668.586,0,0
265899,202.949,-667.777,0,0
266160,200.324,-666.922,0,0
266420,197.779,-666.087,0,0
266680.25,195.325,-665.013,0,0
266940.575,192.864,-664.07,0,0
267200.9,190.461,-663.117,0,0
267461.225,188.177,-662.097,0,0
267721.55,185.872,-661.025,0,0
267981.875,183.62,-659.958,0,0
268242.2,181.537,-658.8,0,0
268502.525,179.404,-657.671,0,0
268762.85,177.279,-656.583,0,0
269023.175,175.224,-655.461,0,0
269283.5,173.277,-654.252,0,0
269543.825,171.316,-653.165,0,0
269804.15,169.357,-651.92,0,0
270064.475,167.455,-650.796,0,0
270324.8,165.595,-649.532,0,0
270585.125,163.607,-648.228,0,0
270845.45,161.87,-647.064,0,0
271105.775,159.969,-645.851,0,0
271366.1,158.191,-644.485,0,0
271626.425,156.443,-643.224,0,0
271886.75,154.776,-641.93,0,0
272147.075,153.076,-640.645,0,0
272407.4,151.468,-639.271,0,0
272667.725,149.826,-637.971,0,0
272928.05,148.222,-636.621,0,0
273188.375,146.648,-635.252,0,0
273448.7,145.182,-633.903,0,0
273709.025,143.557,-632.508,0,0
273969.35,142.206,-631.153,0,0
274229.675,140.721,-629.736,0,0
274490.0,139.325,-628.332,0,0
274750.325,137.824,-626.957,0,0
275010.65,136.563,-625.45,0,0
275270.975,135.139,-624.023,0,0
275531.3,133.951,-622.58,0,0
275791.625,132.62,-621.154,0,0
276051.95,131.427,-619.655,0,0
276312.275,130.212,-618.161,0,0
276572.6,129.019,-616.681,0,0
276832.925,127.889,-615.205,0,0
277093.25,126.749,-613.737,0,0
277353.575,125.66,-612.279,0,0
277613.9,124.588,-610.814,0,0
277874.225,123.573,-609.33,0,0
278134.55,122.56,-607.827,0,0
278394.875,121.534,-606.389,0,0
278655.2,120.523,-604.93,0,0
278915.525,119.633,-603.414,0,0
279175.85,118.746,-601.875,0,0
279436.175,117.815,-600.351,0,0
279696.5,117.105,-598.747,0,0
279956.825,116.228,-597.202,0,0
280217.15,115.524,-595.755,0,0
280477.475,114.861,-594.243,0,0
280737.8,114.252,-592.777,0,0
280998.125,113.684,-591.288,0,0
281258.45,113.214,-589.892,0,0
281518.775,112.706,-588.553,0,0
281779.1,112.21,-587.299,0,0
282039.425,111.701,-586.037,0,0
282299.75,111.171,-584.83,0,0
282560,110.657,-583.629,0,0
282820,110.129,-582.444,0,0
283081,109.536,-581.235,0,0
283341,108.981,-580.025,0,0
283601,108.438,-578.782,0,0
283862,107.899,-577.544,0,0
284122,107.41,-576.291,0,0
284382,106.863,-575.167,0,0
284643,106.517,-573.875,0,0
284903,106.007,-572.683,0,0
285163,105.622,-571.542,0,0
285424,105.25,-570.342,0,0
285684,104.902,-569.161,0,0
285944,104.623,-568.07,0,0
286205,104.296,-567.07,0,0
286465,103.985,-566.051,0,0
286725,103.648,-565.094,0,0
286986,103.297,-564.151,0,0
287246,102.897,-563.295,0,0
287506,102.46,-562.326,0,0
287767,101.99,-561.421,0,0
288027,101.523,-560.446,0,0
288287,101.052,-559.482,0,0
288548,100.613,-558.508,0,0
288808,100.157,-557.484,0,0
289068,99.7614,-556.472,0,0
289329,99.3756,-555.509,0,0
289589,99.0203,-554.468,0,0
289849,98.6136,-553.503,0,0
290109,98.1841,-552.582,0,0
290370,97.8927,-551.565,0,0
290630,97.5838,-550.655,0,0
290890,97.171,-549.702,0,0
291151,96.8705,-548.828,0,0
291411,96.5323,-547.908,0,0
291671,96.1973,-547.026,0,0
291932,95.8971,-546.141,0,0
292192,95.6061,-545.335,0,0
292452,95.2887,-544.496,0,0
292713,95.0025,-543.657,0,0
292973,94.6552,-542.917,0,0
293233,94.3297,-542.121,0,0
293494,93.9592,-541.395,0,0
293754,93.596,-540.678,0,0
294014,93.1839,-539.956,0,0
294275,92.7603,-539.249,0,0
294535,92.2989,-538.556,0,0
294795,91.7666,-537.871,0,0
295056,91.27,-537.128,0,0
295316,90.6668,-536.418,0,0
295576,90.0594,-535.631,0,0
295837,89.4604,-534.771,0,0
296097,88.872,-533.912,0,0
296357,88.2255,-533.054,0,0
296618,87.5657,-532.1,0,0
296878,86.9688,-531.113,0,0
297138,86.3556,-530.085,0,0
297399,85.7905,-528.989,0,0
297659,85.2592,-527.86,0,0
297919,84.7762,-526.675,0,0
298180,84.3724,-525.487,0,0
298440,84.0137,-524.309,0,0
298700.2,83.7782,-523.121,0,0
298960.525,83.5434,-521.954,0,0
299220.85,83.3614,-520.777,0,0
299481.175,83.3004,-519.711,0,0
299741.5,83.2098,-518.741,0,0
300001.825,83.111,-517.753,0,0
300262.15,83.0628,-516.802,0,0
300522.475,83.0656,-515.864,0,0
300782.8,82.9376,-515.056,0,0
301043.125,82.8461,-514.218,0,0
301303.45,82.7418,-513.489,0,0
301563.775,82.5811,-512.617,0,0
301824.1,82.4874,-511.925,0,0
302084.425,82.2881,-511.098,0,0
302344.75,82.2021,-510.421,0,0
302605.075,81.9527,-509.605,0,0
302865.4,81.799,-508.899,0,0
303125.725,81.6255,-508.126,0,0
303386.05,81.3602,-507.35,0,0
303646.375,81.1808,-506.548,0,0
303906.7,80.9764,-505.834,0,0
304167.025,80.7964,-505.001,0,0
304427.35,80.6427,-504.222,0,0
304687.675,80.4315,-503.344,0,0
304948.0,80.2544,-502.516,0,0
305208.325,80.1044,-501.699,0,0
305468.65,79.994,-500.897,0,0
305728.975,79.981,-500.132,0,0
305989.3,79.927,-499.339,0,0
306249.625,79.9349,-498.599,0,0
306509.95,79.9947,-497.933,0,0
306770.275,79.9774,-497.261,0,0
307030.6,79.9584,-496.657,0,0
307290.925,79.9531,-496.175,0,0
307551.25,79.8667,-495.706,0,0
307811.575,79.7602,-495.202,0,0
308071.9,79.6329,-494.709,0,0
308332.225,79.4899,-494.204,0,0
308592.55,79.2224,-493.692,0,0
308852.875,78.9902,-493.179,0,0
309113.2,78.7825,-492.684,0,0
309373.525,78.5772,-492.063,0,0
309633.85,78.2819,-491.504,0,0
309894.175,78.0804,-491.089,0,0
310154.5,77.7757,-490.44,0,0
310414.825,77.5371,-489.968,0,0
310675.15,77.239,-489.354,0,0
310935.475,77.0057,-488.807,0,0
311195.8,76.6923,-488.298,0,0
311456.125,76.4202,-487.722,0,0
311716.45,76.1663,-487.178,0,0
311976.775,75.8565,-486.653,0,0
312237.1,75.5104,-486.049,0,0
312497.425,75.2406,-485.501,0,0
312757.75,74.8657,-484.925,0,0
313018.075,74.5872,-484.323,0,0
313278.4,74.1846,-483.699,0,0
313538.725,73.9149,-483.22,0,0
313799.05,73.5721,-482.501,0,0
314059.375,73.2335,-481.886,0,0
314319.7,72.9322,-481.25,0,0
314580,72.5636,-480.626,0,0
314840,72.3047,-479.956,0,0
315101,72.0413,-479.297,0,0
315361,71.6781,-478.68,0,0
315621,71.4057,-478.03,0,0
315882,71.1541,-477.358,0,0
316142,70.8277,-476.771,0,0
316402,70.505,-476.085,0,0
316663,70.2629,-475.448,0,0
316923,70.0007,-474.821,0,0
317183,69.6923,-474.143,0,0
317444,69.4203,-473.529,0,0
317704,69.1379,-472.929,0,0
317964,68.9273,-472.283,0,0
318225,68.5712,-471.679,0,0
318485,68.2822,-471.12,0,0
318745,68.0212,-470.393,0,0
319006,67.7437,-469.764,0,0
319266,67.3846,-469.103,0,0
319526,67.1551,-468.459,0,0
319787,66.7654,-467.836,0,0
320047,66.4883,-467.146,0,0
320307,66.2274,-466.504,0,0
320567,65.871,-465.79,0,0
320828,65.5781,-465.082,0,0
321088,65.2549,-464.401,0,0
321348,65.0746,-463.722,0,0
321609,64.7748,-463.011,0,0
321869,64.4928,-462.297,0,0
322129,64.2568,-461.558,0,0
322390,64.0966,-460.895,0,0
322650,63.8602,-460.174,0,0
322910,63.6129,-459.496,0,0
323171,63.4178,-458.816,0,0
323431,63.2121,-458.124,0,0
323691,62.9969,-457.4,0,0
323952,62.8326,-456.75,0,0
324212,62.6119,-456.136,0,0
324472,62.4219,-455.453,0,0
324733,62.2269,-454.865,0,0
324993,62.0119,-454.143,0,0
325253,61.8282,-453.539,0,0
325514,61.6066,-452.884,0,0
325774,61.3627,-452.292,0,0
326034,61.1324,-451.608,0,0
326295,60.8969,-450.965,0,0
326555,60.6959,-450.197,0,0
326815,60.4752,-449.585,0,0
327076,60.231,-448.936,0,0
327336,60.0254,-448.284,0,0
327596,59.8069,-447.575,0,0
327857,59.5874,-446.951,0,0
328117,59.3962,-446.224,0,0
328377,59.2032,-445.56,0,0
328638,59.0367,-444.865,0,0
328898,58.8533,-444.209,0,0
329158,58.6213,-443.544,0,0
329419,58.4742,-442.844,0,0
329679,58.2689,-442.179,0,0
329939,58.0821,-441.455,0,0
330200,57.935,-440.835,0,0
330460,57.7488,-440.15,0,0
330720.15,57.6201,-439.455,0,0
330980.475,57.433,-438.776,0,0
331240.8,57.2577,-438.113,0,0
331501.125,57.0979,-437.46,0,0
331761.45,56.956,-436.778,0,0
332021.775,56.7834,-436.089,0,0
332282.1,56.603,-435.394,0,0
332542.425,56.4559,-434.742,0,0
332802.75,56.3454,-434.046,0,0
333063.075,56.2114,-433.339,0,0
333323.4,56.0816,-432.625,0,0
333583.725,55.9851,-431.94,0,0
333844.05,55.8286,-431.325,0,0
334104.375,55.7309,-430.608,0,0
334364.7,55.6352,-429.957,0,0
334625.025,55.5007,-429.206,0,0
334885.35,55.4503,-428.564,0,0
335145.675,55.3563,-427.918,0,0
335406.0,55.3064,-427.243,0,0
335666.325,55.2098,-426.597,0,0
335926.65,55.1745,-425.94,0,0
336186.975,55.1122,-425.264,0,0
336447.3,54.9996,-424.647,0,0
336707.625,54.9826,-424.039,0,0
336967.95,54.8987,-423.427,0,0
337228.275,54.8044,-422.826,0,0
337488.6,54.7259,-422.229,0,0
337748.925,54.6467,-421.588,0,0
338009.25,54.63,-420.977,0,0
338269.575,54.5033,-420.383,0,0
338529.9,54.4291,-419.756,0,0
338790.225,54.3567,-419.143,0,0
339050.55,54.2798,-418.53,0,0
339310.875,54.1815,-417.898,0,0
339571.2,54.1161,-417.315,0,0
339831.525,54.0673,-416.644,0,0
340091.85,53.9638,-416.058,0,0
340352.175,53.9553,-415.455,0,0
340612.5,53.8836,-414.803,0,0
340872.825,53.8253,-414.203,0,0
341133.15,53.8293,-413.549,0,0
341393.475,53.7275,-412.947,0,0
341653.8,53.7376,-412.33,0,0
341914.125,53.6936,-411.678,0,0
342174.45,53.7141,-411.085,0,0
342434.775,53.7487,-410.482,0,0
342695.1,53.8034,-409.877,0,0
342955.425,53.8013,-409.318,0,0
343215.75,53.9115,-408.781,0,0
343476.075,53.9432,-408.266,0,0
343736.4,54.013,-407.786,0,0
343996.725,54.0431,-407.366,0,0
344257.05,54.018,-406.959,0,0
344517.375,54.0322,-406.563,0,0
344777.7,53.8969,-406.16,0,0
345038.025,53.794,-405.752,0,0
345298.35,53.6085,-405.306,0,0
345558.675,53.4665,-404.808,0,0
345819.0,53.257,-404.344,0,0
346079.325,53.124,-403.822,0,0
346339.65,52.9612,-403.243,0,0
346599.975,52.7911,-402.697,0,0
346860,52.6545,-402.117,0,0
347121,52.5693,-401.544,0,0
347381,52.3765,-400.931,0,0
347641,52.3217,-400.361,0,0
347902,52.2132,-399.718,0,0
348162,52.13,-399.172,0,0
348422,52.043,-398.564,0,0
348683,51.9488,-397.987,0,0
348943,51.915,-397.379,0,0
349203,51.8401,-396.773,0,0
349464,51.7858,-396.201,0,0
349724,51.7433,-395.623,0,0
349984,51.7423,-395.019,0,0
350245,51.6526,-394.457,0,0
350505,51.603,-393.875,0,0
350765,51.6018,-393.298,0,0
351025,51.5555,-392.74,0,0
351286,51.544,-392.19,0,0
351546,51.5756,-391.626,0,0
351806,51.503,-391.066,0,0
352067,51.5201,-390.453,0,0
352327,51.5472,-389.908,0,0
352587,51.511,-389.378,0,0
352848,51.5314,-388.826,0,0
353108,51.5644,-388.278,0,0
353368,51.5515,-387.788,0,0
353629,51.6006,-387.261,0,0
353889,51.5799,-386.745,0,0
354149,51.5994,-386.29,0,0
354410,51.5797,-385.774,0,0
354670,51.5647,-385.296,0,0
354930,51.5476,-384.813,0,0
355191,51.556,-384.286,0,0
355451,51.519,-383.821,0,0
355711,51.4631,-383.322,0,0
355972,51.4439,-382.839,0,0
356232,51.4139,-382.336,0,0
356492,51.3596,-381.77,0,0
356753,51.3322,-381.288,0,0
357013,51.3195,-380.75,0,0
357273,51.2924,-380.256,0,0
357534,51.2955,-379.714,0,0
357794,51.2682,-379.208,0,0
358054,51.3388,-378.686,0,0
358315,51.3548,-378.141,0,0
358575,51.4025,-377.684,0,0
358835,51.4238,-377.201,0,0
359096,51.4897,-376.72,0,0
359356,51.5037,-376.274,0,0
359616,51.536,-375.798,0,0
359877,51.5468,-375.418,0,0
360137,51.5755,-374.989,0,0
360397,51.5777,-374.524,0,0
360658,51.5849,-374.131,0,0
360918,51.5335,-373.709,0,0
361178,51.4877,-373.288,0,0
361438,51.4988,-372.864,0,0
361699,51.4427,-372.49,0,0
361959,51.4083,-372.024,0,0
362219,51.2949,-371.58,0,0
362480,51.266,-371.168,0,0
362740.1,51.2088,-370.74,0,0
363000.425,51.1505,-370.288,0,0
363260.75,51.0743,-369.852,0,0
363521.075,51.032,-369.394,0,0
363781.4,50.9248,-368.898,0,0
364041.725,50.8577,-368.462,0,0
364302.05,50.78,-367.998,0,0
364562.375,50.7179,-367.494,0,0
364822.7,50.6563,-367.03,0,0
365083.025,50.6356,-366.556,0,0
365343.35,50.5564,-366.045,0,0
365603.675,50.4955,-365.56,0,0
365864.0,50.452,-365.04,0,0
366124.325,50.4246,-364.563,0,0
366384.65,50.3982,-364.079,0,0
366644.975,50.3509,-363.574,0,0
366905.3,50.3111,-363.127,0,0
367165.625,50.2927,-362.594,0,0
367425.95,50.3037,-362.136,0,0
367686.275,50.2784,-361.648,0,0
367946.6,50.2462,-361.202,0,0
368206.925,50.207,-360.694,0,0
368467.25,50.1716,-360.198,0,0
368727.575,50.1852,-359.729,0,0
368987.9,50.1536,-359.243,0,0
369248.225,50.1501,-358.79,0,0
369508.55,50.1581,-358.234,0,0
369768.875,50.1199,-357.765,0,0
370029.2,50.1456,-357.31,0,0
370289.525,50.1504,-356.8,0,0
370549.85,50.1716,-356.332,0,0
370810.175,50.1647,-355.826,0,0
371070.5,50.1579,-355.369,0,0
371330.825,50.2411,-354.875,0,0
371591.15,50.2651,-354.413,0,0
371851.475,50.2978,-353.962,0,0
372111.8,50.363,-353.509,0,0
372372.125,50.437,-353.042,0,0
372632.45,50.515,-352.627,0,0
372892.775,50.5934,-352.218,0,0
373153.1,50.6567,-351.843,0,0
373413.425,50.709,-351.406,0,0
373673.75,50.7624,-351.053,0,0
373934.075,50.8219,-350.767,0,0
374194.4,50.8635,-350.449,0,0
374454.725,50.8586,-350.176,0,0
374715.05,50.8508,-349.862,0,0
374975.375,50.7551,-349.564,0,0
375235.7,50.7003,-349.266,0,0
375496.025,50.5609,-348.912,0,0
375756.35,50.4992,-348.601,0,0
376016.675,50.3235,-348.226,0,0
376277.0,50.2188,-347.841,0,0
376537.325,50.1037,-347.414,0,0
376797.65,49.9586,-347.019,0,0
377057.975,49.8341,-346.595,0,0
377318.3,49.7366,-346.208,0,0
377578.625,49.6121,-345.751,0,0
377838.95,49.518,-345.324,0,0
378099.275,49.3945,-344.908,0,0
378359.6,49.3344,-344.439,0,0
378619.925,49.2013,-344.002,0,0
378880,49.077,-343.566,0,0
379141,48.949,-343.132,0,0
379401,48.8128,-342.648,0,0
379661,48.7051,-342.184,0,0
379922,48.6025,-341.679,0,0
380182,48.4474,-341.216,0,0
380442,48.3455,-340.685,0,0
380703,48.1844,-340.165,0,0
380963,48.0972,-339.647,0,0
381223,47.9806,-339.127,0,0
381483,47.9015,-338.534,0,0
381744,47.8428,-337.978,0,0
382004,47.8148,-337.396,0,0
382264,47.7404,-336.794,0,0
382525,47.7702,-336.235,0,0
382785,47.8188,-335.637,0,0
383045,47.8493,-335.108,0,0
383306,47.9598,-334.626,0,0
383566,48.0356,-334.152,0,0
383826,48.1067,-333.754,0,0
384087,48.1594,-333.325,0,0
384347,48.1677,-332.992,0,0
384607,48.1195,-332.548,0,0
384868,48.1015,-332.17,0,0
385128,48.0394,-331.745,0,0
385388,47.9675,-331.31,0,0
385649,47.8969,-330.878,0,0
385909,47.8069,-330.403,0,0
386169,47.7309,-329.968,0,0
386430,47.6315,-329.471,0,0
386690,47.5786,-329.004,0,0
386950,47.5561,-328.545,0,0
387211,47.46,-328.019,0,0
387471,47.3854,-327.52,0,0
387731,47.3183,-327.022,0,0
387992,47.2899,-326.526,0,0
388252,47.1975,-325.984,0,0
388512,47.1663,-325.504,0,0
388773,47.1354,-324.979,0,0
389033,47.0545,-324.443,0,0
389293,47.054,-323.917,0,0
389554,46.996,-323.417,0,0
389814,46.9536,-322.864,0,0
390074,46.9334,-322.316,0,0
390335,46.9282,-321.805,0,0
390595,46.8883,-321.3,0,0
390855,46.8833,-320.786,0,0
391116,46.8736,-320.242,0,0
391376,46.8784,-319.726,0,0
391636,46.8751,-319.182,0,0
391896,46.8629,-318.674,0,0
392157,46.8522,-318.134,0,0
392417,46.858,-317.622,0,0
392677,46.8416,-317.091,0,0
392938,46.8455,-316.559,0,0
393198,46.8758,-316.02,0,0
393458,46.8347,-315.511,0,0
393719,46.851,-314.976,0,0
393979,46.8842,-314.461,0,0
394239,46.8929,-313.918,0,0
394500,46.8932,-313.398,0,0
394760.05,46.9157,-312.853,0,0
395020.375,46.9255,-312.314,0,0
395280.7,46.8822,-311.831,0,0
395541.025,46.9633,-311.245,0,0
395801.35,46.986,-310.695,0,0
396061.675,47.0572,-310.135,0,0
396322.0,47.0394,-309.622,0,0
396582.325,47.0653,-309.1,0,0
396842.65,47.1181,-308.519,0,0
397102.975,47.1354,-308.026,0,0
397363.3,47.1407,-307.501,0,0
397623.625,47.1834,-306.945,0,0
397883.95,47.2346,-306.413,0,0
398144.275,47.2584,-305.897,0,0
398404.6,47.3286,-305.354,0,0
398664.925,47.3826,-304.8,0,0
398925.25,47.4188,-304.253,0,0
399185.575,47.4679,-303.73,0,0
399445.9,47.5057,-303.184,0,0
399706.225,47.5555,-302.677,0,0
399966.55,47.6615,-302.109,0,0
400006.6,47.6019,-302.069,0,0