File: Accelerated corrosion test data/2025-10-07_06-00-03/sample_7.csv
Frequency (Hz),Impedance (ohms),Phase (Radians),Temperature (C),Humidity (%)
10000.0,274.327,-12089.3,0,0
10260.325,271.548,-11798.2,0,0
10520.65,258.41,-11499.4,0,0
10780.975,252.798,-11217.7,0,0
11041.3,250.426,-10950.5,0,0
11301.625,247.025,-10694,0,0
11561.95,249.721,-10445.7,0,0
11822.275,259.605,-10215.2,0,0
12082.6,266.323,-9994.08,0,0
12342.925,323.408,-9823.52,0,0
12603.25,259.379,-9646.38,0,0
12863.575,271.4,-9453.55,0,0
13123.9,237.922,-9274.25,0,0
13384.225,230.786,-9097.79,0,0
13644.55,225.243,-8915.82,0,0
13904.875,209.323,-8749.82,0,0
14165.2,208.068,-8579.84,0,0
14425.525,206.042,-8439.19,0,0
14685.8,204.398,-8289.2,0,0
14946.175,198.605,-8141.31,0,0
15206.5,196.782,-8011.66,0,0
15466.825,186.201,-7869.9,0,0
15727.15,183.919,-7742.39,0,0
15987.5,179.698,-7612.58,0,0
16247.8,179.303,-7493.84,0,0
16508.125,171.683,-7371.9,0,0
16768.45,172.008,-7253.45,0,0
17028.775,170.704,-7143.09,0,0
17289.1,166.573,-7034.76,0,0
17549.425,166.432,-6925.58,0,0
17809.75,170.162,-6815.6,0,0
18070.075,170.562,-6720.14,0,0
18330.4,179,-6613.69,0,0
18590.725,200.575,-6530.18,0,0
18851.05,191.972,-6459.98,0,0
19111.375,183.408,-6380.17,0,0
19371.7,204.518,-6304.35,0,0
19632.025,170.212,-6235.13,0,0
19892.35,157.452,-6136.99,0,0
20152.675,168.31,-6054.08,0,0
20413.0,170.163,-5978.84,0,0
20673.3,170.145,-5901.31,0,0
20933.65,178.75,-5842.05,0,0
21193.975,160.552,-5780.46,0,0
21454.3,152.133,-5706.89,0,0
21714.625,155.476,-5637.52,0,0
21974.9,146.822,-5575.3,0,0
22235.275,141.509,-5506.97,0,0
22495.6,140.536,-5443.33,0,0
22755.925,134.804,-5380.69,0,0
23016.25,130.827,-5316.85,0,0
23276.6,128.817,-5254.23,0,0
23536.9,129.48,-5193.58,0,0
23797.225,128.372,-5138.5,0,0
24057.55,124.962,-5081.21,0,0
24317.875,123.506,-5024.21,0,0
24578.2,123.992,-4968.96,0,0
24838.525,121.951,-4915.5,0,0
25098.85,121.806,-4863.7,0,0
25359.175,120.757,-4811.93,0,0
25619.5,119.633,-4760.52,0,0
25879.8,119.532,-4710.25,0,0
26140.1,119.909,-4658.39,0,0
26400.5,124.478,-4609.67,0,0
26660.8,123.653,-4565.49,0,0
26921.1,123.811,-4515.01,0,0
27181.4,129.432,-4467.08,0,0
27441.8,134.032,-4422.89,0,0
27702.1,144.933,-4375.23,0,0
27962.4,160.333,-4334.03,0,0
28222.7,181.239,-4310.88,0,0
28483.1,178.399,-4292.33,0,0
28743.4,175.642,-4274.23,0,0
29003.7,159.556,-4245.45,0,0
29264,144.041,-4209.5,0,0
29524.4,136.497,-4168.7,0,0
29784.7,131.474,-4130.67,0,0
30045,128.664,-4087.8,0,0
30305.3,131.782,-4050.73,0,0
30565.7,133.265,-4018.28,0,0
30826,134.84,-3986.79,0,0
31086.3,135.916,-3957.82,0,0
31346.6,131.839,-3930.18,0,0
31607,129.524,-3903.49,0,0
31867.3,121.977,-3873.22,0,0
32127.6,117.817,-3841.39,0,0
32387.9,114.459,-3810.46,0,0
32648.3,111.118,-3780,0,0
32908.6,107.814,-3749.26,0,0
33168.9,105.03,-3719.81,0,0
33429.2,102.099,-3689.67,0,0
33689.6,99.5115,-3659.57,0,0
33949.9,97.7279,-3630.57,0,0
34210.2,95.8806,-3602.13,0,0
34470.5,93.8907,-3573.28,0,0
34730.9,92.9403,-3545.31,0,0
34991.2,92.0022,-3517.58,0,0
35251.5,90.634,-3490.85,0,0
35511.8,89.5699,-3463.82,0,0
35772.2,89.0913,-3437.43,0,0
36032.5,88.9704,-3411.57,0,0
36292.8,88.243,-3386.59,0,0
36553.1,87.3276,-3361.38,0,0
36813.5,86.7246,-3336.66,0,0
37073.8,86.5673,-3312.08,0,0
37334.1,86.3933,-3287.81,0,0
37594.4,86.1685,-3264.51,0,0
37854.8,85.5429,-3240.98,0,0
38115.1,85.3229,-3217.1,0,0
38375.4,85.9296,-3194.1,0,0
38635.7,86.8057,-3170.94,0,0
38896.1,88.3401,-3148.54,0,0
39156.4,90.0583,-3127.37,0,0
39416.7,92.4229,-3105.98,0,0
39677,95.9051,-3086.95,0,0
39937.4,97.5621,-3070.84,0,0
40197.7,97.6623,-3054.52,0,0
40458,95.4801,-3038.65,0,0
40718.3,92.7028,-3020.78,0,0
40978.7,89.4205,-3002.53,0,0
41239,87.0261,-2983.47,0,0
41499.3,85.1406,-2963.89,0,0
41759.6,84.0139,-2944.77,0,0
42020,82.5216,-2926.2,0,0
42280.275,80.8806,-2906.92,0,0
42540.6,80.4303,-2887.59,0,0
42800.925,80.8623,-2869.05,0,0
43061.25,80.272,-2851.33,0,0
43321.575,81.3535,-2834.32,0,0
43581.9,79.5749,-2816.86,0,0
43842.225,79.6677,-2798.89,0,0
44102.55,81.0088,-2781.6,0,0
44362.875,82.6238,-2765.84,0,0
44623.2,82.2253,-2750.5,0,0
44883.525,81.8837,-2736.53,0,0
45143.85,80.5683,-2721.27,0,0
45404.175,78.928,-2705.13,0,0
45664.5,79.8297,-2688.65,0,0
45924.825,80.5418,-2675.04,0,0
46185.15,79.3595,-2661.62,0,0
46445.475,77.894,-2648.12,0,0
46705.8,75.3172,-2633.92,0,0
46966.125,73.1738,-2618.1,0,0
47226.45,71.7898,-2602.43,0,0
47486.775,71.455,-2587.1,0,0
47747.1,71.2321,-2572.17,0,0
48007.425,70.7027,-2558.08,0,0
48267.75,70.2766,-2543.72,0,0
48528.075,69.6253,-2530.15,0,0
48788.4,68.9699,-2515.99,0,0
49048.725,68.3435,-2502.15,0,0
49309.05,68.0079,-2488.28,0,0
49569.375,67.4783,-2474.79,0,0
49829.7,67.0582,-2461.36,0,0
50090.025,66.8764,-2448.04,0,0
50350.35,66.3359,-2435.04,0,0
50610.675,65.9032,-2422.02,0,0
50871.0,65.687,-2409.32,0,0
51131.325,65.4627,-2396.52,0,0
51391.65,65.0133,-2383.77,0,0
51651.975,64.6429,-2371.43,0,0
51912.3,64.5197,-2358.97,0,0
52172.625,64.2697,-2346.67,0,0
52432.95,64.0801,-2334.88,0,0
52693.275,63.8762,-2322.79,0,0
52953.6,63.8164,-2310.88,0,0
53213.925,63.7022,-2299.37,0,0
53474.25,63.5813,-2288.1,0,0
53734.575,63.1144,-2276.8,0,0
53994.9,62.7621,-2265.33,0,0
54255.225,62.5751,-2253.95,0,0
54515.55,62.2891,-2242.95,0,0
54775.875,62.0437,-2231.85,0,0
55036.2,61.7871,-2220.85,0,0
55296.525,61.4871,-2209.98,0,0
55556.85,61.2369,-2199.17,0,0
55817.175,61.2567,-2188.53,0,0
56077.5,60.9068,-2177.96,0,0
56337.825,60.8036,-2167.48,0,0
56598.15,60.8041,-2157.3,0,0
56858.475,60.5837,-2146.99,0,0
57118.8,60.4621,-2136.83,0,0
57379.125,60.1425,-2126.7,0,0
57639.45,59.9264,-2116.63,0,0
57899.775,59.7548,-2106.6,0,0
58160.1,59.852,-2096.5,0,0
58420.4,60.1259,-2086.69,0,0
58680.7,60.2585,-2077.41,0,0
58941.1,60.1668,-2068.15,0,0
59201.4,59.8538,-2058.74,0,0
59461.7,60.1303,-2049.11,0,0
59722,60.2577,-2040.24,0,0
59982.4,60.193,-2031.38,0,0
60242.7,60.1729,-2022.5,0,0
60503,59.8117,-2013.98,0,0
60763.3,59.4958,-2005.31,0,0
61023.7,59.0541,-1996.6,0,0
61284,58.6487,-1987.88,0,0
61544.3,58.4771,-1979.21,0,0
61804.6,57.8828,-1970.74,0,0
62065,57.4342,-1962,0,0
62325.3,57.1256,-1953.3,0,0
62585.6,56.889,-1944.74,0,0
62845.9,56.7511,-1936.27,0,0
63106.3,56.3618,-1927.82,0,0
63366.6,56.3465,-1919.35,0,0
63626.9,56.3651,-1911.27,0,0
63887.2,55.9607,-1903.28,0,0
64147.6,55.6822,-1895.04,0,0
64407.9,55.5256,-1886.81,0,0
64668.2,55.3631,-1878.78,0,0
64928.5,55.33,-1870.59,0,0
65188.9,55.3563,-1862.66,0,0
65449.2,55.6152,-1854.95,0,0
65709.5,55.6461,-1847.65,0,0
65969.8,55.525,-1840.2,0,0
66230.2,55.2056,-1832.86,0,0
66490.5,54.8784,-1825.51,0,0
66750.8,54.5655,-1818.15,0,0
67011.1,54.096,-1810.81,0,0
67271.5,53.7013,-1803.39,0,0
67531.8,53.3755,-1796.08,0,0
67792.1,53.0684,-1788.56,0,0
68052.4,52.9347,-1781.23,0,0
68312.8,52.531,-1773.81,0,0
68573.1,52.6914,-1766.69,0,0
68833.4,52.3334,-1759.46,0,0
69093.7,52.267,-1752.2,0,0
69354.1,52.1303,-1745.14,0,0
69614.4,52.0787,-1738.21,0,0
69874.7,52.1334,-1731.22,0,0
70135,52.046,-1724.47,0,0
70395.4,51.9459,-1717.67,0,0
70655.7,51.9274,-1710.83,0,0
70916,51.9602,-1704.32,0,0
71176.3,51.8634,-1697.84,0,0
71436.7,51.5953,-1691.35,0,0
71697,51.3911,-1685.02,0,0
71957.3,51.1313,-1678.5,0,0
72217.6,50.778,-1672.01,0,0
72478,50.6747,-1665.52,0,0
72738.3,50.5271,-1659.04,0,0
72998.6,50.3357,-1652.67,0,0
73258.9,50.1572,-1646.26,0,0
73519.3,50.0551,-1639.89,0,0
73779.6,49.8519,-1633.64,0,0
74039.9,49.7842,-1627.37,0,0
74300.225,49.6299,-1621.16,0,0
74560.55,49.5621,-1615.02,0,0
74820.875,49.428,-1608.91,0,0
75081.2,49.2888,-1602.8,0,0
75341.525,49.258,-1596.82,0,0
75601.85,49.1785,-1590.87,0,0
75862.175,49.0154,-1584.86,0,0
76122.5,48.9683,-1578.97,0,0
76382.825,48.8644,-1573,0,0
76643.15,48.8237,-1567.15,0,0
76903.475,48.7243,-1561.35,0,0
77163.8,48.6417,-1555.55,0,0
77424.125,48.6406,-1549.88,0,0
77684.45,48.5202,-1544.14,0,0
77944.775,48.512,-1538.53,0,0
78205.1,48.4007,-1532.85,0,0
78465.425,48.3452,-1527.3,0,0
78725.75,48.2946,-1521.73,0,0
78986.075,48.2881,-1516.21,0,0
79246.4,48.1682,-1510.73,0,0
79506.725,48.1916,-1505.16,0,0
79767.05,48.1758,-1499.85,0,0
80027.375,48.0786,-1494.46,0,0
80287.7,48.035,-1489.1,0,0
80548.025,48.0333,-1483.88,0,0
80808.35,47.9763,-1478.58,0,0
81068.675,47.8974,-1473.27,0,0
81329.0,47.7805,-1468,0,0
81589.325,47.8429,-1462.85,0,0
81849.65,47.6987,-1457.62,0,0
82109.975,47.7128,-1452.46,0,0
82370.3,47.6526,-1447.25,0,0
82630.625,47.7136,-1442.16,0,0
82890.95,47.752,-1437.17,0,0
83151.275,47.629,-1432.17,0,0
83411.6,47.5403,-1427.03,0,0
83671.925,47.5184,-1422,0,0
83932.25,47.5965,-1417.07,0,0
84192.575,47.5882,-1412.09,0,0
84452.9,47.7128,-1407.22,0,0
84713.225,47.7782,-1402.38,0,0
84973.55,47.8052,-1397.53,0,0
85233.875,47.817,-1392.75,0,0
85494.2,47.908,-1388.04,0,0
85754.525,47.7724,-1383.35,0,0
86014.85,47.7369,-1378.49,0,0
86275.175,47.8158,-1373.81,0,0
86535.5,47.8757,-1369.22,0,0
86795.825,47.811,-1364.56,0,0
87056.15,47.8273,-1359.82,0,0
87316.475,47.9325,-1355.3,0,0
87576.8,47.9981,-1350.75,0,0
87837.125,47.9916,-1346.17,0,0
88097.45,48.1189,-1341.69,0,0
88357.775,48.0199,-1337.4,0,0
88618.1,48.0248,-1332.9,0,0
88878.425,47.9707,-1328.38,0,0
89138.75,47.9339,-1323.91,0,0
89399.075,47.9028,-1319.5,0,0
89659.4,47.8787,-1315.03,0,0
89919.725,47.9459,-1310.54,0,0
90180,47.9738,-1306.14,0,0
90440.4,47.9814,-1301.64,0,0
90700.7,48.2087,-1297.33,0,0
90961,48.2066,-1293.04,0,0
91221.3,48.4267,-1288.71,0,0
91481.7,48.4771,-1284.44,0,0
91742,48.5606,-1280.23,0,0
92002.3,48.6616,-1275.95,0,0
92262.6,48.836,-1271.85,0,0
92523,48.9022,-1267.71,0,0
92783.3,48.7921,-1263.57,0,0
93043.6,48.7851,-1259.26,0,0
93303.9,49.0275,-1254.92,0,0
93564.3,49.2645,-1250.62,0,0
93824.6,49.6816,-1246.23,0,0
94084.9,50.4691,-1242.15,0,0
94345.2,51.1648,-1238.63,0,0
94605.6,51.5233,-1235.4,0,0
94865.9,51.4295,-1231.95,0,0
95126.2,51.4083,-1228.22,0,0
95386.5,51.4731,-1224.78,0,0
95646.9,50.9831,-1221.3,0,0
95907.2,50.5547,-1217.4,0,0
96167.5,50.3656,-1213.36,0,0
96427.8,50.1849,-1209.43,0,0
96688.2,50.1683,-1205.33,0,0
96948.5,50.178,-1201.48,0,0
97208.8,50.1897,-1197.6,0,0
97469.1,50.1254,-1193.6,0,0
97729.5,50.2284,-1189.54,0,0
97989.8,50.4836,-1185.64,0,0
98250.1,50.7024,-1181.88,0,0
98510.4,51.1617,-1178.09,0,0
98770.8,51.1533,-1174.77,0,0
99031.1,50.9848,-1171.22,0,0
99291.4,50.9114,-1167.42,0,0
99551.7,50.7815,-1163.68,0,0
99812.1,50.6341,-1159.6,0,0
100072,50.857,-1155.57,0,0
100333,51.2303,-1151.66,0,0
100593,51.5674,-1148.1,0,0
100853,51.739,-1144.36,0,0
101114,52.0494,-1140.59,0,0
101374,52.4295,-1136.97,0,0
101634,52.6321,-1133.47,0,0
101895,52.9142,-1129.82,0,0
102155,53.2089,-1126.11,0,0
102415,53.6134,-1122.4,0,0
102676,54.2285,-1118.95,0,0
102936,54.6099,-1115.49,0,0
103196,55.1988,-1112.01,0,0
103457,55.6805,-1108.7,0,0
103717,56.4973,-1105.54,0,0
103977,56.8986,-1102.88,0,0
104238,56.7894,-1099.83,0,0
104498,57.0639,-1096.56,0,0
104758,57.5075,-1093.52,0,0
105019,57.6177,-1090.84,0,0
105279,57.3284,-1087.8,0,0
105539,57.2539,-1084.47,0,0
105800,57.3128,-1081.16,0,0
106060,57.4071,-1078.13,0,0
106320.175,57.2118,-1074.75,0,0
106580.5,57.274,-1071.26,0,0
106840.825,57.6089,-1067.72,0,0
107101.15,58.0821,-1064.5,0,0
107361.475,58.2709,-1061.59,0,0
107621.8,58.3217,-1058.4,0,0
107882.125,58.518,-1055.14,0,0
108142.45,58.7394,-1051.98,0,0
108402.775,58.9273,-1048.88,0,0
108663.1,59.105,-1045.73,0,0
108923.425,59.1923,-1042.69,0,0
109183.75,59.2412,-1039.43,0,0
109444.075,59.3445,-1036.28,0,0
109704.4,59.3098,-1033,0,0
109964.725,59.3948,-1029.59,0,0
110225.05,59.4543,-1026.1,0,0
110485.375,59.7064,-1022.41,0,0
110745.7,60.3782,-1018.8,0,0
111006.025,61.1984,-1015.27,0,0
111266.35,61.9259,-1012.24,0,0
111526.675,62.5305,-1009.01,0,0
111787.0,63.0363,-1005.76,0,0
112047.325,63.8103,-1002.48,0,0
112307.65,64.5286,-999.299,0,0
112567.975,65.3983,-996.14,0,0
112828.3,66.2664,-992.953,0,0
113088.625,67.4122,-989.874,0,0
113348.95,68.7044,-987.127,0,0
113609.275,69.5672,-984.567,0,0
113869.6,70.3821,-981.769,0,0
114129.925,71.4556,-979,0,0
114390.25,72.5285,-976.361,0,0
114650.575,73.5967,-973.9,0,0
114910.9,74.3885,-971.25,0,0
115171.225,75.5111,-968.495,0,0
115431.55,76.8192,-966.021,0,0
115691.875,78.13,-963.492,0,0
115952.2,79.8004,-961.183,0,0
116212.525,81.5164,-959.211,0,0
116472.85,83.2068,-957.666,0,0
116733.175,84.7263,-956.475,0,0
116993.5,85.7574,-955.575,0,0
117253.825,86.3874,-954.417,0,0
117514.15,87.1742,-953.206,0,0
117774.475,87.7748,-952.176,0,0
118034.8,88.1898,-950.902,0,0
118295.125,88.7983,-949.446,0,0
118555.45,89.8891,-948.29,0,0
118815.775,90.8915,-947.926,0,0
119076.1,91.1972,-947.829,0,0
119336.425,91.1197,-947.668,0,0
119596.75,90.8475,-947.547,0,0
119857.075,90.1768,-947.596,0,0
120117.4,88.9674,-947.561,0,0
120377.725,87.382,-947.239,0,0
120638.05,85.3191,-946.662,0,0
120898.375,83.139,-945.389,0,0
121158.7,80.7932,-943.867,0,0
121419.025,78.3845,-941.567,0,0
121679.35,76.7198,-938.792,0,0
121939.675,75.4943,-936.368,0,0
122200.0,74.0747,-934.01,0,0
122460,72.7676,-931.495,0,0
122721,71.4614,-929.003,0,0
122981,70.1728,-926.455,0,0
123241,68.9763,-923.767,0,0
123502,67.7082,-921.061,0,0
123762,66.5284,-917.943,0,0
124022,65.8365,-914.821,0,0
124283,65.2358,-912.072,0,0
124543,64.4772,-909.261,0,0
124803,63.9624,-906.407,0,0
125064,63.5176,-903.978,0,0
125324,62.6213,-901.612,0,0
125584,61.5301,-898.842,0,0
125845,60.6466,-895.864,0,0
126105,59.9964,-892.954,0,0
126365,59.3129,-890.085,0,0
126626,58.5538,-887.118,0,0
126886,57.9308,-884.021,0,0
127146,57.2701,-881.055,0,0
127406,56.7687,-877.829,0,0
127667,56.5852,-874.722,0,0
127927,56.3234,-871.81,0,0
128187,56.0455,-868.934,0,0
128448,55.742,-866.054,0,0
128708,55.453,-863.13,0,0
128968,55.1306,-860.22,0,0
129229,54.8936,-857.226,0,0
129489,54.8505,-854.373,0,0
129749,54.5789,-851.641,0,0
130010,54.168,-848.741,0,0
130270,53.9631,-845.714,0,0
130530,53.838,-842.74,0,0
130791,53.7167,-839.891,0,0
131051,53.5675,-837.066,0,0
131311,53.2488,-834.241,0,0
131572,52.9552,-831.17,0,0
131832,52.854,-828.092,0,0
132092,52.7846,-824.999,0,0
132353,52.7004,-821.921,0,0
132613,52.7413,-818.746,0,0
132873,52.8673,-815.651,0,0
133134,52.975,-812.592,0,0
133394,53.1403,-809.461,0,0
133654,53.3809,-806.286,0,0
133915,53.7554,-803.06,0,0
134175,54.2679,-799.932,0,0
134435,55.0211,-796.766,0,0
134696,55.8887,-794.035,0,0
134956,56.4537,-791.418,0,0
135216,57.059,-788.554,0,0
135477,57.8803,-785.736,0,0
135737,58.8358,-783.011,0,0
135997,60.0831,-780.507,0,0
136258,61.4392,-778.625,0,0
136518,62.2713,-777.237,0,0
136778,62.6831,-775.778,0,0
137039,62.8053,-774.382,0,0
137299,62.432,-772.742,0,0
137559,62.0148,-770.658,0,0
137819,61.7664,-768.456,0,0
138080,61.5261,-766.277,0,0
138340.125,61.1868,-764.034,0,0
138600.45,60.7028,-761.573,0,0
138860.775,60.3031,-758.928,0,0
139121.1,60.0314,-756.057,0,0
139381.425,60.0576,-753.168,0,0
139641.75,60.2228,-750.458,0,0
139902.075,60.3769,-747.783,0,0
140162.4,60.5729,-745.103,0,0
140422.725,60.8008,-742.631,0,0
140683.05,60.8097,-740.167,0,0
140943.375,60.7798,-737.547,0,0
141203.7,60.8359,-734.887,0,0
141464.025,60.8962,-732.199,0,0
141724.35,60.9065,-729.433,0,0
141984.675,61.0695,-726.522,0,0
142245.0,61.4093,-723.702,0,0
142505.325,61.7154,-720.964,0,0
142765.65,62.028,-718.206,0,0
143025.975,62.4058,-715.438,0,0
143286.3,62.8234,-712.668,0,0
143546.625,63.4357,-709.958,0,0
143806.95,64.0472,-707.482,0,0
144067.275,64.548,-705.113,0,0
144327.6,64.8914,-702.747,0,0
144587.925,65.169,-700.311,0,0
144848.25,65.3795,-697.832,0,0
145108.575,65.6964,-695.229,0,0
145368.9,66.0113,-692.754,0,0
145629.225,66.2887,-690.288,0,0
145889.55,66.4119,-687.826,0,0
146149.875,66.4756,-685.135,0,0
146410.2,66.7482,-682.326,0,0
146670.525,67.1468,-679.615,0,0
146930.85,67.5307,-677.015,0,0
147191.175,67.8766,-674.414,0,0
147451.5,68.1664,-671.828,0,0
147711.825,68.3697,-669.142,0,0
147972.15,68.7081,-666.363,0,0
148232.475,69.1539,-663.754,0,0
148492.8,69.4247,-661.188,0,0
148753.125,69.62,-658.613,0,0
149013.45,69.724,-655.998,0,0
149273.775,69.65,-653.237,0,0
149534.1,69.6477,-650.181,0,0
149794.425,69.8013,-647.05,0,0
150054.75,70.0171,-643.931,0,0
150315.075,70.2438,-640.788,0,0
150575.4,70.4865,-637.538,0,0
150835.725,70.7924,-634.192,0,0
151096.05,71.16,-630.793,0,0
151356.375,71.5964,-627.275,0,0
151616.7,72.1748,-623.684,0,0
151877.025,72.9191,-620.092,0,0
152137.35,73.7426,-616.522,0,0
152397.675,74.5822,-612.94,0,0
152658.0,75.5513,-609.283,0,0
152918.325,76.7077,-605.643,0,0
153178.65,77.9335,-602.108,0,0
153438.975,79.178,-598.63,0,0
153699.3,80.3924,-595.161,0,0
153959.625,81.6177,-591.526,0,0
154219.95,83.0409,-587.806,0,0
154480,84.6651,-584.096,0,0
154741,86.4737,-580.498,0,0
155001,88.3012,-577.02,0,0
155261,90.1874,-573.522,0,0
155522,92.1768,-570.042,0,0
155782,94.3051,-566.624,0,0
156042,96.5471,-563.245,0,0
156303,98.9215,-560.026,0,0
156563,101.344,-556.953,0,0
156823,103.799,-553.969,0,0
157084,106.257,-551.041,0,0
157344,108.879,-548.174,0,0
157604,111.655,-545.516,0,0
157864,114.361,-543.215,0,0
158125,116.909,-541.048,0,0
158385,119.381,-538.948,0,0
158645,121.856,-537.025,0,0
158906,124.108,-535.504,0,0
159166,125.826,-534.056,0,0
159426,127.187,-532.391,0,0
159687,128.23,-530.53,0,0
159947,129.016,-528.388,0,0
160207,129.665,-525.802,0,0
160468,130.248,-522.753,0,0
160728,130.99,-519.316,0,0
160988,131.804,-515.522,0,0
161249,132.785,-511.202,0,0
161509,134.279,-506.387,0,0
161769,136.45,-501.407,0,0
162030,139.129,-496.529,0,0
162290,142.207,-491.721,0,0
162550,145.617,-487.118,0,0
162811,149.126,-482.639,0,0
163071,152.84,-478,0,0
163331,156.991,-473.253,0,0
163592,161.783,-468.601,0,0
163852,167.112,-464.502,0,0
164112,172.39,-460.971,0,0
164373,177.458,-457.577,0,0
164633,182.546,-454,0,0
164893,188.101,-450.421,0,0
165154,193.832,-447.255,0,0
165414,199.327,-444.156,0,0
165674,204.803,-440.656,0,0
165935,210.799,-436.635,0,0
166195,217.78,-432.356,0,0
166455,225.988,-428.311,0,0
166716,235.21,-425.221,0,0
166976,244.6,-423.227,0,0
167236,254.135,-421.812,0,0
167497,264.056,-420.921,0,0
167757,274.189,-420.89,0,0
168017,284.518,-421.452,0,0
168277,295.112,-422.736,0,0
168538,306.166,-425.126,0,0
168798,317.068,-428.944,0,0
169058,327.131,-433.818,0,0
169319,336.799,-439.483,0,0
169579,345.376,-445.886,0,0
169839,353.145,-452.056,0,0
170100,361.232,-458.085,0,0
170360.075,369.9,-465.006,0,0
170620.4,378.484,-473.731,0,0
170880.725,385.469,-484.067,0,0
171141.05,390.498,-494.518,0,0
171401.375,394.67,-504.405,0,0
171661.7,398.503,-514.426,0,0
171922.025,401.679,-524.437,0,0
172182.35,405.048,-534.747,0,0
172442.675,408.08,-546.834,0,0
172703.0,408.354,-560.39,0,0
172963.325,406.215,-572.837,0,0
173223.65,402.98,-584.627,0,0
173483.975,398.156,-595.621,0,0
173744.3,392.276,-605.403,0,0
174004.625,385.654,-614.266,0,0
174264.95,377.772,-622.225,0,0
174525.275,368.728,-628.108,0,0
174785.6,359.638,-631.734,0,0
175045.925,351.339,-633.516,0,0
175306.25,344.11,-634.171,0,0
175566.575,337.501,-634.11,0,0
175826.9,331.193,-632.827,0,0
176087.225,326.531,-629.805,0,0
176347.55,324.317,-626.531,0,0
176607.875,323.939,-624.049,0,0
176868.2,324.714,-622.839,0,0
177128.525,325.762,-622.6,0,0
177388.85,327.443,-622.969,0,0
177649.175,329.571,-624.256,0,0
177909.5,332.452,-626.393,0,0
178169.825,336.113,-630.635,0,0
178430.15,338.998,-637.718,0,0
178690.475,339.44,-646.818,0,0
178950.8,336.821,-656.321,0,0
179211.125,331.709,-664.543,0,0
179471.45,325.5,-671.223,0,0
179731.775,318.836,-676.617,0,0
179992.1,311.737,-680.87,0,0
180252.425,305.128,-683.85,0,0
180512.75,299.392,-686.708,0,0
180773.075,293.56,-690.392,0,0
181033.4,286.802,-694.414,0,0
181293.725,278.649,-698.264,0,0
181554.05,269.055,-700.784,0,0
181814.375,259.292,-701.31,0,0
182074.7,250.205,-700.738,0,0
182335.025,241.335,-699.71,0,0
182595.35,232.251,-697.884,0,0
182855.675,223.361,-694.73,0,0
183116.0,215.406,-690.281,0,0
183376.325,208.949,-685.497,0,0
183636.65,203.207,-681.253,0,0
183896.975,197.333,-677.017,0,0
184157.3,191.622,-672.033,0,0
184417.625,186.804,-666.553,0,0
184677.95,182.959,-661.033,0,0
184938.275,180.052,-656.108,0,0
185198.6,177.088,-652.111,0,0
185458.925,173.594,-648.295,0,0
185719.25,169.781,-644.231,0,0
185979.575,165.762,-639.626,0,0
186239.9,162.081,-634.237,0,0
186500,159.14,-628.479,0,0
186761,156.912,-622.737,0,0
187021,155.117,-617.216,0,0
187281,153.623,-611.778,0,0
187542,152.554,-606.316,0,0
187802,152.063,-601,0,0
188062,152.216,-596.188,0,0
188322,152.664,-592.293,0,0
188583,152.785,-589.338,0,0
188843,152,-586.935,0,0
189103,150.28,-584.247,0,0
189364,148.116,-580.917,0,0
189624,146.006,-576.873,0,0
189884,144.192,-572.525,0,0
190145,142.542,-567.933,0,0
190405,141.153,-563.021,0,0
190665,140.087,-558.132,0,0
190926,139.057,-553.113,0,0
191186,138.284,-547.703,0,0
191446,138.25,-542.295,0,0
191707,138.512,-537.371,0,0
191967,138.664,-532.629,0,0
192227,138.791,-527.883,0,0
192488,138.927,-523.005,0,0
192748,139.204,-518.042,0,0
193008,139.704,-512.979,0,0
193269,140.402,-507.913,0,0
193529,141.37,-502.859,0,0
193789,142.501,-497.918,0,0
194050,143.715,-493.041,0,0
194310,145.034,-488.105,0,0
194570,146.59,-483.077,0,0
194831,148.515,-478.101,0,0
195091,150.798,-473.393,0,0
195351,153.078,-469.049,0,0
195612,155.3,-464.898,0,0
195872,157.407,-460.73,0,0
196132,159.765,-456.495,0,0
196393,162.195,-452.477,0,0
196653,164.628,-448.487,0,0
196913,167.126,-444.583,0,0
197174,169.739,-440.846,0,0
197434,172.348,-437.094,0,0
197694,174.979,-433.465,0,0
197955,177.512,-429.96,0,0
198215,179.9,-426.454,0,0
198475,182.293,-422.619,0,0
198735,184.931,-418.694,0,0
198996,187.692,-414.992,0,0
199256,190.352,-411.189,0,0
199516,193.111,-407.25,0,0
199777,196.012,-403.09,0,0
200037,199.15,-398.806,0,0
200297,202.622,-394.479,0,0
200558,206.491,-390.226,0,0
200818,210.605,-386.345,0,0
201078,214.593,-382.592,0,0
201339,218.437,-378.663,0,0
201599,222.71,-374.432,0,0
201859,227.441,-370.207,0,0
202120,232.553,-366.226,0,0
202380.025,237.919,-362.402,0,0
202640.35,243.62,-358.74,0,0
202900.675,249.463,-355.496,0,0
203161.0,255.452,-352.343,0,0
203421.325,261.653,-349.309,0,0
203681.65,268.181,-346.428,0,0
203941.975,274.932,-343.828,0,0
204202.3,282.009,-341.688,0,0
204462.625,289.141,-339.916,0,0
204722.95,296.425,-338.513,0,0
204983.275,303.615,-337.302,0,0
205243.6,310.918,-336.196,0,0
205503.925,318.872,-335.316,0,0
205764.25,327.259,-335.296,0,0
206024.575,335.535,-336.38,0,0
206284.9,343.257,-338.113,0,0
206545.225,350.365,-340.399,0,0
206805.55,356.915,-343.056,0,0
207065.875,362.548,-345.898,0,0
207326.2,367.415,-348.372,0,0
207586.525,371.866,-350.357,0,0
207846.85,375.86,-351.465,0,0
208107.175,380.162,-351.733,0,0
208367.5,385.219,-351.428,0,0
208627.825,390.837,-350.624,0,0
208888.15,397.716,-349.379,0,0
209148.475,406.309,-348.503,0,0
209408.8,415.937,-348.813,0,0
209669.125,426.242,-350.611,0,0
209929.45,436.718,-353.578,0,0
210189.775,447.361,-357.788,0,0
210450.1,458.019,-363.428,0,0
210710.425,468.44,-370.701,0,0
210970.75,477.605,-379.768,0,0
211231.075,485.125,-389.532,0,0
211491.4,491.498,-399.607,0,0
211751.725,496.65,-410.101,0,0
212012.05,500.432,-420.53,0,0
212272.375,503.209,-430.534,0,0
212532.7,505.274,-440.083,0,0
212793.025,507.05,-449.19,0,0
213053.35,508.728,-458.5,0,0
213313.675,509.411,-468.25,0,0
213574.0,508.778,-477.342,0,0
213834.325,508.13,-485.404,0,0
214094.65,507.531,-493.461,0,0
214354.975,506.609,-501.734,0,0
214615.3,504.551,-510.078,0,0
214875.625,501.54,-517.283,0,0
215135.95,498.702,-523.29,0,0
215396.275,496.39,-528.887,0,0
215656.6,494.351,-534.264,0,0
215916.925,492.513,-539.666,0,0
216177.25,490.946,-545.061,0,0
216437.575,489.485,-550.922,0,0
216697.9,487.867,-557.424,0,0
216958.225,485.4,-564.495,0,0
217218.55,481.702,-571.532,0,0
217478.875,476.939,-577.772,0,0
217739.2,472.041,-582.948,0,0
217999.525,467.37,-587.791,0,0
218259.85,462.447,-592.661,0,0
218520,456.965,-597.271,0,0
218780,451.004,-601.403,0,0
219041,444.451,-604.902,0,0
219301,437.527,-607.467,0,0
219561,430.547,-608.969,0,0
219822,423.825,-609.658,0,0
220082,417.343,-609.522,0,0
220342,411.208,-608.594,0,0
220603,405.617,-606.911,0,0
220863,400.757,-604.775,0,0
221123,396.621,-602.314,0,0
221384,393.084,-599.671,0,0
221644,390.078,-596.914,0,0
221904,387.587,-594.023,0,0
222165,385.65,-591.08,0,0
222425,384.356,-588.125,0,0
222685,383.733,-585.394,0,0
222946,383.47,-583.196,0,0
223206,383.185,-581.278,0,0
223466,382.926,-579.253,0,0
223727,383.041,-577.18,0,0
223987,383.566,-575.352,0,0
224247,384.229,-573.774,0,0
224508,384.852,-572.352,0,0
224768,385.499,-570.866,0,0
225028,386.353,-569.128,0,0
225289,387.628,-567.065,0,0
225549,389.731,-564.93,0,0
225809,392.694,-563.146,0,0
226070,396.27,-562.122,0,0
226330,400.281,-561.968,0,0
226590,404.229,-562.776,0,0
226851,407.847,-564.158,0,0
227111,411.007,-565.918,0,0
227371,414.02,-567.606,0,0
227632,417.303,-569.379,0,0
227892,420.879,-571.563,0,0
228152,424.544,-574.448,0,0
228413,428.173,-577.924,0,0
228673,431.629,-582.077,0,0
228933,434.695,-586.982,0,0
229193,437.138,-592.491,0,0
229454,438.825,-598.189,0,0
229714,439.93,-603.835,0,0
229974,440.818,-609.323,0,0
230235,441.576,-615.127,0,0
230495,442.377,-621.298,0,0
230755,442.486,-628.214,0,0
231016,441.475,-635.528,0,0
231276,439.367,-642.498,0,0
231536,436.722,-648.758,0,0
231797,433.954,-654.523,0,0
232057,431.208,-660.151,0,0
232317,428.44,-665.967,0,0
232578,425.258,-671.974,0,0
232838,421.441,-677.954,0,0
233098,417.329,-683.709,0,0
233359,412.978,-689.701,0,0
233619,407.931,-696.103,0,0
233879,401.483,-702.548,0,0
234140,393.618,-708.078,0,0
234400,384.979,-712.353,0,0
234660.3,376.203,-715.292,0,0
234920.625,367.218,-717.26,0,0
235180.95,358.503,-718.16,0,0
235441.275,349.945,-718.208,0,0
235701.6,341.781,-717.156,0,0
235961.925,334.359,-715.361,0,0
236222.25,327.851,-713.133,0,0
236482.575,322.08,-710.966,0,0
236742.9,316.931,-708.938,0,0
237003.225,311.905,-707.342,0,0
237263.55,306.572,-706.095,0,0
237523.875,300.588,-704.392,0,0
237784.2,294.563,-701.828,0,0
238044.525,288.865,-698.527,0,0
238304.85,283.636,-694.545,0,0
238565.175,279.045,-690.097,0,0
238825.5,275.295,-685.207,0,0
239085.825,272.438,-680.176,0,0
239346.15,270.436,-675.302,0,0
239606.475,269.279,-670.644,0,0
239866.8,269.013,-666.52,0,0
240127.125,269.376,-663.354,0,0
240387.45,270.032,-661.365,0,0
240647.775,270.267,-660.384,0,0
240908.1,269.473,-660.088,0,0
241168.425,267.914,-659.717,0,0
241428.75,265.897,-659.032,0,0
241689.075,263.716,-658.094,0,0
241949.4,261.213,-657.066,0,0
242209.725,258.382,-655.896,0,0
242470.05,255.156,-654.19,0,0
242730.375,251.75,-651.566,0,0
242990.7,248.863,-648.142,0,0
243251.025,246.677,-644.494,0,0
243511.35,245.03,-640.913,0,0
243771.675,243.51,-637.202,0,0
244032.0,242.348,-633.102,0,0
244292.325,241.944,-628.858,0,0
244552.65,242.161,-624.696,0,0
244812.975,243.284,-620.893,0,0
245073.3,244.947,-617.845,0,0
245333.625,246.627,-615.68,0,0
245593.95,248.208,-614.021,0,0
245854.275,249.439,-612.809,0,0
246114.6,250.493,-611.946,0,0
246374.925,251.083,-611.208,0,0
246635.25,251.447,-610.378,0,0
246895.575,251.64,-609.502,0,0
247155.9,251.752,-608.644,0,0
247416.225,251.684,-607.604,0,0
247676.55,251.725,-606.381,0,0
247936.875,251.958,-605.116,0,0
248197.2,252.271,-603.929,0,0
248457.525,252.584,-602.817,0,0
248717.85,252.919,-601.675,0,0
248978.175,253.301,-600.525,0,0
249238.5,253.865,-599.274,0,0
249498.825,254.582,-598.144,0,0
249759.15,255.518,-597.145,0,0
250019.475,256.598,-596.444,0,0
250279.8,257.583,-596.094,0,0
250540,258.335,-595.779,0,0
250800,258.999,-595.42,0,0
251061,259.794,-595.093,0,0
251321,260.706,-594.901,0,0
251581,261.569,-594.919,0,0
251842,262.376,-595.004,0,0
252102,263.21,-595.238,0,0
252362,264.023,-595.614,0,0
252623,264.772,-596.251,0,0
252883,265.368,-597.071,0,0
253143,265.827,-597.949,0,0
253404,266.064,-598.969,0,0
253664,266.219,-600.068,0,0
253924,266.234,-601.34,0,0
254185,265.976,-602.797,0,0
254445,265.291,-604.332,0,0
254705,264.126,-605.636,0,0
254966,262.882,-606.676,0,0
255226,261.497,-607.568,0,0
255486,260.121,-608.253,0,0
255747,258.495,-608.939,0,0
256007,256.788,-609.454,0,0
256267,254.939,-609.684,0,0
256528,253.056,-609.711,0,0
256788,251.204,-609.555,0,0
257048,249.343,-609.245,0,0
257309,247.418,-608.782,0,0
257569,245.515,-608.087,0,0
257829,243.631,-607.131,0,0
258090,241.874,-605.936,0,0
258350,240.304,-604.521,0,0
258610,239.002,-602.942,0,0
258871,238.016,-601.35,0,0
259131,237.141,-599.852,0,0
259391,236.361,-598.442,0,0
259651,235.574,-597.043,0,0
259912,234.816,-595.652,0,0
260172,233.945,-594.134,0,0
260432,233.153,-592.357,0,0
260693,232.484,-590.303,0,0
260953,232.187,-588.228,0,0
261213,232.019,-586.008,0,0
261474,232.146,-583.654,0,0
261734,232.646,-581.197,0,0
261994,233.651,-578.785,0,0
262255,235.138,-576.551,0,0
262515,237.035,-574.714,0,0
262775,239.146,-573.337,0,0
263036,241.327,-572.381,0,0
263296,243.553,-571.79,0,0
263556,245.847,-571.594,0,0
263817,248.017,-571.809,0,0
264077,250.012,-572.384,0,0
264337,251.747,-573.287,0,0
264598,253.058,-574.388,0,0
264858,254.153,-575.49,0,0
265118,254.918,-576.526,0,0
265379,255.403,-577.474,0,0
265639,255.941,-578.235,0,0
265899,256.499,-578.86,0,0
266160,257.181,-579.473,0,0
266420,257.91,-580.184,0,0
266680.25,258.685,-580.957,0,0
266940.575,259.552,-581.873,0,0
267200.9,260.427,-582.963,0,0
267461.225,261.161,-584.298,0,0
267721.55,261.768,-585.746,0,0
267981.875,262.171,-587.355,0,0
268242.2,262.357,-588.984,0,0
268502.525,262.319,-590.485,0,0
268762.85,262.163,-591.899,0,0
269023.175,261.904,-593.143,0,0
269283.5,261.739,-594.206,0,0
269543.825,261.719,-595.201,0,0
269804.15,261.806,-596.199,0,0
270064.475,262.095,-597.232,0,0
270324.8,262.504,-598.427,0,0
270585.125,263.032,-599.714,0,0
270845.45,263.662,-601.257,0,0
271105.775,264.285,-602.947,0,0
271366.1,265.028,-604.766,0,0
271626.425,266.035,-606.783,0,0
271886.75,267.447,-609.301,0,0
272147.075,269.06,-612.713,0,0
272407.4,270.423,-617.317,0,0
272667.725,270.842,-623.013,0,0
272928.05,269.917,-629.177,0,0
273188.375,267.854,-635.22,0,0
273448.7,265.038,-641.123,0,0
273709.025,261.308,-647.077,0,0
273969.35,256.458,-652.752,0,0
274229.675,250.561,-657.778,0,0
274490.0,243.979,-661.847,0,0
274750.325,236.911,-665.062,0,0
275010.65,229.618,-667.569,0,0
275270.975,222.013,-669.26,0,0
275531.3,214.182,-670.002,0,0
275791.625,206.423,-669.781,0,0
276051.95,198.836,-668.766,0,0
276312.275,191.586,-667.021,0,0
276572.6,184.673,-664.689,0,0
276832.925,178.127,-661.81,0,0
277093.25,171.907,-658.402,0,0
277353.575,166.117,-654.411,0,0
277613.9,160.906,-649.957,0,0
277874.225,156.322,-645.133,0,0
278134.55,152.474,-640.14,0,0
278394.875,149.279,-635.124,0,0
278655.2,146.608,-630.193,0,0
278915.525,144.417,-625.409,0,0
279175.85,142.645,-620.829,0,0
279436.175,141.096,-616.388,0,0
279696.5,139.854,-612.036,0,0
279956.825,138.886,-607.776,0,0
280217.15,138.217,-603.748,0,0
280477.475,137.808,-599.846,0,0
280737.8,137.671,-596.149,0,0
280998.125,137.767,-592.823,0,0
281258.45,137.967,-589.874,0,0
281518.775,138.05,-587.306,0,0
281779.1,137.906,-584.938,0,0
282039.425,137.541,-582.655,0,0
282299.75,137.053,-580.315,0,0
282560,136.441,-577.919,0,0
282820,135.742,-575.39,0,0
283081,135.037,-572.68,0,0
283341,134.417,-569.811,0,0
283601,133.924,-566.781,0,0
283862,133.604,-563.584,0,0
284122,133.564,-560.248,0,0
284382,133.865,-556.977,0,0
284643,134.462,-553.806,0,0
284903,135.252,-550.824,0,0
285163,136.165,-548.002,0,0
285424,137.277,-545.339,0,0
285684,138.427,-542.893,0,0
285944,139.648,-540.622,0,0
286205,140.902,-538.527,0,0
286465,142.185,-536.622,0,0
286725,143.439,-534.91,0,0
286986,144.625,-533.385,0,0
287246,145.646,-531.991,0,0
287506,146.541,-530.66,0,0
287767,147.32,-529.32,0,0
288027,147.997,-527.943,0,0
288287,148.575,-526.535,0,0
288548,149.087,-525.019,0,0
288808,149.608,-523.368,0,0
289068,150.23,-521.568,0,0
289329,151.001,-519.753,0,0
289589,151.863,-517.921,0,0
289849,152.858,-516.15,0,0
290109,153.834,-514.442,0,0
290370,154.879,-512.618,0,0
290630,156.094,-510.764,0,0
290890,157.539,-509.013,0,0
291151,159.099,-507.401,0,0
291411,160.712,-505.964,0,0
291671,162.335,-504.659,0,0
291932,163.925,-503.486,0,0
292192,165.484,-502.366,0,0
292452,167.023,-501.256,0,0
292713,168.577,-500.207,0,0
292973,170.147,-499.215,0,0
293233,171.712,-498.274,0,0
293494,173.258,-497.319,0,0
293754,174.831,-496.375,0,0
294014,176.441,-495.436,0,0
294275,178.107,-494.543,0,0
294535,179.779,-493.654,0,0
294795,181.488,-492.791,0,0
295056,183.288,-491.864,0,0
295316,185.183,-490.995,0,0
295576,187.208,-490.118,0,0
295837,189.378,-489.317,0,0
296097,191.666,-488.635,0,0
296357,194.059,-488.072,0,0
296618,196.56,-487.634,0,0
296878,199.134,-487.344,0,0
297138,201.798,-487.213,0,0
297399,204.5,-487.239,0,0
297659,207.299,-487.46,0,0
297919,210.116,-487.916,0,0
298180,212.875,-488.62,0,0
298440,215.505,-489.483,0,0
298700.2,218.003,-490.401,0,0
298960.525,220.513,-491.343,0,0
299220.85,223.035,-492.31,0,0
299481.175,225.657,-493.427,0,0
299741.5,228.321,-494.519,0,0
300001.825,231.19,-495.867,0,0
300262.15,233.985,-497.294,0,0
300522.475,237.025,-499.149,0,0
300782.8,240.117,-501.175,0,0
301043.125,243.183,-503.506,0,0
301303.45,246.271,-506.169,0,0
301563.775,249.384,-509.169,0,0
301824.1,252.534,-512.708,0,0
302084.425,255.582,-516.799,0,0
302344.75,258.352,-521.661,0,0
302605.075,260.517,-526.966,0,0
302865.4,262.063,-532.867,0,0
303125.725,262.748,-539.03,0,0
303386.05,262.531,-545.223,0,0
303646.375,261.53,-551.176,0,0
303906.7,259.963,-556.787,0,0
304167.025,257.939,-562.048,0,0
304427.35,255.614,-567.038,0,0
304687.675,252.94,-571.696,0,0
304948.0,249.945,-576.12,0,0
305208.325,246.649,-580.191,0,0
305468.65,243.241,-583.958,0,0
305728.975,239.618,-587.432,0,0
305989.3,235.78,-590.694,0,0
306249.625,231.714,-593.669,0,0
306509.95,227.4,-596.238,0,0
306770.275,222.998,-598.351,0,0
307030.6,218.602,-600.069,0,0
307290.925,214.267,-601.419,0,0
307551.25,210.01,-602.485,0,0
307811.575,205.822,-603.317,0,0
308071.9,201.697,-603.915,0,0
308332.225,197.616,-604.315,0,0
308592.55,193.587,-604.498,0,0
308852.875,189.603,-604.422,0,0
309113.2,185.706,-604.083,0,0
309373.525,181.954,-603.527,0,0
309633.85,178.368,-602.71,0,0
309894.175,174.966,-601.798,0,0
310154.5,171.752,-600.73,0,0
310414.825,168.743,-599.534,0,0
310675.15,165.892,-598.328,0,0
310935.475,163.204,-597.037,0,0
311195.8,160.673,-595.743,0,0
311456.125,158.292,-594.424,0,0
311716.45,156.019,-593.121,0,0
311976.775,153.827,-591.795,0,0
312237.1,151.744,-590.479,0,0
312497.425,149.729,-589.211,0,0
312757.75,147.735,-587.961,0,0
313018.075,145.763,-586.689,0,0
313278.4,143.833,-585.377,0,0
313538.725,141.919,-584.029,0,0
313799.05,140.059,-582.633,0,0
314059.375,138.235,-581.177,0,0
314319.7,136.488,-579.616,0,0
314580,134.801,-578.035,0,0
314840,133.238,-576.367,0,0
315101,131.782,-574.665,0,0
315361,130.468,-572.924,0,0
315621,129.282,-571.181,0,0
315882,128.217,-569.483,0,0
316142,127.265,-567.815,0,0
316402,126.384,-566.184,0,0
316663,125.643,-564.603,0,0
316923,124.949,-563.124,0,0
317183,124.319,-561.739,0,0
317444,123.703,-560.441,0,0
317704,123.047,-559.19,0,0
317964,122.398,-557.945,0,0
318225,121.744,-556.726,0,0
318485,121.084,-555.513,0,0
318745,120.463,-554.265,0,0
319006,119.88,-552.992,0,0
319266,119.414,-551.721,0,0
319526,118.996,-550.482,0,0
319787,118.657,-549.285,0,0
320047,118.351,-548.196,0,0
320307,118.097,-547.155,0,0
320567,117.857,-546.204,0,0
320828,117.614,-545.297,0,0
321088,117.366,-544.499,0,0
321348,117.078,-543.727,0,0
321609,116.782,-543.006,0,0
321869,116.45,-542.332,0,0
322129,116.109,-541.686,0,0
322390,115.715,-541.056,0,0
322650,115.3,-540.466,0,0
322910,114.851,-539.885,0,0
323171,114.37,-539.302,0,0
323431,113.85,-538.726,0,0
323691,113.302,-538.123,0,0
323952,112.734,-537.538,0,0
324212,112.151,-536.895,0,0
324472,111.555,-536.236,0,0
324733,110.959,-535.563,0,0
324993,110.394,-534.873,0,0
325253,109.839,-534.182,0,0
325514,109.299,-533.439,0,0
325774,108.826,-532.715,0,0
326034,108.381,-532.017,0,0
326295,107.931,-531.388,0,0
326555,107.486,-530.77,0,0
326815,107.028,-530.192,0,0
327076,106.567,-529.635,0,0
327336,106.1,-529.106,0,0
327596,105.577,-528.598,0,0
327857,105.048,-528.12,0,0
328117,104.461,-527.637,0,0
328377,103.83,-527.153,0,0
328638,103.165,-526.644,0,0
328898,102.46,-526.088,0,0
329158,101.773,-525.517,0,0
329419,101.102,-524.904,0,0
329679,100.45,-524.298,0,0
329939,99.8041,-523.698,0,0
330200,99.1567,-523.086,0,0
330460,98.5147,-522.486,0,0
330720.15,97.8569,-521.905,0,0
330980.475,97.2745,-521.366,0,0
331240.8,96.6258,-520.781,0,0
331501.125,95.9434,-520.292,0,0
331761.45,95.1708,-519.812,0,0
332021.775,94.342,-519.307,0,0
332282.1,93.5838,-518.789,0,0
332542.425,92.6491,-518.222,0,0
332802.75,91.7592,-517.66,0,0
333063.075,90.8073,-517.023,0,0
333323.4,89.8347,-516.332,0,0
333583.725,88.7932,-515.62,0,0
333844.05,87.8206,-514.779,0,0
334104.375,86.8239,-513.905,0,0
334364.7,85.7464,-512.949,0,0
334625.025,84.7971,-512.064,0,0
334885.35,83.9422,-511.058,0,0
335145.675,83.0107,-509.966,0,0
335406.0,82.1498,-508.954,0,0
335666.325,81.2819,-507.872,0,0
335926.65,80.3836,-506.766,0,0
336186.975,79.547,-505.695,0,0
336447.3,78.6893,-504.469,0,0
336707.625,77.9551,-503.271,0,0
336967.95,77.0845,-501.981,0,0
337228.275,76.4184,-500.713,0,0
337488.6,75.7181,-499.371,0,0
337748.925,75.117,-498.021,0,0
338009.25,74.6066,-496.682,0,0
338269.575,74.0049,-495.331,0,0
338529.9,73.5886,-494.026,0,0
338790.225,73.0847,-492.675,0,0
339050.55,72.6799,-491.371,0,0
339310.875,72.3392,-490.077,0,0
339571.2,71.9215,-488.838,0,0
339831.525,71.57,-487.537,0,0
340091.85,71.2424,-486.253,0,0
340352.175,70.8851,-484.998,0,0
340612.5,70.5815,-483.68,0,0
340872.825,70.2787,-482.36,0,0
341133.15,70.0542,-481.023,0,0
341393.475,69.771,-479.762,0,0
341653.8,69.5955,-478.415,0,0
341914.125,69.3746,-477.083,0,0
342174.45,69.2561,-475.79,0,0
342434.775,69.2104,-474.518,0,0
342695.1,69.1606,-473.207,0,0
342955.425,69.1597,-471.88,0,0
343215.75,69.1411,-470.64,0,0
343476.075,69.1883,-469.379,0,0
343736.4,69.2833,-468.211,0,0
343996.725,69.352,-467.033,0,0
344257.05,69.4749,-465.839,0,0
344517.375,69.603,-464.686,0,0
344777.7,69.8274,-463.616,0,0
345038.025,70.0048,-462.57,0,0
345298.35,70.1818,-461.566,0,0
345558.675,70.3966,-460.566,0,0
345819.0,70.6079,-459.623,0,0
346079.325,70.7831,-458.745,0,0
346339.65,70.9644,-457.887,0,0
346599.975,71.1119,-457.064,0,0
346860,71.2571,-456.304,0,0
347121,71.3719,-455.531,0,0
347381,71.4723,-454.8,0,0
347641,71.5344,-454.016,0,0
347902,71.5438,-453.323,0,0
348162,71.4632,-452.606,0,0
348422,71.4075,-451.874,0,0
348683,71.2528,-451.087,0,0
348943,71.1453,-450.253,0,0
349203,70.9854,-449.37,0,0
349464,70.8608,-448.453,0,0
349724,70.7787,-447.507,0,0
349984,70.6846,-446.585,0,0
350245,70.6372,-445.646,0,0
350505,70.5417,-444.636,0,0
350765,70.5193,-443.712,0,0
351025,70.3795,-442.658,0,0
351286,70.3166,-441.516,0,0
351546,70.3649,-440.424,0,0
351806,70.5011,-439.284,0,0
352067,70.6897,-438.11,0,0
352327,70.9212,-437.017,0,0
352587,71.1921,-435.921,0,0
352848,71.5112,-434.921,0,0
353108,71.9208,-433.933,0,0
353368,72.2798,-433.027,0,0
353629,72.6416,-432.125,0,0
353889,73.0833,-431.277,0,0
354149,73.5059,-430.532,0,0
354410,73.8935,-429.752,0,0
354670,74.2056,-429.041,0,0
354930,74.5866,-428.349,0,0
355191,75.0294,-427.654,0,0
355451,75.4875,-427.063,0,0
355711,75.8555,-426.513,0,0
355972,76.1731,-426.021,0,0
356232,76.4324,-425.594,0,0
356492,76.6661,-425.248,0,0
356753,76.7952,-424.813,0,0
357013,76.8225,-424.454,0,0
357273,76.8217,-423.987,0,0
357534,76.7937,-423.534,0,0
357794,76.6951,-423.018,0,0
358054,76.5578,-422.507,0,0
358315,76.3689,-421.834,0,0
358575,76.1553,-421.1,0,0
358835,75.9514,-420.323,0,0
359096,75.8179,-419.477,0,0
359356,75.7124,-418.546,0,0
359616,75.5831,-417.578,0,0
359877,75.6348,-416.622,0,0
360137,75.6695,-415.59,0,0
360397,75.772,-414.563,0,0
360658,75.953,-413.525,0,0
360918,76.1788,-412.541,0,0
361178,76.443,-411.515,0,0
361438,76.7806,-410.503,0,0
361699,77.1006,-409.613,0,0
361959,77.4293,-408.647,0,0
362219,77.9066,-407.754,0,0
362480,78.3666,-406.882,0,0
362740.1,78.808,-406.113,0,0
363000.425,79.2822,-405.286,0,0
363260.75,79.7025,-404.541,0,0
363521.075,80.1754,-403.732,0,0
363781.4,80.6186,-403.05,0,0
364041.725,81.1341,-402.288,0,0
364302.05,81.6016,-401.616,0,0
364562.375,82.1478,-400.887,0,0
364822.7,82.704,-400.226,0,0
365083.025,83.2678,-399.626,0,0
365343.35,83.8101,-399.063,0,0
365603.675,84.4099,-398.517,0,0
365864.0,84.9406,-397.981,0,0
366124.325,85.5077,-397.582,0,0
366384.65,86.021,-397.201,0,0
366644.975,86.4155,-396.807,0,0
366905.3,86.8534,-396.384,0,0
367165.625,87.3024,-396.026,0,0
367425.95,87.7113,-395.547,0,0
367686.275,88.1152,-395.199,0,0
367946.6,88.5907,-394.794,0,0
368206.925,89.0342,-394.479,0,0
368467.25,89.4863,-394.119,0,0
368727.575,89.9163,-393.85,0,0
368987.9,90.3777,-393.598,0,0
369248.225,90.7668,-393.427,0,0
369508.55,91.1959,-393.266,0,0
369768.875,91.4779,-393.154,0,0
370029.2,91.732,-393.129,0,0
370289.525,91.9016,-393.115,0,0
370549.85,91.9915,-393.119,0,0
370810.175,91.9195,-393.054,0,0
371070.5,91.78,-392.971,0,0
371330.825,91.5617,-392.778,0,0
371591.15,91.3158,-392.474,0,0
371851.475,91.0242,-392.043,0,0
372111.8,90.7158,-391.534,0,0
372372.125,90.4839,-390.929,0,0
372632.45,90.3416,-390.212,0,0
372892.775,90.2522,-389.46,0,0
373153.1,90.2255,-388.734,0,0
373413.425,90.266,-387.959,0,0
373673.75,90.3302,-387.173,0,0
373934.075,90.4465,-386.382,0,0
374194.4,90.5925,-385.658,0,0
374454.725,90.7823,-384.902,0,0
374715.05,91.015,-384.194,0,0
374975.375,91.2647,-383.47,0,0
375235.7,91.4844,-382.743,0,0
375496.025,91.7546,-382.017,0,0
375756.35,92.046,-381.317,0,0
376016.675,92.3231,-380.652,0,0
376277.0,92.6714,-379.986,0,0
376537.325,92.9887,-379.389,0,0
376797.65,93.3287,-378.755,0,0
377057.975,93.5903,-378.126,0,0
377318.3,93.8342,-377.486,0,0
377578.625,94.086,-376.831,0,0
377838.95,94.3315,-376.114,0,0
378099.275,94.6559,-375.39,0,0
378359.6,95.014,-374.647,0,0
378619.925,95.4354,-373.901,0,0
378880,95.8202,-373.146,0,0
379141,96.348,-372.434,0,0
379401,96.8349,-371.712,0,0
379661,97.4052,-371.133,0,0
379922,97.9505,-370.465,0,0
380182,98.5354,-369.861,0,0
380442,99.0959,-369.294,0,0
380703,99.6154,-368.789,0,0
380963,100.109,-368.251,0,0
381223,100.635,-367.707,0,0
381483,101.124,-367.174,0,0
381744,101.645,-366.616,0,0
382004,102.169,-366.056,0,0
382264,102.736,-365.505,0,0
382525,103.324,-364.937,0,0
382785,103.92,-364.381,0,0
383045,104.615,-363.893,0,0
383306,105.258,-363.475,0,0
383566,105.92,-363.015,0,0
383826,106.53,-362.602,0,0
384087,107.114,-362.229,0,0
384347,107.738,-361.825,0,0
384607,108.352,-361.469,0,0
384868,108.981,-361.076,0,0
385128,109.622,-360.75,0,0
385388,110.22,-360.432,0,0
385649,110.763,-360.109,0,0
385909,111.302,-359.784,0,0
386169,111.87,-359.413,0,0
386430,112.381,-359.036,0,0
386690,112.932,-358.627,0,0
386950,113.602,-358.27,0,0
387211,114.15,-357.866,0,0
387471,114.757,-357.507,0,0
387731,115.348,-357.166,0,0
387992,115.913,-356.785,0,0
388252,116.476,-356.377,0,0
388512,117.018,-355.924,0,0
388773,117.705,-355.409,0,0
389033,118.432,-354.868,0,0
389293,119.208,-354.371,0,0
389554,120.126,-353.907,0,0
389814,121.045,-353.535,0,0
390074,121.992,-353.243,0,0
390335,122.95,-352.98,0,0
390595,123.877,-352.797,0,0
390855,124.758,-352.611,0,0
391116,125.689,-352.501,0,0
391376,126.537,-352.378,0,0
391636,127.398,-352.315,0,0
391896,128.235,-352.253,0,0
392157,129.054,-352.174,0,0
392417,129.856,-352.038,0,0
392677,130.668,-351.926,0,0
392938,131.536,-351.78,0,0
393198,132.402,-351.697,0,0
393458,133.279,-351.604,0,0
393719,134.158,-351.523,0,0
393979,135.062,-351.4,0,0
394239,136.05,-351.282,0,0
394500,136.983,-351.207,0,0
394760.05,138.039,-351.133,0,0
395020.375,139.121,-351.098,0,0
395280.7,140.213,-351.056,0,0
395541.025,141.398,-351.019,0,0
395801.35,142.598,-351.058,0,0
396061.675,143.869,-351.146,0,0
396322.0,145.197,-351.243,0,0
396582.325,146.656,-351.423,0,0
396842.65,148.136,-351.677,0,0
397102.975,149.698,-352.139,0,0
397363.3,151.357,-352.674,0,0
397623.625,152.985,-353.484,0,0
397883.95,154.56,-354.334,0,0
398144.275,156.128,-355.457,0,0
398404.6,157.566,-356.663,0,0
398664.925,158.95,-358.023,0,0
398925.25,160.226,-359.544,0,0
399185.575,161.4,-361.139,0,0
399445.9,162.459,-362.851,0,0
399706.225,163.411,-364.695,0,0
399966.55,164.155,-366.691,0,0
400006.6,164.241,-367.019,0,0