File: Accelerated corrosion test data/2025-10-07_06-00-03/sample_1.csv
Frequency (Hz),Impedance (ohms),Phase (Radians),Temperature (C),Humidity (%)
10000.0,239.743,-12187.6,0,0
10260.325,238.318,-11873.2,0,0
10520.65,229.426,-11594.9,0,0
10780.975,224.494,-11310.4,0,0
11041.3,218.772,-11051,0,0
11301.625,213.584,-10794.6,0,0
11561.95,210.448,-10551,0,0
11822.275,206.649,-10312.5,0,0
12082.6,222.566,-10082.6,0,0
12342.925,210.552,-9906.93,0,0
12603.25,194.278,-9695.99,0,0
12863.575,190.123,-9494.44,0,0
13123.9,197.339,-9302.47,0,0
13384.225,184.996,-9132.28,0,0
13644.55,180.195,-8951.38,0,0
13904.875,181.101,-8773.59,0,0
14165.2,194.868,-8638.9,0,0
14425.525,211.566,-8466.39,0,0
14685.8,198.355,-8306.08,0,0
14946.175,179.167,-8206.6,0,0
15206.5,181.686,-8043.2,0,0
15466.825,173.682,-7924.49,0,0
15727.15,171.893,-7797.42,0,0
15987.5,159.803,-7666.82,0,0
16247.8,156.694,-7541.05,0,0
16508.125,155.063,-7418.06,0,0
16768.45,158.949,-7301.09,0,0
17028.775,162.096,-7193.41,0,0
17289.1,153.256,-7091.04,0,0
17549.425,153.453,-6986.33,0,0
17809.75,146.526,-6884.08,0,0
18070.075,146.027,-6783.81,0,0
18330.4,140.595,-6688.55,0,0
18590.725,137.686,-6593.95,0,0
18851.05,137.442,-6496.16,0,0
19111.375,135.769,-6415.38,0,0
19371.7,132.349,-6323.08,0,0
19632.025,131.469,-6234.81,0,0
19892.35,134.498,-6148.97,0,0
20152.675,135.384,-6061.57,0,0
20413.0,154.408,-5974.11,0,0
20673.3,168.226,-5932.51,0,0
20933.65,151.651,-5864.09,0,0
21193.975,157.509,-5799.05,0,0
21454.3,145.39,-5725.03,0,0
21714.625,138.85,-5660.75,0,0
21974.9,135.542,-5575.19,0,0
22235.275,173.912,-5528.3,0,0
22495.6,142.066,-5490.38,0,0
22755.925,127.211,-5420.42,0,0
23016.25,122.467,-5354.09,0,0
23276.6,118.978,-5293.22,0,0
23536.9,115.54,-5233.27,0,0
23797.225,112.528,-5171.2,0,0
24057.55,114.038,-5110.55,0,0
24317.875,112.389,-5062.74,0,0
24578.2,110.757,-5002.68,0,0
24838.525,110.423,-4952.6,0,0
25098.85,110.725,-4898.29,0,0
25359.175,106.427,-4849.63,0,0
25619.5,104.822,-4798.22,0,0
25879.8,103.005,-4747.24,0,0
26140.1,103.615,-4697.74,0,0
26400.5,101.946,-4647.77,0,0
26660.8,104.445,-4597.8,0,0
26921.1,113.51,-4550.69,0,0
27181.4,119.715,-4515.81,0,0
27441.8,112.44,-4483.23,0,0
27702.1,103.708,-4434.52,0,0
27962.4,110.23,-4384.75,0,0
28222.7,110.572,-4346.31,0,0
28483.1,120.578,-4303.06,0,0
28743.4,131.158,-4284.21,0,0
29003.7,116.687,-4249.92,0,0
29264,118.703,-4213.1,0,0
29524.4,107.037,-4180.39,0,0
29784.7,104.35,-4138.41,0,0
30045,101.571,-4106.31,0,0
30305.3,99.9909,-4067.01,0,0
30565.7,97.1664,-4029.26,0,0
30826,100.801,-3994,0,0
31086.3,103.315,-3965.08,0,0
31346.6,99.5083,-3936.52,0,0
31607,93.4984,-3899.62,0,0
31867.3,96.532,-3865.7,0,0
32127.6,98.1376,-3835.2,0,0
32387.9,97.9721,-3809.83,0,0
32648.3,93.2684,-3778,0,0
32908.6,95.9594,-3748.97,0,0
33168.9,91.0716,-3721.21,0,0
33429.2,88.9291,-3692.76,0,0
33689.6,86.2069,-3662.7,0,0
33949.9,84.7681,-3632.11,0,0
34210.2,86.4557,-3605.66,0,0
34470.5,83.8399,-3578.78,0,0
34730.9,81.843,-3550.43,0,0
34991.2,80.9304,-3523.91,0,0
35251.5,80.3695,-3497.11,0,0
35511.8,79.5557,-3470.69,0,0
35772.2,78.9651,-3445.2,0,0
36032.5,77.7041,-3419.98,0,0
36292.8,76.9748,-3394.54,0,0
36553.1,76.2455,-3369.48,0,0
36813.5,76.0699,-3345.28,0,0
37073.8,75.8559,-3321.34,0,0
37334.1,74.9305,-3297.98,0,0
37594.4,74.7732,-3274.24,0,0
37854.8,74.0445,-3251.66,0,0
38115.1,73.4143,-3228.77,0,0
38375.4,73.1625,-3206.1,0,0
38635.7,72.7429,-3184.27,0,0
38896.1,72.2297,-3162.37,0,0
39156.4,72.0054,-3140.22,0,0
39416.7,72.1615,-3119.79,0,0
39677,71.3628,-3098.92,0,0
39937.4,70.8767,-3077.81,0,0
40197.7,71.185,-3057.22,0,0
40458,70.7695,-3037.19,0,0
40718.3,70.8686,-3016.32,0,0
40978.7,71.9309,-2997.13,0,0
41239,72.1768,-2978.77,0,0
41499.3,71.3891,-2960.83,0,0
41759.6,71.0482,-2942.14,0,0
42020,69.9434,-2923.2,0,0
42280.275,70.1816,-2904.75,0,0
42540.6,70.3551,-2886.92,0,0
42800.925,70.1231,-2869.84,0,0
43061.25,69.1938,-2851.95,0,0
43321.575,69.2465,-2834.98,0,0
43581.9,68.225,-2817.66,0,0
43842.225,67.7819,-2800.05,0,0
44102.55,68.0246,-2782.44,0,0
44362.875,68.7195,-2765.85,0,0
44623.2,69.1185,-2750.27,0,0
44883.525,68.2347,-2734.34,0,0
45143.85,68.4607,-2718.91,0,0
45404.175,68.8143,-2702.98,0,0
45664.5,67.768,-2688.49,0,0
45924.825,66.8529,-2672.77,0,0
46185.15,66.5844,-2657.7,0,0
46445.475,65.6499,-2642.63,0,0
46705.8,65.0032,-2627.32,0,0
46966.125,64.7305,-2612.57,0,0
47226.45,64.5467,-2597.46,0,0
47486.775,64.5052,-2583.13,0,0
47747.1,63.7703,-2569.28,0,0
48007.425,63.2134,-2554.64,0,0
48267.75,63.2385,-2540.15,0,0
48528.075,62.5594,-2527.31,0,0
48788.4,61.7107,-2513.07,0,0
49048.725,61.2638,-2498.98,0,0
49309.05,61.2681,-2485.06,0,0
49569.375,61.3163,-2471.89,0,0
49829.7,60.7946,-2458.75,0,0
50090.025,60.2854,-2445.75,0,0
50350.35,59.755,-2432.45,0,0
50610.675,59.4367,-2419.12,0,0
50871.0,59.1828,-2406.21,0,0
51131.325,59.1435,-2393.48,0,0
51391.65,59.4497,-2381.13,0,0
51651.975,58.6735,-2368.92,0,0
51912.3,58.4022,-2356.41,0,0
52172.625,58.0355,-2344.06,0,0
52432.95,57.988,-2331.94,0,0
52693.275,57.7467,-2320.02,0,0
52953.6,57.6926,-2307.96,0,0
53213.925,57.5409,-2296.24,0,0
53474.25,57.5176,-2284.86,0,0
53734.575,57.2834,-2273.25,0,0
53994.9,57.3818,-2262.15,0,0
54255.225,56.723,-2251.08,0,0
54515.55,56.4611,-2239.83,0,0
54775.875,56.112,-2228.61,0,0
55036.2,55.9021,-2217.33,0,0
55296.525,55.959,-2206.27,0,0
55556.85,55.9612,-2195.88,0,0
55817.175,55.5785,-2185.34,0,0
56077.5,55.0377,-2174.46,0,0
56337.825,54.9593,-2163.68,0,0
56598.15,54.9637,-2153.17,0,0
56858.475,54.8012,-2143.02,0,0
57118.8,54.7131,-2132.6,0,0
57379.125,54.6137,-2122.17,0,0
57639.45,54.6676,-2112.11,0,0
57899.775,54.557,-2102.19,0,0
58160.1,54.6624,-2092.36,0,0
58420.4,54.4705,-2082.68,0,0
58680.7,54.3032,-2072.99,0,0
58941.1,54.3566,-2063.05,0,0
59201.4,54.3659,-2053.52,0,0
59461.7,54.4444,-2044.39,0,0
59722,54.1475,-2034.96,0,0
59982.4,54.2255,-2025.64,0,0
60242.7,54.1202,-2016.44,0,0
60503,54.1657,-2007.12,0,0
60763.3,54.473,-1998.47,0,0
61023.7,54.0811,-1990.02,0,0
61284,53.6821,-1980.97,0,0
61544.3,53.3263,-1971.93,0,0
61804.6,53.5175,-1963.09,0,0
62065,53.141,-1954.71,0,0
62325.3,52.6765,-1945.78,0,0
62585.6,52.5627,-1937.07,0,0
62845.9,52.5268,-1928.29,0,0
63106.3,52.727,-1919.77,0,0
63366.6,52.5293,-1911.21,0,0
63626.9,52.4968,-1902.57,0,0
63887.2,52.6161,-1894.17,0,0
64147.6,52.7924,-1885.92,0,0
64407.9,52.7946,-1877.56,0,0
64668.2,52.9335,-1869.21,0,0
64928.5,53.4889,-1860.98,0,0
65188.9,54.023,-1853.15,0,0
65449.2,54.89,-1845.53,0,0
65709.5,55.1286,-1838.41,0,0
65969.8,55.1658,-1831.47,0,0
66230.2,54.9346,-1824.17,0,0
66490.5,54.8634,-1816.87,0,0
66750.8,54.7032,-1809.64,0,0
67011.1,54.4158,-1802.62,0,0
67271.5,53.5799,-1794.9,0,0
67531.8,54.0302,-1787.17,0,0
67792.1,54.4661,-1780.33,0,0
68052.4,54.1983,-1773.74,0,0
68312.8,53.6499,-1766.8,0,0
68573.1,53.2771,-1759.36,0,0
68833.4,53.5247,-1752.26,0,0
69093.7,53.415,-1745.77,0,0
69354.1,52.9085,-1738.9,0,0
69614.4,52.7395,-1732.16,0,0
69874.7,52.1555,-1725.63,0,0
70135,51.7395,-1718.66,0,0
70395.4,51.0658,-1711.75,0,0
70655.7,50.8914,-1704.66,0,0
70916,50.6951,-1697.7,0,0
71176.3,50.4003,-1690.98,0,0
71436.7,50.313,-1684.41,0,0
71697,49.8985,-1677.91,0,0
71957.3,49.3437,-1671.09,0,0
72217.6,48.8601,-1664.35,0,0
72478,48.5367,-1657.4,0,0
72738.3,48.4199,-1650.45,0,0
72998.6,48.377,-1643.54,0,0
73258.9,48.3712,-1637.05,0,0
73519.3,48.2316,-1630.49,0,0
73779.6,48.1278,-1623.92,0,0
74039.9,48.2577,-1617.27,0,0
74300.225,48.276,-1610.87,0,0
74560.55,48.2555,-1604.46,0,0
74820.875,48.3587,-1598.01,0,0
75081.2,48.5356,-1591.83,0,0
75341.525,48.5446,-1585.64,0,0
75601.85,48.5082,-1579.32,0,0
75862.175,48.6084,-1572.93,0,0
76122.5,48.9648,-1566.73,0,0
76382.825,49.3115,-1560.72,0,0
76643.15,49.5338,-1554.86,0,0
76903.475,49.6655,-1548.86,0,0
77163.8,49.8625,-1542.94,0,0
77424.125,50.0532,-1537.27,0,0
77684.45,50.1757,-1531.44,0,0
77944.775,50.282,-1525.56,0,0
78205.1,50.6618,-1519.67,0,0
78465.425,51.3228,-1514.04,0,0
78725.75,51.7812,-1508.86,0,0
78986.075,51.9348,-1503.78,0,0
79246.4,51.7869,-1498.64,0,0
79506.725,51.7318,-1493.31,0,0
79767.05,51.5041,-1488.2,0,0
80027.375,51.3849,-1482.7,0,0
80287.7,51.1897,-1477.46,0,0
80548.025,50.7278,-1471.89,0,0
80808.35,50.6026,-1466.32,0,0
81068.675,50.5245,-1460.67,0,0
81329.0,50.6417,-1455.03,0,0
81589.325,50.7828,-1449.64,0,0
81849.65,50.924,-1444.23,0,0
82109.975,51.0535,-1438.86,0,0
82370.3,51.1989,-1433.65,0,0
82630.625,51.1633,-1428.33,0,0
82890.95,51.2565,-1422.86,0,0
83151.275,51.5544,-1417.51,0,0
83411.6,51.8141,-1412.2,0,0
83671.925,52.1469,-1407.02,0,0
83932.25,52.4063,-1401.78,0,0
84192.575,52.7746,-1396.68,0,0
84452.9,53.1801,-1391.62,0,0
84713.225,53.592,-1386.55,0,0
84973.55,54.169,-1381.54,0,0
85233.875,54.6124,-1376.73,0,0
85494.2,55.064,-1372.25,0,0
85754.525,55.2386,-1367.6,0,0
86014.85,55.4128,-1362.88,0,0
86275.175,55.6861,-1358.2,0,0
86535.5,55.9222,-1353.55,0,0
86795.825,56.0565,-1348.91,0,0
87056.15,56.181,-1344.24,0,0
87316.475,56.5189,-1339.56,0,0
87576.8,56.7639,-1335.2,0,0
87837.125,56.5391,-1330.76,0,0
88097.45,56.4248,-1325.88,0,0
88357.775,56.4738,-1320.9,0,0
88618.1,56.7234,-1315.84,0,0
88878.425,57.2285,-1311.18,0,0
89138.75,57.4522,-1306.25,0,0
89399.075,57.8168,-1301.41,0,0
89659.4,58.3565,-1296.45,0,0
89919.725,59.2681,-1291.46,0,0
90180,60.1873,-1286.75,0,0
90440.4,60.9189,-1282.42,0,0
90700.7,61.6,-1277.94,0,0
90961,62.5463,-1273.1,0,0
91221.3,63.8755,-1268.59,0,0
91481.7,65.2422,-1264.38,0,0
91742,66.7248,-1260.41,0,0
92002.3,67.9338,-1256.86,0,0
92262.6,68.9331,-1253.12,0,0
92523,70.4215,-1249.39,0,0
92783.3,72.025,-1245.81,0,0
93043.6,73.5507,-1242.95,0,0
93303.9,74.9314,-1240.13,0,0
93564.3,76.4092,-1237.36,0,0
93824.6,78.7268,-1236.21,0,0
94084.9,78.7055,-1236.67,0,0
94345.2,76.229,-1236.1,0,0
94605.6,73.4081,-1232.75,0,0
94865.9,72.6003,-1229.06,0,0
95126.2,71.068,-1226.09,0,0
95386.5,69.7717,-1222.31,0,0
95646.9,68.4484,-1218.69,0,0
95907.2,67.0889,-1214.35,0,0
96167.5,66.3794,-1209.66,0,0
96427.8,66.526,-1205.49,0,0
96688.2,66.0582,-1201.98,0,0
96948.5,65.2834,-1198.04,0,0
97208.8,64.649,-1193.83,0,0
97469.1,64.2034,-1189.44,0,0
97729.5,64.1452,-1185.05,0,0
97989.8,64.2868,-1180.93,0,0
98250.1,64.3902,-1177.16,0,0
98510.4,64.2849,-1173.53,0,0
98770.8,63.8238,-1169.78,0,0
99031.1,63.4941,-1165.66,0,0
99291.4,63.3705,-1161.55,0,0
99551.7,63.222,-1157.49,0,0
99812.1,63.0679,-1153.3,0,0
100072,63.2568,-1149.1,0,0
100333,63.4212,-1145.31,0,0
100593,63.4623,-1141.37,0,0
100853,63.5302,-1137.48,0,0
101114,63.5499,-1133.52,0,0
101374,63.5406,-1129.68,0,0
101634,63.3675,-1125.79,0,0
101895,62.9546,-1121.62,0,0
102155,62.7565,-1116.91,0,0
102415,63.0112,-1111.98,0,0
102676,63.936,-1107.06,0,0
102936,65.1651,-1102.83,0,0
103196,66.0938,-1098.83,0,0
103457,67.0332,-1094.8,0,0
103717,68.0472,-1090.76,0,0
103977,69.1482,-1086.58,0,0
104238,70.8038,-1082.52,0,0
104498,72.566,-1079.26,0,0
104758,73.8327,-1076.32,0,0
105019,74.7164,-1073.13,0,0
105279,75.6914,-1069.72,0,0
105539,76.9179,-1066.24,0,0
105800,78.2649,-1062.94,0,0
106060,79.873,-1059.84,0,0
106320.175,81.216,-1057.07,0,0
106580.5,82.5424,-1054.29,0,0
106840.825,83.8409,-1051.65,0,0
107101.15,85.2158,-1048.95,0,0
107361.475,86.6879,-1046.61,0,0
107621.8,87.8291,-1044.63,0,0
107882.125,88.5473,-1042.55,0,0
108142.45,89.4129,-1040.08,0,0
108402.775,90.3597,-1037.79,0,0
108663.1,91.4958,-1035.66,0,0
108923.425,92.4267,-1033.76,0,0
109183.75,93.3366,-1032.11,0,0
109444.075,93.9088,-1030.62,0,0
109704.4,94.1327,-1029.03,0,0
109964.725,94.0692,-1027.45,0,0
110225.05,93.7606,-1025.54,0,0
110485.375,93.5289,-1023.14,0,0
110745.7,93.4837,-1020.74,0,0
111006.025,93.6211,-1018.36,0,0
111266.35,93.7251,-1015.59,0,0
111526.675,94.3555,-1013.25,0,0
111787.0,94.9729,-1011.2,0,0
112047.325,95.3696,-1009.16,0,0
112307.65,95.7071,-1007.22,0,0
112567.975,96.0646,-1005.46,0,0
112828.3,96.2242,-1003.63,0,0
113088.625,96.4137,-1001.99,0,0
113348.95,96.4303,-1000.34,0,0
113609.275,96.3839,-998.908,0,0
113869.6,96.0471,-997.459,0,0
114129.925,95.4513,-995.964,0,0
114390.25,94.6724,-994.229,0,0
114650.575,93.9199,-992.338,0,0
114910.9,93.2182,-990.466,0,0
115171.225,92.3625,-988.458,0,0
115431.55,91.4666,-986.443,0,0
115691.875,90.4664,-984.336,0,0
115952.2,89.2693,-981.945,0,0
116212.525,88.266,-979.36,0,0
116472.85,87.2881,-976.736,0,0
116733.175,86.4235,-973.961,0,0
116993.5,85.5949,-971.322,0,0
117253.825,84.6403,-968.547,0,0
117514.15,83.7972,-965.458,0,0
117774.475,83.0963,-962.39,0,0
118034.8,82.5391,-959.214,0,0
118295.125,82.1672,-956.083,0,0
118555.45,81.7923,-953.006,0,0
118815.775,81.5212,-949.917,0,0
119076.1,81.2607,-946.792,0,0
119336.425,81.1166,-943.628,0,0
119596.75,81.1665,-940.544,0,0
119857.075,81.3724,-937.514,0,0
120117.4,81.6259,-934.802,0,0
120377.725,81.8253,-932.24,0,0
120638.05,81.8786,-929.785,0,0
120898.375,81.7669,-927.352,0,0
121158.7,81.4625,-924.831,0,0
121419.025,81.264,-922.175,0,0
121679.35,81.0877,-919.648,0,0
121939.675,80.6592,-917.082,0,0
122200.0,80.3365,-914.276,0,0
122460,80.0428,-911.531,0,0
122721,79.7073,-908.747,0,0
122981,79.3383,-905.799,0,0
123241,79.1045,-902.791,0,0
123502,78.9679,-899.83,0,0
123762,78.8098,-896.93,0,0
124022,78.816,-893.903,0,0
124283,78.7552,-890.817,0,0
124543,78.8337,-887.766,0,0
124803,78.9846,-884.82,0,0
125064,79.0805,-881.95,0,0
125324,79.1671,-879.043,0,0
125584,79.3095,-876.031,0,0
125845,79.5133,-873.112,0,0
126105,79.7753,-870.252,0,0
126365,80.0032,-867.308,0,0
126626,80.2978,-864.475,0,0
126886,80.514,-861.704,0,0
127146,80.6692,-858.747,0,0
127406,81.0156,-855.805,0,0
127667,81.3008,-852.996,0,0
127927,81.6881,-850.001,0,0
128187,82.0716,-847.115,0,0
128448,82.588,-844.131,0,0
128708,83.1618,-841.329,0,0
128968,83.6478,-838.562,0,0
129229,84.0865,-835.661,0,0
129489,84.666,-832.731,0,0
129749,85.3934,-829.7,0,0
130010,86.3044,-826.832,0,0
130270,87.3859,-824.056,0,0
130530,88.447,-821.485,0,0
130791,89.5215,-819.053,0,0
131051,90.5381,-816.769,0,0
131311,91.5031,-814.554,0,0
131572,92.4613,-812.424,0,0
131832,93.2618,-810.41,0,0
132092,93.9466,-808.331,0,0
132353,94.6489,-806.272,0,0
132613,95.1975,-804.224,0,0
132873,95.7848,-802.092,0,0
133134,96.4564,-799.936,0,0
133394,97.1196,-797.922,0,0
133654,97.7481,-795.929,0,0
133915,98.2735,-793.915,0,0
134175,98.7833,-791.94,0,0
134435,99.1783,-789.949,0,0
134696,99.544,-787.795,0,0
134956,99.9641,-785.56,0,0
135216,100.477,-783.272,0,0
135477,101.113,-781.058,0,0
135737,101.683,-778.878,0,0
135997,102.388,-776.672,0,0
136258,103.204,-774.475,0,0
136518,104.043,-772.396,0,0
136778,104.875,-770.365,0,0
137039,105.765,-768.434,0,0
137299,106.688,-766.501,0,0
137559,107.854,-764.689,0,0
137819,109.056,-763.418,0,0
138080,109.808,-762.44,0,0
138340.125,110.221,-761.406,0,0
138600.45,110.306,-760.345,0,0
138860.775,110.224,-758.986,0,0
139121.1,110.045,-757.405,0,0
139381.425,110.039,-755.682,0,0
139641.75,110.107,-754.029,0,0
139902.075,109.991,-752.459,0,0
140162.4,109.72,-750.714,0,0
140422.725,109.461,-748.648,0,0
140683.05,109.416,-746.557,0,0
140943.375,109.375,-744.461,0,0
141203.7,109.408,-742.311,0,0
141464.025,109.52,-740.169,0,0
141724.35,109.563,-738.118,0,0
141984.675,109.522,-735.904,0,0
142245.0,109.745,-733.486,0,0
142505.325,110.109,-731.318,0,0
142765.65,110.368,-729.265,0,0
143025.975,110.566,-727.075,0,0
143286.3,110.882,-724.883,0,0
143546.625,111.017,-722.774,0,0
143806.95,111.32,-720.473,0,0
144067.275,111.625,-718.291,0,0
144327.6,111.886,-716.055,0,0
144587.925,112.274,-713.623,0,0
144848.25,112.822,-711.401,0,0
145108.575,113.337,-709.176,0,0
145368.9,113.9,-707.048,0,0
145629.225,114.423,-704.906,0,0
145889.55,114.915,-702.803,0,0
146149.875,115.411,-700.624,0,0
146410.2,116.059,-698.426,0,0
146670.525,116.79,-696.275,0,0
146930.85,117.705,-694.355,0,0
147191.175,118.379,-692.848,0,0
147451.5,118.586,-691.16,0,0
147711.825,118.784,-689.134,0,0
147972.15,119.262,-686.963,0,0
148232.475,119.862,-684.959,0,0
148492.8,120.479,-683.06,0,0
148753.125,120.99,-681.331,0,0
149013.45,121.323,-679.455,0,0
149273.775,121.82,-677.607,0,0
149534.1,122.294,-675.866,0,0
149794.425,122.584,-674.271,0,0
150054.75,122.641,-672.607,0,0
150315.075,122.655,-670.768,0,0
150575.4,122.649,-668.907,0,0
150835.725,122.513,-666.995,0,0
151096.05,122.213,-664.904,0,0
151356.375,121.924,-662.524,0,0
151616.7,121.79,-659.987,0,0
151877.025,121.711,-657.415,0,0
152137.35,121.691,-654.83,0,0
152397.675,121.58,-652.131,0,0
152658.0,121.454,-649.15,0,0
152918.325,121.523,-645.838,0,0
153178.65,122.042,-642.462,0,0
153438.975,122.742,-639.268,0,0
153699.3,123.459,-636.212,0,0
153959.625,124.1,-633.069,0,0
154219.95,124.842,-629.725,0,0
154480,125.812,-626.294,0,0
154741,126.998,-622.787,0,0
155001,128.516,-619.376,0,0
155261,130.101,-616.216,0,0
155522,131.629,-613.03,0,0
155782,133.349,-609.657,0,0
156042,135.442,-606.335,0,0
156303,137.732,-603.377,0,0
156563,139.923,-600.513,0,0
156823,142.348,-597.494,0,0
157084,145.146,-594.686,0,0
157344,148.161,-592.46,0,0
157604,150.936,-590.685,0,0
157864,153.293,-589.068,0,0
158125,155.496,-587.269,0,0
158385,157.725,-585.373,0,0
158645,159.908,-583.644,0,0
158906,161.9,-581.911,0,0
159166,163.649,-579.854,0,0
159426,165.749,-577.397,0,0
159687,168.227,-574.78,0,0
159947,171.1,-572.256,0,0
160207,174.342,-569.937,0,0
160468,177.734,-567.851,0,0
160728,181.545,-566.007,0,0
160988,185.605,-564.589,0,0
161249,189.811,-563.919,0,0
161509,193.656,-563.796,0,0
161769,197.033,-564.036,0,0
162030,199.966,-564.204,0,0
162290,202.809,-564.279,0,0
162550,205.486,-564.479,0,0
162811,208.022,-564.447,0,0
163071,210.752,-564.376,0,0
163331,213.571,-564.582,0,0
163592,216.341,-564.958,0,0
163852,218.92,-565.564,0,0
164112,221.247,-566.135,0,0
164373,223.518,-566.619,0,0
164633,225.917,-566.992,0,0
164893,228.434,-567.49,0,0
165154,231.15,-568.153,0,0
165414,233.935,-569.151,0,0
165674,236.758,-570.466,0,0
165935,239.531,-572.306,0,0
166195,241.876,-574.689,0,0
166455,243.626,-577.282,0,0
166716,244.905,-579.788,0,0
166976,246.012,-582.251,0,0
167236,246.818,-584.945,0,0
167497,247.101,-587.631,0,0
167757,246.95,-590.089,0,0
168017,246.627,-592.372,0,0
168277,245.954,-594.541,0,0
168538,245.134,-596.487,0,0
168798,244.038,-598.317,0,0
169058,242.68,-599.867,0,0
169319,241.303,-601.178,0,0
169579,239.67,-602.417,0,0
169839,237.657,-603.204,0,0
170100,235.836,-603.432,0,0
170360.075,234.156,-603.427,0,0
170620.4,232.573,-603.254,0,0
170880.725,231.136,-602.912,0,0
171141.05,229.868,-602.476,0,0
171401.375,228.649,-602.075,0,0
171661.7,227.397,-601.583,0,0
171922.025,226.19,-601.025,0,0
172182.35,224.936,-600.371,0,0
172442.675,223.655,-599.537,0,0
172703.0,222.508,-598.513,0,0
172963.325,221.415,-597.369,0,0
173223.65,220.513,-596.081,0,0
173483.975,219.754,-594.794,0,0
173744.3,219.022,-593.455,0,0
174004.625,218.432,-591.947,0,0
174264.95,218.112,-590.334,0,0
174525.275,218.094,-588.885,0,0
174785.6,218.203,-587.575,0,0
175045.925,218.396,-586.405,0,0
175306.25,218.554,-585.403,0,0
175566.575,218.958,-584.365,0,0
175826.9,219.499,-583.834,0,0
176087.225,219.672,-583.724,0,0
176347.55,219.415,-583.498,0,0
176607.875,219.055,-583.02,0,0
176868.2,218.782,-582.605,0,0
177128.525,218.315,-582.155,0,0
177388.85,217.792,-581.564,0,0
177649.175,217.44,-580.924,0,0
177909.5,217.093,-580.509,0,0
178169.825,216.494,-580.17,0,0
178430.15,215.669,-579.68,0,0
178690.475,214.842,-579.014,0,0
178950.8,214.133,-578.299,0,0
179211.125,213.358,-577.659,0,0
179471.45,212.544,-577.004,0,0
179731.775,211.787,-576.367,0,0
179992.1,210.901,-575.955,0,0
180252.425,209.584,-575.722,0,0
180512.75,207.589,-575.094,0,0
180773.075,205.637,-573.832,0,0
181033.4,203.936,-572.265,0,0
181293.725,202.336,-570.573,0,0
181554.05,200.812,-568.666,0,0
181814.375,199.598,-566.614,0,0
182074.7,198.541,-564.695,0,0
182335.025,197.384,-562.985,0,0
182595.35,195.97,-561.197,0,0
182855.675,194.438,-559.098,0,0
183116.0,192.979,-556.762,0,0
183376.325,191.571,-554.252,0,0
183636.65,190.238,-551.509,0,0
183896.975,189.005,-548.535,0,0
184157.3,188.002,-545.321,0,0
184417.625,187.353,-542.014,0,0
184677.95,186.942,-538.834,0,0
184938.275,186.566,-535.647,0,0
185198.6,186.341,-532.352,0,0
185458.925,186.376,-529.063,0,0
185719.25,186.538,-525.957,0,0
185979.575,186.699,-522.872,0,0
186239.9,186.996,-519.744,0,0
186500,187.382,-516.697,0,0
186761,187.833,-513.863,0,0
187021,188.171,-511.025,0,0
187281,188.546,-507.942,0,0
187542,189.091,-504.954,0,0
187802,189.786,-502.001,0,0
188062,190.368,-499.319,0,0
188322,190.751,-496.594,0,0
188583,191.135,-493.568,0,0
188843,191.647,-490.393,0,0
189103,192.243,-487.204,0,0
189364,193.016,-483.923,0,0
189624,193.927,-480.704,0,0
189884,194.976,-477.448,0,0
190145,196.043,-474.275,0,0
190405,197.229,-471.128,0,0
190665,198.446,-468.011,0,0
190926,199.726,-465.001,0,0
191186,200.852,-461.969,0,0
191446,202.096,-458.826,0,0
191707,203.328,-455.492,0,0
191967,204.813,-452.185,0,0
192227,206.507,-448.905,0,0
192488,208.153,-445.739,0,0
192748,209.884,-442.704,0,0
193008,211.483,-439.578,0,0
193269,213.195,-436.323,0,0
193529,214.975,-433.09,0,0
193789,216.788,-429.785,0,0
194050,218.754,-426.506,0,0
194310,220.755,-423.168,0,0
194570,222.725,-419.87,0,0
194831,224.858,-416.388,0,0
195091,227.16,-412.745,0,0
195351,229.651,-409.319,0,0
195612,232.165,-405.785,0,0
195872,234.827,-402.304,0,0
196132,237.573,-398.768,0,0
196393,240.386,-395.237,0,0
196653,243.304,-391.541,0,0
196913,246.643,-387.768,0,0
197174,250.22,-384.075,0,0
197434,253.966,-380.595,0,0
197694,257.886,-377.051,0,0
197955,261.999,-373.824,0,0
198215,266.205,-370.73,0,0
198475,270.484,-367.874,0,0
198735,274.74,-365.118,0,0
198996,278.821,-362.491,0,0
199256,282.82,-359.735,0,0
199516,286.889,-356.804,0,0
199777,291.165,-353.937,0,0
200037,295.324,-350.766,0,0
200297,299.776,-347.462,0,0
200558,304.545,-343.92,0,0
200818,309.792,-340.383,0,0
201078,315.293,-336.835,0,0
201339,321.413,-333.353,0,0
201599,327.815,-330.033,0,0
201859,334.729,-326.944,0,0
202120,341.928,-324.234,0,0
202380.025,349.471,-321.717,0,0
202640.35,357.295,-319.686,0,0
202900.675,365.314,-317.937,0,0
203161.0,373.463,-316.486,0,0
203421.325,381.796,-315.242,0,0
203681.65,390.569,-314.18,0,0
203941.975,399.836,-313.341,0,0
204202.3,409.532,-313.099,0,0
204462.625,419.73,-313.566,0,0
204722.95,430.443,-315.105,0,0
204983.275,441.177,-317.634,0,0
205243.6,451.683,-321.403,0,0
205503.925,461.461,-326.164,0,0
205764.25,470.611,-331.318,0,0
206024.575,479.37,-337.01,0,0
206284.9,487.558,-343.213,0,0
206545.225,495.357,-349.677,0,0
206805.55,502.886,-356.694,0,0
207065.875,509.73,-364.493,0,0
207326.2,515.517,-372.758,0,0
207586.525,520.31,-380.944,0,0
207846.85,524.349,-388.886,0,0
208107.175,528.088,-396.538,0,0
208367.5,531.563,-404.224,0,0
208627.825,534.655,-412.206,0,0
208888.15,536.983,-420.393,0,0
209148.475,538.384,-428.476,0,0
209408.8,539.256,-436.302,0,0
209669.125,539.298,-443.701,0,0
209929.45,538.86,-450.75,0,0
210189.775,537.816,-457.216,0,0
210450.1,536.381,-462.929,0,0
210710.425,534.905,-467.971,0,0
210970.75,533.42,-472.703,0,0
211231.075,531.449,-476.951,0,0
211491.4,529.284,-480.202,0,0
211751.725,527.533,-482.669,0,0
212012.05,525.994,-484.578,0,0
212272.375,524.764,-485.748,0,0
212532.7,524.408,-486.143,0,0
212793.025,525.237,-486.444,0,0
213053.35,527.093,-487.356,0,0
213313.675,529.174,-488.923,0,0
213574.0,531.173,-491.015,0,0
213834.325,532.9,-493.295,0,0
214094.65,534.565,-495.453,0,0
214354.975,536.492,-497.581,0,0
214615.3,538.573,-499.98,0,0
214875.625,540.739,-502.614,0,0
215135.95,542.711,-505.25,0,0
215396.275,544.757,-507.958,0,0
215656.6,546.962,-510.901,0,0
215916.925,549.005,-514.215,0,0
216177.25,550.495,-517.646,0,0
216437.575,551.576,-520.533,0,0
216697.9,552.716,-522.917,0,0
216958.225,554.258,-524.763,0,0
217218.55,556.571,-526.277,0,0
217478.875,559.861,-528.05,0,0
217739.2,563.693,-530.737,0,0
217999.525,567.396,-534.272,0,0
218259.85,570.798,-538.333,0,0
218520,573.655,-542.555,0,0
218780,576.327,-546.604,0,0
219041,579.068,-550.499,0,0
219301,581.96,-554.394,0,0
219561,585.111,-558.41,0,0
219822,588.585,-562.786,0,0
220082,592.123,-567.49,0,0
220342,595.607,-572.48,0,0
220603,599.289,-577.72,0,0
220863,603.168,-583.356,0,0
221123,607.252,-589.634,0,0
221384,611.129,-596.726,0,0
221644,614.646,-604.522,0,0
221904,617.807,-612.697,0,0
222165,620.504,-621.364,0,0
222425,622.667,-630.589,0,0
222685,624.078,-640.167,0,0
222946,624.698,-649.849,0,0
223206,624.78,-659.29,0,0
223466,624.497,-668.762,0,0
223727,623.933,-678.256,0,0
223987,622.981,-688.125,0,0
224247,621.231,-697.845,0,0
224508,619.1,-707.316,0,0
224768,616.822,-716.709,0,0
225028,614.273,-726.104,0,0
225289,611.293,-735.855,0,0
225549,607.771,-745.598,0,0
225809,603.717,-755.614,0,0
226070,598.988,-765.478,0,0
226330,593.403,-775.233,0,0
226590,587.061,-784.585,0,0
226851,580.181,-793.324,0,0
227111,572.991,-801.813,0,0
227371,565.25,-809.754,0,0
227632,557.091,-817.409,0,0
227892,548.444,-824.403,0,0
228152,539.386,-830.972,0,0
228413,529.889,-836.701,0,0
228673,520.348,-841.53,0,0
228933,510.639,-845.877,0,0
229193,501.171,-849.414,0,0
229454,491.683,-852.365,0,0
229714,482.486,-855.009,0,0
229974,473.23,-857.081,0,0
230235,464.296,-858.73,0,0
230495,455.175,-859.835,0,0
230755,446.519,-860.298,0,0
231016,438.083,-860.46,0,0
231276,430.121,-860.268,0,0
231536,422.469,-859.842,0,0
231797,415.036,-859.178,0,0
232057,407.98,-858.211,0,0
232317,401.382,-857.104,0,0
232578,395.239,-855.886,0,0
232838,389.447,-854.856,0,0
233098,383.804,-853.976,0,0
233359,378.196,-853.227,0,0
233619,372.517,-852.365,0,0
233879,367.133,-851.482,0,0
234140,361.529,-850.459,0,0
234400,356.231,-849.469,0,0
234660.3,350.787,-848.21,0,0
234920.625,345.783,-846.855,0,0
235180.95,341.025,-845.428,0,0
235441.275,336.501,-844.25,0,0
235701.6,331.916,-843.272,0,0
235961.925,327.219,-842.284,0,0
236222.25,322.456,-841.155,0,0
236482.575,317.73,-839.951,0,0
236742.9,313.109,-838.547,0,0
237003.225,308.591,-837.195,0,0
237263.55,304.135,-835.749,0,0
237523.875,299.685,-834.242,0,0
237784.2,295.373,-832.79,0,0
238044.525,291.11,-831.167,0,0
238304.85,286.932,-829.636,0,0
238565.175,282.775,-828.088,0,0
238825.5,278.507,-826.59,0,0
239085.825,274.155,-824.824,0,0
239346.15,269.853,-823.074,0,0
239606.475,265.612,-821.066,0,0
239866.8,261.406,-818.95,0,0
240127.125,257.526,-816.515,0,0
240387.45,253.61,-813.937,0,0
240647.775,250.047,-811.488,0,0
240908.1,246.751,-809.004,0,0
241168.425,243.511,-806.538,0,0
241428.75,240.297,-804.267,0,0
241689.075,237.183,-801.857,0,0
241949.4,234.014,-799.553,0,0
242209.725,231.039,-797.091,0,0
242470.05,228.135,-794.69,0,0
242730.375,225.312,-792.316,0,0
242990.7,222.594,-789.823,0,0
243251.025,219.921,-787.401,0,0
243511.35,217.393,-784.983,0,0
243771.675,214.956,-782.594,0,0
244032.0,212.636,-780.317,0,0
244292.325,210.293,-778.154,0,0
244552.65,207.892,-776.118,0,0
244812.975,205.453,-773.769,0,0
245073.3,203.036,-771.712,0,0
245333.625,200.679,-769.27,0,0
245593.95,198.461,-767.072,0,0
245854.275,196.191,-764.899,0,0
246114.6,193.914,-762.721,0,0
246374.925,191.612,-760.468,0,0
246635.25,189.303,-758.146,0,0
246895.575,187.051,-755.683,0,0
247155.9,184.871,-753.187,0,0
247416.225,182.815,-750.706,0,0
247676.55,180.861,-748.132,0,0
247936.875,178.996,-745.636,0,0
248197.2,177.155,-743.076,0,0
248457.525,175.477,-740.619,0,0
248717.85,173.754,-738.127,0,0
248978.175,172.079,-735.614,0,0
249238.5,170.452,-733.24,0,0
249498.825,168.965,-730.82,0,0
249759.15,167.414,-728.315,0,0
250019.475,165.937,-725.943,0,0
250279.8,164.539,-723.5,0,0
250540,163.183,-721.073,0,0
250800,161.746,-718.679,0,0
251061,160.437,-716.271,0,0
251321,159.112,-713.899,0,0
251581,157.808,-711.505,0,0
251842,156.522,-709.026,0,0
252102,155.218,-706.638,0,0
252362,154.004,-704.163,0,0
252623,152.904,-701.606,0,0
252883,151.829,-699.121,0,0
253143,150.793,-696.595,0,0
253404,149.823,-694.127,0,0
253664,148.848,-691.611,0,0
253924,147.907,-689.059,0,0
254185,147.051,-686.45,0,0
254445,146.293,-683.855,0,0
254705,145.739,-681.208,0,0
254966,145.148,-678.686,0,0
255226,144.687,-676.069,0,0
255486,144.299,-673.632,0,0
255747,144.001,-671.22,0,0
256007,143.694,-668.906,0,0
256267,143.348,-666.606,0,0
256528,143.038,-664.285,0,0
256788,142.739,-662.006,0,0
257048,142.458,-659.654,0,0
257309,142.229,-657.362,0,0
257569,141.99,-655.048,0,0
257829,141.837,-652.675,0,0
258090,141.726,-650.243,0,0
258350,141.778,-647.842,0,0
258610,141.897,-645.414,0,0
258871,142.126,-642.995,0,0
259131,142.509,-640.64,0,0
259391,142.907,-638.342,0,0
259651,143.473,-636.14,0,0
259912,144.144,-633.954,0,0
260172,144.803,-631.921,0,0
260432,145.595,-629.953,0,0
260693,146.406,-628.088,0,0
260953,147.248,-626.26,0,0
261213,148.139,-624.544,0,0
261474,149.067,-622.933,0,0
261734,150.057,-621.427,0,0
261994,151.011,-620.054,0,0
262255,151.918,-618.723,0,0
262515,152.834,-617.443,0,0
262775,153.758,-616.209,0,0
263036,154.738,-614.918,0,0
263296,155.709,-613.698,0,0
263556,156.842,-612.559,0,0
263817,158.018,-611.495,0,0
264077,159.279,-610.63,0,0
264337,160.545,-609.824,0,0
264598,161.869,-609.126,0,0
264858,163.232,-608.668,0,0
265118,164.588,-608.312,0,0
265379,166.023,-608.168,0,0
265639,167.371,-608.215,0,0
265899,168.704,-608.398,0,0
266160,169.92,-608.894,0,0
266420,171.02,-609.573,0,0
266680.25,171.971,-610.44,0,0
266940.575,172.723,-611.535,0,0
267200.9,173.235,-612.799,0,0
267461.225,173.48,-614.186,0,0
267721.55,173.398,-615.598,0,0
267981.875,172.976,-617.043,0,0
268242.2,172.277,-618.472,0,0
268502.525,171.237,-619.806,0,0
268762.85,169.878,-620.995,0,0
269023.175,168.296,-621.959,0,0
269283.5,166.475,-622.684,0,0
269543.825,164.51,-623.187,0,0
269804.15,162.545,-623.341,0,0
270064.475,160.312,-623.339,0,0
270324.8,158.202,-622.974,0,0
270585.125,156.091,-622.322,0,0
270845.45,154.06,-621.408,0,0
271105.775,152.154,-620.354,0,0
271366.1,150.359,-619.09,0,0
271626.425,148.67,-617.731,0,0
271886.75,147.193,-616.162,0,0
272147.075,145.827,-614.506,0,0
272407.4,144.654,-612.778,0,0
272667.725,143.636,-611.07,0,0
272928.05,142.77,-609.288,0,0
273188.375,141.981,-607.524,0,0
273448.7,141.391,-605.723,0,0
273709.025,140.919,-603.968,0,0
273969.35,140.561,-602.263,0,0
274229.675,140.3,-600.618,0,0
274490.0,140.013,-599.045,0,0
274750.325,139.845,-597.444,0,0
275010.65,139.72,-595.908,0,0
275270.975,139.734,-594.378,0,0
275531.3,139.752,-592.974,0,0
275791.625,139.818,-591.616,0,0
276051.95,139.87,-590.218,0,0
276312.275,139.981,-588.782,0,0
276572.6,140.253,-587.373,0,0
276832.925,140.663,-586.014,0,0
277093.25,141.176,-584.816,0,0
277353.575,141.74,-583.768,0,0
277613.9,142.32,-582.879,0,0
277874.225,142.813,-582.125,0,0
278134.55,143.244,-581.452,0,0
278394.875,143.628,-580.811,0,0
278655.2,144.017,-580.187,0,0
278915.525,144.402,-579.627,0,0
279175.85,144.78,-579.15,0,0
279436.175,145.182,-578.781,0,0
279696.5,145.451,-578.542,0,0
279956.825,145.66,-578.337,0,0
280217.15,145.73,-578.137,0,0
280477.475,145.753,-577.952,0,0
280737.8,145.695,-577.805,0,0
280998.125,145.58,-577.66,0,0
281258.45,145.409,-577.49,0,0
281518.775,145.125,-577.354,0,0
281779.1,144.778,-577.178,0,0
282039.425,144.369,-576.991,0,0
282299.75,143.895,-576.742,0,0
282560,143.373,-576.432,0,0
282820,142.828,-576.083,0,0
283081,142.231,-575.708,0,0
283341,141.563,-575.253,0,0
283601,140.923,-574.705,0,0
283862,140.297,-574.115,0,0
284122,139.743,-573.405,0,0
284382,139.205,-572.762,0,0
284643,138.668,-572.144,0,0
284903,138.106,-571.501,0,0
285163,137.446,-570.9,0,0
285424,136.783,-570.202,0,0
285684,136.082,-569.431,0,0
285944,135.367,-568.641,0,0
286205,134.629,-567.762,0,0
286465,133.939,-566.82,0,0
286725,133.173,-565.848,0,0
286986,132.367,-564.724,0,0
287246,131.633,-563.513,0,0
287506,130.909,-562.195,0,0
287767,130.234,-560.698,0,0
288027,129.699,-559.08,0,0
288287,129.315,-557.342,0,0
288548,129.164,-555.527,0,0
288808,129.284,-553.799,0,0
289068,129.544,-552.099,0,0
289329,129.99,-550.524,0,0
289589,130.55,-549.072,0,0
289849,131.196,-547.756,0,0
290109,131.892,-546.605,0,0
290370,132.675,-545.643,0,0
290630,133.431,-544.893,0,0
290890,134.074,-544.306,0,0
291151,134.591,-543.852,0,0
291411,134.955,-543.461,0,0
291671,135.187,-543.071,0,0
291932,135.315,-542.69,0,0
292192,135.338,-542.235,0,0
292452,135.258,-541.791,0,0
292713,135.104,-541.275,0,0
292973,134.864,-540.67,0,0
293233,134.563,-539.967,0,0
293494,134.234,-539.132,0,0
293754,133.913,-538.191,0,0
294014,133.601,-537.091,0,0
294275,133.339,-535.841,0,0
294535,133.242,-534.452,0,0
294795,133.258,-533.023,0,0
295056,133.512,-531.545,0,0
295316,133.84,-530.103,0,0
295576,134.32,-528.694,0,0
295837,134.897,-527.264,0,0
296097,135.616,-525.917,0,0
296357,136.455,-524.641,0,0
296618,137.404,-523.495,0,0
296878,138.372,-522.497,0,0
297138,139.342,-521.602,0,0
297399,140.262,-520.802,0,0
297659,141.145,-519.995,0,0
297919,142.047,-519.201,0,0
298180,142.994,-518.409,0,0
298440,143.994,-517.636,0,0
298700.2,145.032,-516.889,0,0
298960.525,146.229,-516.319,0,0
299220.85,147.38,-515.795,0,0
299481.175,148.549,-515.421,0,0
299741.5,149.642,-515.126,0,0
300001.825,150.656,-514.853,0,0
300262.15,151.729,-514.537,0,0
300522.475,152.668,-514.283,0,0
300782.8,153.655,-513.971,0,0
301043.125,154.813,-513.712,0,0
301303.45,155.9,-513.451,0,0
301563.775,157.063,-513.247,0,0
301824.1,158.333,-513.092,0,0
302084.425,159.706,-513.044,0,0
302344.75,161.072,-513.118,0,0
302605.075,162.449,-513.38,0,0
302865.4,163.805,-513.765,0,0
303125.725,165.149,-514.27,0,0
303386.05,166.33,-514.922,0,0
303646.375,167.395,-515.635,0,0
303906.7,168.468,-516.382,0,0
304167.025,169.479,-517.162,0,0
304427.35,170.399,-518.057,0,0
304687.675,171.193,-518.95,0,0
304948.0,171.939,-519.88,0,0
305208.325,172.631,-520.785,0,0
305468.65,173.234,-521.718,0,0
305728.975,173.898,-522.508,0,0
305989.3,174.623,-523.542,0,0
306249.625,175.258,-524.591,0,0
306509.95,175.938,-525.749,0,0
306770.275,176.478,-527.069,0,0
307030.6,176.911,-528.388,0,0
307290.925,177.175,-529.771,0,0
307551.25,177.423,-531.172,0,0
307811.575,177.492,-532.559,0,0
308071.9,177.486,-534.064,0,0
308332.225,177.37,-535.44,0,0
308592.55,177.246,-536.863,0,0
308852.875,176.97,-538.241,0,0
309113.2,176.537,-539.625,0,0
309373.525,176.024,-540.76,0,0
309633.85,175.577,-542.019,0,0
309894.175,175.108,-543.137,0,0
310154.5,174.565,-544.367,0,0
310414.825,174.106,-545.519,0,0
310675.15,173.588,-546.736,0,0
310935.475,172.94,-548.026,0,0
311195.8,172.292,-549.4,0,0
311456.125,171.453,-550.646,0,0
311716.45,170.542,-552.074,0,0
311976.775,169.451,-553.435,0,0
312237.1,168.164,-554.633,0,0
312497.425,166.871,-555.803,0,0
312757.75,165.469,-556.845,0,0
313018.075,164.005,-557.764,0,0
313278.4,162.443,-558.569,0,0
313538.725,160.917,-559.305,0,0
313799.05,159.419,-559.91,0,0
314059.375,157.948,-560.475,0,0
314319.7,156.433,-560.793,0,0
314580,154.927,-561.283,0,0
314840,153.438,-561.542,0,0
315101,151.999,-561.781,0,0
315361,150.561,-562.14,0,0
315621,149.207,-562.378,0,0
315882,147.771,-562.634,0,0
316142,146.362,-562.894,0,0
316402,144.838,-563.166,0,0
316663,143.205,-563.333,0,0
316923,141.692,-563.45,0,0
317183,139.986,-563.587,0,0
317444,138.384,-563.501,0,0
317704,136.769,-563.44,0,0
317964,135.167,-563.195,0,0
318225,133.538,-562.93,0,0
318485,131.888,-562.556,0,0
318745,130.287,-562.216,0,0
319006,128.794,-561.838,0,0
319266,127.366,-561.408,0,0
319526,125.88,-560.914,0,0
319787,124.361,-560.404,0,0
320047,122.843,-559.831,0,0
320307,121.367,-559.199,0,0
320567,119.987,-558.462,0,0
320828,118.503,-557.711,0,0
321088,117.227,-556.923,0,0
321348,115.863,-556.105,0,0
321609,114.62,-555.246,0,0
321869,113.368,-554.351,0,0
322129,112.2,-553.432,0,0
322390,111.002,-552.454,0,0
322650,109.828,-551.379,0,0
322910,108.651,-550.398,0,0
323171,107.672,-549.161,0,0
323431,106.749,-548.087,0,0
323691,105.851,-546.819,0,0
323952,105.128,-545.614,0,0
324212,104.424,-544.494,0,0
324472,103.805,-543.316,0,0
324733,103.332,-542.232,0,0
324993,102.894,-541.124,0,0
325253,102.428,-540.127,0,0
325514,102.013,-539.125,0,0
325774,101.634,-538.168,0,0
326034,101.237,-537.312,0,0
326295,100.936,-536.426,0,0
326555,100.613,-535.543,0,0
326815,100.284,-534.785,0,0
327076,100.086,-533.975,0,0
327336,99.8725,-533.203,0,0
327596,99.6314,-532.455,0,0
327857,99.4017,-531.848,0,0
328117,99.2599,-531.186,0,0
328377,99.0265,-530.672,0,0
328638,98.7708,-530.112,0,0
328898,98.5693,-529.642,0,0
329158,98.3002,-529.171,0,0
329419,98.0433,-528.728,0,0
329679,97.7715,-528.427,0,0
329939,97.4002,-528.043,0,0
330200,97.07,-527.732,0,0
330460,96.6774,-527.314,0,0
330720.15,96.2966,-527.042,0,0
330980.475,95.7916,-526.682,0,0
331240.8,95.3597,-526.362,0,0
331501.125,94.8572,-526.121,0,0
331761.45,94.3748,-525.793,0,0
332021.775,93.8804,-525.498,0,0
332282.1,93.2991,-525.214,0,0
332542.425,92.6547,-524.856,0,0
332802.75,92.0141,-524.563,0,0
333063.075,91.2271,-524.238,0,0
333323.4,90.6387,-523.829,0,0
333583.725,89.8946,-523.449,0,0
333844.05,89.1366,-523.042,0,0
334104.375,88.3847,-522.551,0,0
334364.7,87.6547,-522.06,0,0
334625.025,86.9191,-521.545,0,0
334885.35,86.1539,-521.104,0,0
335145.675,85.3797,-520.567,0,0
335406.0,84.6231,-519.921,0,0
335666.325,83.8521,-519.326,0,0
335926.65,83.0953,-518.715,0,0
336186.975,82.3368,-518.066,0,0
336447.3,81.5511,-517.368,0,0
336707.625,80.873,-516.653,0,0
336967.95,80.1683,-515.943,0,0
337228.275,79.507,-515.194,0,0
337488.6,78.8243,-514.44,0,0
337748.925,78.1855,-513.66,0,0
338009.25,77.4818,-512.903,0,0
338269.575,76.8745,-512.2,0,0
338529.9,76.2432,-511.296,0,0
338790.225,75.6689,-510.538,0,0
339050.55,75.0305,-509.727,0,0
339310.875,74.4534,-508.899,0,0
339571.2,73.8425,-508.102,0,0
339831.525,73.2529,-507.223,0,0
340091.85,72.7992,-506.417,0,0
340352.175,72.2176,-505.529,0,0
340612.5,71.6703,-504.716,0,0
340872.825,71.2252,-503.777,0,0
341133.15,70.7938,-502.933,0,0
341393.475,70.3256,-502.094,0,0
341653.8,69.8346,-501.319,0,0
341914.125,69.4338,-500.422,0,0
342174.45,69.0328,-499.585,0,0
342434.775,68.6194,-498.704,0,0
342695.1,68.1683,-498.002,0,0
342955.425,67.788,-497.117,0,0
343215.75,67.3948,-496.351,0,0
343476.075,66.9644,-495.52,0,0
343736.4,66.5738,-494.776,0,0
343996.725,66.1416,-493.915,0,0
344257.05,65.7694,-493.105,0,0
344517.375,65.2864,-492.298,0,0
344777.7,64.8769,-491.469,0,0
345038.025,64.4954,-490.587,0,0
345298.35,64.0509,-489.764,0,0
345558.675,63.6554,-488.922,0,0
345819.0,63.2539,-488.029,0,0
346079.325,62.8578,-487.138,0,0
346339.65,62.4866,-486.25,0,0
346599.975,62.1408,-485.392,0,0
346860,61.8086,-484.505,0,0
347121,61.5042,-483.563,0,0
347381,61.1076,-482.619,0,0
347641,60.8029,-481.718,0,0
347902,60.5742,-480.717,0,0
348162,60.308,-479.833,0,0
348422,60.0134,-478.955,0,0
348683,59.7661,-477.933,0,0
348943,59.489,-477.06,0,0
349203,59.249,-476.075,0,0
349464,59.0963,-475.137,0,0
349724,58.958,-474.247,0,0
349984,58.7997,-473.225,0,0
350245,58.6324,-472.355,0,0
350505,58.5671,-471.465,0,0
350765,58.4347,-470.541,0,0
351025,58.3309,-469.65,0,0
351286,58.2528,-468.743,0,0
351546,58.1641,-467.968,0,0
351806,58.0721,-467.086,0,0
352067,58.0228,-466.277,0,0
352327,57.9828,-465.43,0,0
352587,57.897,-464.664,0,0
352848,57.7591,-463.842,0,0
353108,57.6916,-463.054,0,0
353368,57.6237,-462.279,0,0
353629,57.4901,-461.463,0,0
353889,57.4148,-460.715,0,0
354149,57.2935,-459.849,0,0
354410,57.2574,-459.035,0,0
354670,57.1451,-458.228,0,0
354930,57.0877,-457.414,0,0
355191,57.02,-456.583,0,0
355451,56.9935,-455.767,0,0
355711,56.9552,-454.965,0,0
355972,56.9098,-454.079,0,0
356232,56.9212,-453.219,0,0
356492,56.9553,-452.441,0,0
356753,56.9906,-451.598,0,0
357013,57.021,-450.802,0,0
357273,57.0426,-450.097,0,0
357534,57.1064,-449.323,0,0
357794,57.1604,-448.615,0,0
358054,57.2422,-447.839,0,0
358315,57.2511,-447.104,0,0
358575,57.2848,-446.412,0,0
358835,57.3476,-445.728,0,0
359096,57.3392,-445.011,0,0
359356,57.375,-444.309,0,0
359616,57.3953,-443.538,0,0
359877,57.3659,-442.835,0,0
360137,57.4072,-442.078,0,0
360397,57.4859,-441.332,0,0
360658,57.5625,-440.633,0,0
360918,57.6532,-439.921,0,0
361178,57.7427,-439.198,0,0
361438,57.798,-438.518,0,0
361699,57.8537,-437.854,0,0
361959,57.8619,-437.154,0,0
362219,57.9453,-436.502,0,0
362480,58.0134,-435.877,0,0
362740.1,58.0307,-435.163,0,0
363000.425,58.1017,-434.534,0,0
363260.75,58.1478,-433.827,0,0
363521.075,58.2155,-433.11,0,0
363781.4,58.2836,-432.49,0,0
364041.725,58.3313,-431.794,0,0
364302.05,58.4065,-431.066,0,0
364562.375,58.4667,-430.409,0,0
364822.7,58.5229,-429.748,0,0
365083.025,58.6118,-429.039,0,0
365343.35,58.6473,-428.378,0,0
365603.675,58.7364,-427.689,0,0
365864.0,58.7954,-427,0,0
366124.325,58.8811,-426.282,0,0
366384.65,58.9663,-425.598,0,0
366644.975,59.0303,-424.975,0,0
366905.3,59.0694,-424.282,0,0
367165.625,59.1188,-423.527,0,0
367425.95,59.138,-422.773,0,0
367686.275,59.2152,-422.049,0,0
367946.6,59.2615,-421.239,0,0
368206.925,59.3056,-420.409,0,0
368467.25,59.3689,-419.55,0,0
368727.575,59.4989,-418.633,0,0
368987.9,59.6508,-417.699,0,0
369248.225,59.9168,-416.749,0,0
369508.55,60.203,-415.808,0,0
369768.875,60.4771,-414.858,0,0
370029.2,60.9302,-413.984,0,0
370289.525,61.3745,-413.024,0,0
370549.85,61.9375,-412.14,0,0
370810.175,62.5284,-411.304,0,0
371070.5,63.1655,-410.58,0,0
371330.825,63.7431,-409.885,0,0
371591.15,64.3996,-409.163,0,0
371851.475,65.0228,-408.516,0,0
372111.8,65.743,-407.955,0,0
372372.125,66.375,-407.405,0,0
372632.45,67.1168,-406.918,0,0
372892.775,67.7911,-406.436,0,0
373153.1,68.482,-406.055,0,0
373413.425,69.204,-405.738,0,0
373673.75,69.9157,-405.394,0,0
373934.075,70.5859,-405.164,0,0
374194.4,71.2507,-404.932,0,0
374454.725,71.8672,-404.777,0,0
374715.05,72.4544,-404.673,0,0
374975.375,73.0168,-404.586,0,0
375235.7,73.5364,-404.506,0,0
375496.025,74.0394,-404.489,0,0
375756.35,74.523,-404.401,0,0
376016.675,74.9125,-404.366,0,0
376277.0,75.2715,-404.341,0,0
376537.325,75.6605,-404.305,0,0
376797.65,75.9726,-404.204,0,0
377057.975,76.3313,-404.108,0,0
377318.3,76.6089,-404.03,0,0
377578.625,77.0094,-403.936,0,0
377838.95,77.4272,-403.859,0,0
378099.275,77.7906,-403.836,0,0
378359.6,78.1442,-403.8,0,0
378619.925,78.4833,-403.779,0,0
378880,78.8093,-403.847,0,0
379141,79.1102,-403.851,0,0
379401,79.3749,-403.873,0,0
379661,79.6823,-403.881,0,0
379922,79.9544,-403.94,0,0
380182,80.2079,-403.974,0,0
380442,80.5578,-403.985,0,0
380703,80.8492,-404.027,0,0
380963,81.1717,-404.092,0,0
381223,81.5595,-404.251,0,0
381483,81.9267,-404.505,0,0
381744,82.1926,-404.762,0,0
382004,82.4735,-405.11,0,0
382264,82.7152,-405.456,0,0
382525,82.8228,-405.914,0,0
382785,82.9204,-406.365,0,0
383045,82.9559,-406.809,0,0
383306,82.822,-407.282,0,0
383566,82.6973,-407.75,0,0
383826,82.4891,-408.188,0,0
384087,82.2344,-408.558,0,0
384347,81.8298,-408.921,0,0
384607,81.4886,-409.261,0,0
384868,81.0123,-409.589,0,0
385128,80.5361,-409.834,0,0
385388,80.0449,-409.977,0,0
385649,79.5685,-410.144,0,0
385909,79.038,-410.251,0,0
386169,78.5174,-410.339,0,0
386430,77.9566,-410.394,0,0
386690,77.4043,-410.463,0,0
386950,76.7865,-410.417,0,0
387211,76.1037,-410.35,0,0
387471,75.4627,-410.197,0,0
387731,74.833,-409.999,0,0
387992,74.1831,-409.742,0,0
388252,73.6519,-409.371,0,0
388512,73.1109,-408.981,0,0
388773,72.584,-408.603,0,0
389033,72.1355,-408.145,0,0
389293,71.7296,-407.752,0,0
389554,71.349,-407.316,0,0
389814,71.0021,-406.9,0,0
390074,70.7188,-406.502,0,0
390335,70.4008,-406.093,0,0
390595,70.1792,-405.696,0,0
390855,69.8863,-405.326,0,0
391116,69.632,-405.023,0,0
391376,69.3467,-404.685,0,0
391636,69.0723,-404.41,0,0
391896,68.8075,-404.112,0,0
392157,68.5516,-403.809,0,0
392417,68.1987,-403.533,0,0
392677,67.9038,-403.296,0,0
392938,67.5502,-403.02,0,0
393198,67.1244,-402.75,0,0
393458,66.7133,-402.472,0,0
393719,66.2567,-402.199,0,0
393979,65.7865,-401.844,0,0
394239,65.305,-401.498,0,0
394500,64.8136,-401.046,0,0
394760.05,64.3189,-400.62,0,0
395020.375,63.8598,-400.104,0,0
395280.7,63.3537,-399.593,0,0
395541.025,62.9349,-399.052,0,0
395801.35,62.4528,-398.461,0,0
396061.675,62.0421,-397.828,0,0
396322.0,61.6727,-397.233,0,0
396582.325,61.287,-396.572,0,0
396842.65,60.9414,-395.909,0,0
397102.975,60.5951,-395.253,0,0
397363.3,60.2841,-394.56,0,0
397623.625,60.0179,-393.903,0,0
397883.95,59.7495,-393.255,0,0
398144.275,59.5044,-392.564,0,0
398404.6,59.2587,-391.923,0,0
398664.925,59.0028,-391.224,0,0
398925.25,58.7851,-390.538,0,0
399185.575,58.5605,-389.868,0,0
399445.9,58.3671,-389.163,0,0
399706.225,58.1405,-388.43,0,0
399966.55,57.958,-387.731,0,0
400006.6,57.9428,-387.632,0,0