File: Accelerated corrosion test data/2025-10-07_06-00-03/sample_2.csv
Frequency (Hz),Impedance (ohms),Phase (Radians),Temperature (C),Humidity (%)
10000.0,230.782,-11399.6,0,0
10260.325,224.711,-11112.9,0,0
10520.65,220.013,-10839.8,0,0
10780.975,214.972,-10580.3,0,0
11041.3,209.659,-10333.8,0,0
11301.625,205.331,-10096.3,0,0
11561.95,201.567,-9869.84,0,0
11822.275,198.651,-9659.18,0,0
12082.6,195.861,-9451.89,0,0
12342.925,188.467,-9255.41,0,0
12603.25,184.487,-9064.71,0,0
12863.575,181.232,-8881.26,0,0
13123.9,179.01,-8708.79,0,0
13384.225,174.442,-8538.21,0,0
13644.55,171.545,-8373.17,0,0
13904.875,186.603,-8219.54,0,0
14165.2,166.423,-8075.63,0,0
14425.525,163.602,-7927.7,0,0
14685.8,162.956,-7781.59,0,0
14946.175,162.012,-7653.94,0,0
15206.5,167.747,-7529.56,0,0
15466.825,162.975,-7395.93,0,0
15727.15,152.694,-7284.75,0,0
15987.5,148.903,-7163.35,0,0
16247.8,148.754,-7048.91,0,0
16508.125,144.047,-6939.54,0,0
16768.45,141.748,-6831.49,0,0
17028.775,140.118,-6727.39,0,0
17289.1,138.863,-6627.24,0,0
17549.425,135.611,-6528.46,0,0
17809.75,133.381,-6433.02,0,0
18070.075,130.995,-6340.57,0,0
18330.4,129.816,-6250.13,0,0
18590.725,129.213,-6161.79,0,0
18851.05,127.734,-6076.36,0,0
19111.375,129.396,-5994.53,0,0
19371.7,129.082,-5916.69,0,0
19632.025,123.764,-5839.74,0,0
19892.35,121.15,-5761.99,0,0
20152.675,119.736,-5686.54,0,0
20413.0,118.913,-5612.65,0,0
20673.3,118.112,-5540.18,0,0
20933.65,118.671,-5469.06,0,0
21193.975,123.602,-5401.88,0,0
21454.3,130.357,-5338.5,0,0
21714.625,128.332,-5283.32,0,0
21974.9,121.379,-5219.57,0,0
22235.275,119.786,-5165.48,0,0
22495.6,115.41,-5105.04,0,0
22755.925,111.988,-5044.21,0,0
23016.25,112.709,-4988.73,0,0
23276.6,113.59,-4933.8,0,0
23536.9,108.939,-4879.24,0,0
23797.225,107.287,-4824.75,0,0
24057.55,106.913,-4774.13,0,0
24317.875,103.674,-4723.7,0,0
24578.2,101.658,-4672.34,0,0
24838.525,100.427,-4623.28,0,0
25098.85,99.6902,-4574.53,0,0
25359.175,98.6937,-4526.78,0,0
25619.5,97.6389,-4481.13,0,0
25879.8,96.1637,-4435.29,0,0
26140.1,96.3739,-4389.87,0,0
26400.5,95.9954,-4346.93,0,0
26660.8,96.416,-4305.24,0,0
26921.1,95.2414,-4263.14,0,0
27181.4,94.3786,-4223.28,0,0
27441.8,92.7886,-4182.9,0,0
27702.1,90.8858,-4143.2,0,0
27962.4,90.1538,-4102.93,0,0
28222.7,90.6496,-4064.12,0,0
28483.1,89.969,-4026.6,0,0
28743.4,89.2746,-3990.1,0,0
29003.7,90.845,-3952.36,0,0
29264,91.0436,-3917.12,0,0
29524.4,93.5059,-3881.22,0,0
29784.7,97.2264,-3851.71,0,0
30045,92.7092,-3820.59,0,0
30305.3,94.0661,-3787.34,0,0
30565.7,91.2557,-3759.91,0,0
30826,88.0337,-3727.23,0,0
31086.3,86.9089,-3695.25,0,0
31346.6,85.0089,-3664.46,0,0
31607,85.1311,-3633.27,0,0
31867.3,83.4899,-3604.17,0,0
32127.6,82.2287,-3573.79,0,0
32387.9,82.4928,-3543.59,0,0
32648.3,83.7217,-3515.54,0,0
32908.6,83.3945,-3489.47,0,0
33168.9,82.2318,-3462.39,0,0
33429.2,80.1999,-3435.39,0,0
33689.6,79.817,-3408.5,0,0
33949.9,78.9803,-3382.69,0,0
34210.2,77.4298,-3356.8,0,0
34470.5,76.4876,-3330.93,0,0
34730.9,75.9318,-3304.91,0,0
34991.2,75.3189,-3280.17,0,0
35251.5,74.9429,-3255.52,0,0
35511.8,74.425,-3231.2,0,0
35772.2,74.0602,-3207.38,0,0
36032.5,73.3961,-3184.08,0,0
36292.8,72.5864,-3160.79,0,0
36553.1,72.3122,-3137.98,0,0
36813.5,71.6762,-3115.39,0,0
37073.8,71.3295,-3092.97,0,0
37334.1,71.3106,-3070.87,0,0
37594.4,70.9199,-3049.34,0,0
37854.8,70.449,-3028.15,0,0
38115.1,70.3196,-3007.42,0,0
38375.4,69.5728,-2986.54,0,0
38635.7,68.7761,-2965.93,0,0
38896.1,68.77,-2945.83,0,0
39156.4,68.5098,-2925.9,0,0
39416.7,67.8202,-2906.04,0,0
39677,67.5108,-2886.6,0,0
39937.4,67.2293,-2867.3,0,0
40197.7,66.9223,-2848.65,0,0
40458,66.259,-2829.78,0,0
40718.3,66.2524,-2810.86,0,0
40978.7,66.1988,-2792.93,0,0
41239,65.7015,-2774.79,0,0
41499.3,65.9204,-2757.26,0,0
41759.6,65.4061,-2739.54,0,0
42020,65.3683,-2722.25,0,0
42280.275,65.2049,-2705.3,0,0
42540.6,64.5858,-2688.52,0,0
42800.925,64.4109,-2671.67,0,0
43061.25,63.9776,-2655.05,0,0
43321.575,63.7541,-2638.69,0,0
43581.9,63.8008,-2622.75,0,0
43842.225,63.2128,-2606.62,0,0
44102.55,63.167,-2590.78,0,0
44362.875,62.8731,-2575.46,0,0
44623.2,62.5747,-2560.05,0,0
44883.525,62.113,-2544.58,0,0
45143.85,61.8503,-2529.1,0,0
45404.175,62.1824,-2514.38,0,0
45664.5,62.0414,-2499.94,0,0
45924.825,61.6889,-2484.93,0,0
46185.15,61.8376,-2470.83,0,0
46445.475,61.4567,-2457.12,0,0
46705.8,60.9285,-2442.62,0,0
46966.125,60.9326,-2428.4,0,0
47226.45,60.8915,-2414.5,0,0
47486.775,61.2378,-2401.09,0,0
47747.1,60.7667,-2387.8,0,0
48007.425,60.6324,-2374.18,0,0
48267.75,61.0462,-2360.54,0,0
48528.075,61.7096,-2348.65,0,0
48788.4,61.1407,-2336.28,0,0
49048.725,60.7864,-2323.77,0,0
49309.05,60.2918,-2311.68,0,0
49569.375,59.4326,-2299.32,0,0
49829.7,58.8113,-2286.63,0,0
50090.025,58.6174,-2274.41,0,0
50350.35,58.0157,-2262.15,0,0
50610.675,57.7751,-2249.7,0,0
50871.0,57.8802,-2237.62,0,0
51131.325,57.6768,-2226.13,0,0
51391.65,57.333,-2214.69,0,0
51651.975,56.7882,-2203,0,0
51912.3,56.5,-2191.54,0,0
52172.625,55.9721,-2180.02,0,0
52432.95,55.8118,-2168.53,0,0
52693.275,55.4459,-2157.16,0,0
52953.6,55.233,-2146.03,0,0
53213.925,54.967,-2134.89,0,0
53474.25,54.7861,-2123.87,0,0
53734.575,54.732,-2113,0,0
53994.9,54.6169,-2102.2,0,0
54255.225,54.5348,-2091.49,0,0
54515.55,54.5405,-2080.82,0,0
54775.875,54.3778,-2070.44,0,0
55036.2,54.2322,-2060.14,0,0
55296.525,54.0607,-2049.77,0,0
55556.85,54.0981,-2039.55,0,0
55817.175,54.1087,-2029.48,0,0
56077.5,53.9984,-2019.54,0,0
56337.825,53.8564,-2009.54,0,0
56598.15,53.9143,-1999.69,0,0
56858.475,53.9759,-1989.94,0,0
57118.8,54.0256,-1980.21,0,0
57379.125,53.9957,-1970.78,0,0
57639.45,54.0329,-1961.25,0,0
57899.775,54.2261,-1951.8,0,0
58160.1,54.2008,-1942.69,0,0
58420.4,54.1371,-1933.55,0,0
58680.7,54.1449,-1924.17,0,0
58941.1,54.3061,-1914.99,0,0
59201.4,54.3949,-1905.97,0,0
59461.7,54.7174,-1896.9,0,0
59722,54.9509,-1887.96,0,0
59982.4,55.5457,-1879.02,0,0
60242.7,56.2881,-1870.79,0,0
60503,56.5495,-1862.86,0,0
60763.3,56.2446,-1854.61,0,0
61023.7,56.5749,-1845.89,0,0
61284,57.421,-1837.64,0,0
61544.3,58.2088,-1829.96,0,0
61804.6,58.9638,-1822.79,0,0
62065,58.8309,-1816.17,0,0
62325.3,58.1923,-1809.08,0,0
62585.6,57.8832,-1801.48,0,0
62845.9,57.4799,-1794,0,0
63106.3,57.0467,-1787.2,0,0
63366.6,55.9257,-1779.73,0,0
63626.9,55.2747,-1772.14,0,0
63887.2,54.4448,-1764.39,0,0
64147.6,53.906,-1756.67,0,0
64407.9,53.3298,-1749.06,0,0
64668.2,53.0627,-1741.33,0,0
64928.5,52.6549,-1734.09,0,0
65188.9,51.5769,-1726.84,0,0
65449.2,50.6257,-1718.6,0,0
65709.5,50.6248,-1710.29,0,0
65969.8,50.673,-1702.52,0,0
66230.2,50.8442,-1694.93,0,0
66490.5,51.0107,-1687.45,0,0
66750.8,51.1117,-1680.33,0,0
67011.1,51.0158,-1672.73,0,0
67271.5,51.4729,-1665.24,0,0
67531.8,51.8432,-1658.01,0,0
67792.1,52.4191,-1651.08,0,0
68052.4,53.1812,-1644.24,0,0
68312.8,53.5845,-1638.03,0,0
68573.1,53.6141,-1631.43,0,0
68833.4,53.9446,-1624.67,0,0
69093.7,54.8899,-1618.43,0,0
69354.1,55.0734,-1612.67,0,0
69614.4,55.3443,-1606.5,0,0
69874.7,56.0741,-1600.99,0,0
70135,55.7578,-1595.95,0,0
70395.4,55.3005,-1590.53,0,0
70655.7,54.2836,-1585.18,0,0
70916,53.2436,-1579.1,0,0
71176.3,52.7366,-1572.86,0,0
71436.7,52.1089,-1567.02,0,0
71697,51.3706,-1561.23,0,0
71957.3,50.2959,-1555.64,0,0
72217.6,48.835,-1549.21,0,0
72478,48.0934,-1542.5,0,0
72738.3,47.2855,-1535.9,0,0
72998.6,46.6627,-1529.3,0,0
73258.9,46.3988,-1522.81,0,0
73519.3,45.8305,-1516.49,0,0
73779.6,45.3151,-1509.87,0,0
74039.9,45.1146,-1503.11,0,0
74300.225,45.2285,-1496.58,0,0
74560.55,45.1992,-1490.28,0,0
74820.875,45.2625,-1483.94,0,0
75081.2,45.3686,-1477.66,0,0
75341.525,45.5363,-1471.39,0,0
75601.85,45.795,-1465.26,0,0
75862.175,46.1396,-1459.12,0,0
76122.5,46.5483,-1453.08,0,0
76382.825,47.0286,-1447.25,0,0
76643.15,47.4285,-1441.49,0,0
76903.475,47.8699,-1435.78,0,0
77163.8,48.3931,-1430.06,0,0
77424.125,49.086,-1424.49,0,0
77684.45,49.6763,-1419.13,0,0
77944.775,50.4408,-1413.76,0,0
78205.1,51.2495,-1408.66,0,0
78465.425,52.0769,-1403.82,0,0
78725.75,52.5918,-1399.28,0,0
78986.075,53.078,-1394.74,0,0
79246.4,53.3995,-1390.56,0,0
79506.725,53.407,-1386.2,0,0
79767.05,53.3146,-1382.05,0,0
80027.375,52.8822,-1377.88,0,0
80287.7,51.9912,-1373.44,0,0
80548.025,51.2524,-1368.54,0,0
80808.35,50.6591,-1363.61,0,0
81068.675,50.1749,-1358.52,0,0
81329.0,49.7351,-1353.47,0,0
81589.325,49.3693,-1348.45,0,0
81849.65,48.9921,-1343.34,0,0
82109.975,48.6869,-1338.2,0,0
82370.3,48.4286,-1333.15,0,0
82630.625,48.2821,-1328.01,0,0
82890.95,48.1916,-1322.77,0,0
83151.275,48.2316,-1317.66,0,0
83411.6,48.3295,-1312.63,0,0
83671.925,48.4979,-1307.68,0,0
83932.25,48.7204,-1302.8,0,0
84192.575,48.9203,-1298.04,0,0
84452.9,49.1313,-1293.34,0,0
84713.225,49.2016,-1288.73,0,0
84973.55,49.3555,-1283.99,0,0
85233.875,49.4442,-1279.26,0,0
85494.2,49.7199,-1274.64,0,0
85754.525,50.047,-1270.12,0,0
86014.85,50.2447,-1265.68,0,0
86275.175,50.4831,-1261.29,0,0
86535.5,50.6327,-1256.99,0,0
86795.825,50.7114,-1252.66,0,0
87056.15,50.8151,-1248.23,0,0
87316.475,51.1566,-1243.81,0,0
87576.8,51.4527,-1239.77,0,0
87837.125,51.3643,-1235.79,0,0
88097.45,51.2271,-1231.58,0,0
88357.775,51.2477,-1227.13,0,0
88618.1,51.553,-1223.22,0,0
88878.425,51.1169,-1219.11,0,0
89138.75,50.8737,-1214.43,0,0
89399.075,51.2808,-1210.1,0,0
89659.4,51.4169,-1205.76,0,0
89919.725,51.8829,-1201.57,0,0
90180,52.2125,-1197.74,0,0
90440.4,52.109,-1193.91,0,0
90700.7,51.6464,-1189.9,0,0
90961,51.5755,-1185.17,0,0
91221.3,52.1785,-1180.69,0,0
91481.7,52.647,-1176.85,0,0
91742,52.8219,-1173.01,0,0
92002.3,53.0225,-1168.74,0,0
92262.6,53.4525,-1164.56,0,0
92523,54.1565,-1160.64,0,0
92783.3,54.6592,-1157.1,0,0
93043.6,55.1291,-1153.42,0,0
93303.9,55.7697,-1149.9,0,0
93564.3,56.0285,-1146.86,0,0
93824.6,56.1004,-1143.39,0,0
94084.9,56.2112,-1140.24,0,0
94345.2,55.9639,-1137.13,0,0
94605.6,55.3101,-1133.44,0,0
94865.9,55.3807,-1129.5,0,0
95126.2,55.4266,-1126.08,0,0
95386.5,54.9929,-1122.62,0,0
95646.9,54.5214,-1118.51,0,0
95907.2,54.6488,-1114.04,0,0
96167.5,55.4732,-1109.86,0,0
96427.8,56.4046,-1106.4,0,0
96688.2,57.0077,-1103.31,0,0
96948.5,57.3506,-1100.14,0,0
97208.8,57.8148,-1096.96,0,0
97469.1,58.3789,-1094.06,0,0
97729.5,58.5671,-1091.51,0,0
97989.8,58.505,-1088.9,0,0
98250.1,58.1392,-1086.22,0,0
98510.4,57.8138,-1083.26,0,0
98770.8,57.6121,-1080.43,0,0
99031.1,57.327,-1077.9,0,0
99291.4,56.3775,-1075.52,0,0
99551.7,55.004,-1072.58,0,0
99812.1,53.6536,-1069.15,0,0
100072,52.5664,-1065.21,0,0
100333,51.9724,-1061.25,0,0
100593,51.7521,-1057.53,0,0
100853,51.3234,-1054.17,0,0
101114,50.6251,-1050.86,0,0
101374,49.6754,-1047.38,0,0
101634,48.6831,-1043.57,0,0
101895,47.8024,-1039.37,0,0
102155,47.3477,-1035,0,0
102415,47.2525,-1030.82,0,0
102676,46.9884,-1026.97,0,0
102936,46.6212,-1022.84,0,0
103196,46.4748,-1018.67,0,0
103457,46.3331,-1014.52,0,0
103717,46.2862,-1010.22,0,0
103977,46.4573,-1005.69,0,0
104238,47.0806,-1001.36,0,0
104498,47.7836,-997.19,0,0
104758,48.8227,-993.202,0,0
105019,49.718,-989.657,0,0
105279,50.4393,-986.197,0,0
105539,51.1528,-982.586,0,0
105800,52.1677,-978.899,0,0
106060,53.4787,-975.674,0,0
106320.175,54.5582,-972.86,0,0
106580.5,55.5707,-970.07,0,0
106840.825,56.5398,-967.582,0,0
107101.15,57.1646,-965.373,0,0
107361.475,57.4608,-963.056,0,0
107621.8,57.7907,-960.718,0,0
107882.125,57.9365,-958.529,0,0
108142.45,57.7724,-956.433,0,0
108402.775,57.2284,-953.996,0,0
108663.1,56.865,-951.299,0,0
108923.425,56.4931,-948.773,0,0
109183.75,55.8051,-946.153,0,0
109444.075,55.017,-943.175,0,0
109704.4,54.4979,-940.055,0,0
109964.725,53.8588,-936.887,0,0
110225.05,53.2043,-933.524,0,0
110485.375,52.8216,-930.057,0,0
110745.7,52.4158,-926.499,0,0
111006.025,52.2205,-922.92,0,0
111266.35,52.2108,-919.26,0,0
111526.675,52.1802,-915.898,0,0
111787.0,52.192,-912.438,0,0
112047.325,52.2301,-908.961,0,0
112307.65,52.3222,-905.613,0,0
112567.975,52.3989,-902.099,0,0
112828.3,52.5106,-898.597,0,0
113088.625,52.7554,-895.129,0,0
113348.95,53.0344,-891.652,0,0
113609.275,53.4094,-888.212,0,0
113869.6,53.7859,-884.863,0,0
114129.925,54.1986,-881.477,0,0
114390.25,54.6821,-878.127,0,0
114650.575,55.1761,-874.853,0,0
114910.9,55.6971,-871.626,0,0
115171.225,56.2529,-868.353,0,0
115431.55,56.8809,-865.186,0,0
115691.875,57.4882,-862.108,0,0
115952.2,58.1414,-859.017,0,0
116212.525,58.746,-855.933,0,0
116472.85,59.4256,-852.82,0,0
116733.175,60.2526,-849.815,0,0
116993.5,61.0673,-846.944,0,0
117253.825,61.821,-844.153,0,0
117514.15,62.5829,-841.361,0,0
117774.475,63.3756,-838.591,0,0
118034.8,64.2421,-835.942,0,0
118295.125,65.0262,-833.476,0,0
118555.45,65.6691,-830.993,0,0
118815.775,66.4066,-828.435,0,0
119076.1,67.2709,-826.055,0,0
119336.425,67.8757,-823.881,0,0
119596.75,68.5138,-821.564,0,0
119857.075,69.2316,-819.477,0,0
120117.4,69.6486,-817.517,0,0
120377.725,70.0338,-815.595,0,0
120638.05,70.2041,-813.665,0,0
120898.375,70.1678,-811.732,0,0
121158.7,69.923,-809.656,0,0
121419.025,69.6856,-807.308,0,0
121679.35,69.5426,-804.913,0,0
121939.675,69.3977,-802.489,0,0
122200.0,69.23,-800.069,0,0
122460,69.0418,-797.558,0,0
122721,68.7947,-794.909,0,0
122981,68.6959,-792.257,0,0
123241,68.5861,-789.604,0,0
123502,68.493,-786.925,0,0
123762,68.4242,-784.263,0,0
124022,68.2858,-781.576,0,0
124283,68.1699,-778.788,0,0
124543,68.03,-776.026,0,0
124803,67.9441,-773.17,0,0
125064,67.8589,-770.207,0,0
125324,67.8478,-767.226,0,0
125584,67.9185,-764.251,0,0
125845,67.9959,-761.206,0,0
126105,68.1552,-758.165,0,0
126365,68.3491,-755.083,0,0
126626,68.6407,-752.057,0,0
126886,68.9783,-749.036,0,0
127146,69.3843,-746.069,0,0
127406,69.7917,-742.95,0,0
127667,70.3769,-739.93,0,0
127927,71.0291,-737.075,0,0
128187,71.5979,-734.335,0,0
128448,72.1594,-731.503,0,0
128708,72.7737,-728.796,0,0
128968,73.362,-726.139,0,0
129229,73.9352,-723.525,0,0
129489,74.4639,-720.93,0,0
129749,74.9941,-718.32,0,0
130010,75.4406,-715.738,0,0
130270,75.9909,-713.136,0,0
130530,76.5156,-710.613,0,0
130791,76.9854,-708.106,0,0
131051,77.4272,-705.566,0,0
131311,77.8675,-703.127,0,0
131572,78.2253,-700.638,0,0
131832,78.5813,-698.181,0,0
132092,78.8573,-695.735,0,0
132353,79.1043,-693.235,0,0
132613,79.2098,-690.66,0,0
132873,79.3224,-687.954,0,0
133134,79.5376,-685.11,0,0
133394,79.853,-682.311,0,0
133654,80.2106,-679.558,0,0
133915,80.5207,-676.805,0,0
134175,80.8092,-674.042,0,0
134435,81.079,-671.25,0,0
134696,81.3617,-668.319,0,0
134956,81.6948,-665.349,0,0
135216,82.0906,-662.414,0,0
135477,82.4725,-659.44,0,0
135737,83.0051,-656.416,0,0
135997,83.5554,-653.462,0,0
136258,84.0654,-650.5,0,0
136518,84.6471,-647.519,0,0
136778,85.194,-644.552,0,0
137039,85.7706,-641.536,0,0
137299,86.3968,-638.431,0,0
137559,87.1694,-635.39,0,0
137819,87.9247,-632.462,0,0
138080,88.6133,-629.623,0,0
138340.125,89.19,-626.7,0,0
138600.45,89.76,-623.688,0,0
138860.775,90.3286,-620.61,0,0
139121.1,90.9626,-617.458,0,0
139381.425,91.6554,-614.288,0,0
139641.75,92.3427,-611.076,0,0
139902.075,93.0036,-607.849,0,0
140162.4,93.5849,-604.477,0,0
140422.725,94.2779,-600.841,0,0
140683.05,95.2114,-597.059,0,0
140943.375,96.424,-593.302,0,0
141203.7,97.7299,-589.659,0,0
141464.025,99.0573,-585.99,0,0
141724.35,100.579,-582.233,0,0
141984.675,102.314,-578.529,0,0
142245.0,104.229,-574.908,0,0
142505.325,106.24,-571.462,0,0
142765.65,108.288,-567.999,0,0
143025.975,110.6,-564.624,0,0
143286.3,112.986,-561.614,0,0
143546.625,115.199,-558.772,0,0
143806.95,117.289,-555.905,0,0
144067.275,119.385,-552.988,0,0
144327.6,121.539,-550.084,0,0
144587.925,123.702,-547.221,0,0
144848.25,125.792,-544.268,0,0
145108.575,128.096,-541.22,0,0
145368.9,130.553,-538.266,0,0
145629.225,133.06,-535.417,0,0
145889.55,135.607,-532.677,0,0
146149.875,138.087,-529.973,0,0
146410.2,140.559,-527.184,0,0
146670.525,143.155,-524.313,0,0
146930.85,145.888,-521.422,0,0
147191.175,148.746,-518.473,0,0
147451.5,151.855,-515.521,0,0
147711.825,155.231,-512.717,0,0
147972.15,158.681,-510.12,0,0
148232.475,162.152,-507.552,0,0
148492.8,165.81,-504.912,0,0
148753.125,169.751,-502.325,0,0
149013.45,173.972,-499.802,0,0
149273.775,178.673,-497.381,0,0
149534.1,183.917,-495.447,0,0
149794.425,189.372,-494.179,0,0
150054.75,194.908,-493.495,0,0
150315.075,200.384,-493.334,0,0
150575.4,205.848,-493.67,0,0
150835.725,211.33,-494.67,0,0
151096.05,216.479,-496.515,0,0
151356.375,220.971,-498.907,0,0
151616.7,224.858,-501.527,0,0
151877.025,228.388,-504.384,0,0
152137.35,231.313,-507.657,0,0
152397.675,233.448,-510.981,0,0
152658.0,234.97,-514.177,0,0
152918.325,236.018,-517.184,0,0
153178.65,236.614,-519.976,0,0
153438.975,236.903,-522.465,0,0
153699.3,236.983,-524.869,0,0
153959.625,236.597,-527.118,0,0
154219.95,235.833,-528.948,0,0
154480,234.988,-530.343,0,0
154741,234.06,-531.35,0,0
155001,233.18,-532.216,0,0
155261,232.271,-532.914,0,0
155522,231.361,-533.349,0,0
155782,230.191,-533.573,0,0
156042,229.241,-533.542,0,0
156303,228.429,-533.454,0,0
156563,227.445,-533.375,0,0
156823,226.443,-533.167,0,0
157084,225.269,-532.702,0,0
157344,224.151,-531.917,0,0
157604,222.861,-530.929,0,0
157864,221.847,-529.298,0,0
158125,221.596,-527.593,0,0
158385,221.614,-526.245,0,0
158645,221.446,-525.211,0,0
158906,221.117,-524.022,0,0
159166,220.934,-522.679,0,0
159426,220.873,-521.313,0,0
159687,220.816,-519.944,0,0
159947,220.987,-518.526,0,0
160207,221.122,-517.29,0,0
160468,221.405,-516.038,0,0
160728,221.604,-514.748,0,0
160988,221.802,-513.379,0,0
161249,222.049,-511.673,0,0
161509,223.114,-509.856,0,0
161769,224.709,-508.645,0,0
162030,226.384,-508.213,0,0
162290,227.948,-508.393,0,0
162550,228.985,-509.276,0,0
162811,229.508,-510.376,0,0
163071,229.378,-511.912,0,0
163331,228.178,-513.516,0,0
163592,226.245,-514.238,0,0
163852,224.384,-514.545,0,0
164112,222.104,-514.878,0,0
164373,219.327,-514.815,0,0
164633,216.148,-514.133,0,0
164893,212.988,-512.603,0,0
165154,210.307,-510.386,0,0
165414,207.889,-508.315,0,0
165674,205.195,-506.149,0,0
165935,202.227,-503.417,0,0
166195,199.569,-499.985,0,0
166455,197.371,-496.173,0,0
166716,195.537,-492.15,0,0
166976,194.034,-488.147,0,0
167236,192.753,-483.926,0,0
167497,191.851,-479.679,0,0
167757,191.035,-475.418,0,0
168017,190.303,-471.061,0,0
168277,189.835,-466.568,0,0
168538,189.568,-461.953,0,0
168798,189.592,-457.133,0,0
169058,190.357,-452.533,0,0
169319,191.164,-448.468,0,0
169579,191.602,-444.624,0,0
169839,191.878,-440.514,0,0
170100,192.277,-436.083,0,0
170360.075,193.076,-431.581,0,0
170620.4,193.979,-427.384,0,0
170880.725,194.622,-423.236,0,0
171141.05,195.176,-418.628,0,0
171401.375,196.075,-413.598,0,0
171661.7,197.477,-408.585,0,0
171922.025,199.172,-403.693,0,0
172182.35,201.033,-398.953,0,0
172442.675,202.905,-394.349,0,0
172703.0,204.71,-389.604,0,0
172963.325,206.73,-384.65,0,0
173223.65,209.083,-379.735,0,0
173483.975,211.582,-374.775,0,0
173744.3,214.352,-369.816,0,0
174004.625,217.338,-364.954,0,0
174264.95,220.39,-359.935,0,0
174525.275,223.865,-354.869,0,0
174785.6,227.871,-349.821,0,0
175045.925,232.305,-345.17,0,0
175306.25,236.962,-340.836,0,0
175566.575,241.774,-336.766,0,0
175826.9,246.709,-333.142,0,0
176087.225,251.698,-329.575,0,0
176347.55,256.89,-326.49,0,0
176607.875,261.906,-323.78,0,0
176868.2,266.709,-320.928,0,0
177128.525,271.883,-317.933,0,0
177388.85,277.767,-315.059,0,0
177649.175,284.201,-313.177,0,0
177909.5,290.551,-312.467,0,0
178169.825,296.159,-312.795,0,0
178430.15,300.672,-313.274,0,0
178690.475,304.597,-313.656,0,0
178950.8,308.177,-314.077,0,0
179211.125,311.004,-314.641,0,0
179471.45,313.119,-314.748,0,0
179731.775,316.016,-313.134,0,0
179992.1,318.318,-312.856,0,0
180252.425,320.024,-312.43,0,0
180512.75,321.329,-311.578,0,0
180773.075,322.253,-310.196,0,0
181033.4,322.741,-308.103,0,0
181293.725,323.282,-304.913,0,0
181554.05,324.541,-300.877,0,0
181814.375,326.612,-296.41,0,0
182074.7,329.28,-291.988,0,0
182335.025,332.291,-287.642,0,0
182595.35,335.546,-283.21,0,0
182855.675,339.049,-278.8,0,0
183116.0,342.834,-274.013,0,0
183376.325,346.97,-269.143,0,0
183636.65,351.741,-263.899,0,0
183896.975,357.344,-259.049,0,0
184157.3,363.075,-254.609,0,0
184417.625,368.842,-250.016,0,0
184677.95,375.21,-245.265,0,0
184938.275,382.385,-240.775,0,0
185198.6,390.041,-236.808,0,0
185458.925,397.851,-233.347,0,0
185719.25,405.924,-230.155,0,0
185979.575,414.233,-227.271,0,0
186239.9,422.8,-224.965,0,0
186500,431.55,-223.488,0,0
186761,439.769,-222.796,0,0
187021,446.954,-221.992,0,0
187281,454.116,-220.051,0,0
187542,462.349,-217.735,0,0
187802,471.476,-216.031,0,0
188062,481.031,-215.428,0,0
188322,489.838,-215.822,0,0
188583,497.956,-216.115,0,0
188843,506.042,-216.062,0,0
189103,514.234,-216.161,0,0
189364,522.268,-216.043,0,0
189624,530.38,-215.798,0,0
189884,538.76,-215.413,0,0
190145,547.361,-215.027,0,0
190405,556.517,-214.588,0,0
190665,565.819,-214.406,0,0
190926,575.239,-214.063,0,0
191186,585.272,-213.342,0,0
191446,596.423,-212.752,0,0
191707,608.478,-212.879,0,0
191967,620.997,-213.883,0,0
192227,633.742,-215.518,0,0
192488,646.899,-217.598,0,0
192748,660.739,-220.463,0,0
193008,675.077,-224.353,0,0
193269,689.648,-229.518,0,0
193529,704.257,-236.014,0,0
193789,718.454,-244.041,0,0
194050,731.592,-253.123,0,0
194310,743.729,-262.609,0,0
194570,755.427,-272.182,0,0
194831,767.046,-282.069,0,0
195091,778.463,-292.588,0,0
195351,789.763,-303.947,0,0
195612,800.535,-316.29,0,0
195872,810.141,-329.429,0,0
196132,818.565,-342.717,0,0
196393,826.259,-355.559,0,0
196653,833.947,-368.238,0,0
196913,841.571,-381.237,0,0
197174,849.102,-394.778,0,0
197434,856.244,-409.087,0,0
197694,862.338,-423.936,0,0
197955,867.735,-438.512,0,0
198215,873.401,-453.201,0,0
198475,878.738,-469.002,0,0
198735,883.07,-485.71,0,0
198996,886.027,-502.727,0,0
199256,887.769,-519.522,0,0
199516,888.586,-536.014,0,0
199777,888.842,-552.003,0,0
200037,888.969,-567.542,0,0
200297,889.534,-583.398,0,0
200558,889.566,-600.301,0,0
200818,888.276,-617.987,0,0
201078,885.584,-635.597,0,0
201339,881.82,-652.973,0,0
201599,876.977,-670.103,0,0
201859,871.183,-687.075,0,0
202120,864.047,-703.668,0,0
202380.025,855.942,-719.48,0,0
202640.35,846.799,-734.49,0,0
202900.675,836.643,-748.882,0,0
203161.0,825.646,-761.597,0,0
203421.325,814.531,-773.049,0,0
203681.65,803.517,-783.507,0,0
203941.975,792.615,-793.182,0,0
204202.3,781.921,-802.291,0,0
204462.625,770.907,-810.604,0,0
204722.95,760.413,-817.949,0,0
204983.275,750.646,-825.57,0,0
205243.6,740.565,-833.731,0,0
205503.925,729.23,-841.901,0,0
205764.25,716.802,-848.85,0,0
206024.575,704.265,-854.012,0,0
206284.9,692.35,-858.04,0,0
206545.225,680.916,-861.404,0,0
206805.55,669.866,-864.095,0,0
207065.875,659.554,-866.15,0,0
207326.2,649.968,-868.161,0,0
207586.525,640.436,-870.187,0,0
207846.85,631.022,-871.686,0,0
208107.175,622.076,-872.754,0,0
208367.5,613.787,-873.446,0,0
208627.825,606.228,-874.242,0,0
208888.15,599.135,-875.336,0,0
209148.475,592.346,-876.851,0,0
209408.8,585.589,-878.872,0,0
209669.125,578.605,-881.447,0,0
209929.45,570.951,-884.139,0,0
210189.775,562.578,-886.707,0,0
210450.1,553.754,-888.695,0,0
210710.425,544.643,-890.119,0,0
210970.75,535.846,-891.036,0,0
211231.075,526.663,-891.609,0,0
211491.4,517.413,-891.453,0,0
211751.725,508.251,-890.596,0,0
212012.05,499.501,-889.028,0,0
212272.375,491.466,-887.048,0,0
212532.7,483.963,-884.936,0,0
212793.025,476.943,-882.808,0,0
213053.35,469.719,-880.969,0,0
213313.675,462.726,-878.62,0,0
213574.0,455.876,-875.99,0,0
213834.325,449.444,-873.101,0,0
214094.65,443.421,-870.048,0,0
214354.975,437.763,-866.844,0,0
214615.3,432.527,-863.639,0,0
214875.625,427.735,-860.475,0,0
215135.95,423.145,-857.637,0,0
215396.275,418.434,-854.765,0,0
215656.6,413.915,-851.905,0,0
215916.925,409.545,-848.851,0,0
216177.25,405.342,-845.668,0,0
216437.575,401.444,-842.493,0,0
216697.9,397.794,-839.293,0,0
216958.225,394.303,-836.136,0,0
217218.55,391.059,-832.977,0,0
217478.875,387.99,-829.78,0,0
217739.2,385.192,-826.537,0,0
217999.525,382.691,-823.43,0,0
218259.85,380.417,-820.457,0,0
218520,378.229,-817.709,0,0
218780,376.116,-814.925,0,0
219041,374.172,-812.133,0,0
219301,372.468,-809.442,0,0
219561,370.937,-806.862,0,0
219822,369.563,-804.468,0,0
220082,368.264,-802.298,0,0
220342,366.944,-800.317,0,0
220603,365.542,-798.269,0,0
220863,364.121,-796.33,0,0
221123,362.831,-794.216,0,0
221384,361.714,-792.012,0,0
221644,360.855,-789.882,0,0
221904,360.293,-787.86,0,0
222165,359.965,-785.998,0,0
222425,359.764,-784.449,0,0
222685,359.727,-783.223,0,0
222946,359.627,-782.151,0,0
223206,359.472,-781.368,0,0
223466,359.413,-780.741,0,0
223727,359.171,-780.474,0,0
223987,358.768,-780.299,0,0
224247,358.262,-780.066,0,0
224508,357.718,-780.033,0,0
224768,357.165,-780.073,0,0
225028,356.202,-780.182,0,0
225289,355.257,-780.199,0,0
225549,354.196,-780.03,0,0
225809,353.234,-779.821,0,0
226070,352.367,-779.549,0,0
226330,351.748,-779.256,0,0
226590,351.153,-779.041,0,0
226851,350.752,-779.012,0,0
227111,350.43,-779.189,0,0
227371,350.2,-779.526,0,0
227632,349.968,-780.106,0,0
227892,349.665,-780.914,0,0
228152,349.371,-781.9,0,0
228413,348.984,-783.171,0,0
228673,348.432,-784.742,0,0
228933,347.702,-786.496,0,0
229193,346.636,-788.478,0,0
229454,345.276,-790.618,0,0
229714,343.538,-792.78,0,0
229974,341.389,-794.898,0,0
230235,339.09,-796.791,0,0
230495,336.482,-798.667,0,0
230755,333.759,-800.437,0,0
231016,330.786,-802.037,0,0
231276,327.658,-803.429,0,0
231536,324.392,-804.616,0,0
231797,321.051,-805.617,0,0
232057,317.764,-806.479,0,0
232317,314.441,-807.233,0,0
232578,311.08,-807.872,0,0
232838,307.643,-808.43,0,0
233098,304.238,-808.888,0,0
233359,300.584,-809.193,0,0
233619,297.001,-809.318,0,0
233879,293.486,-809.216,0,0
234140,290.023,-809.047,0,0
234400,286.59,-808.908,0,0
234660.3,283.23,-808.559,0,0
234920.625,279.893,-808.255,0,0
235180.95,276.528,-807.913,0,0
235441.275,273.135,-807.521,0,0
235701.6,269.681,-807.098,0,0
235961.925,266.213,-806.47,0,0
236222.25,262.737,-805.862,0,0
236482.575,259.286,-805.093,0,0
236742.9,255.83,-804.25,0,0
237003.225,252.36,-803.317,0,0
237263.55,248.908,-802.286,0,0
237523.875,245.465,-801.095,0,0
237784.2,242.015,-799.834,0,0
238044.525,238.64,-798.367,0,0
238304.85,235.3,-796.821,0,0
238565.175,232.194,-795.193,0,0
238825.5,229.082,-793.488,0,0
239085.825,226.111,-791.691,0,0
239346.15,223.178,-789.934,0,0
239606.475,220.238,-788.06,0,0
239866.8,217.453,-786.146,0,0
240127.125,214.731,-784.065,0,0
240387.45,212.238,-782.063,0,0
240647.775,209.699,-779.964,0,0
240908.1,207.35,-777.971,0,0
241168.425,205.048,-775.922,0,0
241428.75,202.9,-773.85,0,0
241689.075,200.655,-771.856,0,0
241949.4,198.589,-769.852,0,0
242209.725,196.518,-767.873,0,0
242470.05,194.546,-765.809,0,0
242730.375,192.689,-763.755,0,0
242990.7,190.985,-761.732,0,0
243251.025,189.345,-759.922,0,0
243511.35,187.712,-758.226,0,0
243771.675,186.022,-756.544,0,0
244032.0,184.304,-754.879,0,0
244292.325,182.62,-753.222,0,0
244552.65,180.895,-751.707,0,0
244812.975,179.233,-750.024,0,0
245073.3,177.575,-748.703,0,0
245333.625,175.78,-747.191,0,0
245593.95,173.997,-745.926,0,0
245854.275,172.089,-744.599,0,0
246114.6,170.091,-743.407,0,0
246374.925,167.817,-742.167,0,0
246635.25,165.506,-740.89,0,0
246895.575,162.926,-739.501,0,0
247155.9,160.188,-737.785,0,0
247416.225,157.436,-735.847,0,0
247676.55,154.707,-733.714,0,0
247936.875,152.143,-731.347,0,0
248197.2,149.588,-728.765,0,0
248457.525,147.273,-726.15,0,0
248717.85,144.981,-723.534,0,0
248978.175,142.841,-720.752,0,0
249238.5,140.695,-717.892,0,0
249498.825,138.67,-715.015,0,0
249759.15,136.713,-712.024,0,0
250019.475,134.943,-708.926,0,0
250279.8,133.224,-705.906,0,0
250540,131.548,-702.696,0,0
250800,129.991,-699.471,0,0
251061,128.664,-696.143,0,0
251321,127.428,-692.803,0,0
251581,126.303,-689.475,0,0
251842,125.337,-686.169,0,0
252102,124.446,-682.788,0,0
252362,123.719,-679.462,0,0
252623,123.037,-676.123,0,0
252883,122.575,-672.819,0,0
253143,122.206,-669.576,0,0
253404,121.877,-666.364,0,0
253664,121.633,-663.332,0,0
253924,121.378,-660.253,0,0
254185,121.247,-657.178,0,0
254445,121.126,-654.15,0,0
254705,121.099,-651.094,0,0
254966,121.021,-648.015,0,0
255226,121.076,-644.935,0,0
255486,121.213,-641.746,0,0
255747,121.489,-638.565,0,0
256007,121.982,-635.416,0,0
256267,122.618,-632.284,0,0
256528,123.403,-629.29,0,0
256788,124.278,-626.39,0,0
257048,125.23,-623.62,0,0
257309,126.248,-620.949,0,0
257569,127.309,-618.359,0,0
257829,128.417,-615.845,0,0
258090,129.551,-613.412,0,0
258350,130.773,-611.031,0,0
258610,132.004,-608.738,0,0
258871,133.257,-606.487,0,0
259131,134.541,-604.285,0,0
259391,135.915,-602.088,0,0
259651,137.394,-599.916,0,0
259912,138.927,-597.902,0,0
260172,140.596,-595.903,0,0
260432,142.324,-594.105,0,0
260693,144.102,-592.375,0,0
260953,145.924,-590.797,0,0
261213,147.811,-589.301,0,0
261474,149.739,-587.974,0,0
261734,151.674,-586.823,0,0
261994,153.537,-585.829,0,0
262255,155.371,-584.932,0,0
262515,157.197,-584.13,0,0
262775,158.962,-583.433,0,0
263036,160.717,-582.8,0,0
263296,162.433,-582.197,0,0
263556,164.19,-581.787,0,0
263817,165.996,-581.427,0,0
264077,167.724,-581.278,0,0
264337,169.366,-581.281,0,0
264598,170.956,-581.459,0,0
264858,172.385,-581.746,0,0
265118,173.638,-582.173,0,0
265379,174.715,-582.585,0,0
265639,175.563,-583.016,0,0
265899,176.257,-583.391,0,0
266160,176.829,-583.68,0,0
266420,177.354,-583.843,0,0
266680.25,177.865,-583.856,0,0
266940.575,178.474,-583.863,0,0
267200.9,179.177,-583.973,0,0
267461.225,179.851,-584.141,0,0
267721.55,180.435,-584.434,0,0
267981.875,180.864,-584.737,0,0
268242.2,181.173,-585.087,0,0
268502.525,181.329,-585.356,0,0
268762.85,181.351,-585.554,0,0
269023.175,181.258,-585.632,0,0
269283.5,181.099,-585.508,0,0
269543.825,180.952,-585.174,0,0
269804.15,180.895,-584.731,0,0
270064.475,180.883,-584.2,0,0
270324.8,181.036,-583.577,0,0
270585.125,181.194,-582.806,0,0
270845.45,181.484,-581.885,0,0
271105.775,182.039,-580.92,0,0
271366.1,182.775,-579.93,0,0
271626.425,183.782,-579.057,0,0
271886.75,184.951,-578.333,0,0
272147.075,186.111,-577.744,0,0
272407.4,187.344,-577.173,0,0
272667.725,188.67,-576.618,0,0
272928.05,190.153,-576.078,0,0
273188.375,191.835,-575.625,0,0
273448.7,193.699,-575.266,0,0
273709.025,195.825,-575.124,0,0
273969.35,198.201,-575.25,0,0
274229.675,200.667,-575.726,0,0
274490.0,203.302,-576.563,0,0
274750.325,205.916,-577.787,0,0
275010.65,208.423,-579.617,0,0
275270.975,210.853,-581.683,0,0
275531.3,213.08,-584.291,0,0
275791.625,215.004,-587.272,0,0
276051.95,216.514,-590.639,0,0
276312.275,217.572,-594.316,0,0
276572.6,218.107,-598.26,0,0
276832.925,217.962,-602.226,0,0
277093.25,217.243,-606.127,0,0
277353.575,216.004,-609.75,0,0
277613.9,214.345,-613.068,0,0
277874.225,212.485,-616.043,0,0
278134.55,210.448,-618.736,0,0
278394.875,208.263,-621.219,0,0
278655.2,205.947,-623.457,0,0
278915.525,203.54,-625.485,0,0
279175.85,201.085,-627.267,0,0
279436.175,198.488,-628.909,0,0
279696.5,195.825,-630.322,0,0
279956.825,193.22,-631.508,0,0
280217.15,190.54,-632.542,0,0
280477.475,187.928,-633.42,0,0
280737.8,185.311,-634.149,0,0
280998.125,182.752,-634.8,0,0
281258.45,180.187,-635.358,0,0
281518.775,177.589,-635.93,0,0
281779.1,174.933,-636.404,0,0
282039.425,172.182,-636.807,0,0
282299.75,169.305,-637.11,0,0
282560,166.269,-637.235,0,0
282820,163.11,-637.092,0,0
283081,159.897,-636.595,0,0
283341,156.827,-635.703,0,0
283601,154.003,-634.555,0,0
283862,151.485,-633.222,0,0
284122,149.312,-631.912,0,0
284382,147.326,-630.701,0,0
284643,145.438,-629.733,0,0
284903,143.481,-628.883,0,0
285163,141.318,-628.23,0,0
285424,138.943,-627.505,0,0
285684,136.361,-626.525,0,0
285944,133.602,-625.363,0,0
286205,130.78,-623.928,0,0
286465,127.948,-622.138,0,0
286725,125.128,-619.989,0,0
286986,122.454,-617.476,0,0
287246,120.004,-614.651,0,0
287506,117.832,-611.555,0,0
287767,115.941,-608.241,0,0
288027,114.387,-604.738,0,0
288287,113.149,-601.078,0,0
288548,112.256,-597.286,0,0
288808,111.729,-593.378,0,0
289068,111.666,-589.355,0,0
289329,112.114,-585.335,0,0
289589,113.09,-581.454,0,0
289849,114.613,-577.803,0,0
290109,116.591,-574.451,0,0
290370,118.856,-571.605,0,0
290630,121.427,-569.128,0,0
290890,124.158,-567.115,0,0
291151,126.998,-565.542,0,0
291411,129.968,-564.41,0,0
291671,132.976,-563.767,0,0
291932,135.985,-563.633,0,0
292192,138.851,-564.058,0,0
292452,141.418,-564.977,0,0
292713,143.658,-566.303,0,0
292973,145.434,-568.002,0,0
293233,146.669,-569.913,0,0
293494,147.338,-571.853,0,0
293754,147.501,-573.691,0,0
294014,147.271,-575.275,0,0
294275,146.715,-576.611,0,0
294535,145.942,-577.576,0,0
294795,145.118,-578.112,0,0
295056,144.386,-578.231,0,0
295316,144.007,-578.029,0,0
295576,144.101,-577.752,0,0
295837,144.561,-577.726,0,0
296097,145.305,-577.97,0,0
296357,146.166,-578.695,0,0
296618,146.936,-579.929,0,0
296878,147.409,-581.575,0,0
297138,147.396,-583.518,0,0
297399,146.873,-585.543,0,0
297659,145.9,-587.446,0,0
297919,144.533,-589.141,0,0
298180,142.957,-590.554,0,0
298440,141.185,-591.688,0,0
298700.2,139.372,-592.553,0,0
298960.525,137.56,-593.239,0,0
299220.85,135.737,-593.748,0,0
299481.175,133.927,-594.171,0,0
299741.5,132.047,-594.469,0,0
300001.825,130.103,-594.599,0,0
300262.15,128.134,-594.588,0,0
300522.475,126.187,-594.325,0,0
300782.8,124.314,-593.875,0,0
301043.125,122.582,-593.302,0,0
301303.45,120.945,-592.53,0,0
301563.775,119.477,-591.641,0,0
301824.1,118.265,-590.66,0,0
302084.425,117.305,-589.714,0,0
302344.75,116.549,-588.863,0,0
302605.075,115.979,-588.18,0,0
302865.4,115.466,-587.743,0,0
303125.725,114.981,-587.49,0,0
303386.05,114.415,-587.444,0,0
303646.375,113.706,-587.54,0,0
303906.7,112.836,-587.726,0,0
304167.025,111.801,-587.957,0,0
304427.35,110.631,-588.179,0,0
304687.675,109.276,-588.392,0,0
304948.0,107.805,-588.542,0,0
305208.325,106.158,-588.599,0,0
305468.65,104.394,-588.463,0,0
305728.975,102.602,-588.226,0,0
305989.3,100.762,-587.826,0,0
306249.625,98.9169,-587.288,0,0
306509.95,97.0812,-586.615,0,0
306770.275,95.2775,-585.805,0,0
307030.6,93.5227,-584.876,0,0
307290.925,91.8659,-583.825,0,0
307551.25,90.2992,-582.706,0,0
307811.575,88.8226,-581.547,0,0
308071.9,87.4361,-580.35,0,0
308332.225,86.1128,-579.146,0,0
308592.55,84.8568,-577.928,0,0
308852.875,83.6434,-576.709,0,0
309113.2,82.4844,-575.469,0,0
309373.525,81.3547,-574.234,0,0
309633.85,80.2976,-572.986,0,0
309894.175,79.2284,-571.747,0,0
310154.5,78.2133,-570.506,0,0
310414.825,77.2278,-569.248,0,0
310675.15,76.2426,-568.007,0,0
310935.475,75.2808,-566.751,0,0
311195.8,74.3228,-565.423,0,0
311456.125,73.4049,-564.105,0,0
311716.45,72.5584,-562.739,0,0
311976.775,71.7595,-561.373,0,0
312237.1,71.0096,-559.991,0,0
312497.425,70.2981,-558.621,0,0
312757.75,69.6618,-557.28,0,0
313018.075,69.0555,-555.937,0,0
313278.4,68.4836,-554.634,0,0
313538.725,67.9222,-553.359,0,0
313799.05,67.3715,-552.105,0,0
314059.375,66.848,-550.894,0,0
314319.7,66.3322,-549.675,0,0
314580,65.6933,-548.438,0,0
314840,65.1645,-547.246,0,0
315101,64.6897,-545.955,0,0
315361,64.131,-544.784,0,0
315621,63.6464,-543.459,0,0
315882,63.2303,-542.184,0,0
316142,62.768,-540.978,0,0
316402,62.26,-539.691,0,0
316663,61.9249,-538.399,0,0
316923,61.5281,-537.115,0,0
317183,61.1893,-535.81,0,0
317444,60.9674,-534.51,0,0
317704,60.6629,-533.31,0,0
317964,60.379,-532.061,0,0
318225,60.1837,-530.872,0,0
318485,60.0051,-529.709,0,0
318745,59.8964,-528.544,0,0
319006,59.612,-527.374,0,0
319266,59.5186,-526.229,0,0
319526,59.3251,-525.253,0,0
319787,59.1224,-524.11,0,0
320047,58.913,-523.073,0,0
320307,58.7037,-521.932,0,0
320567,58.5124,-520.909,0,0
320828,58.3618,-519.827,0,0
321088,58.1375,-518.686,0,0
321348,57.9568,-517.671,0,0
321609,57.7525,-516.616,0,0
321869,57.6127,-515.467,0,0
322129,57.5101,-514.4,0,0
322390,57.3178,-513.364,0,0
322650,57.1388,-512.234,0,0
322910,56.9551,-511.224,0,0
323171,56.7541,-509.95,0,0
323431,56.5658,-508.908,0,0
323691,56.4105,-507.734,0,0
323952,56.2391,-506.528,0,0
324212,56.1387,-505.232,0,0
324472,56.1092,-503.88,0,0
324733,56.0236,-502.519,0,0
324993,56.1969,-501.196,0,0
325253,56.3853,-499.779,0,0
325514,56.7071,-498.382,0,0
325774,57.2374,-497.095,0,0
326034,57.7181,-495.853,0,0
326295,58.34,-494.737,0,0
326555,58.9914,-493.732,0,0
326815,59.6748,-492.834,0,0
327076,60.3306,-492.055,0,0
327336,61.0082,-491.447,0,0
327596,61.5595,-490.858,0,0
327857,62.0869,-490.378,0,0
328117,62.5366,-489.847,0,0
328377,62.9622,-489.397,0,0
328638,63.3769,-488.913,0,0
328898,63.7067,-488.509,0,0
329158,64.0386,-488.085,0,0
329419,64.4095,-487.791,0,0
329679,64.7129,-487.385,0,0
329939,64.9735,-487.045,0,0
330200,65.3052,-486.797,0,0
330460,65.5878,-486.609,0,0
330720.15,65.7758,-486.401,0,0
330980.475,65.9199,-486.24,0,0
331240.8,66.0342,-486.103,0,0
331501.125,66.104,-485.975,0,0
331761.45,66.1157,-485.929,0,0
332021.775,66.0542,-485.884,0,0
332282.1,65.9715,-485.847,0,0
332542.425,65.7117,-485.804,0,0
332802.75,65.4342,-485.758,0,0
333063.075,65.0473,-485.661,0,0
333323.4,64.6134,-485.415,0,0
333583.725,64.1264,-485.169,0,0
333844.05,63.6295,-484.786,0,0
334104.375,63.0293,-484.452,0,0
334364.7,62.5435,-484.038,0,0
334625.025,62.0446,-483.51,0,0
334885.35,61.5446,-482.989,0,0
335145.675,61.0581,-482.406,0,0
335406.0,60.6234,-481.72,0,0
335666.325,60.252,-481.081,0,0
335926.65,59.8129,-480.435,0,0
336186.975,59.4277,-479.739,0,0
336447.3,59.0664,-479.137,0,0
336707.625,58.6883,-478.415,0,0
336967.95,58.3184,-477.701,0,0
337228.275,57.9378,-476.943,0,0
337488.6,57.5852,-476.16,0,0
337748.925,57.2765,-475.44,0,0
338009.25,56.9327,-474.634,0,0
338269.575,56.6276,-473.792,0,0
338529.9,56.3818,-473.008,0,0
338790.225,56.1411,-472.212,0,0
339050.55,55.8667,-471.391,0,0
339310.875,55.6241,-470.502,0,0
339571.2,55.4354,-469.684,0,0
339831.525,55.2256,-468.82,0,0
340091.85,55.0616,-467.997,0,0
340352.175,54.9014,-467.134,0,0
340612.5,54.7549,-466.253,0,0
340872.825,54.6372,-465.374,0,0
341133.15,54.5222,-464.522,0,0
341393.475,54.4985,-463.664,0,0
341653.8,54.3256,-462.813,0,0
341914.125,54.2753,-461.948,0,0
342174.45,54.2475,-461.105,0,0
342434.775,54.1966,-460.245,0,0
342695.1,54.1792,-459.405,0,0
342955.425,54.1287,-458.519,0,0
343215.75,54.1392,-457.634,0,0
343476.075,54.1454,-456.787,0,0
343736.4,54.1812,-455.92,0,0
343996.725,54.2818,-455.018,0,0
344257.05,54.339,-454.125,0,0
344517.375,54.4121,-453.284,0,0
344777.7,54.4804,-452.437,0,0
345038.025,54.7037,-451.589,0,0
345298.35,54.8631,-450.783,0,0
345558.675,55.0155,-449.914,0,0
345819.0,55.2225,-449.157,0,0
346079.325,55.4312,-448.361,0,0
346339.65,55.6492,-447.526,0,0
346599.975,55.8439,-446.844,0,0
346860,56.1084,-446.107,0,0
347121,56.3561,-445.362,0,0
347381,56.6278,-444.618,0,0
347641,56.8429,-443.925,0,0
347902,57.1602,-443.211,0,0
348162,57.4303,-442.515,0,0
348422,57.794,-441.859,0,0
348683,58.039,-441.213,0,0
348943,58.3375,-440.559,0,0
349203,58.6795,-439.969,0,0
349464,59.0111,-439.391,0,0
349724,59.3896,-438.8,0,0
349984,59.736,-438.264,0,0
350245,60.0604,-437.752,0,0
350505,60.4511,-437.231,0,0
350765,60.762,-436.78,0,0
351025,61.1044,-436.347,0,0
351286,61.3924,-435.949,0,0
351546,61.7064,-435.559,0,0
351806,61.9202,-435.159,0,0
352067,62.2288,-434.754,0,0
352327,62.4364,-434.325,0,0
352587,62.6835,-433.976,0,0
352848,62.8609,-433.575,0,0
353108,63.0834,-433.122,0,0
353368,63.3166,-432.705,0,0
353629,63.5067,-432.269,0,0
353889,63.7604,-431.854,0,0
354149,64.0047,-431.437,0,0
354410,64.2678,-431.051,0,0
354670,64.5508,-430.679,0,0
354930,64.7797,-430.285,0,0
355191,65.0131,-429.937,0,0
355451,65.2734,-429.542,0,0
355711,65.4943,-429.223,0,0
355972,65.7851,-428.87,0,0
356232,65.9966,-428.488,0,0
356492,66.3012,-428.147,0,0
356753,66.541,-427.803,0,0
357013,66.8168,-427.399,0,0
357273,67.1488,-427.121,0,0
357534,67.4721,-426.792,0,0
357794,67.7873,-426.554,0,0
358054,68.1436,-426.229,0,0
358315,68.4782,-426.025,0,0
358575,68.8422,-425.848,0,0
358835,69.1764,-425.706,0,0
359096,69.5648,-425.556,0,0
359356,69.883,-425.502,0,0
359616,70.1697,-425.535,0,0
359877,70.4939,-425.529,0,0
360137,70.717,-425.564,0,0
360397,70.8939,-425.631,0,0
360658,70.9552,-425.688,0,0
360918,71.0856,-425.725,0,0
361178,71.1117,-425.774,0,0
361438,71.1544,-425.77,0,0
361699,71.1545,-425.827,0,0
361959,71.1635,-425.78,0,0
362219,71.2056,-425.877,0,0
362480,71.1454,-425.878,0,0
362740.1,71.0914,-425.885,0,0
363000.425,70.9447,-425.91,0,0
363260.75,70.8822,-425.899,0,0
363521.075,70.7192,-425.923,0,0
363781.4,70.5618,-425.844,0,0
364041.725,70.3332,-425.811,0,0
364302.05,70.1855,-425.77,0,0
364562.375,70.0089,-425.66,0,0
364822.7,69.7984,-425.568,0,0
365083.025,69.615,-425.446,0,0
365343.35,69.4008,-425.371,0,0
365603.675,69.1649,-425.228,0,0
365864.0,68.9143,-425.064,0,0
366124.325,68.6859,-424.903,0,0
366384.65,68.3551,-424.673,0,0
366644.975,68.142,-424.409,0,0
366905.3,67.8668,-424.123,0,0
367165.625,67.6788,-423.804,0,0
367425.95,67.4429,-423.521,0,0
367686.275,67.2965,-423.18,0,0
367946.6,67.2086,-422.825,0,0
368206.925,67.0681,-422.518,0,0
368467.25,67.055,-422.21,0,0
368727.575,67.0596,-421.893,0,0
368987.9,67.0085,-421.651,0,0
369248.225,67.0194,-421.472,0,0
369508.55,67.0196,-421.346,0,0
369768.875,66.9937,-421.199,0,0
370029.2,66.9352,-421.153,0,0
370289.525,66.8549,-421.096,0,0
370549.85,66.6311,-421.063,0,0
370810.175,66.4491,-420.977,0,0
371070.5,66.149,-420.9,0,0
371330.825,65.9028,-420.764,0,0
371591.15,65.5998,-420.645,0,0
371851.475,65.3164,-420.455,0,0
372111.8,65.0208,-420.219,0,0
372372.125,64.7474,-420,0,0
372632.45,64.5037,-419.756,0,0
372892.775,64.2673,-419.525,0,0
373153.1,64.0344,-419.296,0,0
373413.425,63.8092,-419.06,0,0
373673.75,63.5864,-418.848,0,0
373934.075,63.3443,-418.63,0,0
374194.4,63.0956,-418.411,0,0
374454.725,62.8748,-418.193,0,0
374715.05,62.5958,-417.975,0,0
374975.375,62.3064,-417.78,0,0
375235.7,62.0334,-417.58,0,0
375496.025,61.7318,-417.371,0,0
375756.35,61.3949,-417.138,0,0
376016.675,61.1022,-416.924,0,0
376277.0,60.7626,-416.659,0,0
376537.325,60.4159,-416.408,0,0
376797.65,60.1376,-416.091,0,0
377057.975,59.866,-415.828,0,0
377318.3,59.5612,-415.56,0,0
377578.625,59.2799,-415.303,0,0
377838.95,58.9508,-415.111,0,0
378099.275,58.6469,-414.915,0,0
378359.6,58.2377,-414.756,0,0
378619.925,57.8148,-414.548,0,0
378880,57.3265,-414.348,0,0
379141,56.7363,-414.123,0,0
379401,56.1136,-413.778,0,0
379661,55.4576,-413.38,0,0
379922,54.84,-412.823,0,0
380182,54.2044,-412.142,0,0
380442,53.6966,-411.424,0,0
380703,53.3055,-410.61,0,0
380963,53.0571,-409.833,0,0
381223,52.9133,-409.027,0,0
381483,52.8782,-408.363,0,0
381744,52.8789,-407.768,0,0
382004,52.9097,-407.324,0,0
382264,52.8956,-407.001,0,0
382525,52.8192,-406.698,0,0
382785,52.6459,-406.419,0,0
383045,52.4065,-406.156,0,0
383306,52.1282,-405.86,0,0
383566,51.8189,-405.564,0,0
383826,51.429,-405.251,0,0
384087,51.1045,-404.891,0,0
384347,50.725,-404.471,0,0
384607,50.3132,-404.032,0,0
384868,49.8759,-403.592,0,0
385128,49.5101,-403.051,0,0
385388,49.0783,-402.586,0,0
385649,48.6999,-402.032,0,0
385909,48.2595,-401.489,0,0
386169,47.9312,-400.886,0,0
386430,47.5817,-400.251,0,0
386690,47.241,-399.652,0,0
386950,46.8859,-398.955,0,0
387211,46.5805,-398.334,0,0
387471,46.2998,-397.602,0,0
387731,46.0534,-396.934,0,0
387992,45.7918,-396.218,0,0
388252,45.6085,-395.486,0,0
388512,45.4124,-394.791,0,0
388773,45.2546,-394.104,0,0
389033,45.1582,-393.353,0,0
389293,45.0166,-392.68,0,0
389554,45.0025,-391.941,0,0
389814,44.9597,-391.273,0,0
390074,44.9407,-390.62,0,0
390335,44.9862,-389.97,0,0
390595,45.017,-389.367,0,0
390855,45.0618,-388.823,0,0
391116,45.1514,-388.323,0,0
391376,45.1638,-387.887,0,0
391636,45.1773,-387.498,0,0
391896,45.1498,-387.131,0,0
392157,45.0157,-386.8,0,0
392417,44.8402,-386.473,0,0
392677,44.6292,-386.119,0,0
392938,44.3643,-385.714,0,0
393198,44.0706,-385.28,0,0
393458,43.7343,-384.81,0,0
393719,43.4161,-384.254,0,0
393979,43.0577,-383.711,0,0
394239,42.7304,-383.1,0,0
394500,42.4046,-382.44,0,0
394760.05,42.0922,-381.791,0,0
395020.375,41.8048,-381.047,0,0
395280.7,41.5432,-380.289,0,0
395541.025,41.32,-379.492,0,0
395801.35,41.1253,-378.706,0,0
396061.675,40.9861,-377.918,0,0
396322.0,40.8227,-377.069,0,0
396582.325,40.7682,-376.273,0,0
396842.65,40.7192,-375.443,0,0
397102.975,40.6567,-374.613,0,0
397363.3,40.6616,-373.838,0,0
397623.625,40.7288,-373.01,0,0
397883.95,40.7552,-372.239,0,0
398144.275,40.8142,-371.458,0,0
398404.6,40.8691,-370.695,0,0
398664.925,40.9948,-369.941,0,0
398925.25,41.0915,-369.197,0,0
399185.575,41.228,-368.491,0,0
399445.9,41.3552,-367.785,0,0
399706.225,41.5171,-367.117,0,0
399966.55,41.6456,-366.477,0,0
400006.6,41.64,-366.368,0,0