File: Accelerated corrosion test data/2025-10-14_06-00-04/sample_6.csv
Frequency (Hz),Impedance (ohms),Phase (Radians),Temperature (C),Humidity (%)
10000.0,4139.03,-6677.24,0,0
10260.325,4002.37,-6594.58,0,0
10520.65,3870.71,-6511.68,0,0
10780.975,3745.61,-6429.73,0,0
11041.3,3625.81,-6348.15,0,0
11301.625,3512.55,-6268.62,0,0
11561.95,3403.81,-6189.5,0,0
11822.275,3300.25,-6111.8,0,0
12082.6,3200.32,-6034.97,0,0
12342.925,3105.72,-5959.09,0,0
12603.25,3016.08,-5882,0,0
12863.575,2929.46,-5809.61,0,0
13123.9,2848.94,-5739.31,0,0
13384.225,2767.85,-5669.96,0,0
13644.55,2690.4,-5601.14,0,0
13904.875,2616.4,-5532.19,0,0
14165.2,2545.67,-5465.31,0,0
14425.525,2477.35,-5399.47,0,0
14685.8,2412.11,-5334.48,0,0
14946.175,2350.74,-5270.98,0,0
15206.5,2290.83,-5208.84,0,0
15466.825,2232.99,-5146.81,0,0
15727.15,2177.45,-5087.62,0,0
15987.5,2124.03,-5028.54,0,0
16247.8,2072.2,-4970.77,0,0
16508.125,2022.46,-4913.9,0,0
16768.45,1974.86,-4857.83,0,0
17028.775,1929.27,-4802.8,0,0
17289.1,1884.42,-4749.84,0,0
17549.425,1841.27,-4697.45,0,0
17809.75,1800.14,-4645.71,0,0
18070.075,1759.91,-4595.25,0,0
18330.4,1721.48,-4544.62,0,0
18590.725,1683.56,-4496,0,0
18851.05,1647.92,-4447.69,0,0
19111.375,1613.59,-4401.18,0,0
19371.7,1580.55,-4354.81,0,0
19632.025,1547.01,-4311.06,0,0
19892.35,1514.87,-4265.9,0,0
20152.675,1484.98,-4222.25,0,0
20413.0,1454.67,-4179.86,0,0
20673.3,1424.99,-4138.23,0,0
20933.65,1397.63,-4096.16,0,0
21193.975,1370.45,-4055.26,0,0
21454.3,1343.8,-4015.55,0,0
21714.625,1319.04,-3976.21,0,0
21974.9,1294.35,-3937.66,0,0
22235.275,1269.3,-3900.65,0,0
22495.6,1246.73,-3861.18,0,0
22755.925,1224.77,-3824.69,0,0
23016.25,1204.07,-3787.53,0,0
23276.6,1183.51,-3753.95,0,0
23536.9,1163.11,-3720.58,0,0
23797.225,1142.18,-3687.39,0,0
24057.55,1121.84,-3653.35,0,0
24317.875,1103.11,-3620.25,0,0
24578.2,1083.9,-3587.87,0,0
24838.525,1065.41,-3556.43,0,0
25098.85,1047.79,-3524.71,0,0
25359.175,1030.58,-3493.79,0,0
25619.5,1013.71,-3463.27,0,0
25879.8,997.463,-3433.76,0,0
26140.1,980.897,-3404.34,0,0
26400.5,965.529,-3375.11,0,0
26660.8,950.588,-3346.35,0,0
26921.1,936.1,-3318.01,0,0
27181.4,922.266,-3290.34,0,0
27441.8,908.359,-3263.09,0,0
27702.1,895.226,-3236.73,0,0
27962.4,881.934,-3210.6,0,0
28222.7,868.442,-3185.26,0,0
28483.1,854.713,-3158.99,0,0
28743.4,842.252,-3134.09,0,0
29003.7,829.529,-3108.38,0,0
29264,817.439,-3082.77,0,0
29524.4,806.472,-3057.78,0,0
29784.7,795.901,-3033.94,0,0
30045,785.414,-3009.18,0,0
30305.3,775.778,-2986.87,0,0
30565.7,765.826,-2964.06,0,0
30826,755.168,-2942.14,0,0
31086.3,745.702,-2919.66,0,0
31346.6,736.05,-2898.27,0,0
31607,726.374,-2876.82,0,0
31867.3,717.238,-2854.94,0,0
32127.6,708.572,-2833.63,0,0
32387.9,700.385,-2812.91,0,0
32648.3,692.991,-2792.7,0,0
32908.6,685.53,-2773.61,0,0
33168.9,677.591,-2755.39,0,0
33429.2,669.042,-2736.46,0,0
33689.6,660.833,-2718.59,0,0
33949.9,652.236,-2700.83,0,0
34210.2,642.81,-2682.45,0,0
34470.5,634.439,-2663.4,0,0
34730.9,627.029,-2644.38,0,0
34991.2,619.856,-2626.45,0,0
35251.5,613.156,-2609.37,0,0
35511.8,605.191,-2592.67,0,0
35772.2,597.396,-2575.7,0,0
36032.5,588.881,-2558.29,0,0
36292.8,581.497,-2540.31,0,0
36553.1,574.549,-2522.5,0,0
36813.5,568.379,-2505.25,0,0
37073.8,562.331,-2488.18,0,0
37334.1,556.345,-2471.88,0,0
37594.4,550.352,-2455.67,0,0
37854.8,544.072,-2439.47,0,0
38115.1,538.422,-2423.3,0,0
38375.4,532.505,-2407.32,0,0
38635.7,527.087,-2391.31,0,0
38896.1,521.953,-2375.45,0,0
39156.4,517.303,-2359.58,0,0
39416.7,512.945,-2344.27,0,0
39677,509.045,-2329.29,0,0
39937.4,505.331,-2315.31,0,0
40197.7,501.335,-2301.54,0,0
40458,497.392,-2288.31,0,0
40718.3,493.268,-2274.62,0,0
40978.7,489.033,-2262.11,0,0
41239,484.501,-2249.65,0,0
41499.3,479.403,-2236.81,0,0
41759.6,475.255,-2224.02,0,0
42020,470.813,-2211.93,0,0
42280.275,465.111,-2200.35,0,0
42540.6,459.82,-2187.34,0,0
42800.925,454.204,-2174.15,0,0
43061.25,449.46,-2160.05,0,0
43321.575,446.511,-2146.46,0,0
43581.9,443.042,-2134.06,0,0
43842.225,439.587,-2121.6,0,0
44102.55,436.561,-2108.77,0,0
44362.875,432.965,-2096.63,0,0
44623.2,430.77,-2084.5,0,0
44883.525,428.193,-2073.22,0,0
45143.85,424.806,-2062.22,0,0
45404.175,422.107,-2050.65,0,0
45664.5,419.969,-2039.47,0,0
45924.825,417.232,-2029.2,0,0
46185.15,414.556,-2019.07,0,0
46445.475,411.722,-2009.07,0,0
46705.8,408.555,-1998.69,0,0
46966.125,405.586,-1988.26,0,0
47226.45,403.242,-1977.67,0,0
47486.775,400.944,-1968.26,0,0
47747.1,398.34,-1958.76,0,0
48007.425,395.824,-1949.3,0,0
48267.75,393.436,-1940.12,0,0
48528.075,391.345,-1931.15,0,0
48788.4,389.228,-1922.75,0,0
49048.725,386.478,-1915.11,0,0
49309.05,383.714,-1907.5,0,0
49569.375,380.127,-1900.29,0,0
49829.7,375.901,-1892.53,0,0
50090.025,371.2,-1884.5,0,0
50350.35,366.518,-1876.03,0,0
50610.675,361.821,-1867.11,0,0
50871.0,357.628,-1857.36,0,0
51131.325,354.154,-1848.33,0,0
51391.65,350.463,-1839.11,0,0
51651.975,346.944,-1829.91,0,0
51912.3,343.465,-1821.05,0,0
52172.625,339.693,-1811.69,0,0
52432.95,336.753,-1802.07,0,0
52693.275,334.135,-1792.91,0,0
52953.6,331.527,-1784.34,0,0
53213.925,328.794,-1775.86,0,0
53474.25,325.683,-1767.47,0,0
53734.575,322.617,-1758.84,0,0
53994.9,319.508,-1749.86,0,0
54255.225,316.871,-1740.71,0,0
54515.55,314.866,-1731.88,0,0
54775.875,312.937,-1723.6,0,0
55036.2,310.754,-1715.61,0,0
55296.525,308.48,-1707.76,0,0
55556.85,305.842,-1699.86,0,0
55817.175,303.174,-1691.76,0,0
56077.5,300.523,-1683.49,0,0
56337.825,298.006,-1674.94,0,0
56598.15,296.036,-1666.19,0,0
56858.475,294.525,-1657.76,0,0
57118.8,293.374,-1649.48,0,0
57379.125,292.508,-1641.62,0,0
57639.45,291.689,-1634.54,0,0
57899.775,290.55,-1627.78,0,0
58160.1,289.041,-1621.25,0,0
58420.4,287.619,-1614.79,0,0
58680.7,285.769,-1608.46,0,0
58941.1,283.721,-1602.11,0,0
59201.4,281.575,-1595.71,0,0
59461.7,279.364,-1589.3,0,0
59722,277.168,-1582.65,0,0
59982.4,274.976,-1576.36,0,0
60242.7,272.33,-1569.76,0,0
60503,270.074,-1562.86,0,0
60763.3,267.88,-1556.3,0,0
61023.7,265.711,-1549.74,0,0
61284,263.055,-1543.37,0,0
61544.3,260.253,-1536.56,0,0
61804.6,257.397,-1529.33,0,0
62065,254.983,-1521.49,0,0
62325.3,253.155,-1513.54,0,0
62585.6,251.945,-1505.59,0,0
62845.9,251.46,-1497.98,0,0
63106.3,251.289,-1491,0,0
63366.6,251.188,-1484.75,0,0
63626.9,250.86,-1479.14,0,0
63887.2,250.25,-1474,0,0
64147.6,249.195,-1468.97,0,0
64407.9,247.296,-1464.09,0,0
64668.2,244.866,-1458.92,0,0
64928.5,242.463,-1452.92,0,0
65188.9,240.447,-1446.5,0,0
65449.2,238.864,-1440.16,0,0
65709.5,237.704,-1434.06,0,0
65969.8,236.404,-1428.01,0,0
66230.2,235.154,-1422.12,0,0
66490.5,233.897,-1416.57,0,0
66750.8,232.691,-1411.02,0,0
67011.1,231.316,-1405.56,0,0
67271.5,229.889,-1400.21,0,0
67531.8,228.405,-1394.76,0,0
67792.1,226.758,-1389.37,0,0
68052.4,225.535,-1383.93,0,0
68312.8,223.94,-1378.55,0,0
68573.1,222.503,-1373.1,0,0
68833.4,221.025,-1367.74,0,0
69093.7,219.577,-1362.36,0,0
69354.1,218.171,-1357.01,0,0
69614.4,216.71,-1351.76,0,0
69874.7,215.035,-1346.48,0,0
70135,213.668,-1341.22,0,0
70395.4,212.135,-1335.86,0,0
70655.7,210.731,-1330.51,0,0
70916,209.273,-1325.15,0,0
71176.3,207.888,-1319.86,0,0
71436.7,206.332,-1314.65,0,0
71697,205.057,-1309.15,0,0
71957.3,203.844,-1303.91,0,0
72217.6,202.615,-1298.41,0,0
72478,201.53,-1293.2,0,0
72738.3,200.322,-1288.06,0,0
72998.6,199.216,-1282.9,0,0
73258.9,198.146,-1277.67,0,0
73519.3,197.077,-1272.66,0,0
73779.6,196.056,-1267.53,0,0
74039.9,195.06,-1262.43,0,0
74300.225,194.015,-1257.57,0,0
74560.55,193.127,-1252.79,0,0
74820.875,192.171,-1247.98,0,0
75081.2,191.209,-1243.19,0,0
75341.525,190.196,-1238.57,0,0
75601.85,189.135,-1233.86,0,0
75862.175,188.086,-1229.13,0,0
76122.5,187.025,-1224.4,0,0
76382.825,186.006,-1219.68,0,0
76643.15,184.932,-1214.97,0,0
76903.475,183.878,-1210.28,0,0
77163.8,182.905,-1205.59,0,0
77424.125,181.885,-1200.94,0,0
77684.45,180.908,-1196.28,0,0
77944.775,179.932,-1191.62,0,0
78205.1,178.965,-1186.99,0,0
78465.425,178.023,-1182.35,0,0
78725.75,177.063,-1177.78,0,0
78986.075,176.159,-1173.12,0,0
79246.4,175.267,-1168.64,0,0
79506.725,174.282,-1164.06,0,0
79767.05,173.341,-1159.46,0,0
80027.375,172.504,-1154.87,0,0
80287.7,171.734,-1150.32,0,0
80548.025,170.791,-1145.74,0,0
80808.35,170.019,-1141.14,0,0
81068.675,169.211,-1136.63,0,0
81329.0,168.493,-1132.07,0,0
81589.325,167.786,-1127.47,0,0
81849.65,167.12,-1122.95,0,0
82109.975,166.493,-1118.41,0,0
82370.3,165.867,-1113.88,0,0
82630.625,165.287,-1109.5,0,0
82890.95,164.746,-1105,0,0
83151.275,164.268,-1100.52,0,0
83411.6,163.697,-1096.12,0,0
83671.925,163.244,-1091.74,0,0
83932.25,162.797,-1087.2,0,0
84192.575,162.368,-1082.82,0,0
84452.9,162.066,-1078.4,0,0
84713.225,161.842,-1074.1,0,0
84973.55,161.664,-1069.59,0,0
85233.875,161.519,-1065.31,0,0
85494.2,161.624,-1061.18,0,0
85754.525,161.519,-1057.15,0,0
86014.85,161.529,-1053.11,0,0
86275.175,161.534,-1049.13,0,0
86535.5,161.544,-1045.21,0,0
86795.825,161.577,-1041.29,0,0
87056.15,161.628,-1037.57,0,0
87316.475,161.639,-1033.79,0,0
87576.8,161.514,-1030.04,0,0
87837.125,161.533,-1026.26,0,0
88097.45,161.484,-1022.51,0,0
88357.775,161.668,-1018.86,0,0
88618.1,161.757,-1015.23,0,0
88878.425,161.842,-1011.61,0,0
89138.75,162.069,-1008.02,0,0
89399.075,162.402,-1004.45,0,0
89659.4,162.701,-1001.41,0,0
89919.725,163.137,-998.305,0,0
90180,163.324,-995.304,0,0
90440.4,163.429,-992.689,0,0
90700.7,163.417,-990.059,0,0
90961,163.23,-987.471,0,0
91221.3,162.588,-985.082,0,0
91481.7,161.981,-982.415,0,0
91742,161.141,-979.445,0,0
92002.3,160.159,-976.452,0,0
92262.6,159.187,-973.196,0,0
92523,158.497,-969.647,0,0
92783.3,158.132,-966.124,0,0
93043.6,157.693,-962.851,0,0
93303.9,156.988,-959.392,0,0
93564.3,156.562,-955.8,0,0
93824.6,156.349,-952.296,0,0
94084.9,156.032,-948.672,0,0
94345.2,156.094,-945.129,0,0
94605.6,156.199,-941.66,0,0
94865.9,156.38,-938.459,0,0
95126.2,156.346,-935.308,0,0
95386.5,156.383,-932.155,0,0
95646.9,156.666,-928.991,0,0
95907.2,156.924,-926.051,0,0
96167.5,157.141,-923.291,0,0
96427.8,157.309,-920.687,0,0
96688.2,157.261,-918.155,0,0
96948.5,157.168,-915.635,0,0
97208.8,156.814,-913.228,0,0
97469.1,156.387,-910.543,0,0
97729.5,155.798,-907.836,0,0
97989.8,155.311,-904.916,0,0
98250.1,154.876,-901.801,0,0
98510.4,154.67,-898.718,0,0
98770.8,154.52,-895.611,0,0
99031.1,154.612,-892.505,0,0
99291.4,154.837,-889.59,0,0
99551.7,155.17,-886.86,0,0
99812.1,155.353,-884.383,0,0
100072,155.531,-881.821,0,0
100333,155.698,-879.44,0,0
100593,155.9,-877.208,0,0
100853,155.928,-875.293,0,0
101114,155.637,-873.396,0,0
101374,155.138,-871.329,0,0
101634,154.573,-869.111,0,0
101895,154.055,-866.728,0,0
102155,153.694,-864.346,0,0
102415,153.395,-862.134,0,0
102676,152.909,-860.01,0,0
102936,152.476,-857.795,0,0
103196,152.026,-855.79,0,0
103457,151.457,-853.856,0,0
103717,150.769,-852.038,0,0
103977,149.805,-850.145,0,0
104238,148.752,-848.219,0,0
104498,147.532,-846.383,0,0
104758,145.919,-844.408,0,0
105019,144.124,-842.129,0,0
105279,142.355,-839.656,0,0
105539,140.331,-836.921,0,0
105800,138.284,-833.801,0,0
106060,136.325,-830.297,0,0
106320.175,134.547,-826.399,0,0
106580.5,133.126,-822.373,0,0
106840.825,132.036,-818.051,0,0
107101.15,131.387,-813.771,0,0
107361.475,130.76,-809.689,0,0
107621.8,130.367,-805.414,0,0
107882.125,130.37,-801.193,0,0
108142.45,130.624,-797.065,0,0
108402.775,131.149,-793.281,0,0
108663.1,131.579,-789.778,0,0
108923.425,132.012,-786.439,0,0
109183.75,132.226,-782.985,0,0
109444.075,132.603,-779.514,0,0
109704.4,133.076,-776.135,0,0
109964.725,133.725,-772.714,0,0
110225.05,134.441,-769.421,0,0
110485.375,135.193,-766.197,0,0
110745.7,136.043,-763.228,0,0
111006.025,137.063,-760.015,0,0
111266.35,138.298,-757.094,0,0
111526.675,139.544,-754.378,0,0
111787.0,140.848,-752.041,0,0
112047.325,142,-749.86,0,0
112307.65,143.201,-747.977,0,0
112567.975,144.174,-746.566,0,0
112828.3,144.576,-745.055,0,0
113088.625,144.866,-743.393,0,0
113348.95,144.994,-741.621,0,0
113609.275,145.279,-739.829,0,0
113869.6,145.469,-738.04,0,0
114129.925,145.453,-736.338,0,0
114390.25,145.232,-734.467,0,0
114650.575,145.183,-732.087,0,0
114910.9,145.683,-729.769,0,0
115171.225,146.138,-727.991,0,0
115431.55,146.609,-726.31,0,0
115691.875,147.026,-724.77,0,0
115952.2,147.376,-723.51,0,0
116212.525,147.568,-722.456,0,0
116472.85,147.402,-721.728,0,0
116733.175,146.618,-721.184,0,0
116993.5,145.193,-720.226,0,0
117253.825,143.5,-718.755,0,0
117514.15,141.681,-716.845,0,0
117774.475,140.136,-714.436,0,0
118034.8,138.515,-711.705,0,0
118295.125,137.259,-708.767,0,0
118555.45,136.192,-705.626,0,0
118815.775,135.447,-702.398,0,0
119076.1,134.882,-699.287,0,0
119336.425,134.306,-696.05,0,0
119596.75,133.977,-692.625,0,0
119857.075,133.928,-689.16,0,0
120117.4,134.295,-685.894,0,0
120377.725,134.799,-682.726,0,0
120638.05,135.616,-679.695,0,0
120898.375,136.652,-677.143,0,0
121158.7,137.592,-675.073,0,0
121419.025,138.273,-673.354,0,0
121679.35,138.611,-671.761,0,0
121939.675,138.576,-670.202,0,0
122200.0,138.202,-668.516,0,0
122460,137.596,-666.447,0,0
122721,137.209,-664.08,0,0
122981,137.045,-661.711,0,0
123241,136.862,-659.384,0,0
123502,136.756,-656.988,0,0
123762,136.77,-654.644,0,0
124022,136.806,-652.416,0,0
124283,136.715,-650.27,0,0
124543,136.631,-648.132,0,0
124803,136.359,-646.035,0,0
125064,136.121,-643.786,0,0
125324,135.812,-641.428,0,0
125584,135.621,-639.152,0,0
125845,135.339,-636.798,0,0
126105,135.09,-634.453,0,0
126365,134.746,-632.053,0,0
126626,134.48,-629.613,0,0
126886,134.16,-627.066,0,0
127146,133.897,-624.39,0,0
127406,133.686,-621.7,0,0
127667,133.568,-618.91,0,0
127927,133.532,-616.103,0,0
128187,133.63,-613.292,0,0
128448,133.799,-610.513,0,0
128708,134.013,-607.792,0,0
128968,134.338,-605.045,0,0
129229,134.743,-602.397,0,0
129489,135.196,-599.897,0,0
129749,135.575,-597.467,0,0
130010,135.908,-595.09,0,0
130270,136.171,-592.664,0,0
130530,136.436,-590.229,0,0
130791,136.705,-587.733,0,0
131051,137.034,-585.256,0,0
131311,137.327,-582.772,0,0
131572,137.699,-580.221,0,0
131832,138.103,-577.672,0,0
132092,138.556,-575.165,0,0
132353,139.043,-572.656,0,0
132613,139.608,-570.156,0,0
132873,140.23,-567.711,0,0
133134,140.88,-565.322,0,0
133394,141.569,-563.002,0,0
133654,142.218,-560.76,0,0
133915,142.804,-558.556,0,0
134175,143.38,-556.308,0,0
134435,143.996,-554.111,0,0
134696,144.672,-551.899,0,0
134956,145.303,-549.695,0,0
135216,145.946,-547.598,0,0
135477,146.492,-545.509,0,0
135737,147.066,-543.314,0,0
135997,147.712,-541.122,0,0
136258,148.386,-538.946,0,0
136518,149.149,-536.812,0,0
136778,149.986,-534.716,0,0
137039,150.837,-532.76,0,0
137299,151.656,-530.849,0,0
137559,152.502,-529.022,0,0
137819,153.321,-527.335,0,0
138080,154.023,-525.759,0,0
138340.125,154.586,-524.239,0,0
138600.45,155.014,-522.607,0,0
138860.775,155.408,-521.093,0,0
139121.1,155.711,-519.411,0,0
139381.425,155.969,-517.633,0,0
139641.75,156.305,-515.914,0,0
139902.075,156.512,-514.101,0,0
140162.4,156.821,-512.231,0,0
140422.725,157.086,-510.354,0,0
140683.05,157.396,-508.479,0,0
140943.375,157.851,-506.547,0,0
141203.7,158.316,-504.7,0,0
141464.025,158.695,-503.039,0,0
141724.35,159.052,-501.417,0,0
141984.675,159.32,-499.809,0,0
142245.0,159.484,-498.226,0,0
142505.325,159.353,-496.586,0,0
142765.65,159.186,-494.794,0,0
143025.975,159.002,-492.73,0,0
143286.3,158.945,-490.657,0,0
143546.625,158.928,-488.448,0,0
143806.95,158.902,-486.203,0,0
144067.275,158.967,-483.948,0,0
144327.6,159.17,-481.578,0,0
144587.925,159.341,-479.145,0,0
144848.25,159.736,-476.711,0,0
145108.575,160.277,-474.326,0,0
145368.9,160.895,-472.117,0,0
145629.225,161.495,-470.036,0,0
145889.55,162.013,-468.034,0,0
146149.875,162.497,-466.112,0,0
146410.2,162.895,-464.144,0,0
146670.525,163.365,-462.251,0,0
146930.85,163.681,-460.336,0,0
147191.175,163.904,-458.632,0,0
147451.5,163.919,-456.79,0,0
147711.825,163.817,-454.895,0,0
147972.15,163.626,-452.755,0,0
148232.475,163.476,-450.507,0,0
148492.8,163.29,-448.163,0,0
148753.125,163.121,-445.534,0,0
149013.45,163.039,-442.844,0,0
149273.775,163.169,-440.125,0,0
149534.1,163.247,-437.249,0,0
149794.425,163.601,-434.337,0,0
150054.75,163.953,-431.432,0,0
150315.075,164.448,-428.496,0,0
150575.4,165.019,-425.695,0,0
150835.725,165.508,-422.817,0,0
151096.05,166.098,-419.924,0,0
151356.375,166.784,-416.91,0,0
151616.7,167.538,-413.912,0,0
151877.025,168.355,-410.772,0,0
152137.35,169.498,-407.639,0,0
152397.675,170.839,-404.513,0,0
152658.0,172.395,-401.716,0,0
152918.325,173.998,-399.183,0,0
153178.65,175.487,-396.797,0,0
153438.975,176.883,-394.541,0,0
153699.3,178.234,-392.317,0,0
153959.625,179.446,-390.241,0,0
154219.95,180.508,-388.146,0,0
154480,181.348,-385.932,0,0
154741,182.21,-383.524,0,0
155001,183.185,-380.99,0,0
155261,184.275,-378.329,0,0
155522,185.546,-375.629,0,0
155782,187.012,-373.006,0,0
156042,188.611,-370.486,0,0
156303,190.287,-368.092,0,0
156563,192.035,-365.979,0,0
156823,193.772,-364.01,0,0
157084,195.41,-362.244,0,0
157344,196.806,-360.631,0,0
157604,197.991,-359.028,0,0
157864,198.959,-357.351,0,0
158125,199.848,-355.463,0,0
158385,200.727,-353.503,0,0
158645,201.636,-351.453,0,0
158906,202.573,-349.381,0,0
159166,203.545,-347.271,0,0
159426,204.451,-345.173,0,0
159687,205.451,-343.064,0,0
159947,206.387,-340.951,0,0
160207,207.258,-338.73,0,0
160468,208.116,-336.497,0,0
160728,209.009,-334.18,0,0
160988,209.923,-331.848,0,0
161249,210.936,-329.536,0,0
161509,211.834,-327.133,0,0
161769,212.756,-324.725,0,0
162030,213.743,-322.296,0,0
162290,214.658,-319.814,0,0
162550,215.645,-317.232,0,0
162811,216.683,-314.688,0,0
163071,217.699,-312.078,0,0
163331,218.863,-309.422,0,0
163592,219.994,-306.817,0,0
163852,221.184,-304.276,0,0
164112,222.278,-301.783,0,0
164373,223.314,-299.225,0,0
164633,224.193,-296.557,0,0
164893,225.134,-293.739,0,0
165154,226.134,-290.833,0,0
165414,227.183,-287.792,0,0
165674,228.34,-284.77,0,0
165935,229.518,-281.633,0,0
166195,230.769,-278.482,0,0
166455,232.138,-275.327,0,0
166716,233.461,-272.172,0,0
166976,234.785,-268.926,0,0
167236,236.189,-265.584,0,0
167497,237.636,-262.205,0,0
167757,239.171,-258.744,0,0
168017,240.737,-255.234,0,0
168277,242.453,-251.683,0,0
168538,244.26,-248.127,0,0
168798,246.129,-244.554,0,0
169058,248.076,-241.013,0,0
169319,250.029,-237.401,0,0
169579,252.061,-233.786,0,0
169839,254.121,-230.156,0,0
170100,256.223,-226.54,0,0
170360.075,258.351,-222.875,0,0
170620.4,260.488,-219.132,0,0
170880.725,262.75,-215.299,0,0
171141.05,265.007,-211.376,0,0
171401.375,267.35,-207.452,0,0
171661.7,269.751,-203.432,0,0
171922.025,272.241,-199.334,0,0
172182.35,274.828,-195.141,0,0
172442.675,277.548,-190.85,0,0
172703.0,280.334,-186.586,0,0
172963.325,283.247,-182.234,0,0
173223.65,286.284,-177.741,0,0
173483.975,289.413,-173.236,0,0
173744.3,292.69,-168.654,0,0
174004.625,296.061,-163.983,0,0
174264.95,299.648,-159.249,0,0
174525.275,303.369,-154.462,0,0
174785.6,307.282,-149.577,0,0
175045.925,311.414,-144.634,0,0
175306.25,315.723,-139.673,0,0
175566.575,320.305,-134.702,0,0
175826.9,325.059,-129.737,0,0
176087.225,330.086,-124.744,0,0
176347.55,335.249,-119.802,0,0
176607.875,340.655,-114.865,0,0
176868.2,346.335,-109.956,0,0
177128.525,352.192,-105.085,0,0
177388.85,358.404,-100.298,0,0
177649.175,364.722,-95.5785,0,0
177909.5,371.317,-90.9926,0,0
178169.825,378.13,-86.4519,0,0
178430.15,385.19,-82.0823,0,0
178690.475,392.485,-77.7974,0,0
178950.8,400.043,-73.685,0,0
179211.125,407.802,-69.7586,0,0
179471.45,415.79,-66.0008,0,0
179731.775,423.887,-62.5892,0,0
179992.1,432.155,-59.4303,0,0
180252.425,440.308,-56.5183,0,0
180512.75,448.582,-53.6735,0,0
180773.075,456.861,-50.9907,0,0
181033.4,465.106,-48.3684,0,0
181293.725,473.336,-45.6594,0,0
181554.05,481.905,-43.0235,0,0
181814.375,490.625,-40.4361,0,0
182074.7,499.562,-37.9427,0,0
182335.025,508.627,-35.6533,0,0
182595.35,517.896,-33.5112,0,0
182855.675,527.283,-31.5588,0,0
183116.0,536.632,-29.7289,0,0
183376.325,546.08,-28.0294,0,0
183636.65,555.491,-26.3281,0,0
183896.975,565.13,-24.7244,0,0
184157.3,574.904,-22.9517,0,0
184417.625,584.781,-21.0734,0,0
184677.95,595.017,-19.3061,0,0
184938.275,605.537,-17.4839,0,0
185198.6,616.36,-15.6297,0,0
185458.925,627.616,-13.7787,0,0
185719.25,639.33,-12.0568,0,0
185979.575,651.532,-10.4244,0,0
186239.9,664.303,-8.98251,0,0
186500,677.614,-7.87392,0,0
186761,691.54,-7.06681,0,0
187021,705.922,-6.73136,0,0
187281,720.78,-6.91146,0,0
187542,736.059,-7.64135,0,0
187802,751.706,-8.8324,0,0
188062,767.716,-10.5729,0,0
188322,784.169,-12.8771,0,0
188583,801.037,-15.8391,0,0
188843,818.293,-19.5269,0,0
189103,835.922,-23.9446,0,0
189364,853.867,-29.1898,0,0
189624,872.186,-35.4024,0,0
189884,890.605,-42.388,0,0
190145,909.237,-50.6013,0,0
190405,927.998,-59.7776,0,0
190665,946.773,-70.1026,0,0
190926,965.469,-81.5874,0,0
191186,983.709,-94.2934,0,0
191446,1001.73,-108.04,0,0
191707,1019.24,-122.836,0,0
191967,1036.21,-138.655,0,0
192227,1052.75,-155.455,0,0
192488,1068.48,-173.157,0,0
192748,1083.69,-191.696,0,0
193008,1098.25,-211.168,0,0
193269,1111.98,-231.435,0,0
193529,1125.14,-252.51,0,0
193789,1137.34,-274.442,0,0
194050,1148.82,-297.257,0,0
194310,1159.33,-320.842,0,0
194570,1168.77,-345.131,0,0
194831,1177.05,-370.538,0,0
195091,1184.2,-396.06,0,0
195351,1189.95,-422.416,0,0
195612,1194.22,-449.132,0,0
195872,1197.28,-476.098,0,0
196132,1198.91,-503.271,0,0
196393,1199.03,-530.989,0,0
196653,1197.66,-558.43,0,0
196913,1194.77,-585.622,0,0
197174,1190.16,-612.606,0,0
197434,1184.45,-639.196,0,0
197694,1177.2,-665.306,0,0
197955,1168.73,-690.833,0,0
198215,1158.85,-715.74,0,0
198475,1147.91,-739.622,0,0
198735,1136.06,-762.612,0,0
198996,1123.41,-784.81,0,0
199256,1109.98,-805.856,0,0
199516,1095.51,-826.232,0,0
199777,1080.86,-845.729,0,0
200037,1064.92,-864.321,0,0
200297,1048.97,-882.514,0,0
200558,1032.01,-898.863,0,0
200818,1014.67,-914.371,0,0
201078,996.62,-929.297,0,0
201339,978.527,-942.968,0,0
201599,959.806,-955.594,0,0
201859,941.096,-966.839,0,0
202120,922.361,-977.242,0,0
202380.025,903.226,-986.554,0,0
202640.35,884.736,-995.205,0,0
202900.675,865.714,-1002.31,0,0
203161.0,847.683,-1008.75,0,0
203421.325,829.458,-1014.24,0,0
203681.65,811.721,-1019,0,0
203941.975,794.388,-1023.35,0,0
204202.3,776.851,-1026.49,0,0
204462.625,760.166,-1029.47,0,0
204722.95,743.478,-1031.65,0,0
204983.275,726.965,-1033.32,0,0
205243.6,711.747,-1034.67,0,0
205503.925,696.139,-1035.66,0,0
205764.25,681.23,-1035.88,0,0
206024.575,666.436,-1035.64,0,0
206284.9,652.095,-1035.37,0,0
206545.225,638.014,-1034.39,0,0
206805.55,624.423,-1033.53,0,0
207065.875,610.941,-1031.64,0,0
207326.2,598.07,-1030.02,0,0
207586.525,585.319,-1027.99,0,0
207846.85,572.99,-1025.78,0,0
208107.175,561.121,-1023.42,0,0
208367.5,549.395,-1020.72,0,0
208627.825,538.145,-1017.84,0,0
208888.15,527.069,-1014.99,0,0
209148.475,516.403,-1011.71,0,0
209408.8,506.061,-1008.28,0,0
209669.125,495.995,-1005.01,0,0
209929.45,486.225,-1001.45,0,0
210189.775,476.672,-997.996,0,0
210450.1,467.218,-994.472,0,0
210710.425,458.142,-990.652,0,0
210970.75,449.141,-986.903,0,0
211231.075,440.396,-983.12,0,0
211491.4,431.809,-979.055,0,0
211751.725,423.454,-974.793,0,0
212012.05,415.412,-970.444,0,0
212272.375,407.606,-966.073,0,0
212532.7,400.05,-961.543,0,0
212793.025,392.791,-957.314,0,0
213053.35,385.742,-952.639,0,0
213313.675,378.958,-948.178,0,0
213574.0,372.23,-943.758,0,0
213834.325,365.702,-939.284,0,0
214094.65,359.195,-934.764,0,0
214354.975,353.025,-930.134,0,0
214615.3,347.012,-925.448,0,0
214875.625,341.167,-920.737,0,0
215135.95,335.611,-915.974,0,0
215396.275,330.022,-911.212,0,0
215656.6,324.849,-906.657,0,0
215916.925,319.77,-901.729,0,0
216177.25,314.953,-897.107,0,0
216437.575,310.197,-892.457,0,0
216697.9,305.619,-887.71,0,0
216958.225,301.133,-883.182,0,0
217218.55,296.822,-878.686,0,0
217478.875,292.635,-874.041,0,0
217739.2,288.541,-869.474,0,0
217999.525,284.496,-865.003,0,0
218259.85,280.697,-860.497,0,0
218520,276.945,-855.926,0,0
218780,273.211,-851.473,0,0
219041,269.779,-847.018,0,0
219301,266.378,-842.482,0,0
219561,263.056,-838.126,0,0
219822,259.794,-833.512,0,0
220082,256.76,-829.146,0,0
220342,253.815,-824.798,0,0
220603,250.979,-820.295,0,0
220863,248.161,-815.983,0,0
221123,245.5,-811.611,0,0
221384,242.813,-807.283,0,0
221644,240.431,-802.864,0,0
221904,237.967,-798.682,0,0
222165,235.634,-794.349,0,0
222425,233.386,-790.06,0,0
222685,231.289,-785.805,0,0
222946,229.376,-781.546,0,0
223206,227.464,-777.281,0,0
223466,225.602,-773.019,0,0
223727,223.901,-768.775,0,0
223987,222.328,-764.567,0,0
224247,220.792,-760.496,0,0
224508,219.498,-756.371,0,0
224768,218.14,-752.242,0,0
225028,217.017,-748.321,0,0
225289,215.915,-744.279,0,0
225549,214.985,-740.379,0,0
225809,213.938,-736.552,0,0
226070,213.177,-732.799,0,0
226330,212.371,-729.084,0,0
226590,211.736,-725.676,0,0
226851,210.95,-722.185,0,0
227111,210.411,-718.688,0,0
227371,209.772,-715.273,0,0
227632,209.153,-711.949,0,0
227892,208.604,-708.612,0,0
228152,208.034,-705.317,0,0
228413,207.427,-702.091,0,0
228673,206.977,-698.798,0,0
228933,206.386,-695.575,0,0
229193,206.011,-692.235,0,0
229454,205.538,-689.062,0,0
229714,205.313,-685.735,0,0
229974,204.825,-682.518,0,0
230235,204.687,-679.248,0,0
230495,204.534,-676.06,0,0
230755,204.532,-672.856,0,0
231016,204.471,-669.654,0,0
231276,204.495,-666.482,0,0
231536,204.601,-663.266,0,0
231797,204.728,-660.204,0,0
232057,205.042,-657.046,0,0
232317,205.328,-653.999,0,0
232578,205.723,-650.963,0,0
232838,206.215,-647.88,0,0
233098,206.722,-644.918,0,0
233359,207.362,-641.975,0,0
233619,208.103,-639.047,0,0
233879,208.866,-636.128,0,0
234140,209.703,-633.391,0,0
234400,210.609,-630.512,0,0
234660.3,211.626,-627.776,0,0
234920.625,212.693,-625.155,0,0
235180.95,213.919,-622.534,0,0
235441.275,215.143,-620.035,0,0
235701.6,216.51,-617.569,0,0
235961.925,217.926,-615.207,0,0
236222.25,219.409,-612.96,0,0
236482.575,220.958,-610.679,0,0
236742.9,222.486,-608.576,0,0
237003.225,224.217,-606.518,0,0
237263.55,225.825,-604.63,0,0
237523.875,227.63,-602.657,0,0
237784.2,229.439,-600.911,0,0
238044.525,231.344,-599.232,0,0
238304.85,233.217,-597.662,0,0
238565.175,235.181,-596.154,0,0
238825.5,237.197,-594.805,0,0
239085.825,239.186,-593.611,0,0
239346.15,241.288,-592.44,0,0
239606.475,243.345,-591.458,0,0
239866.8,245.499,-590.506,0,0
240127.125,247.614,-589.717,0,0
240387.45,249.664,-589.031,0,0
240647.775,251.819,-588.49,0,0
240908.1,253.902,-588.053,0,0
241168.425,256.014,-587.7,0,0
241428.75,258.125,-587.595,0,0
241689.075,260.138,-587.445,0,0
241949.4,262.286,-587.475,0,0
242209.725,264.228,-587.528,0,0
242470.05,266.261,-587.783,0,0
242730.375,268.138,-588.009,0,0
242990.7,270.122,-588.362,0,0
243251.025,272.086,-588.839,0,0
243511.35,274.068,-589.441,0,0
243771.675,276.055,-590.116,0,0
244032.0,278.075,-590.98,0,0
244292.325,280.075,-592.144,0,0
244552.65,281.881,-593.472,0,0
244812.975,283.716,-595.006,0,0
245073.3,285.182,-596.613,0,0
245333.625,286.579,-598.529,0,0
245593.95,287.748,-600.432,0,0
245854.275,288.634,-602.351,0,0
246114.6,289.398,-604.333,0,0
246374.925,289.939,-606.256,0,0
246635.25,290.308,-608.092,0,0
246895.575,290.52,-609.945,0,0
247155.9,290.708,-611.672,0,0
247416.225,290.829,-613.359,0,0
247676.55,290.871,-615.029,0,0
247936.875,290.831,-616.752,0,0
248197.2,290.776,-618.363,0,0
248457.525,290.521,-620.034,0,0
248717.85,290.121,-621.542,0,0
248978.175,289.831,-622.94,0,0
249238.5,289.529,-624.203,0,0
249498.825,289.326,-625.315,0,0
249759.15,289.24,-626.682,0,0
250019.475,289.133,-627.932,0,0
250279.8,289.098,-629.225,0,0
250540,289.339,-630.85,0,0
250800,289.294,-632.511,0,0
251061,289.273,-634.352,0,0
251321,289.081,-636.281,0,0
251581,288.858,-638.344,0,0
251842,288.387,-640.436,0,0
252102,287.958,-642.542,0,0
252362,287.329,-644.78,0,0
252623,286.617,-647,0,0
252883,285.773,-649.341,0,0
253143,284.717,-651.725,0,0
253404,283.457,-654.149,0,0
253664,282.064,-656.574,0,0
253924,280.473,-659.037,0,0
254185,278.62,-661.409,0,0
254445,276.618,-663.766,0,0
254705,274.239,-665.803,0,0
254966,271.901,-667.874,0,0
255226,269.503,-669.853,0,0
255486,266.808,-671.616,0,0
255747,264.046,-673.212,0,0
256007,261.324,-674.62,0,0
256267,258.413,-675.821,0,0
256528,255.44,-676.977,0,0
256788,252.503,-677.96,0,0
257048,249.511,-678.759,0,0
257309,246.561,-679.459,0,0
257569,243.586,-679.996,0,0
257829,240.681,-680.443,0,0
258090,237.752,-680.77,0,0
258350,234.855,-680.981,0,0
258610,232.002,-681.092,0,0
258871,229.163,-681.11,0,0
259131,226.363,-681.05,0,0
259391,223.642,-680.914,0,0
259651,220.815,-680.695,0,0
259912,217.941,-680.487,0,0
260172,215.349,-679.981,0,0
260432,212.835,-679.577,0,0
260693,210.171,-679.147,0,0
260953,207.633,-678.666,0,0
261213,205.136,-677.945,0,0
261474,202.538,-677.27,0,0
261734,200.148,-676.529,0,0
261994,197.719,-675.77,0,0
262255,195.333,-674.891,0,0
262515,193.104,-674.01,0,0
262775,190.832,-673.127,0,0
263036,188.638,-672.119,0,0
263296,186.476,-671.157,0,0
263556,184.378,-670.167,0,0
263817,182.273,-669.046,0,0
264077,180.241,-668.015,0,0
264337,178.308,-667.008,0,0
264598,176.304,-665.877,0,0
264858,174.461,-664.67,0,0
265118,172.642,-663.45,0,0
265379,170.722,-662.205,0,0
265639,169.094,-661.279,0,0
265899,167.295,-660.074,0,0
266160,165.681,-658.91,0,0
266420,164.018,-657.719,0,0
266680.25,162.355,-656.515,0,0
266940.575,160.719,-655.368,0,0
267200.9,159.202,-654.125,0,0
267461.225,157.636,-652.984,0,0
267721.55,156.088,-651.757,0,0
267981.875,154.611,-650.576,0,0
268242.2,153.117,-649.41,0,0
268502.525,151.626,-648.168,0,0
268762.85,150.245,-646.961,0,0
269023.175,148.836,-645.703,0,0
269283.5,147.383,-644.539,0,0
269543.825,146.068,-643.251,0,0
269804.15,144.672,-642.06,0,0
270064.475,143.422,-640.788,0,0
270324.8,142.066,-639.523,0,0
270585.125,140.776,-638.391,0,0
270845.45,139.579,-637.097,0,0
271105.775,138.196,-635.816,0,0
271366.1,137.083,-634.585,0,0
271626.425,135.886,-633.332,0,0
271886.75,134.711,-632.044,0,0
272147.075,133.532,-630.815,0,0
272407.4,132.372,-629.536,0,0
272667.725,131.256,-628.301,0,0
272928.05,130.086,-627.05,0,0
273188.375,129.075,-625.737,0,0
273448.7,128.001,-624.514,0,0
273709.025,126.942,-623.233,0,0
273969.35,125.919,-621.982,0,0
274229.675,124.913,-620.731,0,0
274490.0,123.875,-619.47,0,0
274750.325,122.98,-618.219,0,0
275010.65,122.013,-616.81,0,0
275270.975,120.99,-615.595,0,0
275531.3,120.01,-614.358,0,0
275791.625,119.116,-613.133,0,0
276051.95,118.222,-611.852,0,0
276312.275,117.246,-610.569,0,0
276572.6,116.384,-609.336,0,0
276832.925,115.498,-608.071,0,0
277093.25,114.639,-606.767,0,0
277353.575,113.809,-605.498,0,0
277613.9,112.927,-604.219,0,0
277874.225,112.12,-602.904,0,0
278134.55,111.295,-601.606,0,0
278394.875,110.521,-600.283,0,0
278655.2,109.716,-598.989,0,0
278915.525,108.962,-597.639,0,0
279175.85,108.265,-596.303,0,0
279436.175,107.558,-594.927,0,0
279696.5,106.992,-593.553,0,0
279956.825,106.408,-592.252,0,0
280217.15,105.817,-590.847,0,0
280477.475,105.31,-589.519,0,0
280737.8,104.892,-588.253,0,0
280998.125,104.478,-587.026,0,0
281258.45,104.067,-585.798,0,0
281518.775,103.66,-584.643,0,0
281779.1,103.259,-583.543,0,0
282039.425,102.818,-582.483,0,0
282299.75,102.374,-581.413,0,0
282560,101.901,-580.347,0,0
282820,101.498,-579.352,0,0
283081,100.949,-578.295,0,0
283341,100.445,-577.22,0,0
283601,99.9543,-576.138,0,0
283862,99.4712,-575.066,0,0
284122,99.0324,-573.974,0,0
284382,98.6116,-572.864,0,0
284643,98.2059,-571.702,0,0
284903,97.7559,-570.778,0,0
285163,97.4883,-569.692,0,0
285424,97.1588,-568.661,0,0
285684,96.8227,-567.643,0,0
285944,96.5406,-566.687,0,0
286205,96.2601,-565.734,0,0
286465,95.9767,-564.882,0,0
286725,95.6438,-564.039,0,0
286986,95.2502,-563.157,0,0
287246,94.9016,-562.477,0,0
287506,94.4586,-561.609,0,0
287767,94.0878,-560.832,0,0
288027,93.5327,-559.969,0,0
288287,93.1541,-559.209,0,0
288548,92.6223,-558.348,0,0
288808,92.1154,-557.541,0,0
289068,91.5879,-556.65,0,0
289329,91.1361,-555.751,0,0
289589,90.649,-554.787,0,0
289849,90.277,-553.895,0,0
290109,89.7722,-553.032,0,0
290370,89.3888,-552.129,0,0
290630,88.914,-551.234,0,0
290890,88.508,-550.361,0,0
291151,88.0939,-549.453,0,0
291411,87.7291,-548.635,0,0
291671,87.2529,-547.79,0,0
291932,86.9339,-546.931,0,0
292192,86.4952,-546.105,0,0
292452,86.101,-545.236,0,0
292713,85.6092,-544.414,0,0
292973,85.1232,-543.654,0,0
293233,84.7457,-542.859,0,0
293494,84.312,-541.974,0,0
293754,83.7937,-541.162,0,0
294014,83.3978,-540.411,0,0
294275,82.8082,-539.521,0,0
294535,82.2563,-538.62,0,0
294795,81.7854,-537.826,0,0
295056,81.2373,-536.897,0,0
295316,80.758,-535.958,0,0
295576,80.2927,-535.024,0,0
295837,79.8322,-534.048,0,0
296097,79.3391,-533.08,0,0
296357,78.8016,-531.993,0,0
296618,78.4915,-531.082,0,0
296878,78.0074,-530.022,0,0
297138,77.6894,-528.958,0,0
297399,77.3307,-527.945,0,0
297659,77.0757,-526.866,0,0
297919,76.7748,-525.879,0,0
298180,76.6042,-524.874,0,0
298440,76.4385,-523.945,0,0
298700.2,76.2883,-522.977,0,0
298960.525,76.1077,-522.126,0,0
299220.85,75.9378,-521.346,0,0
299481.175,75.6919,-520.51,0,0
299741.5,75.4504,-519.749,0,0
300001.825,75.1601,-518.965,0,0
300262.15,75.0244,-518.106,0,0
300522.475,74.6827,-517.412,0,0
300782.8,74.3368,-516.62,0,0
301043.125,74.056,-515.822,0,0
301303.45,73.8145,-514.965,0,0
301563.775,73.507,-514.147,0,0
301824.1,73.1819,-513.322,0,0
302084.425,72.9494,-512.479,0,0
302344.75,72.6288,-511.692,0,0
302605.075,72.3492,-510.871,0,0
302865.4,71.9947,-510.062,0,0
303125.725,71.7655,-509.202,0,0
303386.05,71.5675,-508.407,0,0
303646.375,71.2975,-507.542,0,0
303906.7,71.0703,-506.712,0,0
304167.025,70.8378,-505.841,0,0
304427.35,70.6268,-505.115,0,0
304687.675,70.3941,-504.21,0,0
304948.0,70.2395,-503.431,0,0
305208.325,69.9963,-502.664,0,0
305468.65,69.8314,-501.904,0,0
305728.975,69.6449,-501.125,0,0
305989.3,69.4712,-500.352,0,0
306249.625,69.192,-499.625,0,0
306509.95,68.9781,-498.904,0,0
306770.275,68.8067,-498.146,0,0
307030.6,68.5584,-497.46,0,0
307290.925,68.308,-496.739,0,0
307551.25,68.0905,-496.014,0,0
307811.575,67.862,-495.247,0,0
308071.9,67.6002,-494.516,0,0
308332.225,67.3416,-493.764,0,0
308592.55,67.0932,-493.01,0,0
308852.875,66.9019,-492.241,0,0
309113.2,66.7074,-491.507,0,0
309373.525,66.4637,-490.768,0,0
309633.85,66.255,-490.005,0,0
309894.175,66.0408,-489.248,0,0
310154.5,65.7916,-488.51,0,0
310414.825,65.6089,-487.791,0,0
310675.15,65.4194,-487.08,0,0
310935.475,65.2192,-486.345,0,0
311195.8,65.0336,-485.613,0,0
311456.125,64.8042,-484.877,0,0
311716.45,64.5922,-484.19,0,0
311976.775,64.3609,-483.469,0,0
312237.1,64.149,-482.766,0,0
312497.425,63.9278,-482.068,0,0
312757.75,63.7145,-481.323,0,0
313018.075,63.4964,-480.593,0,0
313278.4,63.3331,-479.857,0,0
313538.725,63.1161,-479.152,0,0
313799.05,62.9001,-478.435,0,0
314059.375,62.6953,-477.737,0,0
314319.7,62.5137,-476.978,0,0
314580,62.265,-476.302,0,0
314840,62.0594,-475.547,0,0
315101,61.9447,-474.832,0,0
315361,61.6858,-474.115,0,0
315621,61.5254,-473.406,0,0
315882,61.3301,-472.717,0,0
316142,61.1243,-472.025,0,0
316402,60.9663,-471.268,0,0
316663,60.8115,-470.555,0,0
316923,60.6428,-469.9,0,0
317183,60.4218,-469.225,0,0
317444,60.2135,-468.522,0,0
317704,60.0783,-467.771,0,0
317964,59.8319,-467.171,0,0
318225,59.7059,-466.403,0,0
318485,59.4933,-465.689,0,0
318745,59.3032,-464.979,0,0
319006,59.1485,-464.286,0,0
319266,59.002,-463.552,0,0
319526,58.8122,-462.899,0,0
319787,58.692,-462.179,0,0
320047,58.4628,-461.485,0,0
320307,58.3685,-460.791,0,0
320567,58.1689,-460.098,0,0
320828,58.0476,-459.396,0,0
321088,57.9466,-458.731,0,0
321348,57.7672,-458.065,0,0
321609,57.6011,-457.358,0,0
321869,57.4952,-456.651,0,0
322129,57.3343,-456.022,0,0
322390,57.195,-455.336,0,0
322650,57.043,-454.674,0,0
322910,56.9538,-453.987,0,0
323171,56.8085,-453.339,0,0
323431,56.6522,-452.688,0,0
323691,56.5179,-452.046,0,0
323952,56.4001,-451.331,0,0
324212,56.2756,-450.701,0,0
324472,56.1225,-450.054,0,0
324733,55.9647,-449.414,0,0
324993,55.8216,-448.769,0,0
325253,55.6678,-448.138,0,0
325514,55.5614,-447.465,0,0
325774,55.3698,-446.844,0,0
326034,55.2314,-446.196,0,0
326295,55.1202,-445.507,0,0
326555,54.9514,-444.85,0,0
326815,54.8245,-444.233,0,0
327076,54.6719,-443.528,0,0
327336,54.4598,-442.899,0,0
327596,54.3646,-442.199,0,0
327857,54.2045,-441.546,0,0
328117,54.1113,-440.921,0,0
328377,53.9407,-440.231,0,0
328638,53.8666,-439.538,0,0
328898,53.6887,-438.922,0,0
329158,53.5748,-438.198,0,0
329419,53.4235,-437.582,0,0
329679,53.3207,-436.886,0,0
329939,53.2402,-436.198,0,0
330200,53.1746,-435.523,0,0
330460,53.0609,-434.927,0,0
330720.15,52.9543,-434.278,0,0
330980.475,52.8892,-433.57,0,0
331240.8,52.7625,-432.901,0,0
331501.125,52.6943,-432.292,0,0
331761.45,52.5978,-431.656,0,0
332021.775,52.5243,-430.96,0,0
332282.1,52.442,-430.333,0,0
332542.425,52.3894,-429.715,0,0
332802.75,52.308,-429.091,0,0
333063.075,52.2039,-428.451,0,0
333323.4,52.1115,-427.803,0,0
333583.725,52.0382,-427.182,0,0
333844.05,51.9573,-426.543,0,0
334104.375,51.8877,-425.925,0,0
334364.7,51.8271,-425.306,0,0
334625.025,51.7383,-424.687,0,0
334885.35,51.6665,-424.08,0,0
335145.675,51.5642,-423.428,0,0
335406.0,51.5204,-422.841,0,0
335666.325,51.4357,-422.194,0,0
335926.65,51.3962,-421.538,0,0
336186.975,51.3012,-420.953,0,0
336447.3,51.2682,-420.382,0,0
336707.625,51.2096,-419.78,0,0
336967.95,51.1558,-419.138,0,0
337228.275,51.0766,-418.559,0,0
337488.6,50.9846,-417.93,0,0
337748.925,50.9035,-417.346,0,0
338009.25,50.889,-416.744,0,0
338269.575,50.8044,-416.118,0,0
338529.9,50.7499,-415.501,0,0
338790.225,50.6665,-414.897,0,0
339050.55,50.5848,-414.275,0,0
339310.875,50.5605,-413.636,0,0
339571.2,50.5035,-413.089,0,0
339831.525,50.4552,-412.446,0,0
340091.85,50.377,-411.843,0,0
340352.175,50.3634,-411.205,0,0
340612.5,50.3225,-410.627,0,0
340872.825,50.283,-410.007,0,0
341133.15,50.234,-409.393,0,0
341393.475,50.2234,-408.794,0,0
341653.8,50.1905,-408.196,0,0
341914.125,50.1559,-407.587,0,0
342174.45,50.1175,-406.993,0,0
342434.775,50.157,-406.395,0,0
342695.1,50.1403,-405.761,0,0
342955.425,50.1733,-405.218,0,0
343215.75,50.1493,-404.632,0,0
343476.075,50.1596,-404.077,0,0
343736.4,50.1799,-403.53,0,0
343996.725,50.1838,-403.024,0,0
344257.05,50.1499,-402.485,0,0
344517.375,50.1419,-401.941,0,0
344777.7,50.0688,-401.414,0,0
345038.025,50.0637,-400.831,0,0
345298.35,50.0128,-400.266,0,0
345558.675,49.9592,-399.734,0,0
345819.0,49.922,-399.172,0,0
346079.325,49.919,-398.593,0,0
346339.65,49.8687,-398.067,0,0
346599.975,49.8753,-397.438,0,0
346860,49.8575,-396.876,0,0
347121,49.8269,-396.298,0,0
347381,49.8483,-395.744,0,0
347641,49.8386,-395.164,0,0
347902,49.8449,-394.631,0,0
348162,49.8362,-394.055,0,0
348422,49.8687,-393.499,0,0
348683,49.8797,-392.969,0,0
348943,49.9393,-392.412,0,0
349203,49.9548,-391.879,0,0
349464,49.9698,-391.318,0,0
349724,50.0175,-390.833,0,0
349984,50.0511,-390.266,0,0
350245,50.021,-389.794,0,0
350505,50.0941,-389.254,0,0
350765,50.0976,-388.764,0,0
351025,50.1284,-388.29,0,0
351286,50.187,-387.782,0,0
351546,50.1822,-387.233,0,0
351806,50.2182,-386.821,0,0
352067,50.2296,-386.305,0,0
352327,50.2988,-385.798,0,0
352587,50.2931,-385.338,0,0
352848,50.3168,-384.879,0,0
353108,50.3611,-384.401,0,0
353368,50.3708,-383.918,0,0
353629,50.4053,-383.473,0,0
353889,50.3761,-383.052,0,0
354149,50.3935,-382.583,0,0
354410,50.4292,-382.136,0,0
354670,50.3999,-381.706,0,0
354930,50.4135,-381.272,0,0
355191,50.4092,-380.813,0,0
355451,50.3742,-380.393,0,0
355711,50.3545,-379.996,0,0
355972,50.3065,-379.5,0,0
356232,50.2788,-379.059,0,0
356492,50.2267,-378.616,0,0
356753,50.163,-378.188,0,0
357013,50.1175,-377.743,0,0
357273,50.1258,-377.312,0,0
357534,50.1008,-376.813,0,0
357794,50.0386,-376.359,0,0
358054,49.9794,-375.907,0,0
358315,49.9199,-375.419,0,0
358575,49.9184,-374.977,0,0
358835,49.8691,-374.534,0,0
359096,49.8271,-374.059,0,0
359356,49.7966,-373.575,0,0
359616,49.7273,-373.101,0,0
359877,49.682,-372.644,0,0
360137,49.6547,-372.218,0,0
360397,49.5832,-371.741,0,0
360658,49.5546,-371.256,0,0
360918,49.5382,-370.818,0,0
361178,49.3779,-370.319,0,0
361438,49.4004,-369.821,0,0
361699,49.3452,-369.387,0,0
361959,49.2693,-368.94,0,0
362219,49.2435,-368.431,0,0
362480,49.196,-367.946,0,0
362740.1,49.1393,-367.463,0,0
363000.425,49.1226,-366.981,0,0
363260.75,49.0428,-366.465,0,0
363521.075,49.0427,-365.952,0,0
363781.4,49.0154,-365.511,0,0
364041.725,48.9735,-365.006,0,0
364302.05,48.9351,-364.543,0,0
364562.375,48.9011,-364.042,0,0
364822.7,48.8844,-363.564,0,0
365083.025,48.8635,-363.063,0,0
365343.35,48.8049,-362.563,0,0
365603.675,48.8284,-362.049,0,0
365864.0,48.8027,-361.582,0,0
366124.325,48.8232,-361.088,0,0
366384.65,48.7857,-360.632,0,0
366644.975,48.7923,-360.156,0,0
366905.3,48.7984,-359.654,0,0
367165.625,48.7767,-359.191,0,0
367425.95,48.7747,-358.72,0,0
367686.275,48.75,-358.248,0,0
367946.6,48.7523,-357.788,0,0
368206.925,48.758,-357.351,0,0
368467.25,48.729,-356.879,0,0
368727.575,48.7061,-356.408,0,0
368987.9,48.6899,-355.948,0,0
369248.225,48.6926,-355.487,0,0
369508.55,48.658,-355.013,0,0
369768.875,48.6907,-354.5,0,0
370029.2,48.6288,-354.081,0,0
370289.525,48.6466,-353.575,0,0
370549.85,48.6429,-353.094,0,0
370810.175,48.6558,-352.647,0,0
371070.5,48.6604,-352.163,0,0
371330.825,48.6631,-351.715,0,0
371591.15,48.6981,-351.244,0,0
371851.475,48.731,-350.801,0,0
372111.8,48.7281,-350.317,0,0
372372.125,48.7828,-349.872,0,0
372632.45,48.7766,-349.441,0,0
372892.775,48.8081,-349.025,0,0
373153.1,48.8302,-348.603,0,0
373413.425,48.8668,-348.173,0,0
373673.75,48.8887,-347.797,0,0
373934.075,48.8892,-347.414,0,0
374194.4,48.8216,-347.002,0,0
374454.725,48.854,-346.655,0,0
374715.05,48.7758,-346.243,0,0
374975.375,48.7281,-345.845,0,0
375235.7,48.6765,-345.469,0,0
375496.025,48.5847,-345.05,0,0
375756.35,48.4944,-344.604,0,0
376016.675,48.421,-344.189,0,0
376277.0,48.3626,-343.738,0,0
376537.325,48.2824,-343.302,0,0
376797.65,48.2104,-342.827,0,0
377057.975,48.1654,-342.386,0,0
377318.3,48.0908,-341.909,0,0
377578.625,48.0253,-341.444,0,0
377838.95,47.9345,-340.97,0,0
378099.275,47.8889,-340.499,0,0
378359.6,47.8459,-340.009,0,0
378619.925,47.8121,-339.535,0,0
378880,47.6971,-339.056,0,0
379141,47.6615,-338.569,0,0
379401,47.5825,-338.069,0,0
379661,47.6026,-337.55,0,0
379922,47.5207,-337.09,0,0
380182,47.4909,-336.55,0,0
380442,47.4302,-336.055,0,0
380703,47.404,-335.549,0,0
380963,47.336,-335.034,0,0
381223,47.3314,-334.49,0,0
381483,47.3304,-333.962,0,0
381744,47.2975,-333.429,0,0
382004,47.331,-332.92,0,0
382264,47.3491,-332.369,0,0
382525,47.3661,-331.888,0,0
382785,47.4679,-331.35,0,0
383045,47.5063,-330.846,0,0
383306,47.5894,-330.389,0,0
383566,47.6414,-329.973,0,0
383826,47.6742,-329.531,0,0
384087,47.6766,-329.145,0,0
384347,47.6672,-328.733,0,0
384607,47.6131,-328.294,0,0
384868,47.547,-327.841,0,0
385128,47.5394,-327.392,0,0
385388,47.5166,-326.92,0,0
385649,47.4795,-326.412,0,0
385909,47.4412,-325.902,0,0
386169,47.4189,-325.453,0,0
386430,47.4052,-324.978,0,0
386690,47.3761,-324.492,0,0
386950,47.3557,-323.997,0,0
387211,47.3317,-323.488,0,0
387471,47.3356,-322.99,0,0
387731,47.3108,-322.526,0,0
387992,47.3133,-322.013,0,0
388252,47.2903,-321.525,0,0
388512,47.3224,-321.023,0,0
388773,47.2703,-320.512,0,0
389033,47.2666,-319.998,0,0
389293,47.2987,-319.498,0,0
389554,47.27,-318.994,0,0
389814,47.2563,-318.5,0,0
390074,47.3237,-317.99,0,0
390335,47.2747,-317.468,0,0
390595,47.2987,-316.957,0,0
390855,47.3033,-316.444,0,0
391116,47.2883,-315.963,0,0
391376,47.2951,-315.433,0,0
391636,47.3287,-314.947,0,0
391896,47.3318,-314.418,0,0
392157,47.3543,-313.912,0,0
392417,47.3476,-313.391,0,0
392677,47.3543,-312.885,0,0
392938,47.3962,-312.371,0,0
393198,47.4007,-311.848,0,0
393458,47.4195,-311.318,0,0
393719,47.4612,-310.797,0,0
393979,47.448,-310.293,0,0
394239,47.4727,-309.776,0,0
394500,47.5038,-309.251,0,0
394760.05,47.5307,-308.708,0,0
395020.375,47.5393,-308.192,0,0
395280.7,47.6059,-307.675,0,0
395541.025,47.5847,-307.126,0,0
395801.35,47.6364,-306.618,0,0
396061.675,47.6912,-306.055,0,0
396322.0,47.6959,-305.544,0,0
396582.325,47.7628,-305.022,0,0
396842.65,47.7867,-304.485,0,0
397102.975,47.8145,-303.951,0,0
397363.3,47.8656,-303.422,0,0
397623.625,47.8913,-302.868,0,0
397883.95,47.945,-302.343,0,0
398144.275,47.9944,-301.812,0,0
398404.6,48.0469,-301.258,0,0
398664.925,48.0869,-300.709,0,0
398925.25,48.1362,-300.181,0,0
399185.575,48.2124,-299.639,0,0
399445.9,48.269,-299.095,0,0
399706.225,48.299,-298.549,0,0
399966.55,48.402,-297.979,0,0
400006.6,48.379,-297.936,0,0