File: Accelerated corrosion test data/2025-10-14_06-00-04/sample_4.csv
Frequency (Hz),Impedance (ohms),Phase (Radians),Temperature (C),Humidity (%)
10000.0,262.107,-11872.1,0,0
10260.325,258.71,-11573.5,0,0
10520.65,249.216,-11289.3,0,0
10780.975,243.234,-11019.2,0,0
11041.3,238.265,-10760.6,0,0
11301.625,232.874,-10517.5,0,0
11561.95,227.183,-10282,0,0
11822.275,222.244,-10056.5,0,0
12082.6,218.139,-9841.14,0,0
12342.925,213.702,-9634.85,0,0
12603.25,212.206,-9435.59,0,0
12863.575,206.863,-9248.61,0,0
13123.9,205.652,-9069.5,0,0
13384.225,198.141,-8891.48,0,0
13644.55,194.748,-8720.75,0,0
13904.875,191.795,-8555.25,0,0
14165.2,193.105,-8392.17,0,0
14425.525,196.832,-8246.03,0,0
14685.8,197.027,-8131.77,0,0
14946.175,180.626,-7975.17,0,0
15206.5,180.316,-7830.2,0,0
15466.825,187.532,-7688.03,0,0
15727.15,189.49,-7587.68,0,0
15987.5,184.245,-7473.04,0,0
16247.8,169.837,-7342.33,0,0
16508.125,187.255,-7216.12,0,0
16768.45,178.214,-7115.32,0,0
17028.775,169.037,-7026.71,0,0
17289.1,159.355,-6913.1,0,0
17549.425,157.601,-6809.08,0,0
17809.75,155.228,-6709.06,0,0
18070.075,150.82,-6609.8,0,0
18330.4,152.488,-6514.28,0,0
18590.725,152.03,-6424.79,0,0
18851.05,148.278,-6341.03,0,0
19111.375,144.373,-6251.7,0,0
19371.7,141.933,-6166.44,0,0
19632.025,140.8,-6082.23,0,0
19892.35,143.184,-6002,0,0
20152.675,142.665,-5925.11,0,0
20413.0,139.782,-5851.3,0,0
20673.3,139.985,-5776.67,0,0
20933.65,136.178,-5703,0,0
21193.975,139.528,-5628.36,0,0
21454.3,151.584,-5562.83,0,0
21714.625,144.973,-5506.94,0,0
21974.9,149.218,-5435.74,0,0
22235.275,147.238,-5389.73,0,0
22495.6,134.559,-5333.33,0,0
22755.925,127.786,-5268.43,0,0
23016.25,124.241,-5206.72,0,0
23276.6,121.792,-5146.33,0,0
23536.9,120.083,-5088.75,0,0
23797.225,118.03,-5031.91,0,0
24057.55,116.413,-4976.37,0,0
24317.875,115.148,-4921.88,0,0
24578.2,114.026,-4869,0,0
24838.525,113.149,-4816.81,0,0
25098.85,114.014,-4765.73,0,0
25359.175,112.234,-4717.97,0,0
25619.5,112.093,-4669.02,0,0
25879.8,109.978,-4624.49,0,0
26140.1,107.641,-4576.05,0,0
26400.5,106.472,-4529.29,0,0
26660.8,106.074,-4483.12,0,0
26921.1,106.23,-4439.39,0,0
27181.4,105.132,-4394.43,0,0
27441.8,105.326,-4350.03,0,0
27702.1,108.647,-4305.6,0,0
27962.4,115.024,-4264.44,0,0
28222.7,121.118,-4237.09,0,0
28483.1,112.282,-4201.48,0,0
28743.4,108.8,-4160.72,0,0
29003.7,111.779,-4118.94,0,0
29264,117.206,-4088.28,0,0
29524.4,112.495,-4057.17,0,0
29784.7,106.951,-4026.29,0,0
30045,106.208,-3988.61,0,0
30305.3,100.991,-3955.03,0,0
30565.7,98.965,-3919.53,0,0
30826,98.3014,-3884.91,0,0
31086.3,97.5718,-3851.43,0,0
31346.6,98.5499,-3817.72,0,0
31607,96.7251,-3787.25,0,0
31867.3,96.7103,-3755.26,0,0
32127.6,99.2662,-3724.99,0,0
32387.9,97.3762,-3698.72,0,0
32648.3,96.1675,-3668.85,0,0
32908.6,94.2588,-3641.87,0,0
33168.9,91.7901,-3612.72,0,0
33429.2,89.4466,-3584.33,0,0
33689.6,88.0567,-3555.21,0,0
33949.9,86.859,-3526.49,0,0
34210.2,87.1276,-3498.84,0,0
34470.5,85.6395,-3472.97,0,0
34730.9,84.5676,-3445.61,0,0
34991.2,83.9855,-3419.16,0,0
35251.5,83.7252,-3393.37,0,0
35511.8,82.5881,-3368.05,0,0
35772.2,82.1209,-3342.88,0,0
36032.5,81.0258,-3318.21,0,0
36292.8,80.6185,-3293.62,0,0
36553.1,80.2802,-3268.66,0,0
36813.5,80.1718,-3245.16,0,0
37073.8,79.9774,-3222.46,0,0
37334.1,79.2437,-3199.2,0,0
37594.4,78.8588,-3176.34,0,0
37854.8,78.6964,-3154.29,0,0
38115.1,77.6292,-3132.59,0,0
38375.4,76.9734,-3109.78,0,0
38635.7,76.6245,-3087.71,0,0
38896.1,76.8806,-3066.25,0,0
39156.4,76.3724,-3045.2,0,0
39416.7,75.9719,-3024.44,0,0
39677,76.0285,-3002.81,0,0
39937.4,76.7174,-2981.8,0,0
40197.7,78.2101,-2961.69,0,0
40458,79.8582,-2943.18,0,0
40718.3,78.6276,-2925.89,0,0
40978.7,78.5822,-2905.64,0,0
41239,79.9232,-2887.75,0,0
41499.3,81.7634,-2871.1,0,0
41759.6,77.8424,-2854.3,0,0
42020,76.9902,-2836.08,0,0
42280.275,76.3302,-2816.8,0,0
42540.6,78.5352,-2799.35,0,0
42800.925,77.2191,-2785.16,0,0
43061.25,74.8449,-2766.96,0,0
43321.575,75.1953,-2750.04,0,0
43581.9,74.002,-2733.49,0,0
43842.225,73.4621,-2715.91,0,0
44102.55,73.3787,-2700.26,0,0
44362.875,71.9128,-2683.34,0,0
44623.2,72.119,-2666.62,0,0
44883.525,71.7435,-2651.01,0,0
45143.85,70.8709,-2635.29,0,0
45404.175,70.1326,-2618.61,0,0
45664.5,71.1369,-2602.1,0,0
45924.825,72.1284,-2587.91,0,0
46185.15,70.9989,-2574.22,0,0
46445.475,69.9473,-2557.75,0,0
46705.8,71.0699,-2542.83,0,0
46966.125,70.9541,-2529.08,0,0
47226.45,71.0942,-2514.72,0,0
47486.775,71.0367,-2501.69,0,0
47747.1,69.5811,-2488.12,0,0
48007.425,69.2923,-2473.87,0,0
48267.75,68.1042,-2460.79,0,0
48528.075,67.3116,-2446.68,0,0
48788.4,66.6171,-2432.84,0,0
49048.725,65.6704,-2419.08,0,0
49309.05,65.8702,-2404.96,0,0
49569.375,65.1458,-2391.97,0,0
49829.7,64.6384,-2378.06,0,0
50090.025,64.3263,-2364.81,0,0
50350.35,64.1227,-2351.63,0,0
50610.675,64.0364,-2338.59,0,0
50871.0,63.7334,-2325.55,0,0
51131.325,63.5629,-2312.65,0,0
51391.65,63.3433,-2299.77,0,0
51651.975,63.5865,-2286.84,0,0
51912.3,63.4241,-2274.27,0,0
52172.625,63.9083,-2261.45,0,0
52432.95,63.9331,-2249.45,0,0
52693.275,64.2255,-2236.51,0,0
52953.6,65.248,-2224.02,0,0
53213.925,66.1554,-2212.1,0,0
53474.25,67.3564,-2200.3,0,0
53734.575,68.4887,-2188.57,0,0
53994.9,71.1527,-2177.3,0,0
54255.225,73.427,-2167.55,0,0
54515.55,75.5487,-2159.19,0,0
54775.875,75.426,-2151.67,0,0
55036.2,73.8857,-2143.02,0,0
55296.525,73.2634,-2133.49,0,0
55556.85,71.3908,-2124.76,0,0
55817.175,69.6871,-2114.12,0,0
56077.5,68.1169,-2103.88,0,0
56337.825,66.8488,-2093.2,0,0
56598.15,65.7158,-2081.88,0,0
56858.475,65.3198,-2070.67,0,0
57118.8,65.4019,-2059.64,0,0
57379.125,65.9087,-2049.14,0,0
57639.45,66.003,-2038.94,0,0
57899.775,66.0779,-2028.81,0,0
58160.1,66.0918,-2018.23,0,0
58420.4,67.2351,-2008.09,0,0
58680.7,67.6182,-1999.42,0,0
58941.1,67.279,-1988.64,0,0
59201.4,68.5457,-1978.05,0,0
59461.7,70.3992,-1967.98,0,0
59722,72.9862,-1958.97,0,0
59982.4,75.3527,-1951.4,0,0
60242.7,76.4753,-1944.4,0,0
60503,77.1898,-1936.57,0,0
60763.3,79.9042,-1929.48,0,0
61023.7,80.5166,-1926.09,0,0
61284,78.264,-1921.32,0,0
61544.3,74.1174,-1915.23,0,0
61804.6,70.9733,-1905.55,0,0
62065,69.5929,-1896.67,0,0
62325.3,68.3335,-1888.61,0,0
62585.6,65.6027,-1879.79,0,0
62845.9,64.8521,-1869.36,0,0
63106.3,64.3583,-1860.58,0,0
63366.6,63.925,-1851.35,0,0
63626.9,64.0921,-1842.13,0,0
63887.2,64.1341,-1834.55,0,0
64147.6,62.997,-1825.44,0,0
64407.9,63.6625,-1816.19,0,0
64668.2,64.3714,-1807.86,0,0
64928.5,64.7757,-1800.01,0,0
65188.9,64.7772,-1792.06,0,0
65449.2,64.8222,-1784.13,0,0
65709.5,64.8538,-1775.54,0,0
65969.8,66.2633,-1767.13,0,0
66230.2,67.1502,-1760.14,0,0
66490.5,67.9202,-1752.71,0,0
66750.8,68.4146,-1745.7,0,0
67011.1,69.0059,-1738.44,0,0
67271.5,70.1611,-1731.28,0,0
67531.8,71.256,-1724.86,0,0
67792.1,72.1677,-1718.42,0,0
68052.4,72.8771,-1712.91,0,0
68312.8,73.4879,-1707.35,0,0
68573.1,73.6078,-1702.29,0,0
68833.4,72.8926,-1697.74,0,0
69093.7,71.0435,-1692.48,0,0
69354.1,69.1281,-1686.65,0,0
69614.4,67.0758,-1679.63,0,0
69874.7,66.0988,-1672.3,0,0
70135,65.1785,-1665.5,0,0
70395.4,64.0513,-1658.17,0,0
70655.7,63.8802,-1650.01,0,0
70916,65.0404,-1643.78,0,0
71176.3,64.5443,-1638.11,0,0
71436.7,64.0408,-1631.96,0,0
71697,63.541,-1626.45,0,0
71957.3,61.883,-1620.69,0,0
72217.6,60.2299,-1613.76,0,0
72478,58.948,-1606.68,0,0
72738.3,58.0552,-1599.36,0,0
72998.6,57.365,-1592.07,0,0
73258.9,56.9145,-1584.47,0,0
73519.3,57.3411,-1577.18,0,0
73779.6,57.475,-1570.28,0,0
74039.9,57.9064,-1563.51,0,0
74300.225,58.0145,-1557.06,0,0
74560.55,58.3327,-1550.28,0,0
74820.875,58.9022,-1543.84,0,0
75081.2,59.6078,-1537.41,0,0
75341.525,60.3103,-1531.51,0,0
75601.85,60.7031,-1525.77,0,0
75862.175,60.9773,-1519.87,0,0
76122.5,61.4486,-1514.06,0,0
76382.825,61.9839,-1508.62,0,0
76643.15,62.0238,-1503.19,0,0
76903.475,61.8627,-1497.19,0,0
77163.8,62.8264,-1490.81,0,0
77424.125,64.0049,-1485.6,0,0
77684.45,64.9194,-1480.88,0,0
77944.775,65.3769,-1476.59,0,0
78205.1,65.2564,-1472.18,0,0
78465.425,65.0214,-1467.7,0,0
78725.75,64.4025,-1463.23,0,0
78986.075,63.5968,-1458.44,0,0
79246.4,62.6397,-1453.33,0,0
79506.725,62.0242,-1447.96,0,0
79767.05,61.3821,-1442.48,0,0
80027.375,60.984,-1437.09,0,0
80287.7,60.7107,-1431.57,0,0
80548.025,60.47,-1426.16,0,0
80808.35,60.3902,-1420.76,0,0
81068.675,60.3548,-1415.62,0,0
81329.0,60.2908,-1410.56,0,0
81589.325,60.106,-1405.58,0,0
81849.65,59.8774,-1400.61,0,0
82109.975,59.6282,-1395.64,0,0
82370.3,59.3392,-1390.58,0,0
82630.625,59.1044,-1385.52,0,0
82890.95,58.8798,-1380.57,0,0
83151.275,58.658,-1375.63,0,0
83411.6,58.2801,-1370.6,0,0
83671.925,58.0561,-1365.66,0,0
83932.25,57.8449,-1360.69,0,0
84192.575,57.6538,-1355.71,0,0
84452.9,57.4868,-1350.87,0,0
84713.225,57.2177,-1345.95,0,0
84973.55,57.1485,-1341.05,0,0
85233.875,56.9472,-1336.28,0,0
85494.2,56.9015,-1331.48,0,0
85754.525,56.6495,-1326.76,0,0
86014.85,56.388,-1321.89,0,0
86275.175,56.3423,-1317.14,0,0
86535.5,56.2645,-1312.44,0,0
86795.825,56.113,-1307.89,0,0
87056.15,55.9091,-1303.25,0,0
87316.475,55.7225,-1298.65,0,0
87576.8,55.4707,-1294.24,0,0
87837.125,55.1891,-1289.68,0,0
88097.45,54.7756,-1285.25,0,0
88357.775,54.0732,-1280.4,0,0
88618.1,53.7837,-1275.42,0,0
88878.425,53.7126,-1270.65,0,0
89138.75,53.4678,-1265.9,0,0
89399.075,53.2216,-1261.11,0,0
89659.4,53.2618,-1256.27,0,0
89919.725,53.3116,-1251.63,0,0
90180,53.3245,-1246.94,0,0
90440.4,53.1882,-1242.43,0,0
90700.7,53.1661,-1237.96,0,0
90961,53.1004,-1233.28,0,0
91221.3,53.0025,-1228.61,0,0
91481.7,53.0439,-1224,0,0
91742,53.2149,-1219.38,0,0
92002.3,53.4592,-1214.79,0,0
92262.6,53.8082,-1210.28,0,0
92523,54.0924,-1206.01,0,0
92783.3,54.4198,-1201.91,0,0
93043.6,54.7052,-1197.92,0,0
93303.9,54.739,-1193.96,0,0
93564.3,54.7302,-1190.03,0,0
93824.6,54.5389,-1186.07,0,0
94084.9,54.2567,-1182.12,0,0
94345.2,53.8272,-1178,0,0
94605.6,53.3791,-1173.69,0,0
94865.9,53.0186,-1169.23,0,0
95126.2,52.868,-1164.66,0,0
95386.5,52.7559,-1160.23,0,0
95646.9,52.7407,-1155.7,0,0
95907.2,52.7664,-1151.19,0,0
96167.5,52.9586,-1146.75,0,0
96427.8,53.169,-1142.41,0,0
96688.2,53.3549,-1138.1,0,0
96948.5,53.4576,-1133.85,0,0
97208.8,53.5984,-1129.54,0,0
97469.1,53.81,-1125.27,0,0
97729.5,53.9511,-1120.98,0,0
97989.8,54.1615,-1116.59,0,0
98250.1,54.5439,-1112.25,0,0
98510.4,54.9083,-1108.06,0,0
98770.8,55.2444,-1103.75,0,0
99031.1,55.7669,-1099.44,0,0
99291.4,56.3956,-1095.28,0,0
99551.7,57.023,-1091.26,0,0
99812.1,57.4758,-1087.28,0,0
100072,57.9776,-1083.09,0,0
100333,58.9217,-1078.95,0,0
100593,60.1565,-1075.2,0,0
100853,61.1678,-1072.01,0,0
101114,61.7128,-1068.83,0,0
101374,62.4051,-1065.58,0,0
101634,63.0293,-1062.89,0,0
101895,62.902,-1060.5,0,0
102155,62.1083,-1057.74,0,0
102415,60.9514,-1054.37,0,0
102676,59.931,-1050.36,0,0
102936,59.0619,-1046.11,0,0
103196,58.4576,-1041.51,0,0
103457,58.0245,-1036.7,0,0
103717,58.1129,-1031.66,0,0
103977,58.4944,-1026.78,0,0
104238,59.0526,-1022.07,0,0
104498,59.7302,-1017.29,0,0
104758,60.7224,-1012.66,0,0
105019,61.8007,-1008.13,0,0
105279,63.0504,-1003.84,0,0
105539,64.235,-999.63,0,0
105800,65.597,-995.546,0,0
106060,66.9741,-991.539,0,0
106320.175,68.3743,-987.632,0,0
106580.5,69.8208,-983.911,0,0
106840.825,71.2789,-980.355,0,0
107101.15,72.6231,-976.893,0,0
107361.475,73.9149,-973.4,0,0
107621.8,75.1702,-969.765,0,0
107882.125,76.6576,-966.214,0,0
108142.45,78.2376,-962.71,0,0
108402.775,79.9556,-959.354,0,0
108663.1,81.7406,-956.195,0,0
108923.425,83.52,-953.147,0,0
109183.75,85.3818,-950.323,0,0
109444.075,87.2243,-947.724,0,0
109704.4,88.8516,-945.319,0,0
109964.725,90.2827,-942.945,0,0
110225.05,91.7669,-940.536,0,0
110485.375,93.2082,-938.31,0,0
110745.7,94.4999,-936.169,0,0
111006.025,95.7058,-934.029,0,0
111266.35,96.8128,-932.042,0,0
111526.675,97.9245,-929.8,0,0
111787.0,99.0141,-927.717,0,0
112047.325,100.039,-925.723,0,0
112307.65,101.017,-923.711,0,0
112567.975,102.045,-921.903,0,0
112828.3,102.884,-920.06,0,0
113088.625,103.789,-918.255,0,0
113348.95,104.556,-916.541,0,0
113609.275,105.175,-914.817,0,0
113869.6,105.764,-913.101,0,0
114129.925,106.22,-911.423,0,0
114390.25,106.761,-909.653,0,0
114650.575,107.217,-907.959,0,0
114910.9,107.615,-906.285,0,0
115171.225,107.991,-904.731,0,0
115431.55,108.148,-903.204,0,0
115691.875,108.196,-901.61,0,0
115952.2,108.159,-899.973,0,0
116212.525,108.124,-898.248,0,0
116472.85,107.964,-896.55,0,0
116733.175,107.671,-894.86,0,0
116993.5,107.321,-892.96,0,0
117253.825,106.897,-890.991,0,0
117514.15,106.441,-888.886,0,0
117774.475,105.949,-886.623,0,0
118034.8,105.543,-884.109,0,0
118295.125,105.334,-881.489,0,0
118555.45,105.242,-878.903,0,0
118815.775,105.197,-876.139,0,0
119076.1,105.457,-873.161,0,0
119336.425,106.342,-870.091,0,0
119596.75,107.968,-867.608,0,0
119857.075,109.586,-866.067,0,0
120117.4,110.981,-865.198,0,0
120377.725,111.672,-864.933,0,0
120638.05,111.771,-864.937,0,0
120898.375,110.819,-864.892,0,0
121158.7,109.188,-864.128,0,0
121419.025,107.529,-862.69,0,0
121679.35,106.067,-860.823,0,0
121939.675,104.638,-858.747,0,0
122200.0,103.358,-856.408,0,0
122460,102.251,-853.941,0,0
122721,101.315,-851.302,0,0
122981,100.606,-848.797,0,0
123241,99.8728,-846.333,0,0
123502,99.1666,-843.835,0,0
123762,98.4872,-841.323,0,0
124022,97.8482,-838.746,0,0
124283,97.3229,-836.2,0,0
124543,96.7616,-833.639,0,0
124803,96.2897,-831.046,0,0
125064,95.9374,-828.46,0,0
125324,95.6342,-826.068,0,0
125584,95.2506,-823.695,0,0
125845,94.9366,-821.397,0,0
126105,94.5578,-819.269,0,0
126365,93.9995,-817.226,0,0
126626,93.2293,-815.127,0,0
126886,92.3668,-812.836,0,0
127146,91.5027,-810.432,0,0
127406,90.8258,-808.143,0,0
127667,90.0176,-805.708,0,0
127927,89.1867,-803.526,0,0
128187,88.0087,-801.326,0,0
128448,86.7789,-798.856,0,0
128708,85.4825,-796.257,0,0
128968,84.1465,-793.546,0,0
129229,82.6938,-790.642,0,0
129489,81.3159,-787.542,0,0
129749,80.0309,-784.27,0,0
130010,78.8117,-780.814,0,0
130270,77.7901,-777.186,0,0
130530,76.8998,-773.666,0,0
130791,76.0383,-770.113,0,0
131051,75.2341,-766.416,0,0
131311,74.5465,-762.702,0,0
131572,74.0172,-758.929,0,0
131832,73.5384,-755.226,0,0
132092,73.0939,-751.515,0,0
132353,72.6598,-747.734,0,0
132613,72.4162,-743.929,0,0
132873,72.2498,-740.117,0,0
133134,72.1454,-736.344,0,0
133394,72.0379,-732.611,0,0
133654,71.9275,-728.881,0,0
133915,71.9365,-725.052,0,0
134175,72.0572,-721.276,0,0
134435,72.1776,-717.523,0,0
134696,72.3619,-713.804,0,0
134956,72.5717,-710.039,0,0
135216,72.8528,-706.297,0,0
135477,73.1993,-702.539,0,0
135737,73.6493,-698.835,0,0
135997,74.1353,-695.221,0,0
136258,74.6009,-691.639,0,0
136518,75.1057,-688.04,0,0
136778,75.6986,-684.466,0,0
137039,76.3053,-681.076,0,0
137299,76.8035,-677.735,0,0
137559,77.2094,-674.385,0,0
137819,77.5658,-670.917,0,0
138080,77.8568,-667.41,0,0
138340.125,78.2181,-663.744,0,0
138600.45,78.6973,-660.091,0,0
138860.775,79.148,-656.432,0,0
139121.1,79.5996,-652.647,0,0
139381.425,80.2535,-648.775,0,0
139641.75,80.9808,-645.033,0,0
139902.075,81.7191,-641.285,0,0
140162.4,82.4561,-637.515,0,0
140422.725,83.2922,-633.674,0,0
140683.05,84.2305,-629.832,0,0
140943.375,85.2568,-626.038,0,0
141203.7,86.3362,-622.262,0,0
141464.025,87.4451,-618.582,0,0
141724.35,88.568,-614.889,0,0
141984.675,89.7409,-611.204,0,0
142245.0,90.9547,-607.561,0,0
142505.325,92.1649,-603.91,0,0
142765.65,93.354,-600.267,0,0
143025.975,94.6531,-596.561,0,0
143286.3,95.9623,-592.91,0,0
143546.625,97.3306,-589.277,0,0
143806.95,98.6762,-585.63,0,0
144067.275,100.064,-581.957,0,0
144327.6,101.485,-578.307,0,0
144587.925,102.96,-574.629,0,0
144848.25,104.44,-570.913,0,0
145108.575,106.006,-567.154,0,0
145368.9,107.678,-563.378,0,0
145629.225,109.418,-559.616,0,0
145889.55,111.25,-555.875,0,0
146149.875,113.152,-552.146,0,0
146410.2,115.141,-548.419,0,0
146670.525,117.22,-544.759,0,0
146930.85,119.296,-541.164,0,0
147191.175,121.408,-537.571,0,0
147451.5,123.554,-533.99,0,0
147711.825,125.759,-530.395,0,0
147972.15,127.976,-526.817,0,0
148232.475,130.295,-523.19,0,0
148492.8,132.715,-519.583,0,0
148753.125,135.208,-515.989,0,0
149013.45,137.788,-512.456,0,0
149273.775,140.378,-508.94,0,0
149534.1,142.951,-505.373,0,0
149794.425,145.685,-501.654,0,0
150054.75,148.637,-497.967,0,0
150315.075,151.757,-494.334,0,0
150575.4,155.01,-490.771,0,0
150835.725,158.406,-487.228,0,0
151096.05,162.049,-483.736,0,0
151356.375,165.905,-480.458,0,0
151616.7,169.841,-477.381,0,0
151877.025,173.76,-474.448,0,0
152137.35,177.795,-471.419,0,0
152397.675,182.256,-468.54,0,0
152658.0,186.979,-466.174,0,0
152918.325,191.5,-464.212,0,0
153178.65,195.969,-462.32,0,0
153438.975,200.569,-460.698,0,0
153699.3,205.116,-459.457,0,0
153959.625,209.445,-458.511,0,0
154219.95,213.601,-457.731,0,0
154480,217.579,-457.247,0,0
154741,221.048,-456.836,0,0
155001,224.118,-456.153,0,0
155261,227.403,-455.11,0,0
155522,230.95,-454.074,0,0
155782,234.656,-453.312,0,0
156042,238.261,-453.061,0,0
156303,241.345,-452.765,0,0
156563,244.322,-452.437,0,0
156823,246.897,-451.981,0,0
157084,249.644,-451.178,0,0
157344,252.392,-450.229,0,0
157604,255.249,-449.259,0,0
157864,258.066,-448.214,0,0
158125,261.238,-446.841,0,0
158385,264.866,-445.585,0,0
158645,268.358,-444.651,0,0
158906,272.321,-443.544,0,0
159166,276.738,-442.7,0,0
159426,281.415,-442.805,0,0
159687,285.626,-443.437,0,0
159947,289.79,-444.223,0,0
160207,293.584,-445.437,0,0
160468,297.138,-446.896,0,0
160728,300.398,-448.809,0,0
160988,302.808,-450.909,0,0
161249,304.519,-452.754,0,0
161509,305.798,-453.981,0,0
161769,307.259,-454.878,0,0
162030,308.699,-455.748,0,0
162290,309.88,-456.381,0,0
162550,311.035,-456.851,0,0
162811,312.085,-457.283,0,0
163071,312.888,-457.289,0,0
163331,313.805,-456.966,0,0
163592,314.774,-456.461,0,0
163852,315.873,-455.62,0,0
164112,317.196,-454.585,0,0
164373,318.666,-453.18,0,0
164633,320.648,-451.542,0,0
164893,323.108,-450.25,0,0
165154,325.515,-448.962,0,0
165414,328.051,-447.551,0,0
165674,330.818,-445.767,0,0
165935,334.332,-444.001,0,0
166195,338.42,-442.417,0,0
166455,342.952,-441.201,0,0
166716,347.933,-440.253,0,0
166976,353.558,-439.879,0,0
167236,359.481,-440.423,0,0
167497,365.374,-441.594,0,0
167757,371.171,-443.626,0,0
168017,376.863,-446.154,0,0
168277,382.078,-449.502,0,0
168538,387.049,-453.186,0,0
168798,391.734,-457.12,0,0
169058,396.466,-461.641,0,0
169319,400.811,-467.192,0,0
169579,404.047,-473.158,0,0
169839,406.961,-478.989,0,0
170100,409.83,-485.514,0,0
170360.075,411.836,-493.025,0,0
170620.4,412.506,-501.084,0,0
170880.725,411.762,-509.195,0,0
171141.05,409.576,-516.826,0,0
171401.375,406.554,-523.553,0,0
171661.7,403.265,-529.775,0,0
171922.025,399.278,-535.983,0,0
172182.35,394.16,-541.55,0,0
172442.675,388.463,-546.151,0,0
172703.0,382.39,-549.976,0,0
172963.325,375.948,-552.975,0,0
173223.65,369.26,-554.998,0,0
173483.975,362.52,-556.259,0,0
173744.3,355.701,-556.523,0,0
174004.625,349.284,-555.94,0,0
174264.95,343.093,-554.826,0,0
174525.275,337.142,-553.075,0,0
174785.6,331.681,-550.776,0,0
175045.925,326.491,-548.287,0,0
175306.25,321.265,-545.257,0,0
175566.575,316.454,-541.519,0,0
175826.9,312.293,-537.296,0,0
176087.225,308.706,-532.872,0,0
176347.55,305.577,-528.209,0,0
176607.875,303.029,-523.419,0,0
176868.2,300.934,-518.632,0,0
177128.525,299.293,-513.863,0,0
177388.85,297.981,-509.133,0,0
177649.175,297.036,-504.461,0,0
177909.5,296.495,-499.942,0,0
178169.825,296.109,-495.671,0,0
178430.15,295.775,-491.496,0,0
178690.475,295.542,-487.293,0,0
178950.8,295.54,-483.026,0,0
179211.125,295.777,-478.782,0,0
179471.45,296.3,-474.654,0,0
179731.775,297.035,-470.71,0,0
179992.1,297.878,-467.026,0,0
180252.425,298.708,-463.465,0,0
180512.75,299.524,-460.053,0,0
180773.075,300.365,-456.671,0,0
181033.4,301.166,-453.352,0,0
181293.725,301.984,-450.069,0,0
181554.05,302.791,-446.838,0,0
181814.375,303.57,-443.616,0,0
182074.7,304.277,-440.379,0,0
182335.025,304.927,-437.11,0,0
182595.35,305.486,-433.717,0,0
182855.675,306.065,-430.199,0,0
183116.0,306.646,-426.541,0,0
183376.325,307.271,-422.688,0,0
183636.65,307.992,-418.69,0,0
183896.975,308.828,-414.529,0,0
184157.3,309.792,-410.221,0,0
184417.625,310.924,-405.812,0,0
184677.95,312.22,-401.28,0,0
184938.275,313.658,-396.663,0,0
185198.6,315.263,-391.904,0,0
185458.925,317.125,-387.103,0,0
185719.25,319.176,-382.293,0,0
185979.575,321.336,-377.452,0,0
186239.9,323.603,-372.501,0,0
186500,326.111,-367.477,0,0
186761,328.801,-362.362,0,0
187021,331.61,-357.166,0,0
187281,334.644,-351.99,0,0
187542,337.924,-346.617,0,0
187802,341.491,-341.195,0,0
188062,345.279,-335.708,0,0
188322,349.419,-330.243,0,0
188583,353.742,-324.727,0,0
188843,358.431,-319.19,0,0
189103,363.418,-313.68,0,0
189364,368.659,-308.124,0,0
189624,374.242,-302.59,0,0
189884,380.239,-297.074,0,0
190145,386.574,-291.673,0,0
190405,393.321,-286.338,0,0
190665,400.359,-281.283,0,0
190926,407.801,-276.315,0,0
191186,415.484,-271.422,0,0
191446,423.6,-266.776,0,0
191707,432.082,-262.28,0,0
191967,440.963,-258.066,0,0
192227,450.259,-254.17,0,0
192488,459.76,-250.581,0,0
192748,469.615,-247.347,0,0
193008,479.642,-244.452,0,0
193269,489.981,-241.96,0,0
193529,500.537,-239.841,0,0
193789,511.217,-238.047,0,0
194050,522.174,-236.542,0,0
194310,533.376,-235.533,0,0
194570,544.566,-234.894,0,0
194831,555.897,-234.588,0,0
195091,567.296,-234.581,0,0
195351,578.884,-234.804,0,0
195612,590.639,-235.286,0,0
195872,602.671,-236.039,0,0
196132,615.036,-237.124,0,0
196393,627.731,-238.638,0,0
196653,640.694,-240.575,0,0
196913,654.014,-242.918,0,0
197174,667.741,-245.931,0,0
197434,681.79,-249.683,0,0
197694,696.089,-254.213,0,0
197955,710.485,-259.558,0,0
198215,725.002,-265.691,0,0
198475,739.656,-272.623,0,0
198735,754.457,-280.495,0,0
198996,769.388,-289.433,0,0
199256,784.205,-299.754,0,0
199516,798.652,-311.412,0,0
199777,812.367,-324.337,0,0
200037,825.228,-338.245,0,0
200297,837.274,-353.172,0,0
200558,848.464,-369.054,0,0
200818,858.401,-385.704,0,0
201078,867.099,-403.013,0,0
201339,874.685,-420.765,0,0
201599,880.989,-438.895,0,0
201859,885.814,-457.208,0,0
202120,889.305,-475.24,0,0
202380.025,892.175,-492.905,0,0
202640.35,893.681,-510.529,0,0
202900.675,894.233,-527.419,0,0
203161.0,894.637,-543.679,0,0
203421.325,895.027,-560.08,0,0
203681.65,894.749,-577.117,0,0
203941.975,893.094,-594.398,0,0
204202.3,890.125,-611.169,0,0
204462.625,886.16,-627.098,0,0
204722.95,881.832,-642.09,0,0
204983.275,877.414,-656.881,0,0
205243.6,872.348,-671.415,0,0
205503.925,866.633,-685.287,0,0
205764.25,860.679,-698.472,0,0
206024.575,854.756,-711.188,0,0
206284.9,848.655,-723.75,0,0
206545.225,842.479,-736.115,0,0
206805.55,836.236,-748.805,0,0
207065.875,829.449,-761.775,0,0
207326.2,821.71,-775.014,0,0
207586.525,812.504,-787.964,0,0
207846.85,802.129,-800.128,0,0
208107.175,790.939,-811.151,0,0
208367.5,779.283,-821.009,0,0
208627.825,767.463,-829.94,0,0
208888.15,755.182,-837.994,0,0
209148.475,742.693,-844.853,0,0
209408.8,730.373,-850.517,0,0
209669.125,718.454,-855.232,0,0
209929.45,706.747,-859.422,0,0
210189.775,695.358,-862.884,0,0
210450.1,684.318,-865.855,0,0
210710.425,673.445,-868.165,0,0
210970.75,662.768,-869.827,0,0
211231.075,652.674,-870.869,0,0
211491.4,643.071,-871.497,0,0
211751.725,633.884,-871.642,0,0
212012.05,625.196,-871.554,0,0
212272.375,617.037,-871.126,0,0
212532.7,609.501,-870.617,0,0
212793.025,602.341,-870.206,0,0
213053.35,595.145,-869.618,0,0
213313.675,588.173,-868.734,0,0
213574.0,581.71,-867.417,0,0
213834.325,575.736,-865.907,0,0
214094.65,570.507,-864.028,0,0
214354.975,566.208,-862.3,0,0
214615.3,562.648,-861.151,0,0
214875.625,559.529,-860.566,0,0
215135.95,556.596,-860.569,0,0
215396.275,553.634,-861.155,0,0
215656.6,550.443,-862.338,0,0
215916.925,547.075,-863.881,0,0
216177.25,543.146,-865.502,0,0
216437.575,538.892,-867.173,0,0
216697.9,534.194,-868.493,0,0
216958.225,529.581,-869.462,0,0
217218.55,525.129,-870.238,0,0
217478.875,520.899,-871.088,0,0
217739.2,516.594,-872.041,0,0
217999.525,512.252,-872.818,0,0
218259.85,508.017,-873.655,0,0
218520,503.753,-874.509,0,0
218780,499.58,-875.204,0,0
219041,495.576,-876.001,0,0
219301,491.598,-876.994,0,0
219561,487.502,-878.182,0,0
219822,483.233,-879.273,0,0
220082,478.73,-880.451,0,0
220342,474.154,-881.551,0,0
220603,469.411,-882.552,0,0
220863,464.486,-883.271,0,0
221123,459.625,-883.748,0,0
221384,454.904,-884.136,0,0
221644,450.265,-884.608,0,0
221904,445.525,-884.909,0,0
222165,440.873,-885.079,0,0
222425,436.112,-885.249,0,0
222685,431.604,-885.246,0,0
222946,427.176,-885.149,0,0
223206,422.767,-885.31,0,0
223466,418.38,-885.247,0,0
223727,413.96,-885.217,0,0
223987,409.743,-885.238,0,0
224247,405.546,-885.469,0,0
224508,401.252,-885.686,0,0
224768,396.813,-886.128,0,0
225028,392.051,-886.533,0,0
225289,387.207,-886.828,0,0
225549,382.125,-887.096,0,0
225809,376.874,-887.255,0,0
226070,371.396,-887.066,0,0
226330,365.914,-886.708,0,0
226590,360.319,-886.12,0,0
226851,354.774,-885.439,0,0
227111,349.174,-884.363,0,0
227371,343.523,-883.235,0,0
227632,337.866,-881.814,0,0
227892,332.131,-880.296,0,0
228152,326.412,-878.4,0,0
228413,320.787,-876.022,0,0
228673,315.292,-873.528,0,0
228933,309.998,-870.684,0,0
229193,304.987,-867.562,0,0
229454,300.215,-864.382,0,0
229714,295.684,-860.979,0,0
229974,291.535,-857.699,0,0
230235,287.362,-854.152,0,0
230495,283.526,-850.757,0,0
230755,279.832,-847.139,0,0
231016,276.342,-843.656,0,0
231276,273.054,-840.054,0,0
231536,269.864,-836.536,0,0
231797,266.82,-832.945,0,0
232057,263.949,-829.372,0,0
232317,261.262,-825.84,0,0
232578,258.701,-822.279,0,0
232838,256.243,-818.734,0,0
233098,254.033,-815.24,0,0
233359,251.87,-811.859,0,0
233619,249.795,-808.496,0,0
233879,247.837,-805.116,0,0
234140,245.993,-801.748,0,0
234400,244.274,-798.444,0,0
234660.3,242.692,-795.216,0,0
234920.625,241.257,-792.056,0,0
235180.95,239.88,-789.037,0,0
235441.275,238.555,-786.024,0,0
235701.6,237.201,-783.191,0,0
235961.925,235.824,-780.376,0,0
236222.25,234.441,-777.515,0,0
236482.575,233.043,-774.542,0,0
236742.9,231.84,-771.623,0,0
237003.225,230.678,-768.72,0,0
237263.55,229.638,-765.713,0,0
237523.875,228.714,-762.665,0,0
237784.2,227.991,-759.642,0,0
238044.525,227.463,-756.772,0,0
238304.85,227.125,-754.009,0,0
238565.175,226.781,-751.486,0,0
238825.5,226.559,-749.074,0,0
239085.825,226.311,-746.736,0,0
239346.15,226.108,-744.58,0,0
239606.475,225.871,-742.568,0,0
239866.8,225.691,-740.493,0,0
240127.125,225.394,-738.625,0,0
240387.45,225.139,-736.901,0,0
240647.775,224.914,-735.222,0,0
240908.1,224.63,-733.622,0,0
241168.425,224.314,-732.084,0,0
241428.75,223.926,-730.66,0,0
241689.075,223.524,-729.279,0,0
241949.4,223.029,-727.952,0,0
242209.725,222.515,-726.662,0,0
242470.05,221.917,-725.436,0,0
242730.375,221.199,-724.215,0,0
242990.7,220.459,-723.074,0,0
243251.025,219.639,-721.828,0,0
243511.35,218.799,-720.678,0,0
243771.675,217.859,-719.527,0,0
244032.0,216.802,-718.4,0,0
244292.325,215.609,-717.141,0,0
244552.65,214.368,-715.838,0,0
244812.975,213.004,-714.383,0,0
245073.3,211.684,-712.888,0,0
245333.625,210.334,-711.078,0,0
245593.95,209.126,-709.346,0,0
245854.275,207.961,-707.485,0,0
246114.6,206.829,-705.578,0,0
246374.925,205.778,-703.611,0,0
246635.25,204.709,-701.571,0,0
246895.575,203.712,-699.497,0,0
247155.9,202.892,-697.35,0,0
247416.225,202.284,-695.189,0,0
247676.55,201.774,-693.167,0,0
247936.875,201.307,-691.24,0,0
248197.2,200.763,-689.364,0,0
248457.525,200.229,-687.599,0,0
248717.85,199.663,-685.733,0,0
248978.175,199.171,-683.869,0,0
249238.5,198.682,-682.049,0,0
249498.825,198.311,-680.207,0,0
249759.15,197.893,-678.496,0,0
250019.475,197.493,-676.807,0,0
250279.8,197.138,-675.114,0,0
250540,196.821,-673.547,0,0
250800,196.448,-672.094,0,0
251061,195.87,-670.727,0,0
251321,195.277,-669.396,0,0
251581,194.484,-668.08,0,0
251842,193.543,-666.674,0,0
252102,192.452,-665.155,0,0
252362,191.244,-663.483,0,0
252623,190.014,-661.648,0,0
252883,188.747,-659.538,0,0
253143,187.555,-657.247,0,0
253404,186.485,-654.745,0,0
253664,185.551,-652.203,0,0
253924,184.769,-649.608,0,0
254185,184.045,-646.996,0,0
254445,183.257,-644.343,0,0
254705,182.544,-641.576,0,0
254966,181.793,-638.622,0,0
255226,181.246,-635.53,0,0
255486,180.752,-632.256,0,0
255747,180.447,-628.756,0,0
256007,180.438,-625.139,0,0
256267,180.661,-621.496,0,0
256528,181.149,-617.88,0,0
256788,181.788,-614.261,0,0
257048,182.607,-610.597,0,0
257309,183.655,-606.894,0,0
257569,184.993,-603.224,0,0
257829,186.533,-599.601,0,0
258090,188.313,-596.08,0,0
258350,190.262,-592.588,0,0
258610,192.452,-589.095,0,0
258871,194.984,-585.65,0,0
259131,197.914,-582.419,0,0
259391,201.107,-579.581,0,0
259651,204.408,-577.065,0,0
259912,207.649,-574.787,0,0
260172,210.943,-572.634,0,0
260432,214.32,-570.479,0,0
260693,217.946,-568.51,0,0
260953,221.845,-566.782,0,0
261213,225.941,-565.368,0,0
261474,230.055,-564.337,0,0
261734,234.126,-563.657,0,0
261994,238.112,-563.221,0,0
262255,242.072,-562.832,0,0
262515,246.14,-562.552,0,0
262775,250.411,-562.5,0,0
263036,254.861,-562.888,0,0
263296,259.312,-563.699,0,0
263556,263.647,-564.961,0,0
263817,267.825,-566.605,0,0
264077,271.799,-568.551,0,0
264337,275.555,-570.716,0,0
264598,279.153,-573.197,0,0
264858,282.338,-576.165,0,0
265118,285.177,-578.996,0,0
265379,287.94,-581.786,0,0
265639,290.658,-584.725,0,0
265899,293.332,-587.912,0,0
266160,295.83,-591.447,0,0
266420,297.973,-595.131,0,0
266680.25,299.825,-599.057,0,0
266940.575,301.386,-603.015,0,0
267200.9,302.8,-607.061,0,0
267461.225,304.024,-611.396,0,0
267721.55,304.872,-615.979,0,0
267981.875,305.292,-620.663,0,0
268242.2,305.317,-625.458,0,0
268502.525,304.807,-630.508,0,0
268762.85,303.619,-635.486,0,0
269023.175,301.818,-640.301,0,0
269283.5,299.245,-644.759,0,0
269543.825,296.105,-648.529,0,0
269804.15,292.842,-651.43,0,0
270064.475,289.709,-653.668,0,0
270324.8,286.898,-655.482,0,0
270585.125,284.373,-657.049,0,0
270845.45,282.132,-658.556,0,0
271105.775,280.022,-660.014,0,0
271366.1,278.099,-661.455,0,0
271626.425,276.237,-663.042,0,0
271886.75,274.338,-664.648,0,0
272147.075,272.419,-666.225,0,0
272407.4,270.519,-667.879,0,0
272667.725,268.52,-669.62,0,0
272928.05,266.389,-671.326,0,0
273188.375,264.239,-673.021,0,0
273448.7,261.978,-674.744,0,0
273709.025,259.606,-676.555,0,0
273969.35,257.001,-678.437,0,0
274229.675,254.151,-680.206,0,0
274490.0,251.104,-681.887,0,0
274750.325,247.749,-683.619,0,0
275010.65,244.036,-684.981,0,0
275270.975,240.089,-686.063,0,0
275531.3,235.997,-686.784,0,0
275791.625,231.966,-687.086,0,0
276051.95,227.876,-687.18,0,0
276312.275,223.827,-687.042,0,0
276572.6,219.667,-686.703,0,0
276832.925,215.432,-686.038,0,0
277093.25,211.147,-684.9,0,0
277353.575,206.963,-683.335,0,0
277613.9,203.009,-681.316,0,0
277874.225,199.272,-678.979,0,0
278134.55,195.868,-676.259,0,0
278394.875,192.833,-673.238,0,0
278655.2,190.292,-669.984,0,0
278915.525,188.25,-666.612,0,0
279175.85,186.734,-663.31,0,0
279436.175,185.675,-660.111,0,0
279696.5,185.022,-657.084,0,0
279956.825,184.812,-654.495,0,0
280217.15,184.659,-652.193,0,0
280477.475,184.584,-650.398,0,0
280737.8,184.422,-648.801,0,0
280998.125,184.128,-647.342,0,0
281258.45,183.742,-645.982,0,0
281518.775,183.204,-644.657,0,0
281779.1,182.616,-643.294,0,0
282039.425,181.965,-641.74,0,0
282299.75,181.49,-640.044,0,0
282560,181.307,-638.276,0,0
282820,181.425,-636.675,0,0
283081,181.746,-635.34,0,0
283341,182.133,-634.367,0,0
283601,182.461,-633.724,0,0
283862,182.531,-633.321,0,0
284122,182.388,-633.009,0,0
284382,182.05,-632.698,0,0
284643,181.581,-632.33,0,0
284903,181.099,-631.957,0,0
285163,180.499,-631.738,0,0
285424,179.677,-631.462,0,0
285684,178.687,-631.163,0,0
285944,177.518,-630.762,0,0
286205,176.105,-630.17,0,0
286465,174.653,-629.287,0,0
286725,173.27,-628.118,0,0
286986,172.002,-626.829,0,0
287246,170.789,-625.466,0,0
287506,169.551,-623.988,0,0
287767,168.332,-622.318,0,0
288027,167.162,-620.413,0,0
288287,166.132,-618.251,0,0
288548,165.306,-615.816,0,0
288808,164.775,-613.174,0,0
289068,164.665,-610.375,0,0
289329,164.985,-607.533,0,0
289589,165.752,-604.764,0,0
289849,166.908,-602.2,0,0
290109,168.401,-599.859,0,0
290370,170.147,-597.82,0,0
290630,172.114,-596.087,0,0
290890,174.248,-594.632,0,0
291151,176.509,-593.529,0,0
291411,178.875,-592.733,0,0
291671,181.313,-592.3,0,0
291932,183.758,-592.237,0,0
292192,186.153,-592.502,0,0
292452,188.508,-593.096,0,0
292713,190.794,-594.098,0,0
292973,192.893,-595.498,0,0
293233,194.698,-597.218,0,0
293494,196.18,-599.195,0,0
293754,197.334,-601.336,0,0
294014,198.205,-603.657,0,0
294275,198.778,-606.06,0,0
294535,199.025,-608.621,0,0
294795,198.869,-611.251,0,0
295056,198.323,-613.888,0,0
295316,197.398,-616.453,0,0
295576,196.065,-618.839,0,0
295837,194.445,-621.059,0,0
296097,192.533,-623.01,0,0
296357,190.409,-624.685,0,0
296618,188.113,-626.015,0,0
296878,185.742,-627.036,0,0
297138,183.399,-627.77,0,0
297399,181.104,-628.24,0,0
297659,178.897,-628.533,0,0
297919,176.74,-628.656,0,0
298180,174.664,-628.647,0,0
298440,172.718,-628.498,0,0
298700.2,170.864,-628.312,0,0
298960.525,169.122,-628.104,0,0
299220.85,167.408,-627.878,0,0
299481.175,165.714,-627.639,0,0
299741.5,164.022,-627.39,0,0
300001.825,162.344,-627.118,0,0
300262.15,160.624,-626.787,0,0
300522.475,158.907,-626.396,0,0
300782.8,157.188,-625.944,0,0
301043.125,155.476,-625.394,0,0
301303.45,153.767,-624.784,0,0
301563.775,152.095,-624.068,0,0
301824.1,150.534,-623.305,0,0
302084.425,149.019,-622.502,0,0
302344.75,147.551,-621.696,0,0
302605.075,146.113,-620.875,0,0
302865.4,144.686,-620.033,0,0
303125.725,143.246,-619.165,0,0
303386.05,141.804,-618.237,0,0
303646.375,140.403,-617.225,0,0
303906.7,139.071,-616.151,0,0
304167.025,137.789,-615.012,0,0
304427.35,136.583,-613.886,0,0
304687.675,135.427,-612.711,0,0
304948.0,134.357,-611.493,0,0
305208.325,133.341,-610.295,0,0
305468.65,132.396,-609.076,0,0
305728.975,131.509,-607.885,0,0
305989.3,130.637,-606.678,0,0
306249.625,129.825,-605.47,0,0
306509.95,129.061,-604.216,0,0
306770.275,128.409,-602.98,0,0
307030.6,127.83,-601.76,0,0
307290.925,127.346,-600.608,0,0
307551.25,126.888,-599.536,0,0
307811.575,126.467,-598.488,0,0
308071.9,126.078,-597.529,0,0
308332.225,125.703,-596.575,0,0
308592.55,125.363,-595.724,0,0
308852.875,125.021,-594.931,0,0
309113.2,124.651,-594.22,0,0
309373.525,124.257,-593.579,0,0
309633.85,123.772,-592.968,0,0
309894.175,123.23,-592.402,0,0
310154.5,122.618,-591.833,0,0
310414.825,121.961,-591.208,0,0
310675.15,121.222,-590.558,0,0
310935.475,120.477,-589.828,0,0
311195.8,119.752,-589.043,0,0
311456.125,119.018,-588.235,0,0
311716.45,118.341,-587.362,0,0
311976.775,117.676,-586.475,0,0
312237.1,117.054,-585.584,0,0
312497.425,116.459,-584.661,0,0
312757.75,115.879,-583.748,0,0
313018.075,115.323,-582.789,0,0
313278.4,114.829,-581.829,0,0
313538.725,114.398,-580.865,0,0
313799.05,114.001,-579.937,0,0
314059.375,113.638,-579.029,0,0
314319.7,113.33,-578.148,0,0
314580,113.007,-577.295,0,0
314840,112.764,-576.469,0,0
315101,112.456,-575.805,0,0
315361,112.234,-575.022,0,0
315621,111.965,-574.215,0,0
315882,111.693,-573.544,0,0
316142,111.436,-572.922,0,0
316402,111.171,-572.325,0,0
316663,110.977,-571.718,0,0
316923,110.772,-571.164,0,0
317183,110.575,-570.663,0,0
317444,110.307,-570.198,0,0
317704,109.985,-569.771,0,0
317964,109.646,-569.325,0,0
318225,109.362,-569.015,0,0
318485,108.902,-568.57,0,0
318745,108.673,-568.317,0,0
319006,108.304,-567.964,0,0
319266,107.936,-567.776,0,0
319526,107.385,-567.604,0,0
319787,106.812,-567.4,0,0
320047,106.172,-567.267,0,0
320307,105.507,-567.178,0,0
320567,104.77,-567.078,0,0
320828,103.825,-566.946,0,0
321088,102.908,-566.856,0,0
321348,101.845,-566.577,0,0
321609,100.623,-566.322,0,0
321869,99.4534,-565.995,0,0
322129,98.0744,-565.639,0,0
322390,96.6703,-565.081,0,0
322650,95.2152,-564.439,0,0
322910,93.6802,-563.511,0,0
323171,92.3497,-562.547,0,0
323431,91.0068,-561.344,0,0
323691,89.6834,-560.037,0,0
323952,88.5946,-558.648,0,0
324212,87.538,-557.235,0,0
324472,86.7298,-555.815,0,0
324733,85.827,-554.389,0,0
324993,85.1387,-553.042,0,0
325253,84.5212,-551.693,0,0
325514,83.8632,-550.363,0,0
325774,83.3045,-549.032,0,0
326034,82.6969,-547.747,0,0
326295,82.1201,-546.46,0,0
326555,81.4476,-545.176,0,0
326815,80.92,-543.913,0,0
327076,80.4579,-542.491,0,0
327336,79.966,-541.175,0,0
327596,79.4831,-539.783,0,0
327857,79.0055,-538.475,0,0
328117,78.6208,-537.056,0,0
328377,78.2871,-535.623,0,0
328638,77.9937,-534.178,0,0
328898,77.6537,-532.723,0,0
329158,77.5599,-531.29,0,0
329419,77.3929,-529.751,0,0
329679,77.3648,-528.36,0,0
329939,77.3628,-526.952,0,0
330200,77.4561,-525.505,0,0
330460,77.5837,-524.203,0,0
330720.15,77.8059,-522.979,0,0
330980.475,78.0823,-521.732,0,0
331240.8,78.347,-520.713,0,0
331501.125,78.6788,-519.64,0,0
331761.45,78.9946,-518.637,0,0
332021.775,79.3562,-517.726,0,0
332282.1,79.5402,-516.967,0,0
332542.425,79.8811,-516.223,0,0
332802.75,80.0717,-515.513,0,0
333063.075,80.3308,-514.947,0,0
333323.4,80.4768,-514.436,0,0
333583.725,80.4992,-513.895,0,0
333844.05,80.3719,-513.464,0,0
334104.375,80.2792,-512.911,0,0
334364.7,80.1182,-512.357,0,0
334625.025,79.9159,-511.738,0,0
334885.35,79.6104,-511.195,0,0
335145.675,79.3435,-510.6,0,0
335406.0,78.9333,-509.889,0,0
335666.325,78.5185,-509.212,0,0
335926.65,78.0831,-508.461,0,0
336186.975,77.6635,-507.684,0,0
336447.3,77.2575,-506.725,0,0
336707.625,76.8127,-505.754,0,0
336967.95,76.4422,-504.677,0,0
337228.275,76.0709,-503.557,0,0
337488.6,75.7832,-502.444,0,0
337748.925,75.5801,-501.258,0,0
338009.25,75.3703,-500.106,0,0
338269.575,75.2425,-498.891,0,0
338529.9,75.1295,-497.722,0,0
338790.225,75.05,-496.474,0,0
339050.55,75.0108,-495.212,0,0
339310.875,74.9015,-493.979,0,0
339571.2,75.0268,-492.67,0,0
339831.525,75.1859,-491.361,0,0
340091.85,75.3416,-490.099,0,0
340352.175,75.644,-488.716,0,0
340612.5,76.0295,-487.487,0,0
340872.825,76.3961,-486.184,0,0
341133.15,76.923,-484.93,0,0
341393.475,77.5361,-483.777,0,0
341653.8,78.2415,-482.619,0,0
341914.125,78.9508,-481.522,0,0
342174.45,79.8149,-480.567,0,0
342434.775,80.7317,-479.77,0,0
342695.1,81.6604,-478.986,0,0
342955.425,82.6073,-478.435,0,0
343215.75,83.4741,-477.977,0,0
343476.075,84.3775,-477.605,0,0
343736.4,85.1696,-477.341,0,0
343996.725,85.9382,-477.191,0,0
344257.05,86.6563,-477.077,0,0
344517.375,87.2564,-477.045,0,0
344777.7,87.8327,-477.096,0,0
345038.025,88.2539,-477.181,0,0
345298.35,88.6026,-477.275,0,0
345558.675,88.9316,-477.348,0,0
345819.0,89.1272,-477.494,0,0
346079.325,89.3783,-477.58,0,0
346339.65,89.3877,-477.68,0,0
346599.975,89.4066,-477.803,0,0
346860,89.3154,-477.903,0,0
347121,89.1851,-477.974,0,0
347381,89.0174,-478.038,0,0
347641,88.811,-477.999,0,0
347902,88.5356,-477.998,0,0
348162,88.2326,-477.897,0,0
348422,87.9204,-477.801,0,0
348683,87.5419,-477.64,0,0
348943,87.1048,-477.406,0,0
349203,86.7084,-477.178,0,0
349464,86.2933,-476.833,0,0
349724,85.9056,-476.511,0,0
349984,85.4575,-476.138,0,0
350245,85.0634,-475.702,0,0
350505,84.7244,-475.272,0,0
350765,84.267,-474.897,0,0
351025,83.8274,-474.332,0,0
351286,83.4312,-473.832,0,0
351546,83.0291,-473.252,0,0
351806,82.628,-472.619,0,0
352067,82.2546,-471.933,0,0
352327,81.8933,-471.245,0,0
352587,81.5597,-470.513,0,0
352848,81.3221,-469.691,0,0
353108,81.116,-468.869,0,0
353368,80.9603,-468.103,0,0
353629,80.9182,-467.311,0,0
353889,80.8874,-466.551,0,0
354149,81.0045,-465.816,0,0
354410,81.0395,-465.21,0,0
354670,81.0427,-464.62,0,0
354930,81.0805,-464.076,0,0
355191,80.9968,-463.523,0,0
355451,81.065,-462.95,0,0
355711,81.028,-462.357,0,0
355972,81.0452,-461.883,0,0
356232,80.9931,-461.417,0,0
356492,80.9906,-460.994,0,0
356753,80.9433,-460.428,0,0
357013,80.8047,-460.056,0,0
357273,80.6944,-459.618,0,0
357534,80.5289,-459.163,0,0
357794,80.3301,-458.675,0,0
358054,80.1505,-458.187,0,0
358315,79.8705,-457.695,0,0
358575,79.5503,-457.076,0,0
358835,79.3586,-456.465,0,0
359096,79.1552,-455.863,0,0
359356,78.8769,-455.145,0,0
359616,78.7252,-454.431,0,0
359877,78.4905,-453.719,0,0
360137,78.2812,-452.967,0,0
360397,78.1524,-452.173,0,0
360658,77.981,-451.441,0,0
360918,77.9351,-450.588,0,0
361178,77.8619,-449.706,0,0
361438,77.8384,-448.808,0,0
361699,77.9382,-448.014,0,0
361959,78.0231,-447.122,0,0
362219,78.1093,-446.342,0,0
362480,78.3398,-445.609,0,0
362740.1,78.513,-444.894,0,0
363000.425,78.6838,-444.203,0,0
363260.75,78.9065,-443.585,0,0
363521.075,79.0139,-443.002,0,0
363781.4,79.1222,-442.438,0,0
364041.725,79.1584,-441.845,0,0
364302.05,79.2227,-441.297,0,0
364562.375,79.2441,-440.716,0,0
364822.7,79.2254,-440.042,0,0
365083.025,79.1892,-439.373,0,0
365343.35,79.1777,-438.65,0,0
365603.675,79.1205,-437.873,0,0
365864.0,79.1104,-436.984,0,0
366124.325,79.1683,-436.174,0,0
366384.65,79.2433,-435.252,0,0
366644.975,79.4218,-434.27,0,0
366905.3,79.6492,-433.337,0,0
367165.625,79.9353,-432.403,0,0
367425.95,80.2707,-431.464,0,0
367686.275,80.6991,-430.551,0,0
367946.6,81.0524,-429.638,0,0
368206.925,81.5642,-428.745,0,0
368467.25,82.1218,-427.833,0,0
368727.575,82.6994,-426.963,0,0
368987.9,83.3525,-426.122,0,0
369248.225,84.0646,-425.326,0,0
369508.55,84.8182,-424.575,0,0
369768.875,85.6217,-423.859,0,0
370029.2,86.4466,-423.19,0,0
370289.525,87.3291,-422.55,0,0
370549.85,88.2976,-421.963,0,0
370810.175,89.3182,-421.484,0,0
371070.5,90.4186,-421.099,0,0
371330.825,91.5927,-420.749,0,0
371591.15,92.7097,-420.629,0,0
371851.475,93.8705,-420.621,0,0
372111.8,94.9629,-420.72,0,0
372372.125,95.9903,-420.913,0,0
372632.45,96.9933,-421.295,0,0
372892.775,97.9605,-421.708,0,0
373153.1,98.8042,-422.252,0,0
373413.425,99.5693,-422.876,0,0
373673.75,100.193,-423.59,0,0
373934.075,100.711,-424.372,0,0
374194.4,101.01,-425.164,0,0
374454.725,101.16,-425.96,0,0
374715.05,101.195,-426.641,0,0
374975.375,101.104,-427.282,0,0
375235.7,100.912,-427.826,0,0
375496.025,100.763,-428.255,0,0
375756.35,100.548,-428.599,0,0
376016.675,100.326,-428.82,0,0
376277.0,100.188,-429.134,0,0
376537.325,99.9807,-429.409,0,0
376797.65,99.8143,-429.658,0,0
377057.975,99.6274,-429.868,0,0
377318.3,99.4134,-430.055,0,0
377578.625,99.1922,-430.211,0,0
377838.95,98.9761,-430.339,0,0
378099.275,98.7588,-430.491,0,0
378359.6,98.5121,-430.696,0,0
378619.925,98.3176,-430.821,0,0
378880,98.073,-430.912,0,0
379141,97.8058,-431.008,0,0
379401,97.5075,-431.119,0,0
379661,97.2393,-431.194,0,0
379922,96.93,-431.281,0,0
380182,96.5862,-431.272,0,0
380442,96.2551,-431.292,0,0
380703,95.879,-431.265,0,0
380963,95.4877,-431.237,0,0
381223,95.151,-431.007,0,0
381483,94.8621,-430.788,0,0
381744,94.64,-430.437,0,0
382004,94.5937,-430.181,0,0
382264,94.6726,-429.937,0,0
382525,94.8426,-429.808,0,0
382785,95.0484,-429.862,0,0
383045,95.2334,-430.092,0,0
383306,95.3837,-430.4,0,0
383566,95.4687,-430.841,0,0
383826,95.3905,-431.483,0,0
384087,95.0914,-432.144,0,0
384347,94.6723,-432.724,0,0
384607,94.1127,-433.272,0,0
384868,93.425,-433.809,0,0
385128,92.6121,-434.286,0,0
385388,91.7075,-434.645,0,0
385649,90.7145,-434.998,0,0
385909,89.675,-435.194,0,0
386169,88.5013,-435.242,0,0
386430,87.3119,-435.168,0,0
386690,86.1981,-434.966,0,0
386950,85.0094,-434.646,0,0
387211,83.857,-434.152,0,0
387471,82.7689,-433.491,0,0
387731,81.8069,-432.81,0,0
387992,80.9486,-431.978,0,0
388252,80.1599,-431.088,0,0
388512,79.5009,-430.153,0,0
388773,78.9614,-429.213,0,0
389033,78.5699,-428.22,0,0
389293,78.3101,-427.27,0,0
389554,78.1714,-426.362,0,0
389814,78.1585,-425.514,0,0
390074,78.2516,-424.802,0,0
390335,78.4092,-424.223,0,0
390595,78.6007,-423.777,0,0
390855,78.7188,-423.448,0,0
391116,78.8868,-423.276,0,0
391376,79.0102,-423.212,0,0
391636,79.0447,-423.273,0,0
391896,78.8894,-423.422,0,0
392157,78.6299,-423.684,0,0
392417,78.1848,-423.884,0,0
392677,77.6206,-424.056,0,0
392938,76.8853,-424.12,0,0
393198,76.0469,-424.156,0,0
393458,75.2008,-423.996,0,0
393719,74.3206,-423.828,0,0
393979,73.4041,-423.515,0,0
394239,72.4779,-423.128,0,0
394500,71.5692,-422.625,0,0
394760.05,70.6924,-422.068,0,0
395020.375,69.7781,-421.463,0,0
395280.7,68.9807,-420.712,0,0
395541.025,68.197,-419.966,0,0
395801.35,67.5033,-419.14,0,0
396061.675,66.8115,-418.315,0,0
396322.0,66.2288,-417.44,0,0
396582.325,65.6234,-416.565,0,0
396842.65,65.1399,-415.707,0,0
397102.975,64.6358,-414.817,0,0
397363.3,64.1039,-413.998,0,0
397623.625,63.6452,-413.072,0,0
397883.95,63.1683,-412.203,0,0
398144.275,62.7066,-411.286,0,0
398404.6,62.2957,-410.335,0,0
398664.925,61.917,-409.384,0,0
398925.25,61.5506,-408.411,0,0
399185.575,61.2529,-407.419,0,0
399445.9,60.9537,-406.418,0,0
399706.225,60.67,-405.432,0,0
399966.55,60.4518,-404.39,0,0
400006.6,60.4132,-404.266,0,0