File: Accelerated corrosion test data/2025-10-14_06-00-04/sample_8.csv
Frequency (Hz),Impedance (ohms),Phase (Radians),Temperature (C),Humidity (%)
10000.0,312.941,-10958.3,0,0
10260.325,304.217,-10682.8,0,0
10520.65,297.185,-10422.1,0,0
10780.975,289.768,-10174.3,0,0
11041.3,283.389,-9937,0,0
11301.625,276.67,-9711.73,0,0
11561.95,270.587,-9494.97,0,0
11822.275,265.354,-9287.91,0,0
12082.6,263.029,-9088.84,0,0
12342.925,259.956,-8902.43,0,0
12603.25,254.387,-8721.53,0,0
12863.575,251.108,-8550.9,0,0
13123.9,242.764,-8386.28,0,0
13384.225,236.886,-8224.34,0,0
13644.55,233.817,-8070.38,0,0
13904.875,226.148,-7920.93,0,0
14165.2,221.824,-7776.88,0,0
14425.525,217.532,-7637.2,0,0
14685.8,212.681,-7504.13,0,0
14946.175,209.159,-7373.74,0,0
15206.5,206.249,-7248.46,0,0
15466.825,202.307,-7128.22,0,0
15727.15,199.003,-7011.39,0,0
15987.5,195.933,-6898.49,0,0
16247.8,192.748,-6789.21,0,0
16508.125,189.463,-6682.89,0,0
16768.45,186.619,-6579.96,0,0
17028.775,183.53,-6480.23,0,0
17289.1,180.889,-6383.11,0,0
17549.425,178.257,-6288.68,0,0
17809.75,176.822,-6196.82,0,0
18070.075,173.297,-6109.82,0,0
18330.4,170.947,-6022.31,0,0
18590.725,169.233,-5936.83,0,0
18851.05,169.941,-5853.98,0,0
19111.375,168.349,-5775.17,0,0
19371.7,171.366,-5698.85,0,0
19632.025,167.529,-5625.83,0,0
19892.35,163.923,-5556.24,0,0
20152.675,161.138,-5482.93,0,0
20413.0,161.029,-5413.64,0,0
20673.3,160.668,-5347.16,0,0
20933.65,158.073,-5284.08,0,0
21193.975,154.171,-5220.18,0,0
21454.3,151.965,-5156.24,0,0
21714.625,150.315,-5093.74,0,0
21974.9,149.712,-5034.42,0,0
22235.275,149.833,-4976.03,0,0
22495.6,148.203,-4919.32,0,0
22755.925,147.046,-4866.31,0,0
23016.25,144.395,-4811.61,0,0
23276.6,140.289,-4758.99,0,0
23536.9,139.062,-4706.74,0,0
23797.225,136.418,-4655.22,0,0
24057.55,134.338,-4603.97,0,0
24317.875,133.063,-4554.81,0,0
24578.2,130.63,-4506.38,0,0
24838.525,129.509,-4458.79,0,0
25098.85,128.338,-4412.55,0,0
25359.175,126.813,-4366.72,0,0
25619.5,126.088,-4322.47,0,0
25879.8,124.781,-4278.18,0,0
26140.1,123.626,-4236.41,0,0
26400.5,122.447,-4194.49,0,0
26660.8,121.326,-4152.94,0,0
26921.1,121.021,-4111.59,0,0
27181.4,120.905,-4072.78,0,0
27441.8,119.853,-4033.84,0,0
27702.1,119.147,-3996.73,0,0
27962.4,116.831,-3959.26,0,0
28222.7,117.601,-3921.65,0,0
28483.1,116.327,-3886.64,0,0
28743.4,116.464,-3850.74,0,0
29003.7,114.974,-3816.82,0,0
29264,115.287,-3782.56,0,0
29524.4,113.935,-3749.4,0,0
29784.7,113.798,-3716.5,0,0
30045,113.343,-3684.74,0,0
30305.3,112.556,-3653.96,0,0
30565.7,110.933,-3622.72,0,0
30826,109.71,-3592.15,0,0
31086.3,108.591,-3561.91,0,0
31346.6,107.96,-3531.58,0,0
31607,107.269,-3502.05,0,0
31867.3,106.656,-3472.83,0,0
32127.6,105.745,-3444.43,0,0
32387.9,105.184,-3415.94,0,0
32648.3,104.987,-3388.34,0,0
32908.6,105.605,-3360.75,0,0
33168.9,105.02,-3333.77,0,0
33429.2,105.285,-3307.7,0,0
33689.6,105.788,-3281.91,0,0
33949.9,105.817,-3256.87,0,0
34210.2,105.78,-3231.92,0,0
34470.5,105.726,-3207.29,0,0
34730.9,106.177,-3183.26,0,0
34991.2,106.961,-3159.32,0,0
35251.5,107.673,-3136.41,0,0
35511.8,108.226,-3114.26,0,0
35772.2,108.571,-3092.76,0,0
36032.5,108.919,-3071.82,0,0
36292.8,108.898,-3051.51,0,0
36553.1,108.453,-3031.04,0,0
36813.5,107.67,-3011,0,0
37073.8,107.343,-2991.11,0,0
37334.1,106.234,-2971.98,0,0
37594.4,104.417,-2953.11,0,0
37854.8,102.461,-2934.1,0,0
38115.1,100.73,-2914.66,0,0
38375.4,99.0167,-2894.95,0,0
38635.7,96.727,-2875.93,0,0
38896.1,94.6395,-2856.53,0,0
39156.4,92.9816,-2837.21,0,0
39416.7,91.5933,-2817.62,0,0
39677,90.2751,-2798.82,0,0
39937.4,88.479,-2779.65,0,0
40197.7,88.0207,-2760.39,0,0
40458,87.7927,-2741.71,0,0
40718.3,87.5455,-2724.05,0,0
40978.7,86.517,-2706.61,0,0
41239,85.8501,-2689.24,0,0
41499.3,85.2443,-2672.03,0,0
41759.6,84.6785,-2654.83,0,0
42020,83.8595,-2638.28,0,0
42280.275,83.035,-2621.25,0,0
42540.6,82.6074,-2604.49,0,0
42800.925,82.4606,-2588.03,0,0
43061.25,82.6,-2571.82,0,0
43321.575,82.6092,-2556.22,0,0
43581.9,82.7239,-2541.39,0,0
43842.225,81.8712,-2526.9,0,0
44102.55,80.7849,-2511.79,0,0
44362.875,79.9849,-2496.84,0,0
44623.2,79.1709,-2481.82,0,0
44883.525,78.569,-2467.02,0,0
45143.85,77.8754,-2452.34,0,0
45404.175,77.2846,-2437.91,0,0
45664.5,76.8823,-2423.45,0,0
45924.825,76.2168,-2409.55,0,0
46185.15,75.5417,-2395.41,0,0
46445.475,75.1522,-2381.4,0,0
46705.8,74.7261,-2367.55,0,0
46966.125,74.2812,-2354.06,0,0
47226.45,73.8317,-2340.4,0,0
47486.775,73.4441,-2327.25,0,0
47747.1,73.2522,-2314.03,0,0
48007.425,72.9074,-2301.22,0,0
48267.75,72.4551,-2288.39,0,0
48528.075,72.2603,-2275.73,0,0
48788.4,71.4477,-2263.23,0,0
49048.725,71.2282,-2250.91,0,0
49309.05,70.6553,-2238.59,0,0
49569.375,70.2312,-2226.12,0,0
49829.7,69.8473,-2214,0,0
50090.025,69.5193,-2201.83,0,0
50350.35,69.368,-2189.92,0,0
50610.675,68.9055,-2178.22,0,0
50871.0,68.5418,-2166.39,0,0
51131.325,68.497,-2154.76,0,0
51391.65,68.3029,-2143.27,0,0
51651.975,68.1709,-2131.88,0,0
51912.3,68.087,-2120.87,0,0
52172.625,67.9028,-2109.75,0,0
52432.95,67.7027,-2098.81,0,0
52693.275,67.6169,-2087.91,0,0
52953.6,67.6533,-2077.32,0,0
53213.925,67.6884,-2066.92,0,0
53474.25,67.8097,-2056.31,0,0
53734.575,67.9745,-2046.7,0,0
53994.9,67.4702,-2037.23,0,0
54255.225,66.7775,-2027.37,0,0
54515.55,66.0758,-2017.42,0,0
54775.875,65.6133,-2007.35,0,0
55036.2,65.0805,-1997.81,0,0
55296.525,64.3009,-1987.89,0,0
55556.85,63.6624,-1978,0,0
55817.175,63.0765,-1968.13,0,0
56077.5,62.5924,-1958.33,0,0
56337.825,62.0474,-1948.54,0,0
56598.15,61.7334,-1938.82,0,0
56858.475,61.4696,-1929.23,0,0
57118.8,61.2616,-1919.71,0,0
57379.125,61.1102,-1910.35,0,0
57639.45,60.8732,-1900.96,0,0
57899.775,60.5798,-1891.83,0,0
58160.1,60.4761,-1882.67,0,0
58420.4,60.438,-1873.56,0,0
58680.7,60.286,-1864.63,0,0
58941.1,60.3206,-1855.86,0,0
59201.4,60.0788,-1847.41,0,0
59461.7,59.8864,-1838.79,0,0
59722,59.5724,-1830.27,0,0
59982.4,59.3357,-1821.76,0,0
60242.7,58.9197,-1813.23,0,0
60503,58.6333,-1804.65,0,0
60763.3,58.4983,-1796.2,0,0
61023.7,58.4591,-1787.8,0,0
61284,58.3216,-1779.48,0,0
61544.3,58.3954,-1771.21,0,0
61804.6,58.3766,-1763.32,0,0
62065,58.0797,-1755.32,0,0
62325.3,57.938,-1747.27,0,0
62585.6,57.8558,-1739.2,0,0
62845.9,57.9031,-1731.19,0,0
63106.3,58.0395,-1723.39,0,0
63366.6,58.2647,-1715.63,0,0
63626.9,58.4304,-1708.21,0,0
63887.2,58.5123,-1700.64,0,0
64147.6,58.7008,-1693.19,0,0
64407.9,58.986,-1686.01,0,0
64668.2,59.0982,-1679.15,0,0
64928.5,58.9449,-1672.16,0,0
65188.9,58.7622,-1665.21,0,0
65449.2,58.5966,-1658.53,0,0
65709.5,58.2402,-1651.35,0,0
65969.8,58.2296,-1644.48,0,0
66230.2,58.0002,-1637.78,0,0
66490.5,57.2962,-1631.17,0,0
66750.8,56.784,-1624.14,0,0
67011.1,56.3347,-1617.1,0,0
67271.5,56.1206,-1610.05,0,0
67531.8,55.9624,-1603.09,0,0
67792.1,55.8395,-1596.28,0,0
68052.4,55.5897,-1589.57,0,0
68312.8,55.5558,-1582.86,0,0
68573.1,55.2917,-1576.1,0,0
68833.4,54.9738,-1569.43,0,0
69093.7,54.94,-1562.6,0,0
69354.1,54.8199,-1556.12,0,0
69614.4,54.8619,-1549.38,0,0
69874.7,54.8827,-1542.91,0,0
70135,54.968,-1536.58,0,0
70395.4,54.9122,-1530.27,0,0
70655.7,54.8958,-1524.1,0,0
70916,54.8151,-1517.73,0,0
71176.3,54.9436,-1511.44,0,0
71436.7,54.92,-1505.26,0,0
71697,55.1088,-1499.18,0,0
71957.3,55.1247,-1493.33,0,0
72217.6,55.1965,-1487.47,0,0
72478,55.0767,-1481.65,0,0
72738.3,54.9974,-1475.98,0,0
72998.6,54.7481,-1470.14,0,0
73258.9,54.4859,-1464.3,0,0
73519.3,54.4833,-1458.34,0,0
73779.6,54.4263,-1452.64,0,0
74039.9,54.2185,-1446.93,0,0
74300.225,54.1384,-1441.34,0,0
74560.55,53.821,-1435.75,0,0
74820.875,53.622,-1429.95,0,0
75081.2,53.4783,-1424.24,0,0
75341.525,53.4174,-1418.54,0,0
75601.85,53.3728,-1412.89,0,0
75862.175,53.3109,-1407.39,0,0
76122.5,53.2418,-1401.77,0,0
76382.825,53.2121,-1396.23,0,0
76643.15,53.2072,-1390.85,0,0
76903.475,53.2061,-1385.55,0,0
77163.8,53.1404,-1380.2,0,0
77424.125,52.9827,-1374.91,0,0
77684.45,52.8988,-1369.52,0,0
77944.775,52.789,-1364.3,0,0
78205.1,52.6783,-1358.99,0,0
78465.425,52.571,-1353.82,0,0
78725.75,52.3285,-1348.52,0,0
78986.075,52.2348,-1343.23,0,0
79246.4,52.1599,-1338.03,0,0
79506.725,51.9295,-1332.78,0,0
79767.05,51.9212,-1327.55,0,0
80027.375,51.8889,-1322.32,0,0
80287.7,51.7971,-1317.21,0,0
80548.025,51.7814,-1311.99,0,0
80808.35,51.7658,-1306.87,0,0
81068.675,51.78,-1301.66,0,0
81329.0,51.7872,-1296.53,0,0
81589.325,51.8224,-1291.4,0,0
81849.65,51.9536,-1286.32,0,0
82109.975,52.1605,-1281.23,0,0
82370.3,52.3328,-1276.33,0,0
82630.625,52.4967,-1271.41,0,0
82890.95,52.7057,-1266.5,0,0
83151.275,52.9666,-1261.73,0,0
83411.6,53.0851,-1256.86,0,0
83671.925,53.316,-1251.95,0,0
83932.25,53.668,-1247.22,0,0
84192.575,53.9572,-1242.64,0,0
84452.9,54.2226,-1237.94,0,0
84713.225,54.7021,-1233.4,0,0
84973.55,55.1136,-1229.09,0,0
85233.875,55.2225,-1225.1,0,0
85494.2,55.0329,-1220.91,0,0
85754.525,54.7236,-1216.49,0,0
86014.85,54.601,-1211.96,0,0
86275.175,54.4165,-1207.37,0,0
86535.5,54.28,-1202.71,0,0
86795.825,54.3628,-1197.94,0,0
87056.15,54.5828,-1193.28,0,0
87316.475,54.8482,-1188.94,0,0
87576.8,54.9205,-1184.45,0,0
87837.125,55.0071,-1179.96,0,0
88097.45,55.0905,-1175.47,0,0
88357.775,55.3133,-1171.02,0,0
88618.1,55.4176,-1166.56,0,0
88878.425,55.6564,-1162.14,0,0
89138.75,55.7555,-1157.66,0,0
89399.075,55.8804,-1153.18,0,0
89659.4,56.207,-1148.55,0,0
89919.725,56.481,-1144.09,0,0
90180,56.9038,-1139.61,0,0
90440.4,57.307,-1135.14,0,0
90700.7,57.6767,-1130.62,0,0
90961,58.2569,-1126.08,0,0
91221.3,59.0581,-1121.56,0,0
91481.7,60.0334,-1117.27,0,0
91742,60.9963,-1113.28,0,0
92002.3,61.9215,-1109.43,0,0
92262.6,62.7079,-1105.62,0,0
92523,63.5358,-1101.9,0,0
92783.3,64.2244,-1098.27,0,0
93043.6,65.0965,-1094.63,0,0
93303.9,65.8379,-1091.52,0,0
93564.3,66.2363,-1088.44,0,0
93824.6,66.173,-1085.41,0,0
94084.9,65.7683,-1081.81,0,0
94345.2,65.7767,-1077.95,0,0
94605.6,65.7047,-1073.94,0,0
94865.9,66.1182,-1069.81,0,0
95126.2,66.285,-1066.09,0,0
95386.5,66.5914,-1061.95,0,0
95646.9,67.0986,-1058.07,0,0
95907.2,67.4622,-1054.07,0,0
96167.5,68.1097,-1050.19,0,0
96427.8,68.6193,-1046.23,0,0
96688.2,69.4966,-1042.24,0,0
96948.5,70.3375,-1038.56,0,0
97208.8,71.1463,-1034.85,0,0
97469.1,72.0908,-1031.24,0,0
97729.5,73.0226,-1027.66,0,0
97989.8,74.0446,-1024.21,0,0
98250.1,75.0508,-1020.85,0,0
98510.4,76.0822,-1017.5,0,0
98770.8,77.2773,-1014.27,0,0
99031.1,78.4808,-1011.37,0,0
99291.4,79.5423,-1008.61,0,0
99551.7,80.3372,-1005.95,0,0
99812.1,80.9924,-1003.15,0,0
100072,81.76,-1000.32,0,0
100333,82.627,-997.575,0,0
100593,83.3987,-994.982,0,0
100853,84.2108,-992.451,0,0
101114,84.8948,-990.098,0,0
101374,85.446,-987.749,0,0
101634,85.9755,-985.394,0,0
101895,86.4015,-983.197,0,0
102155,86.6322,-980.994,0,0
102415,86.8037,-978.762,0,0
102676,86.9307,-976.495,0,0
102936,86.9837,-974.301,0,0
103196,86.7807,-972.164,0,0
103457,86.391,-969.767,0,0
103717,85.9757,-967.159,0,0
103977,85.6464,-964.331,0,0
104238,85.6088,-961.533,0,0
104498,85.5595,-958.875,0,0
104758,85.4655,-956.298,0,0
105019,85.1737,-953.729,0,0
105279,84.8142,-950.895,0,0
105539,84.6203,-947.998,0,0
105800,84.4962,-945.076,0,0
106060,84.4283,-942.192,0,0
106320.175,84.3835,-939.266,0,0
106580.5,84.3826,-936.404,0,0
106840.825,84.4326,-933.515,0,0
107101.15,84.577,-930.722,0,0
107361.475,84.7295,-928.084,0,0
107621.8,84.7023,-925.496,0,0
107882.125,84.5308,-922.851,0,0
108142.45,84.3108,-920.058,0,0
108402.775,84.1951,-917.16,0,0
108663.1,84.1668,-914.221,0,0
108923.425,84.1741,-911.316,0,0
109183.75,84.2769,-908.355,0,0
109444.075,84.4839,-905.502,0,0
109704.4,84.6768,-902.654,0,0
109964.725,84.9375,-899.858,0,0
110225.05,85.3381,-897.203,0,0
110485.375,85.5381,-894.657,0,0
110745.7,85.7092,-892.193,0,0
111006.025,85.919,-889.634,0,0
111266.35,85.9058,-886.995,0,0
111526.675,86.0364,-884.42,0,0
111787.0,86.2974,-881.865,0,0
112047.325,86.406,-879.402,0,0
112307.65,86.5185,-876.987,0,0
112567.975,86.6182,-874.578,0,0
112828.3,86.6528,-872.141,0,0
113088.625,86.7241,-869.731,0,0
113348.95,86.7532,-867.335,0,0
113609.275,86.7777,-864.997,0,0
113869.6,86.7591,-862.746,0,0
114129.925,86.5702,-860.419,0,0
114390.25,86.437,-857.904,0,0
114650.575,86.2943,-855.44,0,0
114910.9,86.1886,-853.003,0,0
115171.225,86.1446,-850.602,0,0
115431.55,86.0368,-848.295,0,0
115691.875,85.833,-846.035,0,0
115952.2,85.4689,-843.666,0,0
116212.525,85.0836,-841.195,0,0
116472.85,84.7313,-838.686,0,0
116733.175,84.2939,-836.078,0,0
116993.5,83.9403,-833.284,0,0
117253.825,83.7952,-830.429,0,0
117514.15,83.809,-827.716,0,0
117774.475,83.8528,-825.144,0,0
118034.8,83.8088,-822.596,0,0
118295.125,83.7411,-820.128,0,0
118555.45,83.5768,-817.615,0,0
118815.775,83.4299,-815.061,0,0
119076.1,83.3535,-812.552,0,0
119336.425,83.2272,-810.132,0,0
119596.75,82.9463,-807.666,0,0
119857.075,82.6754,-805.133,0,0
120117.4,82.3529,-802.572,0,0
120377.725,82.0691,-799.917,0,0
120638.05,81.8151,-797.221,0,0
120898.375,81.607,-794.417,0,0
121158.7,81.5523,-791.73,0,0
121419.025,81.3947,-789.091,0,0
121679.35,81.1975,-786.402,0,0
121939.675,81.0218,-783.669,0,0
122200.0,80.928,-780.889,0,0
122460,80.9142,-778.18,0,0
122721,80.8639,-775.547,0,0
122981,80.7655,-772.908,0,0
123241,80.6265,-770.228,0,0
123502,80.5,-767.526,0,0
123762,80.3611,-764.818,0,0
124022,80.1989,-762.022,0,0
124283,80.1425,-759.16,0,0
124543,80.1494,-756.323,0,0
124803,80.1947,-753.494,0,0
125064,80.2739,-750.723,0,0
125324,80.3148,-748.009,0,0
125584,80.3547,-745.266,0,0
125845,80.3731,-742.502,0,0
126105,80.3649,-739.695,0,0
126365,80.4713,-736.819,0,0
126626,80.6505,-733.96,0,0
126886,80.9055,-731.227,0,0
127146,81.1979,-728.452,0,0
127406,81.377,-725.842,0,0
127667,81.4887,-723.072,0,0
127927,81.676,-720.329,0,0
128187,81.9395,-717.677,0,0
128448,82.1872,-715.034,0,0
128708,82.3978,-712.428,0,0
128968,82.5219,-709.762,0,0
129229,82.732,-707.025,0,0
129489,83.032,-704.354,0,0
129749,83.253,-701.802,0,0
130010,83.3885,-699.163,0,0
130270,83.5228,-696.416,0,0
130530,83.7262,-693.652,0,0
130791,84.0805,-690.89,0,0
131051,84.4216,-688.24,0,0
131311,84.7883,-685.624,0,0
131572,85.2058,-683.096,0,0
131832,85.4154,-680.653,0,0
132092,85.6041,-678.078,0,0
132353,85.84,-675.446,0,0
132613,86.0902,-672.863,0,0
132873,86.3011,-670.287,0,0
133134,86.5077,-667.74,0,0
133394,86.6393,-665.157,0,0
133654,86.7447,-662.497,0,0
133915,86.8882,-659.728,0,0
134175,87.1065,-656.929,0,0
134435,87.3759,-654.16,0,0
134696,87.6073,-651.413,0,0
134956,87.8949,-648.489,0,0
135216,88.4152,-645.575,0,0
135477,88.9551,-642.839,0,0
135737,89.5326,-640.105,0,0
135997,90.2903,-637.471,0,0
136258,90.9724,-635.166,0,0
136518,91.4341,-632.933,0,0
136778,91.8263,-630.796,0,0
137039,91.9034,-628.699,0,0
137299,91.7726,-626.409,0,0
137559,91.5934,-623.963,0,0
137819,91.3,-621.392,0,0
138080,90.9413,-618.619,0,0
138340.125,90.632,-615.529,0,0
138600.45,90.5458,-612.274,0,0
138860.775,90.6186,-609.009,0,0
139121.1,90.8564,-605.662,0,0
139381.425,91.2271,-602.495,0,0
139641.75,91.5507,-599.351,0,0
139902.075,91.9149,-596.067,0,0
140162.4,92.4673,-592.856,0,0
140422.725,92.9594,-589.749,0,0
140683.05,93.3449,-586.59,0,0
140943.375,93.8276,-583.276,0,0
141203.7,94.4824,-580.037,0,0
141464.025,95.119,-576.92,0,0
141724.35,95.5799,-573.795,0,0
141984.675,96.0406,-570.458,0,0
142245.0,96.5919,-567.049,0,0
142505.325,97.2849,-563.604,0,0
142765.65,98.0485,-560.179,0,0
143025.975,98.7877,-556.756,0,0
143286.3,99.5351,-553.18,0,0
143546.625,100.559,-549.579,0,0
143806.95,101.565,-546.118,0,0
144067.275,102.529,-542.585,0,0
144327.6,103.576,-538.972,0,0
144587.925,104.703,-535.257,0,0
144848.25,106.012,-531.516,0,0
145108.575,107.44,-527.8,0,0
145368.9,108.968,-524.067,0,0
145629.225,110.71,-520.315,0,0
145889.55,112.596,-516.756,0,0
146149.875,114.486,-513.323,0,0
146410.2,116.337,-509.911,0,0
146670.525,118.31,-506.431,0,0
146930.85,120.387,-503.062,0,0
147191.175,122.562,-499.808,0,0
147451.5,124.76,-496.74,0,0
147711.825,126.708,-493.89,0,0
147972.15,128.372,-490.79,0,0
148232.475,130.03,-487.327,0,0
148492.8,131.942,-483.584,0,0
148753.125,134.203,-479.663,0,0
149013.45,136.808,-475.788,0,0
149273.775,139.678,-471.922,0,0
149534.1,142.806,-468.204,0,0
149794.425,146.249,-464.615,0,0
150054.75,149.929,-461.078,0,0
150315.075,153.853,-457.846,0,0
150575.4,157.975,-454.686,0,0
150835.725,162.46,-451.683,0,0
151096.05,167.559,-449.012,0,0
151356.375,172.981,-447.249,0,0
151616.7,178.423,-446.501,0,0
151877.025,183.214,-446.256,0,0
152137.35,187.802,-446.5,0,0
152397.675,191.84,-447.497,0,0
152658.0,194.8,-448.546,0,0
152918.325,197.382,-448.754,0,0
153178.65,200.181,-449.329,0,0
153438.975,202.376,-450.127,0,0
153699.3,204.039,-450.707,0,0
153959.625,205.644,-450.946,0,0
154219.95,207.036,-451.299,0,0
154480,207.695,-451.359,0,0
154741,208.077,-450.351,0,0
155001,209.295,-448.4,0,0
155261,211.509,-446.549,0,0
155522,214.42,-445.159,0,0
155782,217.982,-444.428,0,0
156042,221.539,-444.679,0,0
156303,224.911,-446.646,0,0
156563,226.492,-449.447,0,0
156823,226.411,-451.987,0,0
157084,225.022,-453.444,0,0
157344,223.133,-453.436,0,0
157604,221.575,-452.155,0,0
157864,220.454,-450.181,0,0
158125,220.015,-447.596,0,0
158385,220.285,-444.62,0,0
158645,221.496,-441.483,0,0
158906,223.352,-438.847,0,0
159166,225.985,-436.544,0,0
159426,229.167,-435.339,0,0
159687,231.982,-435.228,0,0
159947,233.71,-435.878,0,0
160207,234.507,-436.555,0,0
160468,234.329,-436.94,0,0
160728,233.475,-436.425,0,0
160988,232.46,-434.695,0,0
161249,231.954,-432.065,0,0
161509,232.253,-428.867,0,0
161769,233.482,-425.723,0,0
162030,235.322,-422.72,0,0
162290,237.648,-419.93,0,0
162550,240.401,-417.714,0,0
162811,243.424,-415.954,0,0
163071,246.346,-414.859,0,0
163331,249.27,-414.127,0,0
163592,251.759,-414.022,0,0
163852,253.835,-413.814,0,0
164112,255.726,-413.785,0,0
164373,257.403,-413.44,0,0
164633,259.465,-413.212,0,0
164893,261.524,-413.617,0,0
165154,263.191,-414.16,0,0
165414,264.777,-415.224,0,0
165674,265.714,-416.887,0,0
165935,265.544,-418.719,0,0
166195,264.391,-419.96,0,0
166455,262.854,-420.64,0,0
166716,260.759,-420.789,0,0
166976,258.069,-420.029,0,0
167236,255.747,-417.931,0,0
167497,254.099,-415.343,0,0
167757,252.926,-412.644,0,0
168017,252.099,-409.824,0,0
168277,251.506,-407.088,0,0
168538,250.909,-404.397,0,0
168798,250.127,-401.523,0,0
169058,249.48,-398.102,0,0
169319,249.28,-394.312,0,0
169579,249.618,-390.639,0,0
169839,250.108,-387.07,0,0
170100,250.697,-383.815,0,0
170360.075,251.178,-380.36,0,0
170620.4,251.843,-376.772,0,0
170880.725,252.666,-373.563,0,0
171141.05,252.933,-370.315,0,0
171401.375,252.83,-366.371,0,0
171661.7,253.06,-361.389,0,0
171922.025,254.28,-355.927,0,0
172182.35,256.468,-350.791,0,0
172442.675,259.211,-346.031,0,0
172703.0,262.171,-341.856,0,0
172963.325,265.03,-337.912,0,0
173223.65,268.139,-333.956,0,0
173483.975,271.682,-330.415,0,0
173744.3,275.234,-327.575,0,0
174004.625,278.513,-325.194,0,0
174264.95,281.498,-323.234,0,0
174525.275,283.59,-321.716,0,0
174785.6,284.629,-319.708,0,0
175045.925,285.358,-316.78,0,0
175306.25,286.315,-313.336,0,0
175566.575,286.929,-309.321,0,0
175826.9,287.796,-304.15,0,0
176087.225,289.61,-298.272,0,0
176347.55,292.381,-292.367,0,0
176607.875,295.778,-286.586,0,0
176868.2,299.671,-281.136,0,0
177128.525,303.861,-276.233,0,0
177388.85,307.743,-271.4,0,0
177649.175,311.669,-266.168,0,0
177909.5,316.093,-260.466,0,0
178169.825,321.398,-254.768,0,0
178430.15,327.166,-249.607,0,0
178690.475,332.956,-244.728,0,0
178950.8,338.834,-239.644,0,0
179211.125,345.305,-234.502,0,0
179471.45,352.276,-229.648,0,0
179731.775,359.643,-224.828,0,0
179992.1,367.95,-220.281,0,0
180252.425,376.874,-216.492,0,0
180512.75,385.885,-213.605,0,0
180773.075,395.031,-211.049,0,0
181033.4,404.333,-209.175,0,0
181293.725,413.493,-208.06,0,0
181554.05,422.262,-207.038,0,0
181814.375,431.538,-206.195,0,0
182074.7,441.139,-206.29,0,0
182335.025,450.222,-207.458,0,0
182595.35,458.822,-209.063,0,0
182855.675,467.04,-210.915,0,0
183116.0,474.612,-213.127,0,0
183376.325,481.71,-215.747,0,0
183636.65,488.04,-218.364,0,0
183896.975,493.664,-220.808,0,0
184157.3,498.692,-222.587,0,0
184417.625,503.775,-223.73,0,0
184677.95,509.098,-224.594,0,0
184938.275,514.271,-225.134,0,0
185198.6,519.886,-225.096,0,0
185458.925,526.221,-225.103,0,0
185719.25,532.703,-225.598,0,0
185979.575,539.067,-226.04,0,0
186239.9,546.288,-226.195,0,0
186500,553.823,-227.427,0,0
186761,560.644,-229.254,0,0
187021,567.019,-230.622,0,0
187281,573.569,-231.805,0,0
187542,580.246,-232.875,0,0
187802,587.128,-233.845,0,0
188062,594.445,-234.857,0,0
188322,602.097,-235.806,0,0
188583,610.62,-237.445,0,0
188843,619.212,-240.073,0,0
189103,627.166,-243.671,0,0
189364,634.063,-247.426,0,0
189624,640.315,-250.797,0,0
189884,646.358,-253.633,0,0
190145,652.184,-255.879,0,0
190405,658.163,-257.338,0,0
190665,664.935,-257.809,0,0
190926,673.649,-257.798,0,0
191186,684.116,-259.095,0,0
191446,694.939,-262.297,0,0
191707,704.935,-266.961,0,0
191967,713.99,-272.191,0,0
192227,722.033,-277.181,0,0
192488,729.675,-281.734,0,0
192748,736.668,-285.292,0,0
193008,744.602,-286.672,0,0
193269,755.262,-287.679,0,0
193529,767.949,-289.882,0,0
193789,781.965,-293.606,0,0
194050,796.961,-299.288,0,0
194310,811.922,-306.594,0,0
194570,827.244,-315.708,0,0
194831,842.36,-326.923,0,0
195091,856.113,-339.683,0,0
195351,869.15,-352.89,0,0
195612,882.116,-367.041,0,0
195872,895.014,-382.67,0,0
196132,907.044,-400.342,0,0
196393,917.566,-419.404,0,0
196653,926.429,-439.592,0,0
196913,933.99,-460.637,0,0
197174,939.716,-482.803,0,0
197434,943.512,-505.67,0,0
197694,944.512,-528.832,0,0
197955,943.206,-551.153,0,0
198215,940.228,-572.046,0,0
198475,936.474,-591.646,0,0
198735,932.312,-610.347,0,0
198996,927.905,-628.397,0,0
199256,923.441,-646.395,0,0
199516,918.872,-665.112,0,0
199777,912.723,-684.884,0,0
200037,904.005,-704.648,0,0
200297,893.1,-723.178,0,0
200558,880.655,-739.515,0,0
200818,867.723,-754.041,0,0
201078,855.206,-766.738,0,0
201339,843.212,-778.893,0,0
201599,831.398,-791.003,0,0
201859,818.638,-803.715,0,0
202120,804.37,-816.156,0,0
202380.025,787.936,-827.435,0,0
202640.35,769.789,-836.181,0,0
202900.675,751.366,-841.665,0,0
203161.0,734.487,-844.302,0,0
203421.325,719.212,-845.648,0,0
203681.65,705.626,-846.31,0,0
203941.975,693.06,-846.722,0,0
204202.3,681.084,-847.225,0,0
204462.625,669.632,-847.224,0,0
204722.95,658.91,-847.122,0,0
204983.275,648.276,-847.118,0,0
205243.6,637.779,-847.026,0,0
205503.925,626.987,-846.701,0,0
205764.25,615.792,-845.631,0,0
206024.575,604.446,-843.305,0,0
206284.9,593.36,-839.11,0,0
206545.225,583.691,-833.49,0,0
206805.55,575.958,-826.81,0,0
207065.875,570.112,-820.062,0,0
207326.2,566.156,-813.854,0,0
207586.525,563.385,-808.382,0,0
207846.85,561.773,-803.784,0,0
208107.175,560.904,-800.505,0,0
208367.5,560.103,-798.571,0,0
208627.825,558.853,-797.639,0,0
208888.15,556.955,-796.944,0,0
209148.475,554.676,-796.282,0,0
209408.8,552.062,-795.455,0,0
209669.125,549.51,-794.112,0,0
209929.45,547.541,-792.453,0,0
210189.775,546.378,-790.94,0,0
210450.1,545.543,-790.071,0,0
210710.425,544.767,-789.559,0,0
210970.75,543.938,-789.327,0,0
211231.075,543.344,-789.246,0,0
211491.4,542.809,-789.377,0,0
211751.725,542.655,-789.754,0,0
212012.05,542.644,-790.64,0,0
212272.375,542.612,-792.15,0,0
212532.7,542.42,-794.083,0,0
212793.025,542.001,-796.438,0,0
213053.35,541.176,-799.09,0,0
213313.675,539.955,-801.832,0,0
213574.0,538.565,-804.622,0,0
213834.325,536.981,-807.631,0,0
214094.65,535.122,-810.697,0,0
214354.975,532.94,-813.743,0,0
214615.3,530.8,-816.801,0,0
214875.625,528.406,-820,0,0
215135.95,525.697,-823.309,0,0
215396.275,522.855,-826.707,0,0
215656.6,519.6,-830.06,0,0
215916.925,516.077,-833.391,0,0
216177.25,512.166,-836.68,0,0
216437.575,507.93,-839.725,0,0
216697.9,503.447,-842.486,0,0
216958.225,499.021,-844.889,0,0
217218.55,494.515,-847.309,0,0
217478.875,489.798,-849.603,0,0
217739.2,484.947,-851.584,0,0
217999.525,480.104,-853.509,0,0
218259.85,474.958,-855.189,0,0
218520,469.855,-856.63,0,0
218780,464.584,-857.773,0,0
219041,459.382,-858.655,0,0
219301,454.33,-859.366,0,0
219561,449.455,-859.889,0,0
219822,444.423,-860.416,0,0
220082,439.463,-860.978,0,0
220342,434.189,-861.095,0,0
220603,428.763,-861.018,0,0
220863,423.427,-860.644,0,0
221123,418.049,-859.763,0,0
221384,412.94,-858.466,0,0
221644,408.199,-856.701,0,0
221904,403.981,-854.75,0,0
222165,400.14,-852.7,0,0
222425,396.743,-850.777,0,0
222685,393.658,-849.092,0,0
222946,390.697,-847.335,0,0
223206,387.903,-845.614,0,0
223466,385.457,-843.818,0,0
223727,383.242,-842.221,0,0
223987,381.447,-840.698,0,0
224247,379.895,-839.443,0,0
224508,378.466,-838.605,0,0
224768,377.164,-837.912,0,0
225028,376.092,-837.547,0,0
225289,375.14,-837.866,0,0
225549,373.894,-838.509,0,0
225809,372.507,-839.571,0,0
226070,370.689,-840.96,0,0
226330,368.469,-842.466,0,0
226590,365.806,-843.955,0,0
226851,362.898,-845.496,0,0
227111,359.703,-846.892,0,0
227371,356.224,-848.275,0,0
227632,352.428,-849.466,0,0
227892,348.338,-850.407,0,0
228152,343.982,-850.791,0,0
228413,339.976,-850.964,0,0
228673,336.121,-850.996,0,0
228933,332.355,-851.05,0,0
229193,328.635,-851.097,0,0
229454,324.86,-851.231,0,0
229714,321.057,-851.379,0,0
229974,317.216,-851.596,0,0
230235,313.185,-851.878,0,0
230495,308.835,-852.124,0,0
230755,304.119,-852.121,0,0
231016,299.31,-851.721,0,0
231276,294.535,-851.096,0,0
231536,289.861,-850.222,0,0
231797,285.256,-849.233,0,0
232057,280.544,-848.116,0,0
232317,275.862,-846.797,0,0
232578,271.238,-845.351,0,0
232838,266.624,-843.714,0,0
233098,262.069,-841.952,0,0
233359,257.481,-840.114,0,0
233619,252.845,-838.027,0,0
233879,248.233,-835.707,0,0
234140,243.735,-833.135,0,0
234400,239.281,-830.361,0,0
234660.3,235.016,-827.384,0,0
234920.625,230.725,-823.992,0,0
235180.95,226.899,-820.412,0,0
235441.275,223.407,-816.687,0,0
235701.6,220.215,-812.898,0,0
235961.925,217.241,-809.144,0,0
236222.25,214.472,-805.376,0,0
236482.575,211.972,-801.528,0,0
236742.9,209.703,-797.798,0,0
237003.225,207.641,-794.113,0,0
237263.55,205.658,-790.509,0,0
237523.875,203.825,-786.92,0,0
237784.2,202.169,-783.313,0,0
238044.525,200.639,-779.723,0,0
238304.85,199.314,-776.177,0,0
238565.175,198.179,-772.615,0,0
238825.5,197.333,-769.078,0,0
239085.825,196.867,-765.742,0,0
239346.15,196.509,-762.721,0,0
239606.475,196.319,-759.876,0,0
239866.8,196.18,-757.402,0,0
240127.125,196.061,-755.403,0,0
240387.45,195.782,-753.478,0,0
240647.775,195.338,-751.687,0,0
240908.1,194.814,-750.172,0,0
241168.425,194.087,-748.759,0,0
241428.75,193.182,-747.42,0,0
241689.075,192.025,-746.031,0,0
241949.4,190.685,-744.634,0,0
242209.725,189.228,-743.141,0,0
242470.05,187.633,-741.452,0,0
242730.375,185.935,-739.592,0,0
242990.7,184.218,-737.451,0,0
243251.025,182.631,-735.16,0,0
243511.35,181.235,-732.803,0,0
243771.675,179.945,-730.326,0,0
244032.0,178.726,-727.826,0,0
244292.325,177.694,-725.219,0,0
244552.65,176.89,-722.637,0,0
244812.975,176.193,-720.309,0,0
245073.3,175.72,-718.044,0,0
245333.625,174.96,-715.979,0,0
245593.95,174.168,-713.768,0,0
245854.275,173.424,-711.552,0,0
246114.6,172.809,-709.296,0,0
246374.925,172.255,-707.02,0,0
246635.25,171.796,-704.801,0,0
246895.575,171.427,-702.741,0,0
247155.9,171.139,-700.803,0,0
247416.225,170.723,-699.124,0,0
247676.55,170.14,-697.283,0,0
247936.875,169.506,-695.45,0,0
248197.2,168.921,-693.557,0,0
248457.525,168.165,-691.69,0,0
248717.85,167.375,-689.696,0,0
248978.175,166.597,-687.528,0,0
249238.5,165.958,-685.314,0,0
249498.825,165.379,-682.989,0,0
249759.15,164.923,-680.6,0,0
250019.475,164.515,-678.175,0,0
250279.8,164.235,-675.681,0,0
250540,164.101,-673.185,0,0
250800,164.09,-670.618,0,0
251061,164.271,-668.032,0,0
251321,164.669,-665.487,0,0
251581,165.312,-663.037,0,0
251842,166.165,-660.803,0,0
252102,167.139,-658.772,0,0
252362,168.186,-657.001,0,0
252623,169.338,-655.414,0,0
252883,170.442,-654.192,0,0
253143,171.442,-653.286,0,0
253404,172.176,-652.547,0,0
253664,172.678,-651.96,0,0
253924,172.916,-651.39,0,0
254185,172.928,-650.728,0,0
254445,172.751,-649.939,0,0
254705,172.555,-649,0,0
254966,172.378,-648.021,0,0
255226,172.105,-646.955,0,0
255486,171.852,-645.828,0,0
255747,171.497,-644.615,0,0
256007,171.177,-643.257,0,0
256267,170.943,-641.839,0,0
256528,170.713,-640.397,0,0
256788,170.446,-638.889,0,0
257048,170.224,-637.229,0,0
257309,170.101,-635.412,0,0
257569,170.128,-633.545,0,0
257829,170.298,-631.67,0,0
258090,170.573,-629.785,0,0
258350,171.032,-627.866,0,0
258610,171.575,-626.051,0,0
258871,172.224,-624.236,0,0
259131,172.98,-622.454,0,0
259391,173.892,-620.757,0,0
259651,174.976,-619.144,0,0
259912,176.127,-617.645,0,0
260172,177.339,-616.426,0,0
260432,178.517,-615.231,0,0
260693,179.595,-614.211,0,0
260953,180.632,-613.165,0,0
261213,181.759,-612.234,0,0
261474,182.895,-611.314,0,0
261734,184.052,-610.453,0,0
261994,185.253,-609.697,0,0
262255,186.487,-609.149,0,0
262515,187.536,-608.776,0,0
262775,188.341,-608.406,0,0
263036,189.062,-607.902,0,0
263296,189.794,-607.327,0,0
263556,190.536,-606.796,0,0
263817,191.143,-606.242,0,0
264077,191.649,-605.559,0,0
264337,192.124,-604.726,0,0
264598,192.686,-603.611,0,0
264858,193.405,-602.314,0,0
265118,194.34,-600.974,0,0
265379,195.536,-599.445,0,0
265639,196.968,-598.005,0,0
265899,198.594,-596.502,0,0
266160,200.519,-594.952,0,0
266420,202.895,-593.491,0,0
266680.25,205.641,-592.196,0,0
266940.575,208.718,-591.18,0,0
267200.9,212.13,-590.505,0,0
267461.225,215.799,-590.215,0,0
267721.55,219.684,-590.367,0,0
267981.875,223.729,-591.055,0,0
268242.2,227.936,-592.241,0,0
268502.525,232.074,-594.082,0,0
268762.85,236.076,-596.53,0,0
269023.175,239.783,-599.561,0,0
269283.5,243.131,-603.072,0,0
269543.825,246.106,-606.91,0,0
269804.15,248.691,-611.091,0,0
270064.475,250.951,-615.53,0,0
270324.8,253.021,-620.164,0,0
270585.125,254.586,-625.42,0,0
270845.45,255.614,-630.877,0,0
271105.775,255.985,-636.605,0,0
271366.1,255.668,-642.441,0,0
271626.425,254.688,-648.278,0,0
271886.75,253.102,-653.923,0,0
272147.075,250.983,-659.467,0,0
272407.4,248.284,-664.772,0,0
272667.725,245.177,-669.815,0,0
272928.05,241.536,-674.666,0,0
273188.375,237.363,-679.223,0,0
273448.7,232.681,-683.346,0,0
273709.025,227.622,-686.939,0,0
273969.35,222.145,-690.022,0,0
274229.675,216.388,-692.437,0,0
274490.0,210.502,-694.177,0,0
274750.325,204.6,-695.155,0,0
275010.65,198.872,-695.62,0,0
275270.975,193.272,-695.513,0,0
275531.3,188.004,-694.87,0,0
275791.625,183.033,-693.826,0,0
276051.95,178.422,-692.504,0,0
276312.275,174.189,-690.961,0,0
276572.6,170.23,-689.327,0,0
276832.925,166.551,-687.56,0,0
277093.25,163.077,-685.737,0,0
277353.575,159.791,-683.798,0,0
277613.9,156.765,-681.767,0,0
277874.225,153.944,-679.754,0,0
278134.55,151.274,-677.733,0,0
278394.875,148.704,-675.725,0,0
278655.2,146.204,-673.628,0,0
278915.525,143.821,-671.444,0,0
279175.85,141.61,-669.1,0,0
279436.175,139.549,-666.672,0,0
279696.5,137.752,-664.137,0,0
279956.825,136.318,-661.625,0,0
280217.15,135.012,-659.118,0,0
280477.475,133.985,-656.703,0,0
280737.8,133.187,-654.42,0,0
280998.125,132.486,-652.293,0,0
281258.45,131.956,-650.306,0,0
281518.775,131.492,-648.418,0,0
281779.1,131.118,-646.687,0,0
282039.425,130.811,-645.069,0,0
282299.75,130.568,-643.627,0,0
282560,130.382,-642.349,0,0
282820,130.138,-641.265,0,0
283081,129.787,-640.295,0,0
283341,129.279,-639.383,0,0
283601,128.703,-638.478,0,0
283862,128.034,-637.538,0,0
284122,127.313,-636.543,0,0
284382,126.575,-635.409,0,0
284643,125.873,-634.247,0,0
284903,125.172,-632.938,0,0
285163,124.644,-631.562,0,0
285424,124.309,-630.071,0,0
285684,124.191,-628.591,0,0
285944,124.289,-627.196,0,0
286205,124.644,-625.937,0,0
286465,125.169,-624.946,0,0
286725,125.8,-624.189,0,0
286986,126.501,-623.721,0,0
287246,127.273,-623.604,0,0
287506,127.933,-623.855,0,0
287767,128.434,-624.491,0,0
288027,128.611,-625.438,0,0
288287,128.354,-626.589,0,0
288548,127.683,-627.784,0,0
288808,126.622,-628.858,0,0
289068,125.277,-629.809,0,0
289329,123.674,-630.61,0,0
289589,121.871,-631.216,0,0
289849,119.851,-631.662,0,0
290109,117.704,-631.799,0,0
290370,115.54,-631.678,0,0
290630,113.349,-631.261,0,0
290890,111.282,-630.697,0,0
291151,109.33,-629.973,0,0
291411,107.439,-629.18,0,0
291671,105.599,-628.342,0,0
291932,103.837,-627.45,0,0
292192,102.032,-626.488,0,0
292452,100.271,-625.442,0,0
292713,98.5628,-624.351,0,0
292973,96.8794,-623.127,0,0
293233,95.245,-621.825,0,0
293494,93.7069,-620.486,0,0
293754,92.2652,-619.121,0,0
294014,90.8045,-617.731,0,0
294275,89.3802,-616.294,0,0
294535,88.0124,-614.821,0,0
294795,86.6918,-613.277,0,0
295056,85.4623,-611.685,0,0
295316,84.2627,-610.037,0,0
295576,83.1887,-608.367,0,0
295837,82.2235,-606.685,0,0
296097,81.3114,-605.046,0,0
296357,80.4767,-603.397,0,0
296618,79.674,-601.813,0,0
296878,78.8984,-600.251,0,0
297138,78.1316,-598.687,0,0
297399,77.3949,-597.129,0,0
297659,76.6548,-595.557,0,0
297919,75.9535,-593.962,0,0
298180,75.2976,-592.338,0,0
298440,74.6773,-590.716,0,0
298700.2,74.1194,-589.071,0,0
298960.525,73.5969,-587.454,0,0
299220.85,73.1243,-585.809,0,0
299481.175,72.6821,-584.157,0,0
299741.5,72.2934,-582.532,0,0
300001.825,71.9486,-580.879,0,0
300262.15,71.6843,-579.209,0,0
300522.475,71.458,-577.558,0,0
300782.8,71.3284,-575.914,0,0
301043.125,71.2523,-574.284,0,0
301303.45,71.2677,-572.69,0,0
301563.775,71.3447,-571.165,0,0
301824.1,71.4814,-569.677,0,0
302084.425,71.6505,-568.265,0,0
302344.75,71.8644,-566.917,0,0
302605.075,72.0934,-565.64,0,0
302865.4,72.3482,-564.408,0,0
303125.725,72.6242,-563.234,0,0
303386.05,72.895,-562.125,0,0
303646.375,73.1887,-561.062,0,0
303906.7,73.4768,-560.057,0,0
304167.025,73.7504,-559.115,0,0
304427.35,74.0112,-558.209,0,0
304687.675,74.2754,-557.321,0,0
304948.0,74.5237,-556.487,0,0
305208.325,74.7804,-555.678,0,0
305468.65,75.0372,-554.907,0,0
305728.975,75.3015,-554.174,0,0
305989.3,75.5402,-553.509,0,0
306249.625,75.7643,-552.883,0,0
306509.95,75.955,-552.307,0,0
306770.275,76.1442,-551.746,0,0
307030.6,76.2938,-551.222,0,0
307290.925,76.4258,-550.709,0,0
307551.25,76.544,-550.203,0,0
307811.575,76.6791,-549.741,0,0
308071.9,76.8323,-549.333,0,0
308332.225,76.9616,-549.017,0,0
308592.55,77.0319,-548.771,0,0
308852.875,77.0053,-548.602,0,0
309113.2,76.86,-548.476,0,0
309373.525,76.5841,-548.305,0,0
309633.85,76.2426,-548.062,0,0
309894.175,75.8236,-547.776,0,0
310154.5,75.4213,-547.403,0,0
310414.825,74.979,-546.978,0,0
310675.15,74.567,-546.527,0,0
310935.475,74.1577,-546.046,0,0
311195.8,73.7521,-545.555,0,0
311456.125,73.3605,-545.036,0,0
311716.45,72.9854,-544.513,0,0
311976.775,72.599,-544.009,0,0
312237.1,72.2164,-543.507,0,0
312497.425,71.8178,-543.011,0,0
312757.75,71.3976,-542.534,0,0
313018.075,70.9583,-542.047,0,0
313278.4,70.4919,-541.537,0,0
313538.725,69.9806,-540.995,0,0
313799.05,69.4694,-540.447,0,0
314059.375,68.9401,-539.867,0,0
314319.7,68.4033,-539.244,0,0
314580,67.8376,-538.561,0,0
314840,67.3427,-537.903,0,0
315101,66.8566,-537.169,0,0
315361,66.3688,-536.442,0,0
315621,65.837,-535.671,0,0
315882,65.3429,-534.889,0,0
316142,64.9181,-534.057,0,0
316402,64.5257,-533.187,0,0
316663,64.1562,-532.301,0,0
316923,63.8209,-531.5,0,0
317183,63.4965,-530.595,0,0
317444,63.2604,-529.809,0,0
317704,62.9907,-529.034,0,0
317964,62.7233,-528.236,0,0
318225,62.5319,-527.423,0,0
318485,62.2565,-526.647,0,0
318745,62.0713,-525.871,0,0
319006,61.935,-525.091,0,0
319266,61.7959,-524.334,0,0
319526,61.6886,-523.604,0,0
319787,61.5939,-522.938,0,0
320047,61.5685,-522.3,0,0
320307,61.4524,-521.794,0,0
320567,61.3251,-521.174,0,0
320828,61.158,-520.725,0,0
321088,60.9821,-520.25,0,0
321348,60.7525,-519.806,0,0
321609,60.4439,-519.34,0,0
321869,60.1621,-518.84,0,0
322129,59.8045,-518.382,0,0
322390,59.5037,-517.958,0,0
322650,59.1457,-517.493,0,0
322910,58.7474,-516.876,0,0
323171,58.4223,-516.45,0,0
323431,57.9738,-515.878,0,0
323691,57.5696,-515.438,0,0
323952,57.0794,-514.896,0,0
324212,56.6117,-514.383,0,0
324472,56.1086,-513.796,0,0
324733,55.5486,-513.261,0,0
324993,54.9627,-512.584,0,0
325253,54.47,-511.862,0,0
325514,53.8863,-511.263,0,0
325774,53.3568,-510.528,0,0
326034,52.8579,-509.671,0,0
326295,52.3327,-508.918,0,0
326555,51.9011,-508.075,0,0
326815,51.4703,-507.293,0,0
327076,50.9718,-506.396,0,0
327336,50.5662,-505.559,0,0
327596,50.1715,-504.739,0,0
327857,49.81,-503.878,0,0
328117,49.4499,-502.993,0,0
328377,49.1365,-502.157,0,0
328638,48.7926,-501.348,0,0
328898,48.4748,-500.49,0,0
329158,48.1218,-499.606,0,0
329419,47.8428,-498.755,0,0
329679,47.4953,-497.957,0,0
329939,47.254,-497.013,0,0
330200,46.9659,-496.154,0,0
330460,46.7248,-495.316,0,0
330720.15,46.4222,-494.493,0,0
330980.475,46.2331,-493.611,0,0
331240.8,45.9694,-492.763,0,0
331501.125,45.728,-491.879,0,0
331761.45,45.4882,-490.955,0,0
332021.775,45.2751,-490.113,0,0
332282.1,45.0343,-489.209,0,0
332542.425,44.8496,-488.341,0,0
332802.75,44.6606,-487.441,0,0
333063.075,44.4983,-486.581,0,0
333323.4,44.3546,-485.68,0,0
333583.725,44.2654,-484.776,0,0
333844.05,44.152,-483.916,0,0
334104.375,44.0442,-482.999,0,0
334364.7,44.0249,-482.161,0,0
334625.025,43.9566,-481.375,0,0
334885.35,43.9446,-480.523,0,0
335145.675,43.9414,-479.725,0,0
335406.0,43.9198,-478.945,0,0
335666.325,43.8744,-478.223,0,0
335926.65,43.8954,-477.446,0,0
336186.975,43.8941,-476.701,0,0
336447.3,43.8171,-476.024,0,0
336707.625,43.8286,-475.255,0,0
336967.95,43.8083,-474.566,0,0
337228.275,43.7583,-473.891,0,0
337488.6,43.7269,-473.222,0,0
337748.925,43.6649,-472.599,0,0
338009.25,43.6612,-471.933,0,0
338269.575,43.5937,-471.265,0,0
338529.9,43.5478,-470.673,0,0
338790.225,43.442,-470.035,0,0
339050.55,43.3027,-469.381,0,0
339310.875,43.1945,-468.73,0,0
339571.2,43.165,-468.147,0,0
339831.525,43.0066,-467.519,0,0
340091.85,42.9475,-466.915,0,0
340352.175,42.7756,-466.266,0,0
340612.5,42.6228,-465.672,0,0
340872.825,42.442,-465.051,0,0
341133.15,42.2687,-464.387,0,0
341393.475,42.0549,-463.718,0,0
341653.8,41.8205,-463.014,0,0
341914.125,41.6642,-462.311,0,0
342174.45,41.4443,-461.566,0,0
342434.775,41.2524,-460.865,0,0
342695.1,41.1121,-460.135,0,0
342955.425,40.9759,-459.395,0,0
343215.75,40.8555,-458.6,0,0
343476.075,40.6914,-457.897,0,0
343736.4,40.577,-457.058,0,0
343996.725,40.4846,-456.296,0,0
344257.05,40.3273,-455.524,0,0
344517.375,40.242,-454.724,0,0
344777.7,40.15,-453.962,0,0
345038.025,40.0544,-453.188,0,0
345298.35,40.0056,-452.36,0,0
345558.675,39.9285,-451.608,0,0
345819.0,39.8669,-450.763,0,0
346079.325,39.8474,-449.972,0,0
346339.65,39.7988,-449.181,0,0
346599.975,39.8003,-448.362,0,0
346860,39.8199,-447.557,0,0
347121,39.8158,-446.76,0,0
347381,39.8583,-445.949,0,0
347641,39.9262,-445.158,0,0
347902,40.0071,-444.404,0,0
348162,40.1235,-443.638,0,0
348422,40.1785,-442.936,0,0
348683,40.3181,-442.155,0,0
348943,40.386,-441.443,0,0
349203,40.5077,-440.743,0,0
349464,40.5913,-440.031,0,0
349724,40.7482,-439.286,0,0
349984,40.8049,-438.628,0,0
350245,40.9827,-437.934,0,0
350505,41.1366,-437.196,0,0
350765,41.2629,-436.552,0,0
351025,41.4122,-435.856,0,0
351286,41.5914,-435.216,0,0
351546,41.7383,-434.585,0,0
351806,41.9283,-434.013,0,0
352067,42.0775,-433.366,0,0
352327,42.2683,-432.802,0,0
352587,42.4489,-432.268,0,0
352848,42.6066,-431.705,0,0
353108,42.7088,-431.179,0,0
353368,42.8842,-430.62,0,0
353629,43.0228,-430.099,0,0
353889,43.1512,-429.544,0,0
354149,43.2481,-429.073,0,0
354410,43.3681,-428.588,0,0
354670,43.4902,-428.045,0,0
354930,43.5753,-427.596,0,0
355191,43.6738,-427.083,0,0
355451,43.7676,-426.573,0,0
355711,43.878,-426.074,0,0
355972,43.9506,-425.575,0,0
356232,44.0606,-425.085,0,0
356492,44.1424,-424.652,0,0
356753,44.1889,-424.173,0,0
357013,44.1982,-423.696,0,0
357273,44.2776,-423.192,0,0
357534,44.3164,-422.723,0,0
357794,44.3586,-422.242,0,0
358054,44.3873,-421.749,0,0
358315,44.4646,-421.225,0,0
358575,44.5278,-420.712,0,0
358835,44.534,-420.24,0,0
359096,44.6147,-419.708,0,0
359356,44.6917,-419.21,0,0
359616,44.7171,-418.751,0,0
359877,44.7506,-418.194,0,0
360137,44.8364,-417.758,0,0
360397,44.8916,-417.231,0,0
360658,44.9575,-416.752,0,0
360918,45.0064,-416.272,0,0
361178,45.0247,-415.79,0,0
361438,45.1014,-415.359,0,0
361699,45.1254,-414.855,0,0
361959,45.1557,-414.343,0,0
362219,45.229,-413.859,0,0
362480,45.2424,-413.392,0,0
362740.1,45.3083,-412.877,0,0
363000.425,45.354,-412.449,0,0
363260.75,45.4035,-411.885,0,0
363521.075,45.4999,-411.422,0,0
363781.4,45.556,-410.925,0,0
364041.725,45.6108,-410.459,0,0
364302.05,45.6948,-409.982,0,0
364562.375,45.7269,-409.478,0,0
364822.7,45.7718,-409.017,0,0
365083.025,45.8335,-408.504,0,0
365343.35,45.9621,-408.026,0,0
365603.675,46.0193,-407.523,0,0
365864.0,46.1307,-407.055,0,0
366124.325,46.2632,-406.646,0,0
366384.65,46.2907,-406.142,0,0
366644.975,46.4023,-405.725,0,0
366905.3,46.4615,-405.29,0,0
367165.625,46.5308,-404.838,0,0
367425.95,46.6189,-404.383,0,0
367686.275,46.6244,-403.943,0,0
367946.6,46.695,-403.479,0,0
368206.925,46.7487,-403.004,0,0
368467.25,46.8196,-402.543,0,0
368727.575,46.9064,-402.027,0,0
368987.9,47.0345,-401.548,0,0
369248.225,47.1129,-401.058,0,0
369508.55,47.2961,-400.478,0,0
369768.875,47.4476,-400.079,0,0
370029.2,47.6523,-399.622,0,0
370289.525,47.8621,-399.165,0,0
370549.85,48.098,-398.76,0,0
370810.175,48.3591,-398.42,0,0
371070.5,48.5448,-398.124,0,0
371330.825,48.7426,-397.859,0,0
371591.15,48.9105,-397.598,0,0
371851.475,49.0309,-397.325,0,0
372111.8,49.1574,-397.121,0,0
372372.125,49.2216,-396.886,0,0
372632.45,49.3095,-396.669,0,0
372892.775,49.3509,-396.408,0,0
373153.1,49.347,-396.229,0,0
373413.425,49.3915,-396.009,0,0
373673.75,49.3325,-395.818,0,0
373934.075,49.3274,-395.548,0,0
374194.4,49.2144,-395.29,0,0
374454.725,49.1387,-395.007,0,0
374715.05,49.03,-394.711,0,0
374975.375,48.9273,-394.386,0,0
375235.7,48.8323,-394.055,0,0
375496.025,48.74,-393.642,0,0
375756.35,48.6235,-393.241,0,0
376016.675,48.5773,-392.837,0,0
376277.0,48.5396,-392.396,0,0
376537.325,48.5531,-391.997,0,0
376797.65,48.5352,-391.585,0,0
377057.975,48.6163,-391.183,0,0
377318.3,48.6859,-390.862,0,0
377578.625,48.7263,-390.526,0,0
377838.95,48.7866,-390.25,0,0
378099.275,48.797,-390.003,0,0
378359.6,48.7729,-389.748,0,0
378619.925,48.6747,-389.502,0,0
378880,48.5507,-389.265,0,0
379141,48.3978,-388.945,0,0
379401,48.2224,-388.596,0,0
379661,48.0583,-388.208,0,0
379922,47.9218,-387.733,0,0
380182,47.8324,-387.265,0,0
380442,47.8053,-386.751,0,0
380703,47.833,-386.269,0,0
380963,47.9244,-385.819,0,0
381223,48.0551,-385.448,0,0
381483,48.1447,-385.124,0,0
381744,48.3124,-384.876,0,0
382004,48.3209,-384.677,0,0
382264,48.3567,-384.528,0,0
382525,48.2949,-384.428,0,0
382785,48.1557,-384.287,0,0
383045,48.0035,-384.07,0,0
383306,47.7906,-383.899,0,0
383566,47.5241,-383.669,0,0
383826,47.2328,-383.393,0,0
384087,47.0303,-383.127,0,0
384347,46.7264,-382.779,0,0
384607,46.4151,-382.457,0,0
384868,46.1257,-382.036,0,0
385128,45.7994,-381.614,0,0
385388,45.5263,-381.143,0,0
385649,45.2499,-380.704,0,0
385909,44.9899,-380.2,0,0
386169,44.7484,-379.668,0,0
386430,44.4985,-379.145,0,0
386690,44.2737,-378.595,0,0
386950,44.0677,-378.018,0,0
387211,43.8807,-377.455,0,0
387471,43.6615,-376.824,0,0
387731,43.4895,-376.241,0,0
387992,43.3927,-375.637,0,0
388252,43.2617,-375.004,0,0
388512,43.162,-374.386,0,0
388773,43.0559,-373.766,0,0
389033,43.0516,-373.144,0,0
389293,42.9653,-372.531,0,0
389554,42.9479,-371.901,0,0
389814,42.9502,-371.323,0,0
390074,42.9675,-370.767,0,0
390335,43.0044,-370.193,0,0
390595,42.9915,-369.678,0,0
390855,43.0298,-369.149,0,0
391116,43.045,-368.621,0,0
391376,43.0589,-368.112,0,0
391636,43.0237,-367.604,0,0
391896,43.0366,-367.102,0,0
392157,43.029,-366.603,0,0
392417,42.9821,-366.133,0,0
392677,42.9589,-365.602,0,0
392938,42.9274,-365.088,0,0
393198,42.8719,-364.588,0,0
393458,42.8587,-364.051,0,0
393719,42.8037,-363.564,0,0
393979,42.7821,-362.998,0,0
394239,42.7534,-362.425,0,0
394500,42.7259,-361.86,0,0
394760.05,42.7366,-361.314,0,0
395020.375,42.7071,-360.727,0,0
395280.7,42.7387,-360.167,0,0
395541.025,42.7598,-359.56,0,0
395801.35,42.788,-359.011,0,0
396061.675,42.842,-358.438,0,0
396322.0,42.8853,-357.892,0,0
396582.325,42.962,-357.304,0,0
396842.65,43.0756,-356.782,0,0
397102.975,43.133,-356.242,0,0
397363.3,43.1898,-355.739,0,0
397623.625,43.2625,-355.201,0,0
397883.95,43.3392,-354.684,0,0
398144.275,43.4144,-354.196,0,0
398404.6,43.4794,-353.668,0,0
398664.925,43.5645,-353.186,0,0
398925.25,43.6384,-352.691,0,0
399185.575,43.6768,-352.193,0,0
399445.9,43.782,-351.691,0,0
399706.225,43.8352,-351.194,0,0
399966.55,43.8684,-350.694,0,0
400006.6,43.8925,-350.614,0,0