File: Accelerated corrosion test data/2025-10-14_06-00-04/sample_1.csv
Frequency (Hz),Impedance (ohms),Phase (Radians),Temperature (C),Humidity (%)
10000.0,240.116,-12188.9,0,0
10260.325,241.427,-11875,0,0
10520.65,229.297,-11595.6,0,0
10780.975,225.843,-11311.5,0,0
11041.3,219.27,-11052.9,0,0
11301.625,213.948,-10795.6,0,0
11561.95,210.603,-10551.9,0,0
11822.275,208.059,-10314,0,0
12082.6,229.842,-10084.1,0,0
12342.925,210.311,-9910.42,0,0
12603.25,194.645,-9697.51,0,0
12863.575,190.988,-9495.59,0,0
13123.9,200.418,-9303.19,0,0
13384.225,185.056,-9133.01,0,0
13644.55,180.607,-8952.12,0,0
13904.875,182.258,-8774.28,0,0
14165.2,190.244,-8639.76,0,0
14425.525,212.353,-8474.22,0,0
14685.8,204.968,-8306.86,0,0
14946.175,176.442,-8206.03,0,0
15206.5,185.45,-8042.82,0,0
15466.825,173.24,-7929.78,0,0
15727.15,172.519,-7796.01,0,0
15987.5,160.595,-7668.18,0,0
16247.8,157.141,-7542.16,0,0
16508.125,155.136,-7419.24,0,0
16768.45,159.323,-7302.27,0,0
17028.775,162.723,-7195.32,0,0
17289.1,153.567,-7091.9,0,0
17549.425,152.784,-6988.8,0,0
17809.75,145.589,-6884.05,0,0
18070.075,147.714,-6784.86,0,0
18330.4,141.358,-6689.22,0,0
18590.725,137.286,-6594.99,0,0
18851.05,138.355,-6497.07,0,0
19111.375,135.305,-6415.78,0,0
19371.7,132.533,-6324.08,0,0
19632.025,132.001,-6235.17,0,0
19892.35,136.569,-6149.53,0,0
20152.675,135.689,-6062.12,0,0
20413.0,157.225,-5973.85,0,0
20673.3,166.776,-5933.33,0,0
20933.65,149.199,-5863.93,0,0
21193.975,159.845,-5801.66,0,0
21454.3,141.584,-5728.09,0,0
21714.625,136.617,-5657.32,0,0
21974.9,140.064,-5575.29,0,0
22235.275,172.659,-5534.44,0,0
22495.6,140.391,-5491.2,0,0
22755.925,126.614,-5421.47,0,0
23016.25,122.291,-5354.67,0,0
23276.6,118.623,-5293.15,0,0
23536.9,115.402,-5232.64,0,0
23797.225,112.523,-5172.01,0,0
24057.55,115.031,-5111.41,0,0
24317.875,112.423,-5063.02,0,0
24578.2,111.065,-5003.16,0,0
24838.525,110.464,-4953.29,0,0
25098.85,110.75,-4899.95,0,0
25359.175,105.636,-4850.37,0,0
25619.5,104.852,-4798.75,0,0
25879.8,103.486,-4747.37,0,0
26140.1,103.75,-4698.2,0,0
26400.5,102.988,-4648.83,0,0
26660.8,105.343,-4597.91,0,0
26921.1,114.07,-4550.47,0,0
27181.4,121.684,-4518.63,0,0
27441.8,110.075,-4483.84,0,0
27702.1,103.458,-4434.57,0,0
27962.4,111.297,-4385.38,0,0
28222.7,110.945,-4347.01,0,0
28483.1,120.857,-4304.39,0,0
28743.4,129.272,-4285.79,0,0
29003.7,117.279,-4248.63,0,0
29264,118.109,-4215.22,0,0
29524.4,106.542,-4180.97,0,0
29784.7,105.862,-4138.9,0,0
30045,101.267,-4107.23,0,0
30305.3,99.6283,-4068.75,0,0
30565.7,97.2807,-4029.67,0,0
30826,101.047,-3994.38,0,0
31086.3,103.185,-3966.59,0,0
31346.6,99.2767,-3937.28,0,0
31607,93.8683,-3899.83,0,0
31867.3,97.6078,-3867.21,0,0
32127.6,97.6554,-3836.34,0,0
32387.9,97.478,-3810.19,0,0
32648.3,93.4666,-3778.26,0,0
32908.6,95.6559,-3750.26,0,0
33168.9,91.0274,-3722.42,0,0
33429.2,88.6147,-3693.11,0,0
33689.6,85.8395,-3663.34,0,0
33949.9,85.365,-3632.34,0,0
34210.2,86.4376,-3606.41,0,0
34470.5,83.5862,-3579.58,0,0
34730.9,82.0048,-3551.35,0,0
34991.2,81.012,-3524.44,0,0
35251.5,80.0966,-3497.43,0,0
35511.8,79.4904,-3471.42,0,0
35772.2,79.1368,-3445.79,0,0
36032.5,77.4958,-3420.44,0,0
36292.8,77.342,-3395.14,0,0
36553.1,76.3688,-3369.96,0,0
36813.5,76.3116,-3345.72,0,0
37073.8,75.9257,-3321.68,0,0
37334.1,75.3088,-3298.48,0,0
37594.4,75.1092,-3274.93,0,0
37854.8,74.1452,-3252.36,0,0
38115.1,73.4643,-3229.28,0,0
38375.4,73.3617,-3206.61,0,0
38635.7,72.8328,-3184.89,0,0
38896.1,72.4757,-3162.87,0,0
39156.4,72.4787,-3141,0,0
39416.7,72.0653,-3120.49,0,0
39677,71.1623,-3099.46,0,0
39937.4,71.0362,-3078.25,0,0
40197.7,71.1095,-3057.76,0,0
40458,70.7796,-3037.67,0,0
40718.3,70.9483,-3016.86,0,0
40978.7,72.5281,-2997.68,0,0
41239,72.2628,-2979.86,0,0
41499.3,71.7088,-2961.22,0,0
41759.6,70.8267,-2942.67,0,0
42020,70.4673,-2923.63,0,0
42280.275,70.2253,-2905.42,0,0
42540.6,70.5214,-2887.57,0,0
42800.925,70.0327,-2870.53,0,0
43061.25,69.443,-2852.42,0,0
43321.575,68.9691,-2835.58,0,0
43581.9,68.5853,-2818.12,0,0
43842.225,67.6197,-2800.51,0,0
44102.55,67.8509,-2783.1,0,0
44362.875,68.8438,-2766.07,0,0
44623.2,69.0674,-2750.84,0,0
44883.525,68.335,-2734.93,0,0
45143.85,68.066,-2719.14,0,0
45404.175,68.4258,-2703.7,0,0
45664.5,67.6898,-2688.86,0,0
45924.825,66.7292,-2673.44,0,0
46185.15,66.3522,-2657.96,0,0
46445.475,65.3352,-2642.8,0,0
46705.8,65.3599,-2627.31,0,0
46966.125,64.9421,-2613.14,0,0
47226.45,64.5081,-2597.98,0,0
47486.775,64.3458,-2583.51,0,0
47747.1,64.1437,-2569.08,0,0
48007.425,63.6297,-2555.2,0,0
48267.75,63.6449,-2541.04,0,0
48528.075,62.4296,-2527.85,0,0
48788.4,61.8382,-2513.42,0,0
49048.725,61.5806,-2499.25,0,0
49309.05,61.541,-2485.49,0,0
49569.375,61.3313,-2472.45,0,0
49829.7,61.1245,-2459.52,0,0
50090.025,60.1733,-2446.16,0,0
50350.35,59.7089,-2432.77,0,0
50610.675,59.5799,-2419.57,0,0
50871.0,59.4391,-2406.71,0,0
51131.325,59.2657,-2393.97,0,0
51391.65,59.409,-2381.64,0,0
51651.975,58.7165,-2369.35,0,0
51912.3,58.296,-2356.85,0,0
52172.625,58.1913,-2344.63,0,0
52432.95,58.1388,-2332.44,0,0
52693.275,57.8427,-2320.37,0,0
52953.6,57.7834,-2308.52,0,0
53213.925,57.7515,-2296.97,0,0
53474.25,57.4741,-2285.32,0,0
53734.575,57.3181,-2273.86,0,0
53994.9,57.2654,-2262.63,0,0
54255.225,56.7116,-2251.67,0,0
54515.55,56.3776,-2240.22,0,0
54775.875,56.1405,-2228.98,0,0
55036.2,55.8133,-2217.65,0,0
55296.525,55.9516,-2206.85,0,0
55556.85,55.8972,-2196.19,0,0
55817.175,55.4417,-2185.67,0,0
56077.5,55.0209,-2174.75,0,0
56337.825,54.9788,-2164.1,0,0
56598.15,55.0596,-2153.5,0,0
56858.475,54.9533,-2143.17,0,0
57118.8,54.6742,-2132.96,0,0
57379.125,54.5675,-2122.53,0,0
57639.45,54.8047,-2112.53,0,0
57899.775,54.6062,-2102.62,0,0
58160.1,54.7226,-2092.69,0,0
58420.4,54.5482,-2083.07,0,0
58680.7,54.3112,-2073.32,0,0
58941.1,54.3288,-2063.53,0,0
59201.4,54.579,-2053.89,0,0
59461.7,54.5091,-2044.78,0,0
59722,54.3593,-2035.3,0,0
59982.4,54.3413,-2025.98,0,0
60242.7,54.1353,-2016.72,0,0
60503,54.3614,-2007.51,0,0
60763.3,54.4589,-1998.91,0,0
61023.7,54.0961,-1990.35,0,0
61284,53.5547,-1981.42,0,0
61544.3,53.3213,-1972.3,0,0
61804.6,53.6789,-1963.44,0,0
62065,53.2132,-1955.09,0,0
62325.3,52.774,-1946.16,0,0
62585.6,52.692,-1937.33,0,0
62845.9,52.6361,-1928.67,0,0
63106.3,52.6518,-1919.95,0,0
63366.6,52.4564,-1911.65,0,0
63626.9,52.4986,-1902.98,0,0
63887.2,52.6469,-1894.59,0,0
64147.6,52.7034,-1886.09,0,0
64407.9,52.8011,-1877.84,0,0
64668.2,53.0101,-1869.49,0,0
64928.5,53.6268,-1861.34,0,0
65188.9,54.1213,-1853.45,0,0
65449.2,54.8066,-1845.84,0,0
65709.5,55.3052,-1838.92,0,0
65969.8,55.1562,-1831.76,0,0
66230.2,55.0477,-1824.44,0,0
66490.5,54.921,-1817.21,0,0
66750.8,54.783,-1810.01,0,0
67011.1,54.3148,-1802.98,0,0
67271.5,53.7992,-1795.14,0,0
67531.8,54.2149,-1787.58,0,0
67792.1,54.5807,-1780.7,0,0
68052.4,54.1846,-1774.35,0,0
68312.8,53.5733,-1767.14,0,0
68573.1,53.3417,-1759.63,0,0
68833.4,53.5801,-1752.69,0,0
69093.7,53.3229,-1746.07,0,0
69354.1,53.0254,-1739.15,0,0
69614.4,52.7914,-1732.55,0,0
69874.7,52.3486,-1725.86,0,0
70135,51.7388,-1719.03,0,0
70395.4,51.2455,-1712.1,0,0
70655.7,50.8309,-1705.02,0,0
70916,50.6187,-1698.14,0,0
71176.3,50.4333,-1691.32,0,0
71436.7,50.3558,-1684.65,0,0
71697,49.8311,-1678.16,0,0
71957.3,49.3783,-1671.43,0,0
72217.6,48.7825,-1664.66,0,0
72478,48.5168,-1657.65,0,0
72738.3,48.3702,-1650.65,0,0
72998.6,48.3633,-1643.85,0,0
73258.9,48.4509,-1637.32,0,0
73519.3,48.2899,-1630.86,0,0
73779.6,48.2263,-1624.24,0,0
74039.9,48.2919,-1617.69,0,0
74300.225,48.2675,-1611.17,0,0
74560.55,48.2759,-1604.69,0,0
74820.875,48.4982,-1598.27,0,0
75081.2,48.5327,-1591.99,0,0
75341.525,48.6715,-1585.84,0,0
75601.85,48.5982,-1579.54,0,0
75862.175,48.7277,-1573.2,0,0
76122.5,49.0233,-1567.07,0,0
76382.825,49.3953,-1560.97,0,0
76643.15,49.5369,-1555.09,0,0
76903.475,49.6849,-1549.16,0,0
77163.8,49.992,-1543.22,0,0
77424.125,50.1954,-1537.46,0,0
77684.45,50.4034,-1531.67,0,0
77944.775,50.4298,-1525.82,0,0
78205.1,50.8541,-1520.04,0,0
78465.425,51.5079,-1514.46,0,0
78725.75,51.9095,-1509.37,0,0
78986.075,51.9926,-1504.14,0,0
79246.4,51.9389,-1499.1,0,0
79506.725,51.6892,-1493.92,0,0
79767.05,51.3892,-1488.42,0,0
80027.375,51.3975,-1483.04,0,0
80287.7,51.2124,-1477.79,0,0
80548.025,50.834,-1472.29,0,0
80808.35,50.6526,-1466.75,0,0
81068.675,50.4947,-1461.03,0,0
81329.0,50.5699,-1455.43,0,0
81589.325,50.6013,-1449.83,0,0
81849.65,50.824,-1444.41,0,0
82109.975,51.0097,-1439.07,0,0
82370.3,51.1814,-1433.79,0,0
82630.625,51.1952,-1428.47,0,0
82890.95,51.2859,-1423.09,0,0
83151.275,51.6325,-1417.68,0,0
83411.6,51.9151,-1412.5,0,0
83671.925,52.1388,-1407.29,0,0
83932.25,52.483,-1402.17,0,0
84192.575,52.8122,-1397.04,0,0
84452.9,53.1557,-1391.86,0,0
84713.225,53.5255,-1386.83,0,0
84973.55,53.9307,-1381.75,0,0
85233.875,54.5898,-1376.84,0,0
85494.2,55.0676,-1372.33,0,0
85754.525,55.3432,-1367.79,0,0
86014.85,55.5544,-1363.22,0,0
86275.175,55.7375,-1358.53,0,0
86535.5,55.9272,-1353.81,0,0
86795.825,56.0276,-1349.29,0,0
87056.15,56.0497,-1344.44,0,0
87316.475,56.464,-1339.81,0,0
87576.8,56.4994,-1335.45,0,0
87837.125,56.4922,-1330.85,0,0
88097.45,56.3359,-1325.97,0,0
88357.775,56.4272,-1320.88,0,0
88618.1,56.781,-1315.78,0,0
88878.425,57.3362,-1311.13,0,0
89138.75,57.6516,-1306.37,0,0
89399.075,58.1841,-1301.44,0,0
89659.4,59.0068,-1296.63,0,0
89919.725,59.6084,-1291.98,0,0
90180,60.3434,-1287.47,0,0
90440.4,60.7849,-1282.97,0,0
90700.7,61.4881,-1278.22,0,0
90961,62.549,-1273.37,0,0
91221.3,63.9255,-1268.77,0,0
91481.7,65.4208,-1264.76,0,0
91742,66.7481,-1260.91,0,0
92002.3,67.7737,-1257.1,0,0
92262.6,68.8916,-1253.2,0,0
92523,70.3492,-1249.39,0,0
92783.3,72.1245,-1245.93,0,0
93043.6,73.818,-1243.22,0,0
93303.9,74.9193,-1240.42,0,0
93564.3,76.7506,-1237.59,0,0
93824.6,78.9752,-1236.55,0,0
94084.9,78.882,-1237.26,0,0
94345.2,76.1809,-1236.51,0,0
94605.6,73.6964,-1233.04,0,0
94865.9,72.641,-1229.87,0,0
95126.2,70.7882,-1226.52,0,0
95386.5,69.5199,-1222.73,0,0
95646.9,68.1052,-1219,0,0
95907.2,66.7759,-1214.5,0,0
96167.5,66.2176,-1209.66,0,0
96427.8,66.3094,-1205.48,0,0
96688.2,66.0547,-1202.04,0,0
96948.5,65.3122,-1198.13,0,0
97208.8,64.7586,-1193.93,0,0
97469.1,64.2947,-1189.7,0,0
97729.5,64.0633,-1185.38,0,0
97989.8,64.0721,-1181.14,0,0
98250.1,64.1829,-1177.09,0,0
98510.4,64.3401,-1173.37,0,0
98770.8,64.1326,-1169.68,0,0
99031.1,63.7551,-1165.74,0,0
99291.4,63.638,-1161.74,0,0
99551.7,63.473,-1157.82,0,0
99812.1,63.2714,-1153.68,0,0
100072,63.414,-1149.61,0,0
100333,63.3383,-1145.75,0,0
100593,63.3026,-1141.72,0,0
100853,63.3396,-1137.72,0,0
101114,63.3693,-1133.7,0,0
101374,63.3466,-1129.76,0,0
101634,63.2683,-1125.68,0,0
101895,63.1123,-1121.49,0,0
102155,63.0922,-1116.88,0,0
102415,63.393,-1112.2,0,0
102676,64.1399,-1107.41,0,0
102936,65.288,-1103.11,0,0
103196,66.2435,-1099.09,0,0
103457,67.144,-1095.07,0,0
103717,68.0781,-1090.94,0,0
103977,69.2638,-1086.68,0,0
104238,71.0038,-1082.66,0,0
104498,72.7659,-1079.49,0,0
104758,74.1276,-1076.5,0,0
105019,75.0923,-1073.5,0,0
105279,75.7835,-1070.1,0,0
105539,76.9921,-1066.55,0,0
105800,78.3708,-1063.24,0,0
106060,79.9525,-1060.11,0,0
106320.175,81.452,-1057.3,0,0
106580.5,82.8784,-1054.6,0,0
106840.825,84.0915,-1052.19,0,0
107101.15,85.2593,-1049.56,0,0
107361.475,86.6176,-1047.04,0,0
107621.8,87.8316,-1045,0,0
107882.125,88.6714,-1042.88,0,0
108142.45,89.5525,-1040.6,0,0
108402.775,90.412,-1038.37,0,0
108663.1,91.3371,-1036.21,0,0
108923.425,92.259,-1034.19,0,0
109183.75,93.1396,-1032.19,0,0
109444.075,93.9363,-1030.65,0,0
109704.4,94.3698,-1029.25,0,0
109964.725,94.4557,-1027.9,0,0
110225.05,93.9931,-1026.21,0,0
110485.375,93.4575,-1024.11,0,0
110745.7,93.0157,-1021.46,0,0
111006.025,93.2256,-1018.77,0,0
111266.35,93.4522,-1015.95,0,0
111526.675,93.8837,-1013.54,0,0
111787.0,94.5135,-1011.46,0,0
112047.325,95.0327,-1009.29,0,0
112307.65,95.5072,-1007.41,0,0
112567.975,95.9435,-1005.7,0,0
112828.3,96.1332,-1003.94,0,0
113088.625,96.25,-1002.23,0,0
113348.95,96.2989,-1000.7,0,0
113609.275,96.157,-999.227,0,0
113869.6,95.7203,-997.789,0,0
114129.925,94.9929,-996.076,0,0
114390.25,94.3269,-994.224,0,0
114650.575,93.7547,-992.162,0,0
114910.9,93.2112,-990.321,0,0
115171.225,92.4374,-988.513,0,0
115431.55,91.4487,-986.549,0,0
115691.875,90.3916,-984.461,0,0
115952.2,89.2416,-982.064,0,0
116212.525,88.2281,-979.467,0,0
116472.85,87.3553,-976.812,0,0
116733.175,86.5771,-974.158,0,0
116993.5,85.667,-971.626,0,0
117253.825,84.6805,-968.827,0,0
117514.15,83.7803,-965.829,0,0
117774.475,83.0552,-962.712,0,0
118034.8,82.4599,-959.565,0,0
118295.125,82.0719,-956.423,0,0
118555.45,81.6347,-953.392,0,0
118815.775,81.205,-950.258,0,0
119076.1,80.9978,-947.041,0,0
119336.425,80.9558,-943.916,0,0
119596.75,80.8249,-940.824,0,0
119857.075,80.9495,-937.897,0,0
120117.4,81.1472,-934.948,0,0
120377.725,81.3198,-932.172,0,0
120638.05,81.514,-929.546,0,0
120898.375,81.6574,-927.116,0,0
121158.7,81.4772,-924.808,0,0
121419.025,81.1761,-922.271,0,0
121679.35,80.8885,-919.694,0,0
121939.675,80.479,-917.1,0,0
122200.0,80.0375,-914.284,0,0
122460,79.7315,-911.415,0,0
122721,79.5016,-908.504,0,0
122981,79.3228,-905.642,0,0
123241,79.0468,-902.715,0,0
123502,78.853,-899.725,0,0
123762,78.7465,-896.727,0,0
124022,78.6925,-893.666,0,0
124283,78.7343,-890.629,0,0
124543,78.8251,-887.619,0,0
124803,78.9654,-884.653,0,0
125064,79.1129,-881.769,0,0
125324,79.1958,-878.797,0,0
125584,79.3841,-875.77,0,0
125845,79.6788,-872.872,0,0
126105,79.9371,-870.02,0,0
126365,80.1722,-867.101,0,0
126626,80.4903,-864.233,0,0
126886,80.7344,-861.457,0,0
127146,81.1175,-858.638,0,0
127406,81.3204,-855.818,0,0
127667,81.7255,-852.848,0,0
127927,82.0921,-849.991,0,0
128187,82.5639,-847.033,0,0
128448,83.1375,-844.185,0,0
128708,83.7511,-841.516,0,0
128968,84.1598,-838.843,0,0
129229,84.543,-836.07,0,0
129489,84.9989,-833.16,0,0
129749,85.5744,-830.134,0,0
130010,86.4952,-827.121,0,0
130270,87.5221,-824.347,0,0
130530,88.6109,-821.757,0,0
130791,89.6341,-819.364,0,0
131051,90.6578,-816.987,0,0
131311,91.6875,-814.698,0,0
131572,92.652,-812.68,0,0
131832,93.4448,-810.671,0,0
132092,94.184,-808.672,0,0
132353,94.7802,-806.7,0,0
132613,95.2601,-804.644,0,0
132873,95.8736,-802.445,0,0
133134,96.5165,-800.335,0,0
133394,97.0717,-798.318,0,0
133654,97.5853,-796.24,0,0
133915,98.1312,-794.072,0,0
134175,98.7332,-791.964,0,0
134435,99.321,-789.934,0,0
134696,99.8208,-787.903,0,0
134956,100.325,-785.861,0,0
135216,100.814,-783.736,0,0
135477,101.292,-781.628,0,0
135737,101.84,-779.493,0,0
135997,102.334,-777.308,0,0
136258,102.957,-775.025,0,0
136518,103.766,-772.745,0,0
136778,104.737,-770.634,0,0
137039,105.683,-768.708,0,0
137299,106.65,-766.834,0,0
137559,107.787,-765.175,0,0
137819,108.8,-763.938,0,0
138080,109.346,-762.821,0,0
138340.125,109.645,-761.577,0,0
138600.45,109.938,-760.209,0,0
138860.775,110.103,-758.924,0,0
139121.1,109.966,-757.462,0,0
139381.425,109.932,-755.778,0,0
139641.75,109.939,-754.11,0,0
139902.075,109.878,-752.448,0,0
140162.4,109.708,-750.697,0,0
140422.725,109.539,-748.779,0,0
140683.05,109.393,-746.803,0,0
140943.375,109.293,-744.666,0,0
141203.7,109.326,-742.499,0,0
141464.025,109.48,-740.38,0,0
141724.35,109.545,-738.411,0,0
141984.675,109.372,-736.256,0,0
142245.0,109.485,-733.784,0,0
142505.325,109.785,-731.482,0,0
142765.65,110.073,-729.386,0,0
143025.975,110.276,-727.25,0,0
143286.3,110.444,-725.019,0,0
143546.625,110.608,-722.663,0,0
143806.95,111.007,-720.324,0,0
144067.275,111.497,-718.027,0,0
144327.6,111.913,-715.914,0,0
144587.925,112.185,-713.706,0,0
144848.25,112.644,-711.307,0,0
145108.575,113.237,-709.066,0,0
145368.9,113.87,-706.887,0,0
145629.225,114.439,-704.795,0,0
145889.55,115.058,-702.643,0,0
146149.875,115.732,-700.627,0,0
146410.2,116.219,-698.711,0,0
146670.525,116.735,-696.581,0,0
146930.85,117.503,-694.477,0,0
147191.175,118.339,-692.755,0,0
147451.5,118.827,-691.189,0,0
147711.825,119.098,-689.54,0,0
147972.15,119.216,-687.717,0,0
148232.475,119.3,-685.611,0,0
148492.8,119.668,-683.366,0,0
148753.125,120.075,-681.243,0,0
149013.45,120.592,-679.006,0,0
149273.775,121.34,-676.85,0,0
149534.1,122.279,-675.001,0,0
149794.425,122.961,-673.569,0,0
150054.75,123.264,-672.217,0,0
150315.075,123.27,-670.739,0,0
150575.4,123.128,-669.102,0,0
150835.725,122.773,-667.413,0,0
151096.05,122.214,-665.272,0,0
151356.375,121.828,-662.727,0,0
151616.7,121.744,-660.115,0,0
151877.025,121.748,-657.567,0,0
152137.35,121.662,-655.033,0,0
152397.675,121.465,-652.334,0,0
152658.0,121.284,-649.31,0,0
152918.325,121.323,-646.009,0,0
153178.65,121.713,-642.624,0,0
153438.975,122.334,-639.334,0,0
153699.3,123.033,-636.128,0,0
153959.625,123.742,-632.844,0,0
154219.95,124.609,-629.438,0,0
154480,125.678,-626.029,0,0
154741,126.923,-622.604,0,0
155001,128.381,-619.247,0,0
155261,129.854,-616.053,0,0
155522,131.408,-612.671,0,0
155782,133.263,-609.185,0,0
156042,135.475,-605.88,0,0
156303,137.945,-602.897,0,0
156563,140.319,-600.162,0,0
156823,142.653,-597.43,0,0
157084,145.256,-594.71,0,0
157344,148.162,-592.302,0,0
157604,150.97,-590.395,0,0
157864,153.449,-588.787,0,0
158125,155.606,-586.988,0,0
158385,157.92,-585.066,0,0
158645,160.214,-583.435,0,0
158906,162.098,-581.823,0,0
159166,163.776,-579.721,0,0
159426,165.77,-577.225,0,0
159687,168.089,-574.459,0,0
159947,171.058,-571.584,0,0
160207,174.624,-569.119,0,0
160468,178.353,-567.152,0,0
160728,182.234,-565.509,0,0
160988,186.28,-564.221,0,0
161249,190.426,-563.368,0,0
161509,194.42,-563.071,0,0
161769,198.232,-563.041,0,0
162030,201.93,-563.509,0,0
162290,205.075,-564.371,0,0
162550,207.679,-565.22,0,0
162811,210.022,-565.913,0,0
163071,212.123,-566.414,0,0
163331,214.18,-566.711,0,0
163592,216.351,-566.827,0,0
163852,218.651,-567.081,0,0
164112,220.899,-567.382,0,0
164373,223.243,-567.692,0,0
164633,225.616,-568.157,0,0
164893,227.903,-568.624,0,0
165154,230.504,-569.187,0,0
165414,233.109,-570.044,0,0
165674,235.797,-571.208,0,0
165935,238.461,-572.873,0,0
166195,240.716,-575.049,0,0
166455,242.39,-577.367,0,0
166716,243.651,-579.574,0,0
166976,244.801,-581.625,0,0
167236,246.013,-583.821,0,0
167497,246.857,-586.452,0,0
167757,247.195,-588.962,0,0
168017,247.253,-591.514,0,0
168277,246.884,-594.024,0,0
168538,246.104,-596.383,0,0
168798,245.044,-598.543,0,0
169058,243.64,-600.555,0,0
169319,241.874,-602.21,0,0
169579,239.844,-603.517,0,0
169839,237.587,-604.336,0,0
170100,235.313,-604.591,0,0
170360.075,233.245,-604.403,0,0
170620.4,231.563,-603.917,0,0
170880.725,229.977,-603.454,0,0
171141.05,228.325,-602.769,0,0
171401.375,226.988,-601.698,0,0
171661.7,225.988,-600.65,0,0
171922.025,225.118,-599.68,0,0
172182.35,224.354,-598.688,0,0
172442.675,223.761,-597.719,0,0
172703.0,223.259,-596.983,0,0
172963.325,222.566,-596.304,0,0
173223.65,221.758,-595.527,0,0
173483.975,220.909,-594.559,0,0
173744.3,220.162,-593.419,0,0
174004.625,219.576,-592.124,0,0
174264.95,219.264,-590.803,0,0
174525.275,219.134,-589.685,0,0
174785.6,218.906,-588.791,0,0
175045.925,218.58,-587.72,0,0
175306.25,218.355,-586.419,0,0
175566.575,218.635,-585.197,0,0
175826.9,219.109,-584.51,0,0
176087.225,219.236,-584.241,0,0
176347.55,218.928,-583.946,0,0
176607.875,218.473,-583.405,0,0
176868.2,218.081,-582.757,0,0
177128.525,217.699,-582.101,0,0
177388.85,217.305,-581.352,0,0
177649.175,217.144,-580.596,0,0
177909.5,217.06,-580.164,0,0
178169.825,216.683,-579.998,0,0
178430.15,216.016,-579.79,0,0
178690.475,215.214,-579.435,0,0
178950.8,214.276,-579.076,0,0
179211.125,213.102,-578.541,0,0
179471.45,212.025,-577.814,0,0
179731.775,210.979,-577.215,0,0
179992.1,209.532,-576.684,0,0
180252.425,207.846,-575.781,0,0
180512.75,206.187,-574.501,0,0
180773.075,204.692,-573.035,0,0
181033.4,203.222,-571.533,0,0
181293.725,201.753,-569.771,0,0
181554.05,200.5,-567.937,0,0
181814.375,199.295,-566.118,0,0
182074.7,198.026,-564.27,0,0
182335.025,196.737,-562.333,0,0
182595.35,195.449,-560.236,0,0
182855.675,194.245,-557.957,0,0
183116.0,193.149,-555.727,0,0
183376.325,191.946,-553.375,0,0
183636.65,190.748,-550.85,0,0
183896.975,189.588,-548.181,0,0
184157.3,188.484,-545.3,0,0
184417.625,187.557,-542.198,0,0
184677.95,186.752,-538.996,0,0
184938.275,186.102,-535.534,0,0
185198.6,185.897,-531.925,0,0
185458.925,186.125,-528.519,0,0
185719.25,186.405,-525.407,0,0
185979.575,186.648,-522.373,0,0
186239.9,186.95,-519.341,0,0
186500,187.258,-516.396,0,0
186761,187.649,-513.432,0,0
187021,187.91,-510.402,0,0
187281,188.444,-507.242,0,0
187542,189.137,-504.169,0,0
187802,189.84,-501.298,0,0
188062,190.465,-498.463,0,0
188322,191.061,-495.619,0,0
188583,191.76,-492.63,0,0
188843,192.377,-489.585,0,0
189103,193.234,-486.572,0,0
189364,194.093,-483.649,0,0
189624,195,-480.667,0,0
189884,195.949,-477.779,0,0
190145,196.831,-474.78,0,0
190405,197.744,-471.729,0,0
190665,198.778,-468.706,0,0
190926,199.808,-465.745,0,0
191186,200.764,-462.678,0,0
191446,201.704,-459.522,0,0
191707,202.707,-456.139,0,0
191967,203.894,-452.625,0,0
192227,205.39,-449.018,0,0
192488,207.08,-445.558,0,0
192748,208.749,-442.115,0,0
193008,210.526,-438.77,0,0
193269,212.444,-435.328,0,0
193529,214.454,-431.999,0,0
193789,216.468,-428.775,0,0
194050,218.446,-425.55,0,0
194310,220.489,-422.206,0,0
194570,222.553,-418.743,0,0
194831,224.786,-415.242,0,0
195091,227.165,-411.682,0,0
195351,229.739,-408.069,0,0
195612,232.592,-404.606,0,0
195872,235.413,-401.283,0,0
196132,238.175,-397.897,0,0
196393,240.978,-394.448,0,0
196653,244.039,-390.851,0,0
196913,247.35,-387.327,0,0
197174,250.787,-383.855,0,0
197434,254.321,-380.409,0,0
197694,257.984,-376.994,0,0
197955,261.966,-373.502,0,0
198215,266.106,-370.328,0,0
198475,270.219,-367.246,0,0
198735,274.43,-364.326,0,0
198996,278.657,-361.412,0,0
199256,282.77,-358.605,0,0
199516,286.891,-355.625,0,0
199777,291.236,-352.445,0,0
200037,295.724,-349.028,0,0
200297,300.593,-345.691,0,0
200558,305.72,-342.422,0,0
200818,311.156,-339.108,0,0
201078,316.846,-335.94,0,0
201339,322.722,-332.923,0,0
201599,328.862,-329.713,0,0
201859,335.463,-326.592,0,0
202120,342.492,-323.471,0,0
202380.025,350.135,-320.705,0,0
202640.35,358.244,-318.431,0,0
202900.675,366.642,-316.745,0,0
203161.0,375.062,-315.534,0,0
203421.325,383.445,-314.461,0,0
203681.65,392.273,-313.482,0,0
203941.975,401.562,-312.782,0,0
204202.3,411.523,-312.755,0,0
204462.625,421.805,-313.656,0,0
204722.95,432.348,-315.318,0,0
204983.275,442.822,-317.999,0,0
205243.6,453.14,-321.887,0,0
205503.925,462.99,-326.561,0,0
205764.25,472.136,-331.895,0,0
206024.575,480.632,-337.704,0,0
206284.9,488.645,-343.917,0,0
206545.225,496.343,-350.346,0,0
206805.55,503.703,-357.451,0,0
207065.875,510.245,-365.142,0,0
207326.2,515.952,-373.066,0,0
207586.525,520.959,-381.006,0,0
207846.85,525.38,-388.966,0,0
208107.175,529.282,-397.036,0,0
208367.5,532.414,-405.028,0,0
208627.825,535.133,-412.822,0,0
208888.15,537.595,-420.665,0,0
209148.475,539.378,-428.716,0,0
209408.8,540.426,-436.728,0,0
209669.125,540.8,-444.595,0,0
209929.45,540.293,-452.193,0,0
210189.775,538.834,-459.269,0,0
210450.1,536.707,-465.327,0,0
210710.425,534.331,-470.361,0,0
210970.75,532.029,-474.459,0,0
211231.075,529.983,-477.832,0,0
211491.4,528.267,-480.723,0,0
211751.725,526.663,-483.406,0,0
212012.05,524.892,-485.444,0,0
212272.375,523.325,-486.617,0,0
212532.7,522.442,-487.025,0,0
212793.025,522.58,-486.885,0,0
213053.35,523.743,-486.805,0,0
213313.675,525.712,-487.144,0,0
213574.0,528.298,-487.983,0,0
213834.325,531.137,-489.623,0,0
214094.65,533.771,-491.841,0,0
214354.975,536.126,-494.062,0,0
214615.3,538.639,-496.254,0,0
214875.625,541.36,-498.776,0,0
215135.95,544.027,-501.605,0,0
215396.275,546.629,-504.409,0,0
215656.6,549.34,-507.592,0,0
215916.925,551.875,-511.247,0,0
216177.25,553.735,-514.895,0,0
216437.575,555.503,-518.198,0,0
216697.9,557.373,-521.221,0,0
216958.225,559.383,-524.245,0,0
217218.55,561.523,-527.248,0,0
217478.875,563.837,-530.295,0,0
217739.2,566.279,-533.49,0,0
217999.525,568.689,-536.901,0,0
218259.85,571.035,-540.264,0,0
218520,573.496,-543.517,0,0
218780,576.09,-546.741,0,0
219041,579.15,-550,0,0
219301,582.528,-553.409,0,0
219561,586.259,-557.233,0,0
219822,590.25,-561.506,0,0
220082,594.299,-566.389,0,0
220342,598.209,-571.723,0,0
220603,601.93,-577.428,0,0
220863,605.786,-583.351,0,0
221123,609.742,-589.755,0,0
221384,613.7,-596.741,0,0
221644,617.416,-604.542,0,0
221904,620.774,-612.987,0,0
222165,623.589,-621.897,0,0
222425,625.859,-631.45,0,0
222685,627.36,-641.274,0,0
222946,628.266,-651.42,0,0
223206,628.352,-661.548,0,0
223466,627.794,-671.668,0,0
223727,626.676,-681.641,0,0
223987,625.087,-691.656,0,0
224247,622.942,-701.516,0,0
224508,620.588,-711.244,0,0
224768,617.709,-720.943,0,0
225028,614.198,-730.515,0,0
225289,610.35,-739.996,0,0
225549,605.859,-749.38,0,0
225809,601.013,-758.351,0,0
226070,595.962,-766.899,0,0
226330,590.622,-775.473,0,0
226590,585.026,-783.875,0,0
226851,579.042,-792.264,0,0
227111,572.523,-800.534,0,0
227371,565.651,-808.737,0,0
227632,557.909,-816.606,0,0
227892,549.451,-824.003,0,0
228152,540.545,-830.819,0,0
228413,531.317,-836.626,0,0
228673,521.825,-841.882,0,0
228933,512.297,-846.489,0,0
229193,502.773,-850.4,0,0
229454,493.15,-853.789,0,0
229714,483.617,-856.598,0,0
229974,474.105,-858.708,0,0
230235,464.87,-860.224,0,0
230495,455.659,-861.259,0,0
230755,446.999,-861.768,0,0
231016,438.626,-861.926,0,0
231276,430.469,-861.803,0,0
231536,422.617,-861.33,0,0
231797,415.096,-860.633,0,0
232057,407.983,-859.644,0,0
232317,401.219,-858.427,0,0
232578,394.856,-857.198,0,0
232838,388.828,-855.897,0,0
233098,383.103,-854.619,0,0
233359,377.636,-853.451,0,0
233619,372.303,-852.363,0,0
233879,367.08,-851.154,0,0
234140,362.101,-850.095,0,0
234400,357.222,-848.977,0,0
234660.3,352.517,-848.199,0,0
234920.625,347.828,-847.545,0,0
235180.95,343.03,-846.877,0,0
235441.275,338.012,-846.302,0,0
235701.6,332.945,-845.473,0,0
235961.925,327.82,-844.453,0,0
236222.25,322.784,-843.289,0,0
236482.575,317.922,-841.982,0,0
236742.9,313.135,-840.55,0,0
237003.225,308.526,-839.17,0,0
237263.55,303.885,-837.774,0,0
237523.875,299.266,-836.296,0,0
237784.2,294.748,-834.632,0,0
238044.525,290.317,-833.057,0,0
238304.85,285.747,-831.388,0,0
238565.175,281.293,-829.558,0,0
238825.5,276.942,-827.562,0,0
239085.825,272.68,-825.545,0,0
239346.15,268.592,-823.291,0,0
239606.475,264.666,-821.114,0,0
239866.8,260.741,-818.803,0,0
240127.125,257.004,-816.477,0,0
240387.45,253.462,-813.87,0,0
240647.775,250.026,-811.696,0,0
240908.1,246.711,-809.379,0,0
241168.425,243.356,-807.118,0,0
241428.75,240.094,-804.732,0,0
241689.075,236.856,-802.339,0,0
241949.4,233.759,-799.881,0,0
242209.725,230.771,-797.396,0,0
242470.05,227.972,-794.94,0,0
242730.375,225.21,-792.506,0,0
242990.7,222.577,-790.138,0,0
243251.025,219.959,-787.726,0,0
243511.35,217.503,-785.366,0,0
243771.675,215.049,-783.078,0,0
244032.0,212.651,-780.87,0,0
244292.325,210.332,-778.683,0,0
244552.65,208.047,-776.481,0,0
244812.975,205.565,-774.381,0,0
245073.3,203.284,-772.242,0,0
245333.625,200.835,-770.212,0,0
245593.95,198.455,-767.926,0,0
245854.275,196.004,-765.865,0,0
246114.6,193.707,-763.525,0,0
246374.925,191.288,-761.266,0,0
246635.25,188.945,-758.83,0,0
246895.575,186.628,-756.383,0,0
247155.9,184.512,-753.846,0,0
247416.225,182.374,-751.274,0,0
247676.55,180.4,-748.698,0,0
247936.875,178.589,-746.139,0,0
248197.2,176.738,-743.567,0,0
248457.525,174.996,-741.008,0,0
248717.85,173.284,-738.562,0,0
248978.175,171.625,-736.025,0,0
249238.5,169.985,-733.526,0,0
249498.825,168.427,-731.029,0,0
249759.15,167.011,-728.548,0,0
250019.475,165.61,-726.008,0,0
250279.8,164.274,-723.66,0,0
250540,162.787,-721.287,0,0
250800,161.414,-718.802,0,0
251061,160.102,-716.378,0,0
251321,158.866,-713.945,0,0
251581,157.612,-711.473,0,0
251842,156.459,-709.088,0,0
252102,155.262,-706.711,0,0
252362,154.101,-704.312,0,0
252623,152.953,-701.896,0,0
252883,151.793,-699.421,0,0
253143,150.712,-696.909,0,0
253404,149.696,-694.328,0,0
253664,148.733,-691.783,0,0
253924,147.905,-689.21,0,0
254185,147.061,-686.599,0,0
254445,146.383,-684.009,0,0
254705,145.782,-681.349,0,0
254966,145.216,-678.859,0,0
255226,144.806,-676.41,0,0
255486,144.472,-673.933,0,0
255747,144.115,-671.548,0,0
256007,143.783,-669.262,0,0
256267,143.423,-666.936,0,0
256528,143.075,-664.625,0,0
256788,142.786,-662.311,0,0
257048,142.61,-660.005,0,0
257309,142.351,-657.756,0,0
257569,142.206,-655.532,0,0
257829,141.991,-653.252,0,0
258090,141.84,-650.876,0,0
258350,141.748,-648.528,0,0
258610,141.734,-646.125,0,0
258871,141.806,-643.696,0,0
259131,142.058,-641.226,0,0
259391,142.477,-638.833,0,0
259651,143.019,-636.467,0,0
259912,143.635,-634.271,0,0
260172,144.366,-632.107,0,0
260432,145.139,-630.057,0,0
260693,146.007,-628.114,0,0
260953,146.896,-626.319,0,0
261213,147.862,-624.508,0,0
261474,148.851,-622.881,0,0
261734,149.869,-621.318,0,0
261994,150.93,-619.876,0,0
262255,151.952,-618.504,0,0
262515,153.025,-617.223,0,0
262775,154.116,-616.026,0,0
263036,155.209,-614.906,0,0
263296,156.267,-613.899,0,0
263556,157.375,-612.925,0,0
263817,158.477,-612.03,0,0
264077,159.609,-611.23,0,0
264337,160.742,-610.538,0,0
264598,161.878,-609.899,0,0
264858,163.137,-609.301,0,0
265118,164.372,-608.862,0,0
265379,165.661,-608.601,0,0
265639,167.08,-608.461,0,0
265899,168.457,-608.64,0,0
266160,169.743,-609.07,0,0
266420,170.936,-609.713,0,0
266680.25,171.917,-610.585,0,0
266940.575,172.72,-611.674,0,0
267200.9,173.253,-612.952,0,0
267461.225,173.464,-614.33,0,0
267721.55,173.42,-615.712,0,0
267981.875,173.064,-617.131,0,0
268242.2,172.449,-618.577,0,0
268502.525,171.504,-619.97,0,0
268762.85,170.187,-621.276,0,0
269023.175,168.629,-622.317,0,0
269283.5,166.81,-623.157,0,0
269543.825,164.887,-623.652,0,0
269804.15,162.805,-623.972,0,0
270064.475,160.62,-623.935,0,0
270324.8,158.412,-623.679,0,0
270585.125,156.261,-623.138,0,0
270845.45,154.045,-622.29,0,0
271105.775,151.975,-621.263,0,0
271366.1,150.047,-619.903,0,0
271626.425,148.282,-618.466,0,0
271886.75,146.733,-616.819,0,0
272147.075,145.301,-615.073,0,0
272407.4,144.109,-613.271,0,0
272667.725,143.058,-611.448,0,0
272928.05,142.156,-609.554,0,0
273188.375,141.446,-607.668,0,0
273448.7,140.899,-605.796,0,0
273709.025,140.476,-603.964,0,0
273969.35,140.23,-602.231,0,0
274229.675,140.026,-600.587,0,0
274490.0,139.908,-598.992,0,0
274750.325,139.822,-597.455,0,0
275010.65,139.785,-595.967,0,0
275270.975,139.782,-594.551,0,0
275531.3,139.77,-593.151,0,0
275791.625,139.83,-591.779,0,0
276051.95,139.952,-590.393,0,0
276312.275,140.101,-589.052,0,0
276572.6,140.352,-587.744,0,0
276832.925,140.697,-586.515,0,0
277093.25,141.04,-585.349,0,0
277353.575,141.491,-584.242,0,0
277613.9,141.972,-583.255,0,0
277874.225,142.477,-582.366,0,0
278134.55,142.971,-581.604,0,0
278394.875,143.497,-580.907,0,0
278655.2,143.988,-580.335,0,0
278915.525,144.411,-579.889,0,0
279175.85,144.761,-579.494,0,0
279436.175,145.021,-579.162,0,0
279696.5,145.269,-578.862,0,0
279956.825,145.421,-578.631,0,0
280217.15,145.494,-578.369,0,0
280477.475,145.559,-578.16,0,0
280737.8,145.53,-578.011,0,0
280998.125,145.438,-577.847,0,0
281258.45,145.282,-577.721,0,0
281518.775,145.067,-577.644,0,0
281779.1,144.719,-577.535,0,0
282039.425,144.247,-577.401,0,0
282299.75,143.704,-577.188,0,0
282560,143.109,-576.917,0,0
282820,142.45,-576.581,0,0
283081,141.74,-576.154,0,0
283341,140.996,-575.62,0,0
283601,140.266,-574.973,0,0
283862,139.604,-574.242,0,0
284122,138.985,-573.464,0,0
284382,138.453,-572.651,0,0
284643,137.976,-571.844,0,0
284903,137.53,-571.055,0,0
285163,137.054,-570.319,0,0
285424,136.617,-569.611,0,0
285684,136.142,-568.943,0,0
285944,135.57,-568.318,0,0
286205,134.907,-567.682,0,0
286465,134.055,-566.919,0,0
286725,133.201,-566.025,0,0
286986,132.289,-564.943,0,0
287246,131.393,-563.701,0,0
287506,130.611,-562.249,0,0
287767,129.92,-560.668,0,0
288027,129.37,-558.947,0,0
288287,129.084,-557.142,0,0
288548,128.991,-555.289,0,0
288808,129.154,-553.46,0,0
289068,129.513,-551.727,0,0
289329,130.057,-550.144,0,0
289589,130.699,-548.727,0,0
289849,131.453,-547.49,0,0
290109,132.182,-546.555,0,0
290370,132.857,-545.746,0,0
290630,133.442,-545.037,0,0
290890,133.923,-544.432,0,0
291151,134.34,-543.815,0,0
291411,134.701,-543.251,0,0
291671,135.024,-542.702,0,0
291932,135.307,-542.219,0,0
292192,135.479,-541.788,0,0
292452,135.539,-541.375,0,0
292713,135.457,-540.935,0,0
292973,135.298,-540.421,0,0
293233,135.036,-539.786,0,0
293494,134.743,-539.045,0,0
293754,134.411,-538.197,0,0
294014,134.109,-537.173,0,0
294275,133.852,-536.048,0,0
294535,133.678,-534.759,0,0
294795,133.605,-533.409,0,0
295056,133.669,-531.927,0,0
295316,133.919,-530.423,0,0
295576,134.347,-528.937,0,0
295837,134.943,-527.482,0,0
296097,135.664,-526.09,0,0
296357,136.516,-524.806,0,0
296618,137.481,-523.669,0,0
296878,138.465,-522.709,0,0
297138,139.432,-521.843,0,0
297399,140.305,-521.05,0,0
297659,141.146,-520.26,0,0
297919,142.002,-519.463,0,0
298180,142.879,-518.654,0,0
298440,143.831,-517.852,0,0
298700.2,144.84,-517.085,0,0
298960.525,145.963,-516.467,0,0
299220.85,147.035,-515.814,0,0
299481.175,148.123,-515.284,0,0
299741.5,149.126,-514.788,0,0
300001.825,150.362,-514.336,0,0
300262.15,151.568,-513.957,0,0
300522.475,152.681,-513.687,0,0
300782.8,153.85,-513.325,0,0
301043.125,155.014,-512.971,0,0
301303.45,156.365,-512.647,0,0
301563.775,157.828,-512.593,0,0
301824.1,159.311,-512.543,0,0
302084.425,160.725,-512.79,0,0
302344.75,162.104,-513.115,0,0
302605.075,163.496,-513.588,0,0
302865.4,164.682,-514.147,0,0
303125.725,165.803,-514.798,0,0
303386.05,166.843,-515.409,0,0
303646.375,167.845,-516.122,0,0
303906.7,168.765,-516.818,0,0
304167.025,169.587,-517.52,0,0
304427.35,170.44,-518.203,0,0
304687.675,171.319,-519.008,0,0
304948.0,172.1,-519.907,0,0
305208.325,172.916,-520.729,0,0
305468.65,173.712,-521.628,0,0
305728.975,174.417,-522.619,0,0
305989.3,175.053,-523.677,0,0
306249.625,175.796,-524.789,0,0
306509.95,176.312,-525.95,0,0
306770.275,176.936,-527.201,0,0
307030.6,177.391,-528.579,0,0
307290.925,177.767,-530.046,0,0
307551.25,177.918,-531.571,0,0
307811.575,177.878,-533.051,0,0
308071.9,177.743,-534.517,0,0
308332.225,177.537,-535.901,0,0
308592.55,177.215,-537.108,0,0
308852.875,176.843,-538.356,0,0
309113.2,176.522,-539.521,0,0
309373.525,176.233,-540.607,0,0
309633.85,175.945,-541.76,0,0
309894.175,175.648,-543.053,0,0
310154.5,175.318,-544.19,0,0
310414.825,174.907,-545.576,0,0
310675.15,174.379,-546.973,0,0
310935.475,173.829,-548.29,0,0
311195.8,173.046,-549.683,0,0
311456.125,172.35,-551.156,0,0
311716.45,171.392,-552.558,0,0
311976.775,170.26,-553.95,0,0
312237.1,169.044,-555.269,0,0
312497.425,167.849,-556.489,0,0
312757.75,166.395,-557.731,0,0
313018.075,164.792,-558.796,0,0
313278.4,163.139,-559.755,0,0
313538.725,161.484,-560.527,0,0
313799.05,159.768,-561.168,0,0
314059.375,158.054,-561.699,0,0
314319.7,156.477,-562.011,0,0
314580,154.89,-562.303,0,0
314840,153.419,-562.569,0,0
315101,152.006,-562.836,0,0
315361,150.551,-563.101,0,0
315621,149.132,-563.397,0,0
315882,147.578,-563.725,0,0
316142,146.112,-563.975,0,0
316402,144.402,-564.191,0,0
316663,142.698,-564.246,0,0
316923,141.116,-564.315,0,0
317183,139.473,-564.276,0,0
317444,137.875,-564.135,0,0
317704,136.199,-563.864,0,0
317964,134.605,-563.638,0,0
318225,132.983,-563.337,0,0
318485,131.408,-562.955,0,0
318745,129.959,-562.552,0,0
319006,128.479,-562.169,0,0
319266,127.001,-561.7,0,0
319526,125.481,-561.224,0,0
319787,124.015,-560.652,0,0
320047,122.631,-560.045,0,0
320307,121.142,-559.385,0,0
320567,119.733,-558.704,0,0
320828,118.309,-557.901,0,0
321088,116.992,-557.195,0,0
321348,115.684,-556.293,0,0
321609,114.352,-555.456,0,0
321869,113.128,-554.506,0,0
322129,111.919,-553.602,0,0
322390,110.75,-552.581,0,0
322650,109.627,-551.454,0,0
322910,108.51,-550.363,0,0
323171,107.581,-549.176,0,0
323431,106.716,-547.994,0,0
323691,105.938,-546.842,0,0
323952,105.195,-545.699,0,0
324212,104.588,-544.603,0,0
324472,104.003,-543.569,0,0
324733,103.452,-542.455,0,0
324993,102.913,-541.386,0,0
325253,102.564,-540.363,0,0
325514,102.11,-539.394,0,0
325774,101.752,-538.385,0,0
326034,101.493,-537.509,0,0
326295,101.189,-536.631,0,0
326555,100.862,-535.867,0,0
326815,100.623,-535.103,0,0
327076,100.349,-534.36,0,0
327336,100.107,-533.675,0,0
327596,99.8595,-532.998,0,0
327857,99.6717,-532.413,0,0
328117,99.428,-531.871,0,0
328377,99.2091,-531.279,0,0
328638,98.9225,-530.837,0,0
328898,98.672,-530.341,0,0
329158,98.4316,-529.927,0,0
329419,98.1042,-529.496,0,0
329679,97.787,-529.169,0,0
329939,97.4189,-528.746,0,0
330200,96.9984,-528.518,0,0
330460,96.5478,-528.12,0,0
330720.15,96.1306,-527.788,0,0
330980.475,95.6155,-527.488,0,0
331240.8,95.1764,-527.176,0,0
331501.125,94.5033,-526.879,0,0
331761.45,94.0218,-526.582,0,0
332021.775,93.3702,-526.266,0,0
332282.1,92.6709,-525.911,0,0
332542.425,92.08,-525.543,0,0
332802.75,91.3476,-525.163,0,0
333063.075,90.6771,-524.689,0,0
333323.4,89.9148,-524.218,0,0
333583.725,89.3126,-523.804,0,0
333844.05,88.6078,-523.35,0,0
334104.375,87.8273,-522.873,0,0
334364.7,87.0892,-522.396,0,0
334625.025,86.3118,-521.865,0,0
334885.35,85.5689,-521.312,0,0
335145.675,84.846,-520.728,0,0
335406.0,84.0881,-520.04,0,0
335666.325,83.3001,-519.43,0,0
335926.65,82.584,-518.746,0,0
336186.975,81.854,-518.085,0,0
336447.3,81.2045,-517.374,0,0
336707.625,80.5078,-516.678,0,0
336967.95,79.8229,-515.909,0,0
337228.275,79.1475,-515.225,0,0
337488.6,78.5124,-514.465,0,0
337748.925,77.8616,-513.74,0,0
338009.25,77.144,-512.979,0,0
338269.575,76.5388,-512.119,0,0
338529.9,75.9337,-511.303,0,0
338790.225,75.3053,-510.494,0,0
339050.55,74.7631,-509.694,0,0
339310.875,74.1992,-508.807,0,0
339571.2,73.6668,-508.024,0,0
339831.525,73.091,-507.163,0,0
340091.85,72.614,-506.279,0,0
340352.175,72.1385,-505.472,0,0
340612.5,71.6614,-504.609,0,0
340872.825,71.2332,-503.787,0,0
341133.15,70.7393,-502.979,0,0
341393.475,70.3034,-502.202,0,0
341653.8,69.8911,-501.401,0,0
341914.125,69.4606,-500.605,0,0
342174.45,69.0271,-499.782,0,0
342434.775,68.5781,-499.025,0,0
342695.1,68.1406,-498.187,0,0
342955.425,67.6476,-497.422,0,0
343215.75,67.2366,-496.55,0,0
343476.075,66.8491,-495.792,0,0
343736.4,66.4232,-494.938,0,0
343996.725,65.9452,-494.124,0,0
344257.05,65.566,-493.324,0,0
344517.375,65.1309,-492.491,0,0
344777.7,64.6961,-491.656,0,0
345038.025,64.2664,-490.769,0,0
345298.35,63.8767,-489.94,0,0
345558.675,63.5254,-489.049,0,0
345819.0,63.0854,-488.222,0,0
346079.325,62.7159,-487.366,0,0
346339.65,62.3407,-486.474,0,0
346599.975,61.9634,-485.598,0,0
346860,61.6009,-484.647,0,0
347121,61.2231,-483.749,0,0
347381,60.8754,-482.804,0,0
347641,60.5487,-481.839,0,0
347902,60.2759,-480.88,0,0
348162,59.9958,-479.923,0,0
348422,59.7774,-478.97,0,0
348683,59.5077,-478.051,0,0
348943,59.3465,-477.077,0,0
349203,59.1494,-476.191,0,0
349464,58.9268,-475.243,0,0
349724,58.8205,-474.345,0,0
349984,58.6251,-473.431,0,0
350245,58.4689,-472.546,0,0
350505,58.3161,-471.645,0,0
350765,58.1877,-470.753,0,0
351025,58.0615,-469.813,0,0
351286,57.9375,-469.003,0,0
351546,57.8794,-468.075,0,0
351806,57.7821,-467.194,0,0
352067,57.6801,-466.335,0,0
352327,57.6408,-465.493,0,0
352587,57.5493,-464.677,0,0
352848,57.5167,-463.847,0,0
353108,57.4778,-463.032,0,0
353368,57.3478,-462.239,0,0
353629,57.3046,-461.442,0,0
353889,57.2118,-460.602,0,0
354149,57.1425,-459.816,0,0
354410,57.1144,-458.987,0,0
354670,57.0878,-458.159,0,0
354930,57.0456,-457.369,0,0
355191,56.9671,-456.547,0,0
355451,56.9121,-455.709,0,0
355711,56.955,-454.925,0,0
355972,56.9433,-454.121,0,0
356232,56.9353,-453.361,0,0
356492,56.9127,-452.566,0,0
356753,56.9377,-451.834,0,0
357013,56.9168,-451.046,0,0
357273,56.9613,-450.3,0,0
357534,56.9737,-449.539,0,0
357794,56.974,-448.792,0,0
358054,56.945,-448.009,0,0
358315,56.9488,-447.317,0,0
358575,56.9649,-446.524,0,0
358835,56.9806,-445.819,0,0
359096,57.001,-445.044,0,0
359356,57.0332,-444.276,0,0
359616,57.0456,-443.535,0,0
359877,57.0989,-442.754,0,0
360137,57.1967,-442.075,0,0
360397,57.2367,-441.266,0,0
360658,57.3078,-440.535,0,0
360918,57.4069,-439.849,0,0
361178,57.4915,-439.104,0,0
361438,57.5756,-438.467,0,0
361699,57.6491,-437.751,0,0
361959,57.6915,-437.125,0,0
362219,57.7851,-436.44,0,0
362480,57.7714,-435.695,0,0
362740.1,57.848,-435.019,0,0
363000.425,57.878,-434.291,0,0
363260.75,57.9753,-433.568,0,0
363521.075,58.0283,-432.889,0,0
363781.4,58.0699,-432.182,0,0
364041.725,58.2277,-431.473,0,0
364302.05,58.2895,-430.784,0,0
364562.375,58.4479,-430.043,0,0
364822.7,58.535,-429.358,0,0
365083.025,58.7023,-428.699,0,0
365343.35,58.8005,-427.999,0,0
365603.675,58.9364,-427.368,0,0
365864.0,59.1143,-426.747,0,0
366124.325,59.218,-426.063,0,0
366384.65,59.2727,-425.418,0,0
366644.975,59.3419,-424.827,0,0
366905.3,59.4258,-424.197,0,0
367165.625,59.3775,-423.504,0,0
367425.95,59.4267,-422.803,0,0
367686.275,59.4106,-422.084,0,0
367946.6,59.4501,-421.295,0,0
368206.925,59.5313,-420.461,0,0
368467.25,59.6216,-419.57,0,0
368727.575,59.7346,-418.679,0,0
368987.9,59.9315,-417.826,0,0
369248.225,60.1339,-416.891,0,0
369508.55,60.4632,-416.005,0,0
369768.875,60.7877,-415.043,0,0
370029.2,61.1582,-414.175,0,0
370289.525,61.5653,-413.29,0,0
370549.85,62.0571,-412.396,0,0
370810.175,62.5741,-411.584,0,0
371070.5,63.1354,-410.778,0,0
371330.825,63.7361,-409.995,0,0
371591.15,64.3755,-409.322,0,0
371851.475,65.061,-408.609,0,0
372111.8,65.7412,-408.025,0,0
372372.125,66.5276,-407.457,0,0
372632.45,67.207,-406.967,0,0
372892.775,67.9394,-406.519,0,0
373153.1,68.6705,-406.086,0,0
373413.425,69.4327,-405.766,0,0
373673.75,70.1167,-405.478,0,0
373934.075,70.8589,-405.255,0,0
374194.4,71.5056,-405.101,0,0
374454.725,72.1025,-404.944,0,0
374715.05,72.7212,-404.871,0,0
374975.375,73.2531,-404.8,0,0
375235.7,73.7611,-404.746,0,0
375496.025,74.2451,-404.702,0,0
375756.35,74.6817,-404.659,0,0
376016.675,75.0323,-404.63,0,0
376277.0,75.4577,-404.539,0,0
376537.325,75.8442,-404.482,0,0
376797.65,76.1984,-404.4,0,0
377057.975,76.5812,-404.333,0,0
377318.3,76.9651,-404.311,0,0
377578.625,77.354,-404.271,0,0
377838.95,77.7267,-404.247,0,0
378099.275,78.0502,-404.271,0,0
378359.6,78.3787,-404.333,0,0
378619.925,78.6901,-404.372,0,0
378880,78.9583,-404.412,0,0
379141,79.2047,-404.465,0,0
379401,79.3918,-404.488,0,0
379661,79.6294,-404.526,0,0
379922,79.8086,-404.511,0,0
380182,80.0378,-404.484,0,0
380442,80.3406,-404.443,0,0
380703,80.6683,-404.459,0,0
380963,81.0263,-404.495,0,0
381223,81.4909,-404.643,0,0
381483,81.8091,-404.842,0,0
381744,82.1718,-405.215,0,0
382004,82.4198,-405.528,0,0
382264,82.5819,-405.985,0,0
382525,82.7554,-406.415,0,0
382785,82.7249,-406.857,0,0
383045,82.6752,-407.33,0,0
383306,82.578,-407.79,0,0
383566,82.4278,-408.209,0,0
383826,82.2165,-408.601,0,0
384087,81.8985,-408.982,0,0
384347,81.5239,-409.36,0,0
384607,81.1692,-409.656,0,0
384868,80.7503,-409.997,0,0
385128,80.2696,-410.273,0,0
385388,79.7536,-410.466,0,0
385649,79.2277,-410.619,0,0
385909,78.663,-410.756,0,0
386169,78.0193,-410.847,0,0
386430,77.3611,-410.866,0,0
386690,76.7348,-410.851,0,0
386950,76.0483,-410.701,0,0
387211,75.4237,-410.521,0,0
387471,74.7797,-410.273,0,0
387731,74.1892,-409.989,0,0
387992,73.6436,-409.661,0,0
388252,73.11,-409.33,0,0
388512,72.6086,-408.9,0,0
388773,72.1506,-408.505,0,0
389033,71.7531,-408.05,0,0
389293,71.3431,-407.624,0,0
389554,71.0067,-407.25,0,0
389814,70.7101,-406.853,0,0
390074,70.4052,-406.446,0,0
390335,70.0752,-406.011,0,0
390595,69.8221,-405.648,0,0
390855,69.586,-405.255,0,0
391116,69.3205,-404.928,0,0
391376,69.1133,-404.58,0,0
391636,68.8452,-404.292,0,0
391896,68.6187,-403.986,0,0
392157,68.3353,-403.702,0,0
392417,67.9972,-403.488,0,0
392677,67.7416,-403.254,0,0
392938,67.3486,-402.983,0,0
393198,66.9928,-402.791,0,0
393458,66.5318,-402.482,0,0
393719,66.0585,-402.164,0,0
393979,65.6021,-401.867,0,0
394239,65.0982,-401.433,0,0
394500,64.6407,-401.037,0,0
394760.05,64.1242,-400.559,0,0
395020.375,63.6139,-400.074,0,0
395280.7,63.163,-399.567,0,0
395541.025,62.6751,-398.984,0,0
395801.35,62.2668,-398.424,0,0
396061.675,61.8557,-397.775,0,0
396322.0,61.4128,-397.188,0,0
396582.325,61.0164,-396.546,0,0
396842.65,60.6817,-395.877,0,0
397102.975,60.3792,-395.148,0,0
397363.3,60.0313,-394.464,0,0
397623.625,59.7371,-393.778,0,0
397883.95,59.5241,-393.101,0,0
398144.275,59.2401,-392.399,0,0
398404.6,59.0199,-391.692,0,0
398664.925,58.8234,-390.983,0,0
398925.25,58.6161,-390.259,0,0
399185.575,58.425,-389.587,0,0
399445.9,58.2626,-388.863,0,0
399706.225,58.1246,-388.139,0,0
399966.55,58.007,-387.441,0,0
400006.6,57.9381,-387.301,0,0