File: Accelerated corrosion test data/2025-10-14_06-00-04/sample_7.csv
Frequency (Hz),Impedance (ohms),Phase (Radians),Temperature (C),Humidity (%)
10000.0,273.637,-12094.1,0,0
10260.325,270.225,-11804,0,0
10520.65,258.251,-11504.6,0,0
10780.975,252.95,-11222.8,0,0
11041.3,250.206,-10955.6,0,0
11301.625,247.323,-10699.7,0,0
11561.95,250.545,-10450.1,0,0
11822.275,260.231,-10218.6,0,0
12082.6,270.143,-9992.26,0,0
12342.925,318.288,-9845.08,0,0
12603.25,257.691,-9647.16,0,0
12863.575,267.411,-9466.17,0,0
13123.9,236.828,-9276.74,0,0
13384.225,227.002,-9102.13,0,0
13644.55,227.171,-8922.01,0,0
13904.875,209.942,-8753.98,0,0
14165.2,209.642,-8581.47,0,0
14425.525,204.703,-8441.39,0,0
14685.8,203.769,-8292.03,0,0
14946.175,199.525,-8146.45,0,0
15206.5,195.44,-8016.74,0,0
15466.825,185.966,-7873.34,0,0
15727.15,183.291,-7745.97,0,0
15987.5,179.956,-7615.86,0,0
16247.8,177.403,-7497.76,0,0
16508.125,171.955,-7375.17,0,0
16768.45,170.92,-7256.48,0,0
17028.775,170.88,-7146.43,0,0
17289.1,166.573,-7037.54,0,0
17549.425,165.977,-6928.93,0,0
17809.75,170.497,-6820.18,0,0
18070.075,169.525,-6722.93,0,0
18330.4,181.447,-6617.41,0,0
18590.725,200.077,-6534.88,0,0
18851.05,192.2,-6461.38,0,0
19111.375,179.901,-6376.87,0,0
19371.7,202.897,-6310.94,0,0
19632.025,168.284,-6235.54,0,0
19892.35,159.085,-6135.57,0,0
20152.675,169.313,-6056.91,0,0
20413.0,169.363,-5984.72,0,0
20673.3,171.379,-5903.59,0,0
20933.65,180.028,-5846.43,0,0
21193.975,161.347,-5782.54,0,0
21454.3,153.574,-5707.44,0,0
21714.625,156.664,-5643.46,0,0
21974.9,146.487,-5579.25,0,0
22235.275,141.568,-5510.64,0,0
22495.6,139.68,-5447.35,0,0
22755.925,133.789,-5383.43,0,0
23016.25,130.533,-5319.58,0,0
23276.6,128.667,-5257.12,0,0
23536.9,129.661,-5196.96,0,0
23797.225,127.905,-5141.64,0,0
24057.55,124.34,-5084.08,0,0
24317.875,122.94,-5026.57,0,0
24578.2,123.533,-4972.12,0,0
24838.525,122.552,-4918.39,0,0
25098.85,120.46,-4866.79,0,0
25359.175,119.856,-4814.95,0,0
25619.5,118.768,-4762.49,0,0
25879.8,118.8,-4712.4,0,0
26140.1,120.229,-4660.78,0,0
26400.5,124.018,-4614.66,0,0
26660.8,121.177,-4567.48,0,0
26921.1,122.475,-4517.95,0,0
27181.4,128.109,-4469.95,0,0
27441.8,131.378,-4423.07,0,0
27702.1,142.377,-4376.34,0,0
27962.4,156.869,-4332.88,0,0
28222.7,178.205,-4305.85,0,0
28483.1,183.91,-4285.19,0,0
28743.4,182.77,-4270.9,0,0
29003.7,167.233,-4248.63,0,0
29264,149.505,-4214.58,0,0
29524.4,139.931,-4175.55,0,0
29784.7,132.252,-4137.07,0,0
30045,129.589,-4093.5,0,0
30305.3,131.139,-4056.71,0,0
30565.7,131.813,-4022.96,0,0
30826,132.09,-3990.61,0,0
31086.3,133.581,-3960.35,0,0
31346.6,131.484,-3931.15,0,0
31607,128.265,-3906.38,0,0
31867.3,121.383,-3874.54,0,0
32127.6,117.912,-3843.04,0,0
32387.9,115.211,-3812.1,0,0
32648.3,110.359,-3782.38,0,0
32908.6,107.919,-3751.95,0,0
33168.9,104.591,-3722.25,0,0
33429.2,101.643,-3692.1,0,0
33689.6,99.0743,-3661.99,0,0
33949.9,97.5588,-3633.13,0,0
34210.2,95.3153,-3604.15,0,0
34470.5,93.5097,-3575.59,0,0
34730.9,92.6934,-3547.45,0,0
34991.2,91.606,-3519.77,0,0
35251.5,90.1134,-3492.7,0,0
35511.8,89.2494,-3465.63,0,0
35772.2,88.7952,-3439.33,0,0
36032.5,88.6876,-3413.59,0,0
36292.8,88.0022,-3388.43,0,0
36553.1,87.0173,-3363.21,0,0
36813.5,86.5047,-3338.33,0,0
37073.8,86.4379,-3313.59,0,0
37334.1,86.412,-3289.46,0,0
37594.4,85.7136,-3266.14,0,0
37854.8,85.352,-3242.54,0,0
38115.1,85.2443,-3218.85,0,0
38375.4,85.7915,-3195.61,0,0
38635.7,87.0177,-3172.48,0,0
38896.1,88.3391,-3149.68,0,0
39156.4,90.3661,-3128.49,0,0
39416.7,93.2126,-3106.88,0,0
39677,97.5333,-3088.65,0,0
39937.4,98.741,-3073.04,0,0
40197.7,98.8533,-3057.09,0,0
40458,95.9464,-3041.7,0,0
40718.3,92.6578,-3023.85,0,0
40978.7,89.2683,-3004.98,0,0
41239,87.036,-2985.88,0,0
41499.3,84.9525,-2966.12,0,0
41759.6,84.0531,-2947.16,0,0
42020,82.0447,-2928.57,0,0
42280.275,80.5362,-2909.13,0,0
42540.6,79.9152,-2889.49,0,0
42800.925,80.466,-2871.5,0,0
43061.25,80.17,-2853.02,0,0
43321.575,80.5559,-2836.69,0,0
43581.9,79.07,-2818.78,0,0
43842.225,78.9513,-2800.61,0,0
44102.55,79.9931,-2783.19,0,0
44362.875,82.0486,-2767.26,0,0
44623.2,82.3777,-2752.07,0,0
44883.525,81.6027,-2737.98,0,0
45143.85,80.6805,-2723.06,0,0
45404.175,78.6519,-2707.1,0,0
45664.5,79.8831,-2690.26,0,0
45924.825,81.198,-2676.98,0,0
46185.15,79.7989,-2664.05,0,0
46445.475,77.0832,-2650.62,0,0
46705.8,74.5742,-2635.72,0,0
46966.125,72.6213,-2619.83,0,0
47226.45,71.5295,-2604.06,0,0
47486.775,71.0993,-2588.94,0,0
47747.1,70.6424,-2574.07,0,0
48007.425,70.5292,-2559.79,0,0
48267.75,70.0767,-2545.65,0,0
48528.075,69.0649,-2531.75,0,0
48788.4,68.6912,-2517.74,0,0
49048.725,68.0234,-2503.86,0,0
49309.05,67.6574,-2490.09,0,0
49569.375,67.0736,-2476.54,0,0
49829.7,66.7995,-2462.94,0,0
50090.025,66.5107,-2449.78,0,0
50350.35,66.1584,-2436.65,0,0
50610.675,65.806,-2423.67,0,0
50871.0,65.2295,-2410.92,0,0
51131.325,65.0529,-2398.22,0,0
51391.65,64.7173,-2385.52,0,0
51651.975,64.466,-2373.1,0,0
51912.3,64.1076,-2360.66,0,0
52172.625,63.9382,-2348.27,0,0
52432.95,63.8468,-2336.4,0,0
52693.275,63.7879,-2324.32,0,0
52953.6,63.6319,-2312.52,0,0
53213.925,63.5948,-2301.02,0,0
53474.25,63.44,-2289.84,0,0
53734.575,62.9951,-2278.4,0,0
53994.9,62.531,-2267.12,0,0
54255.225,62.2731,-2255.83,0,0
54515.55,62.0897,-2244.85,0,0
54775.875,61.9127,-2233.56,0,0
55036.2,61.4396,-2222.74,0,0
55296.525,61.2142,-2211.7,0,0
55556.85,60.9444,-2200.96,0,0
55817.175,60.6886,-2190.44,0,0
56077.5,60.4652,-2179.65,0,0
56337.825,60.5405,-2169.14,0,0
56598.15,60.4894,-2158.9,0,0
56858.475,60.1721,-2148.67,0,0
57118.8,59.9421,-2138.52,0,0
57379.125,59.7712,-2128.45,0,0
57639.45,59.4316,-2118.43,0,0
57899.775,59.3051,-2108.24,0,0
58160.1,59.2596,-2098.08,0,0
58420.4,59.5963,-2088.43,0,0
58680.7,59.7608,-2079.04,0,0
58941.1,59.6136,-2069.89,0,0
59201.4,59.2708,-2060.21,0,0
59461.7,59.5731,-2050.64,0,0
59722,59.6638,-2041.88,0,0
59982.4,59.5662,-2032.7,0,0
60242.7,59.7463,-2023.98,0,0
60503,59.4679,-2015.43,0,0
60763.3,59.0895,-2006.86,0,0
61023.7,58.5985,-1998.08,0,0
61284,58.277,-1989.47,0,0
61544.3,57.8066,-1980.81,0,0
61804.6,57.3244,-1972.2,0,0
62065,56.854,-1963.43,0,0
62325.3,56.6282,-1954.72,0,0
62585.6,56.3419,-1946.09,0,0
62845.9,56.0731,-1937.59,0,0
63106.3,55.7799,-1929.17,0,0
63366.6,55.651,-1920.68,0,0
63626.9,55.7738,-1912.45,0,0
63887.2,55.6154,-1904.34,0,0
64147.6,55.3437,-1896.22,0,0
64407.9,55.2263,-1888.1,0,0
64668.2,55.0556,-1879.97,0,0
64928.5,55.0359,-1872,0,0
65188.9,55.1399,-1864.1,0,0
65449.2,55.2352,-1856.43,0,0
65709.5,55.1478,-1849.07,0,0
65969.8,55.1127,-1841.55,0,0
66230.2,54.8717,-1834.22,0,0
66490.5,54.4972,-1826.89,0,0
66750.8,54.3005,-1819.59,0,0
67011.1,53.7223,-1812.23,0,0
67271.5,53.2745,-1804.79,0,0
67531.8,52.9677,-1797.32,0,0
67792.1,52.7829,-1790.05,0,0
68052.4,52.4126,-1782.56,0,0
68312.8,52.2575,-1775.36,0,0
68573.1,52.1327,-1768,0,0
68833.4,51.8919,-1760.8,0,0
69093.7,51.7273,-1753.78,0,0
69354.1,51.6431,-1746.6,0,0
69614.4,51.526,-1739.68,0,0
69874.7,51.471,-1732.67,0,0
70135,51.4454,-1725.85,0,0
70395.4,51.2649,-1718.93,0,0
70655.7,51.3287,-1712.19,0,0
70916,51.3972,-1705.5,0,0
71176.3,51.3399,-1698.96,0,0
71436.7,51.2129,-1692.49,0,0
71697,50.9895,-1686.08,0,0
71957.3,50.7681,-1679.62,0,0
72217.6,50.5017,-1673.25,0,0
72478,50.307,-1666.71,0,0
72738.3,50.0892,-1660.26,0,0
72998.6,49.9009,-1653.88,0,0
73258.9,49.7782,-1647.47,0,0
73519.3,49.5419,-1641.21,0,0
73779.6,49.4796,-1634.92,0,0
74039.9,49.2841,-1628.67,0,0
74300.225,49.2193,-1622.43,0,0
74560.55,49.0852,-1616.35,0,0
74820.875,48.9813,-1610.19,0,0
75081.2,48.9048,-1604.1,0,0
75341.525,48.8207,-1598.18,0,0
75601.85,48.7515,-1592.16,0,0
75862.175,48.5792,-1586.13,0,0
76122.5,48.478,-1580.25,0,0
76382.825,48.3884,-1574.4,0,0
76643.15,48.3144,-1568.49,0,0
76903.475,48.2693,-1562.65,0,0
77163.8,48.2271,-1556.84,0,0
77424.125,48.143,-1551.13,0,0
77684.45,48.1596,-1545.54,0,0
77944.775,48.0403,-1539.9,0,0
78205.1,47.9697,-1534.22,0,0
78465.425,47.8736,-1528.63,0,0
78725.75,47.8504,-1523.02,0,0
78986.075,47.7573,-1517.5,0,0
79246.4,47.7955,-1512.03,0,0
79506.725,47.7047,-1506.63,0,0
79767.05,47.6016,-1501.17,0,0
80027.375,47.6879,-1495.77,0,0
80287.7,47.6337,-1490.45,0,0
80548.025,47.5505,-1485.22,0,0
80808.35,47.4787,-1479.99,0,0
81068.675,47.3227,-1474.74,0,0
81329.0,47.2645,-1469.37,0,0
81589.325,47.2385,-1464.22,0,0
81849.65,47.157,-1458.97,0,0
82109.975,47.1503,-1453.77,0,0
82370.3,47.1104,-1448.71,0,0
82630.625,47.0379,-1443.58,0,0
82890.95,46.9718,-1438.55,0,0
83151.275,46.9422,-1433.48,0,0
83411.6,46.879,-1428.41,0,0
83671.925,46.9518,-1423.29,0,0
83932.25,46.9512,-1418.3,0,0
84192.575,47.0201,-1413.37,0,0
84452.9,47.0976,-1408.38,0,0
84713.225,47.1577,-1403.62,0,0
84973.55,47.1441,-1398.73,0,0
85233.875,47.2274,-1394.02,0,0
85494.2,47.2133,-1389.32,0,0
85754.525,47.2174,-1384.54,0,0
86014.85,47.2307,-1379.71,0,0
86275.175,47.3262,-1375.09,0,0
86535.5,47.3465,-1370.58,0,0
86795.825,47.3121,-1365.87,0,0
87056.15,47.3448,-1361.14,0,0
87316.475,47.4176,-1356.63,0,0
87576.8,47.5401,-1352.17,0,0
87837.125,47.4274,-1347.73,0,0
88097.45,47.4497,-1343.28,0,0
88357.775,47.4159,-1338.83,0,0
88618.1,47.3194,-1334.41,0,0
88878.425,47.1695,-1329.99,0,0
89138.75,47.0889,-1325.53,0,0
89399.075,46.9065,-1320.96,0,0
89659.4,46.8706,-1316.47,0,0
89919.725,46.9346,-1312.02,0,0
90180,46.9113,-1307.56,0,0
90440.4,46.9876,-1302.92,0,0
90700.7,47.1958,-1298.69,0,0
90961,47.1006,-1294.31,0,0
91221.3,47.1484,-1289.95,0,0
91481.7,47.2485,-1285.63,0,0
91742,47.4381,-1281.32,0,0
92002.3,47.5774,-1276.99,0,0
92262.6,47.7719,-1272.76,0,0
92523,47.881,-1268.68,0,0
92783.3,47.9035,-1264.5,0,0
93043.6,47.8952,-1260.2,0,0
93303.9,48.1536,-1255.93,0,0
93564.3,48.4669,-1251.67,0,0
93824.6,48.8323,-1247.44,0,0
94084.9,49.4005,-1243.57,0,0
94345.2,49.6645,-1239.75,0,0
94605.6,50.0369,-1235.95,0,0
94865.9,50.2496,-1232.15,0,0
95126.2,50.8173,-1228.65,0,0
95386.5,50.7393,-1225.44,0,0
95646.9,50.4228,-1221.97,0,0
95907.2,49.9931,-1218.09,0,0
96167.5,49.936,-1214.25,0,0
96427.8,49.7059,-1210.43,0,0
96688.2,49.5219,-1206.45,0,0
96948.5,49.5706,-1202.53,0,0
97208.8,49.4707,-1198.66,0,0
97469.1,49.3201,-1194.62,0,0
97729.5,49.4954,-1190.54,0,0
97989.8,49.7818,-1186.67,0,0
98250.1,49.9341,-1182.92,0,0
98510.4,50.1997,-1179.25,0,0
98770.8,50.2457,-1175.63,0,0
99031.1,50.2374,-1172.11,0,0
99291.4,50.0522,-1168.39,0,0
99551.7,49.8795,-1164.54,0,0
99812.1,49.8799,-1160.49,0,0
100072,50.0726,-1156.48,0,0
100333,50.5316,-1152.56,0,0
100593,50.775,-1148.94,0,0
100853,50.9904,-1145.18,0,0
101114,51.4269,-1141.49,0,0
101374,51.7159,-1137.98,0,0
101634,51.8647,-1134.33,0,0
101895,52.2036,-1130.65,0,0
102155,52.5557,-1126.99,0,0
102415,53.0357,-1123.41,0,0
102676,53.4598,-1119.99,0,0
102936,53.8706,-1116.34,0,0
103196,54.597,-1112.96,0,0
103457,55.1703,-1109.8,0,0
103717,55.8075,-1106.72,0,0
103977,55.9758,-1104.06,0,0
104238,55.9419,-1100.88,0,0
104498,56.1332,-1097.55,0,0
104758,56.6132,-1094.43,0,0
105019,56.7336,-1091.71,0,0
105279,56.6803,-1088.77,0,0
105539,56.4245,-1085.66,0,0
105800,56.3048,-1082.36,0,0
106060,56.1545,-1079.04,0,0
106320.175,56.1191,-1075.5,0,0
106580.5,56.2592,-1071.89,0,0
106840.825,56.7309,-1068.49,0,0
107101.15,57.1533,-1065.43,0,0
107361.475,57.2136,-1062.41,0,0
107621.8,57.2345,-1059.17,0,0
107882.125,57.3356,-1055.85,0,0
108142.45,57.5441,-1052.52,0,0
108402.775,57.8191,-1049.26,0,0
108663.1,58.0576,-1046.03,0,0
108923.425,58.2922,-1042.86,0,0
109183.75,58.553,-1039.7,0,0
109444.075,58.635,-1036.65,0,0
109704.4,58.5621,-1033.29,0,0
109964.725,58.6666,-1029.83,0,0
110225.05,58.8058,-1026.22,0,0
110485.375,59.331,-1022.5,0,0
110745.7,59.9691,-1018.94,0,0
111006.025,60.9378,-1015.68,0,0
111266.35,61.6586,-1012.57,0,0
111526.675,61.97,-1009.36,0,0
111787.0,62.6023,-1005.85,0,0
112047.325,63.5879,-1002.55,0,0
112307.65,64.4965,-999.38,0,0
112567.975,65.5157,-996.23,0,0
112828.3,66.5097,-993.147,0,0
113088.625,67.7951,-990.184,0,0
113348.95,68.9225,-987.579,0,0
113609.275,69.702,-984.926,0,0
113869.6,70.7085,-982.068,0,0
114129.925,71.8143,-979.287,0,0
114390.25,73.0751,-976.611,0,0
114650.575,74.3433,-974.188,0,0
114910.9,75.3899,-971.709,0,0
115171.225,76.6958,-969.216,0,0
115431.55,77.8713,-966.883,0,0
115691.875,79.3596,-964.433,0,0
115952.2,81.0679,-962.376,0,0
116212.525,82.7904,-960.558,0,0
116472.85,84.4726,-959.253,0,0
116733.175,85.7982,-958.241,0,0
116993.5,86.6731,-957.23,0,0
117253.825,87.6095,-956.072,0,0
117514.15,88.4941,-955.189,0,0
117774.475,89.029,-954.315,0,0
118034.8,89.3464,-953.169,0,0
118295.125,90.1032,-951.883,0,0
118555.45,91.0196,-951.122,0,0
118815.775,91.7392,-950.864,0,0
119076.1,91.952,-950.769,0,0
119336.425,91.9155,-950.719,0,0
119596.75,91.6033,-950.785,0,0
119857.075,90.774,-951.166,0,0
120117.4,89.2815,-951.175,0,0
120377.725,87.5206,-951.098,0,0
120638.05,84.9864,-950.455,0,0
120898.375,82.5876,-949.196,0,0
121158.7,79.9266,-947.497,0,0
121419.025,77.6029,-944.91,0,0
121679.35,75.9911,-942.3,0,0
121939.675,74.5367,-939.874,0,0
122200.0,73.0597,-937.559,0,0
122460,71.5205,-935.067,0,0
122721,70.0437,-932.498,0,0
122981,68.6114,-929.839,0,0
123241,67.1357,-926.992,0,0
123502,65.905,-923.908,0,0
123762,64.9102,-920.776,0,0
124022,64.1552,-917.84,0,0
124283,63.398,-914.919,0,0
124543,62.7507,-912.067,0,0
124803,62.201,-909.338,0,0
125064,61.4081,-906.787,0,0
125324,60.5166,-904.156,0,0
125584,59.5784,-901.208,0,0
125845,58.875,-898.25,0,0
126105,58.2231,-895.41,0,0
126365,57.4335,-892.555,0,0
126626,56.6667,-889.51,0,0
126886,56.1692,-886.483,0,0
127146,55.5428,-883.431,0,0
127406,55.0466,-880.326,0,0
127667,54.7654,-877.194,0,0
127927,54.5707,-874.217,0,0
128187,54.3055,-871.472,0,0
128448,53.8556,-868.65,0,0
128708,53.4933,-865.701,0,0
128968,53.1017,-862.72,0,0
129229,52.9491,-859.761,0,0
129489,52.6926,-856.987,0,0
129749,52.29,-854.129,0,0
130010,52.0134,-851.079,0,0
130270,51.9027,-848.081,0,0
130530,51.8163,-845.321,0,0
130791,51.4796,-842.551,0,0
131051,51.1677,-839.658,0,0
131311,50.779,-836.619,0,0
131572,50.5897,-833.452,0,0
131832,50.5476,-830.351,0,0
132092,50.5147,-827.395,0,0
132353,50.3713,-824.332,0,0
132613,50.351,-821.227,0,0
132873,50.4376,-818.106,0,0
133134,50.5463,-815.037,0,0
133394,50.637,-811.928,0,0
133654,50.8194,-808.767,0,0
133915,51.2031,-805.555,0,0
134175,51.757,-802.403,0,0
134435,52.3912,-799.499,0,0
134696,52.9625,-796.749,0,0
134956,53.4538,-793.978,0,0
135216,53.9587,-791.044,0,0
135477,54.7072,-788.099,0,0
135737,55.7481,-785.209,0,0
135997,57.035,-782.876,0,0
136258,58.1579,-780.938,0,0
136518,59.088,-779.222,0,0
136778,59.7896,-777.889,0,0
137039,59.8506,-776.732,0,0
137299,59.2953,-775.216,0,0
137559,58.7352,-773.225,0,0
137819,58.2692,-770.964,0,0
138080,57.8955,-768.716,0,0
138340.125,57.3755,-766.337,0,0
138600.45,56.8783,-763.757,0,0
138860.775,56.4693,-761.026,0,0
139121.1,56.2049,-758.126,0,0
139381.425,56.1905,-755.21,0,0
139641.75,56.2919,-752.443,0,0
139902.075,56.3855,-749.731,0,0
140162.4,56.5167,-747.103,0,0
140422.725,56.5726,-744.528,0,0
140683.05,56.5302,-741.899,0,0
140943.375,56.5187,-739.186,0,0
141203.7,56.5438,-736.462,0,0
141464.025,56.5067,-733.712,0,0
141724.35,56.5203,-730.79,0,0
141984.675,56.739,-727.85,0,0
142245.0,56.9413,-724.99,0,0
142505.325,57.2608,-722.071,0,0
142765.65,57.5968,-719.216,0,0
143025.975,58.006,-716.34,0,0
143286.3,58.6225,-713.472,0,0
143546.625,59.1899,-710.839,0,0
143806.95,59.7582,-708.271,0,0
144067.275,60.283,-705.794,0,0
144327.6,60.6859,-703.365,0,0
144587.925,61.0206,-700.961,0,0
144848.25,61.3023,-698.474,0,0
145108.575,61.6182,-695.945,0,0
145368.9,61.9041,-693.503,0,0
145629.225,62.0993,-691.022,0,0
145889.55,62.2043,-688.455,0,0
146149.875,62.3483,-685.751,0,0
146410.2,62.6006,-682.963,0,0
146670.525,62.9637,-680.239,0,0
146930.85,63.2973,-677.562,0,0
147191.175,63.7165,-674.921,0,0
147451.5,63.967,-672.339,0,0
147711.825,64.2035,-669.565,0,0
147972.15,64.7037,-666.841,0,0
148232.475,65.1027,-664.321,0,0
148492.8,65.373,-661.85,0,0
148753.125,65.456,-659.321,0,0
149013.45,65.4666,-656.685,0,0
149273.775,65.4201,-653.863,0,0
149534.1,65.4205,-650.901,0,0
149794.425,65.4546,-647.89,0,0
150054.75,65.5022,-644.768,0,0
150315.075,65.633,-641.515,0,0
150575.4,65.8777,-638.18,0,0
150835.725,66.1442,-634.845,0,0
151096.05,66.4838,-631.425,0,0
151356.375,66.9176,-627.932,0,0
151616.7,67.421,-624.409,0,0
151877.025,68.0202,-620.849,0,0
152137.35,68.7112,-617.257,0,0
152397.675,69.5137,-613.609,0,0
152658.0,70.4369,-609.986,0,0
152918.325,71.4252,-606.435,0,0
153178.65,72.4514,-602.857,0,0
153438.975,73.5587,-599.301,0,0
153699.3,74.6435,-595.724,0,0
153959.625,75.8058,-592.047,0,0
154219.95,77.1203,-588.32,0,0
154480,78.5686,-584.655,0,0
154741,80.0843,-580.992,0,0
155001,81.6942,-577.334,0,0
155261,83.4333,-573.734,0,0
155522,85.2636,-570.162,0,0
155782,87.1299,-566.577,0,0
156042,89.1271,-563.033,0,0
156303,91.2485,-559.527,0,0
156563,93.4893,-556.074,0,0
156823,95.8224,-552.718,0,0
157084,98.2718,-549.397,0,0
157344,100.922,-546.203,0,0
157604,103.665,-543.312,0,0
157864,106.325,-540.622,0,0
158125,108.974,-537.98,0,0
158385,111.738,-535.552,0,0
158645,114.409,-533.498,0,0
158906,116.762,-531.691,0,0
159166,118.713,-530.003,0,0
159426,120.326,-528.181,0,0
159687,121.735,-526.199,0,0
159947,122.835,-524.11,0,0
160207,123.66,-521.639,0,0
160468,124.425,-518.784,0,0
160728,125.254,-515.596,0,0
160988,125.933,-512.13,0,0
161249,126.678,-507.977,0,0
161509,127.837,-503.31,0,0
161769,129.571,-498.312,0,0
162030,131.797,-493.239,0,0
162290,134.526,-488.178,0,0
162550,137.536,-483.282,0,0
162811,140.678,-478.315,0,0
163071,144.185,-473.136,0,0
163331,148.177,-467.887,0,0
163592,152.826,-462.678,0,0
163852,158.065,-457.975,0,0
164112,163.396,-453.701,0,0
164373,168.695,-449.634,0,0
164633,174.13,-445.706,0,0
164893,179.762,-442.018,0,0
165154,185.134,-438.411,0,0
165414,190.556,-434.38,0,0
165674,196.281,-430.022,0,0
165935,202.739,-425.266,0,0
166195,210.092,-420.488,0,0
166455,218.381,-416.016,0,0
166716,227.424,-412.145,0,0
166976,236.915,-408.847,0,0
167236,247.08,-405.837,0,0
167497,258.156,-403.663,0,0
167757,269.487,-402.672,0,0
168017,280.988,-402.261,0,0
168277,293.211,-402.464,0,0
168538,306.071,-403.985,0,0
168798,318.941,-407.049,0,0
169058,331.766,-411.471,0,0
169319,344.138,-417.565,0,0
169579,355.162,-424.867,0,0
169839,365.422,-432.301,0,0
170100,375.732,-440.228,0,0
170360.075,385.893,-449.509,0,0
170620.4,395.019,-460.555,0,0
170880.725,402.361,-472.373,0,0
171141.05,408.254,-484.191,0,0
171401.375,413.36,-495.933,0,0
171661.7,417.818,-507.959,0,0
171922.025,421.585,-520.248,0,0
172182.35,424.97,-533.403,0,0
172442.675,426.789,-548.017,0,0
172703.0,426.146,-562.819,0,0
172963.325,423.763,-577.201,0,0
173223.65,419.54,-591.257,0,0
173483.975,413.309,-604.896,0,0
173744.3,404.414,-616.882,0,0
174004.625,394.208,-626.161,0,0
174264.95,383.74,-633.153,0,0
174525.275,373.341,-638.217,0,0
174785.6,362.891,-641.574,0,0
175045.925,352.96,-642.346,0,0
175306.25,345.243,-641.72,0,0
175566.575,338.197,-641.383,0,0
175826.9,331.225,-639.362,0,0
176087.225,326.457,-635.959,0,0
176347.55,323.603,-632.868,0,0
176607.875,321.881,-629.987,0,0
176868.2,321.675,-627.365,0,0
177128.525,322.949,-625.72,0,0
177388.85,324.895,-625.577,0,0
177649.175,326.999,-626.28,0,0
177909.5,329.975,-627.946,0,0
178169.825,333.678,-631.532,0,0
178430.15,336.945,-637.955,0,0
178690.475,337.92,-646.637,0,0
178950.8,336.031,-655.915,0,0
179211.125,331.555,-664.819,0,0
179471.45,325.002,-671.983,0,0
179731.775,317.791,-677.263,0,0
179992.1,310.719,-680.95,0,0
180252.425,304.214,-683.759,0,0
180512.75,298.629,-686.414,0,0
180773.075,293.096,-689.861,0,0
181033.4,286.653,-693.886,0,0
181293.725,278.578,-697.744,0,0
181554.05,269.258,-699.833,0,0
181814.375,260.421,-700.308,0,0
182074.7,251.876,-700.625,0,0
182335.025,242.694,-700.295,0,0
182595.35,233.381,-698.491,0,0
182855.675,224.592,-695.298,0,0
183116.0,217.031,-691.091,0,0
183376.325,210.803,-686.926,0,0
183636.65,204.79,-683.338,0,0
183896.975,198.495,-679.407,0,0
184157.3,192.5,-674.713,0,0
184417.625,187.332,-669.443,0,0
184677.95,183.27,-664.167,0,0
184938.275,179.795,-659.633,0,0
185198.6,176.096,-655.573,0,0
185458.925,172.084,-651.49,0,0
185719.25,167.86,-647.023,0,0
185979.575,163.832,-641.851,0,0
186239.9,160.484,-636.395,0,0
186500,157.526,-630.845,0,0
186761,155.008,-625.305,0,0
187021,152.764,-619.638,0,0
187281,151.148,-613.92,0,0
187542,150.082,-608.429,0,0
187802,149.409,-603.258,0,0
188062,149.057,-598.48,0,0
188322,148.899,-594.174,0,0
188583,148.741,-590.55,0,0
188843,147.994,-587.332,0,0
189103,146.712,-584.02,0,0
189364,145.194,-580.289,0,0
189624,143.777,-576.346,0,0
189884,142.245,-572.238,0,0
190145,140.892,-567.682,0,0
190405,139.984,-563.142,0,0
190665,138.959,-558.81,0,0
190926,137.793,-554.065,0,0
191186,137.084,-548.858,0,0
191446,137.006,-543.798,0,0
191707,137.105,-539.177,0,0
191967,137.009,-534.776,0,0
192227,136.731,-530.182,0,0
192488,136.532,-525.22,0,0
192748,136.74,-520.171,0,0
193008,137.202,-515.156,0,0
193269,137.882,-510.197,0,0
193529,138.743,-505.373,0,0
193789,139.65,-500.626,0,0
194050,140.608,-495.859,0,0
194310,141.684,-491.023,0,0
194570,142.915,-486.088,0,0
194831,144.538,-481.05,0,0
195091,146.587,-476.279,0,0
195351,148.738,-471.851,0,0
195612,150.876,-467.516,0,0
195872,153.163,-463.354,0,0
196132,155.495,-459.416,0,0
196393,157.699,-455.563,0,0
196653,159.995,-451.668,0,0
196913,162.51,-448,0,0
197174,165.054,-444.602,0,0
197434,167.52,-441.441,0,0
197694,169.676,-438.521,0,0
197955,171.391,-435.621,0,0
198215,172.88,-432.267,0,0
198475,174.58,-428.544,0,0
198735,176.399,-424.84,0,0
198996,178.378,-421.134,0,0
199256,180.164,-417.432,0,0
199516,181.824,-413.438,0,0
199777,183.712,-409.042,0,0
200037,185.866,-404.409,0,0
200297,188.39,-399.723,0,0
200558,191.236,-394.992,0,0
200818,194.295,-390.524,0,0
201078,197.38,-386.115,0,0
201339,200.435,-381.456,0,0
201599,203.775,-376.47,0,0
201859,207.527,-371.469,0,0
202120,211.608,-366.341,0,0
202380.025,216.294,-361.318,0,0
202640.35,221.309,-356.542,0,0
202900.675,226.534,-351.989,0,0
203161.0,231.895,-347.596,0,0
203421.325,237.57,-343.263,0,0
203681.65,243.453,-339.008,0,0
203941.975,249.593,-334.994,0,0
204202.3,256.004,-331.075,0,0
204462.625,262.708,-327.217,0,0
204722.95,269.698,-323.473,0,0
204983.275,277.057,-319.738,0,0
205243.6,285.171,-316.15,0,0
205503.925,294.158,-313.137,0,0
205764.25,303.613,-311.237,0,0
206024.575,313.098,-310.347,0,0
206284.9,322.32,-310.288,0,0
206545.225,331.059,-310.823,0,0
206805.55,339.481,-311.904,0,0
207065.875,347.336,-313.52,0,0
207326.2,354.564,-315.166,0,0
207586.525,361.081,-316.792,0,0
207846.85,367.006,-317.966,0,0
208107.175,372.819,-318.26,0,0
208367.5,379.048,-317.936,0,0
208627.825,385.903,-316.957,0,0
208888.15,393.929,-315.486,0,0
209148.475,403.692,-314.428,0,0
209408.8,414.415,-314.653,0,0
209669.125,425.66,-315.761,0,0
209929.45,437.586,-317.889,0,0
210189.775,450.202,-321.533,0,0
210450.1,463.258,-327.075,0,0
210710.425,475.438,-335.344,0,0
210970.75,485.629,-345.02,0,0
211231.075,494.146,-354.909,0,0
211491.4,501.62,-364.956,0,0
211751.725,508.153,-375.182,0,0
212012.05,513.722,-385.578,0,0
212272.375,518.216,-395.815,0,0
212532.7,522.404,-405.526,0,0
212793.025,526.534,-415.735,0,0
213053.35,529.411,-426.79,0,0
213313.675,530.471,-437.207,0,0
213574.0,531.133,-446.251,0,0
213834.325,532.239,-454.834,0,0
214094.65,533.422,-463.694,0,0
214354.975,534.043,-472.996,0,0
214615.3,533.697,-482.139,0,0
214875.625,532.979,-490.696,0,0
215135.95,531.865,-499.095,0,0
215396.275,530.09,-506.887,0,0
215656.6,528.393,-513.721,0,0
215916.925,527.353,-520.03,0,0
216177.25,527.227,-526.669,0,0
216437.575,527.365,-534.435,0,0
216697.9,526.849,-543.38,0,0
216958.225,524.997,-553.073,0,0
217218.55,521.334,-562.643,0,0
217478.875,516.331,-571.091,0,0
217739.2,511.136,-578.201,0,0
217999.525,506.149,-584.841,0,0
218259.85,500.961,-591.443,0,0
218520,495.263,-597.816,0,0
218780,489.014,-603.886,0,0
219041,481.92,-609.59,0,0
219301,473.889,-614.234,0,0
219561,465.526,-617.323,0,0
219822,457.444,-619.098,0,0
220082,449.719,-619.957,0,0
220342,442.626,-619.733,0,0
220603,436.178,-618.918,0,0
220863,430.372,-617.624,0,0
221123,425.179,-615.866,0,0
221384,420.695,-613.76,0,0
221644,416.935,-611.479,0,0
221904,413.797,-609.127,0,0
222165,411.29,-606.637,0,0
222425,409.537,-604.264,0,0
222685,408.467,-602.408,0,0
222946,407.539,-600.993,0,0
223206,406.648,-599.724,0,0
223466,406.115,-598.621,0,0
223727,405.636,-597.861,0,0
223987,405.093,-597.315,0,0
224247,404.392,-596.859,0,0
224508,403.632,-596.325,0,0
224768,402.625,-595.462,0,0
225028,401.93,-594.111,0,0
225289,401.735,-592.264,0,0
225549,402.484,-590.303,0,0
225809,404.132,-588.669,0,0
226070,406.401,-587.686,0,0
226330,409.04,-587.46,0,0
226590,411.684,-588.044,0,0
226851,414.014,-589.209,0,0
227111,416.071,-590.56,0,0
227371,418.17,-591.894,0,0
227632,420.407,-593.375,0,0
227892,423.064,-595.218,0,0
228152,425.844,-597.796,0,0
228413,428.403,-601.026,0,0
228673,430.741,-604.804,0,0
228933,432.656,-609.041,0,0
229193,434.027,-613.679,0,0
229454,434.814,-618.291,0,0
229714,435.41,-622.61,0,0
229974,436.348,-627.097,0,0
230235,437.389,-632.333,0,0
230495,437.876,-638.492,0,0
230755,437.316,-645.022,0,0
231016,435.754,-651.424,0,0
231276,433.619,-657.411,0,0
231536,431.271,-663,0,0
231797,428.871,-668.427,0,0
232057,426.509,-674.009,0,0
232317,423.9,-680.056,0,0
232578,420.507,-686.503,0,0
232838,416.213,-692.867,0,0
233098,411.318,-698.984,0,0
233359,405.926,-705.004,0,0
233619,399.576,-711.079,0,0
233879,391.841,-716.537,0,0
234140,383.426,-720.757,0,0
234400,374.846,-723.912,0,0
234660.3,366.003,-726.267,0,0
234920.625,356.824,-727.796,0,0
235180.95,347.534,-727.859,0,0
235441.275,338.739,-726.632,0,0
235701.6,330.804,-724.381,0,0
235961.925,323.892,-721.593,0,0
236222.25,317.995,-718.737,0,0
236482.575,313.009,-715.85,0,0
236742.9,308.584,-713.572,0,0
237003.225,304.123,-711.882,0,0
237263.55,299.413,-710.316,0,0
237523.875,294.455,-708.515,0,0
237784.2,289.442,-706.554,0,0
238044.525,284.298,-704.463,0,0
238304.85,278.846,-701.743,0,0
238565.175,273.402,-698.128,0,0
238825.5,268.579,-693.615,0,0
239085.825,264.706,-688.476,0,0
239346.15,261.975,-683.144,0,0
239606.475,260.486,-677.931,0,0
239866.8,259.962,-673.424,0,0
240127.125,260.018,-669.926,0,0
240387.45,260.27,-667.551,0,0
240647.775,260.14,-666.041,0,0
240908.1,259.356,-665.036,0,0
241168.425,257.95,-664.134,0,0
241428.75,256.172,-663.179,0,0
241689.075,254.066,-662.083,0,0
241949.4,251.677,-660.955,0,0
242209.725,248.771,-659.599,0,0
242470.05,245.55,-657.581,0,0
242730.375,242.468,-654.809,0,0
242990.7,239.833,-651.596,0,0
243251.025,237.605,-648.286,0,0
243511.35,235.549,-644.867,0,0
243771.675,233.621,-641.09,0,0
244032.0,232.183,-636.821,0,0
244292.325,231.66,-632.407,0,0
244552.65,231.912,-628.349,0,0
244812.975,232.71,-624.796,0,0
245073.3,233.731,-622.097,0,0
245333.625,234.654,-619.873,0,0
245593.95,235.311,-618.049,0,0
245854.275,235.761,-616.42,0,0
246114.6,235.935,-614.95,0,0
246374.925,235.963,-613.422,0,0
246635.25,235.823,-611.984,0,0
246895.575,235.587,-610.476,0,0
247155.9,235.121,-608.828,0,0
247416.225,234.613,-606.919,0,0
247676.55,234.241,-604.815,0,0
247936.875,234.131,-602.618,0,0
248197.2,234.097,-600.493,0,0
248457.525,234.172,-598.289,0,0
248717.85,234.363,-596.101,0,0
248978.175,234.643,-593.883,0,0
249238.5,235.06,-591.641,0,0
249498.825,235.482,-589.459,0,0
249759.15,236.191,-587.141,0,0
250019.475,237,-584.799,0,0
250279.8,238.164,-582.519,0,0
250540,239.467,-580.38,0,0
250800,240.971,-578.354,0,0
251061,242.684,-576.495,0,0
251321,244.457,-574.756,0,0
251581,246.407,-573.109,0,0
251842,248.562,-571.551,0,0
252102,251.021,-570.222,0,0
252362,253.761,-569.244,0,0
252623,256.618,-568.708,0,0
252883,259.53,-568.571,0,0
253143,262.455,-568.877,0,0
253404,265.314,-569.721,0,0
253664,268.002,-571.004,0,0
253924,270.311,-572.743,0,0
254185,272.19,-574.853,0,0
254445,273.524,-577.075,0,0
254705,274.534,-579.358,0,0
254966,275.18,-581.684,0,0
255226,275.488,-584.031,0,0
255486,275.358,-586.377,0,0
255747,274.861,-588.569,0,0
256007,274.056,-590.522,0,0
256267,273.064,-592.248,0,0
256528,271.864,-593.779,0,0
256788,270.548,-595.14,0,0
257048,269.015,-596.243,0,0
257309,267.403,-597.033,0,0
257569,265.782,-597.517,0,0
257829,264.274,-597.714,0,0
258090,262.857,-597.741,0,0
258350,261.598,-597.57,0,0
258610,260.591,-597.326,0,0
258871,259.798,-597.148,0,0
259131,259.049,-597.128,0,0
259391,258.232,-597.287,0,0
259651,257.225,-597.473,0,0
259912,255.931,-597.542,0,0
260172,254.474,-597.368,0,0
260432,253.036,-596.838,0,0
260693,251.752,-596.066,0,0
260953,250.575,-595.064,0,0
261213,249.635,-593.894,0,0
261474,248.839,-592.592,0,0
261734,248.304,-591.15,0,0
261994,247.989,-589.576,0,0
262255,248.084,-587.867,0,0
262515,248.662,-586.217,0,0
262775,249.647,-584.767,0,0
263036,251.022,-583.705,0,0
263296,252.64,-583.078,0,0
263556,254.294,-582.953,0,0
263817,255.878,-583.227,0,0
264077,257.366,-583.946,0,0
264337,258.608,-585.085,0,0
264598,259.397,-586.412,0,0
264858,259.851,-587.872,0,0
265118,259.878,-589.295,0,0
265379,259.558,-590.634,0,0
265639,259.089,-591.563,0,0
265899,258.659,-592.289,0,0
266160,258.278,-592.838,0,0
266420,258.088,-593.317,0,0
266680.25,258.026,-593.859,0,0
266940.575,258.093,-594.599,0,0
267200.9,258.048,-595.558,0,0
267461.225,257.832,-596.637,0,0
267721.55,257.407,-597.751,0,0
267981.875,256.734,-598.914,0,0
268242.2,255.834,-599.833,0,0
268502.525,254.822,-600.483,0,0
268762.85,253.823,-600.874,0,0
269023.175,252.894,-601.031,0,0
269283.5,252.132,-600.945,0,0
269543.825,251.638,-600.678,0,0
269804.15,251.463,-600.339,0,0
270064.475,251.675,-600.012,0,0
270324.8,252.224,-599.852,0,0
270585.125,253.088,-599.929,0,0
270845.45,254.14,-600.286,0,0
271105.775,255.444,-600.847,0,0
271366.1,257.045,-601.688,0,0
271626.425,259.058,-603.069,0,0
271886.75,261.319,-605.23,0,0
272147.075,263.659,-608.395,0,0
272407.4,265.537,-612.676,0,0
272667.725,266.607,-617.911,0,0
272928.05,266.457,-623.894,0,0
273188.375,265.178,-629.774,0,0
273448.7,263.028,-635.692,0,0
273709.025,259.908,-641.506,0,0
273969.35,255.825,-646.977,0,0
274229.675,250.977,-651.972,0,0
274490.0,245.473,-656.431,0,0
274750.325,239.433,-660.436,0,0
275010.65,232.645,-663.83,0,0
275270.975,225.188,-666.429,0,0
275531.3,217.268,-667.904,0,0
275791.625,209.306,-668.169,0,0
276051.95,201.584,-667.52,0,0
276312.275,194.263,-666.046,0,0
276572.6,187.267,-663.962,0,0
276832.925,180.588,-661.351,0,0
277093.25,174.223,-658.173,0,0
277353.575,168.262,-654.363,0,0
277613.9,162.9,-650.007,0,0
277874.225,158.251,-645.309,0,0
278134.55,154.276,-640.417,0,0
278394.875,150.881,-635.471,0,0
278655.2,148.104,-630.536,0,0
278915.525,145.847,-625.723,0,0
279175.85,143.962,-621.139,0,0
279436.175,142.322,-616.701,0,0
279696.5,140.995,-612.326,0,0
279956.825,139.981,-608.043,0,0
280217.15,139.297,-603.833,0,0
280477.475,138.94,-599.839,0,0
280737.8,138.976,-596.136,0,0
280998.125,139.184,-592.895,0,0
281258.45,139.368,-590.129,0,0
281518.775,139.375,-587.648,0,0
281779.1,139.129,-585.308,0,0
282039.425,138.732,-582.971,0,0
282299.75,138.197,-580.633,0,0
282560,137.505,-578.201,0,0
282820,136.761,-575.588,0,0
283081,136.015,-572.73,0,0
283341,135.459,-569.68,0,0
283601,135.137,-566.493,0,0
283862,135.037,-563.239,0,0
284122,135.228,-559.951,0,0
284382,135.721,-556.74,0,0
284643,136.446,-553.695,0,0
284903,137.351,-550.821,0,0
285163,138.431,-548.08,0,0
285424,139.595,-545.596,0,0
285684,140.857,-543.306,0,0
285944,142.143,-541.216,0,0
286205,143.46,-539.289,0,0
286465,144.776,-537.543,0,0
286725,146.089,-536.044,0,0
286986,147.285,-534.752,0,0
287246,148.313,-533.62,0,0
287506,149.121,-532.577,0,0
287767,149.699,-531.489,0,0
288027,150.135,-530.297,0,0
288287,150.49,-528.947,0,0
288548,150.843,-527.45,0,0
288808,151.269,-525.86,0,0
289068,151.757,-524.19,0,0
289329,152.321,-522.452,0,0
289589,152.991,-520.7,0,0
289849,153.708,-518.92,0,0
290109,154.492,-517.09,0,0
290370,155.404,-515.136,0,0
290630,156.582,-513.184,0,0
290890,157.998,-511.356,0,0
291151,159.499,-509.748,0,0
291411,161.039,-508.305,0,0
291671,162.56,-507.001,0,0
291932,164.011,-505.788,0,0
292192,165.427,-504.562,0,0
292452,166.882,-503.325,0,0
292713,168.439,-502.114,0,0
292973,170.034,-501.003,0,0
293233,171.649,-499.955,0,0
293494,173.269,-498.949,0,0
293754,174.927,-497.995,0,0
294014,176.587,-497.077,0,0
294275,178.286,-496.209,0,0
294535,179.962,-495.311,0,0
294795,181.736,-494.419,0,0
295056,183.618,-493.531,0,0
295316,185.606,-492.721,0,0
295576,187.676,-492.021,0,0
295837,189.788,-491.407,0,0
296097,191.938,-490.85,0,0
296357,194.168,-490.344,0,0
296618,196.498,-489.903,0,0
296878,198.965,-489.541,0,0
297138,201.571,-489.334,0,0
297399,204.269,-489.335,0,0
297659,207.019,-489.535,0,0
297919,209.783,-489.951,0,0
298180,212.484,-490.577,0,0
298440,215.138,-491.325,0,0
298700.2,217.772,-492.164,0,0
298960.525,220.409,-493.191,0,0
299220.85,222.972,-494.212,0,0
299481.175,225.677,-495.376,0,0
299741.5,228.419,-496.773,0,0
300001.825,231.159,-498.271,0,0
300262.15,233.854,-500.009,0,0
300522.475,236.603,-501.92,0,0
300782.8,239.442,-503.919,0,0
301043.125,242.409,-506.237,0,0
301303.45,245.422,-508.901,0,0
301563.775,248.34,-511.932,0,0
301824.1,251.334,-515.46,0,0
302084.425,254.318,-519.45,0,0
302344.75,256.945,-524.196,0,0
302605.075,259.118,-529.535,0,0
302865.4,260.518,-535.459,0,0
303125.725,261.117,-541.612,0,0
303386.05,260.812,-547.846,0,0
303646.375,259.681,-553.875,0,0
303906.7,257.888,-559.554,0,0
304167.025,255.582,-564.83,0,0
304427.35,252.877,-569.696,0,0
304687.675,249.918,-574.167,0,0
304948.0,246.733,-578.247,0,0
305208.325,243.368,-582.053,0,0
305468.65,239.878,-585.582,0,0
305728.975,236.146,-588.902,0,0
305989.3,232.222,-591.883,0,0
306249.625,228.112,-594.506,0,0
306509.95,223.892,-596.735,0,0
306770.275,219.657,-598.594,0,0
307030.6,215.435,-600.153,0,0
307290.925,211.256,-601.453,0,0
307551.25,207.111,-602.48,0,0
307811.575,202.987,-603.277,0,0
308071.9,198.86,-603.847,0,0
308332.225,194.757,-604.146,0,0
308592.55,190.698,-604.204,0,0
308852.875,186.722,-604.001,0,0
309113.2,182.834,-603.508,0,0
309373.525,179.112,-602.745,0,0
309633.85,175.601,-601.744,0,0
309894.175,172.351,-600.618,0,0
310154.5,169.322,-599.334,0,0
310414.825,166.526,-598.063,0,0
310675.15,163.904,-596.765,0,0
310935.475,161.439,-595.464,0,0
311195.8,159.11,-594.17,0,0
311456.125,156.905,-592.91,0,0
311716.45,154.797,-591.674,0,0
311976.775,152.731,-590.476,0,0
312237.1,150.724,-589.305,0,0
312497.425,148.704,-588.137,0,0
312757.75,146.717,-586.943,0,0
313018.075,144.755,-585.712,0,0
313278.4,142.785,-584.443,0,0
313538.725,140.841,-583.12,0,0
313799.05,138.915,-581.685,0,0
314059.375,137.044,-580.139,0,0
314319.7,135.28,-578.511,0,0
314580,133.61,-576.76,0,0
314840,132.136,-574.97,0,0
315101,130.795,-573.111,0,0
315361,129.651,-571.328,0,0
315621,128.649,-569.561,0,0
315882,127.757,-567.846,0,0
316142,126.974,-566.2,0,0
316402,126.28,-564.651,0,0
316663,125.656,-563.166,0,0
316923,125.065,-561.802,0,0
317183,124.498,-560.497,0,0
317444,123.951,-559.246,0,0
317704,123.389,-558.05,0,0
317964,122.851,-556.898,0,0
318225,122.305,-555.787,0,0
318485,121.769,-554.684,0,0
318745,121.229,-553.581,0,0
319006,120.723,-552.476,0,0
319266,120.278,-551.405,0,0
319526,119.857,-550.367,0,0
319787,119.473,-549.406,0,0
320047,119.102,-548.472,0,0
320307,118.729,-547.616,0,0
320567,118.312,-546.79,0,0
320828,117.912,-546,0,0
321088,117.471,-545.236,0,0
321348,117.032,-544.488,0,0
321609,116.573,-543.763,0,0
321869,116.105,-543.034,0,0
322129,115.623,-542.308,0,0
322390,115.151,-541.611,0,0
322650,114.696,-540.922,0,0
322910,114.211,-540.263,0,0
323171,113.691,-539.639,0,0
323431,113.147,-539.019,0,0
323691,112.556,-538.365,0,0
323952,111.951,-537.693,0,0
324212,111.328,-536.969,0,0
324472,110.719,-536.202,0,0
324733,110.138,-535.429,0,0
324993,109.611,-534.591,0,0
325253,109.162,-533.768,0,0
325514,108.8,-532.962,0,0
325774,108.468,-532.248,0,0
326034,108.149,-531.608,0,0
326295,107.816,-531.034,0,0
326555,107.443,-530.496,0,0
326815,107.056,-530.003,0,0
327076,106.638,-529.54,0,0
327336,106.167,-529.116,0,0
327596,105.639,-528.687,0,0
327857,105.082,-528.258,0,0
328117,104.486,-527.834,0,0
328377,103.853,-527.386,0,0
328638,103.183,-526.907,0,0
328898,102.52,-526.407,0,0
329158,101.849,-525.899,0,0
329419,101.186,-525.377,0,0
329679,100.51,-524.851,0,0
329939,99.8267,-524.34,0,0
330200,99.143,-523.782,0,0
330460,98.4212,-523.274,0,0
330720.15,97.7307,-522.707,0,0
330980.475,97.0432,-522.172,0,0
331240.8,96.3025,-521.708,0,0
331501.125,95.4793,-521.233,0,0
331761.45,94.7155,-520.727,0,0
332021.775,93.8562,-520.157,0,0
332282.1,92.9752,-519.657,0,0
332542.425,92.0586,-519.167,0,0
332802.75,91.1091,-518.471,0,0
333063.075,90.0987,-517.863,0,0
333323.4,89.1511,-517.175,0,0
333583.725,88.1321,-516.529,0,0
333844.05,87.0229,-515.649,0,0
334104.375,86.0651,-514.814,0,0
334364.7,85.0109,-513.94,0,0
334625.025,84.0448,-512.995,0,0
334885.35,83.121,-512.017,0,0
335145.675,82.1737,-510.992,0,0
335406.0,81.2206,-509.956,0,0
335666.325,80.3449,-508.961,0,0
335926.65,79.3931,-507.831,0,0
336186.975,78.4767,-506.742,0,0
336447.3,77.5944,-505.588,0,0
336707.625,76.7256,-504.341,0,0
336967.95,75.903,-503.112,0,0
337228.275,75.1198,-501.813,0,0
337488.6,74.4916,-500.497,0,0
337748.925,73.7189,-499.214,0,0
338009.25,73.1273,-497.931,0,0
338269.575,72.4913,-496.602,0,0
338529.9,71.8774,-495.33,0,0
338790.225,71.2898,-493.985,0,0
339050.55,70.7869,-492.693,0,0
339310.875,70.2909,-491.337,0,0
339571.2,69.813,-490.001,0,0
339831.525,69.2725,-488.679,0,0
340091.85,68.8626,-487.33,0,0
340352.175,68.4324,-485.951,0,0
340612.5,68.0344,-484.562,0,0
340872.825,67.6945,-483.128,0,0
341133.15,67.3814,-481.832,0,0
341393.475,67.1077,-480.372,0,0
341653.8,66.8271,-478.934,0,0
341914.125,66.6316,-477.471,0,0
342174.45,66.4824,-476.11,0,0
342434.775,66.3949,-474.727,0,0
342695.1,66.3008,-473.345,0,0
342955.425,66.264,-471.952,0,0
343215.75,66.2739,-470.641,0,0
343476.075,66.3156,-469.323,0,0
343736.4,66.4475,-467.986,0,0
343996.725,66.5648,-466.716,0,0
344257.05,66.7367,-465.56,0,0
344517.375,66.9053,-464.393,0,0
344777.7,67.1437,-463.258,0,0
345038.025,67.3069,-462.215,0,0
345298.35,67.5321,-461.159,0,0
345558.675,67.7548,-460.158,0,0
345819.0,67.9926,-459.205,0,0
346079.325,68.1196,-458.371,0,0
346339.65,68.3063,-457.53,0,0
346599.975,68.4652,-456.74,0,0
346860,68.5092,-455.945,0,0
347121,68.5574,-455.226,0,0
347381,68.5236,-454.471,0,0
347641,68.4595,-453.677,0,0
347902,68.3353,-452.882,0,0
348162,68.2614,-452.077,0,0
348422,68.084,-451.246,0,0
348683,67.913,-450.402,0,0
348943,67.6711,-449.387,0,0
349203,67.487,-448.455,0,0
349464,67.349,-447.414,0,0
349724,67.1937,-446.392,0,0
349984,67.1247,-445.313,0,0
350245,67.0247,-444.237,0,0
350505,66.8749,-443.167,0,0
350765,66.7635,-442.046,0,0
351025,66.6767,-440.811,0,0
351286,66.6887,-439.644,0,0
351546,66.7256,-438.343,0,0
351806,66.8757,-437.087,0,0
352067,67.0867,-435.809,0,0
352327,67.3453,-434.553,0,0
352587,67.699,-433.36,0,0
352848,68.0703,-432.224,0,0
353108,68.511,-431.09,0,0
353368,68.9128,-430.037,0,0
353629,69.4611,-429.006,0,0
353889,69.97,-428.074,0,0
354149,70.4808,-427.185,0,0
354410,70.979,-426.364,0,0
354670,71.4996,-425.547,0,0
354930,72.0143,-424.791,0,0
355191,72.5816,-424.112,0,0
355451,73.1227,-423.444,0,0
355711,73.6719,-422.894,0,0
355972,74.0994,-422.466,0,0
356232,74.5235,-422.089,0,0
356492,74.7618,-421.739,0,0
356753,74.9237,-421.367,0,0
357013,75.0435,-420.988,0,0
357273,75.0633,-420.639,0,0
357534,75.0774,-420.165,0,0
357794,74.9601,-419.689,0,0
358054,74.8091,-419.115,0,0
358315,74.5909,-418.509,0,0
358575,74.4283,-417.777,0,0
358835,74.2378,-416.948,0,0
359096,74.0839,-416.074,0,0
359356,73.9769,-415.135,0,0
359616,73.8824,-414.184,0,0
359877,73.8859,-413.144,0,0
360137,73.9248,-412.029,0,0
360397,74.058,-410.988,0,0
360658,74.1903,-409.905,0,0
360918,74.4079,-408.76,0,0
361178,74.7184,-407.705,0,0
361438,75.0569,-406.65,0,0
361699,75.396,-405.591,0,0
361959,75.864,-404.554,0,0
362219,76.3075,-403.546,0,0
362480,76.8398,-402.637,0,0
362740.1,77.3305,-401.712,0,0
363000.425,77.8292,-400.842,0,0
363260.75,78.4187,-399.959,0,0
363521.075,78.9198,-399.111,0,0
363781.4,79.4852,-398.281,0,0
364041.725,80.0243,-397.479,0,0
364302.05,80.6221,-396.615,0,0
364562.375,81.3241,-395.89,0,0
364822.7,82.0131,-395.072,0,0
365083.025,82.7696,-394.342,0,0
365343.35,83.5086,-393.749,0,0
365603.675,84.3254,-393.189,0,0
365864.0,85.0896,-392.724,0,0
366124.325,85.792,-392.32,0,0
366384.65,86.4429,-391.933,0,0
366644.975,87.044,-391.623,0,0
366905.3,87.6378,-391.267,0,0
367165.625,88.1864,-390.899,0,0
367425.95,88.7531,-390.593,0,0
367686.275,89.2888,-390.299,0,0
367946.6,89.8629,-389.97,0,0
368206.925,90.3661,-389.686,0,0
368467.25,90.8843,-389.442,0,0
368727.575,91.3953,-389.207,0,0
368987.9,91.9469,-389.019,0,0
369248.225,92.4374,-388.86,0,0
369508.55,92.9204,-388.769,0,0
369768.875,93.3387,-388.708,0,0
370029.2,93.7491,-388.714,0,0
370289.525,93.9996,-388.814,0,0
370549.85,94.1984,-388.866,0,0
370810.175,94.2907,-388.943,0,0
371070.5,94.2634,-388.958,0,0
371330.825,94.1074,-388.897,0,0
371591.15,93.8872,-388.759,0,0
371851.475,93.668,-388.498,0,0
372111.8,93.3994,-388.098,0,0
372372.125,93.0991,-387.603,0,0
372632.45,92.9502,-387.055,0,0
372892.775,92.8375,-386.418,0,0
373153.1,92.7455,-385.722,0,0
373413.425,92.7513,-385.022,0,0
373673.75,92.8532,-384.277,0,0
373934.075,92.9618,-383.547,0,0
374194.4,93.1734,-382.823,0,0
374454.725,93.4006,-382.145,0,0
374715.05,93.6218,-381.437,0,0
374975.375,93.9228,-380.782,0,0
375235.7,94.2243,-380.191,0,0
375496.025,94.4956,-379.592,0,0
375756.35,94.8617,-379.028,0,0
376016.675,95.1707,-378.526,0,0
376277.0,95.4497,-378.007,0,0
376537.325,95.681,-377.53,0,0
376797.65,95.8475,-377.034,0,0
377057.975,96.0341,-376.501,0,0
377318.3,96.1792,-375.929,0,0
377578.625,96.358,-375.285,0,0
377838.95,96.5142,-374.56,0,0
378099.275,96.741,-373.871,0,0
378359.6,97.027,-373.127,0,0
378619.925,97.4196,-372.347,0,0
378880,97.7838,-371.615,0,0
379141,98.2625,-370.881,0,0
379401,98.7029,-370.21,0,0
379661,99.228,-369.551,0,0
379922,99.7042,-368.931,0,0
380182,100.223,-368.333,0,0
380442,100.728,-367.779,0,0
380703,101.239,-367.222,0,0
380963,101.744,-366.66,0,0
381223,102.235,-366.148,0,0
381483,102.691,-365.617,0,0
381744,103.195,-365.076,0,0
382004,103.709,-364.526,0,0
382264,104.209,-363.954,0,0
382525,104.744,-363.406,0,0
382785,105.353,-362.803,0,0
383045,105.915,-362.287,0,0
383306,106.525,-361.773,0,0
383566,107.148,-361.259,0,0
383826,107.764,-360.787,0,0
384087,108.423,-360.323,0,0
384347,109.08,-359.88,0,0
384607,109.789,-359.489,0,0
384868,110.406,-359.098,0,0
385128,111.063,-358.779,0,0
385388,111.639,-358.477,0,0
385649,112.188,-358.175,0,0
385909,112.711,-357.854,0,0
386169,113.209,-357.44,0,0
386430,113.787,-357.023,0,0
386690,114.381,-356.599,0,0
386950,115,-356.232,0,0
387211,115.604,-355.881,0,0
387471,116.197,-355.504,0,0
387731,116.705,-355.132,0,0
387992,117.237,-354.664,0,0
388252,117.757,-354.194,0,0
388512,118.384,-353.59,0,0
388773,119.098,-352.993,0,0
389033,119.875,-352.425,0,0
389293,120.735,-351.85,0,0
389554,121.733,-351.354,0,0
389814,122.755,-350.924,0,0
390074,123.782,-350.601,0,0
390335,124.835,-350.358,0,0
390595,125.87,-350.156,0,0
390855,126.862,-350.012,0,0
391116,127.841,-349.972,0,0
391376,128.812,-349.934,0,0
391636,129.698,-349.871,0,0
391896,130.601,-349.879,0,0
392157,131.454,-349.801,0,0
392417,132.322,-349.765,0,0
392677,133.211,-349.747,0,0
392938,134.075,-349.781,0,0
393198,134.925,-349.794,0,0
393458,135.713,-349.792,0,0
393719,136.51,-349.745,0,0
393979,137.266,-349.711,0,0
394239,138.111,-349.585,0,0
394500,138.936,-349.448,0,0
394760.05,139.843,-349.217,0,0
395020.375,140.845,-349.04,0,0
395280.7,141.906,-348.873,0,0
395541.025,143.071,-348.719,0,0
395801.35,144.297,-348.597,0,0
396061.675,145.588,-348.479,0,0
396322.0,147.012,-348.428,0,0
396582.325,148.521,-348.478,0,0
396842.65,150.081,-348.65,0,0
397102.975,151.77,-348.896,0,0
397363.3,153.488,-349.299,0,0
397623.625,155.177,-349.838,0,0
397883.95,156.958,-350.494,0,0
398144.275,158.81,-351.358,0,0
398404.6,160.634,-352.395,0,0
398664.925,162.384,-353.61,0,0
398925.25,164.133,-354.986,0,0
399185.575,165.822,-356.617,0,0
399445.9,167.365,-358.412,0,0
399706.225,168.769,-360.417,0,0
399966.55,169.993,-362.611,0,0
400006.6,170.18,-363.011,0,0