File: Accelerated corrosion test data/2025-10-14_06-00-04/sample_3.csv
Frequency (Hz),Impedance (ohms),Phase (Radians),Temperature (C),Humidity (%)
10000.0,249.996,-11795.7,0,0
10260.325,243.807,-11498,0,0
10520.65,237.985,-11215.7,0,0
10780.975,234.269,-10945.3,0,0
11041.3,227.954,-10693.8,0,0
11301.625,222.606,-10448.7,0,0
11561.95,218.367,-10214.4,0,0
11822.275,213.466,-9990.49,0,0
12082.6,210.713,-9777.34,0,0
12342.925,209.172,-9571.38,0,0
12603.25,201.661,-9376.95,0,0
12863.575,198.488,-9186.47,0,0
13123.9,198.552,-9003.48,0,0
13384.225,191.587,-8835.56,0,0
13644.55,188.745,-8667.4,0,0
13904.875,184.643,-8503.96,0,0
14165.2,185.003,-8346.85,0,0
14425.525,179.074,-8197.94,0,0
14685.8,177.606,-8051.43,0,0
14946.175,175.506,-7914.11,0,0
15206.5,172.241,-7772.82,0,0
15466.825,180.604,-7632.57,0,0
15727.15,193.388,-7535.86,0,0
15987.5,171.646,-7418.93,0,0
16247.8,166.781,-7290.24,0,0
16508.125,160.758,-7178.05,0,0
16768.45,166.866,-7057.82,0,0
17028.775,156.986,-6959.09,0,0
17289.1,160.535,-6845.68,0,0
17549.425,155.94,-6755.11,0,0
17809.75,156.423,-6649.12,0,0
18070.075,161.513,-6563.39,0,0
18330.4,150.375,-6468.46,0,0
18590.725,147.565,-6377.4,0,0
18851.05,144.648,-6286.93,0,0
19111.375,145.937,-6198.25,0,0
19371.7,144.413,-6114.8,0,0
19632.025,145.729,-6030.47,0,0
19892.35,146.186,-5950.15,0,0
20152.675,149.047,-5874.69,0,0
20413.0,159.627,-5798.98,0,0
20673.3,163.453,-5728.99,0,0
20933.65,161.1,-5678.2,0,0
21193.975,159.97,-5611.19,0,0
21454.3,144.259,-5551.07,0,0
21714.625,138.379,-5475.26,0,0
21974.9,141.411,-5410.34,0,0
22235.275,138.337,-5352.07,0,0
22495.6,136.073,-5289.43,0,0
22755.925,128.998,-5229.41,0,0
23016.25,127.499,-5170.2,0,0
23276.6,127.648,-5108.01,0,0
23536.9,128.36,-5061.99,0,0
23797.225,120.418,-5003.59,0,0
24057.55,118.536,-4946.09,0,0
24317.875,118.845,-4890.83,0,0
24578.2,116.155,-4840.7,0,0
24838.525,117.519,-4787.84,0,0
25098.85,115.289,-4740.85,0,0
25359.175,112.853,-4691.24,0,0
25619.5,112.974,-4643.34,0,0
25879.8,110.521,-4597.07,0,0
26140.1,108.028,-4549.31,0,0
26400.5,107.083,-4502.38,0,0
26660.8,107.329,-4457.77,0,0
26921.1,108.081,-4412.59,0,0
27181.4,108.205,-4372.39,0,0
27441.8,107.233,-4328.96,0,0
27702.1,107.112,-4289.47,0,0
27962.4,105.164,-4249.08,0,0
28222.7,103.349,-4205.81,0,0
28483.1,111.144,-4163.6,0,0
28743.4,112.855,-4129.77,0,0
29003.7,114.743,-4100.08,0,0
29264,107.979,-4065.39,0,0
29524.4,108.163,-4029.54,0,0
29784.7,104.078,-3994.2,0,0
30045,101.523,-3960.6,0,0
30305.3,100.397,-3922.75,0,0
30565.7,101.469,-3889.42,0,0
30826,100.727,-3857.28,0,0
31086.3,101.707,-3824.35,0,0
31346.6,98.3589,-3793.96,0,0
31607,97.2283,-3759.62,0,0
31867.3,97.7011,-3725.59,0,0
32127.6,101.087,-3692.36,0,0
32387.9,109.992,-3664.37,0,0
32648.3,111.612,-3646.41,0,0
32908.6,103.377,-3622.73,0,0
33168.9,100.487,-3594.79,0,0
33429.2,98.9859,-3568.34,0,0
33689.6,93.215,-3540.52,0,0
33949.9,90.3727,-3510.36,0,0
34210.2,90.211,-3482.28,0,0
34470.5,89.7715,-3456.36,0,0
34730.9,87.24,-3430.09,0,0
34991.2,86.1175,-3403.69,0,0
35251.5,85.2336,-3377.35,0,0
35511.8,84.4626,-3352.15,0,0
35772.2,83.7367,-3326.91,0,0
36032.5,82.9807,-3302.12,0,0
36292.8,82.2579,-3277.57,0,0
36553.1,82.0596,-3253.92,0,0
36813.5,81.0314,-3230.58,0,0
37073.8,80.7871,-3207.42,0,0
37334.1,80.0723,-3184.21,0,0
37594.4,79.5899,-3161.58,0,0
37854.8,79.0272,-3139.49,0,0
38115.1,78.319,-3117.49,0,0
38375.4,77.9554,-3095.7,0,0
38635.7,77.628,-3074.4,0,0
38896.1,77.271,-3053.22,0,0
39156.4,76.8482,-3032.32,0,0
39416.7,76.6091,-3012.22,0,0
39677,76.2619,-2991.83,0,0
39937.4,75.293,-2971.82,0,0
40197.7,74.9777,-2951.84,0,0
40458,74.7263,-2932.27,0,0
40718.3,74.2632,-2913.2,0,0
40978.7,73.8571,-2893.86,0,0
41239,74.0903,-2874.6,0,0
41499.3,73.7781,-2856.56,0,0
41759.6,73.924,-2838.05,0,0
42020,73.5264,-2820.59,0,0
42280.275,73.3055,-2802.49,0,0
42540.6,72.7899,-2785.06,0,0
42800.925,72.7923,-2767.68,0,0
43061.25,72.2041,-2751.07,0,0
43321.575,71.6801,-2733.35,0,0
43581.9,71.4189,-2716.33,0,0
43842.225,71.4328,-2699.7,0,0
44102.55,71.6485,-2683.2,0,0
44362.875,71.6839,-2667.49,0,0
44623.2,70.9087,-2651.45,0,0
44883.525,71.1489,-2635.48,0,0
45143.85,70.6537,-2619.81,0,0
45404.175,70.2243,-2604.53,0,0
45664.5,69.8779,-2588.51,0,0
45924.825,70.5466,-2573.51,0,0
46185.15,69.806,-2559.09,0,0
46445.475,69.3482,-2544.09,0,0
46705.8,69.4259,-2528.74,0,0
46966.125,69.59,-2514.52,0,0
47226.45,69.4294,-2500.22,0,0
47486.775,69.2639,-2485.9,0,0
47747.1,69.9384,-2471.34,0,0
48007.425,70.0147,-2458.6,0,0
48267.75,70.2318,-2445.55,0,0
48528.075,69.2655,-2432.23,0,0
48788.4,68.9126,-2419.32,0,0
49048.725,68.1518,-2406.02,0,0
49309.05,67.5121,-2392.58,0,0
49569.375,67.5377,-2379.21,0,0
49829.7,67.3117,-2366.38,0,0
50090.025,66.7073,-2353.86,0,0
50350.35,66.3891,-2340.88,0,0
50610.675,66.0723,-2327.81,0,0
50871.0,66.0487,-2315.18,0,0
51131.325,65.8516,-2302.81,0,0
51391.65,65.7433,-2290.34,0,0
51651.975,65.8098,-2278.12,0,0
51912.3,65.9028,-2266.18,0,0
52172.625,65.7445,-2254.15,0,0
52432.95,65.5664,-2242.04,0,0
52693.275,65.8421,-2230.14,0,0
52953.6,66.0994,-2218.38,0,0
53213.925,66.8628,-2206.6,0,0
53474.25,67.7021,-2196.01,0,0
53734.575,67.7688,-2185.16,0,0
53994.9,68.0072,-2174.13,0,0
54255.225,68.9255,-2163.38,0,0
54515.55,69.8311,-2154.33,0,0
54775.875,69.0928,-2145.1,0,0
55036.2,68.3708,-2135.07,0,0
55296.525,67.661,-2125.79,0,0
55556.85,66.3048,-2115.99,0,0
55817.175,64.7251,-2105.36,0,0
56077.5,63.8845,-2094.92,0,0
56337.825,63.118,-2084.4,0,0
56598.15,62.1649,-2073.85,0,0
56858.475,61.4502,-2063.08,0,0
57118.8,60.9025,-2052.35,0,0
57379.125,60.846,-2041.73,0,0
57639.45,60.7371,-2031.34,0,0
57899.775,60.8629,-2021.27,0,0
58160.1,60.9059,-2011.18,0,0
58420.4,60.6569,-2001.28,0,0
58680.7,60.7019,-1991.24,0,0
58941.1,60.9459,-1981.42,0,0
59201.4,60.977,-1971.53,0,0
59461.7,61.3912,-1961.87,0,0
59722,61.7674,-1952.41,0,0
59982.4,61.9164,-1943.04,0,0
60242.7,62.1079,-1933.79,0,0
60503,62.3097,-1924.64,0,0
60763.3,62.5857,-1915.31,0,0
61023.7,62.9936,-1906.16,0,0
61284,63.4385,-1897.12,0,0
61544.3,63.9194,-1888.05,0,0
61804.6,64.417,-1879.54,0,0
62065,64.6994,-1870.46,0,0
62325.3,65.377,-1861.67,0,0
62585.6,65.7671,-1853,0,0
62845.9,66.3793,-1843.88,0,0
63106.3,67.5497,-1835.12,0,0
63366.6,68.3904,-1826.92,0,0
63626.9,69.4668,-1817.87,0,0
63887.2,70.9329,-1809.8,0,0
64147.6,72.2951,-1800.91,0,0
64407.9,74.7664,-1792.57,0,0
64668.2,77.3315,-1785.21,0,0
64928.5,80.1769,-1777.45,0,0
65188.9,83.8665,-1771.85,0,0
65449.2,86.8046,-1767.09,0,0
65709.5,88.9338,-1762.63,0,0
65969.8,91.6874,-1760.09,0,0
66230.2,90.9003,-1760.26,0,0
66490.5,85.2708,-1757.42,0,0
66750.8,80.458,-1750.84,0,0
67011.1,77.7655,-1742.52,0,0
67271.5,75.4069,-1734.52,0,0
67531.8,74.2915,-1725.78,0,0
67792.1,74.4671,-1717.66,0,0
68052.4,74.5739,-1709.9,0,0
68312.8,75.6843,-1703,0,0
68573.1,75.8345,-1696.7,0,0
68833.4,75.8096,-1690.25,0,0
69093.7,76.3973,-1683.77,0,0
69354.1,76.8389,-1678.32,0,0
69614.4,76.5849,-1673.09,0,0
69874.7,75.5907,-1667.53,0,0
70135,74.8532,-1661.79,0,0
70395.4,73.9223,-1655.96,0,0
70655.7,72.7384,-1649.93,0,0
70916,71.3661,-1643.53,0,0
71176.3,70.4624,-1636.96,0,0
71436.7,69.8837,-1630.35,0,0
71697,68.9719,-1623.54,0,0
71957.3,69.0263,-1616.47,0,0
72217.6,69.1864,-1610.4,0,0
72478,69.2165,-1604.21,0,0
72738.3,69.1901,-1598.51,0,0
72998.6,69.0772,-1593.16,0,0
73258.9,68.4369,-1587.43,0,0
73519.3,68.0326,-1581.68,0,0
73779.6,67.6852,-1576.06,0,0
74039.9,67.0454,-1570.63,0,0
74300.225,66.2608,-1565.03,0,0
74560.55,65.6016,-1559.41,0,0
74820.875,64.8706,-1553.59,0,0
75081.2,64.0719,-1547.87,0,0
75341.525,63.2277,-1542.12,0,0
75601.85,62.5291,-1536.31,0,0
75862.175,61.7898,-1530.41,0,0
76122.5,61.148,-1524.57,0,0
76382.825,60.4737,-1518.73,0,0
76643.15,59.9353,-1512.85,0,0
76903.475,59.407,-1506.96,0,0
77163.8,58.9756,-1501.19,0,0
77424.125,58.4753,-1495.5,0,0
77684.45,57.939,-1489.8,0,0
77944.775,57.4422,-1484.06,0,0
78205.1,56.9576,-1478.35,0,0
78465.425,56.4986,-1472.62,0,0
78725.75,56.1069,-1466.9,0,0
78986.075,55.7314,-1461.31,0,0
79246.4,55.2926,-1455.7,0,0
79506.725,54.9836,-1450.06,0,0
79767.05,54.6694,-1444.44,0,0
80027.375,54.4034,-1438.78,0,0
80287.7,54.2042,-1433.27,0,0
80548.025,54.0046,-1427.78,0,0
80808.35,53.7183,-1422.34,0,0
81068.675,53.5178,-1416.9,0,0
81329.0,53.3226,-1411.47,0,0
81589.325,53.188,-1406.06,0,0
81849.65,53.0027,-1400.7,0,0
82109.975,52.8816,-1395.4,0,0
82370.3,52.7164,-1390.06,0,0
82630.625,52.6498,-1384.8,0,0
82890.95,52.5733,-1379.61,0,0
83151.275,52.4869,-1374.42,0,0
83411.6,52.4722,-1369.25,0,0
83671.925,52.3661,-1364.13,0,0
83932.25,52.3004,-1358.99,0,0
84192.575,52.3223,-1353.96,0,0
84452.9,52.2784,-1348.87,0,0
84713.225,52.2202,-1343.89,0,0
84973.55,52.1705,-1338.89,0,0
85233.875,52.2816,-1333.9,0,0
85494.2,52.1872,-1328.93,0,0
85754.525,52.1989,-1324.01,0,0
86014.85,52.2627,-1319.13,0,0
86275.175,52.2506,-1314.25,0,0
86535.5,52.3362,-1309.49,0,0
86795.825,52.3915,-1304.65,0,0
87056.15,52.4426,-1299.79,0,0
87316.475,52.5628,-1295.03,0,0
87576.8,52.6071,-1290.23,0,0
87837.125,52.7429,-1285.46,0,0
88097.45,52.9711,-1280.86,0,0
88357.775,52.9726,-1276.09,0,0
88618.1,53.1642,-1271.33,0,0
88878.425,53.3964,-1266.37,0,0
89138.75,53.7129,-1261.64,0,0
89399.075,54.2354,-1256.99,0,0
89659.4,54.7316,-1252.6,0,0
89919.725,55.1524,-1248.09,0,0
90180,55.607,-1243.91,0,0
90440.4,56.1265,-1239.67,0,0
90700.7,56.4351,-1235.33,0,0
90961,56.9546,-1231.16,0,0
91221.3,57.3635,-1226.81,0,0
91481.7,57.8209,-1222.73,0,0
91742,58.2803,-1218.71,0,0
92002.3,58.7093,-1214.7,0,0
92262.6,59.2648,-1210.57,0,0
92523,60.0183,-1206.72,0,0
92783.3,60.6242,-1203.17,0,0
93043.6,61.0331,-1199.52,0,0
93303.9,61.5867,-1195.79,0,0
93564.3,62.3224,-1192.44,0,0
93824.6,62.8994,-1189.47,0,0
94084.9,63.2409,-1186.83,0,0
94345.2,62.8426,-1184.24,0,0
94605.6,62.4457,-1181.23,0,0
94865.9,61.8636,-1178.53,0,0
95126.2,60.5411,-1175.58,0,0
95386.5,59.0628,-1171.88,0,0
95646.9,58.0554,-1167.59,0,0
95907.2,57.3245,-1163.44,0,0
96167.5,56.5719,-1159.12,0,0
96427.8,56.2497,-1154.5,0,0
96688.2,56.1968,-1150.32,0,0
96948.5,56.1357,-1146.3,0,0
97208.8,56.0292,-1142.22,0,0
97469.1,56.0378,-1138.23,0,0
97729.5,55.9808,-1134.33,0,0
97989.8,55.8592,-1130.42,0,0
98250.1,55.7946,-1126.47,0,0
98510.4,55.813,-1122.58,0,0
98770.8,55.8764,-1118.8,0,0
99031.1,55.7926,-1115.11,0,0
99291.4,55.6103,-1111.37,0,0
99551.7,55.3821,-1107.5,0,0
99812.1,55.2749,-1103.57,0,0
100072,55.1914,-1099.75,0,0
100333,55.1021,-1095.84,0,0
100593,54.9581,-1091.95,0,0
100853,54.8698,-1087.91,0,0
101114,54.9067,-1083.85,0,0
101374,54.9991,-1079.8,0,0
101634,55.1651,-1075.71,0,0
101895,55.48,-1071.66,0,0
102155,55.7784,-1067.6,0,0
102415,56.297,-1063.38,0,0
102676,57.2027,-1059.37,0,0
102936,58.1815,-1055.81,0,0
103196,58.9683,-1052.52,0,0
103457,59.5158,-1049.21,0,0
103717,60.0996,-1045.8,0,0
103977,60.843,-1042.37,0,0
104238,61.8237,-1039.15,0,0
104498,62.7905,-1036.46,0,0
104758,63.3007,-1034.14,0,0
105019,63.3936,-1031.63,0,0
105279,63.2859,-1028.86,0,0
105539,63.3453,-1026.02,0,0
105800,63.3464,-1023.31,0,0
106060,63.153,-1020.61,0,0
106320.175,62.7902,-1017.85,0,0
106580.5,62.4436,-1014.91,0,0
106840.825,61.9973,-1011.97,0,0
107101.15,61.3853,-1008.85,0,0
107361.475,60.9628,-1005.48,0,0
107621.8,60.5985,-1002.18,0,0
107882.125,60.1891,-998.838,0,0
108142.45,59.8281,-995.395,0,0
108402.775,59.537,-992.015,0,0
108663.1,59.1051,-988.476,0,0
108923.425,58.7567,-984.821,0,0
109183.75,58.5607,-980.975,0,0
109444.075,58.6531,-977.221,0,0
109704.4,58.7741,-973.636,0,0
109964.725,58.801,-969.986,0,0
110225.05,58.8274,-966.356,0,0
110485.375,58.9811,-962.489,0,0
110745.7,59.4866,-958.591,0,0
111006.025,60.0348,-955.114,0,0
111266.35,60.6021,-951.779,0,0
111526.675,61.1213,-948.359,0,0
111787.0,61.5452,-945.05,0,0
112047.325,62.1086,-941.858,0,0
112307.65,62.5145,-938.712,0,0
112567.975,62.9311,-935.632,0,0
112828.3,63.2421,-932.493,0,0
113088.625,63.6092,-929.316,0,0
113348.95,63.9231,-926.173,0,0
113609.275,64.1472,-923.094,0,0
113869.6,64.3793,-919.808,0,0
114129.925,64.7176,-916.618,0,0
114390.25,64.9778,-913.367,0,0
114650.575,65.2101,-909.915,0,0
114910.9,65.621,-906.496,0,0
115171.225,66.1543,-903.117,0,0
115431.55,66.8251,-899.763,0,0
115691.875,67.4513,-896.517,0,0
115952.2,67.9982,-893.21,0,0
116212.525,68.6624,-889.841,0,0
116472.85,69.4771,-886.431,0,0
116733.175,70.4764,-883.16,0,0
116993.5,71.4702,-880.074,0,0
117253.825,72.3328,-877.032,0,0
117514.15,73.1487,-873.684,0,0
117774.475,74.5012,-870.156,0,0
118034.8,76.3054,-867.246,0,0
118295.125,77.9103,-864.737,0,0
118555.45,79.3553,-862.453,0,0
118815.775,80.408,-860.246,0,0
119076.1,81.5221,-857.694,0,0
119336.425,82.9906,-855.172,0,0
119596.75,84.81,-853.053,0,0
119857.075,86.5969,-851.419,0,0
120117.4,88.1839,-850.488,0,0
120377.725,88.9307,-849.983,0,0
120638.05,89.0079,-849.021,0,0
120898.375,89.0313,-848.026,0,0
121158.7,88.6049,-846.852,0,0
121419.025,87.7906,-845.383,0,0
121679.35,86.793,-843.338,0,0
121939.675,86.0473,-840.686,0,0
122200.0,85.7888,-837.845,0,0
122460,85.8245,-835.127,0,0
122721,85.8886,-832.532,0,0
122981,86.0838,-829.792,0,0
123241,86.557,-827.263,0,0
123502,86.9631,-825.032,0,0
123762,87.1584,-822.743,0,0
124022,87.44,-820.394,0,0
124283,87.7976,-818.106,0,0
124543,88.1292,-815.894,0,0
124803,88.4129,-813.705,0,0
125064,88.7182,-811.534,0,0
125324,89.0484,-809.526,0,0
125584,89.2583,-807.466,0,0
125845,89.5176,-805.504,0,0
126105,89.6819,-803.677,0,0
126365,89.6411,-801.878,0,0
126626,89.4165,-799.96,0,0
126886,89.2112,-797.919,0,0
127146,88.9808,-795.822,0,0
127406,88.8273,-793.754,0,0
127667,88.5156,-791.57,0,0
127927,88.2712,-789.431,0,0
128187,87.9227,-787.298,0,0
128448,87.449,-785.093,0,0
128708,86.9059,-782.657,0,0
128968,86.5335,-780.033,0,0
129229,86.2843,-777.365,0,0
129489,86.1579,-774.722,0,0
129749,85.9627,-772.117,0,0
130010,85.8145,-769.286,0,0
130270,86.0249,-766.447,0,0
130530,86.4423,-763.846,0,0
130791,86.8218,-761.552,0,0
131051,87.0666,-759.361,0,0
131311,87.1578,-757.261,0,0
131572,87.086,-755.198,0,0
131832,86.9143,-753.057,0,0
132092,86.6765,-750.803,0,0
132353,86.3366,-748.419,0,0
132613,86.1881,-745.838,0,0
132873,86.1705,-743.444,0,0
133134,86.0682,-741.15,0,0
133394,85.9126,-738.835,0,0
133654,85.6978,-736.566,0,0
133915,85.3078,-734.183,0,0
134175,84.9619,-731.632,0,0
134435,84.7139,-729.065,0,0
134696,84.4654,-726.612,0,0
134956,84.0762,-724.085,0,0
135216,83.7593,-721.345,0,0
135477,83.6025,-718.6,0,0
135737,83.3855,-715.996,0,0
135997,83.1051,-713.428,0,0
136258,82.6398,-710.705,0,0
136518,82.2224,-707.676,0,0
136778,82.0528,-704.534,0,0
137039,82.1317,-701.435,0,0
137299,82.211,-698.479,0,0
137559,82.393,-695.533,0,0
137819,82.5797,-692.656,0,0
138080,82.7788,-689.812,0,0
138340.125,83.0812,-686.977,0,0
138600.45,83.4825,-684.353,0,0
138860.775,83.6653,-681.969,0,0
139121.1,83.6461,-679.52,0,0
139381.425,83.4954,-677.009,0,0
139641.75,83.2475,-674.327,0,0
139902.075,83.0218,-671.506,0,0
140162.4,82.935,-668.524,0,0
140422.725,82.9988,-665.605,0,0
140683.05,83.0539,-662.853,0,0
140943.375,82.9647,-660.149,0,0
141203.7,82.7923,-657.319,0,0
141464.025,82.5501,-654.453,0,0
141724.35,82.2241,-651.448,0,0
141984.675,81.9836,-648.232,0,0
142245.0,81.9314,-644.975,0,0
142505.325,81.8621,-641.789,0,0
142765.65,81.757,-638.532,0,0
143025.975,81.6887,-635.193,0,0
143286.3,81.7414,-631.755,0,0
143546.625,81.797,-628.318,0,0
143806.95,81.9165,-624.859,0,0
144067.275,82.0508,-621.356,0,0
144327.6,82.2526,-617.782,0,0
144587.925,82.5037,-614.153,0,0
144848.25,82.8743,-610.516,0,0
145108.575,83.3057,-606.883,0,0
145368.9,83.766,-603.308,0,0
145629.225,84.206,-599.727,0,0
145889.55,84.5984,-596.077,0,0
146149.875,85.0413,-592.23,0,0
146410.2,85.7012,-588.39,0,0
146670.525,86.3383,-584.622,0,0
146930.85,86.9891,-580.766,0,0
147191.175,87.7468,-576.798,0,0
147451.5,88.5957,-572.798,0,0
147711.825,89.5974,-568.728,0,0
147972.15,90.7224,-564.743,0,0
148232.475,91.8809,-560.772,0,0
148492.8,93.0936,-556.795,0,0
148753.125,94.3593,-552.75,0,0
149013.45,95.7119,-548.681,0,0
149273.775,97.1902,-544.501,0,0
149534.1,98.883,-540.236,0,0
149794.425,100.87,-536.068,0,0
150054.75,103.018,-532.075,0,0
150315.075,105.243,-528.179,0,0
150575.4,107.58,-524.397,0,0
150835.725,110.024,-520.753,0,0
151096.05,112.557,-517.242,0,0
151356.375,115.094,-513.91,0,0
151616.7,117.619,-510.692,0,0
151877.025,120.168,-507.537,0,0
152137.35,122.806,-504.531,0,0
152397.675,125.386,-501.749,0,0
152658.0,127.859,-499.028,0,0
152918.325,130.342,-496.36,0,0
153178.65,132.779,-493.939,0,0
153438.975,134.942,-491.587,0,0
153699.3,136.976,-489.175,0,0
153959.625,138.946,-486.661,0,0
154219.95,140.973,-484.244,0,0
154480,142.705,-482.033,0,0
154741,143.899,-479.568,0,0
155001,145.041,-476.497,0,0
155261,146.435,-472.787,0,0
155522,148.526,-469.101,0,0
155782,151.024,-465.734,0,0
156042,153.263,-462.612,0,0
156303,155.377,-459.475,0,0
156563,157.438,-456.041,0,0
156823,159.756,-452.141,0,0
157084,162.873,-448.258,0,0
157344,166.51,-444.921,0,0
157604,170.278,-442.321,0,0
157864,173.654,-440.238,0,0
158125,176.809,-438.545,0,0
158385,179.241,-437.433,0,0
158645,180.379,-435.83,0,0
158906,181.421,-433.49,0,0
159166,182.211,-430.522,0,0
159426,183.011,-427.069,0,0
159687,183.736,-422.908,0,0
159947,184.702,-417.499,0,0
160207,186.966,-411.453,0,0
160468,190.337,-405.509,0,0
160728,194.647,-400.021,0,0
160988,199.077,-395.574,0,0
161249,202.535,-391.005,0,0
161509,206.376,-385.13,0,0
161769,211.869,-379.035,0,0
162030,218.412,-374.063,0,0
162290,224.33,-369.839,0,0
162550,230.677,-365.25,0,0
162811,237.29,-361.054,0,0
163071,244.163,-356.76,0,0
163331,251.645,-352.32,0,0
163592,260.172,-348.363,0,0
163852,269.104,-345.256,0,0
164112,278.202,-342.701,0,0
164373,287.448,-340.79,0,0
164633,297.053,-338.717,0,0
164893,308.094,-337.185,0,0
165154,319.933,-337.769,0,0
165414,330.728,-340.333,0,0
165674,340.446,-343.071,0,0
165935,350.143,-346.054,0,0
166195,359.872,-349.773,0,0
166455,369.351,-354.52,0,0
166716,378.339,-360.366,0,0
166976,386.323,-367.041,0,0
167236,393.133,-374.173,0,0
167497,398.889,-381.215,0,0
167757,404.178,-388.053,0,0
168017,409.338,-395.049,0,0
168277,413.717,-402.656,0,0
168538,417.226,-410.297,0,0
168798,420.273,-417.612,0,0
169058,423.35,-425.381,0,0
169319,425.561,-434.444,0,0
169579,425.51,-443.911,0,0
169839,423.274,-452.393,0,0
170100,419.899,-458.891,0,0
170360.075,416.672,-463.591,0,0
170620.4,413.726,-467.375,0,0
170880.725,411.028,-470.572,0,0
171141.05,408.219,-473.307,0,0
171401.375,405.446,-474.701,0,0
171661.7,403.972,-475.236,0,0
171922.025,403.348,-476.375,0,0
172182.35,402.345,-477.47,0,0
172442.675,401.527,-477.974,0,0
172703.0,401.372,-477.438,0,0
172963.325,403.148,-477.06,0,0
173223.65,406.031,-478.355,0,0
173483.975,408.231,-481.288,0,0
173744.3,409.23,-484.521,0,0
174004.625,409.563,-487.045,0,0
174264.95,410.776,-489.055,0,0
174525.275,412.562,-492.375,0,0
174785.6,413.208,-496.743,0,0
175045.925,412.695,-500.761,0,0
175306.25,411.641,-503.985,0,0
175566.575,411.366,-506.436,0,0
175826.9,411.691,-509.706,0,0
176087.225,411.597,-513.97,0,0
176347.55,410.452,-518.449,0,0
176607.875,409.033,-522.556,0,0
176868.2,407.243,-527.548,0,0
177128.525,403.422,-532.869,0,0
177388.85,398.085,-536.715,0,0
177649.175,392.633,-538.961,0,0
177909.5,387.396,-540.627,0,0
178169.825,381.418,-541.593,0,0
178430.15,375.246,-540.655,0,0
178690.475,370.249,-538.22,0,0
178950.8,366.572,-535.314,0,0
179211.125,363.945,-532.503,0,0
179471.45,361.593,-529.863,0,0
179731.775,359.693,-526.712,0,0
179992.1,359.156,-523.511,0,0
180252.425,359.265,-521.241,0,0
180512.75,359.283,-519.388,0,0
180773.075,359.556,-517.555,0,0
181033.4,360.317,-515.979,0,0
181293.725,361.585,-515.041,0,0
181554.05,363.001,-514.957,0,0
181814.375,364.227,-515.834,0,0
182074.7,364.632,-517.981,0,0
182335.025,363.285,-520.117,0,0
182595.35,361.186,-521.273,0,0
182855.675,358.991,-521.732,0,0
183116.0,357.085,-521.962,0,0
183376.325,354.982,-522.453,0,0
183636.65,352.305,-522.816,0,0
183896.975,348.969,-522.622,0,0
184157.3,345.525,-521.351,0,0
184417.625,342.788,-519.706,0,0
184677.95,340.008,-518.225,0,0
184938.275,336.841,-516.312,0,0
185198.6,333.753,-513.722,0,0
185458.925,330.886,-510.632,0,0
185719.25,328.286,-507.07,0,0
185979.575,326.047,-503,0,0
186239.9,324.367,-498.657,0,0
186500,323.12,-493.901,0,0
186761,322.768,-488.868,0,0
187021,323.262,-484.178,0,0
187281,324.047,-479.922,0,0
187542,325.11,-475.867,0,0
187802,326.53,-472.066,0,0
188062,328.16,-468.685,0,0
188322,329.87,-465.731,0,0
188583,331.451,-463.337,0,0
188843,332.381,-461.145,0,0
189103,332.822,-458.472,0,0
189364,333.463,-455.116,0,0
189624,334.653,-451.494,0,0
189884,336.456,-447.956,0,0
190145,338.6,-444.903,0,0
190405,340.558,-442.331,0,0
190665,342.373,-439.664,0,0
190926,344.247,-437.015,0,0
191186,346.154,-434.466,0,0
191446,347.888,-432.017,0,0
191707,349.464,-429.31,0,0
191967,351.348,-426.353,0,0
192227,353.372,-423.691,0,0
192488,355.008,-420.997,0,0
192748,356.465,-417.706,0,0
193008,358.295,-413.772,0,0
193269,360.888,-409.56,0,0
193529,364.192,-405.25,0,0
193789,368.167,-401.373,0,0
194050,372.344,-397.761,0,0
194310,376.883,-394.24,0,0
194570,381.889,-390.947,0,0
194831,387.316,-387.935,0,0
195091,393.251,-385.344,0,0
195351,399.59,-383.496,0,0
195612,406.329,-382.146,0,0
195872,413.097,-381.728,0,0
196132,419.705,-382.168,0,0
196393,426.045,-383.429,0,0
196653,431.921,-385.523,0,0
196913,436.986,-388.418,0,0
197174,440.484,-391.587,0,0
197434,442.925,-393.818,0,0
197694,445.342,-395.179,0,0
197955,448.157,-396.289,0,0
198215,450.951,-397.47,0,0
198475,453.888,-398.67,0,0
198735,456.53,-400.36,0,0
198996,458.343,-401.755,0,0
199256,460.263,-402.385,0,0
199516,462.73,-403.024,0,0
199777,465.178,-404.453,0,0
200037,466.558,-406.008,0,0
200297,466.915,-406.986,0,0
200558,466.894,-406.538,0,0
200818,467.471,-404.76,0,0
201078,469.265,-402.46,0,0
201339,471.943,-400.223,0,0
201599,475.059,-398.27,0,0
201859,478.521,-396.343,0,0
202120,482.435,-394.427,0,0
202380.025,486.786,-392.498,0,0
202640.35,491.938,-390.819,0,0
202900.675,497.645,-389.767,0,0
203161.0,503.522,-389.324,0,0
203421.325,509.478,-389.306,0,0
203681.65,515.586,-389.694,0,0
203941.975,521.877,-390.6,0,0
204202.3,528.309,-392.115,0,0
204462.625,534.579,-394.475,0,0
204722.95,540.326,-397.479,0,0
204983.275,545.542,-400.801,0,0
205243.6,550.44,-404.568,0,0
205503.925,554.463,-408.628,0,0
205764.25,557.619,-412.717,0,0
206024.575,559.634,-416.584,0,0
206284.9,560.6,-419.22,0,0
206545.225,561.84,-420.223,0,0
206805.55,563.955,-420.425,0,0
207065.875,566.758,-419.874,0,0
207326.2,571.016,-419.213,0,0
207586.525,576.205,-419.268,0,0
207846.85,581.578,-420.004,0,0
208107.175,587.125,-420.786,0,0
208367.5,593.35,-421.881,0,0
208627.825,600.013,-423.623,0,0
208888.15,606.707,-426.044,0,0
209148.475,613.456,-428.957,0,0
209408.8,620.163,-432.459,0,0
209669.125,626.81,-436.443,0,0
209929.45,633.415,-440.96,0,0
210189.775,639.827,-445.913,0,0
210450.1,645.97,-451.186,0,0
210710.425,652.013,-456.783,0,0
210970.75,657.86,-462.956,0,0
211231.075,663.228,-469.629,0,0
211491.4,668.115,-476.502,0,0
211751.725,672.515,-483.389,0,0
212012.05,676.655,-490.199,0,0
212272.375,680.729,-496.98,0,0
212532.7,684.777,-503.84,0,0
212793.025,688.926,-510.848,0,0
213053.35,693.155,-518.492,0,0
213313.675,697.142,-526.418,0,0
213574.0,700.542,-535.136,0,0
213834.325,703.102,-543.967,0,0
214094.65,705.216,-552.431,0,0
214354.975,707.28,-560.779,0,0
214615.3,709.313,-569.323,0,0
214875.625,711.156,-578.189,0,0
215135.95,712.63,-587.485,0,0
215396.275,713.319,-596.914,0,0
215656.6,713.503,-606.309,0,0
215916.925,713.417,-615.408,0,0
216177.25,713.134,-624.122,0,0
216437.575,712.808,-633.172,0,0
216697.9,712.098,-642.581,0,0
216958.225,710.655,-652.157,0,0
217218.55,708.459,-661.369,0,0
217478.875,705.939,-670.168,0,0
217739.2,703.401,-678.717,0,0
217999.525,700.705,-687.217,0,0
218259.85,697.516,-695.834,0,0
218520,693.744,-704.317,0,0
218780,689.451,-712.082,0,0
219041,685.151,-719.225,0,0
219301,681.072,-725.704,0,0
219561,677.501,-732.16,0,0
219822,674.377,-738.744,0,0
220082,671.205,-746.019,0,0
220342,667.449,-753.608,0,0
220603,663.203,-761.261,0,0
220863,658.554,-768.757,0,0
221123,653.539,-776.318,0,0
221384,648.264,-783.638,0,0
221644,642.673,-790.963,0,0
221904,636.48,-798.663,0,0
222165,629.209,-806.349,0,0
222425,621.03,-813.058,0,0
222685,612.549,-818.96,0,0
222946,603.69,-824.247,0,0
223206,594.223,-828.939,0,0
223466,584.412,-832.18,0,0
223727,574.833,-834.257,0,0
223987,565.876,-835.401,0,0
224247,557.377,-835.713,0,0
224508,549.593,-835.286,0,0
224768,542.927,-834.251,0,0
225028,537.165,-832.949,0,0
225289,532.345,-832.082,0,0
225549,528.375,-831.56,0,0
225809,524.913,-831.471,0,0
226070,521.755,-832.106,0,0
226330,518.597,-833.492,0,0
226590,515.006,-835.067,0,0
226851,511.38,-836.667,0,0
227111,507.945,-838.584,0,0
227371,504.342,-841.088,0,0
227632,500.107,-843.954,0,0
227892,495.239,-846.744,0,0
228152,490.024,-849.053,0,0
228413,484.576,-851.161,0,0
228673,478.955,-852.851,0,0
228933,473.295,-854.34,0,0
229193,467.956,-855.499,0,0
229454,462.652,-856.498,0,0
229714,457.239,-857.618,0,0
229974,451.9,-858.666,0,0
230235,446.443,-859.643,0,0
230495,440.785,-860.496,0,0
230755,435.089,-861.05,0,0
231016,429.487,-861.331,0,0
231276,423.901,-861.31,0,0
231536,418.575,-861.198,0,0
231797,413.328,-861.02,0,0
232057,408.112,-860.799,0,0
232317,402.882,-860.474,0,0
232578,397.725,-859.996,0,0
232838,392.788,-859.391,0,0
233098,387.811,-858.823,0,0
233359,382.938,-858.131,0,0
233619,378.196,-857.388,0,0
233879,373.404,-856.673,0,0
234140,368.556,-855.818,0,0
234400,363.962,-854.911,0,0
234660.3,359.364,-853.836,0,0
234920.625,355.037,-852.866,0,0
235180.95,350.796,-852.105,0,0
235441.275,346.229,-851.477,0,0
235701.6,341.498,-850.776,0,0
235961.925,336.62,-849.913,0,0
236222.25,331.624,-848.896,0,0
236482.575,326.609,-847.509,0,0
236742.9,321.72,-845.971,0,0
237003.225,316.934,-844.374,0,0
237263.55,312.227,-842.756,0,0
237523.875,307.358,-841.102,0,0
237784.2,302.355,-839.242,0,0
238044.525,297.252,-836.992,0,0
238304.85,292.312,-834.406,0,0
238565.175,287.472,-831.501,0,0
238825.5,282.929,-828.344,0,0
239085.825,278.6,-824.971,0,0
239346.15,274.644,-821.427,0,0
239606.475,271.025,-817.868,0,0
239866.8,267.687,-814.433,0,0
240127.125,264.547,-811.149,0,0
240387.45,261.474,-807.8,0,0
240647.775,258.31,-804.508,0,0
240908.1,255.335,-801.17,0,0
241168.425,252.41,-797.669,0,0
241428.75,249.606,-794.087,0,0
241689.075,247.07,-790.279,0,0
241949.4,244.837,-786.445,0,0
242209.725,242.836,-782.661,0,0
242470.05,241.157,-778.95,0,0
242730.375,239.658,-775.498,0,0
242990.7,238.251,-772,0,0
243251.025,237.114,-768.542,0,0
243511.35,236.257,-765.341,0,0
243771.675,235.484,-762.395,0,0
244032.0,234.733,-759.784,0,0
244292.325,233.695,-757.362,0,0
244552.65,232.808,-755.006,0,0
244812.975,231.726,-752.604,0,0
245073.3,230.713,-750.469,0,0
245333.625,229.483,-748.224,0,0
245593.95,228.33,-745.933,0,0
245854.275,227.159,-743.566,0,0
246114.6,225.996,-741.217,0,0
246374.925,224.84,-738.791,0,0
246635.25,223.836,-736.251,0,0
246895.575,222.903,-733.801,0,0
247155.9,222.122,-731.408,0,0
247416.225,221.328,-729.089,0,0
247676.55,220.515,-726.759,0,0
247936.875,219.64,-724.389,0,0
248197.2,218.908,-721.862,0,0
248457.525,218.466,-719.357,0,0
248717.85,218.281,-716.956,0,0
248978.175,218.297,-714.662,0,0
249238.5,218.434,-712.754,0,0
249498.825,218.561,-711.112,0,0
249759.15,218.518,-709.806,0,0
250019.475,218.366,-708.549,0,0
250279.8,218.059,-707.511,0,0
250540,217.521,-706.51,0,0
250800,216.72,-705.635,0,0
251061,215.628,-704.744,0,0
251321,214.45,-703.58,0,0
251581,213.1,-702.35,0,0
251842,211.705,-701.038,0,0
252102,210.195,-699.519,0,0
252362,208.478,-697.933,0,0
252623,206.681,-696.021,0,0
252883,205.003,-693.75,0,0
253143,203.501,-691.292,0,0
253404,202.173,-688.675,0,0
253664,200.93,-685.96,0,0
253924,199.874,-683.171,0,0
254185,198.897,-680.262,0,0
254445,198.102,-677.141,0,0
254705,197.513,-673.989,0,0
254966,197.112,-670.724,0,0
255226,196.89,-667.474,0,0
255486,196.989,-664.042,0,0
255747,197.27,-660.615,0,0
256007,198.04,-657.238,0,0
256267,199.124,-653.957,0,0
256528,200.545,-651.009,0,0
256788,202.122,-648.296,0,0
257048,203.789,-645.899,0,0
257309,205.532,-643.818,0,0
257569,207.159,-641.987,0,0
257829,208.681,-640.268,0,0
258090,210.129,-638.623,0,0
258350,211.467,-636.931,0,0
258610,212.826,-635.083,0,0
258871,214.423,-633.125,0,0
259131,216.318,-631.067,0,0
259391,218.722,-629.121,0,0
259651,221.536,-627.557,0,0
259912,224.544,-626.479,0,0
260172,227.607,-625.845,0,0
260432,230.677,-625.592,0,0
260693,233.799,-625.582,0,0
260953,237.052,-626.074,0,0
261213,240.38,-627.286,0,0
261474,243.333,-629.042,0,0
261734,245.848,-631.235,0,0
261994,247.932,-633.816,0,0
262255,249.572,-636.704,0,0
262515,250.616,-639.824,0,0
262775,251.026,-643.008,0,0
263036,250.93,-645.989,0,0
263296,250.497,-648.854,0,0
263556,249.807,-651.592,0,0
263817,248.757,-654.289,0,0
264077,247.375,-656.936,0,0
264337,245.531,-659.385,0,0
264598,243.34,-661.516,0,0
264858,241.033,-663.261,0,0
265118,238.468,-664.767,0,0
265379,235.756,-666.064,0,0
265639,232.918,-666.969,0,0
265899,230.038,-667.618,0,0
266160,227.13,-668.019,0,0
266420,224.07,-668.082,0,0
266680.25,221.022,-667.811,0,0
266940.575,218.04,-667.187,0,0
267200.9,215.156,-666.213,0,0
267461.225,212.496,-664.978,0,0
267721.55,210.044,-663.519,0,0
267981.875,207.772,-661.883,0,0
268242.2,205.734,-660.118,0,0
268502.525,203.941,-658.258,0,0
268762.85,202.453,-656.447,0,0
269023.175,201.057,-654.608,0,0
269283.5,199.849,-652.868,0,0
269543.825,198.579,-651.074,0,0
269804.15,197.355,-649.212,0,0
270064.475,196.328,-647.328,0,0
270324.8,195.44,-645.312,0,0
270585.125,194.753,-643.227,0,0
270845.45,194.281,-641.21,0,0
271105.775,193.995,-639.225,0,0
271366.1,193.876,-637.356,0,0
271626.425,193.864,-635.675,0,0
271886.75,193.96,-634.054,0,0
272147.075,194.131,-632.655,0,0
272407.4,194.253,-631.532,0,0
272667.725,194.084,-630.493,0,0
272928.05,193.716,-629.268,0,0
273188.375,193.398,-627.968,0,0
273448.7,193.073,-626.489,0,0
273709.025,192.835,-624.895,0,0
273969.35,192.762,-623.119,0,0
274229.675,192.983,-621.272,0,0
274490.0,193.456,-619.541,0,0
274750.325,193.977,-617.859,0,0
275010.65,194.677,-616.348,0,0
275270.975,195.624,-614.756,0,0
275531.3,196.682,-613.331,0,0
275791.625,197.852,-612.117,0,0
276051.95,199.193,-611.004,0,0
276312.275,200.68,-610.062,0,0
276572.6,202.262,-609.341,0,0
276832.925,203.979,-608.886,0,0
277093.25,205.686,-608.758,0,0
277353.575,207.339,-608.968,0,0
277613.9,208.856,-609.384,0,0
277874.225,210.248,-609.979,0,0
278134.55,211.535,-610.838,0,0
278394.875,212.674,-611.846,0,0
278655.2,213.594,-613.041,0,0
278915.525,214.364,-614.392,0,0
279175.85,214.86,-615.82,0,0
279436.175,215.163,-617.314,0,0
279696.5,215.251,-618.902,0,0
279956.825,215.117,-620.519,0,0
280217.15,214.783,-622.204,0,0
280477.475,214.101,-623.852,0,0
280737.8,213.117,-625.341,0,0
280998.125,212.014,-626.637,0,0
281258.45,210.822,-627.824,0,0
281518.775,209.512,-628.928,0,0
281779.1,208.063,-629.96,0,0
282039.425,206.454,-630.825,0,0
282299.75,204.75,-631.48,0,0
282560,203.037,-631.961,0,0
282820,201.349,-632.334,0,0
283081,199.617,-632.589,0,0
283341,197.814,-632.82,0,0
283601,195.938,-632.891,0,0
283862,193.992,-632.724,0,0
284122,192.128,-632.407,0,0
284382,190.313,-631.967,0,0
284643,188.559,-631.432,0,0
284903,186.882,-630.777,0,0
285163,185.172,-630.056,0,0
285424,183.506,-629.202,0,0
285684,181.941,-628.2,0,0
285944,180.457,-627.071,0,0
286205,179.111,-625.873,0,0
286465,177.872,-624.611,0,0
286725,176.702,-623.265,0,0
286986,175.681,-621.854,0,0
287246,174.845,-620.333,0,0
287506,174.201,-618.851,0,0
287767,173.768,-617.407,0,0
288027,173.489,-616.1,0,0
288287,173.302,-614.932,0,0
288548,173.165,-613.873,0,0
288808,173.03,-612.913,0,0
289068,172.933,-612.066,0,0
289329,172.834,-611.314,0,0
289589,172.691,-610.649,0,0
289849,172.488,-610.004,0,0
290109,172.313,-609.449,0,0
290370,172.12,-608.881,0,0
290630,171.964,-608.404,0,0
290890,171.706,-608.023,0,0
291151,171.326,-607.687,0,0
291411,170.825,-607.341,0,0
291671,170.237,-606.897,0,0
291932,169.585,-606.384,0,0
292192,168.914,-605.743,0,0
292452,168.248,-604.98,0,0
292713,167.623,-604.093,0,0
292973,167.108,-603.081,0,0
293233,166.739,-601.996,0,0
293494,166.563,-600.89,0,0
293754,166.509,-599.771,0,0
294014,166.649,-598.78,0,0
294275,166.915,-597.871,0,0
294535,167.22,-597.064,0,0
294795,167.653,-596.335,0,0
295056,168.182,-595.78,0,0
295316,168.762,-595.381,0,0
295576,169.325,-595.187,0,0
295837,169.873,-595.167,0,0
296097,170.339,-595.279,0,0
296357,170.733,-595.522,0,0
296618,171.042,-595.895,0,0
296878,171.225,-596.368,0,0
297138,171.279,-596.923,0,0
297399,171.223,-597.57,0,0
297659,170.993,-598.231,0,0
297919,170.625,-598.904,0,0
298180,170.096,-599.582,0,0
298440,169.451,-600.181,0,0
298700.2,168.7,-600.722,0,0
298960.525,167.902,-601.201,0,0
299220.85,167.052,-601.672,0,0
299481.175,166.112,-602.066,0,0
299741.5,165.098,-602.442,0,0
300001.825,164.029,-602.759,0,0
300262.15,162.909,-603.018,0,0
300522.475,161.723,-603.243,0,0
300782.8,160.497,-603.374,0,0
301043.125,159.236,-603.436,0,0
301303.45,157.937,-603.445,0,0
301563.775,156.567,-603.396,0,0
301824.1,155.161,-603.238,0,0
302084.425,153.759,-602.968,0,0
302344.75,152.351,-602.576,0,0
302605.075,151.016,-602.136,0,0
302865.4,149.704,-601.628,0,0
303125.725,148.424,-601.054,0,0
303386.05,147.203,-600.47,0,0
303646.375,145.967,-599.852,0,0
303906.7,144.753,-599.189,0,0
304167.025,143.549,-598.462,0,0
304427.35,142.354,-597.673,0,0
304687.675,141.225,-596.842,0,0
304948.0,140.119,-595.955,0,0
305208.325,139.064,-594.975,0,0
305468.65,138.067,-593.986,0,0
305728.975,137.148,-592.973,0,0
305989.3,136.311,-591.937,0,0
306249.625,135.541,-590.89,0,0
306509.95,134.839,-589.863,0,0
306770.275,134.19,-588.835,0,0
307030.6,133.592,-587.822,0,0
307290.925,133.068,-586.823,0,0
307551.25,132.619,-585.865,0,0
307811.575,132.22,-584.988,0,0
308071.9,131.849,-584.172,0,0
308332.225,131.491,-583.415,0,0
308592.55,131.113,-582.716,0,0
308852.875,130.714,-582.085,0,0
309113.2,130.316,-581.479,0,0
309373.525,129.871,-580.925,0,0
309633.85,129.413,-580.398,0,0
309894.175,128.86,-579.858,0,0
310154.5,128.332,-579.357,0,0
310414.825,127.755,-578.858,0,0
310675.15,127.144,-578.372,0,0
310935.475,126.447,-577.92,0,0
311195.8,125.733,-577.409,0,0
311456.125,124.951,-576.876,0,0
311716.45,124.125,-576.326,0,0
311976.775,123.228,-575.707,0,0
312237.1,122.305,-575.023,0,0
312497.425,121.379,-574.249,0,0
312757.75,120.455,-573.405,0,0
313018.075,119.526,-572.469,0,0
313278.4,118.646,-571.47,0,0
313538.725,117.771,-570.38,0,0
313799.05,116.972,-569.23,0,0
314059.375,116.248,-568.033,0,0
314319.7,115.551,-566.771,0,0
314580,115.005,-565.48,0,0
314840,114.397,-564.019,0,0
315101,114.053,-562.726,0,0
315361,113.853,-561.34,0,0
315621,113.706,-559.999,0,0
315882,113.642,-558.684,0,0
316142,113.649,-557.506,0,0
316402,113.807,-556.338,0,0
316663,113.979,-555.283,0,0
316923,114.162,-554.286,0,0
317183,114.291,-553.531,0,0
317444,114.576,-552.743,0,0
317704,114.671,-552.008,0,0
317964,114.783,-551.391,0,0
318225,114.863,-550.764,0,0
318485,114.998,-550.14,0,0
318745,114.962,-549.589,0,0
319006,114.991,-548.995,0,0
319266,114.972,-548.462,0,0
319526,114.844,-547.775,0,0
319787,114.926,-547.229,0,0
320047,114.939,-546.679,0,0
320307,114.841,-545.988,0,0
320567,114.931,-545.466,0,0
320828,114.921,-544.842,0,0
321088,115.036,-544.297,0,0
321348,115.209,-543.743,0,0
321609,115.414,-543.203,0,0
321869,115.624,-542.787,0,0
322129,115.932,-542.425,0,0
322390,116.2,-542.189,0,0
322650,116.363,-542.06,0,0
322910,116.578,-541.985,0,0
323171,116.741,-541.965,0,0
323431,116.83,-542.131,0,0
323691,116.785,-542.174,0,0
323952,116.692,-542.371,0,0
324212,116.524,-542.575,0,0
324472,116.339,-542.755,0,0
324733,115.997,-543.036,0,0
324993,115.555,-543.268,0,0
325253,115.029,-543.456,0,0
325514,114.425,-543.586,0,0
325774,113.745,-543.739,0,0
326034,113.06,-543.854,0,0
326295,112.293,-543.852,0,0
326555,111.433,-543.853,0,0
326815,110.557,-543.756,0,0
327076,109.707,-543.679,0,0
327336,108.817,-543.53,0,0
327596,107.88,-543.143,0,0
327857,106.957,-542.914,0,0
328117,106.179,-542.548,0,0
328377,105.262,-542.171,0,0
328638,104.357,-541.829,0,0
328898,103.484,-541.282,0,0
329158,102.658,-540.81,0,0
329419,101.76,-540.242,0,0
329679,100.883,-539.778,0,0
329939,100.152,-539.234,0,0
330200,99.3197,-538.723,0,0
330460,98.4677,-538.147,0,0
330720.15,97.6838,-537.565,0,0
330980.475,96.7865,-536.95,0,0
331240.8,96.0172,-536.419,0,0
331501.125,95.1271,-535.743,0,0
331761.45,94.2029,-535.152,0,0
332021.775,93.4039,-534.421,0,0
332282.1,92.5147,-533.698,0,0
332542.425,91.6529,-532.934,0,0
332802.75,90.7848,-532.233,0,0
333063.075,89.8704,-531.36,0,0
333323.4,89.0307,-530.531,0,0
333583.725,88.1554,-529.647,0,0
333844.05,87.2013,-528.698,0,0
334104.375,86.5024,-527.745,0,0
334364.7,85.599,-526.703,0,0
334625.025,84.8756,-525.621,0,0
334885.35,84.1248,-524.519,0,0
335145.675,83.4086,-523.472,0,0
335406.0,82.7297,-522.296,0,0
335666.325,82.0395,-521.097,0,0
335926.65,81.4722,-519.957,0,0
336186.975,80.8824,-518.733,0,0
336447.3,80.4094,-517.478,0,0
336707.625,79.9848,-516.31,0,0
336967.95,79.4679,-515.091,0,0
337228.275,79.0433,-513.874,0,0
337488.6,78.633,-512.621,0,0
337748.925,78.3321,-511.502,0,0
338009.25,77.9472,-510.229,0,0
338269.575,77.5892,-508.946,0,0
338529.9,77.2877,-507.724,0,0
338790.225,77.0089,-506.395,0,0
339050.55,76.7673,-505.074,0,0
339310.875,76.5847,-503.687,0,0
339571.2,76.4835,-502.342,0,0
339831.525,76.3306,-500.982,0,0
340091.85,76.4312,-499.582,0,0
340352.175,76.5363,-498.305,0,0
340612.5,76.7042,-496.907,0,0
340872.825,76.9864,-495.658,0,0
341133.15,77.3002,-494.379,0,0
341393.475,77.7168,-493.224,0,0
341653.8,78.1195,-492.08,0,0
341914.125,78.563,-491.048,0,0
342174.45,79.1059,-490.1,0,0
342434.775,79.7508,-489.217,0,0
342695.1,80.207,-488.452,0,0
342955.425,80.8277,-487.797,0,0
343215.75,81.2728,-487.14,0,0
343476.075,81.7694,-486.627,0,0
343736.4,82.2099,-486.194,0,0
343996.725,82.6677,-485.832,0,0
344257.05,82.9341,-485.502,0,0
344517.375,83.1562,-485.229,0,0
344777.7,83.3313,-484.94,0,0
345038.025,83.3738,-484.57,0,0
345298.35,83.4194,-484.306,0,0
345558.675,83.4269,-483.86,0,0
345819.0,83.3234,-483.485,0,0
346079.325,83.3153,-483.047,0,0
346339.65,83.2369,-482.694,0,0
346599.975,83.224,-482.165,0,0
346860,83.153,-481.759,0,0
347121,83.0681,-481.316,0,0
347381,83.0257,-480.859,0,0
347641,82.8765,-480.376,0,0
347902,82.7524,-479.83,0,0
348162,82.5978,-479.348,0,0
348422,82.3731,-478.783,0,0
348683,82.1792,-478.16,0,0
348943,82.0033,-477.533,0,0
349203,81.9478,-476.841,0,0
349464,81.8482,-476.029,0,0
349724,81.8537,-475.302,0,0
349984,81.817,-474.551,0,0
350245,81.9996,-473.745,0,0
350505,82.165,-473.003,0,0
350765,82.4055,-472.272,0,0
351025,82.7407,-471.592,0,0
351286,83.108,-471.041,0,0
351546,83.5213,-470.557,0,0
351806,83.933,-470.214,0,0
352067,84.2724,-469.968,0,0
352327,84.5359,-469.828,0,0
352587,84.7458,-469.723,0,0
352848,84.8545,-469.646,0,0
353108,84.9069,-469.619,0,0
353368,84.8099,-469.502,0,0
353629,84.7094,-469.433,0,0
353889,84.5543,-469.393,0,0
354149,84.2887,-469.197,0,0
354410,83.9951,-469.043,0,0
354670,83.6747,-468.82,0,0
354930,83.3123,-468.545,0,0
355191,82.9609,-468.201,0,0
355451,82.6526,-467.82,0,0
355711,82.3131,-467.402,0,0
355972,81.9757,-466.968,0,0
356232,81.6421,-466.588,0,0
356492,81.3254,-466.073,0,0
356753,80.9147,-465.571,0,0
357013,80.5782,-465.027,0,0
357273,80.2137,-464.463,0,0
357534,79.9072,-463.9,0,0
357794,79.5653,-463.241,0,0
358054,79.2656,-462.53,0,0
358315,79.0319,-461.762,0,0
358575,78.8642,-461.049,0,0
358835,78.7484,-460.288,0,0
359096,78.6961,-459.571,0,0
359356,78.6179,-458.893,0,0
359616,78.6188,-458.206,0,0
359877,78.6311,-457.569,0,0
360137,78.6534,-456.945,0,0
360397,78.6694,-456.357,0,0
360658,78.6855,-455.782,0,0
360918,78.6783,-455.3,0,0
361178,78.613,-454.727,0,0
361438,78.5704,-454.193,0,0
361699,78.5293,-453.686,0,0
361959,78.4271,-453.098,0,0
362219,78.3641,-452.507,0,0
362480,78.2721,-451.915,0,0
362740.1,78.2756,-451.28,0,0
363000.425,78.2371,-450.587,0,0
363260.75,78.2981,-449.886,0,0
363521.075,78.4167,-449.194,0,0
363781.4,78.6131,-448.513,0,0
364041.725,78.8486,-447.894,0,0
364302.05,79.1275,-447.358,0,0
364562.375,79.4654,-446.895,0,0
364822.7,79.7658,-446.495,0,0
365083.025,80.0909,-446.141,0,0
365343.35,80.4141,-445.944,0,0
365603.675,80.6801,-445.781,0,0
365864.0,80.854,-445.714,0,0
366124.325,80.951,-445.677,0,0
366384.65,80.9516,-445.631,0,0
366644.975,80.8403,-445.632,0,0
366905.3,80.6811,-445.651,0,0
367165.625,80.4,-445.532,0,0
367425.95,80.0925,-445.388,0,0
367686.275,79.6652,-445.21,0,0
367946.6,79.2487,-445.002,0,0
368206.925,78.8014,-444.699,0,0
368467.25,78.3321,-444.367,0,0
368727.575,77.8158,-443.851,0,0
368987.9,77.2645,-443.242,0,0
369248.225,76.8049,-442.529,0,0
369508.55,76.4496,-441.701,0,0
369768.875,76.2127,-440.792,0,0
370029.2,76.1246,-439.834,0,0
370289.525,76.0553,-439.021,0,0
370549.85,76.2451,-438.138,0,0
370810.175,76.5321,-437.37,0,0
371070.5,76.8828,-436.735,0,0
371330.825,77.2258,-436.176,0,0
371591.15,77.5753,-435.8,0,0
371851.475,77.9282,-435.481,0,0
372111.8,78.2007,-435.323,0,0
372372.125,78.3513,-435.219,0,0
372632.45,78.4481,-435.231,0,0
372892.775,78.373,-435.194,0,0
373153.1,78.246,-435.112,0,0
373413.425,77.9498,-435.034,0,0
373673.75,77.6743,-434.896,0,0
373934.075,77.272,-434.684,0,0
374194.4,76.8792,-434.329,0,0
374454.725,76.4509,-433.954,0,0
374715.05,76.1029,-433.511,0,0
374975.375,75.7257,-433.022,0,0
375235.7,75.3123,-432.524,0,0
375496.025,74.9198,-431.87,0,0
375756.35,74.645,-431.232,0,0
376016.675,74.313,-430.507,0,0
376277.0,74.1031,-429.72,0,0
376537.325,73.9316,-428.964,0,0
376797.65,73.8853,-428.226,0,0
377057.975,73.824,-427.45,0,0
377318.3,73.821,-426.762,0,0
377578.625,73.9017,-426.028,0,0
377838.95,74.0074,-425.393,0,0
378099.275,74.111,-424.762,0,0
378359.6,74.2181,-424.106,0,0
378619.925,74.3702,-423.499,0,0
378880,74.5265,-422.895,0,0
379141,74.7842,-422.325,0,0
379401,74.9585,-421.878,0,0
379661,75.2222,-421.394,0,0
379922,75.3781,-421.061,0,0
380182,75.6552,-420.722,0,0
380442,75.8344,-420.419,0,0
380703,75.9284,-420.187,0,0
380963,75.9572,-419.959,0,0
381223,75.9513,-419.655,0,0
381483,75.9729,-419.318,0,0
381744,75.9571,-419.091,0,0
382004,75.9465,-418.731,0,0
382264,75.959,-418.41,0,0
382525,75.9533,-418.058,0,0
382785,75.9483,-417.77,0,0
383045,75.9404,-417.474,0,0
383306,75.9723,-417.259,0,0
383566,75.8492,-416.969,0,0
383826,75.8029,-416.811,0,0
384087,75.6178,-416.579,0,0
384347,75.4717,-416.315,0,0
384607,75.2467,-416.075,0,0
384868,75.028,-415.731,0,0
385128,74.7651,-415.365,0,0
385388,74.4972,-414.999,0,0
385649,74.279,-414.66,0,0
385909,74.0159,-414.186,0,0
386169,73.7599,-413.778,0,0
386430,73.5138,-413.326,0,0
386690,73.2579,-412.84,0,0
386950,72.9807,-412.32,0,0
387211,72.7367,-411.802,0,0
387471,72.4861,-411.252,0,0
387731,72.2044,-410.676,0,0
387992,71.9524,-410.035,0,0
388252,71.6934,-409.426,0,0
388512,71.5216,-408.751,0,0
388773,71.2689,-408.047,0,0
389033,71.0914,-407.307,0,0
389293,70.9784,-406.516,0,0
389554,70.8605,-405.704,0,0
389814,70.8458,-404.909,0,0
390074,70.7959,-404.02,0,0
390335,70.8519,-403.199,0,0
390595,70.94,-402.349,0,0
390855,71.061,-401.526,0,0
391116,71.246,-400.725,0,0
391376,71.5015,-399.892,0,0
391636,71.7712,-399.061,0,0
391896,72.1604,-398.319,0,0
392157,72.5439,-397.572,0,0
392417,73.023,-396.875,0,0
392677,73.472,-396.277,0,0
392938,73.9381,-395.715,0,0
393198,74.4432,-395.203,0,0
393458,74.9241,-394.756,0,0
393719,75.4404,-394.376,0,0
393979,75.8996,-393.995,0,0
394239,76.3883,-393.703,0,0
394500,76.8177,-393.397,0,0
394760.05,77.301,-393.114,0,0
395020.375,77.7138,-392.968,0,0
395280.7,78.17,-392.759,0,0
395541.025,78.5586,-392.624,0,0
395801.35,78.9556,-392.48,0,0
396061.675,79.3067,-392.383,0,0
396322.0,79.6708,-392.317,0,0
396582.325,80.0112,-392.284,0,0
396842.65,80.2966,-392.304,0,0
397102.975,80.5672,-392.377,0,0
397363.3,80.7769,-392.433,0,0
397623.625,80.9293,-392.492,0,0
397883.95,81.0523,-392.597,0,0
398144.275,81.1532,-392.731,0,0
398404.6,81.1486,-392.841,0,0
398664.925,81.1789,-392.898,0,0
398925.25,81.1233,-393.003,0,0
399185.575,81.0366,-393.067,0,0
399445.9,80.9089,-393.112,0,0
399706.225,80.7886,-393.143,0,0
399966.55,80.6019,-393.166,0,0
400006.6,80.5409,-393.173,0,0