File: Accelerated corrosion test data/2025-10-14_06-00-04/sample_2.csv
Frequency (Hz),Impedance (ohms),Phase (Radians),Temperature (C),Humidity (%)
10000.0,230.794,-11408.9,0,0
10260.325,225.229,-11122.1,0,0
10520.65,219.917,-10848.8,0,0
10780.975,215.557,-10588.9,0,0
11041.3,209.585,-10341.9,0,0
11301.625,205.217,-10104.7,0,0
11561.95,201.804,-9877.69,0,0
11822.275,199.83,-9668.86,0,0
12082.6,194.658,-9459.2,0,0
12342.925,189.185,-9262.83,0,0
12603.25,185.02,-9071.83,0,0
12863.575,181.197,-8888.27,0,0
13123.9,178.61,-8715.82,0,0
13384.225,174.498,-8544.91,0,0
13644.55,172.352,-8379.96,0,0
13904.875,187.383,-8229.24,0,0
14165.2,166.466,-8082.18,0,0
14425.525,163.829,-7932.7,0,0
14685.8,166.379,-7788.07,0,0
14946.175,161.017,-7659.19,0,0
15206.5,164.117,-7538.75,0,0
15466.825,162.843,-7403.51,0,0
15727.15,152.789,-7290.37,0,0
15987.5,149.427,-7169.01,0,0
16247.8,149.745,-7055.06,0,0
16508.125,144.045,-6945.08,0,0
16768.45,141.705,-6836.98,0,0
17028.775,140.327,-6733.25,0,0
17289.1,138.872,-6632.53,0,0
17549.425,135.712,-6533.73,0,0
17809.75,133.664,-6438.43,0,0
18070.075,131.582,-6345.37,0,0
18330.4,130.117,-6254.61,0,0
18590.725,129.252,-6166.83,0,0
18851.05,127.94,-6081.09,0,0
19111.375,129.479,-5999.85,0,0
19371.7,128.835,-5922.5,0,0
19632.025,123.758,-5844.35,0,0
19892.35,121.405,-5766.77,0,0
20152.675,119.686,-5691.07,0,0
20413.0,118.924,-5617.17,0,0
20673.3,118.12,-5544.66,0,0
20933.65,118.869,-5473.21,0,0
21193.975,124.002,-5406.08,0,0
21454.3,131.049,-5344.87,0,0
21714.625,127.477,-5288.99,0,0
21974.9,122.216,-5223.83,0,0
22235.275,119.186,-5169.08,0,0
22495.6,115.272,-5108.98,0,0
22755.925,112.388,-5048.14,0,0
23016.25,112.813,-4993.08,0,0
23276.6,113.678,-4938.41,0,0
23536.9,109.21,-4883.34,0,0
23797.225,107.346,-4829.35,0,0
24057.55,106.833,-4778.61,0,0
24317.875,103.345,-4727.79,0,0
24578.2,101.676,-4676.59,0,0
24838.525,100.767,-4626.55,0,0
25098.85,99.7656,-4578.03,0,0
25359.175,98.4356,-4530.68,0,0
25619.5,98.2212,-4484.5,0,0
25879.8,96.4542,-4438.42,0,0
26140.1,97.0327,-4393.89,0,0
26400.5,96.5166,-4350.33,0,0
26660.8,96.7205,-4308.77,0,0
26921.1,94.9404,-4266.34,0,0
27181.4,94.5416,-4226.93,0,0
27441.8,92.5147,-4186.67,0,0
27702.1,91.1998,-4146.57,0,0
27962.4,90.1426,-4106.17,0,0
28222.7,90.5158,-4068.1,0,0
28483.1,90.3052,-4029.95,0,0
28743.4,89.2174,-3992.51,0,0
29003.7,90.7496,-3955.57,0,0
29264,90.6334,-3919.48,0,0
29524.4,93.8467,-3884.35,0,0
29784.7,97.0374,-3855.79,0,0
30045,93.3908,-3823.44,0,0
30305.3,94.5645,-3790.92,0,0
30565.7,91.0326,-3762.94,0,0
30826,88.2254,-3730.33,0,0
31086.3,87.2253,-3698.45,0,0
31346.6,85.1118,-3666.97,0,0
31607,85.3772,-3636.37,0,0
31867.3,83.0822,-3607.3,0,0
32127.6,82.4232,-3576.37,0,0
32387.9,82.7875,-3546.24,0,0
32648.3,83.7905,-3518.24,0,0
32908.6,83.3766,-3492.09,0,0
33168.9,81.7845,-3465.83,0,0
33429.2,80.1564,-3438.5,0,0
33689.6,80.0097,-3411.53,0,0
33949.9,79.0528,-3385.43,0,0
34210.2,77.5306,-3359.5,0,0
34470.5,76.6383,-3333.39,0,0
34730.9,76.0606,-3307.71,0,0
34991.2,75.6073,-3282.52,0,0
35251.5,74.9045,-3258.19,0,0
35511.8,74.3023,-3233.95,0,0
35772.2,74.259,-3210.26,0,0
36032.5,73.3781,-3186.76,0,0
36292.8,72.7222,-3163.24,0,0
36553.1,72.4764,-3140.41,0,0
36813.5,71.99,-3117.71,0,0
37073.8,71.4891,-3095.33,0,0
37334.1,71.1987,-3073.42,0,0
37594.4,70.8929,-3052.03,0,0
37854.8,70.9178,-3030.7,0,0
38115.1,70.2604,-3010,0,0
38375.4,69.6757,-2989.07,0,0
38635.7,69.1928,-2968.48,0,0
38896.1,68.9385,-2948.22,0,0
39156.4,68.3724,-2928.35,0,0
39416.7,68.008,-2908.43,0,0
39677,67.7166,-2889.07,0,0
39937.4,67.17,-2869.76,0,0
40197.7,66.8857,-2850.84,0,0
40458,66.5101,-2832.11,0,0
40718.3,66.6531,-2813.03,0,0
40978.7,66.3201,-2795.36,0,0
41239,65.8553,-2777.06,0,0
41499.3,66.0163,-2759.43,0,0
41759.6,65.4135,-2741.8,0,0
42020,65.3366,-2724.46,0,0
42280.275,65.2816,-2707.75,0,0
42540.6,64.5323,-2690.55,0,0
42800.925,64.399,-2674.06,0,0
43061.25,64.0429,-2657.28,0,0
43321.575,63.902,-2640.84,0,0
43581.9,63.6301,-2624.87,0,0
43842.225,63.3597,-2608.65,0,0
44102.55,63.3115,-2592.91,0,0
44362.875,63.0053,-2577.5,0,0
44623.2,62.6321,-2562.1,0,0
44883.525,62.2328,-2546.72,0,0
45143.85,62.0614,-2531.23,0,0
45404.175,62.3233,-2516.31,0,0
45664.5,61.7394,-2501.83,0,0
45924.825,61.9138,-2486.94,0,0
46185.15,61.992,-2473.01,0,0
46445.475,61.4843,-2458.94,0,0
46705.8,60.9181,-2444.58,0,0
46966.125,61.043,-2430.56,0,0
47226.45,61.1103,-2416.36,0,0
47486.775,61.45,-2403.37,0,0
47747.1,60.7346,-2389.69,0,0
48007.425,60.6844,-2376.18,0,0
48267.75,61.5359,-2362.52,0,0
48528.075,61.9418,-2350.55,0,0
48788.4,61.2327,-2338.37,0,0
49048.725,60.7352,-2325.87,0,0
49309.05,60.1301,-2313.73,0,0
49569.375,59.421,-2301.18,0,0
49829.7,58.8824,-2288.58,0,0
50090.025,58.726,-2276.32,0,0
50350.35,58.0786,-2263.88,0,0
50610.675,57.8969,-2251.55,0,0
50871.0,57.9495,-2239.67,0,0
51131.325,57.8023,-2228.12,0,0
51391.65,57.2973,-2216.4,0,0
51651.975,56.878,-2204.9,0,0
51912.3,56.4451,-2193.43,0,0
52172.625,55.9017,-2181.8,0,0
52432.95,55.8156,-2170.34,0,0
52693.275,55.5496,-2158.95,0,0
52953.6,55.3433,-2147.79,0,0
53213.925,55.1191,-2136.64,0,0
53474.25,55.0506,-2125.63,0,0
53734.575,54.8305,-2114.74,0,0
53994.9,54.6718,-2103.9,0,0
54255.225,54.6443,-2093.14,0,0
54515.55,54.5204,-2082.51,0,0
54775.875,54.4989,-2072.22,0,0
55036.2,54.3007,-2061.74,0,0
55296.525,54.2598,-2051.5,0,0
55556.85,54.0679,-2041.22,0,0
55817.175,54.0772,-2031.16,0,0
56077.5,54.0354,-2021.14,0,0
56337.825,54.1101,-2011.28,0,0
56598.15,54.0388,-2001.35,0,0
56858.475,54.0287,-1991.54,0,0
57118.8,54.061,-1982.01,0,0
57379.125,54.1063,-1972.41,0,0
57639.45,54.1461,-1962.87,0,0
57899.775,54.2415,-1953.51,0,0
58160.1,54.3406,-1944.33,0,0
58420.4,54.094,-1935.14,0,0
58680.7,54.1695,-1925.84,0,0
58941.1,54.3837,-1916.52,0,0
59201.4,54.5009,-1907.43,0,0
59461.7,54.8154,-1898.41,0,0
59722,55.0425,-1889.56,0,0
59982.4,55.6579,-1880.63,0,0
60242.7,56.4411,-1872.54,0,0
60503,56.5208,-1864.58,0,0
60763.3,56.3091,-1856.08,0,0
61023.7,56.6551,-1847.42,0,0
61284,57.5499,-1839.24,0,0
61544.3,58.2135,-1831.51,0,0
61804.6,59.0267,-1824.25,0,0
62065,59.108,-1817.81,0,0
62325.3,58.1139,-1810.66,0,0
62585.6,57.8404,-1802.94,0,0
62845.9,57.6954,-1795.73,0,0
63106.3,56.7724,-1788.98,0,0
63366.6,55.7339,-1781.11,0,0
63626.9,55.3375,-1773.48,0,0
63887.2,54.708,-1765.76,0,0
64147.6,54.155,-1758.22,0,0
64407.9,53.4669,-1750.63,0,0
64668.2,53.2437,-1742.96,0,0
64928.5,52.5142,-1735.95,0,0
65188.9,51.3693,-1728.17,0,0
65449.2,50.738,-1719.69,0,0
65709.5,50.7921,-1711.66,0,0
65969.8,50.9026,-1703.88,0,0
66230.2,51.0407,-1696.32,0,0
66490.5,51.1977,-1688.86,0,0
66750.8,51.2262,-1681.64,0,0
67011.1,51.108,-1674.27,0,0
67271.5,51.5222,-1666.66,0,0
67531.8,52.0782,-1659.46,0,0
67792.1,52.6777,-1652.53,0,0
68052.4,53.348,-1645.69,0,0
68312.8,53.5506,-1639.57,0,0
68573.1,53.5749,-1632.78,0,0
68833.4,54.1971,-1625.97,0,0
69093.7,54.8235,-1619.92,0,0
69354.1,55.2539,-1613.97,0,0
69614.4,55.5771,-1607.99,0,0
69874.7,56.0574,-1602.56,0,0
70135,55.7377,-1597.26,0,0
70395.4,55.4254,-1592.03,0,0
70655.7,54.3676,-1586.63,0,0
70916,53.2358,-1580.54,0,0
71176.3,52.7503,-1574.33,0,0
71436.7,52.0687,-1568.44,0,0
71697,51.4067,-1562.62,0,0
71957.3,50.3638,-1556.88,0,0
72217.6,49.0379,-1550.58,0,0
72478,48.009,-1543.91,0,0
72738.3,47.2486,-1537.4,0,0
72998.6,46.6904,-1530.6,0,0
73258.9,46.4069,-1524.21,0,0
73519.3,45.8775,-1517.85,0,0
73779.6,45.3255,-1511.17,0,0
74039.9,45.149,-1504.4,0,0
74300.225,45.122,-1497.88,0,0
74560.55,45.1523,-1491.62,0,0
74820.875,45.2169,-1485.16,0,0
75081.2,45.3837,-1478.85,0,0
75341.525,45.5884,-1472.6,0,0
75601.85,45.8444,-1466.53,0,0
75862.175,46.1733,-1460.42,0,0
76122.5,46.5721,-1454.37,0,0
76382.825,47.0774,-1448.53,0,0
76643.15,47.5374,-1442.77,0,0
76903.475,47.981,-1437.06,0,0
77163.8,48.4455,-1431.32,0,0
77424.125,49.1638,-1425.7,0,0
77684.45,49.8623,-1420.34,0,0
77944.775,50.6057,-1415.11,0,0
78205.1,51.4236,-1410.03,0,0
78465.425,52.1467,-1405.27,0,0
78725.75,52.6345,-1400.69,0,0
78986.075,53.1073,-1396.18,0,0
79246.4,53.2991,-1391.84,0,0
79506.725,53.452,-1387.51,0,0
79767.05,53.3262,-1383.4,0,0
80027.375,52.7731,-1379.31,0,0
80287.7,51.8699,-1374.68,0,0
80548.025,51.2763,-1369.78,0,0
80808.35,50.5772,-1364.85,0,0
81068.675,50.157,-1359.74,0,0
81329.0,49.665,-1354.68,0,0
81589.325,49.323,-1349.69,0,0
81849.65,48.9669,-1344.56,0,0
82109.975,48.6537,-1339.44,0,0
82370.3,48.429,-1334.39,0,0
82630.625,48.21,-1329.14,0,0
82890.95,48.1716,-1323.99,0,0
83151.275,48.227,-1318.86,0,0
83411.6,48.366,-1313.85,0,0
83671.925,48.5002,-1308.9,0,0
83932.25,48.7089,-1304,0,0
84192.575,48.9269,-1299.28,0,0
84452.9,49.0709,-1294.57,0,0
84713.225,49.1252,-1289.93,0,0
84973.55,49.2502,-1285.25,0,0
85233.875,49.2879,-1280.46,0,0
85494.2,49.5569,-1275.69,0,0
85754.525,50.0102,-1271.16,0,0
86014.85,50.3094,-1266.77,0,0
86275.175,50.494,-1262.44,0,0
86535.5,50.637,-1258.18,0,0
86795.825,50.5999,-1253.8,0,0
87056.15,50.8893,-1249.34,0,0
87316.475,51.0527,-1245.03,0,0
87576.8,51.2749,-1240.98,0,0
87837.125,51.146,-1236.8,0,0
88097.45,51.1528,-1232.53,0,0
88357.775,51.4427,-1228.14,0,0
88618.1,51.4769,-1224.38,0,0
88878.425,50.9687,-1220.12,0,0
89138.75,51.0461,-1215.35,0,0
89399.075,51.4656,-1211.11,0,0
89659.4,51.6543,-1206.92,0,0
89919.725,52.0168,-1202.9,0,0
90180,52.1756,-1199.21,0,0
90440.4,51.7278,-1195.42,0,0
90700.7,51.33,-1190.95,0,0
90961,51.4081,-1186.16,0,0
91221.3,52.1511,-1181.8,0,0
91481.7,52.5896,-1177.95,0,0
91742,52.6853,-1174.07,0,0
92002.3,52.9753,-1169.76,0,0
92262.6,53.5137,-1165.57,0,0
92523,54.2482,-1161.86,0,0
92783.3,54.5598,-1158.28,0,0
93043.6,54.9604,-1154.57,0,0
93303.9,55.4113,-1151.09,0,0
93564.3,55.7374,-1147.7,0,0
93824.6,56.155,-1144.35,0,0
94084.9,56.1473,-1141.36,0,0
94345.2,55.7754,-1138.02,0,0
94605.6,55.4552,-1134.34,0,0
94865.9,55.5358,-1130.85,0,0
95126.2,55.2525,-1127.61,0,0
95386.5,54.5258,-1123.73,0,0
95646.9,54.1241,-1119.39,0,0
95907.2,54.4785,-1114.83,0,0
96167.5,55.4228,-1110.79,0,0
96427.8,56.3329,-1107.42,0,0
96688.2,56.8659,-1104.38,0,0
96948.5,57.2009,-1101.05,0,0
97208.8,57.8258,-1097.84,0,0
97469.1,58.4352,-1095.3,0,0
97729.5,58.3677,-1092.78,0,0
97989.8,58.096,-1090.02,0,0
98250.1,57.7713,-1087.14,0,0
98510.4,57.5882,-1084.17,0,0
98770.8,57.3606,-1081.53,0,0
99031.1,56.761,-1078.89,0,0
99291.4,55.8367,-1076.28,0,0
99551.7,54.527,-1073.11,0,0
99812.1,53.3688,-1069.38,0,0
100072,52.733,-1065.4,0,0
100333,52.5741,-1061.74,0,0
100593,52.359,-1058.62,0,0
100853,51.5692,-1055.58,0,0
101114,50.5916,-1052.15,0,0
101374,49.5753,-1048.64,0,0
101634,48.3851,-1044.68,0,0
101895,47.5816,-1040.35,0,0
102155,47.2228,-1036.05,0,0
102415,47.036,-1031.96,0,0
102676,46.6961,-1028.04,0,0
102936,46.1988,-1023.87,0,0
103196,46.0141,-1019.48,0,0
103457,46.0806,-1015.19,0,0
103717,46.1736,-1010.96,0,0
103977,46.4257,-1006.6,0,0
104238,46.9153,-1002.28,0,0
104498,47.6643,-998.167,0,0
104758,48.5219,-994.284,0,0
105019,49.3879,-990.6,0,0
105279,50.1214,-987.035,0,0
105539,50.9012,-983.329,0,0
105800,51.941,-979.814,0,0
106060,53.0954,-976.565,0,0
106320.175,54.2014,-973.607,0,0
106580.5,55.3148,-970.748,0,0
106840.825,56.307,-968.287,0,0
107101.15,56.9824,-966.032,0,0
107361.475,57.5309,-963.834,0,0
107621.8,57.6882,-961.722,0,0
107882.125,57.7246,-959.501,0,0
108142.45,57.5209,-957.34,0,0
108402.775,56.9001,-954.886,0,0
108663.1,56.6181,-952.12,0,0
108923.425,56.2107,-949.622,0,0
109183.75,55.5123,-946.975,0,0
109444.075,54.778,-944.009,0,0
109704.4,54.1667,-940.934,0,0
109964.725,53.4704,-937.825,0,0
110225.05,52.79,-934.423,0,0
110485.375,52.3552,-930.839,0,0
110745.7,51.9941,-927.225,0,0
111006.025,51.8345,-923.726,0,0
111266.35,51.7004,-920.239,0,0
111526.675,51.758,-916.634,0,0
111787.0,51.6484,-913.033,0,0
112047.325,51.7849,-909.489,0,0
112307.65,51.9129,-906.128,0,0
112567.975,51.9875,-902.688,0,0
112828.3,52.1415,-899.152,0,0
113088.625,52.2788,-895.696,0,0
113348.95,52.6023,-892.125,0,0
113609.275,53.0289,-888.741,0,0
113869.6,53.3647,-885.393,0,0
114129.925,53.696,-882.054,0,0
114390.25,54.2121,-878.644,0,0
114650.575,54.7064,-875.369,0,0
114910.9,55.2248,-871.98,0,0
115171.225,55.8634,-868.723,0,0
115431.55,56.5145,-865.54,0,0
115691.875,57.142,-862.429,0,0
115952.2,57.7453,-859.332,0,0
116212.525,58.4087,-856.197,0,0
116472.85,59.1867,-853.158,0,0
116733.175,59.9849,-850.222,0,0
116993.5,60.6967,-847.34,0,0
117253.825,61.4168,-844.487,0,0
117514.15,62.1741,-841.581,0,0
117774.475,63.0377,-838.814,0,0
118034.8,63.9438,-836.196,0,0
118295.125,64.7335,-833.698,0,0
118555.45,65.381,-831.139,0,0
118815.775,66.1857,-828.588,0,0
119076.1,66.9779,-826.261,0,0
119336.425,67.5827,-824.054,0,0
119596.75,68.2208,-821.724,0,0
119857.075,68.8765,-819.568,0,0
120117.4,69.4075,-817.524,0,0
120377.725,69.7986,-815.513,0,0
120638.05,70.0586,-813.6,0,0
120898.375,70.0691,-811.674,0,0
121158.7,69.86,-809.572,0,0
121419.025,69.7342,-807.222,0,0
121679.35,69.6392,-804.897,0,0
121939.675,69.4767,-802.584,0,0
122200.0,69.2497,-800.132,0,0
122460,69.0814,-797.609,0,0
122721,68.8978,-794.986,0,0
122981,68.8047,-792.351,0,0
123241,68.6833,-789.686,0,0
123502,68.6269,-787.006,0,0
123762,68.5105,-784.364,0,0
124022,68.3607,-781.652,0,0
124283,68.2488,-778.819,0,0
124543,68.1488,-776.004,0,0
124803,68.1021,-773.142,0,0
125064,68.0461,-770.193,0,0
125324,68.1057,-767.217,0,0
125584,68.1784,-764.214,0,0
125845,68.3289,-761.21,0,0
126105,68.5033,-758.187,0,0
126365,68.7056,-755.22,0,0
126626,69.0048,-752.136,0,0
126886,69.2735,-749.106,0,0
127146,69.6984,-746.008,0,0
127406,70.2237,-742.946,0,0
127667,70.8619,-740,0,0
127927,71.4929,-737.233,0,0
128187,72.1165,-734.403,0,0
128448,72.7072,-731.671,0,0
128708,73.3128,-728.943,0,0
128968,73.9836,-726.302,0,0
129229,74.61,-723.764,0,0
129489,75.101,-721.292,0,0
129749,75.4884,-718.738,0,0
130010,75.9282,-716.061,0,0
130270,76.5011,-713.401,0,0
130530,77.0678,-710.836,0,0
130791,77.6472,-708.316,0,0
131051,78.2223,-705.928,0,0
131311,78.6548,-703.588,0,0
131572,78.9745,-701.215,0,0
131832,79.254,-698.787,0,0
132092,79.4701,-696.377,0,0
132353,79.5636,-693.859,0,0
132613,79.7045,-691.201,0,0
132873,79.9015,-688.464,0,0
133134,80.1834,-685.732,0,0
133394,80.4823,-682.976,0,0
133654,80.8173,-680.209,0,0
133915,81.1389,-677.521,0,0
134175,81.433,-674.829,0,0
134435,81.6429,-672.087,0,0
134696,81.8619,-669.201,0,0
134956,82.1663,-666.306,0,0
135216,82.4744,-663.337,0,0
135477,82.8616,-660.333,0,0
135737,83.3286,-657.333,0,0
135997,83.803,-654.374,0,0
136258,84.3505,-651.37,0,0
136518,84.894,-648.419,0,0
136778,85.3676,-645.52,0,0
137039,85.8451,-642.437,0,0
137299,86.4685,-639.312,0,0
137559,87.2105,-636.25,0,0
137819,87.9512,-633.293,0,0
138080,88.6396,-630.413,0,0
138340.125,89.2464,-627.477,0,0
138600.45,89.8044,-624.493,0,0
138860.775,90.3915,-621.408,0,0
139121.1,91.0088,-618.284,0,0
139381.425,91.6204,-615.139,0,0
139641.75,92.2233,-611.948,0,0
139902.075,92.7665,-608.666,0,0
140162.4,93.3376,-605.168,0,0
140422.725,94.0847,-601.46,0,0
140683.05,95.0613,-597.686,0,0
140943.375,96.1649,-593.907,0,0
141203.7,97.4648,-590.051,0,0
141464.025,99.0438,-586.254,0,0
141724.35,100.738,-582.58,0,0
141984.675,102.595,-578.963,0,0
142245.0,104.574,-575.538,0,0
142505.325,106.583,-572.23,0,0
142765.65,108.634,-569.006,0,0
143025.975,110.738,-565.976,0,0
143286.3,112.653,-563.009,0,0
143546.625,114.547,-559.95,0,0
143806.95,116.578,-556.85,0,0
144067.275,118.651,-553.769,0,0
144327.6,120.73,-550.778,0,0
144587.925,122.798,-547.75,0,0
144848.25,124.954,-544.544,0,0
145108.575,127.402,-541.433,0,0
145368.9,129.924,-538.467,0,0
145629.225,132.479,-535.608,0,0
145889.55,134.998,-532.836,0,0
146149.875,137.479,-530.018,0,0
146410.2,140.058,-527.115,0,0
146670.525,142.797,-524.224,0,0
146930.85,145.615,-521.418,0,0
147191.175,148.463,-518.587,0,0
147451.5,151.515,-515.67,0,0
147711.825,154.768,-512.87,0,0
147972.15,158.128,-510.193,0,0
148232.475,161.569,-507.411,0,0
148492.8,165.36,-504.64,0,0
148753.125,169.381,-502.012,0,0
149013.45,173.772,-499.432,0,0
149273.775,178.655,-497.137,0,0
149534.1,183.885,-495.39,0,0
149794.425,189.218,-494.212,0,0
150054.75,194.536,-493.47,0,0
150315.075,199.993,-493.037,0,0
150575.4,205.797,-493.283,0,0
150835.725,211.401,-494.657,0,0
151096.05,216.182,-496.74,0,0
151356.375,220.316,-498.836,0,0
151616.7,224.324,-501.089,0,0
151877.025,228.017,-503.973,0,0
152137.35,230.862,-507.237,0,0
152397.675,232.947,-510.426,0,0
152658.0,234.5,-513.415,0,0
152918.325,235.63,-516.149,0,0
153178.65,236.593,-518.704,0,0
153438.975,237.351,-521.368,0,0
153699.3,237.507,-524.11,0,0
153959.625,237.005,-526.506,0,0
154219.95,236.19,-528.339,0,0
154480,235.323,-529.707,0,0
154741,234.453,-530.704,0,0
155001,233.398,-531.478,0,0
155261,232.547,-531.913,0,0
155522,231.953,-532.243,0,0
155782,231.271,-532.663,0,0
156042,230.419,-533.208,0,0
156303,229.236,-533.316,0,0
156563,228.12,-533.181,0,0
156823,227.048,-532.876,0,0
157084,225.831,-532.535,0,0
157344,224.483,-531.624,0,0
157604,223.379,-530.342,0,0
157864,222.567,-528.761,0,0
158125,222.039,-527.333,0,0
158385,221.735,-525.719,0,0
158645,221.729,-524.256,0,0
158906,221.855,-522.832,0,0
159166,222.04,-521.666,0,0
159426,222.041,-520.44,0,0
159687,222.111,-519.226,0,0
159947,222.213,-517.906,0,0
160207,222.338,-516.52,0,0
160468,222.698,-515.266,0,0
160728,222.856,-514.102,0,0
160988,222.992,-512.455,0,0
161249,223.748,-510.384,0,0
161509,225.423,-508.771,0,0
161769,227.392,-507.924,0,0
162030,229.596,-507.744,0,0
162290,231.497,-508.934,0,0
162550,232.197,-510.821,0,0
162811,231.981,-512.471,0,0
163071,230.948,-514.061,0,0
163331,229.187,-515.376,0,0
163592,227.01,-515.828,0,0
163852,224.941,-516.004,0,0
164112,222.494,-516.055,0,0
164373,219.598,-515.585,0,0
164633,216.783,-514.52,0,0
164893,213.897,-513.142,0,0
165154,210.929,-511.388,0,0
165414,207.994,-509.17,0,0
165674,205.037,-506.22,0,0
165935,202.697,-502.815,0,0
166195,200.795,-499.461,0,0
166455,198.934,-496.001,0,0
166716,197.13,-492.396,0,0
166976,195.593,-488.391,0,0
167236,194.516,-484.374,0,0
167497,193.475,-480.464,0,0
167757,192.417,-476.34,0,0
168017,191.505,-471.938,0,0
168277,190.973,-467.291,0,0
168538,190.906,-462.654,0,0
168798,191.26,-458.346,0,0
169058,191.626,-454.223,0,0
169319,191.7,-450.215,0,0
169579,191.636,-445.82,0,0
169839,191.978,-441.132,0,0
170100,192.78,-436.431,0,0
170360.075,193.772,-431.978,0,0
170620.4,194.687,-427.843,0,0
170880.725,195.312,-423.571,0,0
171141.05,196.017,-418.804,0,0
171401.375,197.274,-413.869,0,0
171661.7,198.728,-409.08,0,0
171922.025,200.314,-404.285,0,0
172182.35,202.079,-399.587,0,0
172442.675,203.922,-394.908,0,0
172703.0,205.852,-390.031,0,0
172963.325,208.115,-385.256,0,0
173223.65,210.512,-380.566,0,0
173483.975,212.87,-375.884,0,0
173744.3,215.349,-370.969,0,0
174004.625,218.183,-365.851,0,0
174264.95,221.414,-360.807,0,0
174525.275,224.992,-355.79,0,0
174785.6,228.9,-350.875,0,0
175045.925,233.1,-346.173,0,0
175306.25,237.685,-341.561,0,0
175566.575,242.749,-337.301,0,0
175826.9,248.04,-333.567,0,0
176087.225,253.321,-330.309,0,0
176347.55,258.632,-327.544,0,0
176607.875,263.621,-324.999,0,0
176868.2,268.381,-322.334,0,0
177128.525,273.521,-319.538,0,0
177388.85,279.289,-317.097,0,0
177649.175,285.299,-315.361,0,0
177909.5,291.193,-314.584,0,0
178169.825,296.341,-314.604,0,0
178430.15,300.769,-314.544,0,0
178690.475,305.144,-314.421,0,0
178950.8,309.254,-314.834,0,0
179211.125,312.559,-315.458,0,0
179471.45,315.352,-316.056,0,0
179731.775,317.068,-316.688,0,0
179992.1,319.385,-315.44,0,0
180252.425,320.42,-314.853,0,0
180512.75,321.332,-313.506,0,0
180773.075,322.328,-311.604,0,0
181033.4,323.186,-309.181,0,0
181293.725,324.202,-305.958,0,0
181554.05,325.785,-302.009,0,0
181814.375,328.042,-297.788,0,0
182074.7,330.988,-293.449,0,0
182335.025,334.515,-289.529,0,0
182595.35,337.954,-285.984,0,0
182855.675,341.074,-282.126,0,0
183116.0,344.347,-277.71,0,0
183376.325,348.223,-272.878,0,0
183636.65,352.856,-267.981,0,0
183896.975,358.034,-263.376,0,0
184157.3,363.355,-258.939,0,0
184417.625,369.021,-254.312,0,0
184677.95,375.435,-249.722,0,0
184938.275,382.501,-245.769,0,0
185198.6,389.613,-242.474,0,0
185458.925,396.598,-239.371,0,0
185719.25,403.732,-236.349,0,0
185979.575,411.014,-233.511,0,0
186239.9,418.467,-230.754,0,0
186500,426.348,-228.499,0,0
186761,433.846,-226.704,0,0
187021,441.138,-224.511,0,0
187281,449.04,-221.881,0,0
187542,457.717,-219.743,0,0
187802,466.586,-218.432,0,0
188062,475.246,-217.586,0,0
188322,483.863,-216.942,0,0
188583,492.42,-216.556,0,0
188843,500.823,-216.616,0,0
189103,508.67,-216.775,0,0
189364,516.226,-216.302,0,0
189624,524.172,-215.514,0,0
189884,532.384,-214.635,0,0
190145,541.015,-213.545,0,0
190405,550.279,-212.537,0,0
190665,559.644,-211.752,0,0
190926,569.197,-210.718,0,0
191186,579.702,-209.287,0,0
191446,591.51,-208.362,0,0
191707,603.82,-208.531,0,0
191967,616.305,-209.1,0,0
192227,629.42,-210.13,0,0
192488,643.059,-211.922,0,0
192748,657.115,-214.408,0,0
193008,671.813,-217.665,0,0
193269,687.196,-222.206,0,0
193529,702.718,-228.491,0,0
193789,717.74,-236.235,0,0
194050,732.122,-245.34,0,0
194310,745.399,-255.473,0,0
194570,757.775,-265.936,0,0
194831,769.663,-276.774,0,0
195091,781.055,-288.231,0,0
195351,791.629,-300.23,0,0
195612,801.421,-312.463,0,0
195872,810.685,-324.775,0,0
196132,819.515,-337.25,0,0
196393,827.974,-349.953,0,0
196653,836.121,-362.876,0,0
196913,843.746,-375.861,0,0
197174,851.486,-388.971,0,0
197434,859.168,-402.66,0,0
197694,866.655,-417.078,0,0
197955,873.777,-432.255,0,0
198215,880.382,-448.344,0,0
198475,885.944,-465.642,0,0
198735,889.787,-483.419,0,0
198996,892.194,-500.963,0,0
199256,893.512,-518.009,0,0
199516,894.255,-534.421,0,0
199777,894.931,-550.46,0,0
200037,895.582,-566.712,0,0
200297,895.776,-583.624,0,0
200558,895.201,-600.899,0,0
200818,893.64,-618.627,0,0
201078,890.977,-636.845,0,0
201339,886.479,-655.106,0,0
201599,880.259,-672.573,0,0
201859,873.047,-688.658,0,0
202120,865.881,-703.796,0,0
202380.025,858.177,-718.612,0,0
202640.35,849.828,-733.301,0,0
202900.675,840.432,-747.39,0,0
203161.0,830.199,-760.394,0,0
203421.325,819.513,-772.28,0,0
203681.65,808.784,-782.889,0,0
203941.975,798.467,-792.834,0,0
204202.3,788.412,-802.427,0,0
204462.625,778.055,-811.824,0,0
204722.95,767.759,-820.797,0,0
204983.275,757.336,-829.923,0,0
205243.6,745.653,-839.235,0,0
205503.925,732.606,-847.265,0,0
205764.25,719.356,-853.266,0,0
206024.575,706.736,-857.977,0,0
206284.9,694.65,-861.939,0,0
206545.225,682.928,-865.311,0,0
206805.55,671.64,-868.109,0,0
207065.875,660.62,-870.241,0,0
207326.2,649.988,-871.734,0,0
207586.525,640.091,-872.596,0,0
207846.85,630.975,-873.068,0,0
208107.175,622.8,-873.525,0,0
208367.5,615.199,-874.22,0,0
208627.825,607.992,-875.22,0,0
208888.15,601.22,-876.381,0,0
209148.475,594.804,-878.093,0,0
209408.8,588.223,-880.463,0,0
209669.125,581.218,-883.408,0,0
209929.45,573.269,-886.548,0,0
210189.775,564.721,-889.065,0,0
210450.1,555.854,-890.906,0,0
210710.425,547.14,-892.47,0,0
210970.75,538.08,-893.727,0,0
211231.075,528.762,-894.599,0,0
211491.4,519.215,-894.721,0,0
211751.725,509.477,-893.974,0,0
212012.05,500.317,-892.172,0,0
212272.375,492.082,-889.807,0,0
212532.7,484.481,-887.502,0,0
212793.025,477.235,-885.251,0,0
213053.35,470.158,-882.91,0,0
213313.675,463.325,-880.231,0,0
213574.0,456.692,-877.532,0,0
213834.325,450.642,-874.571,0,0
214094.65,444.92,-871.699,0,0
214354.975,439.386,-868.798,0,0
214615.3,434.141,-865.88,0,0
214875.625,429.185,-863.016,0,0
215135.95,424.347,-860.194,0,0
215396.275,419.445,-857.435,0,0
215656.6,414.717,-854.382,0,0
215916.925,410.211,-851.159,0,0
216177.25,406.023,-847.934,0,0
216437.575,402.208,-844.644,0,0
216697.9,398.585,-841.491,0,0
216958.225,395.148,-838.323,0,0
217218.55,391.863,-835.162,0,0
217478.875,388.856,-831.976,0,0
217739.2,386.117,-828.892,0,0
217999.525,383.533,-825.953,0,0
218259.85,380.976,-823.082,0,0
218520,378.54,-820.146,0,0
218780,376.402,-817.171,0,0
219041,374.463,-814.241,0,0
219301,372.798,-811.61,0,0
219561,371.289,-809.009,0,0
219822,369.843,-806.623,0,0
220082,368.536,-804.431,0,0
220342,367.066,-802.359,0,0
220603,365.636,-800.277,0,0
220863,364.272,-798.043,0,0
221123,363.147,-795.693,0,0
221384,362.307,-793.539,0,0
221644,361.712,-791.569,0,0
221904,361.242,-789.538,0,0
222165,360.973,-787.968,0,0
222425,360.941,-786.51,0,0
222685,360.845,-785.559,0,0
222946,360.726,-784.871,0,0
223206,360.526,-784.412,0,0
223466,360.011,-784.182,0,0
223727,359.268,-783.835,0,0
223987,358.555,-783.478,0,0
224247,357.884,-783.161,0,0
224508,357.172,-783.046,0,0
224768,356.239,-783.06,0,0
225028,355.101,-782.782,0,0
225289,353.971,-782.445,0,0
225549,352.981,-781.908,0,0
225809,352.287,-781.335,0,0
226070,351.691,-780.896,0,0
226330,351.273,-780.645,0,0
226590,351.012,-780.581,0,0
226851,350.711,-780.646,0,0
227111,350.513,-780.927,0,0
227371,350.195,-781.52,0,0
227632,349.884,-782.12,0,0
227892,349.626,-782.956,0,0
228152,349.311,-784.046,0,0
228413,348.918,-785.512,0,0
228673,348.239,-787.215,0,0
228933,347.322,-789.149,0,0
229193,345.962,-791.175,0,0
229454,344.327,-793.239,0,0
229714,342.37,-795.244,0,0
229974,340.145,-797.193,0,0
230235,337.704,-798.986,0,0
230495,334.983,-800.677,0,0
230755,332.187,-802.234,0,0
231016,329.164,-803.595,0,0
231276,326.088,-804.758,0,0
231536,322.971,-805.773,0,0
231797,319.918,-806.681,0,0
232057,316.78,-807.574,0,0
232317,313.514,-808.466,0,0
232578,310.107,-809.207,0,0
232838,306.649,-809.726,0,0
233098,303.152,-810.107,0,0
233359,299.572,-810.393,0,0
233619,296.049,-810.526,0,0
233879,292.569,-810.534,0,0
234140,289.065,-810.446,0,0
234400,285.504,-810.291,0,0
234660.3,281.921,-809.937,0,0
234920.625,278.412,-809.538,0,0
235180.95,275.041,-808.992,0,0
235441.275,271.586,-808.452,0,0
235701.6,268.245,-807.847,0,0
235961.925,264.872,-807.131,0,0
236222.25,261.489,-806.414,0,0
236482.575,258.049,-805.536,0,0
236742.9,254.707,-804.718,0,0
237003.225,251.262,-803.72,0,0
237263.55,247.834,-802.617,0,0
237523.875,244.415,-801.385,0,0
237784.2,241.106,-800.023,0,0
238044.525,237.823,-798.565,0,0
238304.85,234.622,-796.978,0,0
238565.175,231.514,-795.339,0,0
238825.5,228.514,-793.661,0,0
239085.825,225.546,-791.986,0,0
239346.15,222.652,-790.211,0,0
239606.475,219.813,-788.331,0,0
239866.8,217.088,-786.353,0,0
240127.125,214.361,-784.444,0,0
240387.45,211.862,-782.553,0,0
240647.775,209.413,-780.523,0,0
240908.1,207.064,-778.523,0,0
241168.425,204.737,-776.562,0,0
241428.75,202.456,-774.588,0,0
241689.075,200.212,-772.627,0,0
241949.4,197.997,-770.526,0,0
242209.725,195.931,-768.415,0,0
242470.05,193.968,-766.262,0,0
242730.375,192.206,-764.136,0,0
242990.7,190.531,-762.164,0,0
243251.025,188.89,-760.333,0,0
243511.35,187.233,-758.581,0,0
243771.675,185.53,-756.899,0,0
244032.0,183.884,-755.14,0,0
244292.325,182.226,-753.517,0,0
244552.65,180.588,-751.912,0,0
244812.975,178.997,-750.394,0,0
245073.3,177.15,-748.938,0,0
245333.625,175.5,-747.557,0,0
245593.95,173.825,-746.219,0,0
245854.275,171.97,-745.035,0,0
246114.6,169.938,-743.849,0,0
246374.925,167.751,-742.607,0,0
246635.25,165.283,-741.333,0,0
246895.575,162.658,-739.832,0,0
247155.9,159.963,-738.13,0,0
247416.225,157.29,-736.174,0,0
247676.55,154.612,-733.981,0,0
247936.875,152.118,-731.696,0,0
248197.2,149.603,-729.209,0,0
248457.525,147.25,-726.653,0,0
248717.85,144.976,-723.998,0,0
248978.175,142.773,-721.273,0,0
249238.5,140.693,-718.438,0,0
249498.825,138.655,-715.588,0,0
249759.15,136.798,-712.677,0,0
250019.475,134.87,-709.678,0,0
250279.8,133.007,-706.584,0,0
250540,131.298,-703.365,0,0
250800,129.741,-700.083,0,0
251061,128.312,-696.671,0,0
251321,127.039,-693.241,0,0
251581,125.982,-689.823,0,0
251842,125.037,-686.373,0,0
252102,124.228,-682.997,0,0
252362,123.671,-679.663,0,0
252623,123.124,-676.405,0,0
252883,122.689,-673.163,0,0
253143,122.3,-670.032,0,0
253404,121.957,-666.942,0,0
253664,121.675,-663.883,0,0
253924,121.443,-660.801,0,0
254185,121.211,-657.737,0,0
254445,121.103,-654.653,0,0
254705,121.04,-651.539,0,0
254966,121.032,-648.42,0,0
255226,121.087,-645.33,0,0
255486,121.308,-642.137,0,0
255747,121.606,-639.005,0,0
256007,122.128,-635.858,0,0
256267,122.784,-632.8,0,0
256528,123.592,-629.813,0,0
256788,124.478,-626.962,0,0
257048,125.456,-624.203,0,0
257309,126.5,-621.553,0,0
257569,127.567,-619.006,0,0
257829,128.683,-616.557,0,0
258090,129.829,-614.134,0,0
258350,131.02,-611.808,0,0
258610,132.243,-609.528,0,0
258871,133.49,-607.296,0,0
259131,134.766,-605.09,0,0
259391,136.154,-602.918,0,0
259651,137.669,-600.775,0,0
259912,139.263,-598.81,0,0
260172,140.941,-596.928,0,0
260432,142.675,-595.203,0,0
260693,144.405,-593.606,0,0
260953,146.167,-592.118,0,0
261213,147.911,-590.711,0,0
261474,149.726,-589.422,0,0
261734,151.547,-588.261,0,0
261994,153.354,-587.211,0,0
262255,155.152,-586.255,0,0
262515,156.959,-585.435,0,0
262775,158.777,-584.781,0,0
263036,160.501,-584.207,0,0
263296,162.155,-583.738,0,0
263556,163.78,-583.355,0,0
263817,165.322,-583.058,0,0
264077,166.896,-582.806,0,0
264337,168.398,-582.67,0,0
264598,169.824,-582.621,0,0
264858,171.243,-582.721,0,0
265118,172.495,-582.893,0,0
265379,173.661,-583.121,0,0
265639,174.72,-583.435,0,0
265899,175.624,-583.757,0,0
266160,176.42,-584.06,0,0
266420,177.093,-584.337,0,0
266680.25,177.753,-584.566,0,0
266940.575,178.345,-584.831,0,0
267200.9,178.893,-585.053,0,0
267461.225,179.406,-585.283,0,0
267721.55,179.841,-585.503,0,0
267981.875,180.175,-585.778,0,0
268242.2,180.458,-586.022,0,0
268502.525,180.626,-586.232,0,0
268762.85,180.745,-586.413,0,0
269023.175,180.717,-586.483,0,0
269283.5,180.591,-586.414,0,0
269543.825,180.417,-586.198,0,0
269804.15,180.383,-585.83,0,0
270064.475,180.316,-585.341,0,0
270324.8,180.352,-584.719,0,0
270585.125,180.453,-584.004,0,0
270845.45,180.792,-583.105,0,0
271105.775,181.252,-582.259,0,0
271366.1,181.953,-581.471,0,0
271626.425,182.691,-580.677,0,0
271886.75,183.533,-579.918,0,0
272147.075,184.464,-579.164,0,0
272407.4,185.531,-578.404,0,0
272667.725,186.832,-577.638,0,0
272928.05,188.331,-576.987,0,0
273188.375,190.043,-576.496,0,0
273448.7,191.86,-576.134,0,0
273709.025,193.817,-575.981,0,0
273969.35,195.931,-575.977,0,0
274229.675,198.286,-576.176,0,0
274490.0,200.871,-576.741,0,0
274750.325,203.554,-577.781,0,0
275010.65,206.22,-579.285,0,0
275270.975,208.757,-581.381,0,0
275531.3,211.047,-583.924,0,0
275791.625,212.993,-586.865,0,0
276051.95,214.433,-590.179,0,0
276312.275,215.462,-593.746,0,0
276572.6,215.901,-597.462,0,0
276832.925,215.784,-601.182,0,0
277093.25,215.142,-604.743,0,0
277353.575,214.13,-608.128,0,0
277613.9,212.783,-611.287,0,0
277874.225,211.176,-614.202,0,0
278134.55,209.342,-616.917,0,0
278394.875,207.356,-619.363,0,0
278655.2,205.248,-621.613,0,0
278915.525,203.014,-623.683,0,0
279175.85,200.655,-625.566,0,0
279436.175,198.214,-627.267,0,0
279696.5,195.754,-628.802,0,0
279956.825,193.168,-630.137,0,0
280217.15,190.494,-631.266,0,0
280477.475,187.814,-632.185,0,0
280737.8,185.179,-632.908,0,0
280998.125,182.616,-633.454,0,0
281258.45,180.174,-633.962,0,0
281518.775,177.716,-634.481,0,0
281779.1,175.181,-635.001,0,0
282039.425,172.519,-635.464,0,0
282299.75,169.707,-635.795,0,0
282560,166.749,-635.923,0,0
282820,163.723,-635.763,0,0
283081,160.685,-635.317,0,0
283341,157.753,-634.556,0,0
283601,155.025,-633.504,0,0
283862,152.616,-632.316,0,0
284122,150.52,-631.155,0,0
284382,148.633,-630.186,0,0
284643,146.76,-629.459,0,0
284903,144.705,-628.869,0,0
285163,142.412,-628.331,0,0
285424,139.832,-627.699,0,0
285684,137.034,-626.805,0,0
285944,134.123,-625.6,0,0
286205,131.172,-624.042,0,0
286465,128.232,-622.139,0,0
286725,125.419,-619.853,0,0
286986,122.848,-617.24,0,0
287246,120.507,-614.386,0,0
287506,118.406,-611.296,0,0
287767,116.585,-608.002,0,0
288027,115.083,-604.546,0,0
288287,113.895,-600.971,0,0
288548,113.012,-597.284,0,0
288808,112.493,-593.442,0,0
289068,112.411,-589.513,0,0
289329,112.833,-585.592,0,0
289589,113.764,-581.793,0,0
289849,115.167,-578.262,0,0
290109,116.937,-575.045,0,0
290370,118.953,-572.111,0,0
290630,121.303,-569.487,0,0
290890,123.938,-567.221,0,0
291151,126.868,-565.377,0,0
291411,129.968,-564.049,0,0
291671,133.2,-563.296,0,0
291932,136.382,-563.165,0,0
292192,139.399,-563.595,0,0
292452,142.167,-564.595,0,0
292713,144.512,-566.082,0,0
292973,146.333,-567.94,0,0
293233,147.544,-569.976,0,0
293494,148.219,-572.051,0,0
293754,148.346,-574.03,0,0
294014,147.975,-575.753,0,0
294275,147.267,-577.087,0,0
294535,146.36,-577.962,0,0
294795,145.468,-578.392,0,0
295056,144.77,-578.477,0,0
295316,144.367,-578.332,0,0
295576,144.309,-577.966,0,0
295837,144.718,-577.723,0,0
296097,145.56,-577.762,0,0
296357,146.659,-578.342,0,0
296618,147.765,-579.6,0,0
296878,148.443,-581.471,0,0
297138,148.562,-583.655,0,0
297399,148.065,-585.91,0,0
297659,147.03,-588.029,0,0
297919,145.588,-589.9,0,0
298180,143.84,-591.454,0,0
298440,141.924,-592.68,0,0
298700.2,139.925,-593.599,0,0
298960.525,137.949,-594.25,0,0
299220.85,135.996,-594.744,0,0
299481.175,134.039,-595.074,0,0
299741.5,132.085,-595.28,0,0
300001.825,130.096,-595.305,0,0
300262.15,128.099,-595.16,0,0
300522.475,126.169,-594.804,0,0
300782.8,124.328,-594.254,0,0
301043.125,122.637,-593.542,0,0
301303.45,121.149,-592.693,0,0
301563.775,119.878,-591.824,0,0
301824.1,118.803,-590.965,0,0
302084.425,117.923,-590.17,0,0
302344.75,117.174,-589.502,0,0
302605.075,116.517,-589.021,0,0
302865.4,115.858,-588.72,0,0
303125.725,115.14,-588.556,0,0
303386.05,114.364,-588.463,0,0
303646.375,113.485,-588.463,0,0
303906.7,112.507,-588.508,0,0
304167.025,111.423,-588.602,0,0
304427.35,110.189,-588.697,0,0
304687.675,108.845,-588.765,0,0
304948.0,107.368,-588.759,0,0
305208.325,105.775,-588.688,0,0
305468.65,104.109,-588.463,0,0
305728.975,102.423,-588.138,0,0
305989.3,100.701,-587.691,0,0
306249.625,98.9782,-587.136,0,0
306509.95,97.2601,-586.487,0,0
306770.275,95.5483,-585.742,0,0
307030.6,93.8739,-584.895,0,0
307290.925,92.2394,-583.924,0,0
307551.25,90.6559,-582.887,0,0
307811.575,89.1459,-581.771,0,0
308071.9,87.7267,-580.61,0,0
308332.225,86.3789,-579.408,0,0
308592.55,85.0807,-578.187,0,0
308852.875,83.8465,-576.93,0,0
309113.2,82.6953,-575.66,0,0
309373.525,81.6068,-574.397,0,0
309633.85,80.5845,-573.164,0,0
309894.175,79.5572,-571.943,0,0
310154.5,78.5659,-570.736,0,0
310414.825,77.5788,-569.518,0,0
310675.15,76.5973,-568.278,0,0
310935.475,75.6251,-567.032,0,0
311195.8,74.7095,-565.748,0,0
311456.125,73.8104,-564.446,0,0
311716.45,72.9542,-563.135,0,0
311976.775,72.1202,-561.815,0,0
312237.1,71.3381,-560.475,0,0
312497.425,70.5732,-559.121,0,0
312757.75,69.8775,-557.77,0,0
313018.075,69.2283,-556.418,0,0
313278.4,68.6158,-555.096,0,0
313538.725,68.0285,-553.786,0,0
313799.05,67.4853,-552.498,0,0
314059.375,66.9302,-551.241,0,0
314319.7,66.4012,-549.986,0,0
314580,65.886,-548.73,0,0
314840,65.3914,-547.474,0,0
315101,64.9002,-546.24,0,0
315361,64.3513,-544.983,0,0
315621,63.8814,-543.735,0,0
315882,63.3913,-542.442,0,0
316142,63.0054,-541.222,0,0
316402,62.5929,-539.916,0,0
316663,62.1952,-538.637,0,0
316923,61.8455,-537.381,0,0
317183,61.5832,-536.104,0,0
317444,61.2656,-534.884,0,0
317704,60.9586,-533.669,0,0
317964,60.727,-532.383,0,0
318225,60.5976,-531.241,0,0
318485,60.3574,-530.068,0,0
318745,60.1501,-528.89,0,0
319006,59.9586,-527.768,0,0
319266,59.8073,-526.653,0,0
319526,59.566,-525.613,0,0
319787,59.4496,-524.485,0,0
320047,59.1763,-523.498,0,0
320307,58.9915,-522.38,0,0
320567,58.7978,-521.347,0,0
320828,58.5822,-520.301,0,0
321088,58.4236,-519.213,0,0
321348,58.2017,-518.146,0,0
321609,58.0085,-517.054,0,0
321869,57.8167,-515.963,0,0
322129,57.5677,-514.873,0,0
322390,57.4302,-513.748,0,0
322650,57.2244,-512.609,0,0
322910,57.0145,-511.518,0,0
323171,56.8412,-510.396,0,0
323431,56.7188,-509.196,0,0
323691,56.5568,-508.013,0,0
323952,56.4232,-506.814,0,0
324212,56.3211,-505.483,0,0
324472,56.2925,-504.148,0,0
324733,56.347,-502.77,0,0
324993,56.4415,-501.435,0,0
325253,56.6842,-500.009,0,0
325514,57.0009,-498.711,0,0
325774,57.4426,-497.473,0,0
326034,57.9718,-496.199,0,0
326295,58.573,-495.05,0,0
326555,59.2561,-494.076,0,0
326815,59.9228,-493.135,0,0
327076,60.6095,-492.405,0,0
327336,61.2628,-491.746,0,0
327596,61.8553,-491.188,0,0
327857,62.3607,-490.671,0,0
328117,62.843,-490.264,0,0
328377,63.2786,-489.806,0,0
328638,63.6012,-489.407,0,0
328898,63.9513,-488.985,0,0
329158,64.312,-488.568,0,0
329419,64.5438,-488.158,0,0
329679,64.8714,-487.815,0,0
329939,65.2045,-487.49,0,0
330200,65.4421,-487.173,0,0
330460,65.7558,-486.932,0,0
330720.15,66.0074,-486.754,0,0
330980.475,66.1875,-486.616,0,0
331240.8,66.2941,-486.494,0,0
331501.125,66.4058,-486.397,0,0
331761.45,66.4161,-486.341,0,0
332021.775,66.3128,-486.307,0,0
332282.1,66.1683,-486.275,0,0
332542.425,66.0149,-486.242,0,0
332802.75,65.6917,-486.121,0,0
333063.075,65.3134,-486.052,0,0
333323.4,64.8834,-485.865,0,0
333583.725,64.3539,-485.675,0,0
333844.05,63.8118,-485.305,0,0
334104.375,63.2288,-484.934,0,0
334364.7,62.705,-484.546,0,0
334625.025,62.1928,-483.973,0,0
334885.35,61.7295,-483.427,0,0
335145.675,61.2513,-482.807,0,0
335406.0,60.7731,-482.161,0,0
335666.325,60.3724,-481.514,0,0
335926.65,59.9948,-480.862,0,0
336186.975,59.6077,-480.168,0,0
336447.3,59.195,-479.53,0,0
336707.625,58.8472,-478.799,0,0
336967.95,58.4543,-478.02,0,0
337228.275,58.1016,-477.33,0,0
337488.6,57.7526,-476.587,0,0
337748.925,57.4349,-475.788,0,0
338009.25,57.2054,-475.024,0,0
338269.575,56.8693,-474.186,0,0
338529.9,56.561,-473.417,0,0
338790.225,56.3091,-472.629,0,0
339050.55,56.0895,-471.748,0,0
339310.875,55.8343,-470.923,0,0
339571.2,55.5973,-470.136,0,0
339831.525,55.4348,-469.227,0,0
340091.85,55.2615,-468.376,0,0
340352.175,55.1085,-467.526,0,0
340612.5,54.8911,-466.633,0,0
340872.825,54.8195,-465.726,0,0
341133.15,54.7019,-464.86,0,0
341393.475,54.638,-464.025,0,0
341653.8,54.5567,-463.138,0,0
341914.125,54.5003,-462.295,0,0
342174.45,54.4454,-461.44,0,0
342434.775,54.4209,-460.588,0,0
342695.1,54.3978,-459.71,0,0
342955.425,54.3822,-458.836,0,0
343215.75,54.3606,-457.988,0,0
343476.075,54.4482,-457.09,0,0
343736.4,54.4942,-456.238,0,0
343996.725,54.5228,-455.351,0,0
344257.05,54.6124,-454.52,0,0
344517.375,54.7215,-453.625,0,0
344777.7,54.8612,-452.754,0,0
345038.025,54.9672,-451.917,0,0
345298.35,55.2114,-451.124,0,0
345558.675,55.4071,-450.273,0,0
345819.0,55.6029,-449.483,0,0
346079.325,55.8083,-448.725,0,0
346339.65,56.0223,-447.94,0,0
346599.975,56.2269,-447.168,0,0
346860,56.5193,-446.499,0,0
347121,56.7813,-445.736,0,0
347381,57.0178,-445.055,0,0
347641,57.2776,-444.322,0,0
347902,57.5652,-443.66,0,0
348162,57.8378,-442.994,0,0
348422,58.1337,-442.346,0,0
348683,58.4834,-441.72,0,0
348943,58.8021,-441.119,0,0
349203,59.1243,-440.496,0,0
349464,59.419,-439.921,0,0
349724,59.7342,-439.359,0,0
349984,60.1012,-438.818,0,0
350245,60.4787,-438.288,0,0
350505,60.7772,-437.781,0,0
350765,61.1379,-437.329,0,0
351025,61.4938,-436.879,0,0
351286,61.7703,-436.456,0,0
351546,62.1266,-436.089,0,0
351806,62.4277,-435.736,0,0
352067,62.6519,-435.388,0,0
352327,62.8777,-434.97,0,0
352587,63.1236,-434.635,0,0
352848,63.2953,-434.304,0,0
353108,63.4705,-433.888,0,0
353368,63.6816,-433.479,0,0
353629,63.8891,-433.051,0,0
353889,64.0645,-432.659,0,0
354149,64.2426,-432.294,0,0
354410,64.5019,-431.817,0,0
354670,64.7476,-431.446,0,0
354930,65.0313,-431.04,0,0
355191,65.256,-430.682,0,0
355451,65.4694,-430.309,0,0
355711,65.6878,-429.913,0,0
355972,65.9112,-429.548,0,0
356232,66.2363,-429.195,0,0
356492,66.4895,-428.854,0,0
356753,66.7704,-428.489,0,0
357013,67.1112,-428.102,0,0
357273,67.3876,-427.822,0,0
357534,67.726,-427.528,0,0
357794,67.9937,-427.246,0,0
358054,68.3741,-427.066,0,0
358315,68.7347,-426.843,0,0
358575,69.0883,-426.671,0,0
358835,69.4395,-426.543,0,0
359096,69.7614,-426.437,0,0
359356,70.0574,-426.402,0,0
359616,70.3372,-426.386,0,0
359877,70.5827,-426.389,0,0
360137,70.7777,-426.372,0,0
360397,70.929,-426.408,0,0
360658,71.0659,-426.489,0,0
360918,71.1888,-426.502,0,0
361178,71.2347,-426.6,0,0
361438,71.3198,-426.637,0,0
361699,71.2518,-426.704,0,0
361959,71.2572,-426.757,0,0
362219,71.1995,-426.805,0,0
362480,71.156,-426.797,0,0
362740.1,71.006,-426.826,0,0
363000.425,70.9,-426.835,0,0
363260.75,70.7757,-426.792,0,0
363521.075,70.5939,-426.82,0,0
363781.4,70.4581,-426.753,0,0
364041.725,70.2322,-426.669,0,0
364302.05,70.0661,-426.599,0,0
364562.375,69.8791,-426.553,0,0
364822.7,69.578,-426.451,0,0
365083.025,69.394,-426.358,0,0
365343.35,69.1704,-426.193,0,0
365603.675,68.8678,-426.065,0,0
365864.0,68.5989,-425.882,0,0
366124.325,68.348,-425.65,0,0
366384.65,68.0636,-425.395,0,0
366644.975,67.7582,-425.143,0,0
366905.3,67.5134,-424.818,0,0
367165.625,67.314,-424.469,0,0
367425.95,67.0751,-424.095,0,0
367686.275,66.9711,-423.724,0,0
367946.6,66.9088,-423.407,0,0
368206.925,66.8604,-423.007,0,0
368467.25,66.8834,-422.65,0,0
368727.575,66.8448,-422.448,0,0
368987.9,66.8704,-422.242,0,0
369248.225,66.9321,-422.075,0,0
369508.55,66.9245,-421.972,0,0
369768.875,66.8779,-421.899,0,0
370029.2,66.7398,-421.882,0,0
370289.525,66.6144,-421.753,0,0
370549.85,66.4042,-421.769,0,0
370810.175,66.1784,-421.687,0,0
371070.5,65.8962,-421.592,0,0
371330.825,65.6038,-421.425,0,0
371591.15,65.2799,-421.271,0,0
371851.475,65.01,-421.057,0,0
372111.8,64.6859,-420.783,0,0
372372.125,64.4509,-420.548,0,0
372632.45,64.165,-420.289,0,0
372892.775,63.8962,-420.073,0,0
373153.1,63.7293,-419.752,0,0
373413.425,63.4877,-419.52,0,0
373673.75,63.3125,-419.243,0,0
373934.075,63.0746,-419.053,0,0
374194.4,62.8744,-418.878,0,0
374454.725,62.6311,-418.667,0,0
374715.05,62.3938,-418.507,0,0
374975.375,62.0849,-418.334,0,0
375235.7,61.7782,-418.175,0,0
375496.025,61.3954,-417.956,0,0
375756.35,61.1081,-417.732,0,0
376016.675,60.6961,-417.479,0,0
376277.0,60.3808,-417.177,0,0
376537.325,60.0266,-416.882,0,0
376797.65,59.6608,-416.535,0,0
377057.975,59.3787,-416.195,0,0
377318.3,59.1011,-415.875,0,0
377578.625,58.8396,-415.588,0,0
377838.95,58.5937,-415.337,0,0
378099.275,58.2592,-415.129,0,0
378359.6,57.9569,-414.923,0,0
378619.925,57.5194,-414.78,0,0
378880,57.0589,-414.587,0,0
379141,56.4887,-414.357,0,0
379401,55.8872,-414.069,0,0
379661,55.2193,-413.61,0,0
379922,54.5867,-413.102,0,0
380182,53.9143,-412.434,0,0
380442,53.45,-411.664,0,0
380703,53.0454,-410.847,0,0
380963,52.8232,-409.983,0,0
381223,52.7208,-409.194,0,0
381483,52.6886,-408.532,0,0
381744,52.7696,-407.908,0,0
382004,52.8445,-407.496,0,0
382264,52.8433,-407.184,0,0
382525,52.7697,-406.905,0,0
382785,52.6321,-406.64,0,0
383045,52.4253,-406.393,0,0
383306,52.1067,-406.155,0,0
383566,51.8218,-405.888,0,0
383826,51.4328,-405.561,0,0
384087,51.0545,-405.237,0,0
384347,50.6467,-404.875,0,0
384607,50.1938,-404.417,0,0
384868,49.7797,-403.948,0,0
385128,49.3579,-403.512,0,0
385388,48.9266,-402.974,0,0
385649,48.5258,-402.421,0,0
385909,48.1047,-401.851,0,0
386169,47.7289,-401.197,0,0
386430,47.3607,-400.548,0,0
386690,47.0759,-399.872,0,0
386950,46.7691,-399.212,0,0
387211,46.5168,-398.547,0,0
387471,46.2388,-397.842,0,0
387731,45.9971,-397.162,0,0
387992,45.7658,-396.489,0,0
388252,45.5658,-395.81,0,0
388512,45.3749,-395.14,0,0
388773,45.1832,-394.408,0,0
389033,45.0975,-393.695,0,0
389293,45.0127,-393.013,0,0
389554,44.8717,-392.291,0,0
389814,44.846,-391.576,0,0
390074,44.8409,-390.966,0,0
390335,44.8401,-390.324,0,0
390595,44.858,-389.715,0,0
390855,44.8906,-389.174,0,0
391116,44.9618,-388.625,0,0
391376,44.9991,-388.182,0,0
391636,44.9961,-387.758,0,0
391896,44.9567,-387.41,0,0
392157,44.8926,-387.047,0,0
392417,44.7347,-386.664,0,0
392677,44.6008,-386.367,0,0
392938,44.2944,-385.937,0,0
393198,44.0626,-385.519,0,0
393458,43.7227,-385.054,0,0
393719,43.4103,-384.569,0,0
393979,43.0285,-384.028,0,0
394239,42.7141,-383.448,0,0
394500,42.3504,-382.81,0,0
394760.05,42.0294,-382.127,0,0
395020.375,41.7189,-381.393,0,0
395280.7,41.4563,-380.605,0,0
395541.025,41.2573,-379.817,0,0
395801.35,41.0102,-379.028,0,0
396061.675,40.8888,-378.204,0,0
396322.0,40.7719,-377.414,0,0
396582.325,40.7007,-376.585,0,0
396842.65,40.6336,-375.767,0,0
397102.975,40.6186,-374.931,0,0
397363.3,40.5767,-374.169,0,0
397623.625,40.5988,-373.285,0,0
397883.95,40.6289,-372.503,0,0
398144.275,40.726,-371.77,0,0
398404.6,40.7934,-371.005,0,0
398664.925,40.9143,-370.221,0,0
398925.25,41.0251,-369.52,0,0
399185.575,41.1831,-368.79,0,0
399445.9,41.3293,-368.107,0,0
399706.225,41.4277,-367.438,0,0
399966.55,41.5936,-366.799,0,0
400006.6,41.6231,-366.645,0,0