File: Accelerated corrosion test data/2025-10-04_06-00-03/sample_4.csv
Frequency (Hz),Impedance (ohms),Phase (Radians),Temperature (C),Humidity (%)
10000.0,262.238,-11843.6,0,0
10260.325,258.871,-11545.3,0,0
10520.65,249.337,-11263.4,0,0
10780.975,243.761,-10993.3,0,0
11041.3,238.545,-10735.3,0,0
11301.625,233.263,-10493.1,0,0
11561.95,228.116,-10257.4,0,0
11822.275,223.86,-10032.7,0,0
12082.6,218.742,-9818.64,0,0
12342.925,214.245,-9612.3,0,0
12603.25,211.56,-9413.93,0,0
12863.575,208.058,-9227.5,0,0
13123.9,208.644,-9048.65,0,0
13384.225,199.271,-8870.24,0,0
13644.55,195.509,-8700.76,0,0
13904.875,192.771,-8535.21,0,0
14165.2,194.603,-8373.36,0,0
14425.525,199.272,-8220.36,0,0
14685.8,199.562,-8112.47,0,0
14946.175,181.574,-7956.2,0,0
15206.5,180.529,-7811.69,0,0
15466.825,190.968,-7668.59,0,0
15727.15,188.423,-7570.7,0,0
15987.5,187.026,-7451.92,0,0
16247.8,170.247,-7326.33,0,0
16508.125,185.911,-7196.73,0,0
16768.45,178.4,-7100.29,0,0
17028.775,170.805,-7010.84,0,0
17289.1,160.198,-6897.66,0,0
17549.425,158.547,-6793.69,0,0
17809.75,155.931,-6693.12,0,0
18070.075,151.87,-6593.66,0,0
18330.4,152.914,-6498.08,0,0
18590.725,154.026,-6410.9,0,0
18851.05,149.788,-6326.18,0,0
19111.375,144.995,-6237.93,0,0
19371.7,142.794,-6152.52,0,0
19632.025,141.291,-6068.51,0,0
19892.35,143.365,-5987.45,0,0
20152.675,143.525,-5911.2,0,0
20413.0,140.935,-5838.52,0,0
20673.3,139.72,-5763.23,0,0
20933.65,137.352,-5690.85,0,0
21193.975,139.714,-5616.27,0,0
21454.3,151.317,-5549.41,0,0
21714.625,144.511,-5492.93,0,0
21974.9,149.768,-5423.72,0,0
22235.275,147.588,-5376.45,0,0
22495.6,136.038,-5320.75,0,0
22755.925,128.267,-5256.94,0,0
23016.25,124.951,-5194.5,0,0
23276.6,122.291,-5134.4,0,0
23536.9,121.442,-5077.15,0,0
23797.225,118.814,-5020.44,0,0
24057.55,117.458,-4964.92,0,0
24317.875,116.24,-4910.79,0,0
24578.2,114.725,-4857.63,0,0
24838.525,114.222,-4805.38,0,0
25098.85,114.591,-4754.86,0,0
25359.175,112.779,-4707.14,0,0
25619.5,112.41,-4658.19,0,0
25879.8,110.627,-4614.29,0,0
26140.1,108.121,-4565.75,0,0
26400.5,107.361,-4519.1,0,0
26660.8,107.537,-4473.23,0,0
26921.1,106.718,-4429.37,0,0
27181.4,105.268,-4384.34,0,0
27441.8,105.875,-4339.99,0,0
27702.1,109.425,-4295.99,0,0
27962.4,117.628,-4255.79,0,0
28222.7,119.603,-4224.24,0,0
28483.1,115.504,-4192.84,0,0
28743.4,110.13,-4153.27,0,0
29003.7,110.054,-4111.24,0,0
29264,116.299,-4076.76,0,0
29524.4,113.145,-4048.8,0,0
29784.7,107.881,-4014.85,0,0
30045,107.743,-3979.98,0,0
30305.3,101.496,-3946.49,0,0
30565.7,100.469,-3910.48,0,0
30826,99.3055,-3876.07,0,0
31086.3,98.5615,-3842.59,0,0
31346.6,99.0452,-3809.54,0,0
31607,98.5893,-3779.07,0,0
31867.3,97.1349,-3748,0,0
32127.6,99.1252,-3716.43,0,0
32387.9,98.1872,-3689.8,0,0
32648.3,97.2922,-3660.33,0,0
32908.6,94.8622,-3633.88,0,0
33168.9,92.288,-3604.58,0,0
33429.2,89.8794,-3575.9,0,0
33689.6,89.0112,-3547.01,0,0
33949.9,87.8915,-3518.59,0,0
34210.2,87.8182,-3491.11,0,0
34470.5,86.4437,-3465.27,0,0
34730.9,85.0087,-3437.92,0,0
34991.2,84.9665,-3411.57,0,0
35251.5,84.2489,-3385.82,0,0
35511.8,83.2482,-3360.16,0,0
35772.2,83.003,-3335.36,0,0
36032.5,82.2129,-3310.84,0,0
36292.8,81.3934,-3285.84,0,0
36553.1,80.7839,-3261.55,0,0
36813.5,80.8045,-3237.78,0,0
37073.8,81.1713,-3215.2,0,0
37334.1,79.6978,-3192.35,0,0
37594.4,79.2542,-3169.41,0,0
37854.8,79.1904,-3146.97,0,0
38115.1,78.1082,-3125.2,0,0
38375.4,77.6127,-3103,0,0
38635.7,77.2981,-3080.81,0,0
38896.1,77.6258,-3059.27,0,0
39156.4,77.3517,-3038.71,0,0
39416.7,76.7036,-3017.56,0,0
39677,76.6146,-2996.5,0,0
39937.4,76.9955,-2975.51,0,0
40197.7,78.3427,-2954.83,0,0
40458,80.8122,-2936.44,0,0
40718.3,79.233,-2919.56,0,0
40978.7,78.8514,-2899.22,0,0
41239,79.4655,-2880.15,0,0
41499.3,82.6966,-2863.71,0,0
41759.6,79.9887,-2849.04,0,0
42020,78.207,-2830.25,0,0
42280.275,77.2143,-2811.03,0,0
42540.6,78.8595,-2793.97,0,0
42800.925,77.4164,-2778.87,0,0
43061.25,75.9165,-2760.51,0,0
43321.575,76.1065,-2743.88,0,0
43581.9,74.5406,-2727.79,0,0
43842.225,73.9731,-2710.22,0,0
44102.55,74.1898,-2694.34,0,0
44362.875,72.8859,-2677.8,0,0
44623.2,72.3086,-2661.02,0,0
44883.525,71.9306,-2645.23,0,0
45143.85,71.3139,-2629.23,0,0
45404.175,70.7348,-2612.71,0,0
45664.5,71.6322,-2596.09,0,0
45924.825,72.7278,-2581.86,0,0
46185.15,71.6175,-2568.51,0,0
46445.475,70.6514,-2552.26,0,0
46705.8,71.5341,-2537.28,0,0
46966.125,71.8377,-2523.38,0,0
47226.45,72.0362,-2509.22,0,0
47486.775,71.6609,-2496.9,0,0
47747.1,69.8565,-2482.58,0,0
48007.425,69.3265,-2468.93,0,0
48267.75,68.7166,-2454.6,0,0
48528.075,68.2507,-2441.16,0,0
48788.4,67.4595,-2427.71,0,0
49048.725,66.1303,-2413.65,0,0
49309.05,66.3758,-2399.51,0,0
49569.375,65.8787,-2386.88,0,0
49829.7,65.1704,-2372.88,0,0
50090.025,64.9697,-2359.72,0,0
50350.35,64.7473,-2346.56,0,0
50610.675,64.533,-2333.42,0,0
50871.0,64.3113,-2320.6,0,0
51131.325,63.9988,-2307.56,0,0
51391.65,63.8709,-2294.49,0,0
51651.975,64.2987,-2281.78,0,0
51912.3,64.1619,-2269.4,0,0
52172.625,64.4148,-2256.64,0,0
52432.95,64.5429,-2244.35,0,0
52693.275,64.766,-2231.58,0,0
52953.6,66.238,-2219.09,0,0
53213.925,66.9677,-2207.73,0,0
53474.25,67.8342,-2195.84,0,0
53734.575,69.0455,-2183.67,0,0
53994.9,71.6943,-2172.6,0,0
54255.225,73.8069,-2162.97,0,0
54515.55,76.307,-2154.01,0,0
54775.875,76.405,-2147.42,0,0
55036.2,74.192,-2138.81,0,0
55296.525,73.5021,-2128.8,0,0
55556.85,71.8196,-2119.62,0,0
55817.175,70.6154,-2109.46,0,0
56077.5,68.6794,-2099.58,0,0
56337.825,67.5015,-2088.76,0,0
56598.15,66.242,-2077.49,0,0
56858.475,65.8378,-2066.31,0,0
57118.8,65.8188,-2055.3,0,0
57379.125,66.3089,-2044.78,0,0
57639.45,66.2686,-2034.44,0,0
57899.775,66.522,-2024.22,0,0
58160.1,66.8153,-2013.86,0,0
58420.4,67.5733,-2003.72,0,0
58680.7,68.3213,-1994.71,0,0
58941.1,68.0021,-1984.41,0,0
59201.4,68.9013,-1973.51,0,0
59461.7,71.0875,-1963.32,0,0
59722,73.7368,-1954.46,0,0
59982.4,76.5633,-1947.07,0,0
60242.7,77.1071,-1940.62,0,0
60503,78.0841,-1932.41,0,0
60763.3,80.6912,-1925.72,0,0
61023.7,80.9136,-1922.33,0,0
61284,78.5963,-1917.22,0,0
61544.3,74.6148,-1911.11,0,0
61804.6,71.4379,-1901.35,0,0
62065,70.2156,-1892.8,0,0
62325.3,69.0023,-1884.62,0,0
62585.6,66.1671,-1875.99,0,0
62845.9,64.9039,-1865.6,0,0
63106.3,64.6626,-1856.21,0,0
63366.6,64.8072,-1847.03,0,0
63626.9,64.8554,-1838.61,0,0
63887.2,64.6131,-1830.44,0,0
64147.6,63.8189,-1821.69,0,0
64407.9,63.8866,-1812.46,0,0
64668.2,64.6948,-1803.88,0,0
64928.5,65.2419,-1796.18,0,0
65188.9,65.1535,-1788.05,0,0
65449.2,65.69,-1779.84,0,0
65709.5,65.8076,-1772.04,0,0
65969.8,66.6078,-1763.55,0,0
66230.2,67.7596,-1756.46,0,0
66490.5,68.2948,-1749.26,0,0
66750.8,68.9576,-1742.08,0,0
67011.1,69.3333,-1734.97,0,0
67271.5,70.3913,-1727.65,0,0
67531.8,71.5293,-1721.2,0,0
67792.1,72.4888,-1714.77,0,0
68052.4,73.539,-1709.08,0,0
68312.8,74.0464,-1703.94,0,0
68573.1,73.8121,-1698.9,0,0
68833.4,73.2153,-1694.11,0,0
69093.7,71.5127,-1688.98,0,0
69354.1,69.551,-1682.96,0,0
69614.4,67.5315,-1676.21,0,0
69874.7,66.3752,-1668.66,0,0
70135,65.6668,-1661.69,0,0
70395.4,64.4386,-1654.81,0,0
70655.7,64.1393,-1646.52,0,0
70916,65.5625,-1639.96,0,0
71176.3,65.3309,-1634.64,0,0
71436.7,64.5084,-1628.65,0,0
71697,64.1785,-1622.62,0,0
71957.3,62.8299,-1617.41,0,0
72217.6,60.6096,-1610.88,0,0
72478,59.1901,-1603.34,0,0
72738.3,58.6482,-1596.05,0,0
72998.6,57.744,-1589.08,0,0
73258.9,57.1878,-1581.26,0,0
73519.3,57.4888,-1573.77,0,0
73779.6,57.9205,-1566.81,0,0
74039.9,58.3319,-1560.04,0,0
74300.225,58.6826,-1553.59,0,0
74560.55,58.9963,-1547.09,0,0
74820.875,59.3727,-1540.68,0,0
75081.2,59.9994,-1534.3,0,0
75341.525,60.7459,-1528.31,0,0
75601.85,61.1957,-1522.52,0,0
75862.175,61.4996,-1516.81,0,0
76122.5,61.9077,-1510.99,0,0
76382.825,62.4084,-1505.6,0,0
76643.15,62.2737,-1500.17,0,0
76903.475,62.1032,-1494.09,0,0
77163.8,62.9034,-1487.65,0,0
77424.125,64.3454,-1482.3,0,0
77684.45,65.2369,-1477.68,0,0
77944.775,65.7493,-1473.36,0,0
78205.1,65.7122,-1469.1,0,0
78465.425,65.3661,-1464.66,0,0
78725.75,64.879,-1460.12,0,0
78986.075,64.0061,-1455.39,0,0
79246.4,63.0729,-1450.33,0,0
79506.725,62.2864,-1444.94,0,0
79767.05,61.6824,-1439.52,0,0
80027.375,61.2669,-1434,0,0
80287.7,60.9796,-1428.49,0,0
80548.025,60.7848,-1423.11,0,0
80808.35,60.6699,-1417.83,0,0
81068.675,60.6163,-1412.66,0,0
81329.0,60.4848,-1407.57,0,0
81589.325,60.3921,-1402.61,0,0
81849.65,60.12,-1397.68,0,0
82109.975,59.8702,-1392.59,0,0
82370.3,59.5669,-1387.6,0,0
82630.625,59.3496,-1382.55,0,0
82890.95,59.1602,-1377.57,0,0
83151.275,58.8711,-1372.65,0,0
83411.6,58.608,-1367.71,0,0
83671.925,58.4151,-1362.65,0,0
83932.25,58.1894,-1357.74,0,0
84192.575,57.9871,-1352.77,0,0
84452.9,57.7936,-1347.86,0,0
84713.225,57.5638,-1343.01,0,0
84973.55,57.5208,-1338.13,0,0
85233.875,57.324,-1333.28,0,0
85494.2,57.1745,-1328.6,0,0
85754.525,56.9442,-1323.76,0,0
86014.85,56.8376,-1318.98,0,0
86275.175,56.7433,-1314.18,0,0
86535.5,56.6314,-1309.51,0,0
86795.825,56.5787,-1304.95,0,0
87056.15,56.3819,-1300.36,0,0
87316.475,56.1857,-1295.84,0,0
87576.8,55.9976,-1291.29,0,0
87837.125,55.8112,-1286.9,0,0
88097.45,55.2068,-1282.49,0,0
88357.775,54.6173,-1277.69,0,0
88618.1,54.1186,-1272.82,0,0
88878.425,53.9225,-1267.9,0,0
89138.75,53.6853,-1263.16,0,0
89399.075,53.6606,-1258.19,0,0
89659.4,53.6631,-1253.43,0,0
89919.725,53.801,-1248.78,0,0
90180,53.7476,-1244.31,0,0
90440.4,53.6727,-1239.77,0,0
90700.7,53.6238,-1235.17,0,0
90961,53.5362,-1230.64,0,0
91221.3,53.5443,-1225.97,0,0
91481.7,53.5473,-1221.33,0,0
91742,53.6742,-1216.74,0,0
92002.3,53.8628,-1212.1,0,0
92262.6,54.2368,-1207.75,0,0
92523,54.5919,-1203.48,0,0
92783.3,54.9114,-1199.33,0,0
93043.6,55.1662,-1195.33,0,0
93303.9,55.2217,-1191.47,0,0
93564.3,55.1226,-1187.5,0,0
93824.6,54.8674,-1183.59,0,0
94084.9,54.5598,-1179.59,0,0
94345.2,54.0879,-1175.44,0,0
94605.6,53.8377,-1171.07,0,0
94865.9,53.4827,-1166.63,0,0
95126.2,53.2923,-1162.12,0,0
95386.5,53.2147,-1157.64,0,0
95646.9,53.1523,-1153.2,0,0
95907.2,53.2816,-1148.69,0,0
96167.5,53.4578,-1144.29,0,0
96427.8,53.6363,-1140,0,0
96688.2,53.8161,-1135.69,0,0
96948.5,53.9142,-1131.44,0,0
97208.8,54.0769,-1127.13,0,0
97469.1,54.344,-1122.87,0,0
97729.5,54.5584,-1118.65,0,0
97989.8,54.6812,-1114.38,0,0
98250.1,54.9916,-1110.07,0,0
98510.4,55.3031,-1105.84,0,0
98770.8,55.6854,-1101.55,0,0
99031.1,56.1532,-1097.25,0,0
99291.4,56.8007,-1093.05,0,0
99551.7,57.513,-1089.07,0,0
99812.1,57.9753,-1085.2,0,0
100072,58.4149,-1081.15,0,0
100333,59.1198,-1076.98,0,0
100593,60.2102,-1073,0,0
100853,61.4184,-1069.68,0,0
101114,62.1175,-1066.62,0,0
101374,62.713,-1063.5,0,0
101634,63.2576,-1060.8,0,0
101895,63.1954,-1058.38,0,0
102155,62.318,-1055.66,0,0
102415,61.1321,-1052.12,0,0
102676,60.3323,-1048.17,0,0
102936,59.4753,-1044.14,0,0
103196,58.6878,-1039.6,0,0
103457,58.2399,-1034.68,0,0
103717,58.2619,-1029.7,0,0
103977,58.6025,-1024.8,0,0
104238,59.2974,-1020.03,0,0
104498,59.9387,-1015.42,0,0
104758,60.7842,-1010.73,0,0
105019,61.9043,-1006.16,0,0
105279,63.176,-1001.91,0,0
105539,64.4135,-997.778,0,0
105800,65.7126,-993.742,0,0
106060,67.0257,-989.824,0,0
106320.175,68.3226,-986.034,0,0
106580.5,69.6287,-982.243,0,0
106840.825,71.0132,-978.597,0,0
107101.15,72.332,-975.078,0,0
107361.475,73.6057,-971.62,0,0
107621.8,74.8278,-968.042,0,0
107882.125,76.1683,-964.43,0,0
108142.45,77.6836,-960.854,0,0
108402.775,79.3504,-957.413,0,0
108663.1,81.1513,-954.125,0,0
108923.425,82.9324,-951.128,0,0
109183.75,84.6801,-948.256,0,0
109444.075,86.3938,-945.616,0,0
109704.4,88.0203,-943.076,0,0
109964.725,89.4925,-940.69,0,0
110225.05,90.8128,-938.213,0,0
110485.375,92.3071,-935.755,0,0
110745.7,93.5904,-933.507,0,0
111006.025,94.896,-931.287,0,0
111266.35,96.0663,-929.006,0,0
111526.675,97.1895,-926.842,0,0
111787.0,98.3255,-924.664,0,0
112047.325,99.477,-922.567,0,0
112307.65,100.564,-920.575,0,0
112567.975,101.653,-918.63,0,0
112828.3,102.629,-916.729,0,0
113088.625,103.644,-914.912,0,0
113348.95,104.534,-913.103,0,0
113609.275,105.293,-911.493,0,0
113869.6,105.948,-909.792,0,0
114129.925,106.561,-908.065,0,0
114390.25,107.168,-906.416,0,0
114650.575,107.695,-904.776,0,0
114910.9,108.127,-903.172,0,0
115171.225,108.531,-901.536,0,0
115431.55,108.846,-900.192,0,0
115691.875,108.939,-898.682,0,0
115952.2,108.872,-897.078,0,0
116212.525,108.865,-895.409,0,0
116472.85,108.809,-893.797,0,0
116733.175,108.578,-892.185,0,0
116993.5,108.177,-890.45,0,0
117253.825,107.632,-888.524,0,0
117514.15,107.121,-886.438,0,0
117774.475,106.664,-884.111,0,0
118034.8,106.331,-881.685,0,0
118295.125,106.022,-879.163,0,0
118555.45,105.84,-876.445,0,0
118815.775,105.866,-873.57,0,0
119076.1,106.34,-870.591,0,0
119336.425,107.355,-867.814,0,0
119596.75,108.802,-865.561,0,0
119857.075,110.25,-863.997,0,0
120117.4,111.611,-862.983,0,0
120377.725,112.428,-862.777,0,0
120638.05,112.421,-862.81,0,0
120898.375,111.422,-862.803,0,0
121158.7,109.829,-861.996,0,0
121419.025,108.247,-860.633,0,0
121679.35,106.696,-858.788,0,0
121939.675,105.306,-856.702,0,0
122200.0,104.048,-854.476,0,0
122460,102.854,-852.051,0,0
122721,101.869,-849.527,0,0
122981,100.981,-846.975,0,0
123241,100.193,-844.41,0,0
123502,99.4891,-841.851,0,0
123762,98.9505,-839.287,0,0
124022,98.413,-836.83,0,0
124283,97.7905,-834.38,0,0
124543,97.1666,-831.973,0,0
124803,96.5328,-829.394,0,0
125064,95.9803,-826.787,0,0
125324,95.5584,-824.234,0,0
125584,95.1289,-821.797,0,0
125845,94.7259,-819.352,0,0
126105,94.3857,-817.024,0,0
126365,93.986,-814.838,0,0
126626,93.3792,-812.825,0,0
126886,92.5306,-810.721,0,0
127146,91.5422,-808.398,0,0
127406,90.6125,-805.978,0,0
127667,89.6741,-803.392,0,0
127927,88.8762,-800.863,0,0
128187,87.9957,-798.548,0,0
128448,86.8024,-796.1,0,0
128708,85.6069,-793.418,0,0
128968,84.4547,-790.707,0,0
129229,83.1718,-787.884,0,0
129489,81.8028,-784.827,0,0
129749,80.5254,-781.535,0,0
130010,79.3937,-778.097,0,0
130270,78.4153,-774.643,0,0
130530,77.5387,-771.108,0,0
130791,76.7159,-767.543,0,0
131051,75.9044,-763.935,0,0
131311,75.1967,-760.197,0,0
131572,74.6937,-756.401,0,0
131832,74.2707,-752.675,0,0
132092,73.9054,-749.022,0,0
132353,73.5016,-745.298,0,0
132613,73.1507,-741.522,0,0
132873,73.0219,-737.737,0,0
133134,72.8734,-733.978,0,0
133394,72.772,-730.234,0,0
133654,72.7125,-726.478,0,0
133915,72.7219,-722.703,0,0
134175,72.8127,-718.905,0,0
134435,72.9602,-715.137,0,0
134696,73.1388,-711.388,0,0
134956,73.3701,-707.676,0,0
135216,73.684,-703.869,0,0
135477,74.1279,-700.082,0,0
135737,74.6336,-696.434,0,0
135997,75.139,-692.852,0,0
136258,75.5888,-689.33,0,0
136518,76.0337,-685.696,0,0
136778,76.6576,-682.108,0,0
137039,77.3036,-678.629,0,0
137299,77.9476,-675.257,0,0
137559,78.4434,-671.955,0,0
137819,78.8996,-668.647,0,0
138080,79.2298,-665.252,0,0
138340.125,79.529,-661.739,0,0
138600.45,79.9281,-658.085,0,0
138860.775,80.381,-654.426,0,0
139121.1,80.8506,-650.701,0,0
139381.425,81.4187,-646.937,0,0
139641.75,82.0785,-643.149,0,0
139902.075,82.8094,-639.408,0,0
140162.4,83.533,-635.586,0,0
140422.725,84.3768,-631.737,0,0
140683.05,85.3149,-627.895,0,0
140943.375,86.3357,-624.075,0,0
141203.7,87.4363,-620.296,0,0
141464.025,88.6061,-616.576,0,0
141724.35,89.8088,-612.922,0,0
141984.675,90.988,-609.315,0,0
142245.0,92.1606,-605.699,0,0
142505.325,93.3858,-602.07,0,0
142765.65,94.6113,-598.47,0,0
143025.975,95.8591,-594.851,0,0
143286.3,97.0722,-591.213,0,0
143546.625,98.4103,-587.55,0,0
143806.95,99.721,-583.846,0,0
144067.275,101.135,-580.153,0,0
144327.6,102.585,-576.418,0,0
144587.925,104.099,-572.697,0,0
144848.25,105.699,-568.993,0,0
145108.575,107.312,-565.273,0,0
145368.9,109.015,-561.577,0,0
145629.225,110.738,-557.863,0,0
145889.55,112.571,-554.143,0,0
146149.875,114.455,-550.456,0,0
146410.2,116.385,-546.751,0,0
146670.525,118.421,-543.06,0,0
146930.85,120.53,-539.446,0,0
147191.175,122.556,-535.826,0,0
147451.5,124.724,-532.201,0,0
147711.825,126.982,-528.571,0,0
147972.15,129.27,-525.068,0,0
148232.475,131.481,-521.511,0,0
148492.8,133.825,-517.793,0,0
148753.125,136.337,-514.089,0,0
149013.45,138.959,-510.437,0,0
149273.775,141.717,-506.803,0,0
149534.1,144.538,-503.193,0,0
149794.425,147.496,-499.604,0,0
150054.75,150.594,-496.107,0,0
150315.075,153.718,-492.687,0,0
150575.4,156.914,-489.207,0,0
150835.725,160.335,-485.706,0,0
151096.05,163.974,-482.33,0,0
151356.375,167.837,-479.085,0,0
151616.7,171.827,-476.076,0,0
151877.025,175.847,-473.295,0,0
152137.35,179.862,-470.584,0,0
152397.675,184.025,-467.886,0,0
152658.0,188.464,-465.382,0,0
152918.325,193.021,-463.235,0,0
153178.65,197.625,-461.383,0,0
153438.975,202.229,-459.892,0,0
153699.3,206.679,-458.748,0,0
153959.625,210.923,-457.869,0,0
154219.95,214.933,-457.136,0,0
154480,218.756,-456.462,0,0
154741,222.255,-455.935,0,0
155001,225.441,-455.307,0,0
155261,228.648,-454.381,0,0
155522,232.095,-453.348,0,0
155782,235.598,-452.544,0,0
156042,239.16,-451.919,0,0
156303,242.558,-451.502,0,0
156563,245.743,-451.216,0,0
156823,248.558,-451.072,0,0
157084,251.05,-450.415,0,0
157344,253.817,-449.471,0,0
157604,256.693,-448.721,0,0
157864,259.246,-447.802,0,0
158125,262.022,-446.245,0,0
158385,265.547,-444.721,0,0
158645,269.366,-443.621,0,0
158906,273.416,-442.589,0,0
159166,277.709,-441.939,0,0
159426,282.171,-441.801,0,0
159687,286.414,-442.081,0,0
159947,290.749,-442.85,0,0
160207,294.729,-443.912,0,0
160468,298.337,-445.472,0,0
160728,301.551,-447.157,0,0
160988,304.551,-448.891,0,0
161249,307.031,-451.075,0,0
161509,308.582,-453.288,0,0
161769,309.494,-454.896,0,0
162030,310.331,-455.756,0,0
162290,311.144,-456.497,0,0
162550,311.692,-456.808,0,0
162811,312.632,-456.617,0,0
163071,313.594,-456.425,0,0
163331,314.466,-455.929,0,0
163592,315.51,-455.2,0,0
163852,316.648,-454.112,0,0
164112,317.995,-452.669,0,0
164373,319.815,-450.947,0,0
164633,322.302,-449.051,0,0
164893,325.338,-447.644,0,0
165154,328.521,-446.53,0,0
165414,331.683,-445.638,0,0
165674,334.72,-444.747,0,0
165935,338.049,-443.661,0,0
166195,341.738,-442.657,0,0
166455,345.741,-441.67,0,0
166716,350.432,-440.814,0,0
166976,355.79,-440.391,0,0
167236,361.295,-440.623,0,0
167497,367.163,-441.439,0,0
167757,373.238,-442.814,0,0
168017,379.528,-445.269,0,0
168277,385.762,-448.873,0,0
168538,391.27,-453.571,0,0
168798,395.78,-458.648,0,0
169058,399.759,-463.907,0,0
169319,403.32,-469.461,0,0
169579,406.501,-475.43,0,0
169839,409.042,-481.884,0,0
170100,410.743,-488.493,0,0
170360.075,412.153,-495.184,0,0
170620.4,413.048,-502.604,0,0
170880.725,412.636,-510.672,0,0
171141.05,410.559,-518.587,0,0
171401.375,407.157,-525.754,0,0
171661.7,403.089,-531.915,0,0
171922.025,398.638,-537.483,0,0
172182.35,393.647,-542.449,0,0
172442.675,388.301,-546.841,0,0
172703.0,382.41,-550.803,0,0
172963.325,375.664,-553.982,0,0
173223.65,368.602,-555.759,0,0
173483.975,361.871,-556.463,0,0
173744.3,355.289,-556.6,0,0
174004.625,348.857,-555.961,0,0
174264.95,342.782,-554.673,0,0
174525.275,336.837,-552.822,0,0
174785.6,331.269,-550.232,0,0
175045.925,326.378,-547.26,0,0
175306.25,321.802,-544.176,0,0
175566.575,317.275,-540.748,0,0
175826.9,313.127,-536.69,0,0
176087.225,309.567,-532.295,0,0
176347.55,306.572,-527.734,0,0
176607.875,304.055,-523.071,0,0
176868.2,301.946,-518.383,0,0
177128.525,300.234,-513.623,0,0
177388.85,298.913,-508.875,0,0
177649.175,297.992,-504.123,0,0
177909.5,297.519,-499.489,0,0
178169.825,297.334,-495.15,0,0
178430.15,297.283,-491.073,0,0
178690.475,297.231,-487.069,0,0
178950.8,297.311,-483.05,0,0
179211.125,297.544,-479.136,0,0
179471.45,297.89,-475.27,0,0
179731.775,298.357,-471.455,0,0
179992.1,298.972,-467.731,0,0
180252.425,299.703,-464.117,0,0
180512.75,300.431,-460.625,0,0
180773.075,301.181,-457.196,0,0
181033.4,301.937,-453.781,0,0
181293.725,302.728,-450.412,0,0
181554.05,303.532,-447.087,0,0
181814.375,304.329,-443.795,0,0
182074.7,305.063,-440.501,0,0
182335.025,305.752,-437.149,0,0
182595.35,306.378,-433.726,0,0
182855.675,306.974,-430.147,0,0
183116.0,307.634,-426.449,0,0
183376.325,308.293,-422.569,0,0
183636.65,309.052,-418.498,0,0
183896.975,309.954,-414.271,0,0
184157.3,311.04,-409.911,0,0
184417.625,312.294,-405.442,0,0
184677.95,313.728,-400.925,0,0
184938.275,315.271,-396.378,0,0
185198.6,316.919,-391.709,0,0
185458.925,318.721,-386.918,0,0
185719.25,320.7,-381.967,0,0
185979.575,322.956,-376.879,0,0
186239.9,325.482,-371.763,0,0
186500,328.286,-366.618,0,0
186761,331.206,-361.504,0,0
187021,334.3,-356.47,0,0
187281,337.646,-351.28,0,0
187542,341.103,-345.996,0,0
187802,344.895,-340.653,0,0
188062,348.983,-335.292,0,0
188322,353.392,-329.874,0,0
188583,357.975,-324.543,0,0
188843,362.915,-319.143,0,0
189103,368.106,-313.84,0,0
189364,373.708,-308.493,0,0
189624,379.526,-303.279,0,0
189884,385.662,-298.093,0,0
190145,392.193,-292.898,0,0
190405,399.138,-287.912,0,0
190665,406.521,-282.932,0,0
190926,414.301,-278.277,0,0
191186,422.409,-273.91,0,0
191446,430.773,-269.799,0,0
191707,439.494,-265.91,0,0
191967,448.467,-262.339,0,0
192227,457.83,-259.078,0,0
192488,467.387,-256.138,0,0
192748,477.122,-253.538,0,0
193008,487.194,-251.315,0,0
193269,497.487,-249.408,0,0
193529,507.869,-248,0,0
193789,518.387,-246.935,0,0
194050,528.829,-246.201,0,0
194310,539.538,-245.626,0,0
194570,550.52,-245.36,0,0
194831,561.691,-245.526,0,0
195091,573.021,-246.13,0,0
195351,584.359,-247.106,0,0
195612,595.731,-248.389,0,0
195872,607.304,-249.915,0,0
196132,619.093,-251.787,0,0
196393,631.106,-254.034,0,0
196653,643.292,-256.652,0,0
196913,655.75,-259.634,0,0
197174,668.611,-263.109,0,0
197434,681.86,-267.256,0,0
197694,695.315,-272.229,0,0
197955,708.921,-277.988,0,0
198215,722.673,-284.688,0,0
198475,736.312,-292.334,0,0
198735,749.778,-300.875,0,0
198996,763.188,-310.269,0,0
199256,776.395,-320.81,0,0
199516,789.279,-332.476,0,0
199777,801.42,-345.252,0,0
200037,812.621,-359.074,0,0
200297,822.899,-373.552,0,0
200558,832.242,-388.593,0,0
200818,840.702,-404.203,0,0
201078,848.323,-420.386,0,0
201339,854.837,-437.236,0,0
201599,859.82,-454.356,0,0
201859,863.623,-471.276,0,0
202120,866.495,-488.145,0,0
202380.025,868.499,-504.813,0,0
202640.35,869.407,-521.448,0,0
202900.675,869.123,-537.764,0,0
203161.0,867.751,-553.144,0,0
203421.325,866.336,-567.543,0,0
203681.65,865.047,-581.65,0,0
203941.975,863.323,-596.084,0,0
204202.3,861.162,-610.362,0,0
204462.625,858.158,-624.812,0,0
204722.95,854.399,-638.485,0,0
204983.275,850.242,-651.489,0,0
205243.6,846.301,-664.32,0,0
205503.925,841.834,-677.211,0,0
205764.25,836.822,-689.995,0,0
206024.575,831.111,-702.269,0,0
206284.9,825.24,-714.093,0,0
206545.225,819.177,-725.365,0,0
206805.55,813.211,-736.52,0,0
207065.875,807.033,-747.773,0,0
207326.2,800.335,-759.337,0,0
207586.525,792.74,-770.911,0,0
207846.85,784.366,-782.126,0,0
208107.175,775.111,-792.739,0,0
208367.5,765.166,-802.824,0,0
208627.825,754.468,-812.141,0,0
208888.15,743.154,-820.329,0,0
209148.475,731.583,-827.501,0,0
209408.8,720.014,-833.498,0,0
209669.125,708.412,-838.542,0,0
209929.45,697.2,-842.465,0,0
210189.775,686.369,-845.712,0,0
210450.1,676.054,-848.246,0,0
210710.425,666.239,-850.512,0,0
210970.75,656.797,-852.408,0,0
211231.075,647.445,-853.963,0,0
211491.4,638.285,-855.108,0,0
211751.725,629.489,-855.769,0,0
212012.05,621.042,-855.95,0,0
212272.375,613.002,-855.772,0,0
212532.7,605.321,-855.386,0,0
212793.025,598.33,-854.46,0,0
213053.35,591.727,-853.455,0,0
213313.675,585.649,-852.449,0,0
213574.0,579.941,-851.34,0,0
213834.325,574.588,-849.968,0,0
214094.65,569.902,-848.479,0,0
214354.975,566.053,-847.162,0,0
214615.3,562.705,-846.08,0,0
214875.625,559.943,-845.706,0,0
215135.95,557.213,-845.92,0,0
215396.275,554.567,-846.479,0,0
215656.6,551.81,-847.472,0,0
215916.925,548.849,-848.75,0,0
216177.25,545.907,-850.421,0,0
216437.575,542.601,-852.217,0,0
216697.9,539.076,-854.071,0,0
216958.225,535.326,-855.979,0,0
217218.55,531.381,-857.851,0,0
217478.875,527.294,-859.672,0,0
217739.2,522.926,-861.416,0,0
217999.525,518.624,-863.094,0,0
218259.85,514.091,-864.602,0,0
218520,509.395,-865.968,0,0
218780,504.839,-867.029,0,0
219041,500.352,-867.751,0,0
219301,496.215,-868.475,0,0
219561,492.373,-869.331,0,0
219822,488.614,-870.495,0,0
220082,484.583,-871.903,0,0
220342,480.317,-873.3,0,0
220603,475.902,-874.677,0,0
220863,471.359,-875.977,0,0
221123,466.707,-877.078,0,0
221384,462.024,-878.333,0,0
221644,457.221,-879.341,0,0
221904,452.302,-880.193,0,0
222165,447.205,-880.931,0,0
222425,442.131,-881.37,0,0
222685,437.222,-881.558,0,0
222946,432.633,-881.653,0,0
223206,428.107,-881.774,0,0
223466,423.606,-882.2,0,0
223727,419.069,-882.499,0,0
223987,414.319,-882.781,0,0
224247,409.67,-883.061,0,0
224508,405.059,-883.344,0,0
224768,400.294,-883.701,0,0
225028,395.425,-884.019,0,0
225289,390.384,-884.16,0,0
225549,385.366,-884.47,0,0
225809,380.004,-884.66,0,0
226070,374.382,-884.676,0,0
226330,368.552,-884.328,0,0
226590,362.641,-883.695,0,0
226851,356.882,-882.561,0,0
227111,351.27,-881.361,0,0
227371,345.711,-879.955,0,0
227632,340.236,-878.533,0,0
227892,334.639,-876.878,0,0
228152,329.049,-875.135,0,0
228413,323.395,-872.996,0,0
228673,317.897,-870.559,0,0
228933,312.489,-867.8,0,0
229193,307.259,-864.893,0,0
229454,302.272,-861.664,0,0
229714,297.587,-858.25,0,0
229974,293.081,-854.656,0,0
230235,288.837,-850.844,0,0
230495,284.96,-847.144,0,0
230755,281.432,-843.31,0,0
231016,278.074,-839.589,0,0
231276,274.941,-835.877,0,0
231536,272.023,-832.233,0,0
231797,269.179,-828.669,0,0
232057,266.493,-825.19,0,0
232317,263.855,-821.712,0,0
232578,261.339,-818.132,0,0
232838,258.972,-814.63,0,0
233098,256.742,-811.097,0,0
233359,254.697,-807.595,0,0
233619,252.82,-804.127,0,0
233879,251.031,-800.744,0,0
234140,249.424,-797.398,0,0
234400,247.856,-794.236,0,0
234660.3,246.405,-791.062,0,0
234920.625,244.936,-787.957,0,0
235180.95,243.741,-784.923,0,0
235441.275,242.482,-781.905,0,0
235701.6,241.391,-779.056,0,0
235961.925,240.262,-776.313,0,0
236222.25,239.156,-773.594,0,0
236482.575,237.99,-770.892,0,0
236742.9,236.898,-768.149,0,0
237003.225,235.861,-765.399,0,0
237263.55,234.91,-762.66,0,0
237523.875,234.083,-759.863,0,0
237784.2,233.376,-757.16,0,0
238044.525,232.783,-754.468,0,0
238304.85,232.392,-751.862,0,0
238565.175,232.097,-749.342,0,0
238825.5,231.92,-747.061,0,0
239085.825,231.769,-744.961,0,0
239346.15,231.514,-742.992,0,0
239606.475,231.307,-741.14,0,0
239866.8,231.112,-739.344,0,0
240127.125,230.842,-737.652,0,0
240387.45,230.646,-736.02,0,0
240647.775,230.409,-734.618,0,0
240908.1,230.034,-733.256,0,0
241168.425,229.594,-731.93,0,0
241428.75,229.07,-730.726,0,0
241689.075,228.479,-729.516,0,0
241949.4,227.809,-728.289,0,0
242209.725,227.142,-727.059,0,0
242470.05,226.444,-725.894,0,0
242730.375,225.644,-724.809,0,0
242990.7,224.739,-723.697,0,0
243251.025,223.77,-722.495,0,0
243511.35,222.818,-721.304,0,0
243771.675,221.874,-720.112,0,0
244032.0,220.794,-718.967,0,0
244292.325,219.623,-717.85,0,0
244552.65,218.355,-716.614,0,0
244812.975,217.052,-715.269,0,0
245073.3,215.68,-713.823,0,0
245333.625,214.231,-712.292,0,0
245593.95,212.893,-710.684,0,0
245854.275,211.498,-708.884,0,0
246114.6,210.215,-706.933,0,0
246374.925,209.012,-704.889,0,0
246635.25,207.946,-702.817,0,0
246895.575,206.995,-700.823,0,0
247155.9,206.112,-698.714,0,0
247416.225,205.348,-696.551,0,0
247676.55,204.793,-694.437,0,0
247936.875,204.37,-692.439,0,0
248197.2,203.953,-690.612,0,0
248457.525,203.54,-688.896,0,0
248717.85,203.041,-687.204,0,0
248978.175,202.551,-685.646,0,0
249238.5,202.053,-684.071,0,0
249498.825,201.463,-682.544,0,0
249759.15,200.878,-681.079,0,0
250019.475,200.138,-679.513,0,0
250279.8,199.356,-677.826,0,0
250540,198.732,-676.069,0,0
250800,198.167,-674.436,0,0
251061,197.654,-672.953,0,0
251321,196.977,-671.527,0,0
251581,196.226,-670.106,0,0
251842,195.334,-668.727,0,0
252102,194.277,-667.273,0,0
252362,193.11,-665.74,0,0
252623,191.766,-664.055,0,0
252883,190.299,-662.155,0,0
253143,188.812,-659.96,0,0
253404,187.423,-657.473,0,0
253664,186.215,-654.741,0,0
253924,185.199,-651.894,0,0
254185,184.347,-649.024,0,0
254445,183.682,-646.087,0,0
254705,183.022,-643.165,0,0
254966,182.502,-640.087,0,0
255226,182.02,-636.956,0,0
255486,181.685,-633.802,0,0
255747,181.455,-630.451,0,0
256007,181.343,-626.966,0,0
256267,181.446,-623.352,0,0
256528,181.844,-619.659,0,0
256788,182.538,-615.977,0,0
257048,183.439,-612.366,0,0
257309,184.523,-608.828,0,0
257569,185.757,-605.3,0,0
257829,187.168,-601.773,0,0
258090,188.815,-598.306,0,0
258350,190.628,-594.911,0,0
258610,192.626,-591.534,0,0
258871,194.854,-588.127,0,0
259131,197.372,-584.812,0,0
259391,200.226,-581.565,0,0
259651,203.346,-578.602,0,0
259912,206.822,-575.88,0,0
260172,210.298,-573.469,0,0
260432,214.002,-571.242,0,0
260693,217.918,-569.231,0,0
260953,221.962,-567.546,0,0
261213,226.162,-566.214,0,0
261474,230.409,-565.235,0,0
261734,234.664,-564.632,0,0
261994,238.821,-564.323,0,0
262255,242.852,-564.251,0,0
262515,246.883,-564.313,0,0
262775,250.965,-564.534,0,0
263036,255.149,-565.045,0,0
263296,259.312,-565.908,0,0
263556,263.441,-567.149,0,0
263817,267.389,-568.684,0,0
264077,271.292,-570.453,0,0
264337,275.028,-572.8,0,0
264598,278.438,-575.064,0,0
264858,281.74,-577.532,0,0
265118,284.95,-580.188,0,0
265379,288.02,-583.062,0,0
265639,290.988,-586.272,0,0
265899,293.748,-589.805,0,0
266160,296.2,-593.575,0,0
266420,298.399,-597.604,0,0
266680.25,300.282,-601.881,0,0
266940.575,301.684,-606.518,0,0
267200.9,302.435,-611.244,0,0
267461.225,302.684,-615.934,0,0
267721.55,302.527,-620.299,0,0
267981.875,302.158,-624.558,0,0
268242.2,301.485,-628.763,0,0
268502.525,300.61,-632.819,0,0
268762.85,299.469,-636.808,0,0
269023.175,298.103,-640.725,0,0
269283.5,296.439,-644.721,0,0
269543.825,294.254,-648.772,0,0
269804.15,291.397,-652.492,0,0
270064.475,287.989,-655.441,0,0
270324.8,284.586,-657.729,0,0
270585.125,281.309,-659.268,0,0
270845.45,278.384,-660.406,0,0
271105.775,275.848,-661.337,0,0
271366.1,273.616,-662.055,0,0
271626.425,271.855,-662.867,0,0
271886.75,270.301,-663.882,0,0
272147.075,268.753,-665.124,0,0
272407.4,267.31,-666.584,0,0
272667.725,265.699,-668.322,0,0
272928.05,263.769,-670.166,0,0
273188.375,261.621,-671.882,0,0
273448.7,259.409,-673.532,0,0
273709.025,257.043,-675.205,0,0
273969.35,254.53,-676.877,0,0
274229.675,251.879,-678.442,0,0
274490.0,249.098,-680.088,0,0
274750.325,246.053,-681.72,0,0
275010.65,242.733,-683.203,0,0
275270.975,239.004,-684.521,0,0
275531.3,235.048,-685.468,0,0
275791.625,230.942,-686.07,0,0
276051.95,226.741,-686.308,0,0
276312.275,222.503,-686.152,0,0
276572.6,218.278,-685.668,0,0
276832.925,214.082,-684.844,0,0
277093.25,209.945,-683.571,0,0
277353.575,206.013,-681.976,0,0
277613.9,202.241,-680.104,0,0
277874.225,198.689,-677.867,0,0
278134.55,195.44,-675.365,0,0
278394.875,192.502,-672.665,0,0
278655.2,189.875,-669.83,0,0
278915.525,187.587,-666.793,0,0
279175.85,185.662,-663.644,0,0
279436.175,184.215,-660.456,0,0
279696.5,183.263,-657.322,0,0
279956.825,182.657,-654.479,0,0
280217.15,182.427,-651.976,0,0
280477.475,182.274,-649.679,0,0
280737.8,182.189,-647.785,0,0
280998.125,182.042,-646.097,0,0
281258.45,181.886,-644.603,0,0
281518.775,181.63,-643.299,0,0
281779.1,181.191,-642.103,0,0
282039.425,180.603,-640.808,0,0
282299.75,179.964,-639.362,0,0
282560,179.426,-637.726,0,0
282820,179.103,-636.02,0,0
283081,179.06,-634.368,0,0
283341,179.227,-632.871,0,0
283601,179.568,-631.649,0,0
283862,179.954,-630.761,0,0
284122,180.209,-630.165,0,0
284382,180.234,-629.804,0,0
284643,179.91,-629.463,0,0
284903,179.464,-628.966,0,0
285163,179.009,-628.435,0,0
285424,178.545,-627.865,0,0
285684,178.065,-627.377,0,0
285944,177.529,-626.966,0,0
286205,176.771,-626.636,0,0
286465,175.759,-626.255,0,0
286725,174.56,-625.697,0,0
286986,173.24,-624.917,0,0
287246,171.859,-623.917,0,0
287506,170.412,-622.665,0,0
287767,168.954,-621.105,0,0
288027,167.623,-619.175,0,0
288287,166.524,-616.967,0,0
288548,165.724,-614.565,0,0
288808,165.211,-611.989,0,0
289068,165.052,-609.266,0,0
289329,165.272,-606.483,0,0
289589,165.94,-603.711,0,0
289849,167.04,-601.09,0,0
290109,168.494,-598.69,0,0
290370,170.319,-596.534,0,0
290630,172.38,-594.784,0,0
290890,174.618,-593.359,0,0
291151,176.996,-592.299,0,0
291411,179.462,-591.625,0,0
291671,181.952,-591.361,0,0
291932,184.382,-591.491,0,0
292192,186.689,-591.893,0,0
292452,188.825,-592.623,0,0
292713,190.926,-593.566,0,0
292973,192.898,-594.772,0,0
293233,194.803,-596.298,0,0
293494,196.534,-598.228,0,0
293754,197.905,-600.533,0,0
294014,198.869,-603.042,0,0
294275,199.386,-605.716,0,0
294535,199.503,-608.41,0,0
294795,199.258,-611.136,0,0
295056,198.587,-613.844,0,0
295316,197.507,-616.456,0,0
295576,196.063,-618.878,0,0
295837,194.307,-621.028,0,0
296097,192.322,-622.916,0,0
296357,190.145,-624.519,0,0
296618,187.848,-625.844,0,0
296878,185.5,-626.887,0,0
297138,183.084,-627.638,0,0
297399,180.723,-628.152,0,0
297659,178.418,-628.414,0,0
297919,176.206,-628.509,0,0
298180,174.07,-628.478,0,0
298440,172.07,-628.286,0,0
298700.2,170.159,-628.049,0,0
298960.525,168.329,-627.75,0,0
299220.85,166.591,-627.44,0,0
299481.175,164.898,-627.092,0,0
299741.5,163.241,-626.716,0,0
300001.825,161.629,-626.346,0,0
300262.15,160.064,-625.974,0,0
300522.475,158.439,-625.631,0,0
300782.8,156.779,-625.253,0,0
301043.125,155.078,-624.795,0,0
301303.45,153.368,-624.245,0,0
301563.775,151.651,-623.63,0,0
301824.1,149.947,-622.885,0,0
302084.425,148.306,-622.075,0,0
302344.75,146.743,-621.159,0,0
302605.075,145.244,-620.206,0,0
302865.4,143.83,-619.24,0,0
303125.725,142.472,-618.265,0,0
303386.05,141.125,-617.3,0,0
303646.375,139.793,-616.29,0,0
303906.7,138.456,-615.232,0,0
304167.025,137.182,-614.079,0,0
304427.35,136.004,-612.91,0,0
304687.675,134.921,-611.696,0,0
304948.0,133.83,-610.5,0,0
305208.325,132.846,-609.282,0,0
305468.65,131.899,-608.025,0,0
305728.975,131.061,-606.743,0,0
305989.3,130.287,-605.491,0,0
306249.625,129.614,-604.266,0,0
306509.95,128.997,-603.064,0,0
306770.275,128.44,-601.92,0,0
307030.6,127.935,-600.835,0,0
307290.925,127.473,-599.794,0,0
307551.25,126.995,-598.83,0,0
307811.575,126.564,-597.89,0,0
308071.9,126.128,-597.002,0,0
308332.225,125.7,-596.17,0,0
308592.55,125.251,-595.389,0,0
308852.875,124.79,-594.638,0,0
309113.2,124.303,-593.908,0,0
309373.525,123.773,-593.223,0,0
309633.85,123.211,-592.511,0,0
309894.175,122.652,-591.796,0,0
310154.5,122.079,-591.091,0,0
310414.825,121.525,-590.418,0,0
310675.15,120.933,-589.748,0,0
310935.475,120.293,-589.081,0,0
311195.8,119.63,-588.4,0,0
311456.125,118.904,-587.68,0,0
311716.45,118.189,-586.914,0,0
311976.775,117.484,-586.103,0,0
312237.1,116.812,-585.235,0,0
312497.425,116.153,-584.352,0,0
312757.75,115.541,-583.468,0,0
313018.075,114.943,-582.528,0,0
313278.4,114.387,-581.588,0,0
313538.725,113.887,-580.674,0,0
313799.05,113.413,-579.741,0,0
314059.375,112.973,-578.816,0,0
314319.7,112.556,-577.885,0,0
314580,112.201,-576.91,0,0
314840,111.886,-576.128,0,0
315101,111.539,-575.246,0,0
315361,111.304,-574.458,0,0
315621,111.025,-573.701,0,0
315882,110.871,-572.947,0,0
316142,110.695,-572.229,0,0
316402,110.377,-571.593,0,0
316663,110.216,-571.036,0,0
316923,109.995,-570.508,0,0
317183,109.777,-569.924,0,0
317444,109.53,-569.427,0,0
317704,109.252,-569.02,0,0
317964,109.015,-568.637,0,0
318225,108.706,-568.336,0,0
318485,108.378,-567.977,0,0
318745,107.942,-567.727,0,0
319006,107.473,-567.518,0,0
319266,106.937,-567.277,0,0
319526,106.404,-567.02,0,0
319787,105.72,-566.84,0,0
320047,105.111,-566.584,0,0
320307,104.431,-566.338,0,0
320567,103.682,-566.224,0,0
320828,102.713,-566.019,0,0
321088,101.87,-565.799,0,0
321348,100.799,-565.509,0,0
321609,99.6972,-565.331,0,0
321869,98.442,-564.97,0,0
322129,97.1747,-564.528,0,0
322390,95.838,-563.959,0,0
322650,94.4027,-563.195,0,0
322910,92.9526,-562.407,0,0
323171,91.4938,-561.376,0,0
323431,90.1046,-560.231,0,0
323691,88.8238,-558.899,0,0
323952,87.637,-557.579,0,0
324212,86.6569,-556.08,0,0
324472,85.7322,-554.62,0,0
324733,84.9453,-553.173,0,0
324993,84.2175,-551.713,0,0
325253,83.5721,-550.277,0,0
325514,82.9794,-548.954,0,0
325774,82.3748,-547.599,0,0
326034,81.8729,-546.246,0,0
326295,81.3984,-544.898,0,0
326555,80.8496,-543.577,0,0
326815,80.3272,-542.293,0,0
327076,79.8571,-540.982,0,0
327336,79.4262,-539.572,0,0
327596,79.0041,-538.241,0,0
327857,78.6029,-536.853,0,0
328117,78.2775,-535.525,0,0
328377,77.9969,-534.112,0,0
328638,77.7195,-532.693,0,0
328898,77.3676,-531.246,0,0
329158,77.2075,-529.795,0,0
329419,77.1545,-528.434,0,0
329679,77.0967,-526.836,0,0
329939,77.132,-525.488,0,0
330200,77.2974,-524.229,0,0
330460,77.4909,-522.904,0,0
330720.15,77.7576,-521.607,0,0
330980.475,77.9726,-520.507,0,0
331240.8,78.2692,-519.457,0,0
331501.125,78.5986,-518.473,0,0
331761.45,78.8716,-517.585,0,0
332021.775,79.1077,-516.734,0,0
332282.1,79.41,-515.946,0,0
332542.425,79.6233,-515.224,0,0
332802.75,79.738,-514.598,0,0
333063.075,79.8882,-513.971,0,0
333323.4,79.9711,-513.365,0,0
333583.725,80.0337,-512.762,0,0
333844.05,79.9197,-512.232,0,0
334104.375,79.8378,-511.67,0,0
334364.7,79.6698,-511.07,0,0
334625.025,79.4858,-510.504,0,0
334885.35,79.1666,-509.871,0,0
335145.675,78.9003,-509.177,0,0
335406.0,78.6084,-508.435,0,0
335666.325,78.31,-507.71,0,0
335926.65,77.9023,-506.885,0,0
336186.975,77.5834,-506.127,0,0
336447.3,77.2349,-505.229,0,0
336707.625,76.8416,-504.373,0,0
336967.95,76.4702,-503.379,0,0
337228.275,76.1289,-502.346,0,0
337488.6,75.7645,-501.252,0,0
337748.925,75.4755,-500.133,0,0
338009.25,75.1801,-498.892,0,0
338269.575,75.0116,-497.621,0,0
338529.9,74.8954,-496.392,0,0
338790.225,74.8495,-495.119,0,0
339050.55,74.8684,-493.78,0,0
339310.875,74.9717,-492.504,0,0
339571.2,75.109,-491.196,0,0
339831.525,75.3021,-489.875,0,0
340091.85,75.5283,-488.67,0,0
340352.175,75.8712,-487.424,0,0
340612.5,76.237,-486.209,0,0
340872.825,76.7394,-484.925,0,0
341133.15,77.2251,-483.716,0,0
341393.475,77.8627,-482.586,0,0
341653.8,78.4942,-481.452,0,0
341914.125,79.2903,-480.428,0,0
342174.45,80.1195,-479.517,0,0
342434.775,81.0346,-478.638,0,0
342695.1,81.9062,-477.947,0,0
342955.425,82.9255,-477.367,0,0
343215.75,83.8072,-476.848,0,0
343476.075,84.763,-476.605,0,0
343736.4,85.5952,-476.369,0,0
343996.725,86.36,-476.277,0,0
344257.05,87.0434,-476.253,0,0
344517.375,87.6727,-476.298,0,0
344777.7,88.1425,-476.364,0,0
345038.025,88.5544,-476.478,0,0
345298.35,88.8818,-476.623,0,0
345558.675,89.1079,-476.808,0,0
345819.0,89.2462,-476.906,0,0
346079.325,89.348,-477.033,0,0
346339.65,89.3385,-477.085,0,0
346599.975,89.3139,-477.135,0,0
346860,89.2318,-477.225,0,0
347121,89.1908,-477.25,0,0
347381,88.9588,-477.231,0,0
347641,88.7347,-477.258,0,0
347902,88.4688,-477.185,0,0
348162,88.1883,-477.103,0,0
348422,87.796,-476.997,0,0
348683,87.4504,-476.883,0,0
348943,87.0561,-476.631,0,0
349203,86.6673,-476.414,0,0
349464,86.2479,-476.112,0,0
349724,85.8469,-475.851,0,0
349984,85.3564,-475.414,0,0
350245,84.9663,-475.032,0,0
350505,84.5306,-474.582,0,0
350765,84.0912,-474.126,0,0
351025,83.6699,-473.632,0,0
351286,83.2241,-472.999,0,0
351546,82.8583,-472.463,0,0
351806,82.4833,-471.848,0,0
352067,82.094,-471.141,0,0
352327,81.7431,-470.458,0,0
352587,81.43,-469.662,0,0
352848,81.1536,-468.967,0,0
353108,80.9103,-468.176,0,0
353368,80.6731,-467.326,0,0
353629,80.5909,-466.503,0,0
353889,80.5874,-465.643,0,0
354149,80.5136,-464.849,0,0
354410,80.6289,-464.099,0,0
354670,80.7384,-463.373,0,0
354930,80.8815,-462.818,0,0
355191,80.9968,-462.228,0,0
355451,81.0661,-461.772,0,0
355711,81.1068,-461.285,0,0
355972,81.1617,-460.8,0,0
356232,81.2009,-460.401,0,0
356492,81.169,-459.929,0,0
356753,81.1373,-459.516,0,0
357013,81.0998,-459.074,0,0
357273,81.0319,-458.718,0,0
357534,80.8757,-458.35,0,0
357794,80.687,-457.964,0,0
358054,80.4507,-457.601,0,0
358315,80.1283,-457.171,0,0
358575,79.8259,-456.734,0,0
358835,79.4152,-456.149,0,0
359096,79.0056,-455.487,0,0
359356,78.6172,-454.745,0,0
359616,78.2912,-453.994,0,0
359877,78.0475,-453.046,0,0
360137,77.8906,-452.143,0,0
360397,77.7591,-451.304,0,0
360658,77.7269,-450.387,0,0
360918,77.7094,-449.504,0,0
361178,77.795,-448.696,0,0
361438,77.835,-447.828,0,0
361699,77.8898,-447.048,0,0
361959,77.9931,-446.163,0,0
362219,78.0712,-445.379,0,0
362480,78.3049,-444.592,0,0
362740.1,78.4673,-443.85,0,0
363000.425,78.7212,-443.14,0,0
363260.75,78.9698,-442.484,0,0
363521.075,79.2136,-441.868,0,0
363781.4,79.4094,-441.308,0,0
364041.725,79.6068,-440.729,0,0
364302.05,79.7916,-440.239,0,0
364562.375,79.8401,-439.794,0,0
364822.7,79.8894,-439.27,0,0
365083.025,79.8588,-438.738,0,0
365343.35,79.7995,-438.075,0,0
365603.675,79.7032,-437.476,0,0
365864.0,79.6478,-436.685,0,0
366124.325,79.613,-435.884,0,0
366384.65,79.6197,-435.042,0,0
366644.975,79.7639,-434.098,0,0
366905.3,79.8256,-433.199,0,0
367165.625,80.0006,-432.236,0,0
367425.95,80.2577,-431.23,0,0
367686.275,80.58,-430.299,0,0
367946.6,80.9301,-429.312,0,0
368206.925,81.3278,-428.324,0,0
368467.25,81.8972,-427.309,0,0
368727.575,82.5638,-426.44,0,0
368987.9,83.2205,-425.512,0,0
369248.225,83.9957,-424.653,0,0
369508.55,84.8648,-423.882,0,0
369768.875,85.7297,-423.211,0,0
370029.2,86.636,-422.549,0,0
370289.525,87.5919,-421.981,0,0
370549.85,88.623,-421.518,0,0
370810.175,89.5938,-421.069,0,0
371070.5,90.6938,-420.716,0,0
371330.825,91.8066,-420.516,0,0
371591.15,92.9485,-420.361,0,0
371851.475,94.0789,-420.421,0,0
372111.8,95.1995,-420.524,0,0
372372.125,96.244,-420.831,0,0
372632.45,97.2476,-421.227,0,0
372892.775,98.1511,-421.776,0,0
373153.1,98.8886,-422.445,0,0
373413.425,99.5271,-423.078,0,0
373673.75,100.023,-423.839,0,0
373934.075,100.339,-424.623,0,0
374194.4,100.549,-425.336,0,0
374454.725,100.613,-426.022,0,0
374715.05,100.596,-426.629,0,0
374975.375,100.501,-427.17,0,0
375235.7,100.389,-427.618,0,0
375496.025,100.21,-428.074,0,0
375756.35,100.006,-428.368,0,0
376016.675,99.835,-428.665,0,0
376277.0,99.6583,-428.908,0,0
376537.325,99.4541,-429.126,0,0
376797.65,99.3111,-429.436,0,0
377057.975,99.0986,-429.633,0,0
377318.3,98.8773,-429.887,0,0
377578.625,98.646,-430.045,0,0
377838.95,98.3335,-430.19,0,0
378099.275,98.0776,-430.344,0,0
378359.6,97.8051,-430.417,0,0
378619.925,97.5128,-430.461,0,0
378880,97.2625,-430.549,0,0
379141,96.9681,-430.582,0,0
379401,96.7796,-430.642,0,0
379661,96.5163,-430.685,0,0
379922,96.2666,-430.659,0,0
380182,95.9511,-430.778,0,0
380442,95.7295,-430.774,0,0
380703,95.4213,-430.829,0,0
380963,95.0641,-430.787,0,0
381223,94.7698,-430.698,0,0
381483,94.4708,-430.605,0,0
381744,94.168,-430.447,0,0
382004,93.938,-430.332,0,0
382264,93.7007,-430.108,0,0
382525,93.594,-429.921,0,0
382785,93.6057,-429.808,0,0
383045,93.6811,-429.794,0,0
383306,93.7299,-429.856,0,0
383566,93.8287,-430.115,0,0
383826,93.7887,-430.529,0,0
384087,93.6851,-430.978,0,0
384347,93.3693,-431.593,0,0
384607,92.8843,-432.082,0,0
384868,92.2887,-432.608,0,0
385128,91.5934,-433.038,0,0
385388,90.7241,-433.397,0,0
385649,89.804,-433.667,0,0
385909,88.8628,-433.85,0,0
386169,87.7684,-433.853,0,0
386430,86.7689,-433.838,0,0
386690,85.6408,-433.678,0,0
386950,84.5794,-433.377,0,0
387211,83.4542,-432.961,0,0
387471,82.4416,-432.483,0,0
387731,81.4371,-431.83,0,0
387992,80.4864,-431.08,0,0
388252,79.6203,-430.226,0,0
388512,78.9603,-429.282,0,0
388773,78.3582,-428.352,0,0
389033,77.9663,-427.371,0,0
389293,77.6323,-426.454,0,0
389554,77.4403,-425.546,0,0
389814,77.414,-424.751,0,0
390074,77.4028,-424.003,0,0
390335,77.5129,-423.314,0,0
390595,77.6512,-422.798,0,0
390855,77.7901,-422.372,0,0
391116,77.9639,-422.098,0,0
391376,78.0803,-421.932,0,0
391636,78.0879,-421.915,0,0
391896,78.0781,-422.057,0,0
392157,77.8093,-422.172,0,0
392417,77.5175,-422.301,0,0
392677,77.0215,-422.446,0,0
392938,76.4548,-422.561,0,0
393198,75.7467,-422.658,0,0
393458,74.941,-422.593,0,0
393719,74.0843,-422.475,0,0
393979,73.1501,-422.258,0,0
394239,72.239,-421.945,0,0
394500,71.2874,-421.438,0,0
394760.05,70.4096,-420.91,0,0
395020.375,69.525,-420.318,0,0
395280.7,68.665,-419.597,0,0
395541.025,67.8648,-418.853,0,0
395801.35,67.1104,-418.061,0,0
396061.675,66.4088,-417.254,0,0
396322.0,65.7575,-416.362,0,0
396582.325,65.1252,-415.503,0,0
396842.65,64.553,-414.613,0,0
397102.975,64.0289,-413.638,0,0
397363.3,63.559,-412.666,0,0
397623.625,63.1296,-411.751,0,0
397883.95,62.7035,-410.82,0,0
398144.275,62.3336,-409.837,0,0
398404.6,61.9972,-408.944,0,0
398664.925,61.6585,-407.978,0,0
398925.25,61.3188,-407.051,0,0
399185.575,61.0188,-406.065,0,0
399445.9,60.7408,-405.097,0,0
399706.225,60.4803,-404.165,0,0
399966.55,60.2674,-403.148,0,0
400006.6,60.2329,-402.965,0,0