File: Accelerated corrosion test data/2025-10-04_06-00-03/sample_6.csv
Frequency (Hz),Impedance (ohms),Phase (Radians),Temperature (C),Humidity (%)
10000.0,4281.27,-6436.9,0,0
10260.325,4143.99,-6365.05,0,0
10520.65,4013.25,-6293.86,0,0
10780.975,3887.74,-6222.76,0,0
11041.3,3768.76,-6151.44,0,0
11301.625,3653.77,-6081.32,0,0
11561.95,3544.28,-6011.53,0,0
11822.275,3439.79,-5942.44,0,0
12082.6,3338.17,-5872.99,0,0
12342.925,3242.44,-5804.72,0,0
12603.25,3151.65,-5736.22,0,0
12863.575,3064.18,-5669.9,0,0
13123.9,2981.74,-5606.44,0,0
13384.225,2899.37,-5544.29,0,0
13644.55,2819.84,-5480.99,0,0
13904.875,2744.03,-5417.64,0,0
14165.2,2671.17,-5355.91,0,0
14425.525,2601.19,-5295.27,0,0
14685.8,2534.58,-5233.6,0,0
14946.175,2470.79,-5175.86,0,0
15206.5,2409.67,-5117.77,0,0
15466.825,2349.76,-5060.62,0,0
15727.15,2292.31,-5004.67,0,0
15987.5,2237.09,-4949.54,0,0
16247.8,2183.34,-4895.42,0,0
16508.125,2132.14,-4841.99,0,0
16768.45,2082.48,-4788.96,0,0
17028.775,2034.97,-4738.04,0,0
17289.1,1988.89,-4687.91,0,0
17549.425,1943.86,-4638.05,0,0
17809.75,1900.23,-4589.55,0,0
18070.075,1857.89,-4540.05,0,0
18330.4,1817.98,-4492.97,0,0
18590.725,1779.04,-4445.32,0,0
18851.05,1742.43,-4399.83,0,0
19111.375,1707.18,-4356.11,0,0
19371.7,1671.18,-4313.02,0,0
19632.025,1636.22,-4269.74,0,0
19892.35,1603.05,-4227.75,0,0
20152.675,1570.59,-4185.72,0,0
20413.0,1538.89,-4145.42,0,0
20673.3,1508.14,-4104.35,0,0
20933.65,1479.38,-4063.73,0,0
21193.975,1450.53,-4024.58,0,0
21454.3,1423.04,-3986.26,0,0
21714.625,1396.06,-3947.9,0,0
21974.9,1369.88,-3910.45,0,0
22235.275,1343.66,-3873.31,0,0
22495.6,1318.9,-3835.61,0,0
22755.925,1296.28,-3798.08,0,0
23016.25,1277.02,-3762.19,0,0
23276.6,1257.78,-3730.88,0,0
23536.9,1235.45,-3700.3,0,0
23797.225,1213.2,-3669.29,0,0
24057.55,1190.95,-3637.55,0,0
24317.875,1169.57,-3605.38,0,0
24578.2,1149.07,-3573.53,0,0
24838.525,1129.6,-3542.16,0,0
25098.85,1110.66,-3511.18,0,0
25359.175,1092.6,-3480.93,0,0
25619.5,1074.72,-3451.93,0,0
25879.8,1056.83,-3422.56,0,0
26140.1,1040,-3393.07,0,0
26400.5,1023.22,-3364.81,0,0
26660.8,1007.09,-3336.44,0,0
26921.1,991.103,-3308.03,0,0
27181.4,976.853,-3280.33,0,0
27441.8,962.091,-3253.65,0,0
27702.1,948.317,-3227.15,0,0
27962.4,934.81,-3202.29,0,0
28222.7,920.449,-3177.64,0,0
28483.1,906.046,-3152.47,0,0
28743.4,892.454,-3127.3,0,0
29003.7,879.067,-3102.11,0,0
29264,866.518,-3076.7,0,0
29524.4,855.269,-3052.6,0,0
29784.7,843.332,-3028.86,0,0
30045,832.425,-3005.26,0,0
30305.3,822.03,-2982.77,0,0
30565.7,810.654,-2960.78,0,0
30826,799.39,-2939.07,0,0
31086.3,788.26,-2916.58,0,0
31346.6,777.494,-2894.78,0,0
31607,767.412,-2872.4,0,0
31867.3,757.773,-2850.55,0,0
32127.6,749.02,-2829.36,0,0
32387.9,740.385,-2808.17,0,0
32648.3,731.97,-2787.25,0,0
32908.6,724.649,-2767.62,0,0
33168.9,716.88,-2748.72,0,0
33429.2,709.096,-2729.58,0,0
33689.6,702.113,-2711.49,0,0
33949.9,694.196,-2694.67,0,0
34210.2,685.381,-2676.89,0,0
34470.5,677.196,-2659.24,0,0
34730.9,668.883,-2641.15,0,0
34991.2,662.036,-2623.17,0,0
35251.5,655.596,-2605.85,0,0
35511.8,648.875,-2590.19,0,0
35772.2,641.376,-2574.45,0,0
36032.5,633.504,-2558.89,0,0
36292.8,625.843,-2542.77,0,0
36553.1,618.489,-2527.04,0,0
36813.5,610.298,-2511.38,0,0
37073.8,603.092,-2495.18,0,0
37334.1,595.656,-2479.76,0,0
37594.4,588.311,-2463.99,0,0
37854.8,581.532,-2448.4,0,0
38115.1,574.351,-2432.92,0,0
38375.4,567.677,-2417.27,0,0
38635.7,561.042,-2401.8,0,0
38896.1,554.737,-2386.25,0,0
39156.4,548.756,-2370.85,0,0
39416.7,543.02,-2355.96,0,0
39677,537.407,-2341.23,0,0
39937.4,532.039,-2326.5,0,0
40197.7,526.416,-2312.28,0,0
40458,521.18,-2298.02,0,0
40718.3,515.926,-2284.11,0,0
40978.7,510.468,-2270.19,0,0
41239,505.08,-2256.15,0,0
41499.3,500.87,-2241.72,0,0
41759.6,496.467,-2228.17,0,0
42020,492.462,-2215.19,0,0
42280.275,487.961,-2203.17,0,0
42540.6,482.287,-2190.69,0,0
42800.925,477.274,-2177.03,0,0
43061.25,472.368,-2163.6,0,0
43321.575,468.121,-2149.43,0,0
43581.9,464.895,-2136.89,0,0
43842.225,461.705,-2124.06,0,0
44102.55,457.721,-2112.4,0,0
44362.875,453.726,-2099.34,0,0
44623.2,450.473,-2086.65,0,0
44883.525,447.74,-2074.08,0,0
45143.85,445.263,-2061.82,0,0
45404.175,442.828,-2050.16,0,0
45664.5,440.647,-2038.83,0,0
45924.825,438.615,-2027.78,0,0
46185.15,436.996,-2017.31,0,0
46445.475,434.669,-2007.37,0,0
46705.8,432.084,-1997.5,0,0
46966.125,429.908,-1987.65,0,0
47226.45,427.098,-1977.84,0,0
47486.775,424.845,-1967.73,0,0
47747.1,422.761,-1958.29,0,0
48007.425,420.216,-1949.03,0,0
48267.75,418.662,-1940.04,0,0
48528.075,416.674,-1931.56,0,0
48788.4,414.855,-1923.12,0,0
49048.725,413.08,-1915.49,0,0
49309.05,410.772,-1909.08,0,0
49569.375,407.275,-1902.82,0,0
49829.7,403.084,-1895.98,0,0
50090.025,398.414,-1888.77,0,0
50350.35,393.921,-1881.35,0,0
50610.675,388.691,-1873.7,0,0
50871.0,383.607,-1865.07,0,0
51131.325,379.13,-1856.02,0,0
51391.65,374.761,-1847.38,0,0
51651.975,370.329,-1838.32,0,0
51912.3,366.437,-1829.37,0,0
52172.625,362.81,-1820.06,0,0
52432.95,359.305,-1811.07,0,0
52693.275,356.16,-1802.3,0,0
52953.6,353.205,-1793.86,0,0
53213.925,349.785,-1785.79,0,0
53474.25,346.072,-1777.53,0,0
53734.575,342.606,-1769.35,0,0
53994.9,338.702,-1760.83,0,0
54255.225,335.21,-1751.89,0,0
54515.55,332.226,-1743.19,0,0
54775.875,329.228,-1734.98,0,0
55036.2,326.017,-1726.77,0,0
55296.525,322.532,-1718.61,0,0
55556.85,318.998,-1709.94,0,0
55817.175,315.674,-1701.07,0,0
56077.5,312.447,-1691.95,0,0
56337.825,309.637,-1682.41,0,0
56598.15,307.722,-1672.81,0,0
56858.475,306.383,-1663.73,0,0
57118.8,305.335,-1655.14,0,0
57379.125,304.265,-1646.92,0,0
57639.45,303.643,-1639.19,0,0
57899.775,302.689,-1632.1,0,0
58160.1,301.398,-1625.46,0,0
58420.4,299.882,-1618.86,0,0
58680.7,298.196,-1612.29,0,0
58941.1,296.353,-1605.78,0,0
59201.4,294.502,-1599.26,0,0
59461.7,292.461,-1593.02,0,0
59722,290.093,-1586.77,0,0
59982.4,287.58,-1580.45,0,0
60242.7,284.814,-1573.57,0,0
60503,282.428,-1566.88,0,0
60763.3,279.988,-1560.1,0,0
61023.7,277.439,-1553.47,0,0
61284,274.72,-1546.6,0,0
61544.3,272.033,-1539.54,0,0
61804.6,269.297,-1532.18,0,0
62065,266.757,-1524.48,0,0
62325.3,264.628,-1516.51,0,0
62585.6,263.297,-1508.38,0,0
62845.9,262.616,-1500.49,0,0
63106.3,262.519,-1493.23,0,0
63366.6,262.441,-1486.72,0,0
63626.9,262.479,-1480.76,0,0
63887.2,262.331,-1475.82,0,0
64147.6,261.046,-1471.33,0,0
64407.9,258.932,-1466.84,0,0
64668.2,255.925,-1461.46,0,0
64928.5,253.502,-1455.23,0,0
65188.9,251.341,-1448.9,0,0
65449.2,249.818,-1442.52,0,0
65709.5,248.447,-1436.75,0,0
65969.8,246.634,-1431.19,0,0
66230.2,244.674,-1425.59,0,0
66490.5,242.774,-1420.03,0,0
66750.8,240.562,-1414.4,0,0
67011.1,238.2,-1408.8,0,0
67271.5,235.509,-1402.71,0,0
67531.8,233.328,-1395.93,0,0
67792.1,231.316,-1389.69,0,0
68052.4,229.614,-1382.83,0,0
68312.8,227.917,-1376.41,0,0
68573.1,226.103,-1370.23,0,0
68833.4,224.495,-1363.56,0,0
69093.7,223.175,-1357.22,0,0
69354.1,221.806,-1350.79,0,0
69614.4,220.535,-1344.3,0,0
69874.7,219.354,-1337.77,0,0
70135,218.424,-1331.3,0,0
70395.4,217.668,-1324.88,0,0
70655.7,216.879,-1318.58,0,0
70916,216.282,-1312.28,0,0
71176.3,215.835,-1306.1,0,0
71436.7,215.649,-1300.14,0,0
71697,215.296,-1294.27,0,0
71957.3,214.989,-1288.58,0,0
72217.6,214.704,-1282.7,0,0
72478,214.667,-1277.04,0,0
72738.3,214.735,-1271.53,0,0
72998.6,214.791,-1266.28,0,0
73258.9,214.854,-1261.2,0,0
73519.3,214.873,-1256.26,0,0
73779.6,214.794,-1251.55,0,0
74039.9,214.573,-1246.83,0,0
74300.225,214.196,-1242.12,0,0
74560.55,213.86,-1237.32,0,0
74820.875,213.595,-1232.52,0,0
75081.2,213.343,-1227.84,0,0
75341.525,213.217,-1223.09,0,0
75601.85,213.138,-1218.65,0,0
75862.175,212.854,-1214.2,0,0
76122.5,212.542,-1209.79,0,0
76382.825,212.229,-1205.43,0,0
76643.15,211.828,-1201.06,0,0
76903.475,211.562,-1196.62,0,0
77163.8,211.255,-1192.19,0,0
77424.125,211.049,-1187.84,0,0
77684.45,210.851,-1183.56,0,0
77944.775,210.703,-1179.38,0,0
78205.1,210.635,-1175.34,0,0
78465.425,210.46,-1171.36,0,0
78725.75,210.245,-1167.47,0,0
78986.075,210.047,-1163.58,0,0
79246.4,209.741,-1159.82,0,0
79506.725,209.456,-1156.11,0,0
79767.05,209.166,-1152.45,0,0
80027.375,208.844,-1148.86,0,0
80287.7,208.268,-1145.26,0,0
80548.025,207.743,-1141.69,0,0
80808.35,207.133,-1138.17,0,0
81068.675,206.535,-1134.66,0,0
81329.0,205.776,-1131.02,0,0
81589.325,205.08,-1127.49,0,0
81849.65,204.33,-1123.85,0,0
82109.975,203.58,-1120.26,0,0
82370.3,202.704,-1116.69,0,0
82630.625,201.996,-1113.05,0,0
82890.95,201.076,-1109.48,0,0
83151.275,200.215,-1105.8,0,0
83411.6,199.296,-1102.12,0,0
83671.925,198.354,-1098.31,0,0
83932.25,197.388,-1094.52,0,0
84192.575,196.505,-1090.66,0,0
84452.9,195.675,-1086.67,0,0
84713.225,194.869,-1082.59,0,0
84973.55,194.254,-1078.47,0,0
85233.875,193.664,-1074.49,0,0
85494.2,193.194,-1070.43,0,0
85754.525,192.844,-1066.45,0,0
86014.85,192.516,-1062.67,0,0
86275.175,192.215,-1058.82,0,0
86535.5,192.001,-1055,0,0
86795.825,191.804,-1051.33,0,0
87056.15,191.53,-1047.78,0,0
87316.475,191.24,-1044.25,0,0
87576.8,190.953,-1040.75,0,0
87837.125,190.557,-1037.16,0,0
88097.45,190.142,-1033.54,0,0
88357.775,189.761,-1029.92,0,0
88618.1,189.543,-1026.38,0,0
88878.425,189.272,-1022.82,0,0
89138.75,189.251,-1019.35,0,0
89399.075,189.173,-1015.74,0,0
89659.4,189.028,-1012.3,0,0
89919.725,188.942,-1009.04,0,0
90180,188.811,-1005.72,0,0
90440.4,189.158,-1002.57,0,0
90700.7,189.002,-999.604,0,0
90961,188.763,-996.848,0,0
91221.3,188.364,-993.795,0,0
91481.7,187.807,-990.929,0,0
91742,187.36,-987.828,0,0
92002.3,186.737,-984.673,0,0
92262.6,186.016,-981.357,0,0
92523,185.732,-977.665,0,0
92783.3,185.769,-974.328,0,0
93043.6,185.714,-971.199,0,0
93303.9,185.225,-968.41,0,0
93564.3,184.678,-964.838,0,0
93824.6,184.47,-961.242,0,0
94084.9,184.347,-957.736,0,0
94345.2,184.466,-954.005,0,0
94605.6,185.133,-950.55,0,0
94865.9,185.666,-947.64,0,0
95126.2,186.086,-944.841,0,0
95386.5,186.42,-942.208,0,0
95646.9,186.67,-939.539,0,0
95907.2,186.874,-936.902,0,0
96167.5,187.092,-934.506,0,0
96427.8,187.111,-932.047,0,0
96688.2,187.218,-929.703,0,0
96948.5,186.971,-927.694,0,0
97208.8,186.357,-925.335,0,0
97469.1,185.601,-922.636,0,0
97729.5,185.001,-919.52,0,0
97989.8,184.501,-916.409,0,0
98250.1,184.303,-912.962,0,0
98510.4,184.498,-909.357,0,0
98770.8,185.259,-905.802,0,0
99031.1,186.581,-902.632,0,0
99291.4,188.316,-900.291,0,0
99551.7,189.7,-898.692,0,0
99812.1,190.461,-897.521,0,0
100072,190.953,-896.237,0,0
100333,191.377,-895.201,0,0
100593,191.469,-894.408,0,0
100853,190.846,-893.81,0,0
101114,189.653,-892.749,0,0
101374,188.301,-891.145,0,0
101634,187.102,-889.101,0,0
101895,186.309,-886.797,0,0
102155,185.801,-884.601,0,0
102415,185.661,-882.658,0,0
102676,185.271,-881.229,0,0
102936,184.706,-879.791,0,0
103196,184.071,-878.647,0,0
103457,182.907,-877.722,0,0
103717,181.472,-876.599,0,0
103977,179.727,-875.507,0,0
104238,177.558,-874.26,0,0
104498,175.047,-872.724,0,0
104758,172.306,-870.82,0,0
105019,169.113,-868.394,0,0
105279,166.087,-865.283,0,0
105539,163.327,-861.717,0,0
105800,160.548,-857.799,0,0
106060,158.151,-853.271,0,0
106320.175,156.431,-848.446,0,0
106580.5,155.217,-843.667,0,0
106840.825,154.377,-838.841,0,0
107101.15,153.915,-834.262,0,0
107361.475,153.611,-829.707,0,0
107621.8,153.519,-825.175,0,0
107882.125,153.913,-820.731,0,0
108142.45,154.741,-816.643,0,0
108402.775,155.455,-813.1,0,0
108663.1,156.121,-809.746,0,0
108923.425,156.531,-806.51,0,0
109183.75,156.998,-803.243,0,0
109444.075,157.379,-800.055,0,0
109704.4,157.926,-796.83,0,0
109964.725,158.366,-793.697,0,0
110225.05,158.937,-790.625,0,0
110485.375,159.449,-787.639,0,0
110745.7,159.939,-784.629,0,0
111006.025,160.509,-781.586,0,0
111266.35,161.21,-778.4,0,0
111526.675,161.842,-775.512,0,0
111787.0,162.886,-772.758,0,0
112047.325,163.625,-769.956,0,0
112307.65,164.659,-767.39,0,0
112567.975,165.437,-764.94,0,0
112828.3,166.239,-762.437,0,0
113088.625,166.966,-759.668,0,0
113348.95,167.975,-757.216,0,0
113609.275,169.142,-754.833,0,0
113869.6,170.447,-752.678,0,0
114129.925,171.439,-750.944,0,0
114390.25,172.21,-749.121,0,0
114650.575,173,-747.301,0,0
114910.9,173.679,-745.498,0,0
115171.225,174.289,-743.754,0,0
115431.55,174.753,-741.842,0,0
115691.875,175.435,-739.655,0,0
115952.2,176.497,-737.755,0,0
116212.525,177.627,-736.282,0,0
116472.85,178.672,-735.15,0,0
116733.175,179.152,-734.209,0,0
116993.5,179.502,-733.128,0,0
117253.825,179.714,-732.218,0,0
117514.15,179.542,-731.306,0,0
117774.475,178.971,-730.215,0,0
118034.8,178.124,-728.718,0,0
118295.125,177.293,-726.633,0,0
118555.45,176.802,-724.056,0,0
118815.775,176.792,-721.442,0,0
119076.1,177.146,-718.982,0,0
119336.425,177.55,-716.752,0,0
119596.75,177.763,-714.319,0,0
119857.075,178.301,-711.5,0,0
120117.4,179.762,-708.605,0,0
120377.725,182.036,-706.421,0,0
120638.05,184.359,-705.301,0,0
120898.375,186.145,-704.99,0,0
121158.7,187.58,-704.963,0,0
121419.025,188.63,-705.37,0,0
121679.35,188.822,-706.2,0,0
121939.675,188.027,-706.695,0,0
122200.0,186.908,-706.553,0,0
122460,185.697,-705.763,0,0
122721,184.686,-704.75,0,0
122981,183.83,-703.594,0,0
123241,182.947,-702.42,0,0
123502,182.03,-701.035,0,0
123762,181.283,-699.523,0,0
124022,180.827,-698.041,0,0
124283,180.268,-696.92,0,0
124543,179.476,-695.752,0,0
124803,178.521,-694.345,0,0
125064,177.592,-692.796,0,0
125324,176.632,-691.136,0,0
125584,175.879,-689.306,0,0
125845,175.202,-687.678,0,0
126105,174.423,-686.067,0,0
126365,173.511,-684.329,0,0
126626,172.468,-682.446,0,0
126886,171.673,-680.429,0,0
127146,170.878,-678.271,0,0
127406,169.836,-675.847,0,0
127667,169.338,-673.259,0,0
127927,169.012,-670.725,0,0
128187,168.892,-668.167,0,0
128448,169.165,-665.559,0,0
128708,169.622,-663.34,0,0
128968,170.124,-661.342,0,0
129229,170.618,-659.696,0,0
129489,171.042,-658.09,0,0
129749,171.384,-656.683,0,0
130010,171.568,-655.437,0,0
130270,171.706,-654.259,0,0
130530,171.542,-653.132,0,0
130791,171.406,-651.905,0,0
131051,171.135,-650.679,0,0
131311,170.924,-649.406,0,0
131572,170.619,-648.288,0,0
131832,170.167,-647.149,0,0
132092,169.639,-645.945,0,0
132353,169.138,-644.813,0,0
132613,168.578,-643.605,0,0
132873,167.849,-642.495,0,0
133134,166.994,-641.283,0,0
133394,166.074,-640.047,0,0
133654,164.994,-638.744,0,0
133915,163.833,-637.248,0,0
134175,162.644,-635.615,0,0
134435,161.495,-633.919,0,0
134696,160.324,-632.1,0,0
134956,159.251,-630.233,0,0
135216,158.064,-628.233,0,0
135477,156.919,-626.222,0,0
135737,155.759,-624.088,0,0
135997,154.661,-621.707,0,0
136258,153.68,-619.329,0,0
136518,152.736,-616.938,0,0
136778,151.815,-614.476,0,0
137039,151.039,-611.993,0,0
137299,150.27,-609.449,0,0
137559,149.515,-606.88,0,0
137819,148.806,-604.302,0,0
138080,148.225,-601.597,0,0
138340.125,147.711,-598.916,0,0
138600.45,147.256,-596.163,0,0
138860.775,146.879,-593.491,0,0
139121.1,146.525,-590.818,0,0
139381.425,146.202,-588.092,0,0
139641.75,145.92,-585.322,0,0
139902.075,145.811,-582.526,0,0
140162.4,145.725,-579.822,0,0
140422.725,145.67,-577.163,0,0
140683.05,145.612,-574.413,0,0
140943.375,145.699,-571.633,0,0
141203.7,145.894,-568.917,0,0
141464.025,146.188,-566.289,0,0
141724.35,146.516,-563.795,0,0
141984.675,146.753,-561.424,0,0
142245.0,146.93,-558.991,0,0
142505.325,147.052,-556.551,0,0
142765.65,147.176,-554.052,0,0
143025.975,147.41,-551.406,0,0
143286.3,147.625,-548.894,0,0
143546.625,148.01,-546.212,0,0
143806.95,148.546,-543.537,0,0
144067.275,149.214,-541.006,0,0
144327.6,150.002,-538.604,0,0
144587.925,150.78,-536.349,0,0
144848.25,151.59,-534.219,0,0
145108.575,152.432,-532.257,0,0
145368.9,153.134,-530.526,0,0
145629.225,153.696,-528.835,0,0
145889.55,154.138,-527.24,0,0
146149.875,154.31,-525.661,0,0
146410.2,154.319,-523.94,0,0
146670.525,154.338,-522.031,0,0
146930.85,154.386,-520.103,0,0
147191.175,154.439,-518.204,0,0
147451.5,154.363,-516.289,0,0
147711.825,154.222,-514.3,0,0
147972.15,153.968,-512.19,0,0
148232.475,153.735,-509.893,0,0
148492.8,153.592,-507.504,0,0
148753.125,153.447,-505.061,0,0
149013.45,153.39,-502.525,0,0
149273.775,153.376,-499.957,0,0
149534.1,153.372,-497.35,0,0
149794.425,153.341,-494.621,0,0
150054.75,153.412,-491.806,0,0
150315.075,153.522,-488.863,0,0
150575.4,153.781,-485.796,0,0
150835.725,154.198,-482.687,0,0
151096.05,154.661,-479.504,0,0
151356.375,155.32,-476.212,0,0
151616.7,156.209,-472.825,0,0
151877.025,157.353,-469.362,0,0
152137.35,158.867,-465.989,0,0
152397.675,160.889,-462.684,0,0
152658.0,163.167,-459.864,0,0
152918.325,165.545,-457.679,0,0
153178.65,167.704,-455.851,0,0
153438.975,169.748,-454.36,0,0
153699.3,171.426,-453.096,0,0
153959.625,172.788,-451.838,0,0
154219.95,173.882,-450.556,0,0
154480,174.541,-449.286,0,0
154741,175.103,-447.443,0,0
155001,175.848,-445.287,0,0
155261,176.777,-443.048,0,0
155522,177.939,-440.691,0,0
155782,179.392,-438.443,0,0
156042,181.036,-436.117,0,0
156303,183.079,-433.997,0,0
156563,185.27,-432.384,0,0
156823,187.363,-431.091,0,0
157084,189.387,-430.23,0,0
157344,191.178,-429.632,0,0
157604,192.513,-429.264,0,0
157864,193.473,-428.847,0,0
158125,194.22,-428.242,0,0
158385,194.855,-427.512,0,0
158645,195.328,-426.761,0,0
158906,195.686,-425.874,0,0
159166,195.943,-424.83,0,0
159426,196.201,-423.529,0,0
159687,196.563,-422.316,0,0
159947,196.915,-420.946,0,0
160207,197.386,-419.514,0,0
160468,197.838,-418.162,0,0
160728,198.216,-416.833,0,0
160988,198.575,-415.453,0,0
161249,198.946,-413.996,0,0
161509,199.396,-412.499,0,0
161769,199.825,-411.135,0,0
162030,200.144,-409.932,0,0
162290,200.226,-408.653,0,0
162550,200.039,-407.079,0,0
162811,200.096,-405.245,0,0
163071,200.249,-403.422,0,0
163331,200.605,-401.603,0,0
163592,200.914,-399.912,0,0
163852,201.079,-398.307,0,0
164112,201.006,-396.643,0,0
164373,200.893,-394.646,0,0
164633,200.788,-392.574,0,0
164893,200.737,-390.297,0,0
165154,200.822,-387.831,0,0
165414,201.027,-385.212,0,0
165674,201.424,-382.571,0,0
165935,202.024,-379.929,0,0
166195,202.752,-377.381,0,0
166455,203.574,-374.991,0,0
166716,204.405,-372.697,0,0
166976,205.12,-370.526,0,0
167236,205.772,-368.217,0,0
167497,206.49,-365.847,0,0
167757,207.197,-363.444,0,0
168017,207.952,-361.009,0,0
168277,208.789,-358.605,0,0
168538,209.634,-356.094,0,0
168798,210.543,-353.654,0,0
169058,211.589,-351.134,0,0
169319,212.645,-348.773,0,0
169579,213.727,-346.521,0,0
169839,214.697,-344.269,0,0
170100,215.674,-341.953,0,0
170360.075,216.62,-339.637,0,0
170620.4,217.479,-337.358,0,0
170880.725,218.341,-334.951,0,0
171141.05,219.204,-332.46,0,0
171401.375,220.13,-329.98,0,0
171661.7,221.096,-327.407,0,0
171922.025,222.077,-324.865,0,0
172182.35,223.105,-322.276,0,0
172442.675,224.19,-319.733,0,0
172703.0,225.26,-317.198,0,0
172963.325,226.305,-314.62,0,0
173223.65,227.248,-311.997,0,0
173483.975,228.279,-309.336,0,0
173744.3,229.184,-306.675,0,0
174004.625,230.067,-303.84,0,0
174264.95,230.979,-300.906,0,0
174525.275,231.945,-297.84,0,0
174785.6,232.892,-294.652,0,0
175045.925,233.924,-291.377,0,0
175306.25,235.101,-287.918,0,0
175566.575,236.338,-284.432,0,0
175826.9,237.735,-280.817,0,0
176087.225,239.22,-277.23,0,0
176347.55,240.754,-273.494,0,0
176607.875,242.387,-269.709,0,0
176868.2,244.201,-265.743,0,0
177128.525,246.187,-261.728,0,0
177388.85,248.319,-257.734,0,0
177649.175,250.576,-253.735,0,0
177909.5,252.952,-249.688,0,0
178169.825,255.497,-245.519,0,0
178430.15,258.189,-241.362,0,0
178690.475,261.093,-237.135,0,0
178950.8,264.25,-232.808,0,0
179211.125,267.67,-228.535,0,0
179471.45,271.4,-224.343,0,0
179731.775,275.391,-220.303,0,0
179992.1,279.61,-216.453,0,0
180252.425,283.892,-212.817,0,0
180512.75,288.312,-209.355,0,0
180773.075,292.869,-206.067,0,0
181033.4,297.435,-202.928,0,0
181293.725,302.125,-199.909,0,0
181554.05,306.865,-197.022,0,0
181814.375,311.697,-194.283,0,0
182074.7,316.656,-191.773,0,0
182335.025,321.578,-189.56,0,0
182595.35,326.427,-187.482,0,0
182855.675,331.151,-185.583,0,0
183116.0,335.759,-183.656,0,0
183376.325,340.32,-181.771,0,0
183636.65,344.96,-179.865,0,0
183896.975,349.658,-177.994,0,0
184157.3,354.464,-176.246,0,0
184417.625,359.401,-174.761,0,0
184677.95,364.197,-173.542,0,0
184938.275,368.865,-172.443,0,0
185198.6,373.357,-171.527,0,0
185458.925,377.67,-170.76,0,0
185719.25,381.677,-170.135,0,0
185979.575,385.34,-169.467,0,0
186239.9,388.611,-168.672,0,0
186500,391.934,-167.669,0,0
186761,394.711,-166.442,0,0
187021,397.256,-165.033,0,0
187281,399.641,-163.104,0,0
187542,401.772,-160.725,0,0
187802,403.973,-157.777,0,0
188062,406.346,-154.143,0,0
188322,408.981,-150.005,0,0
188583,412.02,-145.462,0,0
188843,415.34,-140.547,0,0
189103,419.117,-135.173,0,0
189364,423.311,-129.408,0,0
189624,428.148,-123.214,0,0
189884,433.542,-116.7,0,0
190145,439.772,-109.884,0,0
190405,446.938,-102.876,0,0
190665,455.01,-96.0503,0,0
190926,464.069,-89.3754,0,0
191186,473.854,-83.0507,0,0
191446,484.376,-77.112,0,0
191707,495.685,-71.7903,0,0
191967,507.57,-67.1105,0,0
192227,519.626,-63.1229,0,0
192488,531.912,-59.6254,0,0
192748,544.343,-56.3643,0,0
193008,557.14,-53.4186,0,0
193269,570.318,-50.5568,0,0
193529,584.1,-47.8554,0,0
193789,598.829,-45.6356,0,0
194050,614.223,-44.1876,0,0
194310,630.115,-43.5105,0,0
194570,646.569,-43.6959,0,0
194831,663.423,-44.8906,0,0
195091,680.403,-47.2694,0,0
195351,697.435,-50.4819,0,0
195612,714.294,-54.6485,0,0
195872,731.055,-59.4936,0,0
196132,747.948,-65.0311,0,0
196393,764.885,-71.4922,0,0
196653,781.629,-78.9219,0,0
196913,798.104,-87.2594,0,0
197174,814.114,-96.3318,0,0
197434,830,-106.068,0,0
197694,845.402,-116.362,0,0
197955,860.433,-127.174,0,0
198215,875.313,-138.417,0,0
198475,890.427,-150.261,0,0
198735,905.193,-162.968,0,0
198996,920.004,-176.519,0,0
199256,934.4,-191.041,0,0
199516,948.319,-206.613,0,0
199777,961.68,-222.989,0,0
200037,974.234,-239.802,0,0
200297,986.563,-257.665,0,0
200558,998.274,-275.956,0,0
200818,1009.39,-295.14,0,0
201078,1020.26,-315.181,0,0
201339,1030.35,-336.161,0,0
201599,1039.77,-358.382,0,0
201859,1047.97,-381.694,0,0
202120,1054.86,-406.611,0,0
202380.025,1059.87,-432.308,0,0
202640.35,1062.84,-458.635,0,0
202900.675,1063.58,-484.893,0,0
203161.0,1062.45,-510.825,0,0
203421.325,1059.21,-536.444,0,0
203681.65,1054.58,-561.211,0,0
203941.975,1048.78,-585.226,0,0
204202.3,1041.32,-608.142,0,0
204462.625,1033.31,-630.213,0,0
204722.95,1024.25,-651.564,0,0
204983.275,1014.36,-672.204,0,0
205243.6,1003.6,-691.762,0,0
205503.925,992.035,-710.931,0,0
205764.25,979.585,-729.074,0,0
206024.575,966.249,-745.866,0,0
206284.9,952.666,-761.629,0,0
206545.225,938.798,-776.287,0,0
206805.55,924.14,-789.786,0,0
207065.875,910.037,-802.339,0,0
207326.2,895.548,-813.886,0,0
207586.525,880.93,-824.687,0,0
207846.85,866.472,-834.498,0,0
208107.175,852.004,-843.333,0,0
208367.5,838.016,-851.378,0,0
208627.825,824.08,-858.838,0,0
208888.15,810.617,-865.723,0,0
209148.475,797.461,-872.004,0,0
209408.8,784.485,-877.77,0,0
209669.125,772.167,-883.17,0,0
209929.45,759.971,-888.342,0,0
210189.775,748.161,-893.553,0,0
210450.1,736.738,-898.521,0,0
210710.425,725.243,-903.499,0,0
210970.75,714.054,-908.547,0,0
211231.075,702.387,-913.962,0,0
211491.4,690.672,-919.296,0,0
211751.725,678.313,-924.559,0,0
212012.05,665.321,-929.457,0,0
212272.375,651.791,-933.706,0,0
212532.7,638.33,-937.267,0,0
212793.025,624.107,-939.712,0,0
213053.35,610.18,-941.445,0,0
213313.675,596.519,-942.497,0,0
213574.0,583.133,-942.941,0,0
213834.325,569.989,-942.674,0,0
214094.65,557.199,-941.998,0,0
214354.975,544.665,-940.758,0,0
214615.3,532.567,-938.998,0,0
214875.625,521.017,-936.967,0,0
215135.95,509.546,-934.414,0,0
215396.275,498.625,-931.621,0,0
215656.6,488.198,-928.645,0,0
215916.925,478.231,-925.346,0,0
216177.25,468.515,-922.038,0,0
216437.575,459.268,-918.532,0,0
216697.9,450.253,-914.91,0,0
216958.225,441.66,-911.214,0,0
217218.55,433.293,-907.435,0,0
217478.875,425.376,-903.62,0,0
217739.2,417.399,-899.674,0,0
217999.525,409.827,-895.59,0,0
218259.85,402.418,-891.534,0,0
218520,395.344,-887.427,0,0
218780,388.579,-883.254,0,0
219041,381.966,-879.056,0,0
219301,375.585,-874.752,0,0
219561,369.481,-870.562,0,0
219822,363.489,-866.157,0,0
220082,357.884,-861.919,0,0
220342,352.319,-857.471,0,0
220603,346.887,-853.287,0,0
220863,341.753,-848.977,0,0
221123,336.784,-844.596,0,0
221384,331.758,-840.147,0,0
221644,327.162,-835.748,0,0
221904,322.511,-831.265,0,0
222165,318.042,-826.81,0,0
222425,313.743,-822.4,0,0
222685,309.688,-817.741,0,0
222946,305.811,-813.16,0,0
223206,301.964,-808.567,0,0
223466,298.494,-803.843,0,0
223727,295.006,-799.1,0,0
223987,292.128,-794.314,0,0
224247,289.166,-789.604,0,0
224508,286.622,-784.813,0,0
224768,284.292,-780.026,0,0
225028,282.146,-775.529,0,0
225289,280.195,-770.869,0,0
225549,278.539,-766.08,0,0
225809,277.365,-761.837,0,0
226070,276.113,-757.622,0,0
226330,275.235,-753.527,0,0
226590,274.64,-749.674,0,0
226851,274.255,-746.002,0,0
227111,273.975,-742.772,0,0
227371,273.914,-739.708,0,0
227632,273.93,-737.089,0,0
227892,273.706,-734.728,0,0
228152,273.692,-732.867,0,0
228413,273.37,-731.181,0,0
228673,272.948,-729.747,0,0
228933,272.406,-728.635,0,0
229193,271.504,-727.563,0,0
229454,270.322,-726.601,0,0
229714,268.899,-725.643,0,0
229974,267.355,-724.747,0,0
230235,265.441,-723.665,0,0
230495,263.367,-722.607,0,0
230755,261.27,-721.229,0,0
231016,258.948,-719.842,0,0
231276,256.675,-718.278,0,0
231536,254.216,-716.566,0,0
231797,251.801,-714.655,0,0
232057,249.36,-712.631,0,0
232317,246.967,-710.376,0,0
232578,244.675,-708.115,0,0
232838,242.439,-705.633,0,0
233098,240.293,-703.05,0,0
233359,238.183,-700.387,0,0
233619,236.239,-697.637,0,0
233879,234.402,-694.79,0,0
234140,232.73,-691.951,0,0
234400,231.167,-688.985,0,0
234660.3,229.728,-686.109,0,0
234920.625,228.403,-683.131,0,0
235180.95,226.93,-680.157,0,0
235441.275,225.91,-677.289,0,0
235701.6,224.884,-674.305,0,0
235961.925,223.943,-671.421,0,0
236222.25,223.088,-668.57,0,0
236482.575,222.312,-665.696,0,0
236742.9,221.614,-662.845,0,0
237003.225,220.983,-660.016,0,0
237263.55,220.467,-657.234,0,0
237523.875,219.935,-654.503,0,0
237784.2,219.488,-651.754,0,0
238044.525,219.135,-649.049,0,0
238304.85,218.862,-646.35,0,0
238565.175,218.643,-643.719,0,0
238825.5,218.493,-641.168,0,0
239085.825,218.361,-638.672,0,0
239346.15,218.36,-636.09,0,0
239606.475,218.263,-633.464,0,0
239866.8,218.485,-631.235,0,0
240127.125,218.533,-628.729,0,0
240387.45,218.531,-626.301,0,0
240647.775,218.734,-623.959,0,0
240908.1,218.905,-621.676,0,0
241168.425,219.175,-619.277,0,0
241428.75,219.485,-616.998,0,0
241689.075,219.801,-614.703,0,0
241949.4,220.164,-612.464,0,0
242209.725,220.572,-610.236,0,0
242470.05,221.039,-607.971,0,0
242730.375,221.58,-605.775,0,0
242990.7,222.114,-603.628,0,0
243251.025,222.767,-601.441,0,0
243511.35,223.494,-599.239,0,0
243771.675,224.246,-597.167,0,0
244032.0,225.084,-595.048,0,0
244292.325,225.936,-593.055,0,0
244552.65,226.835,-591.063,0,0
244812.975,227.959,-589.102,0,0
245073.3,228.937,-586.942,0,0
245333.625,230.136,-585.063,0,0
245593.95,231.281,-583.093,0,0
245854.275,232.491,-581.09,0,0
246114.6,233.959,-579.138,0,0
246374.925,235.388,-577.283,0,0
246635.25,237.005,-575.379,0,0
246895.575,238.846,-573.598,0,0
247155.9,240.778,-571.797,0,0
247416.225,242.837,-570.194,0,0
247676.55,245.161,-568.725,0,0
247936.875,247.478,-567.371,0,0
248197.2,249.922,-566.307,0,0
248457.525,252.45,-565.454,0,0
248717.85,254.954,-564.767,0,0
248978.175,257.594,-564.342,0,0
249238.5,260.038,-564.036,0,0
249498.825,262.545,-563.856,0,0
249759.15,264.732,-563.86,0,0
250019.475,267.031,-564.039,0,0
250279.8,269.158,-564.14,0,0
250540,271.222,-564.284,0,0
250800,273.328,-564.255,0,0
251061,275.6,-564.316,0,0
251321,278.015,-564.296,0,0
251581,280.634,-564.435,0,0
251842,283.463,-564.687,0,0
252102,286.482,-565.248,0,0
252362,289.622,-566.023,0,0
252623,292.922,-567.259,0,0
252883,296.273,-568.807,0,0
253143,299.573,-570.715,0,0
253404,302.789,-573.009,0,0
253664,305.944,-575.769,0,0
253924,308.899,-578.861,0,0
254185,311.547,-582.295,0,0
254445,314.017,-586.158,0,0
254705,316.107,-590.208,0,0
254966,317.667,-594.693,0,0
255226,318.966,-599.189,0,0
255486,319.928,-603.947,0,0
255747,320.419,-608.599,0,0
256007,320.383,-613.512,0,0
256267,320.068,-618.265,0,0
256528,319.289,-622.993,0,0
256788,318.174,-627.638,0,0
257048,316.727,-632.184,0,0
257309,314.986,-636.587,0,0
257569,312.942,-640.797,0,0
257829,310.605,-644.857,0,0
258090,308.08,-648.731,0,0
258350,305.338,-652.383,0,0
258610,302.369,-655.904,0,0
258871,299.251,-659.22,0,0
259131,295.987,-662.257,0,0
259391,292.636,-665.098,0,0
259651,288.956,-667.759,0,0
259912,285.202,-670.204,0,0
260172,281.57,-672.249,0,0
260432,277.633,-674.406,0,0
260693,273.715,-676.102,0,0
260953,269.783,-677.675,0,0
261213,265.822,-678.917,0,0
261474,261.833,-679.967,0,0
261734,257.891,-680.868,0,0
261994,253.958,-681.553,0,0
262255,250.152,-682.012,0,0
262515,246.347,-682.293,0,0
262775,242.653,-682.445,0,0
263036,239.08,-682.484,0,0
263296,235.459,-682.384,0,0
263556,232.101,-682.245,0,0
263817,228.549,-681.946,0,0
264077,225.202,-681.607,0,0
264337,222.031,-681.094,0,0
264598,218.808,-680.483,0,0
264858,215.561,-680.024,0,0
265118,212.485,-679.304,0,0
265379,209.456,-678.516,0,0
265639,206.468,-677.661,0,0
265899,203.575,-676.714,0,0
266160,200.808,-675.755,0,0
266420,198.002,-674.792,0,0
266680.25,195.302,-673.752,0,0
266940.575,192.657,-672.682,0,0
267200.9,190.122,-671.593,0,0
267461.225,187.533,-670.373,0,0
267721.55,185.212,-669.128,0,0
267981.875,182.774,-668.019,0,0
268242.2,180.532,-666.757,0,0
268502.525,178.211,-665.475,0,0
268762.85,175.955,-664.256,0,0
269023.175,173.869,-662.922,0,0
269283.5,171.729,-661.662,0,0
269543.825,169.689,-660.43,0,0
269804.15,167.712,-659.016,0,0
270064.475,165.702,-657.631,0,0
270324.8,163.724,-656.416,0,0
270585.125,161.78,-655.042,0,0
270845.45,159.86,-653.731,0,0
271105.775,158.004,-652.406,0,0
271366.1,156.167,-650.902,0,0
271626.425,154.433,-649.512,0,0
271886.75,152.728,-648.131,0,0
272147.075,150.971,-646.708,0,0
272407.4,149.281,-645.23,0,0
272667.725,147.638,-643.867,0,0
272928.05,146.007,-642.414,0,0
273188.375,144.378,-641,0,0
273448.7,142.817,-639.526,0,0
273709.025,141.22,-638.027,0,0
273969.35,139.769,-636.567,0,0
274229.675,138.248,-635.095,0,0
274490.0,136.781,-633.462,0,0
274750.325,135.378,-631.989,0,0
275010.65,134.094,-630.46,0,0
275270.975,132.65,-628.985,0,0
275531.3,131.314,-627.473,0,0
275791.625,130.061,-625.883,0,0
276051.95,128.786,-624.38,0,0
276312.275,127.528,-622.804,0,0
276572.6,126.354,-621.28,0,0
276832.925,125.18,-619.726,0,0
277093.25,124.015,-618.139,0,0
277353.575,122.941,-616.595,0,0
277613.9,121.828,-615.039,0,0
277874.225,120.769,-613.478,0,0
278134.55,119.72,-611.907,0,0
278394.875,118.691,-610.298,0,0
278655.2,117.737,-608.711,0,0
278915.525,116.767,-607.066,0,0
279175.85,115.86,-605.461,0,0
279436.175,115.004,-603.835,0,0
279696.5,114.189,-602.204,0,0
279956.825,113.416,-600.474,0,0
280217.15,112.825,-598.884,0,0
280477.475,112.158,-597.296,0,0
280737.8,111.605,-595.709,0,0
280998.125,111.115,-594.176,0,0
281258.45,110.637,-592.735,0,0
281518.775,110.179,-591.348,0,0
281779.1,109.728,-589.994,0,0
282039.425,109.26,-588.701,0,0
282299.75,108.769,-587.438,0,0
282560,108.273,-586.192,0,0
282820,107.754,-584.934,0,0
283081,107.219,-583.695,0,0
283341,106.721,-582.427,0,0
283601,106.206,-581.187,0,0
283862,105.699,-579.9,0,0
284122,105.239,-578.651,0,0
284382,104.767,-577.363,0,0
284643,104.365,-576.089,0,0
284903,103.971,-574.892,0,0
285163,103.598,-573.686,0,0
285424,103.257,-572.427,0,0
285684,102.945,-571.244,0,0
285944,102.66,-570.126,0,0
286205,102.383,-569.013,0,0
286465,102.096,-567.983,0,0
286725,101.839,-566.986,0,0
286986,101.53,-566.013,0,0
287246,101.143,-565.099,0,0
287506,100.721,-564.178,0,0
287767,100.285,-563.222,0,0
288027,99.8404,-562.234,0,0
288287,99.3967,-561.227,0,0
288548,98.9774,-560.188,0,0
288808,98.5625,-559.15,0,0
289068,98.1898,-558.107,0,0
289329,97.8559,-557.085,0,0
289589,97.4929,-556.08,0,0
289849,97.1428,-555.051,0,0
290109,96.814,-554.057,0,0
290370,96.4944,-553.125,0,0
290630,96.2314,-552.145,0,0
290890,95.9612,-551.201,0,0
291151,95.6728,-550.301,0,0
291411,95.3872,-549.396,0,0
291671,95.0999,-548.505,0,0
291932,94.8297,-547.614,0,0
292192,94.5561,-546.805,0,0
292452,94.2896,-545.948,0,0
292713,94.034,-545.157,0,0
292973,93.7228,-544.389,0,0
293233,93.461,-543.65,0,0
293494,93.1161,-542.92,0,0
293754,92.7642,-542.228,0,0
294014,92.391,-541.544,0,0
294275,91.9848,-540.871,0,0
294535,91.5063,-540.186,0,0
294795,91.0359,-539.5,0,0
295056,90.5021,-538.831,0,0
295316,89.9291,-538.069,0,0
295576,89.3325,-537.315,0,0
295837,88.7197,-536.495,0,0
296097,88.0966,-535.679,0,0
296357,87.4565,-534.798,0,0
296618,86.8203,-533.89,0,0
296878,86.1661,-532.896,0,0
297138,85.5602,-531.868,0,0
297399,84.9535,-530.779,0,0
297659,84.3838,-529.654,0,0
297919,83.9043,-528.471,0,0
298180,83.4591,-527.231,0,0
298440,83.0922,-526.012,0,0
298700.2,82.876,-524.733,0,0
298960.525,82.6408,-523.61,0,0
299220.85,82.4356,-522.404,0,0
299481.175,82.3549,-521.329,0,0
299741.5,82.3437,-520.276,0,0
300001.825,82.3063,-519.27,0,0
300262.15,82.1792,-518.349,0,0
300522.475,82.1808,-517.435,0,0
300782.8,82.0852,-516.556,0,0
301043.125,81.9778,-515.676,0,0
301303.45,81.9211,-514.849,0,0
301563.775,81.797,-514.047,0,0
301824.1,81.6783,-513.325,0,0
302084.425,81.5644,-512.554,0,0
302344.75,81.4596,-511.776,0,0
302605.075,81.2343,-511.05,0,0
302865.4,81.1051,-510.231,0,0
303125.725,80.8383,-509.523,0,0
303386.05,80.678,-508.72,0,0
303646.375,80.4894,-507.987,0,0
303906.7,80.2502,-507.178,0,0
304167.025,80.118,-506.366,0,0
304427.35,79.8746,-505.529,0,0
304687.675,79.7251,-504.738,0,0
304948.0,79.5315,-503.862,0,0
305208.325,79.4439,-502.993,0,0
305468.65,79.3472,-502.111,0,0
305728.975,79.338,-501.306,0,0
305989.3,79.3478,-500.5,0,0
306249.625,79.409,-499.718,0,0
306509.95,79.4527,-499.001,0,0
306770.275,79.555,-498.38,0,0
307030.6,79.6246,-497.828,0,0
307290.925,79.6278,-497.298,0,0
307551.25,79.572,-496.76,0,0
307811.575,79.4861,-496.342,0,0
308071.9,79.4797,-495.876,0,0
308332.225,79.2314,-495.433,0,0
308592.55,79.0464,-494.967,0,0
308852.875,78.8799,-494.456,0,0
309113.2,78.6022,-493.95,0,0
309373.525,78.3982,-493.457,0,0
309633.85,78.2378,-492.964,0,0
309894.175,77.9213,-492.398,0,0
310154.5,77.7085,-491.891,0,0
310414.825,77.4431,-491.401,0,0
310675.15,77.2201,-490.89,0,0
310935.475,76.9632,-490.335,0,0
311195.8,76.6505,-489.805,0,0
311456.125,76.3707,-489.257,0,0
311716.45,76.054,-488.789,0,0
311976.775,75.7189,-488.208,0,0
312237.1,75.4795,-487.698,0,0
312497.425,75.1233,-487.11,0,0
312757.75,74.7672,-486.585,0,0
313018.075,74.4078,-485.996,0,0
313278.4,74.097,-485.41,0,0
313538.725,73.7385,-484.83,0,0
313799.05,73.3978,-484.222,0,0
314059.375,73.0572,-483.552,0,0
314319.7,72.702,-483.005,0,0
314580,72.3467,-482.28,0,0
314840,72.075,-481.646,0,0
315101,71.7365,-481.064,0,0
315361,71.4325,-480.352,0,0
315621,71.143,-479.766,0,0
315882,70.8608,-479.042,0,0
316142,70.6126,-478.46,0,0
316402,70.3031,-477.848,0,0
316663,70.0446,-477.152,0,0
316923,69.7402,-476.512,0,0
317183,69.4864,-475.942,0,0
317444,69.2155,-475.301,0,0
317704,68.8534,-474.658,0,0
317964,68.5312,-474.056,0,0
318225,68.2714,-473.422,0,0
318485,67.9855,-472.838,0,0
318745,67.6391,-472.155,0,0
319006,67.3609,-471.5,0,0
319266,67.0426,-470.886,0,0
319526,66.7393,-470.261,0,0
319787,66.3831,-469.603,0,0
320047,66.1224,-468.945,0,0
320307,65.7192,-468.233,0,0
320567,65.3966,-467.598,0,0
320828,65.149,-466.869,0,0
321088,64.7781,-466.147,0,0
321348,64.5674,-465.453,0,0
321609,64.2723,-464.718,0,0
321869,63.9778,-463.976,0,0
322129,63.7705,-463.276,0,0
322390,63.5219,-462.502,0,0
322650,63.3034,-461.799,0,0
322910,63.1216,-461.093,0,0
323171,62.868,-460.415,0,0
323431,62.6985,-459.754,0,0
323691,62.463,-459.077,0,0
323952,62.2612,-458.377,0,0
324212,62.124,-457.698,0,0
324472,61.8388,-457.021,0,0
324733,61.6616,-456.41,0,0
324993,61.4432,-455.741,0,0
325253,61.2676,-455.044,0,0
325514,60.9963,-454.418,0,0
325774,60.7538,-453.742,0,0
326034,60.5641,-453.096,0,0
326295,60.3441,-452.407,0,0
326555,60.1448,-451.734,0,0
326815,59.883,-451.05,0,0
327076,59.7298,-450.376,0,0
327336,59.4768,-449.663,0,0
327596,59.2647,-449.009,0,0
327857,59.1063,-448.286,0,0
328117,58.8917,-447.657,0,0
328377,58.7082,-446.961,0,0
328638,58.5037,-446.31,0,0
328898,58.3739,-445.569,0,0
329158,58.1484,-444.956,0,0
329419,57.9727,-444.223,0,0
329679,57.8681,-443.544,0,0
329939,57.6348,-442.887,0,0
330200,57.4566,-442.222,0,0
330460,57.3095,-441.524,0,0
330720.15,57.1646,-440.837,0,0
330980.475,56.9327,-440.128,0,0
331240.8,56.7913,-439.486,0,0
331501.125,56.6611,-438.816,0,0
331761.45,56.5373,-438.157,0,0
332021.775,56.3623,-437.468,0,0
332282.1,56.197,-436.807,0,0
332542.425,56.0504,-436.116,0,0
332802.75,55.8942,-435.424,0,0
333063.075,55.7383,-434.719,0,0
333323.4,55.628,-434.048,0,0
333583.725,55.4677,-433.386,0,0
333844.05,55.3951,-432.651,0,0
334104.375,55.2846,-432.014,0,0
334364.7,55.1323,-431.312,0,0
334625.025,55.1274,-430.651,0,0
334885.35,54.9957,-429.964,0,0
335145.675,54.9283,-429.254,0,0
335406.0,54.7745,-428.607,0,0
335666.325,54.7097,-427.967,0,0
335926.65,54.6649,-427.324,0,0
336186.975,54.5918,-426.674,0,0
336447.3,54.5203,-425.991,0,0
336707.625,54.4567,-425.416,0,0
336967.95,54.376,-424.778,0,0
337228.275,54.2924,-424.137,0,0
337488.6,54.2566,-423.506,0,0
337748.925,54.1436,-422.901,0,0
338009.25,54.0912,-422.264,0,0
338269.575,54.0162,-421.688,0,0
338529.9,53.9191,-421.027,0,0
338790.225,53.8599,-420.414,0,0
339050.55,53.7725,-419.726,0,0
339310.875,53.687,-419.119,0,0
339571.2,53.6232,-418.484,0,0
339831.525,53.5886,-417.868,0,0
340091.85,53.4519,-417.209,0,0
340352.175,53.4656,-416.61,0,0
340612.5,53.4216,-416.024,0,0
340872.825,53.4051,-415.367,0,0
341133.15,53.359,-414.765,0,0
341393.475,53.3526,-414.081,0,0
341653.8,53.291,-413.52,0,0
341914.125,53.3257,-412.857,0,0
342174.45,53.3298,-412.255,0,0
342434.775,53.3505,-411.647,0,0
342695.1,53.3712,-411.068,0,0
342955.425,53.416,-410.496,0,0
343215.75,53.496,-409.956,0,0
343476.075,53.5294,-409.451,0,0
343736.4,53.6022,-409.006,0,0
343996.725,53.6172,-408.55,0,0
344257.05,53.6081,-408.139,0,0
344517.375,53.5546,-407.72,0,0
344777.7,53.5093,-407.294,0,0
345038.025,53.3763,-406.874,0,0
345298.35,53.2061,-406.424,0,0
345558.675,53.0291,-405.917,0,0
345819.0,52.8651,-405.408,0,0
346079.325,52.7421,-404.908,0,0
346339.65,52.5639,-404.341,0,0
346599.975,52.4093,-403.777,0,0
346860,52.3036,-403.202,0,0
347121,52.1678,-402.576,0,0
347381,52.095,-402.009,0,0
347641,51.9765,-401.39,0,0
347902,51.8793,-400.807,0,0
348162,51.7842,-400.241,0,0
348422,51.7538,-399.611,0,0
348683,51.6947,-399.025,0,0
348943,51.6232,-398.474,0,0
349203,51.5938,-397.827,0,0
349464,51.5676,-397.285,0,0
349724,51.49,-396.67,0,0
349984,51.4591,-396.155,0,0
350245,51.3951,-395.51,0,0
350505,51.4039,-394.958,0,0
350765,51.333,-394.437,0,0
351025,51.3448,-393.813,0,0
351286,51.3329,-393.263,0,0
351546,51.3216,-392.691,0,0
351806,51.3245,-392.131,0,0
352067,51.2967,-391.554,0,0
352327,51.3035,-391.027,0,0
352587,51.3602,-390.493,0,0
352848,51.3345,-389.977,0,0
353108,51.382,-389.403,0,0
353368,51.373,-388.864,0,0
353629,51.3832,-388.378,0,0
353889,51.3757,-387.917,0,0
354149,51.3903,-387.409,0,0
354410,51.3566,-386.911,0,0
354670,51.3999,-386.438,0,0
354930,51.3252,-385.947,0,0
355191,51.3221,-385.481,0,0
355451,51.287,-384.918,0,0
355711,51.2499,-384.451,0,0
355972,51.211,-383.957,0,0
356232,51.196,-383.421,0,0
356492,51.1436,-382.893,0,0
356753,51.1005,-382.391,0,0
357013,51.094,-381.813,0,0
357273,51.1262,-381.331,0,0
357534,51.1166,-380.788,0,0
357794,51.1826,-380.284,0,0
358054,51.1708,-379.756,0,0
358315,51.2071,-379.228,0,0
358575,51.2144,-378.783,0,0
358835,51.2617,-378.299,0,0
359096,51.3011,-377.803,0,0
359356,51.3599,-377.405,0,0
359616,51.3735,-376.97,0,0
359877,51.385,-376.502,0,0
360137,51.4343,-376.114,0,0
360397,51.4092,-375.633,0,0
360658,51.4244,-375.256,0,0
360918,51.3811,-374.825,0,0
361178,51.3976,-374.375,0,0
361438,51.3896,-373.981,0,0
361699,51.3045,-373.563,0,0
361959,51.2664,-373.137,0,0
362219,51.1983,-372.712,0,0
362480,51.184,-372.324,0,0
362740.1,51.0533,-371.876,0,0
363000.425,51.0187,-371.467,0,0
363260.75,50.928,-370.99,0,0
363521.075,50.9014,-370.553,0,0
363781.4,50.8353,-370.108,0,0
364041.725,50.7577,-369.602,0,0
364302.05,50.6835,-369.146,0,0
364562.375,50.6257,-368.645,0,0
364822.7,50.5499,-368.156,0,0
365083.025,50.5116,-367.737,0,0
365343.35,50.4561,-367.235,0,0
365603.675,50.3934,-366.707,0,0
365864.0,50.3518,-366.246,0,0
366124.325,50.3087,-365.738,0,0
366384.65,50.2683,-365.292,0,0
366644.975,50.2421,-364.794,0,0
366905.3,50.2036,-364.313,0,0
367165.625,50.1958,-363.805,0,0
367425.95,50.1313,-363.353,0,0
367686.275,50.1269,-362.878,0,0
367946.6,50.1049,-362.381,0,0
368206.925,50.0603,-361.886,0,0
368467.25,50.0265,-361.42,0,0
368727.575,50.0248,-360.931,0,0
368987.9,50.0051,-360.468,0,0
369248.225,49.9734,-359.972,0,0
369508.55,49.9831,-359.476,0,0
369768.875,49.9682,-359,0,0
370029.2,49.9853,-358.502,0,0
370289.525,49.9587,-358.045,0,0
370549.85,49.998,-357.543,0,0
370810.175,49.9842,-357.038,0,0
371070.5,50.0335,-356.577,0,0
371330.825,50.0695,-356.08,0,0
371591.15,50.0824,-355.624,0,0
371851.475,50.129,-355.144,0,0
372111.8,50.1467,-354.715,0,0
372372.125,50.2317,-354.259,0,0
372632.45,50.3176,-353.807,0,0
372892.775,50.3844,-353.392,0,0
373153.1,50.4685,-352.986,0,0
373413.425,50.5342,-352.633,0,0
373673.75,50.59,-352.285,0,0
373934.075,50.6265,-351.951,0,0
374194.4,50.6574,-351.615,0,0
374454.725,50.6427,-351.312,0,0
374715.05,50.6261,-351.004,0,0
374975.375,50.555,-350.689,0,0
375235.7,50.4556,-350.399,0,0
375496.025,50.3802,-350.062,0,0
375756.35,50.2764,-349.715,0,0
376016.675,50.1851,-349.314,0,0
376277.0,50.0715,-348.944,0,0
376537.325,49.9514,-348.532,0,0
376797.65,49.8469,-348.123,0,0
377057.975,49.7407,-347.712,0,0
377318.3,49.6207,-347.289,0,0
377578.625,49.5183,-346.883,0,0
377838.95,49.4336,-346.452,0,0
378099.275,49.3159,-346.026,0,0
378359.6,49.2046,-345.621,0,0
378619.925,49.0887,-345.18,0,0
378880,48.9665,-344.735,0,0
379141,48.8668,-344.299,0,0
379401,48.7542,-343.886,0,0
379661,48.6022,-343.417,0,0
379922,48.4524,-342.948,0,0
380182,48.3057,-342.445,0,0
380442,48.1809,-341.92,0,0
380703,48.0586,-341.392,0,0
380963,47.9188,-340.885,0,0
381223,47.8269,-340.32,0,0
381483,47.7381,-339.775,0,0
381744,47.6433,-339.167,0,0
382004,47.5972,-338.609,0,0
382264,47.5812,-338.024,0,0
382525,47.594,-337.458,0,0
382785,47.6317,-336.829,0,0
383045,47.6804,-336.303,0,0
383306,47.7642,-335.796,0,0
383566,47.8887,-335.335,0,0
383826,47.9868,-334.938,0,0
384087,47.9937,-334.531,0,0
384347,48.0188,-334.162,0,0
384607,47.9879,-333.765,0,0
384868,47.9524,-333.347,0,0
385128,47.856,-332.955,0,0
385388,47.7865,-332.525,0,0
385649,47.7248,-332.075,0,0
385909,47.6586,-331.605,0,0
386169,47.5345,-331.156,0,0
386430,47.476,-330.748,0,0
386690,47.39,-330.235,0,0
386950,47.3372,-329.746,0,0
387211,47.2774,-329.223,0,0
387471,47.1731,-328.729,0,0
387731,47.1246,-328.253,0,0
387992,47.0483,-327.73,0,0
388252,47.0012,-327.205,0,0
388512,46.9352,-326.67,0,0
388773,46.8687,-326.156,0,0
389033,46.832,-325.651,0,0
389293,46.8136,-325.145,0,0
389554,46.7669,-324.59,0,0
389814,46.702,-324.046,0,0
390074,46.683,-323.54,0,0
390335,46.6742,-323.003,0,0
390595,46.643,-322.501,0,0
390855,46.6385,-321.96,0,0
391116,46.6288,-321.414,0,0
391376,46.5855,-320.876,0,0
391636,46.578,-320.354,0,0
391896,46.6042,-319.818,0,0
392157,46.6056,-319.267,0,0
392417,46.5958,-318.744,0,0
392677,46.5883,-318.209,0,0
392938,46.5856,-317.688,0,0
393198,46.5829,-317.158,0,0
393458,46.578,-316.614,0,0
393719,46.5878,-316.066,0,0
393979,46.6056,-315.526,0,0
394239,46.6151,-315.014,0,0
394500,46.6336,-314.483,0,0
394760.05,46.6366,-313.921,0,0
395020.375,46.6576,-313.41,0,0
395280.7,46.6736,-312.85,0,0
395541.025,46.7179,-312.321,0,0
395801.35,46.7234,-311.759,0,0
396061.675,46.7548,-311.235,0,0
396322.0,46.7959,-310.691,0,0
396582.325,46.8311,-310.142,0,0
396842.65,46.8523,-309.604,0,0
397102.975,46.8632,-309.065,0,0
397363.3,46.9312,-308.526,0,0
397623.625,46.9983,-307.97,0,0
397883.95,47.0066,-307.437,0,0
398144.275,47.0991,-306.911,0,0
398404.6,47.119,-306.353,0,0
398664.925,47.1839,-305.822,0,0
398925.25,47.2254,-305.256,0,0
399185.575,47.2808,-304.74,0,0
399445.9,47.3492,-304.195,0,0
399706.225,47.4134,-303.663,0,0
399966.55,47.464,-303.107,0,0
400006.6,47.4635,-303.042,0,0