File: Accelerated corrosion test data/2025-10-04_06-00-03/sample_2.csv
Frequency (Hz),Impedance (ohms),Phase (Radians),Temperature (C),Humidity (%)
10000.0,222.872,-11381.5,0,0
10260.325,217.699,-11094.3,0,0
10520.65,212.517,-10822.5,0,0
10780.975,208.334,-10562.7,0,0
11041.3,202.962,-10315.6,0,0
11301.625,198.625,-10079.5,0,0
11561.95,195.358,-9852.72,0,0
11822.275,192.462,-9642.2,0,0
12082.6,190.052,-9436.45,0,0
12342.925,182.659,-9239.48,0,0
12603.25,179.094,-9048.92,0,0
12863.575,175.859,-8865.76,0,0
13123.9,174.327,-8693.44,0,0
13384.225,169.165,-8523.47,0,0
13644.55,167.155,-8358.59,0,0
13904.875,182.296,-8210.29,0,0
14165.2,161.292,-8060.08,0,0
14425.525,157.237,-7912.87,0,0
14685.8,160.611,-7767.2,0,0
14946.175,158.031,-7640.13,0,0
15206.5,160.417,-7519,0,0
15466.825,161.537,-7383.51,0,0
15727.15,148.124,-7271.46,0,0
15987.5,144.919,-7150.44,0,0
16247.8,144.904,-7035.97,0,0
16508.125,140.387,-6926.84,0,0
16768.45,137.827,-6819.16,0,0
17028.775,136.029,-6715.36,0,0
17289.1,134.761,-6615.61,0,0
17549.425,132.21,-6516.32,0,0
17809.75,129.559,-6420.93,0,0
18070.075,128.984,-6328.84,0,0
18330.4,127.083,-6238.4,0,0
18590.725,125.862,-6150.49,0,0
18851.05,124.683,-6064.88,0,0
19111.375,126.467,-5983.68,0,0
19371.7,125.838,-5906.5,0,0
19632.025,120.61,-5828.75,0,0
19892.35,118.497,-5751.16,0,0
20152.675,116.701,-5675.92,0,0
20413.0,115.975,-5602.16,0,0
20673.3,115.473,-5529.67,0,0
20933.65,116.108,-5458.55,0,0
21193.975,120.193,-5392.06,0,0
21454.3,128.122,-5329.64,0,0
21714.625,125.743,-5273.27,0,0
21974.9,121.176,-5209.45,0,0
22235.275,116.833,-5155.79,0,0
22495.6,112.756,-5095.21,0,0
22755.925,110.139,-5034.32,0,0
23016.25,109.994,-4979.67,0,0
23276.6,111.215,-4924.6,0,0
23536.9,106.916,-4870.79,0,0
23797.225,105.185,-4816.25,0,0
24057.55,104.544,-4765.01,0,0
24317.875,101.469,-4715.43,0,0
24578.2,99.3059,-4664,0,0
24838.525,98.7118,-4614.33,0,0
25098.85,97.7293,-4565.71,0,0
25359.175,96.6716,-4518.15,0,0
25619.5,95.5072,-4472.68,0,0
25879.8,94.4988,-4426.1,0,0
26140.1,94.7991,-4381.59,0,0
26400.5,94.2971,-4338.21,0,0
26660.8,94.5533,-4296.87,0,0
26921.1,93.6437,-4254.82,0,0
27181.4,92.7208,-4215.31,0,0
27441.8,90.8909,-4175.16,0,0
27702.1,89.1186,-4135.1,0,0
27962.4,88.2038,-4094.74,0,0
28222.7,88.7254,-4056.74,0,0
28483.1,88.3701,-4018.86,0,0
28743.4,87.8825,-3981.72,0,0
29003.7,89.0423,-3943.91,0,0
29264,89.0695,-3908.86,0,0
29524.4,92.3483,-3873.82,0,0
29784.7,96.3831,-3845.97,0,0
30045,90.5078,-3813.89,0,0
30305.3,92.8626,-3780.18,0,0
30565.7,89.029,-3752.15,0,0
30826,86.7945,-3719.54,0,0
31086.3,85.7437,-3687.91,0,0
31346.6,84.0365,-3657.34,0,0
31607,84.0508,-3626.25,0,0
31867.3,82.1757,-3597,0,0
32127.6,80.8149,-3566.66,0,0
32387.9,81.3132,-3536.27,0,0
32648.3,82.8092,-3508.73,0,0
32908.6,81.9347,-3483.06,0,0
33168.9,80.5838,-3455.84,0,0
33429.2,78.8212,-3428.53,0,0
33689.6,78.6864,-3401.98,0,0
33949.9,77.6809,-3376.31,0,0
34210.2,75.8434,-3350.24,0,0
34470.5,75.433,-3324.13,0,0
34730.9,74.7912,-3298.68,0,0
34991.2,74.4474,-3273.58,0,0
35251.5,73.9195,-3248.89,0,0
35511.8,73.1788,-3225,0,0
35772.2,72.962,-3201.27,0,0
36032.5,72.3498,-3177.66,0,0
36292.8,71.4723,-3154.6,0,0
36553.1,71.0711,-3131.69,0,0
36813.5,70.7526,-3108.99,0,0
37073.8,70.3913,-3086.83,0,0
37334.1,70.1297,-3064.79,0,0
37594.4,69.8023,-3043.35,0,0
37854.8,69.7258,-3022.09,0,0
38115.1,69.1272,-3001.58,0,0
38375.4,68.3512,-2980.82,0,0
38635.7,67.9943,-2960.1,0,0
38896.1,67.7033,-2939.97,0,0
39156.4,67.3891,-2920.39,0,0
39416.7,66.9683,-2900.6,0,0
39677,66.7788,-2880.86,0,0
39937.4,66.2847,-2861.88,0,0
40197.7,65.9553,-2842.93,0,0
40458,65.5044,-2824.17,0,0
40718.3,65.3838,-2805.43,0,0
40978.7,65.3537,-2787.29,0,0
41239,64.9497,-2769.39,0,0
41499.3,64.8876,-2751.51,0,0
41759.6,64.5625,-2734.09,0,0
42020,64.4082,-2716.83,0,0
42280.275,64.0883,-2699.96,0,0
42540.6,63.794,-2683.14,0,0
42800.925,63.3089,-2666.51,0,0
43061.25,63.0886,-2649.89,0,0
43321.575,62.9026,-2633.62,0,0
43581.9,62.7842,-2617.48,0,0
43842.225,62.4665,-2601.57,0,0
44102.55,62.5769,-2585.84,0,0
44362.875,62.161,-2570.4,0,0
44623.2,61.4529,-2555.14,0,0
44883.525,61.3637,-2539.53,0,0
45143.85,61.1528,-2524.25,0,0
45404.175,61.2862,-2509.68,0,0
45664.5,60.8294,-2495.11,0,0
45924.825,60.9525,-2479.94,0,0
46185.15,61.1708,-2466.02,0,0
46445.475,60.659,-2452.09,0,0
46705.8,60.2956,-2437.78,0,0
46966.125,60.3314,-2423.81,0,0
47226.45,60.1491,-2409.79,0,0
47486.775,60.3127,-2396.39,0,0
47747.1,59.9393,-2383.07,0,0
48007.425,59.9467,-2369.55,0,0
48267.75,60.4068,-2356.17,0,0
48528.075,60.9222,-2343.9,0,0
48788.4,60.3397,-2331.91,0,0
49048.725,60.0939,-2319.43,0,0
49309.05,59.3715,-2307.29,0,0
49569.375,58.4643,-2294.58,0,0
49829.7,58.0724,-2281.94,0,0
50090.025,57.8747,-2269.99,0,0
50350.35,57.3671,-2257.46,0,0
50610.675,57.1635,-2245.28,0,0
50871.0,57.2668,-2233.28,0,0
51131.325,57.0781,-2221.69,0,0
51391.65,56.8059,-2210.39,0,0
51651.975,56.2865,-2198.86,0,0
51912.3,55.6769,-2187.44,0,0
52172.625,55.381,-2175.75,0,0
52432.95,54.9591,-2164.33,0,0
52693.275,54.8895,-2152.94,0,0
52953.6,54.591,-2141.81,0,0
53213.925,54.4399,-2130.61,0,0
53474.25,54.3111,-2119.88,0,0
53734.575,54.0708,-2108.86,0,0
53994.9,53.7639,-2097.96,0,0
54255.225,53.74,-2087.47,0,0
54515.55,53.8006,-2076.77,0,0
54775.875,53.6979,-2066.33,0,0
55036.2,53.6935,-2056.1,0,0
55296.525,53.5614,-2045.7,0,0
55556.85,53.5924,-2035.53,0,0
55817.175,53.4313,-2025.51,0,0
56077.5,53.4447,-2015.47,0,0
56337.825,53.4145,-2005.64,0,0
56598.15,53.2017,-1995.78,0,0
56858.475,53.3408,-1985.9,0,0
57118.8,53.4924,-1976.27,0,0
57379.125,53.5267,-1966.95,0,0
57639.45,53.5372,-1957.42,0,0
57899.775,53.5935,-1948.01,0,0
58160.1,53.6665,-1938.96,0,0
58420.4,53.5788,-1929.74,0,0
58680.7,53.6142,-1920.41,0,0
58941.1,53.8044,-1911.23,0,0
59201.4,53.9371,-1902.24,0,0
59461.7,54.1501,-1893.16,0,0
59722,54.4278,-1884.29,0,0
59982.4,55.1166,-1875.48,0,0
60242.7,55.7364,-1867.36,0,0
60503,55.7591,-1859.46,0,0
60763.3,55.6481,-1850.8,0,0
61023.7,55.9746,-1842.25,0,0
61284,56.902,-1833.79,0,0
61544.3,57.9285,-1826.23,0,0
61804.6,58.5696,-1819.35,0,0
62065,58.4247,-1812.82,0,0
62325.3,57.557,-1805.48,0,0
62585.6,57.0649,-1797.88,0,0
62845.9,57.0669,-1790.51,0,0
63106.3,56.4412,-1783.65,0,0
63366.6,55.6648,-1776.03,0,0
63626.9,54.8479,-1768.72,0,0
63887.2,54.2471,-1760.85,0,0
64147.6,53.7889,-1753.47,0,0
64407.9,53.1595,-1745.89,0,0
64668.2,52.7316,-1738.34,0,0
64928.5,51.8552,-1730.91,0,0
65188.9,51.101,-1723.23,0,0
65449.2,50.4092,-1715.09,0,0
65709.5,50.3139,-1707.07,0,0
65969.8,50.3464,-1699.34,0,0
66230.2,50.4496,-1691.8,0,0
66490.5,50.5465,-1684.38,0,0
66750.8,50.6386,-1677.07,0,0
67011.1,50.5774,-1669.61,0,0
67271.5,51.0115,-1662.12,0,0
67531.8,51.5512,-1654.77,0,0
67792.1,52.2622,-1647.82,0,0
68052.4,52.9432,-1641.6,0,0
68312.8,52.851,-1635.19,0,0
68573.1,53.1047,-1628.29,0,0
68833.4,53.7127,-1621.88,0,0
69093.7,54.0843,-1615.86,0,0
69354.1,54.2072,-1609.39,0,0
69614.4,54.938,-1603.27,0,0
69874.7,55.4506,-1597.99,0,0
70135,55.423,-1592.9,0,0
70395.4,54.9236,-1587.82,0,0
70655.7,53.7088,-1582.18,0,0
70916,52.7518,-1575.96,0,0
71176.3,52.5509,-1569.95,0,0
71436.7,51.8222,-1564.41,0,0
71697,50.9058,-1558.68,0,0
71957.3,49.5289,-1552.82,0,0
72217.6,48.3853,-1546.33,0,0
72478,47.4627,-1539.68,0,0
72738.3,46.8813,-1533.09,0,0
72998.6,46.2398,-1526.55,0,0
73258.9,45.7512,-1520.04,0,0
73519.3,45.2544,-1513.53,0,0
73779.6,44.898,-1506.83,0,0
74039.9,44.7491,-1500.22,0,0
74300.225,44.7581,-1493.83,0,0
74560.55,44.8104,-1487.45,0,0
74820.875,44.85,-1481.13,0,0
75081.2,44.911,-1474.86,0,0
75341.525,45.1526,-1468.58,0,0
75601.85,45.4505,-1462.48,0,0
75862.175,45.7682,-1456.44,0,0
76122.5,46.2134,-1450.49,0,0
76382.825,46.6964,-1444.66,0,0
76643.15,47.0037,-1438.96,0,0
76903.475,47.4819,-1433.17,0,0
77163.8,48.0615,-1427.52,0,0
77424.125,48.6973,-1421.93,0,0
77684.45,49.3133,-1416.62,0,0
77944.775,49.9941,-1411.36,0,0
78205.1,50.7425,-1406.22,0,0
78465.425,51.524,-1401.36,0,0
78725.75,52.0536,-1396.79,0,0
78986.075,52.6643,-1392.29,0,0
79246.4,52.7721,-1388,0,0
79506.725,52.9593,-1383.5,0,0
79767.05,53.1102,-1379.55,0,0
80027.375,52.4418,-1375.54,0,0
80287.7,51.6356,-1371.01,0,0
80548.025,50.8191,-1366.2,0,0
80808.35,50.1659,-1361.13,0,0
81068.675,49.7689,-1356.14,0,0
81329.0,49.3203,-1351.12,0,0
81589.325,48.9915,-1346.05,0,0
81849.65,48.6225,-1341.04,0,0
82109.975,48.3138,-1335.93,0,0
82370.3,47.9761,-1330.9,0,0
82630.625,47.8044,-1325.71,0,0
82890.95,47.7003,-1320.54,0,0
83151.275,47.7249,-1315.41,0,0
83411.6,47.8558,-1310.35,0,0
83671.925,48.0427,-1305.38,0,0
83932.25,48.2507,-1300.54,0,0
84192.575,48.5099,-1295.78,0,0
84452.9,48.6862,-1291.21,0,0
84713.225,48.7119,-1286.58,0,0
84973.55,48.7872,-1281.84,0,0
85233.875,48.8664,-1277.11,0,0
85494.2,49.2555,-1272.48,0,0
85754.525,49.5036,-1267.99,0,0
86014.85,49.7586,-1263.65,0,0
86275.175,49.8629,-1259.27,0,0
86535.5,49.9413,-1254.94,0,0
86795.825,49.9126,-1250.45,0,0
87056.15,50.1864,-1245.87,0,0
87316.475,50.6678,-1241.56,0,0
87576.8,50.9057,-1237.75,0,0
87837.125,50.6945,-1233.63,0,0
88097.45,50.4647,-1229.26,0,0
88357.775,50.7192,-1224.84,0,0
88618.1,50.9439,-1220.97,0,0
88878.425,50.4458,-1216.77,0,0
89138.75,50.5251,-1212.19,0,0
89399.075,50.8063,-1207.86,0,0
89659.4,51.0481,-1203.6,0,0
89919.725,51.3546,-1199.51,0,0
90180,51.5083,-1195.5,0,0
90440.4,51.5208,-1191.73,0,0
90700.7,51.076,-1187.48,0,0
90961,51.2131,-1182.98,0,0
91221.3,51.8205,-1178.52,0,0
91481.7,52.2332,-1174.69,0,0
91742,52.3915,-1170.74,0,0
92002.3,52.6255,-1166.42,0,0
92262.6,53.2719,-1162.24,0,0
92523,54.1529,-1158.56,0,0
92783.3,54.5527,-1155.21,0,0
93043.6,55.0604,-1151.38,0,0
93303.9,55.6538,-1148.19,0,0
93564.3,55.806,-1145.03,0,0
93824.6,56.0191,-1141.81,0,0
94084.9,55.8855,-1138.74,0,0
94345.2,55.3735,-1135.48,0,0
94605.6,54.9676,-1131.79,0,0
94865.9,54.9229,-1128.04,0,0
95126.2,54.6834,-1124.58,0,0
95386.5,54.1293,-1120.8,0,0
95646.9,53.774,-1116.4,0,0
95907.2,54.3317,-1111.95,0,0
96167.5,55.2578,-1108.18,0,0
96427.8,56.0368,-1104.83,0,0
96688.2,56.5099,-1101.77,0,0
96948.5,56.7756,-1098.73,0,0
97208.8,57.0263,-1095.43,0,0
97469.1,57.5755,-1092.54,0,0
97729.5,57.6391,-1089.84,0,0
97989.8,57.5826,-1087.04,0,0
98250.1,57.4556,-1084.28,0,0
98510.4,57.2446,-1081.38,0,0
98770.8,57.0627,-1078.79,0,0
99031.1,56.484,-1076.41,0,0
99291.4,55.4042,-1073.71,0,0
99551.7,54.1641,-1070.73,0,0
99812.1,52.7415,-1067.22,0,0
100072,51.8115,-1063.27,0,0
100333,51.2902,-1059.23,0,0
100593,51.1748,-1055.57,0,0
100853,50.7181,-1052.41,0,0
101114,49.8842,-1049.08,0,0
101374,48.8401,-1045.47,0,0
101634,47.8256,-1041.37,0,0
101895,47.3155,-1036.91,0,0
102155,47.3307,-1032.83,0,0
102415,47.0637,-1029.2,0,0
102676,46.5484,-1025.26,0,0
102936,46.2146,-1021.19,0,0
103196,45.8338,-1016.97,0,0
103457,45.7776,-1012.59,0,0
103717,45.8744,-1008.3,0,0
103977,46.1487,-1003.9,0,0
104238,46.7855,-999.609,0,0
104498,47.6436,-995.601,0,0
104758,48.4547,-991.909,0,0
105019,49.1232,-988.222,0,0
105279,49.9029,-984.527,0,0
105539,50.7692,-980.98,0,0
105800,51.7402,-977.447,0,0
106060,52.9698,-974.173,0,0
106320.175,54.1421,-971.272,0,0
106580.5,55.2186,-968.574,0,0
106840.825,56.0932,-966.25,0,0
107101.15,56.6077,-964.058,0,0
107361.475,56.8767,-961.547,0,0
107621.8,57.2975,-959.259,0,0
107882.125,57.4042,-957.104,0,0
108142.45,57.2028,-954.958,0,0
108402.775,56.7364,-952.584,0,0
108663.1,56.3592,-949.957,0,0
108923.425,55.9658,-947.518,0,0
109183.75,55.1214,-944.882,0,0
109444.075,54.3735,-941.853,0,0
109704.4,53.7559,-938.753,0,0
109964.725,53.1016,-935.58,0,0
110225.05,52.4977,-932.138,0,0
110485.375,52.0874,-928.68,0,0
110745.7,51.7914,-925.1,0,0
111006.025,51.6723,-921.563,0,0
111266.35,51.5383,-918.17,0,0
111526.675,51.3812,-914.658,0,0
111787.0,51.3487,-911.14,0,0
112047.325,51.4819,-907.648,0,0
112307.65,51.5877,-904.304,0,0
112567.975,51.5851,-900.926,0,0
112828.3,51.6788,-897.369,0,0
113088.625,51.8309,-893.863,0,0
113348.95,52.171,-890.381,0,0
113609.275,52.4526,-886.956,0,0
113869.6,52.9142,-883.521,0,0
114129.925,53.345,-880.186,0,0
114390.25,53.8279,-876.971,0,0
114650.575,54.2354,-873.636,0,0
114910.9,54.6876,-870.42,0,0
115171.225,55.2078,-867.146,0,0
115431.55,55.774,-863.96,0,0
115691.875,56.3779,-860.861,0,0
115952.2,56.8734,-857.758,0,0
116212.525,57.5042,-854.646,0,0
116472.85,58.1664,-851.434,0,0
116733.175,58.9387,-848.378,0,0
116993.5,59.7713,-845.489,0,0
117253.825,60.4761,-842.675,0,0
117514.15,61.2149,-839.85,0,0
117774.475,61.9582,-837.075,0,0
118034.8,62.7457,-834.367,0,0
118295.125,63.4029,-831.734,0,0
118555.45,64.1058,-829.039,0,0
118815.775,64.9068,-826.399,0,0
119076.1,65.7507,-823.929,0,0
119336.425,66.4827,-821.512,0,0
119596.75,67.37,-819.089,0,0
119857.075,68.2244,-817.125,0,0
120117.4,68.734,-815.206,0,0
120377.725,68.9903,-813.188,0,0
120638.05,69.3262,-811.297,0,0
120898.375,69.304,-809.452,0,0
121158.7,69.016,-807.26,0,0
121419.025,68.8773,-804.83,0,0
121679.35,68.8534,-802.428,0,0
121939.675,68.8044,-800.008,0,0
122200.0,68.7062,-797.543,0,0
122460,68.5506,-795.007,0,0
122721,68.4645,-792.373,0,0
122981,68.4484,-789.711,0,0
123241,68.5195,-787.051,0,0
123502,68.5731,-784.463,0,0
123762,68.5888,-781.892,0,0
124022,68.5276,-779.288,0,0
124283,68.4564,-776.616,0,0
124543,68.4081,-773.912,0,0
124803,68.3694,-771.173,0,0
125064,68.2681,-768.363,0,0
125324,68.2713,-765.517,0,0
125584,68.2708,-762.623,0,0
125845,68.2593,-759.668,0,0
126105,68.3546,-756.633,0,0
126365,68.5147,-753.591,0,0
126626,68.7585,-750.563,0,0
126886,69.0564,-747.525,0,0
127146,69.3751,-744.485,0,0
127406,69.7878,-741.362,0,0
127667,70.422,-738.299,0,0
127927,71.1201,-735.409,0,0
128187,71.733,-732.622,0,0
128448,72.2799,-729.758,0,0
128708,72.9952,-727,0,0
128968,73.6788,-724.297,0,0
129229,74.3672,-721.638,0,0
129489,75.043,-719.04,0,0
129749,75.6772,-716.473,0,0
130010,76.3083,-713.946,0,0
130270,76.9985,-711.457,0,0
130530,77.6048,-709.062,0,0
130791,78.1624,-706.649,0,0
131051,78.6966,-704.276,0,0
131311,79.1693,-701.946,0,0
131572,79.6288,-699.614,0,0
131832,80.0173,-697.294,0,0
132092,80.3303,-694.97,0,0
132353,80.5705,-692.609,0,0
132613,80.7921,-690.194,0,0
132873,80.9156,-687.715,0,0
133134,81.1162,-685.158,0,0
133394,81.2858,-682.573,0,0
133654,81.4983,-679.907,0,0
133915,81.7214,-677.253,0,0
134175,81.9576,-674.623,0,0
134435,82.1531,-671.879,0,0
134696,82.3937,-669.057,0,0
134956,82.7186,-666.3,0,0
135216,83.0116,-663.512,0,0
135477,83.2748,-660.668,0,0
135737,83.5937,-657.827,0,0
135997,83.9106,-654.91,0,0
136258,84.302,-651.997,0,0
136518,84.7449,-649.053,0,0
136778,85.1583,-646.096,0,0
137039,85.6581,-643.11,0,0
137299,86.234,-640.109,0,0
137559,86.8396,-637.224,0,0
137819,87.3752,-634.382,0,0
138080,87.8207,-631.506,0,0
138340.125,88.2514,-628.53,0,0
138600.45,88.7273,-625.524,0,0
138860.775,89.1793,-622.512,0,0
139121.1,89.5738,-619.402,0,0
139381.425,90.0631,-616.166,0,0
139641.75,90.5739,-612.888,0,0
139902.075,91.0555,-609.553,0,0
140162.4,91.583,-606.016,0,0
140422.725,92.2544,-602.319,0,0
140683.05,93.1937,-598.543,0,0
140943.375,94.3201,-594.875,0,0
141203.7,95.3891,-591.225,0,0
141464.025,96.6413,-587.378,0,0
141724.35,98.169,-583.591,0,0
141984.675,99.8414,-579.918,0,0
142245.0,101.691,-576.373,0,0
142505.325,103.526,-572.999,0,0
142765.65,105.447,-569.556,0,0
143025.975,107.565,-566.364,0,0
143286.3,109.543,-563.422,0,0
143546.625,111.359,-560.439,0,0
143806.95,113.171,-557.358,0,0
144067.275,115.046,-554.215,0,0
144327.6,117.005,-551.109,0,0
144587.925,118.967,-548.01,0,0
144848.25,120.99,-544.859,0,0
145108.575,123.141,-541.66,0,0
145368.9,125.404,-538.548,0,0
145629.225,127.736,-535.475,0,0
145889.55,130.096,-532.521,0,0
146149.875,132.383,-529.547,0,0
146410.2,134.694,-526.437,0,0
146670.525,137.156,-523.221,0,0
146930.85,139.78,-519.94,0,0
147191.175,142.668,-516.652,0,0
147451.5,145.763,-513.463,0,0
147711.825,149.003,-510.359,0,0
147972.15,152.387,-507.359,0,0
148232.475,155.837,-504.396,0,0
148492.8,159.477,-501.327,0,0
148753.125,163.451,-498.213,0,0
149013.45,167.882,-495.18,0,0
149273.775,172.929,-492.422,0,0
149534.1,178.383,-490.344,0,0
149794.425,183.859,-488.885,0,0
150054.75,189.329,-487.868,0,0
150315.075,194.758,-487.236,0,0
150575.4,200.342,-486.978,0,0
150835.725,206.022,-487.414,0,0
151096.05,211.434,-488.61,0,0
151356.375,216.375,-490.29,0,0
151616.7,220.869,-492.231,0,0
151877.025,225.22,-494.526,0,0
152137.35,229.073,-497.449,0,0
152397.675,232.159,-500.716,0,0
152658.0,234.518,-503.937,0,0
152918.325,236.242,-507.103,0,0
153178.65,237.508,-510.01,0,0
153438.975,238.384,-512.713,0,0
153699.3,238.952,-515.2,0,0
153959.625,239.234,-517.508,0,0
154219.95,239.189,-519.595,0,0
154480,238.866,-521.329,0,0
154741,238.475,-522.768,0,0
155001,238.033,-523.916,0,0
155261,237.492,-524.934,0,0
155522,236.95,-525.641,0,0
155782,236.428,-526.44,0,0
156042,235.802,-526.86,0,0
156303,235.238,-527.239,0,0
156563,234.796,-527.498,0,0
156823,234.051,-527.827,0,0
157084,233.184,-527.865,0,0
157344,232.518,-527.668,0,0
157604,231.704,-527.618,0,0
157864,230.743,-527.009,0,0
158125,230.191,-526.486,0,0
158385,229.389,-525.978,0,0
158645,228.405,-525.29,0,0
158906,227.464,-524.141,0,0
159166,226.971,-522.809,0,0
159426,226.387,-521.556,0,0
159687,225.636,-519.812,0,0
159947,225.864,-517.711,0,0
160207,226.455,-516.123,0,0
160468,226.916,-514.77,0,0
160728,227.251,-513.43,0,0
160988,227.824,-511.849,0,0
161249,228.729,-510.026,0,0
161509,230.544,-508.529,0,0
161769,232.712,-507.892,0,0
162030,234.8,-508.06,0,0
162290,236.544,-508.906,0,0
162550,237.896,-510.323,0,0
162811,238.738,-512.313,0,0
163071,238.582,-515.221,0,0
163331,236.69,-517.65,0,0
163592,234.097,-518.905,0,0
163852,231.488,-519.445,0,0
164112,228.793,-519.695,0,0
164373,226.109,-519.624,0,0
164633,223.028,-519.363,0,0
164893,219.749,-518.284,0,0
165154,216.805,-516.858,0,0
165414,213.523,-515.306,0,0
165674,209.946,-513.174,0,0
165935,206.422,-510.089,0,0
166195,203.584,-506.294,0,0
166455,201.43,-502.323,0,0
166716,199.882,-498.412,0,0
166976,198.361,-494.735,0,0
167236,197.04,-490.858,0,0
167497,195.745,-486.975,0,0
167757,194.679,-483.174,0,0
168017,193.52,-479.197,0,0
168277,192.399,-474.857,0,0
168538,191.549,-470.081,0,0
168798,191.346,-465.199,0,0
169058,191.757,-460.541,0,0
169319,192.189,-456.407,0,0
169579,192.438,-452.233,0,0
169839,192.738,-447.883,0,0
170100,193.25,-443.551,0,0
170360.075,193.956,-439.411,0,0
170620.4,194.441,-435.414,0,0
170880.725,194.672,-431.083,0,0
171141.05,195.041,-426.236,0,0
171401.375,196.016,-421.099,0,0
171661.7,197.34,-416.144,0,0
171922.025,198.876,-411.308,0,0
172182.35,200.58,-406.603,0,0
172442.675,202.339,-401.937,0,0
172703.0,204.11,-397.147,0,0
172963.325,206.324,-392.242,0,0
173223.65,208.71,-387.577,0,0
173483.975,211.163,-382.981,0,0
173744.3,213.677,-378.371,0,0
174004.625,216.309,-373.679,0,0
174264.95,219.165,-368.882,0,0
174525.275,222.275,-363.998,0,0
174785.6,225.894,-359.094,0,0
175045.925,229.945,-354.543,0,0
175306.25,234.259,-350.388,0,0
175566.575,238.47,-346.622,0,0
175826.9,242.572,-342.855,0,0
176087.225,246.808,-338.999,0,0
176347.55,251.4,-335.169,0,0
176607.875,256.308,-331.483,0,0
176868.2,261.501,-328.026,0,0
177128.525,267.176,-324.727,0,0
177388.85,273.475,-322.23,0,0
177649.175,279.889,-320.849,0,0
177909.5,285.818,-320.5,0,0
178169.825,290.738,-320.855,0,0
178430.15,294.573,-321.029,0,0
178690.475,298.071,-320.589,0,0
178950.8,301.599,-318.913,0,0
179211.125,305.664,-318.831,0,0
179471.45,309.134,-318.92,0,0
179731.775,312.279,-319.225,0,0
179992.1,314.703,-319.733,0,0
180252.425,316.27,-320.045,0,0
180512.75,317.112,-319.859,0,0
180773.075,317.214,-318.827,0,0
181033.4,317.155,-316.48,0,0
181293.725,317.778,-313.2,0,0
181554.05,318.898,-309.527,0,0
181814.375,320.503,-305.553,0,0
182074.7,322.287,-301.287,0,0
182335.025,324.533,-296.546,0,0
182595.35,327.505,-291.58,0,0
182855.675,331.124,-286.662,0,0
183116.0,335.119,-282.052,0,0
183376.325,339.323,-277.455,0,0
183636.65,343.752,-272.787,0,0
183896.975,348.557,-268.16,0,0
184157.3,353.621,-263.406,0,0
184417.625,359.219,-258.53,0,0
184677.95,365.4,-253.728,0,0
184938.275,372.209,-249.204,0,0
185198.6,379.506,-245.256,0,0
185458.925,386.895,-241.71,0,0
185719.25,394.672,-238.416,0,0
185979.575,402.77,-235.699,0,0
186239.9,411.011,-233.747,0,0
186500,418.641,-232.594,0,0
186761,425.524,-231.274,0,0
187021,432.102,-229.422,0,0
187281,438.957,-226.718,0,0
187542,447.096,-223.721,0,0
187802,456.365,-221.857,0,0
188062,465.495,-221.259,0,0
188322,473.729,-221.37,0,0
188583,481.276,-221.204,0,0
188843,488.749,-220.477,0,0
189103,496.631,-219.483,0,0
189364,504.873,-218.747,0,0
189624,513.012,-218.098,0,0
189884,521.168,-217.49,0,0
190145,529.319,-216.603,0,0
190405,537.826,-215.235,0,0
190665,547.145,-213.66,0,0
190926,557.118,-212.338,0,0
191186,567.918,-210.91,0,0
191446,579.868,-210.044,0,0
191707,592.508,-210.346,0,0
191967,605.112,-211.574,0,0
192227,617.754,-213.225,0,0
192488,630.84,-215.225,0,0
192748,644.594,-217.926,0,0
193008,658.786,-221.836,0,0
193269,672.997,-226.901,0,0
193529,687.263,-233.227,0,0
193789,700.711,-241.009,0,0
194050,713.084,-249.162,0,0
194310,725.31,-257.37,0,0
194570,737.31,-266.272,0,0
194831,748.809,-275.637,0,0
195091,760.277,-285.326,0,0
195351,771.8,-295.82,0,0
195612,782.612,-307.473,0,0
195872,792.392,-319.76,0,0
196132,801.156,-332.018,0,0
196393,809.51,-343.799,0,0
196653,818.271,-355.685,0,0
196913,827.129,-368.495,0,0
197174,835.431,-382.156,0,0
197434,842.996,-396.65,0,0
197694,849.406,-411.566,0,0
197955,854.939,-426.08,0,0
198215,860.39,-440.468,0,0
198475,866.006,-455.351,0,0
198735,871.22,-471.324,0,0
198996,875.235,-488.206,0,0
199256,877.877,-505.361,0,0
199516,879.195,-522.427,0,0
199777,879.204,-538.727,0,0
200037,879.279,-553.965,0,0
200297,879.874,-569.478,0,0
200558,880.192,-586.133,0,0
200818,879.154,-603.497,0,0
201078,876.552,-620.78,0,0
201339,873.241,-637.733,0,0
201599,868.872,-654.62,0,0
201859,863.412,-671.219,0,0
202120,856.951,-687.384,0,0
202380.025,849.813,-703.201,0,0
202640.35,841.111,-718.816,0,0
202900.675,830.769,-733.046,0,0
203161.0,819.749,-745.484,0,0
203421.325,808.816,-756.371,0,0
203681.65,798.45,-766.302,0,0
203941.975,788.156,-775.429,0,0
204202.3,777.896,-783.943,0,0
204462.625,768.077,-791.365,0,0
204722.95,759.241,-798.582,0,0
204983.275,750.772,-806.623,0,0
205243.6,741.375,-815.203,0,0
205503.925,731.189,-823.349,0,0
205764.25,719.841,-830.576,0,0
206024.575,708.435,-836.447,0,0
206284.9,697.395,-841.284,0,0
206545.225,686.677,-845.452,0,0
206805.55,676.24,-848.891,0,0
207065.875,666.379,-851.984,0,0
207326.2,656.964,-854.846,0,0
207586.525,647.783,-857.556,0,0
207846.85,638.534,-859.999,0,0
208107.175,629.468,-861.842,0,0
208367.5,621.039,-862.991,0,0
208627.825,613.571,-864.073,0,0
208888.15,606.779,-865.722,0,0
209148.475,600.013,-867.731,0,0
209408.8,593.393,-870.275,0,0
209669.125,586.517,-873.196,0,0
209929.45,579.062,-876.671,0,0
210189.775,570.609,-879.729,0,0
210450.1,561.834,-882.317,0,0
210710.425,552.787,-884.207,0,0
210970.75,543.849,-885.88,0,0
211231.075,534.571,-887.073,0,0
211491.4,524.933,-887.691,0,0
211751.725,515.301,-887.412,0,0
212012.05,506.14,-886.128,0,0
212272.375,497.554,-884.346,0,0
212532.7,489.65,-882.344,0,0
212793.025,482.155,-880.341,0,0
213053.35,474.911,-878.176,0,0
213313.675,467.728,-875.977,0,0
213574.0,460.86,-873.372,0,0
213834.325,454.426,-870.457,0,0
214094.65,448.6,-867.564,0,0
214354.975,443.089,-864.678,0,0
214615.3,437.808,-861.941,0,0
214875.625,432.731,-859.154,0,0
215135.95,427.834,-856.509,0,0
215396.275,422.98,-853.861,0,0
215656.6,418.226,-851.18,0,0
215916.925,413.632,-848.315,0,0
216177.25,409.284,-845.248,0,0
216437.575,405.264,-842.18,0,0
216697.9,401.444,-839.229,0,0
216958.225,397.787,-836.234,0,0
217218.55,394.306,-833.176,0,0
217478.875,391.091,-830.12,0,0
217739.2,388.12,-827.057,0,0
217999.525,385.406,-824.087,0,0
218259.85,382.82,-821.308,0,0
218520,380.403,-818.552,0,0
218780,378.106,-815.779,0,0
219041,376.055,-813.21,0,0
219301,374.132,-810.65,0,0
219561,372.281,-808.192,0,0
219822,370.643,-805.908,0,0
220082,369.028,-803.708,0,0
220342,367.439,-801.575,0,0
220603,365.828,-799.668,0,0
220863,364.176,-797.637,0,0
221123,362.627,-795.466,0,0
221384,361.345,-793.219,0,0
221644,360.339,-791.048,0,0
221904,359.553,-788.934,0,0
222165,358.952,-787.079,0,0
222425,358.591,-785.37,0,0
222685,358.396,-783.96,0,0
222946,358.103,-782.879,0,0
223206,357.796,-781.954,0,0
223466,357.57,-781.235,0,0
223727,357.076,-780.764,0,0
223987,356.542,-780.395,0,0
224247,355.871,-779.975,0,0
224508,355.242,-779.705,0,0
224768,354.418,-779.372,0,0
225028,353.809,-779.128,0,0
225289,352.972,-778.984,0,0
225549,352.212,-778.798,0,0
225809,351.41,-778.473,0,0
226070,350.71,-778.195,0,0
226330,350.202,-778.028,0,0
226590,349.848,-778.109,0,0
226851,349.385,-778.294,0,0
227111,348.875,-778.636,0,0
227371,348.369,-779.079,0,0
227632,347.877,-779.723,0,0
227892,347.317,-780.422,0,0
228152,346.807,-781.314,0,0
228413,346.278,-782.394,0,0
228673,345.646,-783.821,0,0
228933,344.743,-785.389,0,0
229193,343.608,-787.228,0,0
229454,342.137,-789.072,0,0
229714,340.366,-790.913,0,0
229974,338.429,-792.865,0,0
230235,336.112,-794.71,0,0
230495,333.707,-796.416,0,0
230755,331.013,-798.114,0,0
231016,328.132,-799.681,0,0
231276,325.135,-801.078,0,0
231536,321.805,-802.279,0,0
231797,318.468,-803.205,0,0
232057,315.101,-803.956,0,0
232317,311.803,-804.612,0,0
232578,308.41,-805.128,0,0
232838,305.026,-805.513,0,0
233098,301.63,-805.774,0,0
233359,298.256,-805.98,0,0
233619,294.85,-806.027,0,0
233879,291.435,-805.917,0,0
234140,288.15,-805.854,0,0
234400,284.84,-805.679,0,0
234660.3,281.556,-805.455,0,0
234920.625,278.393,-805.314,0,0
235180.95,274.868,-805.04,0,0
235441.275,271.349,-804.762,0,0
235701.6,267.759,-804.261,0,0
235961.925,264.246,-803.601,0,0
236222.25,260.757,-802.774,0,0
236482.575,257.317,-801.931,0,0
236742.9,253.926,-800.994,0,0
237003.225,250.534,-800.013,0,0
237263.55,247.088,-798.947,0,0
237523.875,243.608,-797.701,0,0
237784.2,240.213,-796.311,0,0
238044.525,236.845,-794.756,0,0
238304.85,233.661,-793.027,0,0
238565.175,230.697,-791.339,0,0
238825.5,227.775,-789.615,0,0
239085.825,224.901,-787.905,0,0
239346.15,221.996,-786.16,0,0
239606.475,219.244,-784.324,0,0
239866.8,216.464,-782.359,0,0
240127.125,213.805,-780.363,0,0
240387.45,211.324,-778.271,0,0
240647.775,208.825,-776.327,0,0
240908.1,206.478,-774.245,0,0
241168.425,204.156,-772.17,0,0
241428.75,202.02,-769.981,0,0
241689.075,200.004,-767.859,0,0
241949.4,198.048,-765.779,0,0
242209.725,196.23,-763.745,0,0
242470.05,194.382,-761.726,0,0
242730.375,192.684,-759.786,0,0
242990.7,191.05,-757.785,0,0
243251.025,189.526,-755.928,0,0
243511.35,188.029,-754.127,0,0
243771.675,186.587,-752.501,0,0
244032.0,185.093,-750.918,0,0
244292.325,183.714,-749.421,0,0
244552.65,182.198,-748.054,0,0
244812.975,180.675,-746.767,0,0
245073.3,178.968,-745.47,0,0
245333.625,177.324,-744.204,0,0
245593.95,175.648,-743.094,0,0
245854.275,173.869,-742.075,0,0
246114.6,171.851,-741.14,0,0
246374.925,169.649,-740.191,0,0
246635.25,167.207,-739.155,0,0
246895.575,164.392,-737.91,0,0
247155.9,161.52,-736.334,0,0
247416.225,158.672,-734.457,0,0
247676.55,155.961,-732.4,0,0
247936.875,153.339,-730.154,0,0
248197.2,150.766,-727.824,0,0
248457.525,148.304,-725.396,0,0
248717.85,145.866,-722.862,0,0
248978.175,143.478,-720.264,0,0
249238.5,141.191,-717.479,0,0
249498.825,138.919,-714.625,0,0
249759.15,136.892,-711.573,0,0
250019.475,134.913,-708.488,0,0
250279.8,133.05,-705.276,0,0
250540,131.297,-702.009,0,0
250800,129.794,-698.65,0,0
251061,128.439,-695.286,0,0
251321,127.208,-692.007,0,0
251581,126.062,-688.685,0,0
251842,125.063,-685.41,0,0
252102,124.09,-682.053,0,0
252362,123.257,-678.711,0,0
252623,122.592,-675.355,0,0
252883,122.027,-672.025,0,0
253143,121.679,-668.743,0,0
253404,121.399,-665.553,0,0
253664,121.066,-662.445,0,0
253924,120.847,-659.355,0,0
254185,120.65,-656.273,0,0
254445,120.538,-653.193,0,0
254705,120.528,-650.099,0,0
254966,120.536,-646.989,0,0
255226,120.729,-643.887,0,0
255486,120.949,-640.804,0,0
255747,121.32,-637.725,0,0
256007,121.803,-634.699,0,0
256267,122.426,-631.74,0,0
256528,123.122,-628.888,0,0
256788,123.897,-626.076,0,0
257048,124.708,-623.348,0,0
257309,125.688,-620.634,0,0
257569,126.738,-618.028,0,0
257829,127.832,-615.543,0,0
258090,129.005,-613.152,0,0
258350,130.179,-610.869,0,0
258610,131.385,-608.644,0,0
258871,132.586,-606.491,0,0
259131,133.833,-604.321,0,0
259391,135.154,-602.231,0,0
259651,136.566,-600.173,0,0
259912,138.045,-598.207,0,0
260172,139.651,-596.369,0,0
260432,141.262,-594.642,0,0
260693,142.912,-592.985,0,0
260953,144.589,-591.475,0,0
261213,146.298,-590.041,0,0
261474,148.064,-588.732,0,0
261734,149.869,-587.583,0,0
261994,151.618,-586.562,0,0
262255,153.366,-585.685,0,0
262515,155.05,-584.907,0,0
262775,156.664,-584.205,0,0
263036,158.22,-583.576,0,0
263296,159.796,-582.899,0,0
263556,161.507,-582.37,0,0
263817,163.188,-582.022,0,0
264077,164.826,-581.852,0,0
264337,166.402,-581.857,0,0
264598,167.84,-582.004,0,0
264858,169.107,-582.281,0,0
265118,170.202,-582.652,0,0
265379,171.131,-583.032,0,0
265639,171.873,-583.42,0,0
265899,172.45,-583.779,0,0
266160,172.882,-583.987,0,0
266420,173.255,-584.069,0,0
266680.25,173.66,-584.035,0,0
266940.575,174.14,-583.975,0,0
267200.9,174.649,-583.976,0,0
267461.225,175.127,-584.036,0,0
267721.55,175.589,-584.166,0,0
267981.875,175.935,-584.334,0,0
268242.2,176.193,-584.525,0,0
268502.525,176.274,-584.697,0,0
268762.85,176.234,-584.845,0,0
269023.175,176.056,-584.893,0,0
269283.5,175.704,-584.79,0,0
269543.825,175.308,-584.441,0,0
269804.15,174.933,-583.855,0,0
270064.475,174.67,-583.037,0,0
270324.8,174.529,-582.03,0,0
270585.125,174.579,-580.946,0,0
270845.45,174.804,-579.689,0,0
271105.775,175.332,-578.454,0,0
271366.1,176.062,-577.205,0,0
271626.425,176.993,-576.094,0,0
271886.75,178.046,-575.095,0,0
272147.075,179.175,-574.191,0,0
272407.4,180.369,-573.33,0,0
272667.725,181.652,-572.484,0,0
272928.05,183.076,-571.649,0,0
273188.375,184.673,-570.843,0,0
273448.7,186.531,-570.095,0,0
273709.025,188.619,-569.458,0,0
273969.35,191.025,-569.06,0,0
274229.675,193.675,-569.005,0,0
274490.0,196.499,-569.33,0,0
274750.325,199.424,-570.134,0,0
275010.65,202.324,-571.432,0,0
275270.975,205.183,-573.179,0,0
275531.3,207.802,-575.397,0,0
275791.625,210.179,-578.103,0,0
276051.95,212.168,-581.202,0,0
276312.275,213.686,-584.599,0,0
276572.6,214.742,-588.237,0,0
276832.925,215.266,-592.007,0,0
277093.25,215.227,-595.811,0,0
277353.575,214.678,-599.516,0,0
277613.9,213.703,-603.046,0,0
277874.225,212.326,-606.353,0,0
278134.55,210.66,-609.386,0,0
278394.875,208.74,-612.088,0,0
278655.2,206.717,-614.497,0,0
278915.525,204.589,-616.715,0,0
279175.85,202.408,-618.698,0,0
279436.175,200.125,-620.492,0,0
279696.5,197.858,-622.142,0,0
279956.825,195.518,-623.625,0,0
280217.15,193.123,-624.936,0,0
280477.475,190.752,-626.121,0,0
280737.8,188.347,-627.226,0,0
280998.125,185.924,-628.254,0,0
281258.45,183.477,-629.178,0,0
281518.775,180.921,-630.073,0,0
281779.1,178.293,-630.85,0,0
282039.425,175.576,-631.549,0,0
282299.75,172.705,-632.131,0,0
282560,169.674,-632.523,0,0
282820,166.54,-632.643,0,0
283081,163.315,-632.485,0,0
283341,160.125,-631.937,0,0
283601,157.107,-631.037,0,0
283862,154.371,-629.851,0,0
284122,152.041,-628.578,0,0
284382,149.995,-627.437,0,0
284643,148.066,-626.56,0,0
284903,146.045,-625.914,0,0
285163,143.829,-625.304,0,0
285424,141.338,-624.602,0,0
285684,138.7,-623.686,0,0
285944,135.962,-622.525,0,0
286205,133.209,-621.093,0,0
286465,130.449,-619.447,0,0
286725,127.709,-617.491,0,0
286986,125.039,-615.261,0,0
287246,122.521,-612.7,0,0
287506,120.155,-609.847,0,0
287767,118.016,-606.693,0,0
288027,116.209,-603.267,0,0
288287,114.761,-599.616,0,0
288548,113.695,-595.801,0,0
288808,113.068,-591.862,0,0
289068,112.896,-587.83,0,0
289329,113.26,-583.854,0,0
289589,114.089,-579.965,0,0
289849,115.446,-576.22,0,0
290109,117.325,-572.815,0,0
290370,119.598,-569.801,0,0
290630,122.215,-567.278,0,0
290890,125.027,-565.293,0,0
291151,127.942,-563.82,0,0
291411,130.847,-562.858,0,0
291671,133.686,-562.32,0,0
291932,136.428,-562.202,0,0
292192,139.063,-562.495,0,0
292452,141.52,-563.209,0,0
292713,143.742,-564.323,0,0
292973,145.639,-565.776,0,0
293233,147.063,-567.637,0,0
293494,147.878,-569.654,0,0
293754,148.07,-571.618,0,0
294014,147.736,-573.356,0,0
294275,146.993,-574.68,0,0
294535,146.003,-575.493,0,0
294795,145.043,-575.721,0,0
295056,144.407,-575.422,0,0
295316,144.288,-574.859,0,0
295576,144.835,-574.322,0,0
295837,145.96,-574.238,0,0
296097,147.321,-574.781,0,0
296357,148.64,-576.103,0,0
296618,149.517,-578.001,0,0
296878,149.896,-580.271,0,0
297138,149.624,-582.703,0,0
297399,148.706,-585.065,0,0
297659,147.296,-587.175,0,0
297919,145.499,-588.925,0,0
298180,143.521,-590.236,0,0
298440,141.491,-591.21,0,0
298700.2,139.493,-591.865,0,0
298960.525,137.56,-592.31,0,0
299220.85,135.741,-592.636,0,0
299481.175,133.971,-592.877,0,0
299741.5,132.185,-593.076,0,0
300001.825,130.354,-593.186,0,0
300262.15,128.471,-593.156,0,0
300522.475,126.592,-592.939,0,0
300782.8,124.785,-592.536,0,0
301043.125,123.074,-592.005,0,0
301303.45,121.486,-591.341,0,0
301563.775,120.028,-590.59,0,0
301824.1,118.736,-589.767,0,0
302084.425,117.63,-588.918,0,0
302344.75,116.747,-588.095,0,0
302605.075,116.018,-587.424,0,0
302865.4,115.408,-586.947,0,0
303125.725,114.808,-586.676,0,0
303386.05,114.144,-586.581,0,0
303646.375,113.345,-586.629,0,0
303906.7,112.39,-586.732,0,0
304167.025,111.295,-586.866,0,0
304427.35,110.08,-586.982,0,0
304687.675,108.723,-587.064,0,0
304948.0,107.275,-587.141,0,0
305208.325,105.648,-587.092,0,0
305468.65,103.942,-586.942,0,0
305728.975,102.165,-586.647,0,0
305989.3,100.366,-586.216,0,0
306249.625,98.5522,-585.63,0,0
306509.95,96.7694,-584.928,0,0
306770.275,95.0333,-584.106,0,0
307030.6,93.34,-583.177,0,0
307290.925,91.738,-582.143,0,0
307551.25,90.2273,-581.072,0,0
307811.575,88.7919,-579.96,0,0
308071.9,87.4168,-578.82,0,0
308332.225,86.1008,-577.702,0,0
308592.55,84.7994,-576.558,0,0
308852.875,83.5351,-575.392,0,0
309113.2,82.2842,-574.198,0,0
309373.525,81.0826,-572.95,0,0
309633.85,79.9445,-571.678,0,0
309894.175,78.8411,-570.393,0,0
310154.5,77.7797,-569.1,0,0
310414.825,76.7812,-567.82,0,0
310675.15,75.7931,-566.511,0,0
310935.475,74.8395,-565.205,0,0
311195.8,73.909,-563.864,0,0
311456.125,73.0164,-562.485,0,0
311716.45,72.1861,-561.115,0,0
311976.775,71.4209,-559.742,0,0
312237.1,70.7056,-558.362,0,0
312497.425,70.0309,-557.029,0,0
312757.75,69.3917,-555.692,0,0
313018.075,68.7765,-554.391,0,0
313278.4,68.1788,-553.102,0,0
313538.725,67.5966,-551.82,0,0
313799.05,67.0319,-550.565,0,0
314059.375,66.483,-549.311,0,0
314319.7,65.9507,-548.056,0,0
314580,65.4488,-546.852,0,0
314840,64.9063,-545.599,0,0
315101,64.4586,-544.321,0,0
315361,63.9052,-543.162,0,0
315621,63.439,-541.94,0,0
315882,62.9703,-540.692,0,0
316142,62.4599,-539.387,0,0
316402,62.0641,-538.138,0,0
316663,61.6543,-536.894,0,0
316923,61.2532,-535.592,0,0
317183,60.9275,-534.242,0,0
317444,60.6574,-532.993,0,0
317704,60.3991,-531.725,0,0
317964,60.1877,-530.508,0,0
318225,59.9332,-529.294,0,0
318485,59.7518,-528.163,0,0
318745,59.5768,-526.992,0,0
319006,59.4601,-525.879,0,0
319266,59.2728,-524.754,0,0
319526,59.0247,-523.759,0,0
319787,58.8307,-522.663,0,0
320047,58.6273,-521.572,0,0
320307,58.4389,-520.538,0,0
320567,58.23,-519.449,0,0
320828,58.0176,-518.332,0,0
321088,57.8066,-517.334,0,0
321348,57.6442,-516.217,0,0
321609,57.4326,-515.169,0,0
321869,57.1996,-514.045,0,0
322129,57.034,-512.977,0,0
322390,56.8334,-511.899,0,0
322650,56.6791,-510.823,0,0
322910,56.4968,-509.678,0,0
323171,56.2573,-508.623,0,0
323431,56.0836,-507.486,0,0
323691,55.8962,-506.262,0,0
323952,55.7862,-505.003,0,0
324212,55.6612,-503.656,0,0
324472,55.6089,-502.267,0,0
324733,55.6232,-500.966,0,0
324993,55.7754,-499.65,0,0
325253,55.9791,-498.221,0,0
325514,56.3236,-496.858,0,0
325774,56.6966,-495.648,0,0
326034,57.1867,-494.362,0,0
326295,57.8047,-493.274,0,0
326555,58.4707,-492.271,0,0
326815,59.1465,-491.371,0,0
327076,59.7699,-490.604,0,0
327336,60.3998,-489.926,0,0
327596,60.9886,-489.299,0,0
327857,61.5003,-488.812,0,0
328117,61.9371,-488.317,0,0
328377,62.3095,-487.811,0,0
328638,62.7118,-487.382,0,0
328898,63.0636,-486.893,0,0
329158,63.3562,-486.516,0,0
329419,63.7048,-486.096,0,0
329679,64.0402,-485.767,0,0
329939,64.3448,-485.438,0,0
330200,64.5917,-485.1,0,0
330460,64.8814,-484.871,0,0
330720.15,65.0842,-484.637,0,0
330980.475,65.2733,-484.481,0,0
331240.8,65.3865,-484.343,0,0
331501.125,65.4442,-484.139,0,0
331761.45,65.4767,-484.101,0,0
332021.775,65.4454,-484.031,0,0
332282.1,65.2668,-483.995,0,0
332542.425,65.0895,-483.927,0,0
332802.75,64.7864,-483.792,0,0
333063.075,64.4235,-483.684,0,0
333323.4,64.0159,-483.461,0,0
333583.725,63.5593,-483.193,0,0
333844.05,63.1478,-482.934,0,0
334104.375,62.602,-482.505,0,0
334364.7,62.1682,-482.054,0,0
334625.025,61.6171,-481.594,0,0
334885.35,61.182,-481.081,0,0
335145.675,60.7036,-480.48,0,0
335406.0,60.2988,-479.926,0,0
335666.325,59.822,-479.302,0,0
335926.65,59.4373,-478.68,0,0
336186.975,59.0107,-478.008,0,0
336447.3,58.5926,-477.305,0,0
336707.625,58.1935,-476.628,0,0
336967.95,57.7856,-475.841,0,0
337228.275,57.4217,-475.119,0,0
337488.6,57.0843,-474.334,0,0
337748.925,56.7887,-473.514,0,0
338009.25,56.4383,-472.72,0,0
338269.575,56.16,-471.895,0,0
338529.9,55.9533,-471.067,0,0
338790.225,55.6737,-470.261,0,0
339050.55,55.4422,-469.424,0,0
339310.875,55.2476,-468.558,0,0
339571.2,55.0742,-467.688,0,0
339831.525,54.8656,-466.852,0,0
340091.85,54.7541,-466.023,0,0
340352.175,54.5717,-465.192,0,0
340612.5,54.4628,-464.288,0,0
340872.825,54.3225,-463.493,0,0
341133.15,54.2368,-462.655,0,0
341393.475,54.0976,-461.773,0,0
341653.8,54.0188,-460.933,0,0
341914.125,53.9672,-460.094,0,0
342174.45,53.9334,-459.2,0,0
342434.775,53.8695,-458.337,0,0
342695.1,53.8784,-457.444,0,0
342955.425,53.8037,-456.589,0,0
343215.75,53.8399,-455.716,0,0
343476.075,53.8906,-454.792,0,0
343736.4,53.9447,-453.921,0,0
343996.725,53.9888,-453.02,0,0
344257.05,54.0934,-452.269,0,0
344517.375,54.2299,-451.357,0,0
344777.7,54.2907,-450.494,0,0
345038.025,54.4634,-449.631,0,0
345298.35,54.6154,-448.83,0,0
345558.675,54.7976,-448.022,0,0
345819.0,55.045,-447.208,0,0
346079.325,55.2187,-446.438,0,0
346339.65,55.4817,-445.623,0,0
346599.975,55.6801,-444.89,0,0
346860,55.9542,-444.174,0,0
347121,56.2004,-443.413,0,0
347381,56.5045,-442.693,0,0
347641,56.7822,-442.02,0,0
347902,57.0029,-441.364,0,0
348162,57.296,-440.655,0,0
348422,57.5665,-439.976,0,0
348683,57.8532,-439.343,0,0
348943,58.1758,-438.65,0,0
349203,58.5381,-438.034,0,0
349464,58.9174,-437.437,0,0
349724,59.2548,-436.868,0,0
349984,59.6787,-436.257,0,0
350245,60.0158,-435.761,0,0
350505,60.4245,-435.32,0,0
350765,60.7988,-434.875,0,0
351025,61.1539,-434.448,0,0
351286,61.4435,-434.093,0,0
351546,61.7537,-433.7,0,0
351806,62,-433.357,0,0
352067,62.1989,-432.951,0,0
352327,62.4678,-432.56,0,0
352587,62.6872,-432.149,0,0
352848,62.9244,-431.791,0,0
353108,63.1241,-431.39,0,0
353368,63.3569,-430.936,0,0
353629,63.5957,-430.564,0,0
353889,63.8387,-430.163,0,0
354149,64.1002,-429.74,0,0
354410,64.3142,-429.393,0,0
354670,64.557,-428.962,0,0
354930,64.8174,-428.639,0,0
355191,65.0668,-428.316,0,0
355451,65.2826,-427.908,0,0
355711,65.5256,-427.526,0,0
355972,65.7874,-427.189,0,0
356232,66.0164,-426.908,0,0
356492,66.2791,-426.533,0,0
356753,66.5225,-426.185,0,0
357013,66.7817,-425.865,0,0
357273,67.0982,-425.524,0,0
357534,67.4245,-425.216,0,0
357794,67.7087,-424.919,0,0
358054,68.0336,-424.622,0,0
358315,68.3847,-424.4,0,0
358575,68.7691,-424.162,0,0
358835,69.1071,-423.981,0,0
359096,69.4589,-423.88,0,0
359356,69.7706,-423.751,0,0
359616,70.1308,-423.761,0,0
359877,70.4041,-423.814,0,0
360137,70.6768,-423.848,0,0
360397,70.8197,-423.911,0,0
360658,71.0045,-423.985,0,0
360918,71.0681,-424.054,0,0
361178,71.1108,-424.09,0,0
361438,71.1948,-424.109,0,0
361699,71.171,-424.174,0,0
361959,71.1368,-424.196,0,0
362219,71.0716,-424.177,0,0
362480,71.1051,-424.186,0,0
362740.1,70.998,-424.17,0,0
363000.425,70.9425,-424.151,0,0
363260.75,70.8533,-424.206,0,0
363521.075,70.7804,-424.182,0,0
363781.4,70.6336,-424.182,0,0
364041.725,70.4594,-424.188,0,0
364302.05,70.3019,-424.129,0,0
364562.375,70.0712,-424.076,0,0
364822.7,69.9031,-423.981,0,0
365083.025,69.6337,-423.855,0,0
365343.35,69.3511,-423.691,0,0
365603.675,69.1305,-423.545,0,0
365864.0,68.8709,-423.379,0,0
366124.325,68.617,-423.147,0,0
366384.65,68.3525,-422.893,0,0
366644.975,68.1713,-422.604,0,0
366905.3,67.9804,-422.323,0,0
367165.625,67.8153,-421.988,0,0
367425.95,67.6749,-421.713,0,0
367686.275,67.5463,-421.386,0,0
367946.6,67.4613,-421.105,0,0
368206.925,67.4245,-420.832,0,0
368467.25,67.4089,-420.561,0,0
368727.575,67.432,-420.343,0,0
368987.9,67.3816,-420.153,0,0
369248.225,67.3515,-420.022,0,0
369508.55,67.3612,-419.891,0,0
369768.875,67.2974,-419.828,0,0
370029.2,67.1571,-419.791,0,0
370289.525,66.9846,-419.738,0,0
370549.85,66.7984,-419.691,0,0
370810.175,66.5606,-419.575,0,0
371070.5,66.2823,-419.446,0,0
371330.825,65.9639,-419.301,0,0
371591.15,65.7363,-419.126,0,0
371851.475,65.463,-418.96,0,0
372111.8,65.2141,-418.774,0,0
372372.125,64.9846,-418.549,0,0
372632.45,64.7428,-418.359,0,0
372892.775,64.5098,-418.141,0,0
373153.1,64.2706,-417.929,0,0
373413.425,64.0668,-417.726,0,0
373673.75,63.8061,-417.528,0,0
373934.075,63.5584,-417.355,0,0
374194.4,63.283,-417.178,0,0
374454.725,63.0344,-417.013,0,0
374715.05,62.6867,-416.811,0,0
374975.375,62.3987,-416.606,0,0
375235.7,62.0423,-416.385,0,0
375496.025,61.7384,-416.179,0,0
375756.35,61.3865,-415.938,0,0
376016.675,61.0171,-415.694,0,0
376277.0,60.6944,-415.416,0,0
376537.325,60.3578,-415.08,0,0
376797.65,60.0123,-414.75,0,0
377057.975,59.7855,-414.455,0,0
377318.3,59.511,-414.161,0,0
377578.625,59.2069,-413.904,0,0
377838.95,58.9264,-413.695,0,0
378099.275,58.6624,-413.554,0,0
378359.6,58.3082,-413.386,0,0
378619.925,57.8718,-413.186,0,0
378880,57.3593,-413.068,0,0
379141,56.7398,-412.815,0,0
379401,56.0905,-412.52,0,0
379661,55.4197,-412.077,0,0
379922,54.7894,-411.561,0,0
380182,54.154,-410.854,0,0
380442,53.6275,-410.119,0,0
380703,53.2368,-409.269,0,0
380963,53.0003,-408.494,0,0
381223,52.857,-407.673,0,0
381483,52.8022,-407.028,0,0
381744,52.8381,-406.479,0,0
382004,52.8228,-406.02,0,0
382264,52.8023,-405.667,0,0
382525,52.6871,-405.297,0,0
382785,52.562,-405.043,0,0
383045,52.3172,-404.739,0,0
383306,52.0485,-404.462,0,0
383566,51.7431,-404.15,0,0
383826,51.4404,-403.842,0,0
384087,51.0182,-403.425,0,0
384347,50.6395,-403.006,0,0
384607,50.2749,-402.572,0,0
384868,49.8863,-402.101,0,0
385128,49.5304,-401.632,0,0
385388,49.1178,-401.073,0,0
385649,48.7573,-400.578,0,0
385909,48.4032,-400.032,0,0
386169,48.011,-399.444,0,0
386430,47.6456,-398.892,0,0
386690,47.2746,-398.299,0,0
386950,46.9673,-397.607,0,0
387211,46.6269,-396.962,0,0
387471,46.3155,-396.264,0,0
387731,46.0359,-395.575,0,0
387992,45.8146,-394.854,0,0
388252,45.6227,-394.152,0,0
388512,45.4149,-393.396,0,0
388773,45.2596,-392.668,0,0
389033,45.1124,-391.916,0,0
389293,45.0382,-391.193,0,0
389554,44.973,-390.462,0,0
389814,44.9901,-389.774,0,0
390074,45.0176,-389.105,0,0
390335,45.0724,-388.47,0,0
390595,45.1659,-387.891,0,0
390855,45.2331,-387.347,0,0
391116,45.294,-386.883,0,0
391376,45.4032,-386.49,0,0
391636,45.3864,-386.105,0,0
391896,45.3106,-385.734,0,0
392157,45.2003,-385.412,0,0
392417,45.0592,-385.119,0,0
392677,44.8334,-384.773,0,0
392938,44.5889,-384.388,0,0
393198,44.2962,-383.961,0,0
393458,43.9431,-383.529,0,0
393719,43.5809,-383.03,0,0
393979,43.2227,-382.452,0,0
394239,42.8898,-381.866,0,0
394500,42.5232,-381.191,0,0
394760.05,42.2185,-380.498,0,0
395020.375,41.9311,-379.736,0,0
395280.7,41.7129,-378.984,0,0
395541.025,41.5036,-378.167,0,0
395801.35,41.3144,-377.373,0,0
396061.675,41.1653,-376.6,0,0
396322.0,41.0658,-375.763,0,0
396582.325,40.9996,-374.993,0,0
396842.65,40.926,-374.164,0,0
397102.975,40.9068,-373.383,0,0
397363.3,40.9191,-372.605,0,0
397623.625,40.9312,-371.831,0,0
397883.95,40.9785,-371.021,0,0
398144.275,41.0471,-370.265,0,0
398404.6,41.1178,-369.538,0,0
398664.925,41.2219,-368.811,0,0
398925.25,41.3193,-368.08,0,0
399185.575,41.4513,-367.362,0,0
399445.9,41.5668,-366.68,0,0
399706.225,41.7032,-366.041,0,0
399966.55,41.8588,-365.36,0,0
400006.6,41.8902,-365.26,0,0