File: Accelerated corrosion test data/2025-10-04_06-00-03/sample_1.csv
Frequency (Hz),Impedance (ohms),Phase (Radians),Temperature (C),Humidity (%)
10000.0,238.324,-12226.9,0,0
10260.325,247.106,-11912.9,0,0
10520.65,231.789,-11633.5,0,0
10780.975,253.509,-11348.3,0,0
11041.3,222.068,-11088.4,0,0
11301.625,210.587,-10829.7,0,0
11561.95,209.284,-10585.6,0,0
11822.275,209.466,-10346.7,0,0
12082.6,223.125,-10113.9,0,0
12342.925,207.814,-9939.17,0,0
12603.25,193.705,-9728.22,0,0
12863.575,189.372,-9525.66,0,0
13123.9,194.346,-9332.73,0,0
13384.225,185.279,-9161.66,0,0
13644.55,178.59,-8980.6,0,0
13904.875,180.471,-8801.58,0,0
14165.2,186.908,-8662.8,0,0
14425.525,223.153,-8500.94,0,0
14685.8,207.249,-8331.97,0,0
14946.175,185.608,-8233.54,0,0
15206.5,186.515,-8072.58,0,0
15466.825,174.132,-7945.08,0,0
15727.15,167.935,-7824.88,0,0
15987.5,158.041,-7690.41,0,0
16247.8,159.797,-7565.52,0,0
16508.125,161.008,-7442.08,0,0
16768.45,160.334,-7324.17,0,0
17028.775,160.807,-7217.61,0,0
17289.1,150.8,-7113.32,0,0
17549.425,157.473,-7007.76,0,0
17809.75,146.377,-6905.07,0,0
18070.075,144.568,-6806.85,0,0
18330.4,141.753,-6710.68,0,0
18590.725,136.011,-6614.92,0,0
18851.05,137.856,-6516.93,0,0
19111.375,134.687,-6435.19,0,0
19371.7,131.629,-6342.93,0,0
19632.025,134.509,-6254.51,0,0
19892.35,132.341,-6168.01,0,0
20152.675,140.783,-6080.42,0,0
20413.0,154.969,-5992.77,0,0
20673.3,166.745,-5951.78,0,0
20933.65,149.878,-5882.76,0,0
21193.975,155.462,-5816.63,0,0
21454.3,145.76,-5744.41,0,0
21714.625,136.508,-5679.18,0,0
21974.9,134.867,-5591.73,0,0
22235.275,174.265,-5546.68,0,0
22495.6,140.626,-5506.79,0,0
22755.925,125.979,-5437.61,0,0
23016.25,124.212,-5370.79,0,0
23276.6,117.608,-5309.18,0,0
23536.9,117.393,-5248.82,0,0
23797.225,111.816,-5187.14,0,0
24057.55,115.654,-5126.34,0,0
24317.875,111.384,-5077.94,0,0
24578.2,110.157,-5018.01,0,0
24838.525,109.406,-4967.97,0,0
25098.85,110.557,-4914.03,0,0
25359.175,105.421,-4864.41,0,0
25619.5,103.406,-4812.9,0,0
25879.8,102.932,-4762.06,0,0
26140.1,102.709,-4712.03,0,0
26400.5,106.025,-4662.13,0,0
26660.8,107.469,-4611.17,0,0
26921.1,117.94,-4564.69,0,0
27181.4,120.749,-4529.86,0,0
27441.8,112.791,-4496.86,0,0
27702.1,104.908,-4447.6,0,0
27962.4,111.881,-4398.43,0,0
28222.7,110.247,-4360.13,0,0
28483.1,120.386,-4315.58,0,0
28743.4,131.545,-4298.17,0,0
29003.7,115.879,-4263.5,0,0
29264,118.537,-4227.03,0,0
29524.4,107.377,-4193.19,0,0
29784.7,104.587,-4150.79,0,0
30045,100.783,-4118.69,0,0
30305.3,99.1838,-4079.58,0,0
30565.7,97.3303,-4041.21,0,0
30826,99.9086,-4006.5,0,0
31086.3,103.242,-3978.36,0,0
31346.6,98.1249,-3948.7,0,0
31607,93.4221,-3911.95,0,0
31867.3,96.3744,-3877.78,0,0
32127.6,97.8489,-3847.47,0,0
32387.9,96.8612,-3821.47,0,0
32648.3,92.2847,-3789.27,0,0
32908.6,94.0147,-3760.38,0,0
33168.9,89.9565,-3731.93,0,0
33429.2,88.4474,-3703.43,0,0
33689.6,85.5365,-3673.66,0,0
33949.9,84.9301,-3642.19,0,0
34210.2,86.0908,-3616.56,0,0
34470.5,83.6241,-3588.91,0,0
34730.9,81.8807,-3561.83,0,0
34991.2,80.7832,-3534.63,0,0
35251.5,80.2066,-3507.76,0,0
35511.8,79.1203,-3481.19,0,0
35772.2,78.8066,-3455.37,0,0
36032.5,77.3565,-3430.01,0,0
36292.8,76.8223,-3404.73,0,0
36553.1,76.1181,-3380.07,0,0
36813.5,75.5455,-3355.23,0,0
37073.8,75.6664,-3331.14,0,0
37334.1,74.744,-3307.58,0,0
37594.4,74.5866,-3284.33,0,0
37854.8,73.8482,-3261.4,0,0
38115.1,73.4927,-3238.56,0,0
38375.4,72.6478,-3215.75,0,0
38635.7,72.4921,-3193.91,0,0
38896.1,72.0383,-3171.56,0,0
39156.4,71.7822,-3149.84,0,0
39416.7,71.7412,-3129.37,0,0
39677,70.7183,-3108.05,0,0
39937.4,70.7244,-3086.86,0,0
40197.7,70.8433,-3066.3,0,0
40458,70.2269,-3046.21,0,0
40718.3,70.5545,-3025.39,0,0
40978.7,71.6812,-3006.18,0,0
41239,72.0636,-2987.75,0,0
41499.3,71.3794,-2969.95,0,0
41759.6,70.3119,-2951.24,0,0
42020,70.0113,-2931.7,0,0
42280.275,70.2199,-2913.08,0,0
42540.6,70.5324,-2895.45,0,0
42800.925,70.1253,-2878.53,0,0
43061.25,69.2499,-2860.54,0,0
43321.575,68.6919,-2843.35,0,0
43581.9,68.0065,-2826.04,0,0
43842.225,67.2965,-2808.01,0,0
44102.55,67.9771,-2790.53,0,0
44362.875,68.3615,-2773.59,0,0
44623.2,68.8735,-2758.35,0,0
44883.525,68.2173,-2742.44,0,0
45143.85,68.3545,-2726.63,0,0
45404.175,68.6897,-2711.37,0,0
45664.5,67.7855,-2696.34,0,0
45924.825,67.0078,-2680.71,0,0
46185.15,66.3425,-2665.69,0,0
46445.475,65.6667,-2650.19,0,0
46705.8,64.9478,-2634.95,0,0
46966.125,64.6096,-2620.37,0,0
47226.45,64.5137,-2604.86,0,0
47486.775,64.3131,-2590.75,0,0
47747.1,63.6318,-2576.36,0,0
48007.425,63.3557,-2562.22,0,0
48267.75,63.1599,-2547.99,0,0
48528.075,62.1894,-2534.44,0,0
48788.4,62.024,-2520.13,0,0
49048.725,61.892,-2506.13,0,0
49309.05,61.6439,-2492.4,0,0
49569.375,61.097,-2479.06,0,0
49829.7,60.5604,-2465.75,0,0
50090.025,60.5094,-2452.82,0,0
50350.35,59.7691,-2439.45,0,0
50610.675,59.9792,-2426.33,0,0
50871.0,59.2985,-2413.19,0,0
51131.325,59.1853,-2400.44,0,0
51391.65,59.4289,-2388.14,0,0
51651.975,58.7062,-2375.81,0,0
51912.3,58.3589,-2363.12,0,0
52172.625,58.2069,-2350.95,0,0
52432.95,57.7027,-2338.77,0,0
52693.275,57.4493,-2326.71,0,0
52953.6,57.4032,-2314.58,0,0
53213.925,57.4948,-2302.79,0,0
53474.25,57.7346,-2291.42,0,0
53734.575,57.169,-2279.77,0,0
53994.9,57.4761,-2268.7,0,0
54255.225,57.0644,-2257.57,0,0
54515.55,56.2795,-2246.23,0,0
54775.875,56.0656,-2235.11,0,0
55036.2,55.9263,-2223.66,0,0
55296.525,55.8805,-2212.6,0,0
55556.85,55.7723,-2202.15,0,0
55817.175,55.7988,-2191.51,0,0
56077.5,54.9984,-2180.75,0,0
56337.825,54.8935,-2169.87,0,0
56598.15,54.9199,-2159.4,0,0
56858.475,54.706,-2149.1,0,0
57118.8,54.4743,-2138.75,0,0
57379.125,54.5898,-2128.25,0,0
57639.45,54.6386,-2118.2,0,0
57899.775,54.7937,-2108.4,0,0
58160.1,54.7615,-2098.47,0,0
58420.4,54.5187,-2088.67,0,0
58680.7,54.5671,-2078.87,0,0
58941.1,54.6146,-2068.97,0,0
59201.4,54.4819,-2059.33,0,0
59461.7,54.424,-2050.28,0,0
59722,54.0462,-2040.77,0,0
59982.4,54.4911,-2031.42,0,0
60242.7,53.9596,-2022.12,0,0
60503,54.44,-2012.88,0,0
60763.3,54.4878,-2004.29,0,0
61023.7,54.0028,-1995.59,0,0
61284,53.3686,-1986.5,0,0
61544.3,53.3989,-1977.38,0,0
61804.6,53.4624,-1968.61,0,0
62065,53.2806,-1960.19,0,0
62325.3,52.5644,-1951.32,0,0
62585.6,52.6657,-1942.41,0,0
62845.9,52.6177,-1933.52,0,0
63106.3,52.9092,-1925.05,0,0
63366.6,52.4218,-1916.51,0,0
63626.9,52.7713,-1907.89,0,0
63887.2,52.7657,-1899.43,0,0
64147.6,52.6885,-1891.18,0,0
64407.9,52.8673,-1882.86,0,0
64668.2,53.0908,-1874.39,0,0
64928.5,53.3599,-1866.23,0,0
65188.9,54.1651,-1858.16,0,0
65449.2,54.6848,-1850.51,0,0
65709.5,55.511,-1843.64,0,0
65969.8,55.3333,-1836.52,0,0
66230.2,54.8852,-1829.29,0,0
66490.5,54.5747,-1821.91,0,0
66750.8,54.7352,-1814.66,0,0
67011.1,54.194,-1807.83,0,0
67271.5,53.623,-1799.42,0,0
67531.8,54.2615,-1792.06,0,0
67792.1,54.7554,-1785.37,0,0
68052.4,54.1694,-1778.93,0,0
68312.8,53.4213,-1771.68,0,0
68573.1,53.2136,-1764.21,0,0
68833.4,53.3836,-1757.13,0,0
69093.7,53.1457,-1750.4,0,0
69354.1,53.1851,-1743.43,0,0
69614.4,52.7283,-1737.07,0,0
69874.7,52.2415,-1730.15,0,0
70135,51.6909,-1723.25,0,0
70395.4,51.1547,-1716.35,0,0
70655.7,50.8854,-1709.37,0,0
70916,50.7247,-1702.43,0,0
71176.3,50.4461,-1695.55,0,0
71436.7,50.4412,-1689.05,0,0
71697,49.6839,-1682.55,0,0
71957.3,49.1538,-1675.69,0,0
72217.6,48.886,-1668.66,0,0
72478,48.7225,-1661.96,0,0
72738.3,48.3587,-1655.01,0,0
72998.6,48.2848,-1648.2,0,0
73258.9,48.3377,-1641.55,0,0
73519.3,48.197,-1635.04,0,0
73779.6,48.1622,-1628.32,0,0
74039.9,48.1336,-1621.72,0,0
74300.225,48.1101,-1615.2,0,0
74560.55,48.1786,-1608.71,0,0
74820.875,48.4763,-1602.34,0,0
75081.2,48.3413,-1596.16,0,0
75341.525,48.3736,-1589.91,0,0
75601.85,48.3342,-1583.45,0,0
75862.175,48.5703,-1577.03,0,0
76122.5,49.0484,-1570.87,0,0
76382.825,49.3983,-1564.91,0,0
76643.15,49.7331,-1559.17,0,0
76903.475,49.5504,-1553.1,0,0
77163.8,49.8929,-1547.11,0,0
77424.125,49.9793,-1541.44,0,0
77684.45,50.0593,-1535.47,0,0
77944.775,50.3444,-1529.56,0,0
78205.1,50.7058,-1523.59,0,0
78465.425,51.3829,-1518.06,0,0
78725.75,51.8072,-1512.94,0,0
78986.075,51.9216,-1507.75,0,0
79246.4,51.8569,-1502.57,0,0
79506.725,51.8968,-1497.32,0,0
79767.05,51.5967,-1492.2,0,0
80027.375,51.3042,-1486.72,0,0
80287.7,50.9366,-1481.35,0,0
80548.025,50.7974,-1475.6,0,0
80808.35,50.7978,-1470.15,0,0
81068.675,50.6757,-1464.59,0,0
81329.0,50.8625,-1459.04,0,0
81589.325,50.9344,-1453.67,0,0
81849.65,50.9103,-1448.33,0,0
82109.975,50.9491,-1442.85,0,0
82370.3,50.9163,-1437.49,0,0
82630.625,51.0471,-1432.08,0,0
82890.95,51.08,-1426.61,0,0
83151.275,51.3534,-1421,0,0
83411.6,51.7939,-1415.8,0,0
83671.925,52.1088,-1410.59,0,0
83932.25,52.4981,-1405.24,0,0
84192.575,52.9362,-1400.28,0,0
84452.9,53.3457,-1395.26,0,0
84713.225,53.6622,-1390.18,0,0
84973.55,54.237,-1385.35,0,0
85233.875,54.6338,-1380.59,0,0
85494.2,54.9079,-1375.96,0,0
85754.525,55.1102,-1371.21,0,0
86014.85,55.2133,-1366.48,0,0
86275.175,55.5519,-1361.68,0,0
86535.5,55.8364,-1356.94,0,0
86795.825,55.9806,-1352.32,0,0
87056.15,56.2887,-1347.51,0,0
87316.475,56.7489,-1343.1,0,0
87576.8,56.6199,-1338.84,0,0
87837.125,56.3792,-1334.06,0,0
88097.45,56.4354,-1329.17,0,0
88357.775,56.5545,-1324.21,0,0
88618.1,56.8472,-1319.21,0,0
88878.425,57.0059,-1314.66,0,0
89138.75,57.2023,-1309.69,0,0
89399.075,57.7117,-1304.57,0,0
89659.4,58.4628,-1299.68,0,0
89919.725,59.1541,-1294.67,0,0
90180,60.2027,-1289.88,0,0
90440.4,61.0847,-1285.64,0,0
90700.7,61.5955,-1281.07,0,0
90961,62.6389,-1276.25,0,0
91221.3,63.9404,-1271.65,0,0
91481.7,65.4053,-1267.35,0,0
91742,66.8767,-1263.58,0,0
92002.3,68.0622,-1259.87,0,0
92262.6,69.1704,-1256.04,0,0
92523,70.5079,-1252.29,0,0
92783.3,72.1501,-1248.8,0,0
93043.6,73.6222,-1245.72,0,0
93303.9,75.5366,-1242.76,0,0
93564.3,77.5201,-1240.7,0,0
93824.6,79.0667,-1240.18,0,0
94084.9,78.2955,-1239.94,0,0
94345.2,76.1994,-1238.64,0,0
94605.6,74.1297,-1235.35,0,0
94865.9,73.2773,-1232.37,0,0
95126.2,71.4445,-1229.49,0,0
95386.5,69.964,-1225.65,0,0
95646.9,68.6092,-1221.72,0,0
95907.2,67.3658,-1217.38,0,0
96167.5,66.896,-1212.8,0,0
96427.8,66.8383,-1209,0,0
96688.2,66.0391,-1205.32,0,0
96948.5,65.1461,-1201.23,0,0
97208.8,64.465,-1196.69,0,0
97469.1,64.4349,-1192.23,0,0
97729.5,64.4993,-1188.09,0,0
97989.8,64.4515,-1184.11,0,0
98250.1,64.46,-1180.37,0,0
98510.4,64.0953,-1176.6,0,0
98770.8,63.734,-1172.5,0,0
99031.1,63.5837,-1168.36,0,0
99291.4,63.4661,-1164.27,0,0
99551.7,63.4233,-1160.18,0,0
99812.1,63.4487,-1156.03,0,0
100072,63.6843,-1152.03,0,0
100333,63.7793,-1148.25,0,0
100593,63.7888,-1144.27,0,0
100853,63.8357,-1140.46,0,0
101114,63.7811,-1136.65,0,0
101374,63.6706,-1132.84,0,0
101634,63.2245,-1128.93,0,0
101895,62.7048,-1124.44,0,0
102155,62.7003,-1119.48,0,0
102415,63.2177,-1114.56,0,0
102676,64.1862,-1109.97,0,0
102936,65.1872,-1105.69,0,0
103196,66.2121,-1101.62,0,0
103457,67.0657,-1097.65,0,0
103717,67.8692,-1093.42,0,0
103977,69.1588,-1088.97,0,0
104238,70.8659,-1085.12,0,0
104498,72.4929,-1081.82,0,0
104758,73.6294,-1078.67,0,0
105019,74.7235,-1075.38,0,0
105279,75.9104,-1071.94,0,0
105539,77.161,-1068.55,0,0
105800,78.6623,-1065.32,0,0
106060,80.1232,-1062.37,0,0
106320.175,81.3597,-1059.45,0,0
106580.5,82.7855,-1056.51,0,0
106840.825,84.3586,-1053.9,0,0
107101.15,85.8121,-1051.61,0,0
107361.475,86.9742,-1049.46,0,0
107621.8,87.8149,-1047.31,0,0
107882.125,88.5245,-1044.84,0,0
108142.45,89.6509,-1042.35,0,0
108402.775,90.7259,-1040.16,0,0
108663.1,91.7631,-1038.12,0,0
108923.425,92.7483,-1036.28,0,0
109183.75,93.4184,-1034.67,0,0
109444.075,93.7846,-1033,0,0
109704.4,94.0566,-1031.15,0,0
109964.725,94.2327,-1029.39,0,0
110225.05,94.0297,-1027.32,0,0
110485.375,94.1141,-1025.25,0,0
110745.7,94.0206,-1023.08,0,0
111006.025,94.1113,-1020.61,0,0
111266.35,94.4653,-1018.11,0,0
111526.675,94.6073,-1015.59,0,0
111787.0,95.179,-1013.49,0,0
112047.325,95.5259,-1011.45,0,0
112307.65,96.0459,-1009.28,0,0
112567.975,96.5145,-1007.52,0,0
112828.3,96.8405,-1005.79,0,0
113088.625,96.9217,-1004.21,0,0
113348.95,96.9791,-1002.73,0,0
113609.275,96.8922,-1001.29,0,0
113869.6,96.6338,-999.834,0,0
114129.925,95.9821,-998.411,0,0
114390.25,95.2306,-996.689,0,0
114650.575,94.4383,-994.847,0,0
114910.9,93.6167,-992.934,0,0
115171.225,92.8061,-990.923,0,0
115431.55,91.8699,-989.007,0,0
115691.875,90.6714,-986.946,0,0
115952.2,89.4178,-984.434,0,0
116212.525,88.3246,-981.803,0,0
116472.85,87.3321,-979.042,0,0
116733.175,86.5516,-976.404,0,0
116993.5,85.6293,-973.633,0,0
117253.825,84.6548,-970.714,0,0
117514.15,83.9452,-967.658,0,0
117774.475,83.2044,-964.585,0,0
118034.8,82.5949,-961.397,0,0
118295.125,82.213,-958.159,0,0
118555.45,81.8124,-954.922,0,0
118815.775,81.7373,-951.816,0,0
119076.1,81.5238,-948.764,0,0
119336.425,81.4891,-945.666,0,0
119596.75,81.5632,-942.739,0,0
119857.075,81.5237,-939.834,0,0
120117.4,81.6156,-936.929,0,0
120377.725,81.7767,-934.187,0,0
120638.05,82.021,-931.51,0,0
120898.375,81.9988,-929.083,0,0
121158.7,81.8207,-926.586,0,0
121419.025,81.7168,-924.028,0,0
121679.35,81.4511,-921.692,0,0
121939.675,80.9473,-919.067,0,0
122200.0,80.5693,-916.28,0,0
122460,80.1901,-913.573,0,0
122721,79.7094,-910.663,0,0
122981,79.3846,-907.623,0,0
123241,79.2106,-904.559,0,0
123502,79.1286,-901.52,0,0
123762,79.001,-898.551,0,0
124022,78.9216,-895.5,0,0
124283,78.9606,-892.361,0,0
124543,79.1726,-889.359,0,0
124803,79.276,-886.425,0,0
125064,79.4013,-883.597,0,0
125324,79.4854,-880.579,0,0
125584,79.6822,-877.587,0,0
125845,79.9959,-874.717,0,0
126105,80.2034,-871.866,0,0
126365,80.4708,-868.959,0,0
126626,80.7208,-866.178,0,0
126886,80.9109,-863.384,0,0
127146,81.0467,-860.342,0,0
127406,81.2807,-857.467,0,0
127667,81.4911,-854.562,0,0
127927,81.9328,-851.485,0,0
128187,82.3409,-848.463,0,0
128448,82.8949,-845.507,0,0
128708,83.5719,-842.625,0,0
128968,84.0811,-839.818,0,0
129229,84.626,-836.952,0,0
129489,85.3219,-834.026,0,0
129749,86.0478,-831.073,0,0
130010,86.9811,-828.274,0,0
130270,87.9374,-825.476,0,0
130530,89.019,-822.883,0,0
130791,90.1038,-820.444,0,0
131051,91.1525,-818.136,0,0
131311,92.0889,-815.947,0,0
131572,92.975,-813.824,0,0
131832,93.7693,-811.667,0,0
132092,94.5916,-809.544,0,0
132353,95.2899,-807.484,0,0
132613,95.9302,-805.354,0,0
132873,96.6706,-803.26,0,0
133134,97.4062,-801.212,0,0
133394,98.1146,-799.261,0,0
133654,98.7173,-797.208,0,0
133915,99.3243,-795.357,0,0
134175,99.7449,-793.408,0,0
134435,100.16,-791.423,0,0
134696,100.536,-789.329,0,0
134956,100.945,-787.096,0,0
135216,101.529,-784.82,0,0
135477,102.133,-782.749,0,0
135737,102.698,-780.602,0,0
135997,103.303,-778.342,0,0
136258,104.102,-776.217,0,0
136518,104.933,-774.132,0,0
136778,105.752,-772.163,0,0
137039,106.648,-770.186,0,0
137299,107.53,-768.314,0,0
137559,108.62,-766.577,0,0
137819,109.629,-765.273,0,0
138080,110.32,-764.082,0,0
138340.125,110.843,-763.011,0,0
138600.45,110.934,-761.865,0,0
138860.775,110.913,-760.528,0,0
139121.1,110.853,-758.994,0,0
139381.425,110.814,-757.346,0,0
139641.75,110.807,-755.769,0,0
139902.075,110.629,-754.141,0,0
140162.4,110.32,-752.321,0,0
140422.725,110.103,-750.225,0,0
140683.05,110.011,-748.118,0,0
140943.375,110.016,-746.02,0,0
141203.7,110.007,-743.867,0,0
141464.025,110.116,-741.666,0,0
141724.35,110.183,-739.51,0,0
141984.675,110.248,-737.211,0,0
142245.0,110.6,-734.862,0,0
142505.325,111.028,-732.827,0,0
142765.65,111.28,-730.838,0,0
143025.975,111.569,-728.735,0,0
143286.3,111.778,-726.872,0,0
143546.625,111.721,-724.74,0,0
143806.95,111.776,-722.484,0,0
144067.275,111.917,-720.057,0,0
144327.6,112.268,-717.638,0,0
144587.925,112.682,-715.337,0,0
144848.25,113.073,-712.991,0,0
145108.575,113.578,-710.58,0,0
145368.9,114.191,-708.32,0,0
145629.225,114.822,-706.107,0,0
145889.55,115.477,-703.986,0,0
146149.875,116.13,-701.961,0,0
146410.2,116.652,-699.869,0,0
146670.525,117.374,-697.678,0,0
146930.85,118.248,-695.801,0,0
147191.175,118.818,-694.129,0,0
147451.5,119.234,-692.233,0,0
147711.825,119.855,-690.404,0,0
147972.15,120.318,-688.688,0,0
148232.475,120.624,-686.958,0,0
148492.8,120.919,-685.098,0,0
148753.125,121.135,-683.223,0,0
149013.45,121.356,-681.164,0,0
149273.775,121.78,-679.148,0,0
149534.1,122.191,-677.224,0,0
149794.425,122.513,-675.411,0,0
150054.75,122.763,-673.587,0,0
150315.075,122.888,-671.738,0,0
150575.4,122.881,-669.892,0,0
150835.725,122.84,-667.893,0,0
151096.05,122.627,-665.853,0,0
151356.375,122.333,-663.487,0,0
151616.7,122.227,-660.917,0,0
151877.025,122.229,-658.342,0,0
152137.35,122.223,-655.709,0,0
152397.675,122.191,-652.986,0,0
152658.0,122.224,-650.07,0,0
152918.325,122.381,-646.927,0,0
153178.65,122.885,-643.714,0,0
153438.975,123.518,-640.732,0,0
153699.3,123.987,-637.806,0,0
153959.625,124.338,-634.608,0,0
154219.95,124.918,-631.127,0,0
154480,125.722,-627.599,0,0
154741,126.81,-623.839,0,0
155001,128.366,-620.151,0,0
155261,130.08,-616.793,0,0
155522,131.821,-613.428,0,0
155782,133.817,-610.059,0,0
156042,136.06,-606.925,0,0
156303,138.344,-604.001,0,0
156563,140.633,-601.158,0,0
156823,143.142,-598.35,0,0
157084,145.838,-595.827,0,0
157344,148.536,-593.552,0,0
157604,151.196,-591.588,0,0
157864,153.69,-589.816,0,0
158125,156.032,-588.179,0,0
158385,157.939,-586.54,0,0
158645,159.751,-584.504,0,0
158906,161.693,-582.323,0,0
159166,163.745,-579.883,0,0
159426,166.326,-577.325,0,0
159687,169.09,-575.037,0,0
159947,171.932,-572.75,0,0
160207,175.01,-570.397,0,0
160468,178.528,-568.291,0,0
160728,182.44,-566.685,0,0
160988,186.339,-565.562,0,0
161249,190.163,-564.874,0,0
161509,193.707,-564.652,0,0
161769,196.797,-564.47,0,0
162030,199.858,-564.167,0,0
162290,202.985,-564.078,0,0
162550,205.909,-564.126,0,0
162811,208.739,-564.181,0,0
163071,211.537,-564.226,0,0
163331,214.446,-564.408,0,0
163592,217.336,-564.942,0,0
163852,219.837,-565.663,0,0
164112,222.028,-566.323,0,0
164373,224.006,-566.59,0,0
164633,226.45,-566.574,0,0
164893,229.325,-566.756,0,0
165154,232.37,-567.355,0,0
165414,235.631,-568.418,0,0
165674,238.756,-570.172,0,0
165935,241.466,-572.438,0,0
166195,243.7,-574.909,0,0
166455,245.437,-577.622,0,0
166716,246.721,-580.319,0,0
166976,247.591,-583.089,0,0
167236,247.983,-585.79,0,0
167497,247.988,-588.143,0,0
167757,247.909,-590.296,0,0
168017,247.739,-592.498,0,0
168277,247.225,-594.695,0,0
168538,246.384,-596.661,0,0
168798,245.308,-598.434,0,0
169058,244.075,-599.902,0,0
169319,242.812,-601.297,0,0
169579,241.125,-602.732,0,0
169839,238.985,-603.542,0,0
170100,237.092,-603.638,0,0
170360.075,235.343,-603.519,0,0
170620.4,233.756,-603.165,0,0
170880.725,232.454,-602.608,0,0
171141.05,231.46,-602.043,0,0
171401.375,230.568,-601.654,0,0
171661.7,229.628,-601.367,0,0
171922.025,228.534,-601.238,0,0
172182.35,227.086,-600.843,0,0
172442.675,225.64,-599.999,0,0
172703.0,224.436,-598.926,0,0
172963.325,223.432,-597.747,0,0
173223.65,222.598,-596.518,0,0
173483.975,221.9,-595.344,0,0
173744.3,221.102,-594.12,0,0
174004.625,220.5,-592.603,0,0
174264.95,220.26,-591.09,0,0
174525.275,220.241,-589.666,0,0
174785.6,220.316,-588.449,0,0
175045.925,220.548,-587.301,0,0
175306.25,220.941,-586.415,0,0
175566.575,221.352,-585.926,0,0
175826.9,221.392,-585.753,0,0
176087.225,220.956,-585.486,0,0
176347.55,220.451,-584.895,0,0
176607.875,220.204,-584.216,0,0
176868.2,219.981,-583.837,0,0
177128.525,219.359,-583.541,0,0
177388.85,218.45,-582.876,0,0
177649.175,217.809,-581.886,0,0
177909.5,217.442,-580.985,0,0
178169.825,217.031,-580.232,0,0
178430.15,216.53,-579.501,0,0
178690.475,216.095,-578.738,0,0
178950.8,215.71,-578.132,0,0
179211.125,215.095,-577.705,0,0
179471.45,214.318,-577.253,0,0
179731.775,213.409,-576.634,0,0
179992.1,212.585,-576.212,0,0
180252.425,211.282,-575.931,0,0
180512.75,209.51,-575.218,0,0
180773.075,207.808,-573.926,0,0
181033.4,206.444,-572.52,0,0
181293.725,205.077,-571.196,0,0
181554.05,203.652,-569.766,0,0
181814.375,202.227,-568.3,0,0
182074.7,200.7,-566.874,0,0
182335.025,198.909,-565.241,0,0
182595.35,196.907,-563.279,0,0
182855.675,195.006,-560.806,0,0
183116.0,193.363,-558.033,0,0
183376.325,192,-555.125,0,0
183636.65,190.842,-552.075,0,0
183896.975,189.856,-548.985,0,0
184157.3,189.074,-545.8,0,0
184417.625,188.497,-542.57,0,0
184677.95,188.044,-539.398,0,0
184938.275,187.711,-536.192,0,0
185198.6,187.546,-532.92,0,0
185458.925,187.57,-529.702,0,0
185719.25,187.729,-526.605,0,0
185979.575,187.926,-523.496,0,0
186239.9,188.252,-520.466,0,0
186500,188.585,-517.559,0,0
186761,188.746,-514.73,0,0
187021,189.093,-511.737,0,0
187281,189.405,-508.612,0,0
187542,190,-505.558,0,0
187802,190.674,-502.712,0,0
188062,191.081,-499.992,0,0
188322,191.415,-497.108,0,0
188583,191.751,-493.955,0,0
188843,192.196,-490.702,0,0
189103,192.895,-487.406,0,0
189364,193.585,-484.01,0,0
189624,194.648,-480.463,0,0
189884,195.862,-477.085,0,0
190145,197.262,-473.977,0,0
190405,198.44,-470.965,0,0
190665,199.725,-467.963,0,0
190926,200.886,-464.794,0,0
191186,202.259,-461.757,0,0
191446,203.562,-458.819,0,0
191707,204.851,-455.665,0,0
191967,206.217,-452.38,0,0
192227,207.864,-449.193,0,0
192488,209.473,-446.252,0,0
192748,210.859,-443.322,0,0
193008,212.167,-440.128,0,0
193269,213.6,-436.748,0,0
193529,215.219,-433.122,0,0
193789,217.142,-429.521,0,0
194050,219.264,-426.086,0,0
194310,221.319,-422.697,0,0
194570,223.265,-419.311,0,0
194831,225.401,-415.695,0,0
195091,227.723,-411.916,0,0
195351,230.359,-408.244,0,0
195612,233.054,-404.602,0,0
195872,235.917,-401.103,0,0
196132,238.756,-397.512,0,0
196393,241.82,-393.891,0,0
196653,244.96,-390.168,0,0
196913,248.407,-386.538,0,0
197174,252.139,-382.91,0,0
197434,256.005,-379.624,0,0
197694,259.935,-376.427,0,0
197955,263.861,-373.372,0,0
198215,267.914,-370.427,0,0
198475,271.926,-367.565,0,0
198735,275.873,-364.79,0,0
198996,279.722,-361.794,0,0
199256,283.788,-358.67,0,0
199516,288.024,-355.547,0,0
199777,292.354,-352.393,0,0
200037,296.762,-349.223,0,0
200297,301.321,-345.762,0,0
200558,306.25,-342.1,0,0
200818,311.751,-338.404,0,0
201078,317.607,-334.895,0,0
201339,323.926,-331.503,0,0
201599,330.612,-328.392,0,0
201859,337.488,-325.671,0,0
202120,344.536,-323.043,0,0
202380.025,351.951,-320.502,0,0
202640.35,359.744,-318.222,0,0
202900.675,367.912,-316.411,0,0
203161.0,376.235,-314.885,0,0
203421.325,384.759,-313.688,0,0
203681.65,393.654,-312.608,0,0
203941.975,402.918,-312.011,0,0
204202.3,412.78,-311.692,0,0
204462.625,423.29,-312.148,0,0
204722.95,434.115,-313.863,0,0
204983.275,444.891,-316.624,0,0
205243.6,455.252,-320.446,0,0
205503.925,465.151,-325.069,0,0
205764.25,474.566,-330.444,0,0
206024.575,483.322,-336.446,0,0
206284.9,491.526,-342.735,0,0
206545.225,499.279,-349.332,0,0
206805.55,506.737,-356.551,0,0
207065.875,513.475,-364.407,0,0
207326.2,519.337,-372.652,0,0
207586.525,524.185,-381.104,0,0
207846.85,528.199,-389.176,0,0
208107.175,531.865,-397.083,0,0
208367.5,535.21,-405.067,0,0
208627.825,537.987,-413.27,0,0
208888.15,540.043,-421.525,0,0
209148.475,541.113,-429.648,0,0
209408.8,541.491,-437.417,0,0
209669.125,541.333,-444.561,0,0
209929.45,540.721,-451.228,0,0
210189.775,539.751,-457.491,0,0
210450.1,538.315,-463.257,0,0
210710.425,536.55,-468.284,0,0
210970.75,534.523,-472.795,0,0
211231.075,532.257,-476.407,0,0
211491.4,530.263,-479.062,0,0
211751.725,528.682,-481.18,0,0
212012.05,527.362,-482.733,0,0
212272.375,526.523,-483.549,0,0
212532.7,526.542,-483.9,0,0
212793.025,527.78,-484.219,0,0
213053.35,529.577,-485.127,0,0
213313.675,531.607,-486.647,0,0
213574.0,533.601,-488.363,0,0
213834.325,535.6,-490.052,0,0
214094.65,537.942,-491.79,0,0
214354.975,540.724,-493.781,0,0
214615.3,543.823,-496.3,0,0
214875.625,546.844,-499.507,0,0
215135.95,549.22,-503.191,0,0
215396.275,551.201,-506.848,0,0
215656.6,552.976,-510.385,0,0
215916.925,554.434,-514.103,0,0
216177.25,555.396,-517.495,0,0
216437.575,556.134,-520.195,0,0
216697.9,557.261,-522.223,0,0
216958.225,559.114,-523.874,0,0
217218.55,561.812,-525.689,0,0
217478.875,564.991,-527.983,0,0
217739.2,568.318,-531.032,0,0
217999.525,571.467,-534.453,0,0
218259.85,574.447,-538.136,0,0
218520,577.173,-541.657,0,0
218780,579.983,-545.151,0,0
219041,583.187,-548.617,0,0
219301,586.638,-552.386,0,0
219561,590.316,-556.411,0,0
219822,594.153,-560.862,0,0
220082,597.988,-565.785,0,0
220342,601.882,-570.907,0,0
220603,605.761,-576.278,0,0
220863,609.887,-582.202,0,0
221123,614.175,-588.912,0,0
221384,618.132,-596.383,0,0
221644,621.441,-604.419,0,0
221904,624.154,-612.794,0,0
222165,626.681,-621.389,0,0
222425,628.74,-630.279,0,0
222685,630.371,-639.507,0,0
222946,631.451,-648.895,0,0
223206,632.235,-658.45,0,0
223466,632.591,-668.234,0,0
223727,632.51,-678.423,0,0
223987,631.553,-688.652,0,0
224247,630.019,-698.979,0,0
224508,627.909,-709.257,0,0
224768,625.523,-719.073,0,0
225028,622.858,-729.225,0,0
225289,619.262,-739.464,0,0
225549,615.439,-749.821,0,0
225809,610.468,-759.71,0,0
226070,605.168,-769.47,0,0
226330,599.325,-778.845,0,0
226590,593.014,-787.78,0,0
226851,586.376,-796.688,0,0
227111,578.956,-805.469,0,0
227371,570.991,-813.635,0,0
227632,562.37,-820.934,0,0
227892,553.554,-827.742,0,0
228152,544.557,-833.85,0,0
228413,535.308,-839.34,0,0
228673,526.049,-844.112,0,0
228933,516.814,-848.408,0,0
229193,507.585,-852.263,0,0
229454,498.413,-855.703,0,0
229714,489.197,-858.663,0,0
229974,479.833,-860.909,0,0
230235,470.631,-862.904,0,0
230495,461.526,-864.145,0,0
230755,452.728,-864.951,0,0
231016,444.192,-865.329,0,0
231276,436.025,-865.357,0,0
231536,427.993,-864.981,0,0
231797,420.439,-864.363,0,0
232057,413.306,-863.445,0,0
232317,406.618,-862.501,0,0
232578,400.271,-861.633,0,0
232838,393.979,-860.827,0,0
233098,387.809,-860.078,0,0
233359,381.75,-859.045,0,0
233619,375.841,-857.914,0,0
233879,370.148,-856.576,0,0
234140,364.878,-855.357,0,0
234400,359.487,-854.234,0,0
234660.3,354.274,-853.04,0,0
234920.625,349.254,-851.807,0,0
235180.95,344.237,-850.668,0,0
235441.275,339.381,-849.386,0,0
235701.6,334.379,-848.188,0,0
235961.925,329.409,-846.915,0,0
236222.25,324.526,-845.252,0,0
236482.575,320.007,-843.613,0,0
236742.9,315.679,-841.914,0,0
237003.225,311.605,-840.397,0,0
237263.55,307.562,-839.024,0,0
237523.875,303.254,-837.816,0,0
237784.2,299.065,-836.549,0,0
238044.525,294.957,-835.279,0,0
238304.85,290.786,-833.941,0,0
238565.175,286.496,-832.753,0,0
238825.5,282.024,-831.443,0,0
239085.825,277.439,-829.943,0,0
239346.15,272.92,-828.141,0,0
239606.475,268.49,-826.126,0,0
239866.8,264.107,-823.803,0,0
240127.125,259.934,-821.479,0,0
240387.45,255.926,-819.105,0,0
240647.775,252.188,-816.512,0,0
240908.1,248.51,-813.941,0,0
241168.425,245.166,-811.412,0,0
241428.75,241.824,-808.862,0,0
241689.075,238.548,-806.316,0,0
241949.4,235.376,-803.743,0,0
242209.725,232.44,-801.138,0,0
242470.05,229.516,-798.54,0,0
242730.375,226.82,-795.922,0,0
242990.7,224.111,-793.4,0,0
243251.025,221.641,-790.898,0,0
243511.35,219.291,-788.464,0,0
243771.675,216.929,-786.153,0,0
244032.0,214.555,-784.04,0,0
244292.325,212.243,-781.936,0,0
244552.65,209.851,-779.78,0,0
244812.975,207.381,-777.6,0,0
245073.3,204.948,-775.482,0,0
245333.625,202.442,-773.302,0,0
245593.95,200.166,-771.062,0,0
245854.275,197.711,-768.766,0,0
246114.6,195.338,-766.497,0,0
246374.925,192.952,-764.071,0,0
246635.25,190.715,-761.656,0,0
246895.575,188.485,-759.012,0,0
247155.9,186.409,-756.603,0,0
247416.225,184.393,-754.057,0,0
247676.55,182.477,-751.562,0,0
247936.875,180.581,-749.064,0,0
248197.2,178.767,-746.591,0,0
248457.525,176.977,-744.132,0,0
248717.85,175.211,-741.631,0,0
248978.175,173.508,-739.128,0,0
249238.5,171.879,-736.664,0,0
249498.825,170.3,-734.141,0,0
249759.15,168.779,-731.645,0,0
250019.475,167.402,-729.144,0,0
250279.8,165.905,-726.781,0,0
250540,164.423,-724.36,0,0
250800,163.037,-721.971,0,0
251061,161.68,-719.472,0,0
251321,160.351,-716.984,0,0
251581,159.109,-714.551,0,0
251842,157.861,-712.138,0,0
252102,156.626,-709.676,0,0
252362,155.475,-707.239,0,0
252623,154.336,-704.741,0,0
252883,153.259,-702.243,0,0
253143,152.213,-699.824,0,0
253404,151.134,-697.38,0,0
253664,150.121,-694.848,0,0
253924,149.059,-692.257,0,0
254185,148.18,-689.609,0,0
254445,147.378,-686.901,0,0
254705,146.739,-684.242,0,0
254966,146.089,-681.602,0,0
255226,145.566,-679.012,0,0
255486,145.241,-676.412,0,0
255747,144.829,-674.004,0,0
256007,144.533,-671.538,0,0
256267,144.247,-669.116,0,0
256528,143.956,-666.726,0,0
256788,143.729,-664.338,0,0
257048,143.528,-661.948,0,0
257309,143.368,-659.569,0,0
257569,143.268,-657.181,0,0
257829,143.231,-654.799,0,0
258090,143.249,-652.39,0,0
258350,143.349,-650.043,0,0
258610,143.566,-647.693,0,0
258871,143.843,-645.378,0,0
259131,144.205,-643.094,0,0
259391,144.689,-640.878,0,0
259651,145.201,-638.694,0,0
259912,145.774,-636.528,0,0
260172,146.511,-634.527,0,0
260432,147.248,-632.629,0,0
260693,148.074,-630.753,0,0
260953,148.885,-628.982,0,0
261213,149.754,-627.299,0,0
261474,150.699,-625.715,0,0
261734,151.624,-624.25,0,0
261994,152.502,-622.875,0,0
262255,153.395,-621.541,0,0
262515,154.289,-620.227,0,0
262775,155.121,-618.912,0,0
263036,156.101,-617.618,0,0
263296,157.146,-616.39,0,0
263556,158.245,-615.255,0,0
263817,159.467,-614.195,0,0
264077,160.681,-613.24,0,0
264337,162.04,-612.429,0,0
264598,163.424,-611.788,0,0
264858,164.782,-611.357,0,0
265118,166.229,-611.074,0,0
265379,167.639,-610.989,0,0
265639,168.925,-611.137,0,0
265899,170.168,-611.444,0,0
266160,171.23,-611.94,0,0
266420,172.266,-612.574,0,0
266680.25,173.147,-613.367,0,0
266940.575,173.918,-614.405,0,0
267200.9,174.436,-615.645,0,0
267461.225,174.65,-617.039,0,0
267721.55,174.538,-618.512,0,0
267981.875,174.065,-619.998,0,0
268242.2,173.271,-621.468,0,0
268502.525,172.109,-622.754,0,0
268762.85,170.7,-623.94,0,0
269023.175,169.056,-624.845,0,0
269283.5,167.165,-625.531,0,0
269543.825,165.079,-625.921,0,0
269804.15,162.917,-625.996,0,0
270064.475,160.757,-625.734,0,0
270324.8,158.724,-625.265,0,0
270585.125,156.644,-624.439,0,0
270845.45,154.695,-623.468,0,0
271105.775,152.89,-622.331,0,0
271366.1,151.194,-621.037,0,0
271626.425,149.639,-619.574,0,0
271886.75,148.234,-618.041,0,0
272147.075,146.963,-616.425,0,0
272407.4,145.867,-614.759,0,0
272667.725,144.897,-613.061,0,0
272928.05,144.052,-611.326,0,0
273188.375,143.348,-609.601,0,0
273448.7,142.707,-607.841,0,0
273709.025,142.242,-606.153,0,0
273969.35,141.837,-604.48,0,0
274229.675,141.549,-602.85,0,0
274490.0,141.291,-601.235,0,0
274750.325,141.121,-599.655,0,0
275010.65,141.027,-598.101,0,0
275270.975,141.036,-596.614,0,0
275531.3,141.057,-595.204,0,0
275791.625,141.125,-593.819,0,0
276051.95,141.207,-592.447,0,0
276312.275,141.371,-591.053,0,0
276572.6,141.602,-589.708,0,0
276832.925,141.945,-588.409,0,0
277093.25,142.367,-587.239,0,0
277353.575,142.826,-586.142,0,0
277613.9,143.299,-585.206,0,0
277874.225,143.809,-584.368,0,0
278134.55,144.233,-583.591,0,0
278394.875,144.631,-582.854,0,0
278655.2,145.069,-582.137,0,0
278915.525,145.574,-581.507,0,0
279175.85,146.055,-580.987,0,0
279436.175,146.525,-580.605,0,0
279696.5,146.882,-580.413,0,0
279956.825,147.205,-580.253,0,0
280217.15,147.301,-580.139,0,0
280477.475,147.364,-580.059,0,0
280737.8,147.309,-580.013,0,0
280998.125,147.137,-579.914,0,0
281258.45,146.884,-579.796,0,0
281518.775,146.581,-579.618,0,0
281779.1,146.223,-579.414,0,0
282039.425,145.877,-579.155,0,0
282299.75,145.494,-578.92,0,0
282560,145.048,-578.72,0,0
282820,144.494,-578.508,0,0
283081,143.83,-578.181,0,0
283341,143.135,-577.741,0,0
283601,142.465,-577.193,0,0
283862,141.841,-576.575,0,0
284122,141.272,-575.947,0,0
284382,140.747,-575.357,0,0
284643,140.149,-574.833,0,0
284903,139.517,-574.257,0,0
285163,138.886,-573.693,0,0
285424,138.126,-573.055,0,0
285684,137.37,-572.377,0,0
285944,136.553,-571.614,0,0
286205,135.686,-570.799,0,0
286465,134.813,-569.898,0,0
286725,133.876,-568.906,0,0
286986,132.914,-567.758,0,0
287246,131.992,-566.403,0,0
287506,131.161,-564.884,0,0
287767,130.456,-563.169,0,0
288027,129.979,-561.36,0,0
288287,129.682,-559.573,0,0
288548,129.539,-557.697,0,0
288808,129.662,-555.761,0,0
289068,130.06,-553.948,0,0
289329,130.661,-552.323,0,0
289589,131.376,-550.899,0,0
289849,132.16,-549.741,0,0
290109,132.889,-548.755,0,0
290370,133.626,-547.965,0,0
290630,134.248,-547.267,0,0
290890,134.725,-546.745,0,0
291151,135.067,-546.255,0,0
291411,135.26,-545.756,0,0
291671,135.41,-545.237,0,0
291932,135.456,-544.692,0,0
292192,135.443,-544.126,0,0
292452,135.337,-543.506,0,0
292713,135.181,-542.813,0,0
292973,135.003,-542.003,0,0
293233,134.831,-541.1,0,0
293494,134.714,-540.118,0,0
293754,134.68,-539.137,0,0
294014,134.57,-538.08,0,0
294275,134.505,-536.934,0,0
294535,134.489,-535.705,0,0
294795,134.576,-534.426,0,0
295056,134.691,-533.07,0,0
295316,134.936,-531.633,0,0
295576,135.351,-530.129,0,0
295837,135.924,-528.63,0,0
296097,136.705,-527.202,0,0
296357,137.619,-525.88,0,0
296618,138.629,-524.717,0,0
296878,139.705,-523.702,0,0
297138,140.76,-522.809,0,0
297399,141.777,-521.987,0,0
297659,142.79,-521.227,0,0
297919,143.857,-520.521,0,0
298180,144.887,-519.891,0,0
298440,145.894,-519.307,0,0
298700.2,146.944,-518.712,0,0
298960.525,147.877,-518.192,0,0
299220.85,148.927,-517.634,0,0
299481.175,150.061,-517.164,0,0
299741.5,151.232,-516.772,0,0
300001.825,152.404,-516.466,0,0
300262.15,153.463,-516.217,0,0
300522.475,154.536,-515.98,0,0
300782.8,155.601,-515.718,0,0
301043.125,156.762,-515.463,0,0
301303.45,157.928,-515.354,0,0
301563.775,159.204,-515.18,0,0
301824.1,160.501,-515.244,0,0
302084.425,161.792,-515.438,0,0
302344.75,163.036,-515.681,0,0
302605.075,164.293,-515.943,0,0
302865.4,165.534,-516.387,0,0
303125.725,166.666,-516.885,0,0
303386.05,167.874,-517.392,0,0
303646.375,168.951,-518.121,0,0
303906.7,170.047,-518.926,0,0
304167.025,171.085,-519.816,0,0
304427.35,171.917,-520.739,0,0
304687.675,172.593,-521.8,0,0
304948.0,173.124,-522.688,0,0
305208.325,173.642,-523.544,0,0
305468.65,174.148,-524.454,0,0
305728.975,174.753,-525.304,0,0
305989.3,175.281,-526.142,0,0
306249.625,175.871,-527.083,0,0
306509.95,176.473,-528.096,0,0
306770.275,177.072,-529.107,0,0
307030.6,177.491,-530.297,0,0
307290.925,177.939,-531.555,0,0
307551.25,178.191,-532.88,0,0
307811.575,178.414,-534.24,0,0
308071.9,178.593,-535.634,0,0
308332.225,178.561,-537.063,0,0
308592.55,178.502,-538.472,0,0
308852.875,178.335,-539.93,0,0
309113.2,177.912,-541.359,0,0
309373.525,177.533,-542.686,0,0
309633.85,177.047,-544.023,0,0
309894.175,176.664,-545.207,0,0
310154.5,176.236,-546.489,0,0
310414.825,175.684,-547.83,0,0
310675.15,174.944,-549.148,0,0
310935.475,174.267,-550.574,0,0
311195.8,173.441,-551.775,0,0
311456.125,172.586,-553.082,0,0
311716.45,171.687,-554.425,0,0
311976.775,170.553,-555.604,0,0
312237.1,169.423,-556.964,0,0
312497.425,168.001,-558.086,0,0
312757.75,166.608,-559.12,0,0
313018.075,165.144,-559.99,0,0
313278.4,163.651,-560.74,0,0
313538.725,162.093,-561.496,0,0
313799.05,160.593,-562.103,0,0
314059.375,159.084,-562.639,0,0
314319.7,157.595,-563.083,0,0
314580,156.093,-563.434,0,0
314840,154.58,-563.857,0,0
315101,153.143,-564.15,0,0
315361,151.685,-564.442,0,0
315621,150.386,-564.677,0,0
315882,148.918,-564.953,0,0
316142,147.424,-565.295,0,0
316402,145.893,-565.537,0,0
316663,144.298,-565.795,0,0
316923,142.652,-565.916,0,0
317183,140.989,-566.005,0,0
317444,139.255,-565.988,0,0
317704,137.585,-565.792,0,0
317964,135.864,-565.582,0,0
318225,134.296,-565.257,0,0
318485,132.64,-564.927,0,0
318745,131.135,-564.474,0,0
319006,129.635,-564.055,0,0
319266,128.207,-563.567,0,0
319526,126.675,-563.188,0,0
319787,125.249,-562.695,0,0
320047,123.763,-562.166,0,0
320307,122.25,-561.438,0,0
320567,120.83,-560.829,0,0
320828,119.407,-560.141,0,0
321088,118.005,-559.371,0,0
321348,116.549,-558.6,0,0
321609,115.237,-557.721,0,0
321869,113.906,-556.818,0,0
322129,112.609,-555.81,0,0
322390,111.349,-554.794,0,0
322650,110.085,-553.725,0,0
322910,108.973,-552.525,0,0
323171,107.951,-551.402,0,0
323431,107,-550.172,0,0
323691,106.14,-548.894,0,0
323952,105.369,-547.64,0,0
324212,104.71,-546.404,0,0
324472,104.127,-545.174,0,0
324733,103.579,-543.99,0,0
324993,103.109,-542.882,0,0
325253,102.733,-541.822,0,0
325514,102.422,-540.792,0,0
325774,102.191,-539.811,0,0
326034,101.812,-538.896,0,0
326295,101.541,-538.053,0,0
326555,101.271,-537.167,0,0
326815,101.021,-536.392,0,0
327076,100.805,-535.605,0,0
327336,100.624,-534.843,0,0
327596,100.398,-534.15,0,0
327857,100.233,-533.54,0,0
328117,100.061,-532.927,0,0
328377,99.8271,-532.441,0,0
328638,99.5808,-531.896,0,0
328898,99.3279,-531.46,0,0
329158,99.0969,-530.973,0,0
329419,98.8219,-530.545,0,0
329679,98.4753,-530.163,0,0
329939,98.1767,-529.835,0,0
330200,97.8628,-529.448,0,0
330460,97.4786,-529.048,0,0
330720.15,97.0915,-528.738,0,0
330980.475,96.6585,-528.446,0,0
331240.8,96.2641,-528.174,0,0
331501.125,95.8114,-527.966,0,0
331761.45,95.2417,-527.586,0,0
332021.775,94.7091,-527.324,0,0
332282.1,94.1388,-527.008,0,0
332542.425,93.5085,-526.733,0,0
332802.75,92.8146,-526.465,0,0
333063.075,92.1541,-526.097,0,0
333323.4,91.4482,-525.718,0,0
333583.725,90.7594,-525.339,0,0
333844.05,89.9897,-524.865,0,0
334104.375,89.2445,-524.407,0,0
334364.7,88.558,-523.945,0,0
334625.025,87.8393,-523.432,0,0
334885.35,87.0419,-522.918,0,0
335145.675,86.2117,-522.444,0,0
335406.0,85.4455,-521.823,0,0
335666.325,84.6733,-521.233,0,0
335926.65,83.9073,-520.547,0,0
336186.975,83.1206,-519.878,0,0
336447.3,82.3667,-519.22,0,0
336707.625,81.7018,-518.567,0,0
336967.95,80.9147,-517.754,0,0
337228.275,80.2644,-517.081,0,0
337488.6,79.575,-516.289,0,0
337748.925,78.9342,-515.573,0,0
338009.25,78.2896,-514.8,0,0
338269.575,77.6229,-514.097,0,0
338529.9,76.9573,-513.254,0,0
338790.225,76.2599,-512.441,0,0
339050.55,75.6846,-511.621,0,0
339310.875,75.0344,-510.807,0,0
339571.2,74.4928,-509.935,0,0
339831.525,73.9299,-509.066,0,0
340091.85,73.3508,-508.163,0,0
340352.175,72.8508,-507.301,0,0
340612.5,72.3679,-506.409,0,0
340872.825,71.8949,-505.559,0,0
341133.15,71.4975,-504.655,0,0
341393.475,71.0435,-503.842,0,0
341653.8,70.6687,-503.066,0,0
341914.125,70.2517,-502.232,0,0
342174.45,69.8214,-501.43,0,0
342434.775,69.4199,-500.57,0,0
342695.1,69.0056,-499.811,0,0
342955.425,68.5869,-499.06,0,0
343215.75,68.1595,-498.257,0,0
343476.075,67.7202,-497.502,0,0
343736.4,67.2593,-496.699,0,0
343996.725,66.8069,-495.905,0,0
344257.05,66.418,-495.082,0,0
344517.375,65.9041,-494.297,0,0
344777.7,65.5566,-493.396,0,0
345038.025,65.0289,-492.564,0,0
345298.35,64.6188,-491.73,0,0
345558.675,64.1967,-490.809,0,0
345819.0,63.8073,-489.999,0,0
346079.325,63.4044,-489.061,0,0
346339.65,63.0202,-488.095,0,0
346599.975,62.6654,-487.172,0,0
346860,62.2981,-486.288,0,0
347121,61.9509,-485.391,0,0
347381,61.6142,-484.446,0,0
347641,61.2999,-483.526,0,0
347902,60.9445,-482.638,0,0
348162,60.7017,-481.673,0,0
348422,60.444,-480.684,0,0
348683,60.1889,-479.762,0,0
348943,59.9552,-478.76,0,0
349203,59.7018,-477.833,0,0
349464,59.5467,-476.863,0,0
349724,59.3344,-475.862,0,0
349984,59.2407,-474.898,0,0
350245,59.1385,-474.027,0,0
350505,59.0265,-473.179,0,0
350765,58.8737,-472.257,0,0
351025,58.7706,-471.364,0,0
351286,58.6431,-470.541,0,0
351546,58.6073,-469.686,0,0
351806,58.5106,-468.876,0,0
352067,58.4063,-467.989,0,0
352327,58.2387,-467.171,0,0
352587,58.185,-466.334,0,0
352848,58.0611,-465.483,0,0
353108,57.9557,-464.664,0,0
353368,57.8888,-463.824,0,0
353629,57.7668,-462.961,0,0
353889,57.6524,-462.124,0,0
354149,57.5887,-461.218,0,0
354410,57.5475,-460.375,0,0
354670,57.4644,-459.53,0,0
354930,57.4887,-458.691,0,0
355191,57.4434,-457.871,0,0
355451,57.4922,-457.046,0,0
355711,57.4523,-456.216,0,0
355972,57.4855,-455.391,0,0
356232,57.4917,-454.533,0,0
356492,57.5412,-453.772,0,0
356753,57.5997,-452.938,0,0
357013,57.6865,-452.203,0,0
357273,57.6813,-451.525,0,0
357534,57.7329,-450.719,0,0
357794,57.7832,-449.994,0,0
358054,57.819,-449.245,0,0
358315,57.8517,-448.573,0,0
358575,57.8593,-447.858,0,0
358835,57.8778,-447.119,0,0
359096,57.9228,-446.407,0,0
359356,57.9072,-445.709,0,0
359616,57.9852,-444.949,0,0
359877,57.9628,-444.229,0,0
360137,57.9545,-443.463,0,0
360397,58.054,-442.752,0,0
360658,58.1472,-441.99,0,0
360918,58.2283,-441.259,0,0
361178,58.3389,-440.624,0,0
361438,58.3794,-439.911,0,0
361699,58.506,-439.267,0,0
361959,58.5584,-438.622,0,0
362219,58.6418,-437.925,0,0
362480,58.6702,-437.292,0,0
362740.1,58.6837,-436.628,0,0
363000.425,58.7454,-435.95,0,0
363260.75,58.7909,-435.244,0,0
363521.075,58.854,-434.571,0,0
363781.4,58.9207,-433.869,0,0
364041.725,58.9589,-433.195,0,0
364302.05,59.0433,-432.508,0,0
364562.375,59.0309,-431.847,0,0
364822.7,59.0159,-431.171,0,0
365083.025,59.1147,-430.445,0,0
365343.35,59.1599,-429.713,0,0
365603.675,59.2477,-428.974,0,0
365864.0,59.3,-428.301,0,0
366124.325,59.3795,-427.52,0,0
366384.65,59.4794,-426.85,0,0
366644.975,59.5847,-426.102,0,0
366905.3,59.6542,-425.41,0,0
367165.625,59.7783,-424.66,0,0
367425.95,59.8259,-423.9,0,0
367686.275,59.9381,-423.136,0,0
367946.6,59.9973,-422.342,0,0
368206.925,60.0544,-421.523,0,0
368467.25,60.1889,-420.701,0,0
368727.575,60.3256,-419.798,0,0
368987.9,60.5427,-418.838,0,0
369248.225,60.8163,-417.91,0,0
369508.55,61.1446,-416.94,0,0
369768.875,61.5787,-416.028,0,0
370029.2,62.0067,-415.214,0,0
370289.525,62.5114,-414.366,0,0
370549.85,63.0329,-413.566,0,0
370810.175,63.5895,-412.766,0,0
371070.5,64.1663,-412.068,0,0
371330.825,64.7514,-411.383,0,0
371591.15,65.3475,-410.707,0,0
371851.475,65.9856,-410.079,0,0
372111.8,66.6982,-409.518,0,0
372372.125,67.3475,-409.002,0,0
372632.45,68.0286,-408.516,0,0
372892.775,68.6864,-408.066,0,0
373153.1,69.3894,-407.664,0,0
373413.425,70.0404,-407.35,0,0
373673.75,70.7126,-407.054,0,0
373934.075,71.4174,-406.832,0,0
374194.4,71.9787,-406.603,0,0
374454.725,72.6339,-406.454,0,0
374715.05,73.237,-406.276,0,0
374975.375,73.7593,-406.195,0,0
375235.7,74.2583,-406.13,0,0
375496.025,74.6837,-406.027,0,0
375756.35,75.1468,-405.998,0,0
376016.675,75.5418,-405.912,0,0
376277.0,75.8986,-405.83,0,0
376537.325,76.3113,-405.736,0,0
376797.65,76.6708,-405.633,0,0
377057.975,77.0778,-405.569,0,0
377318.3,77.4417,-405.492,0,0
377578.625,77.7756,-405.424,0,0
377838.95,78.1782,-405.364,0,0
378099.275,78.5127,-405.384,0,0
378359.6,78.8812,-405.409,0,0
378619.925,79.2167,-405.414,0,0
378880,79.5523,-405.382,0,0
379141,79.8362,-405.472,0,0
379401,80.0917,-405.486,0,0
379661,80.3736,-405.531,0,0
379922,80.6169,-405.562,0,0
380182,80.8953,-405.533,0,0
380442,81.2271,-405.581,0,0
380703,81.5068,-405.614,0,0
380963,81.8619,-405.723,0,0
381223,82.1978,-405.907,0,0
381483,82.5285,-406.102,0,0
381744,82.8608,-406.38,0,0
382004,83.0864,-406.721,0,0
382264,83.2851,-407.104,0,0
382525,83.4265,-407.537,0,0
382785,83.4782,-408.011,0,0
383045,83.4531,-408.436,0,0
383306,83.3506,-408.863,0,0
383566,83.2052,-409.299,0,0
383826,83.0122,-409.71,0,0
384087,82.7046,-410.169,0,0
384347,82.3949,-410.558,0,0
384607,81.9785,-410.842,0,0
384868,81.5306,-411.147,0,0
385128,81.0465,-411.381,0,0
385388,80.5522,-411.569,0,0
385649,80.0503,-411.689,0,0
385909,79.4753,-411.81,0,0
386169,78.953,-411.877,0,0
386430,78.4103,-411.919,0,0
386690,77.8037,-411.919,0,0
386950,77.1925,-411.916,0,0
387211,76.528,-411.792,0,0
387471,75.8581,-411.614,0,0
387731,75.234,-411.428,0,0
387992,74.6315,-411.121,0,0
388252,74.0297,-410.782,0,0
388512,73.4788,-410.399,0,0
388773,72.9883,-409.985,0,0
389033,72.5576,-409.53,0,0
389293,72.174,-409.097,0,0
389554,71.7919,-408.656,0,0
389814,71.4702,-408.196,0,0
390074,71.2042,-407.788,0,0
390335,70.938,-407.362,0,0
390595,70.658,-406.994,0,0
390855,70.4757,-406.654,0,0
391116,70.2176,-406.318,0,0
391376,69.9972,-406.023,0,0
391636,69.7091,-405.735,0,0
391896,69.4459,-405.476,0,0
392157,69.1467,-405.28,0,0
392417,68.8652,-405.019,0,0
392677,68.492,-404.8,0,0
392938,68.0798,-404.563,0,0
393198,67.649,-404.28,0,0
393458,67.1795,-404.028,0,0
393719,66.6713,-403.727,0,0
393979,66.2416,-403.338,0,0
394239,65.7171,-403.001,0,0
394500,65.2015,-402.49,0,0
394760.05,64.6625,-402.047,0,0
395020.375,64.1965,-401.517,0,0
395280.7,63.7102,-400.999,0,0
395541.025,63.2615,-400.414,0,0
395801.35,62.8532,-399.844,0,0
396061.675,62.412,-399.255,0,0
396322.0,62.0057,-398.587,0,0
396582.325,61.6111,-397.976,0,0
396842.65,61.2554,-397.287,0,0
397102.975,60.9359,-396.631,0,0
397363.3,60.6211,-395.921,0,0
397623.625,60.3145,-395.242,0,0
397883.95,60.0513,-394.556,0,0
398144.275,59.7577,-393.852,0,0
398404.6,59.5076,-393.147,0,0
398664.925,59.2976,-392.448,0,0
398925.25,59.0899,-391.72,0,0
399185.575,58.9009,-390.998,0,0
399445.9,58.6701,-390.276,0,0
399706.225,58.5111,-389.567,0,0
399966.55,58.3529,-388.793,0,0
400006.6,58.348,-388.693,0,0