File: Accelerated corrosion test data/2025-10-04_06-00-03/sample_7.csv
Frequency (Hz),Impedance (ohms),Phase (Radians),Temperature (C),Humidity (%)
10000.0,275.073,-12057.7,0,0
10260.325,278.039,-11767.9,0,0
10520.65,259.198,-11469.2,0,0
10780.975,252.812,-11188.7,0,0
11041.3,250.027,-10921.5,0,0
11301.625,247.057,-10667,0,0
11561.95,248.532,-10418.6,0,0
11822.275,258.417,-10190.8,0,0
12082.6,262.739,-9967.94,0,0
12342.925,323.51,-9779.46,0,0
12603.25,263.904,-9625.07,0,0
12863.575,268.351,-9420.58,0,0
13123.9,240.014,-9248.76,0,0
13384.225,234.054,-9074.28,0,0
13644.55,221.809,-8890.46,0,0
13904.875,209.333,-8728.57,0,0
14165.2,206.073,-8557.7,0,0
14425.525,208.755,-8420.67,0,0
14685.8,205.225,-8265.07,0,0
14946.175,199.546,-8119.53,0,0
15206.5,200.299,-7989.05,0,0
15466.825,185.479,-7850.14,0,0
15727.15,186.726,-7721.36,0,0
15987.5,180.178,-7593.31,0,0
16247.8,180.622,-7472.13,0,0
16508.125,172.612,-7352.71,0,0
16768.45,171.966,-7234.2,0,0
17028.775,172.092,-7124.47,0,0
17289.1,168.937,-7016.86,0,0
17549.425,167.529,-6907.54,0,0
17809.75,169.247,-6798.94,0,0
18070.075,171.133,-6701.63,0,0
18330.4,178.989,-6596.48,0,0
18590.725,198.618,-6511.72,0,0
18851.05,196.062,-6448.39,0,0
19111.375,183.165,-6365.6,0,0
19371.7,204.235,-6284.03,0,0
19632.025,171.947,-6218.66,0,0
19892.35,157.748,-6121.98,0,0
20152.675,169.563,-6035.3,0,0
20413.0,172.485,-5962.37,0,0
20673.3,169.355,-5887.24,0,0
20933.65,177.545,-5825.04,0,0
21193.975,161.071,-5765.39,0,0
21454.3,152.883,-5690.62,0,0
21714.625,155.881,-5621.87,0,0
21974.9,147.933,-5560.22,0,0
22235.275,142.097,-5492.05,0,0
22495.6,140.837,-5428.22,0,0
22755.925,135.505,-5365.77,0,0
23016.25,131.865,-5302.94,0,0
23276.6,129.538,-5240.25,0,0
23536.9,129.633,-5179.67,0,0
23797.225,130.019,-5124.32,0,0
24057.55,125.951,-5068.17,0,0
24317.875,123.726,-5010.87,0,0
24578.2,124.841,-4955.98,0,0
24838.525,123.001,-4903.14,0,0
25098.85,123.209,-4851.08,0,0
25359.175,120.683,-4798.98,0,0
25619.5,120.48,-4747.57,0,0
25879.8,120.688,-4697.11,0,0
26140.1,120.217,-4645.95,0,0
26400.5,124.863,-4597.36,0,0
26660.8,123.93,-4553.15,0,0
26921.1,124.31,-4502.85,0,0
27181.4,130.22,-4455.19,0,0
27441.8,133.979,-4411.72,0,0
27702.1,144.948,-4362.41,0,0
27962.4,160.464,-4322.56,0,0
28222.7,181.058,-4297.92,0,0
28483.1,180.641,-4281.73,0,0
28743.4,174.053,-4262.3,0,0
29003.7,159.341,-4233.92,0,0
29264,144.695,-4198,0,0
29524.4,136.83,-4157.64,0,0
29784.7,134.004,-4119.01,0,0
30045,128.556,-4078.3,0,0
30305.3,131.427,-4040.05,0,0
30565.7,133.375,-4006.94,0,0
30826,136.373,-3974.44,0,0
31086.3,137.102,-3946.81,0,0
31346.6,133.192,-3920.16,0,0
31607,131.226,-3892.62,0,0
31867.3,121.472,-3862.99,0,0
32127.6,118.696,-3830.52,0,0
32387.9,114.89,-3800.01,0,0
32648.3,111.332,-3770.05,0,0
32908.6,108.321,-3738.96,0,0
33168.9,105.572,-3709.27,0,0
33429.2,102.805,-3679.75,0,0
33689.6,100.318,-3649.61,0,0
33949.9,98.6282,-3620.52,0,0
34210.2,96.6874,-3592.17,0,0
34470.5,95.1095,-3563.5,0,0
34730.9,93.9444,-3535.65,0,0
34991.2,92.5112,-3508.24,0,0
35251.5,91.6862,-3481.47,0,0
35511.8,90.6106,-3454.67,0,0
35772.2,89.8869,-3428.25,0,0
36032.5,89.8709,-3402.47,0,0
36292.8,89.1547,-3377.41,0,0
36553.1,88.1196,-3352.35,0,0
36813.5,87.639,-3327.74,0,0
37073.8,87.3934,-3303.18,0,0
37334.1,87.3485,-3278.96,0,0
37594.4,87.1692,-3255.76,0,0
37854.8,86.513,-3232.5,0,0
38115.1,86.1988,-3208.73,0,0
38375.4,86.8435,-3185.54,0,0
38635.7,87.6238,-3162.39,0,0
38896.1,88.8836,-3139.88,0,0
39156.4,90.6993,-3118.79,0,0
39416.7,93.302,-3097.59,0,0
39677,96.8715,-3078.77,0,0
39937.4,98.5354,-3062.55,0,0
40197.7,98.0841,-3046.24,0,0
40458,96.5952,-3030.26,0,0
40718.3,93.2344,-3012.63,0,0
40978.7,90.5484,-2994.03,0,0
41239,88.0712,-2975.33,0,0
41499.3,86.1787,-2955.77,0,0
41759.6,84.9144,-2936.73,0,0
42020,83.5679,-2918.32,0,0
42280.275,81.7378,-2899.25,0,0
42540.6,81.1021,-2879.82,0,0
42800.925,81.4054,-2861.34,0,0
43061.25,81.2818,-2843.23,0,0
43321.575,82.2256,-2826.21,0,0
43581.9,80.6335,-2809.19,0,0
43842.225,80.5505,-2791.36,0,0
44102.55,81.5637,-2773.58,0,0
44362.875,83.1396,-2757.61,0,0
44623.2,83.6349,-2743.26,0,0
44883.525,83.2411,-2729.73,0,0
45143.85,81.2076,-2714.07,0,0
45404.175,80.332,-2698.32,0,0
45664.5,79.9801,-2681.54,0,0
45924.825,81.5236,-2667.51,0,0
46185.15,80.537,-2654.37,0,0
46445.475,78.7886,-2640.84,0,0
46705.8,76.2583,-2626.71,0,0
46966.125,74.1503,-2611.19,0,0
47226.45,72.7958,-2595.55,0,0
47486.775,72.5179,-2580.12,0,0
47747.1,71.7738,-2565.21,0,0
48007.425,71.6979,-2550.89,0,0
48267.75,71.2255,-2536.88,0,0
48528.075,70.5425,-2523.26,0,0
48788.4,70.0499,-2509.24,0,0
49048.725,69.5468,-2495.37,0,0
49309.05,68.8214,-2481.7,0,0
49569.375,68.5085,-2468.24,0,0
49829.7,68.137,-2454.82,0,0
50090.025,67.7208,-2441.44,0,0
50350.35,67.2515,-2428.52,0,0
50610.675,66.9331,-2415.4,0,0
50871.0,66.7391,-2402.73,0,0
51131.325,66.3528,-2390.12,0,0
51391.65,65.9703,-2377.44,0,0
51651.975,65.7474,-2365.07,0,0
51912.3,65.4294,-2352.77,0,0
52172.625,65.3163,-2340.39,0,0
52432.95,65.158,-2328.49,0,0
52693.275,64.76,-2316.48,0,0
52953.6,64.8886,-2304.61,0,0
53213.925,64.8104,-2293.06,0,0
53474.25,64.5747,-2281.87,0,0
53734.575,64.2822,-2270.51,0,0
53994.9,63.8699,-2259.3,0,0
54255.225,63.5304,-2248.1,0,0
54515.55,63.3536,-2236.86,0,0
54775.875,62.9921,-2225.98,0,0
55036.2,62.8629,-2214.87,0,0
55296.525,62.5441,-2204.13,0,0
55556.85,62.3475,-2193.31,0,0
55817.175,62.1703,-2182.73,0,0
56077.5,61.9201,-2172.08,0,0
56337.825,61.8906,-2161.5,0,0
56598.15,61.96,-2151.36,0,0
56858.475,61.6039,-2141.25,0,0
57118.8,61.45,-2131,0,0
57379.125,61.3003,-2120.97,0,0
57639.45,61.0579,-2110.95,0,0
57899.775,60.8652,-2100.97,0,0
58160.1,60.7603,-2090.77,0,0
58420.4,61.1946,-2081.02,0,0
58680.7,61.4303,-2071.84,0,0
58941.1,61.234,-2062.57,0,0
59201.4,60.9283,-2053.33,0,0
59461.7,60.8945,-2043.79,0,0
59722,61.2965,-2034.73,0,0
59982.4,61.0587,-2025.85,0,0
60242.7,61.2106,-2017,0,0
60503,61.0138,-2008.65,0,0
60763.3,60.5562,-2000,0,0
61023.7,60.0448,-1991.2,0,0
61284,59.6999,-1982.5,0,0
61544.3,59.4307,-1973.82,0,0
61804.6,58.9757,-1965.26,0,0
62065,58.5449,-1956.74,0,0
62325.3,58.1112,-1947.93,0,0
62585.6,57.9994,-1939.41,0,0
62845.9,57.7627,-1931.07,0,0
63106.3,57.5961,-1922.57,0,0
63366.6,57.5063,-1914.22,0,0
63626.9,57.3676,-1906.11,0,0
63887.2,57.1691,-1898.16,0,0
64147.6,56.7694,-1889.88,0,0
64407.9,56.5413,-1881.75,0,0
64668.2,56.4156,-1873.57,0,0
64928.5,56.257,-1865.67,0,0
65188.9,56.4014,-1857.76,0,0
65449.2,56.6148,-1849.93,0,0
65709.5,56.702,-1842.62,0,0
65969.8,56.5537,-1835.32,0,0
66230.2,56.2968,-1827.92,0,0
66490.5,56.0128,-1820.62,0,0
66750.8,55.6257,-1813.23,0,0
67011.1,55.3524,-1806.01,0,0
67271.5,54.8205,-1798.69,0,0
67531.8,54.4311,-1791.15,0,0
67792.1,54.2729,-1783.77,0,0
68052.4,53.9549,-1776.44,0,0
68312.8,53.7307,-1769.13,0,0
68573.1,53.7066,-1761.82,0,0
68833.4,53.5527,-1754.72,0,0
69093.7,53.2951,-1747.66,0,0
69354.1,53.2263,-1740.5,0,0
69614.4,53.1941,-1733.54,0,0
69874.7,53.1888,-1726.63,0,0
70135,53.1718,-1719.84,0,0
70395.4,53.0613,-1713.1,0,0
70655.7,52.9742,-1706.37,0,0
70916,52.9024,-1699.67,0,0
71176.3,52.8948,-1693.3,0,0
71436.7,52.679,-1686.83,0,0
71697,52.5006,-1680.35,0,0
71957.3,52.2053,-1673.92,0,0
72217.6,52.0151,-1667.43,0,0
72478,51.832,-1661,0,0
72738.3,51.608,-1654.65,0,0
72998.6,51.4425,-1648.3,0,0
73258.9,51.2494,-1641.91,0,0
73519.3,51.0469,-1635.52,0,0
73779.6,50.9474,-1629.35,0,0
74039.9,50.7639,-1622.98,0,0
74300.225,50.7091,-1616.84,0,0
74560.55,50.6127,-1610.67,0,0
74820.875,50.5024,-1604.62,0,0
75081.2,50.3964,-1598.59,0,0
75341.525,50.3383,-1592.52,0,0
75601.85,50.2827,-1586.53,0,0
75862.175,50.1797,-1580.68,0,0
76122.5,49.9974,-1574.79,0,0
76382.825,49.9589,-1568.81,0,0
76643.15,49.8689,-1562.98,0,0
76903.475,49.8184,-1557.2,0,0
77163.8,49.69,-1551.48,0,0
77424.125,49.6741,-1545.78,0,0
77684.45,49.613,-1540.01,0,0
77944.775,49.586,-1534.38,0,0
78205.1,49.4956,-1528.85,0,0
78465.425,49.4097,-1523.22,0,0
78725.75,49.3865,-1517.69,0,0
78986.075,49.3142,-1512.16,0,0
79246.4,49.2811,-1506.72,0,0
79506.725,49.2691,-1501.2,0,0
79767.05,49.2909,-1495.79,0,0
80027.375,49.1933,-1490.45,0,0
80287.7,49.2231,-1485.1,0,0
80548.025,49.145,-1479.85,0,0
80808.35,49.1025,-1474.65,0,0
81068.675,48.9668,-1469.47,0,0
81329.0,48.9374,-1464.12,0,0
81589.325,48.9578,-1458.92,0,0
81849.65,48.8712,-1453.78,0,0
82109.975,48.7768,-1448.58,0,0
82370.3,48.8086,-1443.4,0,0
82630.625,48.8514,-1438.34,0,0
82890.95,48.8119,-1433.31,0,0
83151.275,48.7643,-1428.36,0,0
83411.6,48.6979,-1423.36,0,0
83671.925,48.6338,-1418.31,0,0
83932.25,48.6871,-1413.31,0,0
84192.575,48.6906,-1408.3,0,0
84452.9,48.7589,-1403.4,0,0
84713.225,48.7706,-1398.54,0,0
84973.55,48.9251,-1393.83,0,0
85233.875,48.9397,-1389.03,0,0
85494.2,49.0385,-1384.35,0,0
85754.525,48.9002,-1379.62,0,0
86014.85,48.9148,-1374.96,0,0
86275.175,48.9438,-1370.23,0,0
86535.5,48.9585,-1365.52,0,0
86795.825,48.9568,-1361.02,0,0
87056.15,48.9121,-1356.33,0,0
87316.475,48.9595,-1351.68,0,0
87576.8,49.0275,-1347.08,0,0
87837.125,49.1057,-1342.58,0,0
88097.45,49.2718,-1338.17,0,0
88357.775,49.2343,-1333.66,0,0
88618.1,49.2235,-1329.25,0,0
88878.425,49.207,-1324.84,0,0
89138.75,49.0638,-1320.49,0,0
89399.075,49.0589,-1316.08,0,0
89659.4,49.1205,-1311.58,0,0
89919.725,49.071,-1307.02,0,0
90180,49.1298,-1302.73,0,0
90440.4,49.256,-1298.19,0,0
90700.7,49.4165,-1293.92,0,0
90961,49.4637,-1289.78,0,0
91221.3,49.5496,-1285.51,0,0
91481.7,49.4875,-1281.2,0,0
91742,49.7085,-1276.97,0,0
92002.3,49.7678,-1272.79,0,0
92262.6,49.8761,-1268.56,0,0
92523,49.9298,-1264.54,0,0
92783.3,49.9008,-1260.38,0,0
93043.6,49.7755,-1256.06,0,0
93303.9,49.8573,-1251.59,0,0
93564.3,50.2314,-1247.22,0,0
93824.6,50.7178,-1242.78,0,0
94084.9,51.4462,-1238.66,0,0
94345.2,52.3395,-1235.1,0,0
94605.6,52.8257,-1231.78,0,0
94865.9,52.9994,-1228.69,0,0
95126.2,52.7628,-1225.26,0,0
95386.5,52.5804,-1221.67,0,0
95646.9,52.2955,-1218.24,0,0
95907.2,51.7551,-1214.46,0,0
96167.5,51.4287,-1210.26,0,0
96427.8,51.4077,-1206.37,0,0
96688.2,51.1673,-1202.44,0,0
96948.5,51.1711,-1198.38,0,0
97208.8,51.177,-1194.37,0,0
97469.1,51.2195,-1190.48,0,0
97729.5,51.2976,-1186.43,0,0
97989.8,51.5959,-1182.45,0,0
98250.1,51.9201,-1178.77,0,0
98510.4,52.1216,-1175,0,0
98770.8,52.3499,-1171.6,0,0
99031.1,52.2311,-1168.05,0,0
99291.4,52.1097,-1164.32,0,0
99551.7,52.1272,-1160.62,0,0
99812.1,51.8823,-1156.75,0,0
100072,52.0251,-1152.7,0,0
100333,52.4109,-1148.87,0,0
100593,52.7394,-1145.21,0,0
100853,52.8034,-1141.62,0,0
101114,52.9719,-1137.66,0,0
101374,53.5321,-1133.91,0,0
101634,53.9621,-1130.47,0,0
101895,54.1481,-1127,0,0
102155,54.4574,-1123.43,0,0
102415,54.7338,-1119.83,0,0
102676,55.1602,-1116.23,0,0
102936,55.5631,-1112.74,0,0
103196,56.0754,-1109.15,0,0
103457,56.8107,-1105.83,0,0
103717,57.5236,-1102.72,0,0
103977,58.074,-1100.01,0,0
104238,57.8751,-1097.28,0,0
104498,57.8656,-1093.79,0,0
104758,58.3914,-1090.53,0,0
105019,58.78,-1087.78,0,0
105279,58.6073,-1084.91,0,0
105539,58.512,-1081.75,0,0
105800,58.5208,-1078.58,0,0
106060,58.4791,-1075.44,0,0
106320.175,58.3335,-1072.18,0,0
106580.5,58.3412,-1068.75,0,0
106840.825,58.4509,-1065.26,0,0
107101.15,58.8122,-1061.8,0,0
107361.475,59.2156,-1058.72,0,0
107621.8,59.3138,-1055.59,0,0
107882.125,59.5948,-1052.32,0,0
108142.45,59.8153,-1049.17,0,0
108402.775,60.0999,-1046.15,0,0
108663.1,60.2194,-1043.06,0,0
108923.425,60.3379,-1040.03,0,0
109183.75,60.3242,-1036.9,0,0
109444.075,60.473,-1033.58,0,0
109704.4,60.5985,-1030.43,0,0
109964.725,60.6308,-1027.06,0,0
110225.05,60.6663,-1023.65,0,0
110485.375,60.8618,-1020.01,0,0
110745.7,61.4557,-1016.41,0,0
111006.025,62.0976,-1012.94,0,0
111266.35,62.8453,-1009.61,0,0
111526.675,63.4839,-1006.53,0,0
111787.0,63.9751,-1003.33,0,0
112047.325,64.7282,-999.928,0,0
112307.65,65.5218,-996.722,0,0
112567.975,66.451,-993.572,0,0
112828.3,67.448,-990.419,0,0
113088.625,68.6851,-987.33,0,0
113348.95,69.9551,-984.727,0,0
113609.275,70.9684,-982.28,0,0
113869.6,71.6998,-979.726,0,0
114129.925,72.5678,-976.984,0,0
114390.25,73.499,-974.3,0,0
114650.575,74.5344,-971.72,0,0
114910.9,75.5808,-969.22,0,0
115171.225,76.5801,-966.729,0,0
115431.55,77.6911,-964.198,0,0
115691.875,78.8251,-961.664,0,0
115952.2,80.3479,-959.217,0,0
116212.525,81.9735,-957.167,0,0
116472.85,83.6603,-955.439,0,0
116733.175,85.1757,-954.148,0,0
116993.5,86.4086,-953.025,0,0
117253.825,87.4564,-952.011,0,0
117514.15,88.16,-951.205,0,0
117774.475,88.7246,-950.353,0,0
118034.8,88.7994,-949.415,0,0
118295.125,88.9115,-947.899,0,0
118555.45,89.6735,-946.293,0,0
118815.775,90.7545,-945.451,0,0
119076.1,91.1872,-945.298,0,0
119336.425,91.2149,-944.858,0,0
119596.75,91.3626,-944.607,0,0
119857.075,90.8941,-945.088,0,0
120117.4,89.4077,-945.188,0,0
120377.725,87.6458,-944.494,0,0
120638.05,85.9661,-943.786,0,0
120898.375,83.8675,-942.756,0,0
121158.7,81.5834,-941.31,0,0
121419.025,79.1657,-939.192,0,0
121679.35,77.2776,-936.502,0,0
121939.675,75.9555,-933.896,0,0
122200.0,74.6379,-931.607,0,0
122460,73.0848,-929.093,0,0
122721,71.7454,-926.307,0,0
122981,70.6454,-923.619,0,0
123241,69.5274,-920.939,0,0
123502,68.3264,-918.205,0,0
123762,67.2334,-915.209,0,0
124022,66.4027,-912.153,0,0
124283,65.7763,-909.181,0,0
124543,65.2467,-906.333,0,0
124803,64.8012,-903.628,0,0
125064,64.3247,-901.066,0,0
125324,63.6227,-898.711,0,0
125584,62.6522,-896.16,0,0
125845,61.6742,-893.315,0,0
126105,60.9226,-890.287,0,0
126365,60.2867,-887.466,0,0
126626,59.6495,-884.523,0,0
126886,59.0438,-881.502,0,0
127146,58.4503,-878.612,0,0
127406,57.7857,-875.552,0,0
127667,57.4396,-872.389,0,0
127927,57.2063,-869.345,0,0
128187,56.9489,-866.439,0,0
128448,56.6463,-863.616,0,0
128708,56.3554,-860.679,0,0
128968,55.969,-857.755,0,0
129229,55.7018,-854.701,0,0
129489,55.642,-851.775,0,0
129749,55.447,-848.99,0,0
130010,55.1383,-846.148,0,0
130270,54.9423,-843.12,0,0
130530,54.8471,-840.155,0,0
130791,54.8006,-837.276,0,0
131051,54.6721,-834.521,0,0
131311,54.4394,-831.763,0,0
131572,54.0474,-828.792,0,0
131832,53.8574,-825.668,0,0
132092,53.7785,-822.519,0,0
132353,53.8171,-819.429,0,0
132613,53.8604,-816.401,0,0
132873,53.9116,-813.274,0,0
133134,54.0522,-810.16,0,0
133394,54.2429,-807.03,0,0
133654,54.516,-803.875,0,0
133915,54.9184,-800.692,0,0
134175,55.4451,-797.594,0,0
134435,56.0932,-794.56,0,0
134696,56.8132,-791.615,0,0
134956,57.5676,-788.819,0,0
135216,58.3447,-786.033,0,0
135477,59.3351,-783.369,0,0
135737,60.3013,-780.96,0,0
135997,61.3436,-778.716,0,0
136258,62.3014,-776.787,0,0
136518,63.11,-775.05,0,0
136778,63.5653,-773.554,0,0
137039,63.6751,-772.044,0,0
137299,63.3512,-770.369,0,0
137559,63.0046,-768.217,0,0
137819,62.8463,-765.993,0,0
138080,62.6655,-763.825,0,0
138340.125,62.3594,-761.576,0,0
138600.45,62.0167,-759.159,0,0
138860.775,61.6971,-756.632,0,0
139121.1,61.4179,-753.875,0,0
139381.425,61.3936,-751.094,0,0
139641.75,61.4941,-748.402,0,0
139902.075,61.5642,-745.793,0,0
140162.4,61.6604,-743.087,0,0
140422.725,61.8416,-740.439,0,0
140683.05,61.9972,-737.912,0,0
140943.375,62.0578,-735.362,0,0
141203.7,62.1173,-732.738,0,0
141464.025,62.2229,-730.102,0,0
141724.35,62.2781,-727.443,0,0
141984.675,62.3546,-724.629,0,0
142245.0,62.641,-721.829,0,0
142505.325,62.932,-719.142,0,0
142765.65,63.1379,-716.445,0,0
143025.975,63.4522,-713.642,0,0
143286.3,63.844,-710.853,0,0
143546.625,64.3178,-708.158,0,0
143806.95,64.8154,-705.534,0,0
144067.275,65.3198,-702.959,0,0
144327.6,65.8096,-700.489,0,0
144587.925,66.2192,-698.026,0,0
144848.25,66.5835,-695.643,0,0
145108.575,66.8148,-693.149,0,0
145368.9,67.1636,-690.701,0,0
145629.225,67.3743,-688.315,0,0
145889.55,67.4302,-685.827,0,0
146149.875,67.4723,-683.075,0,0
146410.2,67.7286,-680.221,0,0
146670.525,68.1618,-677.448,0,0
146930.85,68.5434,-674.807,0,0
147191.175,68.9134,-672.14,0,0
147451.5,69.3634,-669.546,0,0
147711.825,69.5766,-666.983,0,0
147972.15,69.8174,-664.187,0,0
148232.475,70.2383,-661.487,0,0
148492.8,70.5628,-658.844,0,0
148753.125,70.8981,-656.186,0,0
149013.45,71.1187,-653.586,0,0
149273.775,71.2097,-650.892,0,0
149534.1,71.2442,-648.029,0,0
149794.425,71.3453,-644.975,0,0
150054.75,71.512,-641.846,0,0
150315.075,71.7696,-638.676,0,0
150575.4,72.0732,-635.457,0,0
150835.725,72.3896,-632.192,0,0
151096.05,72.788,-628.848,0,0
151356.375,73.2279,-625.387,0,0
151616.7,73.7743,-621.873,0,0
151877.025,74.4412,-618.309,0,0
152137.35,75.2353,-614.687,0,0
152397.675,76.1468,-611.12,0,0
152658.0,77.0893,-607.493,0,0
152918.325,78.1868,-603.845,0,0
153178.65,79.4236,-600.225,0,0
153438.975,80.7832,-596.688,0,0
153699.3,82.1209,-593.245,0,0
153959.625,83.4342,-589.769,0,0
154219.95,84.8197,-586.166,0,0
154480,86.3634,-582.546,0,0
154741,88.1434,-578.921,0,0
155001,89.9797,-575.327,0,0
155261,91.9914,-571.865,0,0
155522,94.0172,-568.487,0,0
155782,96.1791,-565.069,0,0
156042,98.3759,-561.831,0,0
156303,100.769,-558.734,0,0
156563,103.166,-555.762,0,0
156823,105.629,-552.865,0,0
157084,108.095,-550.032,0,0
157344,110.594,-547.301,0,0
157604,113.195,-544.71,0,0
157864,115.793,-542.335,0,0
158125,118.312,-540.249,0,0
158385,120.614,-538.242,0,0
158645,122.842,-536.258,0,0
158906,125.016,-534.528,0,0
159166,126.797,-532.936,0,0
159426,128.211,-531.213,0,0
159687,129.232,-529.492,0,0
159947,129.889,-527.363,0,0
160207,130.334,-524.688,0,0
160468,130.905,-521.378,0,0
160728,131.699,-517.597,0,0
160988,132.814,-513.738,0,0
161249,134.005,-509.597,0,0
161509,135.477,-504.886,0,0
161769,137.448,-499.868,0,0
162030,140.163,-494.885,0,0
162290,143.298,-490.009,0,0
162550,146.965,-485.292,0,0
162811,150.701,-480.965,0,0
163071,154.381,-476.647,0,0
163331,158.25,-471.95,0,0
163592,162.751,-467.199,0,0
163852,168.055,-462.751,0,0
164112,173.551,-458.789,0,0
164373,179.032,-455.249,0,0
164633,184.601,-451.707,0,0
164893,190.489,-448.448,0,0
165154,196.254,-445.646,0,0
165414,201.741,-442.715,0,0
165674,207.312,-439.33,0,0
165935,213.355,-435.696,0,0
166195,220.112,-431.611,0,0
166455,227.921,-427.502,0,0
166716,237.032,-424.04,0,0
166976,246.831,-421.767,0,0
167236,256.791,-420.416,0,0
167497,267.11,-419.824,0,0
167757,277.534,-420.111,0,0
168017,288.085,-421.166,0,0
168277,298.73,-423.065,0,0
168538,309.501,-425.926,0,0
168798,320.111,-430.188,0,0
169058,329.789,-435.4,0,0
169319,339.14,-441.202,0,0
169579,347.709,-447.842,0,0
169839,355.016,-454.541,0,0
170100,362.32,-460.899,0,0
170360.075,369.857,-467.489,0,0
170620.4,377.986,-474.857,0,0
170880.725,386.142,-484.296,0,0
171141.05,392.472,-495.559,0,0
171401.375,396.67,-507.168,0,0
171661.7,399.155,-518.341,0,0
171922.025,400.734,-528.541,0,0
172182.35,402.633,-538.236,0,0
172442.675,404.675,-549.061,0,0
172703.0,405.062,-561.321,0,0
172963.325,403.144,-573.32,0,0
173223.65,399.797,-584.578,0,0
173483.975,395.044,-594.884,0,0
173744.3,389.491,-604.084,0,0
174004.625,382.973,-612.408,0,0
174264.95,375.711,-619.448,0,0
174525.275,367.745,-625.03,0,0
174785.6,359.941,-628.772,0,0
175045.925,352.493,-631.473,0,0
175306.25,345.342,-633.001,0,0
175566.575,338.882,-633.716,0,0
175826.9,332.061,-633.524,0,0
176087.225,326.077,-630.59,0,0
176347.55,323.53,-626.51,0,0
176607.875,323.568,-623.792,0,0
176868.2,324.573,-622.762,0,0
177128.525,325.826,-622.941,0,0
177388.85,327.224,-624.034,0,0
177649.175,328.681,-625.842,0,0
177909.5,330.29,-628.31,0,0
178169.825,332.596,-631.662,0,0
178430.15,335.263,-636.981,0,0
178690.475,336.901,-645.057,0,0
178950.8,335.364,-654.889,0,0
179211.125,330.572,-664.04,0,0
179471.45,323.916,-671.432,0,0
179731.775,316.557,-677.097,0,0
179992.1,308.738,-681.717,0,0
180252.425,300.574,-684.507,0,0
180512.75,293.551,-686.085,0,0
180773.075,287.442,-687.889,0,0
181033.4,281.311,-690.221,0,0
181293.725,274.54,-692.986,0,0
181554.05,266.379,-695.526,0,0
181814.375,257.194,-696.565,0,0
182074.7,248.159,-696.142,0,0
182335.025,239.567,-694.825,0,0
182595.35,231.254,-692.974,0,0
182855.675,222.977,-690.311,0,0
183116.0,215.075,-686.643,0,0
183376.325,208,-682.105,0,0
183636.65,202.018,-677.368,0,0
183896.975,196.495,-672.834,0,0
184157.3,191.072,-668.121,0,0
184417.625,186.031,-662.848,0,0
184677.95,181.742,-657.137,0,0
184938.275,178.653,-651.346,0,0
185198.6,176.577,-646.558,0,0
185458.925,174.104,-642.866,0,0
185719.25,170.936,-639.26,0,0
185979.575,167.259,-635.341,0,0
186239.9,163.46,-630.603,0,0
186500,160.228,-625.138,0,0
186761,157.861,-619.592,0,0
187021,155.792,-614.331,0,0
187281,153.84,-608.873,0,0
187542,152.47,-603.1,0,0
187802,151.986,-597.554,0,0
188062,151.982,-592.615,0,0
188322,152.308,-588.242,0,0
188583,152.682,-584.731,0,0
188843,152.524,-582.014,0,0
189103,151.357,-579.496,0,0
189364,149.498,-576.396,0,0
189624,147.514,-572.634,0,0
189884,145.706,-568.412,0,0
190145,144.132,-563.895,0,0
190405,142.807,-559.106,0,0
190665,141.842,-554.293,0,0
190926,140.917,-549.502,0,0
191186,139.962,-544.367,0,0
191446,139.579,-538.839,0,0
191707,139.844,-533.504,0,0
191967,140.324,-528.584,0,0
192227,140.757,-523.924,0,0
192488,141.047,-519.271,0,0
192748,141.354,-514.338,0,0
193008,141.972,-509.35,0,0
193269,142.817,-504.463,0,0
193529,143.734,-499.628,0,0
193789,144.723,-494.767,0,0
194050,145.884,-489.814,0,0
194310,147.283,-484.854,0,0
194570,148.908,-479.92,0,0
194831,150.794,-475.058,0,0
195091,152.917,-470.317,0,0
195351,155.282,-465.785,0,0
195612,157.633,-461.559,0,0
195872,159.938,-457.505,0,0
196132,162.21,-453.322,0,0
196393,164.648,-449.279,0,0
196653,167.194,-445.295,0,0
196913,169.798,-441.381,0,0
197174,172.453,-437.7,0,0
197434,175.012,-434.075,0,0
197694,177.567,-430.424,0,0
197955,180.198,-426.729,0,0
198215,182.715,-423.099,0,0
198475,185.229,-419.372,0,0
198735,187.952,-415.466,0,0
198996,190.804,-411.564,0,0
199256,193.733,-407.805,0,0
199516,196.725,-404.056,0,0
199777,199.67,-400.181,0,0
200037,202.75,-396.072,0,0
200297,206.072,-391.755,0,0
200558,209.835,-387.373,0,0
200818,213.982,-383.139,0,0
201078,218.352,-379.224,0,0
201339,222.655,-375.47,0,0
201599,226.967,-371.505,0,0
201859,231.696,-367.278,0,0
202120,236.929,-363.188,0,0
202380.025,242.567,-359.362,0,0
202640.35,248.614,-355.925,0,0
202900.675,254.637,-352.795,0,0
203161.0,260.801,-349.73,0,0
203421.325,267.282,-346.822,0,0
203681.65,274.083,-344.28,0,0
203941.975,281.091,-342.015,0,0
204202.3,288.222,-340.17,0,0
204462.625,295.522,-338.651,0,0
204722.95,302.839,-337.527,0,0
204983.275,310.253,-336.779,0,0
205243.6,317.563,-336.402,0,0
205503.925,325.051,-335.954,0,0
205764.25,333.012,-336.012,0,0
206024.575,341.172,-336.988,0,0
206284.9,348.795,-338.899,0,0
206545.225,355.81,-341.217,0,0
206805.55,362.425,-343.752,0,0
207065.875,368.287,-346.727,0,0
207326.2,373.351,-349.523,0,0
207586.525,377.875,-351.689,0,0
207846.85,382.117,-353.389,0,0
208107.175,386.362,-354.422,0,0
208367.5,390.801,-354.616,0,0
208627.825,395.896,-353.898,0,0
208888.15,402.357,-352.774,0,0
209148.475,410.564,-351.591,0,0
209408.8,420.349,-351.639,0,0
209669.125,431.112,-353.33,0,0
209929.45,442.19,-356.865,0,0
210189.775,452.726,-362.3,0,0
210450.1,462.683,-368.619,0,0
210710.425,472.185,-376.081,0,0
210970.75,480.968,-384.942,0,0
211231.075,488.445,-394.874,0,0
211491.4,494.498,-405.397,0,0
211751.725,499.023,-416.223,0,0
212012.05,502.049,-426.768,0,0
212272.375,504.107,-436.652,0,0
212532.7,505.539,-445.912,0,0
212793.025,506.761,-454.587,0,0
213053.35,508.088,-463.16,0,0
213313.675,508.953,-472.121,0,0
213574.0,509.063,-481.112,0,0
213834.325,508.565,-489.779,0,0
214094.65,507.664,-498.208,0,0
214354.975,506.295,-506.517,0,0
214615.3,504.345,-514.803,0,0
214875.625,501.26,-522.801,0,0
215135.95,497.313,-529.495,0,0
215396.275,493.635,-534.767,0,0
215656.6,490.688,-539.308,0,0
215916.925,488.597,-543.88,0,0
216177.25,486.805,-548.742,0,0
216437.575,485.196,-554.002,0,0
216697.9,483.483,-559.858,0,0
216958.225,481.159,-566.341,0,0
217218.55,477.772,-572.976,0,0
217478.875,473.452,-579.231,0,0
217739.2,468.397,-584.858,0,0
217999.525,462.858,-589.752,0,0
218259.85,457.185,-593.746,0,0
218520,451.675,-597.231,0,0
218780,446.119,-600.512,0,0
219041,440.253,-603.658,0,0
219301,433.698,-606.291,0,0
219561,426.694,-607.837,0,0
219822,419.693,-608.241,0,0
220082,413.152,-607.459,0,0
220342,407.349,-605.818,0,0
220603,402.23,-603.668,0,0
220863,397.971,-601.211,0,0
221123,394.328,-598.569,0,0
221384,391.255,-595.843,0,0
221644,388.693,-593.083,0,0
221904,386.588,-590.229,0,0
222165,385.02,-587.308,0,0
222425,384.052,-584.471,0,0
222685,383.623,-581.826,0,0
222946,383.638,-579.546,0,0
223206,383.875,-577.615,0,0
223466,384.113,-575.891,0,0
223727,384.394,-574.294,0,0
223987,384.791,-572.641,0,0
224247,385.481,-571.058,0,0
224508,386.435,-569.389,0,0
224768,387.601,-568.061,0,0
225028,388.865,-566.716,0,0
225289,390.266,-565.251,0,0
225549,392.235,-563.66,0,0
225809,394.897,-562.229,0,0
226070,398.206,-561.243,0,0
226330,401.992,-560.874,0,0
226590,406.158,-561.32,0,0
226851,410.26,-562.849,0,0
227111,413.881,-564.937,0,0
227371,416.984,-567.344,0,0
227632,420.01,-569.739,0,0
227892,423.014,-572.296,0,0
228152,426.135,-575.139,0,0
228413,429.417,-578.318,0,0
228673,432.854,-582.141,0,0
228933,436.121,-586.749,0,0
229193,439.028,-592.113,0,0
229454,441.202,-598.195,0,0
229714,442.476,-604.593,0,0
229974,442.91,-610.762,0,0
230235,443.197,-616.532,0,0
230495,443.6,-622.558,0,0
230755,443.807,-629.444,0,0
231016,442.956,-636.874,0,0
231276,440.831,-644.249,0,0
231536,437.805,-650.903,0,0
231797,434.597,-656.86,0,0
232057,431.373,-662.518,0,0
232317,428.066,-668.104,0,0
232578,424.726,-673.673,0,0
232838,421.1,-679.492,0,0
233098,417.006,-685.469,0,0
233359,412.319,-691.513,0,0
233619,407.095,-697.744,0,0
233879,400.643,-704.223,0,0
234140,392.628,-710.036,0,0
234400,383.642,-714.435,0,0
234660.3,374.265,-717.384,0,0
234920.625,364.693,-719.107,0,0
235180.95,355.522,-719.677,0,0
235441.275,346.509,-719.059,0,0
235701.6,338.175,-717.433,0,0
235961.925,330.692,-715.198,0,0
236222.25,324.041,-712.385,0,0
236482.575,318.197,-709.457,0,0
236742.9,313.143,-706.527,0,0
237003.225,308.721,-703.864,0,0
237263.55,304.662,-701.941,0,0
237523.875,300.131,-700.383,0,0
237784.2,295.012,-698.592,0,0
238044.525,289.756,-696.222,0,0
238304.85,284.408,-693.146,0,0
238565.175,279.372,-689.227,0,0
238825.5,275.148,-684.514,0,0
239085.825,271.961,-679.549,0,0
239346.15,269.9,-674.579,0,0
239606.475,268.611,-670.09,0,0
239866.8,267.859,-666.254,0,0
240127.125,267.387,-662.724,0,0
240387.45,267.525,-659.756,0,0
240647.775,267.921,-657.736,0,0
240908.1,267.957,-656.936,0,0
241168.425,266.847,-656.457,0,0
241428.75,265.048,-655.598,0,0
241689.075,263.254,-654.366,0,0
241949.4,261.454,-653.124,0,0
242209.725,259.432,-652.108,0,0
242470.05,256.769,-651.044,0,0
242730.375,253.523,-649.24,0,0
242990.7,250.217,-646.315,0,0
243251.025,247.684,-642.533,0,0
243511.35,246.113,-638.646,0,0
243771.675,244.93,-635.021,0,0
244032.0,243.932,-631.395,0,0
244292.325,243.304,-627.445,0,0
244552.65,243.361,-623.417,0,0
244812.975,244.048,-619.673,0,0
245073.3,245.323,-616.31,0,0
245333.625,247.102,-613.565,0,0
245593.95,249.064,-611.573,0,0
245854.275,250.775,-610.315,0,0
246114.6,252.104,-609.545,0,0
246374.925,252.918,-608.891,0,0
246635.25,253.502,-608.094,0,0
246895.575,254.079,-607.289,0,0
247155.9,254.603,-606.609,0,0
247416.225,254.919,-606.136,0,0
247676.55,254.882,-605.458,0,0
247936.875,254.814,-604.486,0,0
248197.2,254.939,-603.306,0,0
248457.525,255.304,-602.201,0,0
248717.85,255.833,-601.148,0,0
248978.175,256.398,-600.255,0,0
249238.5,256.974,-599.411,0,0
249498.825,257.598,-598.71,0,0
249759.15,258.238,-597.987,0,0
250019.475,259.161,-597.301,0,0
250279.8,260.075,-596.979,0,0
250540,260.943,-596.911,0,0
250800,261.544,-597.021,0,0
251061,262.021,-597.082,0,0
251321,262.449,-597.079,0,0
251581,262.937,-597.045,0,0
251842,263.542,-597.135,0,0
252102,264.164,-597.373,0,0
252362,264.773,-597.824,0,0
252623,265.23,-598.468,0,0
252883,265.592,-599.231,0,0
253143,265.741,-600.113,0,0
253404,265.734,-601.018,0,0
253664,265.651,-601.959,0,0
253924,265.441,-602.968,0,0
254185,265.115,-604.121,0,0
254445,264.432,-605.425,0,0
254705,263.432,-606.753,0,0
254966,262.152,-607.822,0,0
255226,260.711,-608.674,0,0
255486,259.138,-609.44,0,0
255747,257.367,-610.104,0,0
256007,255.378,-610.478,0,0
256267,253.336,-610.529,0,0
256528,251.364,-610.31,0,0
256788,249.437,-609.871,0,0
257048,247.65,-609.312,0,0
257309,245.857,-608.698,0,0
257569,244.013,-607.903,0,0
257829,242.177,-606.872,0,0
258090,240.482,-605.607,0,0
258350,238.978,-604.198,0,0
258610,237.564,-602.615,0,0
258871,236.381,-600.905,0,0
259131,235.502,-599.137,0,0
259391,234.844,-597.509,0,0
259651,234.18,-595.964,0,0
259912,233.386,-594.392,0,0
260172,232.718,-592.738,0,0
260432,232.117,-590.909,0,0
260693,231.542,-588.939,0,0
260953,231.236,-586.749,0,0
261213,231.207,-584.431,0,0
261474,231.509,-582.066,0,0
261734,232.117,-579.67,0,0
261994,233.111,-577.328,0,0
262255,234.442,-575.076,0,0
262515,236.269,-573,0,0
262775,238.49,-571.321,0,0
263036,240.942,-570.12,0,0
263296,243.489,-569.372,0,0
263556,246.039,-569.165,0,0
263817,248.53,-569.361,0,0
264077,250.946,-570.016,0,0
264337,253.059,-571.124,0,0
264598,254.716,-572.575,0,0
264858,255.87,-574.108,0,0
265118,256.642,-575.465,0,0
265379,257.23,-576.666,0,0
265639,257.652,-577.842,0,0
265899,258.054,-578.739,0,0
266160,258.526,-579.529,0,0
266420,259.095,-580.335,0,0
266680.25,259.736,-581.227,0,0
266940.575,260.399,-582.215,0,0
267200.9,261.044,-583.351,0,0
267461.225,261.618,-584.582,0,0
267721.55,262.168,-585.964,0,0
267981.875,262.579,-587.515,0,0
268242.2,262.735,-589.159,0,0
268502.525,262.637,-590.725,0,0
268762.85,262.436,-592.13,0,0
269023.175,262.152,-593.413,0,0
269283.5,261.851,-594.573,0,0
269543.825,261.665,-595.489,0,0
269804.15,261.662,-596.338,0,0
270064.475,262.02,-597.258,0,0
270324.8,262.561,-598.359,0,0
270585.125,263.26,-599.785,0,0
270845.45,264,-601.502,0,0
271105.775,264.74,-603.477,0,0
271366.1,265.394,-605.798,0,0
271626.425,266.011,-608.331,0,0
271886.75,266.683,-611.092,0,0
272147.075,267.469,-614.31,0,0
272407.4,268.264,-618.293,0,0
272667.725,268.639,-623.219,0,0
272928.05,268.069,-629.034,0,0
273188.375,266.108,-635.166,0,0
273448.7,263.063,-641.071,0,0
273709.025,259.202,-646.639,0,0
273969.35,254.393,-652.01,0,0
274229.675,248.692,-656.827,0,0
274490.0,242.144,-660.881,0,0
274750.325,235.061,-664.087,0,0
275010.65,227.651,-666.329,0,0
275270.975,220.107,-667.684,0,0
275531.3,212.409,-668.25,0,0
275791.625,204.722,-667.921,0,0
276051.95,197.228,-666.762,0,0
276312.275,190.07,-664.805,0,0
276572.6,183.354,-662.194,0,0
276832.925,177.128,-659.146,0,0
277093.25,171.236,-655.701,0,0
277353.575,165.728,-651.831,0,0
277613.9,160.679,-647.533,0,0
277874.225,156.164,-642.875,0,0
278134.55,152.282,-637.949,0,0
278394.875,149.041,-632.892,0,0
278655.2,146.442,-627.857,0,0
278915.525,144.41,-622.966,0,0
279175.85,142.775,-618.313,0,0
279436.175,141.464,-613.919,0,0
279696.5,140.357,-609.662,0,0
279956.825,139.498,-605.544,0,0
280217.15,138.938,-601.535,0,0
280477.475,138.643,-597.758,0,0
280737.8,138.514,-594.213,0,0
280998.125,138.597,-590.931,0,0
281258.45,138.749,-588,0,0
281518.775,138.868,-585.371,0,0
281779.1,138.854,-582.983,0,0
282039.425,138.631,-580.698,0,0
282299.75,138.268,-578.41,0,0
282560,137.794,-576.08,0,0
282820,137.24,-573.668,0,0
283081,136.644,-571.114,0,0
283341,136.145,-568.372,0,0
283601,135.775,-565.548,0,0
283862,135.503,-562.669,0,0
284122,135.366,-559.681,0,0
284382,135.455,-556.574,0,0
284643,135.848,-553.508,0,0
284903,136.462,-550.518,0,0
285163,137.291,-547.685,0,0
285424,138.311,-545.073,0,0
285684,139.419,-542.63,0,0
285944,140.581,-540.402,0,0
286205,141.738,-538.342,0,0
286465,142.892,-536.449,0,0
286725,144.057,-534.695,0,0
286986,145.165,-533.108,0,0
287246,146.184,-531.676,0,0
287506,147.064,-530.317,0,0
287767,147.8,-528.979,0,0
288027,148.4,-527.609,0,0
288287,148.91,-526.131,0,0
288548,149.383,-524.524,0,0
288808,149.894,-522.775,0,0
289068,150.518,-520.907,0,0
289329,151.3,-518.954,0,0
289589,152.26,-517.031,0,0
289849,153.359,-515.18,0,0
290109,154.518,-513.405,0,0
290370,155.755,-511.685,0,0
290630,157.077,-509.98,0,0
290890,158.494,-508.318,0,0
291151,160.056,-506.762,0,0
291411,161.69,-505.374,0,0
291671,163.324,-504.13,0,0
291932,164.92,-503.003,0,0
292192,166.467,-501.906,0,0
292452,168.051,-500.832,0,0
292713,169.65,-499.813,0,0
292973,171.286,-498.856,0,0
293233,172.923,-498.002,0,0
293494,174.524,-497.196,0,0
293754,176.069,-496.413,0,0
294014,177.631,-495.63,0,0
294275,179.2,-494.835,0,0
294535,180.797,-494.014,0,0
294795,182.466,-493.196,0,0
295056,184.193,-492.376,0,0
295316,185.978,-491.555,0,0
295576,187.908,-490.737,0,0
295837,189.979,-489.947,0,0
296097,192.184,-489.281,0,0
296357,194.491,-488.752,0,0
296618,196.894,-488.312,0,0
296878,199.382,-488.005,0,0
297138,201.965,-487.855,0,0
297399,204.602,-487.873,0,0
297659,207.285,-488.032,0,0
297919,210.014,-488.374,0,0
298180,212.78,-488.914,0,0
298440,215.509,-489.657,0,0
298700.2,218.185,-490.566,0,0
298960.525,220.788,-491.576,0,0
299220.85,223.421,-492.674,0,0
299481.175,226.043,-493.862,0,0
299741.5,228.716,-495.179,0,0
300001.825,231.446,-496.62,0,0
300262.15,234.271,-498.288,0,0
300522.475,237.155,-500.151,0,0
300782.8,240.065,-502.209,0,0
301043.125,243.053,-504.617,0,0
301303.45,246.085,-507.37,0,0
301563.775,249.118,-510.384,0,0
301824.1,252.07,-513.96,0,0
302084.425,254.891,-518.065,0,0
302344.75,257.612,-522.773,0,0
302605.075,259.801,-528.169,0,0
302865.4,261.358,-534.136,0,0
303125.725,261.929,-540.453,0,0
303386.05,261.523,-546.823,0,0
303646.375,260.223,-552.918,0,0
303906.7,258.256,-558.57,0,0
304167.025,255.804,-563.715,0,0
304427.35,253.091,-568.424,0,0
304687.675,250.204,-572.763,0,0
304948.0,247.078,-576.858,0,0
305208.325,243.76,-580.692,0,0
305468.65,240.225,-584.199,0,0
305728.975,236.527,-587.408,0,0
305989.3,232.677,-590.362,0,0
306249.625,228.688,-593,0,0
306509.95,224.566,-595.375,0,0
306770.275,220.277,-597.397,0,0
307030.6,215.929,-599.036,0,0
307290.925,211.597,-600.297,0,0
307551.25,207.333,-601.207,0,0
307811.575,203.182,-601.86,0,0
308071.9,199.105,-602.298,0,0
308332.225,195.117,-602.498,0,0
308592.55,191.198,-602.489,0,0
308852.875,187.352,-602.262,0,0
309113.2,183.625,-601.788,0,0
309373.525,180.058,-601.119,0,0
309633.85,176.657,-600.303,0,0
309894.175,173.468,-599.325,0,0
310154.5,170.401,-598.278,0,0
310414.825,167.519,-597.159,0,0
310675.15,164.759,-595.97,0,0
310935.475,162.167,-594.742,0,0
311195.8,159.669,-593.47,0,0
311456.125,157.263,-592.166,0,0
311716.45,154.995,-590.812,0,0
311976.775,152.866,-589.419,0,0
312237.1,150.869,-588.044,0,0
312497.425,148.971,-586.722,0,0
312757.75,147.133,-585.465,0,0
313018.075,145.294,-584.214,0,0
313278.4,143.46,-582.941,0,0
313538.725,141.652,-581.633,0,0
313799.05,139.875,-580.291,0,0
314059.375,138.134,-578.897,0,0
314319.7,136.457,-577.447,0,0
314580,134.852,-575.952,0,0
314840,133.261,-574.317,0,0
315101,131.861,-572.768,0,0
315361,130.472,-571.092,0,0
315621,129.252,-569.354,0,0
315882,128.203,-567.728,0,0
316142,127.164,-566.057,0,0
316402,126.346,-564.467,0,0
316663,125.432,-562.845,0,0
316923,124.805,-561.406,0,0
317183,124.139,-559.981,0,0
317444,123.551,-558.642,0,0
317704,122.923,-557.268,0,0
317964,122.409,-556.105,0,0
318225,121.777,-554.962,0,0
318485,121.157,-553.678,0,0
318745,120.522,-552.504,0,0
319006,119.921,-551.238,0,0
319266,119.431,-550.004,0,0
319526,119.056,-548.83,0,0
319787,118.68,-547.587,0,0
320047,118.415,-546.558,0,0
320307,118.171,-545.394,0,0
320567,117.998,-544.465,0,0
320828,117.774,-543.564,0,0
321088,117.529,-542.891,0,0
321348,117.297,-542.171,0,0
321609,116.969,-541.474,0,0
321869,116.606,-540.771,0,0
322129,116.207,-540.147,0,0
322390,115.913,-539.553,0,0
322650,115.486,-538.981,0,0
322910,115.05,-538.431,0,0
323171,114.509,-537.863,0,0
323431,113.923,-537.261,0,0
323691,113.361,-536.699,0,0
323952,112.846,-536.069,0,0
324212,112.213,-535.433,0,0
324472,111.693,-534.772,0,0
324733,111.076,-534.125,0,0
324993,110.52,-533.41,0,0
325253,110.003,-532.737,0,0
325514,109.468,-532.016,0,0
325774,108.924,-531.368,0,0
326034,108.4,-530.695,0,0
326295,107.888,-529.983,0,0
326555,107.455,-529.393,0,0
326815,107.036,-528.793,0,0
327076,106.529,-528.233,0,0
327336,106.021,-527.753,0,0
327596,105.523,-527.207,0,0
327857,104.933,-526.7,0,0
328117,104.346,-526.182,0,0
328377,103.705,-525.685,0,0
328638,103.049,-525.192,0,0
328898,102.313,-524.527,0,0
329158,101.692,-523.963,0,0
329419,100.895,-523.423,0,0
329679,100.332,-522.81,0,0
329939,99.6773,-522.096,0,0
330200,98.9509,-521.553,0,0
330460,98.3104,-520.914,0,0
330720.15,97.6216,-520.262,0,0
330980.475,96.8965,-519.635,0,0
331240.8,96.3346,-519.027,0,0
331501.125,95.6839,-518.435,0,0
331761.45,94.9324,-517.901,0,0
332021.775,94.1964,-517.432,0,0
332282.1,93.4325,-516.899,0,0
332542.425,92.5253,-516.297,0,0
332802.75,91.6462,-515.729,0,0
333063.075,90.6674,-515.054,0,0
333323.4,89.6996,-514.363,0,0
333583.725,88.6494,-513.644,0,0
333844.05,87.6668,-512.751,0,0
334104.375,86.6588,-511.827,0,0
334364.7,85.6826,-510.837,0,0
334625.025,84.7478,-509.873,0,0
334885.35,83.8389,-508.838,0,0
335145.675,82.984,-507.777,0,0
335406.0,82.1478,-506.614,0,0
335666.325,81.299,-505.508,0,0
335926.65,80.4753,-504.374,0,0
336186.975,79.6998,-503.169,0,0
336447.3,78.9568,-501.967,0,0
336707.625,78.228,-500.738,0,0
336967.95,77.4891,-499.49,0,0
337228.275,76.7807,-498.188,0,0
337488.6,76.1718,-496.858,0,0
337748.925,75.5975,-495.559,0,0
338009.25,75.0552,-494.15,0,0
338269.575,74.5688,-492.752,0,0
338529.9,74.1126,-491.458,0,0
338790.225,73.7414,-490.108,0,0
339050.55,73.3957,-488.799,0,0
339310.875,73.0633,-487.484,0,0
339571.2,72.7716,-486.174,0,0
339831.525,72.459,-484.881,0,0
340091.85,72.1922,-483.572,0,0
340352.175,71.9228,-482.312,0,0
340612.5,71.6815,-481.026,0,0
340872.825,71.4759,-479.787,0,0
341133.15,71.2291,-478.536,0,0
341393.475,71.0502,-477.22,0,0
341653.8,70.9259,-475.869,0,0
341914.125,70.8336,-474.629,0,0
342174.45,70.7884,-473.349,0,0
342434.775,70.702,-472.039,0,0
342695.1,70.7173,-470.836,0,0
342955.425,70.6965,-469.626,0,0
343215.75,70.7688,-468.413,0,0
343476.075,70.8331,-467.215,0,0
343736.4,70.8768,-466.011,0,0
343996.725,71.0116,-464.857,0,0
344257.05,71.1907,-463.743,0,0
344517.375,71.416,-462.597,0,0
344777.7,71.6262,-461.564,0,0
345038.025,71.8551,-460.597,0,0
345298.35,72.0612,-459.599,0,0
345558.675,72.3184,-458.703,0,0
345819.0,72.5308,-457.842,0,0
346079.325,72.7439,-457.009,0,0
346339.65,72.9288,-456.218,0,0
346599.975,73.1069,-455.417,0,0
346860,73.2275,-454.707,0,0
347121,73.3485,-453.945,0,0
347381,73.4304,-453.249,0,0
347641,73.4837,-452.546,0,0
347902,73.4876,-451.891,0,0
348162,73.4825,-451.194,0,0
348422,73.3817,-450.501,0,0
348683,73.2506,-449.749,0,0
348943,73.1189,-448.946,0,0
349203,72.9396,-448.126,0,0
349464,72.8194,-447.241,0,0
349724,72.6768,-446.324,0,0
349984,72.6911,-445.427,0,0
350245,72.5537,-444.521,0,0
350505,72.5291,-443.51,0,0
350765,72.5287,-442.6,0,0
351025,72.4232,-441.563,0,0
351286,72.3945,-440.59,0,0
351546,72.368,-439.508,0,0
351806,72.5201,-438.441,0,0
352067,72.5301,-437.336,0,0
352327,72.7502,-436.28,0,0
352587,72.985,-435.185,0,0
352848,73.2572,-434.154,0,0
353108,73.6395,-433.181,0,0
353368,74.0305,-432.207,0,0
353629,74.391,-431.298,0,0
353889,74.7841,-430.454,0,0
354149,75.2411,-429.641,0,0
354410,75.6979,-428.967,0,0
354670,76.1114,-428.277,0,0
354930,76.5125,-427.62,0,0
355191,76.8881,-427.029,0,0
355451,77.2483,-426.44,0,0
355711,77.6544,-425.945,0,0
355972,77.9341,-425.453,0,0
356232,78.2256,-425.079,0,0
356492,78.4408,-424.707,0,0
356753,78.5664,-424.3,0,0
357013,78.5681,-423.882,0,0
357273,78.5548,-423.424,0,0
357534,78.5575,-423.042,0,0
357794,78.477,-422.529,0,0
358054,78.2887,-422.015,0,0
358315,78.1304,-421.412,0,0
358575,77.9367,-420.748,0,0
358835,77.7482,-420.039,0,0
359096,77.5219,-419.215,0,0
359356,77.4287,-418.346,0,0
359616,77.2463,-417.381,0,0
359877,77.1831,-416.409,0,0
360137,77.2294,-415.401,0,0
360397,77.3308,-414.346,0,0
360658,77.4771,-413.365,0,0
360918,77.6839,-412.359,0,0
361178,77.9249,-411.346,0,0
361438,78.1879,-410.397,0,0
361699,78.5491,-409.473,0,0
361959,78.9324,-408.522,0,0
362219,79.2561,-407.63,0,0
362480,79.6785,-406.762,0,0
362740.1,80.1118,-405.936,0,0
363000.425,80.5842,-405.139,0,0
363260.75,81.045,-404.377,0,0
363521.075,81.5062,-403.63,0,0
363781.4,81.9644,-402.933,0,0
364041.725,82.424,-402.214,0,0
364302.05,82.9293,-401.504,0,0
364562.375,83.4235,-400.79,0,0
364822.7,83.926,-400.156,0,0
365083.025,84.4618,-399.519,0,0
365343.35,85.0237,-398.943,0,0
365603.675,85.6273,-398.423,0,0
365864.0,86.1391,-397.935,0,0
366124.325,86.6444,-397.469,0,0
366384.65,87.167,-397.077,0,0
366644.975,87.6073,-396.682,0,0
366905.3,88.0547,-396.316,0,0
367165.625,88.4353,-395.959,0,0
367425.95,88.8508,-395.536,0,0
367686.275,89.2142,-395.157,0,0
367946.6,89.6306,-394.768,0,0
368206.925,90.0801,-394.424,0,0
368467.25,90.5185,-394.034,0,0
368727.575,90.9315,-393.746,0,0
368987.9,91.3954,-393.491,0,0
369248.225,91.7873,-393.311,0,0
369508.55,92.1566,-393.153,0,0
369768.875,92.4941,-393.088,0,0
370029.2,92.7428,-393.036,0,0
370289.525,92.8926,-392.99,0,0
370549.85,92.9573,-392.96,0,0
370810.175,92.9115,-392.939,0,0
371070.5,92.7726,-392.828,0,0
371330.825,92.5132,-392.625,0,0
371591.15,92.2191,-392.287,0,0
371851.475,91.9558,-391.884,0,0
372111.8,91.6807,-391.355,0,0
372372.125,91.4347,-390.747,0,0
372632.45,91.2455,-390.061,0,0
372892.775,91.1424,-389.269,0,0
373153.1,91.1224,-388.505,0,0
373413.425,91.1515,-387.724,0,0
373673.75,91.2345,-386.928,0,0
373934.075,91.3575,-386.131,0,0
374194.4,91.5284,-385.39,0,0
374454.725,91.73,-384.602,0,0
374715.05,91.9873,-383.903,0,0
374975.375,92.2392,-383.187,0,0
375235.7,92.5038,-382.492,0,0
375496.025,92.7312,-381.799,0,0
375756.35,92.9943,-381.051,0,0
376016.675,93.2765,-380.435,0,0
376277.0,93.5718,-379.711,0,0
376537.325,93.9193,-379.078,0,0
376797.65,94.2589,-378.411,0,0
377057.975,94.5819,-377.795,0,0
377318.3,94.8776,-377.138,0,0
377578.625,95.1703,-376.522,0,0
377838.95,95.4642,-375.848,0,0
378099.275,95.7018,-375.142,0,0
378359.6,96.0745,-374.404,0,0
378619.925,96.4468,-373.687,0,0
378880,96.8433,-372.92,0,0
379141,97.3058,-372.175,0,0
379401,97.835,-371.449,0,0
379661,98.3471,-370.75,0,0
379922,98.9228,-370.089,0,0
380182,99.5057,-369.428,0,0
380442,100.078,-368.856,0,0
380703,100.705,-368.274,0,0
380963,101.277,-367.752,0,0
381223,101.828,-367.195,0,0
381483,102.401,-366.689,0,0
381744,103,-366.163,0,0
382004,103.585,-365.629,0,0
382264,104.2,-365.137,0,0
382525,104.801,-364.624,0,0
382785,105.468,-364.165,0,0
383045,106.13,-363.673,0,0
383306,106.765,-363.239,0,0
383566,107.442,-362.865,0,0
383826,108.101,-362.516,0,0
384087,108.701,-362.153,0,0
384347,109.335,-361.808,0,0
384607,109.956,-361.445,0,0
384868,110.548,-361.121,0,0
385128,111.2,-360.811,0,0
385388,111.823,-360.576,0,0
385649,112.412,-360.334,0,0
385909,112.929,-360.048,0,0
386169,113.368,-359.801,0,0
386430,113.892,-359.447,0,0
386690,114.403,-359.022,0,0
386950,114.937,-358.634,0,0
387211,115.524,-358.21,0,0
387471,116.162,-357.816,0,0
387731,116.794,-357.453,0,0
387992,117.463,-357.104,0,0
388252,118.071,-356.7,0,0
388512,118.678,-356.32,0,0
388773,119.366,-355.956,0,0
389033,120.043,-355.57,0,0
389293,120.84,-355.129,0,0
389554,121.623,-354.772,0,0
389814,122.495,-354.456,0,0
390074,123.37,-354.143,0,0
390335,124.226,-353.92,0,0
390595,125.089,-353.752,0,0
390855,125.939,-353.585,0,0
391116,126.795,-353.41,0,0
391376,127.643,-353.278,0,0
391636,128.461,-353.203,0,0
391896,129.258,-353.087,0,0
392157,130.067,-352.987,0,0
392417,130.842,-352.868,0,0
392677,131.678,-352.719,0,0
392938,132.497,-352.568,0,0
393198,133.401,-352.398,0,0
393458,134.331,-352.279,0,0
393719,135.271,-352.17,0,0
393979,136.269,-352.116,0,0
394239,137.27,-352.05,0,0
394500,138.255,-351.999,0,0
394760.05,139.393,-351.965,0,0
395020.375,140.495,-351.933,0,0
395280.7,141.699,-351.969,0,0
395541.025,142.981,-352.102,0,0
395801.35,144.232,-352.267,0,0
396061.675,145.591,-352.545,0,0
396322.0,146.904,-352.922,0,0
396582.325,148.165,-353.266,0,0
396842.65,149.566,-353.702,0,0
397102.975,151.001,-354.213,0,0
397363.3,152.411,-354.85,0,0
397623.625,153.948,-355.674,0,0
397883.95,155.447,-356.667,0,0
398144.275,156.862,-357.832,0,0
398404.6,158.223,-359.07,0,0
398664.925,159.472,-360.536,0,0
398925.25,160.6,-362.058,0,0
399185.575,161.638,-363.724,0,0
399445.9,162.51,-365.528,0,0
399706.225,163.228,-367.336,0,0
399966.55,163.759,-369.293,0,0
400006.6,163.878,-369.63,0,0