File: Accelerated corrosion test data/2025-10-04_06-00-03/sample_3.csv
Frequency (Hz),Impedance (ohms),Phase (Radians),Temperature (C),Humidity (%)
10000.0,251.138,-11758.7,0,0
10260.325,244.968,-11462.2,0,0
10520.65,239.364,-11181.1,0,0
10780.975,235.077,-10911.5,0,0
11041.3,229.328,-10660.2,0,0
11301.625,224.253,-10415.9,0,0
11561.95,219.199,-10182.5,0,0
11822.275,214.932,-9959.74,0,0
12082.6,211.678,-9746.7,0,0
12342.925,209.105,-9541.54,0,0
12603.25,203.052,-9347.78,0,0
12863.575,199.195,-9158.82,0,0
13123.9,199.748,-8975.79,0,0
13384.225,192.426,-8807.77,0,0
13644.55,189.338,-8639.89,0,0
13904.875,185.549,-8477.7,0,0
14165.2,185.518,-8321.94,0,0
14425.525,181.013,-8171.73,0,0
14685.8,178.711,-8027.73,0,0
14946.175,176.492,-7889.56,0,0
15206.5,172.982,-7750.55,0,0
15466.825,177.462,-7612.08,0,0
15727.15,195.828,-7505.47,0,0
15987.5,174.002,-7397.46,0,0
16247.8,168.13,-7268.92,0,0
16508.125,162.122,-7156.66,0,0
16768.45,163.93,-7036.02,0,0
17028.775,158.768,-6938.06,0,0
17289.1,160.779,-6824.51,0,0
17549.425,156.891,-6733.33,0,0
17809.75,158.646,-6628.57,0,0
18070.075,162.949,-6540.1,0,0
18330.4,150.826,-6450.19,0,0
18590.725,148.846,-6357.19,0,0
18851.05,145.384,-6267.59,0,0
19111.375,146.787,-6178.56,0,0
19371.7,145.718,-6096.34,0,0
19632.025,145.878,-6013.56,0,0
19892.35,148.132,-5930.86,0,0
20152.675,148.552,-5858.87,0,0
20413.0,157.213,-5777.52,0,0
20673.3,165.019,-5711.2,0,0
20933.65,161.915,-5659.14,0,0
21193.975,164.148,-5596.01,0,0
21454.3,144.937,-5534.22,0,0
21714.625,138.399,-5459.23,0,0
21974.9,142.595,-5393.44,0,0
22235.275,137.804,-5335.1,0,0
22495.6,137.961,-5272.64,0,0
22755.925,129.41,-5213.31,0,0
23016.25,128.063,-5153.81,0,0
23276.6,127.904,-5092.08,0,0
23536.9,129.871,-5046,0,0
23797.225,122.008,-4987.66,0,0
24057.55,118.203,-4930.62,0,0
24317.875,119.151,-4875.57,0,0
24578.2,116.991,-4825.78,0,0
24838.525,118.737,-4772.29,0,0
25098.85,116.349,-4726.95,0,0
25359.175,114.806,-4677.28,0,0
25619.5,113.888,-4629.42,0,0
25879.8,111.107,-4583.22,0,0
26140.1,108.451,-4535.76,0,0
26400.5,107.632,-4488.96,0,0
26660.8,107.958,-4444.05,0,0
26921.1,108.641,-4399.87,0,0
27181.4,108.325,-4359.35,0,0
27441.8,107.552,-4315.42,0,0
27702.1,108.856,-4276.23,0,0
27962.4,105.461,-4236.65,0,0
28222.7,103.879,-4193.63,0,0
28483.1,110.953,-4151.56,0,0
28743.4,113.524,-4116.91,0,0
29003.7,114.926,-4086.29,0,0
29264,106.693,-4053.63,0,0
29524.4,110.466,-4015.41,0,0
29784.7,104.973,-3982.26,0,0
30045,102.617,-3948.38,0,0
30305.3,99.9426,-3911.26,0,0
30565.7,102.854,-3877.61,0,0
30826,101.018,-3844.93,0,0
31086.3,102.881,-3812.65,0,0
31346.6,98.7859,-3782.51,0,0
31607,97.2231,-3748.04,0,0
31867.3,98.2787,-3714.65,0,0
32127.6,101.313,-3681.54,0,0
32387.9,108.944,-3652.44,0,0
32648.3,112.771,-3636,0,0
32908.6,102.952,-3610.74,0,0
33168.9,101.471,-3582.29,0,0
33429.2,99.7931,-3556.67,0,0
33689.6,94.6425,-3529.36,0,0
33949.9,91.1174,-3500.04,0,0
34210.2,90.9962,-3471.79,0,0
34470.5,90.0442,-3445.91,0,0
34730.9,88.0306,-3419.32,0,0
34991.2,86.8798,-3392.87,0,0
35251.5,86.3338,-3367.1,0,0
35511.8,84.8339,-3341.87,0,0
35772.2,84.3018,-3316.72,0,0
36032.5,83.3257,-3291.9,0,0
36292.8,82.9904,-3267.54,0,0
36553.1,82.8584,-3244,0,0
36813.5,81.8827,-3220.7,0,0
37073.8,81.2514,-3197.62,0,0
37334.1,80.5656,-3174.47,0,0
37594.4,80.2737,-3151.71,0,0
37854.8,79.6769,-3129.93,0,0
38115.1,79.1038,-3108.08,0,0
38375.4,78.491,-3086.3,0,0
38635.7,78.3395,-3064.85,0,0
38896.1,78.0304,-3043.73,0,0
39156.4,77.5514,-3023.06,0,0
39416.7,77.2863,-3002.96,0,0
39677,76.5912,-2982.71,0,0
39937.4,75.8079,-2962.48,0,0
40197.7,75.3896,-2942.79,0,0
40458,75.3264,-2923.23,0,0
40718.3,74.9837,-2904.18,0,0
40978.7,74.8049,-2885.1,0,0
41239,74.561,-2865.85,0,0
41499.3,74.5541,-2847.85,0,0
41759.6,74.5201,-2829.4,0,0
42020,74.0623,-2811.7,0,0
42280.275,74.0269,-2793.92,0,0
42540.6,73.8312,-2776.53,0,0
42800.925,73.1674,-2759.43,0,0
43061.25,72.7001,-2742.36,0,0
43321.575,72.2822,-2725.52,0,0
43581.9,71.8504,-2708.08,0,0
43842.225,72.1847,-2691.22,0,0
44102.55,72.2127,-2675,0,0
44362.875,72.1802,-2659.02,0,0
44623.2,71.6706,-2643.43,0,0
44883.525,71.3338,-2627.56,0,0
45143.85,70.9606,-2611.8,0,0
45404.175,70.6656,-2596.15,0,0
45664.5,70.3322,-2580.56,0,0
45924.825,71.2529,-2565.35,0,0
46185.15,70.541,-2551.15,0,0
46445.475,70.0023,-2536.01,0,0
46705.8,70.0841,-2520.99,0,0
46966.125,70.6087,-2506.76,0,0
47226.45,69.9244,-2492.78,0,0
47486.775,69.6854,-2477.93,0,0
47747.1,70.4273,-2463.55,0,0
48007.425,70.8098,-2451.26,0,0
48267.75,70.8134,-2438.12,0,0
48528.075,69.762,-2424.87,0,0
48788.4,69.5571,-2411.67,0,0
49048.725,68.781,-2398.7,0,0
49309.05,68.2035,-2385.14,0,0
49569.375,67.9947,-2371.89,0,0
49829.7,67.8875,-2359.1,0,0
50090.025,67.3404,-2346.4,0,0
50350.35,66.8985,-2333.58,0,0
50610.675,66.8796,-2320.62,0,0
50871.0,66.7572,-2308.01,0,0
51131.325,66.552,-2295.59,0,0
51391.65,66.5129,-2283.33,0,0
51651.975,66.5274,-2271.07,0,0
51912.3,66.4101,-2259.08,0,0
52172.625,66.1676,-2247.22,0,0
52432.95,66.1871,-2235.04,0,0
52693.275,66.5514,-2223.08,0,0
52953.6,66.8851,-2211.38,0,0
53213.925,67.4967,-2199.86,0,0
53474.25,68.3519,-2189.13,0,0
53734.575,68.2731,-2178.29,0,0
53994.9,68.6884,-2167.49,0,0
54255.225,69.5385,-2156.85,0,0
54515.55,70.5285,-2147.39,0,0
54775.875,69.9901,-2138.64,0,0
55036.2,68.9538,-2128.46,0,0
55296.525,68.5888,-2119.13,0,0
55556.85,67.1163,-2109.74,0,0
55817.175,65.3516,-2099.08,0,0
56077.5,64.5437,-2088.7,0,0
56337.825,63.7016,-2078.03,0,0
56598.15,62.7413,-2067.54,0,0
56858.475,61.8769,-2056.9,0,0
57118.8,61.5035,-2045.96,0,0
57379.125,61.4354,-2035.4,0,0
57639.45,61.438,-2025.07,0,0
57899.775,61.3462,-2014.91,0,0
58160.1,61.5415,-2004.9,0,0
58420.4,61.3636,-1994.97,0,0
58680.7,61.5203,-1985.1,0,0
58941.1,61.5108,-1975.19,0,0
59201.4,61.7028,-1965.39,0,0
59461.7,62.0519,-1955.87,0,0
59722,62.2211,-1946.49,0,0
59982.4,62.4703,-1937.08,0,0
60242.7,62.7438,-1927.82,0,0
60503,62.9588,-1918.45,0,0
60763.3,63.3421,-1909.31,0,0
61023.7,63.7198,-1900.15,0,0
61284,64.1784,-1891.11,0,0
61544.3,64.929,-1882.13,0,0
61804.6,65.2391,-1873.77,0,0
62065,65.6454,-1864.76,0,0
62325.3,65.9075,-1856.03,0,0
62585.6,66.6205,-1847.19,0,0
62845.9,67.4076,-1838.32,0,0
63106.3,68.3462,-1829.74,0,0
63366.6,69.1623,-1821.47,0,0
63626.9,70.2838,-1812.59,0,0
63887.2,71.699,-1804.23,0,0
64147.6,73.411,-1795.68,0,0
64407.9,75.4301,-1787.71,0,0
64668.2,77.7119,-1779.62,0,0
64928.5,80.7805,-1772.25,0,0
65188.9,84.9636,-1766.45,0,0
65449.2,87.0701,-1761.73,0,0
65709.5,89.3019,-1757.22,0,0
65969.8,92.2609,-1754.15,0,0
66230.2,92.1872,-1754.4,0,0
66490.5,87.1683,-1752.16,0,0
66750.8,81.5247,-1746.92,0,0
67011.1,77.7,-1737.37,0,0
67271.5,76.5724,-1729.25,0,0
67531.8,74.9741,-1721.29,0,0
67792.1,74.919,-1713,0,0
68052.4,75.1158,-1705.03,0,0
68312.8,76.2991,-1698.02,0,0
68573.1,76.5351,-1692.15,0,0
68833.4,76.2473,-1685.78,0,0
69093.7,76.6721,-1679.3,0,0
69354.1,77.004,-1673.65,0,0
69614.4,76.6607,-1668.42,0,0
69874.7,75.9587,-1662.82,0,0
70135,75.1288,-1657.37,0,0
70395.4,73.8632,-1651.35,0,0
70655.7,72.6724,-1645.12,0,0
70916,71.6165,-1638.76,0,0
71176.3,70.6376,-1632.19,0,0
71436.7,69.985,-1625.68,0,0
71697,69.1305,-1618.91,0,0
71957.3,69.0708,-1612.09,0,0
72217.6,69.1617,-1605.76,0,0
72478,69.2189,-1599.65,0,0
72738.3,69.2,-1593.82,0,0
72998.6,68.9796,-1588.29,0,0
73258.9,68.477,-1582.73,0,0
73519.3,67.9522,-1576.95,0,0
73779.6,67.5578,-1571.22,0,0
74039.9,66.95,-1565.8,0,0
74300.225,66.179,-1560.17,0,0
74560.55,65.4989,-1554.43,0,0
74820.875,64.712,-1548.64,0,0
75081.2,63.9599,-1542.94,0,0
75341.525,63.2419,-1537.08,0,0
75601.85,62.5723,-1531.31,0,0
75862.175,61.8367,-1525.42,0,0
76122.5,61.131,-1519.61,0,0
76382.825,60.5238,-1513.64,0,0
76643.15,60.0162,-1507.73,0,0
76903.475,59.5068,-1501.94,0,0
77163.8,59.006,-1496.12,0,0
77424.125,58.5978,-1490.47,0,0
77684.45,58.1175,-1484.76,0,0
77944.775,57.6125,-1479.09,0,0
78205.1,57.2355,-1473.34,0,0
78465.425,56.7741,-1467.66,0,0
78725.75,56.3933,-1461.99,0,0
78986.075,56.0334,-1456.38,0,0
79246.4,55.6629,-1450.64,0,0
79506.725,55.2989,-1445.1,0,0
79767.05,55.0505,-1439.48,0,0
80027.375,54.7991,-1433.93,0,0
80287.7,54.5221,-1428.43,0,0
80548.025,54.2821,-1422.89,0,0
80808.35,54.1387,-1417.47,0,0
81068.675,53.92,-1412,0,0
81329.0,53.7071,-1406.64,0,0
81589.325,53.5311,-1401.25,0,0
81849.65,53.3609,-1395.91,0,0
82109.975,53.254,-1390.61,0,0
82370.3,53.1361,-1385.29,0,0
82630.625,53.0752,-1380.06,0,0
82890.95,53.0043,-1374.9,0,0
83151.275,52.9496,-1369.67,0,0
83411.6,52.8905,-1364.52,0,0
83671.925,52.7873,-1359.37,0,0
83932.25,52.788,-1354.26,0,0
84192.575,52.7584,-1349.18,0,0
84452.9,52.7314,-1344.2,0,0
84713.225,52.6681,-1339.18,0,0
84973.55,52.6537,-1334.15,0,0
85233.875,52.6152,-1329.15,0,0
85494.2,52.6967,-1324.25,0,0
85754.525,52.7719,-1319.34,0,0
86014.85,52.8257,-1314.5,0,0
86275.175,52.8507,-1309.62,0,0
86535.5,52.8826,-1304.76,0,0
86795.825,52.9433,-1300.05,0,0
87056.15,52.9065,-1295.26,0,0
87316.475,52.9495,-1290.35,0,0
87576.8,53.0852,-1285.51,0,0
87837.125,53.2289,-1280.75,0,0
88097.45,53.4811,-1276.09,0,0
88357.775,53.5148,-1271.36,0,0
88618.1,53.7058,-1266.6,0,0
88878.425,53.8964,-1261.68,0,0
89138.75,54.2628,-1257.03,0,0
89399.075,54.7941,-1252.29,0,0
89659.4,55.2359,-1247.79,0,0
89919.725,55.8377,-1243.3,0,0
90180,56.3184,-1238.98,0,0
90440.4,56.7184,-1234.68,0,0
90700.7,57.1383,-1230.38,0,0
90961,57.646,-1226.13,0,0
91221.3,58.0352,-1221.79,0,0
91481.7,58.6909,-1217.69,0,0
91742,59.2873,-1213.68,0,0
92002.3,59.9739,-1209.55,0,0
92262.6,60.5821,-1205.56,0,0
92523,61.4313,-1201.77,0,0
92783.3,62.1081,-1198.27,0,0
93043.6,62.4924,-1194.64,0,0
93303.9,63.2532,-1191.06,0,0
93564.3,63.9752,-1187.83,0,0
93824.6,64.5113,-1184.71,0,0
94084.9,64.9719,-1182.05,0,0
94345.2,64.9152,-1179.32,0,0
94605.6,64.7991,-1176.71,0,0
94865.9,64.2,-1174.3,0,0
95126.2,62.8615,-1171.71,0,0
95386.5,61.0569,-1168.24,0,0
95646.9,59.7898,-1163.83,0,0
95907.2,59.0692,-1159.6,0,0
96167.5,58.3534,-1155.21,0,0
96427.8,58.0624,-1150.77,0,0
96688.2,58.07,-1146.51,0,0
96948.5,58.0937,-1142.43,0,0
97208.8,58.0181,-1138.45,0,0
97469.1,58.0953,-1134.54,0,0
97729.5,58.1024,-1130.76,0,0
97989.8,58.0846,-1126.98,0,0
98250.1,57.971,-1123.24,0,0
98510.4,57.9183,-1119.49,0,0
98770.8,57.8705,-1115.8,0,0
99031.1,57.7843,-1112.15,0,0
99291.4,57.6528,-1108.51,0,0
99551.7,57.3658,-1104.8,0,0
99812.1,57.1003,-1101.02,0,0
100072,56.9462,-1097.16,0,0
100333,56.7391,-1093.36,0,0
100593,56.5038,-1089.48,0,0
100853,56.3363,-1085.53,0,0
101114,56.2084,-1081.45,0,0
101374,56.2268,-1077.31,0,0
101634,56.3766,-1073.18,0,0
101895,56.6237,-1069.12,0,0
102155,56.9353,-1065,0,0
102415,57.4071,-1060.85,0,0
102676,58.2572,-1056.8,0,0
102936,59.2478,-1053.15,0,0
103196,60.1241,-1049.82,0,0
103457,60.7011,-1046.53,0,0
103717,61.2843,-1043.15,0,0
103977,61.9866,-1039.73,0,0
104238,63.0826,-1036.4,0,0
104498,64.3021,-1033.72,0,0
104758,65.0015,-1031.69,0,0
105019,64.9849,-1029.43,0,0
105279,64.8144,-1026.93,0,0
105539,64.6533,-1024.29,0,0
105800,64.5938,-1021.64,0,0
106060,64.2396,-1019.14,0,0
106320.175,63.5207,-1016.4,0,0
106580.5,62.9408,-1013.38,0,0
106840.825,62.4039,-1010.36,0,0
107101.15,61.7575,-1007.24,0,0
107361.475,61.0505,-1003.93,0,0
107621.8,60.4912,-1000.41,0,0
107882.125,60.0104,-996.869,0,0
108142.45,59.6535,-993.271,0,0
108402.775,59.3964,-989.72,0,0
108663.1,58.996,-986.176,0,0
108923.425,58.6496,-982.484,0,0
109183.75,58.4699,-978.603,0,0
109444.075,58.4171,-974.765,0,0
109704.4,58.5604,-970.999,0,0
109964.725,58.6372,-967.359,0,0
110225.05,58.7194,-963.567,0,0
110485.375,58.9597,-959.841,0,0
110745.7,59.4546,-955.928,0,0
111006.025,60.0643,-952.353,0,0
111266.35,60.816,-949.017,0,0
111526.675,61.2555,-945.78,0,0
111787.0,61.5635,-942.441,0,0
112047.325,61.9637,-939.081,0,0
112307.65,62.4468,-935.855,0,0
112567.975,62.9413,-932.707,0,0
112828.3,63.3294,-929.585,0,0
113088.625,63.6546,-926.369,0,0
113348.95,63.9407,-923.182,0,0
113609.275,64.2418,-919.981,0,0
113869.6,64.5584,-916.698,0,0
114129.925,64.9475,-913.409,0,0
114390.25,65.342,-910.17,0,0
114650.575,65.6695,-906.834,0,0
114910.9,66.2195,-903.43,0,0
115171.225,66.7684,-900.118,0,0
115431.55,67.3401,-896.816,0,0
115691.875,67.9662,-893.489,0,0
115952.2,68.7052,-890.208,0,0
116212.525,69.4066,-886.991,0,0
116472.85,70.2001,-883.708,0,0
116733.175,71.1851,-880.426,0,0
116993.5,72.2264,-877.392,0,0
117253.825,73.0804,-874.408,0,0
117514.15,73.9338,-871.131,0,0
117774.475,75.2875,-867.795,0,0
118034.8,76.8494,-864.857,0,0
118295.125,78.4691,-862.156,0,0
118555.45,80.1596,-859.822,0,0
118815.775,81.464,-857.836,0,0
119076.1,82.4898,-855.68,0,0
119336.425,83.6764,-853.263,0,0
119596.75,85.4712,-851.063,0,0
119857.075,87.2327,-849.672,0,0
120117.4,88.4905,-848.952,0,0
120377.725,88.8101,-848.27,0,0
120638.05,88.7148,-847.052,0,0
120898.375,88.5801,-845.614,0,0
121158.7,88.4225,-844.107,0,0
121419.025,87.9811,-842.58,0,0
121679.35,87.2333,-840.648,0,0
121939.675,86.598,-838.147,0,0
122200.0,86.3578,-835.545,0,0
122460,86.3079,-832.947,0,0
122721,86.3697,-830.345,0,0
122981,86.5752,-827.744,0,0
123241,86.9549,-825.273,0,0
123502,87.3359,-823.049,0,0
123762,87.5425,-820.875,0,0
124022,87.7149,-818.621,0,0
124283,87.9209,-816.312,0,0
124543,88.2416,-814.113,0,0
124803,88.5136,-811.979,0,0
125064,88.7703,-809.917,0,0
125324,88.9443,-807.92,0,0
125584,89.0622,-805.929,0,0
125845,89.1067,-803.916,0,0
126105,89.1861,-801.965,0,0
126365,89.1351,-800.114,0,0
126626,88.9306,-798.193,0,0
126886,88.5784,-796.164,0,0
127146,88.3542,-794.041,0,0
127406,88.0198,-791.957,0,0
127667,87.5688,-789.802,0,0
127927,87.1576,-787.51,0,0
128187,86.7828,-785.216,0,0
128448,86.32,-782.915,0,0
128708,85.7054,-780.342,0,0
128968,85.3304,-777.559,0,0
129229,85.1867,-774.908,0,0
129489,84.9621,-772.28,0,0
129749,84.7418,-769.495,0,0
130010,84.6428,-766.664,0,0
130270,84.7566,-763.751,0,0
130530,85.1359,-761.056,0,0
130791,85.5302,-758.54,0,0
131051,85.8969,-756.318,0,0
131311,85.9679,-754.219,0,0
131572,85.9406,-751.976,0,0
131832,85.8887,-749.75,0,0
132092,85.6955,-747.53,0,0
132353,85.408,-745.153,0,0
132613,85.2179,-742.534,0,0
132873,85.2063,-740.069,0,0
133134,85.1653,-737.699,0,0
133394,85.0241,-735.349,0,0
133654,84.8011,-732.976,0,0
133915,84.5324,-730.533,0,0
134175,84.2296,-728.055,0,0
134435,84.0553,-725.451,0,0
134696,83.8293,-723.007,0,0
134956,83.4897,-720.433,0,0
135216,83.1432,-717.635,0,0
135477,83.0202,-714.896,0,0
135737,82.792,-712.261,0,0
135997,82.5138,-709.516,0,0
136258,82.2335,-706.7,0,0
136518,82.0243,-703.779,0,0
136778,81.8426,-700.736,0,0
137039,81.8306,-697.647,0,0
137299,81.9819,-694.623,0,0
137559,82.2168,-691.643,0,0
137819,82.4441,-688.85,0,0
138080,82.6313,-685.954,0,0
138340.125,83.0065,-683.128,0,0
138600.45,83.4375,-680.544,0,0
138860.775,83.6421,-678.229,0,0
139121.1,83.4854,-675.802,0,0
139381.425,83.3439,-673.078,0,0
139641.75,83.2281,-670.366,0,0
139902.075,83.0695,-667.626,0,0
140162.4,82.8869,-664.669,0,0
140422.725,82.8304,-661.688,0,0
140683.05,82.9286,-658.723,0,0
140943.375,83.019,-655.86,0,0
141203.7,82.991,-653.058,0,0
141464.025,82.9063,-650.185,0,0
141724.35,82.7044,-647.243,0,0
141984.675,82.5113,-644.15,0,0
142245.0,82.42,-640.925,0,0
142505.325,82.4241,-637.719,0,0
142765.65,82.3631,-634.525,0,0
143025.975,82.2928,-631.187,0,0
143286.3,82.3396,-627.81,0,0
143546.625,82.4089,-624.374,0,0
143806.95,82.5184,-620.866,0,0
144067.275,82.7872,-617.322,0,0
144327.6,83.0673,-613.797,0,0
144587.925,83.3819,-610.298,0,0
144848.25,83.6756,-606.774,0,0
145108.575,84.0252,-603.178,0,0
145368.9,84.4033,-599.506,0,0
145629.225,84.8278,-595.858,0,0
145889.55,85.2978,-592.146,0,0
146149.875,85.7789,-588.351,0,0
146410.2,86.3494,-584.495,0,0
146670.525,87.0642,-580.558,0,0
146930.85,87.8456,-576.656,0,0
147191.175,88.6993,-572.767,0,0
147451.5,89.6112,-568.814,0,0
147711.825,90.5908,-564.876,0,0
147972.15,91.6426,-560.883,0,0
148232.475,92.7855,-556.845,0,0
148492.8,94.0293,-552.828,0,0
148753.125,95.3571,-548.755,0,0
149013.45,96.7713,-544.675,0,0
149273.775,98.2969,-540.572,0,0
149534.1,99.9506,-536.393,0,0
149794.425,101.865,-532.206,0,0
150054.75,103.892,-528.126,0,0
150315.075,106.118,-524.061,0,0
150575.4,108.566,-520.131,0,0
150835.725,111.166,-516.46,0,0
151096.05,113.756,-512.944,0,0
151356.375,116.402,-509.589,0,0
151616.7,119.049,-506.418,0,0
151877.025,121.622,-503.375,0,0
152137.35,124.153,-500.363,0,0
152397.675,126.765,-497.404,0,0
152658.0,129.401,-494.619,0,0
152918.325,132.022,-492.009,0,0
153178.65,134.526,-489.64,0,0
153438.975,136.699,-487.38,0,0
153699.3,138.684,-484.939,0,0
153959.625,140.609,-482.329,0,0
154219.95,142.699,-479.646,0,0
154480,144.855,-477.278,0,0
154741,146.44,-475.09,0,0
155001,147.556,-472.381,0,0
155261,148.819,-468.828,0,0
155522,150.852,-464.948,0,0
155782,153.401,-461.603,0,0
156042,155.763,-458.739,0,0
156303,157.761,-455.729,0,0
156563,159.68,-452.261,0,0
156823,162.093,-448.476,0,0
157084,164.988,-444.761,0,0
157344,168.219,-441.328,0,0
157604,171.605,-438.419,0,0
157864,174.793,-435.84,0,0
158125,178.077,-433.577,0,0
158385,180.763,-431.838,0,0
158645,182.861,-429.995,0,0
158906,184.065,-427.904,0,0
159166,185.077,-424.427,0,0
159426,186.895,-420.748,0,0
159687,188.372,-417.163,0,0
159947,189.546,-412.506,0,0
160207,191.734,-407.007,0,0
160468,194.568,-401.47,0,0
160728,197.852,-395.583,0,0
160988,202.433,-389.551,0,0
161249,207.672,-384.583,0,0
161509,212.586,-380.075,0,0
161769,217.224,-375.11,0,0
162030,222.655,-369.278,0,0
162290,229.646,-363.798,0,0
162550,237.226,-359.236,0,0
162811,244.93,-355.459,0,0
163071,252.656,-351.915,0,0
163331,260.672,-348.658,0,0
163592,269.016,-345.469,0,0
163852,278.387,-342.943,0,0
164112,287.563,-341.627,0,0
164373,296.252,-340.541,0,0
164633,305.248,-339.065,0,0
164893,315.265,-337.617,0,0
165154,326.931,-337.358,0,0
165414,338.85,-339.713,0,0
165674,349.408,-343.835,0,0
165935,358.494,-348.284,0,0
166195,367.683,-352.441,0,0
166455,376.777,-358.166,0,0
166716,384.143,-364.392,0,0
166976,391.457,-370.363,0,0
167236,398.127,-377.202,0,0
167497,403.914,-384.245,0,0
167757,409.226,-391.232,0,0
168017,413.971,-398.445,0,0
168277,418.387,-406.576,0,0
168538,421.123,-415.042,0,0
168798,422.704,-422.593,0,0
169058,423.899,-429.208,0,0
169319,425.893,-435.488,0,0
169579,428.185,-443.346,0,0
169839,428.277,-452.786,0,0
170100,425.284,-461.25,0,0
170360.075,420.93,-467.071,0,0
170620.4,417.438,-470.927,0,0
170880.725,414.527,-474.356,0,0
171141.05,411.412,-477.338,0,0
171401.375,408.059,-479.284,0,0
171661.7,405.548,-479.721,0,0
171922.025,404.425,-480.113,0,0
172182.35,403.501,-480.659,0,0
172442.675,403.197,-481.106,0,0
172703.0,402.981,-481.778,0,0
172963.325,403.07,-481.769,0,0
173223.65,404.494,-481.777,0,0
173483.975,406.456,-482.989,0,0
173744.3,408.181,-484.573,0,0
174004.625,410.151,-486.405,0,0
174264.95,412.698,-489.097,0,0
174525.275,414.791,-493.179,0,0
174785.6,415.79,-497.73,0,0
175045.925,415.88,-502.257,0,0
175306.25,415.447,-506.49,0,0
175566.575,415.084,-510.595,0,0
175826.9,414.313,-515.306,0,0
176087.225,412.255,-520.182,0,0
176347.55,409.17,-524.215,0,0
176607.875,406.169,-527.016,0,0
176868.2,403.819,-529.999,0,0
177128.525,400.995,-533.528,0,0
177388.85,397.113,-536.969,0,0
177649.175,392.479,-539.488,0,0
177909.5,387.807,-541.537,0,0
178169.825,382.09,-543.144,0,0
178430.15,375.779,-542.777,0,0
178690.475,370.393,-540.739,0,0
178950.8,366.286,-537.902,0,0
179211.125,363.517,-534.973,0,0
179471.45,361.205,-532.682,0,0
179731.775,358.734,-530.205,0,0
179992.1,356.731,-526.893,0,0
180252.425,355.952,-523.249,0,0
180512.75,356.465,-520.036,0,0
180773.075,357.936,-518.077,0,0
181033.4,358.944,-517.305,0,0
181293.725,359.406,-516.648,0,0
181554.05,360.075,-515.933,0,0
181814.375,361.382,-515.615,0,0
182074.7,363.009,-517.038,0,0
182335.025,362.923,-520.011,0,0
182595.35,360.453,-522.509,0,0
182855.675,357.205,-523.421,0,0
183116.0,354.258,-523.402,0,0
183376.325,351.443,-523.112,0,0
183636.65,348.561,-522.217,0,0
183896.975,345.78,-521.115,0,0
184157.3,343.01,-519.767,0,0
184417.625,340.209,-518.073,0,0
184677.95,337.543,-515.949,0,0
184938.275,335.027,-513.613,0,0
185198.6,332.476,-510.909,0,0
185458.925,330.29,-507.813,0,0
185719.25,328.283,-504.594,0,0
185979.575,326.363,-501.101,0,0
186239.9,324.536,-497.181,0,0
186500,323.074,-492.653,0,0
186761,322.409,-487.581,0,0
187021,322.703,-482.642,0,0
187281,323.723,-478.117,0,0
187542,324.971,-474.15,0,0
187802,326.234,-470.598,0,0
188062,327.523,-466.948,0,0
188322,329.267,-463.376,0,0
188583,331.363,-460.38,0,0
188843,333.302,-458.205,0,0
189103,334.438,-456.101,0,0
189364,335.12,-453.479,0,0
189624,335.985,-450.235,0,0
189884,337.493,-446.743,0,0
190145,339.547,-443.614,0,0
190405,341.818,-440.849,0,0
190665,343.918,-438.346,0,0
190926,345.725,-436.047,0,0
191186,347.444,-433.64,0,0
191446,349.15,-431.209,0,0
191707,350.675,-428.449,0,0
191967,352.476,-425.489,0,0
192227,354.633,-422.612,0,0
192488,356.687,-419.786,0,0
192748,358.587,-416.722,0,0
193008,360.621,-413.261,0,0
193269,363.155,-409.439,0,0
193529,366.171,-405.553,0,0
193789,369.544,-401.776,0,0
194050,373.228,-397.831,0,0
194310,377.632,-393.625,0,0
194570,383.212,-389.62,0,0
194831,389.617,-386.335,0,0
195091,396.693,-384.076,0,0
195351,404.088,-383.181,0,0
195612,410.758,-383.594,0,0
195872,416.655,-384.274,0,0
196132,422.278,-385.254,0,0
196393,427.564,-386.396,0,0
196653,432.807,-387.837,0,0
196913,438.228,-389.854,0,0
197174,442.718,-392.933,0,0
197434,445.84,-396.337,0,0
197694,447.973,-398.511,0,0
197955,450.293,-400.025,0,0
198215,452.89,-401.743,0,0
198475,455.24,-403.727,0,0
198735,456.576,-405.936,0,0
198996,456.888,-406.997,0,0
199256,457.743,-406.616,0,0
199516,459.762,-406.007,0,0
199777,462.438,-405.839,0,0
200037,465.179,-406.595,0,0
200297,466.993,-407.857,0,0
200558,467.722,-408.387,0,0
200818,468.342,-407.79,0,0
201078,469.699,-406.262,0,0
201339,471.873,-404.788,0,0
201599,474.233,-403.53,0,0
201859,476.523,-402.143,0,0
202120,478.951,-400.149,0,0
202380.025,482.083,-397.553,0,0
202640.35,486.391,-394.919,0,0
202900.675,491.508,-392.908,0,0
203161.0,497.043,-391.364,0,0
203421.325,502.906,-390.319,0,0
203681.65,509.268,-389.686,0,0
203941.975,515.942,-389.861,0,0
204202.3,522.566,-390.911,0,0
204462.625,529.039,-392.629,0,0
204722.95,535.127,-394.69,0,0
204983.275,541.202,-397.056,0,0
205243.6,547.27,-400.323,0,0
205503.925,552.627,-404.451,0,0
205764.25,556.657,-408.93,0,0
206024.575,559.718,-413.064,0,0
206284.9,561.886,-416.636,0,0
206545.225,563.666,-418.916,0,0
206805.55,565.766,-420.226,0,0
207065.875,568.603,-421.159,0,0
207326.2,571.934,-421.919,0,0
207586.525,575.734,-422.695,0,0
207846.85,579.939,-423.542,0,0
208107.175,584.379,-424.352,0,0
208367.5,589.29,-425.026,0,0
208627.825,594.983,-425.924,0,0
208888.15,601.114,-427.345,0,0
209148.475,607.589,-429.334,0,0
209408.8,614.423,-431.868,0,0
209669.125,621.508,-435.201,0,0
209929.45,628.336,-439.406,0,0
210189.775,634.815,-444.209,0,0
210450.1,640.993,-449.15,0,0
210710.425,646.988,-454.524,0,0
210970.75,652.774,-460.151,0,0
211231.075,658.239,-466.17,0,0
211491.4,663.521,-472.359,0,0
211751.725,668.542,-478.791,0,0
212012.05,673.216,-485.516,0,0
212272.375,677.668,-492.266,0,0
212532.7,681.945,-499.096,0,0
212793.025,686.162,-506.015,0,0
213053.35,690.563,-513.314,0,0
213313.675,694.67,-521.059,0,0
213574.0,698.522,-529.189,0,0
213834.325,701.994,-537.632,0,0
214094.65,704.959,-546.397,0,0
214354.975,707.324,-555.305,0,0
214615.3,709.313,-564,0,0
214875.625,711.164,-572.506,0,0
215135.95,712.991,-581.409,0,0
215396.275,714.43,-590.693,0,0
215656.6,715.298,-599.892,0,0
215916.925,715.962,-608.905,0,0
216177.25,716.653,-618.092,0,0
216437.575,717.173,-627.745,0,0
216697.9,717.187,-637.73,0,0
216958.225,716.631,-648.276,0,0
217218.55,714.632,-658.919,0,0
217478.875,711.794,-668.676,0,0
217739.2,708.914,-677.854,0,0
217999.525,705.951,-687.046,0,0
218259.85,702.481,-696.063,0,0
218520,698.625,-704.718,0,0
218780,694.595,-713.157,0,0
219041,689.904,-721.477,0,0
219301,684.679,-728.863,0,0
219561,679.807,-735.265,0,0
219822,675.43,-741.326,0,0
220082,671.754,-747.382,0,0
220342,668.773,-754.036,0,0
220603,665.609,-761.777,0,0
220863,661.559,-770.271,0,0
221123,656.375,-778.861,0,0
221384,650.124,-786.976,0,0
221644,643.394,-794.311,0,0
221904,636.561,-801.336,0,0
222165,629.155,-808.388,0,0
222425,621.163,-814.869,0,0
222685,612.931,-820.533,0,0
222946,604.505,-825.76,0,0
223206,595.313,-830.438,0,0
223466,585.97,-834.317,0,0
223727,576.26,-837.083,0,0
223987,566.757,-838.454,0,0
224247,558.062,-838.875,0,0
224508,550.073,-838.763,0,0
224768,542.858,-838.348,0,0
225028,536.38,-837.503,0,0
225289,530.788,-836.114,0,0
225549,526.1,-835.207,0,0
225809,522.141,-834.395,0,0
226070,518.926,-834.22,0,0
226330,515.994,-834.949,0,0
226590,512.996,-836.304,0,0
226851,509.724,-838.166,0,0
227111,506.165,-840.269,0,0
227371,502.311,-842.673,0,0
227632,498.03,-845.181,0,0
227892,493.383,-847.6,0,0
228152,488.673,-849.809,0,0
228413,483.884,-852.084,0,0
228673,478.749,-854.572,0,0
228933,473.159,-856.816,0,0
229193,467.164,-858.7,0,0
229454,461.159,-860.138,0,0
229714,455.199,-861.214,0,0
229974,449.346,-862.204,0,0
230235,443.492,-862.969,0,0
230495,437.646,-863.566,0,0
230755,431.697,-864.026,0,0
231016,425.656,-864.192,0,0
231276,419.743,-864.073,0,0
231536,414.16,-863.681,0,0
231797,408.588,-863.117,0,0
232057,403.232,-862.45,0,0
232317,398.115,-861.654,0,0
232578,393.126,-860.984,0,0
232838,388.309,-860.292,0,0
233098,383.314,-859.747,0,0
233359,378.298,-858.935,0,0
233619,373.478,-857.974,0,0
233879,368.843,-856.961,0,0
234140,364.285,-856.153,0,0
234400,359.609,-855.348,0,0
234660.3,354.818,-854.412,0,0
234920.625,350.163,-853.409,0,0
235180.95,345.787,-852.409,0,0
235441.275,341.15,-851.361,0,0
235701.6,336.478,-850.462,0,0
235961.925,331.685,-849.62,0,0
236222.25,326.624,-848.456,0,0
236482.575,321.529,-847.089,0,0
236742.9,316.524,-845.458,0,0
237003.225,311.539,-843.576,0,0
237263.55,306.762,-841.605,0,0
237523.875,302.005,-839.566,0,0
237784.2,297.172,-837.517,0,0
238044.525,292.325,-835.164,0,0
238304.85,287.472,-832.517,0,0
238565.175,282.696,-829.674,0,0
238825.5,278.169,-826.555,0,0
239085.825,273.755,-823.212,0,0
239346.15,269.619,-819.647,0,0
239606.475,265.78,-815.945,0,0
239866.8,262.229,-812.111,0,0
240127.125,258.945,-808.407,0,0
240387.45,255.959,-804.642,0,0
240647.775,253.157,-800.926,0,0
240908.1,250.468,-797.271,0,0
241168.425,247.942,-793.595,0,0
241428.75,245.577,-789.944,0,0
241689.075,243.264,-786.429,0,0
241949.4,240.999,-782.741,0,0
242209.725,239.023,-778.865,0,0
242470.05,237.386,-775.263,0,0
242730.375,236.001,-771.643,0,0
242990.7,234.723,-768.231,0,0
243251.025,233.54,-764.869,0,0
243511.35,232.529,-761.61,0,0
243771.675,231.677,-758.409,0,0
244032.0,230.969,-755.451,0,0
244292.325,230.379,-752.786,0,0
244552.65,229.69,-750.384,0,0
244812.975,228.847,-748.049,0,0
245073.3,227.972,-745.739,0,0
245333.625,226.985,-743.406,0,0
245593.95,225.93,-741.174,0,0
245854.275,224.928,-738.824,0,0
246114.6,223.95,-736.499,0,0
246374.925,223.078,-734.15,0,0
246635.25,222.207,-731.892,0,0
246895.575,221.333,-729.65,0,0
247155.9,220.5,-727.444,0,0
247416.225,219.582,-725.137,0,0
247676.55,218.774,-722.842,0,0
247936.875,217.909,-720.522,0,0
248197.2,217.191,-718.074,0,0
248457.525,216.649,-715.553,0,0
248717.85,216.334,-713.131,0,0
248978.175,216.263,-710.912,0,0
249238.5,216.215,-708.903,0,0
249498.825,216.228,-707.106,0,0
249759.15,216.066,-705.477,0,0
250019.475,215.898,-703.874,0,0
250279.8,215.858,-702.527,0,0
250540,215.61,-701.403,0,0
250800,215.107,-700.348,0,0
251061,214.462,-699.353,0,0
251321,213.525,-698.341,0,0
251581,212.447,-697.303,0,0
251842,211.097,-696.102,0,0
252102,209.64,-694.742,0,0
252362,208.105,-693.189,0,0
252623,206.451,-691.423,0,0
252883,204.785,-689.369,0,0
253143,203.169,-687.079,0,0
253404,201.624,-684.501,0,0
253664,200.267,-681.713,0,0
253924,199.155,-678.726,0,0
254185,198.29,-675.62,0,0
254445,197.642,-672.535,0,0
254705,197.149,-669.417,0,0
254966,196.774,-666.169,0,0
255226,196.695,-662.936,0,0
255486,196.774,-659.546,0,0
255747,197.153,-656.142,0,0
256007,197.85,-652.694,0,0
256267,198.982,-649.226,0,0
256528,200.486,-646.253,0,0
256788,202.087,-643.461,0,0
257048,203.848,-640.912,0,0
257309,205.718,-638.619,0,0
257569,207.734,-636.539,0,0
257829,209.792,-634.771,0,0
258090,211.779,-633.271,0,0
258350,213.617,-632.039,0,0
258610,215.208,-630.81,0,0
258871,216.788,-629.427,0,0
259131,218.431,-627.887,0,0
259391,220.45,-626.244,0,0
259651,222.834,-624.752,0,0
259912,225.517,-623.672,0,0
260172,228.552,-622.86,0,0
260432,231.53,-622.674,0,0
260693,234.393,-622.832,0,0
260953,237.287,-623.228,0,0
261213,240.163,-624.014,0,0
261474,243.087,-625.279,0,0
261734,245.795,-627.12,0,0
261994,248.11,-629.418,0,0
262255,250.01,-632.071,0,0
262515,251.374,-635.007,0,0
262775,252.201,-638.111,0,0
263036,252.476,-641.219,0,0
263296,252.251,-644.189,0,0
263556,251.735,-647.031,0,0
263817,250.862,-649.774,0,0
264077,249.688,-652.403,0,0
264337,248.194,-654.932,0,0
264598,246.4,-657.215,0,0
264858,244.31,-659.356,0,0
265118,241.914,-661.381,0,0
265379,239.222,-662.996,0,0
265639,236.343,-664.317,0,0
265899,233.244,-665.239,0,0
266160,230.069,-665.705,0,0
266420,226.948,-665.844,0,0
266680.25,223.926,-665.661,0,0
266940.575,220.87,-665.212,0,0
267200.9,217.877,-664.448,0,0
267461.225,215.027,-663.305,0,0
267721.55,212.458,-661.874,0,0
267981.875,210.134,-660.282,0,0
268242.2,208.043,-658.617,0,0
268502.525,206.108,-656.836,0,0
268762.85,204.33,-655.02,0,0
269023.175,202.728,-653.093,0,0
269283.5,201.332,-651.095,0,0
269543.825,200.168,-649.046,0,0
269804.15,199.163,-647.026,0,0
270064.475,198.445,-645.109,0,0
270324.8,197.7,-643.236,0,0
270585.125,197.118,-641.473,0,0
270845.45,196.522,-639.583,0,0
271105.775,196.137,-637.739,0,0
271366.1,195.897,-635.904,0,0
271626.425,195.737,-634.165,0,0
271886.75,195.627,-632.449,0,0
272147.075,195.682,-630.779,0,0
272407.4,195.825,-629.291,0,0
272667.725,196.072,-627.918,0,0
272928.05,196.317,-626.764,0,0
273188.375,196.439,-625.683,0,0
273448.7,196.421,-624.584,0,0
273709.025,196.369,-623.409,0,0
273969.35,196.332,-622.101,0,0
274229.675,196.375,-620.713,0,0
274490.0,196.567,-619.221,0,0
274750.325,196.939,-617.68,0,0
275010.65,197.497,-616.262,0,0
275270.975,198.175,-614.915,0,0
275531.3,199.034,-613.583,0,0
275791.625,200.002,-612.335,0,0
276051.95,201.157,-611.17,0,0
276312.275,202.489,-610.191,0,0
276572.6,204.018,-609.408,0,0
276832.925,205.662,-608.886,0,0
277093.25,207.383,-608.656,0,0
277353.575,209.127,-608.82,0,0
277613.9,210.775,-609.32,0,0
277874.225,212.241,-610.071,0,0
278134.55,213.554,-611.024,0,0
278394.875,214.704,-612.21,0,0
278655.2,215.689,-613.611,0,0
278915.525,216.397,-615.219,0,0
279175.85,216.778,-617.035,0,0
279436.175,216.757,-618.898,0,0
279696.5,216.424,-620.676,0,0
279956.825,215.814,-622.43,0,0
280217.15,214.907,-624.059,0,0
280477.475,213.786,-625.487,0,0
280737.8,212.487,-626.686,0,0
280998.125,211.084,-627.688,0,0
281258.45,209.681,-628.477,0,0
281518.775,208.319,-629.189,0,0
281779.1,206.94,-629.862,0,0
282039.425,205.472,-630.486,0,0
282299.75,203.909,-631.051,0,0
282560,202.276,-631.522,0,0
282820,200.498,-631.849,0,0
283081,198.667,-632.029,0,0
283341,196.792,-632.01,0,0
283601,194.993,-631.825,0,0
283862,193.205,-631.505,0,0
284122,191.418,-631.091,0,0
284382,189.745,-630.535,0,0
284643,188.118,-629.948,0,0
284903,186.603,-629.338,0,0
285163,184.972,-628.646,0,0
285424,183.31,-627.827,0,0
285684,181.755,-626.836,0,0
285944,180.22,-625.738,0,0
286205,178.797,-624.507,0,0
286465,177.471,-623.192,0,0
286725,176.252,-621.734,0,0
286986,175.18,-620.181,0,0
287246,174.35,-618.502,0,0
287506,173.705,-616.897,0,0
287767,173.237,-615.23,0,0
288027,172.998,-613.665,0,0
288287,172.964,-612.183,0,0
288548,173.067,-610.885,0,0
288808,173.298,-609.744,0,0
289068,173.55,-608.823,0,0
289329,173.807,-608.092,0,0
289589,174.014,-607.513,0,0
289849,174.098,-607.064,0,0
290109,174.104,-606.679,0,0
290370,173.987,-606.313,0,0
290630,173.852,-605.932,0,0
290890,173.673,-605.614,0,0
291151,173.463,-605.356,0,0
291411,173.112,-605.055,0,0
291671,172.667,-604.773,0,0
291932,172.119,-604.39,0,0
292192,171.538,-603.887,0,0
292452,170.986,-603.27,0,0
292713,170.504,-602.534,0,0
292973,170.096,-601.755,0,0
293233,169.744,-600.929,0,0
293494,169.494,-600.024,0,0
293754,169.407,-599.089,0,0
294014,169.481,-598.176,0,0
294275,169.747,-597.354,0,0
294535,170.059,-596.638,0,0
294795,170.477,-596.042,0,0
295056,170.981,-595.58,0,0
295316,171.59,-595.27,0,0
295576,172.237,-595.173,0,0
295837,172.83,-595.326,0,0
296097,173.308,-595.662,0,0
296357,173.643,-596.147,0,0
296618,173.846,-596.711,0,0
296878,173.917,-597.351,0,0
297138,173.89,-598.046,0,0
297399,173.715,-598.819,0,0
297659,173.399,-599.637,0,0
297919,172.904,-600.498,0,0
298180,172.246,-601.322,0,0
298440,171.405,-602.099,0,0
298700.2,170.437,-602.761,0,0
298960.525,169.365,-603.342,0,0
299220.85,168.233,-603.831,0,0
299481.175,167.049,-604.21,0,0
299741.5,165.842,-604.509,0,0
300001.825,164.612,-604.777,0,0
300262.15,163.327,-604.943,0,0
300522.475,162.017,-605.071,0,0
300782.8,160.677,-605.139,0,0
301043.125,159.291,-605.134,0,0
301303.45,157.899,-605.049,0,0
301563.775,156.458,-604.886,0,0
301824.1,154.994,-604.637,0,0
302084.425,153.556,-604.31,0,0
302344.75,152.111,-603.876,0,0
302605.075,150.712,-603.366,0,0
302865.4,149.346,-602.777,0,0
303125.725,148.03,-602.139,0,0
303386.05,146.762,-601.476,0,0
303646.375,145.51,-600.778,0,0
303906.7,144.291,-600.043,0,0
304167.025,143.084,-599.261,0,0
304427.35,141.888,-598.441,0,0
304687.675,140.765,-597.555,0,0
304948.0,139.696,-596.611,0,0
305208.325,138.696,-595.658,0,0
305468.65,137.698,-594.713,0,0
305728.975,136.775,-593.735,0,0
305989.3,135.875,-592.753,0,0
306249.625,135.011,-591.745,0,0
306509.95,134.197,-590.701,0,0
306770.275,133.435,-589.63,0,0
307030.6,132.759,-588.548,0,0
307290.925,132.17,-587.464,0,0
307551.25,131.661,-586.402,0,0
307811.575,131.236,-585.409,0,0
308071.9,130.86,-584.445,0,0
308332.225,130.556,-583.595,0,0
308592.55,130.245,-582.834,0,0
308852.875,129.937,-582.165,0,0
309113.2,129.595,-581.557,0,0
309373.525,129.17,-581.043,0,0
309633.85,128.707,-580.526,0,0
309894.175,128.194,-580.047,0,0
310154.5,127.561,-579.57,0,0
310414.825,126.905,-579.066,0,0
310675.15,126.225,-578.526,0,0
310935.475,125.48,-577.961,0,0
311195.8,124.755,-577.377,0,0
311456.125,123.971,-576.737,0,0
311716.45,123.205,-576.086,0,0
311976.775,122.409,-575.423,0,0
312237.1,121.551,-574.731,0,0
312497.425,120.644,-573.994,0,0
312757.75,119.712,-573.17,0,0
313018.075,118.779,-572.22,0,0
313278.4,117.851,-571.202,0,0
313538.725,116.988,-570.07,0,0
313799.05,116.188,-568.869,0,0
314059.375,115.433,-567.617,0,0
314319.7,114.816,-566.276,0,0
314580,114.262,-564.894,0,0
314840,113.755,-563.503,0,0
315101,113.475,-562.083,0,0
315361,113.296,-560.626,0,0
315621,113.201,-559.302,0,0
315882,113.221,-557.964,0,0
316142,113.402,-556.796,0,0
316402,113.537,-555.7,0,0
316663,113.786,-554.634,0,0
316923,114.058,-553.613,0,0
317183,114.314,-552.833,0,0
317444,114.547,-552.105,0,0
317704,114.831,-551.488,0,0
317964,115.013,-550.923,0,0
318225,115.217,-550.437,0,0
318485,115.294,-549.977,0,0
318745,115.262,-549.446,0,0
319006,115.278,-548.941,0,0
319266,115.251,-548.521,0,0
319526,115.175,-548.008,0,0
319787,115.157,-547.562,0,0
320047,114.987,-547.064,0,0
320307,114.927,-546.53,0,0
320567,114.871,-546.013,0,0
320828,114.739,-545.426,0,0
321088,114.84,-544.922,0,0
321348,114.851,-544.438,0,0
321609,114.934,-543.967,0,0
321869,115.085,-543.496,0,0
322129,115.202,-543.19,0,0
322390,115.316,-542.901,0,0
322650,115.5,-542.612,0,0
322910,115.611,-542.542,0,0
323171,115.732,-542.458,0,0
323431,115.739,-542.533,0,0
323691,115.724,-542.591,0,0
323952,115.552,-542.75,0,0
324212,115.354,-542.901,0,0
324472,114.931,-543.073,0,0
324733,114.519,-543.209,0,0
324993,114.109,-543.321,0,0
325253,113.574,-543.447,0,0
325514,112.99,-543.511,0,0
325774,112.366,-543.562,0,0
326034,111.628,-543.567,0,0
326295,110.886,-543.566,0,0
326555,110.111,-543.46,0,0
326815,109.275,-543.314,0,0
327076,108.387,-543.163,0,0
327336,107.545,-542.96,0,0
327596,106.646,-542.641,0,0
327857,105.758,-542.256,0,0
328117,104.926,-541.856,0,0
328377,104.044,-541.378,0,0
328638,103.245,-540.916,0,0
328898,102.433,-540.458,0,0
329158,101.694,-539.914,0,0
329419,100.878,-539.501,0,0
329679,100.172,-538.987,0,0
329939,99.3647,-538.493,0,0
330200,98.5477,-537.969,0,0
330460,97.7561,-537.41,0,0
330720.15,96.9843,-536.91,0,0
330980.475,96.0958,-536.388,0,0
331240.8,95.2509,-535.785,0,0
331501.125,94.3581,-535.207,0,0
331761.45,93.5592,-534.57,0,0
332021.775,92.5657,-533.878,0,0
332282.1,91.6773,-533.172,0,0
332542.425,90.7586,-532.427,0,0
332802.75,89.8737,-531.609,0,0
333063.075,89.0468,-530.726,0,0
333323.4,88.1604,-529.873,0,0
333583.725,87.3271,-528.949,0,0
333844.05,86.4549,-528.054,0,0
334104.375,85.5971,-527.072,0,0
334364.7,84.7583,-526.052,0,0
334625.025,83.9728,-525.006,0,0
334885.35,83.2151,-523.883,0,0
335145.675,82.463,-522.691,0,0
335406.0,81.7465,-521.468,0,0
335666.325,81.152,-520.34,0,0
335926.65,80.5737,-519.059,0,0
336186.975,80.0602,-517.841,0,0
336447.3,79.5455,-516.57,0,0
336707.625,79.1633,-515.267,0,0
336967.95,78.7809,-514.114,0,0
337228.275,78.3174,-512.791,0,0
337488.6,78.0925,-511.586,0,0
337748.925,77.7557,-510.417,0,0
338009.25,77.4956,-509.232,0,0
338269.575,77.1632,-507.941,0,0
338529.9,76.9062,-506.746,0,0
338790.225,76.6764,-505.45,0,0
339050.55,76.4776,-504.177,0,0
339310.875,76.2869,-502.879,0,0
339571.2,76.1895,-501.482,0,0
339831.525,76.1848,-500.147,0,0
340091.85,76.2033,-498.802,0,0
340352.175,76.3525,-497.461,0,0
340612.5,76.5673,-496.145,0,0
340872.825,76.894,-494.84,0,0
341133.15,77.2167,-493.689,0,0
341393.475,77.6627,-492.542,0,0
341653.8,78.127,-491.544,0,0
341914.125,78.6568,-490.547,0,0
342174.45,79.1476,-489.662,0,0
342434.775,79.7341,-488.938,0,0
342695.1,80.2031,-488.198,0,0
342955.425,80.705,-487.628,0,0
343215.75,81.1616,-487.069,0,0
343476.075,81.5895,-486.627,0,0
343736.4,82.0057,-486.238,0,0
343996.725,82.2029,-485.828,0,0
344257.05,82.4907,-485.449,0,0
344517.375,82.7003,-485.154,0,0
344777.7,82.83,-484.804,0,0
345038.025,82.9194,-484.517,0,0
345298.35,82.9737,-484.176,0,0
345558.675,82.9327,-483.814,0,0
345819.0,82.891,-483.449,0,0
346079.325,82.7874,-483.039,0,0
346339.65,82.7197,-482.613,0,0
346599.975,82.5934,-482.199,0,0
346860,82.5035,-481.744,0,0
347121,82.3591,-481.268,0,0
347381,82.2253,-480.736,0,0
347641,82.1082,-480.227,0,0
347902,81.934,-479.69,0,0
348162,81.775,-479.121,0,0
348422,81.6425,-478.487,0,0
348683,81.4909,-477.854,0,0
348943,81.4002,-477.155,0,0
349203,81.3268,-476.516,0,0
349464,81.3313,-475.79,0,0
349724,81.3268,-475.094,0,0
349984,81.4055,-474.333,0,0
350245,81.5003,-473.684,0,0
350505,81.6628,-472.966,0,0
350765,81.9334,-472.356,0,0
351025,82.2599,-471.754,0,0
351286,82.5449,-471.296,0,0
351546,82.8616,-470.894,0,0
351806,83.1805,-470.576,0,0
352067,83.486,-470.285,0,0
352327,83.614,-470.118,0,0
352587,83.7689,-469.966,0,0
352848,83.8333,-469.923,0,0
353108,83.8191,-469.867,0,0
353368,83.7948,-469.842,0,0
353629,83.6108,-469.757,0,0
353889,83.3514,-469.697,0,0
354149,82.9926,-469.591,0,0
354410,82.6257,-469.398,0,0
354670,82.2488,-469.124,0,0
354930,81.8089,-468.807,0,0
355191,81.3475,-468.388,0,0
355451,80.8732,-467.962,0,0
355711,80.5842,-467.482,0,0
355972,80.137,-466.912,0,0
356232,79.8222,-466.384,0,0
356492,79.4722,-465.856,0,0
356753,79.1891,-465.271,0,0
357013,78.8431,-464.678,0,0
357273,78.6943,-464.082,0,0
357534,78.3643,-463.512,0,0
357794,78.0923,-462.86,0,0
358054,77.7962,-462.225,0,0
358315,77.5473,-461.52,0,0
358575,77.3214,-460.892,0,0
358835,77.0487,-460.126,0,0
359096,76.8498,-459.428,0,0
359356,76.782,-458.643,0,0
359616,76.6277,-457.916,0,0
359877,76.6175,-457.24,0,0
360137,76.5193,-456.543,0,0
360397,76.5459,-455.73,0,0
360658,76.5395,-455.118,0,0
360918,76.5522,-454.394,0,0
361178,76.5417,-453.789,0,0
361438,76.5947,-453.112,0,0
361699,76.6283,-452.5,0,0
361959,76.7074,-451.911,0,0
362219,76.6782,-451.258,0,0
362480,76.7024,-450.706,0,0
362740.1,76.7639,-450.098,0,0
363000.425,76.8713,-449.469,0,0
363260.75,76.8723,-448.809,0,0
363521.075,77.0879,-448.168,0,0
363781.4,77.2095,-447.579,0,0
364041.725,77.4465,-446.955,0,0
364302.05,77.7082,-446.45,0,0
364562.375,78.0582,-445.994,0,0
364822.7,78.3919,-445.574,0,0
365083.025,78.7164,-445.273,0,0
365343.35,78.9959,-445.027,0,0
365603.675,79.2521,-444.88,0,0
365864.0,79.4405,-444.81,0,0
366124.325,79.5608,-444.757,0,0
366384.65,79.5554,-444.815,0,0
366644.975,79.413,-444.88,0,0
366905.3,79.2514,-444.907,0,0
367165.625,78.9476,-444.806,0,0
367425.95,78.5197,-444.785,0,0
367686.275,78.0859,-444.675,0,0
367946.6,77.5631,-444.419,0,0
368206.925,76.9623,-444.074,0,0
368467.25,76.3448,-443.637,0,0
368727.575,75.7438,-443.092,0,0
368987.9,75.2302,-442.382,0,0
369248.225,74.6932,-441.501,0,0
369508.55,74.3188,-440.583,0,0
369768.875,74.0919,-439.567,0,0
370029.2,74.0462,-438.533,0,0
370289.525,74.0568,-437.579,0,0
370549.85,74.2737,-436.596,0,0
370810.175,74.563,-435.862,0,0
371070.5,74.9514,-435.179,0,0
371330.825,75.326,-434.612,0,0
371591.15,75.7571,-434.142,0,0
371851.475,76.1202,-433.84,0,0
372111.8,76.4344,-433.699,0,0
372372.125,76.6046,-433.503,0,0
372632.45,76.6974,-433.433,0,0
372892.775,76.7225,-433.317,0,0
373153.1,76.6487,-433.248,0,0
373413.425,76.4777,-433.202,0,0
373673.75,76.2428,-433.005,0,0
373934.075,75.945,-432.844,0,0
374194.4,75.5842,-432.541,0,0
374454.725,75.1747,-432.231,0,0
374715.05,74.8065,-431.813,0,0
374975.375,74.4426,-431.296,0,0
375235.7,74.0167,-430.804,0,0
375496.025,73.6715,-430.178,0,0
375756.35,73.3298,-429.514,0,0
376016.675,73.0828,-428.832,0,0
376277.0,72.8078,-428.102,0,0
376537.325,72.6633,-427.34,0,0
376797.65,72.5525,-426.575,0,0
377057.975,72.5133,-425.768,0,0
377318.3,72.5079,-425.043,0,0
377578.625,72.5556,-424.305,0,0
377838.95,72.7137,-423.625,0,0
378099.275,72.8322,-422.975,0,0
378359.6,72.9694,-422.352,0,0
378619.925,73.0924,-421.767,0,0
378880,73.2597,-421.188,0,0
379141,73.4474,-420.634,0,0
379401,73.6326,-420.106,0,0
379661,73.8435,-419.609,0,0
379922,74.0279,-419.189,0,0
380182,74.2368,-418.779,0,0
380442,74.3704,-418.403,0,0
380703,74.5244,-418.071,0,0
380963,74.65,-417.691,0,0
381223,74.8176,-417.354,0,0
381483,74.9304,-416.985,0,0
381744,75.0791,-416.692,0,0
382004,75.1741,-416.431,0,0
382264,75.2652,-416.185,0,0
382525,75.2894,-415.965,0,0
382785,75.3532,-415.714,0,0
383045,75.3529,-415.492,0,0
383306,75.2738,-415.364,0,0
383566,75.2256,-415.202,0,0
383826,75.0709,-414.911,0,0
384087,74.9304,-414.74,0,0
384347,74.7198,-414.474,0,0
384607,74.505,-414.21,0,0
384868,74.3052,-413.945,0,0
385128,74.0424,-413.606,0,0
385388,73.81,-413.215,0,0
385649,73.5074,-412.772,0,0
385909,73.1745,-412.38,0,0
386169,72.9515,-411.911,0,0
386430,72.7218,-411.404,0,0
386690,72.4464,-410.886,0,0
386950,72.2316,-410.328,0,0
387211,72.043,-409.8,0,0
387471,71.8447,-409.192,0,0
387731,71.6303,-408.656,0,0
387992,71.4102,-408.03,0,0
388252,71.2719,-407.416,0,0
388512,71.1098,-406.777,0,0
388773,70.9054,-406.083,0,0
389033,70.7619,-405.401,0,0
389293,70.6573,-404.662,0,0
389554,70.5606,-403.888,0,0
389814,70.5582,-403.125,0,0
390074,70.4912,-402.327,0,0
390335,70.5371,-401.499,0,0
390595,70.6579,-400.699,0,0
390855,70.7489,-399.902,0,0
391116,70.9507,-399.115,0,0
391376,71.1194,-398.33,0,0
391636,71.4045,-397.571,0,0
391896,71.7381,-396.806,0,0
392157,72.0626,-396.075,0,0
392417,72.4247,-395.422,0,0
392677,72.8855,-394.756,0,0
392938,73.3378,-394.103,0,0
393198,73.8218,-393.592,0,0
393458,74.3182,-393.083,0,0
393719,74.8634,-392.661,0,0
393979,75.3283,-392.265,0,0
394239,75.8449,-391.897,0,0
394500,76.3876,-391.602,0,0
394760.05,76.8672,-391.311,0,0
395020.375,77.391,-391.15,0,0
395280.7,77.8202,-390.972,0,0
395541.025,78.2467,-390.817,0,0
395801.35,78.6994,-390.736,0,0
396061.675,79.0759,-390.689,0,0
396322.0,79.458,-390.669,0,0
396582.325,79.7789,-390.69,0,0
396842.65,80.092,-390.76,0,0
397102.975,80.3634,-390.817,0,0
397363.3,80.56,-390.911,0,0
397623.625,80.7379,-391.041,0,0
397883.95,80.8958,-391.211,0,0
398144.275,80.9246,-391.374,0,0
398404.6,80.9198,-391.538,0,0
398664.925,80.875,-391.66,0,0
398925.25,80.7796,-391.792,0,0
399185.575,80.6101,-391.886,0,0
399445.9,80.4227,-391.925,0,0
399706.225,80.2366,-391.935,0,0
399966.55,80.0598,-391.937,0,0
400006.6,80.0017,-391.886,0,0