File: Accelerated corrosion test data/2025-10-04_06-00-03/sample_8.csv
Frequency (Hz),Impedance (ohms),Phase (Radians),Temperature (C),Humidity (%)
10000.0,312.304,-10933.8,0,0
10260.325,304.158,-10659.4,0,0
10520.65,296.806,-10398.6,0,0
10780.975,289.603,-10151,0,0
11041.3,283.068,-9913.94,0,0
11301.625,277.007,-9689.54,0,0
11561.95,270.446,-9473.21,0,0
11822.275,265.239,-9267.43,0,0
12082.6,262.244,-9067.77,0,0
12342.925,259.589,-8881.78,0,0
12603.25,254.228,-8701.29,0,0
12863.575,250.704,-8530.64,0,0
13123.9,242.384,-8366.8,0,0
13384.225,236.502,-8205.06,0,0
13644.55,233.122,-8049.25,0,0
13904.875,225.764,-7902.91,0,0
14165.2,220.946,-7759.24,0,0
14425.525,217.788,-7619.87,0,0
14685.8,212.962,-7485.83,0,0
14946.175,209.383,-7356.39,0,0
15206.5,206.213,-7231.66,0,0
15466.825,202.69,-7111.45,0,0
15727.15,199.358,-6994.92,0,0
15987.5,196.347,-6881.95,0,0
16247.8,193.191,-6772.8,0,0
16508.125,190.055,-6666.85,0,0
16768.45,187.105,-6564.46,0,0
17028.775,184.121,-6464.72,0,0
17289.1,181.566,-6368.04,0,0
17549.425,178.765,-6273.89,0,0
17809.75,176.409,-6182.85,0,0
18070.075,174.372,-6094.34,0,0
18330.4,171.755,-6007.9,0,0
18590.725,169.745,-5923.46,0,0
18851.05,169.461,-5840.21,0,0
19111.375,167.919,-5761.93,0,0
19371.7,170.351,-5684.65,0,0
19632.025,166.452,-5613.34,0,0
19892.35,164.188,-5543,0,0
20152.675,160.882,-5470.39,0,0
20413.0,160.207,-5400.54,0,0
20673.3,159.292,-5333.56,0,0
20933.65,158.081,-5270.01,0,0
21193.975,155.356,-5206.75,0,0
21454.3,152.801,-5142.55,0,0
21714.625,150.911,-5080.97,0,0
21974.9,150.991,-5021.23,0,0
22235.275,150.49,-4963.09,0,0
22495.6,148.966,-4906.77,0,0
22755.925,147.361,-4853.42,0,0
23016.25,144.456,-4798.97,0,0
23276.6,141.746,-4747.05,0,0
23536.9,140.079,-4694.1,0,0
23797.225,138.081,-4642.48,0,0
24057.55,136.107,-4591.96,0,0
24317.875,134.537,-4542.72,0,0
24578.2,132.531,-4494.91,0,0
24838.525,131.023,-4446.91,0,0
25098.85,129.91,-4401.11,0,0
25359.175,128.718,-4356.14,0,0
25619.5,127.657,-4311.28,0,0
25879.8,126.308,-4267.88,0,0
26140.1,125.686,-4225.62,0,0
26400.5,124.505,-4183.53,0,0
26660.8,122.992,-4142.63,0,0
26921.1,121.927,-4101.16,0,0
27181.4,122.355,-4061.9,0,0
27441.8,121.074,-4023.58,0,0
27702.1,120.905,-3986.09,0,0
27962.4,119.108,-3949.13,0,0
28222.7,118.657,-3910.95,0,0
28483.1,118.088,-3875.97,0,0
28743.4,117.936,-3840.4,0,0
29003.7,117.716,-3806.18,0,0
29264,117.109,-3771.34,0,0
29524.4,116.597,-3738.81,0,0
29784.7,116.132,-3705.88,0,0
30045,116.709,-3674.2,0,0
30305.3,116.228,-3642.81,0,0
30565.7,115.03,-3612.3,0,0
30826,114.15,-3581.92,0,0
31086.3,113.741,-3552.24,0,0
31346.6,112.878,-3522.51,0,0
31607,112.408,-3492.73,0,0
31867.3,112.234,-3464.34,0,0
32127.6,111.766,-3436.33,0,0
32387.9,111.259,-3408.39,0,0
32648.3,111.468,-3380.72,0,0
32908.6,111.52,-3353.14,0,0
33168.9,111.609,-3327.8,0,0
33429.2,112.873,-3301.67,0,0
33689.6,113.932,-3277.18,0,0
33949.9,113.638,-3254.25,0,0
34210.2,112.975,-3230.37,0,0
34470.5,111.963,-3207.06,0,0
34730.9,111.227,-3183.63,0,0
34991.2,111.528,-3160.66,0,0
35251.5,110.601,-3138.78,0,0
35511.8,109.574,-3117.01,0,0
35772.2,108.064,-3095.74,0,0
36032.5,106.731,-3073.93,0,0
36292.8,105.17,-3052.59,0,0
36553.1,103.862,-3031.17,0,0
36813.5,102.282,-3010.13,0,0
37073.8,101.018,-2988.81,0,0
37334.1,99.7795,-2968.28,0,0
37594.4,98.2357,-2948.02,0,0
37854.8,96.6563,-2927.6,0,0
38115.1,95.7126,-2907.56,0,0
38375.4,94.1581,-2887.64,0,0
38635.7,92.7319,-2868.07,0,0
38896.1,91.6924,-2848.27,0,0
39156.4,90.544,-2829.01,0,0
39416.7,89.2612,-2809.69,0,0
39677,88.6189,-2790.67,0,0
39937.4,87.1434,-2771.88,0,0
40197.7,86.5795,-2752.81,0,0
40458,86.268,-2734.03,0,0
40718.3,86.1787,-2716.35,0,0
40978.7,85.3473,-2698.85,0,0
41239,84.8214,-2681.38,0,0
41499.3,84.3322,-2663.95,0,0
41759.6,83.8684,-2646.83,0,0
42020,83.3004,-2630.26,0,0
42280.275,82.6659,-2613.43,0,0
42540.6,82.0918,-2596.78,0,0
42800.925,82.1818,-2580.27,0,0
43061.25,82.1429,-2564.07,0,0
43321.575,82.3761,-2548.54,0,0
43581.9,82.2063,-2533.2,0,0
43842.225,81.8936,-2518.67,0,0
44102.55,81.2309,-2503.85,0,0
44362.875,80.2839,-2488.78,0,0
44623.2,79.7826,-2474.22,0,0
44883.525,79.109,-2459.47,0,0
45143.85,78.5876,-2444.54,0,0
45404.175,78.0265,-2430.36,0,0
45664.5,77.4988,-2415.91,0,0
45924.825,77.0071,-2401.83,0,0
46185.15,76.3191,-2387.99,0,0
46445.475,75.903,-2373.81,0,0
46705.8,75.7103,-2360.17,0,0
46966.125,75.378,-2346.51,0,0
47226.45,75.0228,-2333.11,0,0
47486.775,74.7763,-2319.9,0,0
47747.1,74.6214,-2306.88,0,0
48007.425,74.2425,-2294.21,0,0
48267.75,73.8216,-2281.43,0,0
48528.075,73.4416,-2268.67,0,0
48788.4,73.2936,-2256.49,0,0
49048.725,72.5385,-2244.16,0,0
49309.05,72.0728,-2231.66,0,0
49569.375,71.7911,-2219.5,0,0
49829.7,71.4277,-2207.39,0,0
50090.025,71.0961,-2195.43,0,0
50350.35,70.8035,-2183.37,0,0
50610.675,70.5067,-2171.62,0,0
50871.0,70.2006,-2159.81,0,0
51131.325,69.8623,-2148.36,0,0
51391.65,69.8108,-2136.8,0,0
51651.975,69.8761,-2125.35,0,0
51912.3,69.8638,-2114.52,0,0
52172.625,69.6805,-2103.5,0,0
52432.95,69.6275,-2092.8,0,0
52693.275,69.3023,-2081.89,0,0
52953.6,69.385,-2071.23,0,0
53213.925,69.5396,-2060.99,0,0
53474.25,69.291,-2050.74,0,0
53734.575,69.3576,-2040.85,0,0
53994.9,68.9517,-2031.31,0,0
54255.225,68.3489,-2021.35,0,0
54515.55,67.4107,-2011.38,0,0
54775.875,66.9511,-2001.18,0,0
55036.2,66.5788,-1991.72,0,0
55296.525,65.9327,-1981.85,0,0
55556.85,65.1166,-1971.98,0,0
55817.175,64.6282,-1962.05,0,0
56077.5,64.1564,-1952.31,0,0
56337.825,63.5827,-1942.57,0,0
56598.15,63.2888,-1932.78,0,0
56858.475,62.9971,-1923.02,0,0
57118.8,62.8736,-1913.56,0,0
57379.125,62.6627,-1904.15,0,0
57639.45,62.4768,-1894.78,0,0
57899.775,62.3931,-1885.66,0,0
58160.1,62.2263,-1876.49,0,0
58420.4,62.2272,-1867.28,0,0
58680.7,62.1491,-1858.44,0,0
58941.1,62.1894,-1849.56,0,0
59201.4,62.3413,-1841.16,0,0
59461.7,62.1414,-1832.91,0,0
59722,61.7592,-1824.35,0,0
59982.4,61.2928,-1815.78,0,0
60242.7,61.0106,-1807.38,0,0
60503,60.774,-1798.75,0,0
60763.3,60.5113,-1790.25,0,0
61023.7,60.5006,-1781.77,0,0
61284,60.5148,-1773.52,0,0
61544.3,60.6879,-1765.22,0,0
61804.6,60.6497,-1757.26,0,0
62065,60.4183,-1749.34,0,0
62325.3,60.326,-1741.2,0,0
62585.6,60.3381,-1733.13,0,0
62845.9,60.454,-1725.25,0,0
63106.3,60.6948,-1717.39,0,0
63366.6,60.8276,-1709.55,0,0
63626.9,61.2368,-1702.14,0,0
63887.2,61.483,-1694.58,0,0
64147.6,61.7305,-1687.18,0,0
64407.9,62.2958,-1680.23,0,0
64668.2,62.3074,-1673.58,0,0
64928.5,62.1698,-1666.58,0,0
65188.9,62.0584,-1659.92,0,0
65449.2,61.9067,-1653.06,0,0
65709.5,61.5203,-1646.43,0,0
65969.8,61.1659,-1639.57,0,0
66230.2,60.9229,-1632.82,0,0
66490.5,60.3407,-1626.08,0,0
66750.8,59.7202,-1619.23,0,0
67011.1,59.4645,-1611.93,0,0
67271.5,59.1945,-1604.9,0,0
67531.8,58.9183,-1598.19,0,0
67792.1,58.7559,-1591.33,0,0
68052.4,58.4499,-1584.47,0,0
68312.8,58.2557,-1577.66,0,0
68573.1,58.2538,-1570.96,0,0
68833.4,58.0856,-1564.1,0,0
69093.7,57.9382,-1557.56,0,0
69354.1,57.9076,-1550.85,0,0
69614.4,57.9565,-1544.14,0,0
69874.7,58.0277,-1537.69,0,0
70135,58.3172,-1531.32,0,0
70395.4,58.2908,-1524.98,0,0
70655.7,58.3818,-1518.73,0,0
70916,58.3802,-1512.62,0,0
71176.3,58.4658,-1506.56,0,0
71436.7,58.4939,-1500.48,0,0
71697,58.5514,-1494.32,0,0
71957.3,58.7182,-1488.48,0,0
72217.6,58.768,-1482.69,0,0
72478,58.7988,-1477.06,0,0
72738.3,58.5566,-1471.41,0,0
72998.6,58.1784,-1465.64,0,0
73258.9,57.964,-1459.72,0,0
73519.3,57.7772,-1453.81,0,0
73779.6,57.6717,-1447.8,0,0
74039.9,57.7032,-1441.95,0,0
74300.225,57.7557,-1436.45,0,0
74560.55,57.5595,-1430.84,0,0
74820.875,57.3631,-1425.17,0,0
75081.2,57.2288,-1419.35,0,0
75341.525,57.1614,-1413.73,0,0
75601.85,57.0798,-1408.05,0,0
75862.175,57.1847,-1402.36,0,0
76122.5,57.2791,-1396.87,0,0
76382.825,57.3288,-1391.43,0,0
76643.15,57.3902,-1386,0,0
76903.475,57.4154,-1380.75,0,0
77163.8,57.3151,-1375.44,0,0
77424.125,57.282,-1370.18,0,0
77684.45,57.2067,-1364.87,0,0
77944.775,57.1588,-1359.61,0,0
78205.1,57.08,-1354.38,0,0
78465.425,56.9373,-1349.16,0,0
78725.75,56.7863,-1343.9,0,0
78986.075,56.6419,-1338.53,0,0
79246.4,56.7606,-1333.24,0,0
79506.725,56.7233,-1328.09,0,0
79767.05,56.7228,-1322.81,0,0
80027.375,56.7424,-1317.62,0,0
80287.7,56.7925,-1312.46,0,0
80548.025,56.9543,-1307.33,0,0
80808.35,57.0592,-1302.36,0,0
81068.675,57.0022,-1297.24,0,0
81329.0,57.0696,-1292.11,0,0
81589.325,57.218,-1286.99,0,0
81849.65,57.3687,-1281.93,0,0
82109.975,57.6321,-1276.86,0,0
82370.3,58.0433,-1271.79,0,0
82630.625,58.3197,-1267.02,0,0
82890.95,58.6845,-1262.18,0,0
83151.275,59.0731,-1257.45,0,0
83411.6,59.3631,-1252.81,0,0
83671.925,59.6109,-1247.94,0,0
83932.25,60.1201,-1243.25,0,0
84192.575,60.6169,-1238.82,0,0
84452.9,60.9929,-1234.38,0,0
84713.225,61.3718,-1230.04,0,0
84973.55,61.8003,-1225.87,0,0
85233.875,61.9409,-1221.94,0,0
85494.2,61.5441,-1217.77,0,0
85754.525,61.4248,-1213.34,0,0
86014.85,61.2156,-1208.73,0,0
86275.175,61.3009,-1204.16,0,0
86535.5,61.3744,-1199.57,0,0
86795.825,61.4005,-1194.92,0,0
87056.15,61.753,-1190.23,0,0
87316.475,62.1552,-1185.83,0,0
87576.8,62.3912,-1181.48,0,0
87837.125,62.5972,-1176.94,0,0
88097.45,63.0288,-1172.45,0,0
88357.775,63.4244,-1168.15,0,0
88618.1,63.9027,-1163.84,0,0
88878.425,64.3059,-1159.55,0,0
89138.75,64.5852,-1155.24,0,0
89399.075,65.019,-1150.94,0,0
89659.4,65.5534,-1146.7,0,0
89919.725,66.0776,-1142.39,0,0
90180,66.7564,-1138.19,0,0
90440.4,67.3709,-1134.01,0,0
90700.7,68.0351,-1129.74,0,0
90961,68.9413,-1125.77,0,0
91221.3,69.9587,-1121.8,0,0
91481.7,71.0261,-1117.98,0,0
91742,72.1245,-1114.61,0,0
92002.3,73.0622,-1111.3,0,0
92262.6,73.7563,-1108.24,0,0
92523,74.4994,-1105.13,0,0
92783.3,75.0299,-1102.31,0,0
93043.6,75.2245,-1099.52,0,0
93303.9,75.0062,-1096.87,0,0
93564.3,74.3823,-1093.48,0,0
93824.6,74.1937,-1089.75,0,0
94084.9,74.3893,-1086.01,0,0
94345.2,74.5784,-1082.46,0,0
94605.6,74.5575,-1079.01,0,0
94865.9,74.6648,-1075.14,0,0
95126.2,75.1888,-1071.69,0,0
95386.5,75.2592,-1068.19,0,0
95646.9,75.716,-1064.57,0,0
95907.2,76.1984,-1061.31,0,0
96167.5,76.2832,-1058.12,0,0
96427.8,76.371,-1054.49,0,0
96688.2,76.8039,-1050.82,0,0
96948.5,77.3834,-1047.51,0,0
97208.8,77.7947,-1044.37,0,0
97469.1,78.2226,-1041.05,0,0
97729.5,78.8128,-1037.79,0,0
97989.8,79.4309,-1034.84,0,0
98250.1,79.8623,-1031.98,0,0
98510.4,80.1724,-1029.09,0,0
98770.8,80.5038,-1026.28,0,0
99031.1,80.792,-1023.64,0,0
99291.4,80.6801,-1021.07,0,0
99551.7,80.4381,-1018.17,0,0
99812.1,80.3455,-1015.01,0,0
100072,80.4716,-1011.82,0,0
100333,80.7209,-1008.92,0,0
100593,80.8766,-1006.04,0,0
100853,80.9662,-1003.32,0,0
101114,80.8836,-1000.65,0,0
101374,80.6451,-997.762,0,0
101634,80.54,-994.839,0,0
101895,80.4452,-992,0,0
102155,80.1645,-989.193,0,0
102415,79.8611,-986.202,0,0
102676,79.5693,-983.166,0,0
102936,79.3476,-980.032,0,0
103196,79.1782,-976.895,0,0
103457,78.948,-973.676,0,0
103717,78.9615,-970.473,0,0
103977,78.9954,-967.357,0,0
104238,79.0837,-964.23,0,0
104498,79.1276,-961.3,0,0
104758,78.9188,-958.277,0,0
105019,78.8717,-955.185,0,0
105279,78.7094,-951.965,0,0
105539,78.8247,-948.625,0,0
105800,79.0568,-945.433,0,0
106060,79.323,-942.313,0,0
106320.175,79.6176,-939.269,0,0
106580.5,79.9595,-936.316,0,0
106840.825,80.3332,-933.405,0,0
107101.15,80.7629,-930.706,0,0
107361.475,80.9506,-928.136,0,0
107621.8,81.0388,-925.548,0,0
107882.125,81.0125,-922.91,0,0
108142.45,80.8842,-920.243,0,0
108402.775,80.7542,-917.368,0,0
108663.1,80.7384,-914.392,0,0
108923.425,80.8389,-911.528,0,0
109183.75,80.9038,-908.658,0,0
109444.075,81.1425,-905.765,0,0
109704.4,81.3569,-903.007,0,0
109964.725,81.5518,-900.338,0,0
110225.05,81.7395,-897.708,0,0
110485.375,81.8673,-895.152,0,0
110745.7,81.9581,-892.533,0,0
111006.025,81.9047,-890.043,0,0
111266.35,81.8149,-887.375,0,0
111526.675,81.6966,-884.82,0,0
111787.0,81.6855,-882,0,0
112047.325,81.7222,-879.336,0,0
112307.65,81.7128,-876.718,0,0
112567.975,81.7224,-874.078,0,0
112828.3,81.7946,-871.458,0,0
113088.625,81.7574,-868.867,0,0
113348.95,81.6429,-866.319,0,0
113609.275,81.612,-863.679,0,0
113869.6,81.5642,-861.114,0,0
114129.925,81.4697,-858.499,0,0
114390.25,81.2961,-855.858,0,0
114650.575,81.1988,-853.18,0,0
114910.9,81.1165,-850.451,0,0
115171.225,81.1204,-847.782,0,0
115431.55,81.0889,-845.152,0,0
115691.875,80.9981,-842.586,0,0
115952.2,80.8913,-840.013,0,0
116212.525,80.6976,-837.361,0,0
116472.85,80.5686,-834.723,0,0
116733.175,80.3741,-832.09,0,0
116993.5,80.155,-829.315,0,0
117253.825,80.0107,-826.471,0,0
117514.15,79.9326,-823.62,0,0
117774.475,79.951,-820.756,0,0
118034.8,80.021,-817.978,0,0
118295.125,80.0318,-815.189,0,0
118555.45,80.1762,-812.39,0,0
118815.775,80.4135,-809.679,0,0
119076.1,80.6329,-807.221,0,0
119336.425,80.5906,-804.763,0,0
119596.75,80.5623,-802.325,0,0
119857.075,80.3664,-799.568,0,0
120117.4,80.2923,-796.947,0,0
120377.725,80.2291,-794.22,0,0
120638.05,80.2093,-791.561,0,0
120898.375,80.1321,-788.882,0,0
121158.7,80.0924,-786.068,0,0
121419.025,80.1724,-783.313,0,0
121679.35,80.1718,-780.645,0,0
121939.675,80.215,-777.857,0,0
122200.0,80.2879,-775.128,0,0
122460,80.4075,-772.421,0,0
122721,80.5355,-769.763,0,0
122981,80.6612,-767.183,0,0
123241,80.6404,-764.641,0,0
123502,80.5367,-761.97,0,0
123762,80.4977,-759.181,0,0
124022,80.4841,-756.372,0,0
124283,80.5434,-753.492,0,0
124543,80.6787,-750.621,0,0
124803,80.9023,-747.778,0,0
125064,81.1635,-744.953,0,0
125324,81.4755,-742.186,0,0
125584,81.8079,-739.478,0,0
125845,82.172,-736.809,0,0
126105,82.5231,-734.176,0,0
126365,82.8676,-731.612,0,0
126626,83.2111,-729.057,0,0
126886,83.5118,-726.604,0,0
127146,83.6392,-724.043,0,0
127406,84.0389,-721.59,0,0
127667,84.2087,-719.1,0,0
127927,84.4044,-716.694,0,0
128187,84.5499,-714.184,0,0
128448,84.6966,-711.699,0,0
128708,84.8221,-709.212,0,0
128968,84.9307,-706.786,0,0
129229,84.9151,-704.235,0,0
129489,84.9116,-701.633,0,0
129749,84.9249,-698.915,0,0
130010,85.0761,-696.17,0,0
130270,85.1902,-693.424,0,0
130530,85.3204,-690.648,0,0
130791,85.6556,-687.741,0,0
131051,86.1388,-685.132,0,0
131311,86.4886,-682.59,0,0
131572,86.7869,-680.048,0,0
131832,87.1108,-677.574,0,0
132092,87.2935,-675.183,0,0
132353,87.2245,-672.642,0,0
132613,87.2494,-669.885,0,0
132873,87.4026,-666.962,0,0
133134,87.7651,-664.091,0,0
133394,88.2065,-661.393,0,0
133654,88.5425,-658.77,0,0
133915,88.827,-656.158,0,0
134175,89.0132,-653.434,0,0
134435,89.3291,-650.619,0,0
134696,89.6379,-647.797,0,0
134956,90.1034,-644.951,0,0
135216,90.6166,-642.122,0,0
135477,91.2472,-639.309,0,0
135737,92.0039,-636.603,0,0
135997,92.7861,-634.045,0,0
136258,93.5985,-631.677,0,0
136518,94.2404,-629.576,0,0
136778,94.6358,-627.436,0,0
137039,94.9901,-625.351,0,0
137299,95.089,-623.287,0,0
137559,94.9637,-621.138,0,0
137819,94.6717,-618.786,0,0
138080,94.3549,-616.157,0,0
138340.125,94.0195,-613.379,0,0
138600.45,93.7766,-610.292,0,0
138860.775,93.796,-607.077,0,0
139121.1,93.9357,-603.894,0,0
139381.425,94.2252,-600.723,0,0
139641.75,94.6065,-597.691,0,0
139902.075,94.8976,-594.672,0,0
140162.4,95.1861,-591.554,0,0
140422.725,95.6015,-588.452,0,0
140683.05,95.9342,-585.428,0,0
140943.375,96.2157,-582.282,0,0
141203.7,96.5138,-579.032,0,0
141464.025,96.9129,-575.655,0,0
141724.35,97.4659,-572.308,0,0
141984.675,98.0511,-569.02,0,0
142245.0,98.5762,-565.73,0,0
142505.325,99.0988,-562.302,0,0
142765.65,99.779,-558.736,0,0
143025.975,100.601,-555.253,0,0
143286.3,101.419,-551.825,0,0
143546.625,102.205,-548.344,0,0
143806.95,103.051,-544.792,0,0
144067.275,103.955,-541.18,0,0
144327.6,104.933,-537.5,0,0
144587.925,105.975,-533.722,0,0
144848.25,107.136,-529.825,0,0
145108.575,108.596,-525.816,0,0
145368.9,110.315,-521.851,0,0
145629.225,112.299,-517.977,0,0
145889.55,114.552,-514.338,0,0
146149.875,116.842,-511.117,0,0
146410.2,118.915,-508.086,0,0
146670.525,120.835,-504.987,0,0
146930.85,122.928,-501.774,0,0
147191.175,125.113,-498.746,0,0
147451.5,127.341,-495.938,0,0
147711.825,129.425,-493.379,0,0
147972.15,131.169,-490.988,0,0
148232.475,132.356,-488.308,0,0
148492.8,133.506,-484.93,0,0
148753.125,135.071,-481.112,0,0
149013.45,137.11,-477.283,0,0
149273.775,139.356,-473.423,0,0
149534.1,141.943,-469.397,0,0
149794.425,144.999,-465.685,0,0
150054.75,148.068,-462.063,0,0
150315.075,151.322,-458.408,0,0
150575.4,155.226,-454.779,0,0
150835.725,159.446,-451.531,0,0
151096.05,164.063,-448.596,0,0
151356.375,169.074,-446.13,0,0
151616.7,174.569,-444.63,0,0
151877.025,179.785,-444.239,0,0
152137.35,184.106,-444.657,0,0
152397.675,187.689,-445.184,0,0
152658.0,190.605,-445.94,0,0
152918.325,192.691,-446.664,0,0
153178.65,194.112,-446.559,0,0
153438.975,195.727,-446.029,0,0
153699.3,197.472,-445.274,0,0
153959.625,199.35,-444.495,0,0
154219.95,201.108,-443.908,0,0
154480,202.583,-443.098,0,0
154741,203.938,-441.859,0,0
155001,205.661,-440.288,0,0
155261,207.89,-438.511,0,0
155522,210.576,-437.08,0,0
155782,213.506,-436.054,0,0
156042,216.643,-435.403,0,0
156303,220.203,-435.704,0,0
156563,222.983,-437.523,0,0
156823,223.799,-439.973,0,0
157084,222.968,-441.213,0,0
157344,221.352,-441.347,0,0
157604,219.533,-439.656,0,0
157864,218.65,-436.616,0,0
158125,218.937,-433.091,0,0
158385,220.379,-429.665,0,0
158645,222.532,-426.808,0,0
158906,224.873,-424.122,0,0
159166,227.439,-421.877,0,0
159426,230.701,-419.262,0,0
159687,234.55,-418.503,0,0
159947,237.529,-418.904,0,0
160207,239.343,-419.717,0,0
160468,239.983,-419.963,0,0
160728,240.23,-419.591,0,0
160988,239.935,-418.513,0,0
161249,239.857,-416.034,0,0
161509,240.859,-412.853,0,0
161769,242.869,-409.95,0,0
162030,245.338,-407.311,0,0
162290,248.149,-404.915,0,0
162550,251.418,-402.773,0,0
162811,255.209,-401.212,0,0
163071,258.997,-400.478,0,0
163331,262.479,-400.221,0,0
163592,265.929,-400.455,0,0
163852,268.975,-401.377,0,0
164112,271.457,-402.375,0,0
164373,273.378,-403.687,0,0
164633,274.556,-404.65,0,0
164893,275.839,-405.269,0,0
165154,277.137,-405.992,0,0
165414,278.292,-406.911,0,0
165674,279.427,-407.985,0,0
165935,280.214,-409.775,0,0
166195,279.615,-412.015,0,0
166455,277.894,-413.413,0,0
166716,275.67,-413.808,0,0
166976,273.31,-413.472,0,0
167236,270.986,-412.325,0,0
167497,268.859,-410.602,0,0
167757,267.216,-408.527,0,0
168017,265.464,-406.291,0,0
168277,263.585,-403.624,0,0
168538,262.021,-400.149,0,0
168798,260.979,-396.446,0,0
169058,260.253,-392.568,0,0
169319,259.84,-388.413,0,0
169579,259.78,-384.359,0,0
169839,260.122,-380.003,0,0
170100,260.865,-376.022,0,0
170360.075,261.365,-372.149,0,0
170620.4,261.724,-367.774,0,0
170880.725,262.617,-363.023,0,0
171141.05,263.944,-358.422,0,0
171401.375,265.422,-353.848,0,0
171661.7,267.019,-349.112,0,0
171922.025,268.772,-344.166,0,0
172182.35,271.111,-338.9,0,0
172442.675,274.032,-333.819,0,0
172703.0,277.394,-328.934,0,0
172963.325,281.171,-324.42,0,0
173223.65,285.034,-320.458,0,0
173483.975,288.616,-316.481,0,0
173744.3,292.729,-312.554,0,0
174004.625,296.94,-308.812,0,0
174264.95,301.428,-305.564,0,0
174525.275,305.772,-302.677,0,0
174785.6,310.008,-300.047,0,0
175045.925,313.762,-297.683,0,0
175306.25,317.342,-295.114,0,0
175566.575,320.627,-292.465,0,0
175826.9,323.659,-289.527,0,0
176087.225,326.642,-285.817,0,0
176347.55,330.181,-281.592,0,0
176607.875,334.569,-277.212,0,0
176868.2,339.501,-273.252,0,0
177128.525,344.615,-269.608,0,0
177388.85,349.971,-266.04,0,0
177649.175,355.408,-262.76,0,0
177909.5,360.8,-259.501,0,0
178169.825,366.388,-255.992,0,0
178430.15,372.624,-252.57,0,0
178690.475,379.335,-249.563,0,0
178950.8,386.359,-246.886,0,0
179211.125,393.561,-244.477,0,0
179471.45,400.964,-242.68,0,0
179731.775,408.329,-241.538,0,0
179992.1,415.75,-240.794,0,0
180252.425,422.834,-240.193,0,0
180512.75,429.871,-240.178,0,0
180773.075,436.372,-240.451,0,0
181033.4,442.577,-240.411,0,0
181293.725,448.721,-240.664,0,0
181554.05,454.461,-240.693,0,0
181814.375,460.239,-240.278,0,0
182074.7,466.713,-239.891,0,0
182335.025,473.16,-239.942,0,0
182595.35,479.475,-240.278,0,0
182855.675,486.022,-240.36,0,0
183116.0,492.976,-240.984,0,0
183376.325,499.447,-242.687,0,0
183636.65,504.591,-244.484,0,0
183896.975,509.314,-245.211,0,0
184157.3,514.133,-245.282,0,0
184417.625,519.431,-244.839,0,0
184677.95,525.373,-244.174,0,0
184938.275,531.886,-243.965,0,0
185198.6,538.215,-244.12,0,0
185458.925,544.127,-243.944,0,0
185719.25,550.581,-243.071,0,0
185979.575,557.938,-242.2,0,0
186239.9,565.915,-241.518,0,0
186500,574.732,-241.05,0,0
186761,584.372,-241.79,0,0
187021,593.877,-243.693,0,0
187281,602.786,-246.519,0,0
187542,610.749,-249.102,0,0
187802,618.81,-250.946,0,0
188062,627.734,-252.81,0,0
188322,637.249,-255.264,0,0
188583,647.198,-258.632,0,0
188843,657.023,-263.064,0,0
189103,666.318,-268.311,0,0
189364,675.09,-274.305,0,0
189624,682.705,-280.769,0,0
189884,689.249,-286.745,0,0
190145,695.558,-292.052,0,0
190405,701.901,-296.998,0,0
190665,708.013,-301.678,0,0
190926,714.051,-305.406,0,0
191186,720.957,-308.172,0,0
191446,729.778,-310.956,0,0
191707,739.693,-314.932,0,0
191967,750.062,-320.168,0,0
192227,760.561,-326.841,0,0
192488,769.841,-334.708,0,0
192748,778.374,-342.566,0,0
193008,786.04,-349.717,0,0
193269,794.667,-355.245,0,0
193529,805.506,-361.351,0,0
193789,817.496,-368.933,0,0
194050,830.227,-378.36,0,0
194310,843.058,-389.67,0,0
194570,855.686,-402.941,0,0
194831,867.565,-418.332,0,0
195091,877.847,-435.674,0,0
195351,885.784,-454.095,0,0
195612,891.918,-472.048,0,0
195872,897.662,-489.73,0,0
196132,903.169,-508.187,0,0
196393,907.774,-527.673,0,0
196653,911.114,-548.567,0,0
196913,912.225,-570.53,0,0
197174,910.757,-592.301,0,0
197434,907.546,-613.192,0,0
197694,903.135,-633.339,0,0
197955,897.522,-653.169,0,0
198215,890.475,-672.476,0,0
198475,881.616,-691.024,0,0
198735,871.711,-707.779,0,0
198996,861.825,-723.154,0,0
199256,851.561,-738.212,0,0
199516,840.989,-752.724,0,0
199777,829.766,-766.921,0,0
200037,817.363,-780.626,0,0
200297,803.681,-793.78,0,0
200558,788.816,-804.986,0,0
200818,773.433,-814.602,0,0
201078,758.099,-822.359,0,0
201339,743.212,-828.467,0,0
201599,729.189,-833.581,0,0
201859,716.083,-838.103,0,0
202120,703.221,-842.772,0,0
202380.025,689.859,-847.445,0,0
202640.35,676.105,-851.369,0,0
202900.675,661.736,-854.105,0,0
203161.0,647.295,-854.998,0,0
203421.325,634.012,-854.465,0,0
203681.65,621.967,-853.386,0,0
203941.975,610.611,-852.307,0,0
204202.3,599.243,-850.729,0,0
204462.625,588.497,-848.421,0,0
204722.95,578.419,-845.592,0,0
204983.275,569.129,-842.231,0,0
205243.6,560.719,-839.057,0,0
205503.925,552.333,-836.008,0,0
205764.25,544.392,-832.618,0,0
206024.575,536.706,-829.136,0,0
206284.9,529.019,-825.161,0,0
206545.225,521.792,-820.399,0,0
206805.55,515.604,-814.935,0,0
207065.875,510.574,-809.34,0,0
207326.2,506.552,-803.948,0,0
207586.525,503.245,-798.977,0,0
207846.85,500.707,-794.279,0,0
208107.175,498.667,-790.222,0,0
208367.5,496.872,-786.815,0,0
208627.825,495.051,-783.803,0,0
208888.15,493.194,-781.051,0,0
209148.475,491.289,-778.3,0,0
209408.8,489.631,-775.49,0,0
209669.125,488.186,-772.498,0,0
209929.45,487.573,-770.011,0,0
210189.775,487.055,-767.581,0,0
210450.1,486.79,-765.548,0,0
210710.425,486.647,-763.729,0,0
210970.75,486.801,-762.234,0,0
211231.075,486.997,-761.215,0,0
211491.4,487.241,-760.496,0,0
211751.725,487.387,-760.006,0,0
212012.05,487.86,-759.75,0,0
212272.375,488.356,-759.975,0,0
212532.7,488.659,-760.618,0,0
212793.025,488.909,-761.544,0,0
213053.35,488.998,-762.919,0,0
213313.675,488.917,-764.497,0,0
213574.0,488.529,-766.489,0,0
213834.325,487.672,-768.677,0,0
214094.65,486.337,-770.928,0,0
214354.975,484.703,-773.153,0,0
214615.3,482.696,-775.388,0,0
214875.625,480.232,-777.525,0,0
215135.95,477.295,-779.32,0,0
215396.275,474.459,-780.805,0,0
215656.6,471.223,-782.004,0,0
215916.925,467.868,-782.922,0,0
216177.25,464.517,-783.367,0,0
216437.575,461.26,-783.31,0,0
216697.9,458.106,-782.871,0,0
216958.225,455.219,-781.992,0,0
217218.55,452.821,-780.698,0,0
217478.875,451.149,-779.27,0,0
217739.2,450.072,-778.097,0,0
217999.525,449.386,-777.127,0,0
218259.85,449.027,-776.514,0,0
218520,448.891,-776.302,0,0
218780,448.957,-776.497,0,0
219041,448.991,-777.178,0,0
219301,448.738,-778.29,0,0
219561,448.259,-779.405,0,0
219822,447.743,-780.537,0,0
220082,447.374,-781.715,0,0
220342,446.878,-783.103,0,0
220603,446.431,-784.807,0,0
220863,445.872,-786.675,0,0
221123,445.21,-788.574,0,0
221384,444.503,-790.768,0,0
221644,443.493,-793.108,0,0
221904,442.45,-795.558,0,0
222165,441.331,-798.151,0,0
222425,439.963,-801.172,0,0
222685,438.047,-804.373,0,0
222946,435.794,-807.45,0,0
223206,433.185,-810.422,0,0
223466,430.259,-813.211,0,0
223727,427.15,-815.768,0,0
223987,424.175,-817.979,0,0
224247,421.31,-820.104,0,0
224508,418.518,-822.239,0,0
224768,415.849,-824.666,0,0
225028,412.892,-827.428,0,0
225289,409.424,-830.377,0,0
225549,405.757,-833.126,0,0
225809,401.823,-835.832,0,0
226070,397.365,-838.56,0,0
226330,392.518,-840.839,0,0
226590,387.627,-842.803,0,0
226851,382.504,-844.6,0,0
227111,377.109,-845.892,0,0
227371,371.876,-846.778,0,0
227632,366.721,-847.535,0,0
227892,361.326,-848.164,0,0
228152,355.884,-848.307,0,0
228413,350.522,-847.813,0,0
228673,345.547,-846.943,0,0
228933,341.222,-846.182,0,0
229193,337.113,-845.373,0,0
229454,333.212,-844.776,0,0
229714,329.28,-844.407,0,0
229974,325.383,-844.236,0,0
230235,321.536,-844.242,0,0
230495,317.237,-844.187,0,0
230755,312.659,-844.185,0,0
231016,307.848,-843.988,0,0
231276,302.851,-843.384,0,0
231536,297.8,-842.399,0,0
231797,292.96,-841.167,0,0
232057,288.099,-839.779,0,0
232317,283.393,-838.172,0,0
232578,278.778,-836.41,0,0
232838,274.229,-834.599,0,0
233098,269.662,-832.543,0,0
233359,265.29,-830.182,0,0
233619,261.185,-827.751,0,0
233879,257.152,-825.343,0,0
234140,253.171,-822.871,0,0
234400,249.23,-820.184,0,0
234660.3,245.431,-817.265,0,0
234920.625,241.743,-814.229,0,0
235180.95,238.222,-811.041,0,0
235441.275,235.034,-807.817,0,0
235701.6,232.012,-804.48,0,0
235961.925,229.194,-800.982,0,0
236222.25,226.683,-797.572,0,0
236482.575,224.411,-794.183,0,0
236742.9,222.305,-790.839,0,0
237003.225,220.454,-787.545,0,0
237263.55,218.714,-784.368,0,0
237523.875,217.144,-781.269,0,0
237784.2,215.693,-778.293,0,0
238044.525,214.407,-775.424,0,0
238304.85,213.093,-772.631,0,0
238565.175,211.884,-769.898,0,0
238825.5,210.786,-767.246,0,0
239085.825,209.889,-764.524,0,0
239346.15,209.209,-761.977,0,0
239606.475,208.695,-759.788,0,0
239866.8,208.323,-757.966,0,0
240127.125,207.774,-756.356,0,0
240387.45,206.993,-755.324,0,0
240647.775,205.886,-754.083,0,0
240908.1,204.604,-752.947,0,0
241168.425,203.14,-751.792,0,0
241428.75,201.509,-750.768,0,0
241689.075,199.672,-749.513,0,0
241949.4,197.794,-748.161,0,0
242209.725,195.717,-746.7,0,0
242470.05,193.483,-745.155,0,0
242730.375,191.098,-743.308,0,0
242990.7,188.912,-741.253,0,0
243251.025,186.661,-738.953,0,0
243511.35,184.574,-736.531,0,0
243771.675,182.627,-733.929,0,0
244032.0,180.784,-731.246,0,0
244292.325,179.06,-728.533,0,0
244552.65,177.478,-725.636,0,0
244812.975,176.133,-722.776,0,0
245073.3,174.849,-719.911,0,0
245333.625,173.606,-716.972,0,0
245593.95,172.589,-714.14,0,0
245854.275,171.71,-711.212,0,0
246114.6,170.818,-708.242,0,0
246374.925,170.29,-705.246,0,0
246635.25,169.982,-702.341,0,0
246895.575,169.937,-699.618,0,0
247155.9,169.963,-697.236,0,0
247416.225,169.899,-695.11,0,0
247676.55,169.692,-693.195,0,0
247936.875,169.253,-691.283,0,0
248197.2,168.747,-689.323,0,0
248457.525,168.096,-687.346,0,0
248717.85,167.322,-685.262,0,0
248978.175,166.493,-683.053,0,0
249238.5,165.69,-680.593,0,0
249498.825,165.029,-677.987,0,0
249759.15,164.406,-675.214,0,0
250019.475,164.125,-672.39,0,0
250279.8,163.981,-669.577,0,0
250540,163.942,-666.826,0,0
250800,164.094,-663.981,0,0
251061,164.394,-661.138,0,0
251321,164.916,-658.341,0,0
251581,165.599,-655.642,0,0
251842,166.49,-653.013,0,0
252102,167.471,-650.49,0,0
252362,168.707,-648.15,0,0
252623,170.1,-646.013,0,0
252883,171.62,-644.199,0,0
253143,173.173,-642.722,0,0
253404,174.583,-641.57,0,0
253664,175.771,-640.704,0,0
253924,176.674,-639.887,0,0
254185,177.317,-639.155,0,0
254445,177.825,-638.303,0,0
254705,178.201,-637.315,0,0
254966,178.37,-636.33,0,0
255226,178.753,-635.07,0,0
255486,179.006,-633.793,0,0
255747,179.333,-632.451,0,0
256007,179.713,-630.996,0,0
256267,180.231,-629.484,0,0
256528,180.934,-627.998,0,0
256788,181.767,-626.601,0,0
257048,182.569,-625.334,0,0
257309,183.372,-624.127,0,0
257569,184.146,-622.856,0,0
257829,185.025,-621.545,0,0
258090,186.022,-620.239,0,0
258350,187.165,-619.025,0,0
258610,188.404,-617.913,0,0
258871,189.672,-616.95,0,0
259131,190.981,-616.148,0,0
259391,192.267,-615.39,0,0
259651,193.575,-614.77,0,0
259912,194.878,-614.326,0,0
260172,196.235,-613.79,0,0
260432,197.529,-613.578,0,0
260693,198.696,-613.454,0,0
260953,199.739,-613.349,0,0
261213,200.749,-613.29,0,0
261474,201.724,-613.202,0,0
261734,202.692,-613.202,0,0
261994,203.573,-613.252,0,0
262255,204.416,-613.312,0,0
262515,205.254,-613.493,0,0
262775,205.957,-613.719,0,0
263036,206.496,-613.923,0,0
263296,206.89,-613.985,0,0
263556,207.384,-613.977,0,0
263817,207.91,-613.964,0,0
264077,208.354,-614.005,0,0
264337,208.764,-613.954,0,0
264598,209.025,-613.963,0,0
264858,209.29,-613.643,0,0
265118,209.629,-613.19,0,0
265379,210.151,-612.562,0,0
265639,210.934,-611.815,0,0
265899,211.948,-611.103,0,0
266160,213.188,-610.443,0,0
266420,214.607,-609.838,0,0
266680.25,216.322,-609.334,0,0
266940.575,218.24,-608.997,0,0
267200.9,220.391,-608.928,0,0
267461.225,222.712,-609.082,0,0
267721.55,225.142,-609.451,0,0
267981.875,227.811,-610.294,0,0
268242.2,230.516,-611.562,0,0
268502.525,233.15,-613.202,0,0
268762.85,235.777,-615.285,0,0
269023.175,238.18,-617.881,0,0
269283.5,240.272,-620.886,0,0
269543.825,242.044,-624.17,0,0
269804.15,243.548,-627.501,0,0
270064.475,244.703,-631.148,0,0
270324.8,245.506,-634.854,0,0
270585.125,246.087,-638.753,0,0
270845.45,246.407,-642.973,0,0
271105.775,246.205,-647.36,0,0
271366.1,245.532,-651.772,0,0
271626.425,244.381,-656.228,0,0
271886.75,242.82,-660.591,0,0
272147.075,240.834,-664.793,0,0
272407.4,238.484,-668.971,0,0
272667.725,235.703,-673.047,0,0
272928.05,232.448,-676.889,0,0
273188.375,228.778,-680.396,0,0
273448.7,224.77,-683.554,0,0
273709.025,220.466,-686.306,0,0
273969.35,215.975,-688.689,0,0
274229.675,211.353,-690.607,0,0
274490.0,206.561,-692.138,0,0
274750.325,201.703,-693.266,0,0
275010.65,196.718,-693.937,0,0
275270.975,191.908,-694.14,0,0
275531.3,187.169,-693.931,0,0
275791.625,182.592,-693.28,0,0
276051.95,178.28,-692.27,0,0
276312.275,174.313,-691.072,0,0
276572.6,170.609,-689.715,0,0
276832.925,167.202,-688.395,0,0
277093.25,163.79,-687.005,0,0
277353.575,160.568,-685.423,0,0
277613.9,157.492,-683.803,0,0
277874.225,154.55,-682.062,0,0
278134.55,151.756,-680.263,0,0
278394.875,149.072,-678.377,0,0
278655.2,146.532,-676.435,0,0
278915.525,144.104,-674.424,0,0
279175.85,141.786,-672.344,0,0
279436.175,139.603,-670.195,0,0
279696.5,137.524,-667.899,0,0
279956.825,135.717,-665.558,0,0
280217.15,134.063,-663.149,0,0
280477.475,132.634,-660.735,0,0
280737.8,131.435,-658.345,0,0
280998.125,130.498,-656.034,0,0
281258.45,129.746,-653.863,0,0
281518.775,129.115,-651.837,0,0
281779.1,128.555,-649.951,0,0
282039.425,128.049,-648.201,0,0
282299.75,127.619,-646.573,0,0
282560,127.23,-645.002,0,0
282820,126.833,-643.576,0,0
283081,126.469,-642.277,0,0
283341,126.024,-641.076,0,0
283601,125.499,-639.892,0,0
283862,124.898,-638.717,0,0
284122,124.29,-637.447,0,0
284382,123.735,-636.072,0,0
284643,123.282,-634.703,0,0
284903,122.938,-633.377,0,0
285163,122.638,-632.028,0,0
285424,122.408,-630.68,0,0
285684,122.316,-629.274,0,0
285944,122.448,-627.985,0,0
286205,122.754,-626.81,0,0
286465,123.242,-625.793,0,0
286725,123.884,-625.038,0,0
286986,124.626,-624.635,0,0
287246,125.314,-624.591,0,0
287506,125.879,-624.925,0,0
287767,126.154,-625.588,0,0
288027,126.087,-626.465,0,0
288287,125.603,-627.427,0,0
288548,124.769,-628.312,0,0
288808,123.643,-629.075,0,0
289068,122.289,-629.688,0,0
289329,120.753,-630.14,0,0
289589,119.099,-630.414,0,0
289849,117.374,-630.474,0,0
290109,115.59,-630.419,0,0
290370,113.728,-630.135,0,0
290630,111.9,-629.665,0,0
290890,110.193,-629.036,0,0
291151,108.595,-628.348,0,0
291411,107.072,-627.647,0,0
291671,105.61,-626.972,0,0
291932,104.093,-626.331,0,0
292192,102.496,-625.683,0,0
292452,100.804,-624.964,0,0
292713,99.0864,-624.099,0,0
292973,97.3756,-623.103,0,0
293233,95.6971,-621.985,0,0
293494,94.1014,-620.781,0,0
293754,92.5667,-619.506,0,0
294014,91.0924,-618.172,0,0
294275,89.6914,-616.805,0,0
294535,88.3536,-615.375,0,0
294795,87.0735,-613.914,0,0
295056,85.8487,-612.488,0,0
295316,84.7129,-611.008,0,0
295576,83.6056,-609.551,0,0
295837,82.4991,-608.076,0,0
296097,81.4298,-606.526,0,0
296357,80.4031,-604.987,0,0
296618,79.4332,-603.413,0,0
296878,78.5369,-601.806,0,0
297138,77.7133,-600.203,0,0
297399,76.9266,-598.618,0,0
297659,76.1948,-597.049,0,0
297919,75.4841,-595.476,0,0
298180,74.8152,-593.908,0,0
298440,74.1606,-592.329,0,0
298700.2,73.5638,-590.75,0,0
298960.525,73.0013,-589.169,0,0
299220.85,72.4841,-587.595,0,0
299481.175,71.9948,-586.031,0,0
299741.5,71.5546,-584.431,0,0
300001.825,71.1457,-582.864,0,0
300262.15,70.7891,-581.287,0,0
300522.475,70.4886,-579.726,0,0
300782.8,70.2171,-578.165,0,0
301043.125,70.0011,-576.612,0,0
301303.45,69.8063,-575.058,0,0
301563.775,69.7073,-573.517,0,0
301824.1,69.6838,-572.011,0,0
302084.425,69.7054,-570.556,0,0
302344.75,69.7966,-569.128,0,0
302605.075,69.9271,-567.815,0,0
302865.4,70.0838,-566.572,0,0
303125.725,70.2329,-565.377,0,0
303386.05,70.3802,-564.228,0,0
303646.375,70.5149,-563.14,0,0
303906.7,70.6467,-562.078,0,0
304167.025,70.7864,-561.067,0,0
304427.35,70.8849,-560.067,0,0
304687.675,70.9954,-559.098,0,0
304948.0,71.0971,-558.133,0,0
305208.325,71.1901,-557.17,0,0
305468.65,71.3286,-556.227,0,0
305728.975,71.4887,-555.287,0,0
305989.3,71.7292,-554.399,0,0
306249.625,71.9368,-553.571,0,0
306509.95,72.1621,-552.832,0,0
306770.275,72.3681,-552.162,0,0
307030.6,72.5375,-551.523,0,0
307290.925,72.6764,-550.918,0,0
307551.25,72.7817,-550.352,0,0
307811.575,72.8618,-549.793,0,0
308071.9,72.9403,-549.259,0,0
308332.225,73.013,-548.76,0,0
308592.55,73.064,-548.306,0,0
308852.875,73.0819,-547.927,0,0
309113.2,73.0363,-547.606,0,0
309373.525,72.89,-547.3,0,0
309633.85,72.648,-546.98,0,0
309894.175,72.3404,-546.613,0,0
310154.5,71.949,-546.185,0,0
310414.825,71.5876,-545.71,0,0
310675.15,71.2266,-545.19,0,0
310935.475,70.8652,-544.621,0,0
311195.8,70.5444,-544.064,0,0
311456.125,70.1996,-543.475,0,0
311716.45,69.8922,-542.898,0,0
311976.775,69.5622,-542.314,0,0
312237.1,69.2481,-541.757,0,0
312497.425,68.9117,-541.196,0,0
312757.75,68.5696,-540.659,0,0
313018.075,68.2017,-540.101,0,0
313278.4,67.8077,-539.554,0,0
313538.725,67.4103,-539.006,0,0
313799.05,66.9771,-538.435,0,0
314059.375,66.4855,-537.866,0,0
314319.7,65.9802,-537.245,0,0
314580,65.4139,-536.576,0,0
314840,64.9463,-535.827,0,0
315101,64.4095,-535.05,0,0
315361,63.96,-534.262,0,0
315621,63.5447,-533.402,0,0
315882,63.0905,-532.557,0,0
316142,62.7516,-531.691,0,0
316402,62.4517,-530.758,0,0
316663,62.1042,-529.951,0,0
316923,61.8627,-529.043,0,0
317183,61.5667,-528.181,0,0
317444,61.3871,-527.312,0,0
317704,61.1376,-526.495,0,0
317964,61.0592,-525.652,0,0
318225,60.8995,-524.864,0,0
318485,60.7652,-524.055,0,0
318745,60.6336,-523.264,0,0
319006,60.5143,-522.514,0,0
319266,60.4783,-521.796,0,0
319526,60.369,-521.078,0,0
319787,60.2809,-520.393,0,0
320047,60.2588,-519.764,0,0
320307,60.2404,-519.181,0,0
320567,60.1313,-518.611,0,0
320828,59.9795,-518.109,0,0
321088,59.8631,-517.561,0,0
321348,59.6841,-517.101,0,0
321609,59.4721,-516.552,0,0
321869,59.2729,-516.121,0,0
322129,59.0509,-515.68,0,0
322390,58.7656,-515.15,0,0
322650,58.4894,-514.654,0,0
322910,58.195,-514.116,0,0
323171,57.8207,-513.612,0,0
323431,57.6155,-513.068,0,0
323691,57.2542,-512.577,0,0
323952,56.9641,-512.102,0,0
324212,56.616,-511.677,0,0
324472,56.1283,-511.157,0,0
324733,55.677,-510.619,0,0
324993,55.1748,-510.083,0,0
325253,54.7179,-509.514,0,0
325514,54.2297,-508.868,0,0
325774,53.6889,-508.229,0,0
326034,53.2426,-507.504,0,0
326295,52.8079,-506.774,0,0
326555,52.3233,-506.026,0,0
326815,51.8842,-505.291,0,0
327076,51.4665,-504.479,0,0
327336,51.07,-503.742,0,0
327596,50.7424,-502.932,0,0
327857,50.2822,-502.164,0,0
328117,49.9337,-501.382,0,0
328377,49.5741,-500.588,0,0
328638,49.2141,-499.788,0,0
328898,48.8359,-498.937,0,0
329158,48.5186,-498.133,0,0
329419,48.1575,-497.354,0,0
329679,47.8781,-496.473,0,0
329939,47.6407,-495.651,0,0
330200,47.3196,-494.821,0,0
330460,47.0494,-493.951,0,0
330720.15,46.7808,-493.175,0,0
330980.475,46.5333,-492.321,0,0
331240.8,46.2327,-491.426,0,0
331501.125,46.0387,-490.602,0,0
331761.45,45.7364,-489.789,0,0
332021.775,45.5072,-488.893,0,0
332282.1,45.3218,-488.037,0,0
332542.425,45.1171,-487.162,0,0
332802.75,44.9161,-486.273,0,0
333063.075,44.7094,-485.407,0,0
333323.4,44.5348,-484.502,0,0
333583.725,44.3807,-483.63,0,0
333844.05,44.3208,-482.729,0,0
334104.375,44.1963,-481.881,0,0
334364.7,44.1452,-480.932,0,0
334625.025,44.0863,-480.125,0,0
334885.35,44.0326,-479.279,0,0
335145.675,44.0574,-478.444,0,0
335406.0,43.9647,-477.594,0,0
335666.325,43.9946,-476.81,0,0
335926.65,44.0712,-476.091,0,0
336186.975,44.0563,-475.343,0,0
336447.3,44.1027,-474.642,0,0
336707.625,44.0536,-473.957,0,0
336967.95,44.0797,-473.228,0,0
337228.275,44.1141,-472.558,0,0
337488.6,44.0655,-471.933,0,0
337748.925,44.0752,-471.263,0,0
338009.25,44.038,-470.603,0,0
338269.575,43.9988,-470.009,0,0
338529.9,43.9822,-469.401,0,0
338790.225,43.9013,-468.781,0,0
339050.55,43.9073,-468.172,0,0
339310.875,43.8074,-467.593,0,0
339571.2,43.671,-466.99,0,0
339831.525,43.63,-466.375,0,0
340091.85,43.4997,-465.826,0,0
340352.175,43.3783,-465.185,0,0
340612.5,43.2507,-464.649,0,0
340872.825,43.103,-464.041,0,0
341133.15,42.9261,-463.463,0,0
341393.475,42.7759,-462.791,0,0
341653.8,42.6301,-462.156,0,0
341914.125,42.4215,-461.492,0,0
342174.45,42.2441,-460.83,0,0
342434.775,42.116,-460.115,0,0
342695.1,41.941,-459.412,0,0
342955.425,41.7379,-458.709,0,0
343215.75,41.6468,-458.017,0,0
343476.075,41.4674,-457.301,0,0
343736.4,41.3265,-456.519,0,0
343996.725,41.2181,-455.814,0,0
344257.05,41.1366,-455.083,0,0
344517.375,40.9778,-454.31,0,0
344777.7,40.9048,-453.582,0,0
345038.025,40.8018,-452.856,0,0
345298.35,40.7492,-452.12,0,0
345558.675,40.6654,-451.374,0,0
345819.0,40.5854,-450.669,0,0
346079.325,40.5806,-449.891,0,0
346339.65,40.5235,-449.146,0,0
346599.975,40.4908,-448.389,0,0
346860,40.4478,-447.631,0,0
347121,40.4458,-446.935,0,0
347381,40.4532,-446.165,0,0
347641,40.4777,-445.423,0,0
347902,40.4813,-444.706,0,0
348162,40.5068,-443.973,0,0
348422,40.5007,-443.246,0,0
348683,40.574,-442.558,0,0
348943,40.6129,-441.858,0,0
349203,40.6709,-441.128,0,0
349464,40.7678,-440.441,0,0
349724,40.8066,-439.745,0,0
349984,40.8781,-439.091,0,0
350245,41.0177,-438.454,0,0
350505,41.0601,-437.761,0,0
350765,41.2007,-437.104,0,0
351025,41.2585,-436.538,0,0
351286,41.3741,-435.872,0,0
351546,41.4983,-435.262,0,0
351806,41.5865,-434.686,0,0
352067,41.6292,-434.09,0,0
352327,41.7576,-433.527,0,0
352587,41.8031,-432.968,0,0
352848,41.8859,-432.337,0,0
353108,41.9477,-431.798,0,0
353368,42.0638,-431.221,0,0
353629,42.0977,-430.656,0,0
353889,42.1789,-430.084,0,0
354149,42.2644,-429.489,0,0
354410,42.3591,-428.92,0,0
354670,42.4305,-428.361,0,0
354930,42.5249,-427.827,0,0
355191,42.6167,-427.34,0,0
355451,42.7015,-426.809,0,0
355711,42.7761,-426.332,0,0
355972,42.8613,-425.844,0,0
356232,42.9423,-425.367,0,0
356492,42.9866,-424.892,0,0
356753,43.0226,-424.44,0,0
357013,43.0271,-423.993,0,0
357273,43.011,-423.538,0,0
357534,43.0359,-423.089,0,0
357794,42.9727,-422.591,0,0
358054,42.9472,-422.102,0,0
358315,42.8954,-421.607,0,0
358575,42.8707,-421.074,0,0
358835,42.8363,-420.583,0,0
359096,42.7725,-420.057,0,0
359356,42.7207,-419.491,0,0
359616,42.6901,-418.937,0,0
359877,42.5988,-418.362,0,0
360137,42.5986,-417.805,0,0
360397,42.5976,-417.227,0,0
360658,42.5763,-416.609,0,0
360918,42.5569,-416.09,0,0
361178,42.5705,-415.488,0,0
361438,42.5675,-414.893,0,0
361699,42.5676,-414.298,0,0
361959,42.6062,-413.714,0,0
362219,42.6052,-413.122,0,0
362480,42.6663,-412.553,0,0
362740.1,42.6825,-411.94,0,0
363000.425,42.701,-411.369,0,0
363260.75,42.7036,-410.742,0,0
363521.075,42.7684,-410.127,0,0
363781.4,42.8719,-409.497,0,0
364041.725,42.9248,-408.882,0,0
364302.05,43.0325,-408.281,0,0
364562.375,43.1225,-407.714,0,0
364822.7,43.2497,-407.124,0,0
365083.025,43.3338,-406.521,0,0
365343.35,43.5052,-405.931,0,0
365603.675,43.6641,-405.36,0,0
365864.0,43.8332,-404.796,0,0
366124.325,43.9708,-404.245,0,0
366384.65,44.1728,-403.77,0,0
366644.975,44.3372,-403.283,0,0
366905.3,44.4686,-402.785,0,0
367165.625,44.635,-402.326,0,0
367425.95,44.74,-401.819,0,0
367686.275,44.8294,-401.414,0,0
367946.6,44.9718,-400.885,0,0
368206.925,45.0428,-400.397,0,0
368467.25,45.1482,-399.913,0,0
368727.575,45.2709,-399.389,0,0
368987.9,45.3698,-398.852,0,0
369248.225,45.5011,-398.303,0,0
369508.55,45.6988,-397.746,0,0
369768.875,45.8559,-397.185,0,0
370029.2,46.0932,-396.664,0,0
370289.525,46.3572,-396.136,0,0
370549.85,46.6421,-395.697,0,0
370810.175,46.9596,-395.279,0,0
371070.5,47.2563,-394.877,0,0
371330.825,47.5354,-394.532,0,0
371591.15,47.7873,-394.256,0,0
371851.475,48.0426,-393.983,0,0
372111.8,48.2139,-393.72,0,0
372372.125,48.3496,-393.449,0,0
372632.45,48.5103,-393.229,0,0
372892.775,48.6517,-392.965,0,0
373153.1,48.7852,-392.704,0,0
373413.425,48.8573,-392.435,0,0
373673.75,48.9285,-392.206,0,0
373934.075,48.9723,-391.943,0,0
374194.4,49.0092,-391.696,0,0
374454.725,49.038,-391.423,0,0
374715.05,49.0508,-391.115,0,0
374975.375,49.0384,-390.838,0,0
375235.7,49.0601,-390.485,0,0
375496.025,49.0641,-390.15,0,0
375756.35,49.0755,-389.827,0,0
376016.675,49.1372,-389.506,0,0
376277.0,49.1794,-389.119,0,0
376537.325,49.2163,-388.775,0,0
376797.65,49.2697,-388.45,0,0
377057.975,49.3317,-388.13,0,0
377318.3,49.4053,-387.824,0,0
377578.625,49.4894,-387.554,0,0
377838.95,49.5174,-387.281,0,0
378099.275,49.5389,-387.041,0,0
378359.6,49.5158,-386.853,0,0
378619.925,49.4518,-386.59,0,0
378880,49.3749,-386.319,0,0
379141,49.2289,-386.039,0,0
379401,49.1504,-385.672,0,0
379661,49.0239,-385.232,0,0
379922,48.9673,-384.813,0,0
380182,48.9017,-384.329,0,0
380442,48.9615,-383.876,0,0
380703,49.0896,-383.37,0,0
380963,49.286,-382.988,0,0
381223,49.49,-382.682,0,0
381483,49.7354,-382.44,0,0
381744,49.9016,-382.314,0,0
382004,50.0129,-382.26,0,0
382264,49.9885,-382.272,0,0
382525,49.945,-382.237,0,0
382785,49.774,-382.166,0,0
383045,49.5516,-382.156,0,0
383306,49.2379,-381.985,0,0
383566,48.9614,-381.769,0,0
383826,48.6474,-381.565,0,0
384087,48.3134,-381.29,0,0
384347,47.961,-380.931,0,0
384607,47.6795,-380.556,0,0
384868,47.35,-380.179,0,0
385128,47.0147,-379.747,0,0
385388,46.725,-379.318,0,0
385649,46.4431,-378.813,0,0
385909,46.1599,-378.275,0,0
386169,45.9253,-377.744,0,0
386430,45.6961,-377.181,0,0
386690,45.5091,-376.638,0,0
386950,45.336,-376.046,0,0
387211,45.159,-375.462,0,0
387471,45.0171,-374.88,0,0
387731,44.8736,-374.265,0,0
387992,44.8076,-373.692,0,0
388252,44.6745,-373.088,0,0
388512,44.6465,-372.504,0,0
388773,44.5718,-371.89,0,0
389033,44.5475,-371.295,0,0
389293,44.5147,-370.715,0,0
389554,44.4975,-370.149,0,0
389814,44.5065,-369.584,0,0
390074,44.566,-369.007,0,0
390335,44.5845,-368.503,0,0
390595,44.6139,-368.01,0,0
390855,44.6186,-367.505,0,0
391116,44.644,-367.033,0,0
391376,44.6463,-366.537,0,0
391636,44.6309,-366.025,0,0
391896,44.6326,-365.543,0,0
392157,44.631,-365.048,0,0
392417,44.6375,-364.552,0,0
392677,44.5759,-364.031,0,0
392938,44.5769,-363.533,0,0
393198,44.5705,-363.025,0,0
393458,44.5615,-362.497,0,0
393719,44.5737,-361.975,0,0
393979,44.5773,-361.452,0,0
394239,44.5872,-360.92,0,0
394500,44.6235,-360.436,0,0
394760.05,44.6427,-359.862,0,0
395020.375,44.6592,-359.35,0,0
395280.7,44.6775,-358.797,0,0
395541.025,44.734,-358.314,0,0
395801.35,44.7944,-357.784,0,0
396061.675,44.8429,-357.248,0,0
396322.0,44.9141,-356.748,0,0
396582.325,44.9922,-356.243,0,0
396842.65,45.0892,-355.734,0,0
397102.975,45.1547,-355.27,0,0
397363.3,45.2461,-354.807,0,0
397623.625,45.3015,-354.332,0,0
397883.95,45.3801,-353.839,0,0
398144.275,45.4148,-353.401,0,0
398404.6,45.4764,-352.965,0,0
398664.925,45.5332,-352.513,0,0
398925.25,45.5725,-352.062,0,0
399185.575,45.6077,-351.611,0,0
399445.9,45.6163,-351.143,0,0
399706.225,45.6685,-350.711,0,0
399966.55,45.6512,-350.217,0,0
400006.6,45.6522,-350.164,0,0