File: Accelerated corrosion test data/2025-10-21_18-00-04/sample_7.csv
Frequency (Hz),Impedance (ohms),Phase (Radians),Temperature (C),Humidity (%)
10000.0,272.696,-12103.8,0,0
10260.325,271.582,-11813.1,0,0
10520.65,257.434,-11512.1,0,0
10780.975,251.752,-11230.8,0,0
11041.3,249.102,-10963,0,0
11301.625,245.707,-10706.6,0,0
11561.95,248.143,-10457.3,0,0
11822.275,258.647,-10226.4,0,0
12082.6,266.9,-10011.2,0,0
12342.925,324.829,-9830.04,0,0
12603.25,259.792,-9663.59,0,0
12863.575,269.721,-9453.92,0,0
13123.9,237.96,-9287.33,0,0
13384.225,230.349,-9108,0,0
13644.55,221.361,-8922.74,0,0
13904.875,207.644,-8763.77,0,0
14165.2,202.961,-8592.96,0,0
14425.525,206.913,-8452.67,0,0
14685.8,201.429,-8297.59,0,0
14946.175,197.509,-8151.19,0,0
15206.5,196.581,-8020.92,0,0
15466.825,183.098,-7879.62,0,0
15727.15,184.653,-7750.51,0,0
15987.5,179.944,-7621.99,0,0
16247.8,177.724,-7501.93,0,0
16508.125,170.836,-7380.54,0,0
16768.45,169.751,-7262.05,0,0
17028.775,169.439,-7150.82,0,0
17289.1,167.122,-7044.16,0,0
17549.425,166.149,-6934.57,0,0
17809.75,166.911,-6825.09,0,0
18070.075,167.941,-6728.82,0,0
18330.4,172.966,-6622.05,0,0
18590.725,194.183,-6529.54,0,0
18851.05,192.761,-6469.33,0,0
19111.375,186.254,-6387.72,0,0
19371.7,209.343,-6298.15,0,0
19632.025,174.682,-6245.84,0,0
19892.35,157.276,-6146.64,0,0
20152.675,167.223,-6061.42,0,0
20413.0,167.346,-5981.12,0,0
20673.3,171.852,-5905.52,0,0
20933.65,182.792,-5848.49,0,0
21193.975,163.253,-5792.49,0,0
21454.3,152.554,-5716.71,0,0
21714.625,155.784,-5645.75,0,0
21974.9,145.338,-5585.12,0,0
22235.275,138.873,-5515.57,0,0
22495.6,137.189,-5449.17,0,0
22755.925,132.835,-5387.58,0,0
23016.25,129.588,-5323.87,0,0
23276.6,127.291,-5260.8,0,0
23536.9,127.039,-5200.05,0,0
23797.225,127.23,-5143.91,0,0
24057.55,123.761,-5087.51,0,0
24317.875,121.623,-5030.7,0,0
24578.2,122.178,-4974.34,0,0
24838.525,120.906,-4921.71,0,0
25098.85,120.549,-4870.26,0,0
25359.175,118.286,-4817.44,0,0
25619.5,117.573,-4766.45,0,0
25879.8,118.113,-4715.13,0,0
26140.1,117.339,-4664.09,0,0
26400.5,120.889,-4614.84,0,0
26660.8,120.498,-4569.87,0,0
26921.1,120.489,-4521.66,0,0
27181.4,124.546,-4470.92,0,0
27441.8,130.478,-4425.01,0,0
27702.1,137.955,-4377.04,0,0
27962.4,150.714,-4331.2,0,0
28222.7,176.936,-4295.39,0,0
28483.1,192.381,-4282.64,0,0
28743.4,197.104,-4269.96,0,0
29003.7,176.413,-4257.53,0,0
29264,153.654,-4225.6,0,0
29524.4,140.371,-4184.64,0,0
29784.7,132.614,-4143.8,0,0
30045,127.037,-4100.69,0,0
30305.3,127.641,-4063.03,0,0
30565.7,129.578,-4025.49,0,0
30826,130.94,-3994.17,0,0
31086.3,131.065,-3963.42,0,0
31346.6,128.262,-3933.81,0,0
31607,129.959,-3905.57,0,0
31867.3,121.342,-3877.95,0,0
32127.6,117.27,-3845.68,0,0
32387.9,113.969,-3814.69,0,0
32648.3,111.379,-3784.94,0,0
32908.6,107.436,-3755.07,0,0
33168.9,103.901,-3725.3,0,0
33429.2,100.971,-3695.27,0,0
33689.6,98.3694,-3665.35,0,0
33949.9,96.3531,-3635.61,0,0
34210.2,94.4108,-3606.91,0,0
34470.5,92.6687,-3578.03,0,0
34730.9,91.3336,-3549.46,0,0
34991.2,90.4383,-3521.95,0,0
35251.5,89.5669,-3494.93,0,0
35511.8,88.5596,-3467.9,0,0
35772.2,87.8184,-3441.28,0,0
36032.5,87.5396,-3415.79,0,0
36292.8,87.4183,-3390.5,0,0
36553.1,86.2505,-3365.78,0,0
36813.5,85.7571,-3340.81,0,0
37073.8,85.3059,-3315.74,0,0
37334.1,85.5131,-3291.7,0,0
37594.4,85.1711,-3268.09,0,0
37854.8,84.6654,-3244.66,0,0
38115.1,84.3947,-3220.85,0,0
38375.4,85.2844,-3197.24,0,0
38635.7,85.8708,-3174.04,0,0
38896.1,87.4554,-3151.49,0,0
39156.4,90.05,-3129.55,0,0
39416.7,93.0416,-3108.7,0,0
39677,97.1564,-3089.7,0,0
39937.4,99.7863,-3074.1,0,0
40197.7,99.7835,-3059.13,0,0
40458,96.8519,-3044.28,0,0
40718.3,92.7395,-3026.47,0,0
40978.7,89.5178,-3008.42,0,0
41239,86.6533,-2988.27,0,0
41499.3,84.6191,-2969.08,0,0
41759.6,83.2771,-2949.71,0,0
42020,81.7846,-2930.97,0,0
42280.275,80.0197,-2911.89,0,0
42540.6,79.148,-2891.97,0,0
42800.925,79.9347,-2872.98,0,0
43061.25,79.4153,-2855.66,0,0
43321.575,80.1901,-2838.39,0,0
43581.9,78.6965,-2821.3,0,0
43842.225,78.3315,-2802.91,0,0
44102.55,79.2244,-2785.54,0,0
44362.875,80.8686,-2768.5,0,0
44623.2,81.754,-2754.2,0,0
44883.525,81.5891,-2740.44,0,0
45143.85,80.1427,-2725.38,0,0
45404.175,78.0438,-2709.66,0,0
45664.5,78.7424,-2692.25,0,0
45924.825,79.7662,-2678.97,0,0
46185.15,78.6747,-2665.9,0,0
46445.475,76.8812,-2651.82,0,0
46705.8,74.6929,-2637.8,0,0
46966.125,71.9644,-2622.26,0,0
47226.45,70.7974,-2606.43,0,0
47486.775,70.2671,-2590.94,0,0
47747.1,69.9756,-2576.1,0,0
48007.425,69.6147,-2561.93,0,0
48267.75,68.9853,-2547.53,0,0
48528.075,68.5037,-2533.65,0,0
48788.4,67.7596,-2519.52,0,0
49048.725,67.0365,-2505.82,0,0
49309.05,66.8145,-2491.71,0,0
49569.375,66.6117,-2478.32,0,0
49829.7,66.0028,-2465.04,0,0
50090.025,65.7546,-2451.58,0,0
50350.35,65.3537,-2438.53,0,0
50610.675,64.9768,-2425.38,0,0
50871.0,64.7829,-2412.52,0,0
51131.325,64.4346,-2399.79,0,0
51391.65,64.2648,-2387.17,0,0
51651.975,63.9587,-2374.8,0,0
51912.3,63.6005,-2362.62,0,0
52172.625,63.405,-2350.11,0,0
52432.95,63.4473,-2338.08,0,0
52693.275,63.2245,-2326.16,0,0
52953.6,63.1035,-2314.27,0,0
53213.925,63.0919,-2302.69,0,0
53474.25,62.9042,-2291.53,0,0
53734.575,62.5852,-2280.24,0,0
53994.9,62.2014,-2269.12,0,0
54255.225,61.7072,-2257.65,0,0
54515.55,61.5105,-2246.66,0,0
54775.875,61.0637,-2235.65,0,0
55036.2,60.7229,-2224.62,0,0
55296.525,60.4902,-2213.61,0,0
55556.85,60.3357,-2202.79,0,0
55817.175,60.0293,-2192.05,0,0
56077.5,59.7802,-2181.47,0,0
56337.825,59.7139,-2170.9,0,0
56598.15,59.6916,-2160.55,0,0
56858.475,59.5079,-2150.23,0,0
57118.8,59.3463,-2140.12,0,0
57379.125,59.0766,-2130.15,0,0
57639.45,58.8362,-2120.11,0,0
57899.775,58.7499,-2110.04,0,0
58160.1,58.6598,-2100.07,0,0
58420.4,58.6908,-2090.13,0,0
58680.7,59.055,-2080.61,0,0
58941.1,58.9237,-2071.32,0,0
59201.4,58.7581,-2061.98,0,0
59461.7,58.7228,-2052.53,0,0
59722,59.0236,-2043.31,0,0
59982.4,58.8934,-2034.65,0,0
60242.7,58.7961,-2025.68,0,0
60503,58.7066,-2017.04,0,0
60763.3,58.2767,-2008.49,0,0
61023.7,57.8342,-1999.73,0,0
61284,57.4001,-1990.99,0,0
61544.3,57.1113,-1982.41,0,0
61804.6,56.6328,-1973.7,0,0
62065,56.1581,-1964.91,0,0
62325.3,55.8618,-1956.25,0,0
62585.6,55.5523,-1947.64,0,0
62845.9,55.349,-1939.19,0,0
63106.3,55.1307,-1930.71,0,0
63366.6,55.0345,-1922.27,0,0
63626.9,54.963,-1914.06,0,0
63887.2,54.9023,-1906.03,0,0
64147.6,54.4552,-1897.94,0,0
64407.9,54.3774,-1889.61,0,0
64668.2,54.273,-1881.48,0,0
64928.5,54.1121,-1873.49,0,0
65188.9,54.2922,-1865.41,0,0
65449.2,54.4669,-1857.9,0,0
65709.5,54.5957,-1850.46,0,0
65969.8,54.3225,-1843.13,0,0
66230.2,54.154,-1835.66,0,0
66490.5,53.8771,-1828.54,0,0
66750.8,53.4705,-1821.11,0,0
67011.1,53.0251,-1813.67,0,0
67271.5,52.5705,-1806.41,0,0
67531.8,52.2734,-1798.76,0,0
67792.1,52.1665,-1791.49,0,0
68052.4,51.8455,-1784.04,0,0
68312.8,51.5393,-1776.81,0,0
68573.1,51.3253,-1769.51,0,0
68833.4,51.3506,-1762.23,0,0
69093.7,51.2589,-1755.21,0,0
69354.1,51.1845,-1748.11,0,0
69614.4,50.9824,-1741.18,0,0
69874.7,50.7885,-1734.24,0,0
70135,50.8706,-1727.27,0,0
70395.4,50.6953,-1720.49,0,0
70655.7,50.6403,-1713.71,0,0
70916,50.6248,-1707.1,0,0
71176.3,50.6255,-1700.56,0,0
71436.7,50.4076,-1694.11,0,0
71697,50.1912,-1687.54,0,0
71957.3,49.9357,-1681.13,0,0
72217.6,49.8094,-1674.7,0,0
72478,49.5809,-1668.24,0,0
72738.3,49.3758,-1661.79,0,0
72998.6,49.1581,-1655.5,0,0
73258.9,49.0085,-1649.06,0,0
73519.3,48.8802,-1642.76,0,0
73779.6,48.7275,-1636.42,0,0
74039.9,48.6883,-1630.14,0,0
74300.225,48.5065,-1624.02,0,0
74560.55,48.4275,-1617.92,0,0
74820.875,48.3232,-1611.78,0,0
75081.2,48.1247,-1605.71,0,0
75341.525,48.1461,-1599.66,0,0
75601.85,48.02,-1593.63,0,0
75862.175,47.9113,-1587.63,0,0
76122.5,47.7546,-1581.77,0,0
76382.825,47.6363,-1575.86,0,0
76643.15,47.5761,-1569.98,0,0
76903.475,47.561,-1564.08,0,0
77163.8,47.4755,-1558.4,0,0
77424.125,47.4087,-1552.57,0,0
77684.45,47.4461,-1546.97,0,0
77944.775,47.3391,-1541.31,0,0
78205.1,47.2699,-1535.76,0,0
78465.425,47.2044,-1530.06,0,0
78725.75,47.1511,-1524.44,0,0
78986.075,47.1038,-1519.01,0,0
79246.4,47.1451,-1513.51,0,0
79506.725,46.9796,-1508.04,0,0
79767.05,47.0192,-1502.71,0,0
80027.375,46.9861,-1497.3,0,0
80287.7,46.8854,-1492,0,0
80548.025,46.8999,-1486.81,0,0
80808.35,46.7667,-1481.49,0,0
81068.675,46.6497,-1476.22,0,0
81329.0,46.6354,-1471.06,0,0
81589.325,46.4945,-1465.75,0,0
81849.65,46.4435,-1460.56,0,0
82109.975,46.2818,-1455.37,0,0
82370.3,46.3127,-1450.14,0,0
82630.625,46.2862,-1444.99,0,0
82890.95,46.307,-1439.95,0,0
83151.275,46.3346,-1434.94,0,0
83411.6,46.2592,-1429.93,0,0
83671.925,46.2348,-1424.85,0,0
83932.25,46.277,-1419.9,0,0
84192.575,46.2587,-1414.94,0,0
84452.9,46.3977,-1410.03,0,0
84713.225,46.555,-1405.21,0,0
84973.55,46.5394,-1400.51,0,0
85233.875,46.4947,-1395.75,0,0
85494.2,46.4677,-1391.03,0,0
85754.525,46.3755,-1386.3,0,0
86014.85,46.349,-1381.48,0,0
86275.175,46.4624,-1376.76,0,0
86535.5,46.4911,-1372.13,0,0
86795.825,46.4004,-1367.69,0,0
87056.15,46.3824,-1362.94,0,0
87316.475,46.5066,-1358.29,0,0
87576.8,46.579,-1353.83,0,0
87837.125,46.5092,-1349.32,0,0
88097.45,46.5262,-1344.9,0,0
88357.775,46.4175,-1340.45,0,0
88618.1,46.2952,-1336.08,0,0
88878.425,46.2092,-1331.61,0,0
89138.75,46.0951,-1327.05,0,0
89399.075,46.031,-1322.59,0,0
89659.4,45.9562,-1318.04,0,0
89919.725,45.9527,-1313.57,0,0
90180,45.9079,-1309.11,0,0
90440.4,45.9555,-1304.78,0,0
90700.7,45.8348,-1300.24,0,0
90961,45.9989,-1295.95,0,0
91221.3,45.9939,-1291.55,0,0
91481.7,46.16,-1287.22,0,0
91742,46.2118,-1282.87,0,0
92002.3,46.1871,-1278.55,0,0
92262.6,46.3418,-1274.14,0,0
92523,46.3722,-1269.81,0,0
92783.3,46.4432,-1265.46,0,0
93043.6,46.6988,-1261.09,0,0
93303.9,46.91,-1256.55,0,0
93564.3,47.5065,-1252.12,0,0
93824.6,48.1997,-1247.79,0,0
94084.9,49.2576,-1243.87,0,0
94345.2,50.243,-1240.45,0,0
94605.6,50.7488,-1237.58,0,0
94865.9,50.4576,-1234.54,0,0
95126.2,50.2598,-1231.08,0,0
95386.5,49.9423,-1227.48,0,0
95646.9,49.6014,-1224.08,0,0
95907.2,48.9389,-1220.26,0,0
96167.5,48.655,-1216.16,0,0
96427.8,48.4431,-1212.07,0,0
96688.2,48.267,-1208.04,0,0
96948.5,48.3138,-1203.94,0,0
97208.8,48.4473,-1199.93,0,0
97469.1,48.5809,-1196.12,0,0
97729.5,48.543,-1192.28,0,0
97989.8,48.7215,-1188.28,0,0
98250.1,48.9564,-1184.58,0,0
98510.4,49.0797,-1180.78,0,0
98770.8,49.2575,-1177.3,0,0
99031.1,49.1833,-1173.67,0,0
99291.4,49.0091,-1170.08,0,0
99551.7,48.8124,-1166.24,0,0
99812.1,48.5626,-1162.27,0,0
100072,48.5894,-1158.02,0,0
100333,49.0676,-1153.87,0,0
100593,49.5931,-1150.17,0,0
100853,49.8385,-1146.54,0,0
101114,50.2202,-1142.76,0,0
101374,50.498,-1139.27,0,0
101634,50.706,-1135.55,0,0
101895,50.9687,-1131.74,0,0
102155,51.5327,-1128.07,0,0
102415,52.0675,-1124.53,0,0
102676,52.7343,-1121.06,0,0
102936,53.2758,-1117.93,0,0
103196,53.5434,-1114.6,0,0
103457,53.9098,-1111.3,0,0
103717,54.5824,-1107.91,0,0
103977,55.2899,-1105.15,0,0
104238,55.3175,-1102.44,0,0
104498,55.2205,-1099.28,0,0
104758,55.4541,-1096.07,0,0
105019,55.734,-1093.1,0,0
105279,55.5783,-1090.31,0,0
105539,55.3309,-1087.16,0,0
105800,55.2329,-1083.78,0,0
106060,55.2614,-1080.48,0,0
106320.175,55.1435,-1077.22,0,0
106580.5,55.204,-1073.81,0,0
106840.825,55.2988,-1070.35,0,0
107101.15,55.5735,-1067.03,0,0
107361.475,55.691,-1063.86,0,0
107621.8,55.7774,-1060.54,0,0
107882.125,55.9375,-1057.25,0,0
108142.45,56.0539,-1053.92,0,0
108402.775,56.3062,-1050.53,0,0
108663.1,56.5961,-1047.26,0,0
108923.425,56.98,-1044.06,0,0
109183.75,56.9948,-1041,0,0
109444.075,57.0779,-1037.66,0,0
109704.4,57.1817,-1034.19,0,0
109964.725,57.399,-1030.77,0,0
110225.05,57.532,-1027.39,0,0
110485.375,57.83,-1023.53,0,0
110745.7,58.542,-1019.83,0,0
111006.025,59.4407,-1016.37,0,0
111266.35,60.1687,-1013.26,0,0
111526.675,60.7382,-1010.14,0,0
111787.0,61.3005,-1006.76,0,0
112047.325,61.9859,-1003.21,0,0
112307.65,63.1251,-999.849,0,0
112567.975,64.1816,-996.715,0,0
112828.3,65.2941,-993.619,0,0
113088.625,66.4177,-990.578,0,0
113348.95,67.7881,-987.734,0,0
113609.275,68.8529,-985.217,0,0
113869.6,69.7574,-982.411,0,0
114129.925,70.8299,-979.452,0,0
114390.25,72.0703,-976.575,0,0
114650.575,73.6806,-973.891,0,0
114910.9,75.0528,-971.595,0,0
115171.225,76.366,-969.18,0,0
115431.55,77.8067,-966.727,0,0
115691.875,79.456,-964.341,0,0
115952.2,81.3228,-962.33,0,0
116212.525,83.1524,-960.642,0,0
116472.85,84.9735,-959.218,0,0
116733.175,86.721,-958.336,0,0
116993.5,87.8085,-957.797,0,0
117253.825,88.4184,-956.862,0,0
117514.15,89.3575,-955.692,0,0
117774.475,90.3764,-954.885,0,0
118034.8,91.0155,-954.267,0,0
118295.125,91.4758,-953.455,0,0
118555.45,92.3314,-952.518,0,0
118815.775,93.3526,-952.391,0,0
119076.1,93.7642,-952.767,0,0
119336.425,93.5743,-953.415,0,0
119596.75,92.5535,-953.905,0,0
119857.075,91.2265,-953.789,0,0
120117.4,89.9694,-953.567,0,0
120377.725,88.3903,-953.519,0,0
120638.05,85.9886,-953.409,0,0
120898.375,83.1608,-952.159,0,0
121158.7,80.7952,-950.514,0,0
121419.025,78.1112,-948.607,0,0
121679.35,75.8446,-945.756,0,0
121939.675,74.3493,-943.025,0,0
122200.0,72.9443,-940.521,0,0
122460,71.4598,-938.161,0,0
122721,69.795,-935.529,0,0
122981,68.4874,-932.649,0,0
123241,67.3742,-929.968,0,0
123502,66.1186,-927.34,0,0
123762,64.7526,-924.466,0,0
124022,63.7883,-921.303,0,0
124283,63.1549,-918.54,0,0
124543,62.1755,-915.882,0,0
124803,61.2479,-913.008,0,0
125064,60.5816,-910.236,0,0
125324,59.7664,-907.672,0,0
125584,58.7096,-904.986,0,0
125845,57.7319,-902.032,0,0
126105,56.9282,-899.077,0,0
126365,56.11,-896.123,0,0
126626,55.269,-893.064,0,0
126886,54.4893,-889.96,0,0
127146,53.7815,-886.861,0,0
127406,53.3277,-883.623,0,0
127667,52.9137,-880.23,0,0
127927,52.7291,-877.08,0,0
128187,52.6849,-874.176,0,0
128448,52.4252,-871.423,0,0
128708,52.0216,-868.575,0,0
128968,51.7618,-865.648,0,0
129229,51.4966,-862.79,0,0
129489,51.2767,-859.928,0,0
129749,50.9676,-857.177,0,0
130010,50.4533,-854.329,0,0
130270,50.175,-851.267,0,0
130530,50.0865,-848.322,0,0
130791,49.859,-845.53,0,0
131051,49.4714,-842.667,0,0
131311,49.1493,-839.672,0,0
131572,48.8956,-836.567,0,0
131832,48.7424,-833.523,0,0
132092,48.6116,-830.486,0,0
132353,48.4672,-827.388,0,0
132613,48.3735,-824.194,0,0
132873,48.4506,-820.961,0,0
133134,48.5974,-817.806,0,0
133394,48.8002,-814.719,0,0
133654,49.046,-811.507,0,0
133915,49.4439,-808.319,0,0
134175,49.9973,-805.203,0,0
134435,50.6829,-802.119,0,0
134696,51.5482,-799.306,0,0
134956,52.3231,-796.864,0,0
135216,52.8836,-794.36,0,0
135477,53.4734,-791.686,0,0
135737,54.238,-789.073,0,0
135997,55.256,-786.594,0,0
136258,56.4768,-784.653,0,0
136518,57.2998,-783.299,0,0
136778,57.5745,-782.066,0,0
137039,57.3798,-780.768,0,0
137299,56.7687,-779.21,0,0
137559,55.953,-777.189,0,0
137819,55.3062,-774.779,0,0
138080,54.769,-772.307,0,0
138340.125,54.2976,-769.665,0,0
138600.45,53.9596,-766.959,0,0
138860.775,53.6918,-764.314,0,0
139121.1,53.3259,-761.612,0,0
139381.425,53.0421,-758.654,0,0
139641.75,53.0175,-755.673,0,0
139902.075,53.1238,-752.836,0,0
140162.4,53.2442,-750.111,0,0
140422.725,53.4124,-747.403,0,0
140683.05,53.4613,-744.848,0,0
140943.375,53.3974,-742.211,0,0
141203.7,53.3359,-739.417,0,0
141464.025,53.265,-736.617,0,0
141724.35,53.2386,-733.641,0,0
141984.675,53.3872,-730.587,0,0
142245.0,53.6722,-727.571,0,0
142505.325,54.0783,-724.618,0,0
142765.65,54.5536,-721.724,0,0
143025.975,55.0173,-718.92,0,0
143286.3,55.4915,-716.128,0,0
143546.625,56.1596,-713.318,0,0
143806.95,56.8718,-710.769,0,0
144067.275,57.4862,-708.363,0,0
144327.6,57.9901,-706.033,0,0
144587.925,58.3026,-703.723,0,0
144848.25,58.5804,-701.297,0,0
145108.575,58.8407,-698.91,0,0
145368.9,59.034,-696.441,0,0
145629.225,59.1835,-693.875,0,0
145889.55,59.4203,-691.287,0,0
146149.875,59.656,-688.658,0,0
146410.2,59.9377,-685.934,0,0
146670.525,60.4062,-683.259,0,0
146930.85,60.9421,-680.78,0,0
147191.175,61.2986,-678.448,0,0
147451.5,61.5173,-676.12,0,0
147711.825,61.525,-673.681,0,0
147972.15,61.6544,-671.007,0,0
148232.475,61.926,-668.45,0,0
148492.8,62.0291,-666.055,0,0
148753.125,61.9499,-663.474,0,0
149013.45,61.888,-660.773,0,0
149273.775,61.8069,-658.008,0,0
149534.1,61.7154,-655.082,0,0
149794.425,61.692,-652.16,0,0
150054.75,61.6187,-649.097,0,0
150315.075,61.5723,-645.968,0,0
150575.4,61.5653,-642.693,0,0
150835.725,61.6519,-639.299,0,0
151096.05,61.8655,-635.837,0,0
151356.375,62.1161,-632.333,0,0
151616.7,62.4955,-628.731,0,0
151877.025,63.0292,-625.088,0,0
152137.35,63.6866,-621.514,0,0
152397.675,64.3581,-617.954,0,0
152658.0,65.0624,-614.329,0,0
152918.325,65.8991,-610.685,0,0
153178.65,66.8268,-607.064,0,0
153438.975,67.7834,-603.46,0,0
153699.3,68.8253,-599.841,0,0
153959.625,69.8675,-596.213,0,0
154219.95,70.9902,-592.501,0,0
154480,72.2352,-588.774,0,0
154741,73.5496,-585.026,0,0
155001,74.9933,-581.249,0,0
155261,76.5729,-577.477,0,0
155522,78.2755,-573.729,0,0
155782,80.1441,-570.026,0,0
156042,82.1163,-566.397,0,0
156303,84.1827,-562.825,0,0
156563,86.3436,-559.331,0,0
156823,88.5872,-555.938,0,0
157084,90.9018,-552.564,0,0
157344,93.422,-549.207,0,0
157604,96.1507,-546.067,0,0
157864,98.9658,-543.285,0,0
158125,101.681,-540.774,0,0
158385,104.245,-538.415,0,0
158645,106.799,-536.189,0,0
158906,109.286,-534.325,0,0
159166,111.346,-532.694,0,0
159426,112.921,-531.103,0,0
159687,114.094,-529.243,0,0
159947,115.112,-527.131,0,0
160207,115.825,-524.828,0,0
160468,116.439,-522.105,0,0
160728,117.029,-518.945,0,0
160988,117.675,-515.521,0,0
161249,118.243,-511.701,0,0
161509,119.044,-507.256,0,0
161769,120.328,-502.374,0,0
162030,122.234,-497.334,0,0
162290,124.537,-492.444,0,0
162550,127.064,-487.561,0,0
162811,129.842,-482.652,0,0
163071,132.826,-477.621,0,0
163331,136.187,-472.453,0,0
163592,140.089,-467.27,0,0
163852,144.573,-462.367,0,0
164112,149.204,-457.96,0,0
164373,153.723,-453.835,0,0
164633,158.104,-449.751,0,0
164893,162.439,-445.355,0,0
165154,167.005,-440.93,0,0
165414,171.623,-436.242,0,0
165674,176.522,-430.925,0,0
165935,182.267,-425.19,0,0
166195,188.999,-419.44,0,0
166455,196.637,-414.014,0,0
166716,205.001,-409.108,0,0
166976,213.804,-404.607,0,0
167236,222.981,-400.349,0,0
167497,233.053,-396.036,0,0
167757,244.467,-392.67,0,0
168017,256.304,-390.497,0,0
168277,268.434,-389.179,0,0
168538,281.058,-388.691,0,0
168798,294.185,-389.319,0,0
169058,307.465,-391.282,0,0
169319,320.883,-394.457,0,0
169579,334.02,-399.29,0,0
169839,345.973,-405.267,0,0
170100,357.444,-411.207,0,0
170360.075,369.386,-417.756,0,0
170620.4,381.729,-425.815,0,0
170880.725,393.581,-436.105,0,0
171141.05,403.359,-447.976,0,0
171401.375,411.603,-459.643,0,0
171661.7,419.666,-471.675,0,0
171922.025,427.107,-484.95,0,0
172182.35,433.424,-499.258,0,0
172442.675,438.656,-514.849,0,0
172703.0,441.57,-532.062,0,0
172963.325,441.255,-548.998,0,0
173223.65,439.621,-565.061,0,0
173483.975,436.194,-581.532,0,0
173744.3,429.993,-597.85,0,0
174004.625,420.529,-612.62,0,0
174264.95,408.7,-624.381,0,0
174525.275,396.034,-632.626,0,0
174785.6,383.622,-638.301,0,0
175045.925,371.509,-641.097,0,0
175306.25,361.199,-641.392,0,0
175566.575,352.876,-641.016,0,0
175826.9,345.057,-640.125,0,0
176087.225,338.348,-637.558,0,0
176347.55,333.982,-634.227,0,0
176607.875,331.663,-631.331,0,0
176868.2,330.779,-629.528,0,0
177128.525,330.042,-628.963,0,0
177388.85,329.16,-628.121,0,0
177649.175,329.689,-626.76,0,0
177909.5,332.266,-626.361,0,0
178169.825,336.333,-627.878,0,0
178430.15,341.143,-632.732,0,0
178690.475,344.14,-641.159,0,0
178950.8,343.647,-651.321,0,0
179211.125,339.52,-661.168,0,0
179471.45,332.975,-668.766,0,0
179731.775,326.186,-673.833,0,0
179992.1,320.567,-678.198,0,0
180252.425,314.616,-682.784,0,0
180512.75,308.479,-687.097,0,0
180773.075,301.823,-691.501,0,0
181033.4,294.128,-695.526,0,0
181293.725,285.599,-698.662,0,0
181554.05,276.592,-700.234,0,0
181814.375,268.819,-700.768,0,0
182074.7,261.313,-702.243,0,0
182335.025,252.366,-703.721,0,0
182595.35,242.26,-703.92,0,0
182855.675,231.68,-702.121,0,0
183116.0,221.798,-698.225,0,0
183376.325,213.621,-692.971,0,0
183636.65,207.191,-687.763,0,0
183896.975,201.379,-683.207,0,0
184157.3,195.503,-678.526,0,0
184417.625,190.3,-673.202,0,0
184677.95,186.06,-667.923,0,0
184938.275,182.485,-663.301,0,0
185198.6,178.764,-659.463,0,0
185458.925,174.355,-655.414,0,0
185719.25,169.948,-650.785,0,0
185979.575,165.647,-645.584,0,0
186239.9,162.04,-639.741,0,0
186500,159.404,-633.955,0,0
186761,157.05,-628.572,0,0
187021,154.823,-623.096,0,0
187281,153.152,-617.456,0,0
187542,152.124,-612.063,0,0
187802,151.524,-607.167,0,0
188062,151.113,-602.819,0,0
188322,150.745,-598.958,0,0
188583,150.145,-595.586,0,0
188843,149.042,-592.71,0,0
189103,147.048,-589.672,0,0
189364,144.716,-585.895,0,0
189624,142.62,-581.498,0,0
189884,140.976,-576.92,0,0
190145,139.403,-572.362,0,0
190405,137.858,-567.502,0,0
190665,136.663,-562.496,0,0
190926,135.553,-557.442,0,0
191186,134.704,-552.003,0,0
191446,134.569,-546.452,0,0
191707,134.926,-541.403,0,0
191967,135.153,-536.91,0,0
192227,135.04,-532.42,0,0
192488,134.776,-527.634,0,0
192748,134.683,-522.475,0,0
193008,135.014,-517.084,0,0
193269,135.786,-511.727,0,0
193529,136.929,-506.579,0,0
193789,138.221,-501.72,0,0
194050,139.495,-497.015,0,0
194310,140.788,-492.288,0,0
194570,142.218,-487.472,0,0
194831,144.011,-482.666,0,0
195091,146.074,-478.123,0,0
195351,148.215,-473.866,0,0
195612,150.298,-469.777,0,0
195872,152.405,-465.787,0,0
196132,154.47,-461.791,0,0
196393,156.749,-457.954,0,0
196653,158.959,-454.164,0,0
196913,161.267,-450.392,0,0
197174,163.82,-446.696,0,0
197434,166.406,-443.399,0,0
197694,168.902,-440.412,0,0
197955,171.126,-437.573,0,0
198215,172.845,-434.827,0,0
198475,174.396,-431.657,0,0
198735,175.918,-428.129,0,0
198996,177.679,-424.528,0,0
199256,179.514,-420.826,0,0
199516,181.312,-417.081,0,0
199777,183.02,-413.091,0,0
200037,184.987,-408.701,0,0
200297,187.343,-404.304,0,0
200558,189.839,-399.861,0,0
200818,192.568,-395.445,0,0
201078,195.531,-390.947,0,0
201339,198.58,-386.53,0,0
201599,201.782,-381.837,0,0
201859,205.29,-377.181,0,0
202120,209.12,-372.476,0,0
202380.025,213.193,-367.753,0,0
202640.35,217.662,-363.089,0,0
202900.675,222.428,-358.501,0,0
203161.0,227.503,-354.137,0,0
203421.325,232.743,-349.953,0,0
203681.65,238.165,-345.877,0,0
203941.975,243.708,-341.852,0,0
204202.3,249.678,-337.91,0,0
204462.625,255.757,-334.052,0,0
204722.95,262.253,-330.208,0,0
204983.275,269.241,-326.41,0,0
205243.6,276.729,-322.946,0,0
205503.925,284.928,-319.914,0,0
205764.25,293.722,-317.69,0,0
206024.575,302.485,-316.69,0,0
206284.9,310.883,-316.479,0,0
206545.225,318.699,-316.908,0,0
206805.55,325.825,-317.707,0,0
207065.875,332.186,-318.392,0,0
207326.2,338.095,-318.633,0,0
207586.525,344.052,-318.382,0,0
207846.85,350.042,-317.984,0,0
208107.175,356.11,-317.115,0,0
208367.5,362.65,-315.815,0,0
208627.825,369.834,-314.205,0,0
208888.15,377.826,-312.311,0,0
209148.475,386.967,-310.641,0,0
209408.8,397.153,-309.714,0,0
209669.125,407.996,-309.521,0,0
209929.45,419.598,-310.091,0,0
210189.775,432.111,-311.877,0,0
210450.1,445.473,-315.096,0,0
210710.425,458.968,-320.906,0,0
210970.75,471.28,-329.035,0,0
211231.075,481.613,-338.011,0,0
211491.4,491.012,-347.347,0,0
211751.725,499.703,-357.475,0,0
212012.05,506.915,-368.549,0,0
212272.375,512.137,-379.706,0,0
212532.7,515.879,-389.87,0,0
212793.025,519.407,-398.877,0,0
213053.35,523.352,-407.734,0,0
213313.675,526.893,-417.165,0,0
213574.0,529.616,-426.414,0,0
213834.325,532.102,-435.255,0,0
214094.65,534.638,-443.994,0,0
214354.975,537.206,-453.115,0,0
214615.3,539.27,-462.911,0,0
214875.625,540.199,-472.941,0,0
215135.95,540.21,-482.461,0,0
215396.275,539.829,-491.457,0,0
215656.6,539.18,-499.941,0,0
215916.925,538.666,-508.017,0,0
216177.25,538.57,-516.163,0,0
216437.575,538.657,-524.933,0,0
216697.9,538.119,-534.709,0,0
216958.225,536.272,-544.938,0,0
217218.55,533.195,-554.826,0,0
217478.875,529.258,-564.019,0,0
217739.2,525.062,-572.622,0,0
217999.525,520.794,-581.218,0,0
218259.85,515.715,-590.32,0,0
218520,508.998,-599.184,0,0
218780,500.851,-606.926,0,0
219041,491.826,-613.14,0,0
219301,482.543,-617.733,0,0
219561,473.476,-620.876,0,0
219822,464.662,-623.035,0,0
220082,456.024,-623.99,0,0
220342,448.176,-623.762,0,0
220603,441.208,-622.796,0,0
220863,435.063,-621.326,0,0
221123,429.585,-619.636,0,0
221384,424.703,-617.621,0,0
221644,420.62,-615.264,0,0
221904,417.303,-613.036,0,0
222165,414.502,-610.854,0,0
222425,412.255,-608.596,0,0
222685,410.761,-606.652,0,0
222946,409.674,-605.252,0,0
223206,408.5,-604.302,0,0
223466,407.312,-603.3,0,0
223727,406.295,-602.4,0,0
223987,405.476,-601.748,0,0
224247,404.436,-601.2,0,0
224508,403.385,-600.46,0,0
224768,402.292,-599.545,0,0
225028,401.385,-598.306,0,0
225289,400.967,-596.763,0,0
225549,401.041,-595.059,0,0
225809,401.888,-593.379,0,0
226070,403.381,-592.004,0,0
226330,405.447,-591.258,0,0
226590,407.768,-591.287,0,0
226851,409.931,-591.904,0,0
227111,411.887,-592.861,0,0
227371,413.835,-593.818,0,0
227632,416.049,-594.939,0,0
227892,418.58,-596.47,0,0
228152,421.27,-598.718,0,0
228413,423.787,-601.646,0,0
228673,426.082,-605.063,0,0
228933,428.028,-609.056,0,0
229193,429.435,-613.602,0,0
229454,430.021,-618.258,0,0
229714,430.005,-622.635,0,0
229974,430.015,-626.429,0,0
230235,430.555,-630.326,0,0
230495,431.439,-635.158,0,0
230755,431.604,-640.923,0,0
231016,430.528,-646.876,0,0
231276,428.695,-652.457,0,0
231536,426.588,-657.367,0,0
231797,424.76,-662.189,0,0
232057,422.844,-667.224,0,0
232317,420.763,-672.415,0,0
232578,418.531,-677.953,0,0
232838,415.717,-683.916,0,0
233098,412.341,-690.052,0,0
233359,408.382,-696.538,0,0
233619,403.325,-703.378,0,0
233879,396.577,-710.106,0,0
234140,388.338,-715.543,0,0
234400,379.562,-719.443,0,0
234660.3,370.761,-721.946,0,0
234920.625,362.312,-723.508,0,0
235180.95,354.109,-724.443,0,0
235441.275,345.748,-724.737,0,0
235701.6,337.839,-723.984,0,0
235961.925,330.502,-722.593,0,0
236222.25,323.692,-721.067,0,0
236482.575,317.141,-719.198,0,0
236742.9,311.056,-716.966,0,0
237003.225,305.489,-714.901,0,0
237263.55,299.602,-713.052,0,0
237523.875,293.22,-710.5,0,0
237784.2,287.194,-706.803,0,0
238044.525,282.005,-702.364,0,0
238304.85,277.805,-697.648,0,0
238565.175,274.449,-692.912,0,0
238825.5,271.794,-688.301,0,0
239085.825,269.916,-683.935,0,0
239346.15,268.548,-679.842,0,0
239606.475,267.804,-676.229,0,0
239866.8,267.69,-673.126,0,0
240127.125,267.971,-671.046,0,0
240387.45,267.987,-670.169,0,0
240647.775,267.242,-669.978,0,0
240908.1,265.567,-670.109,0,0
241168.425,263.15,-669.896,0,0
241428.75,260.369,-669.481,0,0
241689.075,257.159,-668.719,0,0
241949.4,253.517,-667.564,0,0
242209.725,249.728,-665.753,0,0
242470.05,245.889,-663.338,0,0
242730.375,242.242,-660.075,0,0
242990.7,239.202,-656.178,0,0
243251.025,236.846,-652.028,0,0
243511.35,235.165,-647.884,0,0
243771.675,233.821,-643.82,0,0
244032.0,232.914,-639.585,0,0
244292.325,232.776,-635.196,0,0
244552.65,233.598,-631.331,0,0
244812.975,234.966,-628.348,0,0
245073.3,236.381,-626.391,0,0
245333.625,237.409,-625.158,0,0
245593.95,237.78,-624.328,0,0
245854.275,237.787,-623.543,0,0
246114.6,237.349,-622.822,0,0
246374.925,236.47,-622.061,0,0
246635.25,235.259,-620.926,0,0
246895.575,233.997,-619.459,0,0
247155.9,232.787,-617.724,0,0
247416.225,231.635,-615.815,0,0
247676.55,230.554,-613.7,0,0
247936.875,229.639,-611.432,0,0
248197.2,228.752,-609.145,0,0
248457.525,227.983,-606.727,0,0
248717.85,227.385,-604.008,0,0
248978.175,227.014,-601.237,0,0
249238.5,226.837,-598.423,0,0
249498.825,226.833,-595.505,0,0
249759.15,227.114,-592.525,0,0
250019.475,227.753,-589.628,0,0
250279.8,228.69,-586.819,0,0
250540,229.713,-584.156,0,0
250800,230.984,-581.523,0,0
251061,232.554,-579.036,0,0
251321,234.288,-576.8,0,0
251581,236.098,-574.733,0,0
251842,237.997,-572.712,0,0
252102,240.206,-570.692,0,0
252362,242.841,-568.926,0,0
252623,245.74,-567.591,0,0
252883,248.837,-566.711,0,0
253143,251.984,-566.374,0,0
253404,254.992,-566.573,0,0
253664,257.857,-567.172,0,0
253924,260.531,-568.169,0,0
254185,262.905,-569.588,0,0
254445,264.89,-571.293,0,0
254705,266.435,-573.173,0,0
254966,267.579,-575.041,0,0
255226,268.508,-576.859,0,0
255486,269.265,-578.776,0,0
255747,269.672,-580.879,0,0
256007,269.69,-582.93,0,0
256267,269.302,-584.853,0,0
256528,268.697,-586.514,0,0
256788,267.963,-588.046,0,0
257048,266.991,-589.471,0,0
257309,265.729,-590.673,0,0
257569,264.311,-591.499,0,0
257829,262.932,-591.939,0,0
258090,261.662,-592.093,0,0
258350,260.588,-591.999,0,0
258610,259.826,-591.801,0,0
258871,259.291,-591.727,0,0
259131,258.834,-591.824,0,0
259391,258.336,-592.039,0,0
259651,257.76,-592.331,0,0
259912,256.947,-592.711,0,0
260172,255.978,-592.99,0,0
260432,254.682,-593.015,0,0
260693,253.416,-592.629,0,0
260953,252.393,-592.047,0,0
261213,251.454,-591.313,0,0
261474,250.722,-590.45,0,0
261734,250.119,-589.43,0,0
261994,249.723,-588.291,0,0
262255,249.596,-587.038,0,0
262515,249.847,-585.715,0,0
262775,250.519,-584.519,0,0
263036,251.53,-583.641,0,0
263296,252.742,-583.054,0,0
263556,254.116,-582.867,0,0
263817,255.468,-583.09,0,0
264077,256.664,-583.676,0,0
264337,257.656,-584.45,0,0
264598,258.586,-585.512,0,0
264858,259.11,-586.785,0,0
265118,259.381,-587.925,0,0
265379,259.538,-589.065,0,0
265639,259.539,-590.053,0,0
265899,259.659,-590.961,0,0
266160,259.782,-591.965,0,0
266420,259.936,-593.125,0,0
266680.25,259.972,-594.439,0,0
266940.575,259.944,-595.875,0,0
267200.9,259.749,-597.505,0,0
267461.225,259.267,-599.252,0,0
267721.55,258.453,-601.029,0,0
267981.875,257.304,-602.754,0,0
268242.2,255.749,-604.218,0,0
268502.525,254.001,-605.33,0,0
268762.85,252.188,-606.042,0,0
269023.175,250.558,-606.39,0,0
269283.5,248.923,-606.57,0,0
269543.825,247.388,-606.454,0,0
269804.15,246.021,-606.039,0,0
270064.475,244.961,-605.389,0,0
270324.8,244.389,-604.381,0,0
270585.125,244.447,-603.565,0,0
270845.45,244.876,-602.87,0,0
271105.775,245.743,-602.555,0,0
271366.1,246.899,-602.47,0,0
271626.425,248.46,-602.679,0,0
271886.75,250.585,-603.507,0,0
272147.075,253.151,-605.36,0,0
272407.4,255.547,-608.497,0,0
272667.725,257.261,-612.766,0,0
272928.05,257.87,-617.827,0,0
273188.375,257.387,-623.096,0,0
273448.7,256.016,-628.414,0,0
273709.025,253.812,-633.808,0,0
273969.35,250.717,-639.035,0,0
274229.675,246.719,-644.019,0,0
274490.0,241.928,-648.502,0,0
274750.325,236.596,-652.465,0,0
275010.65,230.679,-655.882,0,0
275270.975,224.193,-658.794,0,0
275531.3,217.054,-660.941,0,0
275791.625,209.647,-661.993,0,0
276051.95,202.187,-662.149,0,0
276312.275,194.807,-661.45,0,0
276572.6,187.564,-659.898,0,0
276832.925,180.621,-657.576,0,0
277093.25,174.125,-654.506,0,0
277353.575,168.204,-650.852,0,0
277613.9,162.884,-646.775,0,0
277874.225,158.145,-642.421,0,0
278134.55,153.935,-637.819,0,0
278394.875,150.281,-633.016,0,0
278655.2,147.222,-628.071,0,0
278915.525,144.787,-623.186,0,0
279175.85,142.893,-618.461,0,0
279436.175,141.379,-613.976,0,0
279696.5,140.123,-609.757,0,0
279956.825,139.023,-605.663,0,0
280217.15,138.152,-601.642,0,0
280477.475,137.614,-597.645,0,0
280737.8,137.46,-593.924,0,0
280998.125,137.562,-590.614,0,0
281258.45,137.647,-587.803,0,0
281518.775,137.49,-585.291,0,0
281779.1,137.076,-582.846,0,0
282039.425,136.52,-580.326,0,0
282299.75,135.931,-577.733,0,0
282560,135.324,-575.074,0,0
282820,134.645,-572.313,0,0
283081,133.956,-569.321,0,0
283341,133.36,-566.223,0,0
283601,132.972,-562.816,0,0
283862,133.078,-559.302,0,0
284122,133.339,-555.891,0,0
284382,134.031,-552.491,0,0
284643,134.909,-549.231,0,0
284903,136.115,-546.171,0,0
285163,137.588,-543.356,0,0
285424,139.085,-540.758,0,0
285684,140.825,-538.639,0,0
285944,142.388,-536.729,0,0
286205,143.889,-535.021,0,0
286465,145.428,-533.599,0,0
286725,146.841,-532.262,0,0
286986,148.244,-531.139,0,0
287246,149.473,-530.123,0,0
287506,150.614,-529.381,0,0
287767,151.338,-528.785,0,0
288027,151.87,-527.978,0,0
288287,152.167,-527.278,0,0
288548,152.361,-526.276,0,0
288808,152.336,-525.204,0,0
289068,152.411,-523.79,0,0
289329,152.57,-522.334,0,0
289589,152.723,-520.743,0,0
289849,153.037,-518.962,0,0
290109,153.356,-517.088,0,0
290370,153.78,-515.066,0,0
290630,154.414,-512.999,0,0
290890,155.524,-510.89,0,0
291151,156.68,-508.974,0,0
291411,157.997,-507.203,0,0
291671,159.408,-505.593,0,0
291932,160.717,-504.12,0,0
292192,162.01,-502.606,0,0
292452,163.355,-501.053,0,0
292713,164.821,-499.583,0,0
292973,166.29,-498.135,0,0
293233,167.972,-496.746,0,0
293494,169.615,-495.449,0,0
293754,171.406,-494.244,0,0
294014,173.029,-493.058,0,0
294275,174.773,-491.943,0,0
294535,176.535,-490.834,0,0
294795,178.285,-489.72,0,0
295056,180.186,-488.545,0,0
295316,182.319,-487.409,0,0
295576,184.468,-486.446,0,0
295837,186.79,-485.583,0,0
296097,189.07,-484.85,0,0
296357,191.427,-484.188,0,0
296618,193.824,-483.468,0,0
296878,196.398,-482.83,0,0
297138,199.072,-482.3,0,0
297399,202.009,-481.957,0,0
297659,204.865,-481.764,0,0
297919,207.923,-481.781,0,0
298180,210.912,-482.073,0,0
298440,213.952,-482.555,0,0
298700.2,216.911,-483.064,0,0
298960.525,219.856,-483.632,0,0
299220.85,222.959,-484.391,0,0
299481.175,226.164,-485.13,0,0
299741.5,229.532,-486.15,0,0
300001.825,233.069,-487.344,0,0
300262.15,236.72,-488.898,0,0
300522.475,240.352,-490.784,0,0
300782.8,244.066,-492.884,0,0
301043.125,247.892,-495.536,0,0
301303.45,251.781,-498.456,0,0
301563.775,255.525,-502.003,0,0
301824.1,259.275,-506.055,0,0
302084.425,262.841,-510.831,0,0
302344.75,265.885,-516.193,0,0
302605.075,268.432,-522.185,0,0
302865.4,270.132,-528.617,0,0
303125.725,271.068,-535.286,0,0
303386.05,271.15,-542.052,0,0
303646.375,270.403,-548.708,0,0
303906.7,268.912,-555.078,0,0
304167.025,266.853,-561.035,0,0
304427.35,264.372,-566.601,0,0
304687.675,261.565,-571.779,0,0
304948.0,258.541,-576.64,0,0
305208.325,255.305,-581.258,0,0
305468.65,251.811,-585.682,0,0
305728.975,247.99,-589.858,0,0
305989.3,243.85,-593.7,0,0
306249.625,239.411,-597.134,0,0
306509.95,234.82,-600.172,0,0
306770.275,230.1,-602.741,0,0
307030.6,225.334,-604.902,0,0
307290.925,220.61,-606.697,0,0
307551.25,215.919,-608.171,0,0
307811.575,211.255,-609.376,0,0
308071.9,206.627,-610.321,0,0
308332.225,201.991,-611.004,0,0
308592.55,197.362,-611.405,0,0
308852.875,192.786,-611.467,0,0
309113.2,188.255,-611.213,0,0
309373.525,183.888,-610.611,0,0
309633.85,179.715,-609.734,0,0
309894.175,175.81,-608.562,0,0
310154.5,172.209,-607.218,0,0
310414.825,168.923,-605.795,0,0
310675.15,165.878,-604.382,0,0
310935.475,163.055,-602.975,0,0
311195.8,160.332,-601.617,0,0
311456.125,157.75,-600.289,0,0
311716.45,155.254,-598.966,0,0
311976.775,152.831,-597.665,0,0
312237.1,150.483,-596.361,0,0
312497.425,148.139,-595.07,0,0
312757.75,145.816,-593.769,0,0
313018.075,143.495,-592.436,0,0
313278.4,141.2,-590.999,0,0
313538.725,138.917,-589.475,0,0
313799.05,136.726,-587.844,0,0
314059.375,134.624,-586.149,0,0
314319.7,132.589,-584.377,0,0
314580,130.654,-582.497,0,0
314840,128.854,-580.52,0,0
315101,127.208,-578.486,0,0
315361,125.768,-576.423,0,0
315621,124.464,-574.403,0,0
315882,123.295,-572.349,0,0
316142,122.286,-570.357,0,0
316402,121.453,-568.456,0,0
316663,120.697,-566.643,0,0
316923,120.01,-564.954,0,0
317183,119.334,-563.369,0,0
317444,118.644,-561.825,0,0
317704,117.973,-560.268,0,0
317964,117.383,-558.73,0,0
318225,116.858,-557.242,0,0
318485,116.36,-555.809,0,0
318745,115.899,-554.433,0,0
319006,115.46,-553.08,0,0
319266,115.04,-551.754,0,0
319526,114.69,-550.492,0,0
319787,114.35,-549.272,0,0
320047,114.025,-548.12,0,0
320307,113.748,-547.009,0,0
320567,113.455,-545.949,0,0
320828,113.152,-544.929,0,0
321088,112.846,-543.949,0,0
321348,112.53,-543.003,0,0
321609,112.196,-542.071,0,0
321869,111.876,-541.158,0,0
322129,111.558,-540.268,0,0
322390,111.245,-539.391,0,0
322650,110.943,-538.557,0,0
322910,110.64,-537.761,0,0
323171,110.298,-536.996,0,0
323431,109.939,-536.238,0,0
323691,109.567,-535.474,0,0
323952,109.182,-534.709,0,0
324212,108.784,-533.947,0,0
324472,108.401,-533.166,0,0
324733,108.013,-532.376,0,0
324993,107.647,-531.61,0,0
325253,107.298,-530.757,0,0
325514,107.025,-529.947,0,0
325774,106.806,-529.126,0,0
326034,106.648,-528.368,0,0
326295,106.527,-527.707,0,0
326555,106.418,-527.129,0,0
326815,106.306,-526.61,0,0
327076,106.143,-526.186,0,0
327336,105.965,-525.824,0,0
327596,105.72,-525.525,0,0
327857,105.387,-525.271,0,0
328117,104.969,-525.026,0,0
328377,104.492,-524.778,0,0
328638,103.953,-524.484,0,0
328898,103.391,-524.164,0,0
329158,102.815,-523.853,0,0
329419,102.231,-523.533,0,0
329679,101.591,-523.198,0,0
329939,100.958,-522.859,0,0
330200,100.301,-522.514,0,0
330460,99.5997,-522.181,0,0
330720.15,98.8823,-521.826,0,0
330980.475,98.1696,-521.516,0,0
331240.8,97.3888,-521.169,0,0
331501.125,96.5102,-520.82,0,0
331761.45,95.6731,-520.501,0,0
332021.775,94.6455,-520.162,0,0
332282.1,93.7024,-519.692,0,0
332542.425,92.6243,-519.235,0,0
332802.75,91.5676,-518.744,0,0
333063.075,90.4533,-518.096,0,0
333323.4,89.4068,-517.377,0,0
333583.725,88.3182,-516.732,0,0
333844.05,87.1952,-515.965,0,0
334104.375,86.1803,-515.139,0,0
334364.7,85.0521,-514.28,0,0
334625.025,84.0556,-513.364,0,0
334885.35,83.0698,-512.428,0,0
335145.675,82.0448,-511.478,0,0
335406.0,81.022,-510.444,0,0
335666.325,80.0592,-509.375,0,0
335926.65,79.0997,-508.382,0,0
336186.975,78.1596,-507.264,0,0
336447.3,77.2251,-506.1,0,0
336707.625,76.3175,-504.965,0,0
336967.95,75.4536,-503.736,0,0
337228.275,74.585,-502.476,0,0
337488.6,73.8099,-501.216,0,0
337748.925,73.1139,-499.935,0,0
338009.25,72.358,-498.592,0,0
338269.575,71.7215,-497.233,0,0
338529.9,71.0934,-496.004,0,0
338790.225,70.4618,-494.631,0,0
339050.55,69.8736,-493.378,0,0
339310.875,69.3795,-492.004,0,0
339571.2,68.8025,-490.74,0,0
339831.525,68.3393,-489.429,0,0
340091.85,67.8578,-488.044,0,0
340352.175,67.3631,-486.72,0,0
340612.5,66.8762,-485.388,0,0
340872.825,66.4525,-483.999,0,0
341133.15,66.0321,-482.627,0,0
341393.475,65.6602,-481.211,0,0
341653.8,65.3177,-479.823,0,0
341914.125,65.0203,-478.4,0,0
342174.45,64.81,-476.963,0,0
342434.775,64.5759,-475.507,0,0
342695.1,64.4679,-474.077,0,0
342955.425,64.336,-472.669,0,0
343215.75,64.2566,-471.331,0,0
343476.075,64.2256,-469.933,0,0
343736.4,64.2929,-468.552,0,0
343996.725,64.3559,-467.207,0,0
344257.05,64.5434,-465.901,0,0
344517.375,64.6709,-464.678,0,0
344777.7,64.8764,-463.484,0,0
345038.025,65.0786,-462.328,0,0
345298.35,65.3494,-461.278,0,0
345558.675,65.6432,-460.244,0,0
345819.0,65.8645,-459.303,0,0
346079.325,66.0912,-458.449,0,0
346339.65,66.2806,-457.662,0,0
346599.975,66.3784,-456.908,0,0
346860,66.4506,-456.2,0,0
347121,66.4512,-455.482,0,0
347381,66.4034,-454.75,0,0
347641,66.2893,-454.009,0,0
347902,66.0908,-453.264,0,0
348162,65.8232,-452.512,0,0
348422,65.5939,-451.638,0,0
348683,65.3086,-450.699,0,0
348943,65.068,-449.73,0,0
349203,64.8121,-448.729,0,0
349464,64.5971,-447.654,0,0
349724,64.4188,-446.565,0,0
349984,64.2999,-445.49,0,0
350245,64.1445,-444.398,0,0
350505,63.9394,-443.213,0,0
350765,63.8085,-442.083,0,0
351025,63.7075,-440.91,0,0
351286,63.5903,-439.64,0,0
351546,63.5692,-438.273,0,0
351806,63.6317,-436.941,0,0
352067,63.7768,-435.614,0,0
352327,64.0426,-434.328,0,0
352587,64.325,-433.02,0,0
352848,64.7089,-431.825,0,0
353108,65.1111,-430.674,0,0
353368,65.5089,-429.474,0,0
353629,66.0114,-428.464,0,0
353889,66.502,-427.464,0,0
354149,66.9865,-426.474,0,0
354410,67.5111,-425.587,0,0
354670,68.0055,-424.776,0,0
354930,68.5337,-423.909,0,0
355191,69.0398,-423.174,0,0
355451,69.5589,-422.509,0,0
355711,70.0791,-421.921,0,0
355972,70.5446,-421.422,0,0
356232,70.9186,-420.973,0,0
356492,71.2177,-420.561,0,0
356753,71.4349,-420.176,0,0
357013,71.5699,-419.797,0,0
357273,71.5981,-419.394,0,0
357534,71.5446,-419.032,0,0
357794,71.4104,-418.557,0,0
358054,71.2188,-417.982,0,0
358315,70.9512,-417.387,0,0
358575,70.656,-416.636,0,0
358835,70.4023,-415.784,0,0
359096,70.1104,-414.808,0,0
359356,69.9574,-413.804,0,0
359616,69.8458,-412.811,0,0
359877,69.7205,-411.742,0,0
360137,69.6918,-410.571,0,0
360397,69.7282,-409.427,0,0
360658,69.7592,-408.251,0,0
360918,69.883,-407.079,0,0
361178,70.0862,-405.832,0,0
361438,70.3758,-404.636,0,0
361699,70.746,-403.428,0,0
361959,71.1046,-402.253,0,0
362219,71.5473,-401.087,0,0
362480,72.0504,-399.976,0,0
362740.1,72.5292,-398.951,0,0
363000.425,73.0747,-397.942,0,0
363260.75,73.6077,-396.947,0,0
363521.075,74.1343,-395.906,0,0
363781.4,74.7208,-394.906,0,0
364041.725,75.3816,-393.965,0,0
364302.05,76.0652,-393.01,0,0
364562.375,76.7713,-392.12,0,0
364822.7,77.5457,-391.281,0,0
365083.025,78.2693,-390.461,0,0
365343.35,79.0888,-389.743,0,0
365603.675,79.8809,-389.094,0,0
365864.0,80.6387,-388.446,0,0
366124.325,81.4476,-387.952,0,0
366384.65,82.098,-387.439,0,0
366644.975,82.7698,-386.961,0,0
366905.3,83.3956,-386.496,0,0
367165.625,84.0312,-385.944,0,0
367425.95,84.631,-385.441,0,0
367686.275,85.3385,-384.979,0,0
367946.6,86.0022,-384.544,0,0
368206.925,86.6821,-384.145,0,0
368467.25,87.3669,-383.774,0,0
368727.575,87.999,-383.446,0,0
368987.9,88.6746,-383.155,0,0
369248.225,89.3157,-382.923,0,0
369508.55,89.9327,-382.723,0,0
369768.875,90.5703,-382.62,0,0
370029.2,91.0692,-382.604,0,0
370289.525,91.5237,-382.583,0,0
370549.85,91.8935,-382.589,0,0
370810.175,92.1661,-382.676,0,0
371070.5,92.2647,-382.7,0,0
371330.825,92.2856,-382.632,0,0
371591.15,92.2166,-382.487,0,0
371851.475,92.1337,-382.261,0,0
372111.8,92.0251,-381.9,0,0
372372.125,91.9078,-381.408,0,0
372632.45,91.9065,-380.88,0,0
372892.775,91.8905,-380.262,0,0
373153.1,91.9479,-379.647,0,0
373413.425,92.0954,-378.987,0,0
373673.75,92.256,-378.291,0,0
373934.075,92.5084,-377.611,0,0
374194.4,92.7757,-376.952,0,0
374454.725,93.1656,-376.307,0,0
374715.05,93.4884,-375.682,0,0
374975.375,93.9243,-375.119,0,0
375235.7,94.3254,-374.585,0,0
375496.025,94.7182,-374.098,0,0
375756.35,95.1026,-373.681,0,0
376016.675,95.5097,-373.253,0,0
376277.0,95.8511,-372.845,0,0
376537.325,96.1536,-372.468,0,0
376797.65,96.4028,-372.156,0,0
377057.975,96.6115,-371.7,0,0
377318.3,96.776,-371.23,0,0
377578.625,96.9222,-370.724,0,0
377838.95,97.1282,-370.185,0,0
378099.275,97.2956,-369.588,0,0
378359.6,97.5439,-368.97,0,0
378619.925,97.795,-368.313,0,0
378880,98.0685,-367.634,0,0
379141,98.4649,-366.892,0,0
379401,98.879,-366.234,0,0
379661,99.3439,-365.655,0,0
379922,99.8077,-365.042,0,0
380182,100.264,-364.506,0,0
380442,100.667,-363.977,0,0
380703,101.089,-363.43,0,0
380963,101.447,-362.833,0,0
381223,101.935,-362.306,0,0
381483,102.368,-361.68,0,0
381744,102.853,-361.096,0,0
382004,103.36,-360.512,0,0
382264,103.848,-359.941,0,0
382525,104.414,-359.421,0,0
382785,104.975,-358.846,0,0
383045,105.547,-358.365,0,0
383306,106.09,-357.873,0,0
383566,106.64,-357.4,0,0
383826,107.171,-356.96,0,0
384087,107.704,-356.479,0,0
384347,108.257,-356.001,0,0
384607,108.816,-355.516,0,0
384868,109.371,-355.027,0,0
385128,109.949,-354.598,0,0
385388,110.505,-354.157,0,0
385649,111.066,-353.744,0,0
385909,111.657,-353.311,0,0
386169,112.193,-352.931,0,0
386430,112.751,-352.501,0,0
386690,113.224,-352.067,0,0
386950,113.732,-351.639,0,0
387211,114.241,-351.165,0,0
387471,114.656,-350.679,0,0
387731,115.144,-350.139,0,0
387992,115.617,-349.492,0,0
388252,116.137,-348.816,0,0
388512,116.75,-348.048,0,0
388773,117.52,-347.219,0,0
389033,118.333,-346.455,0,0
389293,119.328,-345.765,0,0
389554,120.35,-345.146,0,0
389814,121.412,-344.57,0,0
390074,122.514,-344.101,0,0
390335,123.562,-343.733,0,0
390595,124.637,-343.326,0,0
390855,125.701,-342.974,0,0
391116,126.799,-342.662,0,0
391376,127.904,-342.383,0,0
391636,129.05,-342.14,0,0
391896,130.169,-342.003,0,0
392157,131.258,-341.87,0,0
392417,132.342,-341.807,0,0
392677,133.365,-341.759,0,0
392938,134.403,-341.753,0,0
393198,135.347,-341.753,0,0
393458,136.252,-341.749,0,0
393719,137.158,-341.709,0,0
393979,137.984,-341.637,0,0
394239,138.84,-341.453,0,0
394500,139.722,-341.222,0,0
394760.05,140.666,-340.922,0,0
395020.375,141.685,-340.634,0,0
395280.7,142.821,-340.26,0,0
395541.025,144.013,-339.967,0,0
395801.35,145.324,-339.611,0,0
396061.675,146.701,-339.332,0,0
396322.0,148.153,-339.042,0,0
396582.325,149.773,-338.768,0,0
396842.65,151.483,-338.561,0,0
397102.975,153.344,-338.456,0,0
397363.3,155.312,-338.412,0,0
397623.625,157.389,-338.501,0,0
397883.95,159.645,-338.756,0,0
398144.275,161.934,-339.183,0,0
398404.6,164.374,-339.812,0,0
398664.925,166.895,-340.704,0,0
398925.25,169.437,-341.841,0,0
399185.575,172.043,-343.235,0,0
399445.9,174.591,-345.006,0,0
399706.225,177.024,-347.137,0,0
399966.55,179.299,-349.57,0,0
400006.6,179.639,-349.973,0,0