File: Accelerated corrosion test data/2025-10-21_18-00-04/sample_5.csv
Frequency (Hz),Impedance (ohms),Phase (Radians),Temperature (C),Humidity (%)
10000.0,3781.29,-3292,0,0
10260.325,3711.48,-3268.69,0,0
10520.65,3648.79,-3261.28,0,0
10780.975,3583.56,-3237.58,0,0
11041.3,3523.15,-3225.47,0,0
11301.625,3464.19,-3212.04,0,0
11561.95,3404.23,-3185.77,0,0
11822.275,3348.97,-3174.72,0,0
12082.6,3295.22,-3163.82,0,0
12342.925,3242.5,-3153.34,0,0
12603.25,3192.08,-3143.43,0,0
12863.575,3141.67,-3129.16,0,0
13123.9,3092.95,-3116.02,0,0
13384.225,3045.41,-3105.75,0,0
13644.55,2998.88,-3096.97,0,0
13904.875,2953.32,-3082.4,0,0
14165.2,2909.27,-3072.88,0,0
14425.525,2865.65,-3062.45,0,0
14685.8,2822.86,-3050.7,0,0
14946.175,2781.75,-3040.22,0,0
15206.5,2741.02,-3026,0,0
15466.825,2701.09,-3015.34,0,0
15727.15,2662.04,-3003.84,0,0
15987.5,2623.9,-2994.07,0,0
16247.8,2586.47,-2980.61,0,0
16508.125,2549.75,-2969.06,0,0
16768.45,2513.49,-2957.32,0,0
17028.775,2478.89,-2942.67,0,0
17289.1,2444.38,-2928.41,0,0
17549.425,2410.66,-2916.25,0,0
17809.75,2377.6,-2904.92,0,0
18070.075,2344.73,-2893.19,0,0
18330.4,2313.08,-2878.87,0,0
18590.725,2281.79,-2867.14,0,0
18851.05,2251.58,-2850.67,0,0
19111.375,2221.28,-2840.82,0,0
19371.7,2191.79,-2825.84,0,0
19632.025,2163.07,-2813.92,0,0
19892.35,2134.29,-2803.71,0,0
20152.675,2106.15,-2790.98,0,0
20413.0,2079.04,-2777.96,0,0
20673.3,2052.67,-2764.12,0,0
20933.65,2026.67,-2750.82,0,0
21193.975,2000.82,-2736.7,0,0
21454.3,1975.74,-2724.43,0,0
21714.625,1950.54,-2712.49,0,0
21974.9,1926.37,-2699.72,0,0
22235.275,1902.47,-2684.73,0,0
22495.6,1878.57,-2674.1,0,0
22755.925,1855.62,-2660.99,0,0
23016.25,1832.7,-2648.36,0,0
23276.6,1810,-2637.47,0,0
23536.9,1788.53,-2623.84,0,0
23797.225,1766.79,-2611.39,0,0
24057.55,1745.78,-2598.36,0,0
24317.875,1725.06,-2586.19,0,0
24578.2,1704.62,-2574.06,0,0
24838.525,1684.71,-2560.92,0,0
25098.85,1664.53,-2551.48,0,0
25359.175,1645.44,-2538.01,0,0
25619.5,1625.95,-2527.2,0,0
25879.8,1607.87,-2514.11,0,0
26140.1,1594.16,-2498.91,0,0
26400.5,1575.42,-2488.33,0,0
26660.8,1557.28,-2477.23,0,0
26921.1,1539.19,-2465.81,0,0
27181.4,1521.76,-2454.79,0,0
27441.8,1504.23,-2444.16,0,0
27702.1,1487.61,-2432.44,0,0
27962.4,1471.06,-2420.43,0,0
28222.7,1455.38,-2408.31,0,0
28483.1,1439.1,-2397.25,0,0
28743.4,1423.06,-2386.38,0,0
29003.7,1407.58,-2375.25,0,0
29264,1392.77,-2363.31,0,0
29524.4,1377.51,-2352.25,0,0
29784.7,1362.7,-2341.26,0,0
30045,1347.77,-2331.35,0,0
30305.3,1333.35,-2320.33,0,0
30565.7,1319.18,-2309.7,0,0
30826,1304.97,-2299.4,0,0
31086.3,1291.42,-2288.62,0,0
31346.6,1278.03,-2277.69,0,0
31607,1265.12,-2267.22,0,0
31867.3,1252.18,-2256.07,0,0
32127.6,1238.44,-2247.26,0,0
32387.9,1225.89,-2236.71,0,0
32648.3,1213.97,-2225.75,0,0
32908.6,1201.55,-2215.58,0,0
33168.9,1189.58,-2205.13,0,0
33429.2,1177.21,-2195.91,0,0
33689.6,1165.84,-2184.53,0,0
33949.9,1154.71,-2174.51,0,0
34210.2,1143.68,-2163.75,0,0
34470.5,1132.18,-2154.43,0,0
34730.9,1121.37,-2143.97,0,0
34991.2,1110.25,-2134.54,0,0
35251.5,1099.39,-2124.97,0,0
35511.8,1089.2,-2114.64,0,0
35772.2,1078.5,-2105.62,0,0
36032.5,1068.26,-2095.82,0,0
36292.8,1058.14,-2086.23,0,0
36553.1,1047.76,-2077.7,0,0
36813.5,1037.96,-2068.11,0,0
37073.8,1029.13,-2057.35,0,0
37334.1,1019.26,-2048.64,0,0
37594.4,1009.46,-2039.75,0,0
37854.8,1000.46,-2030.36,0,0
38115.1,991.105,-2021.49,0,0
38375.4,981.79,-2012.84,0,0
38635.7,972.928,-2003.84,0,0
38896.1,964.311,-1994.53,0,0
39156.4,955.986,-1985.24,0,0
39416.7,947.171,-1976.92,0,0
39677,939.246,-1967.58,0,0
39937.4,930.659,-1959.15,0,0
40197.7,922.465,-1950.59,0,0
40458,914.349,-1941.94,0,0
40718.3,906.531,-1933.18,0,0
40978.7,898.178,-1925.08,0,0
41239,890.323,-1916.84,0,0
41499.3,882.997,-1908.06,0,0
41759.6,875.284,-1900.08,0,0
42020,868.015,-1891.43,0,0
42280.275,862.221,-1883.57,0,0
42540.6,854.909,-1875.47,0,0
42800.925,848.091,-1866.7,0,0
43061.25,840.518,-1859.07,0,0
43321.575,833.138,-1851.41,0,0
43581.9,826.021,-1844.34,0,0
43842.225,819.48,-1835.9,0,0
44102.55,812.517,-1827.87,0,0
44362.875,805.739,-1820.33,0,0
44623.2,799.126,-1812.88,0,0
44883.525,792.472,-1805.16,0,0
45143.85,786.198,-1797.45,0,0
45404.175,780.32,-1789.04,0,0
45664.5,773.451,-1782.1,0,0
45924.825,767.442,-1774.54,0,0
46185.15,761.522,-1767,0,0
46445.475,755.922,-1759.24,0,0
46705.8,750.241,-1751.79,0,0
46966.125,744.391,-1744.29,0,0
47226.45,738.867,-1737.24,0,0
47486.775,733.049,-1730.06,0,0
47747.1,728.169,-1722.14,0,0
48007.425,721.968,-1715.71,0,0
48267.75,717.187,-1708.18,0,0
48528.075,711.984,-1700.83,0,0
48788.4,706.357,-1694.13,0,0
49048.725,701.503,-1687.14,0,0
49309.05,696.17,-1680.8,0,0
49569.375,691.592,-1673.59,0,0
49829.7,686.564,-1667.2,0,0
50090.025,681.878,-1660.46,0,0
50350.35,677.096,-1654.04,0,0
50610.675,672.22,-1647.71,0,0
50871.0,667.403,-1641.25,0,0
51131.325,663.157,-1634.28,0,0
51391.65,658.225,-1628.24,0,0
51651.975,653.301,-1622.33,0,0
51912.3,648.493,-1616.19,0,0
52172.625,643.881,-1609.96,0,0
52432.95,639.071,-1603.89,0,0
52693.275,634.59,-1597.5,0,0
52953.6,630.392,-1591.02,0,0
53213.925,626.154,-1584.51,0,0
53474.25,621.454,-1578.88,0,0
53734.575,617.253,-1572.57,0,0
53994.9,612.894,-1566.54,0,0
54255.225,608.862,-1560.25,0,0
54515.55,604.678,-1554.25,0,0
54775.875,600.922,-1547.77,0,0
55036.2,596.165,-1542.48,0,0
55296.525,592.858,-1535.77,0,0
55556.85,588.6,-1530.46,0,0
55817.175,584.934,-1524.57,0,0
56077.5,581.25,-1518.82,0,0
56337.825,577.437,-1513.41,0,0
56598.15,573.912,-1507.78,0,0
56858.475,570.855,-1501.76,0,0
57118.8,566.949,-1496.51,0,0
57379.125,563.281,-1490.95,0,0
57639.45,558.967,-1486.18,0,0
57899.775,555.425,-1480.68,0,0
58160.1,552.458,-1475.67,0,0
58420.4,548.69,-1470.34,0,0
58680.7,545.113,-1465.03,0,0
58941.1,541.221,-1459.97,0,0
59201.4,537.389,-1454.67,0,0
59461.7,533.334,-1449.71,0,0
59722,530.077,-1444,0,0
59982.4,526.83,-1438.74,0,0
60242.7,523.154,-1433.47,0,0
60503,519.828,-1427.83,0,0
60763.3,516.356,-1422.5,0,0
61023.7,513.249,-1416.88,0,0
61284,510.333,-1411.31,0,0
61544.3,506.732,-1406.52,0,0
61804.6,503.583,-1401.21,0,0
62065,500.634,-1395.71,0,0
62325.3,497.213,-1390.93,0,0
62585.6,494.309,-1385.78,0,0
62845.9,491.462,-1380.77,0,0
63106.3,489.248,-1375.32,0,0
63366.6,486.516,-1370.26,0,0
63626.9,483.561,-1365.68,0,0
63887.2,480.863,-1360.75,0,0
64147.6,477.689,-1356.44,0,0
64407.9,474.651,-1351.78,0,0
64668.2,471.992,-1347.01,0,0
64928.5,469.111,-1342.27,0,0
65188.9,466.743,-1337.17,0,0
65449.2,463.241,-1332.96,0,0
65709.5,460.462,-1328,0,0
65969.8,457.888,-1323.07,0,0
66230.2,455.242,-1318.24,0,0
66490.5,452.467,-1313.48,0,0
66750.8,450.034,-1308.6,0,0
67011.1,447.596,-1303.88,0,0
67271.5,445.217,-1299.42,0,0
67531.8,442.507,-1294.83,0,0
67792.1,440.329,-1290.37,0,0
68052.4,437.817,-1286.12,0,0
68312.8,435.251,-1281.83,0,0
68573.1,432.805,-1277.34,0,0
68833.4,430.365,-1272.92,0,0
69093.7,428.582,-1268.01,0,0
69354.1,426.532,-1263.54,0,0
69614.4,424.378,-1258.96,0,0
69874.7,422.183,-1254.57,0,0
70135,420.321,-1250.37,0,0
70395.4,418.03,-1246.54,0,0
70655.7,415.885,-1242.45,0,0
70916,413.421,-1238.42,0,0
71176.3,411.385,-1234.05,0,0
71436.7,409.425,-1230.02,0,0
71697,407.119,-1226.23,0,0
71957.3,405.088,-1221.96,0,0
72217.6,403.086,-1217.81,0,0
72478,401.159,-1213.75,0,0
72738.3,399.214,-1209.68,0,0
72998.6,397.052,-1205.73,0,0
73258.9,395.099,-1201.8,0,0
73519.3,393.288,-1197.78,0,0
73779.6,391.872,-1193.53,0,0
74039.9,390.124,-1189.66,0,0
74300.225,388.451,-1186.55,0,0
74560.55,386.866,-1182.68,0,0
74820.875,384.402,-1179.49,0,0
75081.2,382.404,-1175.91,0,0
75341.525,380.392,-1172.25,0,0
75601.85,378.314,-1168.49,0,0
75862.175,376.086,-1164.88,0,0
76122.5,373.531,-1161.62,0,0
76382.825,371.467,-1157.86,0,0
76643.15,369.618,-1153.99,0,0
76903.475,367.444,-1150.45,0,0
77163.8,365.781,-1146.35,0,0
77424.125,363.661,-1142.62,0,0
77684.45,361.848,-1138.8,0,0
77944.775,359.933,-1135.07,0,0
78205.1,358.002,-1131.49,0,0
78465.425,356.129,-1127.93,0,0
78725.75,354.428,-1124.12,0,0
78986.075,352.717,-1120.43,0,0
79246.4,350.731,-1117.08,0,0
79506.725,349.201,-1113.39,0,0
79767.05,347.488,-1109.92,0,0
80027.375,345.647,-1106.72,0,0
80287.7,343.695,-1103.3,0,0
80548.025,341.677,-1099.88,0,0
80808.35,340.381,-1096.05,0,0
81068.675,338.08,-1093.03,0,0
81329.0,336.208,-1089.6,0,0
81589.325,334.723,-1085.83,0,0
81849.65,332.559,-1082.54,0,0
82109.975,331.063,-1078.76,0,0
82370.3,329.134,-1075.39,0,0
82630.625,327.413,-1071.73,0,0
82890.95,325.882,-1068.03,0,0
83151.275,324.143,-1064.49,0,0
83411.6,321.875,-1061.43,0,0
83671.925,320.525,-1057.6,0,0
83932.25,318.833,-1054.12,0,0
84192.575,317.302,-1050.61,0,0
84452.9,316.112,-1047,0,0
84713.225,314.571,-1043.52,0,0
84973.55,312.718,-1040.4,0,0
85233.875,311.413,-1036.91,0,0
85494.2,310.136,-1033.42,0,0
85754.525,308.424,-1030.31,0,0
86014.85,306.853,-1027.04,0,0
86275.175,305.312,-1023.78,0,0
86535.5,303.895,-1020.37,0,0
86795.825,302.127,-1017.22,0,0
87056.15,300.593,-1013.8,0,0
87316.475,298.817,-1010.52,0,0
87576.8,297.183,-1007.09,0,0
87837.125,295.721,-1003.56,0,0
88097.45,294.522,-999.949,0,0
88357.775,292.879,-996.483,0,0
88618.1,291.832,-992.755,0,0
88878.425,290.477,-989.404,0,0
89138.75,289.534,-985.864,0,0
89399.075,288.282,-982.459,0,0
89659.4,287.356,-979.047,0,0
89919.725,286.275,-976.036,0,0
90180,285.767,-972.567,0,0
90440.4,284.711,-969.588,0,0
90700.7,284.054,-966.34,0,0
90961,283.152,-963.307,0,0
91221.3,282.231,-960.221,0,0
91481.7,281.23,-957.379,0,0
91742,280.16,-954.509,0,0
92002.3,278.96,-951.778,0,0
92262.6,277.809,-949.082,0,0
92523,276.466,-946.288,0,0
92783.3,275.046,-943.675,0,0
93043.6,273.957,-940.656,0,0
93303.9,272.507,-937.923,0,0
93564.3,271.517,-934.871,0,0
93824.6,270.276,-931.888,0,0
94084.9,268.598,-929.042,0,0
94345.2,267.547,-925.855,0,0
94605.6,266.36,-922.886,0,0
94865.9,265.063,-919.986,0,0
95126.2,264.25,-916.776,0,0
95386.5,262.985,-913.991,0,0
95646.9,262.086,-910.888,0,0
95907.2,261.103,-907.874,0,0
96167.5,259.98,-905.018,0,0
96427.8,258.565,-902.369,0,0
96688.2,257.457,-899.388,0,0
96948.5,256.286,-896.512,0,0
97208.8,255.112,-893.605,0,0
97469.1,253.895,-890.655,0,0
97729.5,252.891,-887.557,0,0
97989.8,252.134,-884.399,0,0
98250.1,250.999,-881.44,0,0
98510.4,249.871,-878.482,0,0
98770.8,248.713,-875.557,0,0
99031.1,247.626,-872.712,0,0
99291.4,246.808,-869.677,0,0
99551.7,245.822,-866.782,0,0
99812.1,245.037,-863.828,0,0
100072,244.302,-860.768,0,0
100333,243.525,-857.974,0,0
100593,242.864,-855.265,0,0
100853,242.219,-852.5,0,0
101114,241.329,-849.965,0,0
101374,240.675,-847.262,0,0
101634,239.73,-844.736,0,0
101895,239.026,-842.026,0,0
102155,238.018,-839.564,0,0
102415,237.095,-836.977,0,0
102676,236.221,-834.302,0,0
102936,235.282,-831.639,0,0
103196,234.251,-829.075,0,0
103457,233.212,-826.549,0,0
103717,232.293,-823.854,0,0
103977,231.524,-821.119,0,0
104238,230.569,-818.543,0,0
104498,229.598,-815.97,0,0
104758,228.816,-813.365,0,0
105019,227.92,-810.736,0,0
105279,226.893,-808.175,0,0
105539,226.078,-805.405,0,0
105800,224.996,-802.752,0,0
106060,223.828,-800.034,0,0
106320.175,222.787,-797.416,0,0
106580.5,221.935,-794.572,0,0
106840.825,221.013,-791.745,0,0
107101.15,220.13,-788.937,0,0
107361.475,219.395,-786.054,0,0
107621.8,218.473,-783.325,0,0
107882.125,217.643,-780.52,0,0
108142.45,216.855,-777.737,0,0
108402.775,216.173,-774.941,0,0
108663.1,215.499,-772.193,0,0
108923.425,214.608,-769.563,0,0
109183.75,213.893,-766.837,0,0
109444.075,213.145,-764.115,0,0
109704.4,212.479,-761.352,0,0
109964.725,211.464,-758.746,0,0
110225.05,210.887,-755.906,0,0
110485.375,210.171,-753.253,0,0
110745.7,209.472,-750.382,0,0
111006.025,208.857,-747.633,0,0
111266.35,208.028,-744.956,0,0
111526.675,207.324,-742.206,0,0
111787.0,206.848,-739.247,0,0
112047.325,205.945,-736.532,0,0
112307.65,205.277,-733.728,0,0
112567.975,205.283,-730.554,0,0
112828.3,204.588,-728.051,0,0
113088.625,203.988,-725.283,0,0
113348.95,203.709,-722.505,0,0
113609.275,203.101,-720.021,0,0
113869.6,202.651,-717.123,0,0
114129.925,202.222,-714.516,0,0
114390.25,201.901,-711.938,0,0
114650.575,201.307,-709.477,0,0
114910.9,200.717,-706.882,0,0
115171.225,200.154,-704.114,0,0
115431.55,199.66,-701.242,0,0
115691.875,199.403,-698.291,0,0
115952.2,198.704,-695.91,0,0
116212.525,198.293,-693.365,0,0
116472.85,197.929,-690.52,0,0
116733.175,197.53,-687.698,0,0
116993.5,197.184,-684.957,0,0
117253.825,197.257,-682.063,0,0
117514.15,196.757,-679.664,0,0
117774.475,196.576,-676.957,0,0
118034.8,196.425,-674.334,0,0
118295.125,196.268,-671.886,0,0
118555.45,196.09,-669.496,0,0
118815.775,195.937,-666.961,0,0
119076.1,195.671,-664.574,0,0
119336.425,195.41,-662.226,0,0
119596.75,195.282,-659.866,0,0
119857.075,194.989,-657.622,0,0
120117.4,194.663,-655.297,0,0
120377.725,194.524,-652.826,0,0
120638.05,194,-650.644,0,0
120898.375,193.924,-648.118,0,0
121158.7,193.471,-645.877,0,0
121419.025,193.131,-643.604,0,0
121679.35,192.73,-641.288,0,0
121939.675,192.39,-638.863,0,0
122200.0,192.044,-636.502,0,0
122460,191.558,-634.38,0,0
122721,191.004,-632.071,0,0
122981,190.444,-629.62,0,0
123241,189.899,-627.111,0,0
123502,189.403,-624.541,0,0
123762,188.921,-621.985,0,0
124022,188.491,-619.343,0,0
124283,188.15,-616.671,0,0
124543,187.842,-614.037,0,0
124803,187.698,-611.327,0,0
125064,187.547,-608.64,0,0
125324,187.532,-606.125,0,0
125584,187.41,-603.722,0,0
125845,187.183,-601.396,0,0
126105,186.95,-599.023,0,0
126365,186.713,-596.669,0,0
126626,186.616,-594.264,0,0
126886,186.258,-592.009,0,0
127146,186.066,-589.656,0,0
127406,185.862,-587.172,0,0
127667,185.507,-584.989,0,0
127927,185.172,-582.625,0,0
128187,184.868,-580.201,0,0
128448,184.517,-577.804,0,0
128708,184.149,-575.423,0,0
128968,183.789,-572.976,0,0
129229,183.449,-570.509,0,0
129489,183.078,-568.015,0,0
129749,182.66,-565.533,0,0
130010,182.291,-562.966,0,0
130270,181.899,-560.418,0,0
130530,181.461,-557.846,0,0
130791,181.029,-555.209,0,0
131051,180.562,-552.513,0,0
131311,180.195,-549.708,0,0
131572,179.805,-546.896,0,0
131832,179.482,-543.994,0,0
132092,179.214,-541.133,0,0
132353,179.015,-538.151,0,0
132613,178.823,-535.252,0,0
132873,178.712,-532.366,0,0
133134,178.645,-529.393,0,0
133394,178.574,-526.422,0,0
133654,178.508,-523.451,0,0
133915,178.584,-520.472,0,0
134175,178.619,-517.542,0,0
134435,178.743,-514.599,0,0
134696,178.925,-511.675,0,0
134956,179,-508.784,0,0
135216,179.135,-505.799,0,0
135477,179.295,-502.834,0,0
135737,179.492,-499.829,0,0
135997,179.797,-496.827,0,0
136258,180.114,-493.81,0,0
136518,180.543,-490.788,0,0
136778,180.992,-487.83,0,0
137039,181.485,-484.941,0,0
137299,182.087,-482.12,0,0
137559,182.568,-479.277,0,0
137819,183.109,-476.474,0,0
138080,183.651,-473.633,0,0
138340.125,184.342,-470.946,0,0
138600.45,184.924,-468.18,0,0
138860.775,185.46,-465.68,0,0
139121.1,185.988,-462.995,0,0
139381.425,186.516,-460.355,0,0
139641.75,186.988,-457.684,0,0
139902.075,187.506,-455.021,0,0
140162.4,187.983,-452.309,0,0
140422.725,188.541,-449.687,0,0
140683.05,189.041,-447.11,0,0
140943.375,189.567,-444.485,0,0
141203.7,189.989,-441.806,0,0
141464.025,190.449,-439.124,0,0
141724.35,190.972,-436.347,0,0
141984.675,191.516,-433.674,0,0
142245.0,192.061,-430.994,0,0
142505.325,192.493,-428.341,0,0
142765.65,193.049,-425.546,0,0
143025.975,193.547,-422.804,0,0
143286.3,194.099,-420.135,0,0
143546.625,194.534,-417.415,0,0
143806.95,195.01,-414.645,0,0
144067.275,195.466,-411.732,0,0
144327.6,195.895,-408.936,0,0
144587.925,196.447,-405.98,0,0
144848.25,197.011,-403.045,0,0
145108.575,197.423,-400.155,0,0
145368.9,198.043,-397.075,0,0
145629.225,198.599,-394.021,0,0
145889.55,199.249,-391.016,0,0
146149.875,199.895,-387.982,0,0
146410.2,200.555,-384.833,0,0
146670.525,201.196,-381.56,0,0
146930.85,201.981,-378.312,0,0
147191.175,202.905,-375.045,0,0
147451.5,203.734,-371.896,0,0
147711.825,204.693,-368.528,0,0
147972.15,205.655,-365.374,0,0
148232.475,206.662,-362.194,0,0
148492.8,207.631,-358.977,0,0
148753.125,208.581,-355.718,0,0
149013.45,209.552,-352.382,0,0
149273.775,210.597,-348.967,0,0
149534.1,211.668,-345.568,0,0
149794.425,212.746,-342.145,0,0
150054.75,213.789,-338.537,0,0
150315.075,214.982,-334.815,0,0
150575.4,216.386,-331.012,0,0
150835.725,217.906,-327.261,0,0
151096.05,219.515,-323.489,0,0
151356.375,221.211,-319.724,0,0
151616.7,223.014,-315.997,0,0
151877.025,224.917,-312.31,0,0
152137.35,226.812,-308.609,0,0
152397.675,228.839,-304.919,0,0
152658.0,230.995,-300.942,0,0
152918.325,233.329,-297.143,0,0
153178.65,235.806,-293.406,0,0
153438.975,238.314,-289.867,0,0
153699.3,240.854,-286.264,0,0
153959.625,243.48,-282.66,0,0
154219.95,246.209,-279.038,0,0
154480,249.146,-275.37,0,0
154741,252.195,-271.869,0,0
155001,255.313,-268.45,0,0
155261,258.556,-265.144,0,0
155522,261.873,-261.884,0,0
155782,265.283,-258.719,0,0
156042,268.778,-255.697,0,0
156303,272.333,-252.772,0,0
156563,275.998,-250.023,0,0
156823,279.739,-247.456,0,0
157084,283.31,-245.103,0,0
157344,286.749,-242.855,0,0
157604,290.008,-240.554,0,0
157864,293.193,-238.094,0,0
158125,296.532,-235.614,0,0
158385,299.905,-233.027,0,0
158645,303.381,-230.447,0,0
158906,306.955,-227.899,0,0
159166,310.723,-225.327,0,0
159426,314.614,-222.743,0,0
159687,318.643,-220.393,0,0
159947,322.652,-218.103,0,0
160207,326.781,-215.975,0,0
160468,330.95,-213.856,0,0
160728,335.269,-211.765,0,0
160988,339.696,-209.839,0,0
161249,344.093,-207.999,0,0
161509,348.563,-206.307,0,0
161769,353.181,-204.77,0,0
162030,357.81,-203.41,0,0
162290,362.442,-202.146,0,0
162550,367.002,-201.109,0,0
162811,371.655,-200.125,0,0
163071,376.406,-199.335,0,0
163331,381.133,-198.774,0,0
163592,385.663,-198.362,0,0
163852,390.155,-198.193,0,0
164112,394.465,-198.031,0,0
164373,398.746,-198.081,0,0
164633,402.818,-198.123,0,0
164893,406.795,-198.196,0,0
165154,410.612,-198.181,0,0
165414,414.487,-198.256,0,0
165674,418.365,-198.393,0,0
165935,422.094,-198.512,0,0
166195,425.833,-198.672,0,0
166455,429.396,-198.782,0,0
166716,432.954,-198.848,0,0
166976,436.682,-199.053,0,0
167236,440.424,-199.183,0,0
167497,444.051,-199.432,0,0
167757,447.704,-199.82,0,0
168017,451.192,-200.196,0,0
168277,454.586,-200.51,0,0
168538,458.038,-200.919,0,0
168798,461.392,-201.227,0,0
169058,464.722,-201.565,0,0
169319,468.174,-201.864,0,0
169579,471.489,-202.171,0,0
169839,475.065,-202.459,0,0
170100,478.517,-202.79,0,0
170360.075,482.075,-203.203,0,0
170620.4,485.642,-203.758,0,0
170880.725,489.147,-204.396,0,0
171141.05,492.737,-205.27,0,0
171401.375,496.008,-206.032,0,0
171661.7,499.239,-206.816,0,0
171922.025,502.436,-207.515,0,0
172182.35,505.762,-208.329,0,0
172442.675,509.114,-209.227,0,0
172703.0,512.209,-210.157,0,0
172963.325,515.247,-211.134,0,0
173223.65,518.293,-212.144,0,0
173483.975,521.089,-213.099,0,0
173744.3,523.983,-214.003,0,0
174004.625,526.693,-214.76,0,0
174264.95,529.5,-215.424,0,0
174525.275,532.239,-216.168,0,0
174785.6,534.999,-216.644,0,0
175045.925,537.97,-217.28,0,0
175306.25,541.013,-217.885,0,0
175566.575,543.995,-218.415,0,0
175826.9,547.104,-219.04,0,0
176087.225,550.132,-219.82,0,0
176347.55,553.261,-220.423,0,0
176607.875,556.327,-220.984,0,0
176868.2,559.652,-221.703,0,0
177128.525,562.942,-222.496,0,0
177388.85,566.292,-223.374,0,0
177649.175,569.633,-224.404,0,0
177909.5,572.911,-225.446,0,0
178169.825,576.142,-226.593,0,0
178430.15,579.371,-227.767,0,0
178690.475,582.499,-228.961,0,0
178950.8,585.513,-230.245,0,0
179211.125,588.48,-231.543,0,0
179471.45,591.446,-232.743,0,0
179731.775,594.287,-233.904,0,0
179992.1,597.253,-235.184,0,0
180252.425,599.992,-236.202,0,0
180512.75,602.869,-237.346,0,0
180773.075,605.747,-238.288,0,0
181033.4,608.694,-239.206,0,0
181293.725,611.664,-239.941,0,0
181554.05,614.985,-240.788,0,0
181814.375,618.297,-241.582,0,0
182074.7,621.668,-242.479,0,0
182335.025,625.181,-243.392,0,0
182595.35,628.868,-244.608,0,0
182855.675,632.61,-245.894,0,0
183116.0,636.168,-247.239,0,0
183376.325,639.819,-248.741,0,0
183636.65,643.449,-250.406,0,0
183896.975,647.002,-252.07,0,0
184157.3,650.495,-253.839,0,0
184417.625,654,-255.731,0,0
184677.95,657.38,-257.767,0,0
184938.275,660.609,-259.533,0,0
185198.6,663.759,-261.474,0,0
185458.925,667.023,-263.32,0,0
185719.25,670.122,-265.02,0,0
185979.575,673.443,-266.778,0,0
186239.9,676.621,-268.414,0,0
186500,679.755,-269.887,0,0
186761,683.018,-271.502,0,0
187021,686.43,-273.066,0,0
187281,689.879,-274.588,0,0
187542,693.283,-275.908,0,0
187802,696.751,-277.077,0,0
188062,700.665,-278.442,0,0
188322,704.766,-279.803,0,0
188583,708.941,-281.152,0,0
188843,713.373,-282.633,0,0
189103,717.973,-284.2,0,0
189364,722.693,-285.912,0,0
189624,727.69,-287.86,0,0
189884,732.802,-289.884,0,0
190145,738.002,-292.041,0,0
190405,743.475,-294.523,0,0
190665,748.844,-296.986,0,0
190926,754.64,-299.809,0,0
191186,760.383,-302.864,0,0
191446,766.333,-306.356,0,0
191707,772.184,-309.902,0,0
191967,778.007,-313.718,0,0
192227,784.048,-317.941,0,0
192488,790.158,-322.552,0,0
192748,795.97,-327.231,0,0
193008,802.227,-332.614,0,0
193269,808.201,-338.189,0,0
193529,813.914,-343.896,0,0
193789,819.71,-350.087,0,0
194050,825.471,-356.794,0,0
194310,830.923,-363.593,0,0
194570,836.253,-370.805,0,0
194831,841.323,-377.969,0,0
195091,846.223,-385.616,0,0
195351,851.001,-393.559,0,0
195612,855.471,-401.718,0,0
195872,859.877,-410.157,0,0
196132,863.92,-418.928,0,0
196393,867.666,-427.901,0,0
196653,871.22,-437.251,0,0
196913,874.154,-446.569,0,0
197174,876.856,-456.145,0,0
197434,878.66,-465.123,0,0
197694,881.148,-475.668,0,0
197955,882.843,-485.792,0,0
198215,884.465,-496.182,0,0
198475,885.258,-506.418,0,0
198735,885.778,-516.673,0,0
198996,885.849,-526.634,0,0
199256,885.914,-537.382,0,0
199516,885.451,-547.476,0,0
199777,884.526,-557.562,0,0
200037,883.319,-567.419,0,0
200297,882.181,-578.508,0,0
200558,880.145,-588.473,0,0
200818,878.041,-598.625,0,0
201078,875.225,-608.213,0,0
201339,872.446,-618.134,0,0
201599,869.256,-628.191,0,0
201859,865.785,-637.863,0,0
202120,861.877,-647.524,0,0
202380.025,857.974,-656.812,0,0
202640.35,853.578,-666.321,0,0
202900.675,848.824,-675.554,0,0
203161.0,844.191,-684.584,0,0
203421.325,838.804,-693.249,0,0
203681.65,833.008,-701.606,0,0
203941.975,827.311,-709.571,0,0
204202.3,821.461,-718.121,0,0
204462.625,815.264,-725.787,0,0
204722.95,808.646,-733.422,0,0
204983.275,802.163,-740.726,0,0
205243.6,795.499,-747.593,0,0
205503.925,788.342,-754.467,0,0
205764.25,781.257,-761.232,0,0
206024.575,774.053,-767.347,0,0
206284.9,766.59,-773.052,0,0
206545.225,758.846,-778.941,0,0
206805.55,751.313,-784.163,0,0
207065.875,743.633,-789.508,0,0
207326.2,735.816,-794.466,0,0
207586.525,728.018,-798.385,0,0
207846.85,720.221,-802.951,0,0
208107.175,712.321,-807.126,0,0
208367.5,704.473,-810.792,0,0
208627.825,696.612,-814.324,0,0
208888.15,688.594,-817.475,0,0
209148.475,680.826,-820.444,0,0
209408.8,672.867,-823.399,0,0
209669.125,665.008,-825.82,0,0
209929.45,657.254,-827.8,0,0
210189.775,649.433,-830.473,0,0
210450.1,641.675,-832.428,0,0
210710.425,633.708,-834.202,0,0
210970.75,626.246,-835.414,0,0
211231.075,618.556,-836.875,0,0
211491.4,610.994,-837.89,0,0
211751.725,603.404,-838.93,0,0
212012.05,596.078,-839.498,0,0
212272.375,588.836,-839.635,0,0
212532.7,581.67,-840.079,0,0
212793.025,574.573,-840.084,0,0
213053.35,567.561,-840.135,0,0
213313.675,560.615,-839.959,0,0
213574.0,553.897,-839.496,0,0
213834.325,547.208,-838.959,0,0
214094.65,540.415,-838.562,0,0
214354.975,533.893,-837.849,0,0
214615.3,527.557,-836.921,0,0
214875.625,521.186,-836.261,0,0
215135.95,515.017,-834.998,0,0
215396.275,508.851,-833.939,0,0
215656.6,502.751,-832.737,0,0
215916.925,496.986,-830.918,0,0
216177.25,491.167,-829.583,0,0
216437.575,485.529,-827.89,0,0
216697.9,480.103,-826.144,0,0
216958.225,474.576,-824.467,0,0
217218.55,469.175,-822.67,0,0
217478.875,463.855,-820.857,0,0
217739.2,458.687,-818.817,0,0
217999.525,453.601,-816.743,0,0
218259.85,448.417,-814.817,0,0
218520,443.785,-812.551,0,0
218780,438.83,-810.325,0,0
219041,434.244,-807.836,0,0
219301,429.635,-805.244,0,0
219561,424.968,-802.984,0,0
219822,420.706,-800.374,0,0
220082,416.157,-797.565,0,0
220342,412.339,-794.846,0,0
220603,408.142,-792.161,0,0
220863,404.276,-789.107,0,0
221123,400.4,-786.166,0,0
221384,396.754,-783.347,0,0
221644,393.252,-780.314,0,0
221904,389.818,-777.377,0,0
222165,386.653,-774.293,0,0
222425,383.33,-771.232,0,0
222685,380.156,-768.362,0,0
222946,377.346,-765.294,0,0
223206,374.473,-762.182,0,0
223466,372.085,-758.98,0,0
223727,369.303,-756.109,0,0
223987,366.884,-753.245,0,0
224247,364.53,-749.987,0,0
224508,362.318,-746.92,0,0
224768,360.231,-743.913,0,0
225028,358.08,-740.951,0,0
225289,356.226,-738.065,0,0
225549,354.485,-735.046,0,0
225809,352.563,-732.216,0,0
226070,351.048,-729.313,0,0
226330,349.397,-726.426,0,0
226590,347.881,-723.544,0,0
226851,346.529,-720.976,0,0
227111,345.185,-718.135,0,0
227371,344.11,-715.361,0,0
227632,342.956,-712.73,0,0
227892,341.714,-710.235,0,0
228152,340.672,-707.617,0,0
228413,339.762,-705.129,0,0
228673,338.938,-702.622,0,0
228933,338.038,-700.186,0,0
229193,337.344,-697.692,0,0
229454,336.725,-695.192,0,0
229714,336.116,-692.884,0,0
229974,335.378,-690.715,0,0
230235,334.857,-688.351,0,0
230495,334.111,-686.374,0,0
230755,333.68,-684.209,0,0
231016,333.219,-682.072,0,0
231276,332.807,-680.046,0,0
231536,332.499,-677.843,0,0
231797,332.129,-675.92,0,0
232057,331.938,-673.855,0,0
232317,331.651,-671.91,0,0
232578,331.425,-670.099,0,0
232838,331.134,-668.424,0,0
233098,331.056,-666.592,0,0
233359,330.976,-664.789,0,0
233619,330.891,-663.12,0,0
233879,330.961,-661.356,0,0
234140,330.892,-659.901,0,0
234400,331.149,-658.114,0,0
234660.3,331.184,-656.568,0,0
234920.625,331.335,-655.077,0,0
235180.95,331.556,-653.7,0,0
235441.275,331.689,-652.414,0,0
235701.6,332,-651.026,0,0
235961.925,332.376,-649.608,0,0
236222.25,332.689,-648.442,0,0
236482.575,333.152,-647.171,0,0
236742.9,333.482,-646.085,0,0
237003.225,333.933,-645.054,0,0
237263.55,334.307,-644.188,0,0
237523.875,334.799,-643.3,0,0
237784.2,335.321,-642.464,0,0
238044.525,335.894,-641.653,0,0
238304.85,336.452,-641.002,0,0
238565.175,336.921,-640.453,0,0
238825.5,337.392,-639.912,0,0
239085.825,338.02,-639.376,0,0
239346.15,338.583,-638.957,0,0
239606.475,338.96,-638.728,0,0
239866.8,339.424,-638.626,0,0
240127.125,339.779,-638.351,0,0
240387.45,340.315,-638.134,0,0
240647.775,340.633,-638.214,0,0
240908.1,340.963,-638.231,0,0
241168.425,341.411,-638.167,0,0
241428.75,341.684,-638.302,0,0
241689.075,341.633,-638.71,0,0
241949.4,341.851,-638.932,0,0
242209.725,341.906,-639.361,0,0
242470.05,342.034,-639.642,0,0
242730.375,342.017,-639.912,0,0
242990.7,341.975,-640.291,0,0
243251.025,341.841,-640.797,0,0
243511.35,341.642,-641.287,0,0
243771.675,341.317,-641.886,0,0
244032.0,340.986,-642.2,0,0
244292.325,340.627,-642.638,0,0
244552.65,340.194,-643.167,0,0
244812.975,339.486,-643.634,0,0
245073.3,338.973,-643.955,0,0
245333.625,338.296,-644.322,0,0
245593.95,337.651,-644.759,0,0
245854.275,336.783,-645.045,0,0
246114.6,335.959,-645.216,0,0
246374.925,335.184,-645.281,0,0
246635.25,334.185,-645.531,0,0
246895.575,333.151,-645.651,0,0
247155.9,332.073,-645.663,0,0
247416.225,331.118,-645.509,0,0
247676.55,330.097,-645.335,0,0
247936.875,329.059,-644.781,0,0
248197.2,328.079,-644.292,0,0
248457.525,327.264,-643.538,0,0
248717.85,326.531,-642.698,0,0
248978.175,325.712,-641.843,0,0
249238.5,325.433,-640.641,0,0
249498.825,325.195,-639.232,0,0
249759.15,325.323,-638.041,0,0
250019.475,325.673,-636.78,0,0
250279.8,326.495,-635.65,0,0
250540,327.611,-634.739,0,0
250800,328.843,-634.05,0,0
251061,330.376,-633.697,0,0
251321,332.25,-633.542,0,0
251581,334.099,-634.016,0,0
251842,336.001,-634.805,0,0
252102,337.919,-635.904,0,0
252362,339.455,-637.798,0,0
252623,340.998,-639.695,0,0
252883,342.107,-642.048,0,0
253143,342.92,-644.559,0,0
253404,343.452,-647.368,0,0
253664,343.754,-650.108,0,0
253924,343.728,-652.952,0,0
254185,343.413,-655.842,0,0
254445,342.661,-658.827,0,0
254705,342.013,-661.703,0,0
254966,340.585,-664.551,0,0
255226,339.234,-667.419,0,0
255486,337.464,-670.222,0,0
255747,335.513,-672.933,0,0
256007,333.383,-675.281,0,0
256267,331.111,-677.662,0,0
256528,328.612,-679.806,0,0
256788,325.968,-681.899,0,0
257048,323.28,-683.703,0,0
257309,320.47,-685.439,0,0
257569,317.581,-686.972,0,0
257829,314.621,-688.244,0,0
258090,311.62,-689.534,0,0
258350,308.55,-690.538,0,0
258610,305.561,-691.357,0,0
258871,302.494,-692.047,0,0
259131,299.601,-692.507,0,0
259391,296.322,-693.136,0,0
259651,293.294,-693.349,0,0
259912,290.443,-693.376,0,0
260172,287.267,-693.587,0,0
260432,284.38,-693.619,0,0
260693,281.482,-693.452,0,0
260953,278.834,-693.153,0,0
261213,275.848,-693.034,0,0
261474,273.072,-692.663,0,0
261734,270.368,-692.259,0,0
261994,267.758,-691.727,0,0
262255,265.053,-691.219,0,0
262515,262.448,-690.629,0,0
262775,260.011,-689.915,0,0
263036,257.532,-689.179,0,0
263296,255.212,-688.373,0,0
263556,252.834,-687.626,0,0
263817,250.496,-686.799,0,0
264077,248.196,-686.04,0,0
264337,245.875,-685.142,0,0
264598,243.709,-684.313,0,0
264858,241.65,-683.079,0,0
265118,239.773,-682.028,0,0
265379,237.759,-680.995,0,0
265639,235.882,-679.967,0,0
265899,233.986,-678.919,0,0
266160,232.218,-677.794,0,0
266420,230.224,-676.862,0,0
266680.25,228.535,-675.828,0,0
266940.575,226.758,-674.812,0,0
267200.9,225.082,-673.807,0,0
267461.225,223.315,-672.86,0,0
267721.55,221.785,-671.782,0,0
267981.875,220.146,-670.836,0,0
268242.2,218.571,-669.855,0,0
268502.525,217.059,-668.876,0,0
268762.85,215.554,-667.853,0,0
269023.175,213.908,-666.971,0,0
269283.5,212.487,-665.956,0,0
269543.825,210.862,-665.117,0,0
269804.15,209.467,-664.142,0,0
270064.475,207.864,-663.334,0,0
270324.8,206.275,-662.49,0,0
270585.125,204.727,-661.434,0,0
270845.45,203.158,-660.537,0,0
271105.775,201.611,-659.606,0,0
271366.1,200.141,-658.457,0,0
271626.425,198.606,-657.467,0,0
271886.75,196.847,-656.546,0,0
272147.075,195.42,-655.512,0,0
272407.4,193.768,-654.376,0,0
272667.725,192.448,-653.147,0,0
272928.05,190.854,-652.092,0,0
273188.375,189.744,-650.669,0,0
273448.7,187.545,-649.964,0,0
273709.025,186.054,-648.788,0,0
273969.35,184.597,-647.555,0,0
274229.675,182.942,-646.405,0,0
274490.0,181.447,-645.2,0,0
274750.325,180.07,-644.02,0,0
275010.65,178.667,-642.622,0,0
275270.975,177.237,-641.286,0,0
275531.3,175.832,-639.959,0,0
275791.625,174.204,-638.726,0,0
276051.95,172.92,-637.344,0,0
276312.275,171.52,-635.956,0,0
276572.6,170.173,-634.55,0,0
276832.925,168.996,-633.006,0,0
277093.25,167.676,-631.552,0,0
277353.575,166.424,-630.047,0,0
277613.9,165.248,-628.473,0,0
277874.225,164.066,-626.94,0,0
278134.55,162.927,-625.362,0,0
278394.875,161.778,-623.801,0,0
278655.2,160.753,-622.194,0,0
278915.525,159.808,-620.514,0,0
279175.85,158.856,-618.887,0,0
279436.175,157.874,-617.358,0,0
279696.5,157.308,-615.548,0,0
279956.825,156.619,-613.886,0,0
280217.15,155.987,-612.221,0,0
280477.475,155.339,-610.647,0,0
280737.8,154.838,-609.039,0,0
280998.125,154.28,-607.533,0,0
281258.45,153.943,-605.954,0,0
281518.775,153.456,-604.565,0,0
281779.1,153.084,-603.159,0,0
282039.425,152.653,-601.853,0,0
282299.75,152.304,-600.541,0,0
282560,152.051,-599.299,0,0
282820,151.699,-598.07,0,0
283081,151.187,-596.989,0,0
283341,151.173,-595.622,0,0
283601,150.834,-594.516,0,0
283862,150.566,-593.366,0,0
284122,150.264,-592.237,0,0
284382,149.966,-591.177,0,0
284643,149.434,-590.216,0,0
284903,149.071,-589.202,0,0
285163,148.707,-588.084,0,0
285424,148.401,-587.112,0,0
285684,147.936,-586.15,0,0
285944,147.546,-585.164,0,0
286205,147.283,-584.117,0,0
286465,146.822,-583.216,0,0
286725,146.507,-582.184,0,0
286986,146.235,-581.176,0,0
287246,145.882,-580.235,0,0
287506,145.631,-579.274,0,0
287767,145.357,-578.347,0,0
288027,145.131,-577.423,0,0
288287,144.604,-576.738,0,0
288548,144.392,-575.855,0,0
288808,144.127,-575.014,0,0
289068,143.847,-574.264,0,0
289329,143.699,-573.434,0,0
289589,143.29,-572.775,0,0
289849,142.799,-572.127,0,0
290109,142.689,-571.279,0,0
290370,142.307,-570.591,0,0
290630,141.897,-569.879,0,0
290890,141.41,-569.24,0,0
291151,140.783,-568.6,0,0
291411,140.13,-568.014,0,0
291671,139.607,-567.291,0,0
291932,139.074,-566.546,0,0
292192,138.415,-565.859,0,0
292452,137.699,-565.195,0,0
292713,137.205,-564.363,0,0
292973,136.651,-563.537,0,0
293233,136.145,-562.712,0,0
293494,135.489,-561.932,0,0
293754,134.928,-561.13,0,0
294014,134.273,-560.306,0,0
294275,133.729,-559.447,0,0
294535,133.204,-558.532,0,0
294795,132.666,-557.598,0,0
295056,132.047,-556.742,0,0
295316,131.418,-555.835,0,0
295576,130.828,-554.874,0,0
295837,130.4,-553.849,0,0
296097,129.949,-552.84,0,0
296357,129.473,-551.804,0,0
296618,128.981,-550.819,0,0
296878,128.604,-549.783,0,0
297138,128.364,-548.661,0,0
297399,128.007,-547.662,0,0
297659,127.712,-546.642,0,0
297919,127.471,-545.644,0,0
298180,127.301,-544.638,0,0
298440,127.073,-543.715,0,0
298700.2,127.15,-542.701,0,0
298960.525,127.024,-541.927,0,0
299220.85,126.954,-541.047,0,0
299481.175,126.698,-540.297,0,0
299741.5,124.203,-540.764,0,0
300001.825,126.491,-538.897,0,0
300262.15,126.533,-538.167,0,0
300522.475,126.309,-537.576,0,0
300782.8,126.2,-536.871,0,0
301043.125,125.974,-536.285,0,0
301303.45,125.845,-535.732,0,0
301563.775,125.598,-535.189,0,0
301824.1,125.493,-534.537,0,0
302084.425,125.21,-534.06,0,0
302344.75,124.766,-533.561,0,0
302605.075,124.654,-532.953,0,0
302865.4,124.222,-532.391,0,0
303125.725,123.897,-531.868,0,0
303386.05,123.559,-531.438,0,0
303646.375,123.189,-530.773,0,0
303906.7,122.756,-530.27,0,0
304167.025,122.325,-529.768,0,0
304427.35,121.926,-529.065,0,0
304687.675,121.41,-528.59,0,0
304948.0,121.148,-528.006,0,0
305208.325,120.608,-527.332,0,0
305468.65,120.171,-526.792,0,0
305728.975,119.711,-526.138,0,0
305989.3,119.282,-525.462,0,0
306249.625,118.871,-524.807,0,0
306509.95,118.417,-524.198,0,0
306770.275,117.963,-523.511,0,0
307030.6,117.56,-522.865,0,0
307290.925,117.023,-522.209,0,0
307551.25,116.681,-521.581,0,0
307811.575,116.257,-520.856,0,0
308071.9,115.824,-520.189,0,0
308332.225,115.363,-519.477,0,0
308592.55,114.994,-518.762,0,0
308852.875,114.513,-518.111,0,0
309113.2,114.161,-517.412,0,0
309373.525,113.743,-516.69,0,0
309633.85,113.403,-515.99,0,0
309894.175,112.981,-515.281,0,0
310154.5,112.549,-514.602,0,0
310414.825,112.299,-513.775,0,0
310675.15,111.915,-513.156,0,0
310935.475,111.511,-512.379,0,0
311195.8,111.12,-511.722,0,0
311456.125,110.84,-511.019,0,0
311716.45,110.336,-510.325,0,0
311976.775,110.069,-509.571,0,0
312237.1,109.72,-508.842,0,0
312497.425,109.43,-508.12,0,0
312757.75,109.026,-507.388,0,0
313018.075,108.678,-506.663,0,0
313278.4,108.406,-505.992,0,0
313538.725,107.953,-505.238,0,0
313799.05,107.535,-504.554,0,0
314059.375,107.308,-503.764,0,0
314319.7,106.994,-503.061,0,0
314580,106.757,-502.312,0,0
314840,106.415,-501.617,0,0
315101,106.135,-500.932,0,0
315361,105.796,-500.13,0,0
315621,105.536,-499.471,0,0
315882,105.311,-498.708,0,0
316142,104.981,-498.041,0,0
316402,104.74,-497.31,0,0
316663,104.475,-496.589,0,0
316923,104.153,-495.984,0,0
317183,103.901,-495.2,0,0
317444,103.681,-494.505,0,0
317704,103.344,-493.826,0,0
317964,103.109,-493.138,0,0
318225,102.867,-492.473,0,0
318485,102.692,-491.73,0,0
318745,102.332,-491.078,0,0
319006,102.136,-490.463,0,0
319266,101.885,-489.768,0,0
319526,101.692,-489.095,0,0
319787,101.497,-488.377,0,0
320047,101.283,-487.759,0,0
320307,101.09,-487.191,0,0
320567,100.857,-486.505,0,0
320828,100.706,-485.864,0,0
321088,100.431,-485.238,0,0
321348,100.142,-484.651,0,0
321609,100.03,-483.997,0,0
321869,99.7429,-483.426,0,0
322129,99.553,-482.786,0,0
322390,99.3329,-482.178,0,0
322650,99.0517,-481.606,0,0
322910,98.8756,-481.038,0,0
323171,98.5668,-480.483,0,0
323431,98.2909,-479.862,0,0
323691,98.0709,-479.234,0,0
323952,97.7658,-478.689,0,0
324212,97.4909,-478.114,0,0
324472,97.2142,-477.606,0,0
324733,96.9586,-477.002,0,0
324993,96.6819,-476.424,0,0
325253,96.4134,-475.79,0,0
325514,96.0488,-475.245,0,0
325774,95.8547,-474.591,0,0
326034,95.5765,-474.014,0,0
326295,95.2306,-473.38,0,0
326555,95.0061,-472.757,0,0
326815,94.6209,-472.119,0,0
327076,94.3265,-471.586,0,0
327336,94.037,-470.876,0,0
327596,93.7033,-470.288,0,0
327857,93.5129,-469.667,0,0
328117,93.2187,-468.938,0,0
328377,92.9952,-468.299,0,0
328638,92.6909,-467.62,0,0
328898,92.4644,-466.986,0,0
329158,92.2135,-466.384,0,0
329419,91.9153,-465.66,0,0
329679,91.7133,-465.05,0,0
329939,91.5273,-464.347,0,0
330200,91.1768,-463.684,0,0
330460,91.0444,-463.013,0,0
330720.15,90.7843,-462.441,0,0
330980.475,90.5627,-461.763,0,0
331240.8,90.3269,-461.081,0,0
331501.125,90.1783,-460.398,0,0
331761.45,89.8618,-459.742,0,0
332021.775,89.6351,-459.137,0,0
332282.1,89.4125,-458.43,0,0
332542.425,89.1627,-457.792,0,0
332802.75,89.0624,-457.167,0,0
333063.075,88.7674,-456.53,0,0
333323.4,88.5626,-455.914,0,0
333583.725,88.3809,-455.284,0,0
333844.05,88.1392,-454.693,0,0
334104.375,88.0353,-454.025,0,0
334364.7,87.7917,-453.427,0,0
334625.025,87.5406,-452.826,0,0
334885.35,87.3843,-452.163,0,0
335145.675,87.3228,-451.509,0,0
335406.0,87.0356,-450.932,0,0
335666.325,86.8496,-450.294,0,0
335926.65,86.6533,-449.664,0,0
336186.975,86.5095,-449.069,0,0
336447.3,86.3263,-448.49,0,0
336707.625,86.1266,-447.87,0,0
336967.95,85.9393,-447.313,0,0
337228.275,85.8006,-446.622,0,0
337488.6,85.5901,-446.07,0,0
337748.925,85.4238,-445.389,0,0
338009.25,85.3625,-444.81,0,0
338269.575,85.1233,-444.198,0,0
338529.9,84.9667,-443.592,0,0
338790.225,84.8714,-442.947,0,0
339050.55,84.6536,-442.422,0,0
339310.875,84.4662,-441.791,0,0
339571.2,84.4954,-441.105,0,0
339831.525,84.3967,-440.463,0,0
340091.85,84.2715,-439.89,0,0
340352.175,84.0488,-439.271,0,0
340612.5,83.847,-438.728,0,0
340872.825,83.6665,-438.079,0,0
341133.15,83.6421,-437.475,0,0
341393.475,83.5263,-436.835,0,0
341653.8,83.3595,-436.266,0,0
341914.125,83.1776,-435.713,0,0
342174.45,83.0136,-435.129,0,0
342434.775,82.8549,-434.578,0,0
342695.1,82.8132,-433.938,0,0
342955.425,82.6551,-433.339,0,0
343215.75,82.3666,-432.849,0,0
343476.075,82.2853,-432.199,0,0
343736.4,82.1697,-431.595,0,0
343996.725,82.0809,-431.012,0,0
344257.05,81.8765,-430.437,0,0
344517.375,81.7149,-429.896,0,0
344777.7,81.6428,-429.296,0,0
345038.025,81.3266,-428.745,0,0
345298.35,81.2371,-428.247,0,0
345558.675,81.1437,-427.624,0,0
345819.0,80.9813,-427.047,0,0
346079.325,80.875,-426.513,0,0
346339.65,80.694,-425.969,0,0
346599.975,80.61,-425.34,0,0
346860,80.457,-424.853,0,0
347121,80.3184,-424.28,0,0
347381,80.0995,-423.784,0,0
347641,80.0358,-423.169,0,0
347902,79.8998,-422.66,0,0
348162,79.6145,-422.114,0,0
348422,79.3947,-421.66,0,0
348683,79.2619,-421.043,0,0
348943,79.2605,-420.453,0,0
349203,79.0122,-419.947,0,0
349464,78.8994,-419.299,0,0
349724,78.6938,-418.827,0,0
349984,78.5876,-418.217,0,0
350245,78.5853,-417.64,0,0
350505,78.4156,-417.095,0,0
350765,78.208,-416.595,0,0
351025,77.9917,-416.016,0,0
351286,78.04,-415.39,0,0
351546,77.8665,-414.808,0,0
351806,77.578,-414.334,0,0
352067,77.4571,-413.737,0,0
352327,77.3164,-413.221,0,0
352587,77.2677,-412.565,0,0
352848,77.099,-412.033,0,0
353108,76.94,-411.488,0,0
353368,76.7319,-410.956,0,0
353629,76.6758,-410.37,0,0
353889,76.465,-409.816,0,0
354149,76.2982,-409.244,0,0
354410,76.1908,-408.672,0,0
354670,76.0263,-408.148,0,0
354930,75.8864,-407.579,0,0
355191,75.7675,-406.982,0,0
355451,75.6863,-406.411,0,0
355711,75.5338,-405.855,0,0
355972,75.4295,-405.274,0,0
356232,75.3019,-404.724,0,0
356492,75.1153,-404.136,0,0
356753,74.9775,-403.584,0,0
357013,74.8347,-403.028,0,0
357273,74.7256,-402.442,0,0
357534,74.6031,-401.845,0,0
357794,74.4581,-401.322,0,0
358054,74.3559,-400.731,0,0
358315,74.1291,-400.193,0,0
358575,74.1792,-399.555,0,0
358835,73.9958,-398.981,0,0
359096,73.8115,-398.463,0,0
359356,73.6747,-397.845,0,0
359616,73.5357,-397.309,0,0
359877,73.435,-396.702,0,0
360137,73.2201,-396.147,0,0
360397,73.1469,-395.582,0,0
360658,73.0262,-394.912,0,0
360918,72.9959,-394.285,0,0
361178,72.8419,-393.796,0,0
361438,72.6055,-393.256,0,0
361699,72.6496,-392.605,0,0
361959,72.6174,-392.037,0,0
362219,72.5462,-391.409,0,0
362480,72.376,-390.862,0,0
362740.1,72.2558,-390.316,0,0
363000.425,72.2164,-389.701,0,0
363260.75,72.1355,-389.067,0,0
363521.075,72.0204,-388.503,0,0
363781.4,71.9328,-387.893,0,0
364041.725,71.8206,-387.29,0,0
364302.05,71.6859,-386.748,0,0
364562.375,71.7468,-386.109,0,0
364822.7,71.607,-385.567,0,0
365083.025,71.5333,-384.904,0,0
365343.35,71.4612,-384.336,0,0
365603.675,71.4175,-383.733,0,0
365864.0,71.463,-383.11,0,0
366124.325,71.3436,-382.531,0,0
366384.65,71.274,-381.968,0,0
366644.975,71.1936,-381.363,0,0
366905.3,71.2324,-380.743,0,0
367165.625,71.1559,-380.189,0,0
367425.95,71.064,-379.579,0,0
367686.275,71.0761,-378.983,0,0
367946.6,71.129,-378.348,0,0
368206.925,71.1175,-377.79,0,0
368467.25,71.0965,-377.172,0,0
368727.575,71.0635,-376.614,0,0
368987.9,71.1373,-376.005,0,0
369248.225,71.0291,-375.472,0,0
369508.55,71.0788,-374.876,0,0
369768.875,71.0953,-374.282,0,0
370029.2,71.0874,-373.711,0,0
370289.525,71.1023,-373.148,0,0
370549.85,71.15,-372.604,0,0
370810.175,71.1763,-371.997,0,0
371070.5,71.1999,-371.457,0,0
371330.825,71.2797,-370.912,0,0
371591.15,71.2912,-370.366,0,0
371851.475,71.3477,-369.829,0,0
372111.8,71.3659,-369.261,0,0
372372.125,71.4132,-368.751,0,0
372632.45,71.4581,-368.19,0,0
372892.775,71.435,-367.705,0,0
373153.1,71.5531,-367.184,0,0
373413.425,71.6513,-366.668,0,0
373673.75,71.6648,-366.196,0,0
373934.075,71.5609,-365.777,0,0
374194.4,71.7023,-365.257,0,0
374454.725,71.8081,-364.806,0,0
374715.05,71.9852,-364.31,0,0
374975.375,71.9929,-363.87,0,0
375235.7,72.0513,-363.444,0,0
375496.025,72.0594,-362.997,0,0
375756.35,72.0838,-362.579,0,0
376016.675,72.1179,-362.18,0,0
376277.0,72.0748,-361.799,0,0
376537.325,72.0836,-361.371,0,0
376797.65,72.0857,-360.974,0,0
377057.975,72.0555,-360.546,0,0
377318.3,71.9374,-360.18,0,0
377578.625,71.9058,-359.779,0,0
377838.95,71.8394,-359.327,0,0
378099.275,71.7236,-358.889,0,0
378359.6,71.6237,-358.48,0,0
378619.925,71.513,-358.021,0,0
378880,71.4457,-357.574,0,0
379141,71.39,-357.096,0,0
379401,71.3215,-356.626,0,0
379661,71.2392,-356.15,0,0
379922,71.0585,-355.641,0,0
380182,71.0266,-355.138,0,0
380442,70.9427,-354.579,0,0
380703,70.9014,-354.08,0,0
380963,70.9118,-353.493,0,0
381223,70.8665,-353.01,0,0
381483,70.8829,-352.443,0,0
381744,70.8232,-351.949,0,0
382004,70.9024,-351.407,0,0
382264,70.8057,-350.941,0,0
382525,70.848,-350.461,0,0
382785,70.7631,-350.005,0,0
383045,70.7412,-349.534,0,0
383306,70.6455,-349.049,0,0
383566,70.637,-348.579,0,0
383826,70.5658,-348.133,0,0
384087,70.4376,-347.647,0,0
384347,70.4422,-347.139,0,0
384607,70.3334,-346.651,0,0
384868,70.1802,-346.202,0,0
385128,70.1658,-345.654,0,0
385388,70.0819,-345.146,0,0
385649,70.0493,-344.596,0,0
385909,69.9803,-344.063,0,0
386169,69.9036,-343.537,0,0
386430,69.8431,-342.976,0,0
386690,69.7743,-342.453,0,0
386950,69.6927,-341.916,0,0
387211,69.6101,-341.38,0,0
387471,69.619,-340.813,0,0
387731,69.5664,-340.237,0,0
387992,69.4616,-339.719,0,0
388252,69.4399,-339.149,0,0
388512,69.388,-338.578,0,0
388773,69.2799,-338.047,0,0
389033,69.3782,-337.427,0,0
389293,69.4006,-336.847,0,0
389554,69.4075,-336.302,0,0
389814,69.3389,-335.703,0,0
390074,69.3531,-335.107,0,0
390335,69.2963,-334.557,0,0
390595,69.2798,-334.001,0,0
390855,69.315,-333.397,0,0
391116,69.2664,-332.872,0,0
391376,69.2758,-332.28,0,0
391636,69.3067,-331.682,0,0
391896,69.295,-331.093,0,0
392157,69.3088,-330.544,0,0
392417,69.3879,-329.917,0,0
392677,69.3451,-329.383,0,0
392938,69.3548,-328.819,0,0
393198,69.4364,-328.191,0,0
393458,69.307,-327.704,0,0
393719,69.3726,-327.088,0,0
393979,69.3485,-326.541,0,0
394239,69.3605,-325.953,0,0
394500,69.3934,-325.39,0,0
394760.05,69.4197,-324.835,0,0
395020.375,69.4749,-324.232,0,0
395280.7,69.5288,-323.67,0,0
395541.025,69.5425,-323.077,0,0
395801.35,69.5964,-322.479,0,0
396061.675,69.6216,-321.907,0,0
396322.0,69.6954,-321.308,0,0
396582.325,69.685,-320.801,0,0
396842.65,69.7395,-320.171,0,0
397102.975,69.8125,-319.589,0,0
397363.3,69.881,-318.986,0,0
397623.625,69.8753,-318.414,0,0
397883.95,69.9576,-317.859,0,0
398144.275,70.0272,-317.281,0,0
398404.6,70.1106,-316.661,0,0
398664.925,70.229,-316.073,0,0
398925.25,70.2455,-315.502,0,0
399185.575,70.3794,-314.904,0,0
399445.9,70.4729,-314.283,0,0
399706.225,70.5982,-313.752,0,0
399966.55,70.6396,-313.14,0,0
400006.6,70.6611,-313.083,0,0