File: Accelerated corrosion test data/2025-10-21_18-00-04/sample_1.csv
Frequency (Hz),Impedance (ohms),Phase (Radians),Temperature (C),Humidity (%)
10000.0,240.808,-12223.2,0,0
10260.325,242.831,-11908.1,0,0
10520.65,229.877,-11628.4,0,0
10780.975,226.919,-11343.7,0,0
11041.3,219.746,-11084.3,0,0
11301.625,214.531,-10826.7,0,0
11561.95,210.87,-10582.5,0,0
11822.275,208.653,-10342.1,0,0
12082.6,232.701,-10114.4,0,0
12342.925,210.851,-9940.12,0,0
12603.25,194.881,-9724.79,0,0
12863.575,191.28,-9522.65,0,0
13123.9,200.542,-9329.2,0,0
13384.225,186.628,-9161.36,0,0
13644.55,181.46,-8977.84,0,0
13904.875,183.002,-8799.12,0,0
14165.2,199.432,-8670.01,0,0
14425.525,213.376,-8501.46,0,0
14685.8,200.749,-8335.51,0,0
14946.175,177.362,-8229,0,0
15206.5,190.529,-8065.65,0,0
15466.825,173.14,-7954.27,0,0
15727.15,169.35,-7816.62,0,0
15987.5,160.369,-7691.54,0,0
16247.8,157.333,-7564.91,0,0
16508.125,154.296,-7441.63,0,0
16768.45,158.099,-7323.02,0,0
17028.775,163.276,-7213.23,0,0
17289.1,154.434,-7113.09,0,0
17549.425,151.902,-7009.05,0,0
17809.75,146.481,-6902.55,0,0
18070.075,148.475,-6804.91,0,0
18330.4,141.807,-6708.73,0,0
18590.725,137.41,-6613.76,0,0
18851.05,138.152,-6515.7,0,0
19111.375,135.772,-6434.46,0,0
19371.7,133.074,-6341.91,0,0
19632.025,132.169,-6253.02,0,0
19892.35,136.242,-6164.45,0,0
20152.675,135.794,-6079.69,0,0
20413.0,156.55,-5989.77,0,0
20673.3,169.668,-5949.83,0,0
20933.65,149.04,-5883.2,0,0
21193.975,162.477,-5817.34,0,0
21454.3,140.943,-5746.31,0,0
21714.625,136.548,-5673.16,0,0
21974.9,140.067,-5592.18,0,0
22235.275,174.802,-5548.88,0,0
22495.6,140.744,-5508.11,0,0
22755.925,126.538,-5438.23,0,0
23016.25,122.225,-5371.08,0,0
23276.6,118.624,-5309.65,0,0
23536.9,115.184,-5247.85,0,0
23797.225,112.406,-5187.1,0,0
24057.55,115.007,-5126.08,0,0
24317.875,112.996,-5078.1,0,0
24578.2,110.379,-5018.44,0,0
24838.525,110.392,-4967.78,0,0
25098.85,110.419,-4913.32,0,0
25359.175,105.586,-4864.89,0,0
25619.5,104.298,-4812.98,0,0
25879.8,103.587,-4761.87,0,0
26140.1,103.138,-4711.99,0,0
26400.5,102.497,-4662.73,0,0
26660.8,104.427,-4611.51,0,0
26921.1,113.6,-4562.32,0,0
27181.4,122.646,-4531.73,0,0
27441.8,111.083,-4497.42,0,0
27702.1,103.939,-4448.12,0,0
27962.4,110.401,-4397.69,0,0
28222.7,110.171,-4359.82,0,0
28483.1,120.378,-4316.49,0,0
28743.4,132.152,-4297.87,0,0
29003.7,118.734,-4260.99,0,0
29264,119.272,-4227.71,0,0
29524.4,107.476,-4194.82,0,0
29784.7,105.722,-4150.69,0,0
30045,102.084,-4120.25,0,0
30305.3,99.9725,-4081.15,0,0
30565.7,96.9618,-4042.16,0,0
30826,100.739,-4005.74,0,0
31086.3,104.527,-3979.02,0,0
31346.6,99.9535,-3949.15,0,0
31607,93.8732,-3911.82,0,0
31867.3,98.6089,-3879.07,0,0
32127.6,97.4864,-3848.75,0,0
32387.9,98.3985,-3821.28,0,0
32648.3,93.8026,-3790.15,0,0
32908.6,95.8412,-3761.91,0,0
33168.9,91.1272,-3733.4,0,0
33429.2,89.0715,-3704.41,0,0
33689.6,86.2977,-3674.77,0,0
33949.9,84.6501,-3643.59,0,0
34210.2,86.6701,-3616.93,0,0
34470.5,83.7373,-3590.59,0,0
34730.9,81.8143,-3562.1,0,0
34991.2,81.2485,-3535.02,0,0
35251.5,80.4217,-3508.29,0,0
35511.8,79.2295,-3481.83,0,0
35772.2,78.7312,-3455.94,0,0
36032.5,77.8673,-3430.8,0,0
36292.8,77.3815,-3405.3,0,0
36553.1,76.2662,-3380.59,0,0
36813.5,76.102,-3355.73,0,0
37073.8,75.8978,-3331.92,0,0
37334.1,75.0956,-3308.6,0,0
37594.4,74.8058,-3284.95,0,0
37854.8,74.2281,-3262.19,0,0
38115.1,73.3916,-3239.32,0,0
38375.4,73.0744,-3216.42,0,0
38635.7,72.7093,-3194.49,0,0
38896.1,72.094,-3172.4,0,0
39156.4,72.1552,-3150.22,0,0
39416.7,72.1121,-3130.12,0,0
39677,71.1294,-3108.73,0,0
39937.4,71.0132,-3087.75,0,0
40197.7,71.0864,-3066.77,0,0
40458,70.8841,-3046.66,0,0
40718.3,70.7871,-3025.87,0,0
40978.7,72.5388,-3006.43,0,0
41239,72.2171,-2988.46,0,0
41499.3,72.0912,-2970.29,0,0
41759.6,71.0499,-2951.69,0,0
42020,70.5729,-2932.94,0,0
42280.275,70.345,-2914.63,0,0
42540.6,70.7153,-2896.3,0,0
42800.925,69.8702,-2879.47,0,0
43061.25,68.9547,-2861.11,0,0
43321.575,69.6329,-2844.45,0,0
43581.9,68.4569,-2827.16,0,0
43842.225,67.7491,-2809.5,0,0
44102.55,67.5856,-2791.67,0,0
44362.875,68.5612,-2774.65,0,0
44623.2,69.1762,-2759.28,0,0
44883.525,68.4506,-2743.84,0,0
45143.85,68.2346,-2727.86,0,0
45404.175,67.9846,-2711.87,0,0
45664.5,67.4175,-2697.09,0,0
45924.825,66.4097,-2681.9,0,0
46185.15,66.0553,-2666.26,0,0
46445.475,65.2308,-2650.92,0,0
46705.8,65.1932,-2635.44,0,0
46966.125,65.0507,-2620.95,0,0
47226.45,64.3318,-2606.06,0,0
47486.775,64.3812,-2591.15,0,0
47747.1,63.9979,-2577.34,0,0
48007.425,63.4466,-2562.96,0,0
48267.75,63.2668,-2548.88,0,0
48528.075,62.7869,-2535.44,0,0
48788.4,61.5109,-2521.3,0,0
49048.725,61.5218,-2507,0,0
49309.05,61.4929,-2493.21,0,0
49569.375,61.2244,-2480.36,0,0
49829.7,60.6339,-2467.14,0,0
50090.025,59.9967,-2453.97,0,0
50350.35,59.3332,-2440.39,0,0
50610.675,59.2926,-2427.06,0,0
50871.0,59.1946,-2414.31,0,0
51131.325,59.0991,-2401.48,0,0
51391.65,59.0678,-2388.96,0,0
51651.975,58.6704,-2376.78,0,0
51912.3,58.2444,-2364.42,0,0
52172.625,57.8788,-2351.77,0,0
52432.95,57.913,-2339.66,0,0
52693.275,57.6216,-2327.75,0,0
52953.6,57.4554,-2315.75,0,0
53213.925,57.5933,-2304.08,0,0
53474.25,57.3204,-2292.51,0,0
53734.575,57.1071,-2281.07,0,0
53994.9,57.0886,-2269.84,0,0
54255.225,56.5415,-2258.69,0,0
54515.55,56.0652,-2247.19,0,0
54775.875,55.8389,-2236,0,0
55036.2,55.5791,-2224.9,0,0
55296.525,55.6232,-2213.77,0,0
55556.85,55.5303,-2203.09,0,0
55817.175,55.2838,-2192.48,0,0
56077.5,54.7431,-2181.84,0,0
56337.825,54.4997,-2170.92,0,0
56598.15,54.5783,-2160.34,0,0
56858.475,54.6964,-2150.01,0,0
57118.8,54.5859,-2139.66,0,0
57379.125,54.3561,-2129.44,0,0
57639.45,54.4605,-2119.19,0,0
57899.775,54.3512,-2109.22,0,0
58160.1,54.4255,-2099.2,0,0
58420.4,54.3655,-2089.56,0,0
58680.7,54.1254,-2079.88,0,0
58941.1,53.9438,-2070.12,0,0
59201.4,54.2267,-2060.39,0,0
59461.7,54.1758,-2051.23,0,0
59722,53.9901,-2041.64,0,0
59982.4,54.0373,-2032.37,0,0
60242.7,53.9322,-2023.11,0,0
60503,54.0719,-2014,0,0
60763.3,54.3119,-2005.38,0,0
61023.7,53.8202,-1996.75,0,0
61284,53.344,-1987.62,0,0
61544.3,53.0411,-1978.67,0,0
61804.6,53.1776,-1969.61,0,0
62065,52.9821,-1961.25,0,0
62325.3,52.4256,-1952.31,0,0
62585.6,52.2681,-1943.41,0,0
62845.9,52.252,-1934.74,0,0
63106.3,52.4184,-1926.15,0,0
63366.6,52.2973,-1917.75,0,0
63626.9,52.259,-1909.19,0,0
63887.2,52.0913,-1900.74,0,0
64147.6,52.2619,-1892.29,0,0
64407.9,52.4122,-1883.79,0,0
64668.2,52.8103,-1875.43,0,0
64928.5,53.3338,-1867.08,0,0
65188.9,53.9185,-1859.49,0,0
65449.2,54.4524,-1851.96,0,0
65709.5,54.9253,-1844.65,0,0
65969.8,54.9424,-1837.65,0,0
66230.2,54.8084,-1830.27,0,0
66490.5,54.8128,-1823.09,0,0
66750.8,54.3702,-1816.1,0,0
67011.1,53.9661,-1808.65,0,0
67271.5,53.567,-1801.16,0,0
67531.8,53.6482,-1793.43,0,0
67792.1,53.9036,-1786.25,0,0
68052.4,53.9818,-1779.95,0,0
68312.8,52.9976,-1772.86,0,0
68573.1,52.8858,-1765.04,0,0
68833.4,53.0918,-1758.35,0,0
69093.7,52.8762,-1751.6,0,0
69354.1,52.5339,-1744.62,0,0
69614.4,52.4187,-1737.86,0,0
69874.7,51.978,-1731.31,0,0
70135,51.549,-1724.49,0,0
70395.4,50.8586,-1717.79,0,0
70655.7,50.3467,-1710.62,0,0
70916,50.0732,-1703.46,0,0
71176.3,49.9867,-1696.56,0,0
71436.7,50.0177,-1689.83,0,0
71697,49.7539,-1683.45,0,0
71957.3,49.0494,-1676.86,0,0
72217.6,48.5853,-1669.95,0,0
72478,48.2005,-1662.99,0,0
72738.3,48.1575,-1656.06,0,0
72998.6,48.0382,-1649.2,0,0
73258.9,48.1762,-1642.58,0,0
73519.3,48.1236,-1636.02,0,0
73779.6,47.9164,-1629.47,0,0
74039.9,47.8799,-1622.96,0,0
74300.225,47.9032,-1616.35,0,0
74560.55,47.9427,-1609.93,0,0
74820.875,48.0783,-1603.43,0,0
75081.2,48.272,-1597.17,0,0
75341.525,48.3568,-1590.97,0,0
75601.85,48.4446,-1584.72,0,0
75862.175,48.4443,-1578.48,0,0
76122.5,48.6833,-1572.29,0,0
76382.825,48.8587,-1566.08,0,0
76643.15,49.1383,-1560.14,0,0
76903.475,49.2766,-1554.16,0,0
77163.8,49.5817,-1548.23,0,0
77424.125,49.9215,-1542.47,0,0
77684.45,49.989,-1536.65,0,0
77944.775,50.2071,-1530.85,0,0
78205.1,50.5913,-1525.06,0,0
78465.425,51.0975,-1519.49,0,0
78725.75,51.6397,-1514.29,0,0
78986.075,51.6072,-1509.12,0,0
79246.4,51.7057,-1504,0,0
79506.725,51.4205,-1498.92,0,0
79767.05,50.9597,-1493.56,0,0
80027.375,50.9161,-1487.98,0,0
80287.7,50.8156,-1482.6,0,0
80548.025,50.4885,-1477.24,0,0
80808.35,50.3309,-1471.68,0,0
81068.675,50.147,-1466.12,0,0
81329.0,50.0747,-1460.41,0,0
81589.325,50.1527,-1454.81,0,0
81849.65,50.3319,-1449.31,0,0
82109.975,50.5133,-1443.98,0,0
82370.3,50.613,-1438.66,0,0
82630.625,50.8023,-1433.27,0,0
82890.95,50.8,-1427.96,0,0
83151.275,51.1051,-1422.42,0,0
83411.6,51.4514,-1417.15,0,0
83671.925,51.7211,-1412.1,0,0
83932.25,52.0127,-1406.95,0,0
84192.575,52.3447,-1401.8,0,0
84452.9,52.5979,-1396.74,0,0
84713.225,52.9269,-1391.79,0,0
84973.55,53.231,-1386.58,0,0
85233.875,53.7261,-1381.56,0,0
85494.2,54.3268,-1376.81,0,0
85754.525,54.6234,-1372.2,0,0
86014.85,54.7589,-1367.59,0,0
86275.175,55.0733,-1362.97,0,0
86535.5,55.2518,-1358.3,0,0
86795.825,55.3885,-1353.69,0,0
87056.15,55.5379,-1348.87,0,0
87316.475,55.8275,-1344.11,0,0
87576.8,55.9928,-1339.73,0,0
87837.125,55.8005,-1335.13,0,0
88097.45,55.8072,-1330.29,0,0
88357.775,55.7725,-1325.36,0,0
88618.1,56.0595,-1320.17,0,0
88878.425,56.6741,-1315.23,0,0
89138.75,57.1277,-1310.53,0,0
89399.075,57.6429,-1305.64,0,0
89659.4,58.2524,-1300.75,0,0
89919.725,59.1074,-1296.36,0,0
90180,59.695,-1291.79,0,0
90440.4,60.2884,-1287.24,0,0
90700.7,60.8292,-1282.53,0,0
90961,61.8071,-1277.6,0,0
91221.3,62.9792,-1272.91,0,0
91481.7,64.6516,-1268.63,0,0
91742,65.84,-1264.79,0,0
92002.3,66.9761,-1261.23,0,0
92262.6,67.8646,-1257.14,0,0
92523,69.2196,-1253.13,0,0
92783.3,70.955,-1249.27,0,0
93043.6,72.7919,-1246.22,0,0
93303.9,74.6225,-1243.3,0,0
93564.3,76.4168,-1240.95,0,0
93824.6,78.6089,-1239.59,0,0
94084.9,79.1408,-1240.46,0,0
94345.2,76.3258,-1240.25,0,0
94605.6,73.2594,-1236.89,0,0
94865.9,72.1792,-1233.23,0,0
95126.2,70.7598,-1229.81,0,0
95386.5,69.4779,-1226.22,0,0
95646.9,68.1037,-1222.18,0,0
95907.2,67.0158,-1217.93,0,0
96167.5,66.3567,-1213.36,0,0
96427.8,66.3249,-1208.95,0,0
96688.2,66.2816,-1205.32,0,0
96948.5,65.728,-1201.65,0,0
97208.8,65.1909,-1197.54,0,0
97469.1,64.8418,-1193.49,0,0
97729.5,64.5027,-1189.37,0,0
97989.8,64.3892,-1185.29,0,0
98250.1,64.3429,-1181.31,0,0
98510.4,64.3405,-1177.34,0,0
98770.8,64.205,-1173.64,0,0
99031.1,63.9572,-1169.78,0,0
99291.4,63.7217,-1165.87,0,0
99551.7,63.5042,-1161.89,0,0
99812.1,63.3349,-1157.9,0,0
100072,63.1408,-1153.79,0,0
100333,63.089,-1149.83,0,0
100593,63.037,-1145.76,0,0
100853,63.0144,-1141.76,0,0
101114,62.9271,-1137.68,0,0
101374,62.8071,-1133.58,0,0
101634,62.7304,-1129.26,0,0
101895,62.8235,-1124.91,0,0
102155,63.0151,-1120.41,0,0
102415,63.4125,-1115.81,0,0
102676,64.1239,-1111.21,0,0
102936,65.1437,-1106.88,0,0
103196,66.1264,-1102.76,0,0
103457,67.1889,-1098.64,0,0
103717,68.3134,-1094.71,0,0
103977,69.454,-1090.84,0,0
104238,70.8267,-1086.79,0,0
104498,72.6583,-1083.38,0,0
104758,74.028,-1080.56,0,0
105019,74.909,-1077.64,0,0
105279,75.609,-1074.37,0,0
105539,76.5099,-1070.89,0,0
105800,77.7893,-1067.5,0,0
106060,79.0533,-1064.37,0,0
106320.175,80.4621,-1061.31,0,0
106580.5,81.7775,-1058.45,0,0
106840.825,82.9831,-1055.77,0,0
107101.15,84.1329,-1052.98,0,0
107361.475,85.5435,-1050.34,0,0
107621.8,86.8674,-1048.1,0,0
107882.125,87.8149,-1045.96,0,0
108142.45,88.6704,-1043.62,0,0
108402.775,89.5734,-1041.37,0,0
108663.1,90.3885,-1039.13,0,0
108923.425,91.2491,-1036.89,0,0
109183.75,92.159,-1034.81,0,0
109444.075,93.0849,-1032.91,0,0
109704.4,93.6622,-1031.38,0,0
109964.725,93.9142,-1029.79,0,0
110225.05,93.8797,-1028.05,0,0
110485.375,93.5301,-1026.16,0,0
110745.7,93.3335,-1023.63,0,0
111006.025,93.3932,-1021.02,0,0
111266.35,93.4049,-1018.24,0,0
111526.675,94.0414,-1015.81,0,0
111787.0,94.8836,-1013.28,0,0
112047.325,95.6195,-1011.11,0,0
112307.65,96.3636,-1009.2,0,0
112567.975,97.0678,-1007.36,0,0
112828.3,97.6548,-1005.96,0,0
113088.625,97.8072,-1004.52,0,0
113348.95,97.8388,-1003.21,0,0
113609.275,97.7567,-1001.85,0,0
113869.6,97.3824,-1000.46,0,0
114129.925,96.6007,-998.903,0,0
114390.25,96.0357,-996.961,0,0
114650.575,95.5052,-995.131,0,0
114910.9,95.0542,-993.35,0,0
115171.225,94.2669,-991.709,0,0
115431.55,93.3518,-989.775,0,0
115691.875,92.461,-987.731,0,0
115952.2,91.3867,-985.642,0,0
116212.525,90.4055,-983.177,0,0
116472.85,89.5321,-980.685,0,0
116733.175,88.7785,-978.332,0,0
116993.5,87.8223,-975.991,0,0
117253.825,86.7028,-973.449,0,0
117514.15,85.6179,-970.56,0,0
117774.475,84.7213,-967.654,0,0
118034.8,83.9486,-964.547,0,0
118295.125,83.3462,-961.406,0,0
118555.45,82.8785,-958.396,0,0
118815.775,82.38,-955.354,0,0
119076.1,81.951,-952.168,0,0
119336.425,81.7697,-949.045,0,0
119596.75,81.609,-946.02,0,0
119857.075,81.5168,-942.915,0,0
120117.4,81.6839,-940.037,0,0
120377.725,81.7131,-937.332,0,0
120638.05,81.7502,-934.608,0,0
120898.375,81.832,-932.105,0,0
121158.7,81.7112,-929.779,0,0
121419.025,81.261,-927.386,0,0
121679.35,80.7498,-924.802,0,0
121939.675,80.1931,-922.014,0,0
122200.0,79.7012,-919.097,0,0
122460,79.346,-916.127,0,0
122721,79.0086,-913.089,0,0
122981,78.8689,-909.989,0,0
123241,78.7314,-906.993,0,0
123502,78.64,-903.987,0,0
123762,78.6723,-900.998,0,0
124022,78.6472,-898.043,0,0
124283,78.6402,-895.095,0,0
124543,78.6981,-892.121,0,0
124803,78.7906,-889.206,0,0
125064,78.8595,-886.369,0,0
125324,78.8461,-883.368,0,0
125584,78.9871,-880.342,0,0
125845,79.2875,-877.422,0,0
126105,79.4503,-874.59,0,0
126365,79.5539,-871.676,0,0
126626,79.7885,-868.774,0,0
126886,80.0188,-865.915,0,0
127146,80.249,-862.971,0,0
127406,80.531,-860.034,0,0
127667,80.7876,-857.116,0,0
127927,81.1877,-854.085,0,0
128187,81.5642,-851.077,0,0
128448,82.0858,-848.07,0,0
128708,82.7668,-845.192,0,0
128968,83.3973,-842.538,0,0
129229,83.8371,-839.782,0,0
129489,84.3209,-836.914,0,0
129749,84.926,-834.013,0,0
130010,85.7342,-831.022,0,0
130270,86.7006,-828.284,0,0
130530,87.6358,-825.699,0,0
130791,88.5789,-823.173,0,0
131051,89.4782,-820.725,0,0
131311,90.4311,-818.308,0,0
131572,91.3963,-816.012,0,0
131832,92.2388,-813.873,0,0
132092,93.0782,-811.73,0,0
132353,93.7914,-809.725,0,0
132613,94.3574,-807.641,0,0
132873,94.9393,-805.443,0,0
133134,95.5752,-803.215,0,0
133394,96.2214,-801.142,0,0
133654,96.7834,-798.994,0,0
133915,97.3019,-796.763,0,0
134175,97.9782,-794.424,0,0
134435,98.7284,-792.224,0,0
134696,99.4509,-790.181,0,0
134956,100.129,-788.043,0,0
135216,100.817,-786.049,0,0
135477,101.485,-783.965,0,0
135737,102.083,-781.889,0,0
135997,102.724,-779.712,0,0
136258,103.422,-777.578,0,0
136518,104.298,-775.329,0,0
136778,105.321,-773.232,0,0
137039,106.443,-771.406,0,0
137299,107.479,-769.646,0,0
137559,108.682,-768.114,0,0
137819,109.711,-766.973,0,0
138080,110.301,-766.004,0,0
138340.125,110.654,-764.809,0,0
138600.45,111.012,-763.58,0,0
138860.775,111.14,-762.489,0,0
139121.1,110.999,-761.203,0,0
139381.425,110.79,-759.722,0,0
139641.75,110.565,-758.036,0,0
139902.075,110.384,-756.272,0,0
140162.4,110.263,-754.381,0,0
140422.725,110.25,-752.503,0,0
140683.05,110.196,-750.662,0,0
140943.375,110.054,-748.765,0,0
141203.7,109.927,-746.642,0,0
141464.025,109.939,-744.503,0,0
141724.35,109.985,-742.498,0,0
141984.675,109.869,-740.42,0,0
142245.0,109.833,-738.121,0,0
142505.325,109.978,-735.78,0,0
142765.65,110.229,-733.564,0,0
143025.975,110.28,-731.385,0,0
143286.3,110.419,-729.057,0,0
143546.625,110.631,-726.52,0,0
143806.95,111.167,-724.105,0,0
144067.275,111.752,-721.905,0,0
144327.6,112.207,-719.816,0,0
144587.925,112.487,-717.7,0,0
144848.25,112.792,-715.302,0,0
145108.575,113.449,-712.861,0,0
145368.9,114.346,-710.657,0,0
145629.225,115.064,-708.75,0,0
145889.55,115.602,-706.779,0,0
146149.875,116.183,-704.689,0,0
146410.2,116.957,-702.708,0,0
146670.525,117.656,-700.872,0,0
146930.85,118.365,-699.105,0,0
147191.175,118.964,-697.616,0,0
147451.5,119.173,-696.063,0,0
147711.825,119.331,-694.246,0,0
147972.15,119.622,-692.346,0,0
148232.475,119.799,-690.478,0,0
148492.8,120.112,-688.434,0,0
148753.125,120.478,-686.521,0,0
149013.45,120.698,-684.574,0,0
149273.775,121.068,-682.403,0,0
149534.1,121.7,-680.513,0,0
149794.425,122.161,-678.917,0,0
150054.75,122.298,-677.332,0,0
150315.075,122.278,-675.549,0,0
150575.4,122.308,-673.682,0,0
150835.725,122.212,-671.914,0,0
151096.05,121.854,-669.941,0,0
151356.375,121.476,-667.669,0,0
151616.7,121.231,-665.191,0,0
151877.025,121.06,-662.705,0,0
152137.35,120.869,-660.159,0,0
152397.675,120.587,-657.392,0,0
152658.0,120.41,-654.38,0,0
152918.325,120.416,-651.105,0,0
153178.65,120.811,-647.771,0,0
153438.975,121.32,-644.526,0,0
153699.3,121.982,-641.296,0,0
153959.625,122.723,-638.12,0,0
154219.95,123.514,-634.926,0,0
154480,124.306,-631.639,0,0
154741,125.325,-628.194,0,0
155001,126.607,-624.907,0,0
155261,127.808,-621.589,0,0
155522,129.177,-618.137,0,0
155782,130.839,-614.701,0,0
156042,132.658,-611.237,0,0
156303,134.815,-607.781,0,0
156563,137.29,-604.505,0,0
156823,140.059,-601.616,0,0
157084,142.927,-599.051,0,0
157344,145.813,-596.868,0,0
157604,148.592,-594.97,0,0
157864,151.033,-593.591,0,0
158125,152.942,-592.079,0,0
158385,154.8,-590.235,0,0
158645,156.742,-588.486,0,0
158906,158.279,-586.742,0,0
159166,159.515,-584.491,0,0
159426,161.049,-581.491,0,0
159687,163.354,-578.309,0,0
159947,166.187,-575.144,0,0
160207,169.619,-572.19,0,0
160468,173.431,-569.91,0,0
160728,177.286,-567.769,0,0
160988,181.502,-566.008,0,0
161249,185.922,-564.891,0,0
161509,190.275,-564.45,0,0
161769,194.251,-564.527,0,0
162030,197.95,-564.983,0,0
162290,201.094,-565.772,0,0
162550,203.614,-566.516,0,0
162811,205.831,-567.012,0,0
163071,207.839,-567.312,0,0
163331,209.716,-567.322,0,0
163592,211.642,-567.057,0,0
163852,213.753,-566.508,0,0
164112,216.348,-565.851,0,0
164373,219.461,-565.453,0,0
164633,222.717,-565.734,0,0
164893,225.663,-566.395,0,0
165154,228.455,-566.972,0,0
165414,231.495,-567.906,0,0
165674,234.281,-569.221,0,0
165935,236.959,-570.67,0,0
166195,239.559,-572.504,0,0
166455,241.696,-574.702,0,0
166716,243.315,-576.828,0,0
166976,244.826,-578.777,0,0
167236,246.364,-580.798,0,0
167497,247.892,-583.138,0,0
167757,249.025,-585.935,0,0
168017,249.468,-588.873,0,0
168277,249.417,-591.576,0,0
168538,249.038,-594.081,0,0
168798,248.335,-596.408,0,0
169058,247.459,-598.479,0,0
169319,246.4,-600.622,0,0
169579,244.749,-602.712,0,0
169839,242.539,-604.193,0,0
170100,240.193,-604.919,0,0
170360.075,238.041,-605.014,0,0
170620.4,236.279,-604.814,0,0
170880.725,234.849,-604.541,0,0
171141.05,233.293,-604.265,0,0
171401.375,231.73,-603.61,0,0
171661.7,230.6,-602.564,0,0
171922.025,229.87,-601.784,0,0
172182.35,229.004,-601.096,0,0
172442.675,228.253,-600.1,0,0
172703.0,227.908,-599.203,0,0
172963.325,227.68,-598.606,0,0
173223.65,227.272,-598.228,0,0
173483.975,226.586,-597.833,0,0
173744.3,225.83,-597.185,0,0
174004.625,225.157,-596.366,0,0
174264.95,224.716,-595.399,0,0
174525.275,224.424,-594.624,0,0
174785.6,224.188,-593.898,0,0
175045.925,223.842,-593.169,0,0
175306.25,223.607,-592.44,0,0
175566.575,223.5,-591.806,0,0
175826.9,223.371,-591.481,0,0
176087.225,223.011,-591.187,0,0
176347.55,222.549,-590.916,0,0
176607.875,221.825,-590.656,0,0
176868.2,220.908,-590.068,0,0
177128.525,220.141,-589.174,0,0
177388.85,219.611,-588.219,0,0
177649.175,219.357,-587.327,0,0
177909.5,219.311,-586.718,0,0
178169.825,219.114,-586.57,0,0
178430.15,218.491,-586.512,0,0
178690.475,217.661,-586.276,0,0
178950.8,216.826,-586.066,0,0
179211.125,215.674,-585.878,0,0
179471.45,214.355,-585.542,0,0
179731.775,212.95,-585.085,0,0
179992.1,211.406,-584.699,0,0
180252.425,209.332,-584.048,0,0
180512.75,207.23,-582.764,0,0
180773.075,205.43,-581.07,0,0
181033.4,203.831,-579.472,0,0
181293.725,202.208,-577.69,0,0
181554.05,200.824,-575.804,0,0
181814.375,199.428,-574.039,0,0
182074.7,197.859,-572.19,0,0
182335.025,196.208,-569.989,0,0
182595.35,194.86,-567.475,0,0
182855.675,193.762,-565.065,0,0
183116.0,192.638,-562.65,0,0
183376.325,191.52,-560.122,0,0
183636.65,190.461,-557.446,0,0
183896.975,189.546,-554.684,0,0
184157.3,188.721,-551.819,0,0
184417.625,188.044,-548.927,0,0
184677.95,187.412,-546.003,0,0
184938.275,186.878,-542.917,0,0
185198.6,186.56,-539.782,0,0
185458.925,186.435,-536.687,0,0
185719.25,186.406,-533.699,0,0
185979.575,186.416,-530.693,0,0
186239.9,186.515,-527.723,0,0
186500,186.533,-524.82,0,0
186761,186.699,-521.852,0,0
187021,186.717,-518.819,0,0
187281,186.895,-515.44,0,0
187542,187.422,-511.961,0,0
187802,188.409,-508.689,0,0
188062,189.406,-505.873,0,0
188322,190.309,-503.271,0,0
188583,190.88,-500.59,0,0
188843,191.492,-497.8,0,0
189103,192.252,-494.918,0,0
189364,193.135,-492.273,0,0
189624,193.756,-489.819,0,0
189884,194.185,-487.03,0,0
190145,194.687,-484.096,0,0
190405,195.248,-481.014,0,0
190665,195.849,-477.866,0,0
190926,196.565,-474.566,0,0
191186,197.459,-471.189,0,0
191446,198.48,-467.826,0,0
191707,199.552,-464.497,0,0
191967,200.676,-460.959,0,0
192227,201.979,-457.427,0,0
192488,203.436,-453.913,0,0
192748,204.993,-450.372,0,0
193008,206.657,-446.751,0,0
193269,208.507,-443.194,0,0
193529,210.533,-439.595,0,0
193789,212.665,-436.155,0,0
194050,214.956,-432.795,0,0
194310,217.266,-429.5,0,0
194570,219.451,-426.332,0,0
194831,221.731,-422.996,0,0
195091,224.059,-419.563,0,0
195351,226.664,-416.123,0,0
195612,229.422,-412.671,0,0
195872,232.211,-409.431,0,0
196132,235.115,-406.183,0,0
196393,238.079,-402.917,0,0
196653,241.359,-399.713,0,0
196913,244.578,-396.703,0,0
197174,247.794,-393.721,0,0
197434,251.081,-390.816,0,0
197694,254.407,-387.859,0,0
197955,257.812,-385.007,0,0
198215,261.295,-382.128,0,0
198475,264.656,-379.201,0,0
198735,268.192,-376.227,0,0
198996,271.841,-373.312,0,0
199256,275.418,-370.369,0,0
199516,279.056,-367.157,0,0
199777,282.947,-363.833,0,0
200037,287.146,-360.401,0,0
200297,291.75,-357.069,0,0
200558,296.457,-353.976,0,0
200818,301.217,-351.009,0,0
201078,305.868,-347.964,0,0
201339,310.717,-344.517,0,0
201599,316.023,-340.924,0,0
201859,321.831,-337.276,0,0
202120,328.04,-333.654,0,0
202380.025,334.83,-330.184,0,0
202640.35,342.243,-326.956,0,0
202900.675,350.072,-324.189,0,0
203161.0,358.148,-321.715,0,0
203421.325,366.652,-319.608,0,0
203681.65,375.518,-317.839,0,0
203941.975,384.973,-316.443,0,0
204202.3,394.991,-315.804,0,0
204462.625,405.24,-316.087,0,0
204722.95,415.51,-317.11,0,0
204983.275,425.838,-319.035,0,0
205243.6,436.102,-321.751,0,0
205503.925,446.117,-325.219,0,0
205764.25,455.692,-329.541,0,0
206024.575,464.937,-334.361,0,0
206284.9,473.743,-339.804,0,0
206545.225,482.38,-345.933,0,0
206805.55,490.08,-352.813,0,0
207065.875,496.911,-359.94,0,0
207326.2,502.998,-366.993,0,0
207586.525,508.861,-374.028,0,0
207846.85,514.453,-381.288,0,0
208107.175,519.673,-388.951,0,0
208367.5,524.258,-396.948,0,0
208627.825,528.102,-405.191,0,0
208888.15,531.392,-413.435,0,0
209148.475,534.04,-421.786,0,0
209408.8,536.035,-430.207,0,0
209669.125,537.284,-438.755,0,0
209929.45,537.454,-447.275,0,0
210189.775,536.427,-455.528,0,0
210450.1,534.222,-462.789,0,0
210710.425,531.316,-468.671,0,0
210970.75,528.608,-473.249,0,0
211231.075,526.171,-477.191,0,0
211491.4,523.567,-480.445,0,0
211751.725,520.969,-482.772,0,0
212012.05,518.891,-483.996,0,0
212272.375,517.577,-484.422,0,0
212532.7,517.404,-484.286,0,0
212793.025,518.345,-484.241,0,0
213053.35,520.093,-484.716,0,0
213313.675,522.293,-485.649,0,0
213574.0,524.741,-487.007,0,0
213834.325,527.55,-488.943,0,0
214094.65,530.354,-491.255,0,0
214354.975,532.617,-494.106,0,0
214615.3,535.074,-497.035,0,0
214875.625,537.232,-500.353,0,0
215135.95,539.113,-503.322,0,0
215396.275,541.144,-506.165,0,0
215656.6,543.235,-509.044,0,0
215916.925,545.391,-512.203,0,0
216177.25,547.397,-515.51,0,0
216437.575,549.427,-518.751,0,0
216697.9,551.356,-522.178,0,0
216958.225,553.078,-525.539,0,0
217218.55,554.809,-528.756,0,0
217478.875,556.699,-531.987,0,0
217739.2,558.512,-535.366,0,0
217999.525,560.15,-538.604,0,0
218259.85,561.823,-541.615,0,0
218520,563.726,-544.314,0,0
218780,566.109,-546.958,0,0
219041,568.961,-549.767,0,0
219301,572.163,-552.877,0,0
219561,575.552,-556.382,0,0
219822,579.081,-560.202,0,0
220082,582.895,-564.285,0,0
220342,586.713,-568.963,0,0
220603,590.666,-574.281,0,0
220863,594.434,-579.814,0,0
221123,598.14,-585.713,0,0
221384,601.972,-592.203,0,0
221644,605.52,-599.266,0,0
221904,608.866,-606.834,0,0
222165,611.775,-614.969,0,0
222425,614.324,-623.563,0,0
222685,616.37,-632.471,0,0
222946,617.762,-641.796,0,0
223206,618.702,-651.328,0,0
223466,618.814,-661.112,0,0
223727,618.324,-670.938,0,0
223987,617.317,-680.679,0,0
224247,615.905,-690.217,0,0
224508,613.678,-699.707,0,0
224768,611.266,-709.374,0,0
225028,608.472,-718.545,0,0
225289,605.337,-727.557,0,0
225549,601.95,-736.626,0,0
225809,598.164,-745.708,0,0
226070,593.914,-754.825,0,0
226330,589.111,-764.124,0,0
226590,583.437,-773.048,0,0
226851,577.25,-781.6,0,0
227111,570.571,-789.641,0,0
227371,563.749,-797.133,0,0
227632,556.828,-804.432,0,0
227892,549.399,-811.627,0,0
228152,541.507,-818.526,0,0
228413,533.029,-824.974,0,0
228673,524.204,-830.576,0,0
228933,515.193,-835.662,0,0
229193,505.99,-839.963,0,0
229454,496.73,-843.848,0,0
229714,487.497,-846.963,0,0
229974,478.337,-849.568,0,0
230235,469.511,-851.476,0,0
230495,460.706,-853.043,0,0
230755,452.176,-854.25,0,0
231016,443.746,-854.895,0,0
231276,435.641,-855.19,0,0
231536,427.882,-855.235,0,0
231797,420.307,-854.984,0,0
232057,412.967,-854.449,0,0
232317,405.937,-853.661,0,0
232578,399.184,-852.645,0,0
232838,392.77,-851.544,0,0
233098,386.763,-850.154,0,0
233359,381.089,-848.745,0,0
233619,375.693,-847.281,0,0
233879,370.674,-845.916,0,0
234140,365.973,-844.643,0,0
234400,361.637,-843.651,0,0
234660.3,357.378,-842.789,0,0
234920.625,352.97,-842.325,0,0
235180.95,348.552,-841.917,0,0
235441.275,343.733,-841.494,0,0
235701.6,339.093,-841.167,0,0
235961.925,334.088,-840.489,0,0
236222.25,329.216,-839.74,0,0
236482.575,324.466,-838.927,0,0
236742.9,319.707,-837.996,0,0
237003.225,315.018,-837.111,0,0
237263.55,310.269,-836.158,0,0
237523.875,305.509,-835.014,0,0
237784.2,300.695,-833.731,0,0
238044.525,295.92,-832.368,0,0
238304.85,291.213,-830.877,0,0
238565.175,286.545,-829.153,0,0
238825.5,281.94,-827.242,0,0
239085.825,277.572,-825.221,0,0
239346.15,273.419,-823.111,0,0
239606.475,269.369,-821.033,0,0
239866.8,265.523,-818.96,0,0
240127.125,261.677,-816.667,0,0
240387.45,257.778,-814.374,0,0
240647.775,254.203,-812.148,0,0
240908.1,250.764,-809.836,0,0
241168.425,247.407,-807.593,0,0
241428.75,244.065,-805.354,0,0
241689.075,240.752,-803.003,0,0
241949.4,237.528,-800.678,0,0
242209.725,234.442,-798.274,0,0
242470.05,231.36,-795.83,0,0
242730.375,228.426,-793.309,0,0
242990.7,225.695,-790.733,0,0
243251.025,223.133,-788.212,0,0
243511.35,220.797,-785.795,0,0
243771.675,218.369,-783.605,0,0
244032.0,216.138,-781.389,0,0
244292.325,213.772,-779.25,0,0
244552.65,211.459,-777.256,0,0
244812.975,209.183,-775.249,0,0
245073.3,206.889,-773.276,0,0
245333.625,204.345,-771.302,0,0
245593.95,201.81,-769.272,0,0
245854.275,199.47,-767.056,0,0
246114.6,197.025,-765.02,0,0
246374.925,194.551,-762.859,0,0
246635.25,192.082,-760.626,0,0
246895.575,189.688,-758.204,0,0
247155.9,187.337,-755.712,0,0
247416.225,185.128,-753.245,0,0
247676.55,183.103,-750.662,0,0
247936.875,181.109,-748.139,0,0
248197.2,179.212,-745.629,0,0
248457.525,177.333,-743.17,0,0
248717.85,175.478,-740.633,0,0
248978.175,173.733,-738.109,0,0
249238.5,171.932,-735.504,0,0
249498.825,170.345,-732.953,0,0
249759.15,168.826,-730.419,0,0
250019.475,167.265,-727.826,0,0
250279.8,165.893,-725.315,0,0
250540,164.617,-722.82,0,0
250800,163.293,-720.358,0,0
251061,162.069,-717.94,0,0
251321,160.907,-715.576,0,0
251581,159.728,-713.242,0,0
251842,158.473,-710.931,0,0
252102,157.253,-708.656,0,0
252362,156.012,-706.285,0,0
252623,154.782,-703.905,0,0
252883,153.579,-701.47,0,0
253143,152.424,-698.951,0,0
253404,151.339,-696.383,0,0
253664,150.34,-693.782,0,0
253924,149.456,-691.131,0,0
254185,148.659,-688.511,0,0
254445,148.064,-685.91,0,0
254705,147.511,-683.339,0,0
254966,147.005,-680.945,0,0
255226,146.716,-678.528,0,0
255486,146.257,-676.167,0,0
255747,145.865,-673.976,0,0
256007,145.433,-671.753,0,0
256267,144.995,-669.54,0,0
256528,144.53,-667.277,0,0
256788,144.153,-665.012,0,0
257048,143.808,-662.726,0,0
257309,143.471,-660.467,0,0
257569,143.188,-658.179,0,0
257829,142.898,-655.841,0,0
258090,142.737,-653.477,0,0
258350,142.616,-651.104,0,0
258610,142.607,-648.744,0,0
258871,142.694,-646.325,0,0
259131,142.866,-643.905,0,0
259391,143.194,-641.534,0,0
259651,143.698,-639.253,0,0
259912,144.212,-637.026,0,0
260172,144.847,-634.878,0,0
260432,145.645,-632.93,0,0
260693,146.409,-630.971,0,0
260953,147.22,-629.179,0,0
261213,148.044,-627.434,0,0
261474,148.914,-625.8,0,0
261734,149.753,-624.244,0,0
261994,150.624,-622.766,0,0
262255,151.567,-621.363,0,0
262515,152.489,-620.003,0,0
262775,153.388,-618.715,0,0
263036,154.327,-617.484,0,0
263296,155.299,-616.324,0,0
263556,156.25,-615.229,0,0
263817,157.288,-614.139,0,0
264077,158.335,-613.113,0,0
264337,159.497,-612.163,0,0
264598,160.638,-611.269,0,0
264858,161.899,-610.589,0,0
265118,163.31,-609.941,0,0
265379,164.61,-609.519,0,0
265639,166.057,-609.26,0,0
265899,167.454,-609.217,0,0
266160,168.812,-609.385,0,0
266420,170.145,-609.787,0,0
266680.25,171.373,-610.433,0,0
266940.575,172.481,-611.276,0,0
267200.9,173.411,-612.386,0,0
267461.225,174.092,-613.741,0,0
267721.55,174.422,-615.254,0,0
267981.875,174.455,-616.813,0,0
268242.2,174.113,-618.43,0,0
268502.525,173.426,-620.048,0,0
268762.85,172.433,-621.55,0,0
269023.175,171.046,-622.907,0,0
269283.5,169.473,-624.06,0,0
269543.825,167.649,-624.965,0,0
269804.15,165.662,-625.594,0,0
270064.475,163.586,-625.97,0,0
270324.8,161.401,-626.172,0,0
270585.125,159.034,-626.094,0,0
270845.45,156.693,-625.67,0,0
271105.775,154.333,-624.937,0,0
271366.1,152.142,-623.898,0,0
271626.425,150.063,-622.632,0,0
271886.75,148.116,-621.169,0,0
272147.075,146.421,-619.502,0,0
272407.4,144.886,-617.77,0,0
272667.725,143.608,-615.91,0,0
272928.05,142.517,-614.041,0,0
273188.375,141.604,-612.197,0,0
273448.7,140.842,-610.399,0,0
273709.025,140.199,-608.656,0,0
273969.35,139.645,-606.976,0,0
274229.675,139.124,-605.334,0,0
274490.0,138.692,-603.681,0,0
274750.325,138.289,-601.995,0,0
275010.65,137.927,-600.408,0,0
275270.975,137.716,-598.68,0,0
275531.3,137.593,-597.07,0,0
275791.625,137.519,-595.462,0,0
276051.95,137.598,-593.888,0,0
276312.275,137.748,-592.389,0,0
276572.6,137.996,-590.968,0,0
276832.925,138.313,-589.667,0,0
277093.25,138.658,-588.447,0,0
277353.575,139.071,-587.338,0,0
277613.9,139.466,-586.356,0,0
277874.225,139.844,-585.515,0,0
278134.55,140.167,-584.76,0,0
278394.875,140.463,-584.075,0,0
278655.2,140.696,-583.46,0,0
278915.525,140.843,-582.93,0,0
279175.85,140.879,-582.382,0,0
279436.175,140.816,-581.839,0,0
279696.5,140.673,-581.256,0,0
279956.825,140.564,-580.547,0,0
280217.15,140.426,-579.86,0,0
280477.475,140.297,-579.081,0,0
280737.8,140.276,-578.275,0,0
280998.125,140.324,-577.529,0,0
281258.45,140.451,-576.884,0,0
281518.775,140.545,-576.342,0,0
281779.1,140.613,-575.892,0,0
282039.425,140.558,-575.537,0,0
282299.75,140.39,-575.205,0,0
282560,140.064,-574.832,0,0
282820,139.678,-574.366,0,0
283081,139.127,-573.7,0,0
283341,138.839,-573.091,0,0
283601,138.426,-572.367,0,0
283862,138.251,-571.619,0,0
284122,138.087,-570.903,0,0
284382,137.803,-570.209,0,0
284643,137.645,-569.631,0,0
284903,137.439,-569.02,0,0
285163,137.116,-568.516,0,0
285424,136.826,-567.919,0,0
285684,136.405,-567.578,0,0
285944,135.806,-567.076,0,0
286205,135.165,-566.501,0,0
286465,134.393,-565.812,0,0
286725,133.555,-564.978,0,0
286986,132.694,-563.909,0,0
287246,131.904,-562.735,0,0
287506,131.21,-561.436,0,0
287767,130.586,-559.945,0,0
288027,130.19,-558.304,0,0
288287,129.839,-556.696,0,0
288548,129.887,-555.044,0,0
288808,129.907,-553.322,0,0
289068,130.286,-551.646,0,0
289329,130.765,-550.191,0,0
289589,131.322,-548.831,0,0
289849,132.056,-547.622,0,0
290109,132.906,-546.594,0,0
290370,133.637,-545.927,0,0
290630,134.24,-545.337,0,0
290890,134.815,-544.796,0,0
291151,135.096,-544.348,0,0
291411,135.405,-543.878,0,0
291671,135.593,-543.483,0,0
291932,135.666,-542.943,0,0
292192,135.653,-542.426,0,0
292452,135.71,-541.969,0,0
292713,135.637,-541.267,0,0
292973,135.475,-540.723,0,0
293233,135.301,-539.959,0,0
293494,135.166,-539.123,0,0
293754,135.005,-538.279,0,0
294014,134.933,-537.342,0,0
294275,134.9,-536.236,0,0
294535,134.917,-535.235,0,0
294795,134.871,-534.083,0,0
295056,134.954,-532.978,0,0
295316,135.176,-531.79,0,0
295576,135.407,-530.48,0,0
295837,135.695,-529.265,0,0
296097,136.096,-527.948,0,0
296357,136.695,-526.732,0,0
296618,137.291,-525.504,0,0
296878,138.092,-524.335,0,0
297138,138.887,-523.269,0,0
297399,139.758,-522.23,0,0
297659,140.64,-521.219,0,0
297919,141.603,-520.331,0,0
298180,142.706,-519.464,0,0
298440,143.743,-518.769,0,0
298700.2,144.834,-518.089,0,0
298960.525,145.847,-517.469,0,0
299220.85,146.931,-516.978,0,0
299481.175,147.959,-516.535,0,0
299741.5,148.974,-515.969,0,0
300001.825,150.023,-515.525,0,0
300262.15,151.099,-515.193,0,0
300522.475,152.285,-514.826,0,0
300782.8,153.408,-514.435,0,0
301043.125,154.599,-514.133,0,0
301303.45,155.866,-513.923,0,0
301563.775,157.19,-513.839,0,0
301824.1,158.598,-513.837,0,0
302084.425,159.886,-514.052,0,0
302344.75,161.167,-514.339,0,0
302605.075,162.268,-514.756,0,0
302865.4,163.403,-515.205,0,0
303125.725,164.378,-515.679,0,0
303386.05,165.327,-516.165,0,0
303646.375,166.283,-516.653,0,0
303906.7,167.185,-517.156,0,0
304167.025,168.161,-517.703,0,0
304427.35,169.079,-518.358,0,0
304687.675,170.019,-519.067,0,0
304948.0,170.833,-519.744,0,0
305208.325,171.573,-520.628,0,0
305468.65,172.26,-521.397,0,0
305728.975,172.974,-522.185,0,0
305989.3,173.774,-523.046,0,0
306249.625,174.48,-523.883,0,0
306509.95,175.251,-524.901,0,0
306770.275,176.013,-525.983,0,0
307030.6,176.691,-527.26,0,0
307290.925,177.259,-528.681,0,0
307551.25,177.632,-530.28,0,0
307811.575,177.827,-531.806,0,0
308071.9,177.911,-533.308,0,0
308332.225,177.847,-534.826,0,0
308592.55,177.69,-536.208,0,0
308852.875,177.396,-537.569,0,0
309113.2,177.015,-538.942,0,0
309373.525,176.603,-540.145,0,0
309633.85,176.162,-541.426,0,0
309894.175,175.716,-542.609,0,0
310154.5,175.239,-543.876,0,0
310414.825,174.794,-545.177,0,0
310675.15,174.213,-546.438,0,0
310935.475,173.441,-547.802,0,0
311195.8,172.653,-549.168,0,0
311456.125,171.661,-550.353,0,0
311716.45,170.723,-551.376,0,0
311976.775,169.627,-552.467,0,0
312237.1,168.47,-553.453,0,0
312497.425,167.35,-554.423,0,0
312757.75,166.061,-555.259,0,0
313018.075,164.796,-555.934,0,0
313278.4,163.622,-556.599,0,0
313538.725,162.464,-557.188,0,0
313799.05,161.242,-557.734,0,0
314059.375,160.133,-558.387,0,0
314319.7,159.073,-558.93,0,0
314580,157.885,-559.635,0,0
314840,156.696,-560.118,0,0
315101,155.498,-560.722,0,0
315361,154.239,-561.312,0,0
315621,152.953,-561.931,0,0
315882,151.48,-562.499,0,0
316142,150.082,-562.978,0,0
316402,148.512,-563.428,0,0
316663,147.016,-563.794,0,0
316923,145.396,-564.091,0,0
317183,143.796,-564.292,0,0
317444,142.144,-564.558,0,0
317704,140.486,-564.617,0,0
317964,138.87,-564.646,0,0
318225,137.136,-564.61,0,0
318485,135.472,-564.595,0,0
318745,133.793,-564.358,0,0
319006,132.103,-564.107,0,0
319266,130.383,-563.801,0,0
319526,128.776,-563.362,0,0
319787,127.104,-563.034,0,0
320047,125.556,-562.387,0,0
320307,123.942,-561.91,0,0
320567,122.338,-561.309,0,0
320828,120.8,-560.694,0,0
321088,119.185,-560.02,0,0
321348,117.702,-559.162,0,0
321609,116.16,-558.241,0,0
321869,114.701,-557.255,0,0
322129,113.345,-556.248,0,0
322390,111.982,-555.038,0,0
322650,110.773,-553.876,0,0
322910,109.648,-552.637,0,0
323171,108.597,-551.267,0,0
323431,107.751,-550.007,0,0
323691,106.991,-548.83,0,0
323952,106.322,-547.517,0,0
324212,105.722,-546.299,0,0
324472,105.174,-545.173,0,0
324733,104.721,-544.065,0,0
324993,104.28,-542.991,0,0
325253,103.974,-541.997,0,0
325514,103.596,-540.948,0,0
325774,103.337,-540.015,0,0
326034,103.105,-539.175,0,0
326295,102.813,-538.321,0,0
326555,102.61,-537.541,0,0
326815,102.457,-536.868,0,0
327076,102.245,-536.3,0,0
327336,102.059,-535.644,0,0
327596,101.803,-535.113,0,0
327857,101.515,-534.617,0,0
328117,101.242,-534.277,0,0
328377,100.931,-533.754,0,0
328638,100.599,-533.37,0,0
328898,100.223,-533.005,0,0
329158,99.859,-532.701,0,0
329419,99.4199,-532.284,0,0
329679,99.0533,-531.879,0,0
329939,98.5653,-531.665,0,0
330200,98.0663,-531.279,0,0
330460,97.6115,-530.918,0,0
330720.15,97.0883,-530.597,0,0
330980.475,96.4585,-530.25,0,0
331240.8,95.9131,-529.976,0,0
331501.125,95.3132,-529.643,0,0
331761.45,94.6617,-529.264,0,0
332021.775,93.9476,-528.967,0,0
332282.1,93.305,-528.553,0,0
332542.425,92.6153,-528.133,0,0
332802.75,91.9635,-527.787,0,0
333063.075,91.2281,-527.362,0,0
333323.4,90.4632,-526.984,0,0
333583.725,89.6574,-526.529,0,0
333844.05,88.8629,-526.06,0,0
334104.375,88.0606,-525.482,0,0
334364.7,87.2478,-525.023,0,0
334625.025,86.4144,-524.514,0,0
334885.35,85.6266,-523.817,0,0
335145.675,84.7856,-523.169,0,0
335406.0,83.9829,-522.41,0,0
335666.325,83.2551,-521.727,0,0
335926.65,82.5506,-520.995,0,0
336186.975,81.8011,-520.266,0,0
336447.3,81.1244,-519.458,0,0
336707.625,80.3878,-518.74,0,0
336967.95,79.7511,-517.937,0,0
337228.275,79.0676,-517.198,0,0
337488.6,78.4694,-516.395,0,0
337748.925,77.8346,-515.614,0,0
338009.25,77.2525,-514.776,0,0
338269.575,76.6405,-513.924,0,0
338529.9,76.0197,-513.147,0,0
338790.225,75.4847,-512.297,0,0
339050.55,74.9653,-511.496,0,0
339310.875,74.4059,-510.622,0,0
339571.2,73.8933,-509.746,0,0
339831.525,73.4245,-508.907,0,0
340091.85,73.001,-508.055,0,0
340352.175,72.4657,-507.276,0,0
340612.5,72.0713,-506.466,0,0
340872.825,71.5863,-505.671,0,0
341133.15,71.1397,-504.859,0,0
341393.475,70.7714,-504.094,0,0
341653.8,70.3311,-503.304,0,0
341914.125,69.8585,-502.54,0,0
342174.45,69.4109,-501.721,0,0
342434.775,68.9741,-500.936,0,0
342695.1,68.5699,-500.156,0,0
342955.425,68.0992,-499.342,0,0
343215.75,67.665,-498.524,0,0
343476.075,67.2263,-497.769,0,0
343736.4,66.8178,-497.001,0,0
343996.725,66.4432,-496.191,0,0
344257.05,66.0639,-495.422,0,0
344517.375,65.623,-494.578,0,0
344777.7,65.1505,-493.773,0,0
345038.025,64.6768,-493.045,0,0
345298.35,64.3531,-492.173,0,0
345558.675,63.829,-491.321,0,0
345819.0,63.4241,-490.469,0,0
346079.325,62.9749,-489.615,0,0
346339.65,62.6037,-488.723,0,0
346599.975,62.1629,-487.838,0,0
346860,61.7331,-486.918,0,0
347121,61.373,-485.953,0,0
347381,61.0215,-484.999,0,0
347641,60.6882,-484.012,0,0
347902,60.3657,-483.092,0,0
348162,60.1417,-482.085,0,0
348422,59.9488,-481.174,0,0
348683,59.7035,-480.179,0,0
348943,59.507,-479.279,0,0
349203,59.3625,-478.384,0,0
349464,59.1443,-477.442,0,0
349724,58.9437,-476.567,0,0
349984,58.7908,-475.735,0,0
350245,58.626,-474.847,0,0
350505,58.4741,-473.945,0,0
350765,58.3071,-473.109,0,0
351025,58.1552,-472.207,0,0
351286,58.0476,-471.305,0,0
351546,57.8997,-470.432,0,0
351806,57.7767,-469.561,0,0
352067,57.7194,-468.686,0,0
352327,57.6425,-467.868,0,0
352587,57.5728,-467.025,0,0
352848,57.5144,-466.255,0,0
353108,57.4292,-465.497,0,0
353368,57.2901,-464.656,0,0
353629,57.2125,-463.869,0,0
353889,57.1181,-463.096,0,0
354149,57.0611,-462.238,0,0
354410,57.0053,-461.452,0,0
354670,56.8585,-460.731,0,0
354930,56.8015,-459.886,0,0
355191,56.7234,-459.086,0,0
355451,56.6753,-458.282,0,0
355711,56.6693,-457.475,0,0
355972,56.593,-456.709,0,0
356232,56.557,-455.977,0,0
356492,56.5159,-455.164,0,0
356753,56.4233,-454.43,0,0
357013,56.4391,-453.664,0,0
357273,56.3781,-452.868,0,0
357534,56.3101,-452.164,0,0
357794,56.255,-451.39,0,0
358054,56.2062,-450.597,0,0
358315,56.1722,-449.822,0,0
358575,56.1422,-449.021,0,0
358835,56.123,-448.251,0,0
359096,56.1627,-447.439,0,0
359356,56.0904,-446.668,0,0
359616,56.0888,-445.92,0,0
359877,56.1593,-445.128,0,0
360137,56.2132,-444.355,0,0
360397,56.2728,-443.561,0,0
360658,56.2967,-442.817,0,0
360918,56.3451,-442.157,0,0
361178,56.3832,-441.396,0,0
361438,56.3972,-440.664,0,0
361699,56.4585,-439.966,0,0
361959,56.5163,-439.3,0,0
362219,56.5386,-438.567,0,0
362480,56.5431,-437.836,0,0
362740.1,56.5641,-437.087,0,0
363000.425,56.6327,-436.348,0,0
363260.75,56.6888,-435.579,0,0
363521.075,56.7188,-434.82,0,0
363781.4,56.7173,-434.04,0,0
364041.725,56.8745,-433.314,0,0
364302.05,56.957,-432.554,0,0
364562.375,57.0828,-431.812,0,0
364822.7,57.1659,-431.038,0,0
365083.025,57.3282,-430.302,0,0
365343.35,57.4649,-429.618,0,0
365603.675,57.6353,-428.928,0,0
365864.0,57.7656,-428.259,0,0
366124.325,57.8303,-427.626,0,0
366384.65,57.9652,-426.941,0,0
366644.975,58.0347,-426.31,0,0
366905.3,58.0578,-425.601,0,0
367165.625,58.1211,-424.878,0,0
367425.95,58.0978,-424.167,0,0
367686.275,58.1515,-423.388,0,0
367946.6,58.2237,-422.529,0,0
368206.925,58.3189,-421.667,0,0
368467.25,58.5008,-420.853,0,0
368727.575,58.641,-419.946,0,0
368987.9,58.9087,-419.093,0,0
369248.225,59.1007,-418.241,0,0
369508.55,59.4242,-417.315,0,0
369768.875,59.7812,-416.453,0,0
370029.2,60.0935,-415.647,0,0
370289.525,60.4731,-414.809,0,0
370549.85,60.8994,-413.974,0,0
370810.175,61.3231,-413.169,0,0
371070.5,61.8365,-412.305,0,0
371330.825,62.4329,-411.569,0,0
371591.15,62.9623,-410.813,0,0
371851.475,63.557,-410.118,0,0
372111.8,64.2033,-409.526,0,0
372372.125,64.8381,-408.925,0,0
372632.45,65.4524,-408.335,0,0
372892.775,66.1493,-407.865,0,0
373153.1,66.8017,-407.397,0,0
373413.425,67.4401,-406.91,0,0
373673.75,68.0758,-406.559,0,0
373934.075,68.7256,-406.244,0,0
374194.4,69.3035,-405.935,0,0
374454.725,69.9318,-405.625,0,0
374715.05,70.4854,-405.381,0,0
374975.375,71.0918,-405.16,0,0
375235.7,71.6431,-404.947,0,0
375496.025,72.2183,-404.71,0,0
375756.35,72.7233,-404.564,0,0
376016.675,73.2482,-404.402,0,0
376277.0,73.7431,-404.263,0,0
376537.325,74.2583,-404.159,0,0
376797.65,74.7234,-404.06,0,0
377057.975,75.1756,-403.972,0,0
377318.3,75.6456,-403.928,0,0
377578.625,76.105,-403.902,0,0
377838.95,76.5049,-403.898,0,0
378099.275,76.8867,-403.955,0,0
378359.6,77.2217,-403.964,0,0
378619.925,77.5274,-404.046,0,0
378880,77.8096,-404.023,0,0
379141,78.0611,-404.034,0,0
379401,78.2795,-403.994,0,0
379661,78.503,-403.976,0,0
379922,78.6933,-403.85,0,0
380182,79.0033,-403.768,0,0
380442,79.3054,-403.657,0,0
380703,79.6495,-403.554,0,0
380963,80.077,-403.474,0,0
381223,80.5068,-403.507,0,0
381483,80.9975,-403.604,0,0
381744,81.4305,-403.811,0,0
382004,81.7676,-404.007,0,0
382264,82.1716,-404.319,0,0
382525,82.4665,-404.659,0,0
382785,82.7664,-405.078,0,0
383045,82.9291,-405.489,0,0
383306,83.0413,-405.969,0,0
383566,83.0738,-406.411,0,0
383826,83.0434,-406.884,0,0
384087,82.941,-407.438,0,0
384347,82.727,-407.879,0,0
384607,82.4188,-408.251,0,0
384868,82.1022,-408.624,0,0
385128,81.7876,-408.945,0,0
385388,81.3754,-409.25,0,0
385649,80.9925,-409.491,0,0
385909,80.5223,-409.646,0,0
386169,80.081,-409.858,0,0
386430,79.6101,-409.987,0,0
386690,79.099,-410.105,0,0
386950,78.6039,-410.199,0,0
387211,78.0743,-410.208,0,0
387471,77.5374,-410.212,0,0
387731,76.9405,-410.143,0,0
387992,76.3518,-410.03,0,0
388252,75.7685,-409.866,0,0
388512,75.1829,-409.629,0,0
388773,74.7137,-409.372,0,0
389033,74.2205,-409.092,0,0
389293,73.76,-408.764,0,0
389554,73.3656,-408.414,0,0
389814,72.9265,-408.089,0,0
390074,72.6437,-407.818,0,0
390335,72.3077,-407.509,0,0
390595,71.9598,-407.229,0,0
390855,71.6827,-406.961,0,0
391116,71.3429,-406.719,0,0
391376,70.9966,-406.453,0,0
391636,70.6953,-406.224,0,0
391896,70.3086,-406.033,0,0
392157,69.9184,-405.759,0,0
392417,69.5036,-405.536,0,0
392677,69.1013,-405.323,0,0
392938,68.6279,-405.028,0,0
393198,68.1703,-404.765,0,0
393458,67.6785,-404.412,0,0
393719,67.2028,-404.105,0,0
393979,66.7171,-403.72,0,0
394239,66.2163,-403.292,0,0
394500,65.731,-402.884,0,0
394760.05,65.2318,-402.457,0,0
395020.375,64.7559,-401.967,0,0
395280.7,64.2767,-401.495,0,0
395541.025,63.7668,-400.947,0,0
395801.35,63.288,-400.399,0,0
396061.675,62.8721,-399.81,0,0
396322.0,62.3921,-399.221,0,0
396582.325,61.9837,-398.602,0,0
396842.65,61.5324,-397.937,0,0
397102.975,61.1757,-397.238,0,0
397363.3,60.7926,-396.539,0,0
397623.625,60.4851,-395.836,0,0
397883.95,60.2023,-395.057,0,0
398144.275,59.9414,-394.348,0,0
398404.6,59.7344,-393.596,0,0
398664.925,59.502,-392.864,0,0
398925.25,59.3365,-392.156,0,0
399185.575,59.1849,-391.452,0,0
399445.9,59.0368,-390.663,0,0
399706.225,58.9233,-390.001,0,0
399966.55,58.8465,-389.374,0,0
400006.6,58.8236,-389.208,0,0