File: Accelerated corrosion test data/2025-10-21_18-00-04/sample_6.csv
Frequency (Hz),Impedance (ohms),Phase (Radians),Temperature (C),Humidity (%)
10000.0,4092.42,-6788.07,0,0
10260.325,3954.39,-6700.67,0,0
10520.65,3823.26,-6613.59,0,0
10780.975,3698.38,-6527.76,0,0
11041.3,3579.47,-6442.38,0,0
11301.625,3465.87,-6359.23,0,0
11561.95,3357.47,-6276.57,0,0
11822.275,3254.27,-6195.28,0,0
12082.6,3154.71,-6115.33,0,0
12342.925,3060.53,-6036.54,0,0
12603.25,2971.39,-5957.4,0,0
12863.575,2885,-5882.21,0,0
13123.9,2803.94,-5808.27,0,0
13384.225,2724.76,-5736.73,0,0
13644.55,2647.84,-5665.82,0,0
13904.875,2574.41,-5595.22,0,0
14165.2,2504.06,-5525.84,0,0
14425.525,2436.5,-5457.49,0,0
14685.8,2372.67,-5390.88,0,0
14946.175,2311.58,-5325.03,0,0
15206.5,2251.6,-5261.53,0,0
15466.825,2194.46,-5198.43,0,0
15727.15,2139.78,-5136.9,0,0
15987.5,2086.92,-5076.3,0,0
16247.8,2035.95,-5016.89,0,0
16508.125,1986.67,-4958.84,0,0
16768.45,1939.81,-4901.65,0,0
17028.775,1894.48,-4846.03,0,0
17289.1,1850.79,-4791.26,0,0
17549.425,1807.97,-4737.9,0,0
17809.75,1766.47,-4684.82,0,0
18070.075,1727.92,-4632.27,0,0
18330.4,1688.93,-4581.71,0,0
18590.725,1651.84,-4531.55,0,0
18851.05,1617.2,-4482.43,0,0
19111.375,1583.53,-4434.87,0,0
19371.7,1550.34,-4387.77,0,0
19632.025,1518.66,-4342.58,0,0
19892.35,1486.19,-4297.52,0,0
20152.675,1456.04,-4252.82,0,0
20413.0,1426.89,-4209.33,0,0
20673.3,1398.34,-4166.59,0,0
20933.65,1370.45,-4124.29,0,0
21193.975,1344.07,-4082.6,0,0
21454.3,1317.85,-4042.36,0,0
21714.625,1293.11,-4002.11,0,0
21974.9,1268.94,-3963.05,0,0
22235.275,1244.68,-3924.37,0,0
22495.6,1222.08,-3886.32,0,0
22755.925,1199.63,-3848.09,0,0
23016.25,1178.32,-3810.41,0,0
23276.6,1159.64,-3774.99,0,0
23536.9,1139.69,-3741.32,0,0
23797.225,1120.02,-3707.08,0,0
24057.55,1100.53,-3673.43,0,0
24317.875,1081.68,-3640.05,0,0
24578.2,1063.33,-3607.33,0,0
24838.525,1045.74,-3574.3,0,0
25098.85,1028.38,-3543.06,0,0
25359.175,1011.91,-3512.46,0,0
25619.5,995.213,-3481.87,0,0
25879.8,979.022,-3451.86,0,0
26140.1,963.536,-3421.72,0,0
26400.5,948.461,-3391.96,0,0
26660.8,934.002,-3363.45,0,0
26921.1,920.093,-3334.87,0,0
27181.4,906.103,-3307.5,0,0
27441.8,892.632,-3280.08,0,0
27702.1,879.312,-3253.23,0,0
27962.4,866.394,-3227.63,0,0
28222.7,852.523,-3201.75,0,0
28483.1,839.252,-3175.69,0,0
28743.4,826.301,-3149.66,0,0
29003.7,813.908,-3123.92,0,0
29264,802.261,-3098.15,0,0
29524.4,791.008,-3072.57,0,0
29784.7,781.14,-3047.21,0,0
30045,771.519,-3024.04,0,0
30305.3,761.32,-3000.07,0,0
30565.7,753.723,-2977.82,0,0
30826,743.218,-2956.97,0,0
31086.3,732.373,-2935.58,0,0
31346.6,721.985,-2913.3,0,0
31607,712.278,-2891.1,0,0
31867.3,703.917,-2869.02,0,0
32127.6,694.38,-2847.89,0,0
32387.9,686.236,-2825.84,0,0
32648.3,679.242,-2805.12,0,0
32908.6,672.627,-2786.03,0,0
33168.9,665.205,-2767.44,0,0
33429.2,656.917,-2749.32,0,0
33689.6,647.914,-2731.87,0,0
33949.9,638.254,-2712.94,0,0
34210.2,629.671,-2693.88,0,0
34470.5,621.9,-2674.3,0,0
34730.9,614.536,-2655.77,0,0
34991.2,607.385,-2637.55,0,0
35251.5,600.219,-2619.96,0,0
35511.8,592.484,-2602.45,0,0
35772.2,584.726,-2584.92,0,0
36032.5,577.511,-2566.96,0,0
36292.8,570.494,-2548.92,0,0
36553.1,564.312,-2531.61,0,0
36813.5,557.839,-2514.3,0,0
37073.8,551.678,-2497.08,0,0
37334.1,546.056,-2480.25,0,0
37594.4,540.264,-2463.78,0,0
37854.8,534.535,-2447.41,0,0
38115.1,528.972,-2431.48,0,0
38375.4,523.736,-2414.74,0,0
38635.7,518.83,-2398.84,0,0
38896.1,513.857,-2383.1,0,0
39156.4,509.901,-2367.03,0,0
39416.7,506.066,-2352.09,0,0
39677,502.214,-2337.86,0,0
39937.4,498.359,-2323.84,0,0
40197.7,494.34,-2310.22,0,0
40458,491.177,-2296.51,0,0
40718.3,486.793,-2284.3,0,0
40978.7,481.943,-2271.89,0,0
41239,476.931,-2258.56,0,0
41499.3,472.694,-2245.8,0,0
41759.6,468.598,-2233.45,0,0
42020,463.152,-2221.61,0,0
42280.275,457.618,-2208.74,0,0
42540.6,452.245,-2195.6,0,0
42800.925,447.165,-2182.34,0,0
43061.25,442.423,-2168.34,0,0
43321.575,438.517,-2153.99,0,0
43581.9,435.959,-2140.6,0,0
43842.225,433.456,-2127.93,0,0
44102.55,430.62,-2115.47,0,0
44362.875,427.972,-2103.6,0,0
44623.2,425.564,-2091.89,0,0
44883.525,423.08,-2080.52,0,0
45143.85,420.19,-2069.66,0,0
45404.175,417.568,-2058.43,0,0
45664.5,415.163,-2047.63,0,0
45924.825,412.999,-2036.87,0,0
46185.15,410.771,-2026.88,0,0
46445.475,407.278,-2017.3,0,0
46705.8,404.822,-2006.85,0,0
46966.125,402.452,-1996.89,0,0
47226.45,399.966,-1987.38,0,0
47486.775,397.329,-1977.8,0,0
47747.1,395.726,-1968.54,0,0
48007.425,393.285,-1960.67,0,0
48267.75,390.211,-1952.47,0,0
48528.075,387.113,-1944.04,0,0
48788.4,384.209,-1936.15,0,0
49048.725,380.521,-1929.04,0,0
49309.05,375.709,-1921.64,0,0
49569.375,370.523,-1913,0,0
49829.7,365.996,-1904.09,0,0
50090.025,361.339,-1895.47,0,0
50350.35,356.274,-1886.34,0,0
50610.675,351.522,-1876.36,0,0
50871.0,347.221,-1866.64,0,0
51131.325,343.232,-1856.54,0,0
51391.65,339.765,-1846.31,0,0
51651.975,336.584,-1836.43,0,0
51912.3,333.611,-1826.78,0,0
52172.625,330.451,-1817.12,0,0
52432.95,327.858,-1807.15,0,0
52693.275,325.707,-1797.83,0,0
52953.6,323.715,-1788.87,0,0
53213.925,321.324,-1780.51,0,0
53474.25,318.785,-1771.93,0,0
53734.575,315.982,-1763.29,0,0
53994.9,313.55,-1754.31,0,0
54255.225,311.389,-1745.43,0,0
54515.55,309.667,-1736.9,0,0
54775.875,307.876,-1728.91,0,0
55036.2,305.757,-1720.92,0,0
55296.525,303.827,-1713.48,0,0
55556.85,301.245,-1705.94,0,0
55817.175,298.461,-1698.05,0,0
56077.5,295.971,-1689.96,0,0
56337.825,293.639,-1681.71,0,0
56598.15,291.601,-1673.31,0,0
56858.475,290.053,-1665.23,0,0
57118.8,288.626,-1657.56,0,0
57379.125,287.211,-1650.16,0,0
57639.45,285.557,-1643.15,0,0
57899.775,283.977,-1635.99,0,0
58160.1,282.194,-1629.49,0,0
58420.4,280.113,-1622.9,0,0
58680.7,278.044,-1616.2,0,0
58941.1,275.673,-1609.46,0,0
59201.4,273.335,-1602.61,0,0
59461.7,271.026,-1595.64,0,0
59722,268.758,-1588.77,0,0
59982.4,266.548,-1581.8,0,0
60242.7,264.27,-1574.89,0,0
60503,262.046,-1567.94,0,0
60763.3,259.879,-1561.02,0,0
61023.7,257.649,-1554.05,0,0
61284,255.483,-1547.06,0,0
61544.3,253.075,-1540.06,0,0
61804.6,250.804,-1532.51,0,0
62065,248.849,-1524.89,0,0
62325.3,247.371,-1516.92,0,0
62585.6,246.52,-1509.12,0,0
62845.9,246.097,-1501.74,0,0
63106.3,246.348,-1495.09,0,0
63366.6,246.351,-1489.25,0,0
63626.9,245.937,-1483.99,0,0
63887.2,244.96,-1479.15,0,0
64147.6,243.475,-1474.25,0,0
64407.9,241.34,-1469.06,0,0
64668.2,238.999,-1463.39,0,0
64928.5,237.012,-1457.23,0,0
65188.9,235.337,-1451.16,0,0
65449.2,233.866,-1444.88,0,0
65709.5,232.467,-1438.92,0,0
65969.8,231.237,-1433.39,0,0
66230.2,229.811,-1427.79,0,0
66490.5,228.463,-1422.44,0,0
66750.8,226.734,-1417.08,0,0
67011.1,224.974,-1411.45,0,0
67271.5,223.11,-1405.94,0,0
67531.8,221.292,-1400.46,0,0
67792.1,219.741,-1394.67,0,0
68052.4,217.946,-1389.01,0,0
68312.8,216.332,-1383.3,0,0
68573.1,214.719,-1377.65,0,0
68833.4,213.346,-1371.98,0,0
69093.7,211.847,-1366.38,0,0
69354.1,210.254,-1360.85,0,0
69614.4,208.822,-1355.3,0,0
69874.7,207.379,-1349.6,0,0
70135,205.967,-1344.28,0,0
70395.4,204.525,-1338.69,0,0
70655.7,203.156,-1333.26,0,0
70916,201.931,-1327.67,0,0
71176.3,200.614,-1322.19,0,0
71436.7,199.393,-1316.76,0,0
71697,198.23,-1311.34,0,0
71957.3,196.983,-1306,0,0
72217.6,195.847,-1300.68,0,0
72478,194.781,-1295.44,0,0
72738.3,193.684,-1290.18,0,0
72998.6,192.608,-1284.99,0,0
73258.9,191.553,-1279.83,0,0
73519.3,190.496,-1274.65,0,0
73779.6,189.425,-1269.62,0,0
74039.9,188.397,-1264.55,0,0
74300.225,187.46,-1259.6,0,0
74560.55,186.406,-1254.7,0,0
74820.875,185.41,-1249.8,0,0
75081.2,184.313,-1244.87,0,0
75341.525,183.26,-1240.02,0,0
75601.85,182.182,-1235.14,0,0
75862.175,181.126,-1230.2,0,0
76122.5,180.154,-1225.34,0,0
76382.825,179.067,-1220.5,0,0
76643.15,178.103,-1215.62,0,0
76903.475,177.124,-1210.79,0,0
77163.8,176.154,-1205.98,0,0
77424.125,175.199,-1201.16,0,0
77684.45,174.232,-1196.31,0,0
77944.775,173.376,-1191.56,0,0
78205.1,172.48,-1186.76,0,0
78465.425,171.623,-1182.03,0,0
78725.75,170.761,-1177.26,0,0
78986.075,169.953,-1172.51,0,0
79246.4,169.096,-1167.79,0,0
79506.725,168.297,-1163.05,0,0
79767.05,167.538,-1158.42,0,0
80027.375,166.673,-1153.74,0,0
80287.7,166.039,-1148.99,0,0
80548.025,165.301,-1144.34,0,0
80808.35,164.703,-1139.62,0,0
81068.675,164.071,-1135.01,0,0
81329.0,163.498,-1130.35,0,0
81589.325,162.996,-1125.73,0,0
81849.65,162.514,-1121.21,0,0
82109.975,162.047,-1116.74,0,0
82370.3,161.575,-1112.25,0,0
82630.625,161.11,-1107.76,0,0
82890.95,160.634,-1103.3,0,0
83151.275,160.276,-1098.83,0,0
83411.6,159.819,-1094.37,0,0
83671.925,159.494,-1089.88,0,0
83932.25,159.167,-1085.52,0,0
84192.575,158.904,-1081.09,0,0
84452.9,158.725,-1076.66,0,0
84713.225,158.596,-1072.34,0,0
84973.55,158.508,-1067.98,0,0
85233.875,158.556,-1063.73,0,0
85494.2,158.545,-1059.61,0,0
85754.525,158.642,-1055.57,0,0
86014.85,158.628,-1051.54,0,0
86275.175,158.837,-1047.67,0,0
86535.5,158.786,-1043.68,0,0
86795.825,158.837,-1039.83,0,0
87056.15,158.864,-1035.96,0,0
87316.475,159.057,-1032.2,0,0
87576.8,159.093,-1028.42,0,0
87837.125,159.275,-1024.84,0,0
88097.45,159.175,-1021.11,0,0
88357.775,159.351,-1017.38,0,0
88618.1,159.45,-1013.78,0,0
88878.425,159.769,-1010.1,0,0
89138.75,160.243,-1006.66,0,0
89399.075,160.801,-1003.28,0,0
89659.4,161.323,-1000.37,0,0
89919.725,161.525,-997.599,0,0
90180,161.569,-995.023,0,0
90440.4,161.37,-992.307,0,0
90700.7,160.942,-989.583,0,0
90961,160.452,-986.868,0,0
91221.3,159.681,-984.284,0,0
91481.7,158.686,-980.756,0,0
91742,158.204,-977.097,0,0
92002.3,158.125,-973.555,0,0
92262.6,158.081,-970.498,0,0
92523,157.708,-967.466,0,0
92783.3,157.385,-964.309,0,0
93043.6,156.851,-961.218,0,0
93303.9,156.469,-957.805,0,0
93564.3,156.107,-954.497,0,0
93824.6,155.88,-951.011,0,0
94084.9,155.865,-947.608,0,0
94345.2,155.785,-944.431,0,0
94605.6,155.744,-941.232,0,0
94865.9,155.626,-937.978,0,0
95126.2,155.726,-934.739,0,0
95386.5,155.902,-931.541,0,0
95646.9,156.197,-928.451,0,0
95907.2,156.572,-925.723,0,0
96167.5,156.751,-923.172,0,0
96427.8,156.786,-920.593,0,0
96688.2,156.769,-918.046,0,0
96948.5,156.69,-915.629,0,0
97208.8,156.349,-913.255,0,0
97469.1,155.894,-910.783,0,0
97729.5,155.223,-908.073,0,0
97989.8,154.736,-905.094,0,0
98250.1,154.564,-902.12,0,0
98510.4,154.352,-899.288,0,0
98770.8,154.188,-896.4,0,0
99031.1,154.1,-893.536,0,0
99291.4,154.186,-890.753,0,0
99551.7,154.236,-888.184,0,0
99812.1,154.184,-885.618,0,0
100072,154.169,-883.202,0,0
100333,154.099,-880.689,0,0
100593,154.141,-878.395,0,0
100853,154.061,-876.206,0,0
101114,153.905,-874.113,0,0
101374,153.504,-872.105,0,0
101634,153.026,-870.028,0,0
101895,152.446,-867.841,0,0
102155,151.867,-865.483,0,0
102415,151.451,-863.251,0,0
102676,151.055,-861.175,0,0
102936,150.395,-859.232,0,0
103196,149.534,-857.207,0,0
103457,148.635,-855.105,0,0
103717,147.757,-852.891,0,0
103977,146.853,-850.849,0,0
104238,145.773,-848.793,0,0
104498,144.474,-846.872,0,0
104758,142.89,-844.712,0,0
105019,141.092,-842.239,0,0
105279,139.269,-839.669,0,0
105539,137.35,-836.755,0,0
105800,135.368,-833.697,0,0
106060,133.225,-830.088,0,0
106320.175,131.426,-826.013,0,0
106580.5,130.08,-821.695,0,0
106840.825,129.036,-817.317,0,0
107101.15,128.372,-812.837,0,0
107361.475,128.092,-808.455,0,0
107621.8,127.987,-804.279,0,0
107882.125,128.055,-800.085,0,0
108142.45,128.446,-796.059,0,0
108402.775,128.864,-792.246,0,0
108663.1,129.401,-788.545,0,0
108923.425,130.106,-785.046,0,0
109183.75,130.708,-781.7,0,0
109444.075,131.301,-778.396,0,0
109704.4,131.931,-775.194,0,0
109964.725,132.662,-771.984,0,0
110225.05,133.429,-768.926,0,0
110485.375,134.347,-765.896,0,0
110745.7,135.177,-762.92,0,0
111006.025,136.152,-760.051,0,0
111266.35,137.346,-757.564,0,0
111526.675,138.602,-755.066,0,0
111787.0,139.913,-753.06,0,0
112047.325,141.151,-751.38,0,0
112307.65,141.936,-750.147,0,0
112567.975,142.278,-748.922,0,0
112828.3,142.3,-747.521,0,0
113088.625,142.167,-746.26,0,0
113348.95,141.677,-744.523,0,0
113609.275,141.208,-742.608,0,0
113869.6,140.869,-740.56,0,0
114129.925,140.522,-738.487,0,0
114390.25,140.164,-736.458,0,0
114650.575,139.597,-734.306,0,0
114910.9,139.194,-731.718,0,0
115171.225,139.119,-729.233,0,0
115431.55,139.399,-726.695,0,0
115691.875,139.994,-724.72,0,0
115952.2,140.145,-723.276,0,0
116212.525,139.903,-721.887,0,0
116472.85,139.369,-720.452,0,0
116733.175,138.628,-718.874,0,0
116993.5,137.68,-717.216,0,0
117253.825,136.425,-715.426,0,0
117514.15,134.987,-713.157,0,0
117774.475,133.671,-710.515,0,0
118034.8,132.523,-707.683,0,0
118295.125,131.591,-704.721,0,0
118555.45,130.74,-701.658,0,0
118815.775,130.058,-698.53,0,0
119076.1,129.518,-695.298,0,0
119336.425,129.086,-692.035,0,0
119596.75,128.895,-688.741,0,0
119857.075,128.835,-685.428,0,0
120117.4,128.963,-682.21,0,0
120377.725,129.232,-679.073,0,0
120638.05,129.594,-676.014,0,0
120898.375,130.179,-673.027,0,0
121158.7,131.022,-670.334,0,0
121419.025,131.799,-668.172,0,0
121679.35,132.125,-666.219,0,0
121939.675,132.184,-664.185,0,0
122200.0,132.093,-662.034,0,0
122460,131.881,-659.799,0,0
122721,131.621,-657.408,0,0
122981,131.4,-654.92,0,0
123241,131.267,-652.27,0,0
123502,131.244,-649.645,0,0
123762,131.23,-647.027,0,0
124022,131.298,-644.436,0,0
124283,131.347,-641.856,0,0
124543,131.416,-639.287,0,0
124803,131.538,-636.744,0,0
125064,131.603,-634.275,0,0
125324,131.634,-631.75,0,0
125584,131.627,-629.158,0,0
125845,131.686,-626.539,0,0
126105,131.759,-623.937,0,0
126365,131.851,-621.289,0,0
126626,131.97,-618.65,0,0
126886,132.101,-615.992,0,0
127146,132.186,-613.278,0,0
127406,132.349,-610.516,0,0
127667,132.52,-607.743,0,0
127927,132.816,-604.925,0,0
128187,133.138,-602.046,0,0
128448,133.589,-599.198,0,0
128708,134.087,-596.388,0,0
128968,134.765,-593.625,0,0
129229,135.393,-590.895,0,0
129489,136.075,-588.237,0,0
129749,136.784,-585.64,0,0
130010,137.532,-583.042,0,0
130270,138.301,-580.544,0,0
130530,139.052,-578.088,0,0
130791,139.822,-575.659,0,0
131051,140.587,-573.213,0,0
131311,141.407,-570.776,0,0
131572,142.234,-568.393,0,0
131832,143.101,-566.071,0,0
132092,144.011,-563.723,0,0
132353,144.936,-561.438,0,0
132613,145.884,-559.257,0,0
132873,146.822,-557.076,0,0
133134,147.816,-554.984,0,0
133394,148.825,-552.932,0,0
133654,149.778,-551.015,0,0
133915,150.638,-549.081,0,0
134175,151.459,-547.19,0,0
134435,152.271,-545.234,0,0
134696,153.175,-543.3,0,0
134956,154.135,-541.379,0,0
135216,155.045,-539.624,0,0
135477,155.945,-537.841,0,0
135737,156.837,-536.095,0,0
135997,157.737,-534.37,0,0
136258,158.74,-532.723,0,0
136518,159.704,-531.287,0,0
136778,160.547,-529.897,0,0
137039,161.325,-528.585,0,0
137299,161.961,-527.348,0,0
137559,162.494,-526.071,0,0
137819,162.96,-524.769,0,0
138080,163.385,-523.517,0,0
138340.125,163.745,-522.206,0,0
138600.45,163.998,-520.895,0,0
138860.775,164.159,-519.67,0,0
139121.1,164.279,-518.369,0,0
139381.425,164.23,-516.965,0,0
139641.75,164.082,-515.435,0,0
139902.075,163.979,-513.859,0,0
140162.4,164.015,-512.118,0,0
140422.725,163.958,-510.267,0,0
140683.05,164.022,-508.412,0,0
140943.375,164.051,-506.623,0,0
141203.7,164.275,-504.804,0,0
141464.025,164.397,-503.154,0,0
141724.35,164.492,-501.578,0,0
141984.675,164.431,-499.952,0,0
142245.0,164.193,-498.259,0,0
142505.325,163.882,-496.411,0,0
142765.65,163.521,-494.41,0,0
143025.975,163.2,-492.199,0,0
143286.3,163.068,-489.866,0,0
143546.625,163.038,-487.383,0,0
143806.95,163.082,-485.009,0,0
144067.275,163.4,-482.6,0,0
144327.6,163.78,-480.232,0,0
144587.925,164.287,-478.03,0,0
144848.25,164.727,-475.849,0,0
145108.575,165.197,-473.866,0,0
145368.9,165.673,-471.896,0,0
145629.225,166.02,-470.014,0,0
145889.55,166.243,-468.164,0,0
146149.875,166.414,-466.27,0,0
146410.2,166.594,-464.401,0,0
146670.525,166.604,-462.459,0,0
146930.85,166.609,-460.548,0,0
147191.175,166.463,-458.546,0,0
147451.5,166.29,-456.481,0,0
147711.825,166.06,-454.243,0,0
147972.15,165.765,-451.83,0,0
148232.475,165.614,-449.332,0,0
148492.8,165.443,-446.63,0,0
148753.125,165.449,-443.87,0,0
149013.45,165.495,-441.104,0,0
149273.775,165.694,-438.209,0,0
149534.1,165.98,-435.284,0,0
149794.425,166.375,-432.479,0,0
150054.75,166.867,-429.588,0,0
150315.075,167.39,-426.77,0,0
150575.4,167.949,-423.921,0,0
150835.725,168.559,-421.119,0,0
151096.05,169.249,-418.255,0,0
151356.375,169.923,-415.373,0,0
151616.7,170.665,-412.452,0,0
151877.025,171.461,-409.459,0,0
152137.35,172.494,-406.404,0,0
152397.675,173.787,-403.465,0,0
152658.0,175.235,-400.691,0,0
152918.325,176.709,-398.121,0,0
153178.65,178.173,-395.88,0,0
153438.975,179.433,-393.822,0,0
153699.3,180.474,-391.71,0,0
153959.625,181.3,-389.528,0,0
154219.95,182.25,-387.271,0,0
154480,183.063,-384.957,0,0
154741,183.854,-382.542,0,0
155001,184.647,-380.019,0,0
155261,185.571,-377.255,0,0
155522,186.724,-374.529,0,0
155782,188.015,-371.795,0,0
156042,189.493,-369.17,0,0
156303,191.196,-366.789,0,0
156563,192.722,-364.63,0,0
156823,194.208,-362.672,0,0
157084,195.57,-360.69,0,0
157344,196.888,-358.815,0,0
157604,198.083,-357.042,0,0
157864,199.06,-355.351,0,0
158125,199.847,-353.507,0,0
158385,200.483,-351.513,0,0
158645,201.186,-349.364,0,0
158906,201.927,-347.113,0,0
159166,202.691,-344.828,0,0
159426,203.495,-342.515,0,0
159687,204.301,-340.243,0,0
159947,205.134,-337.826,0,0
160207,205.937,-335.471,0,0
160468,206.678,-333.085,0,0
160728,207.428,-330.62,0,0
160988,208.208,-328.076,0,0
161249,208.942,-325.47,0,0
161509,209.731,-322.78,0,0
161769,210.626,-320.039,0,0
162030,211.506,-317.315,0,0
162290,212.468,-314.52,0,0
162550,213.457,-311.673,0,0
162811,214.481,-308.864,0,0
163071,215.571,-305.984,0,0
163331,216.731,-303.144,0,0
163592,217.863,-300.372,0,0
163852,219.025,-297.595,0,0
164112,220.098,-294.889,0,0
164373,221.082,-292.136,0,0
164633,222.031,-289.292,0,0
164893,222.898,-286.312,0,0
165154,223.751,-283.222,0,0
165414,224.635,-280.026,0,0
165674,225.626,-276.651,0,0
165935,226.59,-273.21,0,0
166195,227.646,-269.666,0,0
166455,228.797,-266.023,0,0
166716,230.022,-262.282,0,0
166976,231.337,-258.457,0,0
167236,232.768,-254.54,0,0
167497,234.327,-250.535,0,0
167757,236.022,-246.481,0,0
168017,237.888,-242.407,0,0
168277,239.886,-238.388,0,0
168538,241.964,-234.4,0,0
168798,244.113,-230.376,0,0
169058,246.312,-226.41,0,0
169319,248.583,-222.419,0,0
169579,250.921,-218.432,0,0
169839,253.33,-214.434,0,0
170100,255.734,-210.406,0,0
170360.075,258.206,-206.34,0,0
170620.4,260.746,-202.28,0,0
170880.725,263.358,-198.181,0,0
171141.05,265.959,-194.079,0,0
171401.375,268.579,-189.892,0,0
171661.7,271.266,-185.602,0,0
171922.025,274.007,-181.183,0,0
172182.35,276.89,-176.667,0,0
172442.675,279.913,-172.102,0,0
172703.0,283.003,-167.478,0,0
172963.325,286.235,-162.781,0,0
173223.65,289.615,-157.991,0,0
173483.975,293.1,-153.141,0,0
173744.3,296.71,-148.228,0,0
174004.625,300.542,-143.241,0,0
174264.95,304.515,-138.166,0,0
174525.275,308.704,-133.06,0,0
174785.6,313.122,-127.92,0,0
175045.925,317.689,-122.796,0,0
175306.25,322.437,-117.645,0,0
175566.575,327.389,-112.471,0,0
175826.9,332.505,-107.263,0,0
176087.225,337.889,-102.103,0,0
176347.55,343.451,-96.9236,0,0
176607.875,349.235,-91.7949,0,0
176868.2,355.231,-86.6441,0,0
177128.525,361.503,-81.5206,0,0
177388.85,367.969,-76.4878,0,0
177649.175,374.643,-71.5636,0,0
177909.5,381.57,-66.6303,0,0
178169.825,388.668,-61.8163,0,0
178430.15,396.003,-57.0299,0,0
178690.475,403.573,-52.3548,0,0
178950.8,411.374,-47.7702,0,0
179211.125,419.53,-43.3185,0,0
179471.45,427.852,-39.0124,0,0
179731.775,436.388,-34.9492,0,0
179992.1,445.003,-31.138,0,0
180252.425,453.786,-27.4409,0,0
180512.75,462.601,-23.88,0,0
180773.075,471.53,-20.4762,0,0
181033.4,480.562,-17.116,0,0
181293.725,489.731,-13.7006,0,0
181554.05,499.117,-10.3587,0,0
181814.375,508.667,-7.16157,0,0
182074.7,518.359,-3.96001,0,0
182335.025,528.308,-0.91109,0,0
182595.35,538.329,2.20836,0,0
182855.675,548.649,5.16331,0,0
183116.0,559.133,8.26299,0,0
183376.325,569.914,11.1537,0,0
183636.65,581.124,14.1938,0,0
183896.975,592.551,17.0297,0,0
184157.3,604.359,19.8277,0,0
184417.625,616.521,22.5761,0,0
184677.95,629.079,25.1702,0,0
184938.275,642.023,27.7158,0,0
185198.6,655.528,30.1622,0,0
185458.925,669.562,32.3814,0,0
185719.25,684.151,34.4914,0,0
185979.575,699.334,36.2334,0,0
186239.9,715.155,37.6763,0,0
186500,731.632,38.6481,0,0
186761,748.742,39.1446,0,0
187021,766.462,39.0488,0,0
187281,784.786,38.344,0,0
187542,803.682,36.8869,0,0
187802,823.161,34.6895,0,0
188062,843.208,31.7213,0,0
188322,863.821,27.8567,0,0
188583,884.983,22.9401,0,0
188843,906.643,16.804,0,0
189103,928.682,9.41113,0,0
189364,950.839,0.751325,0,0
189624,973.277,-9.3074,0,0
189884,995.535,-20.852,0,0
190145,1017.57,-33.7859,0,0
190405,1039.52,-48.1513,0,0
190665,1060.96,-63.8494,0,0
190926,1082.05,-80.8229,0,0
191186,1102.59,-99.4134,0,0
191446,1122.31,-119.202,0,0
191707,1141.38,-140.393,0,0
191967,1159.5,-162.812,0,0
192227,1176.6,-186.459,0,0
192488,1192.61,-211.406,0,0
192748,1207.31,-237.364,0,0
193008,1220.68,-264.281,0,0
193269,1232.67,-292.011,0,0
193529,1243.26,-320.649,0,0
193789,1252.3,-349.852,0,0
194050,1259.86,-379.663,0,0
194310,1265.8,-409.888,0,0
194570,1269.87,-440.465,0,0
194831,1272.64,-471.503,0,0
195091,1273.53,-502.515,0,0
195351,1272.83,-533.264,0,0
195612,1270.47,-564.075,0,0
195872,1266.32,-594.363,0,0
196132,1260.73,-624.624,0,0
196393,1253.5,-654.19,0,0
196653,1244.8,-683.136,0,0
196913,1234.38,-711.165,0,0
197174,1222.8,-738.454,0,0
197434,1210.04,-764.858,0,0
197694,1196.1,-790.168,0,0
197955,1181.01,-814.355,0,0
198215,1164.92,-837.383,0,0
198475,1148.4,-859.284,0,0
198735,1130.93,-880.021,0,0
198996,1112.71,-899.458,0,0
199256,1093.95,-918.259,0,0
199516,1074.95,-935.324,0,0
199777,1055.47,-951.516,0,0
200037,1035.6,-966.766,0,0
200297,1015.42,-980.513,0,0
200558,995.078,-993.56,0,0
200818,974.808,-1005.33,0,0
201078,954.17,-1015.74,0,0
201339,933.432,-1025.11,0,0
201599,912.976,-1033.45,0,0
201859,892.758,-1040.74,0,0
202120,872.624,-1047.07,0,0
202380.025,852.782,-1052.48,0,0
202640.35,833.415,-1056.96,0,0
202900.675,814.383,-1060.63,0,0
203161.0,795.704,-1063.72,0,0
203421.325,777.793,-1066.07,0,0
203681.65,759.932,-1067.78,0,0
203941.975,742.679,-1068.98,0,0
204202.3,725.787,-1069.49,0,0
204462.625,709.369,-1069.86,0,0
204722.95,693.393,-1069.77,0,0
204983.275,677.757,-1069.15,0,0
205243.6,662.605,-1068.16,0,0
205503.925,647.572,-1066.81,0,0
205764.25,632.817,-1065.06,0,0
206024.575,618.935,-1063.14,0,0
206284.9,605.184,-1060.81,0,0
206545.225,591.878,-1058.2,0,0
206805.55,578.78,-1055.53,0,0
207065.875,566.035,-1052.49,0,0
207326.2,553.868,-1049.14,0,0
207586.525,542.046,-1045.69,0,0
207846.85,530.401,-1042.05,0,0
208107.175,519.252,-1038.23,0,0
208367.5,508.393,-1034.3,0,0
208627.825,497.948,-1030.28,0,0
208888.15,487.701,-1026.17,0,0
209148.475,477.735,-1021.86,0,0
209408.8,468.156,-1017.43,0,0
209669.125,458.91,-1013.43,0,0
209929.45,449.762,-1008.88,0,0
210189.775,441.04,-1004.43,0,0
210450.1,432.467,-999.92,0,0
210710.425,423.984,-995.516,0,0
210970.75,415.617,-990.886,0,0
211231.075,407.731,-986.262,0,0
211491.4,399.798,-981.456,0,0
211751.725,392.19,-976.641,0,0
212012.05,384.866,-971.549,0,0
212272.375,377.809,-966.501,0,0
212532.7,371.061,-961.344,0,0
212793.025,364.503,-956.353,0,0
213053.35,358.219,-951.273,0,0
213313.675,352.16,-946.297,0,0
213574.0,346.309,-941.33,0,0
213834.325,340.616,-936.353,0,0
214094.65,334.994,-931.389,0,0
214354.975,329.557,-926.552,0,0
214615.3,324.173,-921.564,0,0
214875.625,319.023,-916.772,0,0
215135.95,314.154,-911.627,0,0
215396.275,309.27,-906.75,0,0
215656.6,304.73,-901.775,0,0
215916.925,300.287,-896.876,0,0
216177.25,296.01,-891.973,0,0
216437.575,291.912,-887.152,0,0
216697.9,287.906,-882.361,0,0
216958.225,284.006,-877.612,0,0
217218.55,280.297,-872.932,0,0
217478.875,276.636,-868.275,0,0
217739.2,273.074,-863.695,0,0
217999.525,269.574,-859.092,0,0
218259.85,266.262,-854.5,0,0
218520,262.971,-849.924,0,0
218780,259.841,-845.446,0,0
219041,256.756,-840.779,0,0
219301,253.887,-836.393,0,0
219561,250.832,-832.002,0,0
219822,248.209,-827.511,0,0
220082,245.533,-823.03,0,0
220342,242.767,-818.746,0,0
220603,240.163,-814.348,0,0
220863,237.797,-810.024,0,0
221123,235.426,-805.678,0,0
221384,233.108,-801.226,0,0
221644,230.838,-796.972,0,0
221904,228.771,-792.662,0,0
222165,226.702,-788.302,0,0
222425,224.866,-783.888,0,0
222685,223,-779.613,0,0
222946,221.184,-775.41,0,0
223206,219.585,-771.076,0,0
223466,218.026,-766.739,0,0
223727,216.598,-762.473,0,0
223987,215.156,-758.349,0,0
224247,213.965,-754.038,0,0
224508,212.943,-749.794,0,0
224768,211.832,-745.777,0,0
225028,210.98,-741.633,0,0
225289,210.057,-737.616,0,0
225549,209.563,-733.562,0,0
225809,208.976,-729.729,0,0
226070,208.344,-725.919,0,0
226330,207.931,-722.186,0,0
226590,207.565,-718.49,0,0
226851,207.08,-714.962,0,0
227111,206.828,-711.502,0,0
227371,206.476,-708.022,0,0
227632,206.269,-704.537,0,0
227892,205.876,-701.306,0,0
228152,205.743,-697.934,0,0
228413,205.572,-694.522,0,0
228673,205.432,-691.212,0,0
228933,205.247,-687.961,0,0
229193,205.256,-684.65,0,0
229454,205.242,-681.479,0,0
229714,205.333,-678.22,0,0
229974,205.466,-674.949,0,0
230235,205.634,-671.712,0,0
230495,205.838,-668.626,0,0
230755,206.171,-665.382,0,0
231016,206.586,-662.293,0,0
231276,207.087,-659.188,0,0
231536,207.607,-656.207,0,0
231797,208.216,-653.208,0,0
232057,208.893,-650.218,0,0
232317,209.624,-647.268,0,0
232578,210.473,-644.413,0,0
232838,211.389,-641.576,0,0
233098,212.345,-638.8,0,0
233359,213.397,-636.055,0,0
233619,214.485,-633.41,0,0
233879,215.738,-630.828,0,0
234140,216.971,-628.298,0,0
234400,218.35,-625.825,0,0
234660.3,219.64,-623.463,0,0
234920.625,221.235,-621.106,0,0
235180.95,222.713,-618.998,0,0
235441.275,224.278,-616.815,0,0
235701.6,225.956,-614.743,0,0
235961.925,227.606,-612.816,0,0
236222.25,229.373,-610.954,0,0
236482.575,231.169,-609.163,0,0
236742.9,233.037,-607.437,0,0
237003.225,234.896,-605.867,0,0
237263.55,236.825,-604.402,0,0
237523.875,238.797,-603.004,0,0
237784.2,240.821,-601.753,0,0
238044.525,242.824,-600.554,0,0
238304.85,244.837,-599.535,0,0
238565.175,246.929,-598.593,0,0
238825.5,249.044,-597.737,0,0
239085.825,251.16,-596.984,0,0
239346.15,253.278,-596.4,0,0
239606.475,255.363,-595.928,0,0
239866.8,257.44,-595.641,0,0
240127.125,259.605,-595.326,0,0
240387.45,261.672,-595.264,0,0
240647.775,263.768,-595.208,0,0
240908.1,265.766,-595.359,0,0
241168.425,267.732,-595.591,0,0
241428.75,269.696,-595.916,0,0
241689.075,271.617,-596.33,0,0
241949.4,273.464,-596.923,0,0
242209.725,275.264,-597.603,0,0
242470.05,277.045,-598.341,0,0
242730.375,278.774,-599.243,0,0
242990.7,280.404,-600.149,0,0
243251.025,281.997,-601.188,0,0
243511.35,283.514,-602.367,0,0
243771.675,285.041,-603.671,0,0
244032.0,286.42,-605.108,0,0
244292.325,287.671,-606.688,0,0
244552.65,288.92,-608.302,0,0
244812.975,289.93,-609.987,0,0
245073.3,290.874,-611.764,0,0
245333.625,291.498,-613.649,0,0
245593.95,292.047,-615.561,0,0
245854.275,292.454,-617.428,0,0
246114.6,292.665,-619.249,0,0
246374.925,292.814,-621.085,0,0
246635.25,292.839,-622.886,0,0
246895.575,292.734,-624.578,0,0
247155.9,292.566,-626.255,0,0
247416.225,292.438,-627.904,0,0
247676.55,292.17,-629.643,0,0
247936.875,291.888,-631.169,0,0
248197.2,291.505,-632.78,0,0
248457.525,291.007,-634.487,0,0
248717.85,290.642,-635.847,0,0
248978.175,289.921,-637.284,0,0
249238.5,289.38,-638.616,0,0
249498.825,288.895,-639.838,0,0
249759.15,288.469,-641.174,0,0
250019.475,288.264,-642.462,0,0
250279.8,287.953,-643.693,0,0
250540,287.65,-645.358,0,0
250800,287.419,-647.052,0,0
251061,287.006,-648.816,0,0
251321,286.667,-650.763,0,0
251581,285.985,-652.826,0,0
251842,285.198,-654.893,0,0
252102,284.375,-656.999,0,0
252362,283.397,-659.178,0,0
252623,282.223,-661.357,0,0
252883,280.894,-663.537,0,0
253143,279.485,-665.785,0,0
253404,277.847,-668.008,0,0
253664,275.977,-670.251,0,0
253924,274.013,-672.403,0,0
254185,271.746,-674.516,0,0
254445,269.413,-676.458,0,0
254705,266.873,-678.222,0,0
254966,264.231,-679.958,0,0
255226,261.507,-681.475,0,0
255486,258.716,-682.808,0,0
255747,255.838,-684.051,0,0
256007,252.9,-685.137,0,0
256267,249.861,-686.107,0,0
256528,246.899,-686.847,0,0
256788,243.888,-687.5,0,0
257048,240.918,-688.04,0,0
257309,237.915,-688.411,0,0
257569,234.929,-688.629,0,0
257829,231.968,-688.826,0,0
258090,229.051,-688.847,0,0
258350,226.139,-688.807,0,0
258610,223.237,-688.705,0,0
258871,220.45,-688.488,0,0
259131,217.663,-688.209,0,0
259391,214.897,-687.736,0,0
259651,212.262,-687.341,0,0
259912,209.494,-686.935,0,0
260172,206.865,-686.246,0,0
260432,204.176,-685.597,0,0
260693,201.666,-684.965,0,0
260953,199.15,-684.166,0,0
261213,196.698,-683.366,0,0
261474,194.286,-682.446,0,0
261734,191.923,-681.587,0,0
261994,189.584,-680.631,0,0
262255,187.346,-679.614,0,0
262515,185.085,-678.573,0,0
262775,182.962,-677.534,0,0
263036,180.916,-676.401,0,0
263296,178.773,-675.3,0,0
263556,176.735,-674.203,0,0
263817,174.711,-673.031,0,0
264077,172.85,-671.875,0,0
264337,170.897,-670.675,0,0
264598,169.001,-669.469,0,0
264858,167.153,-668.311,0,0
265118,165.473,-667.096,0,0
265379,163.658,-665.853,0,0
265639,161.92,-664.639,0,0
265899,160.23,-663.305,0,0
266160,158.585,-662.102,0,0
266420,157.04,-660.879,0,0
266680.25,155.402,-659.519,0,0
266940.575,153.873,-658.296,0,0
267200.9,152.316,-656.963,0,0
267461.225,150.845,-655.741,0,0
267721.55,149.344,-654.375,0,0
267981.875,147.947,-653.128,0,0
268242.2,146.508,-651.84,0,0
268502.525,145.082,-650.569,0,0
268762.85,143.739,-649.309,0,0
269023.175,142.393,-648.012,0,0
269283.5,141.026,-646.621,0,0
269543.825,139.82,-645.375,0,0
269804.15,138.477,-644.099,0,0
270064.475,137.245,-642.683,0,0
270324.8,136.02,-641.474,0,0
270585.125,134.802,-640.196,0,0
270845.45,133.546,-638.887,0,0
271105.775,132.379,-637.563,0,0
271366.1,131.199,-636.27,0,0
271626.425,130.128,-634.934,0,0
271886.75,129,-633.643,0,0
272147.075,127.866,-632.321,0,0
272407.4,126.779,-631.003,0,0
272667.725,125.696,-629.733,0,0
272928.05,124.669,-628.368,0,0
273188.375,123.63,-627.111,0,0
273448.7,122.627,-625.784,0,0
273709.025,121.622,-624.503,0,0
273969.35,120.651,-623.221,0,0
274229.675,119.663,-621.944,0,0
274490.0,118.693,-620.599,0,0
274750.325,117.774,-619.292,0,0
275010.65,116.853,-617.982,0,0
275270.975,115.944,-616.656,0,0
275531.3,115.052,-615.4,0,0
275791.625,114.145,-614.087,0,0
276051.95,113.315,-612.79,0,0
276312.275,112.452,-611.481,0,0
276572.6,111.618,-610.159,0,0
276832.925,110.797,-608.87,0,0
277093.25,109.972,-607.574,0,0
277353.575,109.193,-606.252,0,0
277613.9,108.407,-604.947,0,0
277874.225,107.631,-603.609,0,0
278134.55,106.865,-602.294,0,0
278394.875,106.14,-600.942,0,0
278655.2,105.462,-599.623,0,0
278915.525,104.732,-598.259,0,0
279175.85,104.071,-596.869,0,0
279436.175,103.456,-595.5,0,0
279696.5,102.907,-594.132,0,0
279956.825,102.361,-592.737,0,0
280217.15,101.894,-591.398,0,0
280477.475,101.455,-590.073,0,0
280737.8,101.026,-588.809,0,0
280998.125,100.665,-587.554,0,0
281258.45,100.334,-586.346,0,0
281518.775,99.9594,-585.239,0,0
281779.1,99.601,-584.152,0,0
282039.425,99.2021,-583.082,0,0
282299.75,98.8139,-582.042,0,0
282560,98.3805,-581.048,0,0
282820,97.8943,-580.049,0,0
283081,97.4732,-578.931,0,0
283341,96.9837,-577.869,0,0
283601,96.5694,-576.816,0,0
283862,96.0905,-575.744,0,0
284122,95.6511,-574.698,0,0
284382,95.1912,-573.534,0,0
284643,94.8185,-572.468,0,0
284903,94.4762,-571.448,0,0
285163,94.017,-570.395,0,0
285424,93.7657,-569.289,0,0
285684,93.3896,-568.379,0,0
285944,93.1282,-567.347,0,0
286205,92.9016,-566.397,0,0
286465,92.5139,-565.505,0,0
286725,92.1626,-564.656,0,0
286986,91.8666,-563.688,0,0
287246,91.5162,-563.013,0,0
287506,91.1619,-562.094,0,0
287767,90.68,-561.352,0,0
288027,90.2608,-560.519,0,0
288287,89.7709,-559.577,0,0
288548,89.4169,-558.678,0,0
288808,88.9124,-557.852,0,0
289068,88.4659,-556.931,0,0
289329,87.9871,-556.07,0,0
289589,87.5364,-555.105,0,0
289849,87.129,-554.247,0,0
290109,86.6581,-553.353,0,0
290370,86.2373,-552.403,0,0
290630,85.8494,-551.511,0,0
290890,85.4742,-550.574,0,0
291151,85.0679,-549.62,0,0
291411,84.6977,-548.82,0,0
291671,84.3264,-547.897,0,0
291932,83.9363,-546.976,0,0
292192,83.5383,-546.157,0,0
292452,83.1498,-545.274,0,0
292713,82.7637,-544.456,0,0
292973,82.3308,-543.632,0,0
293233,81.9365,-542.84,0,0
293494,81.5849,-541.974,0,0
293754,81.0355,-541.154,0,0
294014,80.6104,-540.224,0,0
294275,80.1792,-539.473,0,0
294535,79.696,-538.475,0,0
294795,79.3076,-537.63,0,0
295056,78.8056,-536.721,0,0
295316,78.4081,-535.774,0,0
295576,77.9088,-534.878,0,0
295837,77.4706,-533.928,0,0
296097,77.1179,-532.921,0,0
296357,76.7258,-531.933,0,0
296618,76.3434,-530.97,0,0
296878,75.9749,-529.903,0,0
297138,75.6585,-528.904,0,0
297399,75.3659,-527.925,0,0
297659,75.0891,-526.936,0,0
297919,74.8125,-525.948,0,0
298180,74.6972,-525.01,0,0
298440,74.4972,-524.104,0,0
298700.2,74.3391,-523.251,0,0
298960.525,74.1543,-522.366,0,0
299220.85,73.9117,-521.56,0,0
299481.175,73.7331,-520.746,0,0
299741.5,73.5685,-520.024,0,0
300001.825,73.247,-519.164,0,0
300262.15,72.9629,-518.412,0,0
300522.475,72.7406,-517.589,0,0
300782.8,72.4444,-516.788,0,0
301043.125,72.1796,-516.061,0,0
301303.45,71.9137,-515.229,0,0
301563.775,71.6074,-514.446,0,0
301824.1,71.3053,-513.604,0,0
302084.425,71.0557,-512.783,0,0
302344.75,70.7146,-512.02,0,0
302605.075,70.4521,-511.203,0,0
302865.4,70.1406,-510.378,0,0
303125.725,69.9043,-509.49,0,0
303386.05,69.6371,-508.687,0,0
303646.375,69.3643,-507.786,0,0
303906.7,69.1955,-506.95,0,0
304167.025,68.9389,-506.094,0,0
304427.35,68.6909,-505.276,0,0
304687.675,68.5435,-504.395,0,0
304948.0,68.357,-503.667,0,0
305208.325,68.1276,-502.819,0,0
305468.65,67.9241,-502.012,0,0
305728.975,67.7828,-501.269,0,0
305989.3,67.6216,-500.556,0,0
306249.625,67.3331,-499.806,0,0
306509.95,67.175,-499.06,0,0
306770.275,67.0125,-498.302,0,0
307030.6,66.7243,-497.561,0,0
307290.925,66.5323,-496.84,0,0
307551.25,66.3226,-496.066,0,0
307811.575,66.1114,-495.374,0,0
308071.9,65.8708,-494.583,0,0
308332.225,65.6403,-493.813,0,0
308592.55,65.4774,-493.032,0,0
308852.875,65.2676,-492.295,0,0
309113.2,64.9953,-491.494,0,0
309373.525,64.763,-490.794,0,0
309633.85,64.6123,-489.999,0,0
309894.175,64.3847,-489.26,0,0
310154.5,64.239,-488.531,0,0
310414.825,64.0172,-487.759,0,0
310675.15,63.9349,-487.039,0,0
310935.475,63.641,-486.331,0,0
311195.8,63.4523,-485.6,0,0
311456.125,63.3167,-484.895,0,0
311716.45,63.087,-484.168,0,0
311976.775,62.8745,-483.48,0,0
312237.1,62.6868,-482.718,0,0
312497.425,62.554,-482.027,0,0
312757.75,62.3013,-481.305,0,0
313018.075,62.0851,-480.559,0,0
313278.4,61.9713,-479.886,0,0
313538.725,61.7366,-479.158,0,0
313799.05,61.5719,-478.416,0,0
314059.375,61.3662,-477.72,0,0
314319.7,61.1554,-477.006,0,0
314580,60.9615,-476.272,0,0
314840,60.7491,-475.531,0,0
315101,60.6449,-474.891,0,0
315361,60.4137,-474.161,0,0
315621,60.2447,-473.468,0,0
315882,60.0922,-472.743,0,0
316142,59.8846,-471.995,0,0
316402,59.7155,-471.324,0,0
316663,59.5364,-470.64,0,0
316923,59.3649,-469.93,0,0
317183,59.2278,-469.236,0,0
317444,59.0534,-468.563,0,0
317704,58.8487,-467.8,0,0
317964,58.7201,-467.122,0,0
318225,58.5372,-466.404,0,0
318485,58.369,-465.726,0,0
318745,58.1714,-465.021,0,0
319006,58.04,-464.311,0,0
319266,57.8494,-463.58,0,0
319526,57.6832,-462.875,0,0
319787,57.5763,-462.205,0,0
320047,57.4153,-461.462,0,0
320307,57.314,-460.778,0,0
320567,57.1303,-460.114,0,0
320828,57.0135,-459.42,0,0
321088,56.8883,-458.741,0,0
321348,56.7557,-458.021,0,0
321609,56.5927,-457.343,0,0
321869,56.4686,-456.69,0,0
322129,56.3556,-456.018,0,0
322390,56.223,-455.326,0,0
322650,56.111,-454.664,0,0
322910,55.985,-454.005,0,0
323171,55.8839,-453.399,0,0
323431,55.6709,-452.728,0,0
323691,55.6044,-452.04,0,0
323952,55.4544,-451.392,0,0
324212,55.3335,-450.764,0,0
324472,55.1706,-450.093,0,0
324733,55.0619,-449.469,0,0
324993,54.9426,-448.823,0,0
325253,54.8109,-448.15,0,0
325514,54.6471,-447.5,0,0
325774,54.5349,-446.852,0,0
326034,54.3826,-446.195,0,0
326295,54.2638,-445.579,0,0
326555,54.0998,-444.896,0,0
326815,53.9852,-444.214,0,0
327076,53.8733,-443.584,0,0
327336,53.708,-442.929,0,0
327596,53.5733,-442.263,0,0
327857,53.4926,-441.571,0,0
328117,53.328,-440.916,0,0
328377,53.2183,-440.269,0,0
328638,53.1046,-439.546,0,0
328898,53.0034,-438.882,0,0
329158,52.8766,-438.221,0,0
329419,52.7956,-437.599,0,0
329679,52.7017,-436.959,0,0
329939,52.5863,-436.233,0,0
330200,52.4743,-435.593,0,0
330460,52.4502,-434.971,0,0
330720.15,52.3343,-434.295,0,0
330980.475,52.2845,-433.669,0,0
331240.8,52.1797,-433.049,0,0
331501.125,52.09,-432.404,0,0
331761.45,52.0548,-431.741,0,0
332021.775,51.9709,-431.136,0,0
332282.1,51.8768,-430.499,0,0
332542.425,51.796,-429.885,0,0
332802.75,51.7212,-429.272,0,0
333063.075,51.6357,-428.634,0,0
333323.4,51.541,-428.018,0,0
333583.725,51.4221,-427.385,0,0
333844.05,51.3797,-426.747,0,0
334104.375,51.2763,-426.146,0,0
334364.7,51.271,-425.519,0,0
334625.025,51.1261,-424.899,0,0
334885.35,51.0588,-424.335,0,0
335145.675,51.0215,-423.647,0,0
335406.0,50.9418,-423.007,0,0
335666.325,50.8991,-422.417,0,0
335926.65,50.8105,-421.778,0,0
336186.975,50.7703,-421.204,0,0
336447.3,50.7266,-420.57,0,0
336707.625,50.6463,-419.975,0,0
336967.95,50.5679,-419.401,0,0
337228.275,50.487,-418.745,0,0
337488.6,50.4501,-418.154,0,0
337748.925,50.3855,-417.567,0,0
338009.25,50.3267,-416.94,0,0
338269.575,50.3315,-416.401,0,0
338529.9,50.2107,-415.741,0,0
338790.225,50.154,-415.129,0,0
339050.55,50.0582,-414.521,0,0
339310.875,50.0374,-413.908,0,0
339571.2,49.9594,-413.327,0,0
339831.525,49.9324,-412.741,0,0
340091.85,49.8715,-412.11,0,0
340352.175,49.8251,-411.516,0,0
340612.5,49.7779,-410.864,0,0
340872.825,49.6658,-410.284,0,0
341133.15,49.6582,-409.673,0,0
341393.475,49.6289,-409.074,0,0
341653.8,49.6058,-408.418,0,0
341914.125,49.5883,-407.842,0,0
342174.45,49.6161,-407.253,0,0
342434.775,49.5889,-406.649,0,0
342695.1,49.5817,-406.062,0,0
342955.425,49.5828,-405.509,0,0
343215.75,49.5985,-404.929,0,0
343476.075,49.5779,-404.356,0,0
343736.4,49.6036,-403.802,0,0
343996.725,49.6013,-403.239,0,0
344257.05,49.5008,-402.724,0,0
344517.375,49.5181,-402.161,0,0
344777.7,49.48,-401.591,0,0
345038.025,49.4287,-401.035,0,0
345298.35,49.4538,-400.492,0,0
345558.675,49.3928,-399.908,0,0
345819.0,49.3396,-399.291,0,0
346079.325,49.3473,-398.811,0,0
346339.65,49.3391,-398.209,0,0
346599.975,49.3172,-397.62,0,0
346860,49.3231,-397.083,0,0
347121,49.3256,-396.477,0,0
347381,49.312,-395.918,0,0
347641,49.3241,-395.343,0,0
347902,49.3341,-394.8,0,0
348162,49.3572,-394.232,0,0
348422,49.388,-393.683,0,0
348683,49.4186,-393.172,0,0
348943,49.4062,-392.605,0,0
349203,49.4469,-392.098,0,0
349464,49.4786,-391.55,0,0
349724,49.5097,-391.011,0,0
349984,49.5438,-390.507,0,0
350245,49.5575,-390.02,0,0
350505,49.5634,-389.502,0,0
350765,49.6109,-388.965,0,0
351025,49.632,-388.456,0,0
351286,49.6771,-387.982,0,0
351546,49.6753,-387.487,0,0
351806,49.6914,-386.963,0,0
352067,49.6932,-386.486,0,0
352327,49.7321,-386.01,0,0
352587,49.7714,-385.499,0,0
352848,49.7645,-385.052,0,0
353108,49.7619,-384.56,0,0
353368,49.8203,-384.116,0,0
353629,49.8087,-383.639,0,0
353889,49.8013,-383.169,0,0
354149,49.8223,-382.708,0,0
354410,49.8727,-382.283,0,0
354670,49.8306,-381.832,0,0
354930,49.8168,-381.345,0,0
355191,49.819,-380.95,0,0
355451,49.7909,-380.483,0,0
355711,49.7336,-380.055,0,0
355972,49.7592,-379.588,0,0
356232,49.685,-379.147,0,0
356492,49.6756,-378.681,0,0
356753,49.5944,-378.218,0,0
357013,49.5788,-377.77,0,0
357273,49.5431,-377.283,0,0
357534,49.458,-376.841,0,0
357794,49.4715,-376.348,0,0
358054,49.4196,-375.87,0,0
358315,49.4068,-375.411,0,0
358575,49.3301,-374.893,0,0
358835,49.285,-374.443,0,0
359096,49.2631,-373.973,0,0
359356,49.2357,-373.51,0,0
359616,49.1882,-373.018,0,0
359877,49.1341,-372.56,0,0
360137,49.1184,-372.016,0,0
360397,49.0892,-371.616,0,0
360658,49.0416,-371.123,0,0
360918,49.0213,-370.638,0,0
361178,48.9736,-370.123,0,0
361438,48.9378,-369.629,0,0
361699,48.9157,-369.2,0,0
361959,48.8289,-368.68,0,0
362219,48.8255,-368.204,0,0
362480,48.8042,-367.692,0,0
362740.1,48.7768,-367.189,0,0
363000.425,48.7284,-366.713,0,0
363260.75,48.7236,-366.217,0,0
363521.075,48.6677,-365.725,0,0
363781.4,48.6809,-365.258,0,0
364041.725,48.6883,-364.781,0,0
364302.05,48.6618,-364.256,0,0
364562.375,48.6311,-363.796,0,0
364822.7,48.6326,-363.262,0,0
365083.025,48.5682,-362.798,0,0
365343.35,48.5879,-362.281,0,0
365603.675,48.5821,-361.789,0,0
365864.0,48.5928,-361.303,0,0
366124.325,48.5838,-360.834,0,0
366384.65,48.5882,-360.333,0,0
366644.975,48.5492,-359.877,0,0
366905.3,48.6108,-359.399,0,0
367165.625,48.5691,-358.932,0,0
367425.95,48.6145,-358.459,0,0
367686.275,48.5727,-357.975,0,0
367946.6,48.5964,-357.53,0,0
368206.925,48.5765,-357.047,0,0
368467.25,48.5602,-356.574,0,0
368727.575,48.5609,-356.123,0,0
368987.9,48.5721,-355.666,0,0
369248.225,48.5444,-355.192,0,0
369508.55,48.5572,-354.71,0,0
369768.875,48.5168,-354.21,0,0
370029.2,48.5352,-353.759,0,0
370289.525,48.5567,-353.258,0,0
370549.85,48.5347,-352.822,0,0
370810.175,48.5753,-352.329,0,0
371070.5,48.6047,-351.835,0,0
371330.825,48.594,-351.379,0,0
371591.15,48.6078,-350.909,0,0
371851.475,48.6469,-350.437,0,0
372111.8,48.6956,-350.021,0,0
372372.125,48.6902,-349.534,0,0
372632.45,48.7321,-349.095,0,0
372892.775,48.7852,-348.659,0,0
373153.1,48.7899,-348.273,0,0
373413.425,48.8201,-347.85,0,0
373673.75,48.8221,-347.433,0,0
373934.075,48.8154,-347.008,0,0
374194.4,48.8145,-346.6,0,0
374454.725,48.8194,-346.186,0,0
374715.05,48.8016,-345.813,0,0
374975.375,48.7103,-345.39,0,0
375235.7,48.704,-345.018,0,0
375496.025,48.6534,-344.579,0,0
375756.35,48.5949,-344.155,0,0
376016.675,48.5379,-343.712,0,0
376277.0,48.4906,-343.263,0,0
376537.325,48.3809,-342.801,0,0
376797.65,48.3474,-342.36,0,0
377057.975,48.3157,-341.907,0,0
377318.3,48.2341,-341.452,0,0
377578.625,48.2148,-340.983,0,0
377838.95,48.163,-340.485,0,0
378099.275,48.106,-340.022,0,0
378359.6,48.0605,-339.535,0,0
378619.925,48.0226,-339.051,0,0
378880,47.965,-338.576,0,0
379141,47.9455,-338.078,0,0
379401,47.913,-337.6,0,0
379661,47.8515,-337.126,0,0
379922,47.8289,-336.588,0,0
380182,47.8175,-336.103,0,0
380442,47.7728,-335.618,0,0
380703,47.7527,-335.1,0,0
380963,47.7552,-334.567,0,0
381223,47.7343,-334.106,0,0
381483,47.702,-333.567,0,0
381744,47.7024,-333.042,0,0
382004,47.7533,-332.521,0,0
382264,47.7696,-332.022,0,0
382525,47.8103,-331.485,0,0
382785,47.8494,-330.967,0,0
383045,47.9404,-330.505,0,0
383306,47.9354,-330.042,0,0
383566,48.0068,-329.594,0,0
383826,48.032,-329.153,0,0
384087,48.0475,-328.71,0,0
384347,48.0368,-328.298,0,0
384607,48.008,-327.837,0,0
384868,47.9941,-327.367,0,0
385128,47.9902,-326.89,0,0
385388,47.9596,-326.411,0,0
385649,47.9543,-325.923,0,0
385909,47.9378,-325.451,0,0
386169,47.955,-324.986,0,0
386430,47.9556,-324.507,0,0
386690,47.9398,-324.009,0,0
386950,47.9508,-323.49,0,0
387211,47.953,-323.012,0,0
387471,47.9254,-322.549,0,0
387731,47.9506,-322.049,0,0
387992,47.94,-321.548,0,0
388252,47.9499,-321.053,0,0
388512,47.9239,-320.556,0,0
388773,47.9589,-320.049,0,0
389033,47.9398,-319.583,0,0
389293,47.9442,-319.048,0,0
389554,47.9534,-318.575,0,0
389814,47.9558,-318.046,0,0
390074,47.9789,-317.56,0,0
390335,47.9838,-317.053,0,0
390595,48.0092,-316.531,0,0
390855,48.0268,-316.039,0,0
391116,48.0503,-315.531,0,0
391376,48.0523,-315.021,0,0
391636,48.0639,-314.51,0,0
391896,48.116,-314.005,0,0
392157,48.1341,-313.504,0,0
392417,48.1459,-312.983,0,0
392677,48.1823,-312.481,0,0
392938,48.1969,-311.97,0,0
393198,48.2093,-311.447,0,0
393458,48.2255,-310.936,0,0
393719,48.2811,-310.424,0,0
393979,48.2972,-309.918,0,0
394239,48.3219,-309.364,0,0
394500,48.3568,-308.863,0,0
394760.05,48.3545,-308.352,0,0
395020.375,48.4406,-307.815,0,0
395280.7,48.4764,-307.283,0,0
395541.025,48.5193,-306.75,0,0
395801.35,48.5809,-306.238,0,0
396061.675,48.612,-305.721,0,0
396322.0,48.6363,-305.166,0,0
396582.325,48.6856,-304.643,0,0
396842.65,48.7287,-304.123,0,0
397102.975,48.7734,-303.602,0,0
397363.3,48.8181,-303.055,0,0
397623.625,48.895,-302.512,0,0
397883.95,48.9303,-301.974,0,0
398144.275,49.0121,-301.461,0,0
398404.6,49.0655,-300.918,0,0
398664.925,49.1193,-300.363,0,0
398925.25,49.1661,-299.856,0,0
399185.575,49.2317,-299.304,0,0
399445.9,49.3319,-298.767,0,0
399706.225,49.3756,-298.219,0,0
399966.55,49.4469,-297.669,0,0
400006.6,49.4512,-297.607,0,0