File: Accelerated corrosion test data/2025-10-21_18-00-04/sample_8.csv
Frequency (Hz),Impedance (ohms),Phase (Radians),Temperature (C),Humidity (%)
10000.0,303.751,-10985.8,0,0
10260.325,296.067,-10710.3,0,0
10520.65,288.972,-10448.2,0,0
10780.975,281.685,-10198.9,0,0
11041.3,275.328,-9960.97,0,0
11301.625,269.435,-9735.62,0,0
11561.95,263.774,-9518.28,0,0
11822.275,257.985,-9310.68,0,0
12082.6,256.205,-9110.67,0,0
12342.925,253.271,-8924.55,0,0
12603.25,248.424,-8742.58,0,0
12863.575,245.102,-8572.26,0,0
13123.9,236.41,-8406.52,0,0
13384.225,230.299,-8244.89,0,0
13644.55,227.694,-8089.92,0,0
13904.875,220.764,-7940.58,0,0
14165.2,214.998,-7796.16,0,0
14425.525,211.564,-7655.23,0,0
14685.8,207.466,-7521.23,0,0
14946.175,203.426,-7391.14,0,0
15206.5,200.704,-7265.9,0,0
15466.825,197.458,-7144.87,0,0
15727.15,193.946,-7027.79,0,0
15987.5,191.019,-6914.56,0,0
16247.8,188.251,-6804.77,0,0
16508.125,185.032,-6698.26,0,0
16768.45,182.031,-6595.21,0,0
17028.775,179.082,-6495.09,0,0
17289.1,176.685,-6398.11,0,0
17549.425,174.276,-6302.99,0,0
17809.75,171.65,-6211.19,0,0
18070.075,170.393,-6123.26,0,0
18330.4,167.322,-6035.97,0,0
18590.725,165.477,-5950.61,0,0
18851.05,166.548,-5867.35,0,0
19111.375,164.509,-5787.83,0,0
19371.7,166.395,-5712.8,0,0
19632.025,163.734,-5639.45,0,0
19892.35,160.29,-5568.79,0,0
20152.675,158.246,-5495.68,0,0
20413.0,158.484,-5426.16,0,0
20673.3,158.683,-5359.28,0,0
20933.65,154.79,-5296.95,0,0
21193.975,150.78,-5232.67,0,0
21454.3,148.549,-5168.33,0,0
21714.625,146.761,-5105.71,0,0
21974.9,146.126,-5045.59,0,0
22235.275,146.214,-4987.02,0,0
22495.6,145.647,-4930.65,0,0
22755.925,143.34,-4876.87,0,0
23016.25,141.646,-4822.4,0,0
23276.6,137.271,-4769.69,0,0
23536.9,135.11,-4716.74,0,0
23797.225,133.381,-4665.08,0,0
24057.55,131.691,-4614.5,0,0
24317.875,129.815,-4565.16,0,0
24578.2,128.37,-4516.77,0,0
24838.525,127.055,-4468.55,0,0
25098.85,125.867,-4421.98,0,0
25359.175,124.263,-4376.83,0,0
25619.5,123.486,-4331.98,0,0
25879.8,122.418,-4287.55,0,0
26140.1,121.764,-4245.94,0,0
26400.5,119.836,-4203.71,0,0
26660.8,118.579,-4161.91,0,0
26921.1,118.606,-4120.72,0,0
27181.4,118.459,-4081.84,0,0
27441.8,117.548,-4042.63,0,0
27702.1,116.572,-4005.77,0,0
27962.4,114.437,-3968.01,0,0
28222.7,116.157,-3930.57,0,0
28483.1,114.351,-3894.71,0,0
28743.4,113.881,-3859.27,0,0
29003.7,113.183,-3825.3,0,0
29264,113.656,-3791.32,0,0
29524.4,112.332,-3757.83,0,0
29784.7,111.857,-3724.73,0,0
30045,111.104,-3693.27,0,0
30305.3,110.075,-3661.89,0,0
30565.7,108.929,-3630.68,0,0
30826,107.722,-3599.91,0,0
31086.3,106.613,-3569.45,0,0
31346.6,105.87,-3538.7,0,0
31607,105.514,-3509.2,0,0
31867.3,104.779,-3480.14,0,0
32127.6,104.31,-3451.7,0,0
32387.9,103.9,-3423,0,0
32648.3,103.561,-3395.37,0,0
32908.6,104.08,-3367.72,0,0
33168.9,103.635,-3340.77,0,0
33429.2,104.269,-3314.41,0,0
33689.6,104.684,-3288.67,0,0
33949.9,104.562,-3263.55,0,0
34210.2,105.223,-3238.71,0,0
34470.5,105.17,-3214.37,0,0
34730.9,105.723,-3190.15,0,0
34991.2,106.641,-3166.5,0,0
35251.5,107.425,-3143.56,0,0
35511.8,108.233,-3121.73,0,0
35772.2,108.407,-3100.35,0,0
36032.5,108.773,-3079.84,0,0
36292.8,108.561,-3058.96,0,0
36553.1,108.106,-3039.43,0,0
36813.5,106.707,-3019.74,0,0
37073.8,106.333,-2999.66,0,0
37334.1,104.948,-2980.54,0,0
37594.4,102.614,-2961.63,0,0
37854.8,100.661,-2941.79,0,0
38115.1,98.4542,-2922.45,0,0
38375.4,96.426,-2902.95,0,0
38635.7,94.3888,-2883.35,0,0
38896.1,92.4974,-2863.75,0,0
39156.4,90.4997,-2844.02,0,0
39416.7,89.393,-2824.32,0,0
39677,87.8415,-2805.34,0,0
39937.4,86.8469,-2785.98,0,0
40197.7,86.2233,-2766.49,0,0
40458,86.4014,-2748.22,0,0
40718.3,85.8654,-2730.6,0,0
40978.7,84.7499,-2713.21,0,0
41239,84.2861,-2695.62,0,0
41499.3,83.5661,-2678.17,0,0
41759.6,83.3036,-2661.25,0,0
42020,82.329,-2644.22,0,0
42280.275,81.3504,-2627.13,0,0
42540.6,81.0692,-2610.43,0,0
42800.925,80.9233,-2593.87,0,0
43061.25,81.3046,-2577.98,0,0
43321.575,81.574,-2562.77,0,0
43581.9,81.2329,-2547.84,0,0
43842.225,80.2794,-2532.99,0,0
44102.55,79.0174,-2518.09,0,0
44362.875,78.1145,-2502.85,0,0
44623.2,77.5389,-2487.89,0,0
44883.525,76.8632,-2472.86,0,0
45143.85,76.2298,-2458.25,0,0
45404.175,75.582,-2443.61,0,0
45664.5,75.203,-2429.23,0,0
45924.825,74.3786,-2415.3,0,0
46185.15,73.97,-2400.98,0,0
46445.475,73.515,-2387.06,0,0
46705.8,73.148,-2373.28,0,0
46966.125,72.5506,-2359.43,0,0
47226.45,72.2515,-2345.91,0,0
47486.775,71.7765,-2332.81,0,0
47747.1,71.5068,-2319.66,0,0
48007.425,71.1895,-2306.55,0,0
48267.75,70.8043,-2293.66,0,0
48528.075,70.4706,-2281.13,0,0
48788.4,69.9035,-2268.49,0,0
49048.725,69.4529,-2255.96,0,0
49309.05,68.9977,-2243.58,0,0
49569.375,68.734,-2231.24,0,0
49829.7,68.3136,-2219.06,0,0
50090.025,68.0642,-2206.98,0,0
50350.35,67.6795,-2194.97,0,0
50610.675,67.5334,-2183.23,0,0
50871.0,67.1164,-2171.45,0,0
51131.325,66.7719,-2159.83,0,0
51391.65,66.7123,-2148.19,0,0
51651.975,66.6988,-2136.78,0,0
51912.3,66.4989,-2125.74,0,0
52172.625,66.4096,-2114.63,0,0
52432.95,66.2237,-2103.54,0,0
52693.275,66.2244,-2092.65,0,0
52953.6,66.3303,-2081.95,0,0
53213.925,66.3754,-2071.38,0,0
53474.25,66.6819,-2061.24,0,0
53734.575,66.7741,-2051.71,0,0
53994.9,65.7655,-2042.11,0,0
54255.225,65.25,-2031.92,0,0
54515.55,64.8568,-2021.98,0,0
54775.875,64.1669,-2012.04,0,0
55036.2,63.6893,-2002.21,0,0
55296.525,63.0102,-1992.46,0,0
55556.85,62.3016,-1982.57,0,0
55817.175,61.7749,-1972.67,0,0
56077.5,61.2054,-1962.71,0,0
56337.825,60.7893,-1952.95,0,0
56598.15,60.4848,-1943.19,0,0
56858.475,60.2743,-1933.56,0,0
57118.8,60.0079,-1924.1,0,0
57379.125,59.8979,-1914.71,0,0
57639.45,59.7125,-1905.45,0,0
57899.775,59.5277,-1896.31,0,0
58160.1,59.3888,-1887.16,0,0
58420.4,59.3187,-1878.19,0,0
58680.7,59.1204,-1869.31,0,0
58941.1,58.966,-1860.56,0,0
59201.4,58.8075,-1851.89,0,0
59461.7,58.4923,-1843.3,0,0
59722,58.221,-1834.76,0,0
59982.4,57.8935,-1826.15,0,0
60242.7,57.6152,-1817.38,0,0
60503,57.4598,-1808.83,0,0
60763.3,57.4584,-1800.32,0,0
61023.7,57.3937,-1792.05,0,0
61284,57.3829,-1783.81,0,0
61544.3,57.2946,-1775.73,0,0
61804.6,57.1374,-1767.72,0,0
62065,56.8578,-1759.55,0,0
62325.3,56.8705,-1751.37,0,0
62585.6,57.0135,-1743.31,0,0
62845.9,57.1439,-1735.47,0,0
63106.3,57.2524,-1727.8,0,0
63366.6,57.6001,-1720.32,0,0
63626.9,57.6561,-1713,0,0
63887.2,57.5953,-1705.66,0,0
64147.6,57.594,-1698.45,0,0
64407.9,57.3144,-1691.16,0,0
64668.2,57.1419,-1683.98,0,0
64928.5,57.1188,-1676.63,0,0
65188.9,56.9876,-1669.61,0,0
65449.2,56.7112,-1662.76,0,0
65709.5,56.6394,-1655.49,0,0
65969.8,56.5733,-1648.69,0,0
66230.2,56.2276,-1641.76,0,0
66490.5,55.829,-1635.04,0,0
66750.8,55.2645,-1628.1,0,0
67011.1,54.9599,-1620.92,0,0
67271.5,54.8498,-1614.11,0,0
67531.8,54.6853,-1607.18,0,0
67792.1,54.4979,-1600.35,0,0
68052.4,54.3246,-1593.63,0,0
68312.8,54.0274,-1586.88,0,0
68573.1,53.7821,-1580.05,0,0
68833.4,53.6571,-1573.35,0,0
69093.7,53.5599,-1566.54,0,0
69354.1,53.6022,-1559.88,0,0
69614.4,53.7299,-1553.28,0,0
69874.7,53.8082,-1546.95,0,0
70135,53.767,-1540.69,0,0
70395.4,53.8137,-1534.42,0,0
70655.7,53.779,-1528.24,0,0
70916,53.6542,-1521.97,0,0
71176.3,53.7133,-1515.76,0,0
71436.7,53.7544,-1509.69,0,0
71697,53.8044,-1503.73,0,0
71957.3,53.67,-1497.94,0,0
72217.6,53.5435,-1492.04,0,0
72478,53.4412,-1486.18,0,0
72738.3,53.0183,-1480.33,0,0
72998.6,52.7672,-1474.35,0,0
73258.9,52.597,-1468.27,0,0
73519.3,52.6071,-1462.39,0,0
73779.6,52.5837,-1456.72,0,0
74039.9,52.3562,-1451.02,0,0
74300.225,52.1883,-1445.25,0,0
74560.55,51.9554,-1439.5,0,0
74820.875,51.8342,-1433.68,0,0
75081.2,51.837,-1428,0,0
75341.525,51.7208,-1422.31,0,0
75601.85,51.626,-1416.74,0,0
75862.175,51.5343,-1411.11,0,0
76122.5,51.5341,-1405.54,0,0
76382.825,51.5578,-1400.1,0,0
76643.15,51.5709,-1394.66,0,0
76903.475,51.4515,-1389.4,0,0
77163.8,51.3558,-1384,0,0
77424.125,51.2046,-1378.68,0,0
77684.45,51.0704,-1373.35,0,0
77944.775,51.0038,-1367.97,0,0
78205.1,50.8998,-1362.78,0,0
78465.425,50.6554,-1357.52,0,0
78725.75,50.4868,-1352.17,0,0
78986.075,50.4485,-1346.94,0,0
79246.4,50.3123,-1341.7,0,0
79506.725,50.1575,-1336.5,0,0
79767.05,50.0076,-1331.18,0,0
80027.375,49.949,-1325.93,0,0
80287.7,49.8702,-1320.73,0,0
80548.025,49.8415,-1315.54,0,0
80808.35,49.8304,-1310.34,0,0
81068.675,49.8552,-1305.1,0,0
81329.0,49.983,-1299.92,0,0
81589.325,50.0904,-1294.88,0,0
81849.65,50.2218,-1289.89,0,0
82109.975,50.388,-1284.91,0,0
82370.3,50.4852,-1279.9,0,0
82630.625,50.6072,-1274.88,0,0
82890.95,50.9747,-1270,0,0
83151.275,51.23,-1265.3,0,0
83411.6,51.3708,-1260.49,0,0
83671.925,51.6716,-1255.68,0,0
83932.25,52.1525,-1251.1,0,0
84192.575,52.4271,-1246.82,0,0
84452.9,52.5032,-1242.53,0,0
84713.225,52.4064,-1238.48,0,0
84973.55,51.8556,-1234.05,0,0
85233.875,51.5255,-1229.39,0,0
85494.2,51.337,-1224.39,0,0
85754.525,51.329,-1219.78,0,0
86014.85,51.2835,-1214.95,0,0
86275.175,51.3825,-1210.14,0,0
86535.5,51.4006,-1205.48,0,0
86795.825,51.6672,-1200.81,0,0
87056.15,51.8964,-1196.23,0,0
87316.475,52.0136,-1191.78,0,0
87576.8,52.0671,-1187.31,0,0
87837.125,52.1094,-1182.73,0,0
88097.45,52.257,-1178.2,0,0
88357.775,52.4028,-1173.71,0,0
88618.1,52.5684,-1169.18,0,0
88878.425,52.7578,-1164.63,0,0
89138.75,52.8412,-1160.08,0,0
89399.075,53.0397,-1155.4,0,0
89659.4,53.3274,-1150.72,0,0
89919.725,53.793,-1146.09,0,0
90180,54.3187,-1141.41,0,0
90440.4,54.9805,-1136.93,0,0
90700.7,55.7818,-1132.43,0,0
90961,56.6853,-1128.17,0,0
91221.3,57.7402,-1124.15,0,0
91481.7,58.541,-1120.64,0,0
91742,58.9286,-1117.03,0,0
92002.3,59.097,-1113.29,0,0
92262.6,59.3435,-1109.45,0,0
92523,59.504,-1105.31,0,0
92783.3,59.8276,-1101.09,0,0
93043.6,60.5272,-1096.94,0,0
93303.9,61.144,-1093.03,0,0
93564.3,61.7928,-1089.21,0,0
93824.6,62.3428,-1085.45,0,0
94084.9,63.04,-1081.77,0,0
94345.2,63.4702,-1078.37,0,0
94605.6,63.5353,-1074.76,0,0
94865.9,63.8343,-1070.96,0,0
95126.2,64.0817,-1067.19,0,0
95386.5,64.3678,-1063.18,0,0
95646.9,64.8869,-1059.43,0,0
95907.2,65.0978,-1055.45,0,0
96167.5,65.6345,-1051.43,0,0
96427.8,66.1985,-1047.39,0,0
96688.2,67.0807,-1043.45,0,0
96948.5,67.8696,-1039.81,0,0
97208.8,68.5802,-1036.03,0,0
97469.1,69.3657,-1032.28,0,0
97729.5,70.3018,-1028.46,0,0
97989.8,71.3547,-1024.8,0,0
98250.1,72.5949,-1021.24,0,0
98510.4,73.7565,-1017.92,0,0
98770.8,75.0177,-1014.81,0,0
99031.1,76.0722,-1011.97,0,0
99291.4,76.8408,-1009.05,0,0
99551.7,77.558,-1006.04,0,0
99812.1,78.4494,-1002.87,0,0
100072,79.4066,-999.749,0,0
100333,80.5829,-996.821,0,0
100593,81.6672,-994.103,0,0
100853,82.7452,-991.558,0,0
101114,83.7662,-989.209,0,0
101374,84.5139,-986.93,0,0
101634,85.2948,-984.666,0,0
101895,85.8555,-982.647,0,0
102155,86.1794,-980.472,0,0
102415,86.4314,-978.359,0,0
102676,86.5164,-976.095,0,0
102936,86.5943,-973.747,0,0
103196,86.6944,-971.291,0,0
103457,86.8149,-968.902,0,0
103717,86.9581,-966.565,0,0
103977,87.0182,-964.359,0,0
104238,86.8381,-962.155,0,0
104498,86.5178,-959.847,0,0
104758,86.0742,-957.418,0,0
105019,85.5274,-954.709,0,0
105279,85.1793,-951.766,0,0
105539,85.0621,-948.791,0,0
105800,84.9438,-945.92,0,0
106060,84.9678,-943.012,0,0
106320.175,85.0223,-940.15,0,0
106580.5,85.152,-937.446,0,0
106840.825,85.1716,-934.886,0,0
107101.15,84.9971,-932.133,0,0
107361.475,85.0236,-929.419,0,0
107621.8,84.8484,-926.821,0,0
107882.125,84.5044,-923.909,0,0
108142.45,84.3696,-920.868,0,0
108402.775,84.419,-917.81,0,0
108663.1,84.5818,-914.685,0,0
108923.425,84.9459,-911.67,0,0
109183.75,85.376,-908.832,0,0
109444.075,85.8053,-906.14,0,0
109704.4,86.1887,-903.575,0,0
109964.725,86.4447,-901.111,0,0
110225.05,86.7315,-898.637,0,0
110485.375,86.8662,-896.089,0,0
110745.7,87.042,-893.682,0,0
111006.025,87.0382,-891.252,0,0
111266.35,87.1148,-888.736,0,0
111526.675,87.1989,-886.03,0,0
111787.0,87.4824,-883.489,0,0
112047.325,87.7072,-881.13,0,0
112307.65,87.8919,-878.693,0,0
112567.975,88.0414,-876.381,0,0
112828.3,88.1625,-874.06,0,0
113088.625,88.1296,-871.757,0,0
113348.95,88.0377,-869.488,0,0
113609.275,88.0944,-867.045,0,0
113869.6,88.0228,-864.706,0,0
114129.925,87.9565,-862.358,0,0
114390.25,87.8579,-859.92,0,0
114650.575,87.8067,-857.619,0,0
114910.9,87.7363,-855.14,0,0
115171.225,87.7358,-852.743,0,0
115431.55,87.6764,-850.578,0,0
115691.875,87.358,-848.413,0,0
115952.2,87.0292,-845.915,0,0
116212.525,86.6976,-843.445,0,0
116472.85,86.4241,-840.962,0,0
116733.175,86.1505,-838.267,0,0
116993.5,86.0235,-835.589,0,0
117253.825,86.0311,-832.964,0,0
117514.15,86.0122,-830.427,0,0
117774.475,86.0125,-827.927,0,0
118034.8,85.9812,-825.528,0,0
118295.125,85.9224,-823.109,0,0
118555.45,85.8065,-820.628,0,0
118815.775,85.7622,-818.178,0,0
119076.1,85.7032,-815.79,0,0
119336.425,85.5362,-813.46,0,0
119596.75,85.318,-810.996,0,0
119857.075,85.1382,-808.539,0,0
120117.4,84.9045,-806.073,0,0
120377.725,84.6575,-803.563,0,0
120638.05,84.4523,-800.888,0,0
120898.375,84.4041,-798.199,0,0
121158.7,84.4892,-795.658,0,0
121419.025,84.531,-793.264,0,0
121679.35,84.4269,-790.891,0,0
121939.675,84.2932,-788.499,0,0
122200.0,84.2038,-786.018,0,0
122460,84.1059,-783.611,0,0
122721,83.9685,-781.261,0,0
122981,83.7195,-778.901,0,0
123241,83.4609,-776.436,0,0
123502,83.2247,-773.898,0,0
123762,83.0045,-771.401,0,0
124022,82.8072,-768.861,0,0
124283,82.6186,-766.369,0,0
124543,82.3914,-763.878,0,0
124803,82.1359,-761.333,0,0
125064,81.833,-758.748,0,0
125324,81.5891,-756.15,0,0
125584,81.3226,-753.524,0,0
125845,81.0435,-750.866,0,0
126105,80.788,-748.136,0,0
126365,80.5923,-745.339,0,0
126626,80.4529,-742.551,0,0
126886,80.2998,-739.833,0,0
127146,80.2931,-737.07,0,0
127406,80.1282,-734.377,0,0
127667,79.9648,-731.485,0,0
127927,79.9494,-728.646,0,0
128187,79.9691,-725.79,0,0
128448,80.0148,-723.055,0,0
128708,80.0315,-720.32,0,0
128968,80.0321,-717.568,0,0
129229,80.0881,-714.81,0,0
129489,80.0501,-712.091,0,0
129749,79.9613,-709.248,0,0
130010,79.9496,-706.296,0,0
130270,80.0382,-703.258,0,0
130530,80.3554,-700.231,0,0
130791,80.8556,-697.376,0,0
131051,81.2037,-694.682,0,0
131311,81.6302,-692.027,0,0
131572,81.9402,-689.531,0,0
131832,82.0687,-687.001,0,0
132092,82.1784,-684.341,0,0
132353,82.4098,-681.707,0,0
132613,82.6132,-679.053,0,0
132873,82.786,-676.467,0,0
133134,82.8795,-673.904,0,0
133394,82.8824,-671.191,0,0
133654,82.961,-668.377,0,0
133915,83.0606,-665.537,0,0
134175,83.2626,-662.594,0,0
134435,83.6384,-659.738,0,0
134696,84.0147,-656.969,0,0
134956,84.3531,-654.157,0,0
135216,84.7705,-651.413,0,0
135477,85.222,-648.708,0,0
135737,85.7349,-646.082,0,0
135997,86.2089,-643.648,0,0
136258,86.5027,-641.332,0,0
136518,86.6026,-638.911,0,0
136778,86.7287,-636.436,0,0
137039,86.6704,-633.952,0,0
137299,86.5277,-631.313,0,0
137559,86.3529,-628.562,0,0
137819,86.2144,-625.66,0,0
138080,86.0467,-622.642,0,0
138340.125,85.9454,-619.411,0,0
138600.45,86.1277,-616.021,0,0
138860.775,86.491,-612.76,0,0
139121.1,86.9088,-609.562,0,0
139381.425,87.3614,-606.481,0,0
139641.75,87.7474,-603.386,0,0
139902.075,88.1727,-600.222,0,0
140162.4,88.7062,-597.167,0,0
140422.725,89.0666,-594.145,0,0
140683.05,89.3707,-590.952,0,0
140943.375,89.8322,-587.618,0,0
141203.7,90.4487,-584.39,0,0
141464.025,91.0359,-581.282,0,0
141724.35,91.3605,-578.151,0,0
141984.675,91.6937,-574.686,0,0
142245.0,92.2952,-571.079,0,0
142505.325,93.0623,-567.543,0,0
142765.65,93.8697,-564.077,0,0
143025.975,94.6871,-560.549,0,0
143286.3,95.598,-556.926,0,0
143546.625,96.7398,-553.445,0,0
143806.95,97.726,-550.093,0,0
144067.275,98.6463,-546.6,0,0
144327.6,99.641,-542.964,0,0
144587.925,100.767,-539.168,0,0
144848.25,102.163,-535.381,0,0
145108.575,103.74,-531.691,0,0
145368.9,105.35,-528.166,0,0
145629.225,106.997,-524.683,0,0
145889.55,108.54,-521.204,0,0
146149.875,110.242,-517.509,0,0
146410.2,112.188,-513.847,0,0
146670.525,114.413,-510.365,0,0
146930.85,116.658,-507.256,0,0
147191.175,118.683,-504.378,0,0
147451.5,120.424,-501.444,0,0
147711.825,122.009,-498.318,0,0
147972.15,123.568,-494.905,0,0
148232.475,125.289,-491.234,0,0
148492.8,127.261,-487.324,0,0
148753.125,129.572,-483.356,0,0
149013.45,132.157,-479.509,0,0
149273.775,134.793,-475.632,0,0
149534.1,137.69,-471.598,0,0
149794.425,140.941,-467.331,0,0
150054.75,144.956,-463.229,0,0
150315.075,149.547,-459.543,0,0
150575.4,154.324,-456.348,0,0
150835.725,159.346,-453.438,0,0
151096.05,164.793,-451.301,0,0
151356.375,170.317,-449.74,0,0
151616.7,175.776,-448.987,0,0
151877.025,180.749,-449.049,0,0
152137.35,185.129,-449.44,0,0
152397.675,188.976,-449.498,0,0
152658.0,192.553,-450.091,0,0
152918.325,196.129,-450.681,0,0
153178.65,199.275,-451.703,0,0
153438.975,201.727,-452.693,0,0
153699.3,203.664,-453.314,0,0
153959.625,205.565,-453.295,0,0
154219.95,207.98,-453.367,0,0
154480,209.83,-453.894,0,0
154741,211.407,-453.467,0,0
155001,214.093,-452.609,0,0
155261,217.606,-452.735,0,0
155522,221.106,-454.024,0,0
155782,223.563,-456.271,0,0
156042,225.307,-459.146,0,0
156303,225.713,-461.902,0,0
156563,224.854,-464.312,0,0
156823,223.094,-465.751,0,0
157084,220.85,-465.83,0,0
157344,219.015,-464.468,0,0
157604,218.013,-462.089,0,0
157864,218.435,-459.539,0,0
158125,219.579,-457.643,0,0
158385,220.82,-456.207,0,0
158645,222.388,-455.124,0,0
158906,223.664,-454.474,0,0
159166,225.268,-453.811,0,0
159426,227.07,-454.155,0,0
159687,227.718,-455.522,0,0
159947,226.906,-456.534,0,0
160207,225.393,-456.722,0,0
160468,223.538,-456.068,0,0
160728,221.336,-454.331,0,0
160988,219.579,-451.228,0,0
161249,218.916,-447.347,0,0
161509,219.392,-443.091,0,0
161769,221.237,-439.327,0,0
162030,223.477,-436.311,0,0
162290,226.393,-433.803,0,0
162550,229.416,-432.391,0,0
162811,232.081,-431.789,0,0
163071,234.088,-431.444,0,0
163331,236.066,-431.236,0,0
163592,237.469,-431.55,0,0
163852,238.099,-431.449,0,0
164112,238.772,-430.774,0,0
164373,239.925,-430.046,0,0
164633,241.287,-429.829,0,0
164893,242.373,-430.069,0,0
165154,243.171,-430.597,0,0
165414,243.394,-431.409,0,0
165674,243.052,-432.12,0,0
165935,242.069,-432.709,0,0
166195,240.945,-432.711,0,0
166455,239.651,-432.879,0,0
166716,237.47,-433.079,0,0
166976,234.468,-432.288,0,0
167236,231.641,-430.137,0,0
167497,229.572,-427.577,0,0
167757,227.816,-425.122,0,0
168017,225.93,-422.445,0,0
168277,224.164,-419.595,0,0
168538,222.236,-416.62,0,0
168798,220.044,-413.035,0,0
169058,218.234,-408.708,0,0
169319,217.105,-404.028,0,0
169579,216.416,-399.57,0,0
169839,215.731,-395.015,0,0
170100,215.253,-390.207,0,0
170360.075,215.082,-385.372,0,0
170620.4,215.051,-380.448,0,0
170880.725,215.288,-375.428,0,0
171141.05,215.628,-370.536,0,0
171401.375,215.759,-365.24,0,0
171661.7,216.379,-359.28,0,0
171922.025,217.954,-353.364,0,0
172182.35,219.852,-347.786,0,0
172442.675,222.137,-342.587,0,0
172703.0,224.246,-337.51,0,0
172963.325,226.662,-332.516,0,0
173223.65,229.236,-327.7,0,0
173483.975,231.778,-322.986,0,0
173744.3,234.433,-318.511,0,0
174004.625,236.9,-314.139,0,0
174264.95,239.514,-309.647,0,0
174525.275,242.035,-305.614,0,0
174785.6,243.944,-301.451,0,0
175045.925,245.628,-296.645,0,0
175306.25,247.577,-291.252,0,0
175566.575,249.922,-285.484,0,0
175826.9,252.823,-279.465,0,0
176087.225,256.209,-273.518,0,0
176347.55,260.066,-267.826,0,0
176607.875,263.982,-262.434,0,0
176868.2,267.814,-257.202,0,0
177128.525,271.447,-251.861,0,0
177388.85,274.908,-246.199,0,0
177649.175,278.59,-239.768,0,0
177909.5,283.014,-232.8,0,0
178169.825,288.432,-225.683,0,0
178430.15,294.559,-218.963,0,0
178690.475,300.982,-212.499,0,0
178950.8,307.932,-205.801,0,0
179211.125,315.733,-199.855,0,0
179471.45,323.25,-194.136,0,0
179731.775,331.277,-188.466,0,0
179992.1,340.133,-182.989,0,0
180252.425,349.404,-178.658,0,0
180512.75,358.161,-174.862,0,0
180773.075,366.834,-170.882,0,0
181033.4,375.84,-166.732,0,0
181293.725,385.215,-162.741,0,0
181554.05,395.24,-158.634,0,0
181814.375,406.444,-154.978,0,0
182074.7,418.431,-152.404,0,0
182335.025,430.786,-151.297,0,0
182595.35,442.88,-151.709,0,0
182855.675,453.996,-153.241,0,0
183116.0,464.213,-155.098,0,0
183376.325,473.722,-157.481,0,0
183636.65,482.009,-159.945,0,0
183896.975,488.984,-161.666,0,0
184157.3,495.766,-161.854,0,0
184417.625,503.666,-160.718,0,0
184677.95,513.165,-159.691,0,0
184938.275,523.668,-159.68,0,0
185198.6,534.624,-160.735,0,0
185458.925,545.367,-163.043,0,0
185719.25,555.22,-166.251,0,0
185979.575,564.294,-169.054,0,0
186239.9,573.977,-171.775,0,0
186500,583.513,-175.561,0,0
186761,592.309,-179.573,0,0
187021,600.869,-183.531,0,0
187281,609.218,-187.696,0,0
187542,617.141,-191.911,0,0
187802,624.747,-195.839,0,0
188062,632.626,-199.501,0,0
188322,640.862,-203.714,0,0
188583,648.626,-208.626,0,0
188843,655.627,-213.483,0,0
189103,662.191,-218.094,0,0
189364,668.458,-222.166,0,0
189624,674.849,-225.631,0,0
189884,681.687,-228.909,0,0
190145,688.51,-232.109,0,0
190405,695.8,-234.634,0,0
190665,704.027,-237.126,0,0
190926,713.396,-240.066,0,0
191186,723.613,-244.459,0,0
191446,733.063,-250.519,0,0
191707,741.083,-257.028,0,0
191967,747.92,-263.174,0,0
192227,754.07,-268.008,0,0
192488,760.775,-271.533,0,0
192748,768.247,-274.303,0,0
193008,777.265,-276.067,0,0
193269,788.404,-278.376,0,0
193529,800.476,-281.684,0,0
193789,814.116,-285.519,0,0
194050,829.27,-291.351,0,0
194310,844.803,-299.1,0,0
194570,860.613,-308.637,0,0
194831,876.14,-320.206,0,0
195091,890.918,-333.333,0,0
195351,905.171,-347.489,0,0
195612,919.369,-362.858,0,0
195872,933.677,-380.015,0,0
196132,946.654,-399.914,0,0
196393,957.636,-421.308,0,0
196653,966.853,-443.277,0,0
196913,975.264,-466.236,0,0
197174,982.139,-490.486,0,0
197434,987.057,-516.082,0,0
197694,989.344,-542.54,0,0
197955,989.261,-569.287,0,0
198215,986.718,-595.913,0,0
198475,981.721,-622.139,0,0
198735,974.55,-647.442,0,0
198996,965.599,-671.944,0,0
199256,954.622,-695.86,0,0
199516,941.065,-718.472,0,0
199777,925.276,-738.895,0,0
200037,908.23,-756.192,0,0
200297,891.273,-770.599,0,0
200558,874.921,-783.058,0,0
200818,859.387,-794.197,0,0
201078,844.875,-804.5,0,0
201339,830.572,-815.355,0,0
201599,815.776,-826.257,0,0
201859,799.869,-837.341,0,0
202120,781.703,-847.679,0,0
202380.025,761.392,-855.046,0,0
202640.35,740.703,-859.144,0,0
202900.675,721.489,-859.932,0,0
203161.0,704.355,-858.92,0,0
203421.325,688.91,-857.004,0,0
203681.65,675.351,-854.417,0,0
203941.975,663.372,-852.336,0,0
204202.3,651.622,-850.858,0,0
204462.625,639.625,-849.079,0,0
204722.95,627.797,-846.769,0,0
204983.275,616.188,-843.906,0,0
205243.6,604.689,-840.013,0,0
205503.925,593.677,-834.767,0,0
205764.25,584.032,-828.553,0,0
206024.575,575.56,-821.637,0,0
206284.9,568.473,-814.321,0,0
206545.225,563.136,-806.784,0,0
206805.55,559.554,-799.713,0,0
207065.875,556.965,-793.836,0,0
207326.2,554.71,-788.665,0,0
207586.525,552.999,-783.868,0,0
207846.85,551.781,-779.544,0,0
208107.175,551.127,-776,0,0
208367.5,550.467,-773.148,0,0
208627.825,549.749,-770.707,0,0
208888.15,548.987,-768.668,0,0
209148.475,548.151,-766.744,0,0
209408.8,547.004,-764.745,0,0
209669.125,546.171,-762.329,0,0
209929.45,546.017,-759.774,0,0
210189.775,546.714,-757.507,0,0
210450.1,547.739,-755.68,0,0
210710.425,549.223,-754.573,0,0
210970.75,550.864,-753.96,0,0
211231.075,552.614,-753.785,0,0
211491.4,554.575,-753.987,0,0
211751.725,556.943,-754.975,0,0
212012.05,559.019,-756.833,0,0
212272.375,560.687,-759.212,0,0
212532.7,562.113,-761.926,0,0
212793.025,563.432,-764.921,0,0
213053.35,564.383,-768.495,0,0
213313.675,564.851,-772.369,0,0
213574.0,564.958,-776.422,0,0
213834.325,564.66,-780.601,0,0
214094.65,564.111,-784.796,0,0
214354.975,563.2,-789.151,0,0
214615.3,562.259,-793.469,0,0
214875.625,560.933,-798.108,0,0
215135.95,559.313,-802.749,0,0
215396.275,557.462,-807.43,0,0
215656.6,555.239,-812.129,0,0
215916.925,552.707,-817.088,0,0
216177.25,549.158,-821.637,0,0
216437.575,546.071,-825.932,0,0
216697.9,542.503,-830.343,0,0
216958.225,538.816,-834.658,0,0
217218.55,534.878,-838.885,0,0
217478.875,530.761,-842.978,0,0
217739.2,526.509,-847.052,0,0
217999.525,522.023,-851.076,0,0
218259.85,517.164,-855.071,0,0
218520,511.968,-858.948,0,0
218780,506.194,-862.596,0,0
219041,500.227,-865.796,0,0
219301,494.055,-868.553,0,0
219561,487.752,-871.028,0,0
219822,481.503,-873.168,0,0
220082,474.952,-875.001,0,0
220342,468.094,-876.288,0,0
220603,461.32,-877.19,0,0
220863,454.566,-877.407,0,0
221123,448.078,-877.113,0,0
221384,441.809,-876.337,0,0
221644,436.054,-875.29,0,0
221904,430.596,-874.069,0,0
222165,425.469,-872.689,0,0
222425,420.641,-871.051,0,0
222685,416.21,-869.381,0,0
222946,412.074,-867.425,0,0
223206,408.485,-865.533,0,0
223466,405.431,-863.716,0,0
223727,402.641,-862.291,0,0
223987,400.121,-861.219,0,0
224247,397.531,-860.279,0,0
224508,395.004,-859.52,0,0
224768,392.753,-858.636,0,0
225028,390.717,-858.176,0,0
225289,388.952,-857.98,0,0
225549,387.009,-858.304,0,0
225809,384.98,-859.29,0,0
226070,382.51,-860.242,0,0
226330,379.749,-861.293,0,0
226590,376.815,-862.417,0,0
226851,373.561,-863.63,0,0
227111,369.952,-864.774,0,0
227371,366.091,-865.768,0,0
227632,361.871,-866.485,0,0
227892,357.677,-866.657,0,0
228152,353.741,-866.546,0,0
228413,350.175,-866.258,0,0
228673,346.836,-866.202,0,0
228933,343.647,-866.389,0,0
229193,340.413,-867.043,0,0
229454,336.952,-867.87,0,0
229714,333.075,-868.695,0,0
229974,329.051,-869.573,0,0
230235,324.669,-870.528,0,0
230495,319.895,-871.337,0,0
230755,314.877,-871.83,0,0
231016,309.731,-871.979,0,0
231276,304.476,-872.028,0,0
231536,299.125,-871.823,0,0
231797,293.62,-871.289,0,0
232057,288.226,-870.509,0,0
232317,282.808,-869.609,0,0
232578,277.323,-868.614,0,0
232838,271.605,-867.3,0,0
233098,265.879,-865.712,0,0
233359,260.136,-863.825,0,0
233619,254.413,-861.565,0,0
233879,248.77,-858.889,0,0
234140,243.304,-855.906,0,0
234400,237.931,-852.616,0,0
234660.3,232.84,-848.892,0,0
234920.625,228.142,-845.007,0,0
235180.95,223.688,-840.818,0,0
235441.275,219.62,-836.731,0,0
235701.6,215.861,-832.383,0,0
235961.925,212.334,-827.988,0,0
236222.25,209.184,-823.611,0,0
236482.575,206.293,-819.244,0,0
236742.9,203.623,-814.909,0,0
237003.225,201.195,-810.648,0,0
237263.55,198.951,-806.439,0,0
237523.875,196.791,-802.261,0,0
237784.2,194.815,-798.057,0,0
238044.525,192.976,-793.79,0,0
238304.85,191.404,-789.421,0,0
238565.175,190.176,-785.023,0,0
238825.5,189.462,-780.807,0,0
239085.825,188.997,-776.777,0,0
239346.15,188.734,-773.156,0,0
239606.475,188.705,-769.748,0,0
239866.8,188.781,-766.629,0,0
240127.125,188.725,-763.899,0,0
240387.45,188.761,-761.305,0,0
240647.775,188.878,-758.95,0,0
240908.1,188.955,-756.933,0,0
241168.425,188.826,-755.287,0,0
241428.75,188.365,-753.804,0,0
241689.075,187.679,-752.43,0,0
241949.4,186.693,-750.921,0,0
242209.725,185.391,-749.344,0,0
242470.05,184.187,-747.573,0,0
242730.375,182.823,-745.598,0,0
242990.7,181.599,-743.568,0,0
243251.025,180.373,-741.496,0,0
243511.35,179.101,-739.408,0,0
243771.675,177.844,-737.125,0,0
244032.0,176.654,-734.773,0,0
244292.325,175.606,-732.343,0,0
244552.65,174.591,-729.879,0,0
244812.975,173.727,-727.475,0,0
245073.3,172.861,-725.023,0,0
245333.625,172.098,-722.451,0,0
245593.95,171.393,-719.787,0,0
245854.275,171.066,-717.107,0,0
246114.6,170.971,-714.645,0,0
246374.925,170.968,-712.406,0,0
246635.25,170.966,-710.44,0,0
246895.575,170.848,-708.605,0,0
247155.9,170.614,-706.89,0,0
247416.225,170.199,-705.111,0,0
247676.55,169.754,-703.319,0,0
247936.875,169.374,-701.449,0,0
248197.2,168.989,-699.6,0,0
248457.525,168.609,-697.737,0,0
248717.85,168.211,-695.869,0,0
248978.175,167.781,-693.935,0,0
249238.5,167.414,-691.957,0,0
249498.825,167.117,-689.984,0,0
249759.15,166.859,-687.995,0,0
250019.475,166.695,-686.015,0,0
250279.8,166.678,-683.927,0,0
250540,166.607,-681.953,0,0
250800,166.724,-679.937,0,0
251061,166.937,-677.965,0,0
251321,167.279,-676.029,0,0
251581,167.813,-674.248,0,0
251842,168.358,-672.611,0,0
252102,168.927,-671.154,0,0
252362,169.561,-669.773,0,0
252623,170.257,-668.642,0,0
252883,170.95,-667.714,0,0
253143,171.479,-667.055,0,0
253404,171.809,-666.566,0,0
253664,171.971,-666.137,0,0
253924,171.878,-665.802,0,0
254185,171.563,-665.424,0,0
254445,171.125,-664.995,0,0
254705,170.509,-664.477,0,0
254966,169.699,-663.888,0,0
255226,168.741,-663.267,0,0
255486,167.703,-662.342,0,0
255747,166.579,-661.269,0,0
256007,165.461,-659.941,0,0
256267,164.409,-658.509,0,0
256528,163.367,-656.959,0,0
256788,162.343,-655.239,0,0
257048,161.369,-653.313,0,0
257309,160.567,-651.225,0,0
257569,159.916,-649.052,0,0
257829,159.454,-646.787,0,0
258090,159.12,-644.415,0,0
258350,159.004,-642.026,0,0
258610,159.089,-639.61,0,0
258871,159.361,-637.269,0,0
259131,159.837,-634.953,0,0
259391,160.565,-632.716,0,0
259651,161.432,-630.686,0,0
259912,162.372,-628.936,0,0
260172,163.277,-627.372,0,0
260432,164.071,-625.978,0,0
260693,164.83,-624.508,0,0
260953,165.628,-623.157,0,0
261213,166.452,-621.844,0,0
261474,167.217,-620.633,0,0
261734,167.911,-619.469,0,0
261994,168.581,-618.372,0,0
262255,169.147,-617.311,0,0
262515,169.585,-616.197,0,0
262775,169.877,-614.865,0,0
263036,170.368,-613.381,0,0
263296,170.97,-611.818,0,0
263556,171.648,-610.312,0,0
263817,172.366,-608.841,0,0
264077,173.082,-607.277,0,0
264337,173.875,-605.661,0,0
264598,174.721,-603.89,0,0
264858,175.675,-602.069,0,0
265118,176.872,-600.14,0,0
265379,178.261,-598.16,0,0
265639,179.863,-596.148,0,0
265899,181.717,-594.088,0,0
266160,183.988,-592.053,0,0
266420,186.602,-590.166,0,0
266680.25,189.565,-588.525,0,0
266940.575,192.795,-587.137,0,0
267200.9,196.342,-586.021,0,0
267461.225,200.095,-585.333,0,0
267721.55,204.045,-585.062,0,0
267981.875,208.079,-585.25,0,0
268242.2,212.115,-585.957,0,0
268502.525,216.006,-587.069,0,0
268762.85,219.785,-588.527,0,0
269023.175,223.452,-590.316,0,0
269283.5,226.995,-592.299,0,0
269543.825,230.468,-594.562,0,0
269804.15,233.991,-597.2,0,0
270064.475,237.492,-600.338,0,0
270324.8,240.779,-603.963,0,0
270585.125,243.797,-608.092,0,0
270845.45,246.353,-612.743,0,0
271105.775,248.36,-617.706,0,0
271366.1,249.852,-622.892,0,0
271626.425,250.811,-628.141,0,0
271886.75,251.488,-633.486,0,0
272147.075,251.757,-639.093,0,0
272407.4,251.523,-644.891,0,0
272667.725,250.737,-650.91,0,0
272928.05,249.269,-657.072,0,0
273188.375,246.969,-663.217,0,0
273448.7,243.827,-669.242,0,0
273709.025,239.849,-674.833,0,0
273969.35,235.282,-679.761,0,0
274229.675,230.241,-684.113,0,0
274490.0,224.841,-687.797,0,0
274750.325,219.282,-690.824,0,0
275010.65,213.574,-693.233,0,0
275270.975,207.809,-695.067,0,0
275531.3,202.075,-696.328,0,0
275791.625,196.499,-697.094,0,0
276051.95,191.037,-697.453,0,0
276312.275,185.72,-697.405,0,0
276572.6,180.589,-696.971,0,0
276832.925,175.666,-696.232,0,0
277093.25,170.955,-695.236,0,0
277353.575,166.384,-694.007,0,0
277613.9,162.056,-692.555,0,0
277874.225,157.882,-690.909,0,0
278134.55,153.895,-689.058,0,0
278394.875,150.034,-687.038,0,0
278655.2,146.366,-684.795,0,0
278915.525,142.932,-682.295,0,0
279175.85,139.811,-679.63,0,0
279436.175,137.003,-676.818,0,0
279696.5,134.5,-673.914,0,0
279956.825,132.286,-671.002,0,0
280217.15,130.395,-668.109,0,0
280477.475,128.839,-665.231,0,0
280737.8,127.556,-662.463,0,0
280998.125,126.482,-659.839,0,0
281258.45,125.567,-657.359,0,0
281518.775,124.827,-655.06,0,0
281779.1,124.153,-652.884,0,0
282039.425,123.579,-650.836,0,0
282299.75,123.122,-648.92,0,0
282560,122.695,-647.198,0,0
282820,122.269,-645.634,0,0
283081,121.723,-644.205,0,0
283341,121.064,-642.738,0,0
283601,120.429,-641.197,0,0
283862,119.821,-639.603,0,0
284122,119.345,-637.967,0,0
284382,118.959,-636.393,0,0
284643,118.657,-634.816,0,0
284903,118.418,-633.238,0,0
285163,118.311,-631.745,0,0
285424,118.32,-630.238,0,0
285684,118.506,-628.877,0,0
285944,118.765,-627.594,0,0
286205,119.134,-626.419,0,0
286465,119.711,-625.401,0,0
286725,120.414,-624.563,0,0
286986,121.217,-624.028,0,0
287246,122.095,-623.858,0,0
287506,122.855,-624.087,0,0
287767,123.417,-624.66,0,0
288027,123.743,-625.484,0,0
288287,123.735,-626.557,0,0
288548,123.335,-627.778,0,0
288808,122.545,-629.019,0,0
289068,121.387,-630.211,0,0
289329,119.883,-631.299,0,0
289589,118.065,-632.177,0,0
289849,116.02,-632.81,0,0
290109,113.79,-633.101,0,0
290370,111.531,-633.116,0,0
290630,109.316,-632.861,0,0
290890,107.183,-632.462,0,0
291151,105.083,-631.95,0,0
291411,103.035,-631.356,0,0
291671,100.999,-630.664,0,0
291932,98.9129,-629.868,0,0
292192,96.8322,-628.971,0,0
292452,94.8033,-627.926,0,0
292713,92.8228,-626.764,0,0
292973,90.8934,-625.499,0,0
293233,89.0309,-624.166,0,0
293494,87.2014,-622.757,0,0
293754,85.4515,-621.25,0,0
294014,83.7158,-619.674,0,0
294275,82.0832,-618.003,0,0
294535,80.5347,-616.218,0,0
294795,79.1116,-614.376,0,0
295056,77.8337,-612.527,0,0
295316,76.6288,-610.645,0,0
295576,75.5511,-608.788,0,0
295837,74.5651,-606.951,0,0
296097,73.6311,-605.153,0,0
296357,72.7665,-603.39,0,0
296618,71.9241,-601.653,0,0
296878,71.1034,-599.918,0,0
297138,70.3148,-598.201,0,0
297399,69.5589,-596.479,0,0
297659,68.8308,-594.744,0,0
297919,68.1248,-593,0,0
298180,67.459,-591.27,0,0
298440,66.8214,-589.492,0,0
298700.2,66.2455,-587.711,0,0
298960.525,65.7076,-585.936,0,0
299220.85,65.2082,-584.131,0,0
299481.175,64.7794,-582.335,0,0
299741.5,64.3829,-580.512,0,0
300001.825,64.091,-578.7,0,0
300262.15,63.8341,-576.876,0,0
300522.475,63.6416,-575.099,0,0
300782.8,63.4946,-573.341,0,0
301043.125,63.4343,-571.564,0,0
301303.45,63.4379,-569.811,0,0
301563.775,63.5207,-568.113,0,0
301824.1,63.6711,-566.459,0,0
302084.425,63.8652,-564.876,0,0
302344.75,64.0916,-563.362,0,0
302605.075,64.3564,-561.893,0,0
302865.4,64.6478,-560.472,0,0
303125.725,64.954,-559.108,0,0
303386.05,65.2976,-557.778,0,0
303646.375,65.6463,-556.515,0,0
303906.7,66.019,-555.308,0,0
304167.025,66.4134,-554.142,0,0
304427.35,66.7956,-553.032,0,0
304687.675,67.203,-551.978,0,0
304948.0,67.6454,-550.976,0,0
305208.325,68.0635,-549.999,0,0
305468.65,68.4931,-549.144,0,0
305728.975,68.9116,-548.328,0,0
305989.3,69.2956,-547.579,0,0
306249.625,69.6356,-546.874,0,0
306509.95,69.9479,-546.189,0,0
306770.275,70.2391,-545.525,0,0
307030.6,70.5034,-544.851,0,0
307290.925,70.7928,-544.216,0,0
307551.25,71.0946,-543.606,0,0
307811.575,71.4066,-543.073,0,0
308071.9,71.7226,-542.613,0,0
308332.225,71.9841,-542.278,0,0
308592.55,72.1638,-542,0,0
308852.875,72.2127,-541.764,0,0
309113.2,72.142,-541.536,0,0
309373.525,71.9755,-541.237,0,0
309633.85,71.7423,-540.86,0,0
309894.175,71.4922,-540.437,0,0
310154.5,71.28,-539.924,0,0
310414.825,71.0759,-539.403,0,0
310675.15,70.8797,-538.858,0,0
310935.475,70.6894,-538.318,0,0
311195.8,70.5368,-537.761,0,0
311456.125,70.4104,-537.231,0,0
311716.45,70.2594,-536.764,0,0
311976.775,70.1145,-536.302,0,0
312237.1,69.9042,-535.857,0,0
312497.425,69.6636,-535.409,0,0
312757.75,69.3876,-534.958,0,0
313018.075,69.0872,-534.49,0,0
313278.4,68.7691,-534.004,0,0
313538.725,68.4465,-533.516,0,0
313799.05,68.0941,-532.979,0,0
314059.375,67.7381,-532.434,0,0
314319.7,67.3992,-531.873,0,0
314580,66.9892,-531.302,0,0
314840,66.6561,-530.716,0,0
315101,66.3389,-530.14,0,0
315361,65.9682,-529.475,0,0
315621,65.5168,-528.838,0,0
315882,65.0815,-528.163,0,0
316142,64.7663,-527.373,0,0
316402,64.3879,-526.696,0,0
316663,64.1625,-525.871,0,0
316923,63.9086,-525.152,0,0
317183,63.6425,-524.38,0,0
317444,63.3428,-523.764,0,0
317704,63.1202,-523.055,0,0
317964,62.8936,-522.303,0,0
318225,62.639,-521.585,0,0
318485,62.3881,-520.839,0,0
318745,62.2291,-520.042,0,0
319006,61.9673,-519.293,0,0
319266,61.9056,-518.51,0,0
319526,61.763,-517.787,0,0
319787,61.6877,-517.086,0,0
320047,61.6858,-516.47,0,0
320307,61.6161,-515.827,0,0
320567,61.5588,-515.202,0,0
320828,61.4371,-514.626,0,0
321088,61.3404,-514.14,0,0
321348,61.2313,-513.659,0,0
321609,61.1755,-513.12,0,0
321869,61.0104,-512.618,0,0
322129,60.841,-512.216,0,0
322390,60.6751,-511.724,0,0
322650,60.4896,-511.355,0,0
322910,60.2443,-510.915,0,0
323171,59.9847,-510.575,0,0
323431,59.6547,-510.124,0,0
323691,59.2692,-509.763,0,0
323952,58.9667,-509.276,0,0
324212,58.5173,-508.874,0,0
324472,58.0704,-508.306,0,0
324733,57.6239,-507.828,0,0
324993,57.1936,-507.252,0,0
325253,56.6754,-506.708,0,0
325514,56.278,-506.121,0,0
325774,55.7371,-505.443,0,0
326034,55.3283,-504.702,0,0
326295,54.8705,-504.033,0,0
326555,54.4934,-503.391,0,0
326815,54.109,-502.616,0,0
327076,53.7188,-501.915,0,0
327336,53.3577,-501.177,0,0
327596,52.9821,-500.438,0,0
327857,52.6714,-499.736,0,0
328117,52.3491,-499.03,0,0
328377,51.9966,-498.336,0,0
328638,51.6647,-497.623,0,0
328898,51.2859,-496.892,0,0
329158,50.9156,-496.193,0,0
329419,50.5447,-495.417,0,0
329679,50.1904,-494.645,0,0
329939,49.8494,-493.815,0,0
330200,49.5075,-493.073,0,0
330460,49.201,-492.198,0,0
330720.15,48.8852,-491.428,0,0
330980.475,48.5242,-490.581,0,0
331240.8,48.2369,-489.766,0,0
331501.125,47.949,-488.929,0,0
331761.45,47.6631,-488.095,0,0
332021.775,47.4014,-487.164,0,0
332282.1,47.1496,-486.301,0,0
332542.425,46.8969,-485.413,0,0
332802.75,46.71,-484.513,0,0
333063.075,46.5436,-483.591,0,0
333323.4,46.4025,-482.669,0,0
333583.725,46.2536,-481.733,0,0
333844.05,46.1668,-480.838,0,0
334104.375,46.1103,-479.895,0,0
334364.7,46.1176,-479.007,0,0
334625.025,46.1564,-478.112,0,0
334885.35,46.1487,-477.26,0,0
335145.675,46.2605,-476.491,0,0
335406.0,46.3111,-475.727,0,0
335666.325,46.4141,-475.046,0,0
335926.65,46.4772,-474.314,0,0
336186.975,46.5002,-473.745,0,0
336447.3,46.5945,-473.031,0,0
336707.625,46.5866,-472.492,0,0
336967.95,46.6215,-471.866,0,0
337228.275,46.5977,-471.293,0,0
337488.6,46.5928,-470.775,0,0
337748.925,46.5237,-470.201,0,0
338009.25,46.455,-469.648,0,0
338269.575,46.3262,-469.154,0,0
338529.9,46.1441,-468.579,0,0
338790.225,45.9917,-468.034,0,0
339050.55,45.8824,-467.518,0,0
339310.875,45.661,-466.872,0,0
339571.2,45.5039,-466.342,0,0
339831.525,45.289,-465.71,0,0
340091.85,45.1263,-465.103,0,0
340352.175,44.9475,-464.507,0,0
340612.5,44.7309,-463.836,0,0
340872.825,44.5065,-463.228,0,0
341133.15,44.1799,-462.56,0,0
341393.475,43.9811,-461.886,0,0
341653.8,43.7573,-461.196,0,0
341914.125,43.5589,-460.459,0,0
342174.45,43.3258,-459.677,0,0
342434.775,43.1166,-458.98,0,0
342695.1,42.8769,-458.216,0,0
342955.425,42.7404,-457.436,0,0
343215.75,42.5448,-456.649,0,0
343476.075,42.4523,-455.889,0,0
343736.4,42.2321,-455.007,0,0
343996.725,42.1118,-454.227,0,0
344257.05,41.9158,-453.37,0,0
344517.375,41.8604,-452.582,0,0
344777.7,41.7547,-451.731,0,0
345038.025,41.6666,-450.898,0,0
345298.35,41.6437,-450.04,0,0
345558.675,41.569,-449.193,0,0
345819.0,41.5531,-448.341,0,0
346079.325,41.5614,-447.577,0,0
346339.65,41.5958,-446.717,0,0
346599.975,41.62,-445.87,0,0
346860,41.6476,-445.065,0,0
347121,41.702,-444.263,0,0
347381,41.7491,-443.452,0,0
347641,41.8472,-442.714,0,0
347902,41.8944,-441.867,0,0
348162,41.9876,-441.096,0,0
348422,42.1182,-440.333,0,0
348683,42.2284,-439.559,0,0
348943,42.2928,-438.815,0,0
349203,42.4377,-437.994,0,0
349464,42.5663,-437.226,0,0
349724,42.7147,-436.489,0,0
349984,42.9042,-435.687,0,0
350245,43.1289,-434.967,0,0
350505,43.3292,-434.239,0,0
350765,43.5562,-433.544,0,0
351025,43.8108,-432.847,0,0
351286,44.0262,-432.17,0,0
351546,44.2817,-431.57,0,0
351806,44.5054,-430.981,0,0
352067,44.7453,-430.317,0,0
352327,45.0182,-429.78,0,0
352587,45.2289,-429.226,0,0
352848,45.4718,-428.7,0,0
353108,45.7251,-428.104,0,0
353368,45.874,-427.575,0,0
353629,46.106,-427.098,0,0
353889,46.3179,-426.599,0,0
354149,46.5381,-426.086,0,0
354410,46.7184,-425.572,0,0
354670,46.9441,-425.075,0,0
354930,47.1377,-424.614,0,0
355191,47.2831,-424.14,0,0
355451,47.496,-423.68,0,0
355711,47.6556,-423.235,0,0
355972,47.8486,-422.795,0,0
356232,48.0489,-422.354,0,0
356492,48.1608,-421.971,0,0
356753,48.2896,-421.535,0,0
357013,48.4391,-421.121,0,0
357273,48.5309,-420.668,0,0
357534,48.6861,-420.273,0,0
357794,48.7901,-419.851,0,0
358054,48.9143,-419.448,0,0
358315,49.016,-418.998,0,0
358575,49.1412,-418.629,0,0
358835,49.2443,-418.196,0,0
359096,49.3407,-417.737,0,0
359356,49.4534,-417.317,0,0
359616,49.5453,-416.948,0,0
359877,49.679,-416.501,0,0
360137,49.7703,-416.142,0,0
360397,49.8611,-415.702,0,0
360658,49.9524,-415.281,0,0
360918,50.0591,-414.883,0,0
361178,50.1658,-414.501,0,0
361438,50.2816,-414.079,0,0
361699,50.3842,-413.656,0,0
361959,50.4828,-413.329,0,0
362219,50.5141,-412.982,0,0
362480,50.6481,-412.626,0,0
362740.1,50.7185,-412.25,0,0
363000.425,50.7615,-411.901,0,0
363260.75,50.8246,-411.566,0,0
363521.075,50.8697,-411.185,0,0
363781.4,50.8971,-410.802,0,0
364041.725,50.9776,-410.433,0,0
364302.05,51.0038,-410.077,0,0
364562.375,51.0828,-409.697,0,0
364822.7,51.0768,-409.383,0,0
365083.025,51.1053,-409.011,0,0
365343.35,51.1255,-408.643,0,0
365603.675,51.1629,-408.237,0,0
365864.0,51.1574,-407.883,0,0
366124.325,51.1523,-407.503,0,0
366384.65,51.1648,-407.133,0,0
366644.975,51.1981,-406.653,0,0
366905.3,51.1958,-406.319,0,0
367165.625,51.2166,-405.876,0,0
367425.95,51.2368,-405.497,0,0
367686.275,51.2773,-405.105,0,0
367946.6,51.3166,-404.654,0,0
368206.925,51.2985,-404.26,0,0
368467.25,51.3339,-403.82,0,0
368727.575,51.3803,-403.35,0,0
368987.9,51.398,-402.859,0,0
369248.225,51.5174,-402.404,0,0
369508.55,51.6652,-401.963,0,0
369768.875,51.7856,-401.484,0,0
370029.2,52.0016,-401.083,0,0
370289.525,52.1554,-400.671,0,0
370549.85,52.416,-400.318,0,0
370810.175,52.6396,-400.001,0,0
371070.5,52.851,-399.772,0,0
371330.825,53.0246,-399.519,0,0
371591.15,53.2169,-399.3,0,0
371851.475,53.3175,-399.128,0,0
372111.8,53.4907,-398.974,0,0
372372.125,53.5227,-398.832,0,0
372632.45,53.6331,-398.711,0,0
372892.775,53.6412,-398.599,0,0
373153.1,53.6592,-398.469,0,0
373413.425,53.6044,-398.391,0,0
373673.75,53.5448,-398.278,0,0
373934.075,53.4093,-398.153,0,0
374194.4,53.2731,-398.057,0,0
374454.725,53.0826,-397.857,0,0
374715.05,52.8787,-397.656,0,0
374975.375,52.6232,-397.458,0,0
375235.7,52.3707,-397.201,0,0
375496.025,52.1611,-396.84,0,0
375756.35,51.9214,-396.498,0,0
376016.675,51.7453,-396.076,0,0
376277.0,51.5411,-395.675,0,0
376537.325,51.4251,-395.259,0,0
376797.65,51.319,-394.861,0,0
377057.975,51.29,-394.472,0,0
377318.3,51.1943,-394.135,0,0
377578.625,51.1467,-393.806,0,0
377838.95,51.0475,-393.543,0,0
378099.275,50.9058,-393.24,0,0
378359.6,50.7603,-392.966,0,0
378619.925,50.5005,-392.629,0,0
378880,50.3064,-392.287,0,0
379141,50.0107,-391.862,0,0
379401,49.7673,-391.399,0,0
379661,49.5586,-390.885,0,0
379922,49.3642,-390.302,0,0
380182,49.2296,-389.691,0,0
380442,49.2506,-389.069,0,0
380703,49.2918,-388.472,0,0
380963,49.4115,-387.957,0,0
381223,49.5866,-387.494,0,0
381483,49.7797,-387.068,0,0
381744,49.9249,-386.804,0,0
382004,50.0576,-386.582,0,0
382264,50.1516,-386.367,0,0
382525,50.1742,-386.252,0,0
382785,50.1299,-386.112,0,0
383045,50.0143,-385.951,0,0
383306,49.9336,-385.801,0,0
383566,49.7446,-385.665,0,0
383826,49.5376,-385.47,0,0
384087,49.3368,-385.287,0,0
384347,48.9927,-385.044,0,0
384607,48.6704,-384.807,0,0
384868,48.3299,-384.49,0,0
385128,48.0043,-384.16,0,0
385388,47.6689,-383.765,0,0
385649,47.3365,-383.359,0,0
385909,46.9689,-382.934,0,0
386169,46.6598,-382.513,0,0
386430,46.3252,-381.986,0,0
386690,46.0088,-381.467,0,0
386950,45.7019,-380.921,0,0
387211,45.4223,-380.366,0,0
387471,45.153,-379.758,0,0
387731,44.8799,-379.17,0,0
387992,44.6797,-378.516,0,0
388252,44.4417,-377.862,0,0
388512,44.2553,-377.206,0,0
388773,44.1132,-376.546,0,0
389033,44.0101,-375.881,0,0
389293,43.9265,-375.22,0,0
389554,43.8672,-374.624,0,0
389814,43.8119,-374.01,0,0
390074,43.7665,-373.352,0,0
390335,43.7354,-372.739,0,0
390595,43.6923,-372.184,0,0
390855,43.6856,-371.59,0,0
391116,43.6825,-370.981,0,0
391376,43.6375,-370.395,0,0
391636,43.6408,-369.854,0,0
391896,43.6032,-369.289,0,0
392157,43.616,-368.751,0,0
392417,43.5686,-368.196,0,0
392677,43.5265,-367.67,0,0
392938,43.5342,-367.096,0,0
393198,43.4602,-366.559,0,0
393458,43.4495,-365.958,0,0
393719,43.4053,-365.426,0,0
393979,43.3815,-364.841,0,0
394239,43.342,-364.228,0,0
394500,43.3415,-363.648,0,0
394760.05,43.3436,-363.058,0,0
395020.375,43.3328,-362.453,0,0
395280.7,43.3803,-361.825,0,0
395541.025,43.4567,-361.222,0,0
395801.35,43.5052,-360.661,0,0
396061.675,43.5421,-360.053,0,0
396322.0,43.645,-359.472,0,0
396582.325,43.7344,-358.932,0,0
396842.65,43.8093,-358.391,0,0
397102.975,43.8931,-357.832,0,0
397363.3,43.9743,-357.281,0,0
397623.625,44.0771,-356.772,0,0
397883.95,44.1354,-356.266,0,0
398144.275,44.2219,-355.722,0,0
398404.6,44.2782,-355.17,0,0
398664.925,44.4052,-354.641,0,0
398925.25,44.4684,-354.142,0,0
399185.575,44.5694,-353.636,0,0
399445.9,44.6327,-353.146,0,0
399706.225,44.6809,-352.601,0,0
399966.55,44.778,-352.107,0,0
400006.6,44.7825,-352.013,0,0