File: Accelerated corrosion test data/2025-10-21_18-00-04/sample_2.csv
Frequency (Hz),Impedance (ohms),Phase (Radians),Temperature (C),Humidity (%)
10000.0,228.809,-11482.8,0,0
10260.325,223.394,-11193.8,0,0
10520.65,217.998,-10919.1,0,0
10780.975,213.21,-10657,0,0
11041.3,207.991,-10408.3,0,0
11301.625,203.539,-10169.7,0,0
11561.95,199.786,-9941.18,0,0
11822.275,198.278,-9731.55,0,0
12082.6,192.743,-9520.04,0,0
12342.925,187.053,-9322.45,0,0
12603.25,183.319,-9130,0,0
12863.575,180.066,-8945.27,0,0
13123.9,177.098,-8771.41,0,0
13384.225,172.88,-8599.43,0,0
13644.55,170.5,-8433.6,0,0
13904.875,185.269,-8274.59,0,0
14165.2,164.823,-8133.72,0,0
14425.525,162.494,-7984.34,0,0
14685.8,163.727,-7837.91,0,0
14946.175,158.751,-7708.45,0,0
15206.5,167.015,-7585.4,0,0
15466.825,158.381,-7451.71,0,0
15727.15,151.611,-7337.07,0,0
15987.5,148.266,-7215.2,0,0
16247.8,147.96,-7100.21,0,0
16508.125,142.688,-6989.39,0,0
16768.45,140.562,-6881.07,0,0
17028.775,139.36,-6776.01,0,0
17289.1,138.156,-6674.69,0,0
17549.425,134.548,-6575.92,0,0
17809.75,132.804,-6479.1,0,0
18070.075,130.679,-6385.9,0,0
18330.4,128.595,-6294.91,0,0
18590.725,127.702,-6205.99,0,0
18851.05,126.512,-6120.03,0,0
19111.375,128.209,-6037.54,0,0
19371.7,127.921,-5960.23,0,0
19632.025,122.515,-5881.46,0,0
19892.35,120.094,-5803.18,0,0
20152.675,118.601,-5727,0,0
20413.0,117.86,-5652.3,0,0
20673.3,116.982,-5579.1,0,0
20933.65,117.875,-5507.26,0,0
21193.975,125.555,-5438.34,0,0
21454.3,130.077,-5376.8,0,0
21714.625,128.57,-5322.41,0,0
21974.9,120.33,-5258.04,0,0
22235.275,119.071,-5203.46,0,0
22495.6,114.429,-5141.85,0,0
22755.925,111.053,-5080.56,0,0
23016.25,112.411,-5024.9,0,0
23276.6,113.392,-4969.43,0,0
23536.9,107.978,-4914.56,0,0
23797.225,107.145,-4859.97,0,0
24057.55,106.119,-4809.36,0,0
24317.875,102.449,-4757.87,0,0
24578.2,100.715,-4706.22,0,0
24838.525,99.292,-4656.2,0,0
25098.85,98.4821,-4607.05,0,0
25359.175,97.477,-4559.5,0,0
25619.5,97.4897,-4512.94,0,0
25879.8,95.1215,-4466.8,0,0
26140.1,95.956,-4421.14,0,0
26400.5,95.4905,-4378.09,0,0
26660.8,95.9343,-4335.67,0,0
26921.1,94.8663,-4293.84,0,0
27181.4,93.2766,-4253.39,0,0
27441.8,91.5102,-4213.44,0,0
27702.1,90.3254,-4172.51,0,0
27962.4,89.2258,-4132.11,0,0
28222.7,89.6633,-4092.97,0,0
28483.1,89.8846,-4055.14,0,0
28743.4,89.1087,-4017.84,0,0
29003.7,90.3351,-3980.08,0,0
29264,90.5338,-3944.86,0,0
29524.4,92.8757,-3908.37,0,0
29784.7,97.2708,-3878.77,0,0
30045,93.5985,-3848.4,0,0
30305.3,93.591,-3814.91,0,0
30565.7,90.7779,-3787.37,0,0
30826,87.8038,-3754.13,0,0
31086.3,85.9761,-3721.71,0,0
31346.6,84.5665,-3690.87,0,0
31607,84.4626,-3658.5,0,0
31867.3,82.7701,-3630.48,0,0
32127.6,81.7806,-3599.08,0,0
32387.9,81.898,-3568.83,0,0
32648.3,83.0804,-3541.1,0,0
32908.6,83.4509,-3514.87,0,0
33168.9,81.3281,-3487.77,0,0
33429.2,79.5036,-3460.28,0,0
33689.6,79.2358,-3433.19,0,0
33949.9,78.2065,-3406.81,0,0
34210.2,76.8247,-3380.77,0,0
34470.5,75.9,-3354.45,0,0
34730.9,75.2922,-3328.63,0,0
34991.2,74.8474,-3303.76,0,0
35251.5,74.4117,-3278.99,0,0
35511.8,73.8612,-3254.45,0,0
35772.2,73.341,-3230.42,0,0
36032.5,72.8893,-3206.97,0,0
36292.8,72.0692,-3183.46,0,0
36553.1,71.6432,-3160.12,0,0
36813.5,71.177,-3137.39,0,0
37073.8,70.8356,-3115.05,0,0
37334.1,70.4445,-3092.93,0,0
37594.4,70.2589,-3071.18,0,0
37854.8,69.8952,-3049.76,0,0
38115.1,69.7032,-3028.8,0,0
38375.4,68.8213,-3007.84,0,0
38635.7,68.4323,-2987.38,0,0
38896.1,68.1164,-2966.78,0,0
39156.4,67.7362,-2946.63,0,0
39416.7,67.3694,-2926.99,0,0
39677,66.768,-2907.42,0,0
39937.4,66.7212,-2887.92,0,0
40197.7,66.1895,-2868.78,0,0
40458,65.8776,-2849.65,0,0
40718.3,65.7808,-2830.84,0,0
40978.7,65.6896,-2812.85,0,0
41239,65.2622,-2794.47,0,0
41499.3,65.3879,-2776.64,0,0
41759.6,64.9336,-2759.19,0,0
42020,64.7643,-2741.44,0,0
42280.275,64.7292,-2724.24,0,0
42540.6,64.3038,-2707.48,0,0
42800.925,64.0479,-2690.87,0,0
43061.25,63.4612,-2674.16,0,0
43321.575,63.1934,-2657.7,0,0
43581.9,62.8757,-2641.37,0,0
43842.225,62.7906,-2625.41,0,0
44102.55,62.3351,-2609.34,0,0
44362.875,62.5463,-2593.69,0,0
44623.2,62.2009,-2578.13,0,0
44883.525,61.6595,-2562.86,0,0
45143.85,61.5491,-2547.24,0,0
45404.175,61.7186,-2532.26,0,0
45664.5,61.2995,-2517.67,0,0
45924.825,61.2983,-2502.69,0,0
46185.15,61.798,-2488.51,0,0
46445.475,61.219,-2474.65,0,0
46705.8,60.4252,-2460.1,0,0
46966.125,60.385,-2445.69,0,0
47226.45,60.4625,-2431.83,0,0
47486.775,60.8124,-2418.25,0,0
47747.1,60.133,-2404.94,0,0
48007.425,60.222,-2391,0,0
48267.75,60.4163,-2377.44,0,0
48528.075,61.7831,-2365.15,0,0
48788.4,60.9004,-2353.3,0,0
49048.725,60.0773,-2340.84,0,0
49309.05,59.4813,-2328.05,0,0
49569.375,58.886,-2315.56,0,0
49829.7,58.3609,-2303.17,0,0
50090.025,58.0036,-2290.52,0,0
50350.35,57.5775,-2278.39,0,0
50610.675,57.2889,-2265.81,0,0
50871.0,57.3534,-2253.73,0,0
51131.325,57.1216,-2242.23,0,0
51391.65,56.8619,-2230.47,0,0
51651.975,56.1407,-2218.88,0,0
51912.3,55.8403,-2207.12,0,0
52172.625,55.4214,-2195.65,0,0
52432.95,55.1055,-2183.96,0,0
52693.275,54.9567,-2172.59,0,0
52953.6,54.7633,-2161.34,0,0
53213.925,54.5041,-2150.02,0,0
53474.25,54.4324,-2139.08,0,0
53734.575,54.1987,-2128.2,0,0
53994.9,54.091,-2117.16,0,0
54255.225,53.9609,-2106.44,0,0
54515.55,53.8773,-2095.63,0,0
54775.875,53.9609,-2085.28,0,0
55036.2,53.7862,-2074.86,0,0
55296.525,53.6276,-2064.55,0,0
55556.85,53.5446,-2054.2,0,0
55817.175,53.5451,-2043.94,0,0
56077.5,53.5916,-2033.88,0,0
56337.825,53.4561,-2024.07,0,0
56598.15,53.3679,-2014.02,0,0
56858.475,53.4585,-2004.16,0,0
57118.8,53.5043,-1994.46,0,0
57379.125,53.4993,-1984.85,0,0
57639.45,53.6586,-1975.31,0,0
57899.775,53.7494,-1965.88,0,0
58160.1,53.7573,-1956.63,0,0
58420.4,53.554,-1947.33,0,0
58680.7,53.6141,-1938.01,0,0
58941.1,53.7256,-1928.61,0,0
59201.4,53.9508,-1919.54,0,0
59461.7,54.2543,-1910.41,0,0
59722,54.5603,-1901.43,0,0
59982.4,55.0317,-1892.43,0,0
60242.7,55.8719,-1884.01,0,0
60503,56.1383,-1876.3,0,0
60763.3,56.1441,-1867.7,0,0
61023.7,56.4538,-1859.51,0,0
61284,56.8187,-1851.08,0,0
61544.3,57.7845,-1843.1,0,0
61804.6,58.4752,-1835.78,0,0
62065,58.6483,-1829.28,0,0
62325.3,57.5972,-1822.09,0,0
62585.6,57.0257,-1814.11,0,0
62845.9,57.3644,-1806.89,0,0
63106.3,56.5277,-1800.13,0,0
63366.6,55.2992,-1792.34,0,0
63626.9,54.8924,-1784.65,0,0
63887.2,54.2287,-1777.11,0,0
64147.6,53.548,-1769.3,0,0
64407.9,53.2318,-1761.74,0,0
64668.2,52.3014,-1754.21,0,0
64928.5,51.8348,-1746.15,0,0
65188.9,51.2989,-1738.71,0,0
65449.2,50.5698,-1730.75,0,0
65709.5,50.2748,-1722.61,0,0
65969.8,50.486,-1714.78,0,0
66230.2,50.4183,-1707.24,0,0
66490.5,50.5993,-1699.65,0,0
66750.8,50.7358,-1692.36,0,0
67011.1,50.4992,-1684.8,0,0
67271.5,50.7811,-1677.24,0,0
67531.8,51.5464,-1669.78,0,0
67792.1,52.1753,-1662.76,0,0
68052.4,52.9112,-1656.04,0,0
68312.8,53.4721,-1649.8,0,0
68573.1,53.5518,-1643.21,0,0
68833.4,53.9507,-1636.65,0,0
69093.7,54.2549,-1630.3,0,0
69354.1,54.9284,-1624.27,0,0
69614.4,54.925,-1618.53,0,0
69874.7,55.3625,-1612.48,0,0
70135,55.5266,-1607.44,0,0
70395.4,54.8724,-1601.96,0,0
70655.7,54.1671,-1596.74,0,0
70916,52.9222,-1590.77,0,0
71176.3,52.1686,-1584.66,0,0
71436.7,51.3286,-1578.49,0,0
71697,50.873,-1572.27,0,0
71957.3,50.0243,-1566.67,0,0
72217.6,48.7812,-1560.64,0,0
72478,47.4957,-1554.05,0,0
72738.3,46.5362,-1547.1,0,0
72998.6,46.1853,-1540.28,0,0
73258.9,45.9679,-1533.89,0,0
73519.3,45.3188,-1527.48,0,0
73779.6,44.921,-1520.76,0,0
74039.9,44.5961,-1514.01,0,0
74300.225,44.6472,-1507.36,0,0
74560.55,44.8276,-1501.07,0,0
74820.875,44.7811,-1494.71,0,0
75081.2,44.9923,-1488.32,0,0
75341.525,45.1978,-1482.02,0,0
75601.85,45.4234,-1475.9,0,0
75862.175,45.7256,-1469.8,0,0
76122.5,46.2063,-1463.71,0,0
76382.825,46.6964,-1457.83,0,0
76643.15,47.0823,-1452.03,0,0
76903.475,47.5534,-1446.36,0,0
77163.8,48.0531,-1440.53,0,0
77424.125,48.7478,-1434.83,0,0
77684.45,49.5453,-1429.42,0,0
77944.775,50.2357,-1424.2,0,0
78205.1,51.0611,-1419.16,0,0
78465.425,51.8131,-1414.3,0,0
78725.75,52.3112,-1409.79,0,0
78986.075,52.627,-1405.24,0,0
79246.4,52.9562,-1400.72,0,0
79506.725,53.2041,-1396.5,0,0
79767.05,52.9423,-1392.48,0,0
80027.375,52.2576,-1388.14,0,0
80287.7,51.5647,-1383.56,0,0
80548.025,50.8922,-1378.73,0,0
80808.35,50.2132,-1373.78,0,0
81068.675,49.6343,-1368.72,0,0
81329.0,49.1631,-1363.49,0,0
81589.325,48.8306,-1358.41,0,0
81849.65,48.5377,-1353.29,0,0
82109.975,48.2101,-1348.24,0,0
82370.3,47.9756,-1343.03,0,0
82630.625,47.8,-1337.81,0,0
82890.95,47.6838,-1332.64,0,0
83151.275,47.791,-1327.46,0,0
83411.6,47.8921,-1322.45,0,0
83671.925,48.1021,-1317.45,0,0
83932.25,48.2587,-1312.63,0,0
84192.575,48.4523,-1307.88,0,0
84452.9,48.5992,-1303.09,0,0
84713.225,48.7187,-1298.43,0,0
84973.55,48.7855,-1293.77,0,0
85233.875,48.7912,-1289.06,0,0
85494.2,49.0096,-1284.24,0,0
85754.525,49.264,-1279.63,0,0
86014.85,49.5124,-1275.18,0,0
86275.175,49.7602,-1270.63,0,0
86535.5,50.0029,-1266.29,0,0
86795.825,50.1186,-1261.94,0,0
87056.15,50.2716,-1257.54,0,0
87316.475,50.4633,-1253.19,0,0
87576.8,50.5643,-1248.99,0,0
87837.125,50.5178,-1244.8,0,0
88097.45,50.6015,-1240.58,0,0
88357.775,50.526,-1236.26,0,0
88618.1,50.8206,-1231.77,0,0
88878.425,50.7556,-1227.85,0,0
89138.75,50.7603,-1223.43,0,0
89399.075,51.0549,-1219.18,0,0
89659.4,50.9841,-1215.08,0,0
89919.725,51.332,-1210.63,0,0
90180,51.5495,-1206.79,0,0
90440.4,51.371,-1203.09,0,0
90700.7,50.9199,-1198.79,0,0
90961,50.7769,-1194.05,0,0
91221.3,51.2042,-1189.44,0,0
91481.7,51.952,-1185.25,0,0
91742,52.3227,-1181.31,0,0
92002.3,52.6511,-1177.27,0,0
92262.6,53.1734,-1173.18,0,0
92523,53.7665,-1169.58,0,0
92783.3,54.1979,-1165.92,0,0
93043.6,54.4314,-1162.33,0,0
93303.9,54.7361,-1158.46,0,0
93564.3,55.3814,-1154.8,0,0
93824.6,56.0363,-1151.76,0,0
94084.9,55.9932,-1149,0,0
94345.2,55.5383,-1145.76,0,0
94605.6,54.8968,-1142.32,0,0
94865.9,54.553,-1138.35,0,0
95126.2,54.561,-1134.72,0,0
95386.5,54.0497,-1130.99,0,0
95646.9,53.7893,-1126.83,0,0
95907.2,54.0703,-1122.37,0,0
96167.5,54.6808,-1118.39,0,0
96427.8,55.4672,-1114.68,0,0
96688.2,56.1251,-1111.44,0,0
96948.5,56.6974,-1108.2,0,0
97208.8,57.2506,-1105.04,0,0
97469.1,57.9305,-1102.42,0,0
97729.5,57.8667,-1100.25,0,0
97989.8,57.1532,-1097.32,0,0
98250.1,56.9944,-1094,0,0
98510.4,56.934,-1091.27,0,0
98770.8,56.498,-1088.55,0,0
99031.1,55.8201,-1085.71,0,0
99291.4,55.0504,-1082.72,0,0
99551.7,54.0134,-1079.58,0,0
99812.1,53.038,-1075.98,0,0
100072,52.5051,-1072.13,0,0
100333,52.1858,-1068.71,0,0
100593,51.6347,-1065.42,0,0
100853,51.0079,-1062.07,0,0
101114,50.14,-1058.65,0,0
101374,49.3084,-1054.99,0,0
101634,48.3605,-1051.33,0,0
101895,47.4088,-1047.19,0,0
102155,46.8338,-1042.8,0,0
102415,46.657,-1038.61,0,0
102676,46.3296,-1034.7,0,0
102936,45.8154,-1030.52,0,0
103196,45.7035,-1026.11,0,0
103457,45.6406,-1021.78,0,0
103717,45.8181,-1017.45,0,0
103977,46.0907,-1013.11,0,0
104238,46.5677,-1008.79,0,0
104498,47.3885,-1004.63,0,0
104758,48.266,-1000.79,0,0
105019,49.2132,-997.137,0,0
105279,49.8937,-993.715,0,0
105539,50.4028,-990.011,0,0
105800,51.4565,-986.252,0,0
106060,52.6508,-982.957,0,0
106320.175,53.7127,-979.897,0,0
106580.5,54.8517,-976.95,0,0
106840.825,55.9323,-974.383,0,0
107101.15,56.7758,-972.038,0,0
107361.475,57.5452,-969.853,0,0
107621.8,57.8051,-967.948,0,0
107882.125,57.662,-965.772,0,0
108142.45,57.6788,-963.496,0,0
108402.775,57.2049,-961.335,0,0
108663.1,56.6548,-958.821,0,0
108923.425,56.0522,-956.168,0,0
109183.75,55.3641,-953.417,0,0
109444.075,54.6813,-950.409,0,0
109704.4,54.1299,-947.382,0,0
109964.725,53.4896,-944.322,0,0
110225.05,52.7131,-941.015,0,0
110485.375,52.0496,-937.519,0,0
110745.7,51.7458,-933.786,0,0
111006.025,51.4513,-930.213,0,0
111266.35,51.3508,-926.558,0,0
111526.675,51.3726,-923.007,0,0
111787.0,51.446,-919.563,0,0
112047.325,51.3961,-916.076,0,0
112307.65,51.488,-912.622,0,0
112567.975,51.5439,-909.082,0,0
112828.3,51.6966,-905.603,0,0
113088.625,51.876,-902.168,0,0
113348.95,52.0757,-898.562,0,0
113609.275,52.4721,-895.072,0,0
113869.6,52.8515,-891.782,0,0
114129.925,53.1247,-888.395,0,0
114390.25,53.5683,-884.915,0,0
114650.575,54.0245,-881.579,0,0
114910.9,54.5384,-878.272,0,0
115171.225,55.0748,-874.909,0,0
115431.55,55.7332,-871.655,0,0
115691.875,56.317,-868.542,0,0
115952.2,56.8677,-865.313,0,0
116212.525,57.526,-862.185,0,0
116472.85,58.2224,-859.036,0,0
116733.175,58.971,-855.981,0,0
116993.5,59.7493,-853.028,0,0
117253.825,60.4286,-850.103,0,0
117514.15,61.1346,-847.141,0,0
117774.475,61.9358,-844.132,0,0
118034.8,62.8772,-841.259,0,0
118295.125,63.8834,-838.587,0,0
118555.45,64.7636,-836.017,0,0
118815.775,65.6377,-833.483,0,0
119076.1,66.5744,-831.077,0,0
119336.425,67.3089,-828.794,0,0
119596.75,68.0258,-826.502,0,0
119857.075,68.7626,-824.333,0,0
120117.4,69.393,-822.234,0,0
120377.725,69.9182,-820.322,0,0
120638.05,70.2074,-818.393,0,0
120898.375,70.397,-816.407,0,0
121158.7,70.38,-814.433,0,0
121419.025,70.2971,-812.205,0,0
121679.35,70.2586,-809.99,0,0
121939.675,70.1393,-807.739,0,0
122200.0,69.922,-805.353,0,0
122460,69.7311,-802.865,0,0
122721,69.5929,-800.276,0,0
122981,69.5277,-797.665,0,0
123241,69.4235,-795.104,0,0
123502,69.3594,-792.426,0,0
123762,69.4056,-789.803,0,0
124022,69.3925,-787.226,0,0
124283,69.2994,-784.615,0,0
124543,69.2021,-781.994,0,0
124803,69.0333,-779.307,0,0
125064,68.8679,-776.549,0,0
125324,68.6996,-773.644,0,0
125584,68.611,-770.63,0,0
125845,68.6553,-767.626,0,0
126105,68.7104,-764.618,0,0
126365,68.8065,-761.565,0,0
126626,68.9677,-758.492,0,0
126886,69.2194,-755.343,0,0
127146,69.6215,-752.235,0,0
127406,70.1061,-749.223,0,0
127667,70.5731,-746.25,0,0
127927,71.1174,-743.309,0,0
128187,71.6588,-740.421,0,0
128448,72.1939,-737.555,0,0
128708,72.7681,-734.722,0,0
128968,73.3936,-731.87,0,0
129229,74.0695,-729.134,0,0
129489,74.7173,-726.511,0,0
129749,75.2868,-723.894,0,0
130010,75.8459,-721.215,0,0
130270,76.5461,-718.523,0,0
130530,77.293,-715.992,0,0
130791,78.0016,-713.582,0,0
131051,78.5996,-711.275,0,0
131311,79.0689,-708.986,0,0
131572,79.4463,-706.673,0,0
131832,79.745,-704.349,0,0
132092,79.9643,-701.93,0,0
132353,80.1451,-699.447,0,0
132613,80.3554,-696.806,0,0
132873,80.6768,-694.188,0,0
133134,80.9621,-691.632,0,0
133394,81.2268,-689.008,0,0
133654,81.5596,-686.374,0,0
133915,81.8552,-683.792,0,0
134175,82.0622,-681.249,0,0
134435,82.1639,-678.613,0,0
134696,82.2334,-675.81,0,0
134956,82.3625,-672.893,0,0
135216,82.6652,-669.916,0,0
135477,83.0107,-666.956,0,0
135737,83.3978,-664.02,0,0
135997,83.7798,-661.064,0,0
136258,84.1882,-658.051,0,0
136518,84.6906,-655.025,0,0
136778,85.2124,-652.044,0,0
137039,85.6988,-649.021,0,0
137299,86.3089,-645.984,0,0
137559,86.9896,-642.955,0,0
137819,87.693,-640.026,0,0
138080,88.3984,-637.174,0,0
138340.125,88.9482,-634.431,0,0
138600.45,89.3102,-631.512,0,0
138860.775,89.7412,-628.405,0,0
139121.1,90.3089,-625.261,0,0
139381.425,90.882,-622.143,0,0
139641.75,91.364,-619.067,0,0
139902.075,91.8018,-615.752,0,0
140162.4,92.206,-612.233,0,0
140422.725,92.8364,-608.477,0,0
140683.05,93.7705,-604.578,0,0
140943.375,95.0139,-600.83,0,0
141203.7,96.2493,-597.229,0,0
141464.025,97.545,-593.502,0,0
141724.35,99.0787,-589.748,0,0
141984.675,100.896,-586.113,0,0
142245.0,102.834,-582.735,0,0
142505.325,104.758,-579.557,0,0
142765.65,106.567,-576.506,0,0
143025.975,108.278,-573.494,0,0
143286.3,109.945,-570.38,0,0
143546.625,111.628,-567.163,0,0
143806.95,113.515,-563.898,0,0
144067.275,115.499,-560.778,0,0
144327.6,117.481,-557.763,0,0
144587.925,119.358,-554.73,0,0
144848.25,121.303,-551.553,0,0
145108.575,123.442,-548.341,0,0
145368.9,125.73,-545.299,0,0
145629.225,127.945,-542.358,0,0
145889.55,130.158,-539.348,0,0
146149.875,132.409,-536.319,0,0
146410.2,134.75,-533.239,0,0
146670.525,137.176,-530.141,0,0
146930.85,139.723,-527.018,0,0
147191.175,142.35,-523.949,0,0
147451.5,145.031,-520.785,0,0
147711.825,147.908,-517.567,0,0
147972.15,150.955,-514.325,0,0
148232.475,154.219,-511.012,0,0
148492.8,157.83,-507.686,0,0
148753.125,161.759,-504.48,0,0
149013.45,165.973,-501.33,0,0
149273.775,170.759,-498.269,0,0
149534.1,176.109,-495.802,0,0
149794.425,181.465,-493.972,0,0
150054.75,186.884,-492.399,0,0
150315.075,192.673,-491.159,0,0
150575.4,198.77,-490.766,0,0
150835.725,204.636,-491.213,0,0
151096.05,210.151,-492.289,0,0
151356.375,215.146,-493.847,0,0
151616.7,219.802,-495.573,0,0
151877.025,224.352,-497.663,0,0
152137.35,228.501,-500.487,0,0
152397.675,231.708,-503.677,0,0
152658.0,234.253,-506.738,0,0
152918.325,236.34,-509.773,0,0
153178.65,237.877,-512.673,0,0
153438.975,239.113,-515.393,0,0
153699.3,239.931,-518.087,0,0
153959.625,240.299,-520.537,0,0
154219.95,240.28,-522.714,0,0
154480,239.982,-524.376,0,0
154741,239.772,-525.588,0,0
155001,239.539,-526.65,0,0
155261,239.544,-527.651,0,0
155522,239.517,-528.398,0,0
155782,239.582,-529.365,0,0
156042,239.41,-530.683,0,0
156303,238.798,-531.968,0,0
156563,237.478,-532.677,0,0
156823,236.345,-532.736,0,0
157084,235.641,-532.73,0,0
157344,234.791,-532.681,0,0
157604,233.784,-532.3,0,0
157864,233.15,-531.6,0,0
158125,232.693,-531.125,0,0
158385,232.054,-530.791,0,0
158645,231.409,-530.225,0,0
158906,230.612,-529.616,0,0
159166,229.732,-528.548,0,0
159426,229.186,-527.109,0,0
159687,228.81,-525.69,0,0
159947,228.657,-524.146,0,0
160207,228.93,-522.742,0,0
160468,229.218,-521.597,0,0
160728,229.265,-520.335,0,0
160988,229.431,-518.845,0,0
161249,230.044,-516.831,0,0
161509,231.94,-514.877,0,0
161769,234.594,-514.382,0,0
162030,236.782,-515.202,0,0
162290,238.173,-516.768,0,0
162550,238.673,-518.897,0,0
162811,237.859,-520.768,0,0
163071,236.607,-522.09,0,0
163331,235.239,-523.143,0,0
163592,233.498,-524.074,0,0
163852,231.007,-524.771,0,0
164112,228.342,-524.86,0,0
164373,225.58,-524.519,0,0
164633,222.725,-523.736,0,0
164893,219.821,-522.576,0,0
165154,216.626,-521.125,0,0
165414,213.598,-518.804,0,0
165674,210.986,-516.169,0,0
165935,208.706,-513.223,0,0
166195,206.656,-510.226,0,0
166455,204.711,-507.342,0,0
166716,202.661,-504.169,0,0
166976,200.967,-500.516,0,0
167236,199.81,-496.941,0,0
167497,198.576,-493.981,0,0
167757,196.713,-490.557,0,0
168017,194.905,-486.473,0,0
168277,193.61,-481.93,0,0
168538,192.919,-477.218,0,0
168798,192.485,-472.699,0,0
169058,192.184,-468.226,0,0
169319,192.011,-463.838,0,0
169579,191.838,-459.172,0,0
169839,192.112,-454.279,0,0
170100,192.861,-449.477,0,0
170360.075,193.745,-445.143,0,0
170620.4,194.521,-440.963,0,0
170880.725,195.152,-436.656,0,0
171141.05,195.721,-432.104,0,0
171401.375,196.682,-427.266,0,0
171661.7,197.942,-422.534,0,0
171922.025,199.288,-417.844,0,0
172182.35,200.899,-413.128,0,0
172442.675,202.548,-408.586,0,0
172703.0,204.396,-403.829,0,0
172963.325,206.469,-399.217,0,0
173223.65,208.509,-394.851,0,0
173483.975,210.497,-390.318,0,0
173744.3,212.579,-385.537,0,0
174004.625,215.009,-380.419,0,0
174264.95,217.977,-375.437,0,0
174525.275,221.164,-370.661,0,0
174785.6,224.638,-365.931,0,0
175045.925,228.238,-361.497,0,0
175306.25,231.822,-357.138,0,0
175566.575,235.672,-352.54,0,0
175826.9,240.233,-348.084,0,0
176087.225,244.966,-344.214,0,0
176347.55,249.69,-340.546,0,0
176607.875,254.65,-337.034,0,0
176868.2,259.731,-333.843,0,0
177128.525,265.061,-330.852,0,0
177388.85,270.675,-328.354,0,0
177649.175,276.311,-326.486,0,0
177909.5,281.706,-325.147,0,0
178169.825,286.798,-324.192,0,0
178430.15,291.692,-323.281,0,0
178690.475,296.627,-322.851,0,0
178950.8,301.212,-323.035,0,0
179211.125,304.087,-322.231,0,0
179471.45,307.979,-322.552,0,0
179731.775,311.144,-323.367,0,0
179992.1,313.16,-324.145,0,0
180252.425,314.103,-324.279,0,0
180512.75,314.627,-323.385,0,0
180773.075,315.172,-321.651,0,0
181033.4,315.83,-319.176,0,0
181293.725,316.823,-315.918,0,0
181554.05,318.331,-312.213,0,0
181814.375,320.38,-308.229,0,0
182074.7,322.967,-304.118,0,0
182335.025,326.118,-300.114,0,0
182595.35,329.41,-296.634,0,0
182855.675,332.303,-293.146,0,0
183116.0,335.089,-288.891,0,0
183376.325,338.566,-284.033,0,0
183636.65,342.812,-279.119,0,0
183896.975,347.58,-274.482,0,0
184157.3,352.789,-269.951,0,0
184417.625,358.259,-265.582,0,0
184677.95,364.205,-261.457,0,0
184938.275,370.464,-257.812,0,0
185198.6,376.605,-254.553,0,0
185458.925,382.738,-251.208,0,0
185719.25,388.981,-247.908,0,0
185979.575,395.365,-244.709,0,0
186239.9,401.88,-241.295,0,0
186500,408.958,-237.845,0,0
186761,416.552,-234.914,0,0
187021,424.162,-232.241,0,0
187281,431.992,-229.63,0,0
187542,440.266,-227.531,0,0
187802,448.478,-225.789,0,0
188062,456.747,-224.359,0,0
188322,465.076,-223.227,0,0
188583,473.329,-222.567,0,0
188843,481.279,-222.291,0,0
189103,488.726,-221.943,0,0
189364,495.801,-221.052,0,0
189624,503.172,-219.737,0,0
189884,511.027,-218.141,0,0
190145,519.193,-216.434,0,0
190405,527.858,-214.499,0,0
190665,537.11,-212.658,0,0
190926,546.901,-210.994,0,0
191186,557.218,-209.238,0,0
191446,568.58,-207.864,0,0
191707,580.537,-207.316,0,0
191967,592.658,-207.289,0,0
192227,605.316,-207.65,0,0
192488,618.395,-208.776,0,0
192748,631.704,-210.344,0,0
193008,645.729,-212.335,0,0
193269,660.662,-215.519,0,0
193529,675.719,-220.279,0,0
193789,690.532,-226.411,0,0
194050,704.735,-233.693,0,0
194310,718.202,-241.791,0,0
194570,731.062,-250.248,0,0
194831,743.834,-259.027,0,0
195091,756.627,-268.719,0,0
195351,768.731,-279.633,0,0
195612,779.76,-291.093,0,0
195872,789.809,-302.445,0,0
196132,799.86,-313.677,0,0
196393,809.921,-325.439,0,0
196653,819.409,-338.023,0,0
196913,827.994,-350.729,0,0
197174,836.451,-363.195,0,0
197434,845.183,-375.996,0,0
197694,854.119,-389.731,0,0
197955,862.556,-404.796,0,0
198215,869.708,-421.083,0,0
198475,875.492,-437.327,0,0
198735,880.513,-453.634,0,0
198996,884.793,-470.218,0,0
199256,888.052,-486.92,0,0
199516,890.528,-503.249,0,0
199777,892.981,-519.373,0,0
200037,894.951,-536.178,0,0
200297,895.906,-553.373,0,0
200558,896.203,-570.542,0,0
200818,895.777,-587.957,0,0
201078,894.336,-605.838,0,0
201339,891.341,-624.017,0,0
201599,886.607,-641.635,0,0
201859,880.595,-658.022,0,0
202120,874.097,-673.174,0,0
202380.025,867.775,-687.349,0,0
202640.35,861.277,-701.218,0,0
202900.675,854.681,-715.062,0,0
203161.0,847.406,-728.868,0,0
203421.325,839.306,-742.153,0,0
203681.65,830.626,-754.72,0,0
203941.975,821.512,-766.53,0,0
204202.3,812.439,-777.486,0,0
204462.625,803.709,-788.123,0,0
204722.95,795.16,-798.822,0,0
204983.275,785.768,-810.393,0,0
205243.6,775.024,-821.662,0,0
205503.925,762.952,-832.012,0,0
205764.25,749.818,-841.038,0,0
206024.575,736.266,-847.992,0,0
206284.9,723.567,-852.933,0,0
206545.225,712.104,-857.549,0,0
206805.55,700.827,-862.206,0,0
207065.875,689.425,-866.381,0,0
207326.2,677.963,-869.716,0,0
207586.525,666.79,-871.882,0,0
207846.85,656.45,-873.06,0,0
208107.175,647.503,-873.64,0,0
208367.5,639.81,-874.82,0,0
208627.825,632.411,-876.54,0,0
208888.15,625.254,-878.399,0,0
209148.475,618.691,-880.814,0,0
209408.8,611.926,-884.063,0,0
209669.125,604.472,-887.949,0,0
209929.45,596.313,-891.683,0,0
210189.775,587.471,-895.038,0,0
210450.1,578.426,-897.679,0,0
210710.425,569.322,-900.173,0,0
210970.75,560.128,-902.516,0,0
211231.075,550.32,-904.692,0,0
211491.4,539.894,-906.111,0,0
211751.725,529.213,-906.419,0,0
212012.05,518.815,-905.613,0,0
212272.375,509.098,-903.804,0,0
212532.7,500.302,-901.725,0,0
212793.025,491.984,-899.618,0,0
213053.35,484.036,-897.342,0,0
213313.675,476.461,-894.923,0,0
213574.0,469.212,-892.373,0,0
213834.325,462.312,-889.728,0,0
214094.65,455.649,-887.086,0,0
214354.975,449.249,-884.354,0,0
214615.3,443.072,-881.525,0,0
214875.625,437.136,-878.642,0,0
215135.95,431.361,-875.746,0,0
215396.275,425.632,-872.753,0,0
215656.6,420.047,-869.563,0,0
215916.925,414.74,-866.077,0,0
216177.25,409.93,-862.345,0,0
216437.575,405.486,-858.752,0,0
216697.9,401.304,-855.226,0,0
216958.225,397.424,-851.721,0,0
217218.55,393.736,-848.121,0,0
217478.875,390.401,-844.619,0,0
217739.2,387.386,-841.32,0,0
217999.525,384.402,-838.225,0,0
218259.85,381.461,-835.157,0,0
218520,378.676,-832.053,0,0
218780,376.095,-828.93,0,0
219041,373.738,-825.83,0,0
219301,371.61,-822.918,0,0
219561,369.52,-820.064,0,0
219822,367.684,-817.297,0,0
220082,365.797,-814.601,0,0
220342,364.175,-812.056,0,0
220603,362.452,-809.427,0,0
220863,360.881,-806.751,0,0
221123,359.685,-804.016,0,0
221384,358.843,-801.476,0,0
221644,358.202,-799.374,0,0
221904,357.568,-797.453,0,0
222165,356.86,-795.757,0,0
222425,356.217,-794.237,0,0
222685,355.505,-792.77,0,0
222946,354.87,-791.475,0,0
223206,354.118,-790.372,0,0
223466,353.316,-789.211,0,0
223727,352.419,-788.04,0,0
223987,351.684,-786.772,0,0
224247,351.191,-785.569,0,0
224508,350.779,-784.697,0,0
224768,350.247,-784.072,0,0
225028,349.446,-783.346,0,0
225289,348.828,-782.621,0,0
225549,348.283,-781.835,0,0
225809,347.905,-781.196,0,0
226070,347.498,-780.59,0,0
226330,346.989,-780.116,0,0
226590,346.708,-779.685,0,0
226851,346.609,-779.342,0,0
227111,346.461,-779.204,0,0
227371,346.358,-779.236,0,0
227632,346.314,-779.43,0,0
227892,346.41,-779.85,0,0
228152,346.5,-780.531,0,0
228413,346.535,-781.693,0,0
228673,346.28,-783.122,0,0
228933,345.733,-784.76,0,0
229193,344.876,-786.54,0,0
229454,343.701,-788.422,0,0
229714,342.258,-790.234,0,0
229974,340.62,-792.092,0,0
230235,338.43,-793.84,0,0
230495,336.214,-795.357,0,0
230755,333.914,-796.606,0,0
231016,331.681,-797.879,0,0
231276,329.433,-799.092,0,0
231536,327.045,-800.408,0,0
231797,324.513,-801.726,0,0
232057,321.818,-802.986,0,0
232317,318.947,-804.208,0,0
232578,315.96,-805.333,0,0
232838,312.761,-806.289,0,0
233098,309.414,-807.074,0,0
233359,306.009,-807.687,0,0
233619,302.588,-808.051,0,0
233879,299.296,-808.38,0,0
234140,295.889,-808.601,0,0
234400,292.514,-808.824,0,0
234660.3,288.996,-808.8,0,0
234920.625,285.517,-808.544,0,0
235180.95,282.158,-808.236,0,0
235441.275,278.81,-807.875,0,0
235701.6,275.56,-807.487,0,0
235961.925,272.209,-807.078,0,0
236222.25,268.961,-806.53,0,0
236482.575,265.711,-806.02,0,0
236742.9,262.357,-805.48,0,0
237003.225,258.933,-804.839,0,0
237263.55,255.383,-803.996,0,0
237523.875,251.874,-802.963,0,0
237784.2,248.479,-801.724,0,0
238044.525,245.18,-800.355,0,0
238304.85,242.082,-798.917,0,0
238565.175,239.085,-797.461,0,0
238825.5,236.194,-796.027,0,0
239085.825,233.253,-794.63,0,0
239346.15,230.305,-793.284,0,0
239606.475,227.334,-791.834,0,0
239866.8,224.422,-790.249,0,0
240127.125,221.55,-788.516,0,0
240387.45,218.676,-786.657,0,0
240647.775,215.932,-784.754,0,0
240908.1,213.331,-782.858,0,0
241168.425,210.785,-780.848,0,0
241428.75,208.326,-778.862,0,0
241689.075,205.954,-776.75,0,0
241949.4,203.578,-774.688,0,0
242209.725,201.437,-772.421,0,0
242470.05,199.451,-770.15,0,0
242730.375,197.647,-767.946,0,0
242990.7,196.057,-765.865,0,0
243251.025,194.5,-763.922,0,0
243511.35,192.986,-762.023,0,0
243771.675,191.621,-760.23,0,0
244032.0,190.219,-758.528,0,0
244292.325,188.932,-756.933,0,0
244552.65,187.587,-755.587,0,0
244812.975,186.252,-754.34,0,0
245073.3,184.849,-753.181,0,0
245333.625,183.394,-752.179,0,0
245593.95,181.785,-751.424,0,0
245854.275,179.877,-750.634,0,0
246114.6,177.831,-749.9,0,0
246374.925,175.495,-749.106,0,0
246635.25,172.993,-748.215,0,0
246895.575,170.291,-747.111,0,0
247155.9,167.485,-745.799,0,0
247416.225,164.551,-744.36,0,0
247676.55,161.665,-742.553,0,0
247936.875,158.769,-740.584,0,0
248197.2,155.992,-738.409,0,0
248457.525,153.326,-736.139,0,0
248717.85,150.716,-733.841,0,0
248978.175,148.075,-731.335,0,0
249238.5,145.586,-728.816,0,0
249498.825,143.036,-726.124,0,0
249759.15,140.629,-723.259,0,0
250019.475,138.386,-720.382,0,0
250279.8,136.043,-717.239,0,0
250540,133.876,-714.002,0,0
250800,131.903,-710.648,0,0
251061,130.086,-707.189,0,0
251321,128.481,-703.617,0,0
251581,127.095,-700.07,0,0
251842,125.9,-696.48,0,0
252102,124.904,-692.931,0,0
252362,124.045,-689.435,0,0
252623,123.349,-686.053,0,0
252883,122.692,-682.699,0,0
253143,122.133,-679.469,0,0
253404,121.651,-676.275,0,0
253664,121.157,-673.079,0,0
253924,120.737,-669.915,0,0
254185,120.357,-666.716,0,0
254445,120.034,-663.58,0,0
254705,119.809,-660.379,0,0
254966,119.636,-657.102,0,0
255226,119.562,-653.935,0,0
255486,119.631,-650.643,0,0
255747,119.822,-647.404,0,0
256007,120.214,-644.172,0,0
256267,120.781,-641.036,0,0
256528,121.452,-638.011,0,0
256788,122.149,-635.127,0,0
257048,122.887,-632.333,0,0
257309,123.654,-629.605,0,0
257569,124.474,-626.885,0,0
257829,125.373,-624.187,0,0
258090,126.37,-621.575,0,0
258350,127.441,-619.028,0,0
258610,128.545,-616.544,0,0
258871,129.712,-614.136,0,0
259131,130.988,-611.799,0,0
259391,132.295,-609.517,0,0
259651,133.658,-607.315,0,0
259912,135.175,-605.244,0,0
260172,136.691,-603.168,0,0
260432,138.237,-601.309,0,0
260693,139.889,-599.538,0,0
260953,141.523,-597.867,0,0
261213,143.191,-596.319,0,0
261474,144.866,-594.903,0,0
261734,146.52,-593.56,0,0
261994,148.214,-592.376,0,0
262255,149.842,-591.275,0,0
262515,151.496,-590.277,0,0
262775,153.081,-589.359,0,0
263036,154.6,-588.547,0,0
263296,156.077,-587.797,0,0
263556,157.518,-587.072,0,0
263817,158.923,-586.403,0,0
264077,160.364,-585.717,0,0
264337,161.791,-585.146,0,0
264598,163.228,-584.62,0,0
264858,164.66,-584.232,0,0
265118,166.1,-583.932,0,0
265379,167.428,-583.705,0,0
265639,168.746,-583.645,0,0
265899,169.904,-583.569,0,0
266160,171.004,-583.523,0,0
266420,172.03,-583.534,0,0
266680.25,173.029,-583.549,0,0
266940.575,173.938,-583.576,0,0
267200.9,174.873,-583.658,0,0
267461.225,175.707,-583.742,0,0
267721.55,176.556,-583.878,0,0
267981.875,177.32,-584.064,0,0
268242.2,178.023,-584.327,0,0
268502.525,178.595,-584.62,0,0
268762.85,179.013,-584.962,0,0
269023.175,179.296,-585.198,0,0
269283.5,179.496,-585.393,0,0
269543.825,179.55,-585.475,0,0
269804.15,179.662,-585.49,0,0
270064.475,179.631,-585.291,0,0
270324.8,179.627,-585.028,0,0
270585.125,179.685,-584.533,0,0
270845.45,179.85,-583.99,0,0
271105.775,180.175,-583.357,0,0
271366.1,180.529,-582.795,0,0
271626.425,180.938,-582.169,0,0
271886.75,181.44,-581.462,0,0
272147.075,182.046,-580.696,0,0
272407.4,182.747,-579.886,0,0
272667.725,183.643,-579.053,0,0
272928.05,184.726,-578.234,0,0
273188.375,185.98,-577.471,0,0
273448.7,187.416,-576.775,0,0
273709.025,189.046,-576.135,0,0
273969.35,190.913,-575.647,0,0
274229.675,193.048,-575.324,0,0
274490.0,195.411,-575.315,0,0
274750.325,197.92,-575.64,0,0
275010.65,200.527,-576.398,0,0
275270.975,203.144,-577.596,0,0
275531.3,205.662,-579.235,0,0
275791.625,208.005,-581.305,0,0
276051.95,210.133,-583.826,0,0
276312.275,211.885,-586.701,0,0
276572.6,213.171,-589.881,0,0
276832.925,213.973,-593.191,0,0
277093.25,214.296,-596.482,0,0
277353.575,214.287,-599.719,0,0
277613.9,213.962,-602.949,0,0
277874.225,213.29,-606.134,0,0
278134.55,212.257,-609.209,0,0
278394.875,210.916,-612.122,0,0
278655.2,209.276,-614.78,0,0
278915.525,207.544,-617.215,0,0
279175.85,205.667,-619.511,0,0
279436.175,203.654,-621.663,0,0
279696.5,201.487,-623.626,0,0
279956.825,199.167,-625.387,0,0
280217.15,196.788,-626.925,0,0
280477.475,194.368,-628.202,0,0
280737.8,192.014,-629.327,0,0
280998.125,189.663,-630.353,0,0
281258.45,187.399,-631.291,0,0
281518.775,185.117,-632.288,0,0
281779.1,182.759,-633.258,0,0
282039.425,180.22,-634.237,0,0
282299.75,177.487,-635.138,0,0
282560,174.505,-635.862,0,0
282820,171.33,-636.317,0,0
283081,168.047,-636.4,0,0
283341,164.773,-636.057,0,0
283601,161.676,-635.331,0,0
283862,158.922,-634.337,0,0
284122,156.51,-633.286,0,0
284382,154.364,-632.432,0,0
284643,152.252,-631.761,0,0
284903,150.014,-631.138,0,0
285163,147.573,-630.557,0,0
285424,145.005,-629.914,0,0
285684,142.312,-629.011,0,0
285944,139.528,-627.974,0,0
286205,136.667,-626.706,0,0
286465,133.743,-625.15,0,0
286725,130.812,-623.291,0,0
286986,127.975,-621.085,0,0
287246,125.298,-618.569,0,0
287506,122.786,-615.741,0,0
287767,120.495,-612.605,0,0
288027,118.521,-609.205,0,0
288287,116.851,-605.544,0,0
288548,115.613,-601.658,0,0
288808,114.838,-597.641,0,0
289068,114.573,-593.578,0,0
289329,114.819,-589.58,0,0
289589,115.514,-585.705,0,0
289849,116.685,-582.054,0,0
290109,118.211,-578.643,0,0
290370,120.077,-575.569,0,0
290630,122.216,-572.776,0,0
290890,124.619,-570.331,0,0
291151,127.252,-568.25,0,0
291411,130.094,-566.53,0,0
291671,133.155,-565.309,0,0
291932,136.335,-564.655,0,0
292192,139.452,-564.578,0,0
292452,142.483,-565.135,0,0
292713,145.175,-566.29,0,0
292973,147.359,-567.92,0,0
293233,148.944,-569.834,0,0
293494,149.909,-571.865,0,0
293754,150.286,-573.826,0,0
294014,150.159,-575.553,0,0
294275,149.678,-576.909,0,0
294535,149.012,-577.845,0,0
294795,148.282,-578.448,0,0
295056,147.624,-578.693,0,0
295316,147.124,-578.582,0,0
295576,146.94,-578.16,0,0
295837,147.299,-577.615,0,0
296097,148.206,-577.285,0,0
296357,149.605,-577.446,0,0
296618,151.171,-578.298,0,0
296878,152.605,-579.913,0,0
297138,153.553,-582.16,0,0
297399,153.834,-584.78,0,0
297659,153.379,-587.49,0,0
297919,152.304,-590.03,0,0
298180,150.741,-592.268,0,0
298440,148.842,-594.125,0,0
298700.2,146.767,-595.586,0,0
298960.525,144.628,-596.742,0,0
299220.85,142.436,-597.645,0,0
299481.175,140.204,-598.301,0,0
299741.5,137.943,-598.7,0,0
300001.825,135.707,-598.855,0,0
300262.15,133.537,-598.728,0,0
300522.475,131.502,-598.41,0,0
300782.8,129.638,-597.938,0,0
301043.125,127.915,-597.35,0,0
301303.45,126.379,-596.702,0,0
301563.775,125.024,-596.049,0,0
301824.1,123.755,-595.396,0,0
302084.425,122.652,-594.78,0,0
302344.75,121.652,-594.202,0,0
302605.075,120.735,-593.699,0,0
302865.4,119.891,-593.345,0,0
303125.725,119.037,-593.089,0,0
303386.05,118.174,-592.947,0,0
303646.375,117.212,-592.896,0,0
303906.7,116.188,-592.909,0,0
304167.025,115.055,-592.939,0,0
304427.35,113.835,-592.969,0,0
304687.675,112.516,-593.021,0,0
304948.0,111.111,-593.03,0,0
305208.325,109.553,-593.007,0,0
305468.65,107.915,-592.891,0,0
305728.975,106.156,-592.644,0,0
305989.3,104.423,-592.29,0,0
306249.625,102.662,-591.759,0,0
306509.95,100.934,-591.15,0,0
306770.275,99.2408,-590.447,0,0
307030.6,97.5674,-589.665,0,0
307290.925,95.9698,-588.798,0,0
307551.25,94.415,-587.893,0,0
307811.575,92.8868,-586.925,0,0
308071.9,91.4159,-585.938,0,0
308332.225,89.9689,-584.906,0,0
308592.55,88.5674,-583.844,0,0
308852.875,87.1884,-582.726,0,0
309113.2,85.855,-581.571,0,0
309373.525,84.5943,-580.393,0,0
309633.85,83.3682,-579.208,0,0
309894.175,82.1674,-578.003,0,0
310154.5,81.0041,-576.779,0,0
310414.825,79.8724,-575.541,0,0
310675.15,78.7731,-574.286,0,0
310935.475,77.7191,-572.995,0,0
311195.8,76.7025,-571.708,0,0
311456.125,75.7157,-570.419,0,0
311716.45,74.7793,-569.102,0,0
311976.775,73.8572,-567.797,0,0
312237.1,72.9678,-566.468,0,0
312497.425,72.1201,-565.138,0,0
312757.75,71.3102,-563.785,0,0
313018.075,70.5429,-562.46,0,0
313278.4,69.8086,-561.124,0,0
313538.725,69.0897,-559.785,0,0
313799.05,68.3961,-558.476,0,0
314059.375,67.7219,-557.149,0,0
314319.7,67.0865,-555.832,0,0
314580,66.5604,-554.491,0,0
314840,65.9325,-553.19,0,0
315101,65.3443,-551.932,0,0
315361,64.827,-550.634,0,0
315621,64.2704,-549.364,0,0
315882,63.7651,-548.057,0,0
316142,63.1756,-546.819,0,0
316402,62.6736,-545.532,0,0
316663,62.2766,-544.168,0,0
316923,61.8248,-542.882,0,0
317183,61.3968,-541.531,0,0
317444,61.0493,-540.251,0,0
317704,60.6156,-538.934,0,0
317964,60.265,-537.672,0,0
318225,59.9648,-536.367,0,0
318485,59.7649,-535.183,0,0
318745,59.5268,-533.903,0,0
319006,59.2791,-532.66,0,0
319266,58.9103,-531.509,0,0
319526,58.7477,-530.358,0,0
319787,58.4951,-529.16,0,0
320047,58.2473,-528.044,0,0
320307,57.9353,-526.934,0,0
320567,57.6607,-525.749,0,0
320828,57.48,-524.574,0,0
321088,57.1815,-523.327,0,0
321348,57.0084,-522.179,0,0
321609,56.7687,-521.014,0,0
321869,56.6015,-519.824,0,0
322129,56.3426,-518.585,0,0
322390,56.21,-517.303,0,0
322650,56.0539,-516.143,0,0
322910,55.9321,-514.914,0,0
323171,55.8053,-513.706,0,0
323431,55.6946,-512.45,0,0
323691,55.5685,-511.205,0,0
323952,55.4501,-509.895,0,0
324212,55.4585,-508.567,0,0
324472,55.4124,-507.175,0,0
324733,55.4406,-505.785,0,0
324993,55.6298,-504.464,0,0
325253,55.8346,-503.093,0,0
325514,56.1453,-501.657,0,0
325774,56.5396,-500.29,0,0
326034,57.0877,-498.98,0,0
326295,57.6933,-497.792,0,0
326555,58.3358,-496.695,0,0
326815,59.1061,-495.76,0,0
327076,59.7844,-494.825,0,0
327336,60.5269,-494.157,0,0
327596,61.1764,-493.513,0,0
327857,61.7615,-493.015,0,0
328117,62.2189,-492.497,0,0
328377,62.6867,-491.98,0,0
328638,63.0334,-491.44,0,0
328898,63.436,-490.962,0,0
329158,63.9122,-490.436,0,0
329419,64.3111,-489.956,0,0
329679,64.763,-489.558,0,0
329939,65.152,-489.254,0,0
330200,65.5923,-488.913,0,0
330460,65.9365,-488.642,0,0
330720.15,66.2527,-488.534,0,0
330980.475,66.5417,-488.335,0,0
331240.8,66.7746,-488.224,0,0
331501.125,66.938,-488.264,0,0
331761.45,67.1226,-488.193,0,0
332021.775,67.1104,-488.19,0,0
332282.1,67.0935,-488.239,0,0
332542.425,66.913,-488.278,0,0
332802.75,66.726,-488.355,0,0
333063.075,66.3873,-488.336,0,0
333323.4,65.944,-488.213,0,0
333583.725,65.4969,-488.09,0,0
333844.05,64.9205,-487.822,0,0
334104.375,64.4444,-487.54,0,0
334364.7,63.9057,-487.113,0,0
334625.025,63.3917,-486.675,0,0
334885.35,62.8946,-486.203,0,0
335145.675,62.4437,-485.686,0,0
335406.0,61.9278,-485.153,0,0
335666.325,61.5269,-484.574,0,0
335926.65,61.0696,-484.005,0,0
336186.975,60.6549,-483.426,0,0
336447.3,60.1871,-482.757,0,0
336707.625,59.8137,-482.063,0,0
336967.95,59.4009,-481.361,0,0
337228.275,59.0402,-480.71,0,0
337488.6,58.6641,-480.019,0,0
337748.925,58.2813,-479.293,0,0
338009.25,57.977,-478.546,0,0
338269.575,57.5887,-477.876,0,0
338529.9,57.2915,-477.093,0,0
338790.225,56.9127,-476.342,0,0
339050.55,56.6278,-475.517,0,0
339310.875,56.2875,-474.751,0,0
339571.2,55.9973,-473.934,0,0
339831.525,55.7742,-473.102,0,0
340091.85,55.5001,-472.23,0,0
340352.175,55.2438,-471.457,0,0
340612.5,54.9868,-470.591,0,0
340872.825,54.7788,-469.706,0,0
341133.15,54.574,-468.828,0,0
341393.475,54.4017,-467.977,0,0
341653.8,54.2661,-467.098,0,0
341914.125,54.0607,-466.237,0,0
342174.45,53.9551,-465.353,0,0
342434.775,53.8416,-464.469,0,0
342695.1,53.6909,-463.519,0,0
342955.425,53.5962,-462.622,0,0
343215.75,53.5665,-461.729,0,0
343476.075,53.4946,-460.813,0,0
343736.4,53.4461,-459.866,0,0
343996.725,53.4712,-458.946,0,0
344257.05,53.4586,-458.002,0,0
344517.375,53.4794,-457.048,0,0
344777.7,53.5773,-456.144,0,0
345038.025,53.6826,-455.24,0,0
345298.35,53.8511,-454.372,0,0
345558.675,53.9421,-453.494,0,0
345819.0,54.0673,-452.592,0,0
346079.325,54.2298,-451.772,0,0
346339.65,54.4454,-450.833,0,0
346599.975,54.6272,-450.02,0,0
346860,54.8412,-449.205,0,0
347121,55.0142,-448.378,0,0
347381,55.3,-447.595,0,0
347641,55.5381,-446.846,0,0
347902,55.8003,-446.034,0,0
348162,56.0716,-445.257,0,0
348422,56.3903,-444.512,0,0
348683,56.7135,-443.723,0,0
348943,57.0031,-443.071,0,0
349203,57.3972,-442.293,0,0
349464,57.7403,-441.631,0,0
349724,58.1288,-441.016,0,0
349984,58.4867,-440.423,0,0
350245,58.8899,-439.79,0,0
350505,59.305,-439.215,0,0
350765,59.6793,-438.701,0,0
351025,60.079,-438.212,0,0
351286,60.4778,-437.691,0,0
351546,60.83,-437.331,0,0
351806,61.1211,-436.907,0,0
352067,61.4498,-436.539,0,0
352327,61.7262,-436.154,0,0
352587,61.962,-435.789,0,0
352848,62.1404,-435.364,0,0
353108,62.3524,-434.896,0,0
353368,62.5413,-434.501,0,0
353629,62.7297,-434.009,0,0
353889,63.0068,-433.554,0,0
354149,63.204,-433.115,0,0
354410,63.4633,-432.646,0,0
354670,63.7135,-432.223,0,0
354930,63.9808,-431.803,0,0
355191,64.2252,-431.354,0,0
355451,64.5115,-430.885,0,0
355711,64.7618,-430.479,0,0
355972,65.0234,-430.026,0,0
356232,65.3114,-429.567,0,0
356492,65.6331,-429.199,0,0
356753,65.9609,-428.742,0,0
357013,66.376,-428.349,0,0
357273,66.7379,-428,0,0
357534,67.1141,-427.652,0,0
357794,67.5328,-427.36,0,0
358054,67.9546,-427.073,0,0
358315,68.3224,-426.896,0,0
358575,68.7142,-426.678,0,0
358835,69.0809,-426.488,0,0
359096,69.4424,-426.37,0,0
359356,69.8415,-426.297,0,0
359616,70.1678,-426.233,0,0
359877,70.4355,-426.173,0,0
360137,70.6997,-426.211,0,0
360397,70.9596,-426.179,0,0
360658,71.139,-426.196,0,0
360918,71.2979,-426.199,0,0
361178,71.4438,-426.212,0,0
361438,71.5641,-426.205,0,0
361699,71.6628,-426.298,0,0
361959,71.7239,-426.31,0,0
362219,71.7786,-426.309,0,0
362480,71.7427,-426.311,0,0
362740.1,71.7597,-426.332,0,0
363000.425,71.6765,-426.327,0,0
363260.75,71.6492,-426.345,0,0
363521.075,71.553,-426.273,0,0
363781.4,71.4823,-426.227,0,0
364041.725,71.3805,-426.237,0,0
364302.05,71.2274,-426.147,0,0
364562.375,71.059,-426.039,0,0
364822.7,70.9257,-425.95,0,0
365083.025,70.7422,-425.781,0,0
365343.35,70.581,-425.622,0,0
365603.675,70.4414,-425.455,0,0
365864.0,70.2742,-425.289,0,0
366124.325,70.1307,-425.069,0,0
366384.65,70.0165,-424.867,0,0
366644.975,69.8297,-424.6,0,0
366905.3,69.7707,-424.35,0,0
367165.625,69.6803,-424.106,0,0
367425.95,69.5664,-423.803,0,0
367686.275,69.5443,-423.541,0,0
367946.6,69.5367,-423.268,0,0
368206.925,69.5123,-423.026,0,0
368467.25,69.5687,-422.825,0,0
368727.575,69.6492,-422.672,0,0
368987.9,69.6754,-422.565,0,0
369248.225,69.7236,-422.457,0,0
369508.55,69.7363,-422.412,0,0
369768.875,69.7024,-422.438,0,0
370029.2,69.5669,-422.461,0,0
370289.525,69.4447,-422.468,0,0
370549.85,69.2184,-422.444,0,0
370810.175,68.9825,-422.455,0,0
371070.5,68.7167,-422.334,0,0
371330.825,68.4572,-422.231,0,0
371591.15,68.1807,-422.062,0,0
371851.475,67.9577,-421.84,0,0
372111.8,67.7587,-421.659,0,0
372372.125,67.5571,-421.509,0,0
372632.45,67.4294,-421.298,0,0
372892.775,67.2237,-421.214,0,0
373153.1,67.0795,-421.038,0,0
373413.425,66.849,-420.923,0,0
373673.75,66.6077,-420.838,0,0
373934.075,66.3679,-420.697,0,0
374194.4,66.0963,-420.607,0,0
374454.725,65.823,-420.496,0,0
374715.05,65.5419,-420.391,0,0
374975.375,65.2208,-420.233,0,0
375235.7,64.8477,-420.1,0,0
375496.025,64.5327,-419.907,0,0
375756.35,64.1701,-419.726,0,0
376016.675,63.8244,-419.473,0,0
376277.0,63.5123,-419.262,0,0
376537.325,63.1509,-418.998,0,0
376797.65,62.8778,-418.737,0,0
377057.975,62.5477,-418.497,0,0
377318.3,62.2803,-418.262,0,0
377578.625,61.9837,-418.045,0,0
377838.95,61.7317,-417.891,0,0
378099.275,61.3625,-417.776,0,0
378359.6,60.9868,-417.674,0,0
378619.925,60.5103,-417.563,0,0
378880,59.9971,-417.401,0,0
379141,59.3941,-417.231,0,0
379401,58.7216,-416.943,0,0
379661,58.0467,-416.595,0,0
379922,57.28,-416.08,0,0
380182,56.6709,-415.465,0,0
380442,56.0409,-414.708,0,0
380703,55.6104,-413.914,0,0
380963,55.343,-413.05,0,0
381223,55.2461,-412.294,0,0
381483,55.2237,-411.607,0,0
381744,55.2933,-411.041,0,0
382004,55.2943,-410.646,0,0
382264,55.3012,-410.333,0,0
382525,55.2195,-410.087,0,0
382785,55.0489,-409.894,0,0
383045,54.8387,-409.678,0,0
383306,54.5064,-409.468,0,0
383566,54.1468,-409.256,0,0
383826,53.7585,-408.957,0,0
384087,53.2702,-408.649,0,0
384347,52.892,-408.299,0,0
384607,52.37,-407.928,0,0
384868,51.9019,-407.489,0,0
385128,51.4536,-407.015,0,0
385388,50.9884,-406.496,0,0
385649,50.5436,-405.993,0,0
385909,50.1257,-405.34,0,0
386169,49.6977,-404.769,0,0
386430,49.3229,-404.165,0,0
386690,48.9612,-403.598,0,0
386950,48.5966,-402.932,0,0
387211,48.2199,-402.25,0,0
387471,47.9338,-401.62,0,0
387731,47.6086,-400.996,0,0
387992,47.3175,-400.263,0,0
388252,47.0185,-399.542,0,0
388512,46.7532,-398.829,0,0
388773,46.5142,-398.069,0,0
389033,46.3329,-397.355,0,0
389293,46.1947,-396.561,0,0
389554,46.1095,-395.825,0,0
389814,46.0701,-395.092,0,0
390074,46.0456,-394.349,0,0
390335,46.0759,-393.73,0,0
390595,46.1348,-393.11,0,0
390855,46.2387,-392.552,0,0
391116,46.2735,-392.115,0,0
391376,46.2935,-391.667,0,0
391636,46.3389,-391.28,0,0
391896,46.2345,-390.942,0,0
392157,46.1177,-390.624,0,0
392417,45.9278,-390.293,0,0
392677,45.6881,-389.94,0,0
392938,45.3915,-389.558,0,0
393198,45.0509,-389.153,0,0
393458,44.7207,-388.699,0,0
393719,44.3532,-388.223,0,0
393979,43.9637,-387.649,0,0
394239,43.579,-387.047,0,0
394500,43.1299,-386.385,0,0
394760.05,42.8072,-385.685,0,0
395020.375,42.4488,-384.917,0,0
395280.7,42.1519,-384.147,0,0
395541.025,41.8667,-383.31,0,0
395801.35,41.6401,-382.466,0,0
396061.675,41.4432,-381.618,0,0
396322.0,41.2732,-380.763,0,0
396582.325,41.168,-379.926,0,0
396842.65,41.0702,-379.02,0,0
397102.975,41.0526,-378.178,0,0
397363.3,41.0125,-377.328,0,0
397623.625,41.0715,-376.484,0,0
397883.95,41.0722,-375.645,0,0
398144.275,41.1292,-374.809,0,0
398404.6,41.2384,-374.029,0,0
398664.925,41.341,-373.251,0,0
398925.25,41.4977,-372.458,0,0
399185.575,41.6367,-371.717,0,0
399445.9,41.7527,-371.024,0,0
399706.225,41.9383,-370.301,0,0
399966.55,42.1357,-369.635,0,0
400006.6,42.1172,-369.522,0,0