File: Accelerated corrosion test data/2025-10-21_18-00-04/sample_3.csv
Frequency (Hz),Impedance (ohms),Phase (Radians),Temperature (C),Humidity (%)
10000.0,252.172,-11905.4,0,0
10260.325,245.808,-11605.4,0,0
10520.65,240.326,-11319.7,0,0
10780.975,236.511,-11047.1,0,0
11041.3,229.921,-10793,0,0
11301.625,224.616,-10545.2,0,0
11561.95,219.954,-10309.3,0,0
11822.275,215.21,-10083.1,0,0
12082.6,212.627,-9868.1,0,0
12342.925,211.775,-9660.38,0,0
12603.25,203.438,-9463.59,0,0
12863.575,200.217,-9272.18,0,0
13123.9,200.781,-9087.18,0,0
13384.225,193.307,-8917.78,0,0
13644.55,190.414,-8747.03,0,0
13904.875,186.464,-8582.36,0,0
14165.2,185.92,-8425.58,0,0
14425.525,182.352,-8273.87,0,0
14685.8,179.992,-8125.68,0,0
14946.175,176.751,-7986.16,0,0
15206.5,175.223,-7843.69,0,0
15466.825,185.695,-7704.64,0,0
15727.15,193.134,-7603.83,0,0
15987.5,171.704,-7488.51,0,0
16247.8,168.448,-7358.96,0,0
16508.125,162.069,-7244.44,0,0
16768.45,170.364,-7123.69,0,0
17028.775,158.062,-7023.67,0,0
17289.1,164.358,-6910.09,0,0
17549.425,156.288,-6816.47,0,0
17809.75,157.187,-6711.85,0,0
18070.075,162.707,-6625.43,0,0
18330.4,152.565,-6527.89,0,0
18590.725,148.967,-6437.17,0,0
18851.05,146.329,-6345.19,0,0
19111.375,146.082,-6256.67,0,0
19371.7,145.766,-6170.27,0,0
19632.025,148.009,-6085.31,0,0
19892.35,148.194,-6010.45,0,0
20152.675,149.09,-5925.95,0,0
20413.0,166.507,-5853.24,0,0
20673.3,162.617,-5785.98,0,0
20933.65,164.066,-5729.62,0,0
21193.975,162.319,-5665.27,0,0
21454.3,145.625,-5603.34,0,0
21714.625,139.776,-5526.97,0,0
21974.9,145.266,-5461.64,0,0
22235.275,138.665,-5401.54,0,0
22495.6,137.119,-5339.54,0,0
22755.925,129.348,-5278.7,0,0
23016.25,128.494,-5218.27,0,0
23276.6,128.882,-5155.92,0,0
23536.9,129.606,-5110.05,0,0
23797.225,121.708,-5050.56,0,0
24057.55,119.762,-4992.4,0,0
24317.875,120.47,-4936.85,0,0
24578.2,117.311,-4886.63,0,0
24838.525,118.749,-4833.29,0,0
25098.85,116.039,-4784.8,0,0
25359.175,113.832,-4734.47,0,0
25619.5,114.588,-4686.21,0,0
25879.8,111.276,-4639.27,0,0
26140.1,108.986,-4592.2,0,0
26400.5,107.867,-4544.45,0,0
26660.8,108.152,-4498.34,0,0
26921.1,109.202,-4453.65,0,0
27181.4,109.589,-4413.35,0,0
27441.8,107.772,-4369.63,0,0
27702.1,108.545,-4329.85,0,0
27962.4,106.182,-4288.14,0,0
28222.7,104.482,-4244.9,0,0
28483.1,111.795,-4202.26,0,0
28743.4,115.583,-4167.78,0,0
29003.7,116.793,-4139.84,0,0
29264,108.582,-4104.52,0,0
29524.4,109.581,-4066.58,0,0
29784.7,104.852,-4031.33,0,0
30045,102.899,-3997.27,0,0
30305.3,101.761,-3959.29,0,0
30565.7,102.573,-3925.65,0,0
30826,101.969,-3893.17,0,0
31086.3,103.072,-3859.87,0,0
31346.6,99.6077,-3829.04,0,0
31607,98.3031,-3795.07,0,0
31867.3,98.7258,-3760.47,0,0
32127.6,102.535,-3726.38,0,0
32387.9,111.938,-3698.59,0,0
32648.3,114.607,-3682.07,0,0
32908.6,104.069,-3657.38,0,0
33168.9,101.419,-3629.46,0,0
33429.2,99.4154,-3602.33,0,0
33689.6,93.3928,-3573.89,0,0
33949.9,91.2068,-3543.18,0,0
34210.2,91.2664,-3515.16,0,0
34470.5,90.2845,-3489.06,0,0
34730.9,87.9929,-3462.21,0,0
34991.2,86.5094,-3435.45,0,0
35251.5,85.9484,-3409.01,0,0
35511.8,85.2491,-3383.9,0,0
35772.2,84.274,-3358.23,0,0
36032.5,83.6945,-3333.4,0,0
36292.8,82.9833,-3308.68,0,0
36553.1,82.4324,-3284.44,0,0
36813.5,81.4774,-3261.01,0,0
37073.8,81.0639,-3237.61,0,0
37334.1,80.4544,-3214.25,0,0
37594.4,80.0028,-3191.31,0,0
37854.8,79.5693,-3169.1,0,0
38115.1,79.1455,-3146.79,0,0
38375.4,78.5595,-3124.66,0,0
38635.7,78.1236,-3103.15,0,0
38896.1,77.6571,-3081.92,0,0
39156.4,77.5901,-3060.75,0,0
39416.7,77.1006,-3040.29,0,0
39677,76.5252,-3020.04,0,0
39937.4,75.8953,-2999.66,0,0
40197.7,75.6914,-2979.67,0,0
40458,74.9987,-2959.94,0,0
40718.3,74.7489,-2940.18,0,0
40978.7,74.6772,-2920.72,0,0
41239,74.5618,-2901.63,0,0
41499.3,74.4976,-2883.19,0,0
41759.6,74.8331,-2864.77,0,0
42020,74.2441,-2847.04,0,0
42280.275,73.8469,-2828.78,0,0
42540.6,73.4225,-2811.1,0,0
42800.925,73.4646,-2793.37,0,0
43061.25,72.6972,-2776.71,0,0
43321.575,72.269,-2759.21,0,0
43581.9,71.9605,-2742.08,0,0
43842.225,72.0397,-2724.77,0,0
44102.55,72.1828,-2708.15,0,0
44362.875,72.0661,-2692.53,0,0
44623.2,71.5972,-2676.37,0,0
44883.525,71.1898,-2660.21,0,0
45143.85,71.0721,-2644.43,0,0
45404.175,70.6821,-2628.89,0,0
45664.5,70.5179,-2613.08,0,0
45924.825,71.1421,-2597.74,0,0
46185.15,70.3198,-2583.47,0,0
46445.475,69.9397,-2568.02,0,0
46705.8,69.7872,-2552.61,0,0
46966.125,70.3234,-2538.16,0,0
47226.45,69.8286,-2523.96,0,0
47486.775,69.8632,-2509.15,0,0
47747.1,70.1741,-2494.93,0,0
48007.425,70.5585,-2481.78,0,0
48267.75,70.5223,-2468.33,0,0
48528.075,69.9473,-2455.27,0,0
48788.4,69.2999,-2442.01,0,0
49048.725,68.6044,-2428.71,0,0
49309.05,68.0905,-2415.06,0,0
49569.375,68.0807,-2401.58,0,0
49829.7,67.742,-2388.9,0,0
50090.025,67.0737,-2376.18,0,0
50350.35,66.5975,-2363.07,0,0
50610.675,66.4022,-2349.83,0,0
50871.0,66.2834,-2337.17,0,0
51131.325,66.2576,-2324.48,0,0
51391.65,66.1009,-2311.96,0,0
51651.975,66.179,-2299.55,0,0
51912.3,66.1494,-2287.63,0,0
52172.625,65.9165,-2275.52,0,0
52432.95,65.9691,-2263.15,0,0
52693.275,66.1163,-2251.26,0,0
52953.6,66.3359,-2239.3,0,0
53213.925,66.779,-2227.53,0,0
53474.25,67.7218,-2216.51,0,0
53734.575,67.8474,-2205.63,0,0
53994.9,68.1001,-2194.56,0,0
54255.225,69.0637,-2183.65,0,0
54515.55,69.9861,-2174.4,0,0
54775.875,69.2522,-2165.12,0,0
55036.2,68.6584,-2154.73,0,0
55296.525,68.1206,-2145.5,0,0
55556.85,66.7584,-2135.48,0,0
55817.175,65.2044,-2125.18,0,0
56077.5,64.1402,-2114.36,0,0
56337.825,63.3899,-2103.81,0,0
56598.15,62.4839,-2093.19,0,0
56858.475,61.8511,-2082.55,0,0
57118.8,61.2461,-2071.58,0,0
57379.125,61.1524,-2060.94,0,0
57639.45,61.0043,-2050.3,0,0
57899.775,61.1741,-2040.02,0,0
58160.1,61.1607,-2030.1,0,0
58420.4,60.9951,-2020.02,0,0
58680.7,60.9754,-2009.95,0,0
58941.1,61.0961,-1999.8,0,0
59201.4,61.3485,-1989.99,0,0
59461.7,61.5347,-1980.28,0,0
59722,61.7499,-1970.63,0,0
59982.4,62.1741,-1961.24,0,0
60242.7,62.4155,-1951.9,0,0
60503,62.5952,-1942.51,0,0
60763.3,62.9323,-1933.22,0,0
61023.7,63.2426,-1924.13,0,0
61284,63.5365,-1914.96,0,0
61544.3,64.0987,-1905.62,0,0
61804.6,64.5795,-1897.02,0,0
62065,64.8302,-1887.95,0,0
62325.3,65.4415,-1878.92,0,0
62585.6,66.0651,-1870.29,0,0
62845.9,66.4191,-1861.28,0,0
63106.3,67.3035,-1852.08,0,0
63366.6,68.7517,-1843.58,0,0
63626.9,69.6568,-1834.94,0,0
63887.2,70.8343,-1826.55,0,0
64147.6,72.1031,-1817.66,0,0
64407.9,74.8011,-1809.04,0,0
64668.2,77.4923,-1801.34,0,0
64928.5,80.2274,-1793.8,0,0
65188.9,84.3065,-1788.02,0,0
65449.2,86.9932,-1782.78,0,0
65709.5,89.0411,-1778.97,0,0
65969.8,91.6705,-1775.68,0,0
66230.2,91.8566,-1775.58,0,0
66490.5,85.5849,-1774.13,0,0
66750.8,80.6661,-1766.68,0,0
67011.1,77.9876,-1758.07,0,0
67271.5,75.6967,-1749.93,0,0
67531.8,74.7538,-1741.29,0,0
67792.1,74.6611,-1732.83,0,0
68052.4,74.9642,-1725.06,0,0
68312.8,76.0714,-1718,0,0
68573.1,76.1324,-1711.78,0,0
68833.4,76.2197,-1704.92,0,0
69093.7,76.9633,-1698.34,0,0
69354.1,77.5094,-1692.93,0,0
69614.4,77.4152,-1687.51,0,0
69874.7,76.7973,-1682.14,0,0
70135,75.9257,-1676.39,0,0
70395.4,75.1451,-1670.41,0,0
70655.7,74.0004,-1664.41,0,0
70916,72.7047,-1658.45,0,0
71176.3,71.5831,-1651.93,0,0
71436.7,70.7896,-1644.98,0,0
71697,70.1238,-1638.18,0,0
71957.3,70.0928,-1631.07,0,0
72217.6,70.4301,-1624.84,0,0
72478,70.5717,-1618.73,0,0
72738.3,70.7276,-1612.93,0,0
72998.6,70.4271,-1607.49,0,0
73258.9,69.9441,-1601.85,0,0
73519.3,69.5123,-1596.08,0,0
73779.6,69.1811,-1590.51,0,0
74039.9,68.63,-1585.14,0,0
74300.225,67.8625,-1579.56,0,0
74560.55,67.1134,-1573.92,0,0
74820.875,66.4425,-1568.21,0,0
75081.2,65.6045,-1562.54,0,0
75341.525,64.815,-1556.76,0,0
75601.85,63.9147,-1551.04,0,0
75862.175,63.1653,-1545.14,0,0
76122.5,62.4524,-1539.21,0,0
76382.825,61.6789,-1533.43,0,0
76643.15,61.0875,-1527.53,0,0
76903.475,60.5535,-1521.67,0,0
77163.8,60.0093,-1515.89,0,0
77424.125,59.4356,-1510.15,0,0
77684.45,58.899,-1504.37,0,0
77944.775,58.3833,-1498.58,0,0
78205.1,57.8039,-1492.87,0,0
78465.425,57.3,-1487.08,0,0
78725.75,56.7979,-1481.3,0,0
78986.075,56.39,-1475.62,0,0
79246.4,56.012,-1469.86,0,0
79506.725,55.5952,-1464.22,0,0
79767.05,55.2541,-1458.58,0,0
80027.375,54.9913,-1452.91,0,0
80287.7,54.7202,-1447.3,0,0
80548.025,54.4894,-1441.75,0,0
80808.35,54.2948,-1436.24,0,0
81068.675,53.9781,-1430.79,0,0
81329.0,53.7977,-1425.24,0,0
81589.325,53.616,-1419.79,0,0
81849.65,53.4198,-1414.41,0,0
82109.975,53.2587,-1409.06,0,0
82370.3,53.1905,-1403.75,0,0
82630.625,53.0552,-1398.41,0,0
82890.95,52.9459,-1393.15,0,0
83151.275,52.8655,-1387.89,0,0
83411.6,52.7575,-1382.68,0,0
83671.925,52.6979,-1377.5,0,0
83932.25,52.6456,-1372.31,0,0
84192.575,52.5793,-1367.3,0,0
84452.9,52.6068,-1362.17,0,0
84713.225,52.4472,-1357.05,0,0
84973.55,52.3975,-1352.04,0,0
85233.875,52.4774,-1347,0,0
85494.2,52.4489,-1342.06,0,0
85754.525,52.4096,-1337.06,0,0
86014.85,52.4519,-1332.19,0,0
86275.175,52.4754,-1327.29,0,0
86535.5,52.4308,-1322.42,0,0
86795.825,52.4873,-1317.51,0,0
87056.15,52.5389,-1312.65,0,0
87316.475,52.564,-1307.81,0,0
87576.8,52.6732,-1302.88,0,0
87837.125,52.8308,-1298.19,0,0
88097.45,52.9663,-1293.41,0,0
88357.775,53.0074,-1288.68,0,0
88618.1,53.1457,-1283.91,0,0
88878.425,53.3235,-1279.03,0,0
89138.75,53.7834,-1274.11,0,0
89399.075,54.243,-1269.52,0,0
89659.4,54.6088,-1264.96,0,0
89919.725,55.221,-1260.65,0,0
90180,55.4841,-1256.33,0,0
90440.4,55.8663,-1252.12,0,0
90700.7,56.1111,-1247.58,0,0
90961,56.5582,-1243.51,0,0
91221.3,56.9243,-1239.23,0,0
91481.7,57.2858,-1234.98,0,0
91742,57.8327,-1230.86,0,0
92002.3,58.0919,-1226.78,0,0
92262.6,58.525,-1222.68,0,0
92523,59.2054,-1218.68,0,0
92783.3,59.7669,-1215.04,0,0
93043.6,60.0872,-1211.22,0,0
93303.9,60.6423,-1207.33,0,0
93564.3,61.453,-1203.91,0,0
93824.6,62.0208,-1200.83,0,0
94084.9,62.4248,-1198.11,0,0
94345.2,61.9922,-1195.54,0,0
94605.6,61.3019,-1192.38,0,0
94865.9,60.8914,-1189.26,0,0
95126.2,59.8277,-1186.22,0,0
95386.5,58.5192,-1182.65,0,0
95646.9,57.3056,-1178.5,0,0
95907.2,56.4506,-1174.1,0,0
96167.5,55.817,-1169.69,0,0
96427.8,55.463,-1165.11,0,0
96688.2,55.3807,-1160.91,0,0
96948.5,55.3339,-1156.68,0,0
97208.8,55.3248,-1152.58,0,0
97469.1,55.2468,-1148.52,0,0
97729.5,55.1628,-1144.52,0,0
97989.8,55.0882,-1140.51,0,0
98250.1,55.0534,-1136.51,0,0
98510.4,55.0874,-1132.48,0,0
98770.8,55.1546,-1128.6,0,0
99031.1,55.1095,-1124.82,0,0
99291.4,55.0237,-1120.91,0,0
99551.7,54.996,-1117.06,0,0
99812.1,54.8424,-1113.15,0,0
100072,54.8727,-1109.26,0,0
100333,54.8573,-1105.33,0,0
100593,54.7654,-1101.45,0,0
100853,54.6539,-1097.43,0,0
101114,54.6835,-1093.28,0,0
101374,54.8917,-1089.2,0,0
101634,54.9982,-1085.09,0,0
101895,55.3028,-1080.98,0,0
102155,55.6728,-1076.92,0,0
102415,56.226,-1072.7,0,0
102676,57.1123,-1068.72,0,0
102936,58.0098,-1065.05,0,0
103196,58.8488,-1061.67,0,0
103457,59.4181,-1058.38,0,0
103717,60.0018,-1054.84,0,0
103977,60.8272,-1051.42,0,0
104238,61.7129,-1048.33,0,0
104498,62.5864,-1045.46,0,0
104758,63.0565,-1042.97,0,0
105019,63.1738,-1040.25,0,0
105279,63.3129,-1037.33,0,0
105539,63.5268,-1034.4,0,0
105800,63.6397,-1031.77,0,0
106060,63.5228,-1029.05,0,0
106320.175,63.2409,-1026.25,0,0
106580.5,62.9553,-1023.25,0,0
106840.825,62.7426,-1020.25,0,0
107101.15,62.3386,-1017.31,0,0
107361.475,61.9378,-1014.12,0,0
107621.8,61.5751,-1010.93,0,0
107882.125,61.193,-1007.65,0,0
108142.45,60.8752,-1004.35,0,0
108402.775,60.4214,-1001,0,0
108663.1,59.9567,-997.521,0,0
108923.425,59.6171,-993.804,0,0
109183.75,59.4272,-990.08,0,0
109444.075,59.3846,-986.392,0,0
109704.4,59.4672,-982.712,0,0
109964.725,59.5014,-979.11,0,0
110225.05,59.5007,-975.456,0,0
110485.375,59.5623,-971.77,0,0
110745.7,59.8165,-967.833,0,0
111006.025,60.3807,-964.16,0,0
111266.35,61.1149,-960.69,0,0
111526.675,61.5496,-957.369,0,0
111787.0,62.0147,-954.046,0,0
112047.325,62.5382,-950.882,0,0
112307.65,62.9546,-947.673,0,0
112567.975,63.3006,-944.491,0,0
112828.3,63.6508,-941.416,0,0
113088.625,64.0339,-938.392,0,0
113348.95,64.2158,-935.158,0,0
113609.275,64.41,-932.096,0,0
113869.6,64.5744,-928.826,0,0
114129.925,64.8515,-925.549,0,0
114390.25,65.0628,-922.36,0,0
114650.575,65.2143,-918.973,0,0
114910.9,65.5018,-915.515,0,0
115171.225,65.8439,-912.002,0,0
115431.55,66.4242,-908.424,0,0
115691.875,67.1119,-905.159,0,0
115952.2,67.6438,-901.872,0,0
116212.525,68.1631,-898.434,0,0
116472.85,68.8758,-894.93,0,0
116733.175,69.7802,-891.549,0,0
116993.5,70.6546,-888.254,0,0
117253.825,71.5486,-884.949,0,0
117514.15,72.4603,-881.548,0,0
117774.475,73.8051,-877.933,0,0
118034.8,75.6842,-874.787,0,0
118295.125,77.4401,-872.318,0,0
118555.45,78.8728,-870.072,0,0
118815.775,79.8001,-867.804,0,0
119076.1,80.8336,-864.925,0,0
119336.425,82.386,-862.25,0,0
119596.75,84.3249,-859.836,0,0
119857.075,86.3789,-858.013,0,0
120117.4,88.3464,-856.925,0,0
120377.725,89.6294,-856.656,0,0
120638.05,89.7775,-856.241,0,0
120898.375,89.6012,-855.564,0,0
121158.7,88.7875,-854.603,0,0
121419.025,87.5622,-852.984,0,0
121679.35,86.4697,-850.611,0,0
121939.675,85.7754,-847.809,0,0
122200.0,85.5023,-844.903,0,0
122460,85.3669,-842.085,0,0
122721,85.4631,-839.145,0,0
122981,85.8512,-836.36,0,0
123241,86.2849,-833.745,0,0
123502,86.7271,-831.288,0,0
123762,87.0748,-828.902,0,0
124022,87.4814,-826.428,0,0
124283,87.8968,-824.034,0,0
124543,88.3457,-821.751,0,0
124803,88.7156,-819.552,0,0
125064,89.081,-817.301,0,0
125324,89.4845,-815.026,0,0
125584,89.9539,-812.888,0,0
125845,90.469,-810.923,0,0
126105,90.744,-809.113,0,0
126365,90.8593,-807.284,0,0
126626,90.8157,-805.325,0,0
126886,90.8296,-803.303,0,0
127146,90.7333,-801.162,0,0
127406,90.8,-799.079,0,0
127667,90.6815,-797.174,0,0
127927,90.5342,-795.201,0,0
128187,90.329,-793.102,0,0
128448,89.9662,-791.056,0,0
128708,89.5405,-788.739,0,0
128968,89.2267,-786.252,0,0
129229,89.0432,-783.729,0,0
129489,88.9554,-781.321,0,0
129749,88.7368,-778.807,0,0
130010,88.7093,-776.173,0,0
130270,88.8745,-773.561,0,0
130530,89.1723,-771.125,0,0
130791,89.5064,-768.886,0,0
131051,89.698,-766.841,0,0
131311,89.681,-764.866,0,0
131572,89.5386,-762.88,0,0
131832,89.2256,-760.785,0,0
132092,88.8706,-758.459,0,0
132353,88.6382,-756.097,0,0
132613,88.4319,-753.706,0,0
132873,88.2475,-751.415,0,0
133134,88.0068,-749.118,0,0
133394,87.709,-746.778,0,0
133654,87.3789,-744.417,0,0
133915,86.9558,-741.973,0,0
134175,86.6345,-739.349,0,0
134435,86.4477,-736.749,0,0
134696,86.2464,-734.274,0,0
134956,85.899,-731.806,0,0
135216,85.5584,-729.167,0,0
135477,85.3319,-726.502,0,0
135737,85.0939,-723.847,0,0
135997,84.769,-721.201,0,0
136258,84.3128,-718.593,0,0
136518,83.9489,-715.715,0,0
136778,83.6466,-712.639,0,0
137039,83.5062,-709.597,0,0
137299,83.4634,-706.485,0,0
137559,83.6068,-703.422,0,0
137819,83.9133,-700.442,0,0
138080,84.205,-697.649,0,0
138340.125,84.4521,-694.937,0,0
138600.45,84.7676,-692.286,0,0
138860.775,85.0014,-689.806,0,0
139121.1,85.0251,-687.39,0,0
139381.425,84.9721,-684.926,0,0
139641.75,84.7501,-682.415,0,0
139902.075,84.4887,-679.584,0,0
140162.4,84.4648,-676.781,0,0
140422.725,84.4244,-674.126,0,0
140683.05,84.2347,-671.484,0,0
140943.375,83.9569,-668.755,0,0
141203.7,83.6247,-665.934,0,0
141464.025,83.2745,-662.988,0,0
141724.35,82.8839,-659.893,0,0
141984.675,82.6371,-656.678,0,0
142245.0,82.4372,-653.421,0,0
142505.325,82.3089,-650.169,0,0
142765.65,82.1868,-646.868,0,0
143025.975,82.1083,-643.513,0,0
143286.3,82.0511,-640.09,0,0
143546.625,82.1069,-636.607,0,0
143806.95,82.1355,-633.166,0,0
144067.275,82.216,-629.638,0,0
144327.6,82.3789,-626.032,0,0
144587.925,82.6102,-622.39,0,0
144848.25,82.9322,-618.749,0,0
145108.575,83.3372,-615.119,0,0
145368.9,83.7683,-611.561,0,0
145629.225,84.1113,-608.023,0,0
145889.55,84.3826,-604.333,0,0
146149.875,84.7589,-600.464,0,0
146410.2,85.3819,-596.542,0,0
146670.525,86.0605,-592.784,0,0
146930.85,86.662,-588.937,0,0
147191.175,87.3669,-585.005,0,0
147451.5,88.1522,-581.03,0,0
147711.825,89.0488,-576.969,0,0
147972.15,90.1164,-572.978,0,0
148232.475,91.222,-569.027,0,0
148492.8,92.3164,-565.067,0,0
148753.125,93.4388,-561.037,0,0
149013.45,94.703,-556.871,0,0
149273.775,96.103,-552.637,0,0
149534.1,97.7232,-548.386,0,0
149794.425,99.6266,-544.15,0,0
150054.75,101.719,-540.133,0,0
150315.075,103.866,-536.246,0,0
150575.4,106.055,-532.484,0,0
150835.725,108.315,-528.791,0,0
151096.05,110.672,-525.174,0,0
151356.375,113.114,-521.629,0,0
151616.7,115.694,-518.234,0,0
151877.025,118.377,-515.096,0,0
152137.35,120.931,-512.23,0,0
152397.675,123.345,-509.477,0,0
152658.0,125.606,-506.777,0,0
152918.325,127.762,-503.999,0,0
153178.65,129.997,-501.282,0,0
153438.975,132.095,-498.681,0,0
153699.3,134.038,-495.997,0,0
153959.625,136.002,-493.19,0,0
154219.95,138.027,-490.44,0,0
154480,139.952,-487.798,0,0
154741,141.565,-485.039,0,0
155001,143.185,-481.842,0,0
155261,145.142,-478.501,0,0
155522,147.45,-475.243,0,0
155782,149.69,-472.289,0,0
156042,151.863,-469.27,0,0
156303,153.947,-466.24,0,0
156563,155.803,-462.954,0,0
156823,158.064,-459.199,0,0
157084,161.066,-455.417,0,0
157344,164.504,-452.048,0,0
157604,168.165,-449.463,0,0
157864,171.64,-447.489,0,0
158125,174.445,-446.213,0,0
158385,176.262,-444.731,0,0
158645,177.697,-442.747,0,0
158906,178.791,-440.508,0,0
159166,179.643,-437.848,0,0
159426,180.191,-434.172,0,0
159687,181.478,-429.971,0,0
159947,182.634,-425.499,0,0
160207,184.364,-420.019,0,0
160468,187.453,-414.446,0,0
160728,190.996,-409.91,0,0
160988,193.901,-405.535,0,0
161249,196.551,-400.26,0,0
161509,200.345,-394.235,0,0
161769,205.243,-388.582,0,0
162030,210.43,-383.645,0,0
162290,215.416,-378.882,0,0
162550,220.573,-373.553,0,0
162811,226.575,-368.365,0,0
163071,232.955,-363.184,0,0
163331,239.805,-358.024,0,0
163592,247.585,-352.742,0,0
163852,256.636,-348.096,0,0
164112,266.298,-344.396,0,0
164373,276.222,-341.765,0,0
164633,286.155,-339.794,0,0
164893,296.429,-338.131,0,0
165154,307.377,-337.434,0,0
165414,318.271,-337.793,0,0
165674,329.169,-339.412,0,0
165935,339.66,-341.764,0,0
166195,350.137,-344.613,0,0
166455,361,-348.749,0,0
166716,371.039,-354.77,0,0
166976,379.465,-361.677,0,0
167236,386.614,-368.737,0,0
167497,393.096,-375.741,0,0
167757,398.812,-383.135,0,0
168017,403.483,-390.374,0,0
168277,407.779,-397.738,0,0
168538,411.134,-405.263,0,0
168798,413.715,-412.323,0,0
169058,416.193,-419.165,0,0
169319,418.123,-426.753,0,0
169579,418.76,-434.355,0,0
169839,418.039,-441.633,0,0
170100,415.952,-447.797,0,0
170360.075,413.418,-452.199,0,0
170620.4,411.513,-455.108,0,0
170880.725,410.413,-457.761,0,0
171141.05,409.205,-460.336,0,0
171401.375,408.221,-461.926,0,0
171661.7,408.161,-463.416,0,0
171922.025,408.164,-465.227,0,0
172182.35,407.976,-466.65,0,0
172442.675,408.409,-467.448,0,0
172703.0,409.805,-468.169,0,0
172963.325,412.321,-469.831,0,0
173223.65,414.539,-472.969,0,0
173483.975,415.451,-476.623,0,0
173744.3,415.414,-479.544,0,0
174004.625,415.542,-481.362,0,0
174264.95,416.833,-482.634,0,0
174525.275,419.468,-485.023,0,0
174785.6,421.502,-489.332,0,0
175045.925,421.89,-493.511,0,0
175306.25,422.269,-496.414,0,0
175566.575,424.013,-499.649,0,0
175826.9,425.903,-504.7,0,0
176087.225,426.498,-510.885,0,0
176347.55,425.972,-517.401,0,0
176607.875,424.239,-524.358,0,0
176868.2,420.775,-531.568,0,0
177128.525,414.938,-538.026,0,0
177388.85,407.45,-541.962,0,0
177649.175,400.598,-543.512,0,0
177909.5,394.732,-544.419,0,0
178169.825,388.581,-545.019,0,0
178430.15,382.004,-544.099,0,0
178690.475,376.337,-541.296,0,0
178950.8,372.327,-537.764,0,0
179211.125,369.72,-534.153,0,0
179471.45,368.065,-530.956,0,0
179731.775,366.781,-528.105,0,0
179992.1,365.953,-525.242,0,0
180252.425,366.051,-522.827,0,0
180512.75,366.136,-520.959,0,0
180773.075,366.403,-519.051,0,0
181033.4,367.23,-517.355,0,0
181293.725,368.494,-516.265,0,0
181554.05,370.029,-515.989,0,0
181814.375,371.27,-516.464,0,0
182074.7,372.076,-517.726,0,0
182335.025,372.038,-519.01,0,0
182595.35,371.881,-520.364,0,0
182855.675,371.216,-522.038,0,0
183116.0,370.082,-523.68,0,0
183376.325,368.394,-525.56,0,0
183636.65,365.643,-527.134,0,0
183896.975,362.307,-527.835,0,0
184157.3,359.04,-527.7,0,0
184417.625,356.25,-527.257,0,0
184677.95,353.084,-527.216,0,0
184938.275,349.122,-526.417,0,0
185198.6,345.147,-524.708,0,0
185458.925,341.53,-522.221,0,0
185719.25,338.125,-519.357,0,0
185979.575,334.91,-515.84,0,0
186239.9,332.246,-511.63,0,0
186500,330.41,-506.91,0,0
186761,329.632,-502.219,0,0
187021,329.55,-498.107,0,0
187281,329.445,-494.496,0,0
187542,329.368,-490.93,0,0
187802,329.439,-487.364,0,0
188062,329.684,-483.97,0,0
188322,329.888,-480.775,0,0
188583,329.908,-477.583,0,0
188843,329.71,-474.045,0,0
189103,329.786,-469.913,0,0
189364,330.598,-465.501,0,0
189624,332.04,-461.257,0,0
189884,333.937,-457.319,0,0
190145,336.112,-453.85,0,0
190405,338.221,-450.897,0,0
190665,340.237,-448.216,0,0
190926,341.933,-445.659,0,0
191186,343.465,-442.867,0,0
191446,345.218,-440.043,0,0
191707,346.897,-437.375,0,0
191967,348.38,-434.499,0,0
192227,349.946,-431.414,0,0
192488,351.413,-428.104,0,0
192748,353.221,-424.353,0,0
193008,355.458,-420.389,0,0
193269,358.255,-416.338,0,0
193529,361.585,-412.474,0,0
193789,365.22,-408.908,0,0
194050,369.027,-405.585,0,0
194310,373.033,-402.377,0,0
194570,377.266,-399.343,0,0
194831,381.604,-396.501,0,0
195091,386.083,-393.511,0,0
195351,391.142,-390.408,0,0
195612,397.042,-387.427,0,0
195872,404.005,-385.307,0,0
196132,411.323,-384.688,0,0
196393,418.111,-385.299,0,0
196653,424.322,-386.727,0,0
196913,429.737,-388.763,0,0
197174,434.328,-391.022,0,0
197434,438.288,-393.413,0,0
197694,441.605,-395.764,0,0
197955,444.245,-397.964,0,0
198215,446.344,-399.751,0,0
198475,448.345,-401.029,0,0
198735,450.194,-402.235,0,0
198996,451.749,-403.137,0,0
199256,453.177,-403.565,0,0
199516,454.815,-403.596,0,0
199777,456.524,-403.635,0,0
200037,457.947,-403.631,0,0
200297,459.031,-403.16,0,0
200558,460.04,-401.818,0,0
200818,461.597,-399.61,0,0
201078,464.113,-397.042,0,0
201339,467.361,-394.656,0,0
201599,470.949,-392.3,0,0
201859,475.253,-389.828,0,0
202120,480.325,-387.584,0,0
202380.025,486.18,-385.831,0,0
202640.35,492.632,-385.224,0,0
202900.675,498.576,-385.824,0,0
203161.0,503.733,-386.333,0,0
203421.325,509.081,-386.524,0,0
203681.65,514.935,-386.959,0,0
203941.975,521.015,-387.958,0,0
204202.3,527.268,-389.629,0,0
204462.625,533.403,-392.279,0,0
204722.95,538.446,-395.627,0,0
204983.275,542.821,-398.825,0,0
205243.6,546.592,-402.178,0,0
205503.925,549.649,-405.288,0,0
205764.25,552.372,-407.96,0,0
206024.575,554.604,-410.4,0,0
206284.9,555.992,-411.805,0,0
206545.225,557.818,-411.639,0,0
206805.55,560.81,-410.619,0,0
207065.875,565.092,-409.498,0,0
207326.2,570.494,-408.866,0,0
207586.525,576.302,-408.797,0,0
207846.85,582.59,-408.948,0,0
208107.175,589.664,-409.505,0,0
208367.5,597.414,-411.165,0,0
208627.825,605.161,-414.016,0,0
208888.15,612.392,-417.883,0,0
209148.475,617.926,-421.253,0,0
209408.8,624.44,-424.984,0,0
209669.125,631.062,-429.019,0,0
209929.45,637.526,-433.377,0,0
210189.775,644.169,-438.301,0,0
210450.1,650.368,-443.839,0,0
210710.425,656.37,-449.398,0,0
210970.75,662.309,-455.306,0,0
211231.075,668.014,-461.644,0,0
211491.4,673.316,-468.39,0,0
211751.725,678.178,-475.192,0,0
212012.05,682.832,-481.927,0,0
212272.375,687.59,-488.831,0,0
212532.7,692.258,-495.962,0,0
212793.025,697.057,-503.502,0,0
213053.35,701.664,-511.732,0,0
213313.675,705.623,-520.781,0,0
213574.0,708.647,-530.139,0,0
213834.325,710.763,-539.339,0,0
214094.65,712.399,-548.158,0,0
214354.975,713.648,-556.435,0,0
214615.3,715.08,-564.657,0,0
214875.625,716.536,-572.808,0,0
215135.95,718.074,-581.291,0,0
215396.275,719.425,-590.075,0,0
215656.6,720,-599.251,0,0
215916.925,720.223,-608.33,0,0
216177.25,720.193,-617.351,0,0
216437.575,719.591,-626.511,0,0
216697.9,718.62,-635.422,0,0
216958.225,717.39,-644.182,0,0
217218.55,715.856,-652.751,0,0
217478.875,714.346,-661.214,0,0
217739.2,712.532,-669.851,0,0
217999.525,710.241,-678.61,0,0
218259.85,707.401,-687.11,0,0
218520,704.309,-695.28,0,0
218780,700.943,-702.848,0,0
219041,697.703,-710.302,0,0
219301,694.393,-717.578,0,0
219561,690.991,-724.693,0,0
219822,687.838,-731.681,0,0
220082,684.63,-738.619,0,0
220342,681.539,-745.846,0,0
220603,678.529,-753.572,0,0
220863,674.968,-761.781,0,0
221123,670.822,-770.073,0,0
221384,666.362,-778.504,0,0
221644,661.185,-787.307,0,0
221904,654.879,-796.078,0,0
222165,647.414,-804.603,0,0
222425,639.116,-812.285,0,0
222685,630.1,-819.035,0,0
222946,620.62,-824.831,0,0
223206,610.825,-829.545,0,0
223466,600.763,-832.888,0,0
223727,591.331,-834.992,0,0
223987,582.648,-836.31,0,0
224247,574.478,-837.342,0,0
224508,566.754,-837.641,0,0
224768,559.619,-837.469,0,0
225028,553.378,-836.94,0,0
225289,548.213,-836.563,0,0
225549,543.671,-836.306,0,0
225809,539.484,-836.535,0,0
226070,535.487,-837.179,0,0
226330,531.771,-838.099,0,0
226590,528.102,-839.33,0,0
226851,524.631,-840.772,0,0
227111,521.23,-842.973,0,0
227371,517.458,-845.775,0,0
227632,512.845,-848.806,0,0
227892,507.441,-851.409,0,0
228152,501.854,-853.35,0,0
228413,496.476,-854.885,0,0
228673,491.256,-856.368,0,0
228933,486.073,-857.681,0,0
229193,480.928,-858.97,0,0
229454,475.884,-860.199,0,0
229714,471.046,-861.674,0,0
229974,465.805,-863.422,0,0
230235,460.112,-864.818,0,0
230495,454.25,-865.941,0,0
230755,448.393,-866.617,0,0
231016,442.485,-867.121,0,0
231276,436.675,-867.372,0,0
231536,431.05,-867.33,0,0
231797,425.572,-867.08,0,0
232057,420.264,-866.758,0,0
232317,415.01,-866.332,0,0
232578,410.008,-865.855,0,0
232838,405.109,-865.42,0,0
233098,400.144,-864.96,0,0
233359,395.198,-864.391,0,0
233619,390.417,-863.705,0,0
233879,385.69,-863.003,0,0
234140,380.972,-862.216,0,0
234400,376.566,-861.372,0,0
234660.3,372.063,-860.614,0,0
234920.625,367.747,-860.198,0,0
235180.95,363.239,-859.628,0,0
235441.275,358.565,-859.217,0,0
235701.6,353.77,-858.706,0,0
235961.925,348.68,-858.046,0,0
236222.25,343.489,-857.092,0,0
236482.575,338.4,-855.787,0,0
236742.9,333.475,-854.336,0,0
237003.225,328.659,-852.806,0,0
237263.55,323.802,-851.247,0,0
237523.875,318.943,-849.605,0,0
237784.2,313.944,-847.785,0,0
238044.525,309.029,-845.606,0,0
238304.85,304.297,-843.227,0,0
238565.175,299.755,-840.714,0,0
238825.5,295.346,-838.195,0,0
239085.825,290.999,-835.513,0,0
239346.15,286.748,-832.69,0,0
239606.475,282.63,-829.582,0,0
239866.8,278.664,-826.606,0,0
240127.125,274.941,-823.512,0,0
240387.45,271.321,-820.416,0,0
240647.775,267.655,-817.268,0,0
240908.1,264.016,-813.947,0,0
241168.425,260.532,-810.362,0,0
241428.75,257.269,-806.594,0,0
241689.075,254.403,-802.505,0,0
241949.4,251.912,-798.439,0,0
242209.725,249.741,-794.37,0,0
242470.05,247.997,-790.468,0,0
242730.375,246.498,-786.709,0,0
242990.7,245.362,-783.188,0,0
243251.025,244.422,-780.051,0,0
243511.35,243.459,-777.398,0,0
243771.675,242.193,-774.932,0,0
244032.0,240.846,-772.615,0,0
244292.325,239.214,-770.372,0,0
244552.65,237.457,-767.883,0,0
244812.975,235.74,-765.229,0,0
245073.3,234.144,-762.485,0,0
245333.625,232.725,-759.786,0,0
245593.95,231.377,-757.003,0,0
245854.275,230.011,-754.189,0,0
246114.6,228.857,-751.469,0,0
246374.925,227.875,-748.654,0,0
246635.25,226.901,-746.069,0,0
246895.575,226.013,-743.544,0,0
247155.9,225.092,-741.125,0,0
247416.225,224.002,-738.664,0,0
247676.55,222.995,-735.994,0,0
247936.875,222.107,-733.347,0,0
248197.2,221.403,-730.579,0,0
248457.525,220.997,-727.772,0,0
248717.85,220.807,-725.12,0,0
248978.175,220.947,-722.646,0,0
249238.5,221.239,-720.695,0,0
249498.825,221.348,-719.027,0,0
249759.15,221.178,-717.516,0,0
250019.475,221.009,-716.081,0,0
250279.8,220.706,-714.627,0,0
250540,220.294,-713.473,0,0
250800,219.711,-712.259,0,0
251061,218.924,-711.073,0,0
251321,218.043,-709.818,0,0
251581,217.122,-708.567,0,0
251842,216.041,-707.231,0,0
252102,214.838,-705.871,0,0
252362,213.522,-704.4,0,0
252623,212.057,-702.743,0,0
252883,210.655,-700.835,0,0
253143,209.305,-698.891,0,0
253404,207.916,-696.752,0,0
253664,206.509,-694.494,0,0
253924,205.14,-691.943,0,0
254185,203.926,-689.294,0,0
254445,202.97,-686.397,0,0
254705,202.173,-683.468,0,0
254966,201.457,-680.472,0,0
255226,200.978,-677.406,0,0
255486,200.663,-674.24,0,0
255747,200.583,-670.899,0,0
256007,200.804,-667.507,0,0
256267,201.429,-664.207,0,0
256528,202.347,-661.075,0,0
256788,203.409,-658.205,0,0
257048,204.54,-655.491,0,0
257309,205.756,-652.89,0,0
257569,207.093,-650.34,0,0
257829,208.561,-647.891,0,0
258090,210.154,-645.513,0,0
258350,211.9,-643.265,0,0
258610,213.75,-641.082,0,0
258871,215.81,-639.085,0,0
259131,217.996,-637.144,0,0
259391,220.459,-635.311,0,0
259651,223.155,-633.757,0,0
259912,226.11,-632.524,0,0
260172,229.281,-631.538,0,0
260432,232.557,-630.929,0,0
260693,236.196,-630.758,0,0
260953,240.014,-631.255,0,0
261213,243.738,-632.642,0,0
261474,246.989,-634.823,0,0
261734,249.508,-637.488,0,0
261994,251.485,-640.379,0,0
262255,252.926,-643.441,0,0
262515,253.703,-646.644,0,0
262775,254.018,-649.759,0,0
263036,253.817,-652.704,0,0
263296,253.334,-655.509,0,0
263556,252.538,-658.205,0,0
263817,251.407,-660.74,0,0
264077,250.025,-663.105,0,0
264337,248.307,-665.192,0,0
264598,246.61,-667.101,0,0
264858,244.636,-668.965,0,0
265118,242.586,-670.658,0,0
265379,240.333,-672.304,0,0
265639,237.765,-673.719,0,0
265899,234.882,-674.91,0,0
266160,231.823,-675.72,0,0
266420,228.653,-676.185,0,0
266680.25,225.416,-676.28,0,0
266940.575,222.168,-675.982,0,0
267200.9,219.024,-675.277,0,0
267461.225,216.134,-674.186,0,0
267721.55,213.448,-673.024,0,0
267981.875,210.929,-671.736,0,0
268242.2,208.471,-670.274,0,0
268502.525,206.145,-668.619,0,0
268762.85,203.999,-666.817,0,0
269023.175,202.041,-664.855,0,0
269283.5,200.331,-662.795,0,0
269543.825,198.803,-660.783,0,0
269804.15,197.395,-658.639,0,0
270064.475,196.218,-656.419,0,0
270324.8,195.236,-654.333,0,0
270585.125,194.522,-652.203,0,0
270845.45,193.888,-650.157,0,0
271105.775,193.454,-648.228,0,0
271366.1,193.105,-646.442,0,0
271626.425,192.802,-644.733,0,0
271886.75,192.475,-643.03,0,0
272147.075,192.227,-641.609,0,0
272407.4,191.803,-640.197,0,0
272667.725,191.264,-638.726,0,0
272928.05,190.735,-637.151,0,0
273188.375,190.239,-635.426,0,0
273448.7,189.892,-633.588,0,0
273709.025,189.694,-631.675,0,0
273969.35,189.649,-629.78,0,0
274229.675,189.659,-627.918,0,0
274490.0,189.775,-626.014,0,0
274750.325,190.064,-624.067,0,0
275010.65,190.504,-622.111,0,0
275270.975,191.208,-620.106,0,0
275531.3,192.122,-618.284,0,0
275791.625,193.163,-616.642,0,0
276051.95,194.372,-615.068,0,0
276312.275,195.687,-613.667,0,0
276572.6,197.203,-612.47,0,0
276832.925,198.805,-611.508,0,0
277093.25,200.422,-610.822,0,0
277353.575,202.017,-610.318,0,0
277613.9,203.625,-609.97,0,0
277874.225,205.233,-609.816,0,0
278134.55,206.86,-609.844,0,0
278394.875,208.475,-610.127,0,0
278655.2,210.065,-610.696,0,0
278915.525,211.486,-611.545,0,0
279175.85,212.664,-612.593,0,0
279436.175,213.722,-613.724,0,0
279696.5,214.581,-615.133,0,0
279956.825,215.17,-616.667,0,0
280217.15,215.517,-618.311,0,0
280477.475,215.494,-619.928,0,0
280737.8,215.218,-621.458,0,0
280998.125,214.817,-622.899,0,0
281258.45,214.258,-624.32,0,0
281518.775,213.508,-625.736,0,0
281779.1,212.493,-627.109,0,0
282039.425,211.302,-628.286,0,0
282299.75,209.968,-629.266,0,0
282560,208.593,-630.095,0,0
282820,207.145,-630.814,0,0
283081,205.618,-631.382,0,0
283341,204.047,-631.81,0,0
283601,202.462,-632.033,0,0
283862,200.917,-632.168,0,0
284122,199.378,-632.237,0,0
284382,197.816,-632.222,0,0
284643,196.251,-632.081,0,0
284903,194.673,-631.84,0,0
285163,193.124,-631.419,0,0
285424,191.662,-630.939,0,0
285684,190.222,-630.372,0,0
285944,188.853,-629.716,0,0
286205,187.528,-628.961,0,0
286465,186.335,-628.142,0,0
286725,185.223,-627.278,0,0
286986,184.199,-626.401,0,0
287246,183.215,-625.485,0,0
287506,182.312,-624.57,0,0
287767,181.485,-623.641,0,0
288027,180.676,-622.682,0,0
288287,179.962,-621.691,0,0
288548,179.383,-620.636,0,0
288808,178.936,-619.61,0,0
289068,178.638,-618.641,0,0
289329,178.477,-617.83,0,0
289589,178.336,-617.14,0,0
289849,178.2,-616.646,0,0
290109,178.06,-616.277,0,0
290370,177.776,-616.021,0,0
290630,177.402,-615.813,0,0
290890,176.95,-615.662,0,0
291151,176.392,-615.511,0,0
291411,175.721,-615.374,0,0
291671,174.914,-615.228,0,0
291932,173.971,-614.97,0,0
292192,172.905,-614.58,0,0
292452,171.803,-614.004,0,0
292713,170.754,-613.24,0,0
292973,169.805,-612.316,0,0
293233,168.955,-611.292,0,0
293494,168.234,-610.194,0,0
293754,167.659,-609.037,0,0
294014,167.26,-607.805,0,0
294275,166.994,-606.622,0,0
294535,166.93,-605.459,0,0
294795,167.032,-604.404,0,0
295056,167.249,-603.453,0,0
295316,167.612,-602.66,0,0
295576,167.954,-602.069,0,0
295837,168.358,-601.645,0,0
296097,168.727,-601.374,0,0
296357,169.038,-601.253,0,0
296618,169.279,-601.258,0,0
296878,169.429,-601.374,0,0
297138,169.475,-601.538,0,0
297399,169.421,-601.76,0,0
297659,169.291,-602.031,0,0
297919,169.075,-602.317,0,0
298180,168.756,-602.647,0,0
298440,168.369,-602.959,0,0
298700.2,167.905,-603.3,0,0
298960.525,167.365,-603.647,0,0
299220.85,166.733,-604.014,0,0
299481.175,166.005,-604.36,0,0
299741.5,165.171,-604.677,0,0
300001.825,164.3,-604.905,0,0
300262.15,163.33,-605.154,0,0
300522.475,162.297,-605.314,0,0
300782.8,161.201,-605.454,0,0
301043.125,160.058,-605.503,0,0
301303.45,158.867,-605.519,0,0
301563.775,157.625,-605.413,0,0
301824.1,156.34,-605.256,0,0
302084.425,155.012,-604.987,0,0
302344.75,153.692,-604.616,0,0
302605.075,152.406,-604.137,0,0
302865.4,151.178,-603.599,0,0
303125.725,149.999,-603.009,0,0
303386.05,148.849,-602.391,0,0
303646.375,147.734,-601.762,0,0
303906.7,146.605,-601.079,0,0
304167.025,145.514,-600.349,0,0
304427.35,144.424,-599.595,0,0
304687.675,143.379,-598.767,0,0
304948.0,142.383,-597.928,0,0
305208.325,141.434,-597.001,0,0
305468.65,140.532,-596.082,0,0
305728.975,139.693,-595.153,0,0
305989.3,138.887,-594.22,0,0
306249.625,138.113,-593.283,0,0
306509.95,137.351,-592.33,0,0
306770.275,136.64,-591.355,0,0
307030.6,135.994,-590.36,0,0
307290.925,135.409,-589.377,0,0
307551.25,134.874,-588.411,0,0
307811.575,134.351,-587.446,0,0
308071.9,133.908,-586.488,0,0
308332.225,133.51,-585.563,0,0
308592.55,133.178,-584.673,0,0
308852.875,132.882,-583.833,0,0
309113.2,132.597,-583.055,0,0
309373.525,132.358,-582.329,0,0
309633.85,132.09,-581.693,0,0
309894.175,131.828,-581.123,0,0
310154.5,131.575,-580.596,0,0
310414.825,131.257,-580.153,0,0
310675.15,130.906,-579.776,0,0
310935.475,130.447,-579.457,0,0
311195.8,129.888,-579.156,0,0
311456.125,129.249,-578.826,0,0
311716.45,128.509,-578.469,0,0
311976.775,127.72,-578.064,0,0
312237.1,126.849,-577.587,0,0
312497.425,125.942,-577.051,0,0
312757.75,124.976,-576.424,0,0
313018.075,123.976,-575.686,0,0
313278.4,123,-574.853,0,0
313538.725,122.045,-573.914,0,0
313799.05,121.154,-572.877,0,0
314059.375,120.311,-571.773,0,0
314319.7,119.556,-570.598,0,0
314580,118.828,-569.371,0,0
314840,118.265,-568.012,0,0
315101,117.798,-566.736,0,0
315361,117.42,-565.386,0,0
315621,117.163,-564.157,0,0
315882,117.052,-562.904,0,0
316142,116.913,-561.666,0,0
316402,116.908,-560.545,0,0
316663,116.862,-559.468,0,0
316923,116.922,-558.497,0,0
317183,116.915,-557.618,0,0
317444,116.999,-556.689,0,0
317704,116.996,-555.827,0,0
317964,117.109,-555.012,0,0
318225,117.183,-554.18,0,0
318485,117.367,-553.4,0,0
318745,117.42,-552.767,0,0
319006,117.521,-552.122,0,0
319266,117.619,-551.561,0,0
319526,117.642,-550.972,0,0
319787,117.587,-550.465,0,0
320047,117.54,-549.903,0,0
320307,117.466,-549.18,0,0
320567,117.428,-548.481,0,0
320828,117.432,-547.838,0,0
321088,117.503,-547.181,0,0
321348,117.687,-546.515,0,0
321609,117.888,-545.843,0,0
321869,118.234,-545.301,0,0
322129,118.57,-544.837,0,0
322390,118.992,-544.422,0,0
322650,119.302,-544.209,0,0
322910,119.727,-544.024,0,0
323171,120.017,-544.031,0,0
323431,120.274,-544.071,0,0
323691,120.448,-544.249,0,0
323952,120.511,-544.547,0,0
324212,120.553,-544.771,0,0
324472,120.415,-545.194,0,0
324733,120.203,-545.458,0,0
324993,119.843,-545.82,0,0
325253,119.394,-546.116,0,0
325514,118.968,-546.423,0,0
325774,118.305,-546.666,0,0
326034,117.655,-546.958,0,0
326295,116.842,-547.065,0,0
326555,116.023,-547.143,0,0
326815,115.216,-547.277,0,0
327076,114.253,-547.263,0,0
327336,113.371,-547.147,0,0
327596,112.4,-547.023,0,0
327857,111.443,-546.794,0,0
328117,110.486,-546.548,0,0
328377,109.49,-546.214,0,0
328638,108.567,-545.778,0,0
328898,107.588,-545.299,0,0
329158,106.707,-544.846,0,0
329419,105.853,-544.36,0,0
329679,104.991,-543.904,0,0
329939,104.152,-543.343,0,0
330200,103.297,-542.855,0,0
330460,102.517,-542.327,0,0
330720.15,101.592,-541.877,0,0
330980.475,100.79,-541.325,0,0
331240.8,99.8591,-540.772,0,0
331501.125,99.0116,-540.156,0,0
331761.45,98.0279,-539.542,0,0
332021.775,97.2048,-538.843,0,0
332282.1,96.2791,-538.156,0,0
332542.425,95.374,-537.372,0,0
332802.75,94.5793,-536.698,0,0
333063.075,93.6105,-535.915,0,0
333323.4,92.757,-535.112,0,0
333583.725,91.9127,-534.226,0,0
333844.05,91.0123,-533.28,0,0
334104.375,90.1874,-532.401,0,0
334364.7,89.2573,-531.529,0,0
334625.025,88.4793,-530.471,0,0
334885.35,87.6608,-529.499,0,0
335145.675,86.8732,-528.464,0,0
335406.0,86.0809,-527.28,0,0
335666.325,85.3695,-526.169,0,0
335926.65,84.6954,-524.984,0,0
336186.975,84.0468,-523.742,0,0
336447.3,83.5185,-522.503,0,0
336707.625,82.9908,-521.278,0,0
336967.95,82.5177,-520.072,0,0
337228.275,82.0537,-518.837,0,0
337488.6,81.6454,-517.598,0,0
337748.925,81.2584,-516.414,0,0
338009.25,80.9226,-515.212,0,0
338269.575,80.6128,-514.038,0,0
338529.9,80.252,-512.899,0,0
338790.225,79.8603,-511.628,0,0
339050.55,79.4966,-510.459,0,0
339310.875,79.1887,-509.13,0,0
339571.2,78.9151,-507.732,0,0
339831.525,78.6871,-506.436,0,0
340091.85,78.5762,-504.981,0,0
340352.175,78.5188,-503.566,0,0
340612.5,78.6491,-502.154,0,0
340872.825,78.7369,-500.738,0,0
341133.15,78.9261,-499.4,0,0
341393.475,79.2477,-498.08,0,0
341653.8,79.5942,-496.771,0,0
341914.125,80.0559,-495.593,0,0
342174.45,80.5637,-494.501,0,0
342434.775,81.1315,-493.462,0,0
342695.1,81.7145,-492.578,0,0
342955.425,82.3415,-491.805,0,0
343215.75,82.943,-491.128,0,0
343476.075,83.4693,-490.504,0,0
343736.4,84.0168,-489.99,0,0
343996.725,84.4248,-489.542,0,0
344257.05,84.8709,-489.157,0,0
344517.375,85.1878,-488.798,0,0
344777.7,85.5157,-488.542,0,0
345038.025,85.6966,-488.274,0,0
345298.35,85.8616,-488.005,0,0
345558.675,85.9654,-487.74,0,0
345819.0,85.9513,-487.467,0,0
346079.325,85.9492,-487.304,0,0
346339.65,85.8715,-486.967,0,0
346599.975,85.6605,-486.683,0,0
346860,85.5206,-486.336,0,0
347121,85.2861,-485.98,0,0
347381,85.0292,-485.558,0,0
347641,84.7319,-485.058,0,0
347902,84.4074,-484.554,0,0
348162,84.1086,-483.873,0,0
348422,83.7957,-483.29,0,0
348683,83.5596,-482.552,0,0
348943,83.3504,-481.767,0,0
349203,83.1707,-480.915,0,0
349464,83.0777,-480.089,0,0
349724,83.0389,-479.146,0,0
349984,83.154,-478.293,0,0
350245,83.3044,-477.47,0,0
350505,83.5215,-476.628,0,0
350765,83.8184,-475.86,0,0
351025,84.1466,-475.289,0,0
351286,84.5366,-474.709,0,0
351546,84.879,-474.191,0,0
351806,85.1793,-473.845,0,0
352067,85.4298,-473.514,0,0
352327,85.7251,-473.207,0,0
352587,85.9733,-472.908,0,0
352848,86.1372,-472.709,0,0
353108,86.2876,-472.579,0,0
353368,86.3225,-472.48,0,0
353629,86.2986,-472.346,0,0
353889,86.1029,-472.278,0,0
354149,85.9308,-472.092,0,0
354410,85.6876,-471.822,0,0
354670,85.5138,-471.565,0,0
354930,85.2167,-471.308,0,0
355191,84.9838,-471,0,0
355451,84.6722,-470.653,0,0
355711,84.3425,-470.337,0,0
355972,84.0725,-469.938,0,0
356232,83.6395,-469.513,0,0
356492,83.3189,-469.013,0,0
356753,82.9247,-468.516,0,0
357013,82.606,-467.886,0,0
357273,82.1993,-467.239,0,0
357534,81.9328,-466.58,0,0
357794,81.7036,-465.899,0,0
358054,81.5217,-465.186,0,0
358315,81.3559,-464.428,0,0
358575,81.2911,-463.706,0,0
358835,81.2776,-463.056,0,0
359096,81.2941,-462.316,0,0
359356,81.3278,-461.702,0,0
359616,81.3764,-461.164,0,0
359877,81.3283,-460.612,0,0
360137,81.3619,-460.069,0,0
360397,81.3393,-459.539,0,0
360658,81.3532,-459.148,0,0
360918,81.2682,-458.675,0,0
361178,81.1778,-458.19,0,0
361438,81.0596,-457.728,0,0
361699,80.8575,-457.233,0,0
361959,80.7333,-456.683,0,0
362219,80.4793,-456.014,0,0
362480,80.3909,-455.333,0,0
362740.1,80.2897,-454.542,0,0
363000.425,80.2381,-453.791,0,0
363260.75,80.3232,-453.053,0,0
363521.075,80.4239,-452.309,0,0
363781.4,80.6081,-451.614,0,0
364041.725,80.8836,-450.976,0,0
364302.05,81.1248,-450.351,0,0
364562.375,81.4106,-449.873,0,0
364822.7,81.7586,-449.277,0,0
365083.025,82.1136,-448.904,0,0
365343.35,82.4654,-448.599,0,0
365603.675,82.7714,-448.343,0,0
365864.0,83.0405,-448.122,0,0
366124.325,83.3353,-448.041,0,0
366384.65,83.464,-447.982,0,0
366644.975,83.5933,-448.018,0,0
366905.3,83.6168,-448.067,0,0
367165.625,83.4307,-448.174,0,0
367425.95,83.202,-448.188,0,0
367686.275,82.8122,-448.18,0,0
367946.6,82.3419,-448.102,0,0
368206.925,81.8165,-447.924,0,0
368467.25,81.2627,-447.531,0,0
368727.575,80.7039,-447.069,0,0
368987.9,80.154,-446.537,0,0
369248.225,79.6459,-445.811,0,0
369508.55,79.2727,-444.979,0,0
369768.875,79.0462,-444.119,0,0
370029.2,78.9059,-443.213,0,0
370289.525,78.9385,-442.336,0,0
370549.85,79.1198,-441.54,0,0
370810.175,79.3196,-440.817,0,0
371070.5,79.5822,-440.153,0,0
371330.825,79.9414,-439.732,0,0
371591.15,80.2384,-439.293,0,0
371851.475,80.5094,-439.03,0,0
372111.8,80.7222,-438.891,0,0
372372.125,80.7947,-438.723,0,0
372632.45,80.8687,-438.636,0,0
372892.775,80.819,-438.54,0,0
373153.1,80.6972,-438.511,0,0
373413.425,80.412,-438.363,0,0
373673.75,80.0338,-438.201,0,0
373934.075,79.6935,-437.927,0,0
374194.4,79.3477,-437.562,0,0
374454.725,78.9424,-437.175,0,0
374715.05,78.5955,-436.692,0,0
374975.375,78.2246,-436.228,0,0
375235.7,77.9352,-435.676,0,0
375496.025,77.5793,-435.114,0,0
375756.35,77.2995,-434.445,0,0
376016.675,77.0596,-433.741,0,0
376277.0,76.8628,-433.106,0,0
376537.325,76.7083,-432.396,0,0
376797.65,76.5812,-431.734,0,0
377057.975,76.485,-430.984,0,0
377318.3,76.438,-430.303,0,0
377578.625,76.4178,-429.594,0,0
377838.95,76.452,-428.848,0,0
378099.275,76.5184,-428.125,0,0
378359.6,76.6796,-427.493,0,0
378619.925,76.8402,-426.783,0,0
378880,77.1537,-426.186,0,0
379141,77.355,-425.663,0,0
379401,77.672,-425.251,0,0
379661,77.9327,-424.855,0,0
379922,78.1122,-424.515,0,0
380182,78.321,-424.286,0,0
380442,78.444,-423.988,0,0
380703,78.5445,-423.737,0,0
380963,78.5767,-423.539,0,0
381223,78.5524,-423.276,0,0
381483,78.5269,-423.025,0,0
381744,78.4842,-422.759,0,0
382004,78.4471,-422.428,0,0
382264,78.4628,-422.139,0,0
382525,78.4477,-421.863,0,0
382785,78.4062,-421.574,0,0
383045,78.3407,-421.346,0,0
383306,78.2553,-421.14,0,0
383566,78.106,-420.959,0,0
383826,77.9236,-420.706,0,0
384087,77.7104,-420.513,0,0
384347,77.4445,-420.186,0,0
384607,77.1867,-419.88,0,0
384868,76.876,-419.558,0,0
385128,76.6452,-419.176,0,0
385388,76.3113,-418.742,0,0
385649,75.9797,-418.326,0,0
385909,75.665,-417.846,0,0
386169,75.3934,-417.358,0,0
386430,75.0219,-416.876,0,0
386690,74.7588,-416.355,0,0
386950,74.4811,-415.746,0,0
387211,74.1657,-415.167,0,0
387471,73.873,-414.478,0,0
387731,73.5911,-413.803,0,0
387992,73.3411,-413.066,0,0
388252,73.1191,-412.333,0,0
388512,72.9508,-411.567,0,0
388773,72.7804,-410.745,0,0
389033,72.6969,-409.917,0,0
389293,72.5715,-409.038,0,0
389554,72.5538,-408.184,0,0
389814,72.6271,-407.307,0,0
390074,72.6673,-406.397,0,0
390335,72.7862,-405.512,0,0
390595,73.0139,-404.584,0,0
390855,73.2604,-403.768,0,0
391116,73.6153,-402.935,0,0
391376,73.9788,-402.119,0,0
391636,74.3882,-401.387,0,0
391896,74.823,-400.717,0,0
392157,75.3015,-400.091,0,0
392417,75.7586,-399.534,0,0
392677,76.2165,-399.014,0,0
392938,76.6757,-398.541,0,0
393198,77.0989,-398.115,0,0
393458,77.559,-397.713,0,0
393719,77.9956,-397.324,0,0
393979,78.4111,-396.932,0,0
394239,78.8514,-396.559,0,0
394500,79.3165,-396.262,0,0
394760.05,79.7195,-395.986,0,0
395020.375,80.184,-395.72,0,0
395280.7,80.6043,-395.503,0,0
395541.025,81.0468,-395.327,0,0
395801.35,81.4752,-395.218,0,0
396061.675,81.8455,-395.093,0,0
396322.0,82.224,-395.027,0,0
396582.325,82.5868,-394.991,0,0
396842.65,82.9341,-394.98,0,0
397102.975,83.1705,-395,0,0
397363.3,83.4244,-395.022,0,0
397623.625,83.6969,-395.098,0,0
397883.95,83.8741,-395.148,0,0
398144.275,84.0283,-395.284,0,0
398404.6,84.174,-395.332,0,0
398664.925,84.2613,-395.473,0,0
398925.25,84.3054,-395.595,0,0
399185.575,84.2877,-395.739,0,0
399445.9,84.2401,-395.931,0,0
399706.225,84.1796,-396.012,0,0
399966.55,84.0092,-396.145,0,0
400006.6,84.0073,-396.184,0,0