File: Accelerated corrosion test data/2025-10-21_18-00-04/sample_4.csv
Frequency (Hz),Impedance (ohms),Phase (Radians),Temperature (C),Humidity (%)
10000.0,262.887,-11936.1,0,0
10260.325,260.019,-11637,0,0
10520.65,249.828,-11350.9,0,0
10780.975,243.827,-11078.7,0,0
11041.3,239.31,-10818.4,0,0
11301.625,233.569,-10574.1,0,0
11561.95,227.675,-10337.1,0,0
11822.275,223.827,-10110.8,0,0
12082.6,218.524,-9894.7,0,0
12342.925,214.582,-9686.91,0,0
12603.25,213.364,-9486.13,0,0
12863.575,207.177,-9298.3,0,0
13123.9,205.32,-9119.24,0,0
13384.225,198.905,-8939.03,0,0
13644.55,195.423,-8767.63,0,0
13904.875,192.522,-8600.31,0,0
14165.2,195.02,-8434.1,0,0
14425.525,198.717,-8287.43,0,0
14685.8,195.363,-8175.27,0,0
14946.175,180.876,-8017.22,0,0
15206.5,180.047,-7870.9,0,0
15466.825,201.934,-7726.02,0,0
15727.15,186.028,-7625.75,0,0
15987.5,185.894,-7514.07,0,0
16247.8,170.279,-7381.26,0,0
16508.125,191.879,-7259.99,0,0
16768.45,180.718,-7155.48,0,0
17028.775,166.649,-7063.15,0,0
17289.1,159.231,-6949.75,0,0
17549.425,157.869,-6845.41,0,0
17809.75,154.825,-6745.13,0,0
18070.075,150.917,-6645.75,0,0
18330.4,152.505,-6550.16,0,0
18590.725,151.654,-6459.68,0,0
18851.05,149.038,-6375.16,0,0
19111.375,144.655,-6285.44,0,0
19371.7,142.029,-6199.41,0,0
19632.025,141.182,-6114.91,0,0
19892.35,143.806,-6034.82,0,0
20152.675,142.659,-5956.98,0,0
20413.0,140.15,-5882.37,0,0
20673.3,140.48,-5807.79,0,0
20933.65,136.673,-5733.34,0,0
21193.975,140.748,-5658.12,0,0
21454.3,153.612,-5593.16,0,0
21714.625,147.579,-5536.74,0,0
21974.9,149.303,-5465.63,0,0
22235.275,146.817,-5421.65,0,0
22495.6,134.15,-5362.15,0,0
22755.925,127.335,-5296.57,0,0
23016.25,124.392,-5234.38,0,0
23276.6,122.288,-5174.14,0,0
23536.9,119.946,-5116.61,0,0
23797.225,118.051,-5059.14,0,0
24057.55,116.469,-5003.08,0,0
24317.875,115.392,-4948.78,0,0
24578.2,113.851,-4895.15,0,0
24838.525,113.133,-4842.39,0,0
25098.85,114.326,-4791.09,0,0
25359.175,112.517,-4743.62,0,0
25619.5,111.203,-4693.89,0,0
25879.8,109.947,-4649.57,0,0
26140.1,107.305,-4600.35,0,0
26400.5,107.145,-4553.73,0,0
26660.8,105.711,-4506.83,0,0
26921.1,105.954,-4463.09,0,0
27181.4,104.72,-4417.75,0,0
27441.8,105.502,-4373.28,0,0
27702.1,109.319,-4328.11,0,0
27962.4,116.31,-4287.67,0,0
28222.7,120.045,-4259.89,0,0
28483.1,112.457,-4223.64,0,0
28743.4,109.415,-4182.87,0,0
29003.7,112.339,-4140.45,0,0
29264,118.387,-4111.09,0,0
29524.4,112.961,-4080.5,0,0
29784.7,107.808,-4048.57,0,0
30045,105.789,-4010.48,0,0
30305.3,101.358,-3977.11,0,0
30565.7,99.2571,-3940.88,0,0
30826,98.0634,-3906.31,0,0
31086.3,97.3189,-3871.76,0,0
31346.6,98.3579,-3838.78,0,0
31607,97.0133,-3806.98,0,0
31867.3,97.3809,-3775.96,0,0
32127.6,99.8399,-3744.86,0,0
32387.9,98.143,-3719.45,0,0
32648.3,96.2656,-3689.19,0,0
32908.6,94.2205,-3661.93,0,0
33168.9,91.5006,-3632.44,0,0
33429.2,89.0157,-3603.27,0,0
33689.6,87.9017,-3574.81,0,0
33949.9,86.6186,-3545.61,0,0
34210.2,86.9286,-3517.88,0,0
34470.5,85.5818,-3491.74,0,0
34730.9,84.1938,-3464.42,0,0
34991.2,83.8524,-3437.36,0,0
35251.5,83.31,-3411.58,0,0
35511.8,82.4783,-3386.38,0,0
35772.2,82.0112,-3360.83,0,0
36032.5,81.111,-3336.16,0,0
36292.8,80.3874,-3311.05,0,0
36553.1,79.8906,-3286.37,0,0
36813.5,79.988,-3262.65,0,0
37073.8,80.3094,-3239.56,0,0
37334.1,78.9264,-3216.52,0,0
37594.4,78.363,-3193.18,0,0
37854.8,78.5374,-3170.92,0,0
38115.1,77.8093,-3148.85,0,0
38375.4,76.546,-3126.45,0,0
38635.7,76.4021,-3104.1,0,0
38896.1,76.9198,-3082.56,0,0
39156.4,76.3022,-3061.66,0,0
39416.7,75.9956,-3040.08,0,0
39677,75.8488,-3018.93,0,0
39937.4,76.6555,-2997.62,0,0
40197.7,78.9629,-2977.21,0,0
40458,80.2111,-2958.93,0,0
40718.3,78.6519,-2941.8,0,0
40978.7,78.5994,-2921.54,0,0
41239,79.9653,-2903.07,0,0
41499.3,81.0685,-2886.35,0,0
41759.6,78.3659,-2869.58,0,0
42020,77.3674,-2851.71,0,0
42280.275,76.0281,-2832.09,0,0
42540.6,78.3575,-2814.49,0,0
42800.925,77.4522,-2800.16,0,0
43061.25,74.6788,-2782.21,0,0
43321.575,75.2244,-2764.54,0,0
43581.9,73.8501,-2748.13,0,0
43842.225,73.2226,-2730.73,0,0
44102.55,72.6057,-2714.68,0,0
44362.875,71.6045,-2697.67,0,0
44623.2,72.0114,-2680.8,0,0
44883.525,71.7761,-2665.52,0,0
45143.85,70.738,-2649.2,0,0
45404.175,70.1934,-2632.93,0,0
45664.5,70.972,-2616.42,0,0
45924.825,71.9311,-2601.66,0,0
46185.15,71.5136,-2587.57,0,0
46445.475,70.2352,-2571.73,0,0
46705.8,70.8659,-2556.99,0,0
46966.125,71.1099,-2542.26,0,0
47226.45,71.1337,-2528.46,0,0
47486.775,70.4324,-2515.31,0,0
47747.1,69.7145,-2501.5,0,0
48007.425,69.0494,-2487.18,0,0
48267.75,68.105,-2474.24,0,0
48528.075,67.2593,-2460.05,0,0
48788.4,66.2627,-2445.89,0,0
49048.725,65.9258,-2431.89,0,0
49309.05,65.6626,-2418.04,0,0
49569.375,64.8265,-2404.81,0,0
49829.7,64.3872,-2390.87,0,0
50090.025,64.3755,-2377.78,0,0
50350.35,63.7857,-2364.35,0,0
50610.675,63.6808,-2351.12,0,0
50871.0,63.5154,-2338.07,0,0
51131.325,63.349,-2325.16,0,0
51391.65,63.2667,-2312.21,0,0
51651.975,63.1061,-2299.42,0,0
51912.3,63.1513,-2286.61,0,0
52172.625,63.601,-2273.64,0,0
52432.95,63.7753,-2261.74,0,0
52693.275,63.8195,-2248.81,0,0
52953.6,64.7871,-2236.06,0,0
53213.925,66.1459,-2224.1,0,0
53474.25,67.1461,-2212.08,0,0
53734.575,68.3998,-2200.47,0,0
53994.9,70.7871,-2189.04,0,0
54255.225,72.9245,-2179.24,0,0
54515.55,75.394,-2170.62,0,0
54775.875,75.2973,-2163.16,0,0
55036.2,73.9005,-2154.9,0,0
55296.525,72.7105,-2145.09,0,0
55556.85,71.4037,-2135.96,0,0
55817.175,69.2311,-2125.61,0,0
56077.5,67.8815,-2115.15,0,0
56337.825,66.493,-2104.36,0,0
56598.15,65.4814,-2092.94,0,0
56858.475,65.0173,-2081.76,0,0
57118.8,65.2367,-2070.55,0,0
57379.125,65.5455,-2060.13,0,0
57639.45,65.5865,-2049.85,0,0
57899.775,65.9138,-2039.51,0,0
58160.1,66.055,-2029.22,0,0
58420.4,66.9273,-2018.96,0,0
58680.7,67.6147,-2010.33,0,0
58941.1,66.6995,-1999.62,0,0
59201.4,68.004,-1988.64,0,0
59461.7,70.1606,-1978.53,0,0
59722,72.5722,-1969.93,0,0
59982.4,74.7851,-1962,0,0
60242.7,75.3612,-1954.36,0,0
60503,77.3592,-1946.46,0,0
60763.3,79.8922,-1940.11,0,0
61023.7,79.9822,-1936.18,0,0
61284,78.2574,-1931.51,0,0
61544.3,73.7036,-1925.09,0,0
61804.6,71.2885,-1915.71,0,0
62065,69.2197,-1907.36,0,0
62325.3,67.668,-1898.72,0,0
62585.6,65.2932,-1889.8,0,0
62845.9,64.2984,-1879.36,0,0
63106.3,64.0886,-1870.58,0,0
63366.6,63.3139,-1861.17,0,0
63626.9,63.4067,-1851.84,0,0
63887.2,63.7924,-1843.75,0,0
64147.6,62.6804,-1835.18,0,0
64407.9,63.0564,-1825.97,0,0
64668.2,63.4501,-1817.48,0,0
64928.5,64.0245,-1809.13,0,0
65188.9,64.3221,-1801.31,0,0
65449.2,64.356,-1793.17,0,0
65709.5,64.5061,-1784.76,0,0
65969.8,65.7077,-1776.35,0,0
66230.2,66.8398,-1769.17,0,0
66490.5,67.4656,-1761.86,0,0
66750.8,67.8591,-1754.78,0,0
67011.1,68.3332,-1747.17,0,0
67271.5,69.7113,-1739.73,0,0
67531.8,70.9944,-1733.41,0,0
67792.1,71.8721,-1727.28,0,0
68052.4,72.7117,-1721.47,0,0
68312.8,73.1817,-1715.89,0,0
68573.1,73.5497,-1710.52,0,0
68833.4,73.202,-1706.15,0,0
69093.7,71.4185,-1701.27,0,0
69354.1,69.1243,-1695.4,0,0
69614.4,67.1881,-1688.31,0,0
69874.7,66.2332,-1680.98,0,0
70135,65.3333,-1674.17,0,0
70395.4,64.0042,-1666.99,0,0
70655.7,63.8274,-1658.88,0,0
70916,64.9696,-1652.54,0,0
71176.3,64.516,-1646.85,0,0
71436.7,63.9163,-1640.97,0,0
71697,63.0105,-1635.41,0,0
71957.3,61.1117,-1629.12,0,0
72217.6,59.6385,-1621.93,0,0
72478,58.6846,-1614.72,0,0
72738.3,57.9678,-1607.82,0,0
72998.6,56.9053,-1600.4,0,0
73258.9,56.6458,-1592.6,0,0
73519.3,57.0013,-1585.38,0,0
73779.6,57.102,-1578.52,0,0
74039.9,57.3573,-1571.6,0,0
74300.225,57.5984,-1565.02,0,0
74560.55,57.9701,-1558.13,0,0
74820.875,58.504,-1551.63,0,0
75081.2,59.202,-1545.07,0,0
75341.525,60.0242,-1539.29,0,0
75601.85,60.2625,-1533.43,0,0
75862.175,60.6088,-1527.42,0,0
76122.5,61.1715,-1521.48,0,0
76382.825,61.6165,-1516.04,0,0
76643.15,61.7916,-1510.32,0,0
76903.475,61.7934,-1504.46,0,0
77163.8,62.7863,-1498.16,0,0
77424.125,63.948,-1492.92,0,0
77684.45,64.8972,-1488.16,0,0
77944.775,65.4721,-1483.81,0,0
78205.1,65.4003,-1479.52,0,0
78465.425,65.1284,-1474.94,0,0
78725.75,64.5951,-1470.48,0,0
78986.075,63.7936,-1465.6,0,0
79246.4,62.9529,-1460.57,0,0
79506.725,62.2316,-1455.3,0,0
79767.05,61.6293,-1449.81,0,0
80027.375,61.1573,-1444.31,0,0
80287.7,60.8587,-1438.85,0,0
80548.025,60.6206,-1433.36,0,0
80808.35,60.6995,-1427.92,0,0
81068.675,60.7004,-1422.84,0,0
81329.0,60.6183,-1417.84,0,0
81589.325,60.4795,-1412.84,0,0
81849.65,60.2173,-1407.86,0,0
82109.975,59.9512,-1402.92,0,0
82370.3,59.6993,-1397.89,0,0
82630.625,59.4002,-1392.9,0,0
82890.95,59.1678,-1387.94,0,0
83151.275,58.891,-1383.03,0,0
83411.6,58.5229,-1378.05,0,0
83671.925,58.2479,-1372.95,0,0
83932.25,58.1028,-1368.07,0,0
84192.575,57.8861,-1363.09,0,0
84452.9,57.6237,-1358.16,0,0
84713.225,57.4661,-1353.23,0,0
84973.55,57.2451,-1348.41,0,0
85233.875,57.0553,-1343.5,0,0
85494.2,56.8297,-1338.77,0,0
85754.525,56.585,-1333.99,0,0
86014.85,56.3382,-1329.14,0,0
86275.175,56.2348,-1324.29,0,0
86535.5,56.11,-1319.63,0,0
86795.825,55.9889,-1314.96,0,0
87056.15,55.662,-1310.35,0,0
87316.475,55.5086,-1305.67,0,0
87576.8,55.2328,-1301.06,0,0
87837.125,54.9724,-1296.54,0,0
88097.45,54.4942,-1291.98,0,0
88357.775,53.8183,-1287.11,0,0
88618.1,53.6376,-1281.98,0,0
88878.425,53.6644,-1277.15,0,0
89138.75,53.5121,-1272.5,0,0
89399.075,53.2332,-1267.72,0,0
89659.4,53.2283,-1262.91,0,0
89919.725,53.2681,-1258.27,0,0
90180,53.2907,-1253.58,0,0
90440.4,53.2204,-1249.06,0,0
90700.7,53.1464,-1244.47,0,0
90961,52.9064,-1239.88,0,0
91221.3,53.0155,-1235.08,0,0
91481.7,53.0926,-1230.49,0,0
91742,53.2439,-1225.87,0,0
92002.3,53.5235,-1221.32,0,0
92262.6,53.8042,-1216.86,0,0
92523,54.0402,-1212.52,0,0
92783.3,54.402,-1208.28,0,0
93043.6,54.6595,-1204.2,0,0
93303.9,54.8868,-1200.22,0,0
93564.3,54.9894,-1196.38,0,0
93824.6,54.8268,-1192.59,0,0
94084.9,54.511,-1188.76,0,0
94345.2,53.9797,-1184.67,0,0
94605.6,53.4423,-1180.38,0,0
94865.9,53.1076,-1175.88,0,0
95126.2,52.8666,-1171.46,0,0
95386.5,52.7036,-1166.85,0,0
95646.9,52.6482,-1162.34,0,0
95907.2,52.6013,-1157.84,0,0
96167.5,52.7405,-1153.36,0,0
96427.8,52.914,-1148.98,0,0
96688.2,53.1104,-1144.78,0,0
96948.5,53.1002,-1140.45,0,0
97208.8,53.2048,-1136.07,0,0
97469.1,53.4057,-1131.78,0,0
97729.5,53.5186,-1127.46,0,0
97989.8,53.7787,-1123,0,0
98250.1,54.1342,-1118.71,0,0
98510.4,54.4571,-1114.49,0,0
98770.8,54.787,-1110.2,0,0
99031.1,55.2365,-1105.94,0,0
99291.4,55.71,-1101.76,0,0
99551.7,56.2552,-1097.66,0,0
99812.1,56.7982,-1093.51,0,0
100072,57.3761,-1089.43,0,0
100333,58.1525,-1085.38,0,0
100593,59.2149,-1081.57,0,0
100853,60.1291,-1078.25,0,0
101114,60.6414,-1075.03,0,0
101374,61.1754,-1071.64,0,0
101634,61.7865,-1068.76,0,0
101895,61.7314,-1066.25,0,0
102155,60.9685,-1063.42,0,0
102415,59.7669,-1059.93,0,0
102676,58.8344,-1055.78,0,0
102936,58.1131,-1051.45,0,0
103196,57.6377,-1046.92,0,0
103457,57.3245,-1042.12,0,0
103717,57.3551,-1037.25,0,0
103977,57.6421,-1032.47,0,0
104238,58.0689,-1027.64,0,0
104498,58.7446,-1022.89,0,0
104758,59.6318,-1018.25,0,0
105019,60.6854,-1013.64,0,0
105279,61.8381,-1009.3,0,0
105539,62.96,-1005.01,0,0
105800,64.2343,-1000.77,0,0
106060,65.6238,-996.741,0,0
106320.175,66.9792,-992.779,0,0
106580.5,68.461,-988.943,0,0
106840.825,69.8931,-985.322,0,0
107101.15,71.1976,-981.826,0,0
107361.475,72.4073,-978.238,0,0
107621.8,73.6073,-974.597,0,0
107882.125,75.0331,-970.832,0,0
108142.45,76.6916,-967.226,0,0
108402.775,78.4086,-963.794,0,0
108663.1,80.0898,-960.497,0,0
108923.425,81.8245,-957.283,0,0
109183.75,83.779,-954.259,0,0
109444.075,85.6735,-951.576,0,0
109704.4,87.3256,-949.08,0,0
109964.725,88.8566,-946.605,0,0
110225.05,90.3811,-944.006,0,0
110485.375,91.952,-941.713,0,0
110745.7,93.2982,-939.555,0,0
111006.025,94.5741,-937.288,0,0
111266.35,95.6674,-935.059,0,0
111526.675,96.8915,-932.9,0,0
111787.0,97.9634,-930.675,0,0
112047.325,99.1921,-928.509,0,0
112307.65,100.364,-926.515,0,0
112567.975,101.439,-924.581,0,0
112828.3,102.419,-922.677,0,0
113088.625,103.417,-920.831,0,0
113348.95,104.328,-919.058,0,0
113609.275,105.06,-917.327,0,0
113869.6,105.764,-915.571,0,0
114129.925,106.351,-913.798,0,0
114390.25,107.056,-911.982,0,0
114650.575,107.683,-910.362,0,0
114910.9,108.172,-908.793,0,0
115171.225,108.55,-907.182,0,0
115431.55,108.855,-905.637,0,0
115691.875,109.017,-903.976,0,0
115952.2,109.145,-902.354,0,0
116212.525,109.15,-900.674,0,0
116472.85,109.14,-899.008,0,0
116733.175,109.061,-897.264,0,0
116993.5,108.831,-895.446,0,0
117253.825,108.564,-893.567,0,0
117514.15,108.267,-891.537,0,0
117774.475,107.945,-889.355,0,0
118034.8,107.619,-887.012,0,0
118295.125,107.451,-884.614,0,0
118555.45,107.373,-882,0,0
118815.775,107.513,-879.216,0,0
119076.1,108.065,-876.478,0,0
119336.425,108.915,-873.832,0,0
119596.75,110.353,-871.553,0,0
119857.075,111.918,-870.075,0,0
120117.4,113.169,-869.33,0,0
120377.725,113.883,-868.984,0,0
120638.05,114.037,-869.136,0,0
120898.375,112.979,-869.176,0,0
121158.7,111.334,-868.442,0,0
121419.025,109.662,-867.054,0,0
121679.35,108.123,-865.287,0,0
121939.675,106.564,-863.225,0,0
122200.0,105.28,-860.882,0,0
122460,104.147,-858.415,0,0
122721,103.246,-855.888,0,0
122981,102.409,-853.408,0,0
123241,101.623,-850.894,0,0
123502,100.906,-848.374,0,0
123762,100.169,-845.813,0,0
124022,99.5332,-843.135,0,0
124283,99.0306,-840.443,0,0
124543,98.6654,-837.818,0,0
124803,98.3662,-835.232,0,0
125064,98.1601,-832.726,0,0
125324,97.9741,-830.372,0,0
125584,97.7678,-828.116,0,0
125845,97.5232,-825.938,0,0
126105,97.209,-823.938,0,0
126365,96.6699,-822.016,0,0
126626,96.0942,-819.952,0,0
126886,95.3933,-817.935,0,0
127146,94.7526,-815.82,0,0
127406,93.9255,-813.707,0,0
127667,93.174,-811.741,0,0
127927,92.2007,-809.877,0,0
128187,90.9082,-808.031,0,0
128448,89.3344,-805.844,0,0
128708,87.6769,-803.359,0,0
128968,86.0201,-800.67,0,0
129229,84.381,-797.747,0,0
129489,82.8584,-794.609,0,0
129749,81.4383,-791.316,0,0
130010,80.1183,-787.912,0,0
130270,78.9539,-784.432,0,0
130530,77.8543,-780.91,0,0
130791,76.7801,-777.283,0,0
131051,75.8728,-773.528,0,0
131311,75.1075,-769.785,0,0
131572,74.4227,-766.033,0,0
131832,73.8057,-762.312,0,0
132092,73.225,-758.506,0,0
132353,72.8062,-754.665,0,0
132613,72.4484,-750.85,0,0
132873,72.1554,-747.065,0,0
133134,71.9107,-743.297,0,0
133394,71.7159,-739.547,0,0
133654,71.4778,-735.713,0,0
133915,71.4437,-731.819,0,0
134175,71.4894,-728.031,0,0
134435,71.5607,-724.248,0,0
134696,71.6585,-720.511,0,0
134956,71.7849,-716.761,0,0
135216,71.9234,-712.911,0,0
135477,72.2769,-709.096,0,0
135737,72.6474,-705.439,0,0
135997,73.0323,-701.824,0,0
136258,73.4418,-698.182,0,0
136518,73.8162,-694.536,0,0
136778,74.2357,-690.895,0,0
137039,74.7985,-687.426,0,0
137299,75.102,-684.059,0,0
137559,75.3501,-680.518,0,0
137819,75.6569,-676.874,0,0
138080,75.9953,-673.164,0,0
138340.125,76.3942,-669.472,0,0
138600.45,76.8167,-665.747,0,0
138860.775,77.2769,-661.942,0,0
139121.1,77.8052,-658.057,0,0
139381.425,78.4913,-654.211,0,0
139641.75,79.2619,-650.432,0,0
139902.075,79.9675,-646.672,0,0
140162.4,80.686,-642.85,0,0
140422.725,81.5221,-638.938,0,0
140683.05,82.4922,-635.066,0,0
140943.375,83.4933,-631.238,0,0
141203.7,84.6149,-627.428,0,0
141464.025,85.7709,-623.725,0,0
141724.35,86.9397,-620.063,0,0
141984.675,88.1177,-616.433,0,0
142245.0,89.2639,-612.8,0,0
142505.325,90.4413,-609.205,0,0
142765.65,91.6227,-605.553,0,0
143025.975,92.8857,-601.892,0,0
143286.3,94.196,-598.322,0,0
143546.625,95.436,-594.705,0,0
143806.95,96.7257,-591.035,0,0
144067.275,98.0762,-587.368,0,0
144327.6,99.477,-583.737,0,0
144587.925,100.882,-580.117,0,0
144848.25,102.271,-576.431,0,0
145108.575,103.742,-572.694,0,0
145368.9,105.315,-568.921,0,0
145629.225,106.967,-565.162,0,0
145889.55,108.666,-561.428,0,0
146149.875,110.458,-557.676,0,0
146410.2,112.316,-553.967,0,0
146670.525,114.252,-550.307,0,0
146930.85,116.123,-546.721,0,0
147191.175,118.013,-543.068,0,0
147451.5,120.019,-539.308,0,0
147711.825,122.156,-535.549,0,0
147972.15,124.392,-531.906,0,0
148232.475,126.612,-528.286,0,0
148492.8,128.898,-524.632,0,0
148753.125,131.233,-520.985,0,0
149013.45,133.695,-517.373,0,0
149273.775,136.087,-513.828,0,0
149534.1,138.396,-510.078,0,0
149794.425,140.992,-506.075,0,0
150054.75,144.025,-502.142,0,0
150315.075,147.168,-498.48,0,0
150575.4,150.32,-494.901,0,0
150835.725,153.519,-491.299,0,0
151096.05,156.919,-487.664,0,0
151356.375,160.516,-484.087,0,0
151616.7,164.385,-480.616,0,0
151877.025,168.363,-477.345,0,0
152137.35,172.492,-474.102,0,0
152397.675,176.998,-471.06,0,0
152658.0,181.657,-468.473,0,0
152918.325,186.241,-466.191,0,0
153178.65,190.856,-464.081,0,0
153438.975,195.589,-462.307,0,0
153699.3,200.204,-460.932,0,0
153959.625,204.634,-459.776,0,0
154219.95,208.969,-458.864,0,0
154480,213.003,-458.194,0,0
154741,216.727,-457.661,0,0
155001,220.103,-456.94,0,0
155261,223.509,-455.957,0,0
155522,227.074,-454.957,0,0
155782,230.854,-454.277,0,0
156042,234.239,-453.932,0,0
156303,237.244,-453.319,0,0
156563,240.373,-452.692,0,0
156823,243.578,-451.86,0,0
157084,246.785,-451.271,0,0
157344,249.923,-450.71,0,0
157604,252.798,-450.183,0,0
157864,255.543,-449.367,0,0
158125,258.525,-448.125,0,0
158385,261.881,-447.007,0,0
158645,265.518,-446.051,0,0
158906,269.277,-445.059,0,0
159166,273.843,-444.471,0,0
159426,278.41,-445.102,0,0
159687,281.871,-446.115,0,0
159947,285.029,-446.831,0,0
160207,288.165,-447.369,0,0
160468,291.36,-448.138,0,0
160728,294.239,-449.266,0,0
160988,296.775,-450.226,0,0
161249,299.318,-451.182,0,0
161509,301.475,-452.469,0,0
161769,303.507,-453.416,0,0
162030,305.25,-454.455,0,0
162290,306.929,-455.415,0,0
162550,308.22,-456.496,0,0
162811,308.985,-457.256,0,0
163071,309.681,-457.473,0,0
163331,310.318,-457.411,0,0
163592,310.763,-457.092,0,0
163852,311.19,-456.192,0,0
164112,311.884,-454.814,0,0
164373,313.046,-452.91,0,0
164633,314.835,-450.957,0,0
164893,316.832,-449.207,0,0
165154,318.958,-447.353,0,0
165414,321.227,-445.019,0,0
165674,324.164,-442.399,0,0
165935,327.991,-439.882,0,0
166195,332.557,-437.781,0,0
166455,337.436,-436.201,0,0
166716,342.837,-434.787,0,0
166976,348.843,-434.08,0,0
167236,355.183,-434.441,0,0
167497,361.075,-435.606,0,0
167757,366.837,-436.996,0,0
168017,372.642,-438.948,0,0
168277,378.222,-441.341,0,0
168538,383.782,-443.909,0,0
168798,389.704,-447.156,0,0
169058,395.66,-451.39,0,0
169319,400.984,-456.718,0,0
169579,405.559,-462.412,0,0
169839,409.926,-468.642,0,0
170100,413.722,-475.866,0,0
170360.075,416.387,-483.858,0,0
170620.4,417.734,-492.294,0,0
170880.725,417.585,-500.653,0,0
171141.05,416.364,-508.438,0,0
171401.375,414.604,-515.681,0,0
171661.7,412.392,-523.004,0,0
171922.025,409.008,-530.432,0,0
172182.35,404.309,-537.13,0,0
172442.675,398.832,-542.916,0,0
172703.0,392.8,-547.695,0,0
172963.325,386.462,-551.609,0,0
173223.65,379.792,-554.82,0,0
173483.975,372.716,-557.056,0,0
173744.3,365.631,-558.117,0,0
174004.625,358.971,-558.324,0,0
174264.95,352.488,-558.117,0,0
174525.275,346.151,-557.162,0,0
174785.6,340.096,-555.777,0,0
175045.925,334.067,-553.984,0,0
175306.25,328.038,-551.4,0,0
175566.575,322.498,-547.943,0,0
175826.9,317.676,-543.946,0,0
176087.225,313.407,-539.723,0,0
176347.55,309.641,-535.207,0,0
176607.875,306.437,-530.547,0,0
176868.2,303.724,-525.753,0,0
177128.525,301.508,-520.973,0,0
177388.85,299.614,-516.233,0,0
177649.175,298.04,-511.495,0,0
177909.5,296.81,-506.764,0,0
178169.825,295.816,-502.037,0,0
178430.15,295.174,-497.301,0,0
178690.475,294.871,-492.62,0,0
178950.8,294.844,-488.046,0,0
179211.125,295.085,-483.564,0,0
179471.45,295.62,-479.286,0,0
179731.775,296.361,-475.244,0,0
179992.1,297.154,-471.433,0,0
180252.425,298.014,-467.803,0,0
180512.75,298.831,-464.365,0,0
180773.075,299.639,-460.951,0,0
181033.4,300.472,-457.63,0,0
181293.725,301.323,-454.4,0,0
181554.05,302.155,-451.239,0,0
181814.375,302.904,-448.117,0,0
182074.7,303.604,-445.028,0,0
182335.025,304.216,-441.973,0,0
182595.35,304.686,-438.833,0,0
182855.675,305.05,-435.551,0,0
183116.0,305.373,-432.048,0,0
183376.325,305.757,-428.297,0,0
183636.65,306.307,-424.394,0,0
183896.975,306.937,-420.381,0,0
184157.3,307.712,-416.188,0,0
184417.625,308.71,-411.905,0,0
184677.95,309.876,-407.575,0,0
184938.275,311.205,-403.223,0,0
185198.6,312.677,-398.953,0,0
185458.925,314.174,-394.694,0,0
185719.25,315.643,-390.396,0,0
185979.575,317.072,-385.945,0,0
186239.9,318.595,-381.269,0,0
186500,320.285,-376.435,0,0
186761,322.131,-371.469,0,0
187021,324.193,-366.334,0,0
187281,326.436,-361.015,0,0
187542,328.844,-355.605,0,0
187802,331.631,-350.08,0,0
188062,334.68,-344.598,0,0
188322,337.829,-339.046,0,0
188583,341.217,-333.377,0,0
188843,344.845,-327.612,0,0
189103,348.778,-321.821,0,0
189364,352.922,-315.85,0,0
189624,357.419,-309.816,0,0
189884,362.269,-303.744,0,0
190145,367.517,-297.679,0,0
190405,373.069,-291.592,0,0
190665,378.995,-285.626,0,0
190926,385.224,-279.642,0,0
191186,391.825,-273.645,0,0
191446,398.888,-267.61,0,0
191707,406.413,-261.793,0,0
191967,414.461,-256.037,0,0
192227,422.927,-250.658,0,0
192488,431.697,-245.47,0,0
192748,440.863,-240.454,0,0
193008,450.393,-235.851,0,0
193269,460.252,-231.482,0,0
193529,470.398,-227.439,0,0
193789,480.962,-223.661,0,0
194050,491.72,-220.26,0,0
194310,502.612,-217.267,0,0
194570,513.613,-214.386,0,0
194831,525.042,-211.629,0,0
195091,536.748,-209.274,0,0
195351,548.794,-207.038,0,0
195612,561.168,-205.078,0,0
195872,573.994,-203.359,0,0
196132,587.313,-202.02,0,0
196393,601.052,-201.128,0,0
196653,615.172,-200.7,0,0
196913,629.76,-200.672,0,0
197174,644.911,-201.202,0,0
197434,660.476,-202.451,0,0
197694,676.428,-204.358,0,0
197955,692.672,-206.964,0,0
198215,709.399,-210.094,0,0
198475,726.817,-213.884,0,0
198735,745.172,-218.828,0,0
198996,764.084,-225.502,0,0
199256,783.038,-233.927,0,0
199516,801.672,-244.062,0,0
199777,819.709,-255.661,0,0
200037,837.216,-268.545,0,0
200297,854.07,-282.717,0,0
200558,870.131,-298.359,0,0
200818,885.18,-315.14,0,0
201078,899.209,-332.985,0,0
201339,912.026,-352.012,0,0
201599,923.277,-371.891,0,0
201859,932.995,-392.076,0,0
202120,941.462,-412.449,0,0
202380.025,949.146,-432.878,0,0
202640.35,955.465,-453.755,0,0
202900.675,960.819,-474.77,0,0
203161.0,965.408,-496.329,0,0
203421.325,968.644,-518.386,0,0
203681.65,970.002,-540.823,0,0
203941.975,969.363,-562.637,0,0
204202.3,967.682,-583.274,0,0
204462.625,965.815,-603.212,0,0
204722.95,963.301,-623.243,0,0
204983.275,959.987,-643.42,0,0
205243.6,955.239,-663.398,0,0
205503.925,949.432,-682.358,0,0
205764.25,943.479,-700.763,0,0
206024.575,936.976,-719.217,0,0
206284.9,929.28,-737.574,0,0
206545.225,920.734,-755.402,0,0
206805.55,911.248,-773.035,0,0
207065.875,900.374,-789.836,0,0
207326.2,888.512,-806.064,0,0
207586.525,875.756,-820.911,0,0
207846.85,862.301,-834.629,0,0
208107.175,848.595,-847.371,0,0
208367.5,834.401,-859.291,0,0
208627.825,819.302,-870.129,0,0
208888.15,803.781,-879.328,0,0
209148.475,788.272,-887.058,0,0
209408.8,773.2,-893.305,0,0
209669.125,758.745,-898.597,0,0
209929.45,744.759,-903.162,0,0
210189.775,730.91,-907.113,0,0
210450.1,717.453,-910.234,0,0
210710.425,704.371,-912.504,0,0
210970.75,691.991,-914.134,0,0
211231.075,680.213,-915.294,0,0
211491.4,668.96,-916.278,0,0
211751.725,657.969,-917.003,0,0
212012.05,647.348,-917.339,0,0
212272.375,636.972,-917.165,0,0
212532.7,627.13,-916.854,0,0
212793.025,617.414,-916.352,0,0
213053.35,607.692,-915.157,0,0
213313.675,598.648,-913.032,0,0
213574.0,590.719,-910.606,0,0
213834.325,583.701,-908.094,0,0
214094.65,577.538,-905.659,0,0
214354.975,572.131,-903.673,0,0
214615.3,567.289,-902.174,0,0
214875.625,562.702,-901.447,0,0
215135.95,558.078,-901.067,0,0
215396.275,553.537,-901.051,0,0
215656.6,548.77,-901.502,0,0
215916.925,543.682,-901.915,0,0
216177.25,538.342,-902.282,0,0
216437.575,532.897,-902.384,0,0
216697.9,527.612,-902.284,0,0
216958.225,522.628,-901.987,0,0
217218.55,517.874,-901.913,0,0
217478.875,513.058,-902.058,0,0
217739.2,508.228,-902.184,0,0
217999.525,503.361,-902.238,0,0
218259.85,498.654,-902.328,0,0
218520,493.983,-902.602,0,0
218780,489.208,-902.918,0,0
219041,484.287,-903.127,0,0
219301,479.362,-903.387,0,0
219561,474.436,-903.522,0,0
219822,469.272,-903.862,0,0
220082,463.907,-903.828,0,0
220342,458.643,-903.674,0,0
220603,453.266,-903.102,0,0
220863,448.133,-902.22,0,0
221123,443.272,-901.233,0,0
221384,438.668,-900.361,0,0
221644,434.164,-899.546,0,0
221904,429.578,-898.735,0,0
222165,424.999,-897.8,0,0
222425,420.535,-896.618,0,0
222685,416.415,-895.324,0,0
222946,412.589,-894.124,0,0
223206,409.063,-893.054,0,0
223466,405.605,-892.194,0,0
223727,402.27,-891.788,0,0
223987,398.702,-891.529,0,0
224247,395.018,-891.396,0,0
224508,391.215,-891.226,0,0
224768,387.253,-891.181,0,0
225028,383.268,-891.14,0,0
225289,379.152,-891.131,0,0
225549,374.743,-891.176,0,0
225809,370.228,-891.021,0,0
226070,365.639,-890.818,0,0
226330,360.904,-890.601,0,0
226590,356.11,-890.207,0,0
226851,351.066,-889.757,0,0
227111,345.907,-889.15,0,0
227371,340.552,-888.257,0,0
227632,335.234,-887.096,0,0
227892,329.872,-885.697,0,0
228152,324.425,-884.044,0,0
228413,319.11,-882.085,0,0
228673,313.872,-879.786,0,0
228933,308.956,-877.271,0,0
229193,304.102,-874.689,0,0
229454,299.468,-871.942,0,0
229714,295.051,-869.07,0,0
229974,290.876,-866.135,0,0
230235,286.694,-863.274,0,0
230495,282.585,-860.213,0,0
230755,278.489,-857.107,0,0
231016,274.568,-853.777,0,0
231276,270.991,-850.351,0,0
231536,267.621,-846.891,0,0
231797,264.422,-843.452,0,0
232057,261.418,-840.13,0,0
232317,258.453,-836.858,0,0
232578,255.526,-833.58,0,0
232838,252.655,-830.29,0,0
233098,249.863,-826.903,0,0
233359,247.143,-823.491,0,0
233619,244.65,-819.874,0,0
233879,242.399,-816.301,0,0
234140,240.436,-812.822,0,0
234400,238.497,-809.567,0,0
234660.3,236.582,-806.185,0,0
234920.625,234.816,-803.073,0,0
235180.95,233.111,-799.921,0,0
235441.275,231.373,-796.96,0,0
235701.6,229.709,-793.985,0,0
235961.925,227.859,-790.991,0,0
236222.25,226.158,-787.864,0,0
236482.575,224.541,-784.68,0,0
236742.9,223.008,-781.467,0,0
237003.225,221.65,-778.22,0,0
237263.55,220.435,-774.972,0,0
237523.875,219.407,-771.805,0,0
237784.2,218.439,-768.737,0,0
238044.525,217.577,-765.723,0,0
238304.85,216.797,-762.773,0,0
238565.175,216.081,-759.848,0,0
238825.5,215.464,-757.059,0,0
239085.825,214.917,-754.335,0,0
239346.15,214.437,-751.72,0,0
239606.475,214.029,-749.185,0,0
239866.8,213.569,-746.67,0,0
240127.125,213.195,-744.233,0,0
240387.45,212.821,-741.909,0,0
240647.775,212.62,-739.648,0,0
240908.1,212.379,-737.52,0,0
241168.425,212.193,-735.521,0,0
241428.75,211.973,-733.633,0,0
241689.075,211.713,-731.789,0,0
241949.4,211.392,-730.063,0,0
242209.725,211.11,-728.393,0,0
242470.05,210.746,-726.885,0,0
242730.375,210.31,-725.369,0,0
242990.7,209.868,-723.962,0,0
243251.025,209.276,-722.614,0,0
243511.35,208.591,-721.277,0,0
243771.675,207.828,-719.946,0,0
244032.0,206.966,-718.655,0,0
244292.325,205.946,-717.317,0,0
244552.65,204.857,-715.844,0,0
244812.975,203.713,-714.292,0,0
245073.3,202.581,-712.612,0,0
245333.625,201.495,-710.964,0,0
245593.95,200.309,-709.249,0,0
245854.275,199.132,-707.42,0,0
246114.6,198.019,-705.476,0,0
246374.925,196.935,-703.491,0,0
246635.25,195.801,-701.492,0,0
246895.575,194.718,-699.3,0,0
247155.9,193.745,-697.05,0,0
247416.225,192.908,-694.772,0,0
247676.55,192.159,-692.497,0,0
247936.875,191.444,-690.225,0,0
248197.2,190.778,-687.907,0,0
248457.525,190.243,-685.613,0,0
248717.85,189.852,-683.232,0,0
248978.175,189.564,-680.956,0,0
249238.5,189.335,-678.729,0,0
249498.825,189.223,-676.596,0,0
249759.15,189.106,-674.67,0,0
250019.475,189.052,-672.694,0,0
250279.8,188.959,-670.928,0,0
250540,188.8,-669.283,0,0
250800,188.489,-667.71,0,0
251061,188.005,-666.11,0,0
251321,187.461,-664.49,0,0
251581,186.873,-662.776,0,0
251842,186.228,-660.942,0,0
252102,185.509,-659.054,0,0
252362,184.827,-657.062,0,0
252623,184.198,-654.926,0,0
252883,183.614,-652.734,0,0
253143,183.156,-650.571,0,0
253404,182.689,-648.433,0,0
253664,182.227,-646.329,0,0
253924,181.674,-644.222,0,0
254185,180.986,-642.038,0,0
254445,180.27,-639.651,0,0
254705,179.457,-637.112,0,0
254966,178.774,-634.179,0,0
255226,178.217,-631.216,0,0
255486,177.857,-628.027,0,0
255747,177.679,-624.857,0,0
256007,177.577,-621.581,0,0
256267,177.641,-618.169,0,0
256528,177.865,-614.638,0,0
256788,178.334,-611.032,0,0
257048,178.97,-607.36,0,0
257309,179.96,-603.657,0,0
257569,181.156,-599.972,0,0
257829,182.548,-596.329,0,0
258090,184.139,-592.687,0,0
258350,185.995,-589.072,0,0
258610,188.153,-585.484,0,0
258871,190.621,-582.034,0,0
259131,193.391,-578.825,0,0
259391,196.276,-575.825,0,0
259651,199.342,-573.035,0,0
259912,202.479,-570.522,0,0
260172,205.698,-568.009,0,0
260432,209.063,-565.672,0,0
260693,212.612,-563.534,0,0
260953,216.271,-561.555,0,0
261213,220.108,-559.742,0,0
261474,224.121,-558.11,0,0
261734,228.119,-556.858,0,0
261994,232.414,-555.607,0,0
262255,236.974,-554.674,0,0
262515,241.777,-554.212,0,0
262775,246.644,-554.283,0,0
263036,251.421,-554.962,0,0
263296,255.887,-556.122,0,0
263556,259.933,-557.665,0,0
263817,263.673,-559.269,0,0
264077,267.094,-560.918,0,0
264337,270.395,-562.587,0,0
264598,273.536,-564.255,0,0
264858,276.685,-565.903,0,0
265118,279.834,-567.662,0,0
265379,283.064,-569.44,0,0
265639,286.425,-571.442,0,0
265899,289.869,-573.685,0,0
266160,293.306,-576.263,0,0
266420,296.778,-579.35,0,0
266680.25,300.057,-582.846,0,0
266940.575,303.093,-586.761,0,0
267200.9,305.891,-591.101,0,0
267461.225,308.233,-595.925,0,0
267721.55,309.97,-601.039,0,0
267981.875,311.163,-606.296,0,0
268242.2,311.728,-611.653,0,0
268502.525,311.713,-616.988,0,0
268762.85,311.126,-622.232,0,0
269023.175,309.967,-627.258,0,0
269283.5,308.299,-631.962,0,0
269543.825,306.24,-636.254,0,0
269804.15,303.837,-640.075,0,0
270064.475,301.37,-643.397,0,0
270324.8,298.958,-646.304,0,0
270585.125,296.664,-648.9,0,0
270845.45,294.531,-651.36,0,0
271105.775,292.492,-653.808,0,0
271366.1,290.462,-656.465,0,0
271626.425,288.157,-658.963,0,0
271886.75,285.692,-661.487,0,0
272147.075,283.002,-663.757,0,0
272407.4,280.149,-665.738,0,0
272667.725,277.303,-667.382,0,0
272928.05,274.662,-668.778,0,0
273188.375,272.211,-670.121,0,0
273448.7,269.914,-671.489,0,0
273709.025,267.706,-673.014,0,0
273969.35,265.352,-674.748,0,0
274229.675,262.732,-676.604,0,0
274490.0,259.887,-678.375,0,0
274750.325,256.842,-680.054,0,0
275010.65,253.563,-681.656,0,0
275270.975,250.039,-683.085,0,0
275531.3,246.286,-684.367,0,0
275791.625,242.27,-685.432,0,0
276051.95,238.008,-686.123,0,0
276312.275,233.512,-686.44,0,0
276572.6,228.984,-686.262,0,0
276832.925,224.502,-685.621,0,0
277093.25,220.063,-684.544,0,0
277353.575,215.808,-683.017,0,0
277613.9,211.778,-681.068,0,0
277874.225,208.017,-678.689,0,0
278134.55,204.716,-675.925,0,0
278394.875,201.953,-672.919,0,0
278655.2,199.699,-669.898,0,0
278915.525,197.907,-666.852,0,0
279175.85,196.626,-663.894,0,0
279436.175,195.838,-661.316,0,0
279696.5,195.181,-659.076,0,0
279956.825,194.705,-657.29,0,0
280217.15,193.989,-655.805,0,0
280477.475,193.081,-654.34,0,0
280737.8,192.052,-652.769,0,0
280998.125,191.096,-651.072,0,0
281258.45,190.295,-649.263,0,0
281518.775,189.697,-647.446,0,0
281779.1,189.275,-645.705,0,0
282039.425,189.03,-644.098,0,0
282299.75,188.883,-642.587,0,0
282560,188.866,-641.186,0,0
282820,189.034,-639.973,0,0
283081,189.252,-639.081,0,0
283341,189.373,-638.463,0,0
283601,189.407,-638.002,0,0
283862,189.32,-637.687,0,0
284122,189.054,-637.531,0,0
284382,188.614,-637.47,0,0
284643,188.001,-637.444,0,0
284903,187.167,-637.438,0,0
285163,186.168,-637.482,0,0
285424,184.851,-637.413,0,0
285684,183.321,-637.233,0,0
285944,181.541,-636.734,0,0
286205,179.686,-635.854,0,0
286465,178.025,-634.633,0,0
286725,176.594,-633.286,0,0
286986,175.275,-631.953,0,0
287246,173.888,-630.614,0,0
287506,172.444,-629.107,0,0
287767,170.994,-627.353,0,0
288027,169.678,-625.314,0,0
288287,168.561,-623.04,0,0
288548,167.719,-620.594,0,0
288808,167.15,-618.007,0,0
289068,166.941,-615.369,0,0
289329,167.02,-612.753,0,0
289589,167.389,-610.188,0,0
289849,167.981,-607.675,0,0
290109,168.92,-605.199,0,0
290370,170.147,-602.908,0,0
290630,171.735,-600.763,0,0
290890,173.55,-598.923,0,0
291151,175.597,-597.4,0,0
291411,177.785,-596.216,0,0
291671,180.075,-595.42,0,0
291932,182.386,-594.956,0,0
292192,184.69,-594.804,0,0
292452,186.953,-594.986,0,0
292713,189.135,-595.517,0,0
292973,191.221,-596.336,0,0
293233,193.187,-597.462,0,0
293494,194.974,-598.893,0,0
293754,196.553,-600.606,0,0
294014,197.871,-602.621,0,0
294275,198.894,-604.871,0,0
294535,199.532,-607.325,0,0
294795,199.686,-609.921,0,0
295056,199.446,-612.493,0,0
295316,198.754,-615.014,0,0
295576,197.708,-617.351,0,0
295837,196.35,-619.466,0,0
296097,194.782,-621.371,0,0
296357,193.038,-623.043,0,0
296618,191.117,-624.479,0,0
296878,189.102,-625.668,0,0
297138,187.031,-626.584,0,0
297399,184.978,-627.27,0,0
297659,183.007,-627.764,0,0
297919,181.09,-628.172,0,0
298180,179.217,-628.499,0,0
298440,177.354,-628.737,0,0
298700.2,175.482,-628.907,0,0
298960.525,173.648,-628.987,0,0
299220.85,171.796,-629.006,0,0
299481.175,169.969,-628.927,0,0
299741.5,168.123,-628.801,0,0
300001.825,166.301,-628.594,0,0
300262.15,164.469,-628.277,0,0
300522.475,162.709,-627.896,0,0
300782.8,160.944,-627.429,0,0
301043.125,159.27,-626.884,0,0
301303.45,157.651,-626.31,0,0
301563.775,156.081,-625.707,0,0
301824.1,154.538,-625.11,0,0
302084.425,153.027,-624.482,0,0
302344.75,151.518,-623.833,0,0
302605.075,150.017,-623.174,0,0
302865.4,148.492,-622.474,0,0
303125.725,146.956,-621.741,0,0
303386.05,145.414,-620.924,0,0
303646.375,143.888,-619.997,0,0
303906.7,142.442,-618.992,0,0
304167.025,141.071,-617.904,0,0
304427.35,139.747,-616.851,0,0
304687.675,138.507,-615.774,0,0
304948.0,137.296,-614.659,0,0
305208.325,136.141,-613.539,0,0
305468.65,135.004,-612.37,0,0
305728.975,133.89,-611.203,0,0
305989.3,132.863,-609.952,0,0
306249.625,131.895,-608.693,0,0
306509.95,131.011,-607.415,0,0
306770.275,130.218,-606.156,0,0
307030.6,129.497,-604.891,0,0
307290.925,128.848,-603.658,0,0
307551.25,128.274,-602.469,0,0
307811.575,127.783,-601.356,0,0
308071.9,127.326,-600.291,0,0
308332.225,126.891,-599.341,0,0
308592.55,126.453,-598.447,0,0
308852.875,125.965,-597.616,0,0
309113.2,125.44,-596.836,0,0
309373.525,124.887,-596.075,0,0
309633.85,124.25,-595.301,0,0
309894.175,123.589,-594.53,0,0
310154.5,122.912,-593.679,0,0
310414.825,122.226,-592.807,0,0
310675.15,121.566,-591.888,0,0
310935.475,120.922,-590.973,0,0
311195.8,120.303,-590.048,0,0
311456.125,119.687,-589.117,0,0
311716.45,119.108,-588.142,0,0
311976.775,118.548,-587.168,0,0
312237.1,118.016,-586.184,0,0
312497.425,117.526,-585.164,0,0
312757.75,117.085,-584.14,0,0
313018.075,116.725,-583.118,0,0
313278.4,116.432,-582.141,0,0
313538.725,116.175,-581.238,0,0
313799.05,115.924,-580.401,0,0
314059.375,115.647,-579.619,0,0
314319.7,115.393,-578.88,0,0
314580,115.024,-578.133,0,0
314840,114.742,-577.448,0,0
315101,114.43,-576.755,0,0
315361,114.019,-575.967,0,0
315621,113.864,-575.178,0,0
315882,113.487,-574.509,0,0
316142,113.228,-573.806,0,0
316402,112.936,-573.116,0,0
316663,112.713,-572.458,0,0
316923,112.495,-571.91,0,0
317183,112.208,-571.254,0,0
317444,111.978,-570.646,0,0
317704,111.739,-570.066,0,0
317964,111.531,-569.578,0,0
318225,111.393,-569.126,0,0
318485,111.211,-568.688,0,0
318745,111.081,-568.372,0,0
319006,110.741,-568.159,0,0
319266,110.446,-567.957,0,0
319526,110.147,-567.863,0,0
319787,109.655,-567.636,0,0
320047,109.05,-567.647,0,0
320307,108.528,-567.533,0,0
320567,107.804,-567.441,0,0
320828,106.974,-567.388,0,0
321088,106.127,-567.325,0,0
321348,105.223,-567.195,0,0
321609,104.14,-566.888,0,0
321869,102.995,-566.584,0,0
322129,101.818,-566.294,0,0
322390,100.632,-565.909,0,0
322650,99.3279,-565.383,0,0
322910,97.9016,-564.733,0,0
323171,96.5942,-563.937,0,0
323431,95.3011,-563.042,0,0
323691,94.0794,-562.028,0,0
323952,92.9131,-560.874,0,0
324212,91.806,-559.797,0,0
324472,90.7989,-558.705,0,0
324733,89.7147,-557.486,0,0
324993,88.7566,-556.177,0,0
325253,87.8852,-554.916,0,0
325514,87.0139,-553.542,0,0
325774,86.2307,-552.276,0,0
326034,85.4944,-550.892,0,0
326295,84.8871,-549.603,0,0
326555,84.2198,-548.351,0,0
326815,83.6417,-547.006,0,0
327076,83.0545,-545.687,0,0
327336,82.4711,-544.418,0,0
327596,81.9745,-543.126,0,0
327857,81.3991,-541.796,0,0
328117,80.821,-540.445,0,0
328377,80.3892,-539.048,0,0
328638,79.9259,-537.594,0,0
328898,79.4223,-536.109,0,0
329158,79.1114,-534.617,0,0
329419,78.951,-533.144,0,0
329679,78.7316,-531.553,0,0
329939,78.6973,-530.099,0,0
330200,78.68,-528.6,0,0
330460,78.7363,-527.211,0,0
330720.15,78.9313,-525.826,0,0
330980.475,79.1349,-524.46,0,0
331240.8,79.447,-523.249,0,0
331501.125,79.8685,-522.061,0,0
331761.45,80.2491,-521.086,0,0
332021.775,80.6828,-520.226,0,0
332282.1,81.0529,-519.431,0,0
332542.425,81.3198,-518.776,0,0
332802.75,81.5739,-518.12,0,0
333063.075,81.6944,-517.657,0,0
333323.4,81.6894,-517.1,0,0
333583.725,81.7114,-516.599,0,0
333844.05,81.6345,-516.026,0,0
334104.375,81.4827,-515.466,0,0
334364.7,81.25,-515.007,0,0
334625.025,80.9194,-514.371,0,0
334885.35,80.6612,-513.703,0,0
335145.675,80.3325,-513.064,0,0
335406.0,80.0008,-512.381,0,0
335666.325,79.6623,-511.597,0,0
335926.65,79.2084,-510.775,0,0
336186.975,78.8572,-509.967,0,0
336447.3,78.5202,-509.098,0,0
336707.625,78.1412,-508.149,0,0
336967.95,77.8333,-507.247,0,0
337228.275,77.4181,-506.311,0,0
337488.6,77.0921,-505.291,0,0
337748.925,76.7538,-504.2,0,0
338009.25,76.4036,-503.09,0,0
338269.575,76.0276,-502,0,0
338529.9,75.7666,-500.787,0,0
338790.225,75.533,-499.527,0,0
339050.55,75.3136,-498.182,0,0
339310.875,75.2672,-496.798,0,0
339571.2,75.2743,-495.399,0,0
339831.525,75.3834,-494.086,0,0
340091.85,75.5235,-492.755,0,0
340352.175,75.7176,-491.416,0,0
340612.5,75.9976,-490.039,0,0
340872.825,76.4278,-488.778,0,0
341133.15,76.8188,-487.477,0,0
341393.475,77.4026,-486.26,0,0
341653.8,77.9907,-485.049,0,0
341914.125,78.6668,-483.947,0,0
342174.45,79.4365,-482.944,0,0
342434.775,80.2401,-481.998,0,0
342695.1,81.0316,-481.122,0,0
342955.425,81.8549,-480.472,0,0
343215.75,82.6705,-479.801,0,0
343476.075,83.4912,-479.302,0,0
343736.4,84.2534,-478.916,0,0
343996.725,85.0384,-478.512,0,0
344257.05,85.7203,-478.25,0,0
344517.375,86.4317,-477.986,0,0
344777.7,87.0255,-477.906,0,0
345038.025,87.5474,-477.771,0,0
345298.35,88.0498,-477.747,0,0
345558.675,88.452,-477.726,0,0
345819.0,88.7991,-477.717,0,0
346079.325,89.0662,-477.735,0,0
346339.65,89.2558,-477.77,0,0
346599.975,89.4132,-477.847,0,0
346860,89.523,-477.878,0,0
347121,89.5001,-477.965,0,0
347381,89.4384,-477.982,0,0
347641,89.2852,-477.952,0,0
347902,89.1644,-477.875,0,0
348162,89.0036,-477.769,0,0
348422,88.78,-477.656,0,0
348683,88.5852,-477.529,0,0
348943,88.319,-477.441,0,0
349203,88.0797,-477.29,0,0
349464,87.8299,-477.076,0,0
349724,87.4987,-476.888,0,0
349984,87.151,-476.666,0,0
350245,86.7222,-476.467,0,0
350505,86.2845,-476.106,0,0
350765,85.8183,-475.841,0,0
351025,85.3373,-475.387,0,0
351286,84.8509,-474.871,0,0
351546,84.4617,-474.312,0,0
351806,84.0407,-473.698,0,0
352067,83.6927,-473.075,0,0
352327,83.3457,-472.324,0,0
352587,83.1221,-471.646,0,0
352848,82.9246,-471.018,0,0
353108,82.7092,-470.358,0,0
353368,82.5499,-469.725,0,0
353629,82.3912,-469.162,0,0
353889,82.2618,-468.478,0,0
354149,82.1113,-467.907,0,0
354410,81.9457,-467.307,0,0
354670,81.7428,-466.719,0,0
354930,81.533,-466.118,0,0
355191,81.3638,-465.443,0,0
355451,81.2483,-464.76,0,0
355711,81.0814,-464.097,0,0
355972,81.022,-463.4,0,0
356232,80.9345,-462.732,0,0
356492,80.8951,-462.053,0,0
356753,80.8934,-461.414,0,0
357013,80.9042,-460.833,0,0
357273,80.7893,-460.263,0,0
357534,80.854,-459.732,0,0
357794,80.8159,-459.231,0,0
358054,80.7623,-458.75,0,0
358315,80.6158,-458.259,0,0
358575,80.5451,-457.757,0,0
358835,80.3523,-457.256,0,0
359096,80.1756,-456.743,0,0
359356,79.975,-456.216,0,0
359616,79.7095,-455.593,0,0
359877,79.4836,-454.942,0,0
360137,79.1853,-454.273,0,0
360397,78.9571,-453.567,0,0
360658,78.813,-452.779,0,0
360918,78.69,-451.967,0,0
361178,78.59,-451.138,0,0
361438,78.5135,-450.407,0,0
361699,78.4918,-449.619,0,0
361959,78.4824,-448.839,0,0
362219,78.4772,-448.114,0,0
362480,78.4867,-447.379,0,0
362740.1,78.4789,-446.699,0,0
363000.425,78.4707,-445.921,0,0
363260.75,78.5222,-445.18,0,0
363521.075,78.5494,-444.464,0,0
363781.4,78.5386,-443.667,0,0
364041.725,78.5884,-442.909,0,0
364302.05,78.6224,-442.223,0,0
364562.375,78.6092,-441.441,0,0
364822.7,78.6514,-440.678,0,0
365083.025,78.6923,-439.856,0,0
365343.35,78.7452,-439.088,0,0
365603.675,78.8517,-438.252,0,0
365864.0,78.8229,-437.428,0,0
366124.325,78.9536,-436.538,0,0
366384.65,79.0894,-435.731,0,0
366644.975,79.224,-434.777,0,0
366905.3,79.393,-433.906,0,0
367165.625,79.5785,-432.959,0,0
367425.95,79.8098,-431.957,0,0
367686.275,80.1183,-430.947,0,0
367946.6,80.5283,-429.928,0,0
368206.925,80.9604,-428.97,0,0
368467.25,81.4537,-428,0,0
368727.575,81.9843,-427.089,0,0
368987.9,82.5569,-426.155,0,0
369248.225,83.2275,-425.275,0,0
369508.55,83.843,-424.33,0,0
369768.875,84.5947,-423.437,0,0
370029.2,85.4377,-422.544,0,0
370289.525,86.3238,-421.725,0,0
370549.85,87.3781,-420.976,0,0
370810.175,88.4776,-420.307,0,0
371070.5,89.6608,-419.71,0,0
371330.825,90.9499,-419.268,0,0
371591.15,92.2053,-418.959,0,0
371851.475,93.4788,-418.865,0,0
372111.8,94.7406,-418.871,0,0
372372.125,95.9759,-419.039,0,0
372632.45,97.1359,-419.33,0,0
372892.775,98.2017,-419.763,0,0
373153.1,99.1375,-420.291,0,0
373413.425,99.9681,-420.866,0,0
373673.75,100.653,-421.59,0,0
373934.075,101.213,-422.201,0,0
374194.4,101.597,-422.935,0,0
374454.725,101.918,-423.543,0,0
374715.05,102.139,-424.116,0,0
374975.375,102.323,-424.772,0,0
375235.7,102.338,-425.311,0,0
375496.025,102.4,-425.827,0,0
375756.35,102.392,-426.26,0,0
376016.675,102.365,-426.757,0,0
376277.0,102.201,-427.205,0,0
376537.325,102.02,-427.581,0,0
376797.65,101.847,-427.872,0,0
377057.975,101.583,-428.073,0,0
377318.3,101.322,-428.196,0,0
377578.625,101.189,-428.271,0,0
377838.95,101.073,-428.329,0,0
378099.275,101.003,-428.432,0,0
378359.6,100.945,-428.576,0,0
378619.925,100.931,-428.649,0,0
378880,100.918,-428.849,0,0
379141,100.812,-429.075,0,0
379401,100.751,-429.269,0,0
379661,100.565,-429.531,0,0
379922,100.324,-429.816,0,0
380182,100.068,-429.954,0,0
380442,99.6374,-430.124,0,0
380703,99.3208,-430.14,0,0
380963,99.0125,-430.162,0,0
381223,98.6999,-430.016,0,0
381483,98.5394,-429.863,0,0
381744,98.4368,-429.798,0,0
382004,98.4292,-429.687,0,0
382264,98.4575,-429.791,0,0
382525,98.4052,-429.867,0,0
382785,98.3254,-430.006,0,0
383045,98.3386,-430.164,0,0
383306,98.2529,-430.335,0,0
383566,98.2383,-430.616,0,0
383826,98.1532,-430.948,0,0
384087,98.0182,-431.337,0,0
384347,97.7828,-431.813,0,0
384607,97.4729,-432.334,0,0
384868,97.0029,-432.88,0,0
385128,96.4445,-433.492,0,0
385388,95.7293,-433.945,0,0
385649,94.8832,-434.4,0,0
385909,94.0206,-434.728,0,0
386169,92.9407,-434.972,0,0
386430,91.9027,-435.093,0,0
386690,90.7577,-435.07,0,0
386950,89.6616,-434.962,0,0
387211,88.5213,-434.637,0,0
387471,87.4706,-434.236,0,0
387731,86.4543,-433.731,0,0
387992,85.5474,-433.032,0,0
388252,84.7251,-432.339,0,0
388512,84.0227,-431.562,0,0
388773,83.4525,-430.786,0,0
389033,82.9817,-429.976,0,0
389293,82.6568,-429.177,0,0
389554,82.4506,-428.448,0,0
389814,82.3165,-427.785,0,0
390074,82.2039,-427.278,0,0
390335,82.1405,-426.804,0,0
390595,82.0719,-426.477,0,0
390855,81.9748,-426.188,0,0
391116,81.9055,-426.063,0,0
391376,81.7247,-425.976,0,0
391636,81.4688,-425.902,0,0
391896,81.093,-425.862,0,0
392157,80.6612,-425.763,0,0
392417,80.169,-425.745,0,0
392677,79.6699,-425.66,0,0
392938,79.1384,-425.591,0,0
393198,78.4906,-425.443,0,0
393458,77.8412,-425.321,0,0
393719,77.0849,-425.164,0,0
393979,76.2959,-424.906,0,0
394239,75.496,-424.613,0,0
394500,74.7326,-424.203,0,0
394760.05,73.8884,-423.741,0,0
395020.375,73.0525,-423.301,0,0
395280.7,72.2668,-422.788,0,0
395541.025,71.4795,-422.168,0,0
395801.35,70.7064,-421.555,0,0
396061.675,69.9578,-420.985,0,0
396322.0,69.1728,-420.189,0,0
396582.325,68.4206,-419.473,0,0
396842.65,67.7148,-418.645,0,0
397102.975,67.0475,-417.823,0,0
397363.3,66.3915,-416.989,0,0
397623.625,65.7903,-416.06,0,0
397883.95,65.1997,-415.167,0,0
398144.275,64.5682,-414.25,0,0
398404.6,64.0931,-413.228,0,0
398664.925,63.563,-412.22,0,0
398925.25,63.0423,-411.195,0,0
399185.575,62.6622,-410.124,0,0
399445.9,62.2795,-409.077,0,0
399706.225,62.0004,-407.964,0,0
399966.55,61.6694,-406.922,0,0
400006.6,61.6671,-406.713,0,0