File: Accelerated corrosion test data/2025-10-15_18-00-03/sample_3.csv
Frequency (Hz),Impedance (ohms),Phase (Radians),Temperature (C),Humidity (%)
10000.0,250.992,-11860.4,0,0
10260.325,244.64,-11561,0,0
10520.65,239.031,-11277.6,0,0
10780.975,235.157,-11005.5,0,0
11041.3,228.749,-10752.1,0,0
11301.625,223.63,-10505.6,0,0
11561.95,218.323,-10270,0,0
11822.275,214.324,-10045.2,0,0
12082.6,211.352,-9830.55,0,0
12342.925,210.046,-9623.6,0,0
12603.25,202.716,-9428.72,0,0
12863.575,198.901,-9237.22,0,0
13123.9,198.902,-9052.97,0,0
13384.225,192.377,-8883.7,0,0
13644.55,189.549,-8713.86,0,0
13904.875,185.717,-8550.2,0,0
14165.2,185.254,-8393.29,0,0
14425.525,180.151,-8243.43,0,0
14685.8,178.496,-8097.33,0,0
14946.175,175.405,-7956.29,0,0
15206.5,173.015,-7815.17,0,0
15466.825,182.447,-7674.68,0,0
15727.15,190.199,-7575.22,0,0
15987.5,172.4,-7460.32,0,0
16247.8,167.448,-7330.58,0,0
16508.125,161.282,-7217.16,0,0
16768.45,167.881,-7096.27,0,0
17028.775,157.498,-6996.68,0,0
17289.1,161.588,-6882.84,0,0
17549.425,156.076,-6791.29,0,0
17809.75,157.237,-6685.06,0,0
18070.075,161.393,-6599.85,0,0
18330.4,150.881,-6504,0,0
18590.725,147.91,-6412.07,0,0
18851.05,144.805,-6321.3,0,0
19111.375,146.36,-6232.42,0,0
19371.7,144.702,-6147.93,0,0
19632.025,145.738,-6062.95,0,0
19892.35,152.067,-5983.73,0,0
20152.675,146.484,-5906.23,0,0
20413.0,160.941,-5826.53,0,0
20673.3,162.842,-5765.53,0,0
20933.65,164.149,-5708.48,0,0
21193.975,159.833,-5642.07,0,0
21454.3,145.028,-5581.3,0,0
21714.625,138.438,-5505.4,0,0
21974.9,143.077,-5439.46,0,0
22235.275,138.678,-5380.52,0,0
22495.6,136.6,-5318.26,0,0
22755.925,129.156,-5257.61,0,0
23016.25,128.077,-5198.22,0,0
23276.6,128.092,-5135.97,0,0
23536.9,128.871,-5089.64,0,0
23797.225,121.052,-5030.6,0,0
24057.55,119.02,-4973.18,0,0
24317.875,119.257,-4917.56,0,0
24578.2,116.865,-4867.04,0,0
24838.525,117.808,-4813.93,0,0
25098.85,115.165,-4767.1,0,0
25359.175,113.676,-4716.43,0,0
25619.5,113.761,-4668.72,0,0
25879.8,110.723,-4621.52,0,0
26140.1,108.462,-4573.83,0,0
26400.5,107.806,-4526.74,0,0
26660.8,107.943,-4481.03,0,0
26921.1,108.396,-4437.26,0,0
27181.4,108.083,-4396.27,0,0
27441.8,107.283,-4352.41,0,0
27702.1,108.45,-4312.49,0,0
27962.4,105.62,-4272.2,0,0
28222.7,103.909,-4228.67,0,0
28483.1,110.8,-4186.26,0,0
28743.4,113.891,-4151.41,0,0
29003.7,115.314,-4121.56,0,0
29264,107.88,-4088.17,0,0
29524.4,108.761,-4050.95,0,0
29784.7,104.12,-4015.79,0,0
30045,102,-3981.5,0,0
30305.3,100.558,-3944.15,0,0
30565.7,102.149,-3910.17,0,0
30826,101.285,-3878.23,0,0
31086.3,102.226,-3844.27,0,0
31346.6,98.722,-3814.44,0,0
31607,97.8195,-3780.27,0,0
31867.3,98.2014,-3745.64,0,0
32127.6,101.572,-3712.12,0,0
32387.9,110.23,-3684.13,0,0
32648.3,112.396,-3665.77,0,0
32908.6,104.055,-3641.76,0,0
33168.9,100.923,-3614.26,0,0
33429.2,99.1566,-3587.45,0,0
33689.6,93.3647,-3559.66,0,0
33949.9,90.825,-3529.07,0,0
34210.2,90.4638,-3501.21,0,0
34470.5,90.1073,-3474.53,0,0
34730.9,87.9998,-3448.8,0,0
34991.2,86.3389,-3421.57,0,0
35251.5,85.4583,-3395.35,0,0
35511.8,85.0432,-3369.97,0,0
35772.2,84.1111,-3344.83,0,0
36032.5,83.2283,-3319.77,0,0
36292.8,82.7322,-3295.26,0,0
36553.1,82.4232,-3271.4,0,0
36813.5,81.4705,-3248.08,0,0
37073.8,80.8374,-3224.57,0,0
37334.1,80.042,-3201.4,0,0
37594.4,80.0163,-3178.69,0,0
37854.8,79.2318,-3156.47,0,0
38115.1,78.7501,-3134.15,0,0
38375.4,78.2138,-3112.35,0,0
38635.7,77.95,-3090.68,0,0
38896.1,77.2333,-3069.6,0,0
39156.4,77.1778,-3048.7,0,0
39416.7,77.0218,-3028.19,0,0
39677,76.1794,-3007.89,0,0
39937.4,75.5604,-2987.63,0,0
40197.7,75.2605,-2967.58,0,0
40458,74.9518,-2948.18,0,0
40718.3,74.629,-2928.54,0,0
40978.7,74.3533,-2909.22,0,0
41239,74.336,-2890.19,0,0
41499.3,74.0526,-2871.59,0,0
41759.6,74.3364,-2853.01,0,0
42020,73.766,-2835.71,0,0
42280.275,73.5919,-2817.44,0,0
42540.6,72.9277,-2800.03,0,0
42800.925,73.1823,-2782.2,0,0
43061.25,72.6204,-2765.48,0,0
43321.575,71.8062,-2748.22,0,0
43581.9,71.836,-2730.97,0,0
43842.225,71.7422,-2713.7,0,0
44102.55,71.6832,-2697.35,0,0
44362.875,72.0356,-2681.52,0,0
44623.2,71.3299,-2665.38,0,0
44883.525,71.2007,-2649.45,0,0
45143.85,70.976,-2633.93,0,0
45404.175,70.4254,-2618.29,0,0
45664.5,70.3502,-2602.37,0,0
45924.825,70.8458,-2587.1,0,0
46185.15,70.4294,-2572.85,0,0
46445.475,69.5834,-2557.64,0,0
46705.8,69.5331,-2542.36,0,0
46966.125,69.6543,-2528.03,0,0
47226.45,69.4064,-2513.68,0,0
47486.775,69.4437,-2499.1,0,0
47747.1,69.9161,-2484.52,0,0
48007.425,70.2346,-2471.58,0,0
48267.75,70.2401,-2458.15,0,0
48528.075,69.5605,-2445.12,0,0
48788.4,69.2942,-2431.91,0,0
49048.725,68.5013,-2418.72,0,0
49309.05,67.832,-2404.94,0,0
49569.375,67.8239,-2391.67,0,0
49829.7,67.5934,-2379.01,0,0
50090.025,67.0658,-2366.37,0,0
50350.35,66.6088,-2353.14,0,0
50610.675,66.2987,-2340.15,0,0
50871.0,66.2154,-2327.32,0,0
51131.325,66.1311,-2314.82,0,0
51391.65,65.9111,-2302.39,0,0
51651.975,66.1659,-2289.97,0,0
51912.3,66.2226,-2278.19,0,0
52172.625,65.8898,-2266.08,0,0
52432.95,65.8679,-2253.89,0,0
52693.275,66.0206,-2241.79,0,0
52953.6,66.4378,-2229.94,0,0
53213.925,67.1343,-2218.19,0,0
53474.25,67.8676,-2207.32,0,0
53734.575,68.0646,-2196.52,0,0
53994.9,68.2059,-2185.5,0,0
54255.225,69.4269,-2174.59,0,0
54515.55,70.3561,-2165.68,0,0
54775.875,69.4168,-2156.19,0,0
55036.2,68.6428,-2146.51,0,0
55296.525,67.964,-2136.77,0,0
55556.85,66.6858,-2127.03,0,0
55817.175,65.0973,-2116.42,0,0
56077.5,64.2575,-2105.75,0,0
56337.825,63.4734,-2095.25,0,0
56598.15,62.4585,-2084.65,0,0
56858.475,61.7233,-2073.88,0,0
57118.8,61.2558,-2063.07,0,0
57379.125,61.0938,-2052.44,0,0
57639.45,60.9365,-2041.92,0,0
57899.775,61.1923,-2031.66,0,0
58160.1,61.224,-2021.51,0,0
58420.4,60.9882,-2011.63,0,0
58680.7,61.105,-2001.57,0,0
58941.1,61.1445,-1991.63,0,0
59201.4,61.2534,-1981.73,0,0
59461.7,61.6137,-1972.07,0,0
59722,61.8978,-1962.47,0,0
59982.4,62.1714,-1953.12,0,0
60242.7,62.5327,-1943.75,0,0
60503,62.6399,-1934.46,0,0
60763.3,63.0938,-1925.13,0,0
61023.7,63.3738,-1915.98,0,0
61284,63.7154,-1906.93,0,0
61544.3,64.3532,-1897.77,0,0
61804.6,64.8316,-1889.19,0,0
62065,64.942,-1880.07,0,0
62325.3,65.7357,-1871.13,0,0
62585.6,66.0928,-1862.4,0,0
62845.9,66.8367,-1853.43,0,0
63106.3,67.9031,-1844.49,0,0
63366.6,69.0126,-1836.28,0,0
63626.9,69.9066,-1827.28,0,0
63887.2,71.4372,-1818.89,0,0
64147.6,72.6935,-1810.28,0,0
64407.9,75.1401,-1801.63,0,0
64668.2,77.9605,-1794.1,0,0
64928.5,80.5965,-1786.72,0,0
65188.9,84.5756,-1781,0,0
65449.2,87.3313,-1775.75,0,0
65709.5,89.3615,-1771.97,0,0
65969.8,92.1619,-1768.79,0,0
66230.2,91.8205,-1769.15,0,0
66490.5,85.8465,-1766.93,0,0
66750.8,81.0974,-1759.91,0,0
67011.1,78.2357,-1751.42,0,0
67271.5,75.8138,-1743.28,0,0
67531.8,74.8938,-1734.83,0,0
67792.1,74.9892,-1726.46,0,0
68052.4,74.9878,-1718.66,0,0
68312.8,76.2624,-1711.57,0,0
68573.1,76.2911,-1705.55,0,0
68833.4,76.2295,-1698.83,0,0
69093.7,77.1016,-1692.39,0,0
69354.1,77.4031,-1686.99,0,0
69614.4,76.9821,-1681.73,0,0
69874.7,76.0771,-1676.06,0,0
70135,75.248,-1670.28,0,0
70395.4,74.5066,-1664.36,0,0
70655.7,73.2717,-1658.44,0,0
70916,71.8598,-1652.1,0,0
71176.3,70.8412,-1645.37,0,0
71436.7,70.2004,-1638.73,0,0
71697,69.3201,-1631.78,0,0
71957.3,69.4605,-1624.91,0,0
72217.6,69.551,-1618.61,0,0
72478,69.6772,-1612.55,0,0
72738.3,69.685,-1606.77,0,0
72998.6,69.4947,-1601.24,0,0
73258.9,68.8414,-1595.56,0,0
73519.3,68.429,-1589.79,0,0
73779.6,68.0709,-1584.06,0,0
74039.9,67.4521,-1578.66,0,0
74300.225,66.6056,-1572.97,0,0
74560.55,65.918,-1567.22,0,0
74820.875,65.1483,-1561.56,0,0
75081.2,64.4127,-1555.75,0,0
75341.525,63.6423,-1549.97,0,0
75601.85,62.8711,-1544.08,0,0
75862.175,62.1374,-1538.19,0,0
76122.5,61.4641,-1532.25,0,0
76382.825,60.8234,-1526.38,0,0
76643.15,60.2619,-1520.41,0,0
76903.475,59.6527,-1514.6,0,0
77163.8,59.2575,-1508.79,0,0
77424.125,58.7707,-1503.06,0,0
77684.45,58.2855,-1497.27,0,0
77944.775,57.7608,-1491.54,0,0
78205.1,57.2656,-1485.82,0,0
78465.425,56.7803,-1480.06,0,0
78725.75,56.4127,-1474.33,0,0
78986.075,56.0689,-1468.65,0,0
79246.4,55.6402,-1462.93,0,0
79506.725,55.2462,-1457.31,0,0
79767.05,54.9598,-1451.54,0,0
80027.375,54.6678,-1445.99,0,0
80287.7,54.489,-1440.39,0,0
80548.025,54.1986,-1434.92,0,0
80808.35,53.9864,-1429.41,0,0
81068.675,53.7676,-1423.95,0,0
81329.0,53.609,-1418.51,0,0
81589.325,53.4245,-1413.01,0,0
81849.65,53.3211,-1407.65,0,0
82109.975,53.1753,-1402.29,0,0
82370.3,53.0283,-1396.99,0,0
82630.625,53.0068,-1391.72,0,0
82890.95,52.8677,-1386.46,0,0
83151.275,52.7919,-1381.18,0,0
83411.6,52.7164,-1376.04,0,0
83671.925,52.6278,-1370.82,0,0
83932.25,52.5822,-1365.68,0,0
84192.575,52.6045,-1360.63,0,0
84452.9,52.5646,-1355.56,0,0
84713.225,52.5332,-1350.52,0,0
84973.55,52.4887,-1345.41,0,0
85233.875,52.5064,-1340.48,0,0
85494.2,52.4931,-1335.49,0,0
85754.525,52.5622,-1330.55,0,0
86014.85,52.6142,-1325.66,0,0
86275.175,52.6125,-1320.76,0,0
86535.5,52.6214,-1315.86,0,0
86795.825,52.6806,-1311.05,0,0
87056.15,52.709,-1306.22,0,0
87316.475,52.7875,-1301.33,0,0
87576.8,52.9442,-1296.52,0,0
87837.125,53.0818,-1291.67,0,0
88097.45,53.2209,-1287,0,0
88357.775,53.3555,-1282.29,0,0
88618.1,53.3858,-1277.43,0,0
88878.425,53.7032,-1272.64,0,0
89138.75,54.0549,-1267.86,0,0
89399.075,54.4503,-1263.21,0,0
89659.4,54.9949,-1258.52,0,0
89919.725,55.5401,-1254.15,0,0
90180,56.0898,-1249.87,0,0
90440.4,56.4021,-1245.67,0,0
90700.7,56.8145,-1241.35,0,0
90961,57.2848,-1237,0,0
91221.3,57.7583,-1232.86,0,0
91481.7,58.246,-1228.72,0,0
91742,58.6848,-1224.58,0,0
92002.3,59.0925,-1220.61,0,0
92262.6,59.7202,-1216.51,0,0
92523,60.3704,-1212.58,0,0
92783.3,60.9849,-1208.94,0,0
93043.6,61.3851,-1205.3,0,0
93303.9,61.9721,-1201.61,0,0
93564.3,62.6986,-1198.29,0,0
93824.6,63.2853,-1195.29,0,0
94084.9,63.6852,-1192.73,0,0
94345.2,63.091,-1190.08,0,0
94605.6,62.5905,-1186.97,0,0
94865.9,62.1015,-1184.04,0,0
95126.2,60.995,-1181.18,0,0
95386.5,59.3356,-1177.43,0,0
95646.9,58.277,-1173.17,0,0
95907.2,57.5439,-1169,0,0
96167.5,56.7837,-1164.66,0,0
96427.8,56.442,-1160.09,0,0
96688.2,56.3975,-1155.76,0,0
96948.5,56.38,-1151.67,0,0
97208.8,56.2645,-1147.61,0,0
97469.1,56.2897,-1143.62,0,0
97729.5,56.1641,-1139.66,0,0
97989.8,56.1179,-1135.7,0,0
98250.1,56.0478,-1131.79,0,0
98510.4,56.0247,-1127.86,0,0
98770.8,56.0791,-1124.03,0,0
99031.1,56.056,-1120.31,0,0
99291.4,55.8476,-1116.53,0,0
99551.7,55.6436,-1112.65,0,0
99812.1,55.5563,-1108.73,0,0
100072,55.4778,-1104.85,0,0
100333,55.385,-1100.89,0,0
100593,55.2191,-1097.01,0,0
100853,55.1198,-1092.92,0,0
101114,55.1566,-1088.84,0,0
101374,55.2641,-1084.78,0,0
101634,55.446,-1080.65,0,0
101895,55.7214,-1076.54,0,0
102155,56.0431,-1072.42,0,0
102415,56.5457,-1068.21,0,0
102676,57.4862,-1064.16,0,0
102936,58.5022,-1060.54,0,0
103196,59.3074,-1057.28,0,0
103457,59.8595,-1053.92,0,0
103717,60.5111,-1050.57,0,0
103977,61.1544,-1047.08,0,0
104238,62.14,-1043.85,0,0
104498,63.2022,-1041.18,0,0
104758,63.5267,-1038.91,0,0
105019,63.6142,-1036.24,0,0
105279,63.5602,-1033.44,0,0
105539,63.633,-1030.58,0,0
105800,63.6156,-1027.93,0,0
106060,63.4192,-1025.16,0,0
106320.175,63.0463,-1022.31,0,0
106580.5,62.7054,-1019.28,0,0
106840.825,62.3389,-1016.28,0,0
107101.15,61.812,-1013.13,0,0
107361.475,61.4337,-1009.84,0,0
107621.8,61.0071,-1006.62,0,0
107882.125,60.6112,-1003.22,0,0
108142.45,60.2296,-999.828,0,0
108402.775,59.8694,-996.36,0,0
108663.1,59.5013,-992.801,0,0
108923.425,59.191,-989.078,0,0
109183.75,59.0316,-985.313,0,0
109444.075,59.0637,-981.505,0,0
109704.4,59.1628,-977.887,0,0
109964.725,59.1541,-974.22,0,0
110225.05,59.2626,-970.494,0,0
110485.375,59.3788,-966.67,0,0
110745.7,59.8422,-962.813,0,0
111006.025,60.4465,-959.25,0,0
111266.35,61.1294,-955.899,0,0
111526.675,61.4052,-952.553,0,0
111787.0,61.9316,-949.16,0,0
112047.325,62.4708,-945.877,0,0
112307.65,62.9153,-942.719,0,0
112567.975,63.3995,-939.575,0,0
112828.3,63.6693,-936.422,0,0
113088.625,64.0062,-933.217,0,0
113348.95,64.3491,-930.041,0,0
113609.275,64.6149,-926.9,0,0
113869.6,64.8716,-923.674,0,0
114129.925,65.2043,-920.413,0,0
114390.25,65.4465,-917.196,0,0
114650.575,65.7488,-913.756,0,0
114910.9,66.1133,-910.324,0,0
115171.225,66.6354,-906.839,0,0
115431.55,67.3113,-903.427,0,0
115691.875,67.998,-900.271,0,0
115952.2,68.4915,-896.978,0,0
116212.525,69.1427,-893.546,0,0
116472.85,69.9512,-890.079,0,0
116733.175,70.9891,-886.715,0,0
116993.5,71.9847,-883.64,0,0
117253.825,72.8713,-880.553,0,0
117514.15,73.7589,-877.203,0,0
117774.475,75.1281,-873.682,0,0
118034.8,77.0252,-870.702,0,0
118295.125,78.7128,-868.273,0,0
118555.45,80.1641,-866.118,0,0
118815.775,81.1284,-864.013,0,0
119076.1,82.0598,-861.413,0,0
119336.425,83.5109,-858.704,0,0
119596.75,85.4203,-856.482,0,0
119857.075,87.2078,-854.924,0,0
120117.4,88.8726,-853.797,0,0
120377.725,89.7945,-853.411,0,0
120638.05,89.8269,-852.598,0,0
120898.375,89.779,-851.558,0,0
121158.7,89.2802,-850.404,0,0
121419.025,88.4453,-848.849,0,0
121679.35,87.4841,-846.771,0,0
121939.675,86.7512,-844.149,0,0
122200.0,86.456,-841.283,0,0
122460,86.4885,-838.589,0,0
122721,86.5693,-835.947,0,0
122981,86.75,-833.248,0,0
123241,87.1997,-830.629,0,0
123502,87.6383,-828.332,0,0
123762,87.9061,-826.052,0,0
124022,88.1876,-823.739,0,0
124283,88.5229,-821.454,0,0
124543,88.8263,-819.237,0,0
124803,89.1063,-817.045,0,0
125064,89.4599,-814.868,0,0
125324,89.7127,-812.799,0,0
125584,89.995,-810.685,0,0
125845,90.3043,-808.756,0,0
126105,90.4408,-806.936,0,0
126365,90.3719,-805.167,0,0
126626,90.1244,-803.214,0,0
126886,89.8938,-801.103,0,0
127146,89.7226,-798.979,0,0
127406,89.5523,-796.924,0,0
127667,89.2994,-794.819,0,0
127927,88.9708,-792.641,0,0
128187,88.6891,-790.449,0,0
128448,88.1334,-788.185,0,0
128708,87.6664,-785.741,0,0
128968,87.2975,-783.145,0,0
129229,87.0248,-780.477,0,0
129489,86.9027,-777.878,0,0
129749,86.689,-775.265,0,0
130010,86.4622,-772.496,0,0
130270,86.6094,-769.571,0,0
130530,87.0064,-766.877,0,0
130791,87.4439,-764.49,0,0
131051,87.7253,-762.328,0,0
131311,87.8301,-760.242,0,0
131572,87.824,-758.135,0,0
131832,87.597,-756.003,0,0
132092,87.3698,-753.693,0,0
132353,87.1143,-751.307,0,0
132613,86.982,-748.858,0,0
132873,86.9117,-746.466,0,0
133134,86.7699,-744.176,0,0
133394,86.5668,-741.834,0,0
133654,86.3021,-739.54,0,0
133915,85.8684,-737.16,0,0
134175,85.5249,-734.53,0,0
134435,85.2931,-731.932,0,0
134696,85.0466,-729.43,0,0
134956,84.6966,-726.829,0,0
135216,84.3875,-724.154,0,0
135477,84.1859,-721.408,0,0
135737,83.9915,-718.801,0,0
135997,83.6647,-716.165,0,0
136258,83.2345,-713.463,0,0
136518,82.7744,-710.428,0,0
136778,82.5861,-707.254,0,0
137039,82.6223,-704.15,0,0
137299,82.7167,-701.144,0,0
137559,82.8415,-698.158,0,0
137819,83.0392,-695.26,0,0
138080,83.2505,-692.382,0,0
138340.125,83.5566,-689.55,0,0
138600.45,83.8799,-686.852,0,0
138860.775,84.1361,-684.363,0,0
139121.1,84.1629,-681.893,0,0
139381.425,84.0439,-679.387,0,0
139641.75,83.8348,-676.744,0,0
139902.075,83.5994,-673.884,0,0
140162.4,83.4767,-670.963,0,0
140422.725,83.5064,-668.05,0,0
140683.05,83.5155,-665.292,0,0
140943.375,83.3568,-662.499,0,0
141203.7,83.1637,-659.623,0,0
141464.025,82.9582,-656.658,0,0
141724.35,82.6844,-653.621,0,0
141984.675,82.4856,-650.391,0,0
142245.0,82.4037,-647.136,0,0
142505.325,82.3099,-643.924,0,0
142765.65,82.2269,-640.612,0,0
143025.975,82.1809,-637.225,0,0
143286.3,82.2271,-633.796,0,0
143546.625,82.3191,-630.344,0,0
143806.95,82.4382,-626.855,0,0
144067.275,82.5681,-623.345,0,0
144327.6,82.7233,-619.734,0,0
144587.925,83.0024,-616.064,0,0
144848.25,83.3875,-612.404,0,0
145108.575,83.8214,-608.751,0,0
145368.9,84.2758,-605.175,0,0
145629.225,84.6992,-601.553,0,0
145889.55,85.0817,-597.84,0,0
146149.875,85.5469,-593.979,0,0
146410.2,86.2184,-590.078,0,0
146670.525,86.9258,-586.296,0,0
146930.85,87.5745,-582.425,0,0
147191.175,88.3153,-578.465,0,0
147451.5,89.1246,-574.454,0,0
147711.825,90.0967,-570.328,0,0
147972.15,91.2415,-566.246,0,0
148232.475,92.472,-562.233,0,0
148492.8,93.7257,-558.238,0,0
148753.125,95.0135,-554.208,0,0
149013.45,96.3535,-550.117,0,0
149273.775,97.8014,-545.894,0,0
149534.1,99.5202,-541.579,0,0
149794.425,101.535,-537.315,0,0
150054.75,103.75,-533.299,0,0
150315.075,106.058,-529.389,0,0
150575.4,108.449,-525.667,0,0
150835.725,110.873,-522.048,0,0
151096.05,113.35,-518.516,0,0
151356.375,115.879,-515.1,0,0
151616.7,118.503,-511.78,0,0
151877.025,121.216,-508.662,0,0
152137.35,123.917,-505.818,0,0
152397.675,126.422,-503.125,0,0
152658.0,128.774,-500.439,0,0
152918.325,131.186,-497.732,0,0
153178.65,133.591,-495.214,0,0
153438.975,135.735,-492.837,0,0
153699.3,137.715,-490.328,0,0
153959.625,139.743,-487.729,0,0
154219.95,141.826,-485.272,0,0
154480,143.606,-483.058,0,0
154741,144.804,-480.6,0,0
155001,145.866,-477.423,0,0
155261,147.351,-473.719,0,0
155522,149.515,-469.929,0,0
155782,151.988,-466.565,0,0
156042,154.384,-463.412,0,0
156303,156.503,-460.44,0,0
156563,158.403,-457.016,0,0
156823,160.73,-453.104,0,0
157084,163.875,-449.139,0,0
157344,167.525,-445.733,0,0
157604,171.269,-443.113,0,0
157864,174.671,-441.046,0,0
158125,177.786,-439.188,0,0
158385,180.286,-438.016,0,0
158645,181.689,-436.488,0,0
158906,182.763,-434.267,0,0
159166,183.349,-431.517,0,0
159426,183.944,-427.813,0,0
159687,184.644,-423.502,0,0
159947,185.67,-418.066,0,0
160207,187.936,-411.913,0,0
160468,191.485,-405.863,0,0
160728,195.836,-400.445,0,0
160988,200.136,-395.992,0,0
161249,203.591,-391.245,0,0
161509,207.619,-385.164,0,0
161769,213.522,-379.047,0,0
162030,220.16,-374.514,0,0
162290,225.972,-370.511,0,0
162550,232.119,-365.955,0,0
162811,238.621,-361.79,0,0
163071,245.148,-357.517,0,0
163331,252.339,-352.932,0,0
163592,260.635,-348.504,0,0
163852,269.779,-344.887,0,0
164112,279.262,-341.98,0,0
164373,289.003,-339.708,0,0
164633,299.258,-338.007,0,0
164893,310.262,-336.955,0,0
165154,322.031,-337.651,0,0
165414,332.815,-340.297,0,0
165674,342.475,-343.072,0,0
165935,352.213,-345.953,0,0
166195,362.006,-349.633,0,0
166455,371.733,-354.413,0,0
166716,380.751,-360.428,0,0
166976,388.517,-367.238,0,0
167236,395.321,-374.098,0,0
167497,401.415,-381.101,0,0
167757,406.831,-388.091,0,0
168017,411.954,-395.287,0,0
168277,416.396,-403.012,0,0
168538,420.213,-410.614,0,0
168798,423.497,-418.145,0,0
169058,426.57,-426.527,0,0
169319,428.35,-435.998,0,0
169579,427.902,-445.46,0,0
169839,425.503,-453.886,0,0
170100,421.949,-460.475,0,0
170360.075,418.288,-465.331,0,0
170620.4,414.848,-469.014,0,0
170880.725,411.817,-471.803,0,0
171141.05,408.976,-474.037,0,0
171401.375,406.23,-475.235,0,0
171661.7,404.64,-475.523,0,0
171922.025,403.987,-476.106,0,0
172182.35,403.383,-476.903,0,0
172442.675,402.872,-477.122,0,0
172703.0,403.223,-476.528,0,0
172963.325,405.461,-476.192,0,0
173223.65,408.684,-477.851,0,0
173483.975,411.036,-481.204,0,0
173744.3,411.806,-484.882,0,0
174004.625,411.833,-487.576,0,0
174264.95,412.546,-489.559,0,0
174525.275,414.208,-492.341,0,0
174785.6,415.21,-496.651,0,0
175045.925,414.622,-500.941,0,0
175306.25,413.229,-504.034,0,0
175566.575,412.767,-506.093,0,0
175826.9,413.392,-508.912,0,0
176087.225,413.683,-513.004,0,0
176347.55,412.811,-517.565,0,0
176607.875,411.538,-521.881,0,0
176868.2,409.752,-527.022,0,0
177128.525,406.024,-532.457,0,0
177388.85,400.574,-536.354,0,0
177649.175,394.926,-538.53,0,0
177909.5,389.743,-539.958,0,0
178169.825,384.084,-540.826,0,0
178430.15,378.155,-540.079,0,0
178690.475,373.149,-537.797,0,0
178950.8,369.434,-534.94,0,0
179211.125,366.775,-532.17,0,0
179471.45,364.423,-529.511,0,0
179731.775,362.519,-526.386,0,0
179992.1,361.912,-523.132,0,0
180252.425,362.144,-520.78,0,0
180512.75,362.239,-518.975,0,0
180773.075,362.527,-517.301,0,0
181033.4,363.201,-515.753,0,0
181293.725,364.441,-514.689,0,0
181554.05,366.031,-514.604,0,0
181814.375,367.318,-515.724,0,0
182074.7,367.505,-517.734,0,0
182335.025,366.194,-519.76,0,0
182595.35,364.24,-520.859,0,0
182855.675,362.29,-521.442,0,0
183116.0,360.389,-521.956,0,0
183376.325,358.129,-522.619,0,0
183636.65,355.162,-523.047,0,0
183896.975,351.65,-522.775,0,0
184157.3,348.118,-521.465,0,0
184417.625,345.289,-519.663,0,0
184677.95,342.475,-518.036,0,0
184938.275,339.206,-516.028,0,0
185198.6,335.988,-513.198,0,0
185458.925,333.216,-509.73,0,0
185719.25,331.101,-505.913,0,0
185979.575,329.192,-501.99,0,0
186239.9,327.59,-497.722,0,0
186500,326.386,-493.048,0,0
186761,326.052,-488.005,0,0
187021,326.669,-483.332,0,0
187281,327.532,-479.175,0,0
187542,328.727,-475.271,0,0
187802,330.153,-471.721,0,0
188062,331.592,-468.598,0,0
188322,333.037,-465.639,0,0
188583,334.528,-463.074,0,0
188843,335.501,-460.901,0,0
189103,335.792,-458.203,0,0
189364,336.289,-454.679,0,0
189624,337.536,-450.794,0,0
189884,339.57,-447.153,0,0
190145,341.874,-444.228,0,0
190405,343.904,-441.632,0,0
190665,345.813,-439.093,0,0
190926,347.606,-436.593,0,0
191186,349.43,-434.122,0,0
191446,351.102,-431.669,0,0
191707,352.618,-428.995,0,0
191967,354.334,-426.078,0,0
192227,356.205,-423.289,0,0
192488,357.751,-420.416,0,0
192748,359.19,-416.99,0,0
193008,361.046,-412.854,0,0
193269,363.665,-408.34,0,0
193529,367.205,-403.94,0,0
193789,371.334,-399.974,0,0
194050,375.699,-396.317,0,0
194310,380.398,-392.819,0,0
194570,385.577,-389.651,0,0
194831,391.072,-386.931,0,0
195091,396.82,-384.44,0,0
195351,402.912,-382.378,0,0
195612,409.693,-380.755,0,0
195872,416.685,-380.219,0,0
196132,423.487,-380.688,0,0
196393,429.91,-381.957,0,0
196653,435.989,-384.067,0,0
196913,441.053,-387.236,0,0
197174,444.336,-390.391,0,0
197434,446.824,-392.376,0,0
197694,449.483,-393.778,0,0
197955,452.293,-394.997,0,0
198215,455.022,-396.16,0,0
198475,457.89,-397.201,0,0
198735,460.804,-398.68,0,0
198996,462.994,-400.275,0,0
199256,464.819,-401.356,0,0
199516,466.85,-402.088,0,0
199777,469.111,-403.137,0,0
200037,470.586,-404.489,0,0
200297,471.21,-405.256,0,0
200558,471.425,-404.889,0,0
200818,472.021,-403.258,0,0
201078,473.784,-400.878,0,0
201339,476.42,-398.635,0,0
201599,479.629,-396.539,0,0
201859,483.2,-394.579,0,0
202120,487.169,-392.572,0,0
202380.025,491.758,-390.659,0,0
202640.35,497.092,-389.041,0,0
202900.675,502.922,-388.108,0,0
203161.0,508.802,-387.777,0,0
203421.325,514.81,-387.843,0,0
203681.65,520.91,-388.391,0,0
203941.975,527.132,-389.401,0,0
204202.3,533.349,-390.907,0,0
204462.625,539.544,-393.19,0,0
204722.95,545.318,-396.111,0,0
204983.275,550.542,-399.358,0,0
205243.6,555.29,-403.061,0,0
205503.925,559.13,-406.759,0,0
205764.25,562.51,-410.498,0,0
206024.575,564.995,-414.265,0,0
206284.9,566.341,-417.049,0,0
206545.225,567.586,-418.214,0,0
206805.55,569.599,-418.38,0,0
207065.875,572.544,-417.777,0,0
207326.2,576.897,-417.058,0,0
207586.525,582.247,-417.032,0,0
207846.85,587.825,-417.68,0,0
208107.175,593.69,-418.431,0,0
208367.5,600.154,-419.683,0,0
208627.825,606.881,-421.643,0,0
208888.15,613.62,-424.171,0,0
209148.475,620.5,-427.234,0,0
209408.8,627.278,-430.797,0,0
209669.125,634.054,-434.931,0,0
209929.45,640.671,-439.415,0,0
210189.775,647.091,-444.494,0,0
210450.1,653.31,-449.933,0,0
210710.425,659.329,-455.745,0,0
210970.75,665.149,-461.952,0,0
211231.075,670.497,-468.562,0,0
211491.4,675.351,-475.401,0,0
211751.725,679.827,-482.236,0,0
212012.05,683.971,-488.956,0,0
212272.375,688.166,-495.669,0,0
212532.7,692.355,-502.485,0,0
212793.025,696.712,-509.577,0,0
213053.35,701.024,-517.157,0,0
213313.675,705.138,-525.346,0,0
213574.0,708.659,-534.087,0,0
213834.325,711.263,-543.034,0,0
214094.65,713.476,-551.59,0,0
214354.975,715.493,-560.033,0,0
214615.3,717.545,-568.603,0,0
214875.625,719.498,-577.414,0,0
215135.95,721.189,-586.596,0,0
215396.275,722.363,-596.196,0,0
215656.6,722.609,-605.859,0,0
215916.925,722.449,-615.321,0,0
216177.25,721.97,-624.472,0,0
216437.575,721.308,-633.436,0,0
216697.9,720.571,-642.594,0,0
216958.225,719.245,-652.04,0,0
217218.55,717.228,-661.222,0,0
217478.875,714.947,-669.981,0,0
217739.2,712.607,-678.628,0,0
217999.525,709.937,-687.506,0,0
218259.85,706.78,-696.104,0,0
218520,703.216,-704.484,0,0
218780,699.211,-712.296,0,0
219041,695.149,-719.376,0,0
219301,691.494,-726.179,0,0
219561,688.251,-733.116,0,0
219822,685.052,-740.132,0,0
220082,681.677,-747.85,0,0
220342,677.877,-755.655,0,0
220603,673.544,-763.336,0,0
220863,668.974,-771.019,0,0
221123,663.926,-778.734,0,0
221384,658.654,-786.361,0,0
221644,653.189,-793.984,0,0
221904,647.02,-802.137,0,0
222165,639.573,-809.961,0,0
222425,631.231,-816.915,0,0
222685,622.367,-823.162,0,0
222946,613.082,-828.66,0,0
223206,603.357,-833.262,0,0
223466,593.187,-836.51,0,0
223727,583.414,-838.239,0,0
223987,574.533,-839.154,0,0
224247,566.239,-839.481,0,0
224508,558.504,-839.071,0,0
224768,551.821,-838.166,0,0
225028,546.116,-837.343,0,0
225289,541.347,-836.272,0,0
225549,537.277,-835.813,0,0
225809,533.793,-835.896,0,0
226070,530.707,-836.776,0,0
226330,527.376,-838.336,0,0
226590,523.558,-840.015,0,0
226851,519.725,-841.613,0,0
227111,516.261,-843.5,0,0
227371,512.62,-846.029,0,0
227632,508.421,-849.054,0,0
227892,503.336,-851.828,0,0
228152,497.982,-854.279,0,0
228413,492.475,-856.289,0,0
228673,486.797,-858.058,0,0
228933,481.102,-859.413,0,0
229193,475.681,-860.558,0,0
229454,470.44,-861.707,0,0
229714,465.198,-862.83,0,0
229974,459.722,-863.969,0,0
230235,454.295,-864.967,0,0
230495,448.841,-865.966,0,0
230755,443.135,-866.656,0,0
231016,437.382,-867.237,0,0
231276,431.703,-867.455,0,0
231536,426.116,-867.541,0,0
231797,420.558,-867.457,0,0
232057,415.088,-867.262,0,0
232317,409.711,-866.885,0,0
232578,404.424,-866.376,0,0
232838,399.358,-865.756,0,0
233098,394.32,-865.167,0,0
233359,389.295,-864.477,0,0
233619,384.452,-863.711,0,0
233879,379.591,-862.973,0,0
234140,374.683,-862.185,0,0
234400,369.932,-861.185,0,0
234660.3,365.316,-860.219,0,0
234920.625,360.88,-859.236,0,0
235180.95,356.416,-858.544,0,0
235441.275,351.85,-857.812,0,0
235701.6,347.056,-857.119,0,0
235961.925,342.083,-856.291,0,0
236222.25,336.983,-855.145,0,0
236482.575,331.826,-853.803,0,0
236742.9,326.885,-852.241,0,0
237003.225,322.027,-850.561,0,0
237263.55,317.137,-848.933,0,0
237523.875,312.25,-847.189,0,0
237784.2,307.148,-845.274,0,0
238044.525,301.993,-843.031,0,0
238304.85,296.97,-840.377,0,0
238565.175,292.047,-837.365,0,0
238825.5,287.444,-834.131,0,0
239085.825,283.1,-830.653,0,0
239346.15,279.217,-827.136,0,0
239606.475,275.614,-823.514,0,0
239866.8,272.235,-820.158,0,0
240127.125,269.001,-816.667,0,0
240387.45,265.822,-813.473,0,0
240647.775,262.714,-810.125,0,0
240908.1,259.618,-806.745,0,0
241168.425,256.67,-803.22,0,0
241428.75,253.876,-799.58,0,0
241689.075,251.22,-795.728,0,0
241949.4,248.896,-791.817,0,0
242209.725,246.95,-787.973,0,0
242470.05,245.342,-784.244,0,0
242730.375,243.792,-780.715,0,0
242990.7,242.412,-777.217,0,0
243251.025,241.239,-773.778,0,0
243511.35,240.325,-770.523,0,0
243771.675,239.505,-767.615,0,0
244032.0,238.734,-764.919,0,0
244292.325,237.892,-762.396,0,0
244552.65,236.963,-760.017,0,0
244812.975,235.779,-757.571,0,0
245073.3,234.781,-755.473,0,0
245333.625,233.675,-753.175,0,0
245593.95,232.362,-750.869,0,0
245854.275,231.194,-748.483,0,0
246114.6,230.045,-746.103,0,0
246374.925,228.911,-743.685,0,0
246635.25,227.924,-741.17,0,0
246895.575,227.125,-738.719,0,0
247155.9,226.311,-736.396,0,0
247416.225,225.5,-734.146,0,0
247676.55,224.621,-731.892,0,0
247936.875,223.756,-729.553,0,0
248197.2,222.994,-727.08,0,0
248457.525,222.454,-724.551,0,0
248717.85,222.178,-722.086,0,0
248978.175,222.181,-719.833,0,0
249238.5,222.322,-717.948,0,0
249498.825,222.386,-716.278,0,0
249759.15,222.302,-715.014,0,0
250019.475,222.084,-713.787,0,0
250279.8,221.628,-712.71,0,0
250540,221.012,-711.739,0,0
250800,220.163,-710.787,0,0
251061,219.048,-709.787,0,0
251321,217.824,-708.664,0,0
251581,216.45,-707.352,0,0
251842,215.01,-705.929,0,0
252102,213.484,-704.394,0,0
252362,211.812,-702.751,0,0
252623,210.052,-700.815,0,0
252883,208.341,-698.549,0,0
253143,206.785,-696.049,0,0
253404,205.389,-693.433,0,0
253664,204.111,-690.667,0,0
253924,202.969,-687.773,0,0
254185,201.973,-684.707,0,0
254445,201.274,-681.539,0,0
254705,200.704,-678.265,0,0
254966,200.445,-675.066,0,0
255226,200.32,-671.852,0,0
255486,200.371,-668.488,0,0
255747,200.68,-665.081,0,0
256007,201.382,-661.693,0,0
256267,202.442,-658.373,0,0
256528,203.864,-655.325,0,0
256788,205.493,-652.588,0,0
257048,207.234,-650.262,0,0
257309,208.931,-648.191,0,0
257569,210.544,-646.359,0,0
257829,212.112,-644.653,0,0
258090,213.497,-643.001,0,0
258350,214.842,-641.272,0,0
258610,216.244,-639.371,0,0
258871,217.905,-637.414,0,0
259131,219.851,-635.467,0,0
259391,222.159,-633.561,0,0
259651,224.959,-631.995,0,0
259912,227.903,-630.843,0,0
260172,231.023,-630.144,0,0
260432,234.116,-629.793,0,0
260693,237.367,-629.759,0,0
260953,240.764,-630.312,0,0
261213,244.11,-631.576,0,0
261474,247.113,-633.5,0,0
261734,249.563,-635.862,0,0
261994,251.589,-638.49,0,0
262255,253.119,-641.388,0,0
262515,254.156,-644.556,0,0
262775,254.575,-647.765,0,0
263036,254.44,-650.869,0,0
263296,253.928,-653.815,0,0
263556,253.109,-656.596,0,0
263817,251.957,-659.291,0,0
264077,250.449,-661.908,0,0
264337,248.494,-664.305,0,0
264598,246.261,-666.397,0,0
264858,243.801,-668.141,0,0
265118,241.191,-669.535,0,0
265379,238.426,-670.674,0,0
265639,235.59,-671.547,0,0
265899,232.699,-672.118,0,0
266160,229.749,-672.414,0,0
266420,226.759,-672.391,0,0
266680.25,223.688,-672.082,0,0
266940.575,220.726,-671.396,0,0
267200.9,217.943,-670.414,0,0
267461.225,215.268,-669.207,0,0
267721.55,212.775,-667.766,0,0
267981.875,210.489,-666.168,0,0
268242.2,208.433,-664.376,0,0
268502.525,206.603,-662.486,0,0
268762.85,205.017,-660.596,0,0
269023.175,203.642,-658.716,0,0
269283.5,202.374,-656.907,0,0
269543.825,201.13,-655.057,0,0
269804.15,199.933,-653.098,0,0
270064.475,198.889,-651.097,0,0
270324.8,198.062,-648.984,0,0
270585.125,197.445,-646.907,0,0
270845.45,197.043,-644.861,0,0
271105.775,196.811,-642.871,0,0
271366.1,196.751,-641.011,0,0
271626.425,196.766,-639.353,0,0
271886.75,196.891,-637.782,0,0
272147.075,197.088,-636.436,0,0
272407.4,197.134,-635.317,0,0
272667.725,197.015,-634.271,0,0
272928.05,196.711,-633.088,0,0
273188.375,196.308,-631.713,0,0
273448.7,196.024,-630.096,0,0
273709.025,195.888,-628.373,0,0
273969.35,195.958,-626.593,0,0
274229.675,196.276,-624.783,0,0
274490.0,196.737,-623.088,0,0
274750.325,197.41,-621.464,0,0
275010.65,198.181,-619.899,0,0
275270.975,199.129,-618.391,0,0
275531.3,200.262,-617.113,0,0
275791.625,201.508,-615.923,0,0
276051.95,202.846,-614.908,0,0
276312.275,204.336,-614.002,0,0
276572.6,205.921,-613.371,0,0
276832.925,207.593,-612.998,0,0
277093.25,209.287,-612.93,0,0
277353.575,210.891,-613.147,0,0
277613.9,212.447,-613.579,0,0
277874.225,213.86,-614.246,0,0
278134.55,215.133,-615.144,0,0
278394.875,216.269,-616.24,0,0
278655.2,217.203,-617.499,0,0
278915.525,217.917,-618.92,0,0
279175.85,218.399,-620.466,0,0
279436.175,218.664,-622.018,0,0
279696.5,218.751,-623.645,0,0
279956.825,218.537,-625.376,0,0
280217.15,218.084,-627.14,0,0
280477.475,217.292,-628.82,0,0
280737.8,216.234,-630.346,0,0
280998.125,215.013,-631.672,0,0
281258.45,213.705,-632.82,0,0
281518.775,212.329,-633.899,0,0
281779.1,210.807,-634.907,0,0
282039.425,209.16,-635.756,0,0
282299.75,207.405,-636.419,0,0
282560,205.628,-636.854,0,0
282820,203.856,-637.21,0,0
283081,202.06,-637.485,0,0
283341,200.13,-637.655,0,0
283601,198.218,-637.645,0,0
283862,196.279,-637.469,0,0
284122,194.417,-637.138,0,0
284382,192.569,-636.652,0,0
284643,190.8,-636.112,0,0
284903,188.997,-635.484,0,0
285163,187.26,-634.684,0,0
285424,185.546,-633.783,0,0
285684,183.925,-632.716,0,0
285944,182.426,-631.541,0,0
286205,181.036,-630.311,0,0
286465,179.793,-628.963,0,0
286725,178.621,-627.586,0,0
286986,177.583,-626.141,0,0
287246,176.698,-624.609,0,0
287506,176.006,-623.086,0,0
287767,175.524,-621.577,0,0
288027,175.228,-620.167,0,0
288287,175.064,-618.9,0,0
288548,174.937,-617.784,0,0
288808,174.854,-616.756,0,0
289068,174.811,-615.856,0,0
289329,174.744,-615.082,0,0
289589,174.663,-614.436,0,0
289849,174.479,-613.815,0,0
290109,174.254,-613.202,0,0
290370,174.078,-612.611,0,0
290630,173.867,-612.107,0,0
290890,173.617,-611.689,0,0
291151,173.25,-611.287,0,0
291411,172.763,-610.871,0,0
291671,172.216,-610.37,0,0
291932,171.617,-609.81,0,0
292192,170.972,-609.158,0,0
292452,170.35,-608.384,0,0
292713,169.754,-607.491,0,0
292973,169.284,-606.464,0,0
293233,168.952,-605.366,0,0
293494,168.769,-604.247,0,0
293754,168.791,-603.108,0,0
294014,168.981,-602.068,0,0
294275,169.279,-601.165,0,0
294535,169.651,-600.375,0,0
294795,170.109,-599.671,0,0
295056,170.672,-599.12,0,0
295316,171.286,-598.734,0,0
295576,171.893,-598.531,0,0
295837,172.479,-598.515,0,0
296097,172.996,-598.651,0,0
296357,173.43,-598.92,0,0
296618,173.778,-599.322,0,0
296878,174.022,-599.84,0,0
297138,174.112,-600.46,0,0
297399,174.056,-601.139,0,0
297659,173.849,-601.868,0,0
297919,173.463,-602.6,0,0
298180,172.934,-603.297,0,0
298440,172.289,-603.948,0,0
298700.2,171.554,-604.542,0,0
298960.525,170.75,-605.103,0,0
299220.85,169.862,-605.599,0,0
299481.175,168.909,-606.053,0,0
299741.5,167.87,-606.459,0,0
300001.825,166.773,-606.812,0,0
300262.15,165.618,-607.108,0,0
300522.475,164.398,-607.331,0,0
300782.8,163.135,-607.516,0,0
301043.125,161.823,-607.603,0,0
301303.45,160.464,-607.609,0,0
301563.775,159.079,-607.551,0,0
301824.1,157.646,-607.403,0,0
302084.425,156.212,-607.134,0,0
302344.75,154.795,-606.769,0,0
302605.075,153.408,-606.315,0,0
302865.4,152.067,-605.811,0,0
303125.725,150.762,-605.243,0,0
303386.05,149.498,-604.647,0,0
303646.375,148.235,-604.011,0,0
303906.7,147.009,-603.325,0,0
304167.025,145.788,-602.615,0,0
304427.35,144.584,-601.803,0,0
304687.675,143.406,-600.974,0,0
304948.0,142.3,-600.033,0,0
305208.325,141.217,-599.09,0,0
305468.65,140.228,-598.077,0,0
305728.975,139.336,-597.081,0,0
305989.3,138.474,-596.038,0,0
306249.625,137.691,-595.014,0,0
306509.95,136.972,-593.994,0,0
306770.275,136.311,-592.981,0,0
307030.6,135.711,-591.976,0,0
307290.925,135.173,-590.989,0,0
307551.25,134.68,-590.046,0,0
307811.575,134.245,-589.158,0,0
308071.9,133.85,-588.335,0,0
308332.225,133.453,-587.584,0,0
308592.55,133.053,-586.876,0,0
308852.875,132.624,-586.224,0,0
309113.2,132.193,-585.599,0,0
309373.525,131.736,-585.013,0,0
309633.85,131.236,-584.431,0,0
309894.175,130.72,-583.88,0,0
310154.5,130.172,-583.379,0,0
310414.825,129.633,-582.88,0,0
310675.15,129.015,-582.434,0,0
310935.475,128.304,-581.972,0,0
311195.8,127.544,-581.482,0,0
311456.125,126.709,-580.976,0,0
311716.45,125.821,-580.408,0,0
311976.775,124.907,-579.756,0,0
312237.1,123.967,-579.035,0,0
312497.425,123.006,-578.235,0,0
312757.75,122.062,-577.361,0,0
313018.075,121.148,-576.4,0,0
313278.4,120.242,-575.388,0,0
313538.725,119.391,-574.277,0,0
313799.05,118.585,-573.119,0,0
314059.375,117.825,-571.888,0,0
314319.7,117.139,-570.616,0,0
314580,116.517,-569.286,0,0
314840,116.043,-567.917,0,0
315101,115.684,-566.425,0,0
315361,115.429,-565.023,0,0
315621,115.228,-563.681,0,0
315882,115.284,-562.451,0,0
316142,115.289,-561.156,0,0
316402,115.426,-560.055,0,0
316663,115.593,-558.999,0,0
316923,115.815,-558.075,0,0
317183,116.008,-557.265,0,0
317444,116.118,-556.441,0,0
317704,116.249,-555.772,0,0
317964,116.35,-555.065,0,0
318225,116.382,-554.417,0,0
318485,116.447,-553.82,0,0
318745,116.456,-553.262,0,0
319006,116.506,-552.6,0,0
319266,116.394,-551.997,0,0
319526,116.426,-551.373,0,0
319787,116.482,-550.755,0,0
320047,116.411,-550.148,0,0
320307,116.461,-549.582,0,0
320567,116.524,-548.946,0,0
320828,116.602,-548.423,0,0
321088,116.751,-547.869,0,0
321348,116.921,-547.289,0,0
321609,117.086,-546.833,0,0
321869,117.345,-546.434,0,0
322129,117.583,-546.098,0,0
322390,117.816,-545.923,0,0
322650,117.956,-545.799,0,0
322910,118.206,-545.669,0,0
323171,118.245,-545.657,0,0
323431,118.364,-545.752,0,0
323691,118.318,-545.848,0,0
323952,118.26,-546.093,0,0
324212,118.066,-546.237,0,0
324472,117.88,-546.516,0,0
324733,117.552,-546.73,0,0
324993,117.147,-546.973,0,0
325253,116.537,-547.165,0,0
325514,115.888,-547.351,0,0
325774,115.227,-547.494,0,0
326034,114.441,-547.578,0,0
326295,113.68,-547.592,0,0
326555,112.775,-547.561,0,0
326815,111.91,-547.438,0,0
327076,111.062,-547.339,0,0
327336,110.106,-547.119,0,0
327596,109.266,-546.833,0,0
327857,108.329,-546.562,0,0
328117,107.356,-546.204,0,0
328377,106.505,-545.81,0,0
328638,105.557,-545.385,0,0
328898,104.647,-544.942,0,0
329158,103.706,-544.381,0,0
329419,102.947,-543.838,0,0
329679,102.134,-543.319,0,0
329939,101.278,-542.783,0,0
330200,100.447,-542.212,0,0
330460,99.6218,-541.666,0,0
330720.15,98.7271,-541.094,0,0
330980.475,97.9647,-540.475,0,0
331240.8,97.1685,-539.785,0,0
331501.125,96.1807,-539.189,0,0
331761.45,95.3193,-538.483,0,0
332021.775,94.4591,-537.789,0,0
332282.1,93.6253,-537.076,0,0
332542.425,92.7681,-536.348,0,0
332802.75,91.83,-535.501,0,0
333063.075,90.9383,-534.723,0,0
333323.4,90.0915,-533.907,0,0
333583.725,89.1671,-532.937,0,0
333844.05,88.2912,-532.021,0,0
334104.375,87.4734,-531.072,0,0
334364.7,86.6792,-529.943,0,0
334625.025,85.8751,-528.907,0,0
334885.35,85.0975,-527.832,0,0
335145.675,84.3793,-526.637,0,0
335406.0,83.6853,-525.586,0,0
335666.325,83.0597,-524.401,0,0
335926.65,82.4546,-523.125,0,0
336186.975,81.9197,-522.003,0,0
336447.3,81.3456,-520.75,0,0
336707.625,80.7964,-519.508,0,0
336967.95,80.328,-518.254,0,0
337228.275,79.9765,-516.997,0,0
337488.6,79.5682,-515.728,0,0
337748.925,79.191,-514.516,0,0
338009.25,78.8306,-513.261,0,0
338269.575,78.5584,-511.99,0,0
338529.9,78.2516,-510.634,0,0
338790.225,77.8936,-509.349,0,0
339050.55,77.7565,-508.013,0,0
339310.875,77.6008,-506.671,0,0
339571.2,77.4626,-505.232,0,0
339831.525,77.4299,-503.876,0,0
340091.85,77.4379,-502.511,0,0
340352.175,77.5681,-501.177,0,0
340612.5,77.7352,-499.773,0,0
340872.825,78.0428,-498.499,0,0
341133.15,78.3595,-497.243,0,0
341393.475,78.7333,-496.059,0,0
341653.8,79.1959,-494.946,0,0
341914.125,79.6737,-493.867,0,0
342174.45,80.2218,-492.986,0,0
342434.775,80.7359,-492.014,0,0
342695.1,81.3225,-491.284,0,0
342955.425,81.8954,-490.553,0,0
343215.75,82.4386,-489.922,0,0
343476.075,82.9006,-489.419,0,0
343736.4,83.3837,-489.006,0,0
343996.725,83.7933,-488.622,0,0
344257.05,84.1074,-488.352,0,0
344517.375,84.3372,-488.016,0,0
344777.7,84.4803,-487.725,0,0
345038.025,84.5247,-487.462,0,0
345298.35,84.5404,-487.136,0,0
345558.675,84.5709,-486.673,0,0
345819.0,84.5386,-486.323,0,0
346079.325,84.4978,-485.917,0,0
346339.65,84.4059,-485.433,0,0
346599.975,84.3844,-485.07,0,0
346860,84.3271,-484.58,0,0
347121,84.2244,-484.071,0,0
347381,84.1444,-483.646,0,0
347641,84.0276,-483.218,0,0
347902,83.8993,-482.706,0,0
348162,83.6893,-482.213,0,0
348422,83.4616,-481.655,0,0
348683,83.2946,-481.009,0,0
348943,83.1053,-480.332,0,0
349203,82.9896,-479.61,0,0
349464,82.8917,-478.854,0,0
349724,82.8919,-478.041,0,0
349984,82.9498,-477.269,0,0
350245,83.0312,-476.501,0,0
350505,83.2562,-475.732,0,0
350765,83.4725,-475.01,0,0
351025,83.8777,-474.352,0,0
351286,84.1661,-473.738,0,0
351546,84.5883,-473.33,0,0
351806,85.0457,-472.978,0,0
352067,85.3616,-472.732,0,0
352327,85.6731,-472.524,0,0
352587,85.9231,-472.466,0,0
352848,86.0242,-472.386,0,0
353108,86.0012,-472.344,0,0
353368,85.9824,-472.287,0,0
353629,85.8745,-472.238,0,0
353889,85.6267,-472.154,0,0
354149,85.3763,-471.995,0,0
354410,85.0486,-471.784,0,0
354670,84.7496,-471.495,0,0
354930,84.3782,-471.239,0,0
355191,84.0283,-470.896,0,0
355451,83.7393,-470.503,0,0
355711,83.3866,-470.108,0,0
355972,83.0714,-469.674,0,0
356232,82.7407,-469.266,0,0
356492,82.3027,-468.759,0,0
356753,82.0013,-468.299,0,0
357013,81.6486,-467.753,0,0
357273,81.2488,-467.168,0,0
357534,80.8839,-466.54,0,0
357794,80.5523,-465.844,0,0
358054,80.2686,-465.145,0,0
358315,80.0686,-464.36,0,0
358575,79.9453,-463.606,0,0
358835,79.8061,-462.92,0,0
359096,79.7686,-462.168,0,0
359356,79.7466,-461.479,0,0
359616,79.6899,-460.801,0,0
359877,79.6739,-460.173,0,0
360137,79.7197,-459.522,0,0
360397,79.6798,-458.957,0,0
360658,79.7426,-458.438,0,0
360918,79.7296,-457.823,0,0
361178,79.6818,-457.308,0,0
361438,79.6068,-456.782,0,0
361699,79.5762,-456.24,0,0
361959,79.5374,-455.695,0,0
362219,79.3975,-455.086,0,0
362480,79.3451,-454.486,0,0
362740.1,79.2826,-453.798,0,0
363000.425,79.2769,-453.069,0,0
363260.75,79.3708,-452.438,0,0
363521.075,79.4928,-451.685,0,0
363781.4,79.6837,-451.03,0,0
364041.725,79.9477,-450.396,0,0
364302.05,80.2232,-449.864,0,0
364562.375,80.4938,-449.415,0,0
364822.7,80.8765,-448.98,0,0
365083.025,81.1591,-448.683,0,0
365343.35,81.4772,-448.421,0,0
365603.675,81.7365,-448.302,0,0
365864.0,81.962,-448.208,0,0
366124.325,82.0674,-448.145,0,0
366384.65,82.0082,-448.163,0,0
366644.975,81.9651,-448.19,0,0
366905.3,81.7193,-448.141,0,0
367165.625,81.4187,-448.098,0,0
367425.95,81.1741,-447.967,0,0
367686.275,80.7715,-447.809,0,0
367946.6,80.3106,-447.553,0,0
368206.925,79.8594,-447.302,0,0
368467.25,79.3366,-446.926,0,0
368727.575,78.7879,-446.469,0,0
368987.9,78.2843,-445.816,0,0
369248.225,77.7522,-445.072,0,0
369508.55,77.3746,-444.187,0,0
369768.875,77.1584,-443.272,0,0
370029.2,77.0326,-442.336,0,0
370289.525,77.1038,-441.455,0,0
370549.85,77.2602,-440.546,0,0
370810.175,77.5198,-439.782,0,0
371070.5,77.8903,-439.167,0,0
371330.825,78.221,-438.615,0,0
371591.15,78.6007,-438.227,0,0
371851.475,78.9198,-437.955,0,0
372111.8,79.182,-437.771,0,0
372372.125,79.4099,-437.677,0,0
372632.45,79.4643,-437.69,0,0
372892.775,79.4074,-437.717,0,0
373153.1,79.1864,-437.655,0,0
373413.425,78.9207,-437.567,0,0
373673.75,78.5456,-437.42,0,0
373934.075,78.21,-437.166,0,0
374194.4,77.7817,-436.814,0,0
374454.725,77.3682,-436.441,0,0
374715.05,76.9642,-436.032,0,0
374975.375,76.5641,-435.453,0,0
375235.7,76.1948,-434.913,0,0
375496.025,75.7658,-434.311,0,0
375756.35,75.4409,-433.632,0,0
376016.675,75.1832,-432.856,0,0
376277.0,74.9442,-432.11,0,0
376537.325,74.7813,-431.33,0,0
376797.65,74.7051,-430.593,0,0
377057.975,74.6662,-429.81,0,0
377318.3,74.6883,-429.12,0,0
377578.625,74.7885,-428.339,0,0
377838.95,74.8808,-427.654,0,0
378099.275,74.9491,-427.007,0,0
378359.6,75.0785,-426.374,0,0
378619.925,75.2645,-425.805,0,0
378880,75.3583,-425.208,0,0
379141,75.5721,-424.675,0,0
379401,75.8089,-424.153,0,0
379661,76.0039,-423.704,0,0
379922,76.2159,-423.286,0,0
380182,76.406,-422.933,0,0
380442,76.6189,-422.663,0,0
380703,76.7462,-422.38,0,0
380963,76.8134,-422.082,0,0
381223,76.8747,-421.857,0,0
381483,76.8545,-421.546,0,0
381744,76.8457,-421.256,0,0
382004,76.8201,-420.953,0,0
382264,76.8283,-420.633,0,0
382525,76.7794,-420.319,0,0
382785,76.7456,-419.987,0,0
383045,76.732,-419.685,0,0
383306,76.783,-419.435,0,0
383566,76.7416,-419.188,0,0
383826,76.632,-418.95,0,0
384087,76.5389,-418.74,0,0
384347,76.3239,-418.528,0,0
384607,76.1001,-418.23,0,0
384868,75.8632,-417.909,0,0
385128,75.5977,-417.569,0,0
385388,75.3714,-417.185,0,0
385649,75.1033,-416.807,0,0
385909,74.8423,-416.339,0,0
386169,74.5867,-415.947,0,0
386430,74.2997,-415.477,0,0
386690,74.067,-415,0,0
386950,73.8025,-414.526,0,0
387211,73.5184,-413.987,0,0
387471,73.2282,-413.412,0,0
387731,72.9685,-412.864,0,0
387992,72.7131,-412.22,0,0
388252,72.4595,-411.561,0,0
388512,72.2558,-410.805,0,0
388773,72.005,-410.074,0,0
389033,71.8406,-409.37,0,0
389293,71.6923,-408.59,0,0
389554,71.6511,-407.733,0,0
389814,71.5841,-406.85,0,0
390074,71.5885,-406.047,0,0
390335,71.5923,-405.194,0,0
390595,71.6717,-404.316,0,0
390855,71.8164,-403.496,0,0
391116,72.0014,-402.631,0,0
391376,72.2397,-401.824,0,0
391636,72.564,-401.003,0,0
391896,72.9132,-400.204,0,0
392157,73.3202,-399.471,0,0
392417,73.8141,-398.776,0,0
392677,74.2491,-398.141,0,0
392938,74.7406,-397.572,0,0
393198,75.2816,-397.085,0,0
393458,75.7684,-396.594,0,0
393719,76.2793,-396.208,0,0
393979,76.7827,-395.85,0,0
394239,77.2735,-395.499,0,0
394500,77.7393,-395.265,0,0
394760.05,78.1506,-394.997,0,0
395020.375,78.6117,-394.771,0,0
395280.7,79.0254,-394.605,0,0
395541.025,79.4363,-394.462,0,0
395801.35,79.8442,-394.324,0,0
396061.675,80.2554,-394.247,0,0
396322.0,80.5902,-394.193,0,0
396582.325,80.9127,-394.168,0,0
396842.65,81.2309,-394.19,0,0
397102.975,81.5134,-394.272,0,0
397363.3,81.7043,-394.327,0,0
397623.625,81.8857,-394.444,0,0
397883.95,81.9821,-394.548,0,0
398144.275,82.0673,-394.654,0,0
398404.6,82.0426,-394.766,0,0
398664.925,82.0345,-394.807,0,0
398925.25,81.9947,-394.928,0,0
399185.575,81.9074,-394.97,0,0
399445.9,81.7326,-395.007,0,0
399706.225,81.6413,-395.034,0,0
399966.55,81.5054,-395.07,0,0
400006.6,81.4871,-395.076,0,0