File: Accelerated corrosion test data/2025-10-15_18-00-03/sample_1.csv
Frequency (Hz),Impedance (ohms),Phase (Radians),Temperature (C),Humidity (%)
10000.0,246.518,-12199.6,0,0
10260.325,251.971,-11885.7,0,0
10520.65,234.84,-11605.9,0,0
10780.975,234.427,-11321.4,0,0
11041.3,227.642,-11061.9,0,0
11301.625,222.06,-10805.2,0,0
11561.95,211.964,-10561.5,0,0
11822.275,210.787,-10324,0,0
12082.6,230.728,-10092.6,0,0
12342.925,216.578,-9919.63,0,0
12603.25,196.456,-9706.13,0,0
12863.575,194.659,-9504.21,0,0
13123.9,200.565,-9311.51,0,0
13384.225,187.602,-9141.92,0,0
13644.55,181.388,-8960.39,0,0
13904.875,182.086,-8783.11,0,0
14165.2,196.305,-8648.23,0,0
14425.525,214.176,-8480.09,0,0
14685.8,202.405,-8316.12,0,0
14946.175,178.311,-8214.03,0,0
15206.5,186.141,-8049.65,0,0
15466.825,176.51,-7936.1,0,0
15727.15,176.501,-7802.41,0,0
15987.5,160.421,-7674.84,0,0
16247.8,159.373,-7548.48,0,0
16508.125,157.369,-7425.81,0,0
16768.45,168.542,-7308.25,0,0
17028.775,165.266,-7200.63,0,0
17289.1,160.289,-7097.19,0,0
17549.425,160.127,-6995.14,0,0
17809.75,147.42,-6890.66,0,0
18070.075,152.116,-6790.24,0,0
18330.4,148.903,-6695.27,0,0
18590.725,137.835,-6600.36,0,0
18851.05,145.823,-6502.69,0,0
19111.375,137.615,-6421.77,0,0
19371.7,134.243,-6329.63,0,0
19632.025,132.815,-6240.7,0,0
19892.35,138.366,-6153.88,0,0
20152.675,135.778,-6067.68,0,0
20413.0,156.857,-5978.88,0,0
20673.3,166.795,-5938.19,0,0
20933.65,148.346,-5868.6,0,0
21193.975,161.435,-5807.19,0,0
21454.3,140.279,-5732.94,0,0
21714.625,136.6,-5661.42,0,0
21974.9,138.543,-5580.58,0,0
22235.275,172.487,-5536.93,0,0
22495.6,140.554,-5495.43,0,0
22755.925,126.975,-5426.24,0,0
23016.25,122.475,-5359.73,0,0
23276.6,119.087,-5296.99,0,0
23536.9,115.344,-5236.67,0,0
23797.225,112.627,-5176.04,0,0
24057.55,116.164,-5115.68,0,0
24317.875,112.68,-5067.15,0,0
24578.2,110.718,-5007.62,0,0
24838.525,110.416,-4957.22,0,0
25098.85,111.143,-4903.18,0,0
25359.175,107.07,-4854.49,0,0
25619.5,105.33,-4802.83,0,0
25879.8,103.003,-4751.44,0,0
26140.1,103.778,-4702.35,0,0
26400.5,102.609,-4652.62,0,0
26660.8,105.179,-4602.23,0,0
26921.1,114.415,-4554.08,0,0
27181.4,121.588,-4522.35,0,0
27441.8,111.362,-4487.63,0,0
27702.1,104.027,-4438.94,0,0
27962.4,110.194,-4388.67,0,0
28222.7,110.517,-4350.27,0,0
28483.1,121.02,-4307.77,0,0
28743.4,130.225,-4288.64,0,0
29003.7,117.26,-4251.87,0,0
29264,118.065,-4218.47,0,0
29524.4,106.748,-4184.42,0,0
29784.7,105.483,-4141.79,0,0
30045,101.253,-4110.58,0,0
30305.3,99.2139,-4072.03,0,0
30565.7,96.6195,-4033.17,0,0
30826,100.273,-3997.3,0,0
31086.3,103.516,-3969.38,0,0
31346.6,99.8883,-3940.31,0,0
31607,93.4904,-3902.45,0,0
31867.3,97.7392,-3870.15,0,0
32127.6,97.8949,-3839.84,0,0
32387.9,98.0532,-3812.99,0,0
32648.3,93.7442,-3781.35,0,0
32908.6,95.6965,-3753.15,0,0
33168.9,90.6901,-3724.86,0,0
33429.2,88.9069,-3695.97,0,0
33689.6,85.9973,-3666.39,0,0
33949.9,85.1857,-3635.19,0,0
34210.2,86.8262,-3609.29,0,0
34470.5,83.9635,-3582.33,0,0
34730.9,81.9494,-3553.87,0,0
34991.2,81.2525,-3527.01,0,0
35251.5,80.0467,-3500.36,0,0
35511.8,79.5197,-3473.91,0,0
35772.2,79.135,-3448.38,0,0
36032.5,77.626,-3423.02,0,0
36292.8,77.2856,-3397.86,0,0
36553.1,76.4433,-3372.77,0,0
36813.5,76.0182,-3348.19,0,0
37073.8,76.2266,-3324.26,0,0
37334.1,75.2036,-3301.02,0,0
37594.4,75.071,-3277.46,0,0
37854.8,74.3269,-3254.75,0,0
38115.1,73.3881,-3231.9,0,0
38375.4,73.1214,-3209.32,0,0
38635.7,74.4269,-3187.44,0,0
38896.1,72.7201,-3165.26,0,0
39156.4,72.3966,-3143.51,0,0
39416.7,72.1465,-3122.9,0,0
39677,71.6699,-3102,0,0
39937.4,71.138,-3080.58,0,0
40197.7,71.0609,-3060.27,0,0
40458,71.26,-3039.93,0,0
40718.3,72.0073,-3019.22,0,0
40978.7,72.9624,-3000,0,0
41239,72.1142,-2981.75,0,0
41499.3,71.4156,-2963.58,0,0
41759.6,70.7423,-2945.01,0,0
42020,70.3623,-2926.03,0,0
42280.275,70.0229,-2907.78,0,0
42540.6,70.357,-2889.65,0,0
42800.925,69.7805,-2872.54,0,0
43061.25,69.0815,-2854.84,0,0
43321.575,68.8705,-2837.72,0,0
43581.9,68.3205,-2820.44,0,0
43842.225,67.6097,-2802.98,0,0
44102.55,67.7727,-2785.21,0,0
44362.875,68.6405,-2768.41,0,0
44623.2,68.9504,-2752.95,0,0
44883.525,68.1273,-2737.01,0,0
45143.85,68.4165,-2721.51,0,0
45404.175,68.408,-2705.69,0,0
45664.5,67.6213,-2690.94,0,0
45924.825,66.6301,-2675.5,0,0
46185.15,65.955,-2660.04,0,0
46445.475,65.4292,-2644.98,0,0
46705.8,65.1161,-2629.33,0,0
46966.125,65.1038,-2615.21,0,0
47226.45,64.2904,-2599.97,0,0
47486.775,64.4087,-2585.36,0,0
47747.1,63.8747,-2571.3,0,0
48007.425,63.495,-2557.1,0,0
48267.75,63.3897,-2542.96,0,0
48528.075,62.4291,-2529.85,0,0
48788.4,61.4126,-2515.43,0,0
49048.725,61.4055,-2501.06,0,0
49309.05,61.4962,-2487.47,0,0
49569.375,61.3998,-2474.3,0,0
49829.7,61.3197,-2461.42,0,0
50090.025,60.1277,-2448.19,0,0
50350.35,59.8853,-2434.73,0,0
50610.675,59.1858,-2421.58,0,0
50871.0,59.1534,-2408.63,0,0
51131.325,59.0951,-2395.77,0,0
51391.65,59.3154,-2383.48,0,0
51651.975,58.5212,-2371.27,0,0
51912.3,58.1168,-2358.73,0,0
52172.625,58.0817,-2346.35,0,0
52432.95,57.8906,-2334.2,0,0
52693.275,58.0096,-2322.15,0,0
52953.6,57.6958,-2310.29,0,0
53213.925,57.4725,-2298.56,0,0
53474.25,57.2569,-2287.03,0,0
53734.575,57.0823,-2275.51,0,0
53994.9,57.2286,-2264.42,0,0
54255.225,56.5524,-2253.31,0,0
54515.55,56.1244,-2241.93,0,0
54775.875,55.8296,-2230.69,0,0
55036.2,55.668,-2219.47,0,0
55296.525,55.7604,-2208.44,0,0
55556.85,55.7863,-2197.82,0,0
55817.175,55.3232,-2187.32,0,0
56077.5,54.9085,-2176.56,0,0
56337.825,54.6841,-2165.73,0,0
56598.15,54.8038,-2155.19,0,0
56858.475,55.3948,-2144.99,0,0
57118.8,54.5867,-2134.63,0,0
57379.125,54.516,-2124.27,0,0
57639.45,54.5794,-2114.19,0,0
57899.775,54.3536,-2104.25,0,0
58160.1,54.446,-2094.28,0,0
58420.4,54.2906,-2084.64,0,0
58680.7,54.1728,-2074.8,0,0
58941.1,54.0353,-2064.99,0,0
59201.4,54.8258,-2055.44,0,0
59461.7,54.8071,-2046.34,0,0
59722,54.3505,-2036.82,0,0
59982.4,54.053,-2027.59,0,0
60242.7,53.9091,-2018.38,0,0
60503,54.3299,-2009.04,0,0
60763.3,54.3916,-2000.37,0,0
61023.7,54.0547,-1991.89,0,0
61284,53.4028,-1982.99,0,0
61544.3,53.261,-1973.78,0,0
61804.6,53.5331,-1964.98,0,0
62065,52.9787,-1956.6,0,0
62325.3,52.528,-1947.61,0,0
62585.6,52.4997,-1938.8,0,0
62845.9,52.3785,-1929.99,0,0
63106.3,52.4272,-1921.36,0,0
63366.6,52.4056,-1912.98,0,0
63626.9,52.421,-1904.37,0,0
63887.2,52.3564,-1896.01,0,0
64147.6,52.5141,-1887.67,0,0
64407.9,52.6089,-1879.3,0,0
64668.2,52.8839,-1870.87,0,0
64928.5,53.3493,-1862.66,0,0
65188.9,53.9697,-1854.85,0,0
65449.2,54.7908,-1847.22,0,0
65709.5,55.281,-1840.27,0,0
65969.8,54.9754,-1833.06,0,0
66230.2,54.9936,-1825.8,0,0
66490.5,55.0107,-1818.43,0,0
66750.8,54.6009,-1811.37,0,0
67011.1,54.2311,-1804.21,0,0
67271.5,53.6816,-1796.59,0,0
67531.8,54.0039,-1788.72,0,0
67792.1,54.4271,-1781.93,0,0
68052.4,54.1923,-1775.65,0,0
68312.8,53.7017,-1768.41,0,0
68573.1,53.1678,-1760.93,0,0
68833.4,53.4064,-1753.83,0,0
69093.7,53.2971,-1747.43,0,0
69354.1,52.8564,-1740.48,0,0
69614.4,52.7201,-1733.85,0,0
69874.7,52.1105,-1727.04,0,0
70135,51.8584,-1720.3,0,0
70395.4,51.0648,-1713.35,0,0
70655.7,50.8011,-1706.34,0,0
70916,50.3915,-1699.36,0,0
71176.3,50.4512,-1692.6,0,0
71436.7,50.1016,-1685.93,0,0
71697,49.712,-1679.44,0,0
71957.3,49.1629,-1672.68,0,0
72217.6,48.7029,-1665.98,0,0
72478,48.3911,-1658.81,0,0
72738.3,48.2201,-1651.92,0,0
72998.6,48.1947,-1645.12,0,0
73258.9,48.2565,-1638.56,0,0
73519.3,48.1253,-1632.09,0,0
73779.6,47.9842,-1625.38,0,0
74039.9,48.1417,-1618.92,0,0
74300.225,48.0873,-1612.3,0,0
74560.55,48.1063,-1605.86,0,0
74820.875,48.2617,-1599.4,0,0
75081.2,48.5128,-1593.12,0,0
75341.525,48.4906,-1586.96,0,0
75601.85,48.5363,-1580.7,0,0
75862.175,48.5956,-1574.42,0,0
76122.5,48.8437,-1568.27,0,0
76382.825,49.1175,-1562.16,0,0
76643.15,49.4009,-1556.21,0,0
76903.475,49.5699,-1550.25,0,0
77163.8,49.8273,-1544.34,0,0
77424.125,50.0906,-1538.55,0,0
77684.45,50.2497,-1532.76,0,0
77944.775,50.3775,-1526.95,0,0
78205.1,50.7194,-1521.14,0,0
78465.425,51.3577,-1515.52,0,0
78725.75,51.7607,-1510.42,0,0
78986.075,51.821,-1505.29,0,0
79246.4,51.851,-1500.23,0,0
79506.725,51.6041,-1494.98,0,0
79767.05,51.2277,-1489.55,0,0
80027.375,51.242,-1484.07,0,0
80287.7,51.129,-1478.82,0,0
80548.025,50.7309,-1473.4,0,0
80808.35,50.4969,-1467.77,0,0
81068.675,50.4081,-1462.21,0,0
81329.0,50.3946,-1456.52,0,0
81589.325,50.5946,-1450.92,0,0
81849.65,50.7685,-1445.45,0,0
82109.975,51.0876,-1440.11,0,0
82370.3,51.067,-1434.81,0,0
82630.625,51.1486,-1429.57,0,0
82890.95,51.239,-1424.05,0,0
83151.275,51.5832,-1418.69,0,0
83411.6,51.8569,-1413.54,0,0
83671.925,52.1089,-1408.42,0,0
83932.25,52.4037,-1403.2,0,0
84192.575,52.6716,-1398.05,0,0
84452.9,52.9794,-1392.96,0,0
84713.225,53.3667,-1387.93,0,0
84973.55,53.7664,-1382.86,0,0
85233.875,54.3789,-1377.94,0,0
85494.2,54.9877,-1373.34,0,0
85754.525,55.2147,-1368.87,0,0
86014.85,55.5128,-1364.2,0,0
86275.175,55.6373,-1359.59,0,0
86535.5,55.7907,-1354.95,0,0
86795.825,55.9255,-1350.31,0,0
87056.15,55.9818,-1345.49,0,0
87316.475,56.4128,-1340.82,0,0
87576.8,56.5237,-1336.51,0,0
87837.125,56.3515,-1331.81,0,0
88097.45,56.1753,-1327.02,0,0
88357.775,56.1858,-1322.02,0,0
88618.1,56.6442,-1316.79,0,0
88878.425,57.1182,-1312.07,0,0
89138.75,57.4908,-1307.22,0,0
89399.075,58.0398,-1302.33,0,0
89659.4,58.6758,-1297.56,0,0
89919.725,59.44,-1292.82,0,0
90180,60.3301,-1288.46,0,0
90440.4,60.6994,-1283.94,0,0
90700.7,61.2447,-1279.1,0,0
90961,62.3975,-1274.28,0,0
91221.3,63.7707,-1269.59,0,0
91481.7,65.352,-1265.53,0,0
91742,66.6493,-1261.65,0,0
92002.3,67.8229,-1258.04,0,0
92262.6,69.0409,-1254.07,0,0
92523,70.3264,-1250.43,0,0
92783.3,72.0909,-1246.78,0,0
93043.6,73.7709,-1244.02,0,0
93303.9,75.013,-1241.24,0,0
93564.3,76.827,-1238.52,0,0
93824.6,79.0892,-1237.4,0,0
94084.9,79.1031,-1238.14,0,0
94345.2,76.3232,-1237.52,0,0
94605.6,73.7359,-1234.24,0,0
94865.9,72.4759,-1231.08,0,0
95126.2,70.5677,-1227.68,0,0
95386.5,69.4119,-1223.74,0,0
95646.9,68.1545,-1219.81,0,0
95907.2,66.9348,-1215.44,0,0
96167.5,66.1567,-1210.68,0,0
96427.8,66.2073,-1206.37,0,0
96688.2,65.9925,-1202.8,0,0
96948.5,65.3266,-1199.02,0,0
97208.8,64.7356,-1194.85,0,0
97469.1,64.22,-1190.6,0,0
97729.5,63.9516,-1186.33,0,0
97989.8,63.9933,-1182.09,0,0
98250.1,64.0368,-1177.96,0,0
98510.4,64.2015,-1174.08,0,0
98770.8,64.1679,-1170.41,0,0
99031.1,63.9538,-1166.6,0,0
99291.4,63.6487,-1162.64,0,0
99551.7,63.4616,-1158.69,0,0
99812.1,63.2486,-1154.55,0,0
100072,63.4309,-1150.52,0,0
100333,63.2348,-1146.58,0,0
100593,63.2098,-1142.52,0,0
100853,63.2937,-1138.5,0,0
101114,63.2712,-1134.51,0,0
101374,63.2226,-1130.5,0,0
101634,63.1237,-1126.35,0,0
101895,63.0824,-1122.15,0,0
102155,63.1008,-1117.6,0,0
102415,63.3785,-1112.93,0,0
102676,64.1047,-1108.16,0,0
102936,65.1981,-1103.82,0,0
103196,66.2006,-1099.7,0,0
103457,67.2907,-1095.61,0,0
103717,68.2652,-1091.6,0,0
103977,69.4428,-1087.45,0,0
104238,71.164,-1083.35,0,0
104498,72.9557,-1080.13,0,0
104758,74.2666,-1077.22,0,0
105019,75.2407,-1074.26,0,0
105279,76.0497,-1070.99,0,0
105539,77.1415,-1067.4,0,0
105800,78.5892,-1064.07,0,0
106060,80.0698,-1060.92,0,0
106320.175,81.6202,-1058.05,0,0
106580.5,83.1003,-1055.43,0,0
106840.825,84.5789,-1052.98,0,0
107101.15,85.6216,-1050.47,0,0
107361.475,86.8053,-1047.99,0,0
107621.8,88.1968,-1045.88,0,0
107882.125,88.9948,-1043.88,0,0
108142.45,89.7585,-1041.66,0,0
108402.775,90.5608,-1039.47,0,0
108663.1,91.4765,-1037.37,0,0
108923.425,92.2773,-1035.36,0,0
109183.75,93.0835,-1033.39,0,0
109444.075,93.8818,-1031.76,0,0
109704.4,94.3083,-1030.32,0,0
109964.725,94.3236,-1028.94,0,0
110225.05,94.0523,-1027.2,0,0
110485.375,93.4005,-1025.17,0,0
110745.7,92.9268,-1022.5,0,0
111006.025,92.995,-1019.74,0,0
111266.35,93.4958,-1017.04,0,0
111526.675,93.9993,-1014.65,0,0
111787.0,94.5113,-1012.33,0,0
112047.325,95.0525,-1010.33,0,0
112307.65,95.3958,-1008.53,0,0
112567.975,95.8203,-1006.66,0,0
112828.3,95.9477,-1004.99,0,0
113088.625,95.963,-1003.32,0,0
113348.95,95.9527,-1001.72,0,0
113609.275,95.6724,-1000.17,0,0
113869.6,95.2292,-998.588,0,0
114129.925,94.5466,-996.904,0,0
114390.25,93.91,-995.018,0,0
114650.575,93.276,-992.869,0,0
114910.9,92.7637,-990.891,0,0
115171.225,92.0101,-989.052,0,0
115431.55,91.0807,-987.039,0,0
115691.875,90.1199,-984.951,0,0
115952.2,88.9814,-982.521,0,0
116212.525,88.0489,-979.872,0,0
116472.85,87.263,-977.265,0,0
116733.175,86.5153,-974.707,0,0
116993.5,85.6347,-972.147,0,0
117253.825,84.6698,-969.348,0,0
117514.15,83.7909,-966.389,0,0
117774.475,83.0437,-963.337,0,0
118034.8,82.4198,-960.222,0,0
118295.125,82.011,-957.06,0,0
118555.45,81.6093,-954.005,0,0
118815.775,81.1598,-950.951,0,0
119076.1,80.9395,-947.706,0,0
119336.425,80.8803,-944.553,0,0
119596.75,80.8155,-941.528,0,0
119857.075,80.8653,-938.434,0,0
120117.4,81.0551,-935.567,0,0
120377.725,81.2391,-932.815,0,0
120638.05,81.396,-930.16,0,0
120898.375,81.5738,-927.697,0,0
121158.7,81.469,-925.374,0,0
121419.025,81.1422,-922.859,0,0
121679.35,80.8486,-920.339,0,0
121939.675,80.4171,-917.694,0,0
122200.0,80.0427,-914.914,0,0
122460,79.732,-912.022,0,0
122721,79.4673,-909.099,0,0
122981,79.3327,-906.234,0,0
123241,79.0707,-903.333,0,0
123502,78.9127,-900.297,0,0
123762,78.8275,-897.328,0,0
124022,78.7812,-894.282,0,0
124283,78.8378,-891.277,0,0
124543,78.9095,-888.297,0,0
124803,79.0258,-885.343,0,0
125064,79.1221,-882.47,0,0
125324,79.2365,-879.538,0,0
125584,79.4086,-876.515,0,0
125845,79.7807,-873.628,0,0
126105,79.9087,-870.74,0,0
126365,80.1707,-867.864,0,0
126626,80.4149,-865.031,0,0
126886,80.6761,-862.186,0,0
127146,80.9075,-859.171,0,0
127406,81.2983,-856.312,0,0
127667,81.6623,-853.56,0,0
127927,82.0187,-850.667,0,0
128187,82.5229,-847.654,0,0
128448,83.0826,-844.775,0,0
128708,83.713,-842.071,0,0
128968,84.2176,-839.445,0,0
129229,84.6288,-836.712,0,0
129489,85.0648,-833.806,0,0
129749,85.6481,-830.84,0,0
130010,86.4693,-827.856,0,0
130270,87.5045,-825.055,0,0
130530,88.6079,-822.481,0,0
130791,89.6203,-820.033,0,0
131051,90.6155,-817.666,0,0
131311,91.6567,-815.385,0,0
131572,92.6705,-813.313,0,0
131832,93.4706,-811.312,0,0
132092,94.2514,-809.349,0,0
132353,94.8546,-807.42,0,0
132613,95.2911,-805.401,0,0
132873,95.8589,-803.183,0,0
133134,96.528,-801.114,0,0
133394,97.0426,-799.039,0,0
133654,97.5269,-796.985,0,0
133915,97.9733,-794.85,0,0
134175,98.5333,-792.61,0,0
134435,99.1709,-790.578,0,0
134696,99.7441,-788.537,0,0
134956,100.214,-786.439,0,0
135216,100.714,-784.322,0,0
135477,101.262,-782.204,0,0
135737,101.79,-780.08,0,0
135997,102.375,-777.949,0,0
136258,102.969,-775.688,0,0
136518,103.702,-773.441,0,0
136778,104.662,-771.293,0,0
137039,105.689,-769.368,0,0
137299,106.717,-767.548,0,0
137559,107.734,-765.951,0,0
137819,108.663,-764.665,0,0
138080,109.33,-763.537,0,0
138340.125,109.525,-762.361,0,0
138600.45,109.718,-760.986,0,0
138860.775,109.799,-759.669,0,0
139121.1,109.698,-758.172,0,0
139381.425,109.575,-756.446,0,0
139641.75,109.59,-754.616,0,0
139902.075,109.577,-752.866,0,0
140162.4,109.556,-751.052,0,0
140422.725,109.444,-749.165,0,0
140683.05,109.343,-747.206,0,0
140943.375,109.249,-745.141,0,0
141203.7,109.255,-742.94,0,0
141464.025,109.432,-740.8,0,0
141724.35,109.527,-738.83,0,0
141984.675,109.384,-736.774,0,0
142245.0,109.398,-734.35,0,0
142505.325,109.729,-732.038,0,0
142765.65,110.043,-729.874,0,0
143025.975,110.168,-727.708,0,0
143286.3,110.38,-725.444,0,0
143546.625,110.578,-723.071,0,0
143806.95,111.012,-720.764,0,0
144067.275,111.539,-718.44,0,0
144327.6,111.964,-716.338,0,0
144587.925,112.293,-714.143,0,0
144848.25,112.692,-711.693,0,0
145108.575,113.429,-709.424,0,0
145368.9,114.054,-707.341,0,0
145629.225,114.673,-705.321,0,0
145889.55,115.25,-703.281,0,0
146149.875,115.92,-701.292,0,0
146410.2,116.434,-699.436,0,0
146670.525,116.853,-697.421,0,0
146930.85,117.488,-695.374,0,0
147191.175,118.18,-693.609,0,0
147451.5,118.61,-691.905,0,0
147711.825,118.965,-690.21,0,0
147972.15,119.137,-688.484,0,0
148232.475,119.134,-686.523,0,0
148492.8,119.322,-684.216,0,0
148753.125,119.656,-682.023,0,0
149013.45,120.061,-679.725,0,0
149273.775,120.715,-677.436,0,0
149534.1,121.641,-675.466,0,0
149794.425,122.356,-673.891,0,0
150054.75,122.764,-672.427,0,0
150315.075,122.841,-670.911,0,0
150575.4,122.801,-669.255,0,0
150835.725,122.537,-667.511,0,0
151096.05,122.009,-665.501,0,0
151356.375,121.562,-663.054,0,0
151616.7,121.359,-660.377,0,0
151877.025,121.342,-657.729,0,0
152137.35,121.269,-655.119,0,0
152397.675,121.099,-652.347,0,0
152658.0,120.977,-649.258,0,0
152918.325,121.11,-645.928,0,0
153178.65,121.57,-642.513,0,0
153438.975,122.212,-639.194,0,0
153699.3,122.992,-635.904,0,0
153959.625,123.822,-632.633,0,0
154219.95,124.751,-629.258,0,0
154480,125.959,-625.824,0,0
154741,127.286,-622.498,0,0
155001,128.759,-619.251,0,0
155261,130.194,-616.127,0,0
155522,131.687,-612.798,0,0
155782,133.472,-609.309,0,0
156042,135.733,-605.913,0,0
156303,138.212,-602.83,0,0
156563,140.66,-600.055,0,0
156823,143.142,-597.377,0,0
157084,145.837,-594.725,0,0
157344,148.788,-592.409,0,0
157604,151.726,-590.626,0,0
157864,154.238,-589.189,0,0
158125,156.26,-587.582,0,0
158385,158.41,-585.737,0,0
158645,160.592,-584.126,0,0
158906,162.3,-582.502,0,0
159166,163.907,-580.262,0,0
159426,165.78,-577.653,0,0
159687,168.15,-574.802,0,0
159947,171.166,-571.932,0,0
160207,174.747,-569.387,0,0
160468,178.561,-567.352,0,0
160728,182.366,-565.625,0,0
160988,186.474,-564.262,0,0
161249,190.765,-563.373,0,0
161509,194.869,-563.062,0,0
161769,198.858,-563.06,0,0
162030,202.639,-563.529,0,0
162290,205.927,-564.485,0,0
162550,208.674,-565.404,0,0
162811,211.118,-566.261,0,0
163071,213.249,-566.999,0,0
163331,215.177,-567.503,0,0
163592,217.169,-567.649,0,0
163852,219.455,-567.786,0,0
164112,221.837,-568.168,0,0
164373,224.255,-568.591,0,0
164633,226.592,-569.27,0,0
164893,228.789,-569.883,0,0
165154,231.323,-570.473,0,0
165414,233.806,-571.538,0,0
165674,236.292,-572.729,0,0
165935,238.87,-574.322,0,0
166195,241.136,-576.532,0,0
166455,242.744,-578.995,0,0
166716,243.881,-581.362,0,0
166976,244.724,-583.489,0,0
167236,245.627,-585.55,0,0
167497,246.377,-587.914,0,0
167757,246.661,-590.407,0,0
168017,246.647,-592.857,0,0
168277,246.215,-595.276,0,0
168538,245.383,-597.531,0,0
168798,244.267,-599.599,0,0
169058,242.891,-601.462,0,0
169319,241.167,-603.1,0,0
169579,239.086,-604.42,0,0
169839,236.805,-605.135,0,0
170100,234.443,-605.359,0,0
170360.075,232.392,-605.033,0,0
170620.4,230.695,-604.377,0,0
170880.725,229.304,-603.894,0,0
171141.05,227.654,-603.327,0,0
171401.375,226.076,-602.278,0,0
171661.7,225.022,-600.993,0,0
171922.025,224.23,-599.857,0,0
172182.35,223.564,-598.718,0,0
172442.675,223.151,-597.644,0,0
172703.0,222.836,-596.908,0,0
172963.325,222.276,-596.375,0,0
173223.65,221.484,-595.729,0,0
173483.975,220.622,-594.846,0,0
173744.3,219.835,-593.784,0,0
174004.625,219.119,-592.572,0,0
174264.95,218.655,-591.198,0,0
174525.275,218.41,-589.945,0,0
174785.6,218.288,-588.789,0,0
175045.925,218.047,-587.703,0,0
175306.25,217.925,-586.491,0,0
175566.575,218.096,-585.305,0,0
175826.9,218.463,-584.436,0,0
176087.225,218.643,-584.065,0,0
176347.55,218.483,-583.692,0,0
176607.875,218.087,-583.18,0,0
176868.2,217.706,-582.471,0,0
177128.525,217.439,-581.744,0,0
177388.85,217.254,-580.996,0,0
177649.175,217.205,-580.394,0,0
177909.5,217.15,-580.146,0,0
178169.825,216.745,-580.053,0,0
178430.15,215.982,-579.912,0,0
178690.475,215.045,-579.56,0,0
178950.8,214.044,-579.17,0,0
179211.125,212.878,-578.612,0,0
179471.45,211.753,-577.844,0,0
179731.775,210.659,-577.121,0,0
179992.1,209.399,-576.587,0,0
180252.425,207.692,-575.736,0,0
180512.75,205.987,-574.484,0,0
180773.075,204.476,-572.965,0,0
181033.4,203.01,-571.438,0,0
181293.725,201.535,-569.726,0,0
181554.05,200.181,-567.867,0,0
181814.375,198.966,-565.968,0,0
182074.7,197.667,-564.145,0,0
182335.025,196.325,-562.1,0,0
182595.35,195.07,-559.848,0,0
182855.675,193.939,-557.504,0,0
183116.0,192.865,-555.204,0,0
183376.325,191.686,-552.834,0,0
183636.65,190.553,-550.205,0,0
183896.975,189.539,-547.422,0,0
184157.3,188.624,-544.529,0,0
184417.625,187.859,-541.553,0,0
184677.95,187.112,-538.489,0,0
184938.275,186.4,-535.15,0,0
185198.6,186.138,-531.534,0,0
185458.925,186.34,-528.093,0,0
185719.25,186.674,-524.998,0,0
185979.575,186.954,-521.984,0,0
186239.9,187.233,-518.94,0,0
186500,187.567,-515.992,0,0
186761,187.944,-513.125,0,0
187021,188.158,-510.055,0,0
187281,188.647,-506.841,0,0
187542,189.384,-503.58,0,0
187802,190.301,-500.648,0,0
188062,191.034,-497.827,0,0
188322,191.75,-495.08,0,0
188583,192.348,-492.251,0,0
188843,193.083,-489.29,0,0
189103,193.949,-486.348,0,0
189364,194.794,-483.419,0,0
189624,195.717,-480.61,0,0
189884,196.551,-477.649,0,0
190145,197.365,-474.836,0,0
190405,198.179,-471.736,0,0
190665,199.194,-468.594,0,0
190926,200.203,-465.548,0,0
191186,201.212,-462.471,0,0
191446,202.16,-459.301,0,0
191707,203.254,-455.993,0,0
191967,204.418,-452.481,0,0
192227,205.819,-448.97,0,0
192488,207.396,-445.543,0,0
192748,209.069,-442.174,0,0
193008,210.773,-438.71,0,0
193269,212.699,-435.218,0,0
193529,214.655,-431.791,0,0
193789,216.696,-428.438,0,0
194050,218.778,-425.141,0,0
194310,220.83,-421.818,0,0
194570,222.967,-418.424,0,0
194831,225.164,-414.895,0,0
195091,227.505,-411.289,0,0
195351,230.038,-407.708,0,0
195612,232.85,-404.066,0,0
195872,235.714,-400.648,0,0
196132,238.59,-397.299,0,0
196393,241.485,-393.809,0,0
196653,244.471,-390.2,0,0
196913,247.78,-386.605,0,0
197174,251.274,-383.101,0,0
197434,254.843,-379.63,0,0
197694,258.557,-376.084,0,0
197955,262.492,-372.651,0,0
198215,266.742,-369.354,0,0
198475,270.964,-366.225,0,0
198735,275.313,-363.179,0,0
198996,279.702,-360.373,0,0
199256,283.992,-357.545,0,0
199516,288.184,-354.657,0,0
199777,292.576,-351.498,0,0
200037,297.123,-348.23,0,0
200297,302.056,-344.939,0,0
200558,307.26,-341.73,0,0
200818,312.632,-338.529,0,0
201078,318.315,-335.365,0,0
201339,324.241,-332.195,0,0
201599,330.463,-329.079,0,0
201859,337.099,-325.906,0,0
202120,344.199,-322.895,0,0
202380.025,351.915,-320.175,0,0
202640.35,360.12,-317.937,0,0
202900.675,368.666,-316.358,0,0
203161.0,377.101,-315.327,0,0
203421.325,385.519,-314.336,0,0
203681.65,394.182,-313.425,0,0
203941.975,403.537,-312.755,0,0
204202.3,413.411,-312.805,0,0
204462.625,423.843,-313.71,0,0
204722.95,434.311,-315.457,0,0
204983.275,444.827,-318.278,0,0
205243.6,455.16,-322.187,0,0
205503.925,464.93,-326.871,0,0
205764.25,474.223,-332.187,0,0
206024.575,482.904,-338.147,0,0
206284.9,491.088,-344.458,0,0
206545.225,498.807,-351.314,0,0
206805.55,506.004,-358.791,0,0
207065.875,512.292,-366.775,0,0
207326.2,517.546,-374.7,0,0
207586.525,522.317,-382.499,0,0
207846.85,526.698,-390.327,0,0
208107.175,530.63,-398.532,0,0
208367.5,533.65,-406.722,0,0
208627.825,536.027,-414.634,0,0
208888.15,538.07,-422.428,0,0
209148.475,539.531,-430.157,0,0
209408.8,540.488,-437.729,0,0
209669.125,540.978,-445.251,0,0
209929.45,540.69,-452.801,0,0
210189.775,539.345,-459.972,0,0
210450.1,537.199,-466.123,0,0
210710.425,534.627,-471.178,0,0
210970.75,532.152,-475.102,0,0
211231.075,529.966,-478.347,0,0
211491.4,528.055,-480.997,0,0
211751.725,526.51,-483.132,0,0
212012.05,524.997,-484.846,0,0
212272.375,523.734,-485.932,0,0
212532.7,523.144,-486.192,0,0
212793.025,523.581,-486.121,0,0
213053.35,525.007,-486.237,0,0
213313.675,527.039,-486.793,0,0
213574.0,529.487,-487.74,0,0
213834.325,532.294,-489.24,0,0
214094.65,535.105,-491.327,0,0
214354.975,537.656,-493.673,0,0
214615.3,540.169,-496.149,0,0
214875.625,542.817,-498.754,0,0
215135.95,545.237,-501.442,0,0
215396.275,547.859,-504.238,0,0
215656.6,550.431,-507.294,0,0
215916.925,552.995,-510.717,0,0
216177.25,555.087,-514.251,0,0
216437.575,556.941,-517.479,0,0
216697.9,558.889,-520.557,0,0
216958.225,560.982,-523.504,0,0
217218.55,563.232,-526.429,0,0
217478.875,565.699,-529.463,0,0
217739.2,568.288,-532.652,0,0
217999.525,570.89,-536.003,0,0
218259.85,573.456,-539.425,0,0
218520,576.08,-542.798,0,0
218780,578.877,-546.063,0,0
219041,582.044,-549.393,0,0
219301,585.615,-552.94,0,0
219561,589.476,-556.928,0,0
219822,593.676,-561.339,0,0
220082,597.867,-566.315,0,0
220342,601.822,-571.973,0,0
220603,605.706,-577.935,0,0
220863,609.463,-584.064,0,0
221123,613.489,-590.673,0,0
221384,617.463,-597.928,0,0
221644,621.038,-605.934,0,0
221904,624.183,-614.485,0,0
222165,626.959,-623.47,0,0
222425,629.239,-633,0,0
222685,630.885,-642.972,0,0
222946,631.735,-653.262,0,0
223206,631.792,-663.683,0,0
223466,631.091,-674,0,0
223727,629.907,-684.092,0,0
223987,628.185,-694.262,0,0
224247,625.913,-704.179,0,0
224508,623.228,-714.082,0,0
224768,620.218,-723.818,0,0
225028,616.741,-733.381,0,0
225289,612.81,-743.125,0,0
225549,608.366,-752.53,0,0
225809,603.352,-761.568,0,0
226070,597.95,-770.535,0,0
226330,592.294,-779.121,0,0
226590,586.325,-787.461,0,0
226851,579.987,-795.616,0,0
227111,573.24,-803.563,0,0
227371,566.262,-811.486,0,0
227632,558.682,-819.126,0,0
227892,550.563,-826.418,0,0
228152,541.642,-833.191,0,0
228413,532.403,-839.21,0,0
228673,522.861,-844.511,0,0
228933,513.189,-848.94,0,0
229193,503.65,-852.788,0,0
229454,494.115,-855.893,0,0
229714,484.694,-858.774,0,0
229974,475.381,-860.929,0,0
230235,466.211,-862.628,0,0
230495,457.103,-863.675,0,0
230755,448.24,-864.31,0,0
231016,439.775,-864.537,0,0
231276,431.595,-864.39,0,0
231536,423.77,-864.072,0,0
231797,416.236,-863.381,0,0
232057,408.987,-862.459,0,0
232317,402.085,-861.34,0,0
232578,395.625,-860.123,0,0
232838,389.515,-858.845,0,0
233098,383.665,-857.524,0,0
233359,378.145,-856.382,0,0
233619,372.801,-855.212,0,0
233879,367.399,-854.193,0,0
234140,362.174,-853.146,0,0
234400,357.213,-851.908,0,0
234660.3,352.494,-850.895,0,0
234920.625,347.776,-849.98,0,0
235180.95,343.021,-849.24,0,0
235441.275,338.146,-848.602,0,0
235701.6,333.044,-847.898,0,0
235961.925,327.993,-846.918,0,0
236222.25,322.927,-845.79,0,0
236482.575,317.994,-844.647,0,0
236742.9,313.044,-843.312,0,0
237003.225,308.222,-841.931,0,0
237263.55,303.442,-840.437,0,0
237523.875,298.681,-838.83,0,0
237784.2,294.056,-837.107,0,0
238044.525,289.595,-835.335,0,0
238304.85,285.173,-833.511,0,0
238565.175,280.65,-831.606,0,0
238825.5,276.286,-829.627,0,0
239085.825,272.093,-827.369,0,0
239346.15,268.057,-825.222,0,0
239606.475,263.982,-822.948,0,0
239866.8,260.197,-820.672,0,0
240127.125,256.475,-818.139,0,0
240387.45,252.819,-815.696,0,0
240647.775,249.368,-813.34,0,0
240908.1,246.11,-811.038,0,0
241168.425,242.869,-808.74,0,0
241428.75,239.538,-806.342,0,0
241689.075,236.176,-804.02,0,0
241949.4,233.272,-801.499,0,0
242209.725,230.264,-798.9,0,0
242470.05,227.356,-796.39,0,0
242730.375,224.75,-793.932,0,0
242990.7,222.102,-791.444,0,0
243251.025,219.479,-789.109,0,0
243511.35,217.085,-786.736,0,0
243771.675,214.677,-784.591,0,0
244032.0,212.275,-782.266,0,0
244292.325,209.839,-780.052,0,0
244552.65,207.501,-777.761,0,0
244812.975,205.298,-775.813,0,0
245073.3,202.853,-773.61,0,0
245333.625,200.503,-771.414,0,0
245593.95,198.047,-769.238,0,0
245854.275,195.693,-767.005,0,0
246114.6,193.366,-764.828,0,0
246374.925,190.992,-762.481,0,0
246635.25,188.605,-760.137,0,0
246895.575,186.351,-757.667,0,0
247155.9,184.148,-755.144,0,0
247416.225,182.036,-752.595,0,0
247676.55,180.02,-749.963,0,0
247936.875,178.111,-747.453,0,0
248197.2,176.297,-744.783,0,0
248457.525,174.601,-742.24,0,0
248717.85,172.89,-739.64,0,0
248978.175,171.312,-737.203,0,0
249238.5,169.624,-734.698,0,0
249498.825,168.106,-732.25,0,0
249759.15,166.667,-729.617,0,0
250019.475,165.182,-727.196,0,0
250279.8,163.852,-724.735,0,0
250540,162.48,-722.312,0,0
250800,161.077,-719.883,0,0
251061,159.728,-717.416,0,0
251321,158.468,-714.898,0,0
251581,157.301,-712.429,0,0
251842,156.112,-710.03,0,0
252102,154.916,-707.611,0,0
252362,153.776,-705.209,0,0
252623,152.655,-702.759,0,0
252883,151.516,-700.305,0,0
253143,150.409,-697.77,0,0
253404,149.413,-695.191,0,0
253664,148.453,-692.576,0,0
253924,147.653,-689.99,0,0
254185,146.932,-687.367,0,0
254445,146.16,-684.835,0,0
254705,145.636,-682.203,0,0
254966,145.082,-679.7,0,0
255226,144.672,-677.192,0,0
255486,144.31,-674.687,0,0
255747,144.018,-672.327,0,0
256007,143.68,-670.074,0,0
256267,143.347,-667.8,0,0
256528,142.983,-665.448,0,0
256788,142.698,-663.107,0,0
257048,142.492,-660.77,0,0
257309,142.334,-658.476,0,0
257569,142.183,-656.243,0,0
257829,142.007,-653.947,0,0
258090,141.875,-651.628,0,0
258350,141.849,-649.314,0,0
258610,141.857,-646.961,0,0
258871,141.946,-644.544,0,0
259131,142.163,-642.134,0,0
259391,142.558,-639.711,0,0
259651,143.103,-637.387,0,0
259912,143.665,-635.094,0,0
260172,144.39,-632.919,0,0
260432,145.217,-630.845,0,0
260693,146.092,-628.917,0,0
260953,147.019,-627.045,0,0
261213,147.996,-625.344,0,0
261474,149.001,-623.698,0,0
261734,150,-622.166,0,0
261994,151.044,-620.715,0,0
262255,152.09,-619.307,0,0
262515,153.184,-618.019,0,0
262775,154.299,-616.805,0,0
263036,155.427,-615.722,0,0
263296,156.551,-614.739,0,0
263556,157.679,-613.804,0,0
263817,158.792,-612.938,0,0
264077,159.91,-612.188,0,0
264337,161.069,-611.507,0,0
264598,162.262,-610.874,0,0
264858,163.461,-610.39,0,0
265118,164.668,-609.991,0,0
265379,166.017,-609.658,0,0
265639,167.437,-609.615,0,0
265899,168.691,-609.785,0,0
266160,170.003,-610.295,0,0
266420,171.15,-610.963,0,0
266680.25,172.145,-611.927,0,0
266940.575,172.893,-613.031,0,0
267200.9,173.352,-614.401,0,0
267461.225,173.459,-615.777,0,0
267721.55,173.262,-617.145,0,0
267981.875,172.81,-618.521,0,0
268242.2,172.104,-619.837,0,0
268502.525,171.16,-621.126,0,0
268762.85,169.874,-622.289,0,0
269023.175,168.309,-623.347,0,0
269283.5,166.575,-624.141,0,0
269543.825,164.651,-624.698,0,0
269804.15,162.496,-624.978,0,0
270064.475,160.383,-624.942,0,0
270324.8,158.103,-624.645,0,0
270585.125,155.919,-624.074,0,0
270845.45,153.795,-623.167,0,0
271105.775,151.696,-622.053,0,0
271366.1,149.815,-620.699,0,0
271626.425,148.09,-619.179,0,0
271886.75,146.528,-617.565,0,0
272147.075,145.12,-615.813,0,0
272407.4,143.877,-613.996,0,0
272667.725,142.837,-612.102,0,0
272928.05,141.959,-610.175,0,0
273188.375,141.273,-608.25,0,0
273448.7,140.765,-606.344,0,0
273709.025,140.401,-604.481,0,0
273969.35,140.159,-602.727,0,0
274229.675,139.995,-601.035,0,0
274490.0,139.932,-599.404,0,0
274750.325,139.954,-597.829,0,0
275010.65,139.984,-596.278,0,0
275270.975,140.07,-594.896,0,0
275531.3,140.215,-593.571,0,0
275791.625,140.339,-592.266,0,0
276051.95,140.489,-590.969,0,0
276312.275,140.695,-589.706,0,0
276572.6,140.955,-588.508,0,0
276832.925,141.231,-587.324,0,0
277093.25,141.585,-586.225,0,0
277353.575,141.988,-585.138,0,0
277613.9,142.452,-584.198,0,0
277874.225,142.938,-583.324,0,0
278134.55,143.433,-582.565,0,0
278394.875,143.905,-581.907,0,0
278655.2,144.366,-581.368,0,0
278915.525,144.746,-580.928,0,0
279175.85,145.088,-580.565,0,0
279436.175,145.346,-580.238,0,0
279696.5,145.531,-579.913,0,0
279956.825,145.657,-579.695,0,0
280217.15,145.777,-579.443,0,0
280477.475,145.79,-579.229,0,0
280737.8,145.793,-579.033,0,0
280998.125,145.72,-578.878,0,0
281258.45,145.583,-578.771,0,0
281518.775,145.382,-578.7,0,0
281779.1,145.021,-578.67,0,0
282039.425,144.524,-578.561,0,0
282299.75,143.97,-578.385,0,0
282560,143.345,-578.135,0,0
282820,142.653,-577.792,0,0
283081,141.906,-577.398,0,0
283341,141.145,-576.871,0,0
283601,140.38,-576.206,0,0
283862,139.679,-575.48,0,0
284122,139.047,-574.692,0,0
284382,138.48,-573.873,0,0
284643,137.934,-573.057,0,0
284903,137.466,-572.221,0,0
285163,137.025,-571.476,0,0
285424,136.616,-570.712,0,0
285684,136.117,-570.025,0,0
285944,135.585,-569.363,0,0
286205,134.978,-568.742,0,0
286465,134.199,-568.027,0,0
286725,133.294,-567.22,0,0
286986,132.325,-566.209,0,0
287246,131.369,-564.983,0,0
287506,130.453,-563.535,0,0
287767,129.687,-561.927,0,0
288027,129.125,-560.155,0,0
288287,128.74,-558.281,0,0
288548,128.617,-556.345,0,0
288808,128.764,-554.467,0,0
289068,129.143,-552.704,0,0
289329,129.646,-551.091,0,0
289589,130.27,-549.62,0,0
289849,130.997,-548.29,0,0
290109,131.772,-547.249,0,0
290370,132.515,-546.376,0,0
290630,133.156,-545.602,0,0
290890,133.701,-544.942,0,0
291151,134.172,-544.289,0,0
291411,134.603,-543.688,0,0
291671,135.048,-543.163,0,0
291932,135.414,-542.676,0,0
292192,135.695,-542.306,0,0
292452,135.813,-541.983,0,0
292713,135.782,-541.611,0,0
292973,135.6,-541.153,0,0
293233,135.346,-540.587,0,0
293494,135.041,-539.916,0,0
293754,134.712,-539.103,0,0
294014,134.365,-538.154,0,0
294275,134.041,-537.081,0,0
294535,133.785,-535.855,0,0
294795,133.638,-534.482,0,0
295056,133.598,-533,0,0
295316,133.757,-531.402,0,0
295576,134.142,-529.805,0,0
295837,134.7,-528.245,0,0
296097,135.44,-526.754,0,0
296357,136.343,-525.375,0,0
296618,137.373,-524.142,0,0
296878,138.444,-523.105,0,0
297138,139.508,-522.183,0,0
297399,140.573,-521.408,0,0
297659,141.53,-520.697,0,0
297919,142.439,-520.001,0,0
298180,143.346,-519.28,0,0
298440,144.305,-518.549,0,0
298700.2,145.324,-517.912,0,0
298960.525,146.413,-517.264,0,0
299220.85,147.386,-516.733,0,0
299481.175,148.416,-516.215,0,0
299741.5,149.524,-515.697,0,0
300001.825,150.613,-515.187,0,0
300262.15,151.708,-514.829,0,0
300522.475,152.818,-514.44,0,0
300782.8,154.006,-514.079,0,0
301043.125,155.234,-513.733,0,0
301303.45,156.489,-513.383,0,0
301563.775,157.94,-513.113,0,0
301824.1,159.5,-513.158,0,0
302084.425,161.03,-513.265,0,0
302344.75,162.578,-513.651,0,0
302605.075,163.932,-514.114,0,0
302865.4,165.264,-514.738,0,0
303125.725,166.45,-515.421,0,0
303386.05,167.528,-516.181,0,0
303646.375,168.446,-516.964,0,0
303906.7,169.419,-517.683,0,0
304167.025,170.363,-518.492,0,0
304427.35,171.17,-519.179,0,0
304687.675,172.072,-520.012,0,0
304948.0,172.789,-520.907,0,0
305208.325,173.501,-521.801,0,0
305468.65,174.277,-522.674,0,0
305728.975,175.054,-523.657,0,0
305989.3,175.787,-524.7,0,0
306249.625,176.496,-525.906,0,0
306509.95,177.077,-527.072,0,0
306770.275,177.666,-528.429,0,0
307030.6,178.109,-529.895,0,0
307290.925,178.385,-531.342,0,0
307551.25,178.556,-532.959,0,0
307811.575,178.602,-534.53,0,0
308071.9,178.518,-536.034,0,0
308332.225,178.149,-537.482,0,0
308592.55,177.744,-538.799,0,0
308852.875,177.271,-540.154,0,0
309113.2,176.744,-541.261,0,0
309373.525,176.399,-542.273,0,0
309633.85,175.973,-543.416,0,0
309894.175,175.556,-544.468,0,0
310154.5,175.293,-545.68,0,0
310414.825,174.881,-546.908,0,0
310675.15,174.438,-548.216,0,0
310935.475,173.869,-549.531,0,0
311195.8,173.149,-550.891,0,0
311456.125,172.481,-552.312,0,0
311716.45,171.644,-553.693,0,0
311976.775,170.621,-555.203,0,0
312237.1,169.403,-556.615,0,0
312497.425,168.083,-557.982,0,0
312757.75,166.645,-559.166,0,0
313018.075,165.037,-560.345,0,0
313278.4,163.34,-561.284,0,0
313538.725,161.599,-562.07,0,0
313799.05,159.889,-562.666,0,0
314059.375,158.11,-563.208,0,0
314319.7,156.46,-563.557,0,0
314580,154.97,-563.95,0,0
314840,153.374,-564.135,0,0
315101,151.922,-564.424,0,0
315361,150.37,-564.658,0,0
315621,148.853,-564.872,0,0
315882,147.369,-565.286,0,0
316142,145.747,-565.358,0,0
316402,144.113,-565.491,0,0
316663,142.404,-565.589,0,0
316923,140.824,-565.635,0,0
317183,139.183,-565.455,0,0
317444,137.579,-565.371,0,0
317704,135.919,-565.122,0,0
317964,134.357,-564.847,0,0
318225,132.763,-564.543,0,0
318485,131.229,-564.199,0,0
318745,129.759,-563.804,0,0
319006,128.235,-563.32,0,0
319266,126.627,-562.933,0,0
319526,125.16,-562.387,0,0
319787,123.686,-561.791,0,0
320047,122.198,-561.2,0,0
320307,120.716,-560.54,0,0
320567,119.32,-559.749,0,0
320828,117.864,-558.97,0,0
321088,116.605,-558.152,0,0
321348,115.277,-557.263,0,0
321609,114.087,-556.349,0,0
321869,112.87,-555.413,0,0
322129,111.651,-554.498,0,0
322390,110.52,-553.438,0,0
322650,109.359,-552.425,0,0
322910,108.432,-551.21,0,0
323171,107.412,-550.083,0,0
323431,106.589,-548.931,0,0
323691,105.795,-547.816,0,0
323952,105.104,-546.714,0,0
324212,104.5,-545.471,0,0
324472,103.9,-544.377,0,0
324733,103.392,-543.41,0,0
324993,102.88,-542.357,0,0
325253,102.423,-541.298,0,0
325514,102.014,-540.347,0,0
325774,101.713,-539.473,0,0
326034,101.353,-538.453,0,0
326295,101.104,-537.669,0,0
326555,100.855,-536.836,0,0
326815,100.61,-536.058,0,0
327076,100.412,-535.366,0,0
327336,100.181,-534.737,0,0
327596,99.9666,-534.134,0,0
327857,99.6989,-533.45,0,0
328117,99.4634,-532.983,0,0
328377,99.1397,-532.393,0,0
328638,98.8762,-531.921,0,0
328898,98.5928,-531.434,0,0
329158,98.35,-531.025,0,0
329419,98.0125,-530.617,0,0
329679,97.6889,-530.391,0,0
329939,97.279,-529.942,0,0
330200,96.875,-529.553,0,0
330460,96.4772,-529.316,0,0
330720.15,95.9988,-529.052,0,0
330980.475,95.4898,-528.739,0,0
331240.8,94.922,-528.408,0,0
331501.125,94.3903,-528.044,0,0
331761.45,93.7914,-527.763,0,0
332021.775,93.2077,-527.479,0,0
332282.1,92.4924,-527.085,0,0
332542.425,91.8059,-526.747,0,0
332802.75,91.1282,-526.314,0,0
333063.075,90.371,-525.87,0,0
333323.4,89.7317,-525.476,0,0
333583.725,88.9314,-525.011,0,0
333844.05,88.1847,-524.5,0,0
334104.375,87.527,-524.003,0,0
334364.7,86.7562,-523.511,0,0
334625.025,86.0057,-522.99,0,0
334885.35,85.17,-522.37,0,0
335145.675,84.4345,-521.762,0,0
335406.0,83.6356,-521.067,0,0
335666.325,82.9552,-520.401,0,0
335926.65,82.1991,-519.708,0,0
336186.975,81.5009,-518.93,0,0
336447.3,80.7964,-518.303,0,0
336707.625,80.0936,-517.572,0,0
336967.95,79.4228,-516.792,0,0
337228.275,78.7599,-516.074,0,0
337488.6,78.1359,-515.347,0,0
337748.925,77.4888,-514.564,0,0
338009.25,76.8866,-513.761,0,0
338269.575,76.2596,-512.985,0,0
338529.9,75.6078,-512.205,0,0
338790.225,75.0432,-511.339,0,0
339050.55,74.4481,-510.501,0,0
339310.875,73.9138,-509.665,0,0
339571.2,73.3669,-508.794,0,0
339831.525,72.8794,-508.033,0,0
340091.85,72.3448,-507.13,0,0
340352.175,71.8988,-506.276,0,0
340612.5,71.426,-505.434,0,0
340872.825,70.9791,-504.633,0,0
341133.15,70.5471,-503.776,0,0
341393.475,70.0958,-503.044,0,0
341653.8,69.6577,-502.191,0,0
341914.125,69.2212,-501.378,0,0
342174.45,68.8147,-500.597,0,0
342434.775,68.3409,-499.855,0,0
342695.1,67.9178,-499.026,0,0
342955.425,67.4974,-498.191,0,0
343215.75,67.0757,-497.443,0,0
343476.075,66.6274,-496.586,0,0
343736.4,66.1911,-495.837,0,0
343996.725,65.7169,-494.98,0,0
344257.05,65.3037,-494.198,0,0
344517.375,64.8611,-493.327,0,0
344777.7,64.4623,-492.484,0,0
345038.025,64.0579,-491.678,0,0
345298.35,63.643,-490.766,0,0
345558.675,63.1846,-489.938,0,0
345819.0,62.8034,-489.002,0,0
346079.325,62.3999,-488.109,0,0
346339.65,62.0411,-487.242,0,0
346599.975,61.7063,-486.351,0,0
346860,61.3152,-485.403,0,0
347121,60.9792,-484.472,0,0
347381,60.6473,-483.552,0,0
347641,60.3774,-482.536,0,0
347902,60.0726,-481.578,0,0
348162,59.8122,-480.668,0,0
348422,59.5757,-479.633,0,0
348683,59.3728,-478.74,0,0
348943,59.2349,-477.722,0,0
349203,58.9825,-476.902,0,0
349464,58.883,-475.977,0,0
349724,58.6733,-475.048,0,0
349984,58.5907,-474.154,0,0
350245,58.3231,-473.265,0,0
350505,58.2346,-472.372,0,0
350765,58.0747,-471.477,0,0
351025,57.9959,-470.565,0,0
351286,57.8441,-469.702,0,0
351546,57.753,-468.87,0,0
351806,57.7037,-467.924,0,0
352067,57.574,-467.087,0,0
352327,57.4798,-466.22,0,0
352587,57.4701,-465.361,0,0
352848,57.402,-464.575,0,0
353108,57.3004,-463.704,0,0
353368,57.2655,-462.95,0,0
353629,57.2296,-462.115,0,0
353889,57.1478,-461.31,0,0
354149,57.1065,-460.543,0,0
354410,57.0174,-459.74,0,0
354670,56.9918,-458.916,0,0
354930,56.9141,-458.09,0,0
355191,56.941,-457.251,0,0
355451,56.919,-456.444,0,0
355711,56.8992,-455.64,0,0
355972,56.8701,-454.843,0,0
356232,56.8931,-454.052,0,0
356492,56.9021,-453.304,0,0
356753,56.9018,-452.552,0,0
357013,56.9261,-451.766,0,0
357273,56.9397,-451.009,0,0
357534,56.938,-450.251,0,0
357794,56.9536,-449.563,0,0
358054,56.9857,-448.789,0,0
358315,56.9535,-448.053,0,0
358575,56.9823,-447.325,0,0
358835,56.9951,-446.596,0,0
359096,57.0637,-445.838,0,0
359356,57.0232,-445.052,0,0
359616,57.1317,-444.283,0,0
359877,57.1024,-443.587,0,0
360137,57.1888,-442.773,0,0
360397,57.2704,-442.06,0,0
360658,57.3519,-441.33,0,0
360918,57.4546,-440.59,0,0
361178,57.5194,-439.919,0,0
361438,57.5824,-439.218,0,0
361699,57.7123,-438.576,0,0
361959,57.7501,-437.941,0,0
362219,57.8159,-437.204,0,0
362480,57.8466,-436.55,0,0
362740.1,57.8881,-435.846,0,0
363000.425,57.9182,-435.129,0,0
363260.75,57.9552,-434.402,0,0
363521.075,58.0782,-433.715,0,0
363781.4,58.1644,-432.963,0,0
364041.725,58.2482,-432.282,0,0
364302.05,58.3121,-431.609,0,0
364562.375,58.4465,-430.865,0,0
364822.7,58.5834,-430.231,0,0
365083.025,58.6908,-429.553,0,0
365343.35,58.8231,-428.866,0,0
365603.675,58.9511,-428.245,0,0
365864.0,59.0721,-427.543,0,0
366124.325,59.2397,-426.966,0,0
366384.65,59.2849,-426.304,0,0
366644.975,59.3665,-425.648,0,0
366905.3,59.3841,-425.056,0,0
367165.625,59.4412,-424.361,0,0
367425.95,59.4504,-423.607,0,0
367686.275,59.4418,-422.917,0,0
367946.6,59.4795,-422.113,0,0
368206.925,59.5519,-421.284,0,0
368467.25,59.6249,-420.469,0,0
368727.575,59.78,-419.536,0,0
368987.9,59.9498,-418.602,0,0
369248.225,60.1628,-417.685,0,0
369508.55,60.5031,-416.751,0,0
369768.875,60.8622,-415.85,0,0
370029.2,61.2235,-414.938,0,0
370289.525,61.6888,-414.095,0,0
370549.85,62.142,-413.261,0,0
370810.175,62.7132,-412.402,0,0
371070.5,63.2503,-411.63,0,0
371330.825,63.8779,-410.849,0,0
371591.15,64.4962,-410.128,0,0
371851.475,65.2342,-409.478,0,0
372111.8,65.9357,-408.897,0,0
372372.125,66.6178,-408.382,0,0
372632.45,67.3045,-407.871,0,0
372892.775,68.0631,-407.442,0,0
373153.1,68.7811,-407.047,0,0
373413.425,69.5068,-406.717,0,0
373673.75,70.2155,-406.398,0,0
373934.075,70.9454,-406.23,0,0
374194.4,71.5988,-406.015,0,0
374454.725,72.2481,-405.904,0,0
374715.05,72.8428,-405.838,0,0
374975.375,73.3952,-405.744,0,0
375235.7,73.859,-405.722,0,0
375496.025,74.3456,-405.724,0,0
375756.35,74.7686,-405.664,0,0
376016.675,75.2116,-405.608,0,0
376277.0,75.5371,-405.571,0,0
376537.325,75.9021,-405.477,0,0
376797.65,76.2781,-405.439,0,0
377057.975,76.6431,-405.386,0,0
377318.3,77.0361,-405.323,0,0
377578.625,77.4329,-405.284,0,0
377838.95,77.7705,-405.298,0,0
378099.275,78.1526,-405.294,0,0
378359.6,78.4679,-405.349,0,0
378619.925,78.786,-405.417,0,0
378880,79.042,-405.493,0,0
379141,79.2751,-405.56,0,0
379401,79.4464,-405.692,0,0
379661,79.7122,-405.724,0,0
379922,79.8579,-405.744,0,0
380182,80.067,-405.66,0,0
380442,80.317,-405.653,0,0
380703,80.6242,-405.639,0,0
380963,80.9735,-405.689,0,0
381223,81.3224,-405.825,0,0
381483,81.6976,-406.05,0,0
381744,82.0414,-406.284,0,0
382004,82.2739,-406.727,0,0
382264,82.4571,-407.133,0,0
382525,82.5539,-407.556,0,0
382785,82.5985,-408.023,0,0
383045,82.5423,-408.482,0,0
383306,82.4401,-408.932,0,0
383566,82.2431,-409.404,0,0
383826,81.9622,-409.827,0,0
384087,81.6459,-410.207,0,0
384347,81.271,-410.531,0,0
384607,80.8629,-410.882,0,0
384868,80.3792,-411.14,0,0
385128,79.8321,-411.367,0,0
385388,79.3366,-411.519,0,0
385649,78.8165,-411.64,0,0
385909,78.2415,-411.74,0,0
386169,77.6641,-411.783,0,0
386430,76.9637,-411.806,0,0
386690,76.3696,-411.726,0,0
386950,75.6976,-411.622,0,0
387211,75.1138,-411.449,0,0
387471,74.4838,-411.189,0,0
387731,73.8705,-410.875,0,0
387992,73.2832,-410.573,0,0
388252,72.7428,-410.227,0,0
388512,72.2552,-409.819,0,0
388773,71.7849,-409.423,0,0
389033,71.3768,-408.954,0,0
389293,71.0276,-408.501,0,0
389554,70.6568,-408.073,0,0
389814,70.3654,-407.635,0,0
390074,70.0581,-407.221,0,0
390335,69.7825,-406.818,0,0
390595,69.5149,-406.471,0,0
390855,69.2965,-406.117,0,0
391116,69.0122,-405.733,0,0
391376,68.8011,-405.345,0,0
391636,68.5198,-405.055,0,0
391896,68.2852,-404.736,0,0
392157,68.0424,-404.463,0,0
392417,67.7496,-404.202,0,0
392677,67.4583,-403.974,0,0
392938,67.0545,-403.724,0,0
393198,66.7083,-403.452,0,0
393458,66.2567,-403.149,0,0
393719,65.8187,-402.847,0,0
393979,65.3557,-402.535,0,0
394239,64.8993,-402.162,0,0
394500,64.3899,-401.738,0,0
394760.05,63.911,-401.295,0,0
395020.375,63.4204,-400.76,0,0
395280.7,63.0034,-400.243,0,0
395541.025,62.5131,-399.737,0,0
395801.35,62.0571,-399.104,0,0
396061.675,61.6611,-398.484,0,0
396322.0,61.2679,-397.878,0,0
396582.325,60.8738,-397.18,0,0
396842.65,60.5465,-396.553,0,0
397102.975,60.1998,-395.889,0,0
397363.3,59.9273,-395.198,0,0
397623.625,59.648,-394.526,0,0
397883.95,59.3794,-393.829,0,0
398144.275,59.1433,-393.114,0,0
398404.6,58.8776,-392.447,0,0
398664.925,58.6547,-391.71,0,0
398925.25,58.4716,-391.008,0,0
399185.575,58.2734,-390.269,0,0
399445.9,58.1389,-389.625,0,0
399706.225,57.9511,-388.893,0,0
399966.55,57.821,-388.13,0,0
400006.6,57.7921,-387.992,0,0