File: Accelerated corrosion test data/2025-10-15_18-00-03/sample_4.csv
Frequency (Hz),Impedance (ohms),Phase (Radians),Temperature (C),Humidity (%)
10000.0,263.044,-11902.5,0,0
10260.325,259.498,-11603.5,0,0
10520.65,249.837,-11319.3,0,0
10780.975,244.044,-11047.7,0,0
11041.3,238.925,-10788.6,0,0
11301.625,233.872,-10544.9,0,0
11561.95,228.193,-10308,0,0
11822.275,223.967,-10082.9,0,0
12082.6,219.211,-9867.14,0,0
12342.925,214.782,-9660.02,0,0
12603.25,212.714,-9459.82,0,0
12863.575,207.53,-9272.84,0,0
13123.9,206.543,-9093.58,0,0
13384.225,199.099,-8914.28,0,0
13644.55,195.848,-8743.7,0,0
13904.875,192.752,-8577.45,0,0
14165.2,193.467,-8413.97,0,0
14425.525,198.115,-8268.97,0,0
14685.8,200.447,-8152.92,0,0
14946.175,181.705,-7995.73,0,0
15206.5,180.57,-7850.66,0,0
15466.825,188.962,-7705.69,0,0
15727.15,186.648,-7608.48,0,0
15987.5,185.458,-7490.27,0,0
16247.8,170.248,-7361.49,0,0
16508.125,192.037,-7235.23,0,0
16768.45,178.715,-7133.6,0,0
17028.775,170.081,-7045.13,0,0
17289.1,159.765,-6931.38,0,0
17549.425,157.923,-6827,0,0
17809.75,155.353,-6726.57,0,0
18070.075,151.709,-6626.9,0,0
18330.4,152.93,-6530.68,0,0
18590.725,152.261,-6441.5,0,0
18851.05,149.3,-6357.7,0,0
19111.375,144.966,-6268.09,0,0
19371.7,142.462,-6182.48,0,0
19632.025,141.425,-6098.12,0,0
19892.35,143.841,-6017.73,0,0
20152.675,143.261,-5940.32,0,0
20413.0,140.229,-5866.44,0,0
20673.3,140.398,-5791.76,0,0
20933.65,136.644,-5717.93,0,0
21193.975,140.007,-5643.13,0,0
21454.3,151.721,-5577.41,0,0
21714.625,146.166,-5520.87,0,0
21974.9,148.463,-5449.28,0,0
22235.275,148.457,-5404.57,0,0
22495.6,134.934,-5347.18,0,0
22755.925,127.948,-5281.95,0,0
23016.25,124.838,-5219.91,0,0
23276.6,122.35,-5159.58,0,0
23536.9,120.528,-5102.03,0,0
23797.225,118.494,-5045.09,0,0
24057.55,116.748,-4989.3,0,0
24317.875,115.887,-4934.04,0,0
24578.2,114.573,-4881.02,0,0
24838.525,113.851,-4828.73,0,0
25098.85,114.627,-4777.37,0,0
25359.175,112.651,-4729.91,0,0
25619.5,111.721,-4680.42,0,0
25879.8,110.687,-4636.57,0,0
26140.1,107.829,-4588.05,0,0
26400.5,106.877,-4541.57,0,0
26660.8,106.156,-4494.75,0,0
26921.1,105.938,-4450.7,0,0
27181.4,105.2,-4405.5,0,0
27441.8,105.435,-4360.65,0,0
27702.1,109.336,-4316.24,0,0
27962.4,115.984,-4276.11,0,0
28222.7,119.368,-4247.8,0,0
28483.1,112.836,-4212.49,0,0
28743.4,109.591,-4171.4,0,0
29003.7,111.384,-4130.83,0,0
29264,117.695,-4098.26,0,0
29524.4,112.04,-4067.56,0,0
29784.7,109.683,-4035.09,0,0
30045,106.656,-4000.7,0,0
30305.3,100.603,-3966.02,0,0
30565.7,99.1581,-3930,0,0
30826,98.336,-3895.38,0,0
31086.3,97.5647,-3860.86,0,0
31346.6,98.596,-3827.31,0,0
31607,97.5357,-3796.85,0,0
31867.3,97.3892,-3764.65,0,0
32127.6,99.686,-3734.35,0,0
32387.9,98.1359,-3708.5,0,0
32648.3,96.3115,-3678.74,0,0
32908.6,94.3623,-3651.21,0,0
33168.9,92.3284,-3622.24,0,0
33429.2,89.5768,-3593.36,0,0
33689.6,88.1171,-3563.89,0,0
33949.9,87.1787,-3535.44,0,0
34210.2,87.4054,-3507.77,0,0
34470.5,85.9028,-3481.93,0,0
34730.9,84.5897,-3454.57,0,0
34991.2,84.3771,-3427.68,0,0
35251.5,83.8705,-3402.05,0,0
35511.8,83.0535,-3376.49,0,0
35772.2,82.6015,-3351.45,0,0
36032.5,81.4342,-3326.84,0,0
36292.8,80.6838,-3301.73,0,0
36553.1,80.4258,-3277.04,0,0
36813.5,80.2376,-3253.48,0,0
37073.8,80.5565,-3230.34,0,0
37334.1,79.4244,-3207.63,0,0
37594.4,78.8549,-3184.26,0,0
37854.8,78.749,-3161.93,0,0
38115.1,77.9498,-3140.12,0,0
38375.4,77.0706,-3117.69,0,0
38635.7,76.8969,-3095.35,0,0
38896.1,77.181,-3073.89,0,0
39156.4,76.8,-3052.99,0,0
39416.7,76.175,-3031.71,0,0
39677,76.0138,-3010.51,0,0
39937.4,76.8904,-2989.2,0,0
40197.7,78.3519,-2968.87,0,0
40458,80.4285,-2950.16,0,0
40718.3,79.47,-2933.41,0,0
40978.7,78.9557,-2913.34,0,0
41239,79.5238,-2895.03,0,0
41499.3,81.62,-2877.65,0,0
41759.6,78.6691,-2861.76,0,0
42020,77.3806,-2843.61,0,0
42280.275,76.5593,-2823.96,0,0
42540.6,78.321,-2806.25,0,0
42800.925,77.9034,-2792.01,0,0
43061.25,75.066,-2774.22,0,0
43321.575,75.9082,-2756.82,0,0
43581.9,74.1038,-2740.42,0,0
43842.225,73.181,-2722.89,0,0
44102.55,73.4774,-2706.85,0,0
44362.875,72.0706,-2689.93,0,0
44623.2,72.1992,-2673.23,0,0
44883.525,71.8059,-2657.72,0,0
45143.85,71.0425,-2641.74,0,0
45404.175,70.2339,-2625.12,0,0
45664.5,70.8337,-2608.29,0,0
45924.825,72.5076,-2594.11,0,0
46185.15,71.266,-2580.54,0,0
46445.475,69.9603,-2564.26,0,0
46705.8,70.9091,-2548.9,0,0
46966.125,71.3511,-2535.17,0,0
47226.45,71.2468,-2520.97,0,0
47486.775,71.1768,-2508.07,0,0
47747.1,70.0809,-2494.43,0,0
48007.425,68.8274,-2480.03,0,0
48267.75,68.2388,-2466.84,0,0
48528.075,67.5862,-2452.56,0,0
48788.4,66.7226,-2438.76,0,0
49048.725,65.9344,-2424.82,0,0
49309.05,65.8996,-2410.78,0,0
49569.375,65.3455,-2397.74,0,0
49829.7,64.7133,-2383.9,0,0
50090.025,64.6832,-2370.71,0,0
50350.35,64.3086,-2357.31,0,0
50610.675,64.0921,-2344.33,0,0
50871.0,63.9651,-2331.12,0,0
51131.325,63.737,-2318.29,0,0
51391.65,63.6373,-2305.47,0,0
51651.975,63.7179,-2292.49,0,0
51912.3,63.6732,-2279.82,0,0
52172.625,63.941,-2267.06,0,0
52432.95,64.2162,-2255.1,0,0
52693.275,64.2913,-2242.25,0,0
52953.6,65.2005,-2229.53,0,0
53213.925,66.399,-2217.5,0,0
53474.25,67.5574,-2205.46,0,0
53734.575,68.913,-2193.84,0,0
53994.9,71.4666,-2182.62,0,0
54255.225,73.6774,-2173.05,0,0
54515.55,75.5482,-2164.43,0,0
54775.875,75.7471,-2156.79,0,0
55036.2,74.2704,-2148.22,0,0
55296.525,73.4761,-2138.64,0,0
55556.85,71.7932,-2129.78,0,0
55817.175,69.8727,-2119.29,0,0
56077.5,68.3966,-2108.99,0,0
56337.825,67.0769,-2098.16,0,0
56598.15,65.8819,-2086.89,0,0
56858.475,65.4081,-2075.6,0,0
57118.8,65.7608,-2064.69,0,0
57379.125,66.146,-2054.1,0,0
57639.45,66.133,-2043.95,0,0
57899.775,66.3209,-2033.63,0,0
58160.1,66.5148,-2023.12,0,0
58420.4,67.642,-2012.93,0,0
58680.7,68.0968,-2004.36,0,0
58941.1,67.3161,-1993.61,0,0
59201.4,68.7168,-1982.81,0,0
59461.7,70.7625,-1972.76,0,0
59722,73.2034,-1964.05,0,0
59982.4,75.4297,-1956.24,0,0
60242.7,76.4791,-1948.93,0,0
60503,77.5211,-1941.43,0,0
60763.3,79.7839,-1934.12,0,0
61023.7,80.6706,-1930.63,0,0
61284,78.4624,-1925.73,0,0
61544.3,74.5591,-1919.59,0,0
61804.6,71.5243,-1910.07,0,0
62065,69.8675,-1901.26,0,0
62325.3,68.7168,-1893.03,0,0
62585.6,66.1091,-1884.38,0,0
62845.9,64.9633,-1873.9,0,0
63106.3,64.6348,-1865.14,0,0
63366.6,64.164,-1855.73,0,0
63626.9,64.2642,-1846.5,0,0
63887.2,64.5146,-1838.72,0,0
64147.6,63.2602,-1829.92,0,0
64407.9,63.7972,-1820.55,0,0
64668.2,64.4222,-1812.12,0,0
64928.5,64.9664,-1804.22,0,0
65188.9,65.1627,-1796.3,0,0
65449.2,65.1754,-1788.39,0,0
65709.5,64.9819,-1779.92,0,0
65969.8,66.3414,-1771.36,0,0
66230.2,67.4464,-1764.25,0,0
66490.5,67.9402,-1756.94,0,0
66750.8,68.725,-1749.78,0,0
67011.1,69.2237,-1742.43,0,0
67271.5,70.3935,-1735.3,0,0
67531.8,71.5208,-1728.8,0,0
67792.1,72.4826,-1722.7,0,0
68052.4,73.2139,-1717.02,0,0
68312.8,73.4703,-1711.56,0,0
68573.1,73.717,-1706.37,0,0
68833.4,73.2803,-1701.63,0,0
69093.7,71.3171,-1696.57,0,0
69354.1,69.2655,-1690.61,0,0
69614.4,67.1194,-1683.59,0,0
69874.7,66.3099,-1676.11,0,0
70135,65.2685,-1669.28,0,0
70395.4,64.1397,-1662.11,0,0
70655.7,64.0279,-1654.03,0,0
70916,65.12,-1647.54,0,0
71176.3,64.7051,-1641.73,0,0
71436.7,64.3579,-1635.81,0,0
71697,63.659,-1630.25,0,0
71957.3,62.0415,-1624.16,0,0
72217.6,60.3878,-1617.53,0,0
72478,59.216,-1610.29,0,0
72738.3,58.3266,-1603.06,0,0
72998.6,57.5645,-1595.81,0,0
73258.9,57.2247,-1588.12,0,0
73519.3,57.5131,-1580.73,0,0
73779.6,57.7389,-1573.91,0,0
74039.9,58.132,-1566.97,0,0
74300.225,58.4175,-1560.63,0,0
74560.55,58.624,-1553.9,0,0
74820.875,59.074,-1547.4,0,0
75081.2,59.7482,-1540.92,0,0
75341.525,60.6417,-1535.04,0,0
75601.85,60.9319,-1529.26,0,0
75862.175,61.2005,-1523.41,0,0
76122.5,61.7067,-1517.4,0,0
76382.825,62.2421,-1511.95,0,0
76643.15,62.2889,-1506.5,0,0
76903.475,62.2196,-1500.63,0,0
77163.8,63.0289,-1494.32,0,0
77424.125,64.1554,-1489.12,0,0
77684.45,65.0239,-1484.25,0,0
77944.775,65.5619,-1479.89,0,0
78205.1,65.5146,-1475.47,0,0
78465.425,65.2342,-1471.06,0,0
78725.75,64.6249,-1466.5,0,0
78986.075,63.7953,-1461.75,0,0
79246.4,62.9376,-1456.57,0,0
79506.725,62.1575,-1451.24,0,0
79767.05,61.5962,-1445.78,0,0
80027.375,61.1708,-1440.26,0,0
80287.7,60.8663,-1434.74,0,0
80548.025,60.683,-1429.38,0,0
80808.35,60.5806,-1423.94,0,0
81068.675,60.5513,-1418.82,0,0
81329.0,60.4767,-1413.69,0,0
81589.325,60.3208,-1408.78,0,0
81849.65,60.0911,-1403.72,0,0
82109.975,59.7218,-1398.72,0,0
82370.3,59.5015,-1393.66,0,0
82630.625,59.2597,-1388.64,0,0
82890.95,59.0379,-1383.64,0,0
83151.275,58.7861,-1378.66,0,0
83411.6,58.4895,-1373.65,0,0
83671.925,58.2263,-1368.63,0,0
83932.25,58.0238,-1363.65,0,0
84192.575,57.8264,-1358.71,0,0
84452.9,57.6607,-1353.74,0,0
84713.225,57.4926,-1348.92,0,0
84973.55,57.3348,-1343.97,0,0
85233.875,57.1726,-1339.1,0,0
85494.2,57.0081,-1334.38,0,0
85754.525,56.8273,-1329.53,0,0
86014.85,56.6374,-1324.8,0,0
86275.175,56.5246,-1319.96,0,0
86535.5,56.4124,-1315.24,0,0
86795.825,56.2996,-1310.72,0,0
87056.15,56.0889,-1306.04,0,0
87316.475,55.8812,-1301.44,0,0
87576.8,55.7143,-1296.93,0,0
87837.125,55.433,-1292.44,0,0
88097.45,54.8552,-1288.05,0,0
88357.775,54.2987,-1283.21,0,0
88618.1,53.8988,-1278.24,0,0
88878.425,53.8321,-1273.36,0,0
89138.75,53.6833,-1268.56,0,0
89399.075,53.4744,-1263.73,0,0
89659.4,53.5032,-1258.93,0,0
89919.725,53.4735,-1254.25,0,0
90180,53.3666,-1249.72,0,0
90440.4,53.3781,-1245.04,0,0
90700.7,53.3918,-1240.49,0,0
90961,53.233,-1235.89,0,0
91221.3,53.1651,-1231.24,0,0
91481.7,53.2367,-1226.54,0,0
91742,53.383,-1221.96,0,0
92002.3,53.6783,-1217.31,0,0
92262.6,53.9526,-1212.84,0,0
92523,54.297,-1208.52,0,0
92783.3,54.5833,-1204.38,0,0
93043.6,54.8221,-1200.38,0,0
93303.9,54.8769,-1196.41,0,0
93564.3,54.8361,-1192.46,0,0
93824.6,54.7119,-1188.45,0,0
94084.9,54.3575,-1184.45,0,0
94345.2,53.9571,-1180.38,0,0
94605.6,53.5255,-1176.05,0,0
94865.9,53.1548,-1171.56,0,0
95126.2,53.0912,-1167.06,0,0
95386.5,52.9105,-1162.49,0,0
95646.9,52.8541,-1157.94,0,0
95907.2,52.9719,-1153.48,0,0
96167.5,53.1254,-1148.98,0,0
96427.8,53.3439,-1144.6,0,0
96688.2,53.5201,-1140.28,0,0
96948.5,53.6737,-1136.02,0,0
97208.8,53.8189,-1131.7,0,0
97469.1,54.0317,-1127.38,0,0
97729.5,54.1259,-1123.08,0,0
97989.8,54.3499,-1118.71,0,0
98250.1,54.7862,-1114.33,0,0
98510.4,55.175,-1110.1,0,0
98770.8,55.5041,-1105.83,0,0
99031.1,56.0197,-1101.51,0,0
99291.4,56.6092,-1097.32,0,0
99551.7,57.2762,-1093.26,0,0
99812.1,57.7607,-1089.28,0,0
100072,58.2532,-1085.11,0,0
100333,59.2244,-1080.92,0,0
100593,60.4109,-1077.13,0,0
100853,61.5064,-1073.95,0,0
101114,62.0927,-1070.84,0,0
101374,62.6784,-1067.63,0,0
101634,63.3239,-1064.87,0,0
101895,63.2583,-1062.46,0,0
102155,62.4382,-1059.71,0,0
102415,61.2647,-1056.36,0,0
102676,60.1491,-1052.35,0,0
102936,59.3494,-1047.97,0,0
103196,58.7527,-1043.37,0,0
103457,58.3579,-1038.53,0,0
103717,58.4094,-1033.51,0,0
103977,58.8089,-1028.61,0,0
104238,59.3729,-1023.87,0,0
104498,60.0899,-1019.06,0,0
104758,61.0374,-1014.38,0,0
105019,62.1741,-1009.86,0,0
105279,63.4694,-1005.54,0,0
105539,64.7282,-1001.36,0,0
105800,66,-997.248,0,0
106060,67.3738,-993.21,0,0
106320.175,68.8236,-989.371,0,0
106580.5,70.3117,-985.608,0,0
106840.825,71.7686,-982.014,0,0
107101.15,73.1952,-978.499,0,0
107361.475,74.4808,-975.065,0,0
107621.8,75.7526,-971.469,0,0
107882.125,77.2537,-967.815,0,0
108142.45,78.9133,-964.345,0,0
108402.775,80.6762,-960.995,0,0
108663.1,82.462,-957.918,0,0
108923.425,84.2465,-954.829,0,0
109183.75,86.1369,-951.974,0,0
109444.075,87.9741,-949.504,0,0
109704.4,89.6398,-947.093,0,0
109964.725,91.0685,-944.781,0,0
110225.05,92.5613,-942.391,0,0
110485.375,94.0405,-940.131,0,0
110745.7,95.2947,-938.092,0,0
111006.025,96.4682,-936.032,0,0
111266.35,97.6147,-933.935,0,0
111526.675,98.6547,-931.866,0,0
111787.0,99.6371,-929.795,0,0
112047.325,100.749,-927.756,0,0
112307.65,101.742,-925.825,0,0
112567.975,102.702,-923.989,0,0
112828.3,103.512,-922.147,0,0
113088.625,104.312,-920.334,0,0
113348.95,105.071,-918.645,0,0
113609.275,105.67,-916.897,0,0
113869.6,106.241,-915.224,0,0
114129.925,106.73,-913.515,0,0
114390.25,107.147,-911.7,0,0
114650.575,107.603,-909.998,0,0
114910.9,107.992,-908.321,0,0
115171.225,108.31,-906.791,0,0
115431.55,108.468,-905.22,0,0
115691.875,108.466,-903.565,0,0
115952.2,108.44,-901.908,0,0
116212.525,108.364,-900.187,0,0
116472.85,108.195,-898.481,0,0
116733.175,107.89,-896.752,0,0
116993.5,107.505,-894.875,0,0
117253.825,107.074,-892.859,0,0
117514.15,106.582,-890.735,0,0
117774.475,106.081,-888.4,0,0
118034.8,105.683,-885.906,0,0
118295.125,105.434,-883.259,0,0
118555.45,105.383,-880.604,0,0
118815.775,105.34,-877.834,0,0
119076.1,105.613,-874.758,0,0
119336.425,106.507,-871.744,0,0
119596.75,108.177,-869.201,0,0
119857.075,109.828,-867.796,0,0
120117.4,111.142,-867.038,0,0
120377.725,111.69,-866.675,0,0
120638.05,111.786,-866.528,0,0
120898.375,110.858,-866.38,0,0
121158.7,109.299,-865.632,0,0
121419.025,107.64,-864.187,0,0
121679.35,106.138,-862.281,0,0
121939.675,104.759,-860.206,0,0
122200.0,103.506,-857.855,0,0
122460,102.377,-855.389,0,0
122721,101.448,-852.779,0,0
122981,100.731,-850.243,0,0
123241,100.008,-847.764,0,0
123502,99.3033,-845.273,0,0
123762,98.602,-842.727,0,0
124022,97.9692,-840.153,0,0
124283,97.4042,-837.595,0,0
124543,96.8663,-835.005,0,0
124803,96.4177,-832.406,0,0
125064,96.0463,-829.776,0,0
125324,95.7894,-827.406,0,0
125584,95.3802,-825.087,0,0
125845,94.9881,-822.743,0,0
126105,94.6109,-820.606,0,0
126365,94.0211,-818.503,0,0
126626,93.2582,-816.374,0,0
126886,92.4186,-814.036,0,0
127146,91.6117,-811.62,0,0
127406,90.8756,-809.283,0,0
127667,90.02,-806.892,0,0
127927,89.1834,-804.655,0,0
128187,88.0917,-802.423,0,0
128448,86.7514,-799.992,0,0
128708,85.4551,-797.341,0,0
128968,84.1141,-794.574,0,0
129229,82.7035,-791.639,0,0
129489,81.3914,-788.484,0,0
129749,80.1378,-785.215,0,0
130010,78.8994,-781.77,0,0
130270,77.8793,-778.174,0,0
130530,77.0057,-774.6,0,0
130791,76.126,-771.026,0,0
131051,75.33,-767.319,0,0
131311,74.6576,-763.577,0,0
131572,74.1029,-759.802,0,0
131832,73.6655,-756.065,0,0
132092,73.2306,-752.337,0,0
132353,72.8078,-748.532,0,0
132613,72.5585,-744.68,0,0
132873,72.4051,-740.903,0,0
133134,72.2838,-737.131,0,0
133394,72.2135,-733.436,0,0
133654,72.1081,-729.645,0,0
133915,72.1351,-725.838,0,0
134175,72.2286,-722.057,0,0
134435,72.379,-718.274,0,0
134696,72.5561,-714.541,0,0
134956,72.7624,-710.783,0,0
135216,73.0298,-707.018,0,0
135477,73.3962,-703.222,0,0
135737,73.8639,-699.51,0,0
135997,74.3384,-695.813,0,0
136258,74.8205,-692.284,0,0
136518,75.3871,-688.669,0,0
136778,75.9782,-685.102,0,0
137039,76.5632,-681.686,0,0
137299,77.0826,-678.404,0,0
137559,77.434,-675.006,0,0
137819,77.7981,-671.536,0,0
138080,78.1205,-668.012,0,0
138340.125,78.4372,-664.378,0,0
138600.45,78.8729,-660.663,0,0
138860.775,79.3424,-656.959,0,0
139121.1,79.8551,-653.208,0,0
139381.425,80.4736,-649.326,0,0
139641.75,81.229,-645.515,0,0
139902.075,81.9803,-641.737,0,0
140162.4,82.7399,-637.953,0,0
140422.725,83.5898,-634.14,0,0
140683.05,84.53,-630.288,0,0
140943.375,85.5326,-626.453,0,0
141203.7,86.6118,-622.674,0,0
141464.025,87.7607,-618.958,0,0
141724.35,88.901,-615.265,0,0
141984.675,90.0661,-611.563,0,0
142245.0,91.2832,-607.899,0,0
142505.325,92.5106,-604.281,0,0
142765.65,93.7039,-600.629,0,0
143025.975,94.9518,-596.938,0,0
143286.3,96.2897,-593.267,0,0
143546.625,97.6408,-589.617,0,0
143806.95,98.9638,-585.979,0,0
144067.275,100.312,-582.266,0,0
144327.6,101.761,-578.509,0,0
144587.925,103.276,-574.795,0,0
144848.25,104.795,-571.068,0,0
145108.575,106.424,-567.275,0,0
145368.9,108.103,-563.471,0,0
145629.225,109.894,-559.692,0,0
145889.55,111.745,-555.984,0,0
146149.875,113.633,-552.235,0,0
146410.2,115.636,-548.514,0,0
146670.525,117.713,-544.84,0,0
146930.85,119.812,-541.255,0,0
147191.175,121.913,-537.656,0,0
147451.5,124.065,-534.055,0,0
147711.825,126.266,-530.447,0,0
147972.15,128.534,-526.853,0,0
148232.475,130.866,-523.214,0,0
148492.8,133.312,-519.603,0,0
148753.125,135.807,-516.021,0,0
149013.45,138.401,-512.451,0,0
149273.775,141.011,-508.973,0,0
149534.1,143.557,-505.413,0,0
149794.425,146.283,-501.649,0,0
150054.75,149.277,-497.914,0,0
150315.075,152.485,-494.318,0,0
150575.4,155.759,-490.797,0,0
150835.725,159.1,-487.288,0,0
151096.05,162.686,-483.794,0,0
151356.375,166.478,-480.464,0,0
151616.7,170.45,-477.292,0,0
151877.025,174.48,-474.318,0,0
152137.35,178.562,-471.351,0,0
152397.675,183.035,-468.491,0,0
152658.0,187.746,-466.107,0,0
152918.325,192.298,-464.152,0,0
153178.65,196.781,-462.295,0,0
153438.975,201.369,-460.683,0,0
153699.3,205.892,-459.452,0,0
153959.625,210.244,-458.462,0,0
154219.95,214.402,-457.681,0,0
154480,218.419,-457.121,0,0
154741,221.963,-456.891,0,0
155001,225.03,-456.282,0,0
155261,228.236,-455.202,0,0
155522,231.713,-454.191,0,0
155782,235.381,-453.441,0,0
156042,238.892,-453.026,0,0
156303,242.047,-452.682,0,0
156563,244.956,-452.386,0,0
156823,247.668,-451.814,0,0
157084,250.344,-451.051,0,0
157344,253.181,-450.047,0,0
157604,255.991,-449.153,0,0
157864,258.885,-447.94,0,0
158125,262.054,-446.588,0,0
158385,265.615,-445.301,0,0
158645,269.286,-444.385,0,0
158906,273.018,-443.345,0,0
159166,277.511,-442.249,0,0
159426,282.463,-442.231,0,0
159687,286.971,-443.037,0,0
159947,291.021,-444.031,0,0
160207,294.857,-445.512,0,0
160468,298.229,-447.076,0,0
160728,301.204,-448.998,0,0
160988,303.494,-450.947,0,0
161249,305.175,-452.646,0,0
161509,306.536,-453.787,0,0
161769,307.991,-454.563,0,0
162030,309.395,-455.335,0,0
162290,310.705,-455.932,0,0
162550,311.933,-456.424,0,0
162811,312.973,-456.793,0,0
163071,313.829,-456.752,0,0
163331,314.844,-456.444,0,0
163592,315.974,-455.891,0,0
163852,317.134,-455.144,0,0
164112,318.48,-454.188,0,0
164373,319.937,-452.808,0,0
164633,321.931,-451.225,0,0
164893,324.388,-449.836,0,0
165154,326.783,-448.599,0,0
165414,329.342,-447.223,0,0
165674,332.167,-445.601,0,0
165935,335.669,-443.82,0,0
166195,339.722,-442.197,0,0
166455,344.244,-441.021,0,0
166716,349.23,-440.011,0,0
166976,354.741,-439.638,0,0
167236,360.736,-440.094,0,0
167497,366.719,-441.391,0,0
167757,372.571,-443.368,0,0
168017,378.151,-445.984,0,0
168277,383.521,-449.297,0,0
168538,388.367,-453.045,0,0
168798,393.016,-456.96,0,0
169058,397.75,-461.366,0,0
169319,402.241,-466.844,0,0
169579,405.613,-472.993,0,0
169839,408.481,-478.966,0,0
170100,411.248,-485.588,0,0
170360.075,413.164,-493.075,0,0
170620.4,413.822,-501.058,0,0
170880.725,413.097,-509.187,0,0
171141.05,410.984,-516.926,0,0
171401.375,407.852,-523.771,0,0
171661.7,404.401,-529.969,0,0
171922.025,400.349,-536.053,0,0
172182.35,395.258,-541.621,0,0
172442.675,389.62,-546.185,0,0
172703.0,383.498,-550.078,0,0
172963.325,376.902,-553.103,0,0
173223.65,370.118,-555.052,0,0
173483.975,363.359,-556.23,0,0
173744.3,356.506,-556.456,0,0
174004.625,350.071,-555.768,0,0
174264.95,343.918,-554.625,0,0
174525.275,337.964,-552.843,0,0
174785.6,332.443,-550.47,0,0
175045.925,327.268,-547.854,0,0
175306.25,322.145,-544.789,0,0
175566.575,317.351,-541.021,0,0
175826.9,313.222,-536.745,0,0
176087.225,309.67,-532.348,0,0
176347.55,306.55,-527.691,0,0
176607.875,304.006,-522.898,0,0
176868.2,301.914,-518.072,0,0
177128.525,300.284,-513.285,0,0
177388.85,299.022,-508.558,0,0
177649.175,298.084,-503.905,0,0
177909.5,297.501,-499.383,0,0
178169.825,297.117,-495.091,0,0
178430.15,296.798,-490.868,0,0
178690.475,296.586,-486.636,0,0
178950.8,296.587,-482.375,0,0
179211.125,296.857,-478.133,0,0
179471.45,297.389,-473.986,0,0
179731.775,298.133,-470.035,0,0
179992.1,298.976,-466.3,0,0
180252.425,299.815,-462.746,0,0
180512.75,300.659,-459.294,0,0
180773.075,301.504,-455.924,0,0
181033.4,302.297,-452.61,0,0
181293.725,303.102,-449.301,0,0
181554.05,303.9,-446.052,0,0
181814.375,304.679,-442.802,0,0
182074.7,305.388,-439.547,0,0
182335.025,306.054,-436.235,0,0
182595.35,306.624,-432.853,0,0
182855.675,307.197,-429.281,0,0
183116.0,307.779,-425.607,0,0
183376.325,308.406,-421.735,0,0
183636.65,309.118,-417.696,0,0
183896.975,309.949,-413.482,0,0
184157.3,310.943,-409.141,0,0
184417.625,312.09,-404.662,0,0
184677.95,313.402,-400.101,0,0
184938.275,314.85,-395.422,0,0
185198.6,316.527,-390.617,0,0
185458.925,318.442,-385.786,0,0
185719.25,320.531,-380.976,0,0
185979.575,322.696,-376.14,0,0
186239.9,324.971,-371.199,0,0
186500,327.488,-366.074,0,0
186761,330.148,-360.978,0,0
187021,333.077,-355.765,0,0
187281,336.165,-350.512,0,0
187542,339.481,-345.145,0,0
187802,343.02,-339.685,0,0
188062,346.912,-334.132,0,0
188322,351.097,-328.558,0,0
188583,355.467,-323.075,0,0
188843,360.197,-317.522,0,0
189103,365.169,-311.934,0,0
189364,370.514,-306.396,0,0
189624,376.196,-300.848,0,0
189884,382.19,-295.332,0,0
190145,388.623,-289.94,0,0
190405,395.414,-284.621,0,0
190665,402.583,-279.556,0,0
190926,410.044,-274.585,0,0
191186,417.743,-269.807,0,0
191446,425.873,-265.04,0,0
191707,434.428,-260.564,0,0
191967,443.291,-256.308,0,0
192227,452.645,-252.404,0,0
192488,462.241,-248.782,0,0
192748,472.111,-245.561,0,0
193008,482.442,-242.662,0,0
193269,492.778,-240.208,0,0
193529,503.416,-238.154,0,0
193789,514.176,-236.414,0,0
194050,525.212,-235.036,0,0
194310,536.379,-234.065,0,0
194570,547.637,-233.508,0,0
194831,558.964,-233.251,0,0
195091,570.444,-233.262,0,0
195351,582.007,-233.601,0,0
195612,593.786,-234.091,0,0
195872,605.873,-234.86,0,0
196132,618.252,-235.993,0,0
196393,630.966,-237.53,0,0
196653,643.935,-239.546,0,0
196913,657.22,-241.99,0,0
197174,670.977,-245.035,0,0
197434,685.052,-248.834,0,0
197694,699.348,-253.388,0,0
197955,713.783,-258.775,0,0
198215,728.31,-265.04,0,0
198475,742.866,-272.01,0,0
198735,757.658,-279.904,0,0
198996,772.523,-288.945,0,0
199256,787.262,-299.299,0,0
199516,801.711,-310.989,0,0
199777,815.372,-323.861,0,0
200037,828.133,-337.825,0,0
200297,840.14,-352.725,0,0
200558,851.306,-368.545,0,0
200818,861.243,-385.293,0,0
201078,869.832,-402.518,0,0
201339,877.275,-420.144,0,0
201599,883.627,-438.183,0,0
201859,888.528,-456.476,0,0
202120,891.99,-474.414,0,0
202380.025,894.768,-492.046,0,0
202640.35,896.392,-509.562,0,0
202900.675,897.061,-526.466,0,0
203161.0,897.491,-542.748,0,0
203421.325,897.867,-559.162,0,0
203681.65,897.559,-576.21,0,0
203941.975,895.967,-593.542,0,0
204202.3,892.931,-610.31,0,0
204462.625,888.981,-626.068,0,0
204722.95,884.586,-641.089,0,0
204983.275,880.147,-655.84,0,0
205243.6,874.958,-670.047,0,0
205503.925,869.32,-683.783,0,0
205764.25,863.632,-696.701,0,0
206024.575,857.949,-709.446,0,0
206284.9,852.084,-722.125,0,0
206545.225,846.031,-734.627,0,0
206805.55,839.736,-747.136,0,0
207065.875,833.163,-760.144,0,0
207326.2,825.558,-773.388,0,0
207586.525,816.535,-786.413,0,0
207846.85,806.301,-798.682,0,0
208107.175,795.148,-809.801,0,0
208367.5,783.721,-819.781,0,0
208627.825,771.883,-828.936,0,0
208888.15,759.638,-837.193,0,0
209148.475,747.082,-844.101,0,0
209408.8,734.713,-849.807,0,0
209669.125,722.81,-854.54,0,0
209929.45,711.158,-858.783,0,0
210189.775,699.833,-862.468,0,0
210450.1,688.695,-865.265,0,0
210710.425,677.819,-867.671,0,0
210970.75,667.172,-869.274,0,0
211231.075,657.161,-870.362,0,0
211491.4,647.558,-871.046,0,0
211751.725,638.311,-871.348,0,0
212012.05,629.612,-871.22,0,0
212272.375,621.629,-870.738,0,0
212532.7,614.005,-870.145,0,0
212793.025,606.96,-869.749,0,0
213053.35,599.973,-869.407,0,0
213313.675,592.984,-868.595,0,0
213574.0,586.513,-867.33,0,0
213834.325,580.595,-865.836,0,0
214094.65,575.372,-864.043,0,0
214354.975,571.132,-862.435,0,0
214615.3,567.542,-861.27,0,0
214875.625,564.466,-860.759,0,0
215135.95,561.611,-860.888,0,0
215396.275,558.663,-861.614,0,0
215656.6,555.517,-862.761,0,0
215916.925,552.236,-864.437,0,0
216177.25,548.33,-866.328,0,0
216437.575,543.869,-868.152,0,0
216697.9,539.083,-869.641,0,0
216958.225,534.323,-870.62,0,0
217218.55,529.688,-871.266,0,0
217478.875,525.51,-871.997,0,0
217739.2,521.236,-872.902,0,0
217999.525,517.041,-873.828,0,0
218259.85,512.802,-874.687,0,0
218520,508.619,-875.655,0,0
218780,504.437,-876.475,0,0
219041,500.378,-877.367,0,0
219301,496.386,-878.398,0,0
219561,492.204,-879.623,0,0
219822,488.007,-880.81,0,0
220082,483.465,-882.071,0,0
220342,478.871,-883.38,0,0
220603,474.065,-884.31,0,0
220863,469.06,-885.181,0,0
221123,464.167,-885.728,0,0
221384,459.423,-886.085,0,0
221644,454.784,-886.601,0,0
221904,450.072,-887.071,0,0
222165,445.367,-887.381,0,0
222425,440.609,-887.544,0,0
222685,435.909,-887.643,0,0
222946,431.345,-887.775,0,0
223206,426.929,-887.764,0,0
223466,422.476,-887.755,0,0
223727,418.022,-887.777,0,0
223987,413.742,-887.828,0,0
224247,409.461,-888.101,0,0
224508,405.051,-888.421,0,0
224768,400.41,-888.903,0,0
225028,395.662,-889.439,0,0
225289,390.591,-889.645,0,0
225549,385.476,-889.886,0,0
225809,380.102,-889.943,0,0
226070,374.652,-889.809,0,0
226330,369.097,-889.442,0,0
226590,363.544,-888.825,0,0
226851,357.861,-888.09,0,0
227111,352.206,-887.172,0,0
227371,346.488,-886.003,0,0
227632,340.736,-884.571,0,0
227892,334.977,-882.95,0,0
228152,329.152,-881.013,0,0
228413,323.461,-878.755,0,0
228673,317.903,-876.131,0,0
228933,312.572,-873.183,0,0
229193,307.486,-870.123,0,0
229454,302.757,-866.83,0,0
229714,298.198,-863.468,0,0
229974,293.947,-860.062,0,0
230235,289.777,-856.656,0,0
230495,285.908,-853.118,0,0
230755,282.142,-849.562,0,0
231016,278.594,-845.964,0,0
231276,275.261,-842.351,0,0
231536,272.075,-838.753,0,0
231797,269.036,-835.149,0,0
232057,266.149,-831.608,0,0
232317,263.427,-828.046,0,0
232578,260.768,-824.433,0,0
232838,258.299,-820.823,0,0
233098,256.058,-817.275,0,0
233359,253.965,-813.785,0,0
233619,251.934,-810.413,0,0
233879,249.972,-807.052,0,0
234140,248.207,-803.677,0,0
234400,246.439,-800.407,0,0
234660.3,244.807,-797.144,0,0
234920.625,243.245,-794.024,0,0
235180.95,241.907,-790.827,0,0
235441.275,240.666,-787.85,0,0
235701.6,239.32,-785.054,0,0
235961.925,237.947,-782.209,0,0
236222.25,236.546,-779.32,0,0
236482.575,235.205,-776.414,0,0
236742.9,233.943,-773.444,0,0
237003.225,232.766,-770.467,0,0
237263.55,231.699,-767.492,0,0
237523.875,230.78,-764.441,0,0
237784.2,230.065,-761.402,0,0
238044.525,229.594,-758.475,0,0
238304.85,229.218,-755.746,0,0
238565.175,228.938,-753.203,0,0
238825.5,228.634,-750.758,0,0
239085.825,228.415,-748.476,0,0
239346.15,228.227,-746.248,0,0
239606.475,227.973,-744.173,0,0
239866.8,227.842,-742.197,0,0
240127.125,227.534,-740.42,0,0
240387.45,227.355,-738.688,0,0
240647.775,227.083,-736.988,0,0
240908.1,226.787,-735.38,0,0
241168.425,226.46,-733.881,0,0
241428.75,226.051,-732.411,0,0
241689.075,225.658,-731.038,0,0
241949.4,225.173,-729.729,0,0
242209.725,224.659,-728.54,0,0
242470.05,224.044,-727.32,0,0
242730.375,223.344,-726.157,0,0
242990.7,222.541,-725.03,0,0
243251.025,221.692,-723.873,0,0
243511.35,220.744,-722.702,0,0
243771.675,219.737,-721.52,0,0
244032.0,218.616,-720.329,0,0
244292.325,217.448,-719.097,0,0
244552.65,216.081,-717.791,0,0
244812.975,214.726,-716.275,0,0
245073.3,213.434,-714.623,0,0
245333.625,212.031,-712.956,0,0
245593.95,210.778,-711.114,0,0
245854.275,209.581,-709.145,0,0
246114.6,208.523,-707.24,0,0
246374.925,207.403,-705.257,0,0
246635.25,206.387,-703.261,0,0
246895.575,205.507,-701.09,0,0
247155.9,204.668,-698.893,0,0
247416.225,204.072,-696.753,0,0
247676.55,203.566,-694.724,0,0
247936.875,203.098,-692.834,0,0
248197.2,202.619,-690.993,0,0
248457.525,202.071,-689.241,0,0
248717.85,201.484,-687.43,0,0
248978.175,200.954,-685.6,0,0
249238.5,200.427,-683.761,0,0
249498.825,200,-681.921,0,0
249759.15,199.588,-680.125,0,0
250019.475,199.197,-678.447,0,0
250279.8,198.871,-676.834,0,0
250540,198.425,-675.34,0,0
250800,197.977,-673.897,0,0
251061,197.383,-672.446,0,0
251321,196.689,-671.09,0,0
251581,195.914,-669.666,0,0
251842,194.954,-668.237,0,0
252102,193.873,-666.669,0,0
252362,192.738,-664.981,0,0
252623,191.463,-663.13,0,0
252883,190.185,-661.036,0,0
253143,188.959,-658.728,0,0
253404,187.834,-656.243,0,0
253664,186.913,-653.623,0,0
253924,186.128,-651.002,0,0
254185,185.348,-648.341,0,0
254445,184.622,-645.627,0,0
254705,183.893,-642.827,0,0
254966,183.21,-639.853,0,0
255226,182.614,-636.716,0,0
255486,182.127,-633.434,0,0
255747,181.807,-629.96,0,0
256007,181.758,-626.301,0,0
256267,181.956,-622.601,0,0
256528,182.428,-618.893,0,0
256788,183.084,-615.184,0,0
257048,183.974,-611.444,0,0
257309,185.102,-607.678,0,0
257569,186.487,-603.989,0,0
257829,188.134,-600.347,0,0
258090,189.957,-596.831,0,0
258350,191.944,-593.346,0,0
258610,194.173,-589.86,0,0
258871,196.757,-586.408,0,0
259131,199.729,-583.184,0,0
259391,202.978,-580.318,0,0
259651,206.318,-577.815,0,0
259912,209.695,-575.596,0,0
260172,212.985,-573.503,0,0
260432,216.368,-571.443,0,0
260693,219.985,-569.473,0,0
260953,223.825,-567.736,0,0
261213,227.897,-566.299,0,0
261474,232.056,-565.25,0,0
261734,236.231,-564.548,0,0
261994,240.232,-564.114,0,0
262255,244.217,-563.799,0,0
262515,248.293,-563.576,0,0
262775,252.521,-563.504,0,0
263036,256.919,-563.788,0,0
263296,261.462,-564.57,0,0
263556,265.931,-565.809,0,0
263817,270.223,-567.485,0,0
264077,274.303,-569.533,0,0
264337,278.171,-571.873,0,0
264598,281.757,-574.545,0,0
264858,285.055,-577.424,0,0
265118,287.938,-580.474,0,0
265379,290.63,-583.485,0,0
265639,293.232,-586.566,0,0
265899,295.687,-589.839,0,0
266160,298.01,-593.312,0,0
266420,300.08,-597.057,0,0
266680.25,301.85,-600.921,0,0
266940.575,303.335,-604.795,0,0
267200.9,304.731,-608.836,0,0
267461.225,305.942,-613.123,0,0
267721.55,306.716,-617.709,0,0
267981.875,307.076,-622.363,0,0
268242.2,307.059,-627.054,0,0
268502.525,306.59,-631.963,0,0
268762.85,305.465,-636.863,0,0
269023.175,303.733,-641.607,0,0
269283.5,301.382,-646.036,0,0
269543.825,298.448,-649.901,0,0
269804.15,295.202,-653.071,0,0
270064.475,292.086,-655.452,0,0
270324.8,289.193,-657.367,0,0
270585.125,286.587,-659.103,0,0
270845.45,284.145,-660.623,0,0
271105.775,281.959,-662.025,0,0
271366.1,279.959,-663.527,0,0
271626.425,277.964,-665.039,0,0
271886.75,275.998,-666.555,0,0
272147.075,274.162,-668.123,0,0
272407.4,272.299,-669.756,0,0
272667.725,270.353,-671.557,0,0
272928.05,268.186,-673.373,0,0
273188.375,265.896,-675.164,0,0
273448.7,263.522,-676.914,0,0
273709.025,261,-678.636,0,0
273969.35,258.349,-680.42,0,0
274229.675,255.463,-682.15,0,0
274490.0,252.383,-683.872,0,0
274750.325,249.019,-685.481,0,0
275010.65,245.294,-686.8,0,0
275270.975,241.357,-687.876,0,0
275531.3,237.242,-688.565,0,0
275791.625,233.173,-688.865,0,0
276051.95,229.127,-688.906,0,0
276312.275,225.059,-688.796,0,0
276572.6,220.935,-688.431,0,0
276832.925,216.659,-687.762,0,0
277093.25,212.359,-686.634,0,0
277353.575,208.143,-685.032,0,0
277613.9,204.128,-683.026,0,0
277874.225,200.359,-680.621,0,0
278134.55,196.968,-677.859,0,0
278394.875,193.906,-674.843,0,0
278655.2,191.328,-671.542,0,0
278915.525,189.277,-668.115,0,0
279175.85,187.752,-664.748,0,0
279436.175,186.733,-661.493,0,0
279696.5,186.099,-658.508,0,0
279956.825,185.817,-655.739,0,0
280217.15,185.766,-653.409,0,0
280477.475,185.798,-651.528,0,0
280737.8,185.717,-649.96,0,0
280998.125,185.514,-648.561,0,0
281258.45,185.147,-647.259,0,0
281518.775,184.634,-645.999,0,0
281779.1,184.009,-644.682,0,0
282039.425,183.376,-643.182,0,0
282299.75,182.878,-641.538,0,0
282560,182.644,-639.834,0,0
282820,182.686,-638.241,0,0
283081,182.925,-636.89,0,0
283341,183.265,-635.855,0,0
283601,183.572,-635.131,0,0
283862,183.687,-634.688,0,0
284122,183.56,-634.357,0,0
284382,183.208,-634.043,0,0
284643,182.741,-633.738,0,0
284903,182.216,-633.359,0,0
285163,181.534,-633.108,0,0
285424,180.724,-632.772,0,0
285684,179.678,-632.439,0,0
285944,178.515,-631.972,0,0
286205,177.168,-631.335,0,0
286465,175.728,-630.443,0,0
286725,174.338,-629.237,0,0
286986,173.122,-627.899,0,0
287246,171.997,-626.506,0,0
287506,170.843,-625.06,0,0
287767,169.637,-623.444,0,0
288027,168.472,-621.586,0,0
288287,167.414,-619.476,0,0
288548,166.54,-617.065,0,0
288808,165.953,-614.406,0,0
289068,165.789,-611.577,0,0
289329,166.089,-608.674,0,0
289589,166.837,-605.856,0,0
289849,167.985,-603.21,0,0
290109,169.534,-600.801,0,0
290370,171.327,-598.724,0,0
290630,173.355,-596.937,0,0
290890,175.566,-595.471,0,0
291151,177.881,-594.343,0,0
291411,180.342,-593.552,0,0
291671,182.875,-593.101,0,0
291932,185.418,-593.067,0,0
292192,187.935,-593.407,0,0
292452,190.388,-594.14,0,0
292713,192.669,-595.257,0,0
292973,194.759,-596.775,0,0
293233,196.558,-598.594,0,0
293494,197.974,-600.683,0,0
293754,199.054,-602.907,0,0
294014,199.86,-605.22,0,0
294275,200.38,-607.646,0,0
294535,200.564,-610.215,0,0
294795,200.37,-612.86,0,0
295056,199.797,-615.479,0,0
295316,198.852,-618.033,0,0
295576,197.53,-620.455,0,0
295837,195.873,-622.682,0,0
296097,193.924,-624.672,0,0
296357,191.763,-626.357,0,0
296618,189.433,-627.704,0,0
296878,187.038,-628.736,0,0
297138,184.637,-629.457,0,0
297399,182.315,-629.941,0,0
297659,180.06,-630.237,0,0
297919,177.885,-630.372,0,0
298180,175.772,-630.351,0,0
298440,173.771,-630.213,0,0
298700.2,171.883,-629.989,0,0
298960.525,170.076,-629.745,0,0
299220.85,168.337,-629.484,0,0
299481.175,166.599,-629.226,0,0
299741.5,164.899,-628.914,0,0
300001.825,163.217,-628.59,0,0
300262.15,161.51,-628.239,0,0
300522.475,159.82,-627.81,0,0
300782.8,158.098,-627.331,0,0
301043.125,156.402,-626.788,0,0
301303.45,154.699,-626.171,0,0
301563.775,153.058,-625.467,0,0
301824.1,151.466,-624.691,0,0
302084.425,149.936,-623.86,0,0
302344.75,148.486,-623.043,0,0
302605.075,147.066,-622.21,0,0
302865.4,145.646,-621.381,0,0
303125.725,144.201,-620.519,0,0
303386.05,142.773,-619.623,0,0
303646.375,141.364,-618.615,0,0
303906.7,140.021,-617.553,0,0
304167.025,138.714,-616.456,0,0
304427.35,137.459,-615.314,0,0
304687.675,136.282,-614.114,0,0
304948.0,135.161,-612.902,0,0
305208.325,134.12,-611.624,0,0
305468.65,133.186,-610.399,0,0
305728.975,132.292,-609.181,0,0
305989.3,131.436,-607.97,0,0
306249.625,130.61,-606.739,0,0
306509.95,129.825,-605.496,0,0
306770.275,129.172,-604.218,0,0
307030.6,128.604,-602.989,0,0
307290.925,128.098,-601.807,0,0
307551.25,127.672,-600.692,0,0
307811.575,127.24,-599.637,0,0
308071.9,126.873,-598.635,0,0
308332.225,126.524,-597.689,0,0
308592.55,126.211,-596.804,0,0
308852.875,125.909,-596.039,0,0
309113.2,125.56,-595.349,0,0
309373.525,125.157,-594.724,0,0
309633.85,124.702,-594.143,0,0
309894.175,124.178,-593.556,0,0
310154.5,123.543,-593.004,0,0
310414.825,122.894,-592.383,0,0
310675.15,122.181,-591.732,0,0
310935.475,121.425,-591.038,0,0
311195.8,120.679,-590.283,0,0
311456.125,119.931,-589.463,0,0
311716.45,119.226,-588.605,0,0
311976.775,118.558,-587.714,0,0
312237.1,117.92,-586.808,0,0
312497.425,117.319,-585.911,0,0
312757.75,116.731,-584.998,0,0
313018.075,116.153,-584.066,0,0
313278.4,115.627,-583.081,0,0
313538.725,115.171,-582.123,0,0
313799.05,114.768,-581.143,0,0
314059.375,114.406,-580.231,0,0
314319.7,114.086,-579.33,0,0
314580,113.776,-578.481,0,0
314840,113.452,-577.654,0,0
315101,113.236,-576.923,0,0
315361,113.013,-576.137,0,0
315621,112.826,-575.397,0,0
315882,112.461,-574.747,0,0
316142,112.301,-574.14,0,0
316402,112.04,-573.471,0,0
316663,111.803,-572.887,0,0
316923,111.542,-572.376,0,0
317183,111.295,-571.855,0,0
317444,110.976,-571.347,0,0
317704,110.644,-570.917,0,0
317964,110.422,-570.554,0,0
318225,110.049,-570.203,0,0
318485,109.677,-569.801,0,0
318745,109.368,-569.539,0,0
319006,109.047,-569.221,0,0
319266,108.572,-568.995,0,0
319526,108.056,-568.76,0,0
319787,107.539,-568.752,0,0
320047,106.841,-568.521,0,0
320307,106.126,-568.397,0,0
320567,105.278,-568.292,0,0
320828,104.345,-568.135,0,0
321088,103.396,-567.893,0,0
321348,102.346,-567.682,0,0
321609,101.196,-567.513,0,0
321869,99.9133,-567.175,0,0
322129,98.5908,-566.703,0,0
322390,97.1653,-566.166,0,0
322650,95.7074,-565.417,0,0
322910,94.2128,-564.579,0,0
323171,92.817,-563.506,0,0
323431,91.4347,-562.376,0,0
323691,90.2026,-561.099,0,0
323952,89.0333,-559.702,0,0
324212,87.9712,-558.249,0,0
324472,87.0268,-556.742,0,0
324733,86.3312,-555.376,0,0
324993,85.6142,-554.028,0,0
325253,84.9467,-552.558,0,0
325514,84.3575,-551.249,0,0
325774,83.7058,-549.951,0,0
326034,83.2117,-548.584,0,0
326295,82.6259,-547.352,0,0
326555,81.9882,-546.08,0,0
326815,81.3729,-544.791,0,0
327076,80.9092,-543.429,0,0
327336,80.3369,-542.09,0,0
327596,79.8729,-540.687,0,0
327857,79.4478,-539.307,0,0
328117,79.0346,-537.884,0,0
328377,78.6505,-536.335,0,0
328638,78.3682,-534.987,0,0
328898,78.1625,-533.47,0,0
329158,77.9896,-532.041,0,0
329419,77.8178,-530.655,0,0
329679,77.7615,-529.145,0,0
329939,77.8038,-527.673,0,0
330200,77.8892,-526.31,0,0
330460,78.0441,-524.994,0,0
330720.15,78.2177,-523.684,0,0
330980.475,78.5138,-522.509,0,0
331240.8,78.8376,-521.424,0,0
331501.125,79.0841,-520.352,0,0
331761.45,79.4087,-519.387,0,0
332021.775,79.7577,-518.393,0,0
332282.1,80.0394,-517.616,0,0
332542.425,80.2901,-516.954,0,0
332802.75,80.5962,-516.265,0,0
333063.075,80.7618,-515.587,0,0
333323.4,80.886,-515.052,0,0
333583.725,80.9863,-514.539,0,0
333844.05,80.883,-514.097,0,0
334104.375,80.7587,-513.493,0,0
334364.7,80.6225,-512.911,0,0
334625.025,80.3471,-512.43,0,0
334885.35,80.0989,-511.849,0,0
335145.675,79.8141,-511.161,0,0
335406.0,79.5104,-510.556,0,0
335666.325,79.0799,-509.897,0,0
335926.65,78.652,-509.119,0,0
336186.975,78.1415,-508.265,0,0
336447.3,77.7353,-507.398,0,0
336707.625,77.2735,-506.359,0,0
336967.95,76.8927,-505.302,0,0
337228.275,76.5716,-504.162,0,0
337488.6,76.2577,-503.041,0,0
337748.925,76.0175,-501.879,0,0
338009.25,75.8319,-500.671,0,0
338269.575,75.7289,-499.436,0,0
338529.9,75.5757,-498.271,0,0
338790.225,75.4866,-496.99,0,0
339050.55,75.4413,-495.801,0,0
339310.875,75.4814,-494.474,0,0
339571.2,75.5712,-493.198,0,0
339831.525,75.7868,-491.838,0,0
340091.85,75.9394,-490.55,0,0
340352.175,76.2298,-489.238,0,0
340612.5,76.5828,-487.93,0,0
340872.825,77.0096,-486.62,0,0
341133.15,77.5359,-485.4,0,0
341393.475,78.1723,-484.301,0,0
341653.8,78.8928,-483.09,0,0
341914.125,79.6572,-482.055,0,0
342174.45,80.4868,-481.068,0,0
342434.775,81.404,-480.3,0,0
342695.1,82.3967,-479.534,0,0
342955.425,83.2253,-478.95,0,0
343215.75,84.1553,-478.482,0,0
343476.075,84.9987,-478.158,0,0
343736.4,85.857,-477.905,0,0
343996.725,86.6478,-477.76,0,0
344257.05,87.3243,-477.676,0,0
344517.375,87.9377,-477.668,0,0
344777.7,88.4526,-477.69,0,0
345038.025,88.8883,-477.789,0,0
345298.35,89.2065,-477.898,0,0
345558.675,89.4619,-477.989,0,0
345819.0,89.7715,-478.13,0,0
346079.325,89.8574,-478.245,0,0
346339.65,89.8951,-478.363,0,0
346599.975,89.8817,-478.447,0,0
346860,89.8397,-478.533,0,0
347121,89.6897,-478.598,0,0
347381,89.5803,-478.603,0,0
347641,89.293,-478.598,0,0
347902,89.0692,-478.554,0,0
348162,88.6878,-478.468,0,0
348422,88.3902,-478.369,0,0
348683,87.9807,-478.205,0,0
348943,87.6084,-477.962,0,0
349203,87.1777,-477.701,0,0
349464,86.8151,-477.333,0,0
349724,86.4017,-476.98,0,0
349984,85.9383,-476.626,0,0
350245,85.5899,-476.211,0,0
350505,85.1503,-475.739,0,0
350765,84.7667,-475.306,0,0
351025,84.3398,-474.814,0,0
351286,83.9059,-474.291,0,0
351546,83.5313,-473.721,0,0
351806,83.1168,-473.102,0,0
352067,82.7677,-472.434,0,0
352327,82.4105,-471.763,0,0
352587,82.0668,-471,0,0
352848,81.8062,-470.212,0,0
353108,81.6055,-469.371,0,0
353368,81.4333,-468.548,0,0
353629,81.3578,-467.715,0,0
353889,81.4046,-466.971,0,0
354149,81.4243,-466.31,0,0
354410,81.5189,-465.624,0,0
354670,81.5502,-465.047,0,0
354930,81.5242,-464.503,0,0
355191,81.5736,-463.956,0,0
355451,81.5491,-463.42,0,0
355711,81.5026,-462.968,0,0
355972,81.4984,-462.436,0,0
356232,81.4073,-461.945,0,0
356492,81.3907,-461.401,0,0
356753,81.2984,-461.018,0,0
357013,81.1527,-460.511,0,0
357273,81.0746,-460.009,0,0
357534,80.9049,-459.523,0,0
357794,80.6843,-459.074,0,0
358054,80.5022,-458.558,0,0
358315,80.2197,-457.989,0,0
358575,80.0057,-457.416,0,0
358835,79.7715,-456.795,0,0
359096,79.507,-456.134,0,0
359356,79.327,-455.493,0,0
359616,79.0977,-454.746,0,0
359877,78.9413,-454.048,0,0
360137,78.7297,-453.252,0,0
360397,78.5731,-452.506,0,0
360658,78.3969,-451.691,0,0
360918,78.3181,-450.803,0,0
361178,78.2923,-449.928,0,0
361438,78.309,-449.072,0,0
361699,78.3419,-448.206,0,0
361959,78.4474,-447.412,0,0
362219,78.6443,-446.589,0,0
362480,78.7539,-445.895,0,0
362740.1,78.991,-445.171,0,0
363000.425,79.1376,-444.473,0,0
363260.75,79.2978,-443.856,0,0
363521.075,79.4735,-443.267,0,0
363781.4,79.5837,-442.615,0,0
364041.725,79.612,-442.075,0,0
364302.05,79.7406,-441.426,0,0
364562.375,79.7514,-440.864,0,0
364822.7,79.7859,-440.232,0,0
365083.025,79.7552,-439.599,0,0
365343.35,79.7213,-438.89,0,0
365603.675,79.7078,-438.085,0,0
365864.0,79.666,-437.295,0,0
366124.325,79.7331,-436.431,0,0
366384.65,79.782,-435.477,0,0
366644.975,79.9501,-434.541,0,0
366905.3,80.1734,-433.563,0,0
367165.625,80.4593,-432.617,0,0
367425.95,80.7613,-431.646,0,0
367686.275,81.1564,-430.771,0,0
367946.6,81.6123,-429.775,0,0
368206.925,82.1011,-428.898,0,0
368467.25,82.6581,-427.967,0,0
368727.575,83.304,-427.076,0,0
368987.9,83.9834,-426.259,0,0
369248.225,84.7059,-425.474,0,0
369508.55,85.5243,-424.756,0,0
369768.875,86.3134,-424.076,0,0
370029.2,87.1196,-423.46,0,0
370289.525,88.0193,-422.824,0,0
370549.85,88.9664,-422.225,0,0
370810.175,89.9491,-421.751,0,0
371070.5,91.0432,-421.339,0,0
371330.825,92.147,-421.111,0,0
371591.15,93.3073,-420.906,0,0
371851.475,94.4152,-420.861,0,0
372111.8,95.5575,-420.978,0,0
372372.125,96.579,-421.203,0,0
372632.45,97.5964,-421.513,0,0
372892.775,98.5492,-421.972,0,0
373153.1,99.4048,-422.508,0,0
373413.425,100.116,-423.104,0,0
373673.75,100.802,-423.832,0,0
373934.075,101.232,-424.638,0,0
374194.4,101.55,-425.424,0,0
374454.725,101.733,-426.232,0,0
374715.05,101.756,-426.933,0,0
374975.375,101.635,-427.556,0,0
375235.7,101.508,-428.141,0,0
375496.025,101.271,-428.564,0,0
375756.35,101.11,-428.911,0,0
376016.675,100.873,-429.204,0,0
376277.0,100.69,-429.505,0,0
376537.325,100.468,-429.698,0,0
376797.65,100.266,-429.997,0,0
377057.975,100.076,-430.144,0,0
377318.3,99.8586,-430.3,0,0
377578.625,99.7008,-430.486,0,0
377838.95,99.4631,-430.63,0,0
378099.275,99.2716,-430.806,0,0
378359.6,99.0857,-430.947,0,0
378619.925,98.8087,-431.144,0,0
378880,98.5582,-431.28,0,0
379141,98.2662,-431.421,0,0
379401,97.9137,-431.483,0,0
379661,97.6157,-431.543,0,0
379922,97.3016,-431.567,0,0
380182,96.968,-431.552,0,0
380442,96.6194,-431.59,0,0
380703,96.1899,-431.519,0,0
380963,95.8646,-431.421,0,0
381223,95.5127,-431.245,0,0
381483,95.2494,-430.979,0,0
381744,95.0384,-430.684,0,0
382004,94.9329,-430.387,0,0
382264,95.0573,-430.125,0,0
382525,95.1784,-430.042,0,0
382785,95.3925,-430.026,0,0
383045,95.6064,-430.216,0,0
383306,95.789,-430.499,0,0
383566,95.831,-430.985,0,0
383826,95.7471,-431.549,0,0
384087,95.5298,-432.232,0,0
384347,95.1099,-432.812,0,0
384607,94.519,-433.465,0,0
384868,93.8956,-434.007,0,0
385128,93.1137,-434.485,0,0
385388,92.2109,-434.957,0,0
385649,91.1931,-435.272,0,0
385909,90.1277,-435.474,0,0
386169,88.9774,-435.54,0,0
386430,87.7294,-435.486,0,0
386690,86.5129,-435.243,0,0
386950,85.3483,-434.932,0,0
387211,84.233,-434.408,0,0
387471,83.1137,-433.839,0,0
387731,82.0583,-433.044,0,0
387992,81.163,-432.256,0,0
388252,80.3804,-431.347,0,0
388512,79.678,-430.424,0,0
388773,79.1305,-429.425,0,0
389033,78.7243,-428.403,0,0
389293,78.3937,-427.37,0,0
389554,78.2972,-426.463,0,0
389814,78.2815,-425.576,0,0
390074,78.3391,-424.791,0,0
390335,78.5496,-424.185,0,0
390595,78.7962,-423.697,0,0
390855,79.0085,-423.357,0,0
391116,79.2311,-423.131,0,0
391376,79.3504,-423.094,0,0
391636,79.3833,-423.168,0,0
391896,79.3187,-423.353,0,0
392157,79.0232,-423.586,0,0
392417,78.6524,-423.848,0,0
392677,78.0274,-424.032,0,0
392938,77.3498,-424.15,0,0
393198,76.5017,-424.201,0,0
393458,75.6729,-424.103,0,0
393719,74.7424,-423.909,0,0
393979,73.774,-423.662,0,0
394239,72.8057,-423.248,0,0
394500,71.8817,-422.8,0,0
394760.05,70.9169,-422.165,0,0
395020.375,70.0603,-421.529,0,0
395280.7,69.2285,-420.783,0,0
395541.025,68.4356,-419.967,0,0
395801.35,67.7108,-419.159,0,0
396061.675,67.0295,-418.285,0,0
396322.0,66.4023,-417.392,0,0
396582.325,65.8828,-416.532,0,0
396842.65,65.3556,-415.676,0,0
397102.975,64.8564,-414.761,0,0
397363.3,64.3569,-413.897,0,0
397623.625,63.8695,-412.986,0,0
397883.95,63.4064,-412.08,0,0
398144.275,62.9789,-411.161,0,0
398404.6,62.5548,-410.238,0,0
398664.925,62.1944,-409.274,0,0
398925.25,61.8238,-408.292,0,0
399185.575,61.4847,-407.322,0,0
399445.9,61.2102,-406.292,0,0
399706.225,60.9294,-405.243,0,0
399966.55,60.7012,-404.189,0,0
400006.6,60.6403,-404.076,0,0