File: Accelerated corrosion test data/2025-10-15_18-00-03/sample_7.csv
Frequency (Hz),Impedance (ohms),Phase (Radians),Temperature (C),Humidity (%)
10000.0,273.069,-12085.3,0,0
10260.325,269.69,-11794.5,0,0
10520.65,257.409,-11495.9,0,0
10780.975,252.126,-11214.8,0,0
11041.3,249.782,-10947.9,0,0
11301.625,246.875,-10691.6,0,0
11561.95,249.875,-10442.4,0,0
11822.275,259.819,-10210,0,0
12082.6,268.669,-9986.9,0,0
12342.925,318.6,-9836.45,0,0
12603.25,256.161,-9640.45,0,0
12863.575,267.98,-9457.67,0,0
13123.9,236.108,-9270.48,0,0
13384.225,227.424,-9095.21,0,0
13644.55,226.086,-8914.79,0,0
13904.875,208.872,-8746.78,0,0
14165.2,209.964,-8574.9,0,0
14425.525,202.862,-8435.85,0,0
14685.8,202.144,-8286.37,0,0
14946.175,198.928,-8139.77,0,0
15206.5,194.722,-8010.49,0,0
15466.825,186.004,-7867.66,0,0
15727.15,182.838,-7739.85,0,0
15987.5,179.625,-7610.42,0,0
16247.8,177.144,-7492.11,0,0
16508.125,171.23,-7369.4,0,0
16768.45,171.227,-7251.33,0,0
17028.775,170.535,-7140.04,0,0
17289.1,166.263,-7032.2,0,0
17549.425,165.712,-6924.08,0,0
17809.75,171.288,-6814.86,0,0
18070.075,168.951,-6717.51,0,0
18330.4,179.512,-6612.11,0,0
18590.725,200.356,-6529.01,0,0
18851.05,190.56,-6455.81,0,0
19111.375,181.006,-6374.04,0,0
19371.7,203.278,-6304.58,0,0
19632.025,168.619,-6231.57,0,0
19892.35,158.816,-6131.5,0,0
20152.675,168.587,-6053.44,0,0
20413.0,168.311,-5978.78,0,0
20673.3,170.964,-5898.41,0,0
20933.65,180.239,-5841.36,0,0
21193.975,161.364,-5778.14,0,0
21454.3,153.17,-5703.8,0,0
21714.625,157.369,-5638.55,0,0
21974.9,146.494,-5575.29,0,0
22235.275,141.252,-5506.32,0,0
22495.6,139.755,-5443.04,0,0
22755.925,133.771,-5379.36,0,0
23016.25,130.072,-5315.39,0,0
23276.6,128.629,-5252.83,0,0
23536.9,129.645,-5192.75,0,0
23797.225,127.732,-5137.51,0,0
24057.55,124.365,-5079.96,0,0
24317.875,122.841,-5022.8,0,0
24578.2,123.993,-4968.19,0,0
24838.525,122.263,-4914.02,0,0
25098.85,120.674,-4863.16,0,0
25359.175,119.846,-4811.23,0,0
25619.5,118.457,-4758.67,0,0
25879.8,118.744,-4709.48,0,0
26140.1,119.639,-4657.47,0,0
26400.5,124.253,-4610.53,0,0
26660.8,121.298,-4564.29,0,0
26921.1,122.436,-4514.24,0,0
27181.4,127.657,-4466.57,0,0
27441.8,131.632,-4420.36,0,0
27702.1,141.783,-4373.28,0,0
27962.4,155.93,-4329.75,0,0
28222.7,177.66,-4302.1,0,0
28483.1,182.142,-4281.87,0,0
28743.4,183.498,-4268.18,0,0
29003.7,167.383,-4245.63,0,0
29264,149.517,-4211.49,0,0
29524.4,139.544,-4171.8,0,0
29784.7,132.534,-4133.4,0,0
30045,129.653,-4090.34,0,0
30305.3,130.725,-4053.69,0,0
30565.7,132.064,-4019.6,0,0
30826,132.432,-3987.77,0,0
31086.3,133.422,-3957.47,0,0
31346.6,130.954,-3928.24,0,0
31607,128.752,-3903.07,0,0
31867.3,120.957,-3871.64,0,0
32127.6,117.624,-3839.73,0,0
32387.9,114.571,-3809.17,0,0
32648.3,110.911,-3779.55,0,0
32908.6,107.848,-3749.06,0,0
33168.9,104.236,-3719.32,0,0
33429.2,101.582,-3689.34,0,0
33689.6,99.4028,-3659.2,0,0
33949.9,97.4363,-3630.07,0,0
34210.2,95.2343,-3601.17,0,0
34470.5,93.518,-3572.67,0,0
34730.9,92.2354,-3544.57,0,0
34991.2,91.4297,-3517.26,0,0
35251.5,90.3524,-3489.98,0,0
35511.8,89.27,-3463.04,0,0
35772.2,89.178,-3436.48,0,0
36032.5,88.7907,-3410.52,0,0
36292.8,88.0627,-3385.79,0,0
36553.1,87.207,-3360.86,0,0
36813.5,86.5886,-3335.62,0,0
37073.8,86.4546,-3311.07,0,0
37334.1,86.0774,-3287.09,0,0
37594.4,85.8396,-3263.63,0,0
37854.8,85.4186,-3240.07,0,0
38115.1,85.1386,-3216.27,0,0
38375.4,85.7285,-3192.88,0,0
38635.7,86.6744,-3170.1,0,0
38896.1,88.0342,-3147.21,0,0
39156.4,90.4642,-3125.92,0,0
39416.7,93.2334,-3104.61,0,0
39677,97.3439,-3086.46,0,0
39937.4,98.6781,-3070.5,0,0
40197.7,98.6644,-3054.81,0,0
40458,95.6171,-3039.29,0,0
40718.3,92.749,-3021.32,0,0
40978.7,89.4917,-3002.65,0,0
41239,86.7619,-2983.26,0,0
41499.3,85.2416,-2963.76,0,0
41759.6,84.0544,-2944.69,0,0
42020,81.9523,-2926.58,0,0
42280.275,80.414,-2907.05,0,0
42540.6,80.1328,-2887.37,0,0
42800.925,80.4907,-2869.13,0,0
43061.25,80.4542,-2851.11,0,0
43321.575,80.4778,-2834.44,0,0
43581.9,79.3343,-2816.97,0,0
43842.225,79.0734,-2798.46,0,0
44102.55,80.0796,-2781.22,0,0
44362.875,82.0534,-2765.01,0,0
44623.2,82.1939,-2750.13,0,0
44883.525,81.4368,-2735.85,0,0
45143.85,80.3244,-2720.71,0,0
45404.175,78.9321,-2704.9,0,0
45664.5,79.7694,-2688.32,0,0
45924.825,80.8777,-2674.66,0,0
46185.15,79.6011,-2662.18,0,0
46445.475,77.3303,-2648.33,0,0
46705.8,74.6841,-2633.72,0,0
46966.125,72.6728,-2617.83,0,0
47226.45,71.5564,-2602.17,0,0
47486.775,71.3153,-2586.81,0,0
47747.1,70.8411,-2572.15,0,0
48007.425,70.4946,-2557.79,0,0
48267.75,69.933,-2543.75,0,0
48528.075,69.1147,-2529.81,0,0
48788.4,68.5874,-2515.81,0,0
49048.725,67.9928,-2501.7,0,0
49309.05,67.6453,-2488.08,0,0
49569.375,67.237,-2474.58,0,0
49829.7,66.7389,-2461.08,0,0
50090.025,66.5432,-2447.83,0,0
50350.35,66.1244,-2434.55,0,0
50610.675,65.8256,-2421.81,0,0
50871.0,65.4465,-2408.98,0,0
51131.325,65.2874,-2396.34,0,0
51391.65,64.6848,-2383.62,0,0
51651.975,64.4857,-2371.06,0,0
51912.3,64.1429,-2358.95,0,0
52172.625,64.0692,-2346.63,0,0
52432.95,63.8344,-2334.46,0,0
52693.275,63.7806,-2322.53,0,0
52953.6,63.8116,-2310.74,0,0
53213.925,63.675,-2299.15,0,0
53474.25,63.2377,-2288.01,0,0
53734.575,63.0192,-2276.62,0,0
53994.9,62.6131,-2265.32,0,0
54255.225,62.2414,-2253.93,0,0
54515.55,62.022,-2243,0,0
54775.875,61.7176,-2231.91,0,0
55036.2,61.3912,-2221,0,0
55296.525,61.3097,-2210.05,0,0
55556.85,61.0285,-2199.3,0,0
55817.175,60.8245,-2188.61,0,0
56077.5,60.4565,-2177.95,0,0
56337.825,60.5869,-2167.53,0,0
56598.15,60.3557,-2157.21,0,0
56858.475,60.1867,-2146.87,0,0
57118.8,59.9591,-2136.76,0,0
57379.125,59.7708,-2126.72,0,0
57639.45,59.5671,-2116.7,0,0
57899.775,59.2925,-2106.61,0,0
58160.1,59.3214,-2096.54,0,0
58420.4,59.6911,-2086.7,0,0
58680.7,59.7377,-2077.42,0,0
58941.1,59.5448,-2068.19,0,0
59201.4,59.3508,-2058.61,0,0
59461.7,59.4989,-2049.05,0,0
59722,59.8697,-2040.27,0,0
59982.4,59.5934,-2031.26,0,0
60242.7,59.6819,-2022.32,0,0
60503,59.4655,-2013.87,0,0
60763.3,59.1,-2005.22,0,0
61023.7,58.5381,-1996.5,0,0
61284,58.2081,-1987.84,0,0
61544.3,57.8206,-1979.21,0,0
61804.6,57.4414,-1970.69,0,0
62065,56.984,-1961.91,0,0
62325.3,56.6734,-1953.26,0,0
62585.6,56.3502,-1944.65,0,0
62845.9,56.1116,-1936.14,0,0
63106.3,55.7451,-1927.67,0,0
63366.6,55.7406,-1919.02,0,0
63626.9,55.7569,-1910.83,0,0
63887.2,55.7449,-1902.91,0,0
64147.6,55.3039,-1894.72,0,0
64407.9,55.1638,-1886.61,0,0
64668.2,54.9587,-1878.58,0,0
64928.5,54.9978,-1870.54,0,0
65188.9,55.0439,-1862.53,0,0
65449.2,55.1187,-1855.02,0,0
65709.5,55.1057,-1847.59,0,0
65969.8,55.0541,-1840.07,0,0
66230.2,54.8622,-1832.79,0,0
66490.5,54.5373,-1825.53,0,0
66750.8,54.1234,-1818.17,0,0
67011.1,53.6356,-1810.83,0,0
67271.5,53.198,-1803.32,0,0
67531.8,53.0059,-1795.91,0,0
67792.1,52.7713,-1788.58,0,0
68052.4,52.439,-1781.19,0,0
68312.8,52.2655,-1773.81,0,0
68573.1,52.0629,-1766.62,0,0
68833.4,51.8564,-1759.55,0,0
69093.7,51.6017,-1752.3,0,0
69354.1,51.6914,-1745.2,0,0
69614.4,51.6134,-1738.32,0,0
69874.7,51.4561,-1731.36,0,0
70135,51.4491,-1724.48,0,0
70395.4,51.407,-1717.6,0,0
70655.7,51.3707,-1710.78,0,0
70916,51.3776,-1704.2,0,0
71176.3,51.2011,-1697.81,0,0
71436.7,51.244,-1691.22,0,0
71697,51.0258,-1684.74,0,0
71957.3,50.6472,-1678.39,0,0
72217.6,50.4995,-1671.85,0,0
72478,50.3029,-1665.42,0,0
72738.3,50.088,-1659.09,0,0
72998.6,49.8877,-1652.52,0,0
73258.9,49.7559,-1646.27,0,0
73519.3,49.6386,-1639.96,0,0
73779.6,49.4981,-1633.64,0,0
74039.9,49.3633,-1627.42,0,0
74300.225,49.2766,-1621.23,0,0
74560.55,49.1951,-1615.09,0,0
74820.875,48.9519,-1608.97,0,0
75081.2,48.9047,-1602.95,0,0
75341.525,48.8616,-1596.91,0,0
75601.85,48.6661,-1590.92,0,0
75862.175,48.6231,-1584.98,0,0
76122.5,48.442,-1578.97,0,0
76382.825,48.4179,-1573.1,0,0
76643.15,48.3304,-1567.29,0,0
76903.475,48.2094,-1561.42,0,0
77163.8,48.262,-1555.71,0,0
77424.125,48.199,-1549.97,0,0
77684.45,48.1414,-1544.3,0,0
77944.775,48.0422,-1538.71,0,0
78205.1,47.9684,-1533.01,0,0
78465.425,47.8952,-1527.39,0,0
78725.75,47.8204,-1521.87,0,0
78986.075,47.7892,-1516.35,0,0
79246.4,47.8039,-1510.88,0,0
79506.725,47.7531,-1505.47,0,0
79767.05,47.7285,-1499.9,0,0
80027.375,47.682,-1494.66,0,0
80287.7,47.6795,-1489.34,0,0
80548.025,47.5719,-1484.04,0,0
80808.35,47.5031,-1478.82,0,0
81068.675,47.3536,-1473.6,0,0
81329.0,47.3045,-1468.26,0,0
81589.325,47.2533,-1463.08,0,0
81849.65,47.1973,-1457.89,0,0
82109.975,47.1162,-1452.72,0,0
82370.3,47.1154,-1447.59,0,0
82630.625,47.1218,-1442.52,0,0
82890.95,47.011,-1437.43,0,0
83151.275,46.9404,-1432.38,0,0
83411.6,46.9019,-1427.26,0,0
83671.925,46.9005,-1422.2,0,0
83932.25,46.9424,-1417.19,0,0
84192.575,47.0021,-1412.29,0,0
84452.9,47.0918,-1407.43,0,0
84713.225,47.1512,-1402.57,0,0
84973.55,47.266,-1397.77,0,0
85233.875,47.2432,-1392.99,0,0
85494.2,47.2646,-1388.28,0,0
85754.525,47.2529,-1383.51,0,0
86014.85,47.2435,-1378.75,0,0
86275.175,47.2559,-1374.01,0,0
86535.5,47.3328,-1369.42,0,0
86795.825,47.2687,-1364.81,0,0
87056.15,47.3578,-1360.15,0,0
87316.475,47.4308,-1355.65,0,0
87576.8,47.4639,-1351.2,0,0
87837.125,47.5175,-1346.72,0,0
88097.45,47.4073,-1342.31,0,0
88357.775,47.298,-1337.84,0,0
88618.1,47.2788,-1333.4,0,0
88878.425,47.1955,-1328.93,0,0
89138.75,47.109,-1324.46,0,0
89399.075,47.0088,-1319.93,0,0
89659.4,47.0199,-1315.45,0,0
89919.725,46.871,-1310.99,0,0
90180,46.9191,-1306.62,0,0
90440.4,47.0003,-1302.02,0,0
90700.7,47.1684,-1297.69,0,0
90961,47.1703,-1293.39,0,0
91221.3,47.1723,-1288.99,0,0
91481.7,47.2787,-1284.55,0,0
91742,47.4209,-1280.33,0,0
92002.3,47.5061,-1276.01,0,0
92262.6,47.8205,-1271.83,0,0
92523,47.9169,-1267.71,0,0
92783.3,47.9279,-1263.57,0,0
93043.6,47.9557,-1259.26,0,0
93303.9,48.1666,-1254.96,0,0
93564.3,48.4066,-1250.77,0,0
93824.6,48.8724,-1246.52,0,0
94084.9,49.4158,-1242.59,0,0
94345.2,49.78,-1238.88,0,0
94605.6,50.0243,-1235.13,0,0
94865.9,50.2798,-1231.36,0,0
95126.2,50.7267,-1227.82,0,0
95386.5,50.6855,-1224.59,0,0
95646.9,50.3501,-1221.04,0,0
95907.2,49.9506,-1217.18,0,0
96167.5,49.7926,-1213.3,0,0
96427.8,49.6608,-1209.39,0,0
96688.2,49.5629,-1205.45,0,0
96948.5,49.5761,-1201.63,0,0
97208.8,49.4568,-1197.74,0,0
97469.1,49.3181,-1193.69,0,0
97729.5,49.534,-1189.57,0,0
97989.8,49.8389,-1185.76,0,0
98250.1,49.968,-1182.02,0,0
98510.4,50.2362,-1178.31,0,0
98770.8,50.2988,-1174.77,0,0
99031.1,50.2826,-1171.24,0,0
99291.4,50.0696,-1167.6,0,0
99551.7,49.902,-1163.77,0,0
99812.1,49.7849,-1159.69,0,0
100072,50.0263,-1155.6,0,0
100333,50.4445,-1151.67,0,0
100593,50.7864,-1148.09,0,0
100853,50.9933,-1144.31,0,0
101114,51.4015,-1140.67,0,0
101374,51.6765,-1137.14,0,0
101634,51.858,-1133.54,0,0
101895,52.1808,-1129.73,0,0
102155,52.5489,-1126.08,0,0
102415,53.0101,-1122.53,0,0
102676,53.5395,-1119.04,0,0
102936,53.985,-1115.53,0,0
103196,54.6055,-1112.26,0,0
103457,55.0679,-1108.99,0,0
103717,55.7442,-1105.89,0,0
103977,56.0527,-1103.18,0,0
104238,55.9545,-1100.08,0,0
104498,56.1289,-1096.81,0,0
104758,56.5469,-1093.65,0,0
105019,56.757,-1090.81,0,0
105279,56.6711,-1087.92,0,0
105539,56.4152,-1084.83,0,0
105800,56.3153,-1081.56,0,0
106060,56.1796,-1078.23,0,0
106320.175,56.0958,-1074.65,0,0
106580.5,56.3489,-1071.08,0,0
106840.825,56.7462,-1067.76,0,0
107101.15,57.1299,-1064.66,0,0
107361.475,57.19,-1061.62,0,0
107621.8,57.2306,-1058.34,0,0
107882.125,57.3069,-1055.01,0,0
108142.45,57.6127,-1051.74,0,0
108402.775,57.7971,-1048.46,0,0
108663.1,58.1172,-1045.23,0,0
108923.425,58.3256,-1042.08,0,0
109183.75,58.4961,-1038.96,0,0
109444.075,58.6007,-1035.79,0,0
109704.4,58.5926,-1032.42,0,0
109964.725,58.6895,-1029.06,0,0
110225.05,58.8408,-1025.46,0,0
110485.375,59.4019,-1021.72,0,0
110745.7,60.0142,-1018.16,0,0
111006.025,60.8227,-1014.75,0,0
111266.35,61.7693,-1011.76,0,0
111526.675,62.0883,-1008.52,0,0
111787.0,62.7067,-1005.14,0,0
112047.325,63.5656,-1001.8,0,0
112307.65,64.5374,-998.555,0,0
112567.975,65.4863,-995.518,0,0
112828.3,66.5236,-992.394,0,0
113088.625,67.7549,-989.467,0,0
113348.95,68.9153,-986.878,0,0
113609.275,69.7081,-984.153,0,0
113869.6,70.7321,-981.254,0,0
114129.925,71.8754,-978.472,0,0
114390.25,73.1805,-975.802,0,0
114650.575,74.4569,-973.49,0,0
114910.9,75.4558,-971.075,0,0
115171.225,76.6883,-968.502,0,0
115431.55,77.9514,-966.149,0,0
115691.875,79.5052,-963.709,0,0
115952.2,81.1646,-961.707,0,0
116212.525,82.8356,-959.963,0,0
116472.85,84.5404,-958.592,0,0
116733.175,85.903,-957.654,0,0
116993.5,86.7521,-956.742,0,0
117253.825,87.5231,-955.469,0,0
117514.15,88.4485,-954.497,0,0
117774.475,89.0357,-953.665,0,0
118034.8,89.3601,-952.619,0,0
118295.125,90.0213,-951.359,0,0
118555.45,90.9808,-950.534,0,0
118815.775,91.6889,-950.234,0,0
119076.1,92.0084,-950.201,0,0
119336.425,91.8525,-950.277,0,0
119596.75,91.417,-950.309,0,0
119857.075,90.5854,-950.554,0,0
120117.4,89.0748,-950.621,0,0
120377.725,87.2849,-950.478,0,0
120638.05,84.7955,-949.755,0,0
120898.375,82.489,-948.5,0,0
121158.7,79.8127,-946.899,0,0
121419.025,77.371,-944.357,0,0
121679.35,75.7231,-941.625,0,0
121939.675,74.2929,-939.126,0,0
122200.0,72.9051,-936.724,0,0
122460,71.4022,-934.295,0,0
122721,69.9287,-931.69,0,0
122981,68.563,-928.99,0,0
123241,67.1908,-926.239,0,0
123502,65.8652,-923.292,0,0
123762,64.8172,-920.085,0,0
124022,64.1456,-917.126,0,0
124283,63.3807,-914.299,0,0
124543,62.6652,-911.443,0,0
124803,62.025,-908.671,0,0
125064,61.3419,-906.102,0,0
125324,60.4596,-903.459,0,0
125584,59.4683,-900.553,0,0
125845,58.8071,-897.556,0,0
126105,58.172,-894.745,0,0
126365,57.3861,-891.916,0,0
126626,56.6377,-888.86,0,0
126886,56.063,-885.847,0,0
127146,55.4664,-882.815,0,0
127406,54.9896,-879.656,0,0
127667,54.6567,-876.545,0,0
127927,54.4478,-873.605,0,0
128187,54.1651,-870.816,0,0
128448,53.7758,-867.969,0,0
128708,53.4139,-865.003,0,0
128968,53.0663,-862.055,0,0
129229,52.8434,-859.058,0,0
129489,52.6902,-856.24,0,0
129749,52.3096,-853.439,0,0
130010,51.9774,-850.458,0,0
130270,51.8323,-847.469,0,0
130530,51.7256,-844.631,0,0
130791,51.4225,-841.875,0,0
131051,51.1051,-838.994,0,0
131311,50.734,-835.957,0,0
131572,50.5581,-832.796,0,0
131832,50.551,-829.689,0,0
132092,50.5003,-826.726,0,0
132353,50.39,-823.736,0,0
132613,50.3217,-820.599,0,0
132873,50.4069,-817.495,0,0
133134,50.5047,-814.36,0,0
133394,50.6428,-811.299,0,0
133654,50.8642,-808.16,0,0
133915,51.1562,-804.964,0,0
134175,51.6704,-801.752,0,0
134435,52.3711,-798.775,0,0
134696,53.1272,-796.026,0,0
134956,53.5915,-793.417,0,0
135216,54.0085,-790.552,0,0
135477,54.7371,-787.639,0,0
135737,55.6544,-784.82,0,0
135997,56.9376,-782.296,0,0
136258,58.1081,-780.34,0,0
136518,59.0614,-778.66,0,0
136778,59.8065,-777.278,0,0
137039,59.8778,-776.193,0,0
137299,59.3709,-774.737,0,0
137559,58.7235,-772.759,0,0
137819,58.2289,-770.51,0,0
138080,57.8141,-768.238,0,0
138340.125,57.2646,-765.856,0,0
138600.45,56.7754,-763.239,0,0
138860.775,56.3709,-760.512,0,0
139121.1,56.1127,-757.584,0,0
139381.425,56.0895,-754.664,0,0
139641.75,56.1952,-751.861,0,0
139902.075,56.35,-749.143,0,0
140162.4,56.5049,-746.529,0,0
140422.725,56.5593,-744.015,0,0
140683.05,56.4966,-741.406,0,0
140943.375,56.463,-738.715,0,0
141203.7,56.4422,-735.995,0,0
141464.025,56.3999,-733.162,0,0
141724.35,56.4272,-730.259,0,0
141984.675,56.6043,-727.313,0,0
142245.0,56.8631,-724.415,0,0
142505.325,57.1598,-721.513,0,0
142765.65,57.5289,-718.665,0,0
143025.975,57.9234,-715.758,0,0
143286.3,58.4927,-712.928,0,0
143546.625,59.122,-710.265,0,0
143806.95,59.7258,-707.731,0,0
144067.275,60.2344,-705.27,0,0
144327.6,60.6015,-702.896,0,0
144587.925,60.9374,-700.438,0,0
144848.25,61.1909,-697.946,0,0
145108.575,61.4999,-695.427,0,0
145368.9,61.8193,-692.927,0,0
145629.225,62.0316,-690.439,0,0
145889.55,62.1592,-687.892,0,0
146149.875,62.2906,-685.208,0,0
146410.2,62.5488,-682.401,0,0
146670.525,62.9444,-679.697,0,0
146930.85,63.3105,-677.049,0,0
147191.175,63.6714,-674.441,0,0
147451.5,63.9275,-671.871,0,0
147711.825,64.1253,-669.123,0,0
147972.15,64.5559,-666.341,0,0
148232.475,64.9866,-663.804,0,0
148492.8,65.2758,-661.294,0,0
148753.125,65.3788,-658.795,0,0
149013.45,65.4003,-656.122,0,0
149273.775,65.3541,-653.324,0,0
149534.1,65.3667,-650.365,0,0
149794.425,65.3896,-647.36,0,0
150054.75,65.445,-644.222,0,0
150315.075,65.5943,-640.959,0,0
150575.4,65.8035,-637.649,0,0
150835.725,66.075,-634.291,0,0
151096.05,66.4454,-630.866,0,0
151356.375,66.8664,-627.392,0,0
151616.7,67.4016,-623.86,0,0
151877.025,68.0239,-620.297,0,0
152137.35,68.7205,-616.722,0,0
152397.675,69.5018,-613.105,0,0
152658.0,70.4392,-609.461,0,0
152918.325,71.4317,-605.904,0,0
153178.65,72.4744,-602.345,0,0
153438.975,73.5774,-598.775,0,0
153699.3,74.6932,-595.233,0,0
153959.625,75.8649,-591.583,0,0
154219.95,77.1855,-587.888,0,0
154480,78.5813,-584.257,0,0
154741,80.1324,-580.596,0,0
155001,81.7621,-576.925,0,0
155261,83.4278,-573.254,0,0
155522,85.267,-569.682,0,0
155782,87.1745,-566.217,0,0
156042,89.2241,-562.548,0,0
156303,91.3038,-559.114,0,0
156563,93.6022,-555.746,0,0
156823,95.8512,-552.322,0,0
157084,98.3466,-549.014,0,0
157344,100.898,-545.921,0,0
157604,103.675,-543.036,0,0
157864,106.289,-540.304,0,0
158125,108.921,-537.734,0,0
158385,111.712,-535.256,0,0
158645,114.345,-533.244,0,0
158906,116.705,-531.422,0,0
159166,118.677,-529.711,0,0
159426,120.197,-527.924,0,0
159687,121.634,-525.912,0,0
159947,122.713,-523.847,0,0
160207,123.525,-521.372,0,0
160468,124.207,-518.473,0,0
160728,125.098,-515.276,0,0
160988,125.681,-511.774,0,0
161249,126.395,-507.607,0,0
161509,127.683,-502.926,0,0
161769,129.408,-497.9,0,0
162030,131.639,-492.831,0,0
162290,134.353,-487.698,0,0
162550,137.448,-482.83,0,0
162811,140.628,-477.942,0,0
163071,144.152,-472.776,0,0
163331,148.088,-467.558,0,0
163592,152.776,-462.399,0,0
163852,157.9,-457.627,0,0
164112,163.29,-453.342,0,0
164373,168.613,-449.403,0,0
164633,174.015,-445.457,0,0
164893,179.584,-441.748,0,0
165154,184.984,-438.142,0,0
165414,190.313,-434.177,0,0
165674,196.118,-429.672,0,0
165935,202.494,-425.009,0,0
166195,209.787,-420.166,0,0
166455,218.133,-415.61,0,0
166716,227.231,-411.767,0,0
166976,236.757,-408.397,0,0
167236,246.965,-405.423,0,0
167497,257.988,-403.248,0,0
167757,269.475,-402.174,0,0
168017,281.16,-401.833,0,0
168277,293.373,-402.239,0,0
168538,306.149,-403.833,0,0
168798,318.981,-406.929,0,0
169058,331.793,-411.486,0,0
169319,344.198,-417.6,0,0
169579,355.205,-425.065,0,0
169839,365.237,-432.495,0,0
170100,375.343,-440.611,0,0
170360.075,385.372,-449.722,0,0
170620.4,394.516,-460.601,0,0
170880.725,401.873,-472.349,0,0
171141.05,407.816,-484.117,0,0
171401.375,412.999,-495.963,0,0
171661.7,417.266,-508.136,0,0
171922.025,420.834,-520.327,0,0
172182.35,424.11,-533.221,0,0
172442.675,426.23,-547.662,0,0
172703.0,425.647,-562.72,0,0
172963.325,423.044,-577.217,0,0
173223.65,418.537,-591.027,0,0
173483.975,412.487,-604.146,0,0
173744.3,404.184,-616.27,0,0
174004.625,393.976,-626.151,0,0
174264.95,383.136,-633.253,0,0
174525.275,372.446,-638.259,0,0
174785.6,361.654,-641.376,0,0
175045.925,351.632,-641.848,0,0
175306.25,343.973,-640.808,0,0
175566.575,337.306,-640.187,0,0
175826.9,330.633,-638.296,0,0
176087.225,325.793,-635.014,0,0
176347.55,323.091,-631.602,0,0
176607.875,321.78,-628.698,0,0
176868.2,321.979,-626.362,0,0
177128.525,323.237,-625.241,0,0
177388.85,324.888,-625.385,0,0
177649.175,326.706,-626.061,0,0
177909.5,329.673,-627.508,0,0
178169.825,333.4,-631.133,0,0
178430.15,336.727,-637.567,0,0
178690.475,337.783,-646.385,0,0
178950.8,335.766,-655.891,0,0
179211.125,331.015,-664.772,0,0
179471.45,324.187,-671.857,0,0
179731.775,316.992,-676.683,0,0
179992.1,310.315,-680.438,0,0
180252.425,303.771,-683.542,0,0
180512.75,297.819,-686.243,0,0
180773.075,292.023,-689.441,0,0
181033.4,285.604,-693.064,0,0
181293.725,277.774,-696.719,0,0
181554.05,268.703,-698.868,0,0
181814.375,260.016,-699.56,0,0
182074.7,251.458,-700.031,0,0
182335.025,242.158,-699.784,0,0
182595.35,232.681,-697.992,0,0
182855.675,223.853,-694.724,0,0
183116.0,216.178,-690.535,0,0
183376.325,209.703,-686.2,0,0
183636.65,203.751,-682.256,0,0
183896.975,197.685,-678.197,0,0
184157.3,191.896,-673.458,0,0
184417.625,186.856,-668.302,0,0
184677.95,182.747,-663.11,0,0
184938.275,179.199,-658.535,0,0
185198.6,175.499,-654.356,0,0
185458.925,171.597,-650.158,0,0
185719.25,167.524,-645.665,0,0
185979.575,163.573,-640.517,0,0
186239.9,160.256,-634.984,0,0
186500,157.451,-629.47,0,0
186761,155.059,-623.943,0,0
187021,153.002,-618.424,0,0
187281,151.374,-612.853,0,0
187542,150.253,-607.427,0,0
187802,149.572,-602.264,0,0
188062,149.319,-597.523,0,0
188322,149.214,-593.357,0,0
188583,149.043,-589.869,0,0
188843,148.158,-586.816,0,0
189103,146.733,-583.493,0,0
189364,145.096,-579.761,0,0
189624,143.627,-575.682,0,0
189884,142.181,-571.546,0,0
190145,140.748,-567.093,0,0
190405,139.691,-562.488,0,0
190665,138.66,-558.014,0,0
190926,137.514,-553.173,0,0
191186,136.836,-547.927,0,0
191446,136.833,-542.811,0,0
191707,137.008,-538.147,0,0
191967,136.942,-533.745,0,0
192227,136.733,-529.17,0,0
192488,136.586,-524.321,0,0
192748,136.765,-519.261,0,0
193008,137.246,-514.222,0,0
193269,137.955,-509.254,0,0
193529,138.864,-504.423,0,0
193789,139.789,-499.732,0,0
194050,140.717,-494.978,0,0
194310,141.759,-490.097,0,0
194570,143.084,-485.084,0,0
194831,144.818,-480.112,0,0
195091,146.913,-475.408,0,0
195351,149.04,-471.043,0,0
195612,151.212,-466.801,0,0
195872,153.461,-462.695,0,0
196132,155.701,-458.854,0,0
196393,157.925,-455.036,0,0
196653,160.112,-451.127,0,0
196913,162.589,-447.387,0,0
197174,165.126,-443.974,0,0
197434,167.561,-440.816,0,0
197694,169.717,-437.832,0,0
197955,171.483,-434.855,0,0
198215,172.963,-431.529,0,0
198475,174.556,-427.888,0,0
198735,176.35,-424.085,0,0
198996,178.252,-420.302,0,0
199256,180.095,-416.444,0,0
199516,181.861,-412.316,0,0
199777,183.816,-407.907,0,0
200037,186.176,-403.346,0,0
200297,188.725,-398.76,0,0
200558,191.57,-394.065,0,0
200818,194.649,-389.58,0,0
201078,197.751,-385.074,0,0
201339,200.842,-380.359,0,0
201599,204.251,-375.433,0,0
201859,208.035,-370.377,0,0
202120,212.232,-365.271,0,0
202380.025,216.936,-360.218,0,0
202640.35,222.075,-355.467,0,0
202900.675,227.435,-350.985,0,0
203161.0,232.918,-346.62,0,0
203421.325,238.616,-342.416,0,0
203681.65,244.655,-338.325,0,0
203941.975,250.769,-334.436,0,0
204202.3,257.099,-330.636,0,0
204462.625,263.764,-326.795,0,0
204722.95,270.771,-323.147,0,0
204983.275,278.158,-319.506,0,0
205243.6,286.237,-315.965,0,0
205503.925,295.201,-313.048,0,0
205764.25,304.641,-311.127,0,0
206024.575,314.071,-310.31,0,0
206284.9,323.306,-310.398,0,0
206545.225,332.048,-311.2,0,0
206805.55,340.35,-312.399,0,0
207065.875,347.885,-314.118,0,0
207326.2,354.781,-315.691,0,0
207586.525,361.067,-317.17,0,0
207846.85,366.933,-318.072,0,0
208107.175,372.797,-318.158,0,0
208367.5,379.148,-317.695,0,0
208627.825,386.174,-316.626,0,0
208888.15,394.387,-315.238,0,0
209148.475,404.116,-314.227,0,0
209408.8,414.766,-314.317,0,0
209669.125,426.052,-315.509,0,0
209929.45,438,-317.701,0,0
210189.775,450.617,-321.273,0,0
210450.1,463.611,-326.667,0,0
210710.425,476.05,-334.703,0,0
210970.75,486.558,-344.559,0,0
211231.075,495.116,-354.447,0,0
211491.4,502.876,-364.435,0,0
211751.725,509.786,-374.897,0,0
212012.05,515.514,-385.677,0,0
212272.375,520.02,-396.264,0,0
212532.7,524.012,-406.354,0,0
212793.025,527.951,-416.683,0,0
213053.35,530.902,-427.942,0,0
213313.675,531.792,-438.761,0,0
213574.0,532.032,-447.98,0,0
213834.325,532.803,-456.502,0,0
214094.65,533.868,-465.27,0,0
214354.975,534.434,-474.513,0,0
214615.3,534.071,-483.698,0,0
214875.625,533.24,-492.26,0,0
215135.95,532.073,-500.753,0,0
215396.275,530.353,-508.799,0,0
215656.6,528.315,-515.929,0,0
215916.925,526.709,-522.364,0,0
216177.25,526.074,-528.706,0,0
216437.575,526.024,-536.069,0,0
216697.9,525.454,-544.816,0,0
216958.225,523.434,-554.271,0,0
217218.55,519.724,-563.537,0,0
217478.875,514.865,-571.708,0,0
217739.2,509.769,-578.767,0,0
217999.525,504.877,-585.4,0,0
218259.85,499.643,-592.008,0,0
218520,493.812,-598.331,0,0
218780,487.417,-604.266,0,0
219041,480.304,-609.633,0,0
219301,472.387,-613.986,0,0
219561,464.316,-616.944,0,0
219822,456.448,-618.808,0,0
220082,448.852,-619.662,0,0
220342,441.784,-619.546,0,0
220603,435.477,-618.776,0,0
220863,429.712,-617.612,0,0
221123,424.335,-616.008,0,0
221384,419.667,-613.85,0,0
221644,415.916,-611.421,0,0
221904,412.801,-608.983,0,0
222165,410.299,-606.54,0,0
222425,408.545,-604.055,0,0
222685,407.46,-602.124,0,0
222946,406.569,-600.626,0,0
223206,405.691,-599.285,0,0
223466,405.17,-598.06,0,0
223727,404.824,-597.272,0,0
223987,404.424,-596.699,0,0
224247,403.771,-596.277,0,0
224508,403.025,-595.788,0,0
224768,402.178,-594.897,0,0
225028,401.526,-593.596,0,0
225289,401.38,-591.898,0,0
225549,402.158,-589.945,0,0
225809,403.766,-588.357,0,0
226070,406.074,-587.451,0,0
226330,408.701,-587.324,0,0
226590,411.248,-588.004,0,0
226851,413.521,-589.163,0,0
227111,415.477,-590.469,0,0
227371,417.47,-591.775,0,0
227632,419.771,-593.137,0,0
227892,422.459,-594.879,0,0
228152,425.378,-597.418,0,0
228413,428.123,-600.718,0,0
228673,430.499,-604.621,0,0
228933,432.403,-609.078,0,0
229193,433.716,-613.86,0,0
229454,434.24,-618.6,0,0
229714,434.534,-622.942,0,0
229974,435.377,-627.165,0,0
230235,436.453,-632.156,0,0
230495,437.099,-638.272,0,0
230755,436.606,-644.909,0,0
231016,435.02,-651.372,0,0
231276,432.756,-657.301,0,0
231536,430.293,-662.826,0,0
231797,427.871,-668.161,0,0
232057,425.522,-673.669,0,0
232317,422.883,-679.646,0,0
232578,419.568,-686.032,0,0
232838,415.349,-692.407,0,0
233098,410.4,-698.463,0,0
233359,405.003,-704.393,0,0
233619,398.731,-710.381,0,0
233879,391.205,-715.904,0,0
234140,382.753,-720.285,0,0
234400,374.009,-723.431,0,0
234660.3,365.084,-725.589,0,0
234920.625,356.068,-726.852,0,0
235180.95,347.062,-727.023,0,0
235441.275,338.4,-725.955,0,0
235701.6,330.494,-723.903,0,0
235961.925,323.499,-721.298,0,0
236222.25,317.441,-718.389,0,0
236482.575,312.345,-715.609,0,0
236742.9,307.865,-713.351,0,0
237003.225,303.344,-711.688,0,0
237263.55,298.366,-710.163,0,0
237523.875,293.172,-708.207,0,0
237784.2,287.981,-705.863,0,0
238044.525,282.926,-703.272,0,0
238304.85,277.783,-700.318,0,0
238565.175,272.7,-696.743,0,0
238825.5,268.067,-692.261,0,0
239085.825,264.283,-687.239,0,0
239346.15,261.653,-681.885,0,0
239606.475,260.24,-676.678,0,0
239866.8,259.879,-672.303,0,0
240127.125,260.026,-668.942,0,0
240387.45,260.377,-666.639,0,0
240647.775,260.294,-665.353,0,0
240908.1,259.348,-664.504,0,0
241168.425,257.932,-663.717,0,0
241428.75,255.997,-662.853,0,0
241689.075,253.681,-661.688,0,0
241949.4,251.199,-660.463,0,0
242209.725,248.296,-658.997,0,0
242470.05,245.019,-656.906,0,0
242730.375,241.944,-654.091,0,0
242990.7,239.364,-650.76,0,0
243251.025,237.249,-647.304,0,0
243511.35,235.264,-643.903,0,0
243771.675,233.432,-640.139,0,0
244032.0,232.103,-635.938,0,0
244292.325,231.58,-631.529,0,0
244552.65,231.912,-627.425,0,0
244812.975,232.83,-623.97,0,0
245073.3,233.986,-621.294,0,0
245333.625,234.907,-619.306,0,0
245593.95,235.459,-617.605,0,0
245854.275,235.803,-616.065,0,0
246114.6,235.958,-614.614,0,0
246374.925,235.842,-613.173,0,0
246635.25,235.604,-611.671,0,0
246895.575,235.223,-610.093,0,0
247155.9,234.784,-608.319,0,0
247416.225,234.3,-606.348,0,0
247676.55,233.993,-604.228,0,0
247936.875,233.853,-601.98,0,0
248197.2,233.813,-599.842,0,0
248457.525,233.858,-597.623,0,0
248717.85,234.037,-595.339,0,0
248978.175,234.337,-593.006,0,0
249238.5,234.842,-590.723,0,0
249498.825,235.453,-588.437,0,0
249759.15,236.211,-586.176,0,0
250019.475,237.106,-583.88,0,0
250279.8,238.317,-581.588,0,0
250540,239.757,-579.456,0,0
250800,241.382,-577.472,0,0
251061,243.191,-575.681,0,0
251321,245.066,-574.073,0,0
251581,247.004,-572.595,0,0
251842,249.085,-571.129,0,0
252102,251.555,-569.809,0,0
252362,254.306,-568.876,0,0
252623,257.217,-568.41,0,0
252883,260.155,-568.374,0,0
253143,263.095,-568.845,0,0
253404,265.918,-569.781,0,0
253664,268.475,-571.19,0,0
253924,270.684,-573.006,0,0
254185,272.475,-575.166,0,0
254445,273.741,-577.42,0,0
254705,274.659,-579.723,0,0
254966,275.238,-582.017,0,0
255226,275.402,-584.345,0,0
255486,275.244,-586.681,0,0
255747,274.709,-588.851,0,0
256007,273.832,-590.774,0,0
256267,272.782,-592.468,0,0
256528,271.618,-593.963,0,0
256788,270.293,-595.3,0,0
257048,268.774,-596.426,0,0
257309,267.141,-597.24,0,0
257569,265.493,-597.762,0,0
257829,263.898,-598.028,0,0
258090,262.364,-598.056,0,0
258350,261.014,-597.824,0,0
258610,259.958,-597.508,0,0
258871,259.1,-597.285,0,0
259131,258.343,-597.18,0,0
259391,257.519,-597.277,0,0
259651,256.514,-597.406,0,0
259912,255.201,-597.512,0,0
260172,253.765,-597.28,0,0
260432,252.214,-596.709,0,0
260693,250.943,-595.8,0,0
260953,249.835,-594.733,0,0
261213,248.914,-593.518,0,0
261474,248.161,-592.187,0,0
261734,247.592,-590.703,0,0
261994,247.347,-589.052,0,0
262255,247.54,-587.308,0,0
262515,248.166,-585.676,0,0
262775,249.201,-584.289,0,0
263036,250.574,-583.25,0,0
263296,252.181,-582.639,0,0
263556,253.818,-582.534,0,0
263817,255.368,-582.794,0,0
264077,256.824,-583.415,0,0
264337,258.119,-584.425,0,0
264598,259.007,-585.752,0,0
264858,259.592,-587.219,0,0
265118,259.695,-588.694,0,0
265379,259.46,-590.013,0,0
265639,258.967,-591.053,0,0
265899,258.532,-591.791,0,0
266160,258.207,-592.431,0,0
266420,258.004,-592.985,0,0
266680.25,257.903,-593.57,0,0
266940.575,257.941,-594.328,0,0
267200.9,257.869,-595.299,0,0
267461.225,257.603,-596.41,0,0
267721.55,257.154,-597.529,0,0
267981.875,256.446,-598.603,0,0
268242.2,255.562,-599.53,0,0
268502.525,254.58,-600.184,0,0
268762.85,253.593,-600.6,0,0
269023.175,252.672,-600.789,0,0
269283.5,251.87,-600.814,0,0
269543.825,251.325,-600.514,0,0
269804.15,251.069,-600.143,0,0
270064.475,251.306,-599.775,0,0
270324.8,251.848,-599.548,0,0
270585.125,252.762,-599.575,0,0
270845.45,253.875,-599.932,0,0
271105.775,255.232,-600.522,0,0
271366.1,256.874,-601.424,0,0
271626.425,258.91,-602.852,0,0
271886.75,261.216,-605.071,0,0
272147.075,263.478,-608.374,0,0
272407.4,265.334,-612.692,0,0
272667.725,266.331,-617.969,0,0
272928.05,266.244,-623.825,0,0
273188.375,265.041,-629.885,0,0
273448.7,262.788,-635.98,0,0
273709.025,259.497,-641.892,0,0
273969.35,255.176,-647.441,0,0
274229.675,250.038,-652.356,0,0
274490.0,244.329,-656.603,0,0
274750.325,238.12,-660.32,0,0
275010.65,231.347,-663.437,0,0
275270.975,224.098,-665.83,0,0
275531.3,216.293,-667.254,0,0
275791.625,208.449,-667.569,0,0
276051.95,200.749,-666.941,0,0
276312.275,193.344,-665.469,0,0
276572.6,186.3,-663.276,0,0
276832.925,179.631,-660.516,0,0
277093.25,173.377,-657.189,0,0
277353.575,167.58,-653.308,0,0
277613.9,162.356,-648.972,0,0
277874.225,157.774,-644.303,0,0
278134.55,153.84,-639.44,0,0
278394.875,150.512,-634.506,0,0
278655.2,147.767,-629.588,0,0
278915.525,145.547,-624.811,0,0
279175.85,143.722,-620.206,0,0
279436.175,142.167,-615.822,0,0
279696.5,140.862,-611.496,0,0
279956.825,139.851,-607.24,0,0
280217.15,139.173,-603.093,0,0
280477.475,138.859,-599.137,0,0
280737.8,138.886,-595.489,0,0
280998.125,139.088,-592.277,0,0
281258.45,139.267,-589.493,0,0
281518.775,139.286,-587.005,0,0
281779.1,139.06,-584.682,0,0
282039.425,138.672,-582.379,0,0
282299.75,138.14,-580.049,0,0
282560,137.461,-577.651,0,0
282820,136.706,-575.061,0,0
283081,135.988,-572.245,0,0
283341,135.417,-569.229,0,0
283601,135.072,-566.055,0,0
283862,134.955,-562.813,0,0
284122,135.123,-559.542,0,0
284382,135.604,-556.32,0,0
284643,136.337,-553.254,0,0
284903,137.278,-550.397,0,0
285163,138.323,-547.691,0,0
285424,139.516,-545.206,0,0
285684,140.77,-542.926,0,0
285944,142.073,-540.856,0,0
286205,143.362,-538.973,0,0
286465,144.644,-537.293,0,0
286725,145.899,-535.787,0,0
286986,147.041,-534.449,0,0
287246,148.059,-533.27,0,0
287506,148.88,-532.191,0,0
287767,149.487,-531.097,0,0
288027,149.956,-529.908,0,0
288287,150.314,-528.61,0,0
288548,150.655,-527.13,0,0
288808,151.033,-525.538,0,0
289068,151.511,-523.83,0,0
289329,152.075,-522.066,0,0
289589,152.752,-520.307,0,0
289849,153.503,-518.524,0,0
290109,154.287,-516.685,0,0
290370,155.227,-514.765,0,0
290630,156.381,-512.806,0,0
290890,157.76,-510.968,0,0
291151,159.307,-509.328,0,0
291411,160.883,-507.896,0,0
291671,162.417,-506.622,0,0
291932,163.881,-505.425,0,0
292192,165.286,-504.227,0,0
292452,166.708,-503.001,0,0
292713,168.24,-501.765,0,0
292973,169.855,-500.615,0,0
293233,171.507,-499.55,0,0
293494,173.172,-498.56,0,0
293754,174.843,-497.639,0,0
294014,176.525,-496.765,0,0
294275,178.192,-495.913,0,0
294535,179.854,-495.042,0,0
294795,181.606,-494.151,0,0
295056,183.481,-493.287,0,0
295316,185.465,-492.454,0,0
295576,187.547,-491.756,0,0
295837,189.666,-491.144,0,0
296097,191.844,-490.606,0,0
296357,194.067,-490.132,0,0
296618,196.404,-489.704,0,0
296878,198.853,-489.376,0,0
297138,201.436,-489.202,0,0
297399,204.12,-489.189,0,0
297659,206.872,-489.388,0,0
297919,209.641,-489.819,0,0
298180,212.357,-490.487,0,0
298440,214.97,-491.284,0,0
298700.2,217.49,-492.111,0,0
298960.525,220.131,-493.102,0,0
299220.85,222.726,-494.119,0,0
299481.175,225.448,-495.283,0,0
299741.5,228.145,-496.641,0,0
300001.825,230.918,-498.206,0,0
300262.15,233.699,-499.906,0,0
300522.475,236.487,-501.784,0,0
300782.8,239.365,-503.969,0,0
301043.125,242.291,-506.324,0,0
301303.45,245.274,-508.978,0,0
301563.775,248.267,-512.118,0,0
301824.1,251.152,-515.784,0,0
302084.425,253.941,-519.974,0,0
302344.75,256.475,-524.688,0,0
302605.075,258.542,-530.029,0,0
302865.4,259.82,-535.897,0,0
303125.725,260.28,-542.001,0,0
303386.05,259.878,-548.152,0,0
303646.375,258.642,-554.086,0,0
303906.7,256.768,-559.631,0,0
304167.025,254.429,-564.77,0,0
304427.35,251.782,-569.508,0,0
304687.675,248.853,-573.905,0,0
304948.0,245.719,-577.942,0,0
305208.325,242.432,-581.707,0,0
305468.65,238.965,-585.209,0,0
305728.975,235.269,-588.503,0,0
305989.3,231.342,-591.5,0,0
306249.625,227.244,-594.119,0,0
306509.95,223.031,-596.364,0,0
306770.275,218.78,-598.237,0,0
307030.6,214.523,-599.772,0,0
307290.925,210.297,-601.024,0,0
307551.25,206.136,-602.014,0,0
307811.575,201.999,-602.75,0,0
308071.9,197.869,-603.25,0,0
308332.225,193.807,-603.523,0,0
308592.55,189.774,-603.526,0,0
308852.875,185.817,-603.268,0,0
309113.2,181.977,-602.732,0,0
309373.525,178.282,-601.971,0,0
309633.85,174.799,-600.942,0,0
309894.175,171.57,-599.747,0,0
310154.5,168.609,-598.471,0,0
310414.825,165.869,-597.178,0,0
310675.15,163.307,-595.892,0,0
310935.475,160.897,-594.607,0,0
311195.8,158.615,-593.356,0,0
311456.125,156.414,-592.133,0,0
311716.45,154.299,-590.95,0,0
311976.775,152.219,-589.765,0,0
312237.1,150.168,-588.588,0,0
312497.425,148.155,-587.393,0,0
312757.75,146.157,-586.19,0,0
313018.075,144.172,-584.945,0,0
313278.4,142.228,-583.648,0,0
313538.725,140.303,-582.289,0,0
313799.05,138.407,-580.838,0,0
314059.375,136.584,-579.316,0,0
314319.7,134.817,-577.665,0,0
314580,133.165,-575.944,0,0
314840,131.685,-574.125,0,0
315101,130.367,-572.322,0,0
315361,129.254,-570.532,0,0
315621,128.275,-568.692,0,0
315882,127.383,-566.981,0,0
316142,126.651,-565.303,0,0
316402,126.098,-563.833,0,0
316663,125.417,-562.349,0,0
316923,124.837,-561.08,0,0
317183,124.26,-559.742,0,0
317444,123.635,-558.523,0,0
317704,123.125,-557.337,0,0
317964,122.547,-556.157,0,0
318225,122.014,-555.091,0,0
318485,121.518,-554.034,0,0
318745,120.956,-552.893,0,0
319006,120.505,-551.82,0,0
319266,120.028,-550.679,0,0
319526,119.656,-549.695,0,0
319787,119.27,-548.69,0,0
320047,118.889,-547.819,0,0
320307,118.465,-546.975,0,0
320567,118.2,-546.146,0,0
320828,117.669,-545.337,0,0
321088,117.251,-544.594,0,0
321348,116.781,-543.929,0,0
321609,116.361,-543.109,0,0
321869,115.859,-542.419,0,0
322129,115.378,-541.698,0,0
322390,114.904,-540.948,0,0
322650,114.45,-540.28,0,0
322910,113.959,-539.588,0,0
323171,113.439,-538.99,0,0
323431,112.927,-538.405,0,0
323691,112.356,-537.669,0,0
323952,111.69,-537.033,0,0
324212,111.139,-536.336,0,0
324472,110.562,-535.561,0,0
324733,109.995,-534.805,0,0
324993,109.495,-533.974,0,0
325253,109.03,-533.175,0,0
325514,108.586,-532.391,0,0
325774,108.294,-531.686,0,0
326034,107.975,-531.086,0,0
326295,107.633,-530.514,0,0
326555,107.232,-529.981,0,0
326815,106.789,-529.489,0,0
327076,106.372,-529.045,0,0
327336,105.932,-528.621,0,0
327596,105.411,-528.139,0,0
327857,104.826,-527.731,0,0
328117,104.195,-527.253,0,0
328377,103.57,-526.812,0,0
328638,102.933,-526.396,0,0
328898,102.232,-525.852,0,0
329158,101.548,-525.344,0,0
329419,100.852,-524.791,0,0
329679,100.263,-524.271,0,0
329939,99.5682,-523.685,0,0
330200,98.8202,-523.186,0,0
330460,98.0799,-522.662,0,0
330720.15,97.4791,-522.111,0,0
330980.475,96.6811,-521.66,0,0
331240.8,96.0033,-521.083,0,0
331501.125,95.2237,-520.609,0,0
331761.45,94.4038,-520.052,0,0
332021.775,93.5207,-519.588,0,0
332282.1,92.6764,-519.017,0,0
332542.425,91.7734,-518.443,0,0
332802.75,90.7688,-517.899,0,0
333063.075,89.8584,-517.267,0,0
333323.4,88.8523,-516.544,0,0
333583.725,87.8433,-515.798,0,0
333844.05,86.7691,-515.041,0,0
334104.375,85.762,-514.121,0,0
334364.7,84.7914,-513.274,0,0
334625.025,83.7921,-512.245,0,0
334885.35,82.8354,-511.303,0,0
335145.675,81.9309,-510.276,0,0
335406.0,81.0047,-509.29,0,0
335666.325,80.1125,-508.248,0,0
335926.65,79.1346,-507.203,0,0
336186.975,78.2734,-506.101,0,0
336447.3,77.3347,-504.855,0,0
336707.625,76.579,-503.641,0,0
336967.95,75.7328,-502.371,0,0
337228.275,74.9436,-501.097,0,0
337488.6,74.247,-499.808,0,0
337748.925,73.613,-498.546,0,0
338009.25,72.919,-497.201,0,0
338269.575,72.3135,-495.882,0,0
338529.9,71.7684,-494.633,0,0
338790.225,71.1392,-493.28,0,0
339050.55,70.6269,-491.943,0,0
339310.875,70.0786,-490.641,0,0
339571.2,69.6374,-489.295,0,0
339831.525,69.176,-487.95,0,0
340091.85,68.7037,-486.609,0,0
340352.175,68.2893,-485.184,0,0
340612.5,67.9184,-483.765,0,0
340872.825,67.6093,-482.442,0,0
341133.15,67.2456,-480.923,0,0
341393.475,66.9905,-479.571,0,0
341653.8,66.7911,-478.197,0,0
341914.125,66.5842,-476.807,0,0
342174.45,66.4203,-475.382,0,0
342434.775,66.38,-473.964,0,0
342695.1,66.2701,-472.606,0,0
342955.425,66.235,-471.245,0,0
343215.75,66.2633,-469.894,0,0
343476.075,66.3342,-468.588,0,0
343736.4,66.4256,-467.29,0,0
343996.725,66.5956,-466.057,0,0
344257.05,66.7171,-464.847,0,0
344517.375,66.9381,-463.632,0,0
344777.7,67.0991,-462.569,0,0
345038.025,67.2786,-461.487,0,0
345298.35,67.563,-460.461,0,0
345558.675,67.7155,-459.482,0,0
345819.0,67.9806,-458.576,0,0
346079.325,68.1442,-457.68,0,0
346339.65,68.3101,-456.866,0,0
346599.975,68.3743,-456.012,0,0
346860,68.4963,-455.26,0,0
347121,68.552,-454.505,0,0
347381,68.5407,-453.747,0,0
347641,68.4956,-452.974,0,0
347902,68.3915,-452.172,0,0
348162,68.2909,-451.422,0,0
348422,68.105,-450.562,0,0
348683,67.9497,-449.664,0,0
348943,67.7447,-448.753,0,0
349203,67.6343,-447.728,0,0
349464,67.4474,-446.754,0,0
349724,67.2945,-445.711,0,0
349984,67.2085,-444.664,0,0
350245,67.1579,-443.587,0,0
350505,67.0313,-442.575,0,0
350765,66.9258,-441.388,0,0
351025,66.8781,-440.228,0,0
351286,66.8474,-438.972,0,0
351546,66.8978,-437.699,0,0
351806,67.0935,-436.445,0,0
352067,67.2638,-435.18,0,0
352327,67.5228,-433.94,0,0
352587,67.9084,-432.775,0,0
352848,68.3013,-431.621,0,0
353108,68.7397,-430.511,0,0
353368,69.1839,-429.491,0,0
353629,69.699,-428.492,0,0
353889,70.2234,-427.531,0,0
354149,70.7028,-426.698,0,0
354410,71.265,-425.85,0,0
354670,71.7579,-425.078,0,0
354930,72.2649,-424.363,0,0
355191,72.8498,-423.621,0,0
355451,73.3611,-423.029,0,0
355711,73.8644,-422.45,0,0
355972,74.3406,-422.046,0,0
356232,74.7013,-421.725,0,0
356492,74.9585,-421.331,0,0
356753,75.1606,-420.99,0,0
357013,75.2572,-420.657,0,0
357273,75.2848,-420.214,0,0
357534,75.2747,-419.784,0,0
357794,75.1696,-419.344,0,0
358054,74.9575,-418.764,0,0
358315,74.7867,-418.1,0,0
358575,74.5938,-417.465,0,0
358835,74.4372,-416.617,0,0
359096,74.3115,-415.721,0,0
359356,74.1666,-414.821,0,0
359616,74.0971,-413.801,0,0
359877,74.0698,-412.809,0,0
360137,74.1365,-411.73,0,0
360397,74.2409,-410.696,0,0
360658,74.373,-409.576,0,0
360918,74.5875,-408.507,0,0
361178,74.8711,-407.429,0,0
361438,75.1934,-406.348,0,0
361699,75.5921,-405.295,0,0
361959,76.0215,-404.332,0,0
362219,76.456,-403.341,0,0
362480,76.9533,-402.369,0,0
362740.1,77.4765,-401.514,0,0
363000.425,77.9933,-400.619,0,0
363260.75,78.498,-399.782,0,0
363521.075,79.024,-398.908,0,0
363781.4,79.594,-398.08,0,0
364041.725,80.1414,-397.25,0,0
364302.05,80.7292,-396.441,0,0
364562.375,81.4062,-395.646,0,0
364822.7,82.0926,-394.886,0,0
365083.025,82.8395,-394.171,0,0
365343.35,83.5751,-393.567,0,0
365603.675,84.3831,-393.033,0,0
365864.0,85.1157,-392.574,0,0
366124.325,85.833,-392.142,0,0
366384.65,86.4714,-391.798,0,0
366644.975,87.0305,-391.459,0,0
366905.3,87.6338,-391.082,0,0
367165.625,88.2009,-390.745,0,0
367425.95,88.7663,-390.385,0,0
367686.275,89.3071,-390.092,0,0
367946.6,89.8806,-389.79,0,0
368206.925,90.4181,-389.535,0,0
368467.25,90.9201,-389.305,0,0
368727.575,91.4314,-389.044,0,0
368987.9,91.9107,-388.871,0,0
369248.225,92.4434,-388.749,0,0
369508.55,92.9076,-388.623,0,0
369768.875,93.3256,-388.615,0,0
370029.2,93.7304,-388.61,0,0
370289.525,93.9553,-388.681,0,0
370549.85,94.133,-388.79,0,0
370810.175,94.2082,-388.84,0,0
371070.5,94.1184,-388.837,0,0
371330.825,93.951,-388.778,0,0
371591.15,93.7516,-388.646,0,0
371851.475,93.4633,-388.339,0,0
372111.8,93.1975,-387.922,0,0
372372.125,92.998,-387.409,0,0
372632.45,92.7925,-386.818,0,0
372892.775,92.6724,-386.178,0,0
373153.1,92.6471,-385.481,0,0
373413.425,92.6178,-384.738,0,0
373673.75,92.6923,-384.024,0,0
373934.075,92.8291,-383.295,0,0
374194.4,93.06,-382.547,0,0
374454.725,93.2931,-381.889,0,0
374715.05,93.5394,-381.211,0,0
374975.375,93.7795,-380.571,0,0
375235.7,94.1153,-379.922,0,0
375496.025,94.3947,-379.363,0,0
375756.35,94.7381,-378.784,0,0
376016.675,95.0586,-378.261,0,0
376277.0,95.3605,-377.777,0,0
376537.325,95.5845,-377.31,0,0
376797.65,95.7766,-376.788,0,0
377057.975,95.9122,-376.232,0,0
377318.3,96.0854,-375.67,0,0
377578.625,96.2174,-375.029,0,0
377838.95,96.4041,-374.33,0,0
378099.275,96.6339,-373.57,0,0
378359.6,96.9171,-372.853,0,0
378619.925,97.2619,-372.068,0,0
378880,97.6938,-371.291,0,0
379141,98.1159,-370.62,0,0
379401,98.5959,-369.926,0,0
379661,99.0896,-369.297,0,0
379922,99.5929,-368.648,0,0
380182,100.11,-368.056,0,0
380442,100.626,-367.496,0,0
380703,101.134,-366.911,0,0
380963,101.636,-366.389,0,0
381223,102.152,-365.841,0,0
381483,102.656,-365.359,0,0
381744,103.134,-364.825,0,0
382004,103.601,-364.272,0,0
382264,104.124,-363.644,0,0
382525,104.643,-363.099,0,0
382785,105.218,-362.496,0,0
383045,105.836,-361.997,0,0
383306,106.446,-361.506,0,0
383566,107.083,-361.003,0,0
383826,107.696,-360.525,0,0
384087,108.324,-360.04,0,0
384347,108.977,-359.606,0,0
384607,109.649,-359.225,0,0
384868,110.344,-358.817,0,0
385128,110.975,-358.488,0,0
385388,111.574,-358.242,0,0
385649,112.161,-357.908,0,0
385909,112.641,-357.512,0,0
386169,113.168,-357.156,0,0
386430,113.749,-356.779,0,0
386690,114.359,-356.332,0,0
386950,114.94,-355.941,0,0
387211,115.539,-355.581,0,0
387471,116.088,-355.182,0,0
387731,116.651,-354.805,0,0
387992,117.183,-354.335,0,0
388252,117.753,-353.819,0,0
388512,118.401,-353.284,0,0
388773,119.11,-352.709,0,0
389033,119.923,-352.076,0,0
389293,120.829,-351.511,0,0
389554,121.808,-351.048,0,0
389814,122.864,-350.654,0,0
390074,123.919,-350.348,0,0
390335,124.977,-350.13,0,0
390595,126.016,-349.984,0,0
390855,127.006,-349.908,0,0
391116,127.955,-349.822,0,0
391376,128.927,-349.793,0,0
391636,129.825,-349.803,0,0
391896,130.685,-349.786,0,0
392157,131.559,-349.758,0,0
392417,132.417,-349.732,0,0
392677,133.256,-349.738,0,0
392938,134.083,-349.734,0,0
393198,134.884,-349.753,0,0
393458,135.702,-349.755,0,0
393719,136.469,-349.702,0,0
393979,137.27,-349.656,0,0
394239,138.079,-349.55,0,0
394500,138.943,-349.408,0,0
394760.05,139.853,-349.209,0,0
395020.375,140.818,-349.049,0,0
395280.7,141.892,-348.849,0,0
395541.025,143.035,-348.7,0,0
395801.35,144.271,-348.569,0,0
396061.675,145.585,-348.47,0,0
396322.0,147.003,-348.446,0,0
396582.325,148.52,-348.486,0,0
396842.65,150.155,-348.633,0,0
397102.975,151.814,-348.962,0,0
397363.3,153.515,-349.384,0,0
397623.625,155.286,-349.938,0,0
397883.95,157.023,-350.656,0,0
398144.275,158.847,-351.563,0,0
398404.6,160.614,-352.6,0,0
398664.925,162.363,-353.875,0,0
398925.25,164.09,-355.308,0,0
399185.575,165.712,-356.932,0,0
399445.9,167.194,-358.765,0,0
399706.225,168.528,-360.77,0,0
399966.55,169.726,-362.997,0,0
400006.6,169.865,-363.365,0,0