File: Accelerated corrosion test data/2025-10-15_18-00-03/sample_2.csv
Frequency (Hz),Impedance (ohms),Phase (Radians),Temperature (C),Humidity (%)
10000.0,229.835,-11433,0,0
10260.325,223.813,-11145.2,0,0
10520.65,218.735,-10872.4,0,0
10780.975,213.87,-10611.4,0,0
11041.3,209.134,-10363.6,0,0
11301.625,204.423,-10126.4,0,0
11561.95,200.604,-9898.34,0,0
11822.275,198.961,-9689.52,0,0
12082.6,193.389,-9478.91,0,0
12342.925,188.186,-9282.84,0,0
12603.25,183.976,-9090.72,0,0
12863.575,180.333,-8907.15,0,0
13123.9,177.938,-8733.71,0,0
13384.225,173.811,-8563.41,0,0
13644.55,170.804,-8398.15,0,0
13904.875,186.346,-8244,0,0
14165.2,166.315,-8098.75,0,0
14425.525,163.21,-7950.18,0,0
14685.8,163.69,-7805.09,0,0
14946.175,159.585,-7675.41,0,0
15206.5,163.781,-7554.45,0,0
15466.825,160.347,-7418.27,0,0
15727.15,151.858,-7305.46,0,0
15987.5,148.657,-7183.98,0,0
16247.8,148.666,-7069.73,0,0
16508.125,143.293,-6959.38,0,0
16768.45,140.821,-6851.41,0,0
17028.775,139.574,-6747.28,0,0
17289.1,138.36,-6646.79,0,0
17549.425,134.615,-6547.29,0,0
17809.75,133.263,-6451.95,0,0
18070.075,131.017,-6359.23,0,0
18330.4,129.627,-6268.26,0,0
18590.725,128.317,-6179.71,0,0
18851.05,127.12,-6094.19,0,0
19111.375,128.476,-6011.9,0,0
19371.7,128.406,-5934.41,0,0
19632.025,122.959,-5856.26,0,0
19892.35,120.61,-5778.47,0,0
20152.675,118.86,-5702.81,0,0
20413.0,118.154,-5628.71,0,0
20673.3,117.525,-5555.94,0,0
20933.65,118.035,-5484.38,0,0
21193.975,123.17,-5416.9,0,0
21454.3,130.133,-5355.18,0,0
21714.625,127.012,-5299.37,0,0
21974.9,121.291,-5234.39,0,0
22235.275,118.793,-5180.1,0,0
22495.6,114.909,-5119.33,0,0
22755.925,111.646,-5058.54,0,0
23016.25,112.607,-5003.3,0,0
23276.6,112.664,-4948.72,0,0
23536.9,108.533,-4893.6,0,0
23797.225,107.302,-4839.13,0,0
24057.55,106.439,-4788.21,0,0
24317.875,102.732,-4737.11,0,0
24578.2,100.898,-4686.06,0,0
24838.525,99.4845,-4636.52,0,0
25098.85,99.0114,-4587.32,0,0
25359.175,97.838,-4540.23,0,0
25619.5,97.5089,-4493.62,0,0
25879.8,96.3735,-4447.27,0,0
26140.1,96.2683,-4402.6,0,0
26400.5,95.3379,-4359.18,0,0
26660.8,96.1493,-4317.29,0,0
26921.1,94.9208,-4275.27,0,0
27181.4,93.7069,-4235.18,0,0
27441.8,92.0114,-4195.23,0,0
27702.1,90.5211,-4155.04,0,0
27962.4,89.8665,-4114.22,0,0
28222.7,89.7493,-4075.65,0,0
28483.1,89.7309,-4038.21,0,0
28743.4,88.9191,-4000.58,0,0
29003.7,90.248,-3963.4,0,0
29264,90.3784,-3927.65,0,0
29524.4,93.1827,-3892.09,0,0
29784.7,96.2889,-3862.93,0,0
30045,92.7459,-3831.07,0,0
30305.3,93.7041,-3797.7,0,0
30565.7,90.7597,-3770.35,0,0
30826,87.8182,-3737.82,0,0
31086.3,86.3276,-3705.55,0,0
31346.6,84.7666,-3674.45,0,0
31607,84.9869,-3643.49,0,0
31867.3,82.7365,-3614.29,0,0
32127.6,81.877,-3583.66,0,0
32387.9,82.3095,-3553.32,0,0
32648.3,82.8679,-3525.37,0,0
32908.6,82.6061,-3499.28,0,0
33168.9,81.9386,-3472.33,0,0
33429.2,79.5932,-3445,0,0
33689.6,79.0309,-3418.15,0,0
33949.9,78.4177,-3392.37,0,0
34210.2,76.8672,-3366.02,0,0
34470.5,76.2165,-3339.91,0,0
34730.9,75.6228,-3314.23,0,0
34991.2,75.1192,-3289.14,0,0
35251.5,74.7172,-3264.67,0,0
35511.8,74.1207,-3240.19,0,0
35772.2,73.6908,-3216.3,0,0
36032.5,72.7297,-3192.95,0,0
36292.8,72.34,-3169.53,0,0
36553.1,71.7701,-3146.63,0,0
36813.5,71.3836,-3123.88,0,0
37073.8,71.1275,-3101.44,0,0
37334.1,70.778,-3079.1,0,0
37594.4,70.4593,-3057.89,0,0
37854.8,70.0567,-3036.54,0,0
38115.1,69.7865,-3015.56,0,0
38375.4,69.2061,-2994.85,0,0
38635.7,68.5356,-2974.25,0,0
38896.1,68.5052,-2953.74,0,0
39156.4,68.0625,-2933.93,0,0
39416.7,67.333,-2914.27,0,0
39677,67.1328,-2894.63,0,0
39937.4,66.7806,-2875.39,0,0
40197.7,66.3534,-2856.22,0,0
40458,66.1602,-2837.36,0,0
40718.3,65.9767,-2818.59,0,0
40978.7,65.9731,-2800.73,0,0
41239,65.4137,-2782.56,0,0
41499.3,65.5198,-2764.63,0,0
41759.6,64.8894,-2747.04,0,0
42020,64.7906,-2729.67,0,0
42280.275,65.005,-2712.79,0,0
42540.6,64.2238,-2695.84,0,0
42800.925,63.9628,-2679.18,0,0
43061.25,63.6011,-2662.33,0,0
43321.575,63.3222,-2645.96,0,0
43581.9,63.3452,-2629.8,0,0
43842.225,62.8319,-2613.79,0,0
44102.55,62.8367,-2597.85,0,0
44362.875,62.7089,-2582.39,0,0
44623.2,62.308,-2566.77,0,0
44883.525,61.7813,-2551.59,0,0
45143.85,61.7605,-2536.14,0,0
45404.175,61.86,-2521.1,0,0
45664.5,61.5368,-2506.62,0,0
45924.825,61.5182,-2491.63,0,0
46185.15,61.8139,-2477.74,0,0
46445.475,60.9157,-2463.87,0,0
46705.8,60.5209,-2449.02,0,0
46966.125,60.7927,-2435.06,0,0
47226.45,60.6755,-2420.96,0,0
47486.775,60.927,-2407.9,0,0
47747.1,60.2714,-2394.27,0,0
48007.425,60.3581,-2380.6,0,0
48267.75,60.8499,-2366.95,0,0
48528.075,61.3319,-2355.07,0,0
48788.4,60.8743,-2342.48,0,0
49048.725,60.4545,-2330.34,0,0
49309.05,59.8768,-2318.11,0,0
49569.375,59.1453,-2305.5,0,0
49829.7,58.6251,-2292.93,0,0
50090.025,58.2873,-2280.48,0,0
50350.35,57.6971,-2268.23,0,0
50610.675,57.436,-2255.73,0,0
50871.0,57.552,-2243.63,0,0
51131.325,57.3333,-2232.22,0,0
51391.65,57.0202,-2220.59,0,0
51651.975,56.4395,-2208.97,0,0
51912.3,56.1002,-2197.42,0,0
52172.625,55.6186,-2185.77,0,0
52432.95,55.4486,-2174.29,0,0
52693.275,55.1362,-2162.99,0,0
52953.6,54.8806,-2151.68,0,0
53213.925,54.7882,-2140.51,0,0
53474.25,54.6384,-2129.62,0,0
53734.575,54.5112,-2118.71,0,0
53994.9,54.265,-2107.79,0,0
54255.225,54.1764,-2097.1,0,0
54515.55,54.2258,-2086.41,0,0
54775.875,54.0473,-2076,0,0
55036.2,53.9716,-2065.62,0,0
55296.525,53.8139,-2055.27,0,0
55556.85,53.8094,-2045.03,0,0
55817.175,53.8639,-2034.89,0,0
56077.5,53.828,-2024.88,0,0
56337.825,53.6512,-2014.9,0,0
56598.15,53.6461,-2004.94,0,0
56858.475,53.6901,-1995.18,0,0
57118.8,53.7717,-1985.48,0,0
57379.125,53.7336,-1975.98,0,0
57639.45,53.8182,-1966.53,0,0
57899.775,54.0122,-1957.08,0,0
58160.1,53.9506,-1947.9,0,0
58420.4,53.8758,-1938.64,0,0
58680.7,53.8167,-1929.28,0,0
58941.1,53.9952,-1920.04,0,0
59201.4,54.163,-1910.92,0,0
59461.7,54.4051,-1901.86,0,0
59722,54.8005,-1892.9,0,0
59982.4,55.3203,-1884.01,0,0
60242.7,56.0961,-1875.9,0,0
60503,56.1648,-1867.81,0,0
60763.3,56.2662,-1859.41,0,0
61023.7,56.4536,-1850.83,0,0
61284,57.1867,-1842.65,0,0
61544.3,57.8163,-1834.89,0,0
61804.6,58.6961,-1827.51,0,0
62065,58.7459,-1821.04,0,0
62325.3,58.0078,-1813.61,0,0
62585.6,57.7421,-1806.26,0,0
62845.9,57.4501,-1798.98,0,0
63106.3,56.5231,-1792.29,0,0
63366.6,55.3006,-1784.31,0,0
63626.9,54.9855,-1776.66,0,0
63887.2,54.4092,-1768.86,0,0
64147.6,53.8763,-1761.28,0,0
64407.9,53.2395,-1753.68,0,0
64668.2,52.8662,-1745.96,0,0
64928.5,52.3226,-1738.92,0,0
65188.9,51.0998,-1731.14,0,0
65449.2,50.5022,-1722.88,0,0
65709.5,50.4598,-1714.64,0,0
65969.8,50.6112,-1706.85,0,0
66230.2,50.7383,-1699.3,0,0
66490.5,50.938,-1691.8,0,0
66750.8,50.9014,-1684.54,0,0
67011.1,50.9633,-1677.1,0,0
67271.5,51.2861,-1669.64,0,0
67531.8,51.8105,-1662.37,0,0
67792.1,52.3371,-1655.3,0,0
68052.4,53.1556,-1648.56,0,0
68312.8,53.3128,-1642.46,0,0
68573.1,53.3581,-1635.63,0,0
68833.4,53.8956,-1628.84,0,0
69093.7,54.6314,-1622.63,0,0
69354.1,55.1003,-1616.84,0,0
69614.4,55.3638,-1610.83,0,0
69874.7,55.7885,-1605.32,0,0
70135,55.5503,-1600.01,0,0
70395.4,55.1808,-1594.79,0,0
70655.7,54.066,-1589.45,0,0
70916,52.9758,-1583.39,0,0
71176.3,52.3337,-1577.2,0,0
71436.7,51.692,-1571.07,0,0
71697,51.1389,-1565.2,0,0
71957.3,50.0805,-1559.57,0,0
72217.6,48.8436,-1553.23,0,0
72478,47.6939,-1546.6,0,0
72738.3,46.9867,-1539.97,0,0
72998.6,46.4811,-1533.23,0,0
73258.9,46.1862,-1526.82,0,0
73519.3,45.6416,-1520.43,0,0
73779.6,45.0825,-1513.73,0,0
74039.9,44.9174,-1506.98,0,0
74300.225,44.9365,-1500.39,0,0
74560.55,45.0338,-1494.08,0,0
74820.875,45.0529,-1487.74,0,0
75081.2,45.1195,-1481.34,0,0
75341.525,45.4057,-1475.12,0,0
75601.85,45.6441,-1468.97,0,0
75862.175,45.9509,-1462.8,0,0
76122.5,46.4648,-1456.84,0,0
76382.825,46.8689,-1451,0,0
76643.15,47.3258,-1445.19,0,0
76903.475,47.7499,-1439.48,0,0
77163.8,48.2464,-1433.71,0,0
77424.125,49.0233,-1428.11,0,0
77684.45,49.7725,-1422.75,0,0
77944.775,50.4597,-1417.43,0,0
78205.1,51.2318,-1412.37,0,0
78465.425,52.0239,-1407.58,0,0
78725.75,52.4987,-1402.97,0,0
78986.075,52.9697,-1398.54,0,0
79246.4,53.2328,-1394.2,0,0
79506.725,53.3097,-1389.96,0,0
79767.05,53.0715,-1385.77,0,0
80027.375,52.5242,-1381.52,0,0
80287.7,51.6907,-1377.01,0,0
80548.025,51.0829,-1372,0,0
80808.35,50.4695,-1367.12,0,0
81068.675,49.9595,-1362.04,0,0
81329.0,49.512,-1356.97,0,0
81589.325,49.1728,-1351.85,0,0
81849.65,48.7794,-1346.8,0,0
82109.975,48.4792,-1341.66,0,0
82370.3,48.267,-1336.47,0,0
82630.625,48.0942,-1331.33,0,0
82890.95,48.0892,-1326.16,0,0
83151.275,48.1019,-1321.03,0,0
83411.6,48.2087,-1315.94,0,0
83671.925,48.3811,-1311.04,0,0
83932.25,48.4983,-1306.07,0,0
84192.575,48.7503,-1301.36,0,0
84452.9,48.9786,-1296.63,0,0
84713.225,49.0529,-1292.05,0,0
84973.55,49.1204,-1287.28,0,0
85233.875,49.2447,-1282.58,0,0
85494.2,49.4702,-1277.77,0,0
85754.525,49.9037,-1273.23,0,0
86014.85,50.0956,-1268.87,0,0
86275.175,50.3734,-1264.44,0,0
86535.5,50.4616,-1260.18,0,0
86795.825,50.5248,-1255.8,0,0
87056.15,50.7514,-1251.38,0,0
87316.475,51.0044,-1247.06,0,0
87576.8,51.1314,-1243.04,0,0
87837.125,51.1416,-1238.78,0,0
88097.45,51.0915,-1234.6,0,0
88357.775,51.1066,-1230.2,0,0
88618.1,51.3135,-1226.25,0,0
88878.425,50.9247,-1221.96,0,0
89138.75,50.9937,-1217.32,0,0
89399.075,51.3681,-1213.13,0,0
89659.4,51.4517,-1208.83,0,0
89919.725,51.8471,-1204.68,0,0
90180,52.1403,-1200.94,0,0
90440.4,51.8342,-1197.27,0,0
90700.7,51.3803,-1192.91,0,0
90961,51.336,-1188.12,0,0
91221.3,52.042,-1183.68,0,0
91481.7,52.5392,-1179.83,0,0
91742,52.6618,-1175.86,0,0
92002.3,52.9519,-1171.68,0,0
92262.6,53.4126,-1167.61,0,0
92523,54.1083,-1163.71,0,0
92783.3,54.4688,-1160.17,0,0
93043.6,54.8003,-1156.45,0,0
93303.9,55.2629,-1152.72,0,0
93564.3,55.7126,-1149.39,0,0
93824.6,56.1052,-1146.13,0,0
94084.9,56.2252,-1143.14,0,0
94345.2,55.776,-1139.99,0,0
94605.6,55.2676,-1136.13,0,0
94865.9,55.4996,-1132.49,0,0
95126.2,55.2634,-1129.28,0,0
95386.5,54.5609,-1125.6,0,0
95646.9,54.1098,-1121.31,0,0
95907.2,54.3926,-1116.7,0,0
96167.5,55.2534,-1112.63,0,0
96427.8,56.0997,-1109.18,0,0
96688.2,56.7026,-1105.83,0,0
96948.5,57.3317,-1102.64,0,0
97208.8,57.9778,-1099.64,0,0
97469.1,58.4634,-1097.09,0,0
97729.5,58.2895,-1094.6,0,0
97989.8,57.9843,-1091.78,0,0
98250.1,57.7796,-1088.77,0,0
98510.4,57.6098,-1085.98,0,0
98770.8,57.2436,-1083.36,0,0
99031.1,56.5717,-1080.57,0,0
99291.4,55.7685,-1077.77,0,0
99551.7,54.6246,-1074.77,0,0
99812.1,53.398,-1071.2,0,0
100072,52.672,-1067.22,0,0
100333,52.3488,-1063.44,0,0
100593,52.0784,-1060.23,0,0
100853,51.3787,-1057.09,0,0
101114,50.5237,-1053.58,0,0
101374,49.6251,-1050.16,0,0
101634,48.4226,-1046.36,0,0
101895,47.5005,-1042.07,0,0
102155,46.9864,-1037.61,0,0
102415,46.9122,-1033.43,0,0
102676,46.6465,-1029.53,0,0
102936,46.1709,-1025.45,0,0
103196,45.9547,-1021.12,0,0
103457,45.8714,-1016.72,0,0
103717,46.0052,-1012.35,0,0
103977,46.3877,-1008.08,0,0
104238,46.8042,-1003.81,0,0
104498,47.6071,-999.617,0,0
104758,48.4989,-995.689,0,0
105019,49.3324,-992.018,0,0
105279,50.0473,-988.5,0,0
105539,50.7926,-984.844,0,0
105800,51.8909,-981.264,0,0
106060,53.0087,-978.035,0,0
106320.175,54.1089,-975.023,0,0
106580.5,55.1869,-972.173,0,0
106840.825,56.1645,-969.67,0,0
107101.15,56.9296,-967.323,0,0
107361.475,57.5004,-965.145,0,0
107621.8,57.7007,-963.138,0,0
107882.125,57.6424,-960.88,0,0
108142.45,57.4702,-958.655,0,0
108402.775,56.9885,-956.211,0,0
108663.1,56.5105,-953.629,0,0
108923.425,56.029,-950.957,0,0
109183.75,55.3988,-948.205,0,0
109444.075,54.707,-945.217,0,0
109704.4,54.1537,-942.136,0,0
109964.725,53.4919,-938.994,0,0
110225.05,52.827,-935.715,0,0
110485.375,52.25,-932.141,0,0
110745.7,51.8918,-928.49,0,0
111006.025,51.7621,-924.856,0,0
111266.35,51.6818,-921.274,0,0
111526.675,51.6783,-917.831,0,0
111787.0,51.648,-914.284,0,0
112047.325,51.7364,-910.705,0,0
112307.65,51.9261,-907.229,0,0
112567.975,52.0168,-903.791,0,0
112828.3,52.2029,-900.284,0,0
113088.625,52.3802,-896.841,0,0
113348.95,52.6769,-893.248,0,0
113609.275,53.1401,-889.839,0,0
113869.6,53.5488,-886.526,0,0
114129.925,53.9099,-883.148,0,0
114390.25,54.3963,-879.747,0,0
114650.575,54.8508,-876.425,0,0
114910.9,55.3926,-873.099,0,0
115171.225,56.0127,-869.746,0,0
115431.55,56.7832,-866.618,0,0
115691.875,57.3873,-863.518,0,0
115952.2,58.0167,-860.413,0,0
116212.525,58.6864,-857.29,0,0
116472.85,59.493,-854.257,0,0
116733.175,60.2925,-851.342,0,0
116993.5,61.0392,-848.484,0,0
117253.825,61.7643,-845.618,0,0
117514.15,62.5569,-842.776,0,0
117774.475,63.4555,-840.007,0,0
118034.8,64.3692,-837.373,0,0
118295.125,65.201,-834.951,0,0
118555.45,65.8523,-832.492,0,0
118815.775,66.6062,-830.012,0,0
119076.1,67.4179,-827.732,0,0
119336.425,68.0104,-825.569,0,0
119596.75,68.503,-823.254,0,0
119857.075,69.0914,-821.176,0,0
120117.4,69.5888,-819.096,0,0
120377.725,69.8847,-817.098,0,0
120638.05,70.0763,-815.074,0,0
120898.375,70.1364,-813.123,0,0
121158.7,69.9547,-811.018,0,0
121419.025,69.7739,-808.702,0,0
121679.35,69.6643,-806.351,0,0
121939.675,69.5022,-804.003,0,0
122200.0,69.241,-801.596,0,0
122460,68.9941,-799.006,0,0
122721,68.8249,-796.339,0,0
122981,68.6928,-793.717,0,0
123241,68.5795,-791.053,0,0
123502,68.4648,-788.346,0,0
123762,68.347,-785.705,0,0
124022,68.1721,-782.929,0,0
124283,68.0673,-780.113,0,0
124543,67.9301,-777.231,0,0
124803,67.8764,-774.327,0,0
125064,67.8054,-771.358,0,0
125324,67.8371,-768.296,0,0
125584,67.9739,-765.291,0,0
125845,68.0993,-762.253,0,0
126105,68.3201,-759.227,0,0
126365,68.5902,-756.207,0,0
126626,68.8667,-753.198,0,0
126886,69.1727,-750.184,0,0
127146,69.5885,-747.106,0,0
127406,70.0827,-744.057,0,0
127667,70.7079,-741.049,0,0
127927,71.3171,-738.249,0,0
128187,71.9418,-735.49,0,0
128448,72.5285,-732.72,0,0
128708,73.1393,-730.051,0,0
128968,73.7004,-727.392,0,0
129229,74.3045,-724.809,0,0
129489,74.7866,-722.296,0,0
129749,75.1767,-719.727,0,0
130010,75.5805,-717.029,0,0
130270,76.095,-714.376,0,0
130530,76.625,-711.752,0,0
130791,77.2024,-709.185,0,0
131051,77.7323,-706.735,0,0
131311,78.1544,-704.333,0,0
131572,78.4982,-701.928,0,0
131832,78.7845,-699.464,0,0
132092,79.0009,-696.967,0,0
132353,79.1124,-694.43,0,0
132613,79.2546,-691.717,0,0
132873,79.4891,-688.934,0,0
133134,79.7506,-686.141,0,0
133394,80.0568,-683.319,0,0
133654,80.4238,-680.544,0,0
133915,80.793,-677.826,0,0
134175,81.091,-675.086,0,0
134435,81.2851,-672.332,0,0
134696,81.5261,-669.404,0,0
134956,81.86,-666.414,0,0
135216,82.1911,-663.402,0,0
135477,82.6039,-660.348,0,0
135737,83.1227,-657.275,0,0
135997,83.6777,-654.263,0,0
136258,84.2439,-651.239,0,0
136518,84.8854,-648.257,0,0
136778,85.4792,-645.327,0,0
137039,86.0204,-642.338,0,0
137299,86.6372,-639.26,0,0
137559,87.3318,-636.147,0,0
137819,88.1088,-633.136,0,0
138080,88.8873,-630.198,0,0
138340.125,89.5236,-627.322,0,0
138600.45,90.1098,-624.294,0,0
138860.775,90.7075,-621.19,0,0
139121.1,91.3923,-618.012,0,0
139381.425,92.1134,-614.856,0,0
139641.75,92.8223,-611.708,0,0
139902.075,93.3753,-608.491,0,0
140162.4,93.9572,-605.001,0,0
140422.725,94.7111,-601.305,0,0
140683.05,95.7056,-597.527,0,0
140943.375,96.8877,-593.757,0,0
141203.7,98.1823,-589.976,0,0
141464.025,99.7277,-586.14,0,0
141724.35,101.454,-582.476,0,0
141984.675,103.273,-578.883,0,0
142245.0,105.245,-575.367,0,0
142505.325,107.295,-571.98,0,0
142765.65,109.382,-568.718,0,0
143025.975,111.524,-565.596,0,0
143286.3,113.628,-562.577,0,0
143546.625,115.627,-559.521,0,0
143806.95,117.75,-556.418,0,0
144067.275,119.932,-553.378,0,0
144327.6,122.141,-550.435,0,0
144587.925,124.286,-547.506,0,0
144848.25,126.436,-544.413,0,0
145108.575,128.854,-541.225,0,0
145368.9,131.431,-538.23,0,0
145629.225,134.079,-535.339,0,0
145889.55,136.774,-532.532,0,0
146149.875,139.412,-529.77,0,0
146410.2,142.116,-526.965,0,0
146670.525,144.962,-524.179,0,0
146930.85,147.887,-521.472,0,0
147191.175,150.826,-518.737,0,0
147451.5,153.953,-515.917,0,0
147711.825,157.347,-513.226,0,0
147972.15,160.821,-510.697,0,0
148232.475,164.357,-508.13,0,0
148492.8,168.171,-505.547,0,0
148753.125,172.251,-503.11,0,0
149013.45,176.641,-500.723,0,0
149273.775,181.596,-498.607,0,0
149534.1,186.805,-497.105,0,0
149794.425,192.124,-496.163,0,0
150054.75,197.417,-495.67,0,0
150315.075,202.772,-495.547,0,0
150575.4,208.387,-496.057,0,0
150835.725,213.829,-497.603,0,0
151096.05,218.498,-499.84,0,0
151356.375,222.457,-502.256,0,0
151616.7,226.103,-504.75,0,0
151877.025,229.457,-507.686,0,0
152137.35,232.026,-510.969,0,0
152397.675,233.912,-514.156,0,0
152658.0,235.246,-517.228,0,0
152918.325,236.083,-520.069,0,0
153178.65,236.661,-522.622,0,0
153438.975,237.112,-525.132,0,0
153699.3,237.056,-527.745,0,0
153959.625,236.382,-530.042,0,0
154219.95,235.29,-531.829,0,0
154480,234.092,-532.978,0,0
154741,232.993,-533.752,0,0
155001,232.062,-534.335,0,0
155261,231.048,-534.577,0,0
155522,230.39,-534.808,0,0
155782,229.609,-535.096,0,0
156042,228.646,-535.351,0,0
156303,227.374,-535.443,0,0
156563,226.17,-535.045,0,0
156823,224.984,-534.492,0,0
157084,223.719,-534.074,0,0
157344,222.128,-532.975,0,0
157604,220.94,-531.234,0,0
157864,220.454,-529.257,0,0
158125,220.208,-527.577,0,0
158385,220.019,-526.044,0,0
158645,220.062,-524.161,0,0
158906,220.492,-522.759,0,0
159166,220.928,-521.431,0,0
159426,221.285,-520.386,0,0
159687,221.505,-519.259,0,0
159947,221.8,-518.138,0,0
160207,221.995,-517.092,0,0
160468,222.087,-516.09,0,0
160728,222.108,-514.897,0,0
160988,222.149,-513.267,0,0
161249,222.729,-511.343,0,0
161509,224.163,-509.718,0,0
161769,225.778,-508.742,0,0
162030,227.737,-508.27,0,0
162290,229.607,-509.083,0,0
162550,230.502,-510.691,0,0
162811,230.229,-512.341,0,0
163071,229.41,-513.81,0,0
163331,227.708,-514.99,0,0
163592,225.669,-515.494,0,0
163852,223.51,-515.703,0,0
164112,221.043,-515.68,0,0
164373,218.167,-515.064,0,0
164633,215.248,-513.807,0,0
164893,212.505,-512.291,0,0
165154,209.661,-510.341,0,0
165414,206.863,-508.176,0,0
165674,203.978,-505.362,0,0
165935,201.617,-501.915,0,0
166195,199.631,-498.365,0,0
166455,197.766,-494.876,0,0
166716,196.067,-491.066,0,0
166976,194.633,-486.99,0,0
167236,193.658,-482.874,0,0
167497,192.708,-478.978,0,0
167757,191.702,-474.871,0,0
168017,190.946,-470.46,0,0
168277,190.39,-465.899,0,0
168538,190.365,-461.219,0,0
168798,190.558,-456.735,0,0
169058,190.935,-452.486,0,0
169319,191.117,-448.357,0,0
169579,191.157,-443.873,0,0
169839,191.646,-439.034,0,0
170100,192.673,-434.299,0,0
170360.075,193.874,-429.923,0,0
170620.4,194.772,-425.886,0,0
170880.725,195.462,-421.64,0,0
171141.05,196.147,-416.812,0,0
171401.375,197.413,-411.841,0,0
171661.7,199.011,-406.984,0,0
171922.025,200.725,-402.148,0,0
172182.35,202.598,-397.515,0,0
172442.675,204.482,-392.8,0,0
172703.0,206.531,-387.968,0,0
172963.325,208.872,-383.163,0,0
173223.65,211.338,-378.569,0,0
173483.975,213.704,-373.907,0,0
173744.3,216.212,-368.878,0,0
174004.625,219.131,-363.884,0,0
174264.95,222.371,-358.811,0,0
174525.275,225.908,-353.745,0,0
174785.6,229.941,-348.719,0,0
175045.925,234.303,-343.991,0,0
175306.25,238.907,-339.497,0,0
175566.575,243.906,-335.234,0,0
175826.9,249.261,-331.326,0,0
176087.225,254.818,-328.076,0,0
176347.55,260.191,-325.336,0,0
176607.875,265.286,-322.925,0,0
176868.2,270.085,-320.472,0,0
177128.525,275.098,-317.693,0,0
177388.85,280.726,-315.075,0,0
177649.175,286.752,-313.178,0,0
177909.5,292.822,-312.242,0,0
178169.825,298.258,-312.094,0,0
178430.15,303.017,-312.095,0,0
178690.475,307.471,-312.09,0,0
178950.8,311.785,-312.598,0,0
179211.125,315.325,-313.309,0,0
179471.45,318.153,-314.067,0,0
179731.775,320.946,-313.652,0,0
179992.1,322.426,-314.174,0,0
180252.425,323.369,-313.806,0,0
180512.75,324.161,-312.589,0,0
180773.075,325.032,-310.862,0,0
181033.4,325.708,-308.611,0,0
181293.725,326.309,-305.446,0,0
181554.05,327.59,-301.29,0,0
181814.375,329.796,-296.716,0,0
182074.7,332.801,-292.217,0,0
182335.025,336.452,-288.067,0,0
182595.35,340.075,-284.471,0,0
182855.675,343.268,-280.742,0,0
183116.0,346.472,-276.286,0,0
183376.325,350.496,-271.334,0,0
183636.65,355.248,-266.486,0,0
183896.975,360.456,-261.989,0,0
184157.3,365.57,-257.612,0,0
184417.625,371.212,-252.84,0,0
184677.95,377.564,-248.115,0,0
184938.275,384.694,-243.842,0,0
185198.6,392.088,-240.252,0,0
185458.925,399.359,-237.208,0,0
185719.25,406.646,-234.21,0,0
185979.575,414.075,-231.444,0,0
186239.9,421.736,-228.748,0,0
186500,429.729,-226.465,0,0
186761,437.547,-224.875,0,0
187021,444.835,-222.99,0,0
187281,452.582,-220.508,0,0
187542,461.123,-218.338,0,0
187802,470.019,-216.703,0,0
188062,478.897,-215.858,0,0
188322,487.618,-215.075,0,0
188583,496.615,-214.643,0,0
188843,505.313,-215.016,0,0
189103,513.279,-215.525,0,0
189364,520.7,-215.223,0,0
189624,528.606,-214.436,0,0
189884,536.907,-213.455,0,0
190145,545.765,-212.497,0,0
190405,555.091,-211.559,0,0
190665,564.72,-210.903,0,0
190926,574.523,-210.177,0,0
191186,584.951,-209.213,0,0
191446,596.436,-208.429,0,0
191707,608.673,-208.482,0,0
191967,621.225,-209.133,0,0
192227,634.366,-210.287,0,0
192488,647.908,-212.134,0,0
192748,661.984,-214.611,0,0
193008,676.716,-217.936,0,0
193269,692.071,-222.503,0,0
193529,707.556,-228.634,0,0
193789,722.794,-236.251,0,0
194050,737.466,-245.308,0,0
194310,751.105,-255.494,0,0
194570,763.774,-266.187,0,0
194831,776.008,-277.293,0,0
195091,787.615,-289.215,0,0
195351,798.32,-301.676,0,0
195612,808.122,-314.443,0,0
195872,817.218,-327.184,0,0
196132,825.979,-340.009,0,0
196393,834.352,-353.211,0,0
196653,842.076,-366.656,0,0
196913,849.268,-380.035,0,0
197174,856.349,-393.339,0,0
197434,863.563,-406.946,0,0
197694,870.739,-421.077,0,0
197955,877.835,-436.115,0,0
198215,884.363,-452.274,0,0
198475,889.857,-469.507,0,0
198735,893.749,-487.331,0,0
198996,896.14,-505.115,0,0
199256,897.384,-522.454,0,0
199516,897.858,-539.035,0,0
199777,898.136,-555.079,0,0
200037,898.545,-571.388,0,0
200297,898.329,-588.075,0,0
200558,897.6,-605.431,0,0
200818,895.829,-623.174,0,0
201078,893.11,-641.066,0,0
201339,888.632,-659.529,0,0
201599,882.197,-677.189,0,0
201859,874.436,-693.333,0,0
202120,866.861,-708.062,0,0
202380.025,859.358,-722.509,0,0
202640.35,851.253,-737.144,0,0
202900.675,841.926,-751.58,0,0
203161.0,831.488,-764.849,0,0
203421.325,820.398,-776.752,0,0
203681.65,809.469,-787.242,0,0
203941.975,798.801,-797.138,0,0
204202.3,788.477,-806.636,0,0
204462.625,777.894,-815.843,0,0
204722.95,767.474,-824.643,0,0
204983.275,756.943,-833.673,0,0
205243.6,745.243,-842.643,0,0
205503.925,732.193,-850.746,0,0
205764.25,718.405,-856.948,0,0
206024.575,705.211,-861.403,0,0
206284.9,693.005,-864.753,0,0
206545.225,681.172,-867.66,0,0
206805.55,669.923,-870.055,0,0
207065.875,659.058,-872.008,0,0
207326.2,648.391,-873.171,0,0
207586.525,638.667,-873.821,0,0
207846.85,629.612,-874.137,0,0
208107.175,621.445,-874.378,0,0
208367.5,613.93,-874.949,0,0
208627.825,606.776,-875.708,0,0
208888.15,600.047,-876.565,0,0
209148.475,593.837,-878.094,0,0
209408.8,587.486,-880.394,0,0
209669.125,580.495,-883.188,0,0
209929.45,572.828,-886.136,0,0
210189.775,564.32,-888.672,0,0
210450.1,555.608,-890.458,0,0
210710.425,546.824,-891.874,0,0
210970.75,537.938,-893.079,0,0
211231.075,528.722,-893.688,0,0
211491.4,519.319,-893.785,0,0
211751.725,509.922,-892.999,0,0
212012.05,500.876,-891.256,0,0
212272.375,492.667,-888.895,0,0
212532.7,485.205,-886.522,0,0
212793.025,478.076,-884.217,0,0
213053.35,471.201,-881.823,0,0
213313.675,464.461,-879.168,0,0
213574.0,458.082,-876.438,0,0
213834.325,452.07,-873.567,0,0
214094.65,446.461,-870.643,0,0
214354.975,441.009,-867.756,0,0
214615.3,435.878,-864.875,0,0
214875.625,430.884,-861.855,0,0
215135.95,426.326,-859.135,0,0
215396.275,421.591,-856.347,0,0
215656.6,416.879,-853.336,0,0
215916.925,412.562,-850.176,0,0
216177.25,408.515,-846.895,0,0
216437.575,404.775,-843.761,0,0
216697.9,401.19,-840.63,0,0
216958.225,397.833,-837.498,0,0
217218.55,394.691,-834.344,0,0
217478.875,391.78,-831.198,0,0
217739.2,389.157,-828.183,0,0
217999.525,386.642,-825.393,0,0
218259.85,384.141,-822.622,0,0
218520,381.752,-819.841,0,0
218780,379.547,-816.897,0,0
219041,377.627,-814.064,0,0
219301,375.944,-811.269,0,0
219561,374.404,-808.641,0,0
219822,373.156,-806.213,0,0
220082,371.955,-803.877,0,0
220342,370.822,-801.884,0,0
220603,369.577,-799.862,0,0
220863,368.307,-797.762,0,0
221123,367.34,-795.591,0,0
221384,366.622,-793.529,0,0
221644,366.065,-791.753,0,0
221904,365.624,-790.04,0,0
222165,365.376,-788.424,0,0
222425,365.332,-787.162,0,0
222685,365.403,-786.175,0,0
222946,365.348,-785.52,0,0
223206,365.244,-785.251,0,0
223466,364.796,-785.136,0,0
223727,364.118,-785.105,0,0
223987,363.362,-784.858,0,0
224247,362.755,-784.586,0,0
224508,362.157,-784.535,0,0
224768,361.281,-784.724,0,0
225028,360.32,-784.85,0,0
225289,359.249,-784.812,0,0
225549,357.999,-784.681,0,0
225809,357.064,-784.312,0,0
226070,356.339,-784.044,0,0
226330,355.693,-783.863,0,0
226590,355.185,-783.735,0,0
226851,354.839,-783.716,0,0
227111,354.649,-784.05,0,0
227371,354.398,-784.671,0,0
227632,354.063,-785.515,0,0
227892,353.765,-786.446,0,0
228152,353.36,-787.69,0,0
228413,352.875,-789.222,0,0
228673,352.145,-791.036,0,0
228933,351.076,-793.065,0,0
229193,349.708,-795.153,0,0
229454,347.919,-797.299,0,0
229714,346.011,-799.437,0,0
229974,343.66,-801.543,0,0
230235,341.011,-803.508,0,0
230495,338.202,-805.377,0,0
230755,335.221,-806.933,0,0
231016,332.043,-808.378,0,0
231276,328.779,-809.676,0,0
231536,325.512,-810.753,0,0
231797,322.21,-811.709,0,0
232057,318.866,-812.61,0,0
232317,315.424,-813.409,0,0
232578,311.853,-814.134,0,0
232838,308.2,-814.684,0,0
233098,304.544,-815.014,0,0
233359,300.813,-815.25,0,0
233619,297.153,-815.31,0,0
233879,293.472,-815.252,0,0
234140,289.817,-815.118,0,0
234400,286.169,-814.87,0,0
234660.3,282.493,-814.364,0,0
234920.625,278.906,-813.821,0,0
235180.95,275.377,-813.249,0,0
235441.275,271.905,-812.613,0,0
235701.6,268.473,-811.873,0,0
235961.925,264.99,-811.114,0,0
236222.25,261.58,-810.28,0,0
236482.575,258.113,-809.38,0,0
236742.9,254.718,-808.431,0,0
237003.225,251.267,-807.363,0,0
237263.55,247.801,-806.208,0,0
237523.875,244.354,-804.926,0,0
237784.2,240.977,-803.484,0,0
238044.525,237.649,-801.993,0,0
238304.85,234.43,-800.34,0,0
238565.175,231.305,-798.617,0,0
238825.5,228.217,-796.931,0,0
239085.825,225.28,-795.121,0,0
239346.15,222.343,-793.3,0,0
239606.475,219.508,-791.404,0,0
239866.8,216.754,-789.433,0,0
240127.125,214.081,-787.383,0,0
240387.45,211.497,-785.278,0,0
240647.775,209.095,-783.173,0,0
240908.1,206.738,-781.191,0,0
241168.425,204.418,-779.152,0,0
241428.75,202.148,-777.2,0,0
241689.075,199.925,-775.155,0,0
241949.4,197.708,-773.125,0,0
242209.725,195.507,-771.031,0,0
242470.05,193.575,-768.843,0,0
242730.375,191.74,-766.699,0,0
242990.7,190.015,-764.72,0,0
243251.025,188.398,-762.813,0,0
243511.35,186.683,-761.03,0,0
243771.675,185.004,-759.258,0,0
244032.0,183.265,-757.574,0,0
244292.325,181.576,-755.916,0,0
244552.65,179.797,-754.24,0,0
244812.975,178.083,-752.591,0,0
245073.3,176.348,-751.115,0,0
245333.625,174.605,-749.628,0,0
245593.95,172.75,-748.145,0,0
245854.275,170.837,-746.743,0,0
246114.6,168.787,-745.38,0,0
246374.925,166.625,-744.063,0,0
246635.25,164.216,-742.634,0,0
246895.575,161.706,-740.993,0,0
247155.9,159.046,-739.173,0,0
247416.225,156.441,-737.128,0,0
247676.55,153.878,-734.864,0,0
247936.875,151.385,-732.493,0,0
248197.2,149.012,-729.929,0,0
248457.525,146.72,-727.306,0,0
248717.85,144.505,-724.642,0,0
248978.175,142.395,-721.817,0,0
249238.5,140.33,-718.958,0,0
249498.825,138.431,-716.056,0,0
249759.15,136.597,-713.036,0,0
250019.475,134.773,-710.058,0,0
250279.8,133.063,-706.905,0,0
250540,131.434,-703.73,0,0
250800,129.908,-700.445,0,0
251061,128.544,-697.048,0,0
251321,127.35,-693.614,0,0
251581,126.29,-690.183,0,0
251842,125.439,-686.736,0,0
252102,124.768,-683.31,0,0
252362,124.174,-679.949,0,0
252623,123.729,-676.703,0,0
252883,123.341,-673.513,0,0
253143,123.011,-670.408,0,0
253404,122.745,-667.316,0,0
253664,122.474,-664.227,0,0
253924,122.298,-661.151,0,0
254185,122.157,-658.097,0,0
254445,122.067,-655.04,0,0
254705,122.02,-652.005,0,0
254966,122.06,-648.909,0,0
255226,122.13,-645.766,0,0
255486,122.315,-642.648,0,0
255747,122.693,-639.463,0,0
256007,123.254,-636.288,0,0
256267,123.967,-633.199,0,0
256528,124.824,-630.217,0,0
256788,125.786,-627.341,0,0
257048,126.85,-624.606,0,0
257309,127.962,-621.986,0,0
257569,129.105,-619.473,0,0
257829,130.271,-617.05,0,0
258090,131.455,-614.689,0,0
258350,132.708,-612.382,0,0
258610,133.971,-610.162,0,0
258871,135.244,-607.991,0,0
259131,136.579,-605.84,0,0
259391,138.005,-603.756,0,0
259651,139.468,-601.686,0,0
259912,141.091,-599.704,0,0
260172,142.8,-597.825,0,0
260432,144.533,-596.098,0,0
260693,146.339,-594.532,0,0
260953,148.13,-593.069,0,0
261213,149.992,-591.733,0,0
261474,151.838,-590.516,0,0
261734,153.666,-589.437,0,0
261994,155.475,-588.458,0,0
262255,157.285,-587.573,0,0
262515,159.106,-586.787,0,0
262775,160.902,-586.122,0,0
263036,162.689,-585.61,0,0
263296,164.427,-585.231,0,0
263556,166.087,-584.982,0,0
263817,167.642,-584.808,0,0
264077,169.184,-584.68,0,0
264337,170.589,-584.695,0,0
264598,171.995,-584.793,0,0
264858,173.238,-584.919,0,0
265118,174.444,-585.117,0,0
265379,175.533,-585.443,0,0
265639,176.445,-585.803,0,0
265899,177.207,-586.079,0,0
266160,177.922,-586.359,0,0
266420,178.57,-586.611,0,0
266680.25,179.165,-586.821,0,0
266940.575,179.752,-587.052,0,0
267200.9,180.252,-587.322,0,0
267461.225,180.686,-587.516,0,0
267721.55,181.061,-587.772,0,0
267981.875,181.371,-588.039,0,0
268242.2,181.569,-588.251,0,0
268502.525,181.635,-588.413,0,0
268762.85,181.655,-588.473,0,0
269023.175,181.592,-588.434,0,0
269283.5,181.487,-588.289,0,0
269543.825,181.353,-587.987,0,0
269804.15,181.302,-587.479,0,0
270064.475,181.267,-586.879,0,0
270324.8,181.383,-586.215,0,0
270585.125,181.558,-585.384,0,0
270845.45,181.954,-584.503,0,0
271105.775,182.575,-583.566,0,0
271366.1,183.315,-582.697,0,0
271626.425,184.22,-581.907,0,0
271886.75,185.192,-581.169,0,0
272147.075,186.312,-580.466,0,0
272407.4,187.514,-579.788,0,0
272667.725,188.891,-579.14,0,0
272928.05,190.473,-578.558,0,0
273188.375,192.276,-578.164,0,0
273448.7,194.168,-577.952,0,0
273709.025,196.232,-577.932,0,0
273969.35,198.426,-578.138,0,0
274229.675,200.749,-578.565,0,0
274490.0,203.256,-579.306,0,0
274750.325,205.864,-580.434,0,0
275010.65,208.413,-582.15,0,0
275270.975,210.886,-584.252,0,0
275531.3,213.157,-586.904,0,0
275791.625,215.061,-589.98,0,0
276051.95,216.486,-593.41,0,0
276312.275,217.375,-597.144,0,0
276572.6,217.685,-601.007,0,0
276832.925,217.353,-604.862,0,0
277093.25,216.483,-608.49,0,0
277353.575,215.234,-611.866,0,0
277613.9,213.706,-614.985,0,0
277874.225,211.921,-617.843,0,0
278134.55,209.961,-620.434,0,0
278394.875,207.883,-622.803,0,0
278655.2,205.681,-624.962,0,0
278915.525,203.419,-626.963,0,0
279175.85,201.037,-628.766,0,0
279436.175,198.577,-630.422,0,0
279696.5,196.05,-631.841,0,0
279956.825,193.461,-633.2,0,0
280217.15,190.765,-634.346,0,0
280477.475,188.004,-635.254,0,0
280737.8,185.28,-635.936,0,0
280998.125,182.646,-636.45,0,0
281258.45,180.102,-636.893,0,0
281518.775,177.608,-637.336,0,0
281779.1,175.039,-637.77,0,0
282039.425,172.364,-638.163,0,0
282299.75,169.542,-638.452,0,0
282560,166.601,-638.542,0,0
282820,163.521,-638.376,0,0
283081,160.429,-637.898,0,0
283341,157.414,-637.064,0,0
283601,154.633,-635.918,0,0
283862,152.187,-634.599,0,0
284122,150.11,-633.357,0,0
284382,148.218,-632.299,0,0
284643,146.393,-631.459,0,0
284903,144.325,-630.841,0,0
285163,142.075,-630.21,0,0
285424,139.545,-629.482,0,0
285684,136.813,-628.534,0,0
285944,133.959,-627.295,0,0
286205,131.062,-625.744,0,0
286465,128.157,-623.811,0,0
286725,125.356,-621.46,0,0
286986,122.8,-618.78,0,0
287246,120.571,-615.841,0,0
287506,118.588,-612.749,0,0
287767,116.874,-609.483,0,0
288027,115.445,-606.111,0,0
288287,114.264,-602.591,0,0
288548,113.394,-598.922,0,0
288808,112.875,-595.094,0,0
289068,112.809,-591.153,0,0
289329,113.258,-587.238,0,0
289589,114.24,-583.442,0,0
289849,115.689,-579.892,0,0
290109,117.497,-576.666,0,0
290370,119.588,-573.785,0,0
290630,122.007,-571.189,0,0
290890,124.689,-568.969,0,0
291151,127.637,-567.224,0,0
291411,130.764,-565.966,0,0
291671,133.978,-565.287,0,0
291932,137.188,-565.18,0,0
292192,140.258,-565.705,0,0
292452,143.039,-566.785,0,0
292713,145.392,-568.427,0,0
292973,147.134,-570.454,0,0
293233,148.207,-572.647,0,0
293494,148.663,-574.782,0,0
293754,148.576,-576.725,0,0
294014,148.09,-578.368,0,0
294275,147.29,-579.614,0,0
294535,146.407,-580.406,0,0
294795,145.544,-580.815,0,0
295056,144.876,-580.898,0,0
295316,144.418,-580.798,0,0
295576,144.294,-580.539,0,0
295837,144.561,-580.307,0,0
296097,145.236,-580.277,0,0
296357,146.253,-580.703,0,0
296618,147.315,-581.813,0,0
296878,148.065,-583.557,0,0
297138,148.25,-585.681,0,0
297399,147.801,-587.939,0,0
297659,146.768,-590.075,0,0
297919,145.293,-591.963,0,0
298180,143.53,-593.51,0,0
298440,141.582,-594.711,0,0
298700.2,139.562,-595.596,0,0
298960.525,137.547,-596.217,0,0
299220.85,135.575,-596.652,0,0
299481.175,133.624,-596.932,0,0
299741.5,131.686,-597.091,0,0
300001.825,129.739,-597.104,0,0
300262.15,127.764,-596.942,0,0
300522.475,125.835,-596.579,0,0
300782.8,123.986,-596.043,0,0
301043.125,122.257,-595.323,0,0
301303.45,120.74,-594.466,0,0
301563.775,119.431,-593.556,0,0
301824.1,118.352,-592.639,0,0
302084.425,117.439,-591.81,0,0
302344.75,116.706,-591.083,0,0
302605.075,116.052,-590.538,0,0
302865.4,115.431,-590.175,0,0
303125.725,114.771,-589.958,0,0
303386.05,114.039,-589.868,0,0
303646.375,113.211,-589.88,0,0
303906.7,112.256,-589.942,0,0
304167.025,111.179,-590.023,0,0
304427.35,109.958,-590.146,0,0
304687.675,108.607,-590.226,0,0
304948.0,107.136,-590.207,0,0
305208.325,105.54,-590.15,0,0
305468.65,103.867,-589.948,0,0
305728.975,102.147,-589.586,0,0
305989.3,100.407,-589.153,0,0
306249.625,98.6712,-588.563,0,0
306509.95,96.9541,-587.891,0,0
306770.275,95.2486,-587.121,0,0
307030.6,93.5802,-586.246,0,0
307290.925,91.9345,-585.287,0,0
307551.25,90.3582,-584.223,0,0
307811.575,88.8461,-583.1,0,0
308071.9,87.4251,-581.927,0,0
308332.225,86.0469,-580.703,0,0
308592.55,84.7364,-579.455,0,0
308852.875,83.4931,-578.14,0,0
309113.2,82.3379,-576.829,0,0
309373.525,81.2407,-575.521,0,0
309633.85,80.2448,-574.233,0,0
309894.175,79.2568,-572.944,0,0
310154.5,78.3033,-571.729,0,0
310414.825,77.375,-570.458,0,0
310675.15,76.4576,-569.197,0,0
310935.475,75.5504,-567.948,0,0
311195.8,74.677,-566.66,0,0
311456.125,73.8344,-565.39,0,0
311716.45,73.0071,-564.116,0,0
311976.775,72.2043,-562.834,0,0
312237.1,71.4255,-561.517,0,0
312497.425,70.6685,-560.189,0,0
312757.75,69.9565,-558.859,0,0
313018.075,69.2966,-557.511,0,0
313278.4,68.6754,-556.179,0,0
313538.725,68.0867,-554.858,0,0
313799.05,67.5317,-553.558,0,0
314059.375,66.9977,-552.283,0,0
314319.7,66.4761,-551.003,0,0
314580,65.8788,-549.714,0,0
314840,65.4574,-548.466,0,0
315101,64.9748,-547.215,0,0
315361,64.5551,-545.985,0,0
315621,64.0554,-544.659,0,0
315882,63.6366,-543.379,0,0
316142,63.259,-542.217,0,0
316402,62.8626,-540.968,0,0
316663,62.4826,-539.677,0,0
316923,62.1239,-538.427,0,0
317183,61.7905,-537.195,0,0
317444,61.5873,-535.959,0,0
317704,61.3158,-534.697,0,0
317964,61.1097,-533.471,0,0
318225,60.8823,-532.277,0,0
318485,60.7004,-531.143,0,0
318745,60.5345,-530.072,0,0
319006,60.372,-528.92,0,0
319266,60.2144,-527.834,0,0
319526,59.991,-526.71,0,0
319787,59.8028,-525.748,0,0
320047,59.6132,-524.59,0,0
320307,59.4079,-523.594,0,0
320567,59.1865,-522.581,0,0
320828,58.99,-521.533,0,0
321088,58.7941,-520.48,0,0
321348,58.5902,-519.458,0,0
321609,58.3907,-518.373,0,0
321869,58.1272,-517.229,0,0
322129,57.9322,-516.19,0,0
322390,57.7998,-515.17,0,0
322650,57.5576,-514.031,0,0
322910,57.3774,-512.971,0,0
323171,57.1729,-511.789,0,0
323431,56.9832,-510.606,0,0
323691,56.8215,-509.386,0,0
323952,56.687,-508.147,0,0
324212,56.5418,-506.875,0,0
324472,56.6295,-505.55,0,0
324733,56.6408,-504.182,0,0
324993,56.7439,-502.826,0,0
325253,56.9624,-501.446,0,0
325514,57.2684,-500.108,0,0
325774,57.6525,-498.798,0,0
326034,58.1505,-497.553,0,0
326295,58.8188,-496.447,0,0
326555,59.5028,-495.439,0,0
326815,60.2048,-494.527,0,0
327076,60.9133,-493.753,0,0
327336,61.5611,-493.098,0,0
327596,62.1636,-492.589,0,0
327857,62.6807,-492.061,0,0
328117,63.1711,-491.655,0,0
328377,63.5787,-491.229,0,0
328638,63.9202,-490.861,0,0
328898,64.2606,-490.444,0,0
329158,64.5228,-490.029,0,0
329419,64.8492,-489.68,0,0
329679,65.1174,-489.308,0,0
329939,65.4156,-488.967,0,0
330200,65.6672,-488.72,0,0
330460,65.8931,-488.526,0,0
330720.15,66.1139,-488.271,0,0
330980.475,66.2082,-488.124,0,0
331240.8,66.3455,-488.004,0,0
331501.125,66.4506,-487.907,0,0
331761.45,66.3632,-487.819,0,0
332021.775,66.297,-487.838,0,0
332282.1,66.1389,-487.714,0,0
332542.425,65.9089,-487.682,0,0
332802.75,65.5402,-487.567,0,0
333063.075,65.2392,-487.442,0,0
333323.4,64.7335,-487.229,0,0
333583.725,64.2209,-486.943,0,0
333844.05,63.6729,-486.667,0,0
334104.375,63.1613,-486.247,0,0
334364.7,62.6413,-485.765,0,0
334625.025,62.0784,-485.258,0,0
334885.35,61.6045,-484.646,0,0
335145.675,61.188,-484.072,0,0
335406.0,60.7123,-483.373,0,0
335666.325,60.2752,-482.762,0,0
335926.65,59.9422,-482.097,0,0
336186.975,59.5327,-481.389,0,0
336447.3,59.1357,-480.705,0,0
336707.625,58.7369,-479.975,0,0
336967.95,58.3238,-479.247,0,0
337228.275,58.0548,-478.475,0,0
337488.6,57.6842,-477.634,0,0
337748.925,57.3525,-476.881,0,0
338009.25,57.0918,-476.048,0,0
338269.575,56.8413,-475.219,0,0
338529.9,56.5519,-474.486,0,0
338790.225,56.2759,-473.591,0,0
339050.55,56.0556,-472.828,0,0
339310.875,55.8193,-472.001,0,0
339571.2,55.589,-471.149,0,0
339831.525,55.4091,-470.218,0,0
340091.85,55.2235,-469.372,0,0
340352.175,55.0731,-468.475,0,0
340612.5,54.9858,-467.597,0,0
340872.825,54.8275,-466.675,0,0
341133.15,54.7708,-465.81,0,0
341393.475,54.6689,-464.928,0,0
341653.8,54.642,-464.036,0,0
341914.125,54.6276,-463.179,0,0
342174.45,54.6243,-462.33,0,0
342434.775,54.6018,-461.47,0,0
342695.1,54.6263,-460.625,0,0
342955.425,54.6303,-459.788,0,0
343215.75,54.6385,-458.897,0,0
343476.075,54.6621,-458.043,0,0
343736.4,54.7406,-457.184,0,0
343996.725,54.8158,-456.288,0,0
344257.05,54.9167,-455.438,0,0
344517.375,55.0003,-454.575,0,0
344777.7,55.1647,-453.754,0,0
345038.025,55.3427,-452.951,0,0
345298.35,55.5714,-452.101,0,0
345558.675,55.7396,-451.315,0,0
345819.0,55.9582,-450.511,0,0
346079.325,56.1863,-449.739,0,0
346339.65,56.4381,-449.017,0,0
346599.975,56.685,-448.255,0,0
346860,56.9209,-447.571,0,0
347121,57.1811,-446.838,0,0
347381,57.4497,-446.164,0,0
347641,57.7197,-445.509,0,0
347902,58.014,-444.826,0,0
348162,58.2915,-444.159,0,0
348422,58.582,-443.521,0,0
348683,58.8982,-442.887,0,0
348943,59.205,-442.306,0,0
349203,59.514,-441.736,0,0
349464,59.8535,-441.212,0,0
349724,60.213,-440.585,0,0
349984,60.5548,-440.059,0,0
350245,60.8848,-439.565,0,0
350505,61.1871,-439.072,0,0
350765,61.5428,-438.646,0,0
351025,61.8266,-438.185,0,0
351286,62.2005,-437.787,0,0
351546,62.4558,-437.375,0,0
351806,62.7865,-436.996,0,0
352067,63.0337,-436.661,0,0
352327,63.2594,-436.331,0,0
352587,63.4795,-435.963,0,0
352848,63.6761,-435.602,0,0
353108,63.8487,-435.255,0,0
353368,64.0522,-434.859,0,0
353629,64.2206,-434.486,0,0
353889,64.4102,-434.06,0,0
354149,64.6496,-433.672,0,0
354410,64.8664,-433.245,0,0
354670,65.0894,-432.857,0,0
354930,65.3491,-432.496,0,0
355191,65.544,-432.104,0,0
355451,65.8195,-431.686,0,0
355711,66.0195,-431.376,0,0
355972,66.2608,-431.048,0,0
356232,66.5232,-430.676,0,0
356492,66.7598,-430.282,0,0
356753,67.0193,-429.955,0,0
357013,67.305,-429.647,0,0
357273,67.6193,-429.303,0,0
357534,67.9641,-429.024,0,0
357794,68.3007,-428.735,0,0
358054,68.6167,-428.522,0,0
358315,68.9709,-428.35,0,0
358575,69.3517,-428.178,0,0
358835,69.6614,-428.115,0,0
359096,69.9724,-428.052,0,0
359356,70.1908,-427.971,0,0
359616,70.4947,-428,0,0
359877,70.7491,-428.001,0,0
360137,70.8998,-427.993,0,0
360397,71.0647,-428.076,0,0
360658,71.1747,-428.087,0,0
360918,71.242,-428.165,0,0
361178,71.2706,-428.261,0,0
361438,71.3364,-428.287,0,0
361699,71.3389,-428.409,0,0
361959,71.268,-428.495,0,0
362219,71.1865,-428.491,0,0
362480,71.0809,-428.527,0,0
362740.1,70.943,-428.508,0,0
363000.425,70.7804,-428.504,0,0
363260.75,70.6187,-428.495,0,0
363521.075,70.4686,-428.461,0,0
363781.4,70.2556,-428.434,0,0
364041.725,70.0645,-428.335,0,0
364302.05,69.8372,-428.255,0,0
364562.375,69.6177,-428.192,0,0
364822.7,69.3883,-428.046,0,0
365083.025,69.0733,-427.973,0,0
365343.35,68.845,-427.81,0,0
365603.675,68.5466,-427.64,0,0
365864.0,68.2415,-427.451,0,0
366124.325,67.9864,-427.195,0,0
366384.65,67.6564,-426.958,0,0
366644.975,67.3676,-426.617,0,0
366905.3,67.186,-426.335,0,0
367165.625,66.9005,-425.982,0,0
367425.95,66.7031,-425.559,0,0
367686.275,66.5399,-425.166,0,0
367946.6,66.428,-424.82,0,0
368206.925,66.409,-424.43,0,0
368467.25,66.3907,-424.111,0,0
368727.575,66.3865,-423.832,0,0
368987.9,66.4021,-423.646,0,0
369248.225,66.4102,-423.421,0,0
369508.55,66.3753,-423.303,0,0
369768.875,66.3277,-423.266,0,0
370029.2,66.1516,-423.159,0,0
370289.525,66.0369,-423.087,0,0
370549.85,65.773,-422.999,0,0
370810.175,65.5731,-422.89,0,0
371070.5,65.3002,-422.755,0,0
371330.825,65.0504,-422.56,0,0
371591.15,64.7354,-422.377,0,0
371851.475,64.4425,-422.159,0,0
372111.8,64.2038,-421.927,0,0
372372.125,63.861,-421.653,0,0
372632.45,63.6423,-421.377,0,0
372892.775,63.396,-421.177,0,0
373153.1,63.1683,-420.842,0,0
373413.425,62.9053,-420.611,0,0
373673.75,62.7072,-420.358,0,0
373934.075,62.4974,-420.096,0,0
374194.4,62.2586,-419.864,0,0
374454.725,61.9959,-419.672,0,0
374715.05,61.7529,-419.488,0,0
374975.375,61.4778,-419.247,0,0
375235.7,61.1483,-419.017,0,0
375496.025,60.8869,-418.78,0,0
375756.35,60.5319,-418.512,0,0
376016.675,60.1917,-418.277,0,0
376277.0,59.8688,-417.99,0,0
376537.325,59.5638,-417.657,0,0
376797.65,59.244,-417.341,0,0
377057.975,58.9554,-417.057,0,0
377318.3,58.6719,-416.731,0,0
377578.625,58.406,-416.411,0,0
377838.95,58.1256,-416.166,0,0
378099.275,57.8812,-415.964,0,0
378359.6,57.5328,-415.766,0,0
378619.925,57.1519,-415.606,0,0
378880,56.6551,-415.424,0,0
379141,56.0882,-415.135,0,0
379401,55.4674,-414.834,0,0
379661,54.8005,-414.442,0,0
379922,54.1447,-413.872,0,0
380182,53.514,-413.215,0,0
380442,53.002,-412.421,0,0
380703,52.6265,-411.567,0,0
380963,52.3631,-410.741,0,0
381223,52.3003,-409.987,0,0
381483,52.2801,-409.243,0,0
381744,52.3489,-408.616,0,0
382004,52.4041,-408.16,0,0
382264,52.4345,-407.819,0,0
382525,52.3792,-407.554,0,0
382785,52.2371,-407.292,0,0
383045,52.0762,-407.021,0,0
383306,51.8001,-406.795,0,0
383566,51.4627,-406.472,0,0
383826,51.1116,-406.192,0,0
384087,50.7884,-405.818,0,0
384347,50.3624,-405.447,0,0
384607,49.9228,-405.06,0,0
384868,49.5326,-404.575,0,0
385128,49.0708,-404.126,0,0
385388,48.7205,-403.581,0,0
385649,48.2727,-403.033,0,0
385909,47.8689,-402.422,0,0
386169,47.4932,-401.771,0,0
386430,47.1421,-401.156,0,0
386690,46.8102,-400.476,0,0
386950,46.5055,-399.823,0,0
387211,46.2639,-399.098,0,0
387471,46.0264,-398.436,0,0
387731,45.8053,-397.768,0,0
387992,45.568,-397.03,0,0
388252,45.4121,-396.391,0,0
388512,45.2014,-395.686,0,0
388773,45.0484,-394.966,0,0
389033,44.8958,-394.261,0,0
389293,44.7811,-393.576,0,0
389554,44.7617,-392.863,0,0
389814,44.7017,-392.151,0,0
390074,44.6749,-391.516,0,0
390335,44.6928,-390.839,0,0
390595,44.7624,-390.257,0,0
390855,44.8342,-389.698,0,0
391116,44.8304,-389.172,0,0
391376,44.9165,-388.726,0,0
391636,44.9282,-388.333,0,0
391896,44.9282,-387.936,0,0
392157,44.8395,-387.6,0,0
392417,44.6931,-387.253,0,0
392677,44.4902,-386.941,0,0
392938,44.272,-386.529,0,0
393198,43.9925,-386.112,0,0
393458,43.6445,-385.659,0,0
393719,43.3201,-385.143,0,0
393979,42.9713,-384.591,0,0
394239,42.6343,-384.021,0,0
394500,42.3067,-383.355,0,0
394760.05,42.0156,-382.655,0,0
395020.375,41.7138,-381.946,0,0
395280.7,41.4836,-381.203,0,0
395541.025,41.234,-380.402,0,0
395801.35,41.0483,-379.626,0,0
396061.675,40.8809,-378.805,0,0
396322.0,40.7904,-378.02,0,0
396582.325,40.709,-377.182,0,0
396842.65,40.6477,-376.369,0,0
397102.975,40.5889,-375.565,0,0
397363.3,40.6137,-374.805,0,0
397623.625,40.5911,-373.978,0,0
397883.95,40.6557,-373.186,0,0
398144.275,40.7224,-372.401,0,0
398404.6,40.8107,-371.664,0,0
398664.925,40.9095,-370.92,0,0
398925.25,41.0168,-370.187,0,0
399185.575,41.1283,-369.488,0,0
399445.9,41.2827,-368.786,0,0
399706.225,41.4195,-368.114,0,0
399966.55,41.5535,-367.463,0,0
400006.6,41.5448,-367.353,0,0