File: Accelerated corrosion test data/2025-10-15_18-00-03/sample_8.csv
Frequency (Hz),Impedance (ohms),Phase (Radians),Temperature (C),Humidity (%)
10000.0,311.36,-10952.2,0,0
10260.325,303.659,-10677.7,0,0
10520.65,296.088,-10416.8,0,0
10780.975,288.902,-10168.2,0,0
11041.3,281.916,-9931.26,0,0
11301.625,275.831,-9705.95,0,0
11561.95,269.85,-9489.43,0,0
11822.275,263.654,-9282.78,0,0
12082.6,262.051,-9083.68,0,0
12342.925,258.317,-8897.44,0,0
12603.25,253.695,-8716.52,0,0
12863.575,249.912,-8546.31,0,0
13123.9,241.265,-8381.5,0,0
13384.225,236.037,-8219.34,0,0
13644.55,232.752,-8065.58,0,0
13904.875,225.387,-7917.06,0,0
14165.2,220.64,-7773.19,0,0
14425.525,216.103,-7632.05,0,0
14685.8,212.152,-7498.98,0,0
14946.175,208.014,-7369.23,0,0
15206.5,204.656,-7244.11,0,0
15466.825,201.475,-7123.79,0,0
15727.15,198.044,-7007.17,0,0
15987.5,194.922,-6894.21,0,0
16247.8,192.097,-6785.04,0,0
16508.125,189.024,-6678.7,0,0
16768.45,185.744,-6576.25,0,0
17028.775,182.933,-6476.42,0,0
17289.1,180.312,-6379.16,0,0
17549.425,177.191,-6284.73,0,0
17809.75,175.231,-6193.57,0,0
18070.075,173.467,-6105.31,0,0
18330.4,170.587,-6018.2,0,0
18590.725,168.527,-5933.24,0,0
18851.05,169.186,-5850.31,0,0
19111.375,167.463,-5771.39,0,0
19371.7,168.939,-5695.48,0,0
19632.025,166.652,-5623.11,0,0
19892.35,162.817,-5552.34,0,0
20152.675,160.466,-5479.84,0,0
20413.0,160.6,-5410.14,0,0
20673.3,160.957,-5343.57,0,0
20933.65,157.046,-5280.72,0,0
21193.975,153.455,-5217.03,0,0
21454.3,151.384,-5153.01,0,0
21714.625,149.914,-5090.82,0,0
21974.9,149.028,-5030.95,0,0
22235.275,148.906,-4973.15,0,0
22495.6,147.95,-4916.51,0,0
22755.925,145.773,-4862.84,0,0
23016.25,144.689,-4808.63,0,0
23276.6,139.816,-4756.06,0,0
23536.9,137.401,-4702.92,0,0
23797.225,135.661,-4651.97,0,0
24057.55,133.507,-4601.46,0,0
24317.875,132.638,-4552.34,0,0
24578.2,130.35,-4504.04,0,0
24838.525,129.418,-4455.97,0,0
25098.85,127.814,-4409.65,0,0
25359.175,126.208,-4364.54,0,0
25619.5,125.388,-4319.6,0,0
25879.8,124.46,-4275.57,0,0
26140.1,123.762,-4233.29,0,0
26400.5,121.971,-4191.59,0,0
26660.8,120.654,-4150.06,0,0
26921.1,120.446,-4109.1,0,0
27181.4,120.36,-4070.16,0,0
27441.8,119.483,-4031.06,0,0
27702.1,118.622,-3994.03,0,0
27962.4,116.365,-3956.49,0,0
28222.7,117.389,-3920.1,0,0
28483.1,116.029,-3883.73,0,0
28743.4,115.911,-3848.64,0,0
29003.7,114.794,-3814.71,0,0
29264,114.902,-3780.37,0,0
29524.4,113.778,-3747.31,0,0
29784.7,113.318,-3714.33,0,0
30045,112.535,-3682.35,0,0
30305.3,111.753,-3651.4,0,0
30565.7,110.655,-3620.51,0,0
30826,109.596,-3589.87,0,0
31086.3,108.054,-3559.43,0,0
31346.6,107.399,-3528.83,0,0
31607,106.871,-3499.93,0,0
31867.3,106.046,-3470.7,0,0
32127.6,105.467,-3441.94,0,0
32387.9,105.008,-3413.61,0,0
32648.3,104.978,-3386.17,0,0
32908.6,105.122,-3358.56,0,0
33168.9,104.579,-3331.71,0,0
33429.2,105.047,-3305.52,0,0
33689.6,105.353,-3279.93,0,0
33949.9,105.315,-3254.7,0,0
34210.2,105.435,-3229.93,0,0
34470.5,105.706,-3205.31,0,0
34730.9,105.893,-3180.95,0,0
34991.2,106.553,-3157.48,0,0
35251.5,107.51,-3134.57,0,0
35511.8,108.324,-3112.37,0,0
35772.2,108.363,-3090.79,0,0
36032.5,108.579,-3070.07,0,0
36292.8,109.044,-3049.18,0,0
36553.1,108.393,-3029.32,0,0
36813.5,107.416,-3009.15,0,0
37073.8,107.149,-2989.66,0,0
37334.1,105.844,-2970.57,0,0
37594.4,104.014,-2951.46,0,0
37854.8,102.289,-2932.04,0,0
38115.1,100.163,-2912.92,0,0
38375.4,98.0836,-2893.47,0,0
38635.7,96.1681,-2873.97,0,0
38896.1,94.0606,-2854.94,0,0
39156.4,92.5258,-2835.43,0,0
39416.7,91.0751,-2815.8,0,0
39677,89.7276,-2797,0,0
39937.4,88.1265,-2777.81,0,0
40197.7,87.4715,-2758.38,0,0
40458,87.5065,-2740.02,0,0
40718.3,87.119,-2722.71,0,0
40978.7,86.2099,-2704.77,0,0
41239,85.7486,-2687.4,0,0
41499.3,84.8561,-2670.03,0,0
41759.6,84.3933,-2653.28,0,0
42020,83.5687,-2636.41,0,0
42280.275,82.6743,-2619.37,0,0
42540.6,82.4917,-2602.72,0,0
42800.925,82.1184,-2586.19,0,0
43061.25,82.3273,-2569.92,0,0
43321.575,82.4454,-2554.65,0,0
43581.9,82.2455,-2539.84,0,0
43842.225,81.5861,-2524.98,0,0
44102.55,80.4806,-2509.97,0,0
44362.875,79.5319,-2494.98,0,0
44623.2,78.8701,-2480.07,0,0
44883.525,78.3408,-2465.32,0,0
45143.85,77.6139,-2450.56,0,0
45404.175,77.1682,-2436.29,0,0
45664.5,76.6416,-2421.76,0,0
45924.825,75.9819,-2407.79,0,0
46185.15,75.3539,-2393.77,0,0
46445.475,74.6753,-2379.75,0,0
46705.8,74.3487,-2366,0,0
46966.125,74.0479,-2352.26,0,0
47226.45,73.5812,-2338.8,0,0
47486.775,73.2356,-2325.45,0,0
47747.1,72.9603,-2312.46,0,0
48007.425,72.5234,-2299.62,0,0
48267.75,72.294,-2286.73,0,0
48528.075,71.8948,-2274.27,0,0
48788.4,71.5088,-2261.69,0,0
49048.725,70.8521,-2249.2,0,0
49309.05,70.6266,-2236.91,0,0
49569.375,70.2093,-2224.66,0,0
49829.7,69.6036,-2212.4,0,0
50090.025,69.2624,-2200.25,0,0
50350.35,69.0293,-2188.42,0,0
50610.675,68.781,-2176.54,0,0
50871.0,68.3566,-2164.81,0,0
51131.325,68.2179,-2153.24,0,0
51391.65,68.1217,-2141.78,0,0
51651.975,68.1876,-2130.47,0,0
51912.3,67.8285,-2119.36,0,0
52172.625,67.6896,-2108.31,0,0
52432.95,67.415,-2097.44,0,0
52693.275,67.5361,-2086.4,0,0
52953.6,67.5166,-2075.81,0,0
53213.925,67.5048,-2065.39,0,0
53474.25,67.6041,-2055.04,0,0
53734.575,67.8022,-2045.31,0,0
53994.9,67.2797,-2035.73,0,0
54255.225,66.5542,-2025.93,0,0
54515.55,65.9447,-2015.99,0,0
54775.875,65.5337,-2005.85,0,0
55036.2,64.9579,-1996.29,0,0
55296.525,63.9651,-1986.53,0,0
55556.85,63.4521,-1976.52,0,0
55817.175,62.9679,-1966.75,0,0
56077.5,62.396,-1956.89,0,0
56337.825,61.9803,-1947.07,0,0
56598.15,61.643,-1937.44,0,0
56858.475,61.337,-1927.79,0,0
57118.8,61.1382,-1918.29,0,0
57379.125,60.8026,-1908.88,0,0
57639.45,60.676,-1899.76,0,0
57899.775,60.4505,-1890.43,0,0
58160.1,60.3993,-1881.28,0,0
58420.4,60.2205,-1872.34,0,0
58680.7,60.1481,-1863.34,0,0
58941.1,60.1323,-1854.56,0,0
59201.4,59.9822,-1846.04,0,0
59461.7,59.724,-1837.52,0,0
59722,59.4951,-1828.95,0,0
59982.4,59.1365,-1820.39,0,0
60242.7,58.8371,-1811.92,0,0
60503,58.5104,-1803.37,0,0
60763.3,58.2679,-1794.88,0,0
61023.7,58.2768,-1786.46,0,0
61284,58.1921,-1778.22,0,0
61544.3,58.2544,-1769.94,0,0
61804.6,58.2211,-1761.96,0,0
62065,57.9728,-1754.04,0,0
62325.3,57.8808,-1745.93,0,0
62585.6,57.7739,-1737.94,0,0
62845.9,57.8377,-1730,0,0
63106.3,57.9752,-1722.1,0,0
63366.6,58.1752,-1714.49,0,0
63626.9,58.2592,-1706.9,0,0
63887.2,58.3169,-1699.43,0,0
64147.6,58.6945,-1692.06,0,0
64407.9,58.8695,-1684.95,0,0
64668.2,58.8512,-1677.88,0,0
64928.5,58.8228,-1671.05,0,0
65188.9,58.6955,-1664.14,0,0
65449.2,58.3764,-1657.29,0,0
65709.5,58.0635,-1650.11,0,0
65969.8,57.9959,-1643.29,0,0
66230.2,57.7448,-1636.61,0,0
66490.5,57.2446,-1629.97,0,0
66750.8,56.5171,-1622.99,0,0
67011.1,56.2409,-1615.88,0,0
67271.5,55.9991,-1608.85,0,0
67531.8,55.8573,-1601.88,0,0
67792.1,55.733,-1595.1,0,0
68052.4,55.5975,-1588.3,0,0
68312.8,55.2661,-1581.64,0,0
68573.1,55.128,-1574.93,0,0
68833.4,54.9389,-1568.18,0,0
69093.7,54.7716,-1561.46,0,0
69354.1,54.797,-1554.75,0,0
69614.4,54.8226,-1548.25,0,0
69874.7,54.8804,-1541.81,0,0
70135,54.7739,-1535.56,0,0
70395.4,54.7977,-1529.19,0,0
70655.7,54.7404,-1522.87,0,0
70916,54.7556,-1516.57,0,0
71176.3,54.7968,-1510.35,0,0
71436.7,54.8497,-1504.12,0,0
71697,55.0672,-1498.03,0,0
71957.3,55.1405,-1492.3,0,0
72217.6,55.1072,-1486.43,0,0
72478,54.9791,-1480.58,0,0
72738.3,54.8902,-1474.87,0,0
72998.6,54.6169,-1469.17,0,0
73258.9,54.3628,-1463.25,0,0
73519.3,54.3525,-1457.32,0,0
73779.6,54.2667,-1451.58,0,0
74039.9,54.1817,-1445.91,0,0
74300.225,53.9797,-1440.29,0,0
74560.55,53.7287,-1434.59,0,0
74820.875,53.529,-1428.91,0,0
75081.2,53.4175,-1423.13,0,0
75341.525,53.3157,-1417.5,0,0
75601.85,53.3343,-1411.85,0,0
75862.175,53.2512,-1406.27,0,0
76122.5,53.1442,-1400.75,0,0
76382.825,53.1592,-1395.26,0,0
76643.15,53.2257,-1389.83,0,0
76903.475,53.1371,-1384.5,0,0
77163.8,53.0487,-1379.17,0,0
77424.125,52.9321,-1373.8,0,0
77684.45,52.8206,-1368.51,0,0
77944.775,52.7487,-1363.22,0,0
78205.1,52.6121,-1357.98,0,0
78465.425,52.4537,-1352.78,0,0
78725.75,52.2779,-1347.48,0,0
78986.075,52.2259,-1342.2,0,0
79246.4,52.0524,-1337.05,0,0
79506.725,51.9184,-1331.77,0,0
79767.05,51.8101,-1326.43,0,0
80027.375,51.8705,-1321.26,0,0
80287.7,51.8213,-1316.15,0,0
80548.025,51.7024,-1310.95,0,0
80808.35,51.6994,-1305.82,0,0
81068.675,51.6304,-1300.64,0,0
81329.0,51.7119,-1295.49,0,0
81589.325,51.8347,-1290.41,0,0
81849.65,51.9256,-1285.3,0,0
82109.975,52.1598,-1280.23,0,0
82370.3,52.373,-1275.29,0,0
82630.625,52.5041,-1270.4,0,0
82890.95,52.7398,-1265.46,0,0
83151.275,52.9112,-1260.7,0,0
83411.6,53.0467,-1255.94,0,0
83671.925,53.3205,-1250.99,0,0
83932.25,53.6731,-1246.26,0,0
84192.575,53.9879,-1241.65,0,0
84452.9,54.2876,-1237.02,0,0
84713.225,54.7307,-1232.46,0,0
84973.55,55.1164,-1228.26,0,0
85233.875,55.1873,-1224.31,0,0
85494.2,54.8698,-1220.04,0,0
85754.525,54.6756,-1215.58,0,0
86014.85,54.4759,-1211.03,0,0
86275.175,54.322,-1206.46,0,0
86535.5,54.2456,-1201.71,0,0
86795.825,54.3173,-1196.97,0,0
87056.15,54.537,-1192.35,0,0
87316.475,54.8587,-1187.91,0,0
87576.8,54.912,-1183.47,0,0
87837.125,55.0053,-1179.05,0,0
88097.45,55.1739,-1174.52,0,0
88357.775,55.3464,-1170.03,0,0
88618.1,55.4376,-1165.59,0,0
88878.425,55.6304,-1161.17,0,0
89138.75,55.7226,-1156.7,0,0
89399.075,55.9701,-1152.16,0,0
89659.4,56.1592,-1147.69,0,0
89919.725,56.4858,-1143.01,0,0
90180,56.9969,-1138.54,0,0
90440.4,57.3727,-1134.18,0,0
90700.7,57.8774,-1129.67,0,0
90961,58.4385,-1125.11,0,0
91221.3,59.2153,-1120.63,0,0
91481.7,60.3231,-1116.41,0,0
91742,61.2468,-1112.42,0,0
92002.3,62.1044,-1108.65,0,0
92262.6,62.8405,-1104.91,0,0
92523,63.6396,-1101.16,0,0
92783.3,64.3418,-1097.53,0,0
93043.6,65.1745,-1093.96,0,0
93303.9,65.8313,-1090.88,0,0
93564.3,66.1683,-1087.72,0,0
93824.6,66.0289,-1084.57,0,0
94084.9,65.7118,-1080.85,0,0
94345.2,65.7893,-1077.03,0,0
94605.6,65.7612,-1072.99,0,0
94865.9,66.2007,-1069.03,0,0
95126.2,66.4588,-1065.2,0,0
95386.5,66.7186,-1061.18,0,0
95646.9,67.3061,-1057.33,0,0
95907.2,67.641,-1053.36,0,0
96167.5,68.2212,-1049.48,0,0
96427.8,68.7587,-1045.45,0,0
96688.2,69.6794,-1041.53,0,0
96948.5,70.4776,-1037.8,0,0
97208.8,71.3912,-1034.14,0,0
97469.1,72.2821,-1030.56,0,0
97729.5,73.23,-1027.01,0,0
97989.8,74.2351,-1023.55,0,0
98250.1,75.2127,-1020.21,0,0
98510.4,76.2977,-1016.86,0,0
98770.8,77.4873,-1013.65,0,0
99031.1,78.7256,-1010.79,0,0
99291.4,79.7291,-1008.2,0,0
99551.7,80.399,-1005.54,0,0
99812.1,81.0349,-1002.66,0,0
100072,81.839,-999.82,0,0
100333,82.6841,-997.109,0,0
100593,83.4925,-994.473,0,0
100853,84.2446,-992,0,0
101114,84.9364,-989.642,0,0
101374,85.429,-987.292,0,0
101634,85.958,-984.96,0,0
101895,86.347,-982.787,0,0
102155,86.5496,-980.562,0,0
102415,86.7409,-978.266,0,0
102676,86.8758,-976.012,0,0
102936,86.8634,-973.903,0,0
103196,86.6165,-971.716,0,0
103457,86.1735,-969.25,0,0
103717,85.7926,-966.549,0,0
103977,85.5773,-963.72,0,0
104238,85.5425,-960.914,0,0
104498,85.5706,-958.364,0,0
104758,85.3947,-955.838,0,0
105019,85.0617,-953.228,0,0
105279,84.7273,-950.365,0,0
105539,84.5383,-947.472,0,0
105800,84.3871,-944.529,0,0
106060,84.3604,-941.612,0,0
106320.175,84.3309,-938.744,0,0
106580.5,84.3802,-935.868,0,0
106840.825,84.4821,-933.037,0,0
107101.15,84.5739,-930.307,0,0
107361.475,84.655,-927.672,0,0
107621.8,84.5691,-925.11,0,0
107882.125,84.3659,-922.44,0,0
108142.45,84.131,-919.584,0,0
108402.775,84.027,-916.665,0,0
108663.1,84.0377,-913.786,0,0
108923.425,84.0038,-910.871,0,0
109183.75,84.0469,-907.878,0,0
109444.075,84.289,-904.982,0,0
109704.4,84.5138,-902.162,0,0
109964.725,84.8083,-899.365,0,0
110225.05,85.1386,-896.712,0,0
110485.375,85.3441,-894.148,0,0
110745.7,85.5403,-891.7,0,0
111006.025,85.6223,-889.229,0,0
111266.35,85.6816,-886.522,0,0
111526.675,85.8197,-883.977,0,0
111787.0,86.013,-881.399,0,0
112047.325,86.1996,-878.916,0,0
112307.65,86.2108,-876.53,0,0
112567.975,86.3063,-874.09,0,0
112828.3,86.3884,-871.629,0,0
113088.625,86.3658,-869.222,0,0
113348.95,86.4631,-866.817,0,0
113609.275,86.4281,-864.488,0,0
113869.6,86.4096,-862.182,0,0
114129.925,86.222,-859.854,0,0
114390.25,86.0595,-857.323,0,0
114650.575,85.925,-854.872,0,0
114910.9,85.8357,-852.423,0,0
115171.225,85.8137,-849.994,0,0
115431.55,85.7521,-847.696,0,0
115691.875,85.5265,-845.454,0,0
115952.2,85.1362,-843.124,0,0
116212.525,84.7725,-840.636,0,0
116472.85,84.3407,-838.092,0,0
116733.175,83.9393,-835.43,0,0
116993.5,83.6285,-832.606,0,0
117253.825,83.5003,-829.784,0,0
117514.15,83.5166,-827.074,0,0
117774.475,83.5215,-824.49,0,0
118034.8,83.4512,-821.991,0,0
118295.125,83.3526,-819.493,0,0
118555.45,83.1698,-816.948,0,0
118815.775,83.0464,-814.338,0,0
119076.1,83.0123,-811.763,0,0
119336.425,82.8979,-809.386,0,0
119596.75,82.6165,-806.905,0,0
119857.075,82.3877,-804.389,0,0
120117.4,82.1123,-801.807,0,0
120377.725,81.8168,-799.075,0,0
120638.05,81.561,-796.413,0,0
120898.375,81.4044,-793.641,0,0
121158.7,81.3143,-790.969,0,0
121419.025,81.1494,-788.318,0,0
121679.35,81.003,-785.649,0,0
121939.675,80.8709,-782.966,0,0
122200.0,80.7276,-780.206,0,0
122460,80.6993,-777.526,0,0
122721,80.5916,-774.881,0,0
122981,80.4453,-772.202,0,0
123241,80.3231,-769.496,0,0
123502,80.1855,-766.776,0,0
123762,80.0723,-764.014,0,0
124022,79.9367,-761.194,0,0
124283,79.904,-758.348,0,0
124543,79.9376,-755.538,0,0
124803,79.9702,-752.761,0,0
125064,80.0542,-749.967,0,0
125324,80.0563,-747.216,0,0
125584,80.1218,-744.481,0,0
125845,80.1347,-741.693,0,0
126105,80.1807,-738.855,0,0
126365,80.2734,-736,0,0
126626,80.486,-733.15,0,0
126886,80.747,-730.338,0,0
127146,80.9704,-727.615,0,0
127406,81.1421,-724.965,0,0
127667,81.3307,-722.272,0,0
127927,81.5814,-719.549,0,0
128187,81.8118,-716.873,0,0
128448,82.0433,-714.25,0,0
128708,82.1981,-711.656,0,0
128968,82.3767,-708.869,0,0
129229,82.6951,-706.17,0,0
129489,82.9737,-703.604,0,0
129749,83.1281,-701.092,0,0
130010,83.1995,-698.464,0,0
130270,83.306,-695.721,0,0
130530,83.469,-692.899,0,0
130791,83.8262,-690.079,0,0
131051,84.2292,-687.366,0,0
131311,84.6721,-684.707,0,0
131572,85.093,-682.219,0,0
131832,85.3326,-679.763,0,0
132092,85.5378,-677.237,0,0
132353,85.7735,-674.729,0,0
132613,85.931,-672.186,0,0
132873,86.0903,-669.601,0,0
133134,86.2269,-666.997,0,0
133394,86.3382,-664.314,0,0
133654,86.46,-661.572,0,0
133915,86.6585,-658.739,0,0
134175,86.9482,-655.955,0,0
134435,87.2275,-653.225,0,0
134696,87.4875,-650.454,0,0
134956,87.8116,-647.535,0,0
135216,88.3252,-644.657,0,0
135477,88.8445,-641.916,0,0
135737,89.4495,-639.19,0,0
135997,90.1967,-636.601,0,0
136258,90.8498,-634.269,0,0
136518,91.3142,-632.062,0,0
136778,91.6508,-629.918,0,0
137039,91.668,-627.78,0,0
137299,91.5161,-625.431,0,0
137559,91.3286,-622.929,0,0
137819,91.0768,-620.289,0,0
138080,90.7292,-617.454,0,0
138340.125,90.4678,-614.329,0,0
138600.45,90.4385,-611.021,0,0
138860.775,90.5744,-607.71,0,0
139121.1,90.8836,-604.366,0,0
139381.425,91.3234,-601.193,0,0
139641.75,91.6759,-598.046,0,0
139902.075,92.0931,-594.832,0,0
140162.4,92.6037,-591.581,0,0
140422.725,93.1223,-588.458,0,0
140683.05,93.6029,-585.272,0,0
140943.375,94.1672,-581.999,0,0
141203.7,94.814,-578.842,0,0
141464.025,95.4268,-575.703,0,0
141724.35,95.9248,-572.55,0,0
141984.675,96.4034,-569.237,0,0
142245.0,97.0342,-565.834,0,0
142505.325,97.7173,-562.42,0,0
142765.65,98.4508,-559.003,0,0
143025.975,99.1575,-555.548,0,0
143286.3,99.9719,-551.876,0,0
143546.625,101.131,-548.25,0,0
143806.95,102.221,-544.853,0,0
144067.275,103.202,-541.389,0,0
144327.6,104.223,-537.8,0,0
144587.925,105.332,-534.08,0,0
144848.25,106.661,-530.252,0,0
145108.575,108.222,-526.484,0,0
145368.9,109.866,-522.814,0,0
145629.225,111.682,-519.172,0,0
145889.55,113.548,-515.739,0,0
146149.875,115.367,-512.316,0,0
146410.2,117.231,-508.841,0,0
146670.525,119.295,-505.361,0,0
146930.85,121.441,-502.072,0,0
147191.175,123.6,-498.889,0,0
147451.5,125.726,-495.821,0,0
147711.825,127.664,-492.889,0,0
147972.15,129.382,-489.707,0,0
148232.475,131.168,-486.227,0,0
148492.8,133.186,-482.461,0,0
148753.125,135.577,-478.583,0,0
149013.45,138.301,-474.73,0,0
149273.775,141.258,-471.06,0,0
149534.1,144.562,-467.35,0,0
149794.425,148.057,-463.848,0,0
150054.75,151.839,-460.514,0,0
150315.075,155.738,-457.411,0,0
150575.4,159.956,-454.334,0,0
150835.725,164.47,-451.511,0,0
151096.05,169.623,-449.136,0,0
151356.375,174.98,-447.587,0,0
151616.7,180.165,-446.931,0,0
151877.025,184.865,-446.833,0,0
152137.35,189.262,-447.307,0,0
152397.675,193.114,-448.265,0,0
152658.0,195.959,-449.173,0,0
152918.325,198.339,-449.705,0,0
153178.65,200.805,-449.994,0,0
153438.975,203.561,-450.884,0,0
153699.3,205.118,-451.555,0,0
153959.625,206.454,-451.794,0,0
154219.95,207.801,-451.927,0,0
154480,208.419,-452.025,0,0
154741,208.892,-450.853,0,0
155001,210.234,-448.962,0,0
155261,212.663,-447.091,0,0
155522,215.782,-445.911,0,0
155782,219.195,-445.635,0,0
156042,222.53,-446.64,0,0
156303,225.032,-448.497,0,0
156563,226.357,-451.022,0,0
156823,225.999,-453.265,0,0
157084,224.507,-454.291,0,0
157344,222.687,-454.103,0,0
157604,221.136,-452.703,0,0
157864,220.151,-450.358,0,0
158125,219.977,-447.515,0,0
158385,220.698,-444.452,0,0
158645,222.142,-441.545,0,0
158906,224.306,-439.105,0,0
159166,227.128,-437.254,0,0
159426,230.148,-436.569,0,0
159687,232.487,-436.794,0,0
159947,233.847,-437.592,0,0
160207,234.17,-438.206,0,0
160468,233.772,-438.297,0,0
160728,232.65,-437.392,0,0
160988,231.626,-435.331,0,0
161249,231.363,-432.519,0,0
161509,232,-429.198,0,0
161769,233.445,-426.084,0,0
162030,235.381,-423.157,0,0
162290,237.792,-420.619,0,0
162550,240.625,-418.544,0,0
162811,243.55,-417.132,0,0
163071,246.414,-416.103,0,0
163331,249.062,-415.569,0,0
163592,251.33,-415.381,0,0
163852,253.228,-415.207,0,0
164112,255.023,-414.938,0,0
164373,256.837,-414.725,0,0
164633,258.701,-414.626,0,0
164893,260.349,-414.92,0,0
165154,262.073,-415.459,0,0
165414,263.501,-416.513,0,0
165674,264.295,-418.119,0,0
165935,263.857,-419.822,0,0
166195,262.591,-420.835,0,0
166455,261.002,-421.28,0,0
166716,258.787,-421.333,0,0
166976,256.023,-420.375,0,0
167236,253.553,-418.08,0,0
167497,252.027,-415.252,0,0
167757,250.917,-412.421,0,0
168017,250.143,-409.485,0,0
168277,249.689,-406.633,0,0
168538,249.128,-403.956,0,0
168798,248.318,-401.049,0,0
169058,247.608,-397.505,0,0
169319,247.41,-393.551,0,0
169579,247.797,-389.612,0,0
169839,248.547,-386.042,0,0
170100,249.174,-382.677,0,0
170360.075,249.672,-379.22,0,0
170620.4,250.363,-375.616,0,0
170880.725,251.087,-372.145,0,0
171141.05,251.386,-368.705,0,0
171401.375,251.372,-364.532,0,0
171661.7,251.871,-359.25,0,0
171922.025,253.524,-353.747,0,0
172182.35,256.033,-348.675,0,0
172442.675,259.046,-344.169,0,0
172703.0,262.11,-340.182,0,0
172963.325,265.057,-336.455,0,0
173223.65,268.287,-332.686,0,0
173483.975,271.689,-329.42,0,0
173744.3,275.086,-326.557,0,0
174004.625,278.353,-324.357,0,0
174264.95,281.009,-322.429,0,0
174525.275,283.021,-320.819,0,0
174785.6,283.941,-318.666,0,0
175045.925,284.593,-315.55,0,0
175306.25,285.405,-311.89,0,0
175566.575,286.082,-307.542,0,0
175826.9,287.113,-302.123,0,0
176087.225,289.179,-296.025,0,0
176347.55,292.195,-290.121,0,0
176607.875,295.837,-284.398,0,0
176868.2,299.977,-279.011,0,0
177128.525,304.25,-274.152,0,0
177388.85,308.343,-269.403,0,0
177649.175,312.363,-264.225,0,0
177909.5,316.905,-258.71,0,0
178169.825,322.097,-253.247,0,0
178430.15,327.665,-248.051,0,0
178690.475,333.399,-242.911,0,0
178950.8,339.514,-237.684,0,0
179211.125,346.304,-232.504,0,0
179471.45,353.761,-227.663,0,0
179731.775,361.43,-223.227,0,0
179992.1,369.678,-218.74,0,0
180252.425,378.763,-214.977,0,0
180512.75,388.074,-212.178,0,0
180773.075,397.315,-209.81,0,0
181033.4,406.902,-208.342,0,0
181293.725,415.834,-207.533,0,0
181554.05,424.805,-206.763,0,0
181814.375,433.972,-206.325,0,0
182074.7,443.239,-206.702,0,0
182335.025,452.196,-207.756,0,0
182595.35,460.906,-209.322,0,0
182855.675,468.989,-211.396,0,0
183116.0,476.466,-213.825,0,0
183376.325,483.389,-216.454,0,0
183636.65,489.601,-219.01,0,0
183896.975,495.172,-221.394,0,0
184157.3,500.221,-223.261,0,0
184417.625,505.418,-224.636,0,0
184677.95,510.488,-225.779,0,0
184938.275,515.587,-226.338,0,0
185198.6,521.075,-226.331,0,0
185458.925,527.361,-226.419,0,0
185719.25,533.611,-227,0,0
185979.575,539.82,-227.264,0,0
186239.9,547.028,-227.294,0,0
186500,554.452,-228.603,0,0
186761,561.14,-230.325,0,0
187021,567.544,-231.69,0,0
187281,574.02,-232.88,0,0
187542,580.497,-233.94,0,0
187802,587.235,-234.573,0,0
188062,594.866,-235.149,0,0
188322,603.299,-236.369,0,0
188583,611.939,-238.619,0,0
188843,620.309,-241.863,0,0
189103,627.513,-245.902,0,0
189364,633.841,-249.416,0,0
189624,639.823,-252.371,0,0
189884,645.728,-255.046,0,0
190145,651.201,-256.488,0,0
190405,657.702,-257.594,0,0
190665,664.865,-258.182,0,0
190926,673.677,-258.462,0,0
191186,683.993,-259.996,0,0
191446,694.355,-263.261,0,0
191707,704.053,-267.37,0,0
191967,713.279,-271.808,0,0
192227,722.071,-276.365,0,0
192488,730.455,-281.036,0,0
192748,737.981,-284.762,0,0
193008,746.623,-286.601,0,0
193269,757.654,-288.533,0,0
193529,770.334,-291.349,0,0
193789,784.036,-295.618,0,0
194050,798.794,-301.298,0,0
194310,813.911,-309.163,0,0
194570,829.338,-318.944,0,0
194831,843.944,-331.295,0,0
195091,856.888,-344.792,0,0
195351,868.706,-358.509,0,0
195612,880.778,-372.693,0,0
195872,892.752,-388.081,0,0
196132,904.006,-405.357,0,0
196393,913.915,-423.885,0,0
196653,922.156,-443.669,0,0
196913,928.981,-464.488,0,0
197174,933.729,-485.626,0,0
197434,937.103,-506.805,0,0
197694,938.998,-528.348,0,0
197955,939.023,-549.613,0,0
198215,937.568,-570.576,0,0
198475,934.752,-590.965,0,0
198735,930.755,-610.842,0,0
198996,925.782,-629.598,0,0
199256,920.978,-647.96,0,0
199516,915.574,-666.89,0,0
199777,908.335,-686.36,0,0
200037,899.019,-705.229,0,0
200297,887.669,-722.643,0,0
200558,875.609,-738.083,0,0
200818,863.477,-751.848,0,0
201078,851.611,-764.33,0,0
201339,840.496,-776.619,0,0
201599,828.984,-789.455,0,0
201859,816.264,-802.37,0,0
202120,801.475,-814.882,0,0
202380.025,784.607,-825.783,0,0
202640.35,766.272,-834.007,0,0
202900.675,748.368,-838.59,0,0
203161.0,732.229,-840.948,0,0
203421.325,717.593,-842.364,0,0
203681.65,704.589,-843.109,0,0
203941.975,692.404,-843.8,0,0
204202.3,680.819,-844.591,0,0
204462.625,669.418,-845.105,0,0
204722.95,658.664,-845.374,0,0
204983.275,647.78,-845.569,0,0
205243.6,637.089,-845.426,0,0
205503.925,626.144,-844.999,0,0
205764.25,614.788,-843.716,0,0
206024.575,603.337,-840.96,0,0
206284.9,592.667,-836.549,0,0
206545.225,583.303,-830.767,0,0
206805.55,575.888,-824.025,0,0
207065.875,570.658,-817.228,0,0
207326.2,567.154,-811.153,0,0
207586.525,564.805,-806.178,0,0
207846.85,563.233,-802.215,0,0
208107.175,562.259,-799.35,0,0
208367.5,561.198,-797.724,0,0
208627.825,559.571,-796.913,0,0
208888.15,557.427,-796.285,0,0
209148.475,554.978,-795.342,0,0
209408.8,552.448,-794.318,0,0
209669.125,550.252,-792.867,0,0
209929.45,548.653,-791.322,0,0
210189.775,547.694,-790.155,0,0
210450.1,546.891,-789.646,0,0
210710.425,546.027,-789.521,0,0
210970.75,545.059,-789.555,0,0
211231.075,544.063,-789.721,0,0
211491.4,543.369,-789.86,0,0
211751.725,543.011,-790.314,0,0
212012.05,542.777,-791.382,0,0
212272.375,542.384,-792.79,0,0
212532.7,541.977,-794.514,0,0
212793.025,541.45,-796.638,0,0
213053.35,540.628,-799.183,0,0
213313.675,539.468,-801.759,0,0
213574.0,538.153,-804.555,0,0
213834.325,536.663,-807.45,0,0
214094.65,534.909,-810.585,0,0
214354.975,532.805,-813.763,0,0
214615.3,530.716,-816.883,0,0
214875.625,528.241,-820.37,0,0
215135.95,525.541,-823.863,0,0
215396.275,522.43,-827.456,0,0
215656.6,518.872,-830.983,0,0
215916.925,514.966,-834.288,0,0
216177.25,510.759,-837.428,0,0
216437.575,506.276,-840.303,0,0
216697.9,501.569,-842.806,0,0
216958.225,496.996,-845.023,0,0
217218.55,492.365,-847.171,0,0
217478.875,487.601,-849.17,0,0
217739.2,482.728,-850.92,0,0
217999.525,477.832,-852.574,0,0
218259.85,472.776,-853.968,0,0
218520,467.758,-855.1,0,0
218780,462.682,-856.158,0,0
219041,457.667,-856.787,0,0
219301,452.707,-857.285,0,0
219561,447.85,-857.709,0,0
219822,443.139,-858.163,0,0
220082,438.113,-858.485,0,0
220342,433.026,-858.575,0,0
220603,427.847,-858.357,0,0
220863,422.537,-857.707,0,0
221123,417.532,-856.633,0,0
221384,412.663,-855.084,0,0
221644,408.373,-853.23,0,0
221904,404.606,-851.224,0,0
222165,401.251,-849.36,0,0
222425,398.215,-847.693,0,0
222685,395.421,-846,0,0
222946,392.799,-844.537,0,0
223206,390.302,-843.142,0,0
223466,388.075,-841.664,0,0
223727,386.191,-840.426,0,0
223987,384.449,-839.326,0,0
224247,382.895,-838.581,0,0
224508,381.381,-838.029,0,0
224768,380.052,-837.672,0,0
225028,379.143,-837.753,0,0
225289,377.932,-838.301,0,0
225549,376.515,-839.441,0,0
225809,374.846,-840.786,0,0
226070,372.729,-842.386,0,0
226330,370.185,-843.989,0,0
226590,367.257,-845.619,0,0
226851,364.124,-847.112,0,0
227111,360.641,-848.488,0,0
227371,356.985,-849.86,0,0
227632,353.035,-851.082,0,0
227892,348.806,-851.881,0,0
228152,344.508,-852.374,0,0
228413,340.35,-852.628,0,0
228673,336.273,-852.76,0,0
228933,332.292,-852.812,0,0
229193,328.359,-852.81,0,0
229454,324.518,-852.91,0,0
229714,320.478,-852.889,0,0
229974,316.486,-853.005,0,0
230235,312.256,-853.224,0,0
230495,307.74,-853.412,0,0
230755,302.897,-853.24,0,0
231016,297.978,-852.684,0,0
231276,293.091,-851.909,0,0
231536,288.274,-850.862,0,0
231797,283.56,-849.671,0,0
232057,278.921,-848.331,0,0
232317,274.315,-846.893,0,0
232578,269.724,-845.286,0,0
232838,265.212,-843.513,0,0
233098,260.686,-841.678,0,0
233359,256.219,-839.787,0,0
233619,251.654,-837.598,0,0
233879,247.145,-835.198,0,0
234140,242.742,-832.643,0,0
234400,238.306,-829.841,0,0
234660.3,234.078,-826.798,0,0
234920.625,229.984,-823.4,0,0
235180.95,226.214,-819.781,0,0
235441.275,222.741,-816.126,0,0
235701.6,219.519,-812.432,0,0
235961.925,216.532,-808.678,0,0
236222.25,213.77,-804.825,0,0
236482.575,211.255,-800.996,0,0
236742.9,208.984,-797.181,0,0
237003.225,206.948,-793.499,0,0
237263.55,205.001,-789.827,0,0
237523.875,203.209,-786.224,0,0
237784.2,201.553,-782.568,0,0
238044.525,200.134,-778.967,0,0
238304.85,198.812,-775.396,0,0
238565.175,197.758,-771.822,0,0
238825.5,196.994,-768.33,0,0
239085.825,196.573,-764.987,0,0
239346.15,196.384,-762.042,0,0
239606.475,196.239,-759.351,0,0
239866.8,195.994,-757.153,0,0
240127.125,195.842,-755.183,0,0
240387.45,195.375,-753.293,0,0
240647.775,194.801,-751.518,0,0
240908.1,194.253,-749.88,0,0
241168.425,193.487,-748.45,0,0
241428.75,192.481,-747.013,0,0
241689.075,191.244,-745.61,0,0
241949.4,189.886,-744.099,0,0
242209.725,188.408,-742.436,0,0
242470.05,186.8,-740.683,0,0
242730.375,185.138,-738.667,0,0
242990.7,183.561,-736.451,0,0
243251.025,182.118,-734.127,0,0
243511.35,180.804,-731.751,0,0
243771.675,179.575,-729.331,0,0
244032.0,178.422,-726.845,0,0
244292.325,177.465,-724.244,0,0
244552.65,176.708,-721.691,0,0
244812.975,176.072,-719.365,0,0
245073.3,175.618,-717.241,0,0
245333.625,174.814,-715.126,0,0
245593.95,174.082,-712.921,0,0
245854.275,173.403,-710.644,0,0
246114.6,172.882,-708.4,0,0
246374.925,172.37,-706.208,0,0
246635.25,172.084,-704.103,0,0
246895.575,171.727,-702.188,0,0
247155.9,171.28,-700.436,0,0
247416.225,170.733,-698.652,0,0
247676.55,170.08,-696.854,0,0
247936.875,169.398,-695.012,0,0
248197.2,168.659,-693.117,0,0
248457.525,167.827,-691.16,0,0
248717.85,167.081,-689.026,0,0
248978.175,166.376,-686.791,0,0
249238.5,165.732,-684.483,0,0
249498.825,165.242,-682.18,0,0
249759.15,164.773,-679.837,0,0
250019.475,164.415,-677.37,0,0
250279.8,164.119,-674.884,0,0
250540,164.071,-672.339,0,0
250800,164.102,-669.828,0,0
251061,164.318,-667.212,0,0
251321,164.832,-664.685,0,0
251581,165.554,-662.299,0,0
251842,166.459,-660.167,0,0
252102,167.402,-658.268,0,0
252362,168.447,-656.541,0,0
252623,169.556,-655.078,0,0
252883,170.587,-653.948,0,0
253143,171.421,-653.077,0,0
253404,172.026,-652.34,0,0
253664,172.406,-651.664,0,0
253924,172.6,-650.962,0,0
254185,172.604,-650.197,0,0
254445,172.44,-649.284,0,0
254705,172.312,-648.318,0,0
254966,172.181,-647.29,0,0
255226,171.943,-646.274,0,0
255486,171.606,-645.134,0,0
255747,171.224,-643.861,0,0
256007,170.922,-642.446,0,0
256267,170.706,-640.931,0,0
256528,170.481,-639.429,0,0
256788,170.267,-637.825,0,0
257048,170.106,-636.067,0,0
257309,170.084,-634.207,0,0
257569,170.255,-632.314,0,0
257829,170.533,-630.447,0,0
258090,170.922,-628.581,0,0
258350,171.447,-626.708,0,0
258610,172.068,-624.911,0,0
258871,172.809,-623.134,0,0
259131,173.631,-621.381,0,0
259391,174.646,-619.694,0,0
259651,175.811,-618.133,0,0
259912,177.015,-616.77,0,0
260172,178.31,-615.533,0,0
260432,179.438,-614.53,0,0
260693,180.522,-613.534,0,0
260953,181.603,-612.529,0,0
261213,182.758,-611.609,0,0
261474,183.891,-610.784,0,0
261734,185.06,-609.976,0,0
261994,186.287,-609.292,0,0
262255,187.48,-608.819,0,0
262515,188.483,-608.505,0,0
262775,189.257,-608.147,0,0
263036,189.994,-607.652,0,0
263296,190.741,-607.112,0,0
263556,191.424,-606.561,0,0
263817,192.009,-606.004,0,0
264077,192.493,-605.287,0,0
264337,193.035,-604.352,0,0
264598,193.687,-603.287,0,0
264858,194.445,-602.028,0,0
265118,195.453,-600.669,0,0
265379,196.734,-599.222,0,0
265639,198.19,-597.784,0,0
265899,199.937,-596.293,0,0
266160,201.965,-594.867,0,0
266420,204.396,-593.448,0,0
266680.25,207.207,-592.254,0,0
266940.575,210.392,-591.361,0,0
267200.9,213.875,-590.783,0,0
267461.225,217.659,-590.662,0,0
267721.55,221.628,-591.01,0,0
267981.875,225.736,-591.917,0,0
268242.2,229.874,-593.37,0,0
268502.525,233.953,-595.467,0,0
268762.85,237.876,-598.127,0,0
269023.175,241.501,-601.37,0,0
269283.5,244.69,-605.107,0,0
269543.825,247.493,-609.246,0,0
269804.15,249.836,-613.618,0,0
270064.475,251.736,-618.262,0,0
270324.8,253.405,-623.169,0,0
270585.125,254.516,-628.391,0,0
270845.45,255.145,-633.836,0,0
271105.775,255.106,-639.416,0,0
271366.1,254.53,-645.017,0,0
271626.425,253.371,-650.563,0,0
271886.75,251.699,-656.06,0,0
272147.075,249.473,-661.399,0,0
272407.4,246.745,-666.584,0,0
272667.725,243.46,-671.565,0,0
272928.05,239.703,-676.317,0,0
273188.375,235.371,-680.719,0,0
273448.7,230.522,-684.601,0,0
273709.025,225.355,-687.942,0,0
273969.35,219.849,-690.715,0,0
274229.675,214.154,-692.882,0,0
274490.0,208.325,-694.394,0,0
274750.325,202.629,-695.255,0,0
275010.65,196.952,-695.53,0,0
275270.975,191.495,-695.308,0,0
275531.3,186.362,-694.569,0,0
275791.625,181.554,-693.461,0,0
276051.95,177.089,-692.15,0,0
276312.275,172.915,-690.605,0,0
276572.6,169.056,-688.977,0,0
276832.925,165.417,-687.232,0,0
277093.25,161.968,-685.383,0,0
277353.575,158.744,-683.407,0,0
277613.9,155.769,-681.417,0,0
277874.225,152.985,-679.409,0,0
278134.55,150.334,-677.409,0,0
278394.875,147.754,-675.386,0,0
278655.2,145.279,-673.271,0,0
278915.525,142.912,-671.036,0,0
279175.85,140.702,-668.67,0,0
279436.175,138.745,-666.208,0,0
279696.5,136.988,-663.672,0,0
279956.825,135.595,-661.186,0,0
280217.15,134.363,-658.726,0,0
280477.475,133.299,-656.311,0,0
280737.8,132.488,-654.057,0,0
280998.125,131.818,-651.916,0,0
281258.45,131.277,-649.871,0,0
281518.775,130.867,-647.994,0,0
281779.1,130.538,-646.269,0,0
282039.425,130.252,-644.712,0,0
282299.75,130.022,-643.261,0,0
282560,129.818,-641.984,0,0
282820,129.58,-640.904,0,0
283081,129.219,-639.945,0,0
283341,128.743,-639.037,0,0
283601,128.154,-638.151,0,0
283862,127.463,-637.217,0,0
284122,126.738,-636.171,0,0
284382,126.019,-635.05,0,0
284643,125.329,-633.844,0,0
284903,124.696,-632.537,0,0
285163,124.184,-631.092,0,0
285424,123.872,-629.656,0,0
285684,123.796,-628.178,0,0
285944,123.971,-626.827,0,0
286205,124.342,-625.661,0,0
286465,124.851,-624.702,0,0
286725,125.458,-624.032,0,0
286986,126.129,-623.601,0,0
287246,126.847,-623.511,0,0
287506,127.484,-623.812,0,0
287767,127.894,-624.467,0,0
288027,127.99,-625.414,0,0
288287,127.666,-626.498,0,0
288548,126.91,-627.64,0,0
288808,125.768,-628.659,0,0
289068,124.419,-629.522,0,0
289329,122.855,-630.25,0,0
289589,121.083,-630.812,0,0
289849,119.088,-631.198,0,0
290109,116.954,-631.295,0,0
290370,114.809,-631.095,0,0
290630,112.709,-630.696,0,0
290890,110.72,-630.114,0,0
291151,108.776,-629.422,0,0
291411,106.937,-628.616,0,0
291671,105.128,-627.768,0,0
291932,103.345,-626.886,0,0
292192,101.574,-625.91,0,0
292452,99.8082,-624.867,0,0
292713,98.0806,-623.724,0,0
292973,96.4405,-622.496,0,0
293233,94.879,-621.203,0,0
293494,93.3527,-619.876,0,0
293754,91.9001,-618.535,0,0
294014,90.4647,-617.171,0,0
294275,89.0461,-615.747,0,0
294535,87.6708,-614.258,0,0
294795,86.3777,-612.684,0,0
295056,85.1475,-611.071,0,0
295316,84.0032,-609.409,0,0
295576,82.9637,-607.757,0,0
295837,82.0175,-606.093,0,0
296097,81.1258,-604.441,0,0
296357,80.3092,-602.851,0,0
296618,79.5359,-601.275,0,0
296878,78.7694,-599.724,0,0
297138,78.0089,-598.179,0,0
297399,77.2758,-596.645,0,0
297659,76.5616,-595.092,0,0
297919,75.8649,-593.507,0,0
298180,75.2165,-591.899,0,0
298440,74.614,-590.301,0,0
298700.2,74.0603,-588.682,0,0
298960.525,73.5325,-587.067,0,0
299220.85,73.0497,-585.459,0,0
299481.175,72.6282,-583.814,0,0
299741.5,72.2382,-582.191,0,0
300001.825,71.8845,-580.555,0,0
300262.15,71.5979,-578.893,0,0
300522.475,71.4033,-577.259,0,0
300782.8,71.2682,-575.614,0,0
301043.125,71.1982,-574.008,0,0
301303.45,71.2266,-572.45,0,0
301563.775,71.2976,-570.934,0,0
301824.1,71.4197,-569.491,0,0
302084.425,71.5832,-568.094,0,0
302344.75,71.7865,-566.76,0,0
302605.075,71.9966,-565.506,0,0
302865.4,72.2294,-564.298,0,0
303125.725,72.4764,-563.118,0,0
303386.05,72.7387,-562.005,0,0
303646.375,73.0108,-560.956,0,0
303906.7,73.2842,-559.964,0,0
304167.025,73.5556,-559.002,0,0
304427.35,73.8002,-558.115,0,0
304687.675,74.0618,-557.238,0,0
304948.0,74.3127,-556.398,0,0
305208.325,74.5605,-555.6,0,0
305468.65,74.7933,-554.851,0,0
305728.975,75.037,-554.116,0,0
305989.3,75.2787,-553.461,0,0
306249.625,75.4832,-552.828,0,0
306509.95,75.6843,-552.243,0,0
306770.275,75.852,-551.688,0,0
307030.6,75.9751,-551.178,0,0
307290.925,76.0994,-550.675,0,0
307551.25,76.2046,-550.174,0,0
307811.575,76.3266,-549.714,0,0
308071.9,76.4496,-549.325,0,0
308332.225,76.5289,-549.009,0,0
308592.55,76.5621,-548.767,0,0
308852.875,76.4956,-548.579,0,0
309113.2,76.2996,-548.394,0,0
309373.525,76.0212,-548.182,0,0
309633.85,75.6705,-547.912,0,0
309894.175,75.2693,-547.555,0,0
310154.5,74.8794,-547.174,0,0
310414.825,74.4654,-546.742,0,0
310675.15,74.0733,-546.283,0,0
310935.475,73.6768,-545.814,0,0
311195.8,73.2829,-545.3,0,0
311456.125,72.9025,-544.801,0,0
311716.45,72.517,-544.291,0,0
311976.775,72.142,-543.789,0,0
312237.1,71.7458,-543.305,0,0
312497.425,71.3317,-542.805,0,0
312757.75,70.8955,-542.314,0,0
313018.075,70.4495,-541.822,0,0
313278.4,69.9727,-541.309,0,0
313538.725,69.4644,-540.78,0,0
313799.05,68.9316,-540.203,0,0
314059.375,68.3747,-539.59,0,0
314319.7,67.8482,-538.948,0,0
314580,67.2705,-538.299,0,0
314840,66.7918,-537.537,0,0
315101,66.2602,-536.83,0,0
315361,65.7538,-536.062,0,0
315621,65.264,-535.288,0,0
315882,64.8029,-534.476,0,0
316142,64.3747,-533.64,0,0
316402,63.9269,-532.746,0,0
316663,63.6238,-531.926,0,0
316923,63.2857,-531.058,0,0
317183,63.0499,-530.294,0,0
317444,62.6943,-529.407,0,0
317704,62.5247,-528.579,0,0
317964,62.2254,-527.828,0,0
318225,62.0138,-527.002,0,0
318485,61.8378,-526.191,0,0
318745,61.6094,-525.46,0,0
319006,61.444,-524.665,0,0
319266,61.3458,-523.957,0,0
319526,61.3234,-523.228,0,0
319787,61.161,-522.55,0,0
320047,61.1178,-521.966,0,0
320307,60.9469,-521.357,0,0
320567,60.8268,-520.812,0,0
320828,60.6728,-520.351,0,0
321088,60.446,-519.913,0,0
321348,60.1788,-519.414,0,0
321609,59.932,-518.914,0,0
321869,59.6624,-518.395,0,0
322129,59.3027,-517.91,0,0
322390,58.9538,-517.422,0,0
322650,58.6546,-516.906,0,0
322910,58.2989,-516.372,0,0
323171,57.9225,-515.866,0,0
323431,57.5325,-515.387,0,0
323691,57.0824,-514.925,0,0
323952,56.616,-514.402,0,0
324212,56.0994,-513.881,0,0
324472,55.596,-513.315,0,0
324733,55.0637,-512.643,0,0
324993,54.541,-512.006,0,0
325253,53.9317,-511.373,0,0
325514,53.4703,-510.652,0,0
325774,52.9479,-509.879,0,0
326034,52.445,-509.046,0,0
326295,51.9776,-508.274,0,0
326555,51.5341,-507.425,0,0
326815,51.0765,-506.595,0,0
327076,50.7031,-505.749,0,0
327336,50.2249,-504.909,0,0
327596,49.9242,-504.043,0,0
327857,49.5656,-503.259,0,0
328117,49.2589,-502.39,0,0
328377,48.8724,-501.558,0,0
328638,48.5332,-500.729,0,0
328898,48.2507,-499.871,0,0
329158,47.8912,-499.015,0,0
329419,47.6298,-498.169,0,0
329679,47.2831,-497.301,0,0
329939,47.0192,-496.47,0,0
330200,46.7407,-495.583,0,0
330460,46.461,-494.721,0,0
330720.15,46.2059,-493.893,0,0
330980.475,46.0027,-492.987,0,0
331240.8,45.7213,-492.117,0,0
331501.125,45.5001,-491.302,0,0
331761.45,45.2988,-490.404,0,0
332021.775,45.0828,-489.546,0,0
332282.1,44.9007,-488.681,0,0
332542.425,44.7287,-487.764,0,0
332802.75,44.498,-486.924,0,0
333063.075,44.3548,-485.953,0,0
333323.4,44.2308,-485.118,0,0
333583.725,44.0963,-484.204,0,0
333844.05,44.0002,-483.364,0,0
334104.375,43.9356,-482.441,0,0
334364.7,43.8883,-481.61,0,0
334625.025,43.8383,-480.781,0,0
334885.35,43.7865,-479.974,0,0
335145.675,43.7711,-479.138,0,0
335406.0,43.794,-478.38,0,0
335666.325,43.7884,-477.635,0,0
335926.65,43.806,-476.887,0,0
336186.975,43.7457,-476.185,0,0
336447.3,43.7728,-475.409,0,0
336707.625,43.7118,-474.744,0,0
336967.95,43.6949,-474.03,0,0
337228.275,43.652,-473.41,0,0
337488.6,43.6111,-472.712,0,0
337748.925,43.583,-472.082,0,0
338009.25,43.5197,-471.387,0,0
338269.575,43.4684,-470.782,0,0
338529.9,43.3705,-470.191,0,0
338790.225,43.3114,-469.584,0,0
339050.55,43.2274,-468.929,0,0
339310.875,43.137,-468.31,0,0
339571.2,43.034,-467.672,0,0
339831.525,42.913,-467.031,0,0
340091.85,42.7383,-466.465,0,0
340352.175,42.6336,-465.814,0,0
340612.5,42.4356,-465.195,0,0
340872.825,42.3002,-464.573,0,0
341133.15,42.0933,-463.936,0,0
341393.475,41.8976,-463.278,0,0
341653.8,41.7377,-462.55,0,0
341914.125,41.4734,-461.801,0,0
342174.45,41.3153,-461.101,0,0
342434.775,41.1094,-460.329,0,0
342695.1,41.0064,-459.574,0,0
342955.425,40.8398,-458.872,0,0
343215.75,40.7445,-458.099,0,0
343476.075,40.583,-457.326,0,0
343736.4,40.4823,-456.539,0,0
343996.725,40.3699,-455.769,0,0
344257.05,40.2528,-455.032,0,0
344517.375,40.1619,-454.254,0,0
344777.7,40.0495,-453.445,0,0
345038.025,40.0136,-452.664,0,0
345298.35,39.9251,-451.934,0,0
345558.675,39.8466,-451.105,0,0
345819.0,39.8013,-450.244,0,0
346079.325,39.811,-449.47,0,0
346339.65,39.7805,-448.659,0,0
346599.975,39.8049,-447.841,0,0
346860,39.8048,-447.053,0,0
347121,39.8664,-446.282,0,0
347381,39.8973,-445.48,0,0
347641,39.9527,-444.732,0,0
347902,40.0607,-443.973,0,0
348162,40.1032,-443.203,0,0
348422,40.2079,-442.459,0,0
348683,40.3253,-441.784,0,0
348943,40.3937,-441.033,0,0
349203,40.469,-440.307,0,0
349464,40.6024,-439.567,0,0
349724,40.7432,-438.873,0,0
349984,40.8188,-438.182,0,0
350245,40.9671,-437.505,0,0
350505,41.1074,-436.822,0,0
350765,41.2784,-436.162,0,0
351025,41.4072,-435.491,0,0
351286,41.6194,-434.886,0,0
351546,41.7833,-434.28,0,0
351806,41.9081,-433.677,0,0
352067,42.0785,-433.057,0,0
352327,42.2851,-432.497,0,0
352587,42.4108,-431.937,0,0
352848,42.5404,-431.364,0,0
353108,42.7039,-430.833,0,0
353368,42.8246,-430.303,0,0
353629,42.9837,-429.767,0,0
353889,43.1166,-429.281,0,0
354149,43.2198,-428.735,0,0
354410,43.3346,-428.215,0,0
354670,43.4156,-427.712,0,0
354930,43.5097,-427.255,0,0
355191,43.635,-426.767,0,0
355451,43.7261,-426.213,0,0
355711,43.8047,-425.703,0,0
355972,43.9327,-425.248,0,0
356232,43.998,-424.767,0,0
356492,44.0615,-424.308,0,0
356753,44.1265,-423.828,0,0
357013,44.1662,-423.336,0,0
357273,44.2193,-422.831,0,0
357534,44.261,-422.399,0,0
357794,44.3078,-421.889,0,0
358054,44.3588,-421.377,0,0
358315,44.4013,-420.922,0,0
358575,44.4405,-420.397,0,0
358835,44.4815,-419.921,0,0
359096,44.5321,-419.408,0,0
359356,44.5931,-418.879,0,0
359616,44.6823,-418.398,0,0
359877,44.7371,-417.881,0,0
360137,44.7746,-417.394,0,0
360397,44.8627,-416.926,0,0
360658,44.9282,-416.446,0,0
360918,44.9437,-415.991,0,0
361178,45.0397,-415.49,0,0
361438,45.0412,-415.008,0,0
361699,45.1031,-414.521,0,0
361959,45.1395,-414.025,0,0
362219,45.1641,-413.558,0,0
362480,45.2758,-413.049,0,0
362740.1,45.3305,-412.585,0,0
363000.425,45.376,-412.099,0,0
363260.75,45.394,-411.596,0,0
363521.075,45.4822,-411.137,0,0
363781.4,45.5329,-410.658,0,0
364041.725,45.5381,-410.153,0,0
364302.05,45.6146,-409.679,0,0
364562.375,45.6954,-409.25,0,0
364822.7,45.7595,-408.708,0,0
365083.025,45.8585,-408.257,0,0
365343.35,45.9559,-407.746,0,0
365603.675,46.0516,-407.26,0,0
365864.0,46.1147,-406.797,0,0
366124.325,46.2265,-406.38,0,0
366384.65,46.2637,-405.922,0,0
366644.975,46.3576,-405.494,0,0
366905.3,46.4554,-405.019,0,0
367165.625,46.4898,-404.615,0,0
367425.95,46.5501,-404.154,0,0
367686.275,46.6304,-403.691,0,0
367946.6,46.6662,-403.242,0,0
368206.925,46.7053,-402.77,0,0
368467.25,46.8298,-402.26,0,0
368727.575,46.8763,-401.789,0,0
368987.9,47.0171,-401.313,0,0
369248.225,47.1208,-400.819,0,0
369508.55,47.2608,-400.315,0,0
369768.875,47.4571,-399.834,0,0
370029.2,47.6789,-399.404,0,0
370289.525,47.8853,-398.959,0,0
370549.85,48.0877,-398.619,0,0
370810.175,48.3123,-398.276,0,0
371070.5,48.5241,-397.977,0,0
371330.825,48.7049,-397.663,0,0
371591.15,48.8858,-397.452,0,0
371851.475,48.9975,-397.248,0,0
372111.8,49.0894,-396.975,0,0
372372.125,49.1937,-396.741,0,0
372632.45,49.2427,-396.552,0,0
372892.775,49.2962,-396.353,0,0
373153.1,49.2874,-396.138,0,0
373413.425,49.2354,-395.874,0,0
373673.75,49.2176,-395.646,0,0
373934.075,49.1798,-395.412,0,0
374194.4,49.0686,-395.15,0,0
374454.725,48.9833,-394.848,0,0
374715.05,48.8878,-394.57,0,0
374975.375,48.8134,-394.23,0,0
375235.7,48.6735,-393.863,0,0
375496.025,48.5582,-393.496,0,0
375756.35,48.4846,-393.075,0,0
376016.675,48.3967,-392.654,0,0
376277.0,48.3961,-392.219,0,0
376537.325,48.3774,-391.806,0,0
376797.65,48.4393,-391.395,0,0
377057.975,48.497,-391.013,0,0
377318.3,48.5201,-390.684,0,0
377578.625,48.5909,-390.352,0,0
377838.95,48.621,-390.087,0,0
378099.275,48.6352,-389.861,0,0
378359.6,48.607,-389.602,0,0
378619.925,48.4907,-389.398,0,0
378880,48.3479,-389.124,0,0
379141,48.1721,-388.814,0,0
379401,47.9865,-388.441,0,0
379661,47.811,-388.052,0,0
379922,47.6362,-387.576,0,0
380182,47.555,-387.061,0,0
380442,47.5327,-386.539,0,0
380703,47.5483,-386.055,0,0
380963,47.659,-385.588,0,0
381223,47.7568,-385.182,0,0
381483,47.9137,-384.879,0,0
381744,48.028,-384.646,0,0
382004,48.0502,-384.437,0,0
382264,48.0798,-384.291,0,0
382525,48.0582,-384.113,0,0
382785,47.9309,-383.986,0,0
383045,47.7316,-383.773,0,0
383306,47.5441,-383.586,0,0
383566,47.2897,-383.344,0,0
383826,47.047,-383.08,0,0
384087,46.7658,-382.774,0,0
384347,46.4803,-382.459,0,0
384607,46.1969,-382.086,0,0
384868,45.9007,-381.694,0,0
385128,45.6097,-381.306,0,0
385388,45.3321,-380.865,0,0
385649,45.0703,-380.33,0,0
385909,44.8085,-379.879,0,0
386169,44.549,-379.355,0,0
386430,44.2825,-378.79,0,0
386690,44.0593,-378.258,0,0
386950,43.8447,-377.698,0,0
387211,43.6527,-377.104,0,0
387471,43.4622,-376.496,0,0
387731,43.3272,-375.924,0,0
387992,43.1705,-375.297,0,0
388252,43.0478,-374.631,0,0
388512,42.9621,-374.034,0,0
388773,42.8889,-373.398,0,0
389033,42.8479,-372.789,0,0
389293,42.8244,-372.152,0,0
389554,42.8278,-371.53,0,0
389814,42.8361,-370.95,0,0
390074,42.8461,-370.393,0,0
390335,42.8846,-369.842,0,0
390595,42.9239,-369.317,0,0
390855,42.9151,-368.796,0,0
391116,42.8929,-368.302,0,0
391376,42.8892,-367.799,0,0
391636,42.884,-367.275,0,0
391896,42.8833,-366.789,0,0
392157,42.847,-366.266,0,0
392417,42.8695,-365.756,0,0
392677,42.8146,-365.265,0,0
392938,42.7888,-364.76,0,0
393198,42.754,-364.23,0,0
393458,42.7224,-363.721,0,0
393719,42.6761,-363.175,0,0
393979,42.6831,-362.619,0,0
394239,42.6282,-362.085,0,0
394500,42.6229,-361.502,0,0
394760.05,42.6188,-360.962,0,0
395020.375,42.6113,-360.382,0,0
395280.7,42.6358,-359.822,0,0
395541.025,42.6987,-359.223,0,0
395801.35,42.7057,-358.676,0,0
396061.675,42.7794,-358.088,0,0
396322.0,42.8193,-357.536,0,0
396582.325,42.8734,-357.016,0,0
396842.65,42.9869,-356.475,0,0
397102.975,43.0594,-355.946,0,0
397363.3,43.1138,-355.416,0,0
397623.625,43.1734,-354.895,0,0
397883.95,43.257,-354.385,0,0
398144.275,43.2954,-353.919,0,0
398404.6,43.385,-353.366,0,0
398664.925,43.4601,-352.842,0,0
398925.25,43.5483,-352.378,0,0
399185.575,43.5843,-351.88,0,0
399445.9,43.6657,-351.366,0,0
399706.225,43.7189,-350.89,0,0
399966.55,43.7638,-350.371,0,0
400006.6,43.7819,-350.312,0,0