File: Accelerated corrosion test data/2025-10-13_18-00-03/sample_6.csv
Frequency (Hz),Impedance (ohms),Phase (Radians),Temperature (C),Humidity (%)
10000.0,4158.02,-6603.47,0,0
10260.325,4021.13,-6523.47,0,0
10520.65,3890.24,-6443.27,0,0
10780.975,3765.24,-6364,0,0
11041.3,3646.19,-6284.72,0,0
11301.625,3532.81,-6207.55,0,0
11561.95,3424.35,-6130.41,0,0
11822.275,3320.53,-6055.16,0,0
12082.6,3221.04,-5979.83,0,0
12342.925,3125.77,-5905.97,0,0
12603.25,3036.46,-5830.81,0,0
12863.575,2949.41,-5760.11,0,0
13123.9,2869.03,-5691.81,0,0
13384.225,2787.54,-5624.32,0,0
13644.55,2710.39,-5556.16,0,0
13904.875,2636.63,-5489.26,0,0
14165.2,2565.09,-5423.14,0,0
14425.525,2496.62,-5358.79,0,0
14685.8,2432.2,-5294.28,0,0
14946.175,2370.01,-5232.46,0,0
15206.5,2309.54,-5171.45,0,0
15466.825,2251.61,-5111.09,0,0
15727.15,2195.75,-5052.47,0,0
15987.5,2141.96,-4994.52,0,0
16247.8,2090.19,-4937.62,0,0
16508.125,2040.23,-4882.04,0,0
16768.45,1992.39,-4826.95,0,0
17028.775,1946.65,-4772.39,0,0
17289.1,1901.49,-4720.8,0,0
17549.425,1858.25,-4669.13,0,0
17809.75,1816.46,-4617.75,0,0
18070.075,1776.12,-4567.38,0,0
18330.4,1737.78,-4518.29,0,0
18590.725,1699.4,-4470.02,0,0
18851.05,1663.64,-4422.47,0,0
19111.375,1628.73,-4375.6,0,0
19371.7,1595.37,-4331.75,0,0
19632.025,1562.12,-4287.33,0,0
19892.35,1529.63,-4243.18,0,0
20152.675,1498.75,-4199.78,0,0
20413.0,1469.1,-4158.27,0,0
20673.3,1439.7,-4116.39,0,0
20933.65,1411.01,-4075.28,0,0
21193.975,1384.2,-4034.97,0,0
21454.3,1357.23,-3995.13,0,0
21714.625,1332.28,-3956.71,0,0
21974.9,1307.39,-3918.61,0,0
22235.275,1282.53,-3880.95,0,0
22495.6,1258.89,-3843.48,0,0
22755.925,1236.56,-3805.95,0,0
23016.25,1216.03,-3770.25,0,0
23276.6,1195.63,-3736.68,0,0
23536.9,1174.89,-3703.47,0,0
23797.225,1153.65,-3670.6,0,0
24057.55,1133.57,-3636.96,0,0
24317.875,1113.17,-3604.77,0,0
24578.2,1094.96,-3572.55,0,0
24838.525,1076.22,-3540.95,0,0
25098.85,1058.6,-3509.62,0,0
25359.175,1041.13,-3479.1,0,0
25619.5,1024.21,-3449.07,0,0
25879.8,1007.46,-3419.7,0,0
26140.1,990.989,-3390.47,0,0
26400.5,975.5,-3361.47,0,0
26660.8,960.407,-3332.94,0,0
26921.1,945.688,-3304.56,0,0
27181.4,931.543,-3277.4,0,0
27441.8,917.544,-3250.24,0,0
27702.1,904.43,-3223.89,0,0
27962.4,891.115,-3197.98,0,0
28222.7,877.332,-3172.76,0,0
28483.1,863.667,-3147.09,0,0
28743.4,850.949,-3122.05,0,0
29003.7,838.219,-3096.37,0,0
29264,826.358,-3070.9,0,0
29524.4,814.922,-3046.63,0,0
29784.7,804.096,-3022.91,0,0
30045,793.605,-2998.77,0,0
30305.3,783.243,-2975.73,0,0
30565.7,773.431,-2953.22,0,0
30826,762.988,-2931.28,0,0
31086.3,753.466,-2908.92,0,0
31346.6,743.774,-2887.6,0,0
31607,733.885,-2866.15,0,0
31867.3,724.824,-2844.38,0,0
32127.6,716.002,-2823.71,0,0
32387.9,707.713,-2802.7,0,0
32648.3,700.086,-2782.94,0,0
32908.6,692.194,-2763.65,0,0
33168.9,684.573,-2745.29,0,0
33429.2,676.986,-2727.18,0,0
33689.6,667.84,-2709.7,0,0
33949.9,659.044,-2691.53,0,0
34210.2,649.955,-2673.26,0,0
34470.5,641.473,-2654.5,0,0
34730.9,633.657,-2635.89,0,0
34991.2,626.808,-2617.77,0,0
35251.5,619.728,-2601.18,0,0
35511.8,611.967,-2584.46,0,0
35772.2,603.901,-2567.83,0,0
36032.5,595.367,-2550.59,0,0
36292.8,587.635,-2532.47,0,0
36553.1,580.889,-2514.71,0,0
36813.5,574.45,-2497.73,0,0
37073.8,568.224,-2480.83,0,0
37334.1,562.23,-2464.28,0,0
37594.4,556.21,-2448.36,0,0
37854.8,549.908,-2432.67,0,0
38115.1,543.772,-2416.3,0,0
38375.4,537.809,-2400.32,0,0
38635.7,532.503,-2384.22,0,0
38896.1,527.131,-2368.43,0,0
39156.4,522.444,-2352.63,0,0
39416.7,518.169,-2337.42,0,0
39677,514.328,-2322.7,0,0
39937.4,510.42,-2308.5,0,0
40197.7,506.143,-2295.15,0,0
40458,501.833,-2281.42,0,0
40718.3,497.921,-2268.21,0,0
40978.7,493.892,-2255.47,0,0
41239,489.303,-2243.35,0,0
41499.3,483.953,-2230.17,0,0
41759.6,479.89,-2217.57,0,0
42020,475.571,-2205.68,0,0
42280.275,469.801,-2193.96,0,0
42540.6,464.135,-2181.49,0,0
42800.925,458.536,-2167.76,0,0
43061.25,454.395,-2153.46,0,0
43321.575,451.086,-2140.56,0,0
43581.9,447.878,-2128.18,0,0
43842.225,443.671,-2115.7,0,0
44102.55,439.908,-2103.1,0,0
44362.875,437.366,-2090.71,0,0
44623.2,434.682,-2079.03,0,0
44883.525,431.87,-2067.75,0,0
45143.85,428.408,-2056.49,0,0
45404.175,426.089,-2045.12,0,0
45664.5,423.438,-2034.31,0,0
45924.825,420.504,-2024.16,0,0
46185.15,417.537,-2013.9,0,0
46445.475,414.467,-2003.96,0,0
46705.8,411.254,-1993.8,0,0
46966.125,408.447,-1983.38,0,0
47226.45,405.69,-1972.77,0,0
47486.775,403.013,-1963.36,0,0
47747.1,400.177,-1953.64,0,0
48007.425,397.661,-1943.79,0,0
48267.75,395.055,-1934.16,0,0
48528.075,393.032,-1925.2,0,0
48788.4,390.894,-1916.38,0,0
49048.725,388.306,-1908.2,0,0
49309.05,385.697,-1900.4,0,0
49569.375,382.197,-1892.83,0,0
49829.7,378.577,-1884.95,0,0
50090.025,374.549,-1877.09,0,0
50350.35,370.197,-1868.88,0,0
50610.675,365.715,-1860.15,0,0
50871.0,361.528,-1850.94,0,0
51131.325,357.657,-1841.69,0,0
51391.65,354.22,-1832.56,0,0
51651.975,350.96,-1823.68,0,0
51912.3,347.44,-1814.87,0,0
52172.625,343.871,-1805.86,0,0
52432.95,340.582,-1796.24,0,0
52693.275,338.132,-1787.28,0,0
52953.6,335.559,-1778.75,0,0
53213.925,332.766,-1770.53,0,0
53474.25,329.646,-1762.31,0,0
53734.575,326.305,-1753.89,0,0
53994.9,322.934,-1744.82,0,0
54255.225,320.389,-1735.49,0,0
54515.55,318.407,-1726.74,0,0
54775.875,316.438,-1718.48,0,0
55036.2,314.359,-1710.63,0,0
55296.525,311.924,-1702.79,0,0
55556.85,309.36,-1694.92,0,0
55817.175,306.653,-1686.82,0,0
56077.5,304.064,-1678.7,0,0
56337.825,301.375,-1670.27,0,0
56598.15,299.218,-1661.47,0,0
56858.475,297.673,-1652.81,0,0
57118.8,296.526,-1644.52,0,0
57379.125,295.774,-1636.67,0,0
57639.45,294.994,-1629.44,0,0
57899.775,294.028,-1622.69,0,0
58160.1,292.503,-1616.4,0,0
58420.4,291.019,-1609.91,0,0
58680.7,289.317,-1603.62,0,0
58941.1,287.46,-1597.39,0,0
59201.4,285.396,-1591.17,0,0
59461.7,283.115,-1584.9,0,0
59722,281.024,-1578.41,0,0
59982.4,278.722,-1572.21,0,0
60242.7,276.235,-1565.74,0,0
60503,273.851,-1559.02,0,0
60763.3,271.763,-1552.58,0,0
61023.7,269.306,-1546.24,0,0
61284,266.558,-1539.85,0,0
61544.3,263.681,-1533.11,0,0
61804.6,260.792,-1525.78,0,0
62065,258.292,-1518.11,0,0
62325.3,256.359,-1510.14,0,0
62585.6,255.158,-1502.28,0,0
62845.9,254.414,-1494.6,0,0
63106.3,254.363,-1487.75,0,0
63366.6,254.295,-1481.44,0,0
63626.9,253.916,-1476.02,0,0
63887.2,253.03,-1470.78,0,0
64147.6,251.747,-1465.86,0,0
64407.9,250.02,-1460.91,0,0
64668.2,247.484,-1455.55,0,0
64928.5,245.167,-1449.5,0,0
65188.9,243.16,-1443.21,0,0
65449.2,241.478,-1436.9,0,0
65709.5,239.863,-1430.72,0,0
65969.8,238.698,-1424.6,0,0
66230.2,237.524,-1418.78,0,0
66490.5,236.234,-1412.97,0,0
66750.8,235.09,-1407.41,0,0
67011.1,233.711,-1401.83,0,0
67271.5,232.447,-1396.46,0,0
67531.8,230.942,-1390.86,0,0
67792.1,229.515,-1385.55,0,0
68052.4,228.065,-1379.98,0,0
68312.8,226.963,-1374.55,0,0
68573.1,225.475,-1369.31,0,0
68833.4,223.967,-1363.86,0,0
69093.7,222.741,-1358.81,0,0
69354.1,221.313,-1353.5,0,0
69614.4,219.763,-1348.26,0,0
69874.7,218.45,-1342.94,0,0
70135,216.997,-1337.85,0,0
70395.4,215.484,-1332.6,0,0
70655.7,214.027,-1327.37,0,0
70916,212.459,-1322.12,0,0
71176.3,211.09,-1316.96,0,0
71436.7,209.55,-1311.64,0,0
71697,208.207,-1306.35,0,0
71957.3,206.876,-1301.03,0,0
72217.6,205.65,-1295.7,0,0
72478,204.534,-1290.43,0,0
72738.3,203.408,-1285.24,0,0
72998.6,202.239,-1280.04,0,0
73258.9,201.182,-1275.03,0,0
73519.3,200.067,-1269.94,0,0
73779.6,199.05,-1264.87,0,0
74039.9,198.018,-1259.92,0,0
74300.225,197.01,-1255.02,0,0
74560.55,196.085,-1250.12,0,0
74820.875,195.265,-1245.39,0,0
75081.2,194.303,-1240.62,0,0
75341.525,193.313,-1236.04,0,0
75601.85,192.261,-1231.4,0,0
75862.175,191.206,-1226.72,0,0
76122.5,190.086,-1222.05,0,0
76382.825,189.108,-1217.37,0,0
76643.15,188.046,-1212.76,0,0
76903.475,187.001,-1208.11,0,0
77163.8,185.972,-1203.47,0,0
77424.125,184.951,-1198.87,0,0
77684.45,183.899,-1194.25,0,0
77944.775,182.915,-1189.63,0,0
78205.1,181.993,-1185.07,0,0
78465.425,181.029,-1180.5,0,0
78725.75,179.979,-1175.94,0,0
78986.075,179.068,-1171.4,0,0
79246.4,178.095,-1166.87,0,0
79506.725,177.318,-1162.38,0,0
79767.05,176.319,-1157.81,0,0
80027.375,175.384,-1153.3,0,0
80287.7,174.477,-1148.79,0,0
80548.025,173.576,-1144.29,0,0
80808.35,172.725,-1139.75,0,0
81068.675,171.89,-1135.26,0,0
81329.0,171.079,-1130.67,0,0
81589.325,170.345,-1126.19,0,0
81849.65,169.656,-1121.61,0,0
82109.975,168.906,-1117.15,0,0
82370.3,168.324,-1112.71,0,0
82630.625,167.692,-1108.26,0,0
82890.95,167.108,-1103.84,0,0
83151.275,166.517,-1099.45,0,0
83411.6,165.904,-1094.96,0,0
83671.925,165.381,-1090.57,0,0
83932.25,164.925,-1086.17,0,0
84192.575,164.506,-1081.7,0,0
84452.9,164.184,-1077.32,0,0
84713.225,163.867,-1072.91,0,0
84973.55,163.648,-1068.59,0,0
85233.875,163.556,-1064.3,0,0
85494.2,163.528,-1060.07,0,0
85754.525,163.435,-1056.11,0,0
86014.85,163.44,-1052.02,0,0
86275.175,163.455,-1048.01,0,0
86535.5,163.446,-1044.06,0,0
86795.825,163.402,-1040.25,0,0
87056.15,163.322,-1036.37,0,0
87316.475,163.346,-1032.68,0,0
87576.8,163.274,-1028.99,0,0
87837.125,163.186,-1025.24,0,0
88097.45,163.267,-1021.37,0,0
88357.775,163.348,-1017.76,0,0
88618.1,163.363,-1014.17,0,0
88878.425,163.632,-1010.66,0,0
89138.75,163.872,-1007,0,0
89399.075,164.149,-1003.62,0,0
89659.4,164.42,-1000.44,0,0
89919.725,164.786,-997.366,0,0
90180,164.89,-994.498,0,0
90440.4,165.05,-991.788,0,0
90700.7,164.969,-989.178,0,0
90961,164.829,-986.552,0,0
91221.3,164.052,-984.052,0,0
91481.7,163.518,-981.338,0,0
91742,162.722,-978.542,0,0
92002.3,161.699,-975.617,0,0
92262.6,160.838,-972.249,0,0
92523,160.037,-968.634,0,0
92783.3,159.627,-965.214,0,0
93043.6,159.164,-962.016,0,0
93303.9,158.41,-958.455,0,0
93564.3,158.031,-954.877,0,0
93824.6,157.77,-951.379,0,0
94084.9,157.5,-947.936,0,0
94345.2,157.427,-944.333,0,0
94605.6,157.596,-940.916,0,0
94865.9,157.725,-937.848,0,0
95126.2,157.667,-934.686,0,0
95386.5,157.658,-931.441,0,0
95646.9,157.835,-928.302,0,0
95907.2,158.11,-925.323,0,0
96167.5,158.33,-922.746,0,0
96427.8,158.264,-920.095,0,0
96688.2,158.236,-917.47,0,0
96948.5,158.083,-914.973,0,0
97208.8,157.716,-912.441,0,0
97469.1,157.26,-909.836,0,0
97729.5,156.619,-907.046,0,0
97989.8,156.128,-904.018,0,0
98250.1,155.807,-901.042,0,0
98510.4,155.465,-897.917,0,0
98770.8,155.293,-894.766,0,0
99031.1,155.367,-891.616,0,0
99291.4,155.634,-888.678,0,0
99551.7,155.91,-885.98,0,0
99812.1,156.126,-883.46,0,0
100072,156.215,-880.956,0,0
100333,156.436,-878.469,0,0
100593,156.67,-876.314,0,0
100853,156.552,-874.418,0,0
101114,156.206,-872.333,0,0
101374,155.761,-870.282,0,0
101634,155.221,-868.022,0,0
101895,154.719,-865.683,0,0
102155,154.433,-863.242,0,0
102415,154.09,-861.132,0,0
102676,153.597,-858.944,0,0
102936,153.188,-856.736,0,0
103196,152.726,-854.723,0,0
103457,152.177,-852.785,0,0
103717,151.372,-850.962,0,0
103977,150.342,-849.01,0,0
104238,149.432,-847.021,0,0
104498,148.224,-845.255,0,0
104758,146.598,-843.254,0,0
105019,144.749,-840.897,0,0
105279,142.963,-838.364,0,0
105539,140.998,-835.506,0,0
105800,139.095,-832.479,0,0
106060,137.068,-828.908,0,0
106320.175,135.451,-824.999,0,0
106580.5,134.111,-820.943,0,0
106840.825,133.111,-816.802,0,0
107101.15,132.357,-812.61,0,0
107361.475,131.707,-808.444,0,0
107621.8,131.429,-804.122,0,0
107882.125,131.45,-800.008,0,0
108142.45,131.653,-796.05,0,0
108402.775,132.018,-792.217,0,0
108663.1,132.482,-788.63,0,0
108923.425,132.811,-785.251,0,0
109183.75,133.199,-781.806,0,0
109444.075,133.6,-778.44,0,0
109704.4,134.008,-774.921,0,0
109964.725,134.675,-771.486,0,0
110225.05,135.491,-768.266,0,0
110485.375,136.265,-765.105,0,0
110745.7,137.074,-762.056,0,0
111006.025,137.906,-758.889,0,0
111266.35,139.128,-755.73,0,0
111526.675,140.637,-753.206,0,0
111787.0,141.641,-751.058,0,0
112047.325,143.07,-748.7,0,0
112307.65,144.357,-746.961,0,0
112567.975,145.101,-745.452,0,0
112828.3,145.617,-743.766,0,0
113088.625,146.018,-742.178,0,0
113348.95,146.144,-740.372,0,0
113609.275,146.509,-738.529,0,0
113869.6,146.695,-736.86,0,0
114129.925,146.745,-735.119,0,0
114390.25,146.687,-732.978,0,0
114650.575,146.86,-730.807,0,0
114910.9,147.261,-728.834,0,0
115171.225,147.842,-726.842,0,0
115431.55,148.292,-725.209,0,0
115691.875,148.89,-723.798,0,0
115952.2,149.274,-722.569,0,0
116212.525,149.586,-721.705,0,0
116472.85,149.478,-721.292,0,0
116733.175,148.494,-720.803,0,0
116993.5,147.051,-719.927,0,0
117253.825,145.404,-718.594,0,0
117514.15,143.569,-716.839,0,0
117774.475,141.776,-714.54,0,0
118034.8,140.062,-711.925,0,0
118295.125,138.641,-708.915,0,0
118555.45,137.558,-705.72,0,0
118815.775,136.758,-702.633,0,0
119076.1,136.12,-699.449,0,0
119336.425,135.477,-696.162,0,0
119596.75,135.142,-692.733,0,0
119857.075,135.165,-689.287,0,0
120117.4,135.459,-685.954,0,0
120377.725,136.002,-682.919,0,0
120638.05,136.835,-680.016,0,0
120898.375,137.755,-677.441,0,0
121158.7,138.627,-675.422,0,0
121419.025,139.234,-673.72,0,0
121679.35,139.465,-672.087,0,0
121939.675,139.404,-670.502,0,0
122200.0,138.98,-668.752,0,0
122460,138.494,-666.659,0,0
122721,138.099,-664.378,0,0
122981,137.83,-662.011,0,0
123241,137.655,-659.594,0,0
123502,137.581,-657.239,0,0
123762,137.596,-654.961,0,0
124022,137.64,-652.797,0,0
124283,137.491,-650.706,0,0
124543,137.295,-648.548,0,0
124803,137.015,-646.367,0,0
125064,136.753,-644.146,0,0
125324,136.516,-641.842,0,0
125584,136.249,-639.589,0,0
125845,135.954,-637.321,0,0
126105,135.567,-634.994,0,0
126365,135.252,-632.528,0,0
126626,134.932,-630.075,0,0
126886,134.579,-627.575,0,0
127146,134.308,-624.847,0,0
127406,133.96,-622.119,0,0
127667,133.893,-619.293,0,0
127927,133.84,-616.588,0,0
128187,133.932,-613.682,0,0
128448,134.113,-610.923,0,0
128708,134.37,-608.229,0,0
128968,134.72,-605.512,0,0
129229,135.121,-602.959,0,0
129489,135.611,-600.488,0,0
129749,135.88,-598.148,0,0
130010,136.103,-595.775,0,0
130270,136.352,-593.352,0,0
130530,136.567,-590.902,0,0
130791,136.781,-588.491,0,0
131051,136.982,-586.003,0,0
131311,137.266,-583.476,0,0
131572,137.546,-580.931,0,0
131832,137.874,-578.392,0,0
132092,138.309,-575.846,0,0
132353,138.746,-573.348,0,0
132613,139.264,-570.832,0,0
132873,139.807,-568.34,0,0
133134,140.408,-565.962,0,0
133394,141.019,-563.605,0,0
133654,141.637,-561.376,0,0
133915,142.172,-559.1,0,0
134175,142.715,-556.84,0,0
134435,143.347,-554.549,0,0
134696,143.883,-552.286,0,0
134956,144.473,-550.133,0,0
135216,145.001,-547.948,0,0
135477,145.55,-545.755,0,0
135737,146.089,-543.57,0,0
135997,146.768,-541.228,0,0
136258,147.422,-538.972,0,0
136518,148.167,-536.845,0,0
136778,148.922,-534.666,0,0
137039,149.759,-532.582,0,0
137299,150.618,-530.593,0,0
137559,151.477,-528.668,0,0
137819,152.354,-526.934,0,0
138080,153.112,-525.306,0,0
138340.125,153.645,-523.702,0,0
138600.45,154.12,-522.122,0,0
138860.775,154.592,-520.364,0,0
139121.1,154.972,-518.754,0,0
139381.425,155.322,-516.952,0,0
139641.75,155.6,-515.215,0,0
139902.075,155.964,-513.31,0,0
140162.4,156.21,-511.487,0,0
140422.725,156.591,-509.586,0,0
140683.05,157.037,-507.75,0,0
140943.375,157.486,-505.812,0,0
141203.7,158.019,-504.025,0,0
141464.025,158.514,-502.279,0,0
141724.35,158.897,-500.705,0,0
141984.675,159.154,-499.134,0,0
142245.0,159.277,-497.565,0,0
142505.325,159.244,-495.987,0,0
142765.65,159.061,-494.163,0,0
143025.975,158.936,-492.151,0,0
143286.3,158.831,-490.038,0,0
143546.625,158.764,-487.865,0,0
143806.95,158.895,-485.654,0,0
144067.275,159.016,-483.372,0,0
144327.6,159.144,-480.999,0,0
144587.925,159.392,-478.611,0,0
144848.25,159.852,-476.247,0,0
145108.575,160.311,-473.915,0,0
145368.9,160.893,-471.741,0,0
145629.225,161.465,-469.519,0,0
145889.55,161.998,-467.533,0,0
146149.875,162.493,-465.598,0,0
146410.2,162.983,-463.681,0,0
146670.525,163.404,-461.782,0,0
146930.85,163.753,-459.987,0,0
147191.175,164.024,-458.173,0,0
147451.5,163.995,-456.369,0,0
147711.825,163.953,-454.391,0,0
147972.15,163.79,-452.309,0,0
148232.475,163.527,-450.039,0,0
148492.8,163.386,-447.632,0,0
148753.125,163.353,-445.106,0,0
149013.45,163.341,-442.405,0,0
149273.775,163.436,-439.626,0,0
149534.1,163.569,-436.812,0,0
149794.425,163.894,-433.905,0,0
150054.75,164.378,-431.13,0,0
150315.075,164.833,-428.268,0,0
150575.4,165.333,-425.437,0,0
150835.725,165.909,-422.561,0,0
151096.05,166.526,-419.672,0,0
151356.375,167.166,-416.711,0,0
151616.7,167.874,-413.666,0,0
151877.025,168.768,-410.554,0,0
152137.35,169.957,-407.307,0,0
152397.675,171.352,-404.261,0,0
152658.0,173.021,-401.489,0,0
152918.325,174.57,-399.072,0,0
153178.65,176.106,-396.726,0,0
153438.975,177.529,-394.496,0,0
153699.3,178.836,-392.338,0,0
153959.625,180.013,-390.239,0,0
154219.95,181.11,-388.179,0,0
154480,182.04,-385.99,0,0
154741,182.906,-383.653,0,0
155001,183.87,-381.136,0,0
155261,184.974,-378.403,0,0
155522,186.194,-375.796,0,0
155782,187.695,-373.124,0,0
156042,189.342,-370.678,0,0
156303,191.033,-368.331,0,0
156563,192.829,-366.146,0,0
156823,194.625,-364.239,0,0
157084,196.349,-362.617,0,0
157344,197.76,-361.119,0,0
157604,198.895,-359.535,0,0
157864,199.791,-357.849,0,0
158125,200.733,-356.059,0,0
158385,201.604,-354.16,0,0
158645,202.483,-352.156,0,0
158906,203.434,-350.081,0,0
159166,204.35,-347.989,0,0
159426,205.262,-345.924,0,0
159687,206.246,-343.767,0,0
159947,207.185,-341.669,0,0
160207,208.065,-339.446,0,0
160468,209.024,-337.252,0,0
160728,209.893,-335.007,0,0
160988,210.871,-332.69,0,0
161249,211.824,-330.307,0,0
161509,212.86,-327.976,0,0
161769,213.852,-325.687,0,0
162030,214.81,-323.342,0,0
162290,215.769,-320.904,0,0
162550,216.74,-318.386,0,0
162811,217.766,-315.864,0,0
163071,218.846,-313.282,0,0
163331,220.055,-310.717,0,0
163592,221.267,-308.199,0,0
163852,222.426,-305.761,0,0
164112,223.529,-303.326,0,0
164373,224.544,-300.856,0,0
164633,225.47,-298.252,0,0
164893,226.407,-295.499,0,0
165154,227.423,-292.677,0,0
165414,228.515,-289.745,0,0
165674,229.655,-286.776,0,0
165935,230.861,-283.74,0,0
166195,232.155,-280.728,0,0
166455,233.474,-277.64,0,0
166716,234.807,-274.602,0,0
166976,236.158,-271.455,0,0
167236,237.542,-268.26,0,0
167497,238.974,-264.947,0,0
167757,240.476,-261.626,0,0
168017,242.04,-258.21,0,0
168277,243.775,-254.779,0,0
168538,245.594,-251.33,0,0
168798,247.459,-247.934,0,0
169058,249.316,-244.547,0,0
169319,251.235,-241.074,0,0
169579,253.22,-237.61,0,0
169839,255.212,-234.144,0,0
170100,257.215,-230.683,0,0
170360.075,259.237,-227.114,0,0
170620.4,261.317,-223.453,0,0
170880.725,263.43,-219.759,0,0
171141.05,265.622,-215.952,0,0
171401.375,267.888,-212.146,0,0
171661.7,270.197,-208.248,0,0
171922.025,272.609,-204.229,0,0
172182.35,275.125,-200.198,0,0
172442.675,277.718,-196.052,0,0
172703.0,280.43,-191.866,0,0
172963.325,283.219,-187.621,0,0
173223.65,286.163,-183.31,0,0
173483.975,289.155,-178.935,0,0
173744.3,292.264,-174.455,0,0
174004.625,295.526,-169.901,0,0
174264.95,298.952,-165.226,0,0
174525.275,302.547,-160.54,0,0
174785.6,306.3,-155.771,0,0
175045.925,310.301,-150.938,0,0
175306.25,314.492,-146.083,0,0
175566.575,318.826,-141.212,0,0
175826.9,323.44,-136.333,0,0
176087.225,328.286,-131.425,0,0
176347.55,333.28,-126.532,0,0
176607.875,338.519,-121.685,0,0
176868.2,343.993,-116.801,0,0
177128.525,349.763,-111.965,0,0
177388.85,355.71,-107.23,0,0
177649.175,361.943,-102.65,0,0
177909.5,368.327,-98.0962,0,0
178169.825,375.013,-93.5919,0,0
178430.15,381.845,-89.2625,0,0
178690.475,388.98,-84.9956,0,0
178950.8,396.362,-80.9207,0,0
179211.125,403.981,-77.0365,0,0
179471.45,411.855,-73.4376,0,0
179731.775,419.819,-70.0901,0,0
179992.1,427.808,-67.0422,0,0
180252.425,435.887,-64.1062,0,0
180512.75,443.842,-61.4122,0,0
180773.075,451.91,-58.7859,0,0
181033.4,459.92,-56.1497,0,0
181293.725,468.084,-53.5403,0,0
181554.05,476.418,-50.9483,0,0
181814.375,484.836,-48.4661,0,0
182074.7,493.581,-46.1037,0,0
182335.025,502.525,-43.878,0,0
182595.35,511.475,-41.9001,0,0
182855.675,520.565,-40.1222,0,0
183116.0,529.612,-38.4254,0,0
183376.325,538.681,-36.8021,0,0
183636.65,547.818,-35.1906,0,0
183896.975,557.045,-33.5719,0,0
184157.3,566.412,-31.8893,0,0
184417.625,575.934,-30.2131,0,0
184677.95,585.67,-28.511,0,0
184938.275,595.693,-26.6041,0,0
185198.6,606.141,-24.7163,0,0
185458.925,616.924,-22.8634,0,0
185719.25,628.161,-21.0781,0,0
185979.575,639.907,-19.4264,0,0
186239.9,652.178,-17.9221,0,0
186500,664.957,-16.6791,0,0
186761,678.349,-15.7622,0,0
187021,692.234,-15.3791,0,0
187281,706.483,-15.4648,0,0
187542,721.075,-16.0098,0,0
187802,736.06,-16.9901,0,0
188062,751.453,-18.4992,0,0
188322,767.219,-20.5259,0,0
188583,783.404,-23.1275,0,0
188843,799.961,-26.3821,0,0
189103,816.904,-30.3324,0,0
189364,834.196,-35.0284,0,0
189624,851.817,-40.5968,0,0
189884,869.686,-47.0664,0,0
190145,887.752,-54.6579,0,0
190405,905.808,-63.0724,0,0
190665,923.922,-72.5565,0,0
190926,942.045,-83.2901,0,0
191186,959.873,-95.0175,0,0
191446,977.297,-107.683,0,0
191707,994.34,-121.467,0,0
191967,1010.96,-136.176,0,0
192227,1027.1,-151.708,0,0
192488,1042.69,-168.148,0,0
192748,1057.82,-185.497,0,0
193008,1072.34,-203.573,0,0
193269,1086.18,-222.504,0,0
193529,1099.47,-242.265,0,0
193789,1112.06,-262.864,0,0
194050,1124,-284.279,0,0
194310,1134.89,-306.616,0,0
194570,1145.17,-329.823,0,0
194831,1154.1,-353.783,0,0
195091,1161.96,-378.413,0,0
195351,1168.51,-403.762,0,0
195612,1173.79,-429.221,0,0
195872,1177.84,-455.329,0,0
196132,1180.68,-481.939,0,0
196393,1181.78,-508.66,0,0
196653,1181.58,-535.453,0,0
196913,1179.77,-562.196,0,0
197174,1176.62,-588.851,0,0
197434,1172.12,-615.172,0,0
197694,1166.23,-640.902,0,0
197955,1158.86,-666.244,0,0
198215,1150.39,-690.896,0,0
198475,1140.5,-714.626,0,0
198735,1129.88,-737.824,0,0
198996,1118.2,-759.888,0,0
199256,1105.66,-781.395,0,0
199516,1092.66,-801.976,0,0
199777,1078.91,-821.989,0,0
200037,1064.3,-841.001,0,0
200297,1048.89,-859.305,0,0
200558,1033.07,-876.446,0,0
200818,1016.47,-892.793,0,0
201078,999.384,-908.008,0,0
201339,981.928,-922.24,0,0
201599,963.95,-935.655,0,0
201859,945.513,-947.86,0,0
202120,927.312,-958.529,0,0
202380.025,908.854,-968.696,0,0
202640.35,890.42,-977.699,0,0
202900.675,872.124,-985.687,0,0
203161.0,854.112,-992.577,0,0
203421.325,836.208,-998.95,0,0
203681.65,818.546,-1004.23,0,0
203941.975,801.024,-1008.94,0,0
204202.3,784.117,-1012.82,0,0
204462.625,767.54,-1016.35,0,0
204722.95,750.958,-1019.08,0,0
204983.275,734.757,-1021.13,0,0
205243.6,719.074,-1022.56,0,0
205503.925,703.587,-1024.07,0,0
205764.25,688.467,-1024.89,0,0
206024.575,673.81,-1025.16,0,0
206284.9,659.292,-1025.02,0,0
206545.225,644.956,-1024.41,0,0
206805.55,631.566,-1023.49,0,0
207065.875,618.035,-1022.57,0,0
207326.2,605.205,-1021.09,0,0
207586.525,592.574,-1019.44,0,0
207846.85,580.223,-1017.4,0,0
208107.175,568.186,-1015.39,0,0
208367.5,556.498,-1012.88,0,0
208627.825,545.159,-1010.2,0,0
208888.15,534.174,-1007.53,0,0
209148.475,523.467,-1004.49,0,0
209408.8,512.948,-1001.58,0,0
209669.125,502.809,-998.39,0,0
209929.45,493.179,-995.236,0,0
210189.775,483.593,-991.905,0,0
210450.1,474.049,-988.517,0,0
210710.425,464.963,-984.992,0,0
210970.75,455.86,-981.457,0,0
211231.075,447.072,-977.738,0,0
211491.4,438.473,-973.908,0,0
211751.725,430.039,-969.995,0,0
212012.05,421.963,-965.687,0,0
212272.375,414.059,-961.527,0,0
212532.7,406.491,-957.305,0,0
212793.025,399.204,-953.031,0,0
213053.35,392.047,-948.812,0,0
213313.675,385.136,-944.566,0,0
213574.0,378.263,-940.296,0,0
213834.325,371.648,-936.071,0,0
214094.65,365.124,-931.583,0,0
214354.975,358.8,-927.062,0,0
214615.3,352.532,-922.572,0,0
214875.625,346.677,-918.097,0,0
215135.95,340.883,-913.338,0,0
215396.275,335.322,-908.707,0,0
215656.6,329.941,-904.052,0,0
215916.925,324.786,-899.492,0,0
216177.25,319.845,-894.837,0,0
216437.575,314.985,-890.278,0,0
216697.9,310.329,-885.672,0,0
216958.225,305.794,-881.185,0,0
217218.55,301.297,-876.697,0,0
217478.875,297.005,-872.15,0,0
217739.2,292.852,-867.667,0,0
217999.525,288.782,-863.21,0,0
218259.85,284.791,-858.722,0,0
218520,280.966,-854.257,0,0
218780,277.282,-849.746,0,0
219041,273.758,-845.395,0,0
219301,270.299,-840.966,0,0
219561,266.907,-836.424,0,0
219822,263.617,-832.072,0,0
220082,260.531,-827.621,0,0
220342,257.478,-823.321,0,0
220603,254.607,-818.97,0,0
220863,251.743,-814.578,0,0
221123,249.094,-810.25,0,0
221384,246.472,-806.033,0,0
221644,243.894,-801.768,0,0
221904,241.441,-797.433,0,0
222165,239.099,-793.087,0,0
222425,236.885,-788.893,0,0
222685,234.823,-784.621,0,0
222946,232.747,-780.557,0,0
223206,230.916,-776.35,0,0
223466,229.076,-772.313,0,0
223727,227.284,-768.039,0,0
223987,225.616,-763.877,0,0
224247,224.008,-759.881,0,0
224508,222.694,-755.784,0,0
224768,221.402,-751.788,0,0
225028,220.147,-748.017,0,0
225289,219.06,-744.063,0,0
225549,218.032,-740.338,0,0
225809,217.01,-736.571,0,0
226070,216.177,-732.993,0,0
226330,215.413,-729.338,0,0
226590,214.466,-725.901,0,0
226851,213.808,-722.487,0,0
227111,213.106,-719.083,0,0
227371,212.384,-715.853,0,0
227632,211.64,-712.597,0,0
227892,210.899,-709.271,0,0
228152,210.234,-706.028,0,0
228413,209.612,-702.892,0,0
228673,208.973,-699.693,0,0
228933,208.34,-696.422,0,0
229193,207.862,-693.225,0,0
229454,207.301,-690.067,0,0
229714,206.92,-686.814,0,0
229974,206.481,-683.644,0,0
230235,206.201,-680.379,0,0
230495,205.894,-677.281,0,0
230755,205.712,-674.125,0,0
231016,205.53,-670.911,0,0
231276,205.447,-667.811,0,0
231536,205.41,-664.689,0,0
231797,205.527,-661.604,0,0
232057,205.626,-658.513,0,0
232317,205.802,-655.446,0,0
232578,206.073,-652.395,0,0
232838,206.414,-649.391,0,0
233098,206.829,-646.416,0,0
233359,207.308,-643.469,0,0
233619,207.878,-640.556,0,0
233879,208.491,-637.672,0,0
234140,209.265,-634.801,0,0
234400,210.05,-631.998,0,0
234660.3,210.922,-629.201,0,0
234920.625,211.867,-626.543,0,0
235180.95,212.934,-623.972,0,0
235441.275,214.031,-621.394,0,0
235701.6,215.166,-618.949,0,0
235961.925,216.408,-616.508,0,0
236222.25,217.714,-614.156,0,0
236482.575,219.111,-611.854,0,0
236742.9,220.55,-609.63,0,0
237003.225,222.061,-607.492,0,0
237263.55,223.588,-605.435,0,0
237523.875,225.199,-603.494,0,0
237784.2,226.92,-601.603,0,0
238044.525,228.653,-599.806,0,0
238304.85,230.438,-597.952,0,0
238565.175,232.24,-596.516,0,0
238825.5,234.125,-595.022,0,0
239085.825,236.033,-593.686,0,0
239346.15,237.907,-592.302,0,0
239606.475,239.998,-591.116,0,0
239866.8,242.012,-590.1,0,0
240127.125,244.062,-589.081,0,0
240387.45,245.992,-588.194,0,0
240647.775,248.07,-587.414,0,0
240908.1,250.124,-586.867,0,0
241168.425,252.2,-586.317,0,0
241428.75,254.251,-585.888,0,0
241689.075,256.246,-585.643,0,0
241949.4,258.362,-585.329,0,0
242209.725,260.306,-585.277,0,0
242470.05,262.364,-585.311,0,0
242730.375,264.268,-585.329,0,0
242990.7,266.257,-585.49,0,0
243251.025,268.289,-585.744,0,0
243511.35,270.357,-586.081,0,0
243771.675,272.457,-586.566,0,0
244032.0,274.501,-587.31,0,0
244292.325,276.628,-588.169,0,0
244552.65,278.599,-589.349,0,0
244812.975,280.515,-590.697,0,0
245073.3,282.157,-592.218,0,0
245333.625,283.697,-593.915,0,0
245593.95,284.969,-595.635,0,0
245854.275,286.036,-597.492,0,0
246114.6,286.94,-599.377,0,0
246374.925,287.674,-601.194,0,0
246635.25,288.195,-603.008,0,0
246895.575,288.61,-604.735,0,0
247155.9,289.038,-606.456,0,0
247416.225,289.271,-608.098,0,0
247676.55,289.399,-609.751,0,0
247936.875,289.553,-611.382,0,0
248197.2,289.537,-612.921,0,0
248457.525,289.455,-614.535,0,0
248717.85,289.242,-615.975,0,0
248978.175,289.084,-617.44,0,0
249238.5,288.879,-618.775,0,0
249498.825,288.841,-619.911,0,0
249759.15,289.003,-621.098,0,0
250019.475,288.964,-622.358,0,0
250279.8,289.093,-623.743,0,0
250540,289.211,-625.242,0,0
250800,289.414,-626.885,0,0
251061,289.493,-628.689,0,0
251321,289.53,-630.677,0,0
251581,289.412,-632.635,0,0
251842,289.159,-634.733,0,0
252102,288.805,-636.938,0,0
252362,288.342,-639.098,0,0
252623,287.814,-641.396,0,0
252883,287.169,-643.76,0,0
253143,286.332,-646.121,0,0
253404,285.361,-648.662,0,0
253664,284.085,-651.201,0,0
253924,282.626,-653.71,0,0
254185,280.931,-656.221,0,0
254445,279.049,-658.708,0,0
254705,277.06,-660.899,0,0
254966,274.772,-663.103,0,0
255226,272.367,-665.254,0,0
255486,269.852,-667.153,0,0
255747,267.174,-668.96,0,0
256007,264.381,-670.581,0,0
256267,261.542,-671.908,0,0
256528,258.673,-673.168,0,0
256788,255.753,-674.307,0,0
257048,252.797,-675.263,0,0
257309,249.849,-676.074,0,0
257569,246.914,-676.787,0,0
257829,243.963,-677.33,0,0
258090,241.029,-677.79,0,0
258350,238.144,-678.108,0,0
258610,235.267,-678.359,0,0
258871,232.432,-678.538,0,0
259131,229.606,-678.528,0,0
259391,226.657,-678.492,0,0
259651,223.984,-678.395,0,0
259912,221.311,-678.317,0,0
260172,218.575,-678.01,0,0
260432,215.91,-677.646,0,0
260693,213.336,-677.33,0,0
260953,210.691,-676.829,0,0
261213,208.052,-676.283,0,0
261474,205.498,-675.61,0,0
261734,203.023,-674.987,0,0
261994,200.569,-674.235,0,0
262255,198.14,-673.464,0,0
262515,195.79,-672.671,0,0
262775,193.497,-671.791,0,0
263036,191.222,-670.857,0,0
263296,189.078,-669.94,0,0
263556,186.841,-668.94,0,0
263817,184.755,-667.97,0,0
264077,182.702,-666.929,0,0
264337,180.717,-665.917,0,0
264598,178.773,-664.766,0,0
264858,176.817,-663.783,0,0
265118,174.722,-662.628,0,0
265379,173.081,-661.57,0,0
265639,171.205,-660.365,0,0
265899,169.437,-659.211,0,0
266160,167.674,-658.082,0,0
266420,165.977,-656.878,0,0
266680.25,164.314,-655.741,0,0
266940.575,162.704,-654.635,0,0
267200.9,160.987,-653.405,0,0
267461.225,159.403,-652.221,0,0
267721.55,157.88,-651.097,0,0
267981.875,156.385,-649.934,0,0
268242.2,154.766,-648.719,0,0
268502.525,153.313,-647.509,0,0
268762.85,151.836,-646.284,0,0
269023.175,150.455,-645.109,0,0
269283.5,148.997,-643.87,0,0
269543.825,147.634,-642.632,0,0
269804.15,146.2,-641.486,0,0
270064.475,144.903,-640.15,0,0
270324.8,143.58,-639.018,0,0
270585.125,142.299,-637.697,0,0
270845.45,140.921,-636.383,0,0
271105.775,139.554,-635.163,0,0
271366.1,138.364,-633.953,0,0
271626.425,137.182,-632.736,0,0
271886.75,135.941,-631.415,0,0
272147.075,134.757,-630.196,0,0
272407.4,133.584,-628.876,0,0
272667.725,132.433,-627.678,0,0
272928.05,131.31,-626.342,0,0
273188.375,130.213,-625.1,0,0
273448.7,129.105,-623.888,0,0
273709.025,128.034,-622.594,0,0
273969.35,126.974,-621.303,0,0
274229.675,125.977,-619.993,0,0
274490.0,124.874,-618.815,0,0
274750.325,123.938,-617.531,0,0
275010.65,122.898,-616.257,0,0
275270.975,121.941,-614.965,0,0
275531.3,120.967,-613.72,0,0
275791.625,120.037,-612.433,0,0
276051.95,119.084,-611.184,0,0
276312.275,118.188,-609.913,0,0
276572.6,117.274,-608.649,0,0
276832.925,116.381,-607.369,0,0
277093.25,115.482,-606.075,0,0
277353.575,114.636,-604.779,0,0
277613.9,113.785,-603.514,0,0
277874.225,112.959,-602.224,0,0
278134.55,112.125,-600.934,0,0
278394.875,111.317,-599.579,0,0
278655.2,110.521,-598.251,0,0
278915.525,109.773,-596.943,0,0
279175.85,109.015,-595.582,0,0
279436.175,108.321,-594.201,0,0
279696.5,107.677,-592.859,0,0
279956.825,107.064,-591.453,0,0
280217.15,106.473,-590.097,0,0
280477.475,106.023,-588.786,0,0
280737.8,105.559,-587.437,0,0
280998.125,105.122,-586.234,0,0
281258.45,104.733,-585.003,0,0
281518.775,104.329,-583.846,0,0
281779.1,103.921,-582.765,0,0
282039.425,103.481,-581.676,0,0
282299.75,103.027,-580.605,0,0
282560,102.53,-579.505,0,0
282820,102.013,-578.448,0,0
283081,101.635,-577.404,0,0
283341,101.086,-576.354,0,0
283601,100.605,-575.347,0,0
283862,100.096,-574.133,0,0
284122,99.6301,-573.104,0,0
284382,99.2441,-572.077,0,0
284643,98.8068,-570.934,0,0
284903,98.4409,-569.899,0,0
285163,98.1776,-568.81,0,0
285424,97.7721,-567.812,0,0
285684,97.45,-566.747,0,0
285944,97.2283,-565.798,0,0
286205,96.9596,-564.891,0,0
286465,96.5447,-564.063,0,0
286725,96.3164,-563.22,0,0
286986,95.9199,-562.321,0,0
287246,95.5305,-561.508,0,0
287506,95.099,-560.722,0,0
287767,94.6791,-559.91,0,0
288027,94.257,-559.106,0,0
288287,93.7417,-558.289,0,0
288548,93.2443,-557.509,0,0
288808,92.7495,-556.534,0,0
289068,92.2768,-555.676,0,0
289329,91.8546,-554.813,0,0
289589,91.3998,-554.007,0,0
289849,90.8944,-553.027,0,0
290109,90.4597,-552.113,0,0
290370,90.029,-551.253,0,0
290630,89.6418,-550.353,0,0
290890,89.2555,-549.475,0,0
291151,88.8245,-548.645,0,0
291411,88.3216,-547.773,0,0
291671,87.963,-546.863,0,0
291932,87.5495,-546.06,0,0
292192,87.1747,-545.236,0,0
292452,86.7694,-544.499,0,0
292713,86.2861,-543.623,0,0
292973,85.8965,-542.801,0,0
293233,85.42,-542.006,0,0
293494,84.9058,-541.211,0,0
293754,84.4682,-540.38,0,0
294014,83.9099,-539.552,0,0
294275,83.4088,-538.714,0,0
294535,82.9311,-537.854,0,0
294795,82.4114,-536.964,0,0
295056,81.8881,-536.112,0,0
295316,81.36,-535.151,0,0
295576,80.9108,-534.215,0,0
295837,80.3965,-533.243,0,0
296097,79.9686,-532.323,0,0
296357,79.3895,-531.358,0,0
296618,79.028,-530.302,0,0
296878,78.5803,-529.253,0,0
297138,78.2654,-528.14,0,0
297399,77.9108,-527.147,0,0
297659,77.5739,-526.081,0,0
297919,77.4099,-525.037,0,0
298180,77.1443,-524.094,0,0
298440,76.9653,-523.135,0,0
298700.2,76.7392,-522.212,0,0
298960.525,76.6717,-521.342,0,0
299220.85,76.431,-520.547,0,0
299481.175,76.2747,-519.733,0,0
299741.5,76.0348,-518.896,0,0
300001.825,75.7381,-518.161,0,0
300262.15,75.524,-517.395,0,0
300522.475,75.2288,-516.573,0,0
300782.8,74.9497,-515.788,0,0
301043.125,74.6561,-514.98,0,0
301303.45,74.3844,-514.195,0,0
301563.775,74.0285,-513.401,0,0
301824.1,73.8043,-512.58,0,0
302084.425,73.4863,-511.758,0,0
302344.75,73.2073,-510.938,0,0
302605.075,72.8488,-510.175,0,0
302865.4,72.6258,-509.298,0,0
303125.725,72.3503,-508.456,0,0
303386.05,72.085,-507.598,0,0
303646.375,71.7999,-506.744,0,0
303906.7,71.6166,-505.893,0,0
304167.025,71.4205,-505.086,0,0
304427.35,71.2057,-504.28,0,0
304687.675,70.9874,-503.575,0,0
304948.0,70.7967,-502.712,0,0
305208.325,70.5507,-501.942,0,0
305468.65,70.3932,-501.117,0,0
305728.975,70.2036,-500.383,0,0
305989.3,69.9805,-499.628,0,0
306249.625,69.7714,-498.912,0,0
306509.95,69.5986,-498.244,0,0
306770.275,69.3625,-497.497,0,0
307030.6,69.1119,-496.738,0,0
307290.925,68.887,-496.01,0,0
307551.25,68.6542,-495.287,0,0
307811.575,68.4381,-494.578,0,0
308071.9,68.0816,-493.847,0,0
308332.225,67.8961,-493.05,0,0
308592.55,67.6325,-492.328,0,0
308852.875,67.4065,-491.586,0,0
309113.2,67.144,-490.774,0,0
309373.525,67.0154,-490.136,0,0
309633.85,66.7324,-489.352,0,0
309894.175,66.5263,-488.58,0,0
310154.5,66.3109,-487.852,0,0
310414.825,66.1265,-487.088,0,0
310675.15,65.8724,-486.379,0,0
310935.475,65.677,-485.663,0,0
311195.8,65.4853,-484.961,0,0
311456.125,65.2546,-484.278,0,0
311716.45,65.0589,-483.562,0,0
311976.775,64.8547,-482.823,0,0
312237.1,64.6121,-482.074,0,0
312497.425,64.4255,-481.397,0,0
312757.75,64.1554,-480.663,0,0
313018.075,63.9531,-479.964,0,0
313278.4,63.7377,-479.22,0,0
313538.725,63.5244,-478.493,0,0
313799.05,63.3488,-477.757,0,0
314059.375,63.1265,-477.07,0,0
314319.7,62.873,-476.369,0,0
314580,62.6894,-475.626,0,0
314840,62.5155,-474.909,0,0
315101,62.2741,-474.204,0,0
315361,62.0865,-473.513,0,0
315621,61.9198,-472.758,0,0
315882,61.7245,-472.099,0,0
316142,61.5094,-471.334,0,0
316402,61.3603,-470.652,0,0
316663,61.1793,-469.945,0,0
316923,60.9785,-469.265,0,0
317183,60.8423,-468.545,0,0
317444,60.6319,-467.89,0,0
317704,60.4105,-467.172,0,0
317964,60.2727,-466.513,0,0
318225,60.0485,-465.728,0,0
318485,59.8511,-465.024,0,0
318745,59.7401,-464.352,0,0
319006,59.521,-463.634,0,0
319266,59.3746,-462.979,0,0
319526,59.1519,-462.222,0,0
319787,59.0135,-461.572,0,0
320047,58.859,-460.823,0,0
320307,58.7188,-460.111,0,0
320567,58.5816,-459.44,0,0
320828,58.4187,-458.774,0,0
321088,58.2597,-458.064,0,0
321348,58.1198,-457.339,0,0
321609,57.9474,-456.685,0,0
321869,57.7729,-456.019,0,0
322129,57.6704,-455.352,0,0
322390,57.5287,-454.631,0,0
322650,57.46,-454.014,0,0
322910,57.2742,-453.346,0,0
323171,57.1388,-452.698,0,0
323431,56.9973,-452.056,0,0
323691,56.8873,-451.385,0,0
323952,56.7423,-450.759,0,0
324212,56.5811,-450.076,0,0
324472,56.4932,-449.417,0,0
324733,56.3141,-448.777,0,0
324993,56.1439,-448.167,0,0
325253,56.007,-447.456,0,0
325514,55.8698,-446.817,0,0
325774,55.7165,-446.145,0,0
326034,55.5533,-445.539,0,0
326295,55.4216,-444.907,0,0
326555,55.25,-444.221,0,0
326815,55.1198,-443.574,0,0
327076,54.9842,-442.907,0,0
327336,54.8348,-442.245,0,0
327596,54.7116,-441.59,0,0
327857,54.5615,-440.918,0,0
328117,54.3948,-440.284,0,0
328377,54.2512,-439.596,0,0
328638,54.1726,-438.93,0,0
328898,54.0349,-438.307,0,0
329158,53.8941,-437.584,0,0
329419,53.7979,-436.942,0,0
329679,53.7063,-436.284,0,0
329939,53.5469,-435.607,0,0
330200,53.4622,-434.975,0,0
330460,53.3816,-434.273,0,0
330720.15,53.2407,-433.6,0,0
330980.475,53.1661,-433.013,0,0
331240.8,53.0605,-432.309,0,0
331501.125,52.9945,-431.662,0,0
331761.45,52.8535,-430.993,0,0
332021.775,52.7905,-430.384,0,0
332282.1,52.6824,-429.747,0,0
332542.425,52.6509,-429.115,0,0
332802.75,52.5517,-428.415,0,0
333063.075,52.4809,-427.864,0,0
333323.4,52.4377,-427.191,0,0
333583.725,52.3041,-426.591,0,0
333844.05,52.2492,-425.913,0,0
334104.375,52.147,-425.289,0,0
334364.7,52.0725,-424.634,0,0
334625.025,52.0179,-424.011,0,0
334885.35,51.9658,-423.417,0,0
335145.675,51.8778,-422.801,0,0
335406.0,51.7645,-422.167,0,0
335666.325,51.7247,-421.573,0,0
335926.65,51.692,-421.035,0,0
336186.975,51.6425,-420.316,0,0
336447.3,51.5615,-419.77,0,0
336707.625,51.466,-419.115,0,0
336967.95,51.4214,-418.539,0,0
337228.275,51.339,-417.934,0,0
337488.6,51.28,-417.32,0,0
337748.925,51.2177,-416.688,0,0
338009.25,51.1169,-416.117,0,0
338269.575,51.0924,-415.493,0,0
338529.9,50.9881,-414.946,0,0
338790.225,50.9221,-414.33,0,0
339050.55,50.8529,-413.7,0,0
339310.875,50.828,-413.07,0,0
339571.2,50.7619,-412.466,0,0
339831.525,50.7012,-411.883,0,0
340091.85,50.7159,-411.25,0,0
340352.175,50.6253,-410.62,0,0
340612.5,50.595,-410.052,0,0
340872.825,50.4648,-409.379,0,0
341133.15,50.5079,-408.788,0,0
341393.475,50.4695,-408.192,0,0
341653.8,50.4219,-407.604,0,0
341914.125,50.3966,-406.979,0,0
342174.45,50.4145,-406.394,0,0
342434.775,50.3855,-405.804,0,0
342695.1,50.4237,-405.183,0,0
342955.425,50.4408,-404.615,0,0
343215.75,50.4241,-404.068,0,0
343476.075,50.4018,-403.484,0,0
343736.4,50.4531,-402.964,0,0
343996.725,50.4,-402.408,0,0
344257.05,50.3708,-401.914,0,0
344517.375,50.3358,-401.321,0,0
344777.7,50.3141,-400.822,0,0
345038.025,50.2839,-400.272,0,0
345298.35,50.2376,-399.751,0,0
345558.675,50.1879,-399.143,0,0
345819.0,50.1175,-398.608,0,0
346079.325,50.1363,-398.05,0,0
346339.65,50.0696,-397.43,0,0
346599.975,50.0698,-396.896,0,0
346860,50.0942,-396.302,0,0
347121,50.072,-395.748,0,0
347381,50.0544,-395.155,0,0
347641,50.043,-394.598,0,0
347902,50.0778,-394.018,0,0
348162,50.0897,-393.506,0,0
348422,50.0686,-392.937,0,0
348683,50.0945,-392.373,0,0
348943,50.1267,-391.835,0,0
349203,50.1591,-391.305,0,0
349464,50.1766,-390.735,0,0
349724,50.1813,-390.232,0,0
349984,50.2273,-389.742,0,0
350245,50.2863,-389.204,0,0
350505,50.2998,-388.686,0,0
350765,50.3296,-388.182,0,0
351025,50.3338,-387.682,0,0
351286,50.3472,-387.155,0,0
351546,50.3696,-386.688,0,0
351806,50.4108,-386.18,0,0
352067,50.4537,-385.679,0,0
352327,50.4529,-385.218,0,0
352587,50.4886,-384.764,0,0
352848,50.5264,-384.252,0,0
353108,50.5483,-383.805,0,0
353368,50.583,-383.366,0,0
353629,50.6038,-382.857,0,0
353889,50.5929,-382.421,0,0
354149,50.6048,-381.99,0,0
354410,50.6442,-381.538,0,0
354670,50.6224,-381.092,0,0
354930,50.611,-380.698,0,0
355191,50.5889,-380.197,0,0
355451,50.6017,-379.773,0,0
355711,50.5651,-379.353,0,0
355972,50.531,-378.953,0,0
356232,50.5334,-378.516,0,0
356492,50.4771,-378.049,0,0
356753,50.4333,-377.597,0,0
357013,50.386,-377.155,0,0
357273,50.3305,-376.687,0,0
357534,50.3053,-376.272,0,0
357794,50.2463,-375.785,0,0
358054,50.2359,-375.309,0,0
358315,50.1934,-374.844,0,0
358575,50.1272,-374.383,0,0
358835,50.1251,-373.936,0,0
359096,50.0731,-373.475,0,0
359356,50.0063,-373.022,0,0
359616,49.9887,-372.565,0,0
359877,49.9291,-372.14,0,0
360137,49.8988,-371.658,0,0
360397,49.8465,-371.17,0,0
360658,49.7797,-370.763,0,0
360918,49.7385,-370.295,0,0
361178,49.6992,-369.82,0,0
361438,49.6123,-369.333,0,0
361699,49.5468,-368.873,0,0
361959,49.5044,-368.397,0,0
362219,49.4725,-367.905,0,0
362480,49.4231,-367.441,0,0
362740.1,49.361,-366.98,0,0
363000.425,49.3463,-366.486,0,0
363260.75,49.3008,-366.009,0,0
363521.075,49.263,-365.525,0,0
363781.4,49.2075,-365.016,0,0
364041.725,49.192,-364.513,0,0
364302.05,49.1297,-364.025,0,0
364562.375,49.1166,-363.572,0,0
364822.7,49.0985,-363.023,0,0
365083.025,49.0594,-362.555,0,0
365343.35,49.035,-362.055,0,0
365603.675,49.0266,-361.616,0,0
365864.0,49.0104,-361.113,0,0
366124.325,49.0102,-360.629,0,0
366384.65,49.0255,-360.151,0,0
366644.975,48.9838,-359.684,0,0
366905.3,48.9864,-359.197,0,0
367165.625,48.9798,-358.729,0,0
367425.95,48.9759,-358.248,0,0
367686.275,48.9562,-357.79,0,0
367946.6,48.9333,-357.35,0,0
368206.925,48.9415,-356.838,0,0
368467.25,48.9279,-356.422,0,0
368727.575,48.8962,-355.954,0,0
368987.9,48.8659,-355.489,0,0
369248.225,48.8612,-355.028,0,0
369508.55,48.8441,-354.55,0,0
369768.875,48.845,-354.05,0,0
370029.2,48.8161,-353.598,0,0
370289.525,48.8073,-353.144,0,0
370549.85,48.8125,-352.669,0,0
370810.175,48.82,-352.208,0,0
371070.5,48.8246,-351.741,0,0
371330.825,48.8402,-351.231,0,0
371591.15,48.8422,-350.807,0,0
371851.475,48.8927,-350.353,0,0
372111.8,48.8863,-349.867,0,0
372372.125,48.9417,-349.459,0,0
372632.45,48.9313,-349.008,0,0
372892.775,48.9674,-348.584,0,0
373153.1,48.9923,-348.152,0,0
373413.425,49.0183,-347.773,0,0
373673.75,49.0035,-347.377,0,0
373934.075,49.0451,-347,0,0
374194.4,49.0113,-346.608,0,0
374454.725,48.9523,-346.211,0,0
374715.05,48.9179,-345.832,0,0
374975.375,48.8628,-345.444,0,0
375235.7,48.7797,-345.085,0,0
375496.025,48.6964,-344.657,0,0
375756.35,48.6352,-344.228,0,0
376016.675,48.5498,-343.769,0,0
376277.0,48.4612,-343.351,0,0
376537.325,48.3817,-342.873,0,0
376797.65,48.2892,-342.427,0,0
377057.975,48.2335,-341.994,0,0
377318.3,48.1576,-341.532,0,0
377578.625,48.1113,-341.077,0,0
377838.95,48.0355,-340.557,0,0
378099.275,47.9732,-340.115,0,0
378359.6,47.9084,-339.594,0,0
378619.925,47.8655,-339.12,0,0
378880,47.7944,-338.639,0,0
379141,47.7418,-338.142,0,0
379401,47.706,-337.658,0,0
379661,47.6383,-337.168,0,0
379922,47.5743,-336.69,0,0
380182,47.5474,-336.159,0,0
380442,47.4856,-335.648,0,0
380703,47.4128,-335.116,0,0
380963,47.4018,-334.622,0,0
381223,47.4015,-334.062,0,0
381483,47.3677,-333.543,0,0
381744,47.4072,-333.029,0,0
382004,47.3811,-332.481,0,0
382264,47.3889,-331.935,0,0
382525,47.4555,-331.411,0,0
382785,47.4708,-330.916,0,0
383045,47.5677,-330.472,0,0
383306,47.6459,-329.938,0,0
383566,47.6705,-329.547,0,0
383826,47.7117,-329.148,0,0
384087,47.6979,-328.756,0,0
384347,47.6875,-328.307,0,0
384607,47.6581,-327.884,0,0
384868,47.6644,-327.421,0,0
385128,47.5819,-326.977,0,0
385388,47.5612,-326.493,0,0
385649,47.5135,-326.03,0,0
385909,47.4899,-325.546,0,0
386169,47.4426,-325.046,0,0
386430,47.4457,-324.563,0,0
386690,47.4068,-324.071,0,0
386950,47.3915,-323.571,0,0
387211,47.3791,-323.086,0,0
387471,47.3181,-322.605,0,0
387731,47.3548,-322.111,0,0
387992,47.3335,-321.603,0,0
388252,47.3214,-321.09,0,0
388512,47.2995,-320.598,0,0
388773,47.3205,-320.107,0,0
389033,47.2927,-319.609,0,0
389293,47.2647,-319.085,0,0
389554,47.2882,-318.585,0,0
389814,47.2962,-318.113,0,0
390074,47.2918,-317.546,0,0
390335,47.2893,-317.055,0,0
390595,47.3084,-316.555,0,0
390855,47.2898,-316.027,0,0
391116,47.278,-315.536,0,0
391376,47.2999,-315.042,0,0
391636,47.3064,-314.514,0,0
391896,47.3188,-314.042,0,0
392157,47.3286,-313.525,0,0
392417,47.3327,-312.981,0,0
392677,47.3347,-312.456,0,0
392938,47.3534,-311.962,0,0
393198,47.3956,-311.426,0,0
393458,47.4148,-310.914,0,0
393719,47.3957,-310.386,0,0
393979,47.4329,-309.859,0,0
394239,47.433,-309.349,0,0
394500,47.4626,-308.818,0,0
394760.05,47.4919,-308.296,0,0
395020.375,47.5194,-307.773,0,0
395280.7,47.547,-307.237,0,0
395541.025,47.5446,-306.715,0,0
395801.35,47.5861,-306.201,0,0
396061.675,47.6513,-305.656,0,0
396322.0,47.6606,-305.104,0,0
396582.325,47.702,-304.593,0,0
396842.65,47.7441,-304.059,0,0
397102.975,47.7529,-303.52,0,0
397363.3,47.7957,-302.978,0,0
397623.625,47.8397,-302.457,0,0
397883.95,47.8772,-301.895,0,0
398144.275,47.9424,-301.381,0,0
398404.6,47.9875,-300.816,0,0
398664.925,48.0266,-300.29,0,0
398925.25,48.0901,-299.731,0,0
399185.575,48.1267,-299.206,0,0
399445.9,48.1757,-298.645,0,0
399706.225,48.2514,-298.087,0,0
399966.55,48.3296,-297.548,0,0
400006.6,48.3179,-297.475,0,0