File: Accelerated corrosion test data/2025-10-13_18-00-03/sample_3.csv
Frequency (Hz),Impedance (ohms),Phase (Radians),Temperature (C),Humidity (%)
10000.0,252.484,-11749.3,0,0
10260.325,246.407,-11453.3,0,0
10520.65,240.862,-11172.1,0,0
10780.975,237.093,-10902.4,0,0
11041.3,230.347,-10652.1,0,0
11301.625,225.103,-10407.5,0,0
11561.95,220.252,-10174,0,0
11822.275,215.604,-9951.86,0,0
12082.6,213.072,-9739.55,0,0
12342.925,211.095,-9534.55,0,0
12603.25,204.351,-9340.57,0,0
12863.575,200.317,-9151.61,0,0
13123.9,201.356,-8969.21,0,0
13384.225,193.387,-8800.81,0,0
13644.55,190.447,-8634.1,0,0
13904.875,186.504,-8470.91,0,0
14165.2,187.351,-8314.72,0,0
14425.525,181.191,-8165.17,0,0
14685.8,178.875,-8021.39,0,0
14946.175,176.463,-7883.25,0,0
15206.5,174.431,-7743.25,0,0
15466.825,182.763,-7604.34,0,0
15727.15,194.528,-7505.41,0,0
15987.5,171.77,-7390.19,0,0
16247.8,168.637,-7262.11,0,0
16508.125,162.048,-7150.07,0,0
16768.45,168.876,-7031.34,0,0
17028.775,157.98,-6932.32,0,0
17289.1,162.827,-6820.18,0,0
17549.425,156.916,-6728.67,0,0
17809.75,157.448,-6624.56,0,0
18070.075,161.879,-6539.44,0,0
18330.4,151.885,-6444.15,0,0
18590.725,148.874,-6353.26,0,0
18851.05,145.439,-6263.17,0,0
19111.375,147.208,-6174.9,0,0
19371.7,145.545,-6091.44,0,0
19632.025,146.752,-6007.47,0,0
19892.35,149.18,-5926.68,0,0
20152.675,149.676,-5853.07,0,0
20413.0,160.514,-5778.34,0,0
20673.3,166.312,-5707.37,0,0
20933.65,160.683,-5657.25,0,0
21193.975,160.44,-5591.56,0,0
21454.3,143.821,-5529.01,0,0
21714.625,139.228,-5453.92,0,0
21974.9,141.91,-5390.11,0,0
22235.275,139.062,-5331.69,0,0
22495.6,137.377,-5269.63,0,0
22755.925,129.869,-5208.84,0,0
23016.25,128.29,-5150.17,0,0
23276.6,128.698,-5088.09,0,0
23536.9,128.107,-5042.82,0,0
23797.225,121.465,-4984.35,0,0
24057.55,119.707,-4927.17,0,0
24317.875,120.171,-4872.5,0,0
24578.2,117.26,-4822.39,0,0
24838.525,119.008,-4769.94,0,0
25098.85,116.005,-4722.79,0,0
25359.175,114.028,-4673.01,0,0
25619.5,113.498,-4626.08,0,0
25879.8,110.982,-4579.5,0,0
26140.1,109.12,-4531.66,0,0
26400.5,108.587,-4485.36,0,0
26660.8,108.008,-4440.35,0,0
26921.1,108.768,-4396.57,0,0
27181.4,108.669,-4356.02,0,0
27441.8,108.553,-4312.54,0,0
27702.1,107.903,-4273.27,0,0
27962.4,105.753,-4233.43,0,0
28222.7,104.198,-4189.58,0,0
28483.1,112.915,-4149.42,0,0
28743.4,113.97,-4115.24,0,0
29003.7,114.447,-4084.75,0,0
29264,107.849,-4050.2,0,0
29524.4,108.562,-4014.53,0,0
29784.7,104.365,-3978.92,0,0
30045,102.386,-3945.27,0,0
30305.3,101.076,-3907.84,0,0
30565.7,102.083,-3874.27,0,0
30826,101.387,-3842.61,0,0
31086.3,102.679,-3810.34,0,0
31346.6,98.4845,-3779.35,0,0
31607,97.7407,-3745.76,0,0
31867.3,98.4923,-3711.58,0,0
32127.6,102.12,-3678.03,0,0
32387.9,110.195,-3650.78,0,0
32648.3,112.241,-3633.92,0,0
32908.6,103.647,-3608.03,0,0
33168.9,101.376,-3580.37,0,0
33429.2,99.3325,-3554.99,0,0
33689.6,93.4885,-3526.61,0,0
33949.9,91.1865,-3496.88,0,0
34210.2,90.9983,-3469.64,0,0
34470.5,90.3354,-3443.52,0,0
34730.9,88.1141,-3416.92,0,0
34991.2,86.8925,-3390.31,0,0
35251.5,86.0565,-3364.58,0,0
35511.8,85.199,-3339.49,0,0
35772.2,84.6215,-3314.34,0,0
36032.5,83.4399,-3289.58,0,0
36292.8,83.2195,-3265.27,0,0
36553.1,82.7061,-3241.8,0,0
36813.5,81.9875,-3218.47,0,0
37073.8,81.2777,-3195.59,0,0
37334.1,80.9161,-3172.29,0,0
37594.4,80.254,-3149.85,0,0
37854.8,79.7881,-3127.63,0,0
38115.1,79.1613,-3105.8,0,0
38375.4,78.4997,-3084.12,0,0
38635.7,78.346,-3062.71,0,0
38896.1,78.0327,-3041.72,0,0
39156.4,77.6209,-3021.12,0,0
39416.7,77.1984,-3000.94,0,0
39677,76.6527,-2980.72,0,0
39937.4,76.1609,-2960.52,0,0
40197.7,75.6402,-2940.5,0,0
40458,75.2706,-2921.42,0,0
40718.3,74.9589,-2902.15,0,0
40978.7,74.489,-2882.94,0,0
41239,74.4931,-2864.09,0,0
41499.3,74.4004,-2845.71,0,0
41759.6,74.8224,-2827.63,0,0
42020,74.1296,-2809.81,0,0
42280.275,73.872,-2792.28,0,0
42540.6,73.4501,-2774.46,0,0
42800.925,73.3038,-2757.46,0,0
43061.25,72.8284,-2740.48,0,0
43321.575,72.3183,-2723.16,0,0
43581.9,71.9734,-2706.29,0,0
43842.225,72.0401,-2689.41,0,0
44102.55,72.3085,-2672.93,0,0
44362.875,71.9921,-2657.63,0,0
44623.2,71.5899,-2641.45,0,0
44883.525,71.3983,-2625.67,0,0
45143.85,70.9134,-2610.01,0,0
45404.175,70.5337,-2594.63,0,0
45664.5,70.4344,-2578.76,0,0
45924.825,71.4102,-2563.9,0,0
46185.15,70.149,-2549.56,0,0
46445.475,69.8575,-2534.39,0,0
46705.8,70.2498,-2519.48,0,0
46966.125,70.1796,-2505.3,0,0
47226.45,69.8092,-2491.05,0,0
47486.775,69.7065,-2476.29,0,0
47747.1,70.7468,-2462.26,0,0
48007.425,70.5018,-2449.43,0,0
48267.75,70.4786,-2436.37,0,0
48528.075,69.8142,-2423.13,0,0
48788.4,69.3791,-2410.09,0,0
49048.725,68.712,-2396.95,0,0
49309.05,67.9877,-2383.49,0,0
49569.375,68.1827,-2370.22,0,0
49829.7,67.8245,-2357.49,0,0
50090.025,67.2168,-2344.91,0,0
50350.35,66.7988,-2331.98,0,0
50610.675,66.6272,-2318.98,0,0
50871.0,66.6073,-2306.42,0,0
51131.325,66.5698,-2293.98,0,0
51391.65,66.3479,-2281.61,0,0
51651.975,66.4945,-2269.58,0,0
51912.3,66.397,-2257.73,0,0
52172.625,66.1897,-2245.82,0,0
52432.95,66.1483,-2233.54,0,0
52693.275,66.3159,-2221.68,0,0
52953.6,66.7185,-2209.92,0,0
53213.925,67.5264,-2198.41,0,0
53474.25,68.0243,-2187.62,0,0
53734.575,68.1553,-2176.94,0,0
53994.9,68.6241,-2165.97,0,0
54255.225,69.8786,-2155.21,0,0
54515.55,70.3236,-2146.36,0,0
54775.875,69.7475,-2137.03,0,0
55036.2,69.1425,-2127.19,0,0
55296.525,68.215,-2117.83,0,0
55556.85,66.7935,-2108.32,0,0
55817.175,65.5039,-2097.48,0,0
56077.5,64.4729,-2087.18,0,0
56337.825,63.6728,-2076.66,0,0
56598.15,62.6006,-2066.1,0,0
56858.475,61.7324,-2055.38,0,0
57118.8,61.4883,-2044.59,0,0
57379.125,61.3332,-2034.16,0,0
57639.45,61.2999,-2023.71,0,0
57899.775,61.3747,-2013.66,0,0
58160.1,61.3498,-2003.61,0,0
58420.4,61.2499,-1993.63,0,0
58680.7,61.2801,-1983.66,0,0
58941.1,61.3959,-1973.92,0,0
59201.4,61.6319,-1964.02,0,0
59461.7,61.8906,-1954.49,0,0
59722,62.1991,-1945.18,0,0
59982.4,62.4302,-1935.72,0,0
60242.7,62.6133,-1926.5,0,0
60503,62.8639,-1917.25,0,0
60763.3,63.2472,-1907.99,0,0
61023.7,63.5582,-1898.81,0,0
61284,64.0213,-1889.92,0,0
61544.3,64.6216,-1880.91,0,0
61804.6,65.0159,-1872.52,0,0
62065,65.395,-1863.41,0,0
62325.3,65.874,-1854.64,0,0
62585.6,66.3167,-1845.86,0,0
62845.9,67.2188,-1836.91,0,0
63106.3,68.3611,-1828.48,0,0
63366.6,69.0033,-1819.92,0,0
63626.9,70.2879,-1811.15,0,0
63887.2,71.4098,-1802.88,0,0
64147.6,73.278,-1794.05,0,0
64407.9,75.8741,-1786.08,0,0
64668.2,77.9977,-1778.78,0,0
64928.5,81.1989,-1771.11,0,0
65188.9,84.5848,-1765.53,0,0
65449.2,87.3782,-1760.63,0,0
65709.5,89.7572,-1756.06,0,0
65969.8,92.9066,-1754.49,0,0
66230.2,90.9614,-1754.54,0,0
66490.5,85.7218,-1751.26,0,0
66750.8,80.5633,-1744.53,0,0
67011.1,78.2222,-1736.39,0,0
67271.5,75.6706,-1728.26,0,0
67531.8,74.9875,-1719.48,0,0
67792.1,74.991,-1711.74,0,0
68052.4,75.3052,-1703.83,0,0
68312.8,76.3812,-1697.45,0,0
68573.1,75.84,-1691.06,0,0
68833.4,76.2467,-1684.28,0,0
69093.7,76.7764,-1677.85,0,0
69354.1,77.2677,-1672.45,0,0
69614.4,76.855,-1667.68,0,0
69874.7,75.7697,-1661.95,0,0
70135,74.6318,-1656.22,0,0
70395.4,73.6041,-1650.25,0,0
70655.7,72.5131,-1644.09,0,0
70916,71.2384,-1637.57,0,0
71176.3,70.5676,-1630.87,0,0
71436.7,69.7653,-1624.53,0,0
71697,69.024,-1617.45,0,0
71957.3,69.1987,-1610.71,0,0
72217.6,69.1894,-1604.55,0,0
72478,69.2628,-1598.5,0,0
72738.3,69.3251,-1592.95,0,0
72998.6,68.9266,-1587.49,0,0
73258.9,68.3323,-1581.65,0,0
73519.3,67.8991,-1575.94,0,0
73779.6,67.4906,-1570.4,0,0
74039.9,66.7612,-1564.79,0,0
74300.225,66.0413,-1559.16,0,0
74560.55,65.3815,-1553.4,0,0
74820.875,64.6345,-1547.69,0,0
75081.2,63.8301,-1541.9,0,0
75341.525,63.1572,-1536.18,0,0
75601.85,62.4409,-1530.35,0,0
75862.175,61.6998,-1524.47,0,0
76122.5,61.0515,-1518.62,0,0
76382.825,60.438,-1512.67,0,0
76643.15,59.9199,-1506.85,0,0
76903.475,59.4521,-1501.03,0,0
77163.8,58.9155,-1495.21,0,0
77424.125,58.4942,-1489.61,0,0
77684.45,57.9938,-1483.86,0,0
77944.775,57.5118,-1478.19,0,0
78205.1,57.1197,-1472.42,0,0
78465.425,56.7111,-1466.78,0,0
78725.75,56.2468,-1461.1,0,0
78986.075,55.9164,-1455.43,0,0
79246.4,55.5301,-1449.83,0,0
79506.725,55.1529,-1444.25,0,0
79767.05,54.8703,-1438.64,0,0
80027.375,54.6755,-1433.04,0,0
80287.7,54.4316,-1427.57,0,0
80548.025,54.1981,-1422.07,0,0
80808.35,53.9742,-1416.61,0,0
81068.675,53.7822,-1411.23,0,0
81329.0,53.6295,-1405.78,0,0
81589.325,53.4332,-1400.42,0,0
81849.65,53.3271,-1395.11,0,0
82109.975,53.1994,-1389.84,0,0
82370.3,53.0616,-1384.54,0,0
82630.625,53.0285,-1379.22,0,0
82890.95,52.9483,-1374.08,0,0
83151.275,52.8829,-1368.89,0,0
83411.6,52.776,-1363.77,0,0
83671.925,52.712,-1358.63,0,0
83932.25,52.7134,-1353.55,0,0
84192.575,52.6934,-1348.55,0,0
84452.9,52.6226,-1343.52,0,0
84713.225,52.5477,-1338.45,0,0
84973.55,52.5651,-1333.47,0,0
85233.875,52.696,-1328.57,0,0
85494.2,52.6522,-1323.62,0,0
85754.525,52.6816,-1318.75,0,0
86014.85,52.7624,-1313.88,0,0
86275.175,52.7002,-1309.03,0,0
86535.5,52.826,-1304.28,0,0
86795.825,52.8291,-1299.38,0,0
87056.15,52.791,-1294.65,0,0
87316.475,52.973,-1289.76,0,0
87576.8,53.1067,-1285.02,0,0
87837.125,53.2732,-1280.3,0,0
88097.45,53.3215,-1275.68,0,0
88357.775,53.472,-1270.95,0,0
88618.1,53.5854,-1266.2,0,0
88878.425,53.8933,-1261.36,0,0
89138.75,54.2307,-1256.61,0,0
89399.075,54.8027,-1251.98,0,0
89659.4,55.3127,-1247.46,0,0
89919.725,55.7967,-1243.26,0,0
90180,56.336,-1238.95,0,0
90440.4,56.6146,-1234.73,0,0
90700.7,56.9753,-1230.47,0,0
90961,57.4725,-1226.28,0,0
91221.3,57.9725,-1222.04,0,0
91481.7,58.4186,-1217.97,0,0
91742,58.8706,-1213.92,0,0
92002.3,59.36,-1209.82,0,0
92262.6,60.0656,-1205.85,0,0
92523,60.6238,-1202.15,0,0
92783.3,61.1173,-1198.66,0,0
93043.6,61.5364,-1194.87,0,0
93303.9,62.1808,-1191.29,0,0
93564.3,62.7572,-1187.99,0,0
93824.6,63.4264,-1184.86,0,0
94084.9,63.7502,-1182.49,0,0
94345.2,63.2975,-1179.78,0,0
94605.6,62.9429,-1176.92,0,0
94865.9,62.1861,-1174.2,0,0
95126.2,60.7872,-1171.18,0,0
95386.5,59.352,-1167.23,0,0
95646.9,58.5176,-1163.07,0,0
95907.2,57.5709,-1159.09,0,0
96167.5,56.8066,-1154.55,0,0
96427.8,56.6573,-1150.07,0,0
96688.2,56.481,-1145.95,0,0
96948.5,56.4171,-1141.87,0,0
97208.8,56.3447,-1137.81,0,0
97469.1,56.3511,-1133.84,0,0
97729.5,56.2632,-1129.94,0,0
97989.8,56.1324,-1126.03,0,0
98250.1,56.1059,-1122.1,0,0
98510.4,56.1255,-1118.22,0,0
98770.8,56.1023,-1114.48,0,0
99031.1,55.9744,-1110.79,0,0
99291.4,55.8077,-1106.97,0,0
99551.7,55.6547,-1103.1,0,0
99812.1,55.5568,-1099.24,0,0
100072,55.4129,-1095.37,0,0
100333,55.3584,-1091.49,0,0
100593,55.2446,-1087.57,0,0
100853,55.1377,-1083.54,0,0
101114,55.1831,-1079.53,0,0
101374,55.263,-1075.47,0,0
101634,55.4329,-1071.35,0,0
101895,55.7748,-1067.29,0,0
102155,56.0968,-1063.19,0,0
102415,56.7219,-1059.04,0,0
102676,57.6522,-1055.22,0,0
102936,58.5586,-1051.74,0,0
103196,59.2165,-1048.46,0,0
103457,59.7036,-1045.03,0,0
103717,60.2902,-1041.59,0,0
103977,61.0711,-1038.06,0,0
104238,62.2061,-1034.98,0,0
104498,63.1013,-1032.45,0,0
104758,63.3995,-1030.06,0,0
105019,63.4159,-1027.5,0,0
105279,63.3787,-1024.7,0,0
105539,63.5111,-1021.81,0,0
105800,63.5217,-1019.18,0,0
106060,63.2346,-1016.5,0,0
106320.175,62.8727,-1013.64,0,0
106580.5,62.4956,-1010.69,0,0
106840.825,61.9648,-1007.71,0,0
107101.15,61.5052,-1004.36,0,0
107361.475,61.178,-1001.14,0,0
107621.8,60.7814,-997.832,0,0
107882.125,60.4383,-994.435,0,0
108142.45,60.1537,-991.051,0,0
108402.775,59.7853,-987.695,0,0
108663.1,59.3513,-984.141,0,0
108923.425,59.0723,-980.376,0,0
109183.75,59.0391,-976.604,0,0
109444.075,59.0419,-972.998,0,0
109704.4,59.088,-969.406,0,0
109964.725,59.044,-965.73,0,0
110225.05,59.1498,-961.933,0,0
110485.375,59.4665,-958.041,0,0
110745.7,59.9564,-954.373,0,0
111006.025,60.6173,-950.949,0,0
111266.35,61.1739,-947.671,0,0
111526.675,61.4133,-944.208,0,0
111787.0,62.0743,-940.909,0,0
112047.325,62.5861,-937.637,0,0
112307.65,63.0853,-934.516,0,0
112567.975,63.4563,-931.467,0,0
112828.3,63.8179,-928.299,0,0
113088.625,64.1314,-925.16,0,0
113348.95,64.4781,-922.067,0,0
113609.275,64.7433,-918.826,0,0
113869.6,65.0284,-915.646,0,0
114129.925,65.3297,-912.426,0,0
114390.25,65.5726,-909.112,0,0
114650.575,65.9672,-905.746,0,0
114910.9,66.4584,-902.411,0,0
115171.225,67.0053,-899.041,0,0
115431.55,67.6087,-895.719,0,0
115691.875,68.3268,-892.466,0,0
115952.2,68.9269,-889.228,0,0
116212.525,69.579,-885.899,0,0
116472.85,70.4457,-882.513,0,0
116733.175,71.4997,-879.367,0,0
116993.5,72.4057,-876.375,0,0
117253.825,73.1535,-873.288,0,0
117514.15,74.1425,-869.812,0,0
117774.475,75.726,-866.518,0,0
118034.8,77.3377,-863.829,0,0
118295.125,78.8435,-861.289,0,0
118555.45,80.2564,-859.045,0,0
118815.775,81.2797,-856.699,0,0
119076.1,82.4963,-854.193,0,0
119336.425,84.0687,-851.708,0,0
119596.75,85.928,-849.676,0,0
119857.075,87.7544,-848.362,0,0
120117.4,89.0528,-847.736,0,0
120377.725,89.4658,-846.946,0,0
120638.05,89.7559,-845.852,0,0
120898.375,89.6414,-844.907,0,0
121158.7,89.2474,-843.688,0,0
121419.025,88.4173,-842.293,0,0
121679.35,87.364,-840.182,0,0
121939.675,86.6309,-837.453,0,0
122200.0,86.4879,-834.643,0,0
122460,86.524,-832.006,0,0
122721,86.5941,-829.346,0,0
122981,86.9691,-826.734,0,0
123241,87.33,-824.498,0,0
123502,87.5056,-822.222,0,0
123762,87.7261,-819.833,0,0
124022,88.067,-817.533,0,0
124283,88.347,-815.341,0,0
124543,88.6086,-813.124,0,0
124803,88.9217,-810.96,0,0
125064,89.2555,-808.872,0,0
125324,89.4054,-806.87,0,0
125584,89.625,-804.856,0,0
125845,89.8047,-802.93,0,0
126105,89.8519,-801.096,0,0
126365,89.697,-799.244,0,0
126626,89.4565,-797.259,0,0
126886,89.2167,-795.235,0,0
127146,89.0351,-793.074,0,0
127406,88.6328,-791.054,0,0
127667,88.4462,-788.971,0,0
127927,88.03,-786.829,0,0
128187,87.4892,-784.595,0,0
128448,86.9111,-782.094,0,0
128708,86.5058,-779.426,0,0
128968,86.2711,-776.769,0,0
129229,86.0635,-774.127,0,0
129489,85.8993,-771.541,0,0
129749,85.7018,-768.802,0,0
130010,85.7251,-765.901,0,0
130270,86.0726,-763.155,0,0
130530,86.4576,-760.689,0,0
130791,86.7922,-758.435,0,0
131051,86.999,-756.296,0,0
131311,87.0379,-754.154,0,0
131572,86.9695,-752.055,0,0
131832,86.736,-749.89,0,0
132092,86.4704,-747.622,0,0
132353,86.2199,-745.16,0,0
132613,86.1578,-742.62,0,0
132873,86.1487,-740.282,0,0
133134,86.0318,-737.977,0,0
133394,85.8754,-735.727,0,0
133654,85.5691,-733.44,0,0
133915,85.1659,-731.018,0,0
134175,84.8449,-728.479,0,0
134435,84.6162,-725.955,0,0
134696,84.2844,-723.521,0,0
134956,83.8177,-720.899,0,0
135216,83.5566,-718.104,0,0
135477,83.4142,-715.447,0,0
135737,83.1299,-712.915,0,0
135997,82.6957,-710.222,0,0
136258,82.2621,-707.312,0,0
136518,81.9354,-704.262,0,0
136778,81.7508,-701.163,0,0
137039,81.7791,-698.103,0,0
137299,81.9016,-695.028,0,0
137559,82.1252,-692.042,0,0
137819,82.3331,-689.177,0,0
138080,82.5722,-686.31,0,0
138340.125,82.9644,-683.499,0,0
138600.45,83.3014,-680.985,0,0
138860.775,83.4125,-678.595,0,0
139121.1,83.2788,-676.122,0,0
139381.425,83.0835,-673.459,0,0
139641.75,82.8847,-670.702,0,0
139902.075,82.7025,-667.742,0,0
140162.4,82.7377,-664.724,0,0
140422.725,82.8963,-661.888,0,0
140683.05,82.932,-659.196,0,0
140943.375,82.8232,-656.437,0,0
141203.7,82.6415,-653.631,0,0
141464.025,82.3832,-650.715,0,0
141724.35,82.0717,-647.619,0,0
141984.675,81.9147,-644.358,0,0
142245.0,81.8759,-641.128,0,0
142505.325,81.8,-637.896,0,0
142765.65,81.7526,-634.578,0,0
143025.975,81.7922,-631.196,0,0
143286.3,81.8187,-627.785,0,0
143546.625,81.9321,-624.293,0,0
143806.95,82.1474,-620.836,0,0
144067.275,82.321,-617.373,0,0
144327.6,82.5441,-613.827,0,0
144587.925,82.8309,-610.226,0,0
144848.25,83.2026,-606.602,0,0
145108.575,83.6272,-602.99,0,0
145368.9,84.0605,-599.395,0,0
145629.225,84.4998,-595.789,0,0
145889.55,84.9109,-592.057,0,0
146149.875,85.4445,-588.203,0,0
146410.2,86.107,-584.375,0,0
146670.525,86.8113,-580.542,0,0
146930.85,87.5419,-576.659,0,0
147191.175,88.3551,-572.711,0,0
147451.5,89.2869,-568.72,0,0
147711.825,90.3142,-564.764,0,0
147972.15,91.3376,-560.753,0,0
148232.475,92.4986,-556.688,0,0
148492.8,93.7897,-552.587,0,0
148753.125,95.2107,-548.535,0,0
149013.45,96.6575,-544.454,0,0
149273.775,98.2409,-540.286,0,0
149534.1,100.053,-536.082,0,0
149794.425,102.114,-532.003,0,0
150054.75,104.234,-528.015,0,0
150315.075,106.574,-524.101,0,0
150575.4,109.081,-520.403,0,0
150835.725,111.592,-516.933,0,0
151096.05,114.052,-513.547,0,0
151356.375,116.566,-510.25,0,0
151616.7,119.095,-507.05,0,0
151877.025,121.701,-503.916,0,0
152137.35,124.383,-500.963,0,0
152397.675,127.001,-498.209,0,0
152658.0,129.584,-495.561,0,0
152918.325,132.116,-493.103,0,0
153178.65,134.46,-490.861,0,0
153438.975,136.498,-488.591,0,0
153699.3,138.332,-486.155,0,0
153959.625,140.298,-483.503,0,0
154219.95,142.4,-481.129,0,0
154480,143.975,-478.918,0,0
154741,145.246,-476.35,0,0
155001,146.408,-473.258,0,0
155261,148.014,-469.65,0,0
155522,150.102,-466.287,0,0
155782,152.172,-462.932,0,0
156042,154.22,-459.714,0,0
156303,156.297,-456.261,0,0
156563,158.376,-452.614,0,0
156823,161.009,-448.638,0,0
157084,164.255,-444.811,0,0
157344,167.91,-441.514,0,0
157604,171.609,-438.971,0,0
157864,175.188,-436.759,0,0
158125,178.303,-435.366,0,0
158385,180.39,-434.217,0,0
158645,181.728,-432.339,0,0
158906,182.727,-429.851,0,0
159166,183.662,-426.921,0,0
159426,184.449,-423.425,0,0
159687,185.014,-418.803,0,0
159947,186.512,-413.136,0,0
160207,189.299,-407.231,0,0
160468,192.817,-401.426,0,0
160728,197.323,-396.117,0,0
160988,201.54,-391.798,0,0
161249,205.04,-386.904,0,0
161509,209.361,-381.004,0,0
161769,215.068,-375.062,0,0
162030,221.447,-370.085,0,0
162290,228.141,-365.3,0,0
162550,235.096,-361.4,0,0
162811,241.664,-357.42,0,0
163071,248.759,-352.992,0,0
163331,257.17,-348.843,0,0
163592,266.064,-345.975,0,0
163852,274.641,-343.532,0,0
164112,283.462,-341.067,0,0
164373,292.864,-338.723,0,0
164633,303.394,-336.916,0,0
164893,315.054,-336.521,0,0
165154,326.4,-338.47,0,0
165414,336.672,-341.262,0,0
165674,346.331,-344.5,0,0
165935,355.815,-347.939,0,0
166195,365.386,-352.442,0,0
166455,374.095,-357.927,0,0
166716,382.29,-363.968,0,0
166976,389.673,-370.588,0,0
167236,395.9,-377.572,0,0
167497,401.489,-384.458,0,0
167757,406.984,-391.14,0,0
168017,412.132,-398.75,0,0
168277,416.209,-406.888,0,0
168538,419.023,-414.628,0,0
168798,422.016,-422.236,0,0
169058,424.755,-430.716,0,0
169319,425.927,-440.364,0,0
169579,424.731,-449.871,0,0
169839,421.403,-457.933,0,0
170100,417.267,-463.791,0,0
170360.075,413.553,-467.869,0,0
170620.4,410.422,-471.121,0,0
170880.725,407.453,-474.013,0,0
171141.05,404.407,-476.042,0,0
171401.375,401.953,-477.03,0,0
171661.7,400.587,-477.862,0,0
171922.025,399.286,-479.031,0,0
172182.35,397.775,-479.72,0,0
172442.675,396.533,-479.452,0,0
172703.0,396.791,-478.398,0,0
172963.325,398.694,-478.116,0,0
173223.65,401.063,-479.255,0,0
173483.975,402.944,-481.486,0,0
173744.3,404.211,-483.951,0,0
174004.625,405.454,-486.231,0,0
174264.95,407.108,-489.238,0,0
174525.275,407.822,-493.323,0,0
174785.6,407.26,-497.021,0,0
175045.925,406.405,-500.051,0,0
175306.25,405.637,-502.333,0,0
175566.575,405.785,-504.615,0,0
175826.9,405.99,-507.776,0,0
176087.225,405.612,-511.499,0,0
176347.55,404.777,-515.132,0,0
176607.875,404.015,-519.347,0,0
176868.2,401.88,-524.722,0,0
177128.525,397.529,-529.296,0,0
177388.85,392.542,-532.115,0,0
177649.175,387.917,-534.111,0,0
177909.5,382.655,-535.921,0,0
178169.825,376.598,-536.204,0,0
178430.15,371.168,-534.69,0,0
178690.475,366.836,-532.338,0,0
178950.8,363.605,-529.679,0,0
179211.125,360.995,-527.092,0,0
179471.45,358.65,-524.24,0,0
179731.775,357.287,-520.888,0,0
179992.1,357.079,-517.97,0,0
180252.425,357.132,-515.708,0,0
180512.75,357.449,-513.684,0,0
180773.075,358.127,-512.151,0,0
181033.4,359.014,-510.863,0,0
181293.725,360.275,-510.149,0,0
181554.05,361.745,-510.265,0,0
181814.375,362.935,-511.647,0,0
182074.7,362.78,-514.112,0,0
182335.025,360.789,-515.976,0,0
182595.35,358.365,-516.746,0,0
182855.675,356.145,-516.768,0,0
183116.0,354.167,-516.836,0,0
183376.325,351.824,-516.956,0,0
183636.65,348.982,-516.746,0,0
183896.975,345.867,-515.869,0,0
184157.3,342.933,-514.2,0,0
184417.625,340.465,-512.408,0,0
184677.95,337.8,-510.63,0,0
184938.275,335.013,-508.196,0,0
185198.6,332.584,-505.39,0,0
185458.925,330.229,-502.349,0,0
185719.25,327.849,-498.851,0,0
185979.575,325.862,-494.671,0,0
186239.9,324.481,-490.096,0,0
186500,323.793,-485.135,0,0
186761,323.894,-480.13,0,0
187021,324.813,-475.699,0,0
187281,326.031,-471.464,0,0
187542,327.471,-467.529,0,0
187802,329.132,-463.947,0,0
188062,331.076,-460.646,0,0
188322,333.432,-457.966,0,0
188583,335.163,-456.15,0,0
188843,336.146,-454.164,0,0
189103,336.763,-451.525,0,0
189364,337.78,-448.429,0,0
189624,339.238,-445.212,0,0
189884,341.002,-442.272,0,0
190145,343.004,-439.638,0,0
190405,344.875,-437.07,0,0
190665,346.627,-434.641,0,0
190926,348.364,-432.216,0,0
191186,350.112,-429.895,0,0
191446,351.552,-427.358,0,0
191707,353.258,-424.412,0,0
191967,355.324,-421.783,0,0
192227,356.993,-419.327,0,0
192488,358.256,-416.339,0,0
192748,359.758,-412.64,0,0
193008,361.865,-408.325,0,0
193269,364.828,-403.956,0,0
193529,368.522,-399.71,0,0
193789,372.631,-395.792,0,0
194050,377.214,-391.97,0,0
194310,382.354,-388.573,0,0
194570,387.733,-385.587,0,0
194831,393.566,-382.9,0,0
195091,399.727,-380.701,0,0
195351,406.265,-379.182,0,0
195612,412.914,-378.411,0,0
195872,419.925,-378.201,0,0
196132,426.684,-378.809,0,0
196393,433.382,-380.411,0,0
196653,439.371,-383.057,0,0
196913,444.229,-386.441,0,0
197174,447.476,-389.725,0,0
197434,450.059,-392.149,0,0
197694,452.677,-393.865,0,0
197955,455.524,-395.397,0,0
198215,458.429,-397.113,0,0
198475,461.149,-399.262,0,0
198735,462.943,-401.389,0,0
198996,464.334,-402.575,0,0
199256,466.232,-403.307,0,0
199516,468.505,-404.439,0,0
199777,470.266,-406.166,0,0
200037,470.935,-407.785,0,0
200297,470.673,-408.389,0,0
200558,470.335,-407.288,0,0
200818,471.149,-404.992,0,0
201078,473.353,-402.62,0,0
201339,476.081,-400.707,0,0
201599,478.952,-398.923,0,0
201859,481.971,-396.928,0,0
202120,485.576,-394.494,0,0
202380.025,490.301,-391.985,0,0
202640.35,495.949,-390.135,0,0
202900.675,502.043,-389.087,0,0
203161.0,508.266,-388.823,0,0
203421.325,514.46,-389.021,0,0
203681.65,520.897,-389.594,0,0
203941.975,527.518,-390.948,0,0
204202.3,533.995,-393.239,0,0
204462.625,539.829,-396.042,0,0
204722.95,545.225,-399.029,0,0
204983.275,550.584,-402.426,0,0
205243.6,555.321,-406.61,0,0
205503.925,558.901,-410.998,0,0
205764.25,561.46,-415.109,0,0
206024.575,563.046,-418.303,0,0
206284.9,564.577,-420.248,0,0
206545.225,566.566,-421.496,0,0
206805.55,568.867,-422.161,0,0
207065.875,572.033,-422.09,0,0
207326.2,576.246,-422.197,0,0
207586.525,580.975,-422.901,0,0
207846.85,585.676,-423.615,0,0
208107.175,591.151,-424.334,0,0
208367.5,597.392,-425.5,0,0
208627.825,603.86,-427.511,0,0
208888.15,610.409,-430.099,0,0
209148.475,617.055,-433.306,0,0
209408.8,623.51,-437.081,0,0
209669.125,629.891,-441.2,0,0
209929.45,636.091,-445.84,0,0
210189.775,642.168,-450.87,0,0
210450.1,648.108,-456.25,0,0
210710.425,653.873,-462.15,0,0
210970.75,659.372,-468.335,0,0
211231.075,664.491,-475.031,0,0
211491.4,668.962,-481.98,0,0
211751.725,672.928,-488.814,0,0
212012.05,676.743,-495.51,0,0
212272.375,680.519,-502.155,0,0
212532.7,684.351,-508.803,0,0
212793.025,688.383,-515.718,0,0
213053.35,692.44,-523.265,0,0
213313.675,696.079,-531.294,0,0
213574.0,699.183,-539.783,0,0
213834.325,701.623,-548.277,0,0
214094.65,703.692,-556.652,0,0
214354.975,705.688,-564.976,0,0
214615.3,707.49,-573.646,0,0
214875.625,708.927,-582.423,0,0
215135.95,709.923,-591.425,0,0
215396.275,710.41,-600.281,0,0
215656.6,710.809,-609.019,0,0
215916.925,710.965,-617.778,0,0
216177.25,711.029,-626.646,0,0
216437.575,711.007,-636.038,0,0
216697.9,710.132,-645.822,0,0
216958.225,708.288,-655.596,0,0
217218.55,705.84,-664.735,0,0
217478.875,703.231,-673.312,0,0
217739.2,700.528,-681.97,0,0
217999.525,697.511,-690.611,0,0
218259.85,693.899,-699.078,0,0
218520,689.974,-707.208,0,0
218780,685.473,-714.729,0,0
219041,680.895,-721.5,0,0
219301,676.891,-727.904,0,0
219561,673.301,-734.172,0,0
219822,669.817,-740.886,0,0
220082,666.146,-748.014,0,0
220342,661.949,-755.056,0,0
220603,657.705,-762.04,0,0
220863,653.101,-769.069,0,0
221123,648.243,-776.043,0,0
221384,643.225,-783.106,0,0
221644,637.864,-790.281,0,0
221904,631.715,-797.831,0,0
222165,624.565,-805.069,0,0
222425,616.994,-811.669,0,0
222685,608.67,-817.671,0,0
222946,599.545,-823.091,0,0
223206,589.961,-827.376,0,0
223466,580.348,-830.359,0,0
223727,571.007,-832.238,0,0
223987,562.072,-833.228,0,0
224247,553.641,-833.263,0,0
224508,546.171,-832.442,0,0
224768,539.824,-831.226,0,0
225028,534.296,-829.764,0,0
225289,529.949,-828.788,0,0
225549,526.267,-828.229,0,0
225809,523.288,-828.207,0,0
226070,520.405,-829.077,0,0
226330,517.31,-830.453,0,0
226590,514.048,-832.108,0,0
226851,510.722,-833.965,0,0
227111,507.647,-836.163,0,0
227371,503.978,-838.992,0,0
227632,499.678,-842.016,0,0
227892,494.917,-844.7,0,0
228152,489.816,-847.316,0,0
228413,484.383,-849.66,0,0
228673,478.812,-851.571,0,0
228933,473.278,-853.136,0,0
229193,467.872,-854.406,0,0
229454,462.526,-855.742,0,0
229714,457.158,-857.075,0,0
229974,451.535,-858.3,0,0
230235,445.964,-859.261,0,0
230495,440.194,-860.266,0,0
230755,434.359,-860.829,0,0
231016,428.631,-861.097,0,0
231276,423.059,-861.117,0,0
231536,417.531,-861.077,0,0
231797,412.192,-860.833,0,0
232057,407.008,-860.642,0,0
232317,401.818,-860.328,0,0
232578,396.596,-859.887,0,0
232838,391.563,-859.485,0,0
233098,386.497,-858.929,0,0
233359,381.491,-858.329,0,0
233619,376.545,-857.758,0,0
233879,371.518,-857.086,0,0
234140,366.563,-856.112,0,0
234400,361.703,-855.106,0,0
234660.3,357.132,-854.03,0,0
234920.625,352.596,-853.074,0,0
235180.95,348.009,-852.317,0,0
235441.275,343.31,-851.485,0,0
235701.6,338.329,-850.561,0,0
235961.925,333.345,-849.519,0,0
236222.25,328.244,-848.15,0,0
236482.575,323.32,-846.58,0,0
236742.9,318.527,-844.897,0,0
237003.225,313.72,-843.375,0,0
237263.55,308.73,-841.699,0,0
237523.875,303.688,-839.761,0,0
237784.2,298.515,-837.529,0,0
238044.525,293.551,-834.975,0,0
238304.85,288.668,-832.123,0,0
238565.175,283.912,-829.077,0,0
238825.5,279.356,-825.571,0,0
239085.825,275.193,-821.908,0,0
239346.15,271.525,-818.256,0,0
239606.475,267.974,-814.583,0,0
239866.8,264.804,-811.008,0,0
240127.125,261.67,-807.522,0,0
240387.45,258.717,-804.14,0,0
240647.775,255.72,-800.663,0,0
240908.1,252.819,-797.092,0,0
241168.425,250.16,-793.392,0,0
241428.75,247.573,-789.583,0,0
241689.075,245.432,-785.623,0,0
241949.4,243.531,-781.81,0,0
242209.725,241.804,-778.06,0,0
242470.05,240.443,-774.496,0,0
242730.375,239.094,-770.993,0,0
242990.7,237.913,-767.585,0,0
243251.025,237.053,-764.247,0,0
243511.35,236.387,-761.193,0,0
243771.675,235.721,-758.549,0,0
244032.0,234.905,-756.004,0,0
244292.325,234.107,-753.675,0,0
244552.65,233.25,-751.414,0,0
244812.975,232.369,-749.217,0,0
245073.3,231.29,-747.033,0,0
245333.625,230.143,-744.961,0,0
245593.95,229.074,-742.725,0,0
245854.275,227.929,-740.427,0,0
246114.6,226.826,-738.18,0,0
246374.925,225.822,-735.724,0,0
246635.25,224.901,-733.343,0,0
246895.575,224.122,-731.048,0,0
247155.9,223.378,-728.833,0,0
247416.225,222.553,-726.692,0,0
247676.55,221.705,-724.426,0,0
247936.875,221.011,-722.061,0,0
248197.2,220.413,-719.739,0,0
248457.525,220.026,-717.47,0,0
248717.85,219.83,-715.296,0,0
248978.175,219.729,-713.322,0,0
249238.5,219.784,-711.629,0,0
249498.825,219.601,-710.18,0,0
249759.15,219.452,-708.928,0,0
250019.475,219.102,-707.778,0,0
250279.8,218.506,-706.819,0,0
250540,217.739,-705.824,0,0
250800,216.768,-704.835,0,0
251061,215.495,-703.789,0,0
251321,214.123,-702.54,0,0
251581,212.711,-701.163,0,0
251842,211.213,-699.676,0,0
252102,209.63,-698.048,0,0
252362,207.916,-696.126,0,0
252623,206.239,-693.974,0,0
252883,204.751,-691.558,0,0
253143,203.426,-689.025,0,0
253404,202.287,-686.427,0,0
253664,201.161,-683.745,0,0
253924,200.145,-680.92,0,0
254185,199.247,-677.93,0,0
254445,198.616,-674.813,0,0
254705,198.153,-671.627,0,0
254966,197.862,-668.476,0,0
255226,197.728,-665.171,0,0
255486,197.964,-661.753,0,0
255747,198.614,-658.388,0,0
256007,199.537,-655.17,0,0
256267,200.772,-652.16,0,0
256528,202.257,-649.396,0,0
256788,203.786,-646.909,0,0
257048,205.415,-644.681,0,0
257309,207.135,-642.666,0,0
257569,208.789,-640.937,0,0
257829,210.344,-639.464,0,0
258090,211.681,-637.882,0,0
258350,212.974,-636.159,0,0
258610,214.397,-634.338,0,0
258871,216.12,-632.351,0,0
259131,218.237,-630.484,0,0
259391,220.805,-628.855,0,0
259651,223.593,-627.595,0,0
259912,226.546,-626.851,0,0
260172,229.501,-626.461,0,0
260432,232.459,-626.394,0,0
260693,235.611,-626.741,0,0
260953,238.717,-627.658,0,0
261213,241.626,-629.191,0,0
261474,244.187,-631.161,0,0
261734,246.322,-633.602,0,0
261994,247.954,-636.358,0,0
262255,249.024,-639.324,0,0
262515,249.535,-642.32,0,0
262775,249.54,-645.233,0,0
263036,249.162,-648.002,0,0
263296,248.446,-650.63,0,0
263556,247.535,-653.155,0,0
263817,246.189,-655.715,0,0
264077,244.524,-658.047,0,0
264337,242.453,-660.112,0,0
264598,240.196,-661.876,0,0
264858,237.691,-663.264,0,0
265118,235.15,-664.495,0,0
265379,232.434,-665.399,0,0
265639,229.629,-665.978,0,0
265899,226.83,-666.334,0,0
266160,223.97,-666.458,0,0
266420,221.049,-666.219,0,0
266680.25,218.13,-665.759,0,0
266940.575,215.259,-664.881,0,0
267200.9,212.591,-663.723,0,0
267461.225,210.045,-662.259,0,0
267721.55,207.759,-660.583,0,0
267981.875,205.795,-658.764,0,0
268242.2,204.049,-656.909,0,0
268502.525,202.544,-655.024,0,0
268762.85,201.258,-653.139,0,0
269023.175,200.083,-651.355,0,0
269283.5,198.952,-649.642,0,0
269543.825,197.905,-647.844,0,0
269804.15,196.902,-645.959,0,0
270064.475,196.024,-644.028,0,0
270324.8,195.271,-642.022,0,0
270585.125,194.833,-639.994,0,0
270845.45,194.52,-638.057,0,0
271105.775,194.419,-636.256,0,0
271366.1,194.363,-634.464,0,0
271626.425,194.437,-632.754,0,0
271886.75,194.65,-631.266,0,0
272147.075,194.885,-630.037,0,0
272407.4,195.023,-628.9,0,0
272667.725,194.913,-627.766,0,0
272928.05,194.769,-626.526,0,0
273188.375,194.633,-625.239,0,0
273448.7,194.525,-623.803,0,0
273709.025,194.517,-622.256,0,0
273969.35,194.735,-620.615,0,0
274229.675,195.18,-619.022,0,0
274490.0,195.778,-617.55,0,0
274750.325,196.474,-616.128,0,0
275010.65,197.294,-614.762,0,0
275270.975,198.294,-613.514,0,0
275531.3,199.389,-612.409,0,0
275791.625,200.605,-611.401,0,0
276051.95,201.905,-610.546,0,0
276312.275,203.385,-609.837,0,0
276572.6,205.015,-609.385,0,0
276832.925,206.701,-609.241,0,0
277093.25,208.363,-609.469,0,0
277353.575,209.878,-609.959,0,0
277613.9,211.244,-610.687,0,0
277874.225,212.47,-611.604,0,0
278134.55,213.508,-612.7,0,0
278394.875,214.355,-613.986,0,0
278655.2,215.028,-615.359,0,0
278915.525,215.448,-616.9,0,0
279175.85,215.604,-618.485,0,0
279436.175,215.548,-620.065,0,0
279696.5,215.33,-621.646,0,0
279956.825,214.924,-623.304,0,0
280217.15,214.202,-625.003,0,0
280477.475,213.173,-626.527,0,0
280737.8,211.95,-627.918,0,0
280998.125,210.62,-629.128,0,0
281258.45,209.182,-630.256,0,0
281518.775,207.596,-631.275,0,0
281779.1,205.874,-632.145,0,0
282039.425,204.027,-632.826,0,0
282299.75,202.156,-633.304,0,0
282560,200.306,-633.562,0,0
282820,198.449,-633.794,0,0
283081,196.527,-633.92,0,0
283341,194.529,-633.923,0,0
283601,192.476,-633.683,0,0
283862,190.492,-633.306,0,0
284122,188.58,-632.783,0,0
284382,186.724,-632.106,0,0
284643,184.924,-631.333,0,0
284903,183.168,-630.462,0,0
285163,181.443,-629.457,0,0
285424,179.831,-628.321,0,0
285684,178.358,-627.1,0,0
285944,176.979,-625.792,0,0
286205,175.713,-624.455,0,0
286465,174.538,-623.024,0,0
286725,173.487,-621.566,0,0
286986,172.572,-620.006,0,0
287246,171.829,-618.425,0,0
287506,171.255,-616.829,0,0
287767,170.865,-615.348,0,0
288027,170.581,-613.971,0,0
288287,170.381,-612.665,0,0
288548,170.249,-611.457,0,0
288808,170.183,-610.335,0,0
289068,170.171,-609.322,0,0
289329,170.143,-608.402,0,0
289589,170.107,-607.559,0,0
289849,170.054,-606.731,0,0
290109,170.065,-605.947,0,0
290370,170.106,-605.32,0,0
290630,170.083,-604.777,0,0
290890,170.007,-604.364,0,0
291151,169.743,-603.953,0,0
291411,169.417,-603.505,0,0
291671,168.989,-603.005,0,0
291932,168.521,-602.396,0,0
292192,168.042,-601.691,0,0
292452,167.572,-600.886,0,0
292713,167.222,-599.96,0,0
292973,166.949,-598.949,0,0
293233,166.861,-597.859,0,0
293494,166.925,-596.797,0,0
293754,167.185,-595.824,0,0
294014,167.541,-594.976,0,0
294275,167.976,-594.2,0,0
294535,168.498,-593.55,0,0
294795,169.109,-592.998,0,0
295056,169.808,-592.62,0,0
295316,170.502,-592.416,0,0
295576,171.212,-592.453,0,0
295837,171.852,-592.644,0,0
296097,172.371,-593.024,0,0
296357,172.798,-593.478,0,0
296618,173.138,-594.078,0,0
296878,173.332,-594.757,0,0
297138,173.376,-595.545,0,0
297399,173.271,-596.402,0,0
297659,172.97,-597.296,0,0
297919,172.491,-598.172,0,0
298180,171.84,-598.99,0,0
298440,171.073,-599.721,0,0
298700.2,170.214,-600.378,0,0
298960.525,169.289,-600.994,0,0
299220.85,168.284,-601.545,0,0
299481.175,167.235,-602.04,0,0
299741.5,166.073,-602.454,0,0
300001.825,164.883,-602.823,0,0
300262.15,163.613,-603.115,0,0
300522.475,162.332,-603.33,0,0
300782.8,160.991,-603.478,0,0
301043.125,159.602,-603.547,0,0
301303.45,158.164,-603.53,0,0
301563.775,156.705,-603.419,0,0
301824.1,155.228,-603.191,0,0
302084.425,153.791,-602.838,0,0
302344.75,152.379,-602.431,0,0
302605.075,151.018,-601.963,0,0
302865.4,149.709,-601.424,0,0
303125.725,148.41,-600.876,0,0
303386.05,147.151,-600.276,0,0
303646.375,145.9,-599.653,0,0
303906.7,144.625,-598.972,0,0
304167.025,143.402,-598.226,0,0
304427.35,142.195,-597.415,0,0
304687.675,141.062,-596.555,0,0
304948.0,139.961,-595.635,0,0
305208.325,138.934,-594.689,0,0
305468.65,137.933,-593.698,0,0
305728.975,137.022,-592.683,0,0
305989.3,136.188,-591.655,0,0
306249.625,135.427,-590.622,0,0
306509.95,134.708,-589.631,0,0
306770.275,134.06,-588.635,0,0
307030.6,133.47,-587.646,0,0
307290.925,132.943,-586.688,0,0
307551.25,132.496,-585.788,0,0
307811.575,132.092,-584.96,0,0
308071.9,131.676,-584.216,0,0
308332.225,131.25,-583.53,0,0
308592.55,130.776,-582.887,0,0
308852.875,130.307,-582.283,0,0
309113.2,129.81,-581.728,0,0
309373.525,129.281,-581.164,0,0
309633.85,128.68,-580.631,0,0
309894.175,128.09,-580.106,0,0
310154.5,127.465,-579.551,0,0
310414.825,126.803,-579.059,0,0
310675.15,126.09,-578.537,0,0
310935.475,125.324,-577.996,0,0
311195.8,124.523,-577.423,0,0
311456.125,123.651,-576.836,0,0
311716.45,122.748,-576.196,0,0
311976.775,121.81,-575.475,0,0
312237.1,120.852,-574.684,0,0
312497.425,119.905,-573.805,0,0
312757.75,118.981,-572.863,0,0
313018.075,118.083,-571.844,0,0
313278.4,117.223,-570.748,0,0
313538.725,116.377,-569.598,0,0
313799.05,115.613,-568.374,0,0
314059.375,114.932,-567.1,0,0
314319.7,114.306,-565.772,0,0
314580,113.75,-564.432,0,0
314840,113.335,-563.001,0,0
315101,113.039,-561.642,0,0
315361,112.914,-560.169,0,0
315621,112.772,-558.812,0,0
315882,112.868,-557.513,0,0
316142,112.954,-556.292,0,0
316402,113.124,-555.272,0,0
316663,113.372,-554.233,0,0
316923,113.572,-553.289,0,0
317183,113.795,-552.496,0,0
317444,114.002,-551.801,0,0
317704,114.197,-551.156,0,0
317964,114.362,-550.545,0,0
318225,114.409,-549.932,0,0
318485,114.515,-549.432,0,0
318745,114.484,-548.969,0,0
319006,114.455,-548.386,0,0
319266,114.484,-547.889,0,0
319526,114.333,-547.278,0,0
319787,114.328,-546.765,0,0
320047,114.254,-546.148,0,0
320307,114.206,-545.597,0,0
320567,114.207,-545.064,0,0
320828,114.209,-544.456,0,0
321088,114.28,-543.913,0,0
321348,114.485,-543.32,0,0
321609,114.634,-542.863,0,0
321869,114.788,-542.501,0,0
322129,115.008,-542.202,0,0
322390,115.214,-542.015,0,0
322650,115.356,-541.845,0,0
322910,115.487,-541.795,0,0
323171,115.525,-541.745,0,0
323431,115.544,-541.85,0,0
323691,115.478,-541.882,0,0
323952,115.318,-542.017,0,0
324212,115.062,-542.191,0,0
324472,114.8,-542.387,0,0
324733,114.397,-542.567,0,0
324993,113.988,-542.736,0,0
325253,113.434,-542.872,0,0
325514,112.862,-542.961,0,0
325774,112.175,-543.09,0,0
326034,111.449,-543.093,0,0
326295,110.649,-543.048,0,0
326555,109.825,-543.049,0,0
326815,108.928,-542.894,0,0
327076,108.05,-542.664,0,0
327336,107.161,-542.465,0,0
327596,106.286,-542.139,0,0
327857,105.401,-541.799,0,0
328117,104.484,-541.443,0,0
328377,103.695,-540.992,0,0
328638,102.784,-540.565,0,0
328898,101.94,-540.056,0,0
329158,101.049,-539.525,0,0
329419,100.2,-538.955,0,0
329679,99.3596,-538.453,0,0
329939,98.6468,-537.778,0,0
330200,97.8612,-537.237,0,0
330460,97.0476,-536.712,0,0
330720.15,96.2594,-536.082,0,0
330980.475,95.4027,-535.531,0,0
331240.8,94.5533,-534.923,0,0
331501.125,93.6546,-534.245,0,0
331761.45,92.8553,-533.561,0,0
332021.775,91.9407,-532.888,0,0
332282.1,91.1208,-532.099,0,0
332542.425,90.3295,-531.32,0,0
332802.75,89.3966,-530.558,0,0
333063.075,88.6609,-529.709,0,0
333323.4,87.7388,-528.907,0,0
333583.725,86.7988,-527.953,0,0
333844.05,86.0409,-527.026,0,0
334104.375,85.2558,-525.951,0,0
334364.7,84.4555,-524.986,0,0
334625.025,83.635,-523.911,0,0
334885.35,82.9384,-522.795,0,0
335145.675,82.289,-521.701,0,0
335406.0,81.6045,-520.51,0,0
335666.325,80.9617,-519.293,0,0
335926.65,80.4062,-518.07,0,0
336186.975,79.834,-516.869,0,0
336447.3,79.3202,-515.619,0,0
336707.625,78.8352,-514.361,0,0
336967.95,78.4836,-513.069,0,0
337228.275,78.0645,-511.925,0,0
337488.6,77.749,-510.686,0,0
337748.925,77.3851,-509.456,0,0
338009.25,77.0631,-508.171,0,0
338269.575,76.8452,-506.915,0,0
338529.9,76.4812,-505.619,0,0
338790.225,76.3123,-504.266,0,0
339050.55,76.1499,-502.908,0,0
339310.875,76.0514,-501.559,0,0
339571.2,76.0146,-500.247,0,0
339831.525,76.0663,-498.857,0,0
340091.85,76.1409,-497.533,0,0
340352.175,76.2893,-496.195,0,0
340612.5,76.5535,-494.901,0,0
340872.825,76.8579,-493.626,0,0
341133.15,77.2322,-492.475,0,0
341393.475,77.7122,-491.381,0,0
341653.8,78.1874,-490.315,0,0
341914.125,78.6831,-489.39,0,0
342174.45,79.2193,-488.497,0,0
342434.775,79.7324,-487.74,0,0
342695.1,80.3038,-487.039,0,0
342955.425,80.8139,-486.427,0,0
343215.75,81.3223,-485.841,0,0
343476.075,81.8023,-485.377,0,0
343736.4,82.176,-484.958,0,0
343996.725,82.5703,-484.69,0,0
344257.05,82.7901,-484.324,0,0
344517.375,83.0238,-484.061,0,0
344777.7,83.1285,-483.77,0,0
345038.025,83.1878,-483.445,0,0
345298.35,83.2014,-483.146,0,0
345558.675,83.1073,-482.734,0,0
345819.0,83.1115,-482.392,0,0
346079.325,83.0716,-481.919,0,0
346339.65,82.9902,-481.487,0,0
346599.975,82.9549,-481.05,0,0
346860,82.8835,-480.649,0,0
347121,82.8253,-480.231,0,0
347381,82.6295,-479.807,0,0
347641,82.565,-479.3,0,0
347902,82.3673,-478.861,0,0
348162,82.2362,-478.373,0,0
348422,81.9561,-477.701,0,0
348683,81.8187,-477.167,0,0
348943,81.5611,-476.418,0,0
349203,81.4459,-475.658,0,0
349464,81.3868,-474.905,0,0
349724,81.3489,-474.098,0,0
349984,81.4647,-473.326,0,0
350245,81.6106,-472.518,0,0
350505,81.8202,-471.816,0,0
350765,82.0668,-471.113,0,0
351025,82.4603,-470.513,0,0
351286,82.8536,-469.977,0,0
351546,83.2328,-469.529,0,0
351806,83.7014,-469.298,0,0
352067,83.9981,-469.11,0,0
352327,84.2612,-468.955,0,0
352587,84.3876,-468.895,0,0
352848,84.4936,-468.851,0,0
353108,84.4265,-468.802,0,0
353368,84.3327,-468.732,0,0
353629,84.1778,-468.704,0,0
353889,83.9942,-468.558,0,0
354149,83.6465,-468.414,0,0
354410,83.3783,-468.241,0,0
354670,83.0129,-468.004,0,0
354930,82.6699,-467.667,0,0
355191,82.2998,-467.39,0,0
355451,81.8991,-466.957,0,0
355711,81.5296,-466.53,0,0
355972,81.1895,-466.123,0,0
356232,80.8298,-465.575,0,0
356492,80.4843,-465.136,0,0
356753,80.072,-464.601,0,0
357013,79.7598,-464.007,0,0
357273,79.4101,-463.452,0,0
357534,79.0132,-462.789,0,0
357794,78.7435,-462.137,0,0
358054,78.4775,-461.408,0,0
358315,78.2699,-460.63,0,0
358575,78.0777,-459.92,0,0
358835,77.9388,-459.159,0,0
359096,77.8582,-458.431,0,0
359356,77.7751,-457.637,0,0
359616,77.8307,-456.96,0,0
359877,77.8657,-456.29,0,0
360137,77.9287,-455.678,0,0
360397,77.9054,-455.087,0,0
360658,77.919,-454.498,0,0
360918,77.9464,-454.009,0,0
361178,77.8478,-453.438,0,0
361438,77.8829,-452.905,0,0
361699,77.8584,-452.294,0,0
361959,77.8413,-451.722,0,0
362219,77.7812,-451.16,0,0
362480,77.7622,-450.52,0,0
362740.1,77.713,-449.867,0,0
363000.425,77.7499,-449.168,0,0
363260.75,77.8387,-448.467,0,0
363521.075,78.0213,-447.795,0,0
363781.4,78.2336,-447.169,0,0
364041.725,78.5888,-446.577,0,0
364302.05,78.8996,-446.137,0,0
364562.375,79.2601,-445.692,0,0
364822.7,79.6461,-445.348,0,0
365083.025,79.9385,-445.143,0,0
365343.35,80.185,-445.03,0,0
365603.675,80.405,-444.935,0,0
365864.0,80.5002,-444.866,0,0
366124.325,80.5176,-444.894,0,0
366384.65,80.4787,-444.886,0,0
366644.975,80.3317,-444.957,0,0
366905.3,80.0634,-444.923,0,0
367165.625,79.7908,-444.805,0,0
367425.95,79.3088,-444.725,0,0
367686.275,78.9076,-444.463,0,0
367946.6,78.4731,-444.233,0,0
368206.925,77.9875,-443.893,0,0
368467.25,77.4171,-443.384,0,0
368727.575,76.8642,-442.875,0,0
368987.9,76.3766,-442.202,0,0
369248.225,75.9466,-441.438,0,0
369508.55,75.6268,-440.53,0,0
369768.875,75.4084,-439.629,0,0
370029.2,75.3217,-438.656,0,0
370289.525,75.4798,-437.759,0,0
370549.85,75.6245,-436.891,0,0
370810.175,75.9303,-436.189,0,0
371070.5,76.2951,-435.569,0,0
371330.825,76.6508,-435.105,0,0
371591.15,77.0345,-434.704,0,0
371851.475,77.3547,-434.522,0,0
372111.8,77.5536,-434.385,0,0
372372.125,77.7319,-434.33,0,0
372632.45,77.7344,-434.295,0,0
372892.775,77.6851,-434.271,0,0
373153.1,77.4464,-434.22,0,0
373413.425,77.1983,-434.083,0,0
373673.75,76.8275,-433.856,0,0
373934.075,76.4316,-433.658,0,0
374194.4,76.0013,-433.296,0,0
374454.725,75.6416,-432.879,0,0
374715.05,75.2427,-432.478,0,0
374975.375,74.8192,-431.939,0,0
375235.7,74.43,-431.382,0,0
375496.025,74.073,-430.736,0,0
375756.35,73.7536,-430.037,0,0
376016.675,73.4562,-429.306,0,0
376277.0,73.2834,-428.557,0,0
376537.325,73.2196,-427.807,0,0
376797.65,73.1469,-427.027,0,0
377057.975,73.0665,-426.332,0,0
377318.3,73.0692,-425.571,0,0
377578.625,73.1308,-424.917,0,0
377838.95,73.1953,-424.241,0,0
378099.275,73.2999,-423.545,0,0
378359.6,73.415,-422.945,0,0
378619.925,73.5753,-422.287,0,0
378880,73.7088,-421.744,0,0
379141,73.9757,-421.196,0,0
379401,74.1586,-420.66,0,0
379661,74.4008,-420.25,0,0
379922,74.6212,-419.831,0,0
380182,74.8395,-419.501,0,0
380442,74.9598,-419.295,0,0
380703,75.0682,-419.017,0,0
380963,75.1079,-418.7,0,0
381223,75.113,-418.451,0,0
381483,75.0969,-418.083,0,0
381744,75.0545,-417.759,0,0
382004,75.1151,-417.431,0,0
382264,75.0845,-417.075,0,0
382525,75.1519,-416.723,0,0
382785,75.188,-416.438,0,0
383045,75.1799,-416.121,0,0
383306,75.1719,-415.938,0,0
383566,75.1495,-415.681,0,0
383826,75.0582,-415.504,0,0
384087,74.9012,-415.26,0,0
384347,74.6972,-415.02,0,0
384607,74.4712,-414.721,0,0
384868,74.2565,-414.398,0,0
385128,74.058,-414.085,0,0
385388,73.8243,-413.708,0,0
385649,73.6019,-413.344,0,0
385909,73.3038,-412.888,0,0
386169,73.0653,-412.47,0,0
386430,72.7955,-412.054,0,0
386690,72.5883,-411.553,0,0
386950,72.3188,-411.065,0,0
387211,72.0479,-410.562,0,0
387471,71.8119,-410.036,0,0
387731,71.4848,-409.478,0,0
387992,71.2643,-408.862,0,0
388252,70.9757,-408.234,0,0
388512,70.7218,-407.54,0,0
388773,70.4801,-406.845,0,0
389033,70.2869,-406.047,0,0
389293,70.1583,-405.261,0,0
389554,70.0473,-404.456,0,0
389814,70.0062,-403.625,0,0
390074,69.9474,-402.747,0,0
390335,70.0463,-401.898,0,0
390595,70.1046,-401.029,0,0
390855,70.2389,-400.208,0,0
391116,70.4421,-399.328,0,0
391376,70.7353,-398.504,0,0
391636,71.0056,-397.705,0,0
391896,71.4157,-396.925,0,0
392157,71.781,-396.201,0,0
392417,72.2561,-395.494,0,0
392677,72.7393,-394.888,0,0
392938,73.2381,-394.334,0,0
393198,73.737,-393.81,0,0
393458,74.2469,-393.413,0,0
393719,74.7317,-392.977,0,0
393979,75.2321,-392.627,0,0
394239,75.6728,-392.331,0,0
394500,76.1317,-392.05,0,0
394760.05,76.5858,-391.79,0,0
395020.375,77.0057,-391.562,0,0
395280.7,77.4421,-391.382,0,0
395541.025,77.8117,-391.238,0,0
395801.35,78.2261,-391.116,0,0
396061.675,78.6233,-391.021,0,0
396322.0,78.9691,-390.954,0,0
396582.325,79.342,-390.915,0,0
396842.65,79.617,-390.95,0,0
397102.975,79.9033,-391.008,0,0
397363.3,80.075,-391.076,0,0
397623.625,80.2971,-391.181,0,0
397883.95,80.4234,-391.269,0,0
398144.275,80.4785,-391.417,0,0
398404.6,80.4916,-391.543,0,0
398664.925,80.429,-391.645,0,0
398925.25,80.3757,-391.717,0,0
399185.575,80.2774,-391.782,0,0
399445.9,80.1456,-391.872,0,0
399706.225,80.0031,-391.865,0,0
399966.55,79.8078,-391.896,0,0
400006.6,79.7612,-391.898,0,0