File: Accelerated corrosion test data/2025-10-13_18-00-03/sample_4.csv
Frequency (Hz),Impedance (ohms),Phase (Radians),Temperature (C),Humidity (%)
10000.0,263.68,-11830.8,0,0
10260.325,260.365,-11534.5,0,0
10520.65,251.298,-11250,0,0
10780.975,245.217,-10980.7,0,0
11041.3,240.364,-10722.9,0,0
11301.625,234.649,-10480.7,0,0
11561.95,229.168,-10245.9,0,0
11822.275,224.48,-10021.5,0,0
12082.6,219.608,-9807.53,0,0
12342.925,215.466,-9601.37,0,0
12603.25,213.264,-9403.03,0,0
12863.575,208.715,-9217.04,0,0
13123.9,206.638,-9039.05,0,0
13384.225,199.758,-8860.46,0,0
13644.55,196.508,-8689.82,0,0
13904.875,193.596,-8525.79,0,0
14165.2,195.281,-8362.68,0,0
14425.525,199.089,-8212.32,0,0
14685.8,196.865,-8102.93,0,0
14946.175,181.895,-7946.86,0,0
15206.5,180.945,-7803.66,0,0
15466.825,191.555,-7658.86,0,0
15727.15,188.649,-7559.11,0,0
15987.5,185.266,-7446.99,0,0
16247.8,171.16,-7316.65,0,0
16508.125,189.166,-7194.5,0,0
16768.45,180.453,-7090.48,0,0
17028.775,169.506,-7001.8,0,0
17289.1,160.563,-6888.71,0,0
17549.425,158.583,-6785.98,0,0
17809.75,156.763,-6685.09,0,0
18070.075,153.064,-6587.05,0,0
18330.4,154.881,-6492.09,0,0
18590.725,153.068,-6403.6,0,0
18851.05,149.526,-6318.7,0,0
19111.375,145.765,-6230.3,0,0
19371.7,143.13,-6145.35,0,0
19632.025,141.971,-6061.58,0,0
19892.35,144.228,-5981.73,0,0
20152.675,144.108,-5905.23,0,0
20413.0,140.634,-5831.61,0,0
20673.3,140.826,-5757.17,0,0
20933.65,137.646,-5683.83,0,0
21193.975,140.698,-5609.72,0,0
21454.3,153.131,-5544.69,0,0
21714.625,144.414,-5487.87,0,0
21974.9,151.803,-5418.86,0,0
22235.275,148.13,-5369.88,0,0
22495.6,135.251,-5314.32,0,0
22755.925,128.189,-5250.84,0,0
23016.25,125.281,-5188.28,0,0
23276.6,122.861,-5128.66,0,0
23536.9,121.384,-5071.68,0,0
23797.225,119.057,-5015.15,0,0
24057.55,117.543,-4959.41,0,0
24317.875,116.603,-4904.87,0,0
24578.2,114.303,-4852.16,0,0
24838.525,114.149,-4799.53,0,0
25098.85,115.007,-4750.44,0,0
25359.175,112.58,-4702.51,0,0
25619.5,112.739,-4652.72,0,0
25879.8,110.334,-4608.84,0,0
26140.1,108.34,-4560.38,0,0
26400.5,107.522,-4513.5,0,0
26660.8,107.187,-4468.01,0,0
26921.1,106.925,-4424.3,0,0
27181.4,106.287,-4379.55,0,0
27441.8,106.303,-4335.36,0,0
27702.1,110.206,-4290.92,0,0
27962.4,117.307,-4250.42,0,0
28222.7,120.105,-4222.44,0,0
28483.1,112.359,-4187.24,0,0
28743.4,109.951,-4146.93,0,0
29003.7,113.139,-4106.49,0,0
29264,117.799,-4074.02,0,0
29524.4,114.003,-4044.6,0,0
29784.7,106.534,-4011.77,0,0
30045,107.218,-3975.43,0,0
30305.3,101.888,-3941.38,0,0
30565.7,100.505,-3905.98,0,0
30826,99.3442,-3872.25,0,0
31086.3,98.1869,-3837.76,0,0
31346.6,99.7101,-3805.79,0,0
31607,98.291,-3774.93,0,0
31867.3,97.4278,-3742.39,0,0
32127.6,100.02,-3712.75,0,0
32387.9,97.7939,-3686.33,0,0
32648.3,96.8846,-3655.93,0,0
32908.6,94.592,-3629.65,0,0
33168.9,92.2074,-3600.68,0,0
33429.2,90.072,-3571.9,0,0
33689.6,88.8817,-3542.95,0,0
33949.9,87.8652,-3514.38,0,0
34210.2,88.0725,-3487.42,0,0
34470.5,86.176,-3461.34,0,0
34730.9,85.2216,-3434.18,0,0
34991.2,84.8398,-3407.38,0,0
35251.5,84.6027,-3382.18,0,0
35511.8,83.5581,-3356.63,0,0
35772.2,82.7582,-3331.89,0,0
36032.5,81.9514,-3306.9,0,0
36292.8,81.3394,-3282.58,0,0
36553.1,81.0672,-3257.83,0,0
36813.5,80.9359,-3234.07,0,0
37073.8,80.6901,-3211.74,0,0
37334.1,79.9625,-3188.38,0,0
37594.4,79.4167,-3165.72,0,0
37854.8,79.3985,-3143.46,0,0
38115.1,78.2084,-3121.72,0,0
38375.4,77.7647,-3099.22,0,0
38635.7,77.539,-3077.18,0,0
38896.1,77.6205,-3056.13,0,0
39156.4,77.1423,-3035.06,0,0
39416.7,76.6442,-3014.1,0,0
39677,76.77,-2992.78,0,0
39937.4,77.3234,-2972,0,0
40197.7,79.0312,-2951.9,0,0
40458,80.4667,-2933.81,0,0
40718.3,78.6087,-2915.47,0,0
40978.7,79.5573,-2895.64,0,0
41239,80.6231,-2877.62,0,0
41499.3,82.0597,-2862.29,0,0
41759.6,78.7123,-2844.95,0,0
42020,77.6075,-2826.63,0,0
42280.275,77.17,-2807.21,0,0
42540.6,78.7657,-2790.71,0,0
42800.925,77.4035,-2775.42,0,0
43061.25,75.6548,-2757.36,0,0
43321.575,75.8804,-2740.94,0,0
43581.9,74.3638,-2724.41,0,0
43842.225,74.0654,-2706.7,0,0
44102.55,73.8226,-2691.27,0,0
44362.875,72.4726,-2674.18,0,0
44623.2,72.6603,-2657.61,0,0
44883.525,72.1058,-2641.99,0,0
45143.85,71.2723,-2626.04,0,0
45404.175,70.8988,-2609.38,0,0
45664.5,72.3277,-2593.7,0,0
45924.825,72.0602,-2579.62,0,0
46185.15,70.9252,-2565.32,0,0
46445.475,70.9547,-2549.04,0,0
46705.8,71.7623,-2534.41,0,0
46966.125,71.5114,-2520.55,0,0
47226.45,72.1925,-2506.48,0,0
47486.775,71.1361,-2493.69,0,0
47747.1,70.1788,-2479.58,0,0
48007.425,69.2993,-2465.83,0,0
48267.75,68.8777,-2451.58,0,0
48528.075,68.2558,-2438.32,0,0
48788.4,67.2962,-2424.77,0,0
49048.725,66.1532,-2410.52,0,0
49309.05,66.6717,-2396.89,0,0
49569.375,65.4492,-2383.81,0,0
49829.7,65.2294,-2370.06,0,0
50090.025,64.9884,-2356.72,0,0
50350.35,64.7391,-2343.57,0,0
50610.675,64.5315,-2330.73,0,0
50871.0,64.1839,-2317.71,0,0
51131.325,64.0548,-2304.79,0,0
51391.65,63.9729,-2291.91,0,0
51651.975,64.2437,-2279.25,0,0
51912.3,64.018,-2266.6,0,0
52172.625,64.6181,-2253.93,0,0
52432.95,64.2186,-2241.73,0,0
52693.275,64.874,-2228.72,0,0
52953.6,66.1419,-2216.64,0,0
53213.925,66.7624,-2204.9,0,0
53474.25,67.9835,-2193,0,0
53734.575,69.301,-2180.99,0,0
53994.9,71.9917,-2169.99,0,0
54255.225,74.2513,-2160.24,0,0
54515.55,76.304,-2152.15,0,0
54775.875,75.81,-2144.66,0,0
55036.2,74.1832,-2135.55,0,0
55296.525,73.8886,-2126.55,0,0
55556.85,71.8274,-2117.26,0,0
55817.175,70.2578,-2107.11,0,0
56077.5,68.7778,-2096.74,0,0
56337.825,67.2142,-2086.09,0,0
56598.15,66.2709,-2074.67,0,0
56858.475,66.0687,-2063.56,0,0
57118.8,66.0069,-2052.67,0,0
57379.125,66.3698,-2042.21,0,0
57639.45,66.5611,-2032.08,0,0
57899.775,66.5852,-2021.76,0,0
58160.1,67.1391,-2011.15,0,0
58420.4,68.2166,-2001.35,0,0
58680.7,67.9906,-1992.57,0,0
58941.1,67.979,-1981.75,0,0
59201.4,69.1493,-1971.06,0,0
59461.7,71.294,-1961.19,0,0
59722,73.9976,-1952.18,0,0
59982.4,76.5764,-1945.29,0,0
60242.7,76.9187,-1937.97,0,0
60503,78.4021,-1929.81,0,0
60763.3,81.3021,-1923.81,0,0
61023.7,80.9191,-1920.19,0,0
61284,78.8281,-1915.41,0,0
61544.3,73.9471,-1908.9,0,0
61804.6,71.7573,-1898.85,0,0
62065,70.5985,-1890.49,0,0
62325.3,68.8625,-1882.8,0,0
62585.6,65.9797,-1873.26,0,0
62845.9,65.5126,-1863.43,0,0
63106.3,64.7625,-1854.12,0,0
63366.6,64.7522,-1844.93,0,0
63626.9,64.8918,-1836.17,0,0
63887.2,64.4959,-1828.22,0,0
64147.6,63.7983,-1819.06,0,0
64407.9,64.3737,-1810.08,0,0
64668.2,65.1259,-1801.9,0,0
64928.5,65.2409,-1794.06,0,0
65188.9,65.3693,-1786.07,0,0
65449.2,65.5195,-1777.9,0,0
65709.5,65.8007,-1769.31,0,0
65969.8,67.1028,-1761.48,0,0
66230.2,67.9995,-1754.42,0,0
66490.5,68.6217,-1747.23,0,0
66750.8,69.0794,-1740.27,0,0
67011.1,69.8073,-1732.81,0,0
67271.5,70.8384,-1725.84,0,0
67531.8,71.7482,-1719.36,0,0
67792.1,72.7578,-1713.2,0,0
68052.4,73.598,-1707.47,0,0
68312.8,74.1497,-1702.28,0,0
68573.1,73.9376,-1697.34,0,0
68833.4,73.1189,-1692.65,0,0
69093.7,71.3485,-1687.4,0,0
69354.1,69.1031,-1681.18,0,0
69614.4,67.362,-1674.1,0,0
69874.7,66.1956,-1667.05,0,0
70135,65.2411,-1660.01,0,0
70395.4,64.0698,-1652.44,0,0
70655.7,64.4995,-1644.35,0,0
70916,65.3815,-1638.5,0,0
71176.3,64.9928,-1632.52,0,0
71436.7,64.8684,-1626.55,0,0
71697,64.3044,-1621.25,0,0
71957.3,62.2838,-1615.68,0,0
72217.6,60.4476,-1608.75,0,0
72478,59.4243,-1601.32,0,0
72738.3,58.6288,-1594.22,0,0
72998.6,57.8009,-1586.95,0,0
73258.9,57.4814,-1579.2,0,0
73519.3,57.8127,-1572,0,0
73779.6,58.1228,-1565.16,0,0
74039.9,58.3902,-1558.58,0,0
74300.225,58.475,-1551.88,0,0
74560.55,58.9029,-1545.29,0,0
74820.875,59.3847,-1538.7,0,0
75081.2,60.2082,-1532.37,0,0
75341.525,60.9723,-1526.69,0,0
75601.85,61.1969,-1520.96,0,0
75862.175,61.5884,-1515.08,0,0
76122.5,62.03,-1509.31,0,0
76382.825,62.3769,-1503.95,0,0
76643.15,62.2666,-1498.48,0,0
76903.475,62.1198,-1492.2,0,0
77163.8,63.2628,-1486.01,0,0
77424.125,64.4764,-1480.91,0,0
77684.45,65.4123,-1476.23,0,0
77944.775,65.7138,-1472.05,0,0
78205.1,65.5811,-1467.68,0,0
78465.425,65.3194,-1463.24,0,0
78725.75,64.641,-1458.69,0,0
78986.075,63.7201,-1453.86,0,0
79246.4,62.785,-1448.68,0,0
79506.725,62.0225,-1443.24,0,0
79767.05,61.5458,-1437.79,0,0
80027.375,61.1176,-1432.41,0,0
80287.7,60.7684,-1426.93,0,0
80548.025,60.613,-1421.42,0,0
80808.35,60.5353,-1416.17,0,0
81068.675,60.4673,-1411,0,0
81329.0,60.3795,-1405.96,0,0
81589.325,60.1884,-1400.9,0,0
81849.65,59.8959,-1395.94,0,0
82109.975,59.6847,-1390.91,0,0
82370.3,59.4073,-1385.89,0,0
82630.625,59.2281,-1380.88,0,0
82890.95,58.9544,-1375.92,0,0
83151.275,58.6932,-1370.92,0,0
83411.6,58.4584,-1365.92,0,0
83671.925,58.1931,-1360.91,0,0
83932.25,58.048,-1355.93,0,0
84192.575,57.8866,-1351.03,0,0
84452.9,57.7135,-1346.21,0,0
84713.225,57.5372,-1341.22,0,0
84973.55,57.4372,-1336.43,0,0
85233.875,57.2647,-1331.61,0,0
85494.2,57.1164,-1326.82,0,0
85754.525,56.8915,-1322.09,0,0
86014.85,56.6505,-1317.2,0,0
86275.175,56.5994,-1312.43,0,0
86535.5,56.6106,-1307.77,0,0
86795.825,56.4868,-1303.27,0,0
87056.15,56.2948,-1298.7,0,0
87316.475,56.1115,-1294.15,0,0
87576.8,55.9229,-1289.71,0,0
87837.125,55.6698,-1285.25,0,0
88097.45,55.0974,-1280.93,0,0
88357.775,54.4721,-1276,0,0
88618.1,54.3034,-1271,0,0
88878.425,54.0349,-1266.36,0,0
89138.75,53.7087,-1261.52,0,0
89399.075,53.5792,-1256.68,0,0
89659.4,53.6067,-1251.96,0,0
89919.725,53.5849,-1247.31,0,0
90180,53.6,-1242.79,0,0
90440.4,53.4852,-1238.21,0,0
90700.7,53.4561,-1233.6,0,0
90961,53.2924,-1228.97,0,0
91221.3,53.3017,-1224.33,0,0
91481.7,53.3495,-1219.67,0,0
91742,53.517,-1215.01,0,0
92002.3,53.8053,-1210.45,0,0
92262.6,54.1995,-1206.03,0,0
92523,54.4482,-1201.81,0,0
92783.3,54.8387,-1197.67,0,0
93043.6,54.8808,-1193.65,0,0
93303.9,54.9124,-1189.69,0,0
93564.3,54.8492,-1185.72,0,0
93824.6,54.6627,-1181.79,0,0
94084.9,54.3325,-1177.72,0,0
94345.2,53.9036,-1173.51,0,0
94605.6,53.5655,-1169.14,0,0
94865.9,53.3532,-1164.64,0,0
95126.2,53.2525,-1160.27,0,0
95386.5,53.1578,-1155.65,0,0
95646.9,53.2124,-1151.21,0,0
95907.2,53.3234,-1146.74,0,0
96167.5,53.4181,-1142.33,0,0
96427.8,53.6972,-1137.94,0,0
96688.2,53.8372,-1133.77,0,0
96948.5,53.9456,-1129.38,0,0
97208.8,54.1599,-1125.11,0,0
97469.1,54.4047,-1120.89,0,0
97729.5,54.4934,-1116.56,0,0
97989.8,54.7759,-1112.18,0,0
98250.1,55.1524,-1107.87,0,0
98510.4,55.5172,-1103.62,0,0
98770.8,55.9643,-1099.27,0,0
99031.1,56.6007,-1095,0,0
99291.4,57.3356,-1090.97,0,0
99551.7,57.8149,-1087.13,0,0
99812.1,58.2776,-1082.98,0,0
100072,58.9139,-1078.75,0,0
100333,60.0127,-1074.62,0,0
100593,61.2152,-1071.04,0,0
100853,62.1167,-1067.92,0,0
101114,62.7685,-1064.66,0,0
101374,63.6088,-1061.57,0,0
101634,64.0819,-1059.1,0,0
101895,63.842,-1056.74,0,0
102155,62.9044,-1053.88,0,0
102415,61.7819,-1050.43,0,0
102676,60.7789,-1046.47,0,0
102936,59.8741,-1042.2,0,0
103196,59.2748,-1037.54,0,0
103457,58.9313,-1032.61,0,0
103717,59.1079,-1027.65,0,0
103977,59.5614,-1022.84,0,0
104238,60.0907,-1018.11,0,0
104498,60.863,-1013.27,0,0
104758,61.8518,-1008.67,0,0
105019,63.0608,-1004.24,0,0
105279,64.3243,-999.925,0,0
105539,65.5858,-995.725,0,0
105800,67.0018,-991.679,0,0
106060,68.4366,-987.779,0,0
106320.175,69.8869,-983.971,0,0
106580.5,71.3996,-980.315,0,0
106840.825,72.8062,-976.846,0,0
107101.15,74.1868,-973.36,0,0
107361.475,75.4827,-969.904,0,0
107621.8,76.8771,-966.383,0,0
107882.125,78.4079,-962.877,0,0
108142.45,80.0032,-959.458,0,0
108402.775,81.8236,-956.201,0,0
108663.1,83.6771,-953.156,0,0
108923.425,85.4152,-950.28,0,0
109183.75,87.2758,-947.565,0,0
109444.075,89.0635,-945.147,0,0
109704.4,90.5995,-942.792,0,0
109964.725,92.0511,-940.457,0,0
110225.05,93.4928,-938.217,0,0
110485.375,94.917,-936.126,0,0
110745.7,96.1131,-934.057,0,0
111006.025,97.388,-932.168,0,0
111266.35,98.4512,-929.998,0,0
111526.675,99.4257,-928.092,0,0
111787.0,100.364,-926.019,0,0
112047.325,101.384,-924.135,0,0
112307.65,102.353,-922.23,0,0
112567.975,103.121,-920.476,0,0
112828.3,103.885,-918.709,0,0
113088.625,104.637,-916.941,0,0
113348.95,105.267,-915.222,0,0
113609.275,105.864,-913.558,0,0
113869.6,106.297,-911.887,0,0
114129.925,106.693,-910.149,0,0
114390.25,107.172,-908.44,0,0
114650.575,107.486,-906.779,0,0
114910.9,107.805,-905.152,0,0
115171.225,107.987,-903.631,0,0
115431.55,108.013,-902.072,0,0
115691.875,107.928,-900.447,0,0
115952.2,107.796,-898.774,0,0
116212.525,107.67,-897.083,0,0
116472.85,107.372,-895.384,0,0
116733.175,106.966,-893.571,0,0
116993.5,106.5,-891.698,0,0
117253.825,105.914,-889.669,0,0
117514.15,105.312,-887.446,0,0
117774.475,104.754,-885.042,0,0
118034.8,104.357,-882.44,0,0
118295.125,104.08,-879.898,0,0
118555.45,103.723,-877.219,0,0
118815.775,103.521,-874.16,0,0
119076.1,103.921,-870.867,0,0
119336.425,104.94,-867.829,0,0
119596.75,106.44,-865.414,0,0
119857.075,108.086,-863.499,0,0
120117.4,109.779,-862.652,0,0
120377.725,110.52,-862.596,0,0
120638.05,110.289,-862.731,0,0
120898.375,109.116,-862.439,0,0
121158.7,107.553,-861.499,0,0
121419.025,105.942,-859.894,0,0
121679.35,104.486,-857.999,0,0
121939.675,103.081,-855.805,0,0
122200.0,101.892,-853.393,0,0
122460,100.828,-850.867,0,0
122721,99.9807,-848.304,0,0
122981,99.2482,-845.794,0,0
123241,98.4925,-843.279,0,0
123502,97.8029,-840.72,0,0
123762,97.1766,-838.18,0,0
124022,96.5686,-835.64,0,0
124283,95.9648,-833.099,0,0
124543,95.3836,-830.513,0,0
124803,94.8572,-827.884,0,0
125064,94.5176,-825.245,0,0
125324,94.1283,-822.818,0,0
125584,93.7426,-820.442,0,0
125845,93.3161,-818.124,0,0
126105,92.8613,-815.863,0,0
126365,92.2224,-813.698,0,0
126626,91.4459,-811.455,0,0
126886,90.6487,-809.041,0,0
127146,89.71,-806.475,0,0
127406,88.9254,-804.05,0,0
127667,88.3673,-801.509,0,0
127927,87.4734,-799.286,0,0
128187,86.3627,-796.824,0,0
128448,85.2302,-794.189,0,0
128708,84.1736,-791.556,0,0
128968,82.896,-788.829,0,0
129229,81.5882,-785.819,0,0
129489,80.3339,-782.703,0,0
129749,79.0967,-779.377,0,0
130010,78.0148,-775.844,0,0
130270,77.1585,-772.247,0,0
130530,76.346,-768.721,0,0
130791,75.5802,-765.154,0,0
131051,74.8447,-761.48,0,0
131311,74.2703,-757.702,0,0
131572,73.8318,-753.963,0,0
131832,73.4525,-750.318,0,0
132092,73.0817,-746.607,0,0
132353,72.7736,-742.841,0,0
132613,72.6148,-739.042,0,0
132873,72.48,-735.331,0,0
133134,72.3669,-731.595,0,0
133394,72.3105,-727.891,0,0
133654,72.3282,-724.116,0,0
133915,72.4222,-720.378,0,0
134175,72.5328,-716.649,0,0
134435,72.6808,-712.961,0,0
134696,72.8998,-709.224,0,0
134956,73.1344,-705.481,0,0
135216,73.473,-701.735,0,0
135477,73.9402,-698.059,0,0
135737,74.3722,-694.442,0,0
135997,74.8041,-690.848,0,0
136258,75.2835,-687.206,0,0
136518,75.8608,-683.583,0,0
136778,76.5105,-680.106,0,0
137039,77.1142,-676.708,0,0
137299,77.6511,-673.4,0,0
137559,78.0944,-670.067,0,0
137819,78.4318,-666.689,0,0
138080,78.7655,-663.151,0,0
138340.125,79.1922,-659.512,0,0
138600.45,79.6603,-655.885,0,0
138860.775,80.0847,-652.236,0,0
139121.1,80.6015,-648.467,0,0
139381.425,81.3151,-644.675,0,0
139641.75,82.0211,-640.973,0,0
139902.075,82.7421,-637.24,0,0
140162.4,83.4745,-633.422,0,0
140422.725,84.3321,-629.614,0,0
140683.05,85.2647,-625.803,0,0
140943.375,86.3032,-622.012,0,0
141203.7,87.3881,-618.26,0,0
141464.025,88.4947,-614.558,0,0
141724.35,89.6278,-610.867,0,0
141984.675,90.7999,-607.204,0,0
142245.0,91.9392,-603.554,0,0
142505.325,93.1278,-599.858,0,0
142765.65,94.3666,-596.149,0,0
143025.975,95.6244,-592.377,0,0
143286.3,97.0266,-588.69,0,0
143546.625,98.4249,-585.01,0,0
143806.95,99.8319,-581.344,0,0
144067.275,101.248,-577.642,0,0
144327.6,102.701,-573.961,0,0
144587.925,104.241,-570.221,0,0
144848.25,105.847,-566.474,0,0
145108.575,107.545,-562.699,0,0
145368.9,109.293,-558.952,0,0
145629.225,111.134,-555.227,0,0
145889.55,113.017,-551.5,0,0
146149.875,115.036,-547.804,0,0
146410.2,117.067,-544.139,0,0
146670.525,119.183,-540.503,0,0
146930.85,121.315,-536.948,0,0
147191.175,123.478,-533.367,0,0
147451.5,125.709,-529.808,0,0
147711.825,127.937,-526.271,0,0
147972.15,130.207,-522.705,0,0
148232.475,132.55,-519.063,0,0
148492.8,135.042,-515.449,0,0
148753.125,137.608,-511.872,0,0
149013.45,140.263,-508.337,0,0
149273.775,142.96,-504.81,0,0
149534.1,145.697,-501.267,0,0
149794.425,148.555,-497.676,0,0
150054.75,151.578,-494.053,0,0
150315.075,154.756,-490.465,0,0
150575.4,158.138,-486.941,0,0
150835.725,161.696,-483.462,0,0
151096.05,165.484,-480.181,0,0
151356.375,169.334,-477.068,0,0
151616.7,173.252,-474.102,0,0
151877.025,177.202,-471.157,0,0
152137.35,181.473,-468.206,0,0
152397.675,186.085,-465.597,0,0
152658.0,190.751,-463.494,0,0
152918.325,195.253,-461.673,0,0
153178.65,199.76,-459.999,0,0
153438.975,204.258,-458.591,0,0
153699.3,208.734,-457.531,0,0
153959.625,212.954,-456.734,0,0
154219.95,216.972,-456.178,0,0
154480,220.635,-455.751,0,0
154741,223.857,-455.295,0,0
155001,226.985,-454.475,0,0
155261,230.271,-453.407,0,0
155522,233.885,-452.507,0,0
155782,237.562,-451.954,0,0
156042,240.871,-451.716,0,0
156303,243.76,-451.522,0,0
156563,246.33,-451.155,0,0
156823,248.853,-450.27,0,0
157084,251.564,-449.222,0,0
157344,254.606,-448.246,0,0
157604,257.473,-447.281,0,0
157864,260.266,-445.848,0,0
158125,263.651,-444.433,0,0
158385,267.459,-443.107,0,0
158645,271.475,-442.142,0,0
158906,275.568,-441.342,0,0
159166,279.95,-440.861,0,0
159426,284.433,-440.972,0,0
159687,288.702,-441.492,0,0
159947,292.919,-442.299,0,0
160207,297.024,-443.544,0,0
160468,300.779,-445.373,0,0
160728,303.873,-447.609,0,0
160988,306.249,-449.87,0,0
161249,307.733,-451.69,0,0
161509,309.128,-453.03,0,0
161769,310.411,-454.179,0,0
162030,311.451,-455.061,0,0
162290,312.623,-455.54,0,0
162550,313.743,-455.999,0,0
162811,314.71,-456.257,0,0
163071,315.531,-456.143,0,0
163331,316.529,-455.802,0,0
163592,317.721,-455.102,0,0
163852,318.858,-454.167,0,0
164112,320.323,-453.009,0,0
164373,322.142,-451.517,0,0
164633,324.601,-450.206,0,0
164893,327.118,-449.131,0,0
165154,329.45,-448.094,0,0
165414,332.066,-446.575,0,0
165674,335.351,-444.891,0,0
165935,339.285,-443.375,0,0
166195,343.602,-442.251,0,0
166455,348.383,-441.473,0,0
166716,353.6,-441.033,0,0
166976,359.305,-441.462,0,0
167236,364.836,-442.613,0,0
167497,370.509,-444.253,0,0
167757,376.174,-446.603,0,0
168017,381.632,-449.785,0,0
168277,386.597,-453.755,0,0
168538,390.963,-457.895,0,0
168798,395.196,-462.319,0,0
169058,399.214,-467.317,0,0
169319,402.655,-473.006,0,0
169579,405.391,-478.826,0,0
169839,407.881,-484.869,0,0
170100,410.11,-491.712,0,0
170360.075,411.204,-499.376,0,0
170620.4,410.929,-507.279,0,0
170880.725,409.292,-515.062,0,0
171141.05,406.355,-522.129,0,0
171401.375,402.871,-528.304,0,0
171661.7,399.076,-534.2,0,0
171922.025,394.351,-539.844,0,0
172182.35,388.808,-544.512,0,0
172442.675,382.887,-548.319,0,0
172703.0,376.599,-551.381,0,0
172963.325,370.153,-553.523,0,0
173223.65,363.665,-554.918,0,0
173483.975,357.029,-555.582,0,0
173744.3,350.435,-555.314,0,0
174004.625,344.176,-554.291,0,0
174264.95,338.176,-552.624,0,0
174525.275,332.581,-550.362,0,0
174785.6,327.488,-547.8,0,0
175045.925,322.46,-544.985,0,0
175306.25,317.566,-541.51,0,0
175566.575,313.255,-537.417,0,0
175826.9,309.556,-533.031,0,0
176087.225,306.309,-528.479,0,0
176347.55,303.602,-523.681,0,0
176607.875,301.431,-518.844,0,0
176868.2,299.717,-514.035,0,0
177128.525,298.409,-509.305,0,0
177388.85,297.449,-504.64,0,0
177649.175,296.849,-500.088,0,0
177909.5,296.528,-495.777,0,0
178169.825,296.241,-491.662,0,0
178430.15,296.009,-487.572,0,0
178690.475,295.919,-483.402,0,0
178950.8,296.056,-479.229,0,0
179211.125,296.426,-475.099,0,0
179471.45,297.047,-471.109,0,0
179731.775,297.81,-467.336,0,0
179992.1,298.571,-463.728,0,0
180252.425,299.349,-460.21,0,0
180512.75,300.131,-456.729,0,0
180773.075,300.965,-453.316,0,0
181033.4,301.786,-449.963,0,0
181293.725,302.596,-446.64,0,0
181554.05,303.374,-443.309,0,0
181814.375,304.151,-439.974,0,0
182074.7,304.873,-436.627,0,0
182335.025,305.495,-433.18,0,0
182595.35,306.123,-429.586,0,0
182855.675,306.777,-425.815,0,0
183116.0,307.493,-421.856,0,0
183376.325,308.349,-417.775,0,0
183636.65,309.336,-413.577,0,0
183896.975,310.465,-409.228,0,0
184157.3,311.75,-404.79,0,0
184417.625,313.197,-400.258,0,0
184677.95,314.796,-395.644,0,0
184938.275,316.534,-390.932,0,0
185198.6,318.482,-386.086,0,0
185458.925,320.672,-381.199,0,0
185719.25,323.067,-376.297,0,0
185979.575,325.626,-371.356,0,0
186239.9,328.391,-366.378,0,0
186500,331.276,-361.265,0,0
186761,334.455,-356.251,0,0
187021,337.774,-351.15,0,0
187281,341.372,-345.912,0,0
187542,345.168,-340.631,0,0
187802,349.232,-335.368,0,0
188062,353.61,-330.036,0,0
188322,358.326,-324.781,0,0
188583,363.301,-319.559,0,0
188843,368.546,-314.235,0,0
189103,374.105,-309.105,0,0
189364,379.887,-303.952,0,0
189624,386.201,-298.883,0,0
189884,392.764,-293.819,0,0
190145,399.755,-289.007,0,0
190405,407.134,-284.341,0,0
190665,414.701,-279.912,0,0
190926,422.661,-275.832,0,0
191186,430.91,-271.775,0,0
191446,439.465,-267.984,0,0
191707,448.363,-264.451,0,0
191967,457.693,-261.274,0,0
192227,467.119,-258.466,0,0
192488,476.905,-256.107,0,0
192748,486.854,-254.022,0,0
193008,496.92,-252.299,0,0
193269,507.286,-250.982,0,0
193529,517.687,-250.055,0,0
193789,528.328,-249.423,0,0
194050,539.054,-249.242,0,0
194310,549.857,-249.518,0,0
194570,560.671,-250.136,0,0
194831,571.537,-251.115,0,0
195091,582.361,-252.349,0,0
195351,593.27,-253.804,0,0
195612,604.344,-255.484,0,0
195872,615.585,-257.451,0,0
196132,627.123,-259.78,0,0
196393,638.866,-262.493,0,0
196653,650.815,-265.674,0,0
196913,663.001,-269.277,0,0
197174,675.502,-273.541,0,0
197434,688.113,-278.491,0,0
197694,700.805,-284.112,0,0
197955,713.558,-290.48,0,0
198215,726.252,-297.588,0,0
198475,738.986,-305.371,0,0
198735,751.837,-313.981,0,0
198996,764.629,-323.703,0,0
199256,777.016,-334.635,0,0
199516,788.834,-346.599,0,0
199777,799.805,-359.459,0,0
200037,810.023,-373.164,0,0
200297,819.353,-387.482,0,0
200558,827.992,-402.512,0,0
200818,835.412,-418.356,0,0
201078,841.54,-434.491,0,0
201339,846.435,-450.747,0,0
201599,850.25,-467.015,0,0
201859,852.872,-483.102,0,0
202120,854.616,-498.71,0,0
202380.025,855.882,-514.172,0,0
202640.35,855.946,-529.302,0,0
202900.675,855.443,-543.51,0,0
203161.0,855.18,-557.371,0,0
203421.325,854.798,-571.374,0,0
203681.65,853.811,-585.922,0,0
203941.975,851.705,-600.583,0,0
204202.3,848.575,-614.697,0,0
204462.625,844.723,-627.834,0,0
204722.95,840.828,-640.398,0,0
204983.275,836.789,-652.651,0,0
205243.6,832.415,-664.654,0,0
205503.925,827.544,-676.339,0,0
205764.25,822.666,-687.526,0,0
206024.575,817.833,-698.312,0,0
206284.9,813.003,-708.745,0,0
206545.225,808.51,-719.724,0,0
206805.55,803.637,-731.048,0,0
207065.875,797.966,-742.88,0,0
207326.2,791.227,-754.747,0,0
207586.525,783.402,-766.29,0,0
207846.85,774.544,-777.019,0,0
208107.175,765.14,-786.877,0,0
208367.5,755.336,-796.003,0,0
208627.825,745.051,-804.396,0,0
208888.15,734.379,-811.83,0,0
209148.475,723.528,-818.202,0,0
209408.8,712.879,-823.65,0,0
209669.125,702.447,-828.329,0,0
209929.45,692.254,-832.288,0,0
210189.775,682.438,-835.7,0,0
210450.1,672.703,-838.859,0,0
210710.425,663.053,-841.361,0,0
210970.75,653.574,-843.297,0,0
211231.075,644.499,-844.601,0,0
211491.4,635.875,-845.425,0,0
211751.725,627.726,-845.897,0,0
212012.05,620,-846.111,0,0
212272.375,612.617,-846.061,0,0
212532.7,605.762,-845.838,0,0
212793.025,599.277,-845.535,0,0
213053.35,592.911,-845.176,0,0
213313.675,586.823,-844.477,0,0
213574.0,581.073,-843.515,0,0
213834.325,575.839,-842.147,0,0
214094.65,571.452,-840.47,0,0
214354.975,568.009,-839.052,0,0
214615.3,565.282,-838.203,0,0
214875.625,562.938,-837.969,0,0
215135.95,560.753,-838.483,0,0
215396.275,558.561,-839.495,0,0
215656.6,556.131,-841.095,0,0
215916.925,553.467,-843.125,0,0
216177.25,550.246,-845.373,0,0
216437.575,546.543,-847.582,0,0
216697.9,542.627,-849.522,0,0
216958.225,538.684,-851.281,0,0
217218.55,534.642,-852.938,0,0
217478.875,530.749,-854.48,0,0
217739.2,526.833,-856.05,0,0
217999.525,522.946,-857.555,0,0
218259.85,518.967,-859.081,0,0
218520,515.001,-860.603,0,0
218780,511.193,-862.082,0,0
219041,507.398,-863.632,0,0
219301,503.574,-865.401,0,0
219561,499.475,-867.293,0,0
219822,495.291,-869.112,0,0
220082,491.03,-870.98,0,0
220342,486.432,-872.878,0,0
220603,481.748,-874.675,0,0
220863,476.783,-876.204,0,0
221123,471.823,-877.466,0,0
221384,466.957,-878.78,0,0
221644,461.836,-879.914,0,0
221904,456.784,-880.867,0,0
222165,451.679,-881.649,0,0
222425,446.735,-882.326,0,0
222685,441.703,-882.916,0,0
222946,436.783,-883.437,0,0
223206,431.723,-883.872,0,0
223466,426.797,-884.216,0,0
223727,421.956,-884.544,0,0
223987,417.205,-884.837,0,0
224247,412.362,-885.346,0,0
224508,407.434,-885.854,0,0
224768,402.276,-886.376,0,0
225028,396.976,-886.724,0,0
225289,391.497,-886.941,0,0
225549,385.853,-886.981,0,0
225809,380.08,-886.832,0,0
226070,374.287,-886.421,0,0
226330,368.466,-885.793,0,0
226590,362.591,-884.984,0,0
226851,356.775,-883.92,0,0
227111,350.935,-882.665,0,0
227371,345.08,-881.192,0,0
227632,339.287,-879.539,0,0
227892,333.508,-877.625,0,0
228152,327.689,-875.381,0,0
228413,322.069,-872.781,0,0
228673,316.621,-869.901,0,0
228933,311.408,-866.903,0,0
229193,306.501,-863.575,0,0
229454,301.789,-860.229,0,0
229714,297.438,-856.646,0,0
229974,293.074,-853.05,0,0
230235,289.281,-849.455,0,0
230495,285.549,-845.742,0,0
230755,282.027,-842.163,0,0
231016,278.657,-838.499,0,0
231276,275.42,-834.843,0,0
231536,272.453,-831.192,0,0
231797,269.554,-827.566,0,0
232057,266.934,-823.888,0,0
232317,264.346,-820.298,0,0
232578,261.916,-816.704,0,0
232838,259.752,-813.084,0,0
233098,257.733,-809.617,0,0
233359,255.761,-806.278,0,0
233619,253.794,-802.86,0,0
233879,252.01,-799.465,0,0
234140,250.396,-796.124,0,0
234400,248.892,-792.835,0,0
234660.3,247.547,-789.599,0,0
234920.625,246.31,-786.473,0,0
235180.95,245.186,-783.532,0,0
235441.275,244.057,-780.713,0,0
235701.6,242.946,-777.92,0,0
235961.925,241.762,-775.237,0,0
236222.25,240.574,-772.504,0,0
236482.575,239.458,-769.754,0,0
236742.9,238.442,-766.972,0,0
237003.225,237.49,-764.202,0,0
237263.55,236.635,-761.43,0,0
237523.875,235.891,-758.664,0,0
237784.2,235.402,-755.907,0,0
238044.525,234.945,-753.259,0,0
238304.85,234.691,-750.82,0,0
238565.175,234.516,-748.56,0,0
238825.5,234.377,-746.495,0,0
239085.825,234.128,-744.517,0,0
239346.15,233.92,-742.602,0,0
239606.475,233.745,-740.897,0,0
239866.8,233.474,-739.2,0,0
240127.125,233.188,-737.628,0,0
240387.45,232.89,-736.204,0,0
240647.775,232.542,-734.772,0,0
240908.1,232.048,-733.532,0,0
241168.425,231.578,-732.252,0,0
241428.75,230.973,-731.049,0,0
241689.075,230.418,-729.899,0,0
241949.4,229.737,-728.74,0,0
242209.725,228.919,-727.561,0,0
242470.05,228.095,-726.457,0,0
242730.375,227.198,-725.317,0,0
242990.7,226.227,-724.16,0,0
243251.025,225.264,-722.987,0,0
243511.35,224.249,-721.853,0,0
243771.675,223.15,-720.681,0,0
244032.0,221.997,-719.571,0,0
244292.325,220.72,-718.348,0,0
244552.65,219.331,-717.003,0,0
244812.975,217.907,-715.548,0,0
245073.3,216.491,-713.858,0,0
245333.625,215.192,-712.16,0,0
245593.95,214.045,-710.313,0,0
245854.275,212.844,-708.464,0,0
246114.6,211.792,-706.633,0,0
246374.925,210.735,-704.721,0,0
246635.25,209.76,-702.749,0,0
246895.575,208.803,-700.724,0,0
247155.9,208.093,-698.688,0,0
247416.225,207.479,-696.742,0,0
247676.55,206.974,-694.978,0,0
247936.875,206.428,-693.188,0,0
248197.2,205.792,-691.453,0,0
248457.525,205.176,-689.868,0,0
248717.85,204.52,-688.124,0,0
248978.175,203.907,-686.515,0,0
249238.5,203.334,-684.833,0,0
249498.825,202.73,-683.176,0,0
249759.15,202.215,-681.634,0,0
250019.475,201.612,-679.95,0,0
250279.8,201.096,-678.435,0,0
250540,200.639,-677.025,0,0
250800,199.965,-675.71,0,0
251061,199.207,-674.428,0,0
251321,198.332,-673.183,0,0
251581,197.231,-671.863,0,0
251842,195.965,-670.432,0,0
252102,194.637,-668.806,0,0
252362,193.191,-667.032,0,0
252623,191.709,-665.058,0,0
252883,190.279,-662.765,0,0
253143,188.962,-660.297,0,0
253404,187.788,-657.681,0,0
253664,186.806,-654.999,0,0
253924,185.911,-652.281,0,0
254185,185.02,-649.55,0,0
254445,184.213,-646.686,0,0
254705,183.443,-643.717,0,0
254966,182.703,-640.584,0,0
255226,182.142,-637.332,0,0
255486,181.643,-633.844,0,0
255747,181.431,-630.159,0,0
256007,181.531,-626.349,0,0
256267,181.885,-622.65,0,0
256528,182.46,-618.937,0,0
256788,183.23,-615.24,0,0
257048,184.183,-611.485,0,0
257309,185.442,-607.67,0,0
257569,186.959,-603.999,0,0
257829,188.687,-600.445,0,0
258090,190.601,-596.918,0,0
258350,192.737,-593.454,0,0
258610,195.14,-590.043,0,0
258871,197.921,-586.759,0,0
259131,200.985,-583.813,0,0
259391,204.168,-581.189,0,0
259651,207.355,-578.808,0,0
259912,210.541,-576.561,0,0
260172,213.916,-574.345,0,0
260432,217.481,-572.263,0,0
260693,221.331,-570.415,0,0
260953,225.348,-568.904,0,0
261213,229.55,-567.769,0,0
261474,233.682,-567.04,0,0
261734,237.696,-566.576,0,0
261994,241.619,-566.239,0,0
262255,245.653,-566.005,0,0
262515,249.83,-565.922,0,0
262775,254.267,-566.191,0,0
263036,258.717,-567.047,0,0
263296,263.032,-568.301,0,0
263556,267.148,-569.922,0,0
263817,271.034,-571.785,0,0
264077,274.818,-573.926,0,0
264337,278.445,-576.39,0,0
264598,281.822,-579.163,0,0
264858,284.812,-582.159,0,0
265118,287.522,-585.253,0,0
265379,290.15,-588.455,0,0
265639,292.517,-591.762,0,0
265899,294.768,-595.292,0,0
266160,296.766,-598.938,0,0
266420,298.452,-602.876,0,0
266680.25,299.853,-606.873,0,0
266940.575,300.934,-610.894,0,0
267200.9,301.927,-615.095,0,0
267461.225,302.585,-619.545,0,0
267721.55,302.805,-624.124,0,0
267981.875,302.676,-628.814,0,0
268242.2,301.975,-633.62,0,0
268502.525,300.695,-638.406,0,0
268762.85,298.807,-642.958,0,0
269023.175,296.33,-647.203,0,0
269283.5,293.366,-650.911,0,0
269543.825,290.034,-653.86,0,0
269804.15,286.731,-656.129,0,0
270064.475,283.723,-657.942,0,0
270324.8,280.944,-659.298,0,0
270585.125,278.431,-660.552,0,0
270845.45,276.206,-661.638,0,0
271105.775,274.255,-662.704,0,0
271366.1,272.561,-663.95,0,0
271626.425,270.76,-665.336,0,0
271886.75,268.908,-666.778,0,0
272147.075,266.984,-668.251,0,0
272407.4,265.049,-669.695,0,0
272667.725,263.025,-671.147,0,0
272928.05,261.012,-672.578,0,0
273188.375,258.953,-674.117,0,0
273448.7,256.84,-675.725,0,0
273709.025,254.449,-677.447,0,0
273969.35,251.857,-679.113,0,0
274229.675,249.093,-680.757,0,0
274490.0,246.099,-682.367,0,0
274750.325,242.701,-683.887,0,0
275010.65,239.048,-685.152,0,0
275270.975,235.168,-686.023,0,0
275531.3,231.185,-686.554,0,0
275791.625,227.214,-686.805,0,0
276051.95,223.204,-686.802,0,0
276312.275,219.147,-686.551,0,0
276572.6,215.005,-686.01,0,0
276832.925,210.791,-685.096,0,0
277093.25,206.614,-683.775,0,0
277353.575,202.589,-681.992,0,0
277613.9,198.789,-679.865,0,0
277874.225,195.235,-677.356,0,0
278134.55,192.019,-674.572,0,0
278394.875,189.2,-671.507,0,0
278655.2,186.842,-668.196,0,0
278915.525,184.993,-664.848,0,0
279175.85,183.666,-661.558,0,0
279436.175,182.749,-658.48,0,0
279696.5,182.232,-655.537,0,0
279956.825,182.021,-653.063,0,0
280217.15,181.85,-650.996,0,0
280477.475,181.628,-649.153,0,0
280737.8,181.31,-647.486,0,0
280998.125,180.948,-645.899,0,0
281258.45,180.564,-644.431,0,0
281518.775,180.024,-642.97,0,0
281779.1,179.443,-641.415,0,0
282039.425,178.923,-639.668,0,0
282299.75,178.688,-637.846,0,0
282560,178.777,-636.133,0,0
282820,178.988,-634.697,0,0
283081,179.277,-633.496,0,0
283341,179.574,-632.542,0,0
283601,179.761,-631.881,0,0
283862,179.709,-631.33,0,0
284122,179.517,-630.785,0,0
284382,179.233,-630.216,0,0
284643,178.924,-629.669,0,0
284903,178.576,-629.179,0,0
285163,178.084,-628.809,0,0
285424,177.461,-628.426,0,0
285684,176.656,-628.045,0,0
285944,175.593,-627.584,0,0
286205,174.421,-626.953,0,0
286465,173.135,-626.066,0,0
286725,171.873,-624.943,0,0
286986,170.682,-623.68,0,0
287246,169.47,-622.294,0,0
287506,168.305,-620.672,0,0
287767,167.225,-618.821,0,0
288027,166.291,-616.733,0,0
288287,165.55,-614.451,0,0
288548,165.061,-611.93,0,0
288808,164.942,-609.261,0,0
289068,165.257,-606.534,0,0
289329,165.968,-603.892,0,0
289589,167.096,-601.407,0,0
289849,168.509,-599.156,0,0
290109,170.188,-597.138,0,0
290370,172.087,-595.407,0,0
290630,174.172,-593.991,0,0
290890,176.372,-592.895,0,0
291151,178.671,-592.093,0,0
291411,181.063,-591.6,0,0
291671,183.469,-591.475,0,0
291932,185.868,-591.661,0,0
292192,188.237,-592.187,0,0
292452,190.599,-593.082,0,0
292713,192.808,-594.423,0,0
292973,194.764,-596.177,0,0
293233,196.34,-598.185,0,0
293494,197.589,-600.368,0,0
293754,198.523,-602.727,0,0
294014,199.16,-605.235,0,0
294275,199.482,-607.862,0,0
294535,199.369,-610.573,0,0
294795,198.856,-613.291,0,0
295056,197.973,-615.953,0,0
295316,196.655,-618.465,0,0
295576,195.03,-620.773,0,0
295837,193.125,-622.864,0,0
296097,190.978,-624.675,0,0
296357,188.61,-626.166,0,0
296618,186.127,-627.302,0,0
296878,183.626,-628.098,0,0
297138,181.182,-628.593,0,0
297399,178.855,-628.869,0,0
297659,176.647,-628.99,0,0
297919,174.495,-628.955,0,0
298180,172.463,-628.822,0,0
298440,170.522,-628.585,0,0
298700.2,168.71,-628.311,0,0
298960.525,166.978,-628.038,0,0
299220.85,165.267,-627.759,0,0
299481.175,163.586,-627.5,0,0
299741.5,161.872,-627.238,0,0
300001.825,160.115,-626.901,0,0
300262.15,158.346,-626.499,0,0
300522.475,156.594,-626.027,0,0
300782.8,154.813,-625.472,0,0
301043.125,153.057,-624.82,0,0
301303.45,151.377,-624.063,0,0
301563.775,149.736,-623.246,0,0
301824.1,148.203,-622.38,0,0
302084.425,146.714,-621.511,0,0
302344.75,145.278,-620.628,0,0
302605.075,143.863,-619.744,0,0
302865.4,142.433,-618.844,0,0
303125.725,140.992,-617.879,0,0
303386.05,139.574,-616.826,0,0
303646.375,138.226,-615.694,0,0
303906.7,136.972,-614.506,0,0
304167.025,135.788,-613.279,0,0
304427.35,134.684,-612.042,0,0
304687.675,133.631,-610.802,0,0
304948.0,132.687,-609.542,0,0
305208.325,131.796,-608.29,0,0
305468.65,130.935,-607.078,0,0
305728.975,130.147,-605.85,0,0
305989.3,129.403,-604.643,0,0
306249.625,128.696,-603.422,0,0
306509.95,128.052,-602.203,0,0
306770.275,127.516,-600.984,0,0
307030.6,127.069,-599.816,0,0
307290.925,126.665,-598.713,0,0
307551.25,126.318,-597.718,0,0
307811.575,125.944,-596.786,0,0
308071.9,125.599,-595.88,0,0
308332.225,125.278,-595.016,0,0
308592.55,124.97,-594.25,0,0
308852.875,124.636,-593.553,0,0
309113.2,124.293,-592.956,0,0
309373.525,123.86,-592.374,0,0
309633.85,123.356,-591.86,0,0
309894.175,122.769,-591.342,0,0
310154.5,122.143,-590.804,0,0
310414.825,121.414,-590.227,0,0
310675.15,120.659,-589.567,0,0
310935.475,119.899,-588.85,0,0
311195.8,119.157,-588.078,0,0
311456.125,118.439,-587.28,0,0
311716.45,117.766,-586.424,0,0
311976.775,117.095,-585.577,0,0
312237.1,116.465,-584.717,0,0
312497.425,115.85,-583.821,0,0
312757.75,115.249,-582.906,0,0
313018.075,114.692,-581.974,0,0
313278.4,114.215,-581.014,0,0
313538.725,113.779,-580.083,0,0
313799.05,113.382,-579.198,0,0
314059.375,113.023,-578.319,0,0
314319.7,112.681,-577.481,0,0
314580,112.299,-576.764,0,0
314840,112.042,-575.991,0,0
315101,111.772,-575.219,0,0
315361,111.422,-574.509,0,0
315621,111.127,-573.836,0,0
315882,110.792,-573.122,0,0
316142,110.529,-572.521,0,0
316402,110.302,-571.888,0,0
316663,109.941,-571.288,0,0
316923,109.644,-570.77,0,0
317183,109.373,-570.299,0,0
317444,109.094,-569.833,0,0
317704,108.711,-569.366,0,0
317964,108.29,-568.945,0,0
318225,107.977,-568.595,0,0
318485,107.461,-568.207,0,0
318745,107.058,-567.875,0,0
319006,106.667,-567.445,0,0
319266,106.147,-567.19,0,0
319526,105.623,-566.976,0,0
319787,104.984,-566.727,0,0
320047,104.395,-566.533,0,0
320307,103.622,-566.35,0,0
320567,102.819,-566.139,0,0
320828,101.96,-566.035,0,0
321088,100.934,-565.814,0,0
321348,99.8288,-565.486,0,0
321609,98.6531,-565.182,0,0
321869,97.4212,-564.846,0,0
322129,96.0295,-564.334,0,0
322390,94.5813,-563.707,0,0
322650,93.1075,-562.841,0,0
322910,91.7415,-561.847,0,0
323171,90.3113,-560.767,0,0
323431,88.9684,-559.51,0,0
323691,87.8963,-558.175,0,0
323952,86.7831,-556.719,0,0
324212,85.7872,-555.246,0,0
324472,84.9519,-553.829,0,0
324733,84.1438,-552.439,0,0
324993,83.5525,-550.957,0,0
325253,82.9203,-549.572,0,0
325514,82.3405,-548.211,0,0
325774,81.822,-546.861,0,0
326034,81.2673,-545.506,0,0
326295,80.6598,-544.166,0,0
326555,80.2582,-542.837,0,0
326815,79.7221,-541.436,0,0
327076,79.2732,-540.164,0,0
327336,78.8344,-538.84,0,0
327596,78.4658,-537.453,0,0
327857,78.149,-536.13,0,0
328117,77.7472,-534.681,0,0
328377,77.4044,-533.271,0,0
328638,77.1528,-531.927,0,0
328898,76.8972,-530.477,0,0
329158,76.7407,-528.989,0,0
329419,76.5894,-527.494,0,0
329679,76.7258,-526.002,0,0
329939,76.8427,-524.583,0,0
330200,76.9418,-523.237,0,0
330460,77.1703,-521.983,0,0
330720.15,77.4166,-520.744,0,0
330980.475,77.7493,-519.624,0,0
331240.8,77.9894,-518.511,0,0
331501.125,78.369,-517.503,0,0
331761.45,78.676,-516.542,0,0
332021.775,79.0864,-515.707,0,0
332282.1,79.3996,-514.915,0,0
332542.425,79.6915,-514.202,0,0
332802.75,79.9743,-513.6,0,0
333063.075,80.1226,-513.098,0,0
333323.4,80.2237,-512.55,0,0
333583.725,80.2281,-512.098,0,0
333844.05,80.2083,-511.557,0,0
334104.375,80.0274,-511.053,0,0
334364.7,79.8469,-510.581,0,0
334625.025,79.6549,-510.013,0,0
334885.35,79.4114,-509.404,0,0
335145.675,79.1201,-508.814,0,0
335406.0,78.7372,-508.129,0,0
335666.325,78.4017,-507.383,0,0
335926.65,77.925,-506.576,0,0
336186.975,77.5315,-505.746,0,0
336447.3,77.0625,-504.83,0,0
336707.625,76.6407,-503.873,0,0
336967.95,76.2943,-502.825,0,0
337228.275,75.9845,-501.72,0,0
337488.6,75.7073,-500.567,0,0
337748.925,75.5296,-499.389,0,0
338009.25,75.3746,-498.253,0,0
338269.575,75.2051,-496.988,0,0
338529.9,75.0971,-495.844,0,0
338790.225,75.0777,-494.587,0,0
339050.55,75.0682,-493.299,0,0
339310.875,75.0805,-492.057,0,0
339571.2,75.1991,-490.779,0,0
339831.525,75.4408,-489.455,0,0
340091.85,75.6606,-488.198,0,0
340352.175,75.9614,-486.855,0,0
340612.5,76.4415,-485.585,0,0
340872.825,76.9646,-484.352,0,0
341133.15,77.5281,-483.172,0,0
341393.475,78.1914,-482.001,0,0
341653.8,78.9773,-480.898,0,0
341914.125,79.8721,-479.934,0,0
342174.45,80.7514,-479.036,0,0
342434.775,81.7407,-478.279,0,0
342695.1,82.7356,-477.682,0,0
342955.425,83.6869,-477.219,0,0
343215.75,84.6133,-476.895,0,0
343476.075,85.4586,-476.735,0,0
343736.4,86.2619,-476.547,0,0
343996.725,86.9348,-476.524,0,0
344257.05,87.5668,-476.558,0,0
344517.375,88.1546,-476.616,0,0
344777.7,88.5541,-476.768,0,0
345038.025,88.9646,-476.944,0,0
345298.35,89.1817,-477.096,0,0
345558.675,89.3953,-477.222,0,0
345819.0,89.4803,-477.361,0,0
346079.325,89.587,-477.5,0,0
346339.65,89.5199,-477.657,0,0
346599.975,89.3532,-477.752,0,0
346860,89.2179,-477.83,0,0
347121,89.0769,-477.899,0,0
347381,88.7734,-477.855,0,0
347641,88.4835,-477.847,0,0
347902,88.1127,-477.778,0,0
348162,87.7557,-477.649,0,0
348422,87.3241,-477.476,0,0
348683,86.8777,-477.263,0,0
348943,86.4745,-476.973,0,0
349203,86.0807,-476.634,0,0
349464,85.6331,-476.312,0,0
349724,85.1939,-475.906,0,0
349984,84.7906,-475.46,0,0
350245,84.4079,-475.035,0,0
350505,83.9606,-474.52,0,0
350765,83.5589,-473.997,0,0
351025,83.1894,-473.483,0,0
351286,82.7754,-472.914,0,0
351546,82.3531,-472.355,0,0
351806,81.9258,-471.681,0,0
352067,81.542,-470.949,0,0
352327,81.1967,-470.173,0,0
352587,80.951,-469.366,0,0
352848,80.7185,-468.546,0,0
353108,80.5637,-467.717,0,0
353368,80.4862,-466.91,0,0
353629,80.437,-466.079,0,0
353889,80.5003,-465.31,0,0
354149,80.5473,-464.615,0,0
354410,80.632,-464.012,0,0
354670,80.7584,-463.382,0,0
354930,80.7884,-462.848,0,0
355191,80.8207,-462.283,0,0
355451,80.8605,-461.729,0,0
355711,80.8773,-461.234,0,0
355972,80.9052,-460.727,0,0
356232,80.8953,-460.305,0,0
356492,80.8579,-459.904,0,0
356753,80.8106,-459.443,0,0
357013,80.7005,-459.127,0,0
357273,80.5828,-458.659,0,0
357534,80.3316,-458.232,0,0
357794,80.1077,-457.74,0,0
358054,79.8586,-457.246,0,0
358315,79.609,-456.755,0,0
358575,79.3419,-456.127,0,0
358835,79.0576,-455.502,0,0
359096,78.8042,-454.789,0,0
359356,78.6288,-454.123,0,0
359616,78.3869,-453.39,0,0
359877,78.1909,-452.692,0,0
360137,78.0761,-451.885,0,0
360397,77.9132,-451.087,0,0
360658,77.8091,-450.193,0,0
360918,77.661,-449.377,0,0
361178,77.6666,-448.525,0,0
361438,77.736,-447.61,0,0
361699,77.8182,-446.708,0,0
361959,77.9941,-445.942,0,0
362219,78.1631,-445.097,0,0
362480,78.4482,-444.363,0,0
362740.1,78.7392,-443.68,0,0
363000.425,78.9307,-443.101,0,0
363260.75,79.0974,-442.507,0,0
363521.075,79.2772,-442.041,0,0
363781.4,79.3742,-441.473,0,0
364041.725,79.4391,-440.943,0,0
364302.05,79.4284,-440.377,0,0
364562.375,79.4827,-439.784,0,0
364822.7,79.4949,-439.147,0,0
365083.025,79.4404,-438.485,0,0
365343.35,79.4158,-437.785,0,0
365603.675,79.4385,-437.027,0,0
365864.0,79.4269,-436.189,0,0
366124.325,79.5441,-435.323,0,0
366384.65,79.6762,-434.38,0,0
366644.975,79.8631,-433.499,0,0
366905.3,80.182,-432.56,0,0
367165.625,80.4371,-431.716,0,0
367425.95,80.8275,-430.8,0,0
367686.275,81.1975,-429.995,0,0
367946.6,81.6445,-429.138,0,0
368206.925,82.1652,-428.238,0,0
368467.25,82.7063,-427.379,0,0
368727.575,83.2926,-426.587,0,0
368987.9,83.981,-425.774,0,0
369248.225,84.7344,-425.067,0,0
369508.55,85.4373,-424.42,0,0
369768.875,86.2406,-423.72,0,0
370029.2,87.094,-423.114,0,0
370289.525,87.9924,-422.563,0,0
370549.85,88.9425,-422.027,0,0
370810.175,89.9701,-421.648,0,0
371070.5,91.0551,-421.286,0,0
371330.825,92.1903,-421.142,0,0
371591.15,93.2908,-421.117,0,0
371851.475,94.3273,-421.177,0,0
372111.8,95.3639,-421.339,0,0
372372.125,96.3987,-421.677,0,0
372632.45,97.3086,-422.071,0,0
372892.775,98.2234,-422.608,0,0
373153.1,98.979,-423.248,0,0
373413.425,99.6141,-423.999,0,0
373673.75,100.07,-424.805,0,0
373934.075,100.369,-425.631,0,0
374194.4,100.511,-426.424,0,0
374454.725,100.576,-427.204,0,0
374715.05,100.381,-427.921,0,0
374975.375,100.172,-428.494,0,0
375235.7,99.8796,-428.943,0,0
375496.025,99.5865,-429.303,0,0
375756.35,99.3173,-429.567,0,0
376016.675,99.0278,-429.812,0,0
376277.0,98.7282,-430.039,0,0
376537.325,98.5279,-430.212,0,0
376797.65,98.2312,-430.35,0,0
377057.975,98.0178,-430.439,0,0
377318.3,97.7842,-430.57,0,0
377578.625,97.5898,-430.664,0,0
377838.95,97.4054,-430.791,0,0
378099.275,97.1375,-430.855,0,0
378359.6,96.9054,-430.978,0,0
378619.925,96.6345,-431.086,0,0
378880,96.3617,-431.21,0,0
379141,96.0707,-431.22,0,0
379401,95.7956,-431.341,0,0
379661,95.4693,-431.372,0,0
379922,95.1678,-431.402,0,0
380182,94.7718,-431.431,0,0
380442,94.4262,-431.426,0,0
380703,93.9958,-431.349,0,0
380963,93.5558,-431.211,0,0
381223,93.2261,-430.969,0,0
381483,92.9141,-430.652,0,0
381744,92.772,-430.368,0,0
382004,92.7184,-430.044,0,0
382264,92.8057,-429.859,0,0
382525,92.9525,-429.79,0,0
382785,93.1167,-429.818,0,0
383045,93.2438,-430.016,0,0
383306,93.3375,-430.449,0,0
383566,93.2523,-430.891,0,0
383826,93.0832,-431.441,0,0
384087,92.6651,-432.022,0,0
384347,92.118,-432.5,0,0
384607,91.5131,-432.986,0,0
384868,90.7423,-433.455,0,0
385128,89.9349,-433.77,0,0
385388,88.9831,-434.016,0,0
385649,87.9401,-434.148,0,0
385909,86.9238,-434.215,0,0
386169,85.8243,-434.139,0,0
386430,84.6245,-433.976,0,0
386690,83.5129,-433.652,0,0
386950,82.4053,-433.134,0,0
387211,81.298,-432.625,0,0
387471,80.2964,-431.88,0,0
387731,79.4403,-431.078,0,0
387992,78.6406,-430.21,0,0
388252,77.9802,-429.281,0,0
388512,77.4394,-428.309,0,0
388773,76.9506,-427.316,0,0
389033,76.6758,-426.337,0,0
389293,76.4797,-425.44,0,0
389554,76.3966,-424.608,0,0
389814,76.43,-423.789,0,0
390074,76.507,-423.113,0,0
390335,76.6615,-422.547,0,0
390595,76.834,-422.083,0,0
390855,76.9965,-421.755,0,0
391116,77.148,-421.541,0,0
391376,77.2486,-421.497,0,0
391636,77.2566,-421.55,0,0
391896,77.1314,-421.646,0,0
392157,76.8322,-421.852,0,0
392417,76.3911,-421.978,0,0
392677,75.8032,-422.09,0,0
392938,75.1084,-422.14,0,0
393198,74.3316,-422.066,0,0
393458,73.5118,-421.885,0,0
393719,72.6658,-421.61,0,0
393979,71.8372,-421.286,0,0
394239,71.0451,-420.847,0,0
394500,70.1714,-420.323,0,0
394760.05,69.3272,-419.775,0,0
395020.375,68.5147,-419.109,0,0
395280.7,67.7913,-418.435,0,0
395541.025,67.0662,-417.668,0,0
395801.35,66.4052,-416.878,0,0
396061.675,65.8176,-416.057,0,0
396322.0,65.2176,-415.209,0,0
396582.325,64.7061,-414.413,0,0
396842.65,64.1609,-413.565,0,0
397102.975,63.7038,-412.699,0,0
397363.3,63.2162,-411.842,0,0
397623.625,62.7803,-410.968,0,0
397883.95,62.3244,-410.138,0,0
398144.275,61.8833,-409.213,0,0
398404.6,61.5164,-408.281,0,0
398664.925,61.0889,-407.306,0,0
398925.25,60.7585,-406.339,0,0
399185.575,60.4524,-405.405,0,0
399445.9,60.203,-404.382,0,0
399706.225,59.9606,-403.417,0,0
399966.55,59.714,-402.419,0,0
400006.6,59.6669,-402.271,0,0