File: Accelerated corrosion test data/2025-10-13_18-00-03/sample_8.csv
Frequency (Hz),Impedance (ohms),Phase (Radians),Temperature (C),Humidity (%)
10000.0,315.597,-10916.5,0,0
10260.325,307.455,-10642.9,0,0
10520.65,300.65,-10382.8,0,0
10780.975,292.787,-10135.2,0,0
11041.3,285.939,-9899.32,0,0
11301.625,279.54,-9674.53,0,0
11561.95,273.776,-9458.38,0,0
11822.275,267.884,-9252.84,0,0
12082.6,266.157,-9054.78,0,0
12342.925,262.055,-8869.53,0,0
12603.25,257.198,-8688.81,0,0
12863.575,252.987,-8519.37,0,0
13123.9,244.18,-8354.29,0,0
13384.225,238.146,-8193.56,0,0
13644.55,235.455,-8039.67,0,0
13904.875,227.762,-7891.11,0,0
14165.2,223.944,-7747.21,0,0
14425.525,219.901,-7608.86,0,0
14685.8,215.245,-7474.85,0,0
14946.175,211.212,-7345.98,0,0
15206.5,207.989,-7221.05,0,0
15466.825,204.348,-7101.45,0,0
15727.15,201.018,-6985.26,0,0
15987.5,197.667,-6872.76,0,0
16247.8,194.765,-6763.7,0,0
16508.125,191.51,-6657.83,0,0
16768.45,187.991,-6555.37,0,0
17028.775,185.371,-6456.22,0,0
17289.1,182.733,-6359.24,0,0
17549.425,179.817,-6265.29,0,0
17809.75,178.065,-6174.34,0,0
18070.075,175.061,-6086.86,0,0
18330.4,172.89,-5999.72,0,0
18590.725,170.637,-5914.89,0,0
18851.05,171.492,-5832.52,0,0
19111.375,169.5,-5754.39,0,0
19371.7,172.51,-5678.13,0,0
19632.025,168.776,-5605.11,0,0
19892.35,165.036,-5535.63,0,0
20152.675,162.738,-5462.48,0,0
20413.0,162.536,-5393.51,0,0
20673.3,161.965,-5327.34,0,0
20933.65,159.051,-5264.41,0,0
21193.975,155.472,-5200.89,0,0
21454.3,153.465,-5137.15,0,0
21714.625,151.582,-5075.17,0,0
21974.9,150.836,-5015.85,0,0
22235.275,151.312,-4958.28,0,0
22495.6,149.685,-4901.83,0,0
22755.925,147.783,-4847.53,0,0
23016.25,145.782,-4794.14,0,0
23276.6,141.615,-4741.45,0,0
23536.9,139.313,-4689.5,0,0
23797.225,137.746,-4637.93,0,0
24057.55,135.687,-4586.98,0,0
24317.875,134.166,-4538.46,0,0
24578.2,132.463,-4490.02,0,0
24838.525,131.164,-4442.65,0,0
25098.85,129.604,-4396.31,0,0
25359.175,127.995,-4350.94,0,0
25619.5,126.847,-4307,0,0
25879.8,125.907,-4262.38,0,0
26140.1,124.983,-4221.01,0,0
26400.5,123.853,-4179.48,0,0
26660.8,122.363,-4137.98,0,0
26921.1,121.942,-4096.54,0,0
27181.4,121.965,-4058.09,0,0
27441.8,120.586,-4019.57,0,0
27702.1,120.281,-3982.58,0,0
27962.4,117.542,-3945.01,0,0
28222.7,118.905,-3907.82,0,0
28483.1,116.962,-3872.14,0,0
28743.4,117.305,-3837.06,0,0
29003.7,116.282,-3803.2,0,0
29264,115.98,-3768.98,0,0
29524.4,115.128,-3736.16,0,0
29784.7,114.66,-3703.47,0,0
30045,114.066,-3671.71,0,0
30305.3,113.524,-3640.67,0,0
30565.7,111.732,-3610.08,0,0
30826,110.657,-3579.17,0,0
31086.3,109.269,-3548.91,0,0
31346.6,108.533,-3518.97,0,0
31607,107.914,-3489.53,0,0
31867.3,107.429,-3460.42,0,0
32127.6,106.665,-3431.91,0,0
32387.9,106.157,-3403.41,0,0
32648.3,106.119,-3375.94,0,0
32908.6,106.375,-3349.23,0,0
33168.9,105.745,-3322.02,0,0
33429.2,106.146,-3295.97,0,0
33689.6,106.141,-3270.46,0,0
33949.9,106.384,-3245.45,0,0
34210.2,105.97,-3220.34,0,0
34470.5,106.346,-3196.09,0,0
34730.9,106.505,-3171.89,0,0
34991.2,107.041,-3148.17,0,0
35251.5,108.055,-3125.16,0,0
35511.8,108.641,-3103.28,0,0
35772.2,108.997,-3081.18,0,0
36032.5,109.274,-3060.62,0,0
36292.8,109.071,-3040.09,0,0
36553.1,108.66,-3019.79,0,0
36813.5,108.061,-2999.8,0,0
37073.8,107.764,-2980.21,0,0
37334.1,106.585,-2961.29,0,0
37594.4,105.204,-2942.14,0,0
37854.8,102.933,-2923.07,0,0
38115.1,101.408,-2904.04,0,0
38375.4,99.3652,-2884.65,0,0
38635.7,97.2944,-2865.31,0,0
38896.1,95.4066,-2846.28,0,0
39156.4,93.5161,-2826.73,0,0
39416.7,92.1829,-2807.49,0,0
39677,90.8219,-2788.78,0,0
39937.4,88.995,-2769.52,0,0
40197.7,88.5628,-2750.32,0,0
40458,88.3875,-2731.92,0,0
40718.3,88.2622,-2714.51,0,0
40978.7,87.1576,-2696.74,0,0
41239,86.5142,-2679.56,0,0
41499.3,85.8153,-2661.95,0,0
41759.6,85.5714,-2645.2,0,0
42020,84.4494,-2628.76,0,0
42280.275,83.772,-2611.74,0,0
42540.6,83.323,-2595.03,0,0
42800.925,83.1099,-2578.33,0,0
43061.25,83.15,-2562.61,0,0
43321.575,83.4826,-2547.16,0,0
43581.9,83.3651,-2532.19,0,0
43842.225,82.1809,-2517.61,0,0
44102.55,81.241,-2502.65,0,0
44362.875,80.5668,-2487.51,0,0
44623.2,79.8296,-2472.74,0,0
44883.525,79.1468,-2457.83,0,0
45143.85,78.5963,-2443.35,0,0
45404.175,77.8804,-2428.99,0,0
45664.5,77.4237,-2414.84,0,0
45924.825,76.9594,-2400.55,0,0
46185.15,76.3848,-2386.57,0,0
46445.475,75.754,-2372.74,0,0
46705.8,74.9937,-2359.01,0,0
46966.125,74.8569,-2345.35,0,0
47226.45,74.4864,-2332.04,0,0
47486.775,74.0552,-2318.8,0,0
47747.1,73.7745,-2305.79,0,0
48007.425,73.5596,-2292.86,0,0
48267.75,73.0682,-2280.13,0,0
48528.075,72.7924,-2267.52,0,0
48788.4,72.2457,-2255.07,0,0
49048.725,71.8303,-2242.65,0,0
49309.05,71.4934,-2230.37,0,0
49569.375,70.8999,-2218.17,0,0
49829.7,70.5501,-2205.97,0,0
50090.025,70.1842,-2193.82,0,0
50350.35,69.8135,-2181.95,0,0
50610.675,69.5414,-2170.31,0,0
50871.0,69.4115,-2158.52,0,0
51131.325,69.1534,-2146.95,0,0
51391.65,68.9353,-2135.45,0,0
51651.975,68.8423,-2124.2,0,0
51912.3,68.7297,-2113.23,0,0
52172.625,68.519,-2102.09,0,0
52432.95,68.258,-2091.27,0,0
52693.275,68.1726,-2080.43,0,0
52953.6,68.3042,-2069.75,0,0
53213.925,68.3584,-2059.34,0,0
53474.25,68.5121,-2049.04,0,0
53734.575,68.549,-2039.41,0,0
53994.9,67.9889,-2029.88,0,0
54255.225,67.2766,-2020.03,0,0
54515.55,66.5871,-2010.06,0,0
54775.875,66.1426,-2000.26,0,0
55036.2,65.5303,-1990.52,0,0
55296.525,64.7981,-1980.64,0,0
55556.85,64.0883,-1970.74,0,0
55817.175,63.5741,-1960.96,0,0
56077.5,63.0177,-1951.19,0,0
56337.825,62.5814,-1941.33,0,0
56598.15,62.3273,-1931.72,0,0
56858.475,62.0084,-1922.08,0,0
57118.8,61.8209,-1912.71,0,0
57379.125,61.5744,-1903.34,0,0
57639.45,61.4675,-1894.06,0,0
57899.775,61.1689,-1884.85,0,0
58160.1,61.043,-1875.82,0,0
58420.4,60.9141,-1866.76,0,0
58680.7,60.8841,-1857.92,0,0
58941.1,60.8271,-1849.11,0,0
59201.4,60.7456,-1840.62,0,0
59461.7,60.4159,-1832.15,0,0
59722,60.1755,-1823.74,0,0
59982.4,59.826,-1815.22,0,0
60242.7,59.4826,-1806.65,0,0
60503,59.1186,-1798.07,0,0
60763.3,59.1319,-1789.67,0,0
61023.7,58.9277,-1781.32,0,0
61284,58.8345,-1772.89,0,0
61544.3,58.9132,-1764.76,0,0
61804.6,58.8296,-1756.77,0,0
62065,58.6804,-1748.87,0,0
62325.3,58.4549,-1740.91,0,0
62585.6,58.372,-1732.86,0,0
62845.9,58.4849,-1724.9,0,0
63106.3,58.6713,-1717.04,0,0
63366.6,58.8454,-1709.5,0,0
63626.9,58.9455,-1701.86,0,0
63887.2,59.0359,-1694.48,0,0
64147.6,59.3419,-1687.03,0,0
64407.9,59.5371,-1679.94,0,0
64668.2,59.5967,-1673.02,0,0
64928.5,59.4826,-1666.09,0,0
65188.9,59.4316,-1659.2,0,0
65449.2,59.0896,-1652.51,0,0
65709.5,58.7856,-1645.38,0,0
65969.8,58.6165,-1638.64,0,0
66230.2,58.4359,-1631.84,0,0
66490.5,57.8054,-1625.15,0,0
66750.8,57.1842,-1618.13,0,0
67011.1,56.8339,-1611.13,0,0
67271.5,56.6226,-1604.05,0,0
67531.8,56.4427,-1597.21,0,0
67792.1,56.2819,-1590.39,0,0
68052.4,56.1213,-1583.64,0,0
68312.8,55.9144,-1576.98,0,0
68573.1,55.6828,-1570.25,0,0
68833.4,55.5112,-1563.49,0,0
69093.7,55.5108,-1556.77,0,0
69354.1,55.4588,-1550.24,0,0
69614.4,55.4575,-1543.64,0,0
69874.7,55.4595,-1537.17,0,0
70135,55.5754,-1530.91,0,0
70395.4,55.5488,-1524.7,0,0
70655.7,55.399,-1518.43,0,0
70916,55.3769,-1512.06,0,0
71176.3,55.5149,-1505.83,0,0
71436.7,55.5044,-1499.76,0,0
71697,55.6467,-1493.59,0,0
71957.3,55.7272,-1487.79,0,0
72217.6,55.7063,-1481.93,0,0
72478,55.7395,-1476.14,0,0
72738.3,55.5475,-1470.48,0,0
72998.6,55.3684,-1464.71,0,0
73258.9,55.0466,-1458.79,0,0
73519.3,55.0576,-1453.01,0,0
73779.6,54.9209,-1447.29,0,0
74039.9,54.7952,-1441.63,0,0
74300.225,54.6804,-1436.03,0,0
74560.55,54.4755,-1430.37,0,0
74820.875,54.2569,-1424.6,0,0
75081.2,54.0921,-1418.93,0,0
75341.525,54.0207,-1413.24,0,0
75601.85,53.9391,-1407.62,0,0
75862.175,53.926,-1402.1,0,0
76122.5,53.8706,-1396.58,0,0
76382.825,53.8382,-1391.08,0,0
76643.15,53.8676,-1385.73,0,0
76903.475,53.8197,-1380.38,0,0
77163.8,53.6894,-1375.06,0,0
77424.125,53.5708,-1369.71,0,0
77684.45,53.5278,-1364.45,0,0
77944.775,53.3855,-1359.13,0,0
78205.1,53.3242,-1353.91,0,0
78465.425,53.1516,-1348.75,0,0
78725.75,52.8913,-1343.43,0,0
78986.075,52.89,-1338.25,0,0
79246.4,52.7461,-1333.02,0,0
79506.725,52.6069,-1327.77,0,0
79767.05,52.5658,-1322.56,0,0
80027.375,52.5173,-1317.32,0,0
80287.7,52.4369,-1312.18,0,0
80548.025,52.3618,-1307.08,0,0
80808.35,52.4122,-1301.88,0,0
81068.675,52.3671,-1296.76,0,0
81329.0,52.4876,-1291.61,0,0
81589.325,52.5378,-1286.6,0,0
81849.65,52.595,-1281.45,0,0
82109.975,52.8208,-1276.38,0,0
82370.3,53.0693,-1271.48,0,0
82630.625,53.2587,-1266.55,0,0
82890.95,53.4698,-1261.71,0,0
83151.275,53.651,-1256.98,0,0
83411.6,53.7387,-1252.09,0,0
83671.925,54.056,-1247.22,0,0
83932.25,54.4039,-1242.54,0,0
84192.575,54.623,-1237.88,0,0
84452.9,55.062,-1233.18,0,0
84713.225,55.4853,-1228.72,0,0
84973.55,55.9195,-1224.5,0,0
85233.875,56.0021,-1220.6,0,0
85494.2,55.7923,-1216.44,0,0
85754.525,55.4813,-1211.99,0,0
86014.85,55.3024,-1207.42,0,0
86275.175,55.1444,-1202.85,0,0
86535.5,55.046,-1198.16,0,0
86795.825,55.1268,-1193.37,0,0
87056.15,55.4317,-1188.74,0,0
87316.475,55.6224,-1184.46,0,0
87576.8,55.7068,-1179.99,0,0
87837.125,55.7973,-1175.49,0,0
88097.45,55.9233,-1170.91,0,0
88357.775,56.1268,-1166.49,0,0
88618.1,56.3362,-1162.05,0,0
88878.425,56.495,-1157.63,0,0
89138.75,56.6643,-1153.2,0,0
89399.075,56.8626,-1148.78,0,0
89659.4,57.121,-1144.22,0,0
89919.725,57.4851,-1139.66,0,0
90180,57.9475,-1135.17,0,0
90440.4,58.287,-1130.88,0,0
90700.7,58.6938,-1126.4,0,0
90961,59.3038,-1121.89,0,0
91221.3,60.1659,-1117.35,0,0
91481.7,61.2149,-1113.08,0,0
91742,62.1269,-1109.21,0,0
92002.3,63.0113,-1105.46,0,0
92262.6,63.6707,-1101.66,0,0
92523,64.5302,-1097.88,0,0
92783.3,65.311,-1094.21,0,0
93043.6,66.2363,-1090.64,0,0
93303.9,67.0496,-1087.53,0,0
93564.3,67.5907,-1084.62,0,0
93824.6,67.4662,-1081.78,0,0
94084.9,66.9396,-1078.22,0,0
94345.2,66.8109,-1074.37,0,0
94605.6,66.8696,-1070.33,0,0
94865.9,67.2415,-1066.4,0,0
95126.2,67.3182,-1062.6,0,0
95386.5,67.6869,-1058.49,0,0
95646.9,68.0955,-1054.69,0,0
95907.2,68.5625,-1050.67,0,0
96167.5,69.1923,-1046.8,0,0
96427.8,69.7297,-1042.83,0,0
96688.2,70.6248,-1039,0,0
96948.5,71.4329,-1035.35,0,0
97208.8,72.3198,-1031.71,0,0
97469.1,73.2184,-1028.13,0,0
97729.5,74.1351,-1024.64,0,0
97989.8,75.1374,-1021.28,0,0
98250.1,76.0723,-1017.95,0,0
98510.4,77.088,-1014.65,0,0
98770.8,78.3031,-1011.49,0,0
99031.1,79.4106,-1008.65,0,0
99291.4,80.458,-1006.07,0,0
99551.7,81.084,-1003.49,0,0
99812.1,81.6942,-1000.67,0,0
100072,82.4366,-997.899,0,0
100333,83.208,-995.331,0,0
100593,83.8519,-992.725,0,0
100853,84.5431,-990.238,0,0
101114,85.0591,-987.887,0,0
101374,85.4747,-985.495,0,0
101634,85.8699,-983.128,0,0
101895,86.1851,-980.805,0,0
102155,86.3747,-978.49,0,0
102415,86.4913,-976.162,0,0
102676,86.5764,-973.857,0,0
102936,86.6135,-971.617,0,0
103196,86.3384,-969.364,0,0
103457,85.9626,-966.926,0,0
103717,85.5456,-964.198,0,0
103977,85.2358,-961.316,0,0
104238,85.241,-958.406,0,0
104498,85.2483,-955.719,0,0
104758,85.1994,-953.095,0,0
105019,84.9678,-950.511,0,0
105279,84.7628,-947.672,0,0
105539,84.6022,-944.814,0,0
105800,84.5034,-941.942,0,0
106060,84.455,-939.076,0,0
106320.175,84.433,-936.271,0,0
106580.5,84.4249,-933.418,0,0
106840.825,84.4388,-930.563,0,0
107101.15,84.5637,-927.765,0,0
107361.475,84.6431,-925.163,0,0
107621.8,84.6157,-922.553,0,0
107882.125,84.5067,-919.929,0,0
108142.45,84.2985,-917.142,0,0
108402.775,84.1746,-914.321,0,0
108663.1,84.0875,-911.464,0,0
108923.425,84.0245,-908.549,0,0
109183.75,84.1077,-905.545,0,0
109444.075,84.2598,-902.627,0,0
109704.4,84.4878,-899.791,0,0
109964.725,84.8547,-897.079,0,0
110225.05,85.097,-894.484,0,0
110485.375,85.2428,-891.948,0,0
110745.7,85.4429,-889.309,0,0
111006.025,85.4827,-886.822,0,0
111266.35,85.5782,-884.279,0,0
111526.675,85.6597,-881.653,0,0
111787.0,85.8179,-879.1,0,0
112047.325,85.9926,-876.635,0,0
112307.65,86.0565,-874.221,0,0
112567.975,86.1242,-871.741,0,0
112828.3,86.131,-869.326,0,0
113088.625,86.2026,-866.91,0,0
113348.95,86.2405,-864.458,0,0
113609.275,86.2153,-862.141,0,0
113869.6,86.1714,-859.833,0,0
114129.925,86.0086,-857.505,0,0
114390.25,85.8815,-855.068,0,0
114650.575,85.6595,-852.641,0,0
114910.9,85.5446,-850.179,0,0
115171.225,85.4871,-847.758,0,0
115431.55,85.3316,-845.489,0,0
115691.875,85.0123,-843.183,0,0
115952.2,84.6307,-840.753,0,0
116212.525,84.2352,-838.251,0,0
116472.85,83.8027,-835.702,0,0
116733.175,83.4411,-833.028,0,0
116993.5,83.1201,-830.241,0,0
117253.825,82.9439,-827.397,0,0
117514.15,82.8981,-824.657,0,0
117774.475,82.9215,-822.004,0,0
118034.8,82.874,-819.467,0,0
118295.125,82.7607,-817.005,0,0
118555.45,82.5534,-814.438,0,0
118815.775,82.3902,-811.844,0,0
119076.1,82.3724,-809.262,0,0
119336.425,82.1507,-806.858,0,0
119596.75,81.8727,-804.303,0,0
119857.075,81.5938,-801.755,0,0
120117.4,81.2888,-799.115,0,0
120377.725,80.9939,-796.353,0,0
120638.05,80.7872,-793.617,0,0
120898.375,80.6241,-790.807,0,0
121158.7,80.5596,-788.104,0,0
121419.025,80.39,-785.43,0,0
121679.35,80.2279,-782.71,0,0
121939.675,80.0631,-779.928,0,0
122200.0,79.9751,-777.128,0,0
122460,79.9866,-774.368,0,0
122721,79.933,-771.704,0,0
122981,79.8599,-768.988,0,0
123241,79.7706,-766.287,0,0
123502,79.6828,-763.553,0,0
123762,79.5319,-760.82,0,0
124022,79.3754,-757.984,0,0
124283,79.3945,-755.023,0,0
124543,79.429,-752.159,0,0
124803,79.5257,-749.293,0,0
125064,79.6385,-746.538,0,0
125324,79.7691,-743.722,0,0
125584,79.8593,-740.958,0,0
125845,79.9561,-738.162,0,0
126105,80.0964,-735.303,0,0
126365,80.2537,-732.515,0,0
126626,80.5337,-729.687,0,0
126886,80.8242,-726.96,0,0
127146,81.1026,-724.35,0,0
127406,81.2994,-721.659,0,0
127667,81.5038,-718.958,0,0
127927,81.7653,-716.221,0,0
128187,81.9654,-713.653,0,0
128448,82.2838,-710.962,0,0
128708,82.5587,-708.316,0,0
128968,82.8296,-705.702,0,0
129229,83.1094,-703.149,0,0
129489,83.287,-700.646,0,0
129749,83.4432,-698.101,0,0
130010,83.4872,-695.499,0,0
130270,83.5724,-692.749,0,0
130530,83.7624,-689.957,0,0
130791,84.1097,-687.221,0,0
131051,84.4259,-684.551,0,0
131311,84.7941,-681.892,0,0
131572,85.0887,-679.333,0,0
131832,85.339,-676.772,0,0
132092,85.5672,-674.173,0,0
132353,85.782,-671.527,0,0
132613,86.069,-668.926,0,0
132873,86.3577,-666.33,0,0
133134,86.5455,-663.777,0,0
133394,86.6775,-661.172,0,0
133654,86.8046,-658.423,0,0
133915,87.0475,-655.612,0,0
134175,87.3609,-652.867,0,0
134435,87.6963,-650.173,0,0
134696,87.9223,-647.404,0,0
134956,88.2966,-644.505,0,0
135216,88.8375,-641.71,0,0
135477,89.371,-638.988,0,0
135737,89.9704,-636.309,0,0
135997,90.707,-633.77,0,0
136258,91.2744,-631.528,0,0
136518,91.681,-629.26,0,0
136778,92.038,-627.067,0,0
137039,92.0255,-624.907,0,0
137299,91.9577,-622.555,0,0
137559,91.762,-620.062,0,0
137819,91.5,-617.481,0,0
138080,91.1595,-614.637,0,0
138340.125,90.8817,-611.512,0,0
138600.45,90.9139,-608.252,0,0
138860.775,91.021,-604.995,0,0
139121.1,91.3185,-601.709,0,0
139381.425,91.6627,-598.576,0,0
139641.75,91.9187,-595.432,0,0
139902.075,92.2715,-592.105,0,0
140162.4,92.812,-588.853,0,0
140422.725,93.2955,-585.702,0,0
140683.05,93.7341,-582.468,0,0
140943.375,94.3137,-579.153,0,0
141203.7,94.97,-575.933,0,0
141464.025,95.5665,-572.778,0,0
141724.35,96.0863,-569.568,0,0
141984.675,96.6509,-566.22,0,0
142245.0,97.2862,-562.819,0,0
142505.325,97.9632,-559.437,0,0
142765.65,98.6872,-555.967,0,0
143025.975,99.4448,-552.497,0,0
143286.3,100.298,-548.81,0,0
143546.625,101.397,-545.206,0,0
143806.95,102.436,-541.737,0,0
144067.275,103.445,-538.13,0,0
144327.6,104.601,-534.476,0,0
144587.925,105.836,-530.765,0,0
144848.25,107.251,-526.981,0,0
145108.575,108.794,-523.238,0,0
145368.9,110.468,-519.488,0,0
145629.225,112.382,-515.825,0,0
145889.55,114.37,-512.369,0,0
146149.875,116.338,-509.005,0,0
146410.2,118.297,-505.668,0,0
146670.525,120.359,-502.332,0,0
146930.85,122.445,-499.077,0,0
147191.175,124.655,-495.87,0,0
147451.5,126.889,-492.932,0,0
147711.825,128.798,-490.089,0,0
147972.15,130.51,-486.962,0,0
148232.475,132.273,-483.522,0,0
148492.8,134.328,-479.806,0,0
148753.125,136.768,-476.006,0,0
149013.45,139.484,-472.286,0,0
149273.775,142.434,-468.596,0,0
149534.1,145.644,-465.073,0,0
149794.425,149.193,-461.704,0,0
150054.75,152.77,-458.497,0,0
150315.075,156.645,-455.368,0,0
150575.4,160.829,-452.337,0,0
150835.725,165.314,-449.539,0,0
151096.05,170.445,-447.31,0,0
151356.375,175.893,-445.996,0,0
151616.7,180.833,-445.606,0,0
151877.025,185.149,-445.63,0,0
152137.35,189.127,-446.015,0,0
152397.675,192.583,-446.469,0,0
152658.0,195.419,-447.131,0,0
152918.325,197.994,-447.537,0,0
153178.65,200.459,-448.107,0,0
153438.975,202.38,-448.692,0,0
153699.3,203.902,-448.991,0,0
153959.625,205.292,-449.019,0,0
154219.95,206.538,-449.062,0,0
154480,207.07,-448.799,0,0
154741,207.603,-447.312,0,0
155001,209.24,-445.262,0,0
155261,211.752,-443.428,0,0
155522,214.716,-442.167,0,0
155782,218.095,-441.514,0,0
156042,221.728,-442.021,0,0
156303,224.576,-444.206,0,0
156563,225.602,-446.538,0,0
156823,225.247,-448.505,0,0
157084,223.843,-449.319,0,0
157344,222.208,-448.634,0,0
157604,221.094,-446.908,0,0
157864,220.515,-444.704,0,0
158125,220.624,-441.95,0,0
158385,221.4,-438.961,0,0
158645,222.994,-436.11,0,0
158906,225.305,-433.473,0,0
159166,228.324,-431.603,0,0
159426,231.522,-430.741,0,0
159687,234.256,-431.021,0,0
159947,235.813,-431.832,0,0
160207,236.438,-432.421,0,0
160468,236.184,-432.661,0,0
160728,235.393,-431.874,0,0
160988,234.605,-429.941,0,0
161249,234.412,-427.155,0,0
161509,235.234,-423.929,0,0
161769,236.978,-420.893,0,0
162030,239.355,-418.099,0,0
162290,242.061,-416.039,0,0
162550,245.017,-414.349,0,0
162811,247.905,-413.455,0,0
163071,250.352,-412.715,0,0
163331,252.859,-412.184,0,0
163592,255.196,-411.955,0,0
163852,257.34,-411.959,0,0
164112,259.14,-412.197,0,0
164373,260.712,-412.056,0,0
164633,262.475,-412.153,0,0
164893,264.189,-412.684,0,0
165154,265.703,-413.394,0,0
165414,267.091,-414.621,0,0
165674,267.372,-416.544,0,0
165935,266.566,-418.166,0,0
166195,264.962,-419.066,0,0
166455,263.075,-419.299,0,0
166716,260.765,-418.979,0,0
166976,258.232,-417.616,0,0
167236,256.125,-415.279,0,0
167497,254.584,-412.546,0,0
167757,253.622,-409.765,0,0
168017,252.806,-406.897,0,0
168277,252.177,-404.212,0,0
168538,251.436,-401.314,0,0
168798,250.688,-398.025,0,0
169058,250.214,-394.302,0,0
169319,250.235,-390.434,0,0
169579,250.784,-386.613,0,0
169839,251.528,-383.104,0,0
170100,252.163,-379.709,0,0
170360.075,252.84,-376.268,0,0
170620.4,253.605,-372.824,0,0
170880.725,254.206,-369.562,0,0
171141.05,254.368,-366.054,0,0
171401.375,254.394,-361.707,0,0
171661.7,255.043,-356.449,0,0
171922.025,256.83,-350.991,0,0
172182.35,259.392,-345.965,0,0
172442.675,262.336,-341.521,0,0
172703.0,265.358,-337.619,0,0
172963.325,268.227,-333.736,0,0
173223.65,271.572,-330.065,0,0
173483.975,275.151,-326.935,0,0
173744.3,278.375,-324.349,0,0
174004.625,281.428,-322.158,0,0
174264.95,283.87,-320.413,0,0
174525.275,285.194,-318.541,0,0
174785.6,285.86,-315.707,0,0
175045.925,286.668,-311.993,0,0
175306.25,287.613,-307.724,0,0
175566.575,288.932,-302.728,0,0
175826.9,290.725,-297.305,0,0
176087.225,293.205,-291.464,0,0
176347.55,296.545,-285.428,0,0
176607.875,300.486,-279.692,0,0
176868.2,305.027,-274.392,0,0
177128.525,309.685,-269.753,0,0
177388.85,313.945,-265.107,0,0
177649.175,318.216,-259.997,0,0
177909.5,323.044,-254.498,0,0
178169.825,328.642,-249.087,0,0
178430.15,334.427,-243.965,0,0
178690.475,340.569,-238.976,0,0
178950.8,347.008,-233.929,0,0
179211.125,354.105,-228.882,0,0
179471.45,361.727,-224.32,0,0
179731.775,369.825,-219.811,0,0
179992.1,378.941,-215.807,0,0
180252.425,388.507,-213.181,0,0
180512.75,397.552,-211.293,0,0
180773.075,406.626,-209.616,0,0
181033.4,415.818,-208.672,0,0
181293.725,424.5,-208.138,0,0
181554.05,433.072,-207.575,0,0
181814.375,442.238,-206.942,0,0
182074.7,451.622,-207.58,0,0
182335.025,460.573,-209.035,0,0
182595.35,469.006,-210.931,0,0
182855.675,476.983,-213.199,0,0
183116.0,484.387,-215.986,0,0
183376.325,490.88,-218.832,0,0
183636.65,496.896,-221.513,0,0
183896.975,501.978,-223.982,0,0
184157.3,506.783,-225.683,0,0
184417.625,511.914,-226.778,0,0
184677.95,516.991,-227.714,0,0
184938.275,522.061,-228.171,0,0
185198.6,527.825,-228.125,0,0
185458.925,534.07,-228.431,0,0
185719.25,540.306,-228.741,0,0
185979.575,546.928,-228.768,0,0
186239.9,554.499,-229.22,0,0
186500,561.892,-230.751,0,0
186761,568.655,-232.349,0,0
187021,575.723,-233.666,0,0
187281,582.643,-235.256,0,0
187542,589.499,-236.693,0,0
187802,596.806,-238.12,0,0
188062,604.458,-239.416,0,0
188322,612.768,-241.268,0,0
188583,621.075,-244.073,0,0
188843,629.106,-247.546,0,0
189103,636.426,-251.721,0,0
189364,642.654,-255.456,0,0
189624,648.772,-258.535,0,0
189884,654.999,-261.566,0,0
190145,660.911,-264.269,0,0
190405,666.642,-266.088,0,0
190665,673.319,-266.625,0,0
190926,682.103,-267.162,0,0
191186,692.192,-269.208,0,0
191446,702.113,-272.722,0,0
191707,711.438,-276.904,0,0
191967,720.56,-281.471,0,0
192227,729.291,-286.128,0,0
192488,737.486,-290.885,0,0
192748,745.2,-294.505,0,0
193008,754.352,-296.638,0,0
193269,765.947,-299.083,0,0
193529,779.099,-302.885,0,0
193789,793.491,-308.345,0,0
194050,808.351,-315.955,0,0
194310,823.036,-325.48,0,0
194570,837.443,-337.196,0,0
194831,850.197,-350.739,0,0
195091,861.692,-364.681,0,0
195351,872.29,-378.541,0,0
195612,883.32,-392.859,0,0
195872,894.61,-408.714,0,0
196132,905.201,-426.579,0,0
196393,914.268,-446.327,0,0
196653,921.048,-467.162,0,0
196913,926.053,-488.585,0,0
197174,928.877,-510.405,0,0
197434,929.787,-532.326,0,0
197694,928.395,-553.929,0,0
197955,924.964,-574.247,0,0
198215,920.577,-592.828,0,0
198475,915.826,-610.073,0,0
198735,911.474,-626.632,0,0
198996,907.18,-642.98,0,0
199256,903.305,-659.823,0,0
199516,898.48,-678.147,0,0
199777,891.495,-697.189,0,0
200037,881.95,-715.516,0,0
200297,870.634,-732.389,0,0
200558,858.044,-747.231,0,0
200818,845.463,-760.052,0,0
201078,833.384,-771.583,0,0
201339,822.134,-783.155,0,0
201599,810.186,-795.196,0,0
201859,796.915,-807.057,0,0
202120,781.992,-818.361,0,0
202380.025,764.936,-827.668,0,0
202640.35,747.063,-833.872,0,0
202900.675,730.283,-837.082,0,0
203161.0,715.355,-838.725,0,0
203421.325,701.809,-839.73,0,0
203681.65,689.473,-840.268,0,0
203941.975,677.956,-841.092,0,0
204202.3,666.621,-841.632,0,0
204462.625,655.907,-841.969,0,0
204722.95,645.401,-842.454,0,0
204983.275,634.733,-842.791,0,0
205243.6,623.868,-842.676,0,0
205503.925,612.632,-841.888,0,0
205764.25,601.378,-839.924,0,0
206024.575,590.12,-836.575,0,0
206284.9,579.762,-831.477,0,0
206545.225,570.989,-825.103,0,0
206805.55,564.325,-818.189,0,0
207065.875,559.674,-811.414,0,0
207326.2,556.778,-805.469,0,0
207586.525,554.726,-800.579,0,0
207846.85,553.503,-796.685,0,0
208107.175,552.639,-794.052,0,0
208367.5,551.583,-792.553,0,0
208627.825,549.877,-791.553,0,0
208888.15,547.818,-790.595,0,0
209148.475,545.532,-789.683,0,0
209408.8,543.144,-788.503,0,0
209669.125,540.978,-787.03,0,0
209929.45,539.227,-785.668,0,0
210189.775,537.739,-784.3,0,0
210450.1,536.581,-782.966,0,0
210710.425,535.781,-781.849,0,0
210970.75,535.322,-781.058,0,0
211231.075,534.96,-780.601,0,0
211491.4,534.883,-780.38,0,0
211751.725,535.229,-780.581,0,0
212012.05,535.567,-781.383,0,0
212272.375,535.898,-782.758,0,0
212532.7,536.055,-784.615,0,0
212793.025,535.989,-786.806,0,0
213053.35,535.496,-789.314,0,0
213313.675,534.789,-791.866,0,0
213574.0,534.038,-794.735,0,0
213834.325,532.975,-797.895,0,0
214094.65,531.427,-801.193,0,0
214354.975,529.716,-804.577,0,0
214615.3,527.587,-807.953,0,0
214875.625,525.326,-811.478,0,0
215135.95,522.728,-815.041,0,0
215396.275,519.752,-818.664,0,0
215656.6,516.425,-822.287,0,0
215916.925,512.593,-825.809,0,0
216177.25,508.376,-828.937,0,0
216437.575,503.811,-831.694,0,0
216697.9,499.273,-834.017,0,0
216958.225,494.971,-836.123,0,0
217218.55,490.59,-838.234,0,0
217478.875,485.94,-840.198,0,0
217739.2,481.241,-841.876,0,0
217999.525,476.53,-843.356,0,0
218259.85,471.74,-844.618,0,0
218520,466.995,-845.63,0,0
218780,462.247,-846.491,0,0
219041,457.539,-847.042,0,0
219301,453.06,-847.56,0,0
219561,448.672,-848.014,0,0
219822,444.244,-848.487,0,0
220082,439.743,-848.764,0,0
220342,435.012,-848.87,0,0
220603,430.26,-848.659,0,0
220863,425.672,-848.12,0,0
221123,421.182,-847.276,0,0
221384,416.996,-845.98,0,0
221644,413.344,-844.56,0,0
221904,410.147,-843.136,0,0
222165,407.161,-841.938,0,0
222425,404.545,-840.909,0,0
222685,401.886,-840.028,0,0
222946,399.264,-839.181,0,0
223206,396.832,-838.309,0,0
223466,394.648,-837.531,0,0
223727,392.732,-836.789,0,0
223987,390.827,-836.357,0,0
224247,389.185,-836.128,0,0
224508,387.535,-836.056,0,0
224768,386.098,-836.212,0,0
225028,384.683,-836.582,0,0
225289,383.305,-837.746,0,0
225549,381.664,-839.252,0,0
225809,379.581,-841.046,0,0
226070,376.953,-843.089,0,0
226330,373.873,-844.995,0,0
226590,370.462,-846.651,0,0
226851,366.735,-848.252,0,0
227111,362.867,-849.653,0,0
227371,358.772,-850.94,0,0
227632,354.198,-852.179,0,0
227892,349.555,-852.758,0,0
228152,345.016,-852.986,0,0
228413,340.651,-852.989,0,0
228673,336.471,-852.815,0,0
228933,332.416,-852.665,0,0
229193,328.403,-852.569,0,0
229454,324.392,-852.474,0,0
229714,320.45,-852.367,0,0
229974,316.478,-852.348,0,0
230235,312.198,-852.545,0,0
230495,307.66,-852.614,0,0
230755,302.909,-852.402,0,0
231016,298.09,-851.854,0,0
231276,293.218,-851.057,0,0
231536,288.453,-850.07,0,0
231797,283.746,-849.035,0,0
232057,278.927,-847.753,0,0
232317,274.159,-846.349,0,0
232578,269.448,-844.735,0,0
232838,264.731,-843.032,0,0
233098,260.107,-841.153,0,0
233359,255.359,-839.21,0,0
233619,250.503,-836.862,0,0
233879,245.834,-834.212,0,0
234140,241.336,-831.385,0,0
234400,236.986,-828.328,0,0
234660.3,232.776,-825.004,0,0
234920.625,228.828,-821.549,0,0
235180.95,225.08,-817.861,0,0
235441.275,221.628,-814.021,0,0
235701.6,218.513,-810.202,0,0
235961.925,215.52,-806.328,0,0
236222.25,212.847,-802.352,0,0
236482.575,210.498,-798.372,0,0
236742.9,208.408,-794.554,0,0
237003.225,206.474,-790.838,0,0
237263.55,204.67,-787.157,0,0
237523.875,202.985,-783.506,0,0
237784.2,201.485,-779.9,0,0
238044.525,200.131,-776.344,0,0
238304.85,198.974,-772.819,0,0
238565.175,198.049,-769.307,0,0
238825.5,197.304,-765.965,0,0
239085.825,196.954,-762.777,0,0
239346.15,196.702,-759.927,0,0
239606.475,196.447,-757.406,0,0
239866.8,196.181,-755.16,0,0
240127.125,195.881,-753.2,0,0
240387.45,195.412,-751.25,0,0
240647.775,194.78,-749.495,0,0
240908.1,194.119,-747.873,0,0
241168.425,193.205,-746.288,0,0
241428.75,192.178,-744.762,0,0
241689.075,190.979,-743.232,0,0
241949.4,189.673,-741.597,0,0
242209.725,188.242,-739.921,0,0
242470.05,186.64,-738.114,0,0
242730.375,185.049,-736.02,0,0
242990.7,183.55,-733.789,0,0
243251.025,182.151,-731.453,0,0
243511.35,180.832,-728.996,0,0
243771.675,179.674,-726.493,0,0
244032.0,178.617,-723.935,0,0
244292.325,177.802,-721.356,0,0
244552.65,177.123,-718.902,0,0
244812.975,176.577,-716.55,0,0
245073.3,175.992,-714.408,0,0
245333.625,175.337,-712.27,0,0
245593.95,174.761,-710.099,0,0
245854.275,174.109,-707.917,0,0
246114.6,173.602,-705.766,0,0
246374.925,173.084,-703.619,0,0
246635.25,172.688,-701.466,0,0
246895.575,172.385,-699.439,0,0
247155.9,172.059,-697.632,0,0
247416.225,171.605,-695.817,0,0
247676.55,171.066,-693.966,0,0
247936.875,170.557,-692.143,0,0
248197.2,169.943,-690.359,0,0
248457.525,169.206,-688.572,0,0
248717.85,168.521,-686.593,0,0
248978.175,167.743,-684.492,0,0
249238.5,167.029,-682.329,0,0
249498.825,166.35,-680.008,0,0
249759.15,165.824,-677.55,0,0
250019.475,165.411,-675.112,0,0
250279.8,165.095,-672.56,0,0
250540,164.986,-669.882,0,0
250800,165.072,-667.261,0,0
251061,165.43,-664.589,0,0
251321,166.013,-662.086,0,0
251581,166.829,-659.725,0,0
251842,167.731,-657.698,0,0
252102,168.755,-655.766,0,0
252362,169.823,-654.062,0,0
252623,170.961,-652.672,0,0
252883,171.96,-651.505,0,0
253143,172.84,-650.625,0,0
253404,173.504,-649.873,0,0
253664,173.903,-649.248,0,0
253924,174.056,-648.546,0,0
254185,174.033,-647.753,0,0
254445,173.902,-646.822,0,0
254705,173.798,-645.769,0,0
254966,173.622,-644.679,0,0
255226,173.437,-643.504,0,0
255486,173.276,-642.253,0,0
255747,173.075,-640.87,0,0
256007,172.974,-639.391,0,0
256267,172.881,-638.038,0,0
256528,172.806,-636.567,0,0
256788,172.674,-634.975,0,0
257048,172.652,-633.246,0,0
257309,172.772,-631.469,0,0
257569,172.991,-629.618,0,0
257829,173.339,-627.719,0,0
258090,173.874,-625.843,0,0
258350,174.582,-624.006,0,0
258610,175.337,-622.258,0,0
258871,176.237,-620.548,0,0
259131,177.228,-618.933,0,0
259391,178.35,-617.344,0,0
259651,179.597,-615.896,0,0
259912,180.979,-614.618,0,0
260172,182.345,-613.544,0,0
260432,183.762,-612.569,0,0
260693,185.037,-611.776,0,0
260953,186.246,-611.011,0,0
261213,187.487,-610.309,0,0
261474,188.756,-609.689,0,0
261734,190.023,-609.142,0,0
261994,191.327,-608.77,0,0
262255,192.495,-608.611,0,0
262515,193.405,-608.548,0,0
262775,194.106,-608.374,0,0
263036,194.763,-608.033,0,0
263296,195.446,-607.717,0,0
263556,196.033,-607.356,0,0
263817,196.506,-606.918,0,0
264077,196.948,-606.257,0,0
264337,197.392,-605.447,0,0
264598,198.005,-604.391,0,0
264858,198.781,-603.187,0,0
265118,199.836,-601.911,0,0
265379,201.115,-600.549,0,0
265639,202.665,-599.182,0,0
265899,204.626,-597.841,0,0
266160,206.841,-596.563,0,0
266420,209.417,-595.457,0,0
266680.25,212.379,-594.604,0,0
266940.575,215.652,-594.063,0,0
267200.9,219.152,-593.919,0,0
267461.225,222.894,-594.253,0,0
267721.55,226.793,-595.067,0,0
267981.875,230.805,-596.408,0,0
268242.2,234.81,-598.448,0,0
268502.525,238.587,-601.09,0,0
268762.85,242.107,-604.315,0,0
269023.175,245.235,-608.007,0,0
269283.5,247.898,-612.11,0,0
269543.825,250.19,-616.517,0,0
269804.15,252.002,-621.175,0,0
270064.475,253.345,-626.07,0,0
270324.8,254.358,-631.006,0,0
270585.125,255.01,-636.386,0,0
270845.45,254.88,-641.879,0,0
271105.775,254.255,-647.427,0,0
271366.1,252.949,-652.986,0,0
271626.425,251.024,-658.404,0,0
271886.75,248.568,-663.548,0,0
272147.075,245.692,-668.48,0,0
272407.4,242.343,-673.156,0,0
272667.725,238.572,-677.508,0,0
272928.05,234.413,-681.609,0,0
273188.375,229.801,-685.292,0,0
273448.7,224.852,-688.526,0,0
273709.025,219.653,-691.288,0,0
273969.35,214.142,-693.531,0,0
274229.675,208.491,-695.118,0,0
274490.0,202.758,-696.079,0,0
274750.325,197.197,-696.406,0,0
275010.65,191.717,-696.27,0,0
275270.975,186.579,-695.638,0,0
275531.3,181.732,-694.625,0,0
275791.625,177.194,-693.276,0,0
276051.95,172.995,-691.738,0,0
276312.275,169.124,-690.085,0,0
276572.6,165.517,-688.333,0,0
276832.925,162.121,-686.506,0,0
277093.25,158.86,-684.636,0,0
277353.575,155.816,-682.62,0,0
277613.9,152.967,-680.573,0,0
277874.225,150.337,-678.505,0,0
278134.55,147.902,-676.484,0,0
278394.875,145.514,-674.448,0,0
278655.2,143.175,-672.346,0,0
278915.525,140.895,-670.104,0,0
279175.85,138.815,-667.761,0,0
279436.175,136.968,-665.304,0,0
279696.5,135.378,-662.786,0,0
279956.825,134.11,-660.323,0,0
280217.15,133.004,-657.913,0,0
280477.475,132.083,-655.665,0,0
280737.8,131.34,-653.481,0,0
280998.125,130.703,-651.437,0,0
281258.45,130.205,-649.504,0,0
281518.775,129.793,-647.707,0,0
281779.1,129.469,-646.041,0,0
282039.425,129.215,-644.518,0,0
282299.75,129.01,-643.175,0,0
282560,128.836,-642.047,0,0
282820,128.517,-641.069,0,0
283081,128.061,-640.178,0,0
283341,127.503,-639.307,0,0
283601,126.828,-638.407,0,0
283862,126.094,-637.44,0,0
284122,125.349,-636.384,0,0
284382,124.597,-635.303,0,0
284643,123.858,-634.111,0,0
284903,123.172,-632.777,0,0
285163,122.634,-631.352,0,0
285424,122.336,-629.881,0,0
285684,122.23,-628.448,0,0
285944,122.355,-627.134,0,0
286205,122.671,-625.964,0,0
286465,123.105,-624.99,0,0
286725,123.703,-624.287,0,0
286986,124.365,-623.912,0,0
287246,124.996,-623.901,0,0
287506,125.503,-624.245,0,0
287767,125.758,-624.923,0,0
288027,125.66,-625.872,0,0
288287,125.134,-626.884,0,0
288548,124.223,-627.842,0,0
288808,123.005,-628.689,0,0
289068,121.558,-629.426,0,0
289329,119.909,-629.943,0,0
289589,118.049,-630.328,0,0
289849,116.059,-630.437,0,0
290109,113.991,-630.292,0,0
290370,111.938,-629.895,0,0
290630,109.991,-629.29,0,0
290890,108.141,-628.552,0,0
291151,106.363,-627.754,0,0
291411,104.68,-626.919,0,0
291671,103.023,-626.063,0,0
291932,101.333,-625.164,0,0
292192,99.6424,-624.204,0,0
292452,97.9757,-623.108,0,0
292713,96.3589,-621.919,0,0
292973,94.8125,-620.713,0,0
293233,93.349,-619.445,0,0
293494,91.9284,-618.164,0,0
293754,90.5195,-616.866,0,0
294014,89.1128,-615.514,0,0
294275,87.769,-614.093,0,0
294535,86.425,-612.603,0,0
294795,85.164,-611.069,0,0
295056,84.0034,-609.455,0,0
295316,82.8912,-607.779,0,0
295576,81.9193,-606.113,0,0
295837,81.0503,-604.461,0,0
296097,80.2422,-602.856,0,0
296357,79.5026,-601.309,0,0
296618,78.7754,-599.808,0,0
296878,78.0397,-598.322,0,0
297138,77.2868,-596.849,0,0
297399,76.5496,-595.371,0,0
297659,75.8261,-593.849,0,0
297919,75.1218,-592.282,0,0
298180,74.4702,-590.699,0,0
298440,73.8589,-589.114,0,0
298700.2,73.289,-587.503,0,0
298960.525,72.7856,-585.89,0,0
299220.85,72.3281,-584.282,0,0
299481.175,71.9129,-582.658,0,0
299741.5,71.5353,-581.044,0,0
300001.825,71.2291,-579.42,0,0
300262.15,70.9729,-577.784,0,0
300522.475,70.8059,-576.172,0,0
300782.8,70.6863,-574.588,0,0
301043.125,70.6277,-573.043,0,0
301303.45,70.6443,-571.515,0,0
301563.775,70.7114,-570.04,0,0
301824.1,70.8112,-568.632,0,0
302084.425,70.969,-567.261,0,0
302344.75,71.1529,-565.958,0,0
302605.075,71.3739,-564.69,0,0
302865.4,71.6149,-563.512,0,0
303125.725,71.8657,-562.387,0,0
303386.05,72.1316,-561.323,0,0
303646.375,72.3993,-560.309,0,0
303906.7,72.6376,-559.369,0,0
304167.025,72.8661,-558.474,0,0
304427.35,73.0736,-557.603,0,0
304687.675,73.2738,-556.748,0,0
304948.0,73.487,-555.931,0,0
305208.325,73.6689,-555.136,0,0
305468.65,73.8757,-554.363,0,0
305728.975,74.0848,-553.657,0,0
305989.3,74.2824,-553.006,0,0
306249.625,74.4599,-552.372,0,0
306509.95,74.6256,-551.784,0,0
306770.275,74.7548,-551.24,0,0
307030.6,74.8471,-550.725,0,0
307290.925,74.9192,-550.208,0,0
307551.25,75.0014,-549.717,0,0
307811.575,75.0888,-549.249,0,0
308071.9,75.165,-548.849,0,0
308332.225,75.2064,-548.527,0,0
308592.55,75.151,-548.273,0,0
308852.875,75.0411,-548.049,0,0
309113.2,74.7962,-547.836,0,0
309373.525,74.4747,-547.563,0,0
309633.85,74.0834,-547.22,0,0
309894.175,73.6775,-546.836,0,0
310154.5,73.261,-546.373,0,0
310414.825,72.8507,-545.904,0,0
310675.15,72.4533,-545.396,0,0
310935.475,72.0642,-544.887,0,0
311195.8,71.6757,-544.37,0,0
311456.125,71.2815,-543.836,0,0
311716.45,70.8922,-543.307,0,0
311976.775,70.4871,-542.775,0,0
312237.1,70.0748,-542.23,0,0
312497.425,69.6561,-541.708,0,0
312757.75,69.2176,-541.164,0,0
313018.075,68.7577,-540.592,0,0
313278.4,68.2923,-540.036,0,0
313538.725,67.78,-539.451,0,0
313799.05,67.2882,-538.834,0,0
314059.375,66.768,-538.166,0,0
314319.7,66.2659,-537.486,0,0
314580,65.7556,-536.797,0,0
314840,65.2383,-536.049,0,0
315101,64.7513,-535.294,0,0
315361,64.2499,-534.55,0,0
315621,63.8306,-533.735,0,0
315882,63.3917,-532.902,0,0
316142,62.9739,-532.037,0,0
316402,62.6473,-531.141,0,0
316663,62.3226,-530.333,0,0
316923,62.0652,-529.454,0,0
317183,61.7399,-528.601,0,0
317444,61.4778,-527.826,0,0
317704,61.2356,-527.021,0,0
317964,61.0305,-526.167,0,0
318225,60.8613,-525.429,0,0
318485,60.5668,-524.578,0,0
318745,60.4533,-523.83,0,0
319006,60.3392,-523.105,0,0
319266,60.1523,-522.341,0,0
319526,60.0801,-521.636,0,0
319787,59.9416,-520.925,0,0
320047,59.8293,-520.417,0,0
320307,59.6665,-519.813,0,0
320567,59.5553,-519.239,0,0
320828,59.3941,-518.726,0,0
321088,59.1281,-518.141,0,0
321348,58.8791,-517.631,0,0
321609,58.6279,-517.107,0,0
321869,58.3626,-516.616,0,0
322129,58.0718,-516.043,0,0
322390,57.7626,-515.539,0,0
322650,57.4291,-514.992,0,0
322910,57.1,-514.456,0,0
323171,56.7951,-513.931,0,0
323431,56.3723,-513.458,0,0
323691,55.9824,-512.84,0,0
323952,55.5606,-512.341,0,0
324212,55.1195,-511.764,0,0
324472,54.6064,-511.186,0,0
324733,54.05,-510.56,0,0
324993,53.5557,-509.871,0,0
325253,53.0845,-509.144,0,0
325514,52.5783,-508.396,0,0
325774,52.084,-507.657,0,0
326034,51.6162,-506.842,0,0
326295,51.1676,-506.055,0,0
326555,50.8174,-505.193,0,0
326815,50.3624,-504.347,0,0
327076,50.0047,-503.53,0,0
327336,49.7207,-502.672,0,0
327596,49.3802,-501.867,0,0
327857,49.0119,-500.97,0,0
328117,48.7397,-500.239,0,0
328377,48.4212,-499.396,0,0
328638,48.1163,-498.568,0,0
328898,47.8535,-497.658,0,0
329158,47.533,-496.877,0,0
329419,47.2523,-496.024,0,0
329679,47.0114,-495.207,0,0
329939,46.7999,-494.373,0,0
330200,46.5345,-493.568,0,0
330460,46.2531,-492.689,0,0
330720.15,46.071,-491.869,0,0
330980.475,45.8562,-491.018,0,0
331240.8,45.5947,-490.147,0,0
331501.125,45.368,-489.376,0,0
331761.45,45.1329,-488.5,0,0
332021.775,45.0537,-487.71,0,0
332282.1,44.728,-486.804,0,0
332542.425,44.5793,-485.932,0,0
332802.75,44.387,-485.059,0,0
333063.075,44.2508,-484.158,0,0
333323.4,44.11,-483.284,0,0
333583.725,44.0272,-482.373,0,0
333844.05,43.8836,-481.521,0,0
334104.375,43.8464,-480.672,0,0
334364.7,43.7967,-479.82,0,0
334625.025,43.8311,-479.026,0,0
334885.35,43.7496,-478.241,0,0
335145.675,43.7332,-477.437,0,0
335406.0,43.731,-476.696,0,0
335666.325,43.7024,-475.963,0,0
335926.65,43.6901,-475.231,0,0
336186.975,43.7079,-474.451,0,0
336447.3,43.6011,-473.763,0,0
336707.625,43.6371,-473.082,0,0
336967.95,43.602,-472.372,0,0
337228.275,43.5909,-471.73,0,0
337488.6,43.5688,-471.11,0,0
337748.925,43.565,-470.444,0,0
338009.25,43.534,-469.778,0,0
338269.575,43.3877,-469.194,0,0
338529.9,43.3777,-468.595,0,0
338790.225,43.281,-467.948,0,0
339050.55,43.2397,-467.328,0,0
339310.875,43.1174,-466.706,0,0
339571.2,43.0325,-466.139,0,0
339831.525,42.8389,-465.478,0,0
340091.85,42.7689,-464.885,0,0
340352.175,42.6416,-464.197,0,0
340612.5,42.424,-463.578,0,0
340872.825,42.2756,-462.985,0,0
341133.15,42.0533,-462.325,0,0
341393.475,41.8865,-461.637,0,0
341653.8,41.749,-460.946,0,0
341914.125,41.5147,-460.217,0,0
342174.45,41.3431,-459.504,0,0
342434.775,41.2184,-458.806,0,0
342695.1,41.1151,-458.057,0,0
342955.425,40.9343,-457.297,0,0
343215.75,40.8286,-456.552,0,0
343476.075,40.685,-455.822,0,0
343736.4,40.5547,-455,0,0
343996.725,40.5143,-454.283,0,0
344257.05,40.3406,-453.54,0,0
344517.375,40.2843,-452.775,0,0
344777.7,40.212,-451.986,0,0
345038.025,40.1254,-451.223,0,0
345298.35,40.0359,-450.418,0,0
345558.675,40.0007,-449.638,0,0
345819.0,39.9363,-448.861,0,0
346079.325,39.91,-448.082,0,0
346339.65,39.8916,-447.22,0,0
346599.975,39.9673,-446.468,0,0
346860,39.9204,-445.697,0,0
347121,39.9955,-444.859,0,0
347381,40.0319,-444.089,0,0
347641,40.0914,-443.361,0,0
347902,40.1572,-442.614,0,0
348162,40.2438,-441.858,0,0
348422,40.352,-441.152,0,0
348683,40.4241,-440.437,0,0
348943,40.5152,-439.709,0,0
349203,40.6227,-438.985,0,0
349464,40.7024,-438.278,0,0
349724,40.8599,-437.565,0,0
349984,41.0307,-436.903,0,0
350245,41.0795,-436.2,0,0
350505,41.2729,-435.573,0,0
350765,41.4121,-434.872,0,0
351025,41.5903,-434.243,0,0
351286,41.718,-433.645,0,0
351546,41.8903,-433.069,0,0
351806,42.0299,-432.45,0,0
352067,42.1431,-431.918,0,0
352327,42.3471,-431.318,0,0
352587,42.4732,-430.763,0,0
352848,42.6046,-430.149,0,0
353108,42.7325,-429.651,0,0
353368,42.859,-429.117,0,0
353629,42.9718,-428.577,0,0
353889,43.0985,-428.065,0,0
354149,43.2145,-427.553,0,0
354410,43.3506,-427.047,0,0
354670,43.4246,-426.526,0,0
354930,43.5302,-425.995,0,0
355191,43.5789,-425.502,0,0
355451,43.7036,-424.951,0,0
355711,43.8058,-424.461,0,0
355972,43.8903,-424.025,0,0
356232,43.9608,-423.486,0,0
356492,44.0669,-423.03,0,0
356753,44.1408,-422.507,0,0
357013,44.2126,-422.043,0,0
357273,44.2572,-421.546,0,0
357534,44.3229,-421.053,0,0
357794,44.3618,-420.562,0,0
358054,44.3877,-420.104,0,0
358315,44.4753,-419.569,0,0
358575,44.5139,-419.093,0,0
358835,44.6333,-418.568,0,0
359096,44.6726,-418.087,0,0
359356,44.7477,-417.649,0,0
359616,44.8106,-417.115,0,0
359877,44.8534,-416.646,0,0
360137,44.9452,-416.201,0,0
360397,45.0142,-415.711,0,0
360658,45.0313,-415.23,0,0
360918,45.083,-414.748,0,0
361178,45.1556,-414.246,0,0
361438,45.2064,-413.806,0,0
361699,45.2247,-413.307,0,0
361959,45.2617,-412.835,0,0
362219,45.3372,-412.331,0,0
362480,45.3975,-411.876,0,0
362740.1,45.4186,-411.408,0,0
363000.425,45.4596,-410.893,0,0
363260.75,45.4731,-410.433,0,0
363521.075,45.5427,-409.941,0,0
363781.4,45.6147,-409.457,0,0
364041.725,45.6488,-408.952,0,0
364302.05,45.7114,-408.469,0,0
364562.375,45.7872,-407.954,0,0
364822.7,45.8715,-407.431,0,0
365083.025,45.9572,-406.93,0,0
365343.35,46.0745,-406.448,0,0
365603.675,46.1979,-405.988,0,0
365864.0,46.3139,-405.546,0,0
366124.325,46.4078,-405.088,0,0
366384.65,46.4856,-404.635,0,0
366644.975,46.5554,-404.198,0,0
366905.3,46.6507,-403.784,0,0
367165.625,46.7368,-403.381,0,0
367425.95,46.845,-402.924,0,0
367686.275,46.9323,-402.487,0,0
367946.6,46.9756,-402.011,0,0
368206.925,47.0255,-401.568,0,0
368467.25,47.1238,-401.099,0,0
368727.575,47.2485,-400.606,0,0
368987.9,47.342,-400.123,0,0
369248.225,47.4462,-399.675,0,0
369508.55,47.5992,-399.217,0,0
369768.875,47.7822,-398.767,0,0
370029.2,47.9775,-398.321,0,0
370289.525,48.2224,-397.942,0,0
370549.85,48.4281,-397.531,0,0
370810.175,48.6186,-397.23,0,0
371070.5,48.7993,-396.972,0,0
371330.825,49.0447,-396.677,0,0
371591.15,49.181,-396.458,0,0
371851.475,49.3203,-396.247,0,0
372111.8,49.4509,-395.977,0,0
372372.125,49.5121,-395.778,0,0
372632.45,49.5884,-395.601,0,0
372892.775,49.6051,-395.395,0,0
373153.1,49.6192,-395.19,0,0
373413.425,49.6153,-394.963,0,0
373673.75,49.5156,-394.778,0,0
373934.075,49.4529,-394.568,0,0
374194.4,49.3526,-394.322,0,0
374454.725,49.2712,-394.051,0,0
374715.05,49.0717,-393.721,0,0
374975.375,48.9709,-393.403,0,0
375235.7,48.8348,-393.067,0,0
375496.025,48.7364,-392.701,0,0
375756.35,48.6529,-392.294,0,0
376016.675,48.5787,-391.886,0,0
376277.0,48.4806,-391.434,0,0
376537.325,48.4547,-391.002,0,0
376797.65,48.5221,-390.569,0,0
377057.975,48.5854,-390.159,0,0
377318.3,48.6304,-389.822,0,0
377578.625,48.6765,-389.521,0,0
377838.95,48.7028,-389.248,0,0
378099.275,48.6899,-388.998,0,0
378359.6,48.6106,-388.751,0,0
378619.925,48.5009,-388.533,0,0
378880,48.3489,-388.245,0,0
379141,48.1657,-387.918,0,0
379401,47.9843,-387.57,0,0
379661,47.8394,-387.116,0,0
379922,47.6799,-386.644,0,0
380182,47.5691,-386.147,0,0
380442,47.5945,-385.589,0,0
380703,47.6216,-385.116,0,0
380963,47.7326,-384.607,0,0
381223,47.881,-384.226,0,0
381483,48.0302,-383.913,0,0
381744,48.106,-383.668,0,0
382004,48.172,-383.508,0,0
382264,48.2322,-383.351,0,0
382525,48.1615,-383.215,0,0
382785,48.001,-383.083,0,0
383045,47.8562,-382.928,0,0
383306,47.632,-382.727,0,0
383566,47.3962,-382.528,0,0
383826,47.1137,-382.247,0,0
384087,46.811,-381.937,0,0
384347,46.5328,-381.634,0,0
384607,46.1982,-381.253,0,0
384868,45.9062,-380.824,0,0
385128,45.5911,-380.411,0,0
385388,45.307,-379.938,0,0
385649,45.0363,-379.45,0,0
385909,44.7807,-378.931,0,0
386169,44.5093,-378.405,0,0
386430,44.2612,-377.837,0,0
386690,44.0717,-377.302,0,0
386950,43.8379,-376.705,0,0
387211,43.6505,-376.149,0,0
387471,43.507,-375.51,0,0
387731,43.3119,-374.888,0,0
387992,43.1822,-374.238,0,0
388252,43.0725,-373.635,0,0
388512,42.9971,-372.986,0,0
388773,42.9644,-372.369,0,0
389033,42.9129,-371.718,0,0
389293,42.9185,-371.13,0,0
389554,42.9245,-370.528,0,0
389814,42.9368,-369.946,0,0
390074,42.9484,-369.386,0,0
390335,42.9931,-368.826,0,0
390595,43.0527,-368.282,0,0
390855,43.0477,-367.802,0,0
391116,43.0698,-367.296,0,0
391376,43.0579,-366.766,0,0
391636,43.0753,-366.279,0,0
391896,43.0854,-365.816,0,0
392157,43.0421,-365.329,0,0
392417,43.0182,-364.814,0,0
392677,42.9862,-364.327,0,0
392938,42.9404,-363.819,0,0
393198,42.9186,-363.298,0,0
393458,42.8975,-362.772,0,0
393719,42.8275,-362.245,0,0
393979,42.8054,-361.688,0,0
394239,42.7754,-361.146,0,0
394500,42.7689,-360.583,0,0
394760.05,42.7347,-360.027,0,0
395020.375,42.7245,-359.418,0,0
395280.7,42.7447,-358.865,0,0
395541.025,42.7908,-358.279,0,0
395801.35,42.8451,-357.721,0,0
396061.675,42.8803,-357.151,0,0
396322.0,42.947,-356.571,0,0
396582.325,43.0501,-356.034,0,0
396842.65,43.1,-355.476,0,0
397102.975,43.2217,-354.947,0,0
397363.3,43.2818,-354.414,0,0
397623.625,43.3529,-353.918,0,0
397883.95,43.4293,-353.403,0,0
398144.275,43.4921,-352.918,0,0
398404.6,43.6119,-352.405,0,0
398664.925,43.6629,-351.91,0,0
398925.25,43.7096,-351.409,0,0
399185.575,43.7932,-350.874,0,0
399445.9,43.8789,-350.463,0,0
399706.225,43.9326,-349.922,0,0
399966.55,44.0046,-349.421,0,0
400006.6,44.0078,-349.364,0,0