File: Accelerated corrosion test data/2025-10-13_18-00-03/sample_1.csv
Frequency (Hz),Impedance (ohms),Phase (Radians),Temperature (C),Humidity (%)
10000.0,242.159,-12140.3,0,0
10260.325,245.641,-11827.7,0,0
10520.65,231.462,-11549.3,0,0
10780.975,227.509,-11267.1,0,0
11041.3,220.257,-11008.8,0,0
11301.625,215.232,-10754,0,0
11561.95,211.006,-10510.7,0,0
11822.275,209.271,-10272.7,0,0
12082.6,236.282,-10043.9,0,0
12342.925,210.091,-9870.87,0,0
12603.25,195.747,-9658.67,0,0
12863.575,191.861,-9457.93,0,0
13123.9,204.339,-9271.2,0,0
13384.225,185.507,-9096.03,0,0
13644.55,181.233,-8916.23,0,0
13904.875,184.381,-8738.35,0,0
14165.2,184.159,-8599.82,0,0
14425.525,207.722,-8451.45,0,0
14685.8,215.329,-8276.48,0,0
14946.175,176.169,-8171.9,0,0
15206.5,188.387,-8014.25,0,0
15466.825,173.571,-7895.56,0,0
15727.15,170.543,-7768.68,0,0
15987.5,160.679,-7637.72,0,0
16247.8,157.098,-7512.15,0,0
16508.125,155.962,-7389.72,0,0
16768.45,159.879,-7273.64,0,0
17028.775,163.66,-7168.51,0,0
17289.1,153.921,-7062.94,0,0
17549.425,151.81,-6961.25,0,0
17809.75,146.732,-6855.96,0,0
18070.075,148.065,-6758.63,0,0
18330.4,142.643,-6662.14,0,0
18590.725,137.767,-6568.72,0,0
18851.05,140.547,-6470.42,0,0
19111.375,135.161,-6390.07,0,0
19371.7,133.203,-6299.07,0,0
19632.025,132.26,-6210.6,0,0
19892.35,135.451,-6126.79,0,0
20152.675,136.867,-6037.74,0,0
20413.0,161.445,-5951.77,0,0
20673.3,165.601,-5911.52,0,0
20933.65,148.755,-5838.61,0,0
21193.975,156.738,-5781.11,0,0
21454.3,142.341,-5705.01,0,0
21714.625,136.52,-5634.3,0,0
21974.9,141.695,-5551.91,0,0
22235.275,170.277,-5517.11,0,0
22495.6,139.078,-5468.42,0,0
22755.925,126.636,-5398.62,0,0
23016.25,122.455,-5333.23,0,0
23276.6,118.408,-5272.78,0,0
23536.9,115.31,-5212.28,0,0
23797.225,112.868,-5150.99,0,0
24057.55,116.562,-5092.02,0,0
24317.875,111.573,-5042.45,0,0
24578.2,112.295,-4983.78,0,0
24838.525,110.36,-4933.77,0,0
25098.85,111.701,-4880.73,0,0
25359.175,106.093,-4831.02,0,0
25619.5,104.621,-4779.79,0,0
25879.8,103.534,-4728.62,0,0
26140.1,103.776,-4680.02,0,0
26400.5,102.982,-4630.28,0,0
26660.8,105.538,-4580.19,0,0
26921.1,116.385,-4533.69,0,0
27181.4,120.991,-4503.24,0,0
27441.8,109.312,-4465.06,0,0
27702.1,104.079,-4415.67,0,0
27962.4,112.734,-4368.77,0,0
28222.7,111.658,-4329.33,0,0
28483.1,121.929,-4287.84,0,0
28743.4,126.82,-4270.4,0,0
29003.7,117.043,-4231.33,0,0
29264,117.553,-4199.39,0,0
29524.4,106.619,-4164.19,0,0
29784.7,106.343,-4122.81,0,0
30045,101.066,-4090.07,0,0
30305.3,99.4655,-4052.46,0,0
30565.7,97.8325,-4012.98,0,0
30826,101.092,-3978.62,0,0
31086.3,102.465,-3951.26,0,0
31346.6,97.8626,-3921.19,0,0
31607,93.9153,-3883.55,0,0
31867.3,97.7094,-3851.93,0,0
32127.6,97.598,-3821.28,0,0
32387.9,97.1006,-3795.14,0,0
32648.3,93.6115,-3762.63,0,0
32908.6,95.5052,-3736.14,0,0
33168.9,90.9916,-3707.15,0,0
33429.2,87.8075,-3678.16,0,0
33689.6,85.8969,-3648.74,0,0
33949.9,86.3399,-3617.94,0,0
34210.2,86.0232,-3592.47,0,0
34470.5,83.5492,-3565.11,0,0
34730.9,82.3536,-3537.21,0,0
34991.2,81.2707,-3510.27,0,0
35251.5,80.3991,-3483.77,0,0
35511.8,79.713,-3457.46,0,0
35772.2,79.0696,-3432.37,0,0
36032.5,77.9763,-3406.91,0,0
36292.8,77.5155,-3381.53,0,0
36553.1,76.5495,-3356.87,0,0
36813.5,76.4236,-3332.77,0,0
37073.8,76.0136,-3308.92,0,0
37334.1,75.1502,-3285.34,0,0
37594.4,75.1471,-3262.05,0,0
37854.8,74.1026,-3239.38,0,0
38115.1,73.4392,-3216.59,0,0
38375.4,73.4119,-3193.85,0,0
38635.7,72.6996,-3172.02,0,0
38896.1,72.6874,-3150.36,0,0
39156.4,72.9833,-3128.53,0,0
39416.7,72.4723,-3108.15,0,0
39677,71.5967,-3087.21,0,0
39937.4,71.2208,-3065.99,0,0
40197.7,71.274,-3045.68,0,0
40458,70.8187,-3025.65,0,0
40718.3,71.3335,-3005.12,0,0
40978.7,72.6028,-2986.29,0,0
41239,72.3684,-2968.06,0,0
41499.3,71.4096,-2949.91,0,0
41759.6,70.7869,-2931.13,0,0
42020,70.7352,-2911.89,0,0
42280.275,70.6044,-2893.7,0,0
42540.6,70.9662,-2876.43,0,0
42800.925,69.6714,-2859.5,0,0
43061.25,69.7425,-2841.12,0,0
43321.575,68.8308,-2824.14,0,0
43581.9,68.5862,-2807.05,0,0
43842.225,68.0939,-2789.4,0,0
44102.55,68.1673,-2771.96,0,0
44362.875,69.2642,-2755.47,0,0
44623.2,69.3428,-2740.09,0,0
44883.525,68.1692,-2724.11,0,0
45143.85,68.4222,-2708.19,0,0
45404.175,68.3452,-2693.5,0,0
45664.5,67.8553,-2678.13,0,0
45924.825,66.9542,-2662.78,0,0
46185.15,66.2757,-2647.8,0,0
46445.475,65.4507,-2632.05,0,0
46705.8,65.5855,-2616.8,0,0
46966.125,65.1783,-2602.52,0,0
47226.45,64.9415,-2587.43,0,0
47486.775,64.5232,-2573.43,0,0
47747.1,64.2112,-2559.26,0,0
48007.425,63.7276,-2545.09,0,0
48267.75,63.6881,-2531.34,0,0
48528.075,62.5546,-2517.56,0,0
48788.4,61.8749,-2503.21,0,0
49048.725,61.8372,-2489.21,0,0
49309.05,61.7807,-2475.68,0,0
49569.375,61.6105,-2462.8,0,0
49829.7,61.0502,-2449.61,0,0
50090.025,60.311,-2436.37,0,0
50350.35,60.0416,-2423.13,0,0
50610.675,59.6841,-2410.13,0,0
50871.0,59.585,-2397.19,0,0
51131.325,59.6114,-2384.52,0,0
51391.65,59.36,-2372.35,0,0
51651.975,58.8586,-2360,0,0
51912.3,58.6664,-2347.47,0,0
52172.625,58.4417,-2335.18,0,0
52432.95,58.3427,-2323.16,0,0
52693.275,57.9655,-2311.4,0,0
52953.6,57.9136,-2299.25,0,0
53213.925,57.9343,-2287.7,0,0
53474.25,57.6899,-2276.34,0,0
53734.575,57.6248,-2264.82,0,0
53994.9,57.3151,-2253.79,0,0
54255.225,56.9274,-2242.56,0,0
54515.55,56.6294,-2231.29,0,0
54775.875,56.2076,-2220.19,0,0
55036.2,56.107,-2209,0,0
55296.525,56.1614,-2198.12,0,0
55556.85,55.8308,-2187.55,0,0
55817.175,55.526,-2176.95,0,0
56077.5,55.2968,-2166.06,0,0
56337.825,55.2548,-2155.35,0,0
56598.15,55.2322,-2144.91,0,0
56858.475,55.0829,-2134.71,0,0
57118.8,54.9111,-2124.54,0,0
57379.125,54.9027,-2114.26,0,0
57639.45,54.9789,-2104.16,0,0
57899.775,54.7737,-2094.21,0,0
58160.1,54.7558,-2084.41,0,0
58420.4,54.712,-2074.83,0,0
58680.7,54.7118,-2064.97,0,0
58941.1,54.6027,-2055.21,0,0
59201.4,55.019,-2045.75,0,0
59461.7,54.6416,-2036.65,0,0
59722,54.47,-2027.25,0,0
59982.4,54.4302,-2017.94,0,0
60242.7,54.3823,-2008.71,0,0
60503,54.7164,-1999.49,0,0
60763.3,54.8025,-1991.23,0,0
61023.7,54.2054,-1982.41,0,0
61284,53.8739,-1973.4,0,0
61544.3,53.7014,-1964.39,0,0
61804.6,53.7979,-1955.91,0,0
62065,53.3271,-1947.31,0,0
62325.3,53.06,-1938.38,0,0
62585.6,52.9402,-1929.77,0,0
62845.9,52.7388,-1921.02,0,0
63106.3,52.8476,-1912.55,0,0
63366.6,52.6821,-1903.94,0,0
63626.9,52.7892,-1895.41,0,0
63887.2,52.8859,-1886.99,0,0
64147.6,52.8561,-1878.64,0,0
64407.9,53.0597,-1870.38,0,0
64668.2,53.3365,-1862.11,0,0
64928.5,53.7291,-1853.88,0,0
65188.9,54.3748,-1846,0,0
65449.2,55.1493,-1838.52,0,0
65709.5,55.5098,-1831.66,0,0
65969.8,55.4157,-1824.45,0,0
66230.2,55.0739,-1817.12,0,0
66490.5,54.9737,-1809.9,0,0
66750.8,55.0178,-1802.91,0,0
67011.1,54.2939,-1795.67,0,0
67271.5,54.1734,-1787.62,0,0
67531.8,54.8743,-1780.67,0,0
67792.1,54.9628,-1773.93,0,0
68052.4,54.0644,-1767.45,0,0
68312.8,53.59,-1760.04,0,0
68573.1,53.5263,-1752.53,0,0
68833.4,53.8973,-1745.62,0,0
69093.7,53.4395,-1739.1,0,0
69354.1,53.3508,-1732.28,0,0
69614.4,52.9619,-1725.88,0,0
69874.7,52.5331,-1718.91,0,0
70135,51.9177,-1712.07,0,0
70395.4,51.4533,-1705.16,0,0
70655.7,51.0614,-1698.24,0,0
70916,50.8613,-1691.41,0,0
71176.3,50.6504,-1684.57,0,0
71436.7,50.6147,-1678.15,0,0
71697,49.903,-1671.47,0,0
71957.3,49.4959,-1664.71,0,0
72217.6,48.9574,-1657.78,0,0
72478,48.7851,-1650.87,0,0
72738.3,48.704,-1644.05,0,0
72998.6,48.6894,-1637.34,0,0
73258.9,48.5862,-1630.82,0,0
73519.3,48.3862,-1624.26,0,0
73779.6,48.3651,-1617.59,0,0
74039.9,48.4071,-1611.06,0,0
74300.225,48.4584,-1604.63,0,0
74560.55,48.4899,-1598.1,0,0
74820.875,48.784,-1591.77,0,0
75081.2,48.8838,-1585.66,0,0
75341.525,48.7067,-1579.42,0,0
75601.85,48.7801,-1573,0,0
75862.175,49.1174,-1566.72,0,0
76122.5,49.4447,-1560.64,0,0
76382.825,49.6957,-1554.72,0,0
76643.15,49.8008,-1548.89,0,0
76903.475,49.9718,-1542.89,0,0
77163.8,50.2679,-1537,0,0
77424.125,50.4153,-1531.22,0,0
77684.45,50.532,-1525.42,0,0
77944.775,50.8084,-1519.55,0,0
78205.1,51.3331,-1513.75,0,0
78465.425,51.8603,-1508.41,0,0
78725.75,52.1021,-1503.4,0,0
78986.075,52.226,-1498.09,0,0
79246.4,52.2265,-1492.98,0,0
79506.725,51.9874,-1487.9,0,0
79767.05,51.7165,-1482.39,0,0
80027.375,51.6048,-1476.99,0,0
80287.7,51.2691,-1471.74,0,0
80548.025,51.0878,-1466.2,0,0
80808.35,50.9329,-1460.65,0,0
81068.675,50.8851,-1454.98,0,0
81329.0,50.9405,-1449.4,0,0
81589.325,51.0717,-1443.98,0,0
81849.65,51.2194,-1438.61,0,0
82109.975,51.4523,-1433.34,0,0
82370.3,51.4855,-1428.08,0,0
82630.625,51.4447,-1422.72,0,0
82890.95,51.6552,-1417.31,0,0
83151.275,51.8467,-1411.92,0,0
83411.6,52.1875,-1406.64,0,0
83671.925,52.4886,-1401.44,0,0
83932.25,52.8329,-1396.24,0,0
84192.575,53.3267,-1391.23,0,0
84452.9,53.6762,-1386.14,0,0
84713.225,54.0888,-1381.2,0,0
84973.55,54.5482,-1376.32,0,0
85233.875,55.1302,-1371.59,0,0
85494.2,55.4147,-1367.1,0,0
85754.525,55.6027,-1362.5,0,0
86014.85,55.673,-1357.73,0,0
86275.175,55.9236,-1352.98,0,0
86535.5,56.1993,-1348.43,0,0
86795.825,56.207,-1343.79,0,0
87056.15,56.4817,-1338.99,0,0
87316.475,56.8621,-1334.49,0,0
87576.8,56.843,-1330.09,0,0
87837.125,56.7359,-1325.39,0,0
88097.45,56.6775,-1320.43,0,0
88357.775,56.8266,-1315.43,0,0
88618.1,57.4927,-1310.6,0,0
88878.425,57.8485,-1305.93,0,0
89138.75,58.1108,-1301.13,0,0
89399.075,58.613,-1296.2,0,0
89659.4,59.1957,-1291.51,0,0
89919.725,59.9683,-1286.81,0,0
90180,60.6155,-1282.28,0,0
90440.4,61.3388,-1277.71,0,0
90700.7,62.1172,-1273.02,0,0
90961,63.0493,-1268.26,0,0
91221.3,64.6225,-1263.79,0,0
91481.7,65.8714,-1259.8,0,0
91742,67.0244,-1255.96,0,0
92002.3,68.2884,-1252.1,0,0
92262.6,69.6059,-1248.39,0,0
92523,71.004,-1244.64,0,0
92783.3,72.8575,-1241.32,0,0
93043.6,74.1018,-1238.68,0,0
93303.9,75.5167,-1235.77,0,0
93564.3,77.5687,-1233.43,0,0
93824.6,79.0432,-1233.06,0,0
94084.9,78.2385,-1233.06,0,0
94345.2,75.5537,-1231.5,0,0
94605.6,74.0324,-1228.08,0,0
94865.9,72.5768,-1225.43,0,0
95126.2,70.8298,-1221.88,0,0
95386.5,69.4045,-1218.3,0,0
95646.9,67.7085,-1214.32,0,0
95907.2,66.5636,-1209.53,0,0
96167.5,66.4808,-1204.81,0,0
96427.8,66.5571,-1201.18,0,0
96688.2,65.6972,-1197.53,0,0
96948.5,64.8962,-1193.28,0,0
97208.8,64.4494,-1189.02,0,0
97469.1,64.0887,-1184.63,0,0
97729.5,64.0625,-1180.29,0,0
97989.8,64.2968,-1176.08,0,0
98250.1,64.5552,-1172.3,0,0
98510.4,64.4098,-1168.87,0,0
98770.8,63.9519,-1164.96,0,0
99031.1,63.7172,-1160.8,0,0
99291.4,63.7048,-1156.77,0,0
99551.7,63.6534,-1152.87,0,0
99812.1,63.6539,-1148.84,0,0
100072,63.6415,-1144.93,0,0
100333,63.5952,-1140.95,0,0
100593,63.6418,-1136.98,0,0
100853,63.6665,-1133.04,0,0
101114,63.7306,-1129.17,0,0
101374,63.6267,-1125.33,0,0
101634,63.31,-1121.25,0,0
101895,63.0332,-1116.82,0,0
102155,63.1281,-1112.11,0,0
102415,63.6253,-1107.25,0,0
102676,64.6633,-1102.7,0,0
102936,65.653,-1098.61,0,0
103196,66.5054,-1094.61,0,0
103457,67.3303,-1090.52,0,0
103717,68.2995,-1086.21,0,0
103977,69.7293,-1081.94,0,0
104238,71.5571,-1078.14,0,0
104498,73.1467,-1075.01,0,0
104758,74.4744,-1072.05,0,0
105019,75.2607,-1068.98,0,0
105279,76.3486,-1065.34,0,0
105539,77.753,-1061.97,0,0
105800,79.2425,-1058.8,0,0
106060,80.8255,-1055.84,0,0
106320.175,82.2915,-1053.16,0,0
106580.5,83.6972,-1050.68,0,0
106840.825,84.8019,-1048.15,0,0
107101.15,86.1123,-1045.52,0,0
107361.475,87.5529,-1043.47,0,0
107621.8,88.4091,-1041.45,0,0
107882.125,89.1099,-1039.19,0,0
108142.45,89.9653,-1036.87,0,0
108402.775,90.9828,-1034.56,0,0
108663.1,92.0393,-1032.58,0,0
108923.425,92.8997,-1030.67,0,0
109183.75,93.7616,-1029.03,0,0
109444.075,94.4169,-1027.63,0,0
109704.4,94.6625,-1026.38,0,0
109964.725,94.4047,-1024.85,0,0
110225.05,93.9917,-1023.04,0,0
110485.375,93.454,-1020.82,0,0
110745.7,93.2737,-1018.36,0,0
111006.025,93.1849,-1015.66,0,0
111266.35,93.4634,-1013.14,0,0
111526.675,93.7997,-1010.86,0,0
111787.0,94.266,-1008.63,0,0
112047.325,94.4868,-1006.5,0,0
112307.65,94.8137,-1004.46,0,0
112567.975,95.1272,-1002.66,0,0
112828.3,95.3492,-1000.82,0,0
113088.625,95.4466,-999.181,0,0
113348.95,95.3885,-997.718,0,0
113609.275,95.0025,-996.046,0,0
113869.6,94.4968,-994.436,0,0
114129.925,93.8792,-992.68,0,0
114390.25,93.1888,-990.772,0,0
114650.575,92.5897,-988.717,0,0
114910.9,91.9083,-986.815,0,0
115171.225,91.0496,-984.896,0,0
115431.55,90.0429,-982.897,0,0
115691.875,88.8732,-980.548,0,0
115952.2,87.7965,-978.009,0,0
116212.525,86.8456,-975.362,0,0
116472.85,86.025,-972.643,0,0
116733.175,85.1462,-970.021,0,0
116993.5,84.1635,-967.271,0,0
117253.825,83.2844,-964.287,0,0
117514.15,82.4996,-961.203,0,0
117774.475,81.8125,-958.006,0,0
118034.8,81.3573,-954.763,0,0
118295.125,81.0081,-951.732,0,0
118555.45,80.5738,-948.569,0,0
118815.775,80.2953,-945.334,0,0
119076.1,80.1785,-942.068,0,0
119336.425,80.2154,-938.945,0,0
119596.75,80.2906,-935.883,0,0
119857.075,80.438,-932.864,0,0
120117.4,80.6725,-930.009,0,0
120377.725,80.9524,-927.26,0,0
120638.05,81.16,-924.705,0,0
120898.375,81.3476,-922.197,0,0
121158.7,81.2794,-919.826,0,0
121419.025,81.1175,-917.422,0,0
121679.35,80.8378,-914.975,0,0
121939.675,80.419,-912.419,0,0
122200.0,80.0801,-909.645,0,0
122460,79.7581,-906.853,0,0
122721,79.4864,-904.036,0,0
122981,79.1185,-901.155,0,0
123241,78.8263,-898.052,0,0
123502,78.7748,-894.953,0,0
123762,78.7461,-891.926,0,0
124022,78.8142,-888.902,0,0
124283,78.9169,-885.923,0,0
124543,79.0933,-882.885,0,0
124803,79.3267,-879.958,0,0
125064,79.4824,-877.059,0,0
125324,79.6855,-874.113,0,0
125584,80.0131,-871.209,0,0
125845,80.353,-868.44,0,0
126105,80.6081,-865.661,0,0
126365,80.8366,-862.884,0,0
126626,81.0946,-860.076,0,0
126886,81.3616,-857.234,0,0
127146,81.6501,-854.522,0,0
127406,81.9937,-851.519,0,0
127667,82.5402,-848.762,0,0
127927,82.8856,-845.948,0,0
128187,83.4812,-843.167,0,0
128448,83.9019,-840.502,0,0
128708,84.3236,-837.859,0,0
128968,84.6964,-835.086,0,0
129229,85.157,-832.228,0,0
129489,85.7009,-829.278,0,0
129749,86.4669,-826.28,0,0
130010,87.454,-823.452,0,0
130270,88.482,-820.857,0,0
130530,89.4588,-818.376,0,0
130791,90.4812,-815.987,0,0
131051,91.4921,-813.718,0,0
131311,92.5267,-811.615,0,0
131572,93.3845,-809.673,0,0
131832,94.0989,-807.715,0,0
132092,94.7645,-805.757,0,0
132353,95.2429,-803.809,0,0
132613,95.7127,-801.685,0,0
132873,96.3316,-799.569,0,0
133134,96.8951,-797.528,0,0
133394,97.394,-795.508,0,0
133654,97.9012,-793.454,0,0
133915,98.4133,-791.38,0,0
134175,98.9525,-789.388,0,0
134435,99.4664,-787.382,0,0
134696,99.8309,-785.396,0,0
134956,100.172,-783.342,0,0
135216,100.648,-781.272,0,0
135477,101.03,-779.173,0,0
135737,101.398,-776.986,0,0
135997,101.807,-774.73,0,0
136258,102.386,-772.435,0,0
136518,103.223,-770.091,0,0
136778,104.017,-768.097,0,0
137039,104.797,-766.02,0,0
137299,105.795,-764.02,0,0
137559,106.835,-762.421,0,0
137819,107.576,-761.06,0,0
138080,108.091,-759.675,0,0
138340.125,108.491,-758.125,0,0
138600.45,108.971,-756.702,0,0
138860.775,109.176,-755.415,0,0
139121.1,109.189,-753.897,0,0
139381.425,109.242,-752.343,0,0
139641.75,109.147,-750.782,0,0
139902.075,108.914,-749.047,0,0
140162.4,108.698,-747.115,0,0
140422.725,108.587,-745.048,0,0
140683.05,108.561,-742.943,0,0
140943.375,108.617,-740.803,0,0
141203.7,108.645,-738.652,0,0
141464.025,108.855,-736.566,0,0
141724.35,108.843,-734.498,0,0
141984.675,108.894,-732.142,0,0
142245.0,109.262,-729.771,0,0
142505.325,109.702,-727.692,0,0
142765.65,109.928,-725.692,0,0
143025.975,110.154,-723.535,0,0
143286.3,110.433,-721.432,0,0
143546.625,110.614,-719.207,0,0
143806.95,110.96,-716.995,0,0
144067.275,111.356,-714.892,0,0
144327.6,111.552,-712.848,0,0
144587.925,111.774,-710.577,0,0
144848.25,112.056,-708.271,0,0
145108.575,112.426,-705.86,0,0
145368.9,113.028,-703.469,0,0
145629.225,113.721,-701.259,0,0
145889.55,114.385,-699.243,0,0
146149.875,114.879,-697.227,0,0
146410.2,115.369,-695.063,0,0
146670.525,116.108,-692.836,0,0
146930.85,116.994,-690.953,0,0
147191.175,117.663,-689.485,0,0
147451.5,117.89,-687.873,0,0
147711.825,117.986,-686.001,0,0
147972.15,118.026,-683.917,0,0
148232.475,118.338,-681.627,0,0
148492.8,118.768,-679.439,0,0
148753.125,119.208,-677.181,0,0
149013.45,119.874,-674.855,0,0
149273.775,120.783,-672.826,0,0
149534.1,121.644,-671.208,0,0
149794.425,122.106,-669.793,0,0
150054.75,122.209,-668.32,0,0
150315.075,122.143,-666.59,0,0
150575.4,122.037,-664.747,0,0
150835.725,121.708,-662.804,0,0
151096.05,121.379,-660.425,0,0
151356.375,121.291,-657.851,0,0
151616.7,121.398,-655.376,0,0
151877.025,121.382,-652.931,0,0
152137.35,121.213,-650.356,0,0
152397.675,121.07,-647.507,0,0
152658.0,121.029,-644.401,0,0
152918.325,121.279,-640.988,0,0
153178.65,121.933,-637.649,0,0
153438.975,122.65,-634.522,0,0
153699.3,123.349,-631.34,0,0
153959.625,124.155,-628.023,0,0
154219.95,125.159,-624.716,0,0
154480,126.219,-621.33,0,0
154741,127.539,-617.86,0,0
155001,129.163,-614.611,0,0
155261,130.657,-611.453,0,0
155522,132.265,-608.06,0,0
155782,134.299,-604.643,0,0
156042,136.661,-601.536,0,0
156303,138.988,-598.76,0,0
156563,141.213,-596.005,0,0
156823,143.61,-593.059,0,0
157084,146.45,-590.375,0,0
157344,149.527,-588.183,0,0
157604,152.266,-586.447,0,0
157864,154.647,-584.778,0,0
158125,156.949,-582.959,0,0
158385,159.356,-581.26,0,0
158645,161.352,-579.762,0,0
158906,163.116,-577.79,0,0
159166,165.065,-575.55,0,0
159426,167.285,-572.925,0,0
159687,169.95,-570.242,0,0
159947,173.239,-567.623,0,0
160207,176.89,-565.491,0,0
160468,180.597,-563.715,0,0
160728,184.444,-562.211,0,0
160988,188.504,-560.952,0,0
161249,192.775,-560.371,0,0
161509,196.85,-560.298,0,0
161769,200.661,-560.65,0,0
162030,204.09,-561.378,0,0
162290,207.019,-562.217,0,0
162550,209.638,-563.005,0,0
162811,212.01,-563.696,0,0
163071,214.242,-564.279,0,0
163331,216.415,-564.768,0,0
163592,218.654,-565.261,0,0
163852,220.802,-565.828,0,0
164112,222.856,-566.407,0,0
164373,224.958,-566.828,0,0
164633,227.117,-567.281,0,0
164893,229.421,-567.784,0,0
165154,231.888,-568.42,0,0
165414,234.589,-569.334,0,0
165674,237.402,-570.869,0,0
165935,239.815,-573.025,0,0
166195,241.554,-575.504,0,0
166455,242.747,-577.751,0,0
166716,243.866,-579.749,0,0
166976,245.114,-581.93,0,0
167236,246.077,-584.585,0,0
167497,246.39,-587.309,0,0
167757,246.35,-589.927,0,0
168017,245.827,-592.481,0,0
168277,244.984,-594.793,0,0
168538,243.879,-596.926,0,0
168798,242.353,-598.915,0,0
169058,240.551,-600.435,0,0
169319,238.646,-601.701,0,0
169579,236.456,-602.633,0,0
169839,234.16,-602.987,0,0
170100,231.957,-602.826,0,0
170360.075,230.154,-602.4,0,0
170620.4,228.43,-601.896,0,0
170880.725,226.808,-601.109,0,0
171141.05,225.389,-600.252,0,0
171401.375,224.125,-599.17,0,0
171661.7,223.13,-598.112,0,0
171922.025,222.226,-597.052,0,0
172182.35,221.415,-595.94,0,0
172442.675,220.877,-594.891,0,0
172703.0,220.353,-594.151,0,0
172963.325,219.477,-593.453,0,0
173223.65,218.509,-592.402,0,0
173483.975,217.682,-591.165,0,0
173744.3,216.99,-589.821,0,0
174004.625,216.515,-588.354,0,0
174264.95,216.279,-586.943,0,0
174525.275,216.094,-585.686,0,0
174785.6,215.998,-584.499,0,0
175045.925,215.751,-583.308,0,0
175306.25,215.861,-581.879,0,0
175566.575,216.374,-580.839,0,0
175826.9,216.653,-580.39,0,0
176087.225,216.499,-579.933,0,0
176347.55,216.242,-579.302,0,0
176607.875,215.99,-578.715,0,0
176868.2,215.577,-578.056,0,0
177128.525,215.138,-577.173,0,0
177388.85,214.978,-576.235,0,0
177649.175,214.975,-575.524,0,0
177909.5,214.866,-575.167,0,0
178169.825,214.389,-574.907,0,0
178430.15,213.65,-574.506,0,0
178690.475,212.861,-573.949,0,0
178950.8,211.945,-573.281,0,0
179211.125,211.141,-572.461,0,0
179471.45,210.343,-571.764,0,0
179731.775,209.355,-571.147,0,0
179992.1,208.065,-570.416,0,0
180252.425,206.62,-569.352,0,0
180512.75,205.309,-568.044,0,0
180773.075,204.119,-566.717,0,0
181033.4,202.859,-565.26,0,0
181293.725,201.682,-563.74,0,0
181554.05,200.453,-562.156,0,0
181814.375,199.279,-560.475,0,0
182074.7,198.086,-558.846,0,0
182335.025,196.717,-557.111,0,0
182595.35,195.248,-555.099,0,0
182855.675,193.962,-552.945,0,0
183116.0,192.581,-550.743,0,0
183376.325,191.117,-548.303,0,0
183636.65,189.722,-545.53,0,0
183896.975,188.51,-542.512,0,0
184157.3,187.525,-539.283,0,0
184417.625,186.768,-535.998,0,0
184677.95,186.172,-532.577,0,0
184938.275,185.965,-529.005,0,0
185198.6,186.045,-525.596,0,0
185458.925,186.327,-522.401,0,0
185719.25,186.536,-519.305,0,0
185979.575,186.829,-516.135,0,0
186239.9,187.322,-513.07,0,0
186500,187.875,-510.215,0,0
186761,188.203,-507.429,0,0
187021,188.48,-504.453,0,0
187281,188.955,-501.297,0,0
187542,189.665,-498.299,0,0
187802,190.273,-495.453,0,0
188062,190.828,-492.484,0,0
188322,191.479,-489.446,0,0
188583,192.238,-486.302,0,0
188843,193.081,-483.301,0,0
189103,193.941,-480.278,0,0
189364,194.888,-477.276,0,0
189624,195.869,-474.302,0,0
189884,196.864,-471.389,0,0
190145,197.822,-468.371,0,0
190405,198.851,-465.252,0,0
190665,199.938,-462.199,0,0
190926,201.118,-459.143,0,0
191186,202.197,-456.178,0,0
191446,203.127,-452.988,0,0
191707,204.324,-449.42,0,0
191967,205.736,-445.853,0,0
192227,207.476,-442.367,0,0
192488,209.251,-439.104,0,0
192748,211.006,-435.899,0,0
193008,212.823,-432.582,0,0
193269,214.66,-429.418,0,0
193529,216.423,-426.125,0,0
193789,218.21,-422.839,0,0
194050,220.146,-419.365,0,0
194310,222.16,-415.788,0,0
194570,224.303,-412.201,0,0
194831,226.614,-408.52,0,0
195091,229.08,-404.742,0,0
195351,231.858,-401.053,0,0
195612,234.822,-397.453,0,0
195872,237.711,-394.033,0,0
196132,240.587,-390.444,0,0
196393,243.584,-386.784,0,0
196653,246.982,-383.055,0,0
196913,250.502,-379.403,0,0
197174,254.233,-375.83,0,0
197434,258.211,-372.321,0,0
197694,262.352,-368.868,0,0
197955,266.556,-365.671,0,0
198215,270.747,-362.612,0,0
198475,275.034,-359.483,0,0
198735,279.491,-356.438,0,0
198996,284.003,-353.538,0,0
199256,288.442,-350.615,0,0
199516,293.039,-347.626,0,0
199777,297.763,-344.475,0,0
200037,302.715,-341.337,0,0
200297,307.992,-338.162,0,0
200558,313.587,-335.097,0,0
200818,319.333,-332.18,0,0
201078,325.254,-329.313,0,0
201339,331.368,-326.385,0,0
201599,337.73,-323.315,0,0
201859,344.856,-320.326,0,0
202120,352.512,-317.643,0,0
202380.025,360.716,-315.461,0,0
202640.35,369.104,-314.041,0,0
202900.675,377.487,-312.911,0,0
203161.0,385.916,-312.079,0,0
203421.325,394.482,-311.377,0,0
203681.65,403.636,-310.846,0,0
203941.975,413.351,-310.787,0,0
204202.3,423.541,-311.539,0,0
204462.625,434.021,-313.293,0,0
204722.95,444.543,-316.097,0,0
204983.275,454.871,-320.045,0,0
205243.6,464.43,-324.939,0,0
205503.925,473.33,-330.296,0,0
205764.25,481.758,-336.002,0,0
206024.575,489.532,-342.098,0,0
206284.9,497.184,-348.48,0,0
206545.225,504.618,-355.438,0,0
206805.55,511.369,-363.188,0,0
207065.875,517.149,-371.466,0,0
207326.2,521.874,-379.783,0,0
207586.525,525.867,-387.814,0,0
207846.85,529.26,-395.749,0,0
208107.175,532.162,-403.561,0,0
208367.5,534.584,-411.127,0,0
208627.825,536.718,-418.71,0,0
208888.15,538.296,-426.348,0,0
209148.475,539.293,-433.853,0,0
209408.8,539.701,-441.132,0,0
209669.125,539.485,-448.4,0,0
209929.45,538.419,-455.197,0,0
210189.775,536.743,-461.173,0,0
210450.1,534.777,-466.224,0,0
210710.425,532.897,-470.545,0,0
210970.75,530.906,-474.235,0,0
211231.075,529.131,-477.433,0,0
211491.4,527.447,-480.185,0,0
211751.725,525.708,-482.376,0,0
212012.05,524.011,-483.915,0,0
212272.375,522.685,-484.592,0,0
212532.7,522.152,-484.478,0,0
212793.025,522.675,-484.051,0,0
213053.35,524.308,-483.713,0,0
213313.675,526.748,-483.986,0,0
213574.0,529.557,-484.994,0,0
213834.325,532.329,-486.471,0,0
214094.65,535.041,-488.092,0,0
214354.975,538.103,-489.915,0,0
214615.3,541.289,-492.159,0,0
214875.625,544.316,-494.76,0,0
215135.95,547.417,-497.502,0,0
215396.275,550.594,-500.523,0,0
215656.6,553.588,-504.222,0,0
215916.925,555.948,-508.049,0,0
216177.25,557.803,-511.503,0,0
216437.575,559.77,-514.653,0,0
216697.9,561.932,-517.586,0,0
216958.225,564.299,-520.48,0,0
217218.55,566.951,-523.475,0,0
217478.875,569.817,-526.77,0,0
217739.2,572.508,-530.339,0,0
217999.525,575.055,-533.877,0,0
218259.85,577.559,-537.242,0,0
218520,580.296,-540.37,0,0
218780,583.587,-543.526,0,0
219041,587.356,-546.946,0,0
219301,591.361,-550.819,0,0
219561,595.678,-555.131,0,0
219822,600.124,-560.106,0,0
220082,604.466,-565.6,0,0
220342,608.649,-571.61,0,0
220603,612.696,-577.697,0,0
220863,616.885,-584.29,0,0
221123,621.134,-591.436,0,0
221384,625.371,-599.348,0,0
221644,629.359,-608.123,0,0
221904,632.581,-617.725,0,0
222165,635.021,-627.889,0,0
222425,636.575,-638.35,0,0
222685,637.369,-648.895,0,0
222946,637.373,-659.561,0,0
223206,636.814,-670.057,0,0
223466,635.757,-680.39,0,0
223727,634.169,-690.782,0,0
223987,631.942,-701.077,0,0
224247,629.401,-711.163,0,0
224508,626.443,-721.268,0,0
224768,622.931,-731.16,0,0
225028,618.877,-741.048,0,0
225289,614.379,-750.68,0,0
225549,609.451,-759.828,0,0
225809,604.293,-768.974,0,0
226070,598.975,-777.948,0,0
226330,593.077,-786.851,0,0
226590,586.789,-795.632,0,0
226851,579.977,-804.278,0,0
227111,572.509,-812.86,0,0
227371,564.297,-820.833,0,0
227632,555.524,-828.323,0,0
227892,546.272,-835.163,0,0
228152,536.84,-841.113,0,0
228413,527.166,-846.443,0,0
228673,517.41,-851.219,0,0
228933,507.522,-855.252,0,0
229193,497.625,-858.684,0,0
229454,487.767,-861.376,0,0
229714,478.012,-863.659,0,0
229974,468.476,-865.188,0,0
230235,459.124,-866.416,0,0
230495,450.118,-866.922,0,0
230755,441.536,-867.076,0,0
231016,433.225,-866.928,0,0
231276,425.166,-866.425,0,0
231536,417.402,-865.711,0,0
231797,410.133,-864.753,0,0
232057,403.145,-863.565,0,0
232317,396.559,-862.364,0,0
232578,390.324,-861.214,0,0
232838,384.361,-860.116,0,0
233098,378.468,-858.961,0,0
233359,372.651,-857.747,0,0
233619,367.087,-856.567,0,0
233879,361.759,-855.285,0,0
234140,356.604,-854.072,0,0
234400,351.564,-853.015,0,0
234660.3,346.643,-852.014,0,0
234920.625,341.452,-851.215,0,0
235180.95,336.301,-850.239,0,0
235441.275,331.125,-849.016,0,0
235701.6,326.063,-847.639,0,0
235961.925,321.072,-846.202,0,0
236222.25,316.235,-844.733,0,0
236482.575,311.504,-843.249,0,0
236742.9,306.861,-841.705,0,0
237003.225,302.227,-840.199,0,0
237263.55,297.501,-838.591,0,0
237523.875,292.932,-836.879,0,0
237784.2,288.387,-835.06,0,0
238044.525,284.023,-833.151,0,0
238304.85,279.661,-831.237,0,0
238565.175,275.276,-829.246,0,0
238825.5,271.141,-827.06,0,0
239085.825,267.009,-824.924,0,0
239346.15,262.948,-822.651,0,0
239606.475,259.009,-820.331,0,0
239866.8,255.155,-817.762,0,0
240127.125,251.498,-815.251,0,0
240387.45,248.139,-812.799,0,0
240647.775,244.844,-810.359,0,0
240908.1,241.498,-807.935,0,0
241168.425,238.296,-805.458,0,0
241428.75,235.263,-802.936,0,0
241689.075,232.06,-800.519,0,0
241949.4,229.247,-798.069,0,0
242209.725,226.305,-795.493,0,0
242470.05,223.609,-792.984,0,0
242730.375,220.85,-790.464,0,0
242990.7,218.308,-788.134,0,0
243251.025,215.816,-785.615,0,0
243511.35,213.526,-783.205,0,0
243771.675,211.194,-780.947,0,0
244032.0,208.945,-778.747,0,0
244292.325,206.622,-776.509,0,0
244552.65,204.271,-774.535,0,0
244812.975,201.831,-772.437,0,0
245073.3,199.442,-770.134,0,0
245333.625,197.143,-768.031,0,0
245593.95,194.743,-765.744,0,0
245854.275,192.336,-763.46,0,0
246114.6,189.89,-761.143,0,0
246374.925,187.628,-758.627,0,0
246635.25,185.463,-756.112,0,0
246895.575,183.255,-753.561,0,0
247155.9,181.218,-751.042,0,0
247416.225,179.224,-748.414,0,0
247676.55,177.37,-745.783,0,0
247936.875,175.547,-743.269,0,0
248197.2,173.781,-740.742,0,0
248457.525,172.178,-738.225,0,0
248717.85,170.491,-735.66,0,0
248978.175,168.962,-733.073,0,0
249238.5,167.415,-730.605,0,0
249498.825,166.005,-728.152,0,0
249759.15,164.582,-725.702,0,0
250019.475,163.116,-723.283,0,0
250279.8,161.756,-720.853,0,0
250540,160.414,-718.385,0,0
250800,159.084,-715.915,0,0
251061,157.811,-713.411,0,0
251321,156.586,-710.938,0,0
251581,155.387,-708.516,0,0
251842,154.269,-706.075,0,0
252102,153.096,-703.674,0,0
252362,151.983,-701.2,0,0
252623,150.952,-698.726,0,0
252883,149.864,-696.208,0,0
253143,148.883,-693.739,0,0
253404,147.906,-691.199,0,0
253664,146.994,-688.609,0,0
253924,146.149,-686.014,0,0
254185,145.448,-683.378,0,0
254445,144.851,-680.794,0,0
254705,144.312,-678.117,0,0
254966,143.859,-675.598,0,0
255226,143.558,-673.146,0,0
255486,143.203,-670.711,0,0
255747,142.897,-668.402,0,0
256007,142.629,-666.089,0,0
256267,142.289,-663.771,0,0
256528,142.052,-661.453,0,0
256788,141.819,-659.165,0,0
257048,141.67,-656.905,0,0
257309,141.496,-654.64,0,0
257569,141.331,-652.357,0,0
257829,141.217,-650.054,0,0
258090,141.134,-647.717,0,0
258350,141.103,-645.329,0,0
258610,141.222,-642.911,0,0
258871,141.486,-640.467,0,0
259131,141.838,-638.098,0,0
259391,142.32,-635.816,0,0
259651,142.863,-633.524,0,0
259912,143.524,-631.384,0,0
260172,144.306,-629.225,0,0
260432,145.128,-627.203,0,0
260693,146.098,-625.232,0,0
260953,147.122,-623.425,0,0
261213,148.2,-621.732,0,0
261474,149.322,-620.197,0,0
261734,150.456,-618.804,0,0
261994,151.582,-617.442,0,0
262255,152.691,-616.248,0,0
262515,153.8,-615.141,0,0
262775,154.875,-614.142,0,0
263036,155.958,-613.125,0,0
263296,156.993,-612.26,0,0
263556,158.031,-611.436,0,0
263817,159.096,-610.627,0,0
264077,160.186,-609.93,0,0
264337,161.315,-609.286,0,0
264598,162.488,-608.758,0,0
264858,163.744,-608.288,0,0
265118,164.999,-608.028,0,0
265379,166.25,-607.916,0,0
265639,167.561,-608.057,0,0
265899,168.727,-608.462,0,0
266160,169.867,-609.041,0,0
266420,170.839,-609.88,0,0
266680.25,171.581,-610.813,0,0
266940.575,172.14,-611.97,0,0
267200.9,172.323,-613.306,0,0
267461.225,172.29,-614.628,0,0
267721.55,171.953,-616.024,0,0
267981.875,171.319,-617.453,0,0
268242.2,170.314,-618.829,0,0
268502.525,168.976,-620.035,0,0
268762.85,167.337,-620.985,0,0
269023.175,165.469,-621.64,0,0
269283.5,163.526,-622.007,0,0
269543.825,161.503,-622.104,0,0
269804.15,159.517,-621.932,0,0
270064.475,157.438,-621.546,0,0
270324.8,155.432,-620.962,0,0
270585.125,153.372,-620.078,0,0
270845.45,151.428,-618.993,0,0
271105.775,149.701,-617.672,0,0
271366.1,148.116,-616.254,0,0
271626.425,146.616,-614.662,0,0
271886.75,145.318,-613.003,0,0
272147.075,144.153,-611.31,0,0
272407.4,143.117,-609.515,0,0
272667.725,142.248,-607.703,0,0
272928.05,141.545,-605.832,0,0
273188.375,141.004,-603.968,0,0
273448.7,140.614,-602.115,0,0
273709.025,140.42,-600.336,0,0
273969.35,140.298,-598.673,0,0
274229.675,140.228,-597.082,0,0
274490.0,140.258,-595.587,0,0
274750.325,140.276,-594.151,0,0
275010.65,140.404,-592.761,0,0
275270.975,140.473,-591.438,0,0
275531.3,140.503,-590.119,0,0
275791.625,140.647,-588.798,0,0
276051.95,140.88,-587.492,0,0
276312.275,141.158,-586.24,0,0
276572.6,141.518,-585.041,0,0
276832.925,141.909,-583.933,0,0
277093.25,142.386,-582.864,0,0
277353.575,142.897,-581.9,0,0
277613.9,143.453,-581.074,0,0
277874.225,144.011,-580.341,0,0
278134.55,144.546,-579.699,0,0
278394.875,145.098,-579.174,0,0
278655.2,145.63,-578.771,0,0
278915.525,146.072,-578.5,0,0
279175.85,146.46,-578.326,0,0
279436.175,146.693,-578.212,0,0
279696.5,146.817,-578.158,0,0
279956.825,146.872,-578.042,0,0
280217.15,146.838,-578.018,0,0
280477.475,146.718,-577.911,0,0
280737.8,146.584,-577.883,0,0
280998.125,146.33,-577.849,0,0
281258.45,146,-577.825,0,0
281518.775,145.536,-577.785,0,0
281779.1,144.966,-577.665,0,0
282039.425,144.323,-577.478,0,0
282299.75,143.667,-577.181,0,0
282560,142.987,-576.845,0,0
282820,142.273,-576.433,0,0
283081,141.54,-575.937,0,0
283341,140.818,-575.364,0,0
283601,140.107,-574.758,0,0
283862,139.412,-574.088,0,0
284122,138.736,-573.375,0,0
284382,138.066,-572.65,0,0
284643,137.438,-571.859,0,0
284903,136.834,-571.05,0,0
285163,136.295,-570.278,0,0
285424,135.735,-569.495,0,0
285684,135.142,-568.756,0,0
285944,134.475,-568.019,0,0
286205,133.717,-567.223,0,0
286465,132.883,-566.374,0,0
286725,132.011,-565.343,0,0
286986,131.118,-564.187,0,0
287246,130.246,-562.84,0,0
287506,129.502,-561.36,0,0
287767,128.846,-559.786,0,0
288027,128.315,-558.079,0,0
288287,127.984,-556.239,0,0
288548,127.902,-554.386,0,0
288808,128.049,-552.561,0,0
289068,128.392,-550.846,0,0
289329,128.905,-549.281,0,0
289589,129.493,-547.991,0,0
289849,130.106,-546.795,0,0
290109,130.711,-545.816,0,0
290370,131.22,-544.924,0,0
290630,131.655,-544.066,0,0
290890,132.048,-543.26,0,0
291151,132.433,-542.475,0,0
291411,132.789,-541.709,0,0
291671,133.134,-540.981,0,0
291932,133.459,-540.356,0,0
292192,133.643,-539.771,0,0
292452,133.758,-539.197,0,0
292713,133.765,-538.599,0,0
292973,133.705,-537.919,0,0
293233,133.586,-537.143,0,0
293494,133.437,-536.253,0,0
293754,133.321,-535.29,0,0
294014,133.233,-534.226,0,0
294275,133.214,-533.082,0,0
294535,133.235,-531.826,0,0
294795,133.343,-530.576,0,0
295056,133.56,-529.222,0,0
295316,133.871,-527.824,0,0
295576,134.338,-526.436,0,0
295837,134.97,-525.013,0,0
296097,135.746,-523.684,0,0
296357,136.642,-522.476,0,0
296618,137.578,-521.414,0,0
296878,138.53,-520.457,0,0
297138,139.437,-519.557,0,0
297399,140.337,-518.668,0,0
297659,141.28,-517.794,0,0
297919,142.252,-516.944,0,0
298180,143.304,-516.163,0,0
298440,144.392,-515.391,0,0
298700.2,145.476,-514.655,0,0
298960.525,146.689,-514.074,0,0
299220.85,147.831,-513.502,0,0
299481.175,149.15,-512.995,0,0
299741.5,150.412,-512.582,0,0
300001.825,151.69,-512.437,0,0
300262.15,152.863,-512.16,0,0
300522.475,154.109,-512.004,0,0
300782.8,155.212,-511.815,0,0
301043.125,156.426,-511.618,0,0
301303.45,157.793,-511.439,0,0
301563.775,159.216,-511.387,0,0
301824.1,160.634,-511.568,0,0
302084.425,162.086,-511.926,0,0
302344.75,163.407,-512.285,0,0
302605.075,164.741,-512.785,0,0
302865.4,165.877,-513.403,0,0
303125.725,167.026,-514.112,0,0
303386.05,168.115,-514.751,0,0
303646.375,169.119,-515.539,0,0
303906.7,170.069,-516.35,0,0
304167.025,170.945,-517.224,0,0
304427.35,171.858,-518.154,0,0
304687.675,172.641,-519.043,0,0
304948.0,173.381,-519.946,0,0
305208.325,174.076,-521,0,0
305468.65,174.736,-522.109,0,0
305728.975,175.412,-523.119,0,0
305989.3,176.016,-524.176,0,0
306249.625,176.549,-525.37,0,0
306509.95,177.105,-526.672,0,0
306770.275,177.555,-528.053,0,0
307030.6,177.826,-529.5,0,0
307290.925,177.946,-530.976,0,0
307551.25,177.934,-532.473,0,0
307811.575,177.842,-533.865,0,0
308071.9,177.678,-535.256,0,0
308332.225,177.335,-536.599,0,0
308592.55,177.002,-537.835,0,0
308852.875,176.673,-539.066,0,0
309113.2,176.391,-540.137,0,0
309373.525,176.021,-541.414,0,0
309633.85,175.698,-542.67,0,0
309894.175,175.255,-543.864,0,0
310154.5,174.792,-545.221,0,0
310414.825,174.306,-546.469,0,0
310675.15,173.692,-547.842,0,0
310935.475,173.063,-549.296,0,0
311195.8,172.332,-550.687,0,0
311456.125,171.468,-552.053,0,0
311716.45,170.462,-553.556,0,0
311976.775,169.292,-555.101,0,0
312237.1,167.931,-556.526,0,0
312497.425,166.487,-557.842,0,0
312757.75,164.829,-558.925,0,0
313018.075,163.041,-560.059,0,0
313278.4,161.234,-560.797,0,0
313538.725,159.314,-561.516,0,0
313799.05,157.547,-562.052,0,0
314059.375,155.758,-562.387,0,0
314319.7,154.059,-562.646,0,0
314580,152.524,-562.807,0,0
314840,150.836,-562.999,0,0
315101,149.355,-563.209,0,0
315361,147.823,-563.333,0,0
315621,146.295,-563.452,0,0
315882,144.701,-563.539,0,0
316142,143.085,-563.639,0,0
316402,141.447,-563.609,0,0
316663,139.957,-563.52,0,0
316923,138.3,-563.445,0,0
317183,136.718,-563.283,0,0
317444,135.148,-563.081,0,0
317704,133.617,-562.846,0,0
317964,132.086,-562.513,0,0
318225,130.474,-562.17,0,0
318485,128.963,-561.633,0,0
318745,127.564,-561.173,0,0
319006,126.079,-560.788,0,0
319266,124.603,-560.25,0,0
319526,123.191,-559.688,0,0
319787,121.77,-559.106,0,0
320047,120.364,-558.433,0,0
320307,118.989,-557.738,0,0
320567,117.556,-556.988,0,0
320828,116.293,-556.282,0,0
321088,114.971,-555.448,0,0
321348,113.622,-554.639,0,0
321609,112.425,-553.728,0,0
321869,111.145,-552.75,0,0
322129,110.022,-551.768,0,0
322390,108.86,-550.683,0,0
322650,107.762,-549.605,0,0
322910,106.765,-548.48,0,0
323171,105.861,-547.303,0,0
323431,104.979,-546.087,0,0
323691,104.272,-544.864,0,0
323952,103.589,-543.751,0,0
324212,102.951,-542.679,0,0
324472,102.474,-541.551,0,0
324733,102.006,-540.446,0,0
324993,101.511,-539.36,0,0
325253,101.075,-538.323,0,0
325514,100.74,-537.442,0,0
325774,100.435,-536.405,0,0
326034,100.077,-535.503,0,0
326295,99.8088,-534.679,0,0
326555,99.5874,-533.812,0,0
326815,99.3604,-533.02,0,0
327076,99.1603,-532.292,0,0
327336,99.0374,-531.629,0,0
327596,98.8126,-530.968,0,0
327857,98.6592,-530.382,0,0
328117,98.4706,-529.828,0,0
328377,98.2442,-529.355,0,0
328638,97.9773,-528.939,0,0
328898,97.7538,-528.516,0,0
329158,97.4388,-528.114,0,0
329419,97.1451,-527.706,0,0
329679,96.793,-527.358,0,0
329939,96.4114,-527.04,0,0
330200,96.0431,-526.672,0,0
330460,95.6163,-526.415,0,0
330720.15,95.198,-526.084,0,0
330980.475,94.7108,-525.788,0,0
331240.8,94.185,-525.53,0,0
331501.125,93.6567,-525.158,0,0
331761.45,93.0777,-524.915,0,0
332021.775,92.3717,-524.599,0,0
332282.1,91.7435,-524.28,0,0
332542.425,91.0845,-523.832,0,0
332802.75,90.3867,-523.554,0,0
333063.075,89.7056,-523.04,0,0
333323.4,89.0548,-522.667,0,0
333583.725,88.2668,-522.236,0,0
333844.05,87.5745,-521.735,0,0
334104.375,86.7431,-521.348,0,0
334364.7,85.9763,-520.801,0,0
334625.025,85.2775,-520.227,0,0
334885.35,84.4562,-519.648,0,0
335145.675,83.6943,-518.994,0,0
335406.0,82.8989,-518.444,0,0
335666.325,82.1503,-517.649,0,0
335926.65,81.3802,-516.963,0,0
336186.975,80.7288,-516.232,0,0
336447.3,80.013,-515.52,0,0
336707.625,79.4145,-514.748,0,0
336967.95,78.6857,-514.06,0,0
337228.275,78.0428,-513.304,0,0
337488.6,77.4191,-512.535,0,0
337748.925,76.7211,-511.866,0,0
338009.25,76.1622,-511.086,0,0
338269.575,75.4706,-510.24,0,0
338529.9,74.8864,-509.422,0,0
338790.225,74.3198,-508.613,0,0
339050.55,73.7327,-507.769,0,0
339310.875,73.171,-506.912,0,0
339571.2,72.6392,-506.009,0,0
339831.525,72.1899,-505.172,0,0
340091.85,71.5787,-504.345,0,0
340352.175,71.0874,-503.512,0,0
340612.5,70.6829,-502.66,0,0
340872.825,70.2221,-501.783,0,0
341133.15,69.7677,-500.99,0,0
341393.475,69.3591,-500.139,0,0
341653.8,68.9446,-499.351,0,0
341914.125,68.5434,-498.5,0,0
342174.45,68.06,-497.771,0,0
342434.775,67.7279,-496.895,0,0
342695.1,67.2589,-496.12,0,0
342955.425,66.8404,-495.328,0,0
343215.75,66.4364,-494.555,0,0
343476.075,66.0297,-493.738,0,0
343736.4,65.594,-492.916,0,0
343996.725,65.1875,-492.138,0,0
344257.05,64.7346,-491.34,0,0
344517.375,64.3096,-490.485,0,0
344777.7,63.9372,-489.653,0,0
345038.025,63.5321,-488.829,0,0
345298.35,63.1065,-487.948,0,0
345558.675,62.6913,-487.047,0,0
345819.0,62.287,-486.164,0,0
346079.325,61.9192,-485.293,0,0
346339.65,61.5187,-484.428,0,0
346599.975,61.1538,-483.514,0,0
346860,60.7799,-482.547,0,0
347121,60.4171,-481.63,0,0
347381,60.089,-480.671,0,0
347641,59.7746,-479.715,0,0
347902,59.4874,-478.744,0,0
348162,59.2693,-477.722,0,0
348422,59.0407,-476.857,0,0
348683,58.8325,-475.837,0,0
348943,58.6621,-474.89,0,0
349203,58.4286,-473.98,0,0
349464,58.2101,-473.08,0,0
349724,58.0773,-472.096,0,0
349984,57.9397,-471.175,0,0
350245,57.8225,-470.239,0,0
350505,57.6888,-469.278,0,0
350765,57.6259,-468.356,0,0
351025,57.5586,-467.463,0,0
351286,57.4528,-466.553,0,0
351546,57.4547,-465.69,0,0
351806,57.3615,-464.847,0,0
352067,57.3104,-464.04,0,0
352327,57.2539,-463.156,0,0
352587,57.1974,-462.307,0,0
352848,57.168,-461.526,0,0
353108,57.1327,-460.698,0,0
353368,57.0828,-459.922,0,0
353629,57.0172,-459.127,0,0
353889,56.9539,-458.243,0,0
354149,56.9449,-457.446,0,0
354410,56.8864,-456.618,0,0
354670,56.8493,-455.774,0,0
354930,56.7911,-454.964,0,0
355191,56.8081,-454.158,0,0
355451,56.8579,-453.349,0,0
355711,56.8551,-452.558,0,0
355972,56.8832,-451.755,0,0
356232,56.9126,-450.97,0,0
356492,56.9724,-450.25,0,0
356753,57.021,-449.448,0,0
357013,57.0495,-448.659,0,0
357273,57.1091,-447.946,0,0
357534,57.1229,-447.224,0,0
357794,57.1602,-446.521,0,0
358054,57.2309,-445.775,0,0
358315,57.2345,-445.047,0,0
358575,57.3093,-444.351,0,0
358835,57.3261,-443.605,0,0
359096,57.3616,-442.862,0,0
359356,57.4044,-442.11,0,0
359616,57.5013,-441.405,0,0
359877,57.5993,-440.644,0,0
360137,57.6568,-439.975,0,0
360397,57.7711,-439.31,0,0
360658,57.8549,-438.592,0,0
360918,57.9241,-437.937,0,0
361178,58.0192,-437.297,0,0
361438,58.0626,-436.641,0,0
361699,58.1492,-435.966,0,0
361959,58.1632,-435.311,0,0
362219,58.2098,-434.648,0,0
362480,58.271,-434.002,0,0
362740.1,58.3022,-433.275,0,0
363000.425,58.3783,-432.568,0,0
363260.75,58.4655,-431.883,0,0
363521.075,58.5258,-431.168,0,0
363781.4,58.6438,-430.498,0,0
364041.725,58.7266,-429.809,0,0
364302.05,58.8584,-429.112,0,0
364562.375,58.9453,-428.474,0,0
364822.7,59.0778,-427.799,0,0
365083.025,59.1835,-427.135,0,0
365343.35,59.2781,-426.493,0,0
365603.675,59.4596,-425.844,0,0
365864.0,59.5511,-425.245,0,0
366124.325,59.6615,-424.57,0,0
366384.65,59.7384,-424.012,0,0
366644.975,59.7528,-423.337,0,0
366905.3,59.7927,-422.669,0,0
367165.625,59.8428,-422.02,0,0
367425.95,59.8694,-421.292,0,0
367686.275,59.8881,-420.541,0,0
367946.6,59.9533,-419.735,0,0
368206.925,59.9978,-418.918,0,0
368467.25,60.1286,-418.052,0,0
368727.575,60.2751,-417.17,0,0
368987.9,60.5071,-416.225,0,0
369248.225,60.7682,-415.318,0,0
369508.55,61.0977,-414.429,0,0
369768.875,61.5113,-413.547,0,0
370029.2,61.9196,-412.614,0,0
370289.525,62.3831,-411.83,0,0
370549.85,62.8527,-410.969,0,0
370810.175,63.4457,-410.185,0,0
371070.5,64.0567,-409.411,0,0
371330.825,64.7115,-408.689,0,0
371591.15,65.418,-408.032,0,0
371851.475,66.1431,-407.472,0,0
372111.8,66.8552,-406.92,0,0
372372.125,67.6075,-406.435,0,0
372632.45,68.3378,-406.01,0,0
372892.775,69.1127,-405.654,0,0
373153.1,69.808,-405.327,0,0
373413.425,70.525,-405.128,0,0
373673.75,71.2293,-404.914,0,0
373934.075,71.9166,-404.789,0,0
374194.4,72.5074,-404.734,0,0
374454.725,73.0611,-404.68,0,0
374715.05,73.5648,-404.606,0,0
374975.375,74.0388,-404.609,0,0
375235.7,74.4819,-404.573,0,0
375496.025,74.8435,-404.569,0,0
375756.35,75.2538,-404.561,0,0
376016.675,75.5711,-404.515,0,0
376277.0,75.875,-404.439,0,0
376537.325,76.2422,-404.349,0,0
376797.65,76.5859,-404.258,0,0
377057.975,76.9882,-404.153,0,0
377318.3,77.3808,-404.136,0,0
377578.625,77.6874,-404.136,0,0
377838.95,78.0652,-404.177,0,0
378099.275,78.4484,-404.27,0,0
378359.6,78.7247,-404.363,0,0
378619.925,78.9834,-404.488,0,0
378880,79.2708,-404.566,0,0
379141,79.3433,-404.641,0,0
379401,79.5434,-404.689,0,0
379661,79.7005,-404.765,0,0
379922,79.8867,-404.74,0,0
380182,80.1237,-404.751,0,0
380442,80.3301,-404.786,0,0
380703,80.6569,-404.808,0,0
380963,80.9394,-404.941,0,0
381223,81.2701,-405.14,0,0
381483,81.566,-405.449,0,0
381744,81.7473,-405.802,0,0
382004,81.8953,-406.249,0,0
382264,81.9891,-406.643,0,0
382525,81.903,-407.101,0,0
382785,81.8432,-407.522,0,0
383045,81.6656,-407.897,0,0
383306,81.4696,-408.291,0,0
383566,81.1964,-408.653,0,0
383826,80.8737,-408.999,0,0
384087,80.5102,-409.307,0,0
384347,80.0868,-409.594,0,0
384607,79.595,-409.899,0,0
384868,79.1143,-410.085,0,0
385128,78.5623,-410.252,0,0
385388,77.9792,-410.383,0,0
385649,77.3381,-410.467,0,0
385909,76.7533,-410.511,0,0
386169,76.0533,-410.408,0,0
386430,75.3907,-410.363,0,0
386690,74.7081,-410.212,0,0
386950,74.0582,-409.959,0,0
387211,73.4448,-409.62,0,0
387471,72.9015,-409.293,0,0
387731,72.3055,-408.903,0,0
387992,71.7659,-408.536,0,0
388252,71.3097,-408.061,0,0
388512,70.8602,-407.666,0,0
388773,70.4725,-407.171,0,0
389033,70.1235,-406.708,0,0
389293,69.7631,-406.237,0,0
389554,69.4607,-405.742,0,0
389814,69.1957,-405.334,0,0
390074,68.9148,-404.871,0,0
390335,68.7101,-404.447,0,0
390595,68.4695,-404.013,0,0
390855,68.328,-403.656,0,0
391116,68.093,-403.271,0,0
391376,67.8767,-402.966,0,0
391636,67.6708,-402.59,0,0
391896,67.5092,-402.369,0,0
392157,67.2759,-402.084,0,0
392417,66.9915,-401.79,0,0
392677,66.6702,-401.586,0,0
392938,66.3531,-401.386,0,0
393198,65.9663,-401.117,0,0
393458,65.5411,-400.794,0,0
393719,65.0873,-400.493,0,0
393979,64.5771,-400.175,0,0
394239,64.1469,-399.739,0,0
394500,63.6761,-399.295,0,0
394760.05,63.2139,-398.824,0,0
395020.375,62.7334,-398.288,0,0
395280.7,62.3053,-397.767,0,0
395541.025,61.8569,-397.235,0,0
395801.35,61.4546,-396.628,0,0
396061.675,61.0678,-396.069,0,0
396322.0,60.6797,-395.414,0,0
396582.325,60.3056,-394.774,0,0
396842.65,59.9517,-394.111,0,0
397102.975,59.6561,-393.415,0,0
397363.3,59.3528,-392.711,0,0
397623.625,59.0851,-392.058,0,0
397883.95,58.8746,-391.337,0,0
398144.275,58.6613,-390.611,0,0
398404.6,58.4428,-389.926,0,0
398664.925,58.2491,-389.215,0,0
398925.25,58.063,-388.508,0,0
399185.575,57.9302,-387.806,0,0
399445.9,57.7571,-387.136,0,0
399706.225,57.6055,-386.42,0,0
399966.55,57.4651,-385.722,0,0
400006.6,57.4653,-385.599,0,0