File: Accelerated corrosion test data/2025-10-13_18-00-03/sample_2.csv
Frequency (Hz),Impedance (ohms),Phase (Radians),Temperature (C),Humidity (%)
10000.0,228.262,-11378.3,0,0
10260.325,223.012,-11092.2,0,0
10520.65,217.393,-10819.4,0,0
10780.975,213.154,-10560.2,0,0
11041.3,207.518,-10314.3,0,0
11301.625,203.377,-10077,0,0
11561.95,199.99,-9850.75,0,0
11822.275,197.278,-9643.02,0,0
12082.6,192.76,-9433.54,0,0
12342.925,187.337,-9237.59,0,0
12603.25,182.926,-9047.21,0,0
12863.575,179.948,-8863.99,0,0
13123.9,177.162,-8691.65,0,0
13384.225,173.317,-8521.48,0,0
13644.55,171.452,-8357.02,0,0
13904.875,179.934,-8214.86,0,0
14165.2,165.676,-8059.1,0,0
14425.525,161.882,-7911.23,0,0
14685.8,165.846,-7766.35,0,0
14946.175,159.783,-7636.76,0,0
15206.5,159.247,-7517.15,0,0
15466.825,163.452,-7384.66,0,0
15727.15,150.945,-7269.46,0,0
15987.5,148.532,-7149.09,0,0
16247.8,148.739,-7036.42,0,0
16508.125,143.148,-6925.89,0,0
16768.45,140.776,-6818.09,0,0
17028.775,139.055,-6714.53,0,0
17289.1,137.491,-6614.64,0,0
17549.425,134.866,-6515.58,0,0
17809.75,132.613,-6420.65,0,0
18070.075,130.785,-6328.12,0,0
18330.4,129.677,-6238.16,0,0
18590.725,128.848,-6150.08,0,0
18851.05,127.521,-6064.44,0,0
19111.375,128.32,-5983.73,0,0
19371.7,127.098,-5906.7,0,0
19632.025,122.853,-5828.19,0,0
19892.35,120.541,-5750.61,0,0
20152.675,119.039,-5675.24,0,0
20413.0,118.391,-5601.68,0,0
20673.3,117.765,-5529.42,0,0
20933.65,118.431,-5458.04,0,0
21193.975,121.972,-5391.69,0,0
21454.3,127.831,-5332.23,0,0
21714.625,124.977,-5274.12,0,0
21974.9,123.398,-5209.66,0,0
22235.275,118.244,-5154.2,0,0
22495.6,114.505,-5094.47,0,0
22755.925,112.86,-5033.25,0,0
23016.25,111.846,-4979.19,0,0
23276.6,111.528,-4925.34,0,0
23536.9,108.535,-4869.61,0,0
23797.225,107.555,-4815.93,0,0
24057.55,106.1,-4765.48,0,0
24317.875,102.891,-4714.09,0,0
24578.2,100.993,-4663.17,0,0
24838.525,100.04,-4613.78,0,0
25098.85,99.637,-4565.61,0,0
25359.175,97.7715,-4518.14,0,0
25619.5,96.9868,-4472.1,0,0
25879.8,96.2766,-4425.48,0,0
26140.1,96.4876,-4381.7,0,0
26400.5,95.524,-4337.96,0,0
26660.8,95.5883,-4296.98,0,0
26921.1,94.9711,-4254.64,0,0
27181.4,94.1208,-4215.32,0,0
27441.8,91.9994,-4174.49,0,0
27702.1,90.4969,-4134.74,0,0
27962.4,90.0324,-4094.97,0,0
28222.7,90.4,-4056.73,0,0
28483.1,89.951,-4018.64,0,0
28743.4,89.5648,-3980.55,0,0
29003.7,90.3107,-3944.73,0,0
29264,91.1,-3907.93,0,0
29524.4,94.2494,-3873.7,0,0
29784.7,95.896,-3845.97,0,0
30045,91.9078,-3813.04,0,0
30305.3,94.2884,-3781.08,0,0
30565.7,89.9175,-3751.47,0,0
30826,87.8388,-3719.42,0,0
31086.3,86.5164,-3687.75,0,0
31346.6,84.7745,-3656.28,0,0
31607,84.949,-3626.89,0,0
31867.3,82.8054,-3596.67,0,0
32127.6,82.0736,-3566.12,0,0
32387.9,82.9089,-3535.85,0,0
32648.3,83.6921,-3509.18,0,0
32908.6,82.6644,-3482.69,0,0
33168.9,81.5355,-3455.72,0,0
33429.2,80.1031,-3428.01,0,0
33689.6,79.8676,-3401.79,0,0
33949.9,78.8517,-3376.16,0,0
34210.2,77.1295,-3349.86,0,0
34470.5,76.3714,-3323.92,0,0
34730.9,75.9937,-3298.35,0,0
34991.2,75.4811,-3273.42,0,0
35251.5,74.9151,-3249.05,0,0
35511.8,74.2542,-3224.87,0,0
35772.2,73.888,-3201.12,0,0
36032.5,73.2932,-3177.79,0,0
36292.8,72.6215,-3154.23,0,0
36553.1,72.1402,-3131.45,0,0
36813.5,71.8366,-3109.04,0,0
37073.8,71.4414,-3086.72,0,0
37334.1,71.315,-3064.76,0,0
37594.4,70.612,-3043.42,0,0
37854.8,70.6419,-3022,0,0
38115.1,69.9523,-3001.37,0,0
38375.4,69.3292,-2980.61,0,0
38635.7,68.9957,-2960.09,0,0
38896.1,68.8031,-2940.01,0,0
39156.4,68.0745,-2919.89,0,0
39416.7,67.8312,-2900.25,0,0
39677,67.4356,-2880.96,0,0
39937.4,67.1351,-2861.68,0,0
40197.7,66.9338,-2842.84,0,0
40458,66.2909,-2823.84,0,0
40718.3,66.5591,-2805.24,0,0
40978.7,66.0905,-2787.41,0,0
41239,65.5908,-2769.23,0,0
41499.3,65.7376,-2751.56,0,0
41759.6,65.3699,-2734.08,0,0
42020,65.2345,-2716.78,0,0
42280.275,64.9053,-2700.01,0,0
42540.6,64.5371,-2682.98,0,0
42800.925,64.3006,-2666.52,0,0
43061.25,63.8999,-2649.83,0,0
43321.575,63.9671,-2633.5,0,0
43581.9,63.5363,-2617.41,0,0
43842.225,63.195,-2601.28,0,0
44102.55,63.3294,-2585.57,0,0
44362.875,62.8585,-2570.3,0,0
44623.2,62.3318,-2554.89,0,0
44883.525,62.2367,-2539.28,0,0
45143.85,62.2231,-2524.16,0,0
45404.175,62.0393,-2509.69,0,0
45664.5,61.6613,-2494.55,0,0
45924.825,62.0696,-2479.98,0,0
46185.15,61.8556,-2466.14,0,0
46445.475,61.0574,-2452.03,0,0
46705.8,60.9556,-2437.71,0,0
46966.125,60.9594,-2423.42,0,0
47226.45,61.1112,-2409.61,0,0
47486.775,60.893,-2396.47,0,0
47747.1,60.6729,-2382.62,0,0
48007.425,60.764,-2368.97,0,0
48267.75,61.5297,-2356.03,0,0
48528.075,61.9636,-2343.91,0,0
48788.4,61.1896,-2332.16,0,0
49048.725,60.4,-2319.54,0,0
49309.05,59.679,-2306.9,0,0
49569.375,59.336,-2294.48,0,0
49829.7,59.1069,-2281.75,0,0
50090.025,58.5176,-2269.75,0,0
50350.35,58.0249,-2257.35,0,0
50610.675,57.9511,-2245.12,0,0
50871.0,57.9078,-2233.24,0,0
51131.325,57.7341,-2221.7,0,0
51391.65,57.4463,-2210.15,0,0
51651.975,56.7482,-2198.7,0,0
51912.3,56.446,-2186.98,0,0
52172.625,56.0831,-2175.45,0,0
52432.95,55.7327,-2164.05,0,0
52693.275,55.4338,-2152.75,0,0
52953.6,55.343,-2141.69,0,0
53213.925,55.0411,-2130.49,0,0
53474.25,54.9449,-2119.42,0,0
53734.575,54.6991,-2108.68,0,0
53994.9,54.6164,-2097.81,0,0
54255.225,54.531,-2087.1,0,0
54515.55,54.5072,-2076.69,0,0
54775.875,54.4192,-2066.18,0,0
55036.2,54.3264,-2055.91,0,0
55296.525,54.1777,-2045.52,0,0
55556.85,54.1748,-2035.39,0,0
55817.175,54.1802,-2025.26,0,0
56077.5,54.0796,-2015.28,0,0
56337.825,53.9253,-2005.5,0,0
56598.15,53.9084,-1995.54,0,0
56858.475,54.0402,-1985.81,0,0
57118.8,54.1649,-1976.23,0,0
57379.125,54.0983,-1966.76,0,0
57639.45,54.1993,-1957.25,0,0
57899.775,54.364,-1947.8,0,0
58160.1,54.2412,-1938.72,0,0
58420.4,54.2235,-1929.48,0,0
58680.7,54.2442,-1920.13,0,0
58941.1,54.3781,-1910.95,0,0
59201.4,54.5448,-1901.96,0,0
59461.7,54.8355,-1892.96,0,0
59722,55.261,-1884.03,0,0
59982.4,55.9258,-1875.36,0,0
60242.7,56.4734,-1867.37,0,0
60503,56.2176,-1859.15,0,0
60763.3,56.2503,-1850.49,0,0
61023.7,56.8061,-1842,0,0
61284,57.6202,-1833.76,0,0
61544.3,58.7063,-1826.1,0,0
61804.6,59.3529,-1819.38,0,0
62065,59.0118,-1812.84,0,0
62325.3,58.07,-1805.48,0,0
62585.6,57.9659,-1797.8,0,0
62845.9,57.6781,-1790.87,0,0
63106.3,56.3997,-1783.56,0,0
63366.6,56.0192,-1775.78,0,0
63626.9,55.3381,-1768.14,0,0
63887.2,55.0927,-1760.6,0,0
64147.6,54.3686,-1753.5,0,0
64407.9,53.5987,-1745.88,0,0
64668.2,52.9281,-1738.47,0,0
64928.5,51.9906,-1730.88,0,0
65188.9,51.1363,-1722.66,0,0
65449.2,50.7992,-1714.6,0,0
65709.5,50.8918,-1706.58,0,0
65969.8,51.0653,-1698.96,0,0
66230.2,51.0306,-1691.46,0,0
66490.5,51.1809,-1683.98,0,0
66750.8,51.1495,-1676.69,0,0
67011.1,51.3245,-1669.02,0,0
67271.5,51.6921,-1661.66,0,0
67531.8,52.2338,-1654.48,0,0
67792.1,52.9421,-1647.72,0,0
68052.4,53.3754,-1641.38,0,0
68312.8,53.3781,-1634.6,0,0
68573.1,53.7579,-1627.94,0,0
68833.4,54.497,-1621.52,0,0
69093.7,54.6903,-1615.39,0,0
69354.1,55.1401,-1609.04,0,0
69614.4,55.9625,-1603.29,0,0
69874.7,56.2398,-1598.1,0,0
70135,55.8291,-1592.95,0,0
70395.4,55.0375,-1587.7,0,0
70655.7,53.9423,-1581.91,0,0
70916,53.391,-1575.56,0,0
71176.3,52.9673,-1569.75,0,0
71436.7,52.1572,-1564.13,0,0
71697,51.2872,-1558.38,0,0
71957.3,49.9917,-1552.36,0,0
72217.6,48.8117,-1545.93,0,0
72478,47.9871,-1539.31,0,0
72738.3,47.1471,-1532.69,0,0
72998.6,46.8831,-1525.99,0,0
73258.9,46.4703,-1519.89,0,0
73519.3,45.6722,-1513.35,0,0
73779.6,45.2121,-1506.6,0,0
74039.9,45.1586,-1499.85,0,0
74300.225,45.2358,-1493.42,0,0
74560.55,45.279,-1487.06,0,0
74820.875,45.3192,-1480.68,0,0
75081.2,45.5142,-1474.44,0,0
75341.525,45.7584,-1468.26,0,0
75601.85,45.9649,-1462.18,0,0
75862.175,46.2763,-1456.07,0,0
76122.5,46.7743,-1450.04,0,0
76382.825,47.1926,-1444.31,0,0
76643.15,47.6274,-1438.52,0,0
76903.475,48.015,-1432.84,0,0
77163.8,48.6232,-1427.07,0,0
77424.125,49.2898,-1421.53,0,0
77684.45,49.9342,-1416.19,0,0
77944.775,50.6617,-1410.93,0,0
78205.1,51.4892,-1405.9,0,0
78465.425,52.1669,-1401.2,0,0
78725.75,52.6923,-1396.54,0,0
78986.075,53.0545,-1392.09,0,0
79246.4,53.28,-1387.59,0,0
79506.725,53.6222,-1383.32,0,0
79767.05,53.4299,-1379.47,0,0
80027.375,52.625,-1375.21,0,0
80287.7,51.9253,-1370.5,0,0
80548.025,51.2055,-1365.7,0,0
80808.35,50.6521,-1360.64,0,0
81068.675,50.212,-1355.74,0,0
81329.0,49.7693,-1350.69,0,0
81589.325,49.4193,-1345.64,0,0
81849.65,49.0344,-1340.56,0,0
82109.975,48.6895,-1335.47,0,0
82370.3,48.3709,-1330.22,0,0
82630.625,48.3296,-1325.03,0,0
82890.95,48.2702,-1319.9,0,0
83151.275,48.3398,-1314.75,0,0
83411.6,48.5279,-1309.84,0,0
83671.925,48.6993,-1304.93,0,0
83932.25,48.8825,-1300.08,0,0
84192.575,49.0494,-1295.31,0,0
84452.9,49.1736,-1290.68,0,0
84713.225,49.2125,-1286,0,0
84973.55,49.2319,-1281.28,0,0
85233.875,49.442,-1276.44,0,0
85494.2,49.7938,-1271.69,0,0
85754.525,50.1981,-1267.28,0,0
86014.85,50.4927,-1262.98,0,0
86275.175,50.6325,-1258.71,0,0
86535.5,50.5847,-1254.36,0,0
86795.825,50.7973,-1249.83,0,0
87056.15,51.1016,-1245.53,0,0
87316.475,51.3772,-1241.44,0,0
87576.8,51.3292,-1237.33,0,0
87837.125,51.2749,-1233.03,0,0
88097.45,51.3413,-1228.6,0,0
88357.775,51.7331,-1224.66,0,0
88618.1,51.481,-1220.76,0,0
88878.425,51.098,-1216.3,0,0
89138.75,51.3277,-1211.75,0,0
89399.075,51.5241,-1207.53,0,0
89659.4,51.9093,-1203.21,0,0
89919.725,52.2802,-1199.36,0,0
90180,52.1102,-1195.72,0,0
90440.4,51.6941,-1191.65,0,0
90700.7,51.4549,-1186.88,0,0
90961,52.0369,-1182.43,0,0
91221.3,52.4423,-1178.55,0,0
91481.7,52.6086,-1174.55,0,0
91742,52.6248,-1170.29,0,0
92002.3,53.1432,-1166.13,0,0
92262.6,53.7782,-1162.15,0,0
92523,54.3453,-1158.42,0,0
92783.3,54.7861,-1154.76,0,0
93043.6,55.105,-1151.18,0,0
93303.9,55.4489,-1147.51,0,0
93564.3,55.9591,-1143.94,0,0
93824.6,56.4959,-1140.87,0,0
94084.9,56.4795,-1137.79,0,0
94345.2,56.1625,-1134.64,0,0
94605.6,55.9123,-1131.06,0,0
94865.9,55.7644,-1127.78,0,0
95126.2,55.0644,-1124.33,0,0
95386.5,54.2956,-1120.01,0,0
95646.9,54.5374,-1115.43,0,0
95907.2,55.2246,-1111.24,0,0
96167.5,56.1633,-1107.66,0,0
96427.8,56.767,-1104.49,0,0
96688.2,57.1005,-1101.16,0,0
96948.5,57.692,-1097.9,0,0
97208.8,58.3479,-1095.13,0,0
97469.1,58.3283,-1092.62,0,0
97729.5,58.2922,-1089.78,0,0
97989.8,58.0285,-1087.01,0,0
98250.1,57.7813,-1083.97,0,0
98510.4,57.7267,-1081.11,0,0
98770.8,57.3699,-1078.54,0,0
99031.1,56.6412,-1075.97,0,0
99291.4,55.6434,-1073.12,0,0
99551.7,54.298,-1069.84,0,0
99812.1,53.3806,-1065.93,0,0
100072,53.0105,-1062.09,0,0
100333,52.9576,-1058.71,0,0
100593,52.4376,-1055.95,0,0
100853,51.3345,-1052.78,0,0
101114,50.2149,-1049.27,0,0
101374,49.0296,-1045.4,0,0
101634,48.2196,-1041.12,0,0
101895,47.7958,-1036.97,0,0
102155,47.3377,-1032.93,0,0
102415,47.0477,-1028.92,0,0
102676,46.5175,-1024.95,0,0
102936,46.1432,-1020.64,0,0
103196,45.9947,-1016.29,0,0
103457,45.9939,-1012.07,0,0
103717,46.0129,-1007.62,0,0
103977,46.547,-1003.22,0,0
104238,47.2,-999.075,0,0
104498,47.8912,-995.127,0,0
104758,48.5988,-991.33,0,0
105019,49.3924,-987.508,0,0
105279,50.238,-983.89,0,0
105539,51.0865,-980.34,0,0
105800,52.115,-976.833,0,0
106060,53.3163,-973.672,0,0
106320.175,54.4014,-970.751,0,0
106580.5,55.3307,-968.043,0,0
106840.825,56.208,-965.495,0,0
107101.15,56.9467,-963.256,0,0
107361.475,57.4165,-961.113,0,0
107621.8,57.5004,-958.965,0,0
107882.125,57.3546,-956.744,0,0
108142.45,57.0706,-954.309,0,0
108402.775,56.8434,-951.799,0,0
108663.1,56.4496,-949.339,0,0
108923.425,55.8049,-946.757,0,0
109183.75,55.0983,-943.908,0,0
109444.075,54.5024,-940.854,0,0
109704.4,53.8427,-937.846,0,0
109964.725,53.167,-934.598,0,0
110225.05,52.5905,-931.101,0,0
110485.375,52.1951,-927.604,0,0
110745.7,51.8981,-924.041,0,0
111006.025,51.7411,-920.505,0,0
111266.35,51.4509,-917.017,0,0
111526.675,51.4628,-913.429,0,0
111787.0,51.7141,-909.745,0,0
112047.325,51.8582,-906.458,0,0
112307.65,51.8317,-903.024,0,0
112567.975,51.9233,-899.499,0,0
112828.3,52.0971,-896.052,0,0
113088.625,52.3054,-892.536,0,0
113348.95,52.708,-889.097,0,0
113609.275,53.0673,-885.665,0,0
113869.6,53.3659,-882.319,0,0
114129.925,53.8284,-878.888,0,0
114390.25,54.2685,-875.524,0,0
114650.575,54.8573,-872.175,0,0
114910.9,55.4389,-868.868,0,0
115171.225,56.1726,-865.668,0,0
115431.55,56.7771,-862.611,0,0
115691.875,57.3531,-859.536,0,0
115952.2,58.0072,-856.425,0,0
116212.525,58.6785,-853.33,0,0
116472.85,59.4333,-850.289,0,0
116733.175,60.234,-847.344,0,0
116993.5,61.0004,-844.538,0,0
117253.825,61.7842,-841.74,0,0
117514.15,62.5645,-839.012,0,0
117774.475,63.3612,-836.378,0,0
118034.8,64.0482,-833.827,0,0
118295.125,64.6693,-831.243,0,0
118555.45,65.364,-828.622,0,0
118815.775,66.177,-826.168,0,0
119076.1,66.8017,-823.916,0,0
119336.425,67.4089,-821.469,0,0
119596.75,68.106,-819.21,0,0
119857.075,68.6605,-817.116,0,0
120117.4,69.118,-815.06,0,0
120377.725,69.4491,-813.052,0,0
120638.05,69.5347,-811.142,0,0
120898.375,69.4159,-808.987,0,0
121158.7,69.372,-806.701,0,0
121419.025,69.3519,-804.47,0,0
121679.35,69.1534,-802.189,0,0
121939.675,68.9318,-799.738,0,0
122200.0,68.6922,-797.239,0,0
122460,68.494,-794.615,0,0
122721,68.3602,-791.93,0,0
122981,68.2989,-789.24,0,0
123241,68.2357,-786.535,0,0
123502,68.1879,-783.899,0,0
123762,68.0572,-781.178,0,0
124022,67.9543,-778.382,0,0
124283,67.8954,-775.536,0,0
124543,67.8448,-772.658,0,0
124803,67.7924,-769.724,0,0
125064,67.8954,-766.771,0,0
125324,67.9955,-763.798,0,0
125584,68.1514,-760.786,0,0
125845,68.3522,-757.771,0,0
126105,68.6044,-754.794,0,0
126365,68.9132,-751.809,0,0
126626,69.2188,-748.81,0,0
126886,69.573,-745.761,0,0
127146,70.0399,-742.753,0,0
127406,70.6292,-739.746,0,0
127667,71.3451,-736.849,0,0
127927,71.9502,-734.142,0,0
128187,72.5093,-731.484,0,0
128448,73.1556,-728.716,0,0
128708,73.8091,-726.068,0,0
128968,74.4087,-723.561,0,0
129229,74.9538,-721.083,0,0
129489,75.3623,-718.57,0,0
129749,75.7805,-715.959,0,0
130010,76.1924,-713.304,0,0
130270,76.7785,-710.714,0,0
130530,77.2948,-708.166,0,0
130791,77.8423,-705.694,0,0
131051,78.3104,-703.338,0,0
131311,78.6723,-700.958,0,0
131572,78.9821,-698.538,0,0
131832,79.2782,-696.098,0,0
132092,79.4404,-693.669,0,0
132353,79.5244,-691.098,0,0
132613,79.6431,-688.377,0,0
132873,79.8506,-685.657,0,0
133134,80.1303,-682.885,0,0
133394,80.4258,-680.156,0,0
133654,80.6975,-677.403,0,0
133915,81.006,-674.646,0,0
134175,81.283,-671.917,0,0
134435,81.4885,-669.096,0,0
134696,81.7656,-666.209,0,0
134956,82.0379,-663.222,0,0
135216,82.4143,-660.212,0,0
135477,82.8405,-657.156,0,0
135737,83.3906,-654.192,0,0
135997,83.8757,-651.204,0,0
136258,84.4409,-648.266,0,0
136518,84.9742,-645.389,0,0
136778,85.4068,-642.337,0,0
137039,85.9314,-639.205,0,0
137299,86.6543,-636.119,0,0
137559,87.3838,-633.105,0,0
137819,88.1273,-630.166,0,0
138080,88.7776,-627.268,0,0
138340.125,89.3231,-624.287,0,0
138600.45,89.9064,-621.247,0,0
138860.775,90.5131,-618.137,0,0
139121.1,91.0888,-614.969,0,0
139381.425,91.7353,-611.731,0,0
139641.75,92.368,-608.447,0,0
139902.075,93.0103,-605.021,0,0
140162.4,93.7902,-601.496,0,0
140422.725,94.5972,-597.901,0,0
140683.05,95.5315,-594.135,0,0
140943.375,96.6962,-590.262,0,0
141203.7,98.1534,-586.374,0,0
141464.025,99.8422,-582.61,0,0
141724.35,101.628,-579,0,0
141984.675,103.517,-575.475,0,0
142245.0,105.487,-572.03,0,0
142505.325,107.594,-568.73,0,0
142765.65,109.717,-565.625,0,0
143025.975,111.685,-562.622,0,0
143286.3,113.582,-559.537,0,0
143546.625,115.615,-556.406,0,0
143806.95,117.713,-553.334,0,0
144067.275,119.82,-550.264,0,0
144327.6,121.984,-547.221,0,0
144587.925,124.166,-544.078,0,0
144848.25,126.543,-540.896,0,0
145108.575,129.116,-537.856,0,0
145368.9,131.751,-534.906,0,0
145629.225,134.462,-532.128,0,0
145889.55,137.071,-529.462,0,0
146149.875,139.649,-526.713,0,0
146410.2,142.312,-523.899,0,0
146670.525,145.128,-521.067,0,0
146930.85,148.067,-518.281,0,0
147191.175,151.131,-515.509,0,0
147451.5,154.361,-512.785,0,0
147711.825,157.73,-510.178,0,0
147972.15,161.133,-507.599,0,0
148232.475,164.788,-504.965,0,0
148492.8,168.685,-502.43,0,0
148753.125,172.872,-499.95,0,0
149013.45,177.516,-497.651,0,0
149273.775,182.537,-495.818,0,0
149534.1,187.757,-494.503,0,0
149794.425,193.004,-493.775,0,0
150054.75,198.157,-493.345,0,0
150315.075,203.631,-493.279,0,0
150575.4,209.249,-494.155,0,0
150835.725,214.239,-495.922,0,0
151096.05,218.641,-497.855,0,0
151356.375,222.907,-500.13,0,0
151616.7,226.719,-503.096,0,0
151877.025,229.661,-506.374,0,0
152137.35,231.86,-509.626,0,0
152397.675,233.448,-512.682,0,0
152658.0,234.655,-515.488,0,0
152918.325,235.648,-518.191,0,0
153178.65,236.395,-520.982,0,0
153438.975,236.503,-523.828,0,0
153699.3,235.987,-526.364,0,0
153959.625,234.998,-528.41,0,0
154219.95,233.821,-529.894,0,0
154480,232.693,-530.779,0,0
154741,231.512,-531.558,0,0
155001,230.376,-531.899,0,0
155261,229.511,-532.038,0,0
155522,228.621,-532.146,0,0
155782,227.78,-532.289,0,0
156042,226.692,-532.112,0,0
156303,225.732,-531.762,0,0
156563,224.951,-531.382,0,0
156823,223.881,-530.982,0,0
157084,222.562,-530.216,0,0
157344,221.344,-529.044,0,0
157604,220.443,-527.364,0,0
157864,220.055,-525.663,0,0
158125,219.839,-524.072,0,0
158385,219.784,-522.54,0,0
158645,219.846,-521.186,0,0
158906,220.052,-519.839,0,0
159166,220.097,-518.611,0,0
159426,220.076,-517.213,0,0
159687,220.23,-515.835,0,0
159947,220.5,-514.327,0,0
160207,220.947,-512.931,0,0
160468,221.402,-511.711,0,0
160728,221.541,-510.18,0,0
160988,222.195,-508.399,0,0
161249,223.559,-506.726,0,0
161509,225.045,-505.497,0,0
161769,227.068,-504.61,0,0
162030,229.422,-504.805,0,0
162290,231.166,-506.211,0,0
162550,231.809,-508.211,0,0
162811,231.361,-510.42,0,0
163071,229.745,-512.187,0,0
163331,227.601,-512.99,0,0
163592,225.367,-513.356,0,0
163852,223.108,-513.4,0,0
164112,220.395,-513.094,0,0
164373,217.64,-512.336,0,0
164633,214.736,-511.085,0,0
164893,211.933,-509.517,0,0
165154,208.981,-507.571,0,0
165414,205.851,-505.091,0,0
165674,203.161,-501.848,0,0
165935,200.947,-498.367,0,0
166195,199.091,-494.902,0,0
166455,197.256,-491.276,0,0
166716,195.664,-487.462,0,0
166976,194.27,-483.307,0,0
167236,193.217,-479.238,0,0
167497,192.304,-475.147,0,0
167757,191.487,-470.766,0,0
168017,190.906,-466.291,0,0
168277,190.72,-461.629,0,0
168538,190.957,-457.086,0,0
168798,191.436,-452.91,0,0
169058,191.619,-448.903,0,0
169319,191.7,-444.767,0,0
169579,191.93,-440.347,0,0
169839,192.449,-435.741,0,0
170100,193.244,-431.251,0,0
170360.075,194.027,-426.994,0,0
170620.4,194.649,-422.584,0,0
170880.725,195.351,-417.782,0,0
171141.05,196.525,-412.863,0,0
171401.375,197.958,-407.992,0,0
171661.7,199.452,-403.229,0,0
171922.025,201.228,-398.472,0,0
172182.35,202.936,-393.742,0,0
172442.675,204.794,-388.756,0,0
172703.0,207.071,-383.786,0,0
172963.325,209.564,-378.982,0,0
173223.65,212.072,-374.247,0,0
173483.975,214.614,-369.389,0,0
173744.3,217.447,-364.352,0,0
174004.625,220.616,-359.323,0,0
174264.95,224.106,-354.357,0,0
174525.275,227.856,-349.413,0,0
174785.6,231.978,-344.527,0,0
175045.925,236.597,-339.786,0,0
175306.25,241.634,-335.39,0,0
175566.575,246.831,-331.649,0,0
175826.9,251.904,-328.182,0,0
176087.225,257.199,-324.807,0,0
176347.55,262.629,-321.864,0,0
176607.875,267.941,-319.259,0,0
176868.2,273.279,-316.66,0,0
177128.525,279,-314.3,0,0
177388.85,285.035,-312.554,0,0
177649.175,291.008,-311.615,0,0
177909.5,296.464,-311.382,0,0
178169.825,301.224,-311.327,0,0
178430.15,305.776,-311.258,0,0
178690.475,310.12,-311.709,0,0
178950.8,313.799,-312.367,0,0
179211.125,316.935,-313.124,0,0
179471.45,319.111,-314.189,0,0
179731.775,321.125,-312.946,0,0
179992.1,322.488,-312.606,0,0
180252.425,323.617,-311.76,0,0
180512.75,324.463,-310.228,0,0
180773.075,325.385,-307.894,0,0
181033.4,326.703,-305.019,0,0
181293.725,328.176,-301.799,0,0
181554.05,329.944,-297.958,0,0
181814.375,332.633,-293.688,0,0
182074.7,336,-289.849,0,0
182335.025,339.269,-286.426,0,0
182595.35,342.282,-282.787,0,0
182855.675,345.429,-278.613,0,0
183116.0,348.963,-274.035,0,0
183376.325,353.092,-269.298,0,0
183636.65,357.771,-264.594,0,0
183896.975,362.785,-259.951,0,0
184157.3,368.264,-255.126,0,0
184417.625,374.422,-250.366,0,0
184677.95,381.395,-246.138,0,0
184938.275,388.476,-242.63,0,0
185198.6,395.364,-239.314,0,0
185458.925,402.637,-235.978,0,0
185719.25,410.143,-233.103,0,0
185979.575,417.819,-230.611,0,0
186239.9,425.577,-228.582,0,0
186500,432.815,-226.894,0,0
186761,439.761,-224.703,0,0
187021,447.292,-221.864,0,0
187281,455.846,-219.155,0,0
187542,465.031,-217.44,0,0
187802,474.082,-216.496,0,0
188062,482.916,-216.098,0,0
188322,491.336,-215.878,0,0
188583,499.73,-215.836,0,0
188843,507.657,-216.063,0,0
189103,515.126,-215.806,0,0
189364,522.813,-214.944,0,0
189624,530.912,-213.942,0,0
189884,539.6,-212.674,0,0
190145,548.913,-211.614,0,0
190405,558.37,-210.968,0,0
190665,567.834,-210.043,0,0
190926,578.104,-208.627,0,0
191186,589.792,-207.586,0,0
191446,602.102,-207.641,0,0
191707,614.426,-208.313,0,0
191967,627.215,-209.138,0,0
192227,640.811,-210.464,0,0
192488,655.205,-212.771,0,0
192748,670.009,-216.162,0,0
193008,685.207,-220.708,0,0
193269,700.587,-226.738,0,0
193529,715.659,-234.26,0,0
193789,730.081,-243.06,0,0
194050,743.748,-252.87,0,0
194310,756.527,-263.438,0,0
194570,768.521,-274.475,0,0
194831,779.872,-285.875,0,0
195091,790.679,-297.895,0,0
195351,800.719,-310.258,0,0
195612,810.037,-322.913,0,0
195872,818.607,-335.686,0,0
196132,826.631,-348.306,0,0
196393,834.487,-360.877,0,0
196653,842.321,-373.566,0,0
196913,850.161,-386.489,0,0
197174,858.159,-400.123,0,0
197434,865.88,-414.716,0,0
197694,872.875,-430.105,0,0
197955,879.193,-446.175,0,0
198215,884.79,-462.929,0,0
198475,889.074,-480.5,0,0
198735,891.979,-498.03,0,0
198996,893.81,-515.398,0,0
199256,894.649,-532.355,0,0
199516,895.181,-548.929,0,0
199777,895.487,-565.489,0,0
200037,895.388,-582.265,0,0
200297,894.641,-599.737,0,0
200558,892.812,-617.418,0,0
200818,889.895,-635.467,0,0
201078,885.481,-653.438,0,0
201339,879.617,-670.744,0,0
201599,872.793,-687.172,0,0
201859,865.265,-702.817,0,0
202120,857.329,-718.006,0,0
202380.025,848.771,-732.564,0,0
202640.35,839.269,-746.777,0,0
202900.675,828.801,-760.144,0,0
203161.0,817.536,-772.253,0,0
203421.325,806.071,-782.858,0,0
203681.65,794.978,-792.244,0,0
203941.975,784.492,-801.182,0,0
204202.3,774.174,-809.926,0,0
204462.625,763.792,-818.624,0,0
204722.95,753.167,-827.303,0,0
204983.275,741.621,-835.775,0,0
205243.6,729.132,-843.339,0,0
205503.925,716.278,-849.228,0,0
205764.25,703.836,-853.934,0,0
206024.575,692.03,-857.913,0,0
206284.9,680.328,-861.496,0,0
206545.225,668.644,-864.219,0,0
206805.55,657.609,-865.776,0,0
207065.875,647.242,-867.055,0,0
207326.2,637.626,-867.931,0,0
207586.525,628.417,-868.564,0,0
207846.85,619.775,-868.904,0,0
208107.175,612.005,-869.069,0,0
208367.5,604.932,-869.45,0,0
208627.825,598.223,-870.302,0,0
208888.15,591.786,-871.457,0,0
209148.475,585.487,-873.075,0,0
209408.8,579.196,-875.462,0,0
209669.125,571.997,-878.345,0,0
209929.45,563.936,-880.728,0,0
210189.775,555.583,-882.551,0,0
210450.1,547.249,-884.012,0,0
210710.425,538.817,-885.156,0,0
210970.75,530.196,-885.99,0,0
211231.075,521.3,-886.416,0,0
211491.4,512.162,-885.997,0,0
211751.725,503.381,-884.703,0,0
212012.05,495.098,-882.764,0,0
212272.375,487.645,-880.514,0,0
212532.7,480.666,-878.375,0,0
212793.025,473.83,-876.288,0,0
213053.35,467.114,-873.954,0,0
213313.675,460.709,-871.35,0,0
213574.0,454.706,-868.581,0,0
213834.325,449.067,-865.806,0,0
214094.65,443.706,-862.987,0,0
214354.975,438.656,-860.157,0,0
214615.3,433.98,-857.47,0,0
214875.625,429.295,-854.982,0,0
215135.95,424.65,-852.405,0,0
215396.275,420.011,-849.7,0,0
215656.6,415.699,-846.745,0,0
215916.925,411.597,-843.725,0,0
216177.25,407.792,-840.795,0,0
216437.575,404.184,-837.868,0,0
216697.9,400.661,-834.868,0,0
216958.225,397.463,-831.933,0,0
217218.55,394.431,-828.931,0,0
217478.875,391.662,-826.073,0,0
217739.2,389.024,-823.271,0,0
217999.525,386.495,-820.54,0,0
218259.85,384.122,-817.776,0,0
218520,381.975,-815.064,0,0
218780,380.004,-812.386,0,0
219041,378.196,-809.781,0,0
219301,376.637,-807.367,0,0
219561,375.138,-805.159,0,0
219822,373.684,-802.945,0,0
220082,372.266,-800.905,0,0
220342,370.899,-798.858,0,0
220603,369.584,-796.816,0,0
220863,368.409,-794.692,0,0
221123,367.489,-792.613,0,0
221384,366.817,-790.613,0,0
221644,366.37,-788.796,0,0
221904,366.228,-787.107,0,0
222165,366.238,-785.825,0,0
222425,366.32,-784.889,0,0
222685,366.355,-784.367,0,0
222946,366.231,-784.179,0,0
223206,365.834,-784.193,0,0
223466,365.14,-784.262,0,0
223727,364.355,-784.196,0,0
223987,363.396,-784.165,0,0
224247,362.543,-784.168,0,0
224508,361.557,-784.233,0,0
224768,360.32,-784.23,0,0
225028,359.123,-784.055,0,0
225289,358.145,-783.678,0,0
225549,357.405,-783.257,0,0
225809,356.778,-783.107,0,0
226070,356.284,-783.077,0,0
226330,355.71,-783.241,0,0
226590,355.273,-783.514,0,0
226851,354.814,-783.978,0,0
227111,354.32,-784.689,0,0
227371,353.794,-785.49,0,0
227632,353.239,-786.454,0,0
227892,352.733,-787.654,0,0
228152,352.085,-789.203,0,0
228413,351.133,-790.919,0,0
228673,350.049,-792.893,0,0
228933,348.45,-794.924,0,0
229193,346.61,-796.981,0,0
229454,344.412,-798.957,0,0
229714,342.084,-800.947,0,0
229974,339.41,-802.733,0,0
230235,336.621,-804.492,0,0
230495,333.557,-806.052,0,0
230755,330.295,-807.484,0,0
231016,326.982,-808.664,0,0
231276,323.647,-809.554,0,0
231536,320.353,-810.429,0,0
231797,317.041,-811.291,0,0
232057,313.557,-812.018,0,0
232317,309.919,-812.603,0,0
232578,306.357,-812.998,0,0
232838,302.764,-813.334,0,0
233098,299.135,-813.53,0,0
233359,295.385,-813.645,0,0
233619,291.666,-813.481,0,0
233879,288.007,-813.23,0,0
234140,284.427,-812.885,0,0
234400,280.821,-812.496,0,0
234660.3,277.157,-811.954,0,0
234920.625,273.595,-811.249,0,0
235180.95,270.128,-810.55,0,0
235441.275,266.674,-809.814,0,0
235701.6,263.201,-809.025,0,0
235961.925,259.772,-808.094,0,0
236222.25,256.333,-807.096,0,0
236482.575,252.984,-806.075,0,0
236742.9,249.551,-804.966,0,0
237003.225,246.12,-803.725,0,0
237263.55,242.731,-802.382,0,0
237523.875,239.405,-800.919,0,0
237784.2,236.15,-799.377,0,0
238044.525,232.975,-797.686,0,0
238304.85,229.869,-795.96,0,0
238565.175,226.912,-794.266,0,0
238825.5,224.001,-792.412,0,0
239085.825,221.055,-790.614,0,0
239346.15,218.262,-788.738,0,0
239606.475,215.583,-786.711,0,0
239866.8,212.965,-784.708,0,0
240127.125,210.399,-782.661,0,0
240387.45,207.991,-780.694,0,0
240647.775,205.588,-778.656,0,0
240908.1,203.267,-776.641,0,0
241168.425,200.98,-774.654,0,0
241428.75,198.736,-772.62,0,0
241689.075,196.496,-770.547,0,0
241949.4,194.325,-768.456,0,0
242209.725,192.331,-766.275,0,0
242470.05,190.427,-764.144,0,0
242730.375,188.648,-762.095,0,0
242990.7,186.909,-760.113,0,0
243251.025,185.193,-758.227,0,0
243511.35,183.447,-756.315,0,0
243771.675,181.765,-754.481,0,0
244032.0,180.086,-752.661,0,0
244292.325,178.478,-750.919,0,0
244552.65,176.808,-749.19,0,0
244812.975,175.18,-747.496,0,0
245073.3,173.531,-745.932,0,0
245333.625,171.831,-744.356,0,0
245593.95,170.133,-742.916,0,0
245854.275,168.33,-741.553,0,0
246114.6,166.313,-740.277,0,0
246374.925,164.054,-738.966,0,0
246635.25,161.583,-737.436,0,0
246895.575,159.038,-735.744,0,0
247155.9,156.466,-733.695,0,0
247416.225,153.938,-731.537,0,0
247676.55,151.497,-729.203,0,0
247936.875,149.108,-726.641,0,0
248197.2,146.888,-724.042,0,0
248457.525,144.787,-721.393,0,0
248717.85,142.733,-718.634,0,0
248978.175,140.799,-715.86,0,0
249238.5,138.906,-713.004,0,0
249498.825,137.111,-710.099,0,0
249759.15,135.391,-707.123,0,0
250019.475,133.744,-704.067,0,0
250279.8,132.152,-700.988,0,0
250540,130.619,-697.771,0,0
250800,129.247,-694.502,0,0
251061,128.082,-691.118,0,0
251321,127.044,-687.799,0,0
251581,126.128,-684.421,0,0
251842,125.374,-681.102,0,0
252102,124.772,-677.792,0,0
252362,124.297,-674.534,0,0
252623,123.868,-671.337,0,0
252883,123.554,-668.234,0,0
253143,123.234,-665.166,0,0
253404,122.975,-662.084,0,0
253664,122.773,-659.022,0,0
253924,122.629,-655.956,0,0
254185,122.635,-652.882,0,0
254445,122.573,-649.812,0,0
254705,122.685,-646.812,0,0
254966,122.838,-643.723,0,0
255226,123.126,-640.662,0,0
255486,123.516,-637.589,0,0
255747,124.059,-634.511,0,0
256007,124.746,-631.515,0,0
256267,125.581,-628.588,0,0
256528,126.545,-625.735,0,0
256788,127.591,-623.036,0,0
257048,128.704,-620.511,0,0
257309,129.843,-618.069,0,0
257569,131.002,-615.705,0,0
257829,132.176,-613.414,0,0
258090,133.374,-611.193,0,0
258350,134.58,-609.024,0,0
258610,135.829,-606.893,0,0
258871,137.124,-604.789,0,0
259131,138.523,-602.71,0,0
259391,140.005,-600.693,0,0
259651,141.564,-598.771,0,0
259912,143.238,-597.002,0,0
260172,144.945,-595.337,0,0
260432,146.664,-593.767,0,0
260693,148.422,-592.3,0,0
260953,150.178,-591.035,0,0
261213,151.944,-589.801,0,0
261474,153.772,-588.686,0,0
261734,155.584,-587.729,0,0
261994,157.382,-586.873,0,0
262255,159.197,-586.14,0,0
262515,160.994,-585.55,0,0
262775,162.752,-585.112,0,0
263036,164.418,-584.768,0,0
263296,166.035,-584.559,0,0
263556,167.545,-584.432,0,0
263817,168.999,-584.368,0,0
264077,170.389,-584.357,0,0
264337,171.714,-584.497,0,0
264598,172.952,-584.656,0,0
264858,174.194,-584.983,0,0
265118,175.193,-585.355,0,0
265379,176.122,-585.789,0,0
265639,176.838,-586.299,0,0
265899,177.386,-586.692,0,0
266160,177.826,-587.087,0,0
266420,178.18,-587.363,0,0
266680.25,178.455,-587.597,0,0
266940.575,178.72,-587.757,0,0
267200.9,178.947,-587.887,0,0
267461.225,179.156,-587.99,0,0
267721.55,179.293,-588.093,0,0
267981.875,179.388,-588.144,0,0
268242.2,179.428,-588.146,0,0
268502.525,179.399,-588.095,0,0
268762.85,179.261,-587.968,0,0
269023.175,179.142,-587.735,0,0
269283.5,179,-587.327,0,0
269543.825,178.889,-586.76,0,0
269804.15,178.843,-586.125,0,0
270064.475,178.894,-585.383,0,0
270324.8,179.017,-584.487,0,0
270585.125,179.376,-583.504,0,0
270845.45,179.835,-582.493,0,0
271105.775,180.504,-581.522,0,0
271366.1,181.319,-580.607,0,0
271626.425,182.235,-579.676,0,0
271886.75,183.255,-578.826,0,0
272147.075,184.415,-577.901,0,0
272407.4,185.863,-577.012,0,0
272667.725,187.523,-576.288,0,0
272928.05,189.386,-575.724,0,0
273188.375,191.397,-575.373,0,0
273448.7,193.554,-575.232,0,0
273709.025,195.803,-575.315,0,0
273969.35,198.226,-575.651,0,0
274229.675,200.776,-576.273,0,0
274490.0,203.474,-577.316,0,0
274750.325,206.142,-578.895,0,0
275010.65,208.712,-580.871,0,0
275270.975,211.038,-583.392,0,0
275531.3,213.023,-586.368,0,0
275791.625,214.61,-589.653,0,0
276051.95,215.685,-593.203,0,0
276312.275,216.298,-596.94,0,0
276572.6,216.31,-600.726,0,0
276832.925,215.797,-604.479,0,0
277093.25,214.814,-608.016,0,0
277353.575,213.47,-611.356,0,0
277613.9,211.838,-614.432,0,0
277874.225,209.94,-617.273,0,0
278134.55,207.863,-619.827,0,0
278394.875,205.587,-622.16,0,0
278655.2,203.215,-624.232,0,0
278915.525,200.785,-626.069,0,0
279175.85,198.28,-627.717,0,0
279436.175,195.756,-629.205,0,0
279696.5,193.126,-630.517,0,0
279956.825,190.422,-631.697,0,0
280217.15,187.686,-632.563,0,0
280477.475,184.994,-633.15,0,0
280737.8,182.484,-633.649,0,0
280998.125,180.049,-634.079,0,0
281258.45,177.645,-634.546,0,0
281518.775,175.204,-635.023,0,0
281779.1,172.634,-635.489,0,0
282039.425,169.908,-635.834,0,0
282299.75,167.073,-636.033,0,0
282560,164.13,-636.014,0,0
282820,161.133,-635.72,0,0
283081,158.143,-635.16,0,0
283341,155.268,-634.282,0,0
283601,152.649,-633.184,0,0
283862,150.342,-631.985,0,0
284122,148.263,-630.859,0,0
284382,146.315,-629.916,0,0
284643,144.319,-629.181,0,0
284903,142.103,-628.531,0,0
285163,139.664,-627.816,0,0
285424,136.962,-626.855,0,0
285684,134.26,-625.642,0,0
285944,131.484,-624.163,0,0
286205,128.702,-622.407,0,0
286465,125.951,-620.318,0,0
286725,123.347,-617.904,0,0
286986,120.959,-615.211,0,0
287246,118.806,-612.249,0,0
287506,116.926,-609.095,0,0
287767,115.325,-605.787,0,0
288027,114.017,-602.292,0,0
288287,113.029,-598.691,0,0
288548,112.38,-594.958,0,0
288808,112.156,-591.13,0,0
289068,112.392,-587.28,0,0
289329,113.123,-583.505,0,0
289589,114.31,-579.947,0,0
289849,115.873,-576.67,0,0
290109,117.76,-573.652,0,0
290370,119.926,-570.933,0,0
290630,122.443,-568.521,0,0
290890,125.265,-566.524,0,0
291151,128.315,-565.056,0,0
291411,131.481,-564.199,0,0
291671,134.621,-563.922,0,0
291932,137.593,-564.198,0,0
292192,140.339,-565.011,0,0
292452,142.751,-566.274,0,0
292713,144.73,-567.962,0,0
292973,146.143,-569.918,0,0
293233,147.054,-572.004,0,0
293494,147.344,-574.093,0,0
293754,147.111,-576.015,0,0
294014,146.414,-577.6,0,0
294275,145.443,-578.736,0,0
294535,144.384,-579.402,0,0
294795,143.41,-579.645,0,0
295056,142.637,-579.525,0,0
295316,142.284,-579.134,0,0
295576,142.324,-578.778,0,0
295837,142.81,-578.554,0,0
296097,143.628,-578.765,0,0
296357,144.614,-579.531,0,0
296618,145.378,-580.891,0,0
296878,145.72,-582.667,0,0
297138,145.535,-584.654,0,0
297399,144.818,-586.657,0,0
297659,143.645,-588.491,0,0
297919,142.117,-590.094,0,0
298180,140.374,-591.381,0,0
298440,138.482,-592.393,0,0
298700.2,136.55,-593.121,0,0
298960.525,134.607,-593.638,0,0
299220.85,132.689,-593.959,0,0
299481.175,130.773,-594.124,0,0
299741.5,128.847,-594.147,0,0
300001.825,126.953,-593.996,0,0
300262.15,125.123,-593.714,0,0
300522.475,123.344,-593.255,0,0
300782.8,121.666,-592.654,0,0
301043.125,120.136,-591.913,0,0
301303.45,118.791,-591.094,0,0
301563.775,117.618,-590.288,0,0
301824.1,116.621,-589.47,0,0
302084.425,115.791,-588.782,0,0
302344.75,115.028,-588.199,0,0
302605.075,114.327,-587.782,0,0
302865.4,113.57,-587.492,0,0
303125.725,112.763,-587.258,0,0
303386.05,111.939,-587.129,0,0
303646.375,111.037,-587.038,0,0
303906.7,110.053,-587.037,0,0
304167.025,108.961,-587.078,0,0
304427.35,107.729,-587.114,0,0
304687.675,106.337,-587.115,0,0
304948.0,104.844,-587.048,0,0
305208.325,103.237,-586.864,0,0
305468.65,101.599,-586.549,0,0
305728.975,99.9185,-586.103,0,0
305989.3,98.248,-585.558,0,0
306249.625,96.5937,-584.927,0,0
306509.95,94.9199,-584.21,0,0
306770.275,93.2667,-583.379,0,0
307030.6,91.6428,-582.435,0,0
307290.925,90.0754,-581.395,0,0
307551.25,88.5921,-580.283,0,0
307811.575,87.1838,-579.12,0,0
308071.9,85.8524,-577.936,0,0
308332.225,84.5843,-576.713,0,0
308592.55,83.3813,-575.468,0,0
308852.875,82.2319,-574.205,0,0
309113.2,81.1571,-572.935,0,0
309373.525,80.1457,-571.686,0,0
309633.85,79.1576,-570.477,0,0
309894.175,78.182,-569.268,0,0
310154.5,77.1863,-568.051,0,0
310414.825,76.203,-566.818,0,0
310675.15,75.2496,-565.532,0,0
310935.475,74.325,-564.214,0,0
311195.8,73.4675,-562.879,0,0
311456.125,72.646,-561.543,0,0
311716.45,71.873,-560.198,0,0
311976.775,71.1327,-558.847,0,0
312237.1,70.4394,-557.496,0,0
312497.425,69.7721,-556.142,0,0
312757.75,69.179,-554.797,0,0
313018.075,68.6066,-553.475,0,0
313278.4,68.0991,-552.189,0,0
313538.725,67.5623,-550.899,0,0
313799.05,67.0685,-549.652,0,0
314059.375,66.5605,-548.4,0,0
314319.7,66.0864,-547.151,0,0
314580,65.6444,-545.891,0,0
314840,65.1404,-544.643,0,0
315101,64.7203,-543.448,0,0
315361,64.3394,-542.176,0,0
315621,63.899,-540.953,0,0
315882,63.5222,-539.806,0,0
316142,63.076,-538.543,0,0
316402,62.772,-537.262,0,0
316663,62.4645,-536.072,0,0
316923,62.209,-534.837,0,0
317183,61.9956,-533.655,0,0
317444,61.6744,-532.446,0,0
317704,61.4776,-531.282,0,0
317964,61.3639,-530.111,0,0
318225,61.2069,-529.027,0,0
318485,60.9576,-527.945,0,0
318745,60.8182,-526.873,0,0
319006,60.6937,-525.823,0,0
319266,60.4563,-524.855,0,0
319526,60.2656,-523.78,0,0
319787,60.091,-522.74,0,0
320047,59.9003,-521.727,0,0
320307,59.673,-520.755,0,0
320567,59.4651,-519.735,0,0
320828,59.2702,-518.784,0,0
321088,59.02,-517.743,0,0
321348,58.7637,-516.688,0,0
321609,58.5763,-515.739,0,0
321869,58.3661,-514.67,0,0
322129,58.1296,-513.576,0,0
322390,57.9204,-512.495,0,0
322650,57.7427,-511.493,0,0
322910,57.4982,-510.418,0,0
323171,57.3159,-509.295,0,0
323431,57.129,-508.185,0,0
323691,56.9086,-506.99,0,0
323952,56.7194,-505.764,0,0
324212,56.6209,-504.437,0,0
324472,56.5806,-503.096,0,0
324733,56.6457,-501.761,0,0
324993,56.7461,-500.406,0,0
325253,56.994,-499.086,0,0
325514,57.2482,-497.752,0,0
325774,57.726,-496.444,0,0
326034,58.282,-495.223,0,0
326295,58.8833,-494.119,0,0
326555,59.5665,-493.178,0,0
326815,60.2308,-492.403,0,0
327076,60.8791,-491.691,0,0
327336,61.5056,-491.001,0,0
327596,61.9586,-490.532,0,0
327857,62.5048,-490.031,0,0
328117,62.8583,-489.635,0,0
328377,63.2469,-489.223,0,0
328638,63.5455,-488.739,0,0
328898,63.794,-488.373,0,0
329158,64.1269,-487.974,0,0
329419,64.4001,-487.566,0,0
329679,64.7075,-487.174,0,0
329939,64.9605,-486.803,0,0
330200,65.189,-486.497,0,0
330460,65.462,-486.277,0,0
330720.15,65.648,-486.077,0,0
330980.475,65.782,-485.901,0,0
331240.8,65.8842,-485.775,0,0
331501.125,65.9491,-485.721,0,0
331761.45,65.9249,-485.648,0,0
332021.775,65.8121,-485.553,0,0
332282.1,65.5733,-485.511,0,0
332542.425,65.3416,-485.427,0,0
332802.75,65.0458,-485.344,0,0
333063.075,64.5973,-485.164,0,0
333323.4,64.1898,-484.877,0,0
333583.725,63.5989,-484.593,0,0
333844.05,63.047,-484.249,0,0
334104.375,62.5328,-483.75,0,0
334364.7,62.0133,-483.247,0,0
334625.025,61.5005,-482.703,0,0
334885.35,61.0255,-482.027,0,0
335145.675,60.6076,-481.48,0,0
335406.0,60.1489,-480.785,0,0
335666.325,59.7748,-480.201,0,0
335926.65,59.3338,-479.461,0,0
336186.975,58.9842,-478.808,0,0
336447.3,58.618,-478.071,0,0
336707.625,58.2597,-477.298,0,0
336967.95,57.8754,-476.536,0,0
337228.275,57.5979,-475.708,0,0
337488.6,57.2592,-474.949,0,0
337748.925,56.9881,-474.094,0,0
338009.25,56.7306,-473.356,0,0
338269.575,56.4437,-472.533,0,0
338529.9,56.1648,-471.667,0,0
338790.225,55.9433,-470.813,0,0
339050.55,55.7463,-469.961,0,0
339310.875,55.6371,-469.108,0,0
339571.2,55.3779,-468.289,0,0
339831.525,55.3118,-467.393,0,0
340091.85,55.1348,-466.539,0,0
340352.175,54.9736,-465.63,0,0
340612.5,54.9678,-464.76,0,0
340872.825,54.9171,-463.85,0,0
341133.15,54.8171,-462.997,0,0
341393.475,54.8296,-462.159,0,0
341653.8,54.7959,-461.297,0,0
341914.125,54.8413,-460.439,0,0
342174.45,54.8039,-459.584,0,0
342434.775,54.8114,-458.797,0,0
342695.1,54.8431,-457.938,0,0
342955.425,54.9133,-457.058,0,0
343215.75,54.9048,-456.191,0,0
343476.075,54.9984,-455.387,0,0
343736.4,55.0549,-454.532,0,0
343996.725,55.2497,-453.728,0,0
344257.05,55.3927,-452.834,0,0
344517.375,55.5215,-452.053,0,0
344777.7,55.7236,-451.224,0,0
345038.025,55.9264,-450.428,0,0
345298.35,56.1231,-449.692,0,0
345558.675,56.3304,-448.915,0,0
345819.0,56.6169,-448.175,0,0
346079.325,56.8217,-447.483,0,0
346339.65,57.0519,-446.792,0,0
346599.975,57.2669,-446.079,0,0
346860,57.5388,-445.472,0,0
347121,57.8373,-444.79,0,0
347381,58.0595,-444.118,0,0
347641,58.3473,-443.519,0,0
347902,58.588,-442.853,0,0
348162,58.922,-442.221,0,0
348422,59.2089,-441.67,0,0
348683,59.475,-441.07,0,0
348943,59.795,-440.468,0,0
349203,60.0623,-439.909,0,0
349464,60.3886,-439.368,0,0
349724,60.7465,-438.805,0,0
349984,61.0712,-438.324,0,0
350245,61.429,-437.814,0,0
350505,61.7687,-437.361,0,0
350765,62.1782,-436.967,0,0
351025,62.4206,-436.568,0,0
351286,62.7832,-436.189,0,0
351546,63.0844,-435.861,0,0
351806,63.3215,-435.562,0,0
352067,63.559,-435.235,0,0
352327,63.8005,-434.927,0,0
352587,63.9602,-434.582,0,0
352848,64.1085,-434.252,0,0
353108,64.302,-433.888,0,0
353368,64.493,-433.524,0,0
353629,64.7091,-433.131,0,0
353889,64.8194,-432.793,0,0
354149,65.1062,-432.497,0,0
354410,65.2746,-432.109,0,0
354670,65.4263,-431.773,0,0
354930,65.6734,-431.389,0,0
355191,65.8854,-431.037,0,0
355451,66.0685,-430.724,0,0
355711,66.2904,-430.396,0,0
355972,66.4838,-430.04,0,0
356232,66.7049,-429.684,0,0
356492,66.9137,-429.356,0,0
356753,67.2037,-429.008,0,0
357013,67.4352,-428.731,0,0
357273,67.6955,-428.413,0,0
357534,68.0203,-428.175,0,0
357794,68.3197,-427.899,0,0
358054,68.6391,-427.734,0,0
358315,68.9084,-427.533,0,0
358575,69.2551,-427.392,0,0
358835,69.5172,-427.294,0,0
359096,69.7604,-427.223,0,0
359356,69.9995,-427.188,0,0
359616,70.2564,-427.162,0,0
359877,70.4257,-427.227,0,0
360137,70.6046,-427.27,0,0
360397,70.7161,-427.283,0,0
360658,70.8446,-427.409,0,0
360918,70.8992,-427.445,0,0
361178,70.9212,-427.534,0,0
361438,70.8933,-427.63,0,0
361699,70.8231,-427.678,0,0
361959,70.7414,-427.732,0,0
362219,70.6518,-427.77,0,0
362480,70.4665,-427.784,0,0
362740.1,70.3441,-427.829,0,0
363000.425,70.1763,-427.799,0,0
363260.75,69.9464,-427.819,0,0
363521.075,69.6944,-427.757,0,0
363781.4,69.5015,-427.681,0,0
364041.725,69.2674,-427.615,0,0
364302.05,68.9948,-427.54,0,0
364562.375,68.6966,-427.437,0,0
364822.7,68.3986,-427.373,0,0
365083.025,68.0633,-427.231,0,0
365343.35,67.7439,-427.039,0,0
365603.675,67.4556,-426.853,0,0
365864.0,67.0809,-426.598,0,0
366124.325,66.7387,-426.344,0,0
366384.65,66.4276,-426.047,0,0
366644.975,66.1388,-425.691,0,0
366905.3,65.8459,-425.29,0,0
367165.625,65.5771,-424.902,0,0
367425.95,65.3791,-424.455,0,0
367686.275,65.238,-424.063,0,0
367946.6,65.1221,-423.621,0,0
368206.925,65.0585,-423.238,0,0
368467.25,65.0552,-422.905,0,0
368727.575,65.076,-422.663,0,0
368987.9,65.0596,-422.361,0,0
369248.225,65.0849,-422.221,0,0
369508.55,65.0356,-422.04,0,0
369768.875,64.9019,-421.949,0,0
370029.2,64.7895,-421.874,0,0
370289.525,64.6146,-421.741,0,0
370549.85,64.3526,-421.629,0,0
370810.175,64.0756,-421.45,0,0
371070.5,63.8285,-421.31,0,0
371330.825,63.548,-421.056,0,0
371591.15,63.2338,-420.853,0,0
371851.475,62.9574,-420.559,0,0
372111.8,62.6925,-420.266,0,0
372372.125,62.3937,-420.008,0,0
372632.45,62.2026,-419.703,0,0
372892.775,62.0155,-419.416,0,0
373153.1,61.7885,-419.137,0,0
373413.425,61.594,-418.849,0,0
373673.75,61.382,-418.608,0,0
373934.075,61.198,-418.411,0,0
374194.4,60.9749,-418.168,0,0
374454.725,60.7479,-417.993,0,0
374715.05,60.474,-417.807,0,0
374975.375,60.1368,-417.595,0,0
375235.7,59.7889,-417.373,0,0
375496.025,59.4566,-417.095,0,0
375756.35,59.0331,-416.8,0,0
376016.675,58.7257,-416.503,0,0
376277.0,58.3469,-416.164,0,0
376537.325,58.0383,-415.799,0,0
376797.65,57.7219,-415.451,0,0
377057.975,57.4254,-415.041,0,0
377318.3,57.2066,-414.748,0,0
377578.625,56.9282,-414.369,0,0
377838.95,56.6815,-414.082,0,0
378099.275,56.4191,-413.869,0,0
378359.6,56.1351,-413.641,0,0
378619.925,55.7201,-413.43,0,0
378880,55.2557,-413.197,0,0
379141,54.6729,-412.975,0,0
379401,54.1173,-412.625,0,0
379661,53.4724,-412.105,0,0
379922,52.8784,-411.591,0,0
380182,52.276,-410.904,0,0
380442,51.7964,-410.101,0,0
380703,51.4812,-409.252,0,0
380963,51.2815,-408.384,0,0
381223,51.2238,-407.611,0,0
381483,51.2158,-406.931,0,0
381744,51.3266,-406.394,0,0
382004,51.3494,-405.94,0,0
382264,51.3424,-405.599,0,0
382525,51.3085,-405.323,0,0
382785,51.0947,-405.003,0,0
383045,50.8927,-404.746,0,0
383306,50.6998,-404.426,0,0
383566,50.3704,-404.121,0,0
383826,50.0646,-403.766,0,0
384087,49.6377,-403.405,0,0
384347,49.2766,-403,0,0
384607,48.8975,-402.555,0,0
384868,48.5118,-402.09,0,0
385128,48.1537,-401.597,0,0
385388,47.7371,-401.075,0,0
385649,47.3695,-400.488,0,0
385909,47.042,-399.883,0,0
386169,46.6927,-399.235,0,0
386430,46.3574,-398.61,0,0
386690,46.0726,-397.939,0,0
386950,45.7697,-397.3,0,0
387211,45.5499,-396.64,0,0
387471,45.3368,-395.961,0,0
387731,45.1302,-395.322,0,0
387992,44.8942,-394.603,0,0
388252,44.6963,-393.933,0,0
388512,44.567,-393.211,0,0
388773,44.4096,-392.509,0,0
389033,44.2754,-391.784,0,0
389293,44.1898,-391.097,0,0
389554,44.1678,-390.404,0,0
389814,44.14,-389.73,0,0
390074,44.1562,-389.046,0,0
390335,44.1953,-388.432,0,0
390595,44.2551,-387.826,0,0
390855,44.303,-387.276,0,0
391116,44.3752,-386.777,0,0
391376,44.4411,-386.332,0,0
391636,44.469,-385.938,0,0
391896,44.4562,-385.528,0,0
392157,44.3765,-385.225,0,0
392417,44.265,-384.853,0,0
392677,44.1454,-384.542,0,0
392938,43.8952,-384.176,0,0
393198,43.6038,-383.744,0,0
393458,43.3529,-383.318,0,0
393719,43.0008,-382.842,0,0
393979,42.6966,-382.307,0,0
394239,42.3582,-381.749,0,0
394500,42.0398,-381.119,0,0
394760.05,41.6949,-380.425,0,0
395020.375,41.3637,-379.716,0,0
395280.7,41.1417,-378.96,0,0
395541.025,40.9389,-378.158,0,0
395801.35,40.7591,-377.368,0,0
396061.675,40.6177,-376.551,0,0
396322.0,40.5326,-375.766,0,0
396582.325,40.429,-374.959,0,0
396842.65,40.4174,-374.174,0,0
397102.975,40.3831,-373.367,0,0
397363.3,40.392,-372.601,0,0
397623.625,40.4106,-371.813,0,0
397883.95,40.4896,-371.031,0,0
398144.275,40.5646,-370.302,0,0
398404.6,40.6494,-369.563,0,0
398664.925,40.7373,-368.856,0,0
398925.25,40.8612,-368.168,0,0
399185.575,40.9959,-367.474,0,0
399445.9,41.1073,-366.805,0,0
399706.225,41.2159,-366.136,0,0
399966.55,41.3692,-365.48,0,0
400006.6,41.3848,-365.416,0,0