File: Accelerated corrosion test data/2025-10-13_18-00-03/sample_7.csv
Frequency (Hz),Impedance (ohms),Phase (Radians),Temperature (C),Humidity (%)
10000.0,275.028,-12059.8,0,0
10260.325,270.599,-11769,0,0
10520.65,259.452,-11471.9,0,0
10780.975,254.585,-11191.4,0,0
11041.3,251.657,-10925.1,0,0
11301.625,248.597,-10669.1,0,0
11561.95,254.088,-10421.6,0,0
11822.275,259.943,-10193.1,0,0
12082.6,274.726,-9959.6,0,0
12342.925,314.171,-9821.83,0,0
12603.25,260.26,-9614.26,0,0
12863.575,260.395,-9442.99,0,0
13123.9,239.546,-9246.96,0,0
13384.225,226.292,-9076.58,0,0
13644.55,224.767,-8903.15,0,0
13904.875,210.284,-8730.09,0,0
14165.2,216.444,-8556.13,0,0
14425.525,205.163,-8414.68,0,0
14685.8,203.692,-8269.88,0,0
14946.175,200.238,-8123.56,0,0
15206.5,195.421,-7994.42,0,0
15466.825,188.406,-7851.52,0,0
15727.15,183.664,-7724.61,0,0
15987.5,181.18,-7594.51,0,0
16247.8,177.807,-7476.25,0,0
16508.125,172.725,-7354.46,0,0
16768.45,173.189,-7235.92,0,0
17028.775,172.044,-7128.21,0,0
17289.1,167.213,-7017.53,0,0
17549.425,166.54,-6909.12,0,0
17809.75,173.015,-6802.75,0,0
18070.075,170.722,-6702.27,0,0
18330.4,186.235,-6599.76,0,0
18590.725,201.717,-6521.26,0,0
18851.05,193.067,-6447.97,0,0
19111.375,184.819,-6349.79,0,0
19371.7,197.03,-6299.97,0,0
19632.025,165.91,-6215.06,0,0
19892.35,161.59,-6113.78,0,0
20152.675,172.916,-6038.25,0,0
20413.0,166.489,-5970.72,0,0
20673.3,171.287,-5888.39,0,0
20933.65,178.593,-5833.01,0,0
21193.975,161.126,-5765.31,0,0
21454.3,156.777,-5688.83,0,0
21714.625,156.398,-5629.36,0,0
21974.9,146.84,-5562.72,0,0
22235.275,143.364,-5494.84,0,0
22495.6,139.068,-5433,0,0
22755.925,134.384,-5368.34,0,0
23016.25,131.336,-5304.75,0,0
23276.6,129.74,-5242.2,0,0
23536.9,130.602,-5183.47,0,0
23797.225,128.047,-5127.62,0,0
24057.55,124.87,-5069.96,0,0
24317.875,124.169,-5012.27,0,0
24578.2,124.469,-4959.04,0,0
24838.525,123.745,-4905.69,0,0
25098.85,120.829,-4853.56,0,0
25359.175,119.882,-4801,0,0
25619.5,120.003,-4749.07,0,0
25879.8,119.702,-4699.11,0,0
26140.1,121.264,-4647.71,0,0
26400.5,123.615,-4603.82,0,0
26660.8,121.435,-4554.16,0,0
26921.1,124.018,-4505,0,0
27181.4,128.555,-4459.73,0,0
27441.8,132.686,-4410.29,0,0
27702.1,143.005,-4365.22,0,0
27962.4,158.927,-4322.47,0,0
28222.7,177.118,-4296.74,0,0
28483.1,184.712,-4278.86,0,0
28743.4,179.737,-4260.03,0,0
29003.7,165.072,-4237.25,0,0
29264,149.264,-4200.46,0,0
29524.4,141.035,-4162.3,0,0
29784.7,131.77,-4123.51,0,0
30045,131.802,-4081.36,0,0
30305.3,132.56,-4047.42,0,0
30565.7,131.427,-4011.66,0,0
30826,133.862,-3978.37,0,0
31086.3,134.079,-3950.07,0,0
31346.6,133.812,-3919.96,0,0
31607,128.073,-3897.15,0,0
31867.3,120.876,-3863.06,0,0
32127.6,118.573,-3832.25,0,0
32387.9,115.091,-3802.21,0,0
32648.3,111.195,-3771.72,0,0
32908.6,108.32,-3741.76,0,0
33168.9,105.064,-3711.81,0,0
33429.2,101.976,-3682.11,0,0
33689.6,99.7497,-3652.09,0,0
33949.9,97.9617,-3623.01,0,0
34210.2,95.8874,-3594.33,0,0
34470.5,94.4633,-3565.55,0,0
34730.9,93.082,-3537.47,0,0
34991.2,92.3092,-3510.26,0,0
35251.5,90.8568,-3482.84,0,0
35511.8,90.1662,-3456.15,0,0
35772.2,89.4075,-3430.19,0,0
36032.5,89.1288,-3404.17,0,0
36292.8,88.6307,-3379.23,0,0
36553.1,87.4752,-3353.94,0,0
36813.5,87.0496,-3329.03,0,0
37073.8,86.8907,-3304.93,0,0
37334.1,86.8114,-3280.74,0,0
37594.4,86.3498,-3257.51,0,0
37854.8,85.628,-3233.78,0,0
38115.1,85.791,-3210.03,0,0
38375.4,86.3009,-3187.04,0,0
38635.7,87.0213,-3164.13,0,0
38896.1,88.9163,-3141.71,0,0
39156.4,90.1586,-3119.33,0,0
39416.7,94.4382,-3098.39,0,0
39677,97.8448,-3081.05,0,0
39937.4,98.8571,-3064.8,0,0
40197.7,98.8797,-3049.24,0,0
40458,96.0524,-3033.07,0,0
40718.3,92.5971,-3015.14,0,0
40978.7,90.0973,-2996.72,0,0
41239,87.2254,-2977.42,0,0
41499.3,85.6215,-2957.57,0,0
41759.6,84.4005,-2939.25,0,0
42020,82.3914,-2920.34,0,0
42280.275,81.0711,-2901.18,0,0
42540.6,80.831,-2881.83,0,0
42800.925,80.6751,-2863.4,0,0
43061.25,81.4042,-2845.23,0,0
43321.575,80.8609,-2829.35,0,0
43581.9,79.3338,-2810.98,0,0
43842.225,79.4253,-2792.5,0,0
44102.55,81.2853,-2775.48,0,0
44362.875,82.3417,-2760.25,0,0
44623.2,82.7896,-2745.73,0,0
44883.525,81.1772,-2730.84,0,0
45143.85,80.8796,-2714.95,0,0
45404.175,79.2605,-2699.13,0,0
45664.5,80.7038,-2682.67,0,0
45924.825,82.1834,-2669.99,0,0
46185.15,79.9478,-2657.77,0,0
46445.475,77.228,-2643.47,0,0
46705.8,74.5427,-2628.32,0,0
46966.125,72.7711,-2612.32,0,0
47226.45,72.0403,-2596.75,0,0
47486.775,71.6599,-2581.84,0,0
47747.1,71.2436,-2567.14,0,0
48007.425,71.0456,-2552.65,0,0
48267.75,70.4909,-2538.96,0,0
48528.075,69.6709,-2524.7,0,0
48788.4,68.9699,-2510.88,0,0
49048.725,68.5068,-2497.04,0,0
49309.05,68.0209,-2483.44,0,0
49569.375,67.627,-2469.69,0,0
49829.7,67.1319,-2456.35,0,0
50090.025,66.8127,-2443.17,0,0
50350.35,66.667,-2429.99,0,0
50610.675,66.3225,-2417.18,0,0
50871.0,65.8717,-2404.52,0,0
51131.325,65.6023,-2391.67,0,0
51391.65,65.1252,-2379.13,0,0
51651.975,64.792,-2366.61,0,0
51912.3,64.6284,-2354.15,0,0
52172.625,64.5108,-2341.96,0,0
52432.95,64.2793,-2330.01,0,0
52693.275,64.1364,-2317.93,0,0
52953.6,64.1783,-2306.18,0,0
53213.925,63.9232,-2294.8,0,0
53474.25,63.7056,-2283.64,0,0
53734.575,63.4502,-2272.23,0,0
53994.9,62.9493,-2260.93,0,0
54255.225,62.6821,-2249.69,0,0
54515.55,62.4331,-2238.52,0,0
54775.875,62.1473,-2227.58,0,0
55036.2,61.9516,-2216.57,0,0
55296.525,61.5783,-2205.79,0,0
55556.85,61.2875,-2194.95,0,0
55817.175,61.0457,-2184.46,0,0
56077.5,61.0203,-2173.7,0,0
56337.825,61.0095,-2163.2,0,0
56598.15,60.7645,-2153.1,0,0
56858.475,60.5789,-2142.75,0,0
57118.8,60.3905,-2132.85,0,0
57379.125,60.1023,-2122.58,0,0
57639.45,59.8498,-2112.53,0,0
57899.775,59.6957,-2102.39,0,0
58160.1,59.8417,-2092.35,0,0
58420.4,60.1129,-2082.97,0,0
58680.7,60.0968,-2073.62,0,0
58941.1,59.84,-2064.14,0,0
59201.4,59.6225,-2054.44,0,0
59461.7,59.9307,-2045.1,0,0
59722,59.935,-2036.18,0,0
59982.4,59.9592,-2027.15,0,0
60242.7,60.11,-2018.56,0,0
60503,59.7543,-2010.03,0,0
60763.3,59.546,-2001.36,0,0
61023.7,58.9264,-1992.63,0,0
61284,58.6191,-1983.89,0,0
61544.3,58.2507,-1975.33,0,0
61804.6,57.7518,-1966.73,0,0
62065,57.4371,-1958.06,0,0
62325.3,57.1147,-1949.36,0,0
62585.6,56.7201,-1940.78,0,0
62845.9,56.4476,-1932.36,0,0
63106.3,56.2201,-1923.87,0,0
63366.6,56.1537,-1915.45,0,0
63626.9,56.1813,-1907.19,0,0
63887.2,55.9415,-1899.1,0,0
64147.6,55.8643,-1891.03,0,0
64407.9,55.549,-1882.95,0,0
64668.2,55.5183,-1874.93,0,0
64928.5,55.3489,-1866.83,0,0
65188.9,55.466,-1858.99,0,0
65449.2,55.6442,-1851.54,0,0
65709.5,55.5097,-1844.04,0,0
65969.8,55.3795,-1836.55,0,0
66230.2,55.2755,-1829.28,0,0
66490.5,54.9577,-1821.92,0,0
66750.8,54.5556,-1814.75,0,0
67011.1,54.0386,-1807.35,0,0
67271.5,53.6168,-1799.83,0,0
67531.8,53.4063,-1792.43,0,0
67792.1,53.054,-1784.94,0,0
68052.4,52.7584,-1777.69,0,0
68312.8,52.6426,-1770.43,0,0
68573.1,52.383,-1763.22,0,0
68833.4,52.2088,-1756.05,0,0
69093.7,52.0775,-1748.86,0,0
69354.1,52.0472,-1741.91,0,0
69614.4,51.8671,-1734.82,0,0
69874.7,51.8509,-1727.86,0,0
70135,51.7455,-1721.15,0,0
70395.4,51.7297,-1714.13,0,0
70655.7,51.7315,-1707.52,0,0
70916,51.7333,-1700.84,0,0
71176.3,51.7025,-1694.34,0,0
71436.7,51.5323,-1687.9,0,0
71697,51.3464,-1681.51,0,0
71957.3,51.1531,-1675.01,0,0
72217.6,50.8772,-1668.59,0,0
72478,50.6485,-1662.18,0,0
72738.3,50.4113,-1655.83,0,0
72998.6,50.2975,-1649.36,0,0
73258.9,50.1346,-1643.07,0,0
73519.3,49.9213,-1636.73,0,0
73779.6,49.758,-1630.54,0,0
74039.9,49.6474,-1624.16,0,0
74300.225,49.609,-1618.04,0,0
74560.55,49.5643,-1611.96,0,0
74820.875,49.415,-1605.76,0,0
75081.2,49.3407,-1599.77,0,0
75341.525,49.2449,-1593.76,0,0
75601.85,49.0935,-1587.81,0,0
75862.175,48.9235,-1581.89,0,0
76122.5,48.8787,-1575.93,0,0
76382.825,48.7712,-1570.02,0,0
76643.15,48.6824,-1564.14,0,0
76903.475,48.655,-1558.4,0,0
77163.8,48.5936,-1552.66,0,0
77424.125,48.5493,-1546.93,0,0
77684.45,48.4847,-1541.26,0,0
77944.775,48.4105,-1535.69,0,0
78205.1,48.3319,-1530.01,0,0
78465.425,48.2759,-1524.41,0,0
78725.75,48.2372,-1518.86,0,0
78986.075,48.1349,-1513.35,0,0
79246.4,48.1194,-1507.84,0,0
79506.725,48.0934,-1502.42,0,0
79767.05,48.0438,-1497.01,0,0
80027.375,48.0717,-1491.71,0,0
80287.7,48.0221,-1486.48,0,0
80548.025,47.9138,-1481.19,0,0
80808.35,47.7843,-1475.94,0,0
81068.675,47.7152,-1470.6,0,0
81329.0,47.6616,-1465.33,0,0
81589.325,47.6445,-1460.14,0,0
81849.65,47.5992,-1455,0,0
82109.975,47.5355,-1449.83,0,0
82370.3,47.5062,-1444.77,0,0
82630.625,47.4622,-1439.63,0,0
82890.95,47.4033,-1434.6,0,0
83151.275,47.3611,-1429.57,0,0
83411.6,47.3198,-1424.43,0,0
83671.925,47.3383,-1419.39,0,0
83932.25,47.3507,-1414.38,0,0
84192.575,47.3739,-1409.51,0,0
84452.9,47.4673,-1404.67,0,0
84713.225,47.4922,-1399.75,0,0
84973.55,47.6152,-1394.92,0,0
85233.875,47.6468,-1390.23,0,0
85494.2,47.6195,-1385.53,0,0
85754.525,47.5617,-1380.82,0,0
86014.85,47.5842,-1376,0,0
86275.175,47.711,-1371.34,0,0
86535.5,47.7186,-1366.81,0,0
86795.825,47.6338,-1362.19,0,0
87056.15,47.7227,-1357.46,0,0
87316.475,47.7823,-1352.96,0,0
87576.8,47.832,-1348.47,0,0
87837.125,47.8265,-1344.09,0,0
88097.45,47.8377,-1339.68,0,0
88357.775,47.7743,-1335.22,0,0
88618.1,47.7122,-1330.74,0,0
88878.425,47.5449,-1326.35,0,0
89138.75,47.376,-1321.85,0,0
89399.075,47.3345,-1317.28,0,0
89659.4,47.2085,-1312.9,0,0
89919.725,47.3195,-1308.3,0,0
90180,47.4157,-1303.88,0,0
90440.4,47.6268,-1299.47,0,0
90700.7,47.5674,-1295.17,0,0
90961,47.4953,-1290.87,0,0
91221.3,47.6103,-1286.55,0,0
91481.7,47.7023,-1282.16,0,0
91742,47.8099,-1277.88,0,0
92002.3,48.0781,-1273.53,0,0
92262.6,48.1765,-1269.41,0,0
92523,48.2237,-1265.33,0,0
92783.3,48.1491,-1261.12,0,0
93043.6,48.2577,-1256.75,0,0
93303.9,48.554,-1252.47,0,0
93564.3,48.8155,-1248.24,0,0
93824.6,49.3386,-1244,0,0
94084.9,49.8707,-1240.21,0,0
94345.2,50.0941,-1236.39,0,0
94605.6,50.4699,-1232.52,0,0
94865.9,50.9792,-1228.83,0,0
95126.2,51.2736,-1225.66,0,0
95386.5,51.018,-1222.35,0,0
95646.9,50.586,-1218.68,0,0
95907.2,50.4822,-1214.8,0,0
96167.5,50.2627,-1211.22,0,0
96427.8,49.883,-1207.26,0,0
96688.2,49.7583,-1203.27,0,0
96948.5,49.7311,-1199.25,0,0
97208.8,49.577,-1195.29,0,0
97469.1,49.6884,-1191.11,0,0
97729.5,49.9581,-1187.19,0,0
97989.8,50.1728,-1183.5,0,0
98250.1,50.3487,-1179.7,0,0
98510.4,50.5038,-1176.08,0,0
98770.8,50.5823,-1172.47,0,0
99031.1,50.5398,-1168.87,0,0
99291.4,50.3827,-1165.15,0,0
99551.7,50.3238,-1161.22,0,0
99812.1,50.4234,-1157.37,0,0
100072,50.5422,-1153.44,0,0
100333,50.8487,-1149.63,0,0
100593,50.9701,-1145.88,0,0
100853,51.2655,-1141.98,0,0
101114,51.7659,-1138.32,0,0
101374,52.0713,-1134.82,0,0
101634,52.3498,-1131.22,0,0
101895,52.6121,-1127.6,0,0
102155,52.9182,-1124.04,0,0
102415,53.273,-1120.41,0,0
102676,53.7555,-1116.81,0,0
102936,54.3479,-1113.25,0,0
103196,55.1173,-1110.04,0,0
103457,55.6043,-1106.99,0,0
103717,56.0348,-1104.12,0,0
103977,55.9215,-1101.07,0,0
104238,56.0916,-1097.68,0,0
104498,56.5092,-1094.37,0,0
104758,56.9567,-1091.49,0,0
105019,57.1267,-1088.59,0,0
105279,57.0807,-1085.77,0,0
105539,56.8234,-1082.74,0,0
105800,56.5819,-1079.36,0,0
106060,56.6323,-1076.04,0,0
106320.175,56.4962,-1072.68,0,0
106580.5,56.6048,-1068.92,0,0
106840.825,57.2059,-1065.6,0,0
107101.15,57.4531,-1062.59,0,0
107361.475,57.6282,-1059.48,0,0
107621.8,57.5693,-1056.29,0,0
107882.125,57.7232,-1052.89,0,0
108142.45,58.0424,-1049.65,0,0
108402.775,58.2155,-1046.49,0,0
108663.1,58.419,-1043.26,0,0
108923.425,58.7826,-1040.1,0,0
109183.75,58.9099,-1037.11,0,0
109444.075,58.8354,-1033.96,0,0
109704.4,58.7532,-1030.46,0,0
109964.725,58.9226,-1026.91,0,0
110225.05,59.3314,-1023.27,0,0
110485.375,59.8442,-1019.59,0,0
110745.7,60.5552,-1016.14,0,0
111006.025,61.4038,-1013.05,0,0
111266.35,61.8384,-1009.76,0,0
111526.675,62.3093,-1006.39,0,0
111787.0,63.2439,-1003.1,0,0
112047.325,64.1902,-999.801,0,0
112307.65,65.1679,-996.738,0,0
112567.975,66.1881,-993.785,0,0
112828.3,67.1067,-990.776,0,0
113088.625,68.2859,-987.866,0,0
113348.95,69.3122,-985.261,0,0
113609.275,70.2773,-982.569,0,0
113869.6,71.1501,-979.865,0,0
114129.925,72.2862,-977.047,0,0
114390.25,73.4724,-974.372,0,0
114650.575,74.5998,-972.025,0,0
114910.9,75.6869,-969.441,0,0
115171.225,76.9037,-966.98,0,0
115431.55,78.3625,-964.451,0,0
115691.875,79.9536,-962.313,0,0
115952.2,81.5506,-960.366,0,0
116212.525,83.2619,-958.706,0,0
116472.85,84.8247,-957.56,0,0
116733.175,85.9306,-956.665,0,0
116993.5,86.7311,-955.604,0,0
117253.825,87.5206,-954.501,0,0
117514.15,88.1845,-953.638,0,0
117774.475,88.4325,-952.631,0,0
118034.8,88.7528,-951.276,0,0
118295.125,89.5594,-950.02,0,0
118555.45,90.2726,-949.331,0,0
118815.775,90.8919,-948.708,0,0
119076.1,91.3037,-948.471,0,0
119336.425,91.4478,-948.403,0,0
119596.75,90.9934,-948.862,0,0
119857.075,89.723,-949.029,0,0
120117.4,88.3048,-948.76,0,0
120377.725,86.5,-948.528,0,0
120638.05,84.144,-947.893,0,0
120898.375,81.6053,-946.491,0,0
121158.7,79.169,-944.442,0,0
121419.025,77.3142,-942.01,0,0
121679.35,75.6733,-939.726,0,0
121939.675,73.9221,-937.411,0,0
122200.0,72.2628,-934.876,0,0
122460,70.7841,-932.275,0,0
122721,69.2874,-929.637,0,0
122981,67.8366,-926.751,0,0
123241,66.6503,-923.841,0,0
123502,65.4362,-920.859,0,0
123762,64.4843,-917.7,0,0
124022,63.9037,-914.688,0,0
124283,63.259,-911.985,0,0
124543,62.4895,-909.267,0,0
124803,61.7619,-906.59,0,0
125064,60.914,-903.883,0,0
125324,59.9968,-900.989,0,0
125584,59.2745,-897.996,0,0
125845,58.6841,-895.109,0,0
126105,58.0458,-892.332,0,0
126365,57.2688,-889.384,0,0
126626,56.7151,-886.413,0,0
126886,56.1051,-883.482,0,0
127146,55.4422,-880.386,0,0
127406,55.037,-877.267,0,0
127667,54.9158,-874.252,0,0
127927,54.6193,-871.379,0,0
128187,54.2083,-868.62,0,0
128448,53.7624,-865.733,0,0
128708,53.3678,-862.755,0,0
128968,53.1352,-859.693,0,0
129229,52.9808,-856.845,0,0
129489,52.6683,-854.021,0,0
129749,52.315,-851.047,0,0
130010,52.1828,-848.066,0,0
130270,52.0988,-845.189,0,0
130530,51.9338,-842.505,0,0
130791,51.546,-839.782,0,0
131051,51.0618,-836.803,0,0
131311,50.7813,-833.571,0,0
131572,50.758,-830.438,0,0
131832,50.7354,-827.469,0,0
132092,50.6861,-824.508,0,0
132353,50.6066,-821.454,0,0
132613,50.5826,-818.353,0,0
132873,50.6823,-815.317,0,0
133134,50.721,-812.25,0,0
133394,50.8007,-809.127,0,0
133654,51.0289,-805.922,0,0
133915,51.3896,-802.726,0,0
134175,51.9017,-799.603,0,0
134435,52.5418,-796.601,0,0
134696,53.1924,-793.778,0,0
134956,53.7094,-790.983,0,0
135216,54.4157,-788.036,0,0
135477,55.4201,-785.23,0,0
135737,56.5332,-782.797,0,0
135997,57.4686,-780.689,0,0
136258,58.2798,-778.603,0,0
136518,59.2295,-776.748,0,0
136778,59.773,-775.382,0,0
137039,59.7872,-773.932,0,0
137299,59.4802,-772.266,0,0
137559,59.1114,-770.332,0,0
137819,58.7768,-768.229,0,0
138080,58.2704,-766.183,0,0
138340.125,57.5593,-763.722,0,0
138600.45,57.1092,-760.965,0,0
138860.775,56.9141,-758.159,0,0
139121.1,56.8027,-755.44,0,0
139381.425,56.7442,-752.746,0,0
139641.75,56.66,-750,0,0
139902.075,56.7809,-747.265,0,0
140162.4,56.8197,-744.658,0,0
140422.725,56.856,-742.024,0,0
140683.05,56.8282,-739.391,0,0
140943.375,56.7994,-736.642,0,0
141203.7,56.8362,-733.925,0,0
141464.025,56.81,-731.08,0,0
141724.35,56.9622,-728.173,0,0
141984.675,57.1756,-725.371,0,0
142245.0,57.3621,-722.525,0,0
142505.325,57.6339,-719.671,0,0
142765.65,57.9614,-716.766,0,0
143025.975,58.4081,-713.911,0,0
143286.3,58.9564,-711.246,0,0
143546.625,59.4357,-708.528,0,0
143806.95,59.9321,-705.969,0,0
144067.275,60.3846,-703.446,0,0
144327.6,60.8339,-700.965,0,0
144587.925,61.1384,-698.533,0,0
144848.25,61.4575,-696.027,0,0
145108.575,61.7622,-693.543,0,0
145368.9,61.951,-691.094,0,0
145629.225,62.0599,-688.527,0,0
145889.55,62.162,-685.837,0,0
146149.875,62.397,-683.075,0,0
146410.2,62.6568,-680.315,0,0
146670.525,62.9441,-677.489,0,0
146930.85,63.3962,-674.68,0,0
147191.175,63.8611,-672.07,0,0
147451.5,64.1527,-669.377,0,0
147711.825,64.6409,-666.574,0,0
147972.15,65.2306,-664.032,0,0
148232.475,65.6045,-661.638,0,0
148492.8,65.803,-659.228,0,0
148753.125,65.8214,-656.695,0,0
149013.45,65.7232,-653.982,0,0
149273.775,65.6862,-651.032,0,0
149534.1,65.767,-648.042,0,0
149794.425,65.8399,-644.966,0,0
150054.75,65.9919,-641.76,0,0
150315.075,66.2246,-638.554,0,0
150575.4,66.4814,-635.271,0,0
150835.725,66.821,-631.884,0,0
151096.05,67.2668,-628.478,0,0
151356.375,67.7875,-625.063,0,0
151616.7,68.3119,-621.589,0,0
151877.025,68.9568,-618.068,0,0
152137.35,69.6897,-614.53,0,0
152397.675,70.4749,-610.969,0,0
152658.0,71.371,-607.363,0,0
152918.325,72.4223,-603.721,0,0
153178.65,73.5539,-600.197,0,0
153438.975,74.6513,-596.719,0,0
153699.3,75.7498,-593.152,0,0
153959.625,76.9678,-589.485,0,0
154219.95,78.3414,-585.852,0,0
154480,79.8258,-582.219,0,0
154741,81.3589,-578.551,0,0
155001,83.0501,-575.035,0,0
155261,84.7572,-571.493,0,0
155522,86.5851,-567.952,0,0
155782,88.5344,-564.312,0,0
156042,90.5153,-561.03,0,0
156303,92.6581,-557.641,0,0
156563,94.8471,-554.17,0,0
156823,97.2151,-550.874,0,0
157084,99.7151,-547.647,0,0
157344,102.442,-544.708,0,0
157604,105.104,-541.951,0,0
157864,107.567,-539.449,0,0
158125,109.998,-536.938,0,0
158385,112.605,-534.666,0,0
158645,114.98,-532.467,0,0
158906,117.166,-530.626,0,0
159166,119.025,-528.873,0,0
159426,120.594,-527.018,0,0
159687,121.678,-525.002,0,0
159947,122.597,-522.6,0,0
160207,123.403,-519.871,0,0
160468,124.249,-516.846,0,0
160728,124.905,-513.524,0,0
160988,125.718,-509.659,0,0
161249,126.645,-505.302,0,0
161509,128.126,-500.454,0,0
161769,130.121,-495.535,0,0
162030,132.486,-490.546,0,0
162290,135.434,-485.662,0,0
162550,138.351,-480.91,0,0
162811,141.38,-475.787,0,0
163071,145.025,-470.486,0,0
163331,149.329,-465.218,0,0
163592,154.184,-460.262,0,0
163852,159.19,-455.734,0,0
164112,164.413,-451.266,0,0
164373,169.98,-447.036,0,0
164633,175.778,-443.233,0,0
164893,181.328,-439.901,0,0
165154,186.546,-436.28,0,0
165414,191.821,-432.07,0,0
165674,197.715,-427.403,0,0
165935,204.498,-422.554,0,0
166195,212.298,-417.764,0,0
166455,220.997,-413.559,0,0
166716,230.148,-409.991,0,0
166976,239.871,-406.685,0,0
167236,250.451,-404.086,0,0
167497,261.555,-402.502,0,0
167757,272.831,-401.658,0,0
168017,284.621,-401.463,0,0
168277,296.804,-402.199,0,0
168538,309.499,-404.131,0,0
168798,322.439,-407.586,0,0
169058,334.993,-412.522,0,0
169319,346.81,-418.885,0,0
169579,357.842,-425.835,0,0
169839,368.627,-433.487,0,0
170100,379.23,-442.259,0,0
170360.075,389.062,-452.87,0,0
170620.4,396.98,-464.524,0,0
170880.725,403.428,-476.125,0,0
171141.05,409.104,-487.88,0,0
171401.375,413.807,-499.935,0,0
171661.7,417.749,-512.155,0,0
171922.025,421.021,-524.843,0,0
172182.35,423.226,-538.367,0,0
172442.675,423.814,-552.435,0,0
172703.0,422.669,-566.572,0,0
172963.325,419.876,-580.721,0,0
173223.65,414.7,-594.878,0,0
173483.975,406.736,-607.252,0,0
173744.3,397.7,-617.214,0,0
174004.625,388.014,-625.199,0,0
174264.95,378.235,-630.995,0,0
174525.275,368.943,-635.566,0,0
174785.6,359.339,-638.664,0,0
175045.925,350.522,-639.74,0,0
175306.25,342.611,-640.348,0,0
175566.575,334.552,-639.216,0,0
175826.9,328.585,-636.243,0,0
176087.225,324.59,-633.372,0,0
176347.55,321.445,-630.402,0,0
176607.875,320.186,-626.959,0,0
176868.2,321.03,-624.374,0,0
177128.525,323.025,-623.794,0,0
177388.85,324.564,-624.516,0,0
177649.175,326.583,-625.283,0,0
177909.5,330.031,-627.514,0,0
178169.825,333.582,-632.685,0,0
178430.15,335.089,-640.18,0,0
178690.475,334.508,-648.279,0,0
178950.8,331.891,-656.895,0,0
179211.125,326.864,-664.807,0,0
179471.45,320.456,-671.359,0,0
179731.775,313.16,-676.292,0,0
179992.1,306.044,-679.595,0,0
180252.425,299.715,-682.193,0,0
180512.75,293.893,-684.869,0,0
180773.075,288.06,-688.136,0,0
181033.4,281.02,-691.956,0,0
181293.725,272.234,-694.6,0,0
181554.05,263.537,-695.317,0,0
181814.375,255.645,-695.665,0,0
182074.7,247.241,-696.07,0,0
182335.025,238.079,-695.399,0,0
182595.35,228.882,-693.066,0,0
182855.675,220.782,-689.325,0,0
183116.0,214.164,-685.402,0,0
183376.325,207.733,-682.013,0,0
183636.65,201.02,-678.141,0,0
183896.975,194.783,-673.282,0,0
184157.3,189.413,-667.952,0,0
184417.625,185.093,-662.433,0,0
184677.95,181.8,-657.524,0,0
184938.275,178.561,-653.556,0,0
185198.6,174.741,-649.884,0,0
185458.925,170.33,-645.794,0,0
185719.25,165.993,-640.793,0,0
185979.575,162.431,-635.214,0,0
186239.9,159.512,-629.743,0,0
186500,156.814,-624.346,0,0
186761,154.356,-618.73,0,0
187021,152.544,-612.856,0,0
187281,151.509,-607.234,0,0
187542,150.86,-602.152,0,0
187802,150.352,-597.523,0,0
188062,149.821,-593.16,0,0
188322,149.419,-589.091,0,0
188583,148.809,-585.537,0,0
188843,147.704,-581.942,0,0
189103,146.503,-578.024,0,0
189364,145.478,-574.041,0,0
189624,144.405,-570.095,0,0
189884,143.327,-565.955,0,0
190145,142.441,-561.813,0,0
190405,141.37,-557.882,0,0
190665,139.913,-553.479,0,0
190926,138.809,-548.316,0,0
191186,138.566,-543.067,0,0
191446,138.769,-538.33,0,0
191707,138.762,-534.03,0,0
191967,138.537,-529.65,0,0
192227,138.236,-524.998,0,0
192488,138.148,-520.145,0,0
192748,138.263,-515.128,0,0
193008,138.728,-510.005,0,0
193269,139.517,-505.065,0,0
193529,140.384,-500.227,0,0
193789,141.374,-495.436,0,0
194050,142.409,-490.668,0,0
194310,143.544,-485.821,0,0
194570,144.965,-480.847,0,0
194831,146.757,-475.99,0,0
195091,148.739,-471.412,0,0
195351,150.728,-466.932,0,0
195612,152.873,-462.554,0,0
195872,155.283,-458.289,0,0
196132,157.762,-454.356,0,0
196393,160.063,-450.616,0,0
196653,162.443,-446.924,0,0
196913,164.826,-443.255,0,0
197174,167.398,-439.931,0,0
197434,169.648,-436.914,0,0
197694,171.406,-433.852,0,0
197955,173.002,-430.403,0,0
198215,174.811,-426.646,0,0
198475,176.785,-422.927,0,0
198735,178.788,-419.28,0,0
198996,180.61,-415.517,0,0
199256,182.301,-411.612,0,0
199516,184.129,-407.178,0,0
199777,186.259,-402.501,0,0
200037,188.802,-397.665,0,0
200297,191.749,-392.834,0,0
200558,194.895,-388.149,0,0
200818,198.25,-383.659,0,0
201078,201.492,-379.042,0,0
201339,204.978,-374.144,0,0
201599,208.828,-369.197,0,0
201859,213.135,-364.187,0,0
202120,217.779,-359.373,0,0
202380.025,222.702,-354.7,0,0
202640.35,227.877,-350.075,0,0
202900.675,233.437,-345.555,0,0
203161.0,239.217,-341.297,0,0
203421.325,245.204,-337.136,0,0
203681.65,251.5,-333.136,0,0
203941.975,258.07,-329.355,0,0
204202.3,264.819,-325.711,0,0
204462.625,271.819,-322.26,0,0
204722.95,278.968,-318.753,0,0
204983.275,286.86,-315.163,0,0
205243.6,295.598,-312.165,0,0
205503.925,304.85,-310.023,0,0
205764.25,314.242,-308.666,0,0
206024.575,323.628,-308.152,0,0
206284.9,332.993,-308.383,0,0
206545.225,342.12,-309.572,0,0
206805.55,350.594,-311.568,0,0
207065.875,358.01,-313.897,0,0
207326.2,364.681,-316.081,0,0
207586.525,370.583,-317.93,0,0
207846.85,376.067,-318.852,0,0
208107.175,381.87,-318.928,0,0
208367.5,388.16,-318.339,0,0
208627.825,395.413,-317.042,0,0
208888.15,404.321,-315.666,0,0
209148.475,414.623,-315.106,0,0
209408.8,425.986,-315.8,0,0
209669.125,437.908,-317.657,0,0
209929.45,450.363,-321.043,0,0
210189.775,462.975,-326.245,0,0
210450.1,475.338,-333.272,0,0
210710.425,486.614,-342.15,0,0
210970.75,496.225,-352.166,0,0
211231.075,504.371,-362.563,0,0
211491.4,511.428,-373.085,0,0
211751.725,517.676,-383.842,0,0
212012.05,522.823,-394.846,0,0
212272.375,527.101,-405.624,0,0
212532.7,530.871,-416.554,0,0
212793.025,533.611,-427.903,0,0
213053.35,534.889,-438.863,0,0
213313.675,535.42,-448.934,0,0
213574.0,535.822,-458.492,0,0
213834.325,535.943,-467.894,0,0
214094.65,535.573,-477.291,0,0
214354.975,534.36,-486.172,0,0
214615.3,533.046,-494.317,0,0
214875.625,531.632,-502.315,0,0
215135.95,529.84,-509.844,0,0
215396.275,528.077,-516.705,0,0
215656.6,526.719,-523.571,0,0
215916.925,525.659,-530.418,0,0
216177.25,524.684,-537.631,0,0
216437.575,523.746,-545.434,0,0
216697.9,522.036,-554.258,0,0
216958.225,518.736,-563.309,0,0
217218.55,514.145,-571.576,0,0
217478.875,509.005,-578.765,0,0
217739.2,503.861,-585.278,0,0
217999.525,498.672,-591.454,0,0
218259.85,493.282,-597.642,0,0
218520,487.103,-603.685,0,0
218780,480.131,-609.255,0,0
219041,472.211,-613.887,0,0
219301,463.878,-617.054,0,0
219561,455.795,-618.886,0,0
219822,448.013,-619.636,0,0
220082,440.882,-619.443,0,0
220342,434.465,-618.631,0,0
220603,428.514,-617.511,0,0
220863,423.027,-615.784,0,0
221123,418.179,-613.471,0,0
221384,414.123,-610.873,0,0
221644,410.903,-608.036,0,0
221904,408.452,-605.239,0,0
222165,406.742,-602.612,0,0
222425,405.701,-600.322,0,0
222685,405.019,-598.598,0,0
222946,404.323,-597.133,0,0
223206,403.787,-595.861,0,0
223466,403.475,-594.747,0,0
223727,403.343,-593.84,0,0
223987,403.14,-593.311,0,0
224247,402.746,-592.857,0,0
224508,402.152,-592.217,0,0
224768,401.483,-591.159,0,0
225028,401.291,-589.661,0,0
225289,401.82,-587.775,0,0
225549,403.196,-586.048,0,0
225809,405.262,-584.791,0,0
226070,407.907,-584.133,0,0
226330,410.846,-584.297,0,0
226590,413.666,-585.19,0,0
226851,416.256,-586.567,0,0
227111,418.659,-588.285,0,0
227371,420.875,-590.059,0,0
227632,423.382,-591.937,0,0
227892,426.129,-594.423,0,0
228152,428.66,-597.486,0,0
228413,431.049,-600.976,0,0
228673,433.237,-604.858,0,0
228933,435.155,-609.373,0,0
229193,436.463,-614.138,0,0
229454,437.389,-618.953,0,0
229714,438.166,-623.661,0,0
229974,439.186,-628.732,0,0
230235,440.07,-634.671,0,0
230495,439.939,-641.537,0,0
230755,438.57,-648.305,0,0
231016,436.503,-654.544,0,0
231276,434.139,-660.376,0,0
231536,431.633,-665.919,0,0
231797,429.21,-671.587,0,0
232057,426.614,-677.565,0,0
232317,423.495,-683.989,0,0
232578,419.415,-690.703,0,0
232838,414.239,-697.105,0,0
233098,408.542,-702.772,0,0
233359,402.651,-708.293,0,0
233619,395.827,-713.808,0,0
233879,388.088,-718.585,0,0
234140,379.911,-722.586,0,0
234400,371.176,-725.856,0,0
234660.3,361.768,-728.081,0,0
234920.625,352.085,-728.759,0,0
235180.95,342.998,-728.116,0,0
235441.275,334.517,-726.57,0,0
235701.6,326.812,-724.274,0,0
235961.925,319.882,-721.379,0,0
236222.25,313.981,-718.202,0,0
236482.575,308.91,-715.148,0,0
236742.9,304.527,-712.592,0,0
237003.225,300.25,-710.63,0,0
237263.55,295.695,-708.965,0,0
237523.875,290.815,-707.343,0,0
237784.2,285.496,-705.616,0,0
238044.525,279.61,-703.083,0,0
238304.85,273.839,-699.502,0,0
238565.175,268.683,-694.91,0,0
238825.5,264.525,-689.67,0,0
239085.825,261.434,-684.282,0,0
239346.15,259.428,-678.916,0,0
239606.475,258.267,-674.119,0,0
239866.8,257.799,-669.796,0,0
240127.125,257.844,-666.421,0,0
240387.45,258.079,-663.838,0,0
240647.775,257.913,-662.135,0,0
240908.1,257.434,-660.827,0,0
241168.425,256.385,-659.825,0,0
241428.75,254.937,-658.831,0,0
241689.075,253.087,-657.932,0,0
241949.4,250.643,-656.975,0,0
242209.725,247.618,-655.499,0,0
242470.05,244.535,-653.036,0,0
242730.375,241.949,-650.083,0,0
242990.7,239.76,-647.076,0,0
243251.025,237.589,-644.033,0,0
243511.35,235.342,-640.479,0,0
243771.675,233.556,-636.304,0,0
244032.0,232.682,-631.747,0,0
244292.325,232.741,-627.448,0,0
244552.65,233.497,-623.679,0,0
244812.975,234.573,-620.726,0,0
245073.3,235.424,-618.398,0,0
245333.625,236.092,-616.281,0,0
245593.95,236.629,-614.287,0,0
245854.275,237.203,-612.504,0,0
246114.6,237.511,-610.887,0,0
246374.925,237.77,-609.29,0,0
246635.25,237.974,-607.831,0,0
246895.575,237.921,-606.304,0,0
247155.9,237.771,-604.704,0,0
247416.225,237.633,-602.835,0,0
247676.55,237.595,-600.917,0,0
247936.875,237.696,-598.887,0,0
248197.2,237.917,-596.895,0,0
248457.525,238.295,-594.875,0,0
248717.85,238.806,-592.853,0,0
248978.175,239.421,-590.983,0,0
249238.5,240.068,-589.164,0,0
249498.825,240.713,-587.34,0,0
249759.15,241.466,-585.35,0,0
250019.475,242.441,-583.422,0,0
250279.8,243.624,-581.506,0,0
250540,244.924,-579.7,0,0
250800,246.503,-577.961,0,0
251061,248.274,-576.409,0,0
251321,250.154,-575.049,0,0
251581,252.156,-573.858,0,0
251842,254.328,-572.758,0,0
252102,256.761,-571.967,0,0
252362,259.323,-571.522,0,0
252623,261.987,-571.435,0,0
252883,264.71,-571.834,0,0
253143,267.308,-572.688,0,0
253404,269.697,-573.978,0,0
253664,271.861,-575.666,0,0
253924,273.623,-577.703,0,0
254185,274.985,-579.974,0,0
254445,275.863,-582.437,0,0
254705,276.298,-584.877,0,0
254966,276.282,-587.337,0,0
255226,275.886,-589.622,0,0
255486,275.118,-591.712,0,0
255747,274.081,-593.581,0,0
256007,272.899,-595.207,0,0
256267,271.618,-596.624,0,0
256528,270.197,-597.838,0,0
256788,268.606,-598.919,0,0
257048,266.904,-599.726,0,0
257309,265.16,-600.168,0,0
257569,263.519,-600.44,0,0
257829,261.913,-600.55,0,0
258090,260.283,-600.435,0,0
258350,258.926,-600.014,0,0
258610,257.789,-599.587,0,0
258871,256.818,-599.268,0,0
259131,255.864,-599.101,0,0
259391,254.753,-598.966,0,0
259651,253.524,-598.724,0,0
259912,252.162,-598.321,0,0
260172,250.812,-597.693,0,0
260432,249.456,-596.798,0,0
260693,248.289,-595.683,0,0
260953,247.294,-594.427,0,0
261213,246.516,-593.025,0,0
261474,245.88,-591.554,0,0
261734,245.4,-589.896,0,0
261994,245.246,-587.993,0,0
262255,245.588,-586.067,0,0
262515,246.411,-584.166,0,0
262775,247.784,-582.586,0,0
263036,249.517,-581.484,0,0
263296,251.341,-580.928,0,0
263556,253.148,-580.771,0,0
263817,255.022,-581.019,0,0
264077,256.752,-581.773,0,0
264337,258.176,-582.963,0,0
264598,259.193,-584.343,0,0
264858,259.798,-585.948,0,0
265118,259.924,-587.477,0,0
265379,259.74,-588.794,0,0
265639,259.387,-589.786,0,0
265899,259.049,-590.485,0,0
266160,258.89,-591.165,0,0
266420,258.918,-591.672,0,0
266680.25,259.153,-592.426,0,0
266940.575,259.354,-593.482,0,0
267200.9,259.288,-594.722,0,0
267461.225,259.056,-596.008,0,0
267721.55,258.602,-597.301,0,0
267981.875,257.873,-598.554,0,0
268242.2,256.885,-599.641,0,0
268502.525,255.726,-600.309,0,0
268762.85,254.647,-600.664,0,0
269023.175,253.831,-600.752,0,0
269283.5,253.218,-600.711,0,0
269543.825,252.918,-600.601,0,0
269804.15,252.837,-600.487,0,0
270064.475,253.073,-600.364,0,0
270324.8,253.597,-600.432,0,0
270585.125,254.412,-600.63,0,0
270845.45,255.468,-601.061,0,0
271105.775,256.938,-601.791,0,0
271366.1,258.733,-603.021,0,0
271626.425,260.788,-604.918,0,0
271886.75,262.911,-607.688,0,0
272147.075,264.808,-611.505,0,0
272407.4,266.012,-616.273,0,0
272667.725,266.294,-621.656,0,0
272928.05,265.554,-627.395,0,0
273188.375,263.814,-633.307,0,0
273448.7,261.038,-639.194,0,0
273709.025,257.234,-644.759,0,0
273969.35,252.582,-649.75,0,0
274229.675,247.36,-654.163,0,0
274490.0,241.645,-658.147,0,0
274750.325,235.322,-661.683,0,0
275010.65,228.277,-664.562,0,0
275270.975,220.718,-666.386,0,0
275531.3,212.993,-667.166,0,0
275791.625,205.413,-666.958,0,0
276051.95,198.091,-666.017,0,0
276312.275,190.982,-664.415,0,0
276572.6,184.09,-662.174,0,0
276832.925,177.543,-659.228,0,0
277093.25,171.429,-655.693,0,0
277353.575,165.922,-651.629,0,0
277613.9,160.975,-647.244,0,0
277874.225,156.615,-642.573,0,0
278134.55,152.818,-637.691,0,0
278394.875,149.674,-632.734,0,0
278655.2,147.126,-627.849,0,0
278915.525,145.004,-623.09,0,0
279175.85,143.248,-618.464,0,0
279436.175,141.817,-613.905,0,0
279696.5,140.786,-609.413,0,0
279956.825,140.074,-605.149,0,0
280217.15,139.812,-601.127,0,0
280477.475,139.767,-597.391,0,0
280737.8,139.93,-594.013,0,0
280998.125,140.16,-591.025,0,0
281258.45,140.336,-588.401,0,0
281518.775,140.419,-586.038,0,0
281779.1,140.28,-583.868,0,0
282039.425,139.899,-581.787,0,0
282299.75,139.251,-579.617,0,0
282560,138.489,-577.24,0,0
282820,137.728,-574.615,0,0
283081,137.117,-571.813,0,0
283341,136.643,-568.878,0,0
283601,136.345,-565.811,0,0
283862,136.339,-562.707,0,0
284122,136.599,-559.651,0,0
284382,137.063,-556.72,0,0
284643,137.64,-553.897,0,0
284903,138.423,-551.174,0,0
285163,139.324,-548.611,0,0
285424,140.306,-546.185,0,0
285684,141.399,-543.928,0,0
285944,142.57,-541.832,0,0
286205,143.803,-539.962,0,0
286465,145,-538.354,0,0
286725,146.117,-536.94,0,0
286986,147.032,-535.69,0,0
287246,147.764,-534.518,0,0
287506,148.268,-533.293,0,0
287767,148.654,-531.927,0,0
288027,149.017,-530.422,0,0
288287,149.424,-528.791,0,0
288548,149.877,-527.115,0,0
288808,150.396,-525.35,0,0
289068,150.995,-523.557,0,0
289329,151.685,-521.722,0,0
289589,152.451,-519.887,0,0
289849,153.287,-518.032,0,0
290109,154.232,-516.095,0,0
290370,155.36,-514.147,0,0
290630,156.693,-512.249,0,0
290890,158.219,-510.51,0,0
291151,159.823,-508.933,0,0
291411,161.509,-507.583,0,0
291671,163.085,-506.382,0,0
291932,164.583,-505.225,0,0
292192,166.105,-504.054,0,0
292452,167.684,-502.925,0,0
292713,169.302,-501.901,0,0
292973,170.887,-500.941,0,0
293233,172.458,-500.008,0,0
293494,174.084,-499.079,0,0
293754,175.715,-498.233,0,0
294014,177.321,-497.402,0,0
294275,178.935,-496.571,0,0
294535,180.618,-495.686,0,0
294795,182.432,-494.811,0,0
295056,184.37,-494.008,0,0
295316,186.388,-493.325,0,0
295576,188.429,-492.74,0,0
295837,190.51,-492.24,0,0
296097,192.633,-491.794,0,0
296357,194.804,-491.381,0,0
296618,197.103,-491.008,0,0
296878,199.532,-490.749,0,0
297138,202.074,-490.66,0,0
297399,204.71,-490.749,0,0
297659,207.365,-491.052,0,0
297919,209.99,-491.541,0,0
298180,212.609,-492.172,0,0
298440,215.201,-492.949,0,0
298700.2,217.731,-493.843,0,0
298960.525,220.319,-494.931,0,0
299220.85,222.951,-496.015,0,0
299481.175,225.483,-497.29,0,0
299741.5,228.122,-498.641,0,0
300001.825,230.814,-500.253,0,0
300262.15,233.524,-501.988,0,0
300522.475,236.27,-503.907,0,0
300782.8,239.104,-506.189,0,0
301043.125,241.979,-508.633,0,0
301303.45,244.814,-511.431,0,0
301563.775,247.678,-514.724,0,0
301824.1,250.544,-518.393,0,0
302084.425,253.191,-522.675,0,0
302344.75,255.631,-527.602,0,0
302605.075,257.306,-533.174,0,0
302865.4,258.259,-539.099,0,0
303125.725,258.35,-545.246,0,0
303386.05,257.524,-551.302,0,0
303646.375,255.93,-557.061,0,0
303906.7,253.761,-562.355,0,0
304167.025,251.241,-567.227,0,0
304427.35,248.413,-571.72,0,0
304687.675,245.356,-575.874,0,0
304948.0,242.116,-579.715,0,0
305208.325,238.701,-583.286,0,0
305468.65,235.087,-586.566,0,0
305728.975,231.258,-589.586,0,0
305989.3,227.273,-592.253,0,0
306249.625,223.171,-594.566,0,0
306509.95,218.997,-596.502,0,0
306770.275,214.829,-598.104,0,0
307030.6,210.707,-599.438,0,0
307290.925,206.582,-600.513,0,0
307551.25,202.51,-601.35,0,0
307811.575,198.463,-601.948,0,0
308071.9,194.416,-602.334,0,0
308332.225,190.396,-602.49,0,0
308592.55,186.393,-602.318,0,0
308852.875,182.495,-601.831,0,0
309113.2,178.818,-601.09,0,0
309373.525,175.323,-600.113,0,0
309633.85,172.098,-598.993,0,0
309894.175,169.1,-597.768,0,0
310154.5,166.309,-596.494,0,0
310414.825,163.711,-595.207,0,0
310675.15,161.271,-593.923,0,0
310935.475,158.967,-592.641,0,0
311195.8,156.806,-591.391,0,0
311456.125,154.693,-590.169,0,0
311716.45,152.687,-588.977,0,0
311976.775,150.701,-587.826,0,0
312237.1,148.74,-586.659,0,0
312497.425,146.794,-585.495,0,0
312757.75,144.864,-584.3,0,0
313018.075,142.944,-583.061,0,0
313278.4,141.032,-581.76,0,0
313538.725,139.171,-580.392,0,0
313799.05,137.356,-578.932,0,0
314059.375,135.607,-577.37,0,0
314319.7,133.975,-575.722,0,0
314580,132.418,-573.981,0,0
314840,131.077,-572.25,0,0
315101,129.912,-570.517,0,0
315361,128.809,-568.744,0,0
315621,127.883,-567.191,0,0
315882,127.067,-565.606,0,0
316142,126.326,-564.02,0,0
316402,125.556,-562.527,0,0
316663,125.018,-561.143,0,0
316923,124.373,-559.849,0,0
317183,123.848,-558.511,0,0
317444,123.25,-557.378,0,0
317704,122.755,-556.185,0,0
317964,122.201,-555.016,0,0
318225,121.59,-553.907,0,0
318485,120.986,-552.884,0,0
318745,120.503,-551.742,0,0
319006,120.073,-550.64,0,0
319266,119.654,-549.628,0,0
319526,119.214,-548.671,0,0
319787,118.823,-547.694,0,0
320047,118.434,-546.851,0,0
320307,118.082,-545.895,0,0
320567,117.699,-545.076,0,0
320828,117.239,-544.353,0,0
321088,116.884,-543.622,0,0
321348,116.406,-542.889,0,0
321609,116.014,-542.138,0,0
321869,115.55,-541.466,0,0
322129,115.087,-540.78,0,0
322390,114.65,-540.096,0,0
322650,114.084,-539.513,0,0
322910,113.639,-538.838,0,0
323171,113.118,-538.288,0,0
323431,112.475,-537.591,0,0
323691,111.881,-536.968,0,0
323952,111.237,-536.3,0,0
324212,110.576,-535.598,0,0
324472,109.957,-534.836,0,0
324733,109.417,-534.046,0,0
324993,108.87,-533.255,0,0
325253,108.421,-532.388,0,0
325514,108.06,-531.659,0,0
325774,107.706,-530.959,0,0
326034,107.344,-530.326,0,0
326295,107.033,-529.723,0,0
326555,106.615,-529.206,0,0
326815,106.22,-528.741,0,0
327076,105.721,-528.293,0,0
327336,105.206,-527.875,0,0
327596,104.648,-527.439,0,0
327857,104.049,-526.965,0,0
328117,103.435,-526.577,0,0
328377,102.779,-526.097,0,0
328638,102.081,-525.539,0,0
328898,101.408,-525.146,0,0
329158,100.706,-524.549,0,0
329419,99.9777,-524.021,0,0
329679,99.2251,-523.46,0,0
329939,98.574,-522.94,0,0
330200,97.8153,-522.374,0,0
330460,97.1077,-521.784,0,0
330720.15,96.327,-521.137,0,0
330980.475,95.6255,-520.703,0,0
331240.8,94.8703,-520.125,0,0
331501.125,94.0134,-519.534,0,0
331761.45,93.2254,-518.911,0,0
332021.775,92.3326,-518.403,0,0
332282.1,91.4845,-517.828,0,0
332542.425,90.5581,-517.154,0,0
332802.75,89.6554,-516.48,0,0
333063.075,88.5854,-515.82,0,0
333323.4,87.6193,-515.054,0,0
333583.725,86.6052,-514.323,0,0
333844.05,85.5222,-513.321,0,0
334104.375,84.5215,-512.477,0,0
334364.7,83.5984,-511.509,0,0
334625.025,82.6499,-510.484,0,0
334885.35,81.7487,-509.46,0,0
335145.675,80.7951,-508.408,0,0
335406.0,79.9372,-507.332,0,0
335666.325,78.9812,-506.206,0,0
335926.65,78.1264,-505.05,0,0
336186.975,77.2671,-503.835,0,0
336447.3,76.4711,-502.615,0,0
336707.625,75.6952,-501.295,0,0
336967.95,74.9877,-500.01,0,0
337228.275,74.2576,-498.671,0,0
337488.6,73.5937,-497.397,0,0
337748.925,73.0015,-496.011,0,0
338009.25,72.4155,-494.671,0,0
338269.575,71.8748,-493.331,0,0
338529.9,71.3839,-492.032,0,0
338790.225,70.8859,-490.681,0,0
339050.55,70.385,-489.331,0,0
339310.875,69.9617,-487.998,0,0
339571.2,69.5616,-486.665,0,0
339831.525,69.1031,-485.266,0,0
340091.85,68.7572,-483.908,0,0
340352.175,68.4225,-482.524,0,0
340612.5,68.0894,-481.179,0,0
340872.825,67.8611,-479.761,0,0
341133.15,67.6075,-478.355,0,0
341393.475,67.3723,-476.972,0,0
341653.8,67.2466,-475.536,0,0
341914.125,67.0832,-474.1,0,0
342174.45,66.9783,-472.819,0,0
342434.775,66.9173,-471.368,0,0
342695.1,66.9684,-470.007,0,0
342955.425,66.9782,-468.623,0,0
343215.75,67.062,-467.309,0,0
343476.075,67.1662,-465.951,0,0
343736.4,67.3586,-464.686,0,0
343996.725,67.5235,-463.473,0,0
344257.05,67.6969,-462.275,0,0
344517.375,68.0548,-461.092,0,0
344777.7,68.2468,-459.979,0,0
345038.025,68.5238,-458.954,0,0
345298.35,68.8027,-457.975,0,0
345558.675,69.0977,-456.953,0,0
345819.0,69.3589,-456.13,0,0
346079.325,69.6533,-455.235,0,0
346339.65,69.8948,-454.433,0,0
346599.975,70.1037,-453.665,0,0
346860,70.254,-452.922,0,0
347121,70.3987,-452.27,0,0
347381,70.4259,-451.512,0,0
347641,70.4719,-450.808,0,0
347902,70.4392,-450.139,0,0
348162,70.3303,-449.406,0,0
348422,70.2246,-448.629,0,0
348683,70.0963,-447.793,0,0
348943,69.9278,-446.978,0,0
349203,69.8035,-446.041,0,0
349464,69.7013,-445.056,0,0
349724,69.5805,-444.135,0,0
349984,69.4802,-443.17,0,0
350245,69.3494,-442.133,0,0
350505,69.2926,-441.072,0,0
350765,69.2283,-440.012,0,0
351025,69.2217,-438.869,0,0
351286,69.3046,-437.689,0,0
351546,69.3586,-436.491,0,0
351806,69.5826,-435.363,0,0
352067,69.7305,-434.21,0,0
352327,70.0538,-433.038,0,0
352587,70.4155,-431.916,0,0
352848,70.8111,-430.803,0,0
353108,71.2087,-429.779,0,0
353368,71.7029,-428.818,0,0
353629,72.1863,-427.909,0,0
353889,72.652,-427.029,0,0
354149,73.1613,-426.186,0,0
354410,73.6454,-425.367,0,0
354670,74.2252,-424.597,0,0
354930,74.806,-423.89,0,0
355191,75.3274,-423.288,0,0
355451,75.9195,-422.736,0,0
355711,76.4569,-422.344,0,0
355972,76.8704,-421.989,0,0
356232,77.2385,-421.679,0,0
356492,77.5012,-421.411,0,0
356753,77.676,-421.117,0,0
357013,77.7219,-420.828,0,0
357273,77.7323,-420.473,0,0
357534,77.6518,-420.124,0,0
357794,77.5759,-419.668,0,0
358054,77.3863,-419.174,0,0
358315,77.2139,-418.622,0,0
358575,76.9661,-417.96,0,0
358835,76.7272,-417.229,0,0
359096,76.5561,-416.443,0,0
359356,76.3769,-415.615,0,0
359616,76.277,-414.686,0,0
359877,76.2089,-413.731,0,0
360137,76.2343,-412.705,0,0
360397,76.2884,-411.751,0,0
360658,76.3766,-410.743,0,0
360918,76.543,-409.715,0,0
361178,76.7581,-408.741,0,0
361438,76.9669,-407.663,0,0
361699,77.2407,-406.672,0,0
361959,77.6321,-405.716,0,0
362219,77.9869,-404.753,0,0
362480,78.3742,-403.812,0,0
362740.1,78.7787,-402.948,0,0
363000.425,79.1692,-402.03,0,0
363260.75,79.6349,-401.179,0,0
363521.075,80.0852,-400.291,0,0
363781.4,80.5286,-399.458,0,0
364041.725,81.0949,-398.581,0,0
364302.05,81.6148,-397.724,0,0
364562.375,82.2114,-396.885,0,0
364822.7,82.8664,-396.079,0,0
365083.025,83.5891,-395.394,0,0
365343.35,84.3379,-394.697,0,0
365603.675,85.0955,-394.142,0,0
365864.0,85.801,-393.647,0,0
366124.325,86.471,-393.22,0,0
366384.65,87.0902,-392.801,0,0
366644.975,87.7081,-392.446,0,0
366905.3,88.2775,-392.077,0,0
367165.625,88.8327,-391.682,0,0
367425.95,89.3919,-391.322,0,0
367686.275,90.0047,-391.008,0,0
367946.6,90.5534,-390.735,0,0
368206.925,91.1232,-390.465,0,0
368467.25,91.6411,-390.248,0,0
368727.575,92.1559,-390.057,0,0
368987.9,92.6574,-389.897,0,0
369248.225,93.1396,-389.743,0,0
369508.55,93.6005,-389.731,0,0
369768.875,94.0437,-389.721,0,0
370029.2,94.3517,-389.777,0,0
370289.525,94.5276,-389.938,0,0
370549.85,94.6572,-390.086,0,0
370810.175,94.6153,-390.189,0,0
371070.5,94.4825,-390.187,0,0
371330.825,94.2014,-390.14,0,0
371591.15,93.8513,-389.933,0,0
371851.475,93.4836,-389.626,0,0
372111.8,93.1652,-389.131,0,0
372372.125,92.8836,-388.587,0,0
372632.45,92.6204,-387.931,0,0
372892.775,92.4839,-387.196,0,0
373153.1,92.3853,-386.465,0,0
373413.425,92.3961,-385.638,0,0
373673.75,92.4226,-384.829,0,0
373934.075,92.579,-384.095,0,0
374194.4,92.7804,-383.25,0,0
374454.725,93.0075,-382.542,0,0
374715.05,93.2645,-381.843,0,0
374975.375,93.5781,-381.112,0,0
375235.7,93.9019,-380.489,0,0
375496.025,94.1986,-379.877,0,0
375756.35,94.5097,-379.289,0,0
376016.675,94.8402,-378.792,0,0
376277.0,95.1357,-378.214,0,0
376537.325,95.2783,-377.694,0,0
376797.65,95.487,-377.16,0,0
377057.975,95.6175,-376.593,0,0
377318.3,95.7797,-375.877,0,0
377578.625,95.9822,-375.183,0,0
377838.95,96.1982,-374.439,0,0
378099.275,96.4444,-373.662,0,0
378359.6,96.8034,-372.851,0,0
378619.925,97.1899,-372.046,0,0
378880,97.5857,-371.263,0,0
379141,98.1263,-370.524,0,0
379401,98.6361,-369.827,0,0
379661,99.1736,-369.189,0,0
379922,99.7473,-368.528,0,0
380182,100.275,-367.921,0,0
380442,100.823,-367.345,0,0
380703,101.372,-366.764,0,0
380963,101.886,-366.218,0,0
381223,102.447,-365.678,0,0
381483,102.969,-365.113,0,0
381744,103.509,-364.574,0,0
382004,104.068,-363.996,0,0
382264,104.642,-363.383,0,0
382525,105.23,-362.823,0,0
382785,105.851,-362.265,0,0
383045,106.541,-361.759,0,0
383306,107.201,-361.227,0,0
383566,107.884,-360.774,0,0
383826,108.596,-360.32,0,0
384087,109.33,-359.879,0,0
384347,110.027,-359.488,0,0
384607,110.75,-359.147,0,0
384868,111.439,-358.883,0,0
385128,112.083,-358.6,0,0
385388,112.677,-358.315,0,0
385649,113.283,-358.024,0,0
385909,113.861,-357.644,0,0
386169,114.49,-357.311,0,0
386430,115.12,-357.002,0,0
386690,115.755,-356.676,0,0
386950,116.352,-356.39,0,0
387211,116.943,-356.085,0,0
387471,117.491,-355.786,0,0
387731,118.052,-355.435,0,0
387992,118.581,-355.014,0,0
388252,119.195,-354.562,0,0
388512,119.868,-354.054,0,0
388773,120.574,-353.545,0,0
389033,121.388,-353.045,0,0
389293,122.285,-352.551,0,0
389554,123.225,-352.159,0,0
389814,124.227,-351.858,0,0
390074,125.24,-351.624,0,0
390335,126.211,-351.48,0,0
390595,127.179,-351.351,0,0
390855,128.122,-351.296,0,0
391116,129.016,-351.208,0,0
391376,129.891,-351.153,0,0
391636,130.738,-351.086,0,0
391896,131.684,-351.05,0,0
392157,132.593,-350.997,0,0
392417,133.496,-351.034,0,0
392677,134.369,-351.102,0,0
392938,135.184,-351.15,0,0
393198,135.999,-351.208,0,0
393458,136.767,-351.197,0,0
393719,137.565,-351.23,0,0
393979,138.37,-351.138,0,0
394239,139.177,-351.022,0,0
394500,140.049,-350.878,0,0
394760.05,141.018,-350.746,0,0
395020.375,142.06,-350.621,0,0
395280.7,143.183,-350.466,0,0
395541.025,144.41,-350.398,0,0
395801.35,145.687,-350.317,0,0
396061.675,147.079,-350.357,0,0
396322.0,148.549,-350.488,0,0
396582.325,150.086,-350.709,0,0
396842.65,151.701,-351.047,0,0
397102.975,153.324,-351.478,0,0
397363.3,154.998,-352.103,0,0
397623.625,156.678,-352.836,0,0
397883.95,158.379,-353.736,0,0
398144.275,160.062,-354.782,0,0
398404.6,161.745,-356.004,0,0
398664.925,163.338,-357.425,0,0
398925.25,164.888,-359.019,0,0
399185.575,166.367,-360.741,0,0
399445.9,167.679,-362.771,0,0
399706.225,168.815,-364.952,0,0
399966.55,169.762,-367.305,0,0
400006.6,169.825,-367.639,0,0