File: Accelerated corrosion test data/2025-10-06_14-56-48/sample_7.csv
Frequency (Hz),Impedance (ohms),Phase (Radians),Temperature (C),Humidity (%)
10000.0,276.446,-12034.1,0,0
10260.325,273.332,-11743.7,0,0
10520.65,260.898,-11445.9,0,0
10780.975,255.146,-11166.2,0,0
11041.3,252.123,-10900.7,0,0
11301.625,248.596,-10645.7,0,0
11561.95,250.897,-10398.3,0,0
11822.275,261.3,-10168.8,0,0
12082.6,267.974,-9951.63,0,0
12342.925,323.94,-9777.21,0,0
12603.25,259.44,-9604.14,0,0
12863.575,271.368,-9405.93,0,0
13123.9,240.093,-9232.59,0,0
13384.225,232.046,-9055.86,0,0
13644.55,225.817,-8874.65,0,0
13904.875,210.303,-8710.18,0,0
14165.2,207.911,-8541.46,0,0
14425.525,208.049,-8401.84,0,0
14685.8,205.642,-8250,0,0
14946.175,200.208,-8104.93,0,0
15206.5,198.036,-7975.18,0,0
15466.825,186.562,-7833.82,0,0
15727.15,185.061,-7707.43,0,0
15987.5,181.375,-7577.88,0,0
16247.8,180.303,-7459.8,0,0
16508.125,173.214,-7338.73,0,0
16768.45,172.728,-7220.81,0,0
17028.775,171.516,-7110.96,0,0
17289.1,168.117,-7003.22,0,0
17549.425,168.09,-6894.26,0,0
17809.75,171.15,-6785.36,0,0
18070.075,171.057,-6690.49,0,0
18330.4,179.13,-6584.95,0,0
18590.725,201.171,-6501.09,0,0
18851.05,192.157,-6432.26,0,0
19111.375,185.002,-6352.11,0,0
19371.7,203.863,-6274.38,0,0
19632.025,171.411,-6207.14,0,0
19892.35,158.495,-6110,0,0
20152.675,168.256,-6027.53,0,0
20413.0,169.217,-5950.81,0,0
20673.3,170.751,-5874.92,0,0
20933.65,178.783,-5816.17,0,0
21193.975,160.496,-5754.65,0,0
21454.3,152.555,-5681.5,0,0
21714.625,155.155,-5611.7,0,0
21974.9,147.363,-5549.93,0,0
22235.275,141.85,-5481.93,0,0
22495.6,140.98,-5417.76,0,0
22755.925,135.163,-5356.04,0,0
23016.25,131.584,-5293.21,0,0
23276.6,129.163,-5230.66,0,0
23536.9,129.849,-5170.24,0,0
23797.225,129.24,-5115.48,0,0
24057.55,125.66,-5058.94,0,0
24317.875,123.635,-5001.97,0,0
24578.2,124.241,-4947.03,0,0
24838.525,122.739,-4894.44,0,0
25098.85,122.515,-4842.53,0,0
25359.175,121.123,-4790.65,0,0
25619.5,119.574,-4739.28,0,0
25879.8,120.151,-4689.27,0,0
26140.1,120.685,-4637.7,0,0
26400.5,123.737,-4588.83,0,0
26660.8,124.646,-4544.62,0,0
26921.1,124.137,-4495.81,0,0
27181.4,129.922,-4447.4,0,0
27441.8,134.805,-4403.8,0,0
27702.1,145.133,-4356.61,0,0
27962.4,160.657,-4315.74,0,0
28222.7,180.776,-4293.22,0,0
28483.1,176.291,-4275.39,0,0
28743.4,174.426,-4255.34,0,0
29003.7,157.012,-4226.68,0,0
29264,142.577,-4190.58,0,0
29524.4,135.305,-4149.17,0,0
29784.7,131.484,-4111.48,0,0
30045,127.787,-4068.72,0,0
30305.3,130.948,-4032.28,0,0
30565.7,134.332,-3999.47,0,0
30826,134.744,-3969.23,0,0
31086.3,136.125,-3940.29,0,0
31346.6,131.394,-3912.71,0,0
31607,129.833,-3885.54,0,0
31867.3,121.927,-3855.38,0,0
32127.6,117.901,-3824.02,0,0
32387.9,114.345,-3792.83,0,0
32648.3,111.032,-3762.75,0,0
32908.6,107.96,-3732.29,0,0
33168.9,105.188,-3702.72,0,0
33429.2,102.473,-3673.06,0,0
33689.6,100.169,-3643.55,0,0
33949.9,98.2061,-3614.11,0,0
34210.2,96.0971,-3585.76,0,0
34470.5,94.2513,-3557.53,0,0
34730.9,93.1666,-3529.42,0,0
34991.2,91.9628,-3502.07,0,0
35251.5,91.0952,-3475.4,0,0
35511.8,89.9113,-3448.36,0,0
35772.2,89.477,-3421.99,0,0
36032.5,89.0136,-3396.45,0,0
36292.8,88.7404,-3371.49,0,0
36553.1,87.4472,-3346.5,0,0
36813.5,86.8653,-3321.76,0,0
37073.8,86.7887,-3297.14,0,0
37334.1,86.7219,-3273.55,0,0
37594.4,86.5867,-3250.1,0,0
37854.8,85.7912,-3226.82,0,0
38115.1,85.3531,-3202.98,0,0
38375.4,85.9545,-3180.06,0,0
38635.7,86.9488,-3157.14,0,0
38896.1,88.2232,-3134.74,0,0
39156.4,89.9858,-3113.33,0,0
39416.7,92.399,-3092.57,0,0
39677,95.4593,-3073.79,0,0
39937.4,97.5283,-3057.08,0,0
40197.7,97.2814,-3041.13,0,0
40458,95.2089,-3025.16,0,0
40718.3,92.1023,-3007.37,0,0
40978.7,89.5012,-2988.98,0,0
41239,86.9405,-2969.76,0,0
41499.3,85.4254,-2950.52,0,0
41759.6,84.1426,-2931.57,0,0
42020,82.4493,-2912.89,0,0
42280.275,81.0366,-2893.63,0,0
42540.6,80.4629,-2874.53,0,0
42800.925,81.2577,-2856.06,0,0
43061.25,80.8314,-2838.42,0,0
43321.575,81.4397,-2821.37,0,0
43581.9,80.2668,-2804.4,0,0
43842.225,80.0273,-2786.49,0,0
44102.55,80.8399,-2769.37,0,0
44362.875,82.4285,-2753.72,0,0
44623.2,82.4408,-2738.72,0,0
44883.525,81.6847,-2724.54,0,0
45143.85,80.5456,-2709.22,0,0
45404.175,79.0723,-2693.26,0,0
45664.5,80.0557,-2676.92,0,0
45924.825,80.3242,-2663.41,0,0
46185.15,78.9175,-2649.89,0,0
46445.475,77.8282,-2635.89,0,0
46705.8,75.3927,-2621.9,0,0
46966.125,73.3577,-2606.65,0,0
47226.45,72.0412,-2590.9,0,0
47486.775,71.6747,-2575.76,0,0
47747.1,71.1355,-2560.76,0,0
48007.425,70.8604,-2546.67,0,0
48267.75,70.2264,-2532.67,0,0
48528.075,69.7417,-2518.85,0,0
48788.4,68.8171,-2504.88,0,0
49048.725,68.3851,-2490.92,0,0
49309.05,68.0838,-2477.34,0,0
49569.375,67.6166,-2463.95,0,0
49829.7,67.1531,-2450.48,0,0
50090.025,67.0192,-2437.21,0,0
50350.35,66.4606,-2424.25,0,0
50610.675,66.1819,-2411.24,0,0
50871.0,65.7243,-2398.43,0,0
51131.325,65.5473,-2385.93,0,0
51391.65,65.1623,-2373.5,0,0
51651.975,64.8627,-2360.99,0,0
51912.3,64.4788,-2348.68,0,0
52172.625,64.345,-2336.41,0,0
52432.95,64.1877,-2324.47,0,0
52693.275,64.0643,-2312.49,0,0
52953.6,63.9245,-2300.59,0,0
53213.925,63.7781,-2289.2,0,0
53474.25,63.4938,-2277.87,0,0
53734.575,63.2055,-2266.54,0,0
53994.9,62.8877,-2255.38,0,0
54255.225,62.6422,-2244.11,0,0
54515.55,62.4326,-2233,0,0
54775.875,62.0043,-2221.97,0,0
55036.2,61.7815,-2211,0,0
55296.525,61.5453,-2200.23,0,0
55556.85,61.4657,-2189.5,0,0
55817.175,61.2322,-2178.96,0,0
56077.5,61.0441,-2168.31,0,0
56337.825,61.0959,-2157.89,0,0
56598.15,60.9099,-2147.72,0,0
56858.475,60.6528,-2137.37,0,0
57118.8,60.4484,-2127.45,0,0
57379.125,60.1332,-2117.25,0,0
57639.45,60.025,-2107.22,0,0
57899.775,59.7905,-2097.21,0,0
58160.1,59.9001,-2087.31,0,0
58420.4,60.0084,-2077.44,0,0
58680.7,60.2851,-2068.18,0,0
58941.1,60.2292,-2059.02,0,0
59201.4,59.9348,-2049.67,0,0
59461.7,60.0357,-2040.12,0,0
59722,60.3485,-2031.32,0,0
59982.4,60.1286,-2022.34,0,0
60242.7,60.0395,-2013.72,0,0
60503,59.8153,-2005.03,0,0
60763.3,59.4597,-1996.44,0,0
61023.7,59.1389,-1987.74,0,0
61284,58.6209,-1979.05,0,0
61544.3,58.3694,-1970.44,0,0
61804.6,57.8744,-1961.94,0,0
62065,57.4457,-1953.26,0,0
62325.3,57.1496,-1944.7,0,0
62585.6,56.8739,-1936.13,0,0
62845.9,56.7093,-1927.65,0,0
63106.3,56.4665,-1919.24,0,0
63366.6,56.3082,-1910.82,0,0
63626.9,56.5491,-1902.81,0,0
63887.2,55.9379,-1894.89,0,0
64147.6,55.7282,-1886.61,0,0
64407.9,55.4288,-1878.52,0,0
64668.2,55.3684,-1870.34,0,0
64928.5,55.3373,-1862.41,0,0
65188.9,55.4377,-1854.39,0,0
65449.2,55.6472,-1846.7,0,0
65709.5,55.7188,-1839.5,0,0
65969.8,55.4116,-1832.17,0,0
66230.2,55.0581,-1824.74,0,0
66490.5,54.8576,-1817.46,0,0
66750.8,54.5598,-1810.21,0,0
67011.1,54.1392,-1802.83,0,0
67271.5,53.7127,-1795.46,0,0
67531.8,53.47,-1788.01,0,0
67792.1,53.1093,-1780.74,0,0
68052.4,52.7989,-1773.36,0,0
68312.8,52.6005,-1765.99,0,0
68573.1,52.5435,-1758.78,0,0
68833.4,52.3623,-1751.69,0,0
69093.7,52.2839,-1744.56,0,0
69354.1,52.1917,-1737.51,0,0
69614.4,52.1023,-1730.44,0,0
69874.7,52.0259,-1723.69,0,0
70135,51.9955,-1716.86,0,0
70395.4,51.9532,-1710.12,0,0
70655.7,51.8895,-1703.36,0,0
70916,51.8401,-1696.83,0,0
71176.3,51.7108,-1690.44,0,0
71436.7,51.5776,-1683.94,0,0
71697,51.3537,-1677.37,0,0
71957.3,51.1436,-1671.08,0,0
72217.6,50.8764,-1664.54,0,0
72478,50.5791,-1658.07,0,0
72738.3,50.3974,-1651.66,0,0
72998.6,50.238,-1645.3,0,0
73258.9,50.0726,-1638.95,0,0
73519.3,49.9299,-1632.65,0,0
73779.6,49.861,-1626.4,0,0
74039.9,49.6592,-1620.18,0,0
74300.225,49.6288,-1614.04,0,0
74560.55,49.5102,-1607.94,0,0
74820.875,49.4115,-1601.91,0,0
75081.2,49.3096,-1595.69,0,0
75341.525,49.2189,-1589.71,0,0
75601.85,49.1198,-1583.81,0,0
75862.175,48.9553,-1577.91,0,0
76122.5,48.9263,-1571.97,0,0
76382.825,48.8244,-1566.08,0,0
76643.15,48.7571,-1560.24,0,0
76903.475,48.6945,-1554.44,0,0
77163.8,48.6199,-1548.72,0,0
77424.125,48.5311,-1543,0,0
77684.45,48.4712,-1537.29,0,0
77944.775,48.4526,-1531.73,0,0
78205.1,48.3171,-1526.08,0,0
78465.425,48.3051,-1520.51,0,0
78725.75,48.2422,-1514.95,0,0
78986.075,48.1762,-1509.43,0,0
79246.4,48.2164,-1504,0,0
79506.725,48.1815,-1498.62,0,0
79767.05,48.0927,-1493.29,0,0
80027.375,48.0697,-1487.86,0,0
80287.7,48.0022,-1482.52,0,0
80548.025,47.9896,-1477.24,0,0
80808.35,47.9253,-1472,0,0
81068.675,47.7976,-1466.75,0,0
81329.0,47.7865,-1461.5,0,0
81589.325,47.7491,-1456.3,0,0
81849.65,47.7136,-1451.12,0,0
82109.975,47.6526,-1445.98,0,0
82370.3,47.5966,-1440.79,0,0
82630.625,47.6161,-1435.75,0,0
82890.95,47.6566,-1430.8,0,0
83151.275,47.5323,-1425.76,0,0
83411.6,47.4645,-1420.73,0,0
83671.925,47.5198,-1415.73,0,0
83932.25,47.5215,-1410.71,0,0
84192.575,47.5714,-1405.77,0,0
84452.9,47.7165,-1400.92,0,0
84713.225,47.7659,-1396.13,0,0
84973.55,47.7603,-1391.39,0,0
85233.875,47.6937,-1386.56,0,0
85494.2,47.7446,-1381.83,0,0
85754.525,47.7544,-1377.15,0,0
86014.85,47.7043,-1372.43,0,0
86275.175,47.7757,-1367.72,0,0
86535.5,47.8873,-1363.16,0,0
86795.825,47.7431,-1358.56,0,0
87056.15,47.786,-1353.88,0,0
87316.475,47.838,-1349.25,0,0
87576.8,47.9506,-1344.73,0,0
87837.125,47.9137,-1340.16,0,0
88097.45,48.0257,-1335.71,0,0
88357.775,47.9844,-1331.35,0,0
88618.1,47.9246,-1326.91,0,0
88878.425,47.9386,-1322.49,0,0
89138.75,47.9164,-1318.03,0,0
89399.075,47.9087,-1313.59,0,0
89659.4,47.7523,-1309.07,0,0
89919.725,47.7765,-1304.73,0,0
90180,47.9029,-1300.31,0,0
90440.4,47.9093,-1295.9,0,0
90700.7,48.1574,-1291.59,0,0
90961,48.1857,-1287.37,0,0
91221.3,48.2765,-1282.93,0,0
91481.7,48.4347,-1278.72,0,0
91742,48.5232,-1274.58,0,0
92002.3,48.6067,-1270.37,0,0
92262.6,48.6873,-1266.22,0,0
92523,48.7696,-1262.15,0,0
92783.3,48.6342,-1258.01,0,0
93043.6,48.7596,-1253.6,0,0
93303.9,48.9328,-1249.29,0,0
93564.3,49.1486,-1244.98,0,0
93824.6,49.6651,-1240.65,0,0
94084.9,50.485,-1236.61,0,0
94345.2,51.2816,-1233.17,0,0
94605.6,51.511,-1230.06,0,0
94865.9,51.2132,-1226.65,0,0
95126.2,51.2178,-1222.91,0,0
95386.5,51.188,-1219.41,0,0
95646.9,50.7295,-1215.94,0,0
95907.2,50.2644,-1211.91,0,0
96167.5,50.1997,-1207.86,0,0
96427.8,50.0967,-1203.94,0,0
96688.2,50.0272,-1199.92,0,0
96948.5,50.0652,-1196.1,0,0
97208.8,50.0791,-1192.22,0,0
97469.1,49.9534,-1188.27,0,0
97729.5,50.1145,-1184.24,0,0
97989.8,50.3686,-1180.32,0,0
98250.1,50.5892,-1176.59,0,0
98510.4,50.8925,-1172.9,0,0
98770.8,51.0376,-1169.52,0,0
99031.1,50.8866,-1165.93,0,0
99291.4,50.7515,-1162.24,0,0
99551.7,50.6145,-1158.45,0,0
99812.1,50.5134,-1154.42,0,0
100072,50.7477,-1150.39,0,0
100333,51.0794,-1146.51,0,0
100593,51.4041,-1142.91,0,0
100853,51.6622,-1139.18,0,0
101114,51.9919,-1135.56,0,0
101374,52.2539,-1131.93,0,0
101634,52.4801,-1128.35,0,0
101895,52.7203,-1124.69,0,0
102155,53.0536,-1120.97,0,0
102415,53.5645,-1117.32,0,0
102676,54.2102,-1113.84,0,0
102936,54.6174,-1110.53,0,0
103196,55.1621,-1107.2,0,0
103457,55.5051,-1103.91,0,0
103717,56.2414,-1100.69,0,0
103977,56.6619,-1097.9,0,0
104238,56.6901,-1094.9,0,0
104498,56.991,-1091.67,0,0
104758,57.3401,-1088.73,0,0
105019,57.3494,-1086.06,0,0
105279,57.1004,-1082.93,0,0
105539,57.0117,-1079.6,0,0
105800,57.0773,-1076.33,0,0
106060,57.158,-1073.12,0,0
106320.175,57.0705,-1069.82,0,0
106580.5,57.1457,-1066.35,0,0
106840.825,57.415,-1062.9,0,0
107101.15,57.9027,-1059.68,0,0
107361.475,58.1499,-1056.73,0,0
107621.8,58.2195,-1053.54,0,0
107882.125,58.4487,-1050.25,0,0
108142.45,58.7551,-1047.19,0,0
108402.775,58.886,-1044.15,0,0
108663.1,59.0353,-1041.11,0,0
108923.425,59.1068,-1038.01,0,0
109183.75,59.1745,-1034.78,0,0
109444.075,59.2057,-1031.73,0,0
109704.4,59.1638,-1028.37,0,0
109964.725,59.3075,-1024.89,0,0
110225.05,59.3834,-1021.49,0,0
110485.375,59.7332,-1017.71,0,0
110745.7,60.4347,-1014.16,0,0
111006.025,61.1177,-1010.77,0,0
111266.35,62.0438,-1007.79,0,0
111526.675,62.4655,-1004.58,0,0
111787.0,63.0763,-1001.29,0,0
112047.325,63.8323,-998.17,0,0
112307.65,64.6831,-994.863,0,0
112567.975,65.5309,-991.827,0,0
112828.3,66.396,-988.712,0,0
113088.625,67.5155,-985.627,0,0
113348.95,68.7921,-982.879,0,0
113609.275,69.7584,-980.43,0,0
113869.6,70.5209,-977.68,0,0
114129.925,71.5447,-974.98,0,0
114390.25,72.6599,-972.423,0,0
114650.575,73.6776,-970.047,0,0
114910.9,74.4875,-967.428,0,0
115171.225,75.7163,-964.894,0,0
115431.55,76.8701,-962.434,0,0
115691.875,78.1072,-960.01,0,0
115952.2,79.7229,-957.708,0,0
116212.525,81.4162,-955.792,0,0
116472.85,83.148,-954.465,0,0
116733.175,84.4592,-953.467,0,0
116993.5,85.1997,-952.668,0,0
117253.825,85.6287,-951.445,0,0
117514.15,86.2843,-950.158,0,0
117774.475,86.7412,-949.098,0,0
118034.8,87.0087,-947.758,0,0
118295.125,87.4861,-946.241,0,0
118555.45,88.5629,-944.949,0,0
118815.775,89.5023,-944.593,0,0
119076.1,89.7265,-944.576,0,0
119336.425,89.4607,-944.398,0,0
119596.75,88.9487,-944.126,0,0
119857.075,88.0394,-943.898,0,0
120117.4,86.83,-943.501,0,0
120377.725,85.4523,-942.975,0,0
120638.05,83.4391,-942.357,0,0
120898.375,81.2992,-940.933,0,0
121158.7,79.0536,-939.422,0,0
121419.025,76.6868,-937.114,0,0
121679.35,74.9863,-934.251,0,0
121939.675,73.8099,-931.631,0,0
122200.0,72.5256,-929.213,0,0
122460,71.2225,-926.728,0,0
122721,69.9597,-924.081,0,0
122981,68.7928,-921.388,0,0
123241,67.8245,-918.781,0,0
123502,66.601,-916.115,0,0
123762,65.4249,-913.11,0,0
124022,64.717,-910.002,0,0
124283,64.1252,-907.235,0,0
124543,63.3926,-904.484,0,0
124803,62.8736,-901.576,0,0
125064,62.478,-899.105,0,0
125324,61.5538,-896.74,0,0
125584,60.4988,-893.935,0,0
125845,59.7217,-890.894,0,0
126105,59.1358,-888.003,0,0
126365,58.4864,-885.171,0,0
126626,57.7639,-882.25,0,0
126886,57.1274,-879.188,0,0
127146,56.5715,-876.163,0,0
127406,56.1425,-872.95,0,0
127667,55.9021,-869.876,0,0
127927,55.7193,-866.904,0,0
128187,55.4842,-864.113,0,0
128448,55.1145,-861.184,0,0
128708,54.8775,-858.266,0,0
128968,54.6111,-855.335,0,0
129229,54.4661,-852.399,0,0
129489,54.3813,-849.578,0,0
129749,54.1472,-846.922,0,0
130010,53.7557,-844.048,0,0
130270,53.4513,-841.012,0,0
130530,53.3128,-838.032,0,0
130791,53.2016,-835.111,0,0
131051,53.1115,-832.246,0,0
131311,52.885,-829.391,0,0
131572,52.6605,-826.4,0,0
131832,52.5596,-823.365,0,0
132092,52.4614,-820.321,0,0
132353,52.3736,-817.204,0,0
132613,52.4642,-814.063,0,0
132873,52.6024,-810.981,0,0
133134,52.7364,-807.915,0,0
133394,52.8773,-804.768,0,0
133654,53.151,-801.568,0,0
133915,53.6261,-798.363,0,0
134175,54.2943,-795.235,0,0
134435,54.9242,-792.21,0,0
134696,55.865,-789.422,0,0
134956,56.5393,-786.821,0,0
135216,57.1468,-784.136,0,0
135477,57.8921,-781.39,0,0
135737,58.7671,-778.657,0,0
135997,60.0588,-776.128,0,0
136258,61.4374,-774.253,0,0
136518,62.2465,-772.876,0,0
136778,62.6649,-771.463,0,0
137039,62.7523,-770.046,0,0
137299,62.3954,-768.397,0,0
137559,62.0903,-766.383,0,0
137819,61.7643,-764.29,0,0
138080,61.4453,-762.065,0,0
138340.125,61.0764,-759.828,0,0
138600.45,60.6624,-757.364,0,0
138860.775,60.2908,-754.732,0,0
139121.1,60.0313,-751.898,0,0
139381.425,60.0895,-749.014,0,0
139641.75,60.2878,-746.359,0,0
139902.075,60.3725,-743.764,0,0
140162.4,60.513,-741.167,0,0
140422.725,60.6855,-738.65,0,0
140683.05,60.7005,-736.178,0,0
140943.375,60.6878,-733.553,0,0
141203.7,60.7449,-730.911,0,0
141464.025,60.7482,-728.245,0,0
141724.35,60.772,-725.5,0,0
141984.675,60.9185,-722.626,0,0
142245.0,61.1759,-719.82,0,0
142505.325,61.4466,-717.012,0,0
142765.65,61.8486,-714.185,0,0
143025.975,62.2239,-711.452,0,0
143286.3,62.6488,-708.709,0,0
143546.625,63.2168,-706.028,0,0
143806.95,63.7939,-703.557,0,0
144067.275,64.2257,-701.213,0,0
144327.6,64.5162,-698.852,0,0
144587.925,64.6671,-696.35,0,0
144848.25,64.8785,-693.74,0,0
145108.575,65.2471,-691.051,0,0
145368.9,65.61,-688.577,0,0
145629.225,65.8679,-686.079,0,0
145889.55,66.0075,-683.545,0,0
146149.875,66.1006,-680.801,0,0
146410.2,66.4445,-677.928,0,0
146670.525,66.9218,-675.174,0,0
146930.85,67.4101,-672.552,0,0
147191.175,67.8127,-670.057,0,0
147451.5,68.0793,-667.502,0,0
147711.825,68.2877,-664.788,0,0
147972.15,68.6621,-662.007,0,0
148232.475,69.0996,-659.391,0,0
148492.8,69.4058,-656.795,0,0
148753.125,69.6067,-654.16,0,0
149013.45,69.7618,-651.491,0,0
149273.775,69.8188,-648.686,0,0
149534.1,69.8835,-645.687,0,0
149794.425,70.0915,-642.578,0,0
150054.75,70.3649,-639.458,0,0
150315.075,70.648,-636.308,0,0
150575.4,70.9519,-633.093,0,0
150835.725,71.3138,-629.778,0,0
151096.05,71.725,-626.404,0,0
151356.375,72.2296,-622.877,0,0
151616.7,72.8874,-619.314,0,0
151877.025,73.6983,-615.753,0,0
152137.35,74.5919,-612.267,0,0
152397.675,75.4962,-608.726,0,0
152658.0,76.5247,-605.131,0,0
152918.325,77.7199,-601.547,0,0
153178.65,78.9958,-598.059,0,0
153438.975,80.2722,-594.619,0,0
153699.3,81.5566,-591.167,0,0
153959.625,82.8901,-587.597,0,0
154219.95,84.3994,-583.981,0,0
154480,86.0867,-580.421,0,0
154741,87.9687,-576.903,0,0
155001,89.8037,-573.506,0,0
155261,91.7287,-570.126,0,0
155522,93.7633,-566.805,0,0
155782,95.9338,-563.574,0,0
156042,98.1719,-560.372,0,0
156303,100.574,-557.282,0,0
156563,102.928,-554.463,0,0
156823,105.333,-551.634,0,0
157084,107.673,-548.891,0,0
157344,110.254,-546.189,0,0
157604,112.94,-543.814,0,0
157864,115.364,-541.694,0,0
158125,117.664,-539.709,0,0
158385,119.725,-537.68,0,0
158645,121.906,-535.865,0,0
158906,123.797,-534.219,0,0
159166,125.121,-532.676,0,0
159426,126.089,-530.762,0,0
159687,126.847,-528.478,0,0
159947,127.613,-525.87,0,0
160207,128.282,-522.822,0,0
160468,129.093,-519.616,0,0
160728,129.833,-515.962,0,0
160988,130.812,-511.909,0,0
161249,131.997,-507.364,0,0
161509,133.729,-502.382,0,0
161769,136.152,-497.38,0,0
162030,139.067,-492.525,0,0
162290,142.317,-487.774,0,0
162550,145.763,-483.238,0,0
162811,149.328,-478.777,0,0
163071,153.165,-474.042,0,0
163331,157.558,-469.314,0,0
163592,162.453,-464.803,0,0
163852,167.751,-460.779,0,0
164112,173.141,-457.163,0,0
164373,178.329,-453.873,0,0
164633,183.416,-450.38,0,0
164893,188.947,-446.623,0,0
165154,194.821,-443.274,0,0
165414,200.615,-440.033,0,0
165674,206.396,-436.395,0,0
165935,212.829,-432.39,0,0
166195,220.324,-428.176,0,0
166455,228.98,-424.512,0,0
166716,238.495,-421.833,0,0
166976,248.142,-420.26,0,0
167236,257.847,-419.159,0,0
167497,268.082,-418.713,0,0
167757,278.361,-419.062,0,0
168017,288.846,-420.327,0,0
168277,299.589,-422.36,0,0
168538,310.214,-425.424,0,0
168798,320.831,-429.68,0,0
169058,330.696,-434.849,0,0
169319,340.055,-440.891,0,0
169579,348.526,-447.569,0,0
169839,356.016,-454.139,0,0
170100,363.993,-460.598,0,0
170360.075,372.48,-468.078,0,0
170620.4,380.621,-477.391,0,0
170880.725,387.223,-488.328,0,0
171141.05,391.499,-499.445,0,0
171401.375,394.819,-509.701,0,0
171661.7,397.777,-519.824,0,0
171922.025,400.379,-529.93,0,0
172182.35,403.031,-540.633,0,0
172442.675,404.882,-553.045,0,0
172703.0,403.817,-566.375,0,0
172963.325,400.485,-578.295,0,0
173223.65,396.294,-589.254,0,0
173483.975,390.798,-599.302,0,0
173744.3,384.617,-608.227,0,0
174004.625,377.618,-616.521,0,0
174264.95,369.162,-623.787,0,0
174525.275,359.584,-628.555,0,0
174785.6,350.556,-630.851,0,0
175045.925,342.703,-631.682,0,0
175306.25,335.694,-631.612,0,0
175566.575,329.493,-630.647,0,0
175826.9,324.054,-628.478,0,0
176087.225,320.475,-625.067,0,0
176347.55,319.335,-621.835,0,0
176607.875,319.825,-619.843,0,0
176868.2,321.066,-619.32,0,0
177128.525,322.365,-619.806,0,0
177388.85,323.781,-620.839,0,0
177649.175,325.668,-622.301,0,0
177909.5,328.777,-624.759,0,0
178169.825,332.402,-630.111,0,0
178430.15,334.191,-638.188,0,0
178690.475,333.104,-647.433,0,0
178950.8,329.164,-656.448,0,0
179211.125,323.018,-663.938,0,0
179471.45,315.915,-669.496,0,0
179731.775,308.898,-673.418,0,0
179992.1,302.352,-676.492,0,0
180252.425,296.321,-679.048,0,0
180512.75,290.697,-681.936,0,0
180773.075,284.573,-685.344,0,0
181033.4,277.417,-688.737,0,0
181293.725,269.077,-691.584,0,0
181554.05,259.859,-692.973,0,0
181814.375,250.806,-692.878,0,0
182074.7,242.226,-691.969,0,0
182335.025,233.778,-690.603,0,0
182595.35,225.119,-688.547,0,0
182855.675,216.402,-685.059,0,0
183116.0,208.802,-680.057,0,0
183376.325,202.963,-674.831,0,0
183636.65,197.855,-670.348,0,0
183896.975,192.544,-665.931,0,0
184157.3,187.408,-660.923,0,0
184417.625,183.172,-655.403,0,0
184677.95,179.957,-650.035,0,0
184938.275,177.361,-645.457,0,0
185198.6,174.528,-641.636,0,0
185458.925,171.117,-637.828,0,0
185719.25,167.423,-633.675,0,0
185979.575,163.67,-628.876,0,0
186239.9,160.379,-623.329,0,0
186500,157.922,-617.564,0,0
186761,156.127,-611.964,0,0
187021,154.726,-606.578,0,0
187281,153.578,-601.352,0,0
187542,152.778,-596.165,0,0
187802,152.574,-591.123,0,0
188062,152.879,-586.722,0,0
188322,153.282,-583.198,0,0
188583,153.246,-580.493,0,0
188843,152.224,-578.175,0,0
189103,150.308,-575.39,0,0
189364,148.081,-571.822,0,0
189624,146.072,-567.524,0,0
189884,144.52,-563.036,0,0
190145,143.019,-558.439,0,0
190405,141.793,-553.505,0,0
190665,140.857,-548.604,0,0
190926,139.941,-543.487,0,0
191186,139.482,-537.975,0,0
191446,139.696,-532.59,0,0
191707,140.203,-527.697,0,0
191967,140.56,-523.053,0,0
192227,140.855,-518.392,0,0
192488,141.141,-513.574,0,0
192748,141.559,-508.678,0,0
193008,142.163,-503.667,0,0
193269,143.033,-498.594,0,0
193529,144.176,-493.574,0,0
193789,145.484,-488.661,0,0
194050,146.908,-483.84,0,0
194310,148.429,-478.97,0,0
194570,150.2,-474.049,0,0
194831,152.318,-469.239,0,0
195091,154.717,-464.794,0,0
195351,157.116,-460.526,0,0
195612,159.352,-456.568,0,0
195872,161.542,-452.471,0,0
196132,163.973,-448.315,0,0
196393,166.433,-444.416,0,0
196653,168.826,-440.558,0,0
196913,171.362,-436.605,0,0
197174,173.939,-432.842,0,0
197434,176.54,-429.111,0,0
197694,179.25,-425.376,0,0
197955,181.795,-421.835,0,0
198215,184.313,-418.119,0,0
198475,186.806,-414.176,0,0
198735,189.622,-410.253,0,0
198996,192.583,-406.306,0,0
199256,195.514,-402.396,0,0
199516,198.592,-398.276,0,0
199777,201.799,-394.013,0,0
200037,205.432,-389.639,0,0
200297,209.375,-385.349,0,0
200558,213.663,-381.334,0,0
200818,218.081,-377.501,0,0
201078,222.459,-373.806,0,0
201339,226.78,-369.947,0,0
201599,231.532,-365.87,0,0
201859,236.805,-361.891,0,0
202120,242.297,-358.247,0,0
202380.025,248.088,-354.76,0,0
202640.35,254.158,-351.466,0,0
202900.675,260.478,-348.404,0,0
203161.0,266.994,-345.687,0,0
203421.325,273.666,-343.232,0,0
203681.65,280.471,-341.004,0,0
203941.975,287.627,-339.116,0,0
204202.3,294.9,-337.655,0,0
204462.625,302.043,-336.573,0,0
204722.95,309.323,-335.629,0,0
204983.275,316.687,-334.995,0,0
205243.6,324.214,-334.471,0,0
205503.925,332.37,-334.432,0,0
205764.25,340.768,-335.469,0,0
206024.575,348.782,-337.521,0,0
206284.9,355.946,-340.417,0,0
206545.225,362.334,-343.411,0,0
206805.55,367.825,-346.634,0,0
207065.875,372.415,-349.55,0,0
207326.2,376.465,-351.771,0,0
207586.525,380.288,-353.342,0,0
207846.85,384.214,-353.845,0,0
208107.175,388.828,-353.644,0,0
208367.5,394.24,-353.189,0,0
208627.825,400.22,-352.352,0,0
208888.15,407.67,-351.149,0,0
209148.475,417.005,-350.631,0,0
209408.8,427.264,-351.788,0,0
209669.125,438.005,-354.447,0,0
209929.45,448.715,-358.467,0,0
210189.775,459.467,-363.803,0,0
210450.1,469.993,-370.782,0,0
210710.425,479.807,-379.456,0,0
210970.75,488.117,-389.598,0,0
211231.075,494.763,-400.244,0,0
211491.4,500.219,-411.232,0,0
211751.725,504.155,-422.47,0,0
212012.05,506.695,-433.305,0,0
212272.375,508.333,-443.576,0,0
212532.7,509.318,-453.341,0,0
212793.025,509.889,-462.56,0,0
213053.35,510.434,-471.743,0,0
213313.675,510.149,-481.269,0,0
213574.0,508.893,-490.233,0,0
213834.325,507.366,-498.562,0,0
214094.65,505.521,-506.798,0,0
214354.975,502.975,-514.902,0,0
214615.3,499.48,-522.323,0,0
214875.625,495.551,-528.39,0,0
215135.95,492.23,-533.457,0,0
215396.275,489.483,-538.285,0,0
215656.6,487.121,-543.101,0,0
215916.925,484.865,-548,0,0
216177.25,482.716,-553.084,0,0
216437.575,480.539,-558.454,0,0
216697.9,477.972,-564.211,0,0
216958.225,474.644,-570.23,0,0
217218.55,470.41,-575.924,0,0
217478.875,465.527,-580.89,0,0
217739.2,460.647,-584.955,0,0
217999.525,456.069,-588.841,0,0
218259.85,451.156,-592.882,0,0
218520,445.549,-596.573,0,0
218780,439.413,-599.571,0,0
219041,432.981,-601.705,0,0
219301,426.56,-602.891,0,0
219561,420.41,-603.19,0,0
219822,414.63,-602.932,0,0
220082,409.077,-602.095,0,0
220342,403.993,-600.583,0,0
220603,399.375,-598.511,0,0
220863,395.468,-596.019,0,0
221123,392.239,-593.327,0,0
221384,389.577,-590.526,0,0
221644,387.503,-587.68,0,0
221904,385.864,-584.889,0,0
222165,384.706,-582.071,0,0
222425,384.219,-579.339,0,0
222685,384.245,-576.922,0,0
222946,384.431,-575.038,0,0
223206,384.571,-573.305,0,0
223466,384.777,-571.496,0,0
223727,385.396,-569.617,0,0
223987,386.348,-568.018,0,0
224247,387.406,-566.67,0,0
224508,388.457,-565.419,0,0
224768,389.678,-564.004,0,0
225028,391.112,-562.472,0,0
225289,393.225,-560.723,0,0
225549,396.04,-559.208,0,0
225809,399.613,-558.234,0,0
226070,403.638,-558.172,0,0
226330,407.698,-558.968,0,0
226590,411.51,-560.518,0,0
226851,414.927,-562.5,0,0
227111,418.005,-564.606,0,0
227371,421.081,-566.66,0,0
227632,424.562,-568.927,0,0
227892,428.302,-571.835,0,0
228152,431.978,-575.473,0,0
228413,435.342,-579.814,0,0
228673,438.413,-584.566,0,0
228933,441.15,-589.941,0,0
229193,443.339,-595.936,0,0
229454,444.729,-602.197,0,0
229714,445.437,-608.563,0,0
229974,445.767,-614.702,0,0
230235,445.959,-620.885,0,0
230495,445.959,-627.621,0,0
230755,445.139,-634.924,0,0
231016,443.201,-642.224,0,0
231276,440.252,-648.965,0,0
231536,437.107,-654.932,0,0
231797,433.986,-660.517,0,0
232057,430.984,-666.214,0,0
232317,427.798,-672.137,0,0
232578,423.921,-678.25,0,0
232838,419.415,-684.094,0,0
233098,414.808,-689.644,0,0
233359,409.942,-695.57,0,0
233619,404.11,-701.996,0,0
233879,396.647,-708.013,0,0
234140,388.013,-712.915,0,0
234400,378.862,-716.353,0,0
234660.3,369.499,-718.51,0,0
234920.625,360.287,-719.378,0,0
235180.95,351.618,-719.177,0,0
235441.275,343.534,-718.297,0,0
235701.6,335.908,-716.85,0,0
235961.925,328.892,-714.791,0,0
236222.25,322.672,-712.456,0,0
236482.575,316.938,-710.228,0,0
236742.9,311.629,-708.085,0,0
237003.225,306.391,-706.275,0,0
237263.55,300.714,-704.499,0,0
237523.875,294.693,-701.977,0,0
237784.2,288.882,-698.605,0,0
238044.525,283.668,-694.529,0,0
238304.85,279.13,-690.017,0,0
238565.175,275.335,-685.276,0,0
238825.5,272.273,-680.399,0,0
239085.825,269.963,-675.427,0,0
239346.15,268.47,-670.736,0,0
239606.475,267.741,-666.271,0,0
239866.8,267.763,-662.343,0,0
240127.125,268.354,-659.518,0,0
240387.45,269.026,-657.814,0,0
240647.775,268.913,-657.059,0,0
240908.1,268.029,-656.645,0,0
241168.425,266.466,-656.07,0,0
241428.75,264.529,-655.147,0,0
241689.075,262.372,-654.233,0,0
241949.4,259.893,-652.972,0,0
242209.725,257.135,-651.385,0,0
242470.05,254.209,-649.229,0,0
242730.375,251.362,-646.42,0,0
242990.7,249.046,-643.08,0,0
243251.025,247.231,-639.606,0,0
243511.35,245.712,-636.122,0,0
243771.675,244.389,-632.334,0,0
244032.0,243.542,-628.132,0,0
244292.325,243.611,-623.831,0,0
244552.65,244.512,-619.866,0,0
244812.975,246.008,-616.437,0,0
245073.3,247.988,-613.814,0,0
245333.625,249.828,-612.07,0,0
245593.95,251.303,-610.801,0,0
245854.275,252.567,-609.752,0,0
246114.6,253.601,-608.905,0,0
246374.925,254.442,-608.24,0,0
246635.25,254.987,-607.599,0,0
246895.575,255.31,-606.844,0,0
247155.9,255.536,-606.132,0,0
247416.225,255.789,-605.24,0,0
247676.55,256.091,-604.289,0,0
247936.875,256.511,-603.356,0,0
248197.2,256.91,-602.6,0,0
248457.525,257.281,-601.786,0,0
248717.85,257.755,-600.9,0,0
248978.175,258.373,-600.065,0,0
249238.5,259.01,-599.264,0,0
249498.825,259.997,-598.586,0,0
249759.15,261.183,-598.094,0,0
250019.475,261.948,-598.36,0,0
250279.8,262.571,-598.46,0,0
250540,262.917,-598.408,0,0
250800,263.362,-598.365,0,0
251061,263.939,-598.408,0,0
251321,264.545,-598.618,0,0
251581,265.071,-598.963,0,0
251842,265.504,-599.382,0,0
252102,265.917,-599.928,0,0
252362,266.288,-600.576,0,0
252623,266.503,-601.44,0,0
252883,266.58,-602.429,0,0
253143,266.478,-603.391,0,0
253404,266.235,-604.427,0,0
253664,265.817,-605.547,0,0
253924,265.294,-606.776,0,0
254185,264.455,-608.158,0,0
254445,263.226,-609.502,0,0
254705,261.42,-610.213,0,0
254966,259.807,-611.111,0,0
255226,258.065,-611.449,0,0
255486,256.549,-611.755,0,0
255747,254.77,-612.025,0,0
256007,252.821,-612.172,0,0
256267,250.74,-611.98,0,0
256528,248.91,-611.541,0,0
256788,247.006,-611.061,0,0
257048,245.188,-610.416,0,0
257309,243.291,-609.648,0,0
257569,241.411,-608.639,0,0
257829,239.613,-607.364,0,0
258090,237.966,-605.889,0,0
258350,236.565,-604.236,0,0
258610,235.401,-602.486,0,0
258871,234.473,-600.783,0,0
259131,233.716,-599.118,0,0
259391,232.95,-597.568,0,0
259651,232.275,-595.979,0,0
259912,231.496,-594.425,0,0
260172,230.681,-592.628,0,0
260432,229.962,-590.541,0,0
260693,229.563,-588.175,0,0
260953,229.481,-585.86,0,0
261213,229.635,-583.418,0,0
261474,230.066,-580.929,0,0
261734,230.983,-578.326,0,0
261994,232.388,-575.901,0,0
262255,234.268,-573.791,0,0
262515,236.421,-572.131,0,0
262775,238.722,-570.895,0,0
263036,241.015,-570.028,0,0
263296,243.412,-569.433,0,0
263556,245.917,-569.313,0,0
263817,248.292,-569.621,0,0
264077,250.534,-570.343,0,0
264337,252.411,-571.333,0,0
264598,253.905,-572.584,0,0
264858,255.218,-573.723,0,0
265118,256.254,-575.022,0,0
265379,257.088,-576.258,0,0
265639,257.77,-577.372,0,0
265899,258.42,-578.359,0,0
266160,259.156,-579.323,0,0
266420,260,-580.423,0,0
266680.25,260.769,-581.644,0,0
266940.575,261.512,-583.011,0,0
267200.9,262.197,-584.604,0,0
267461.225,262.608,-586.274,0,0
267721.55,262.84,-588.026,0,0
267981.875,262.91,-589.836,0,0
268242.2,262.664,-591.593,0,0
268502.525,262.204,-593.143,0,0
268762.85,261.675,-594.458,0,0
269023.175,261.202,-595.603,0,0
269283.5,260.834,-596.598,0,0
269543.825,260.685,-597.494,0,0
269804.15,260.702,-598.423,0,0
270064.475,260.803,-599.393,0,0
270324.8,261.09,-600.547,0,0
270585.125,261.626,-601.803,0,0
270845.45,262.253,-603.347,0,0
271105.775,262.872,-605.141,0,0
271366.1,263.597,-607.077,0,0
271626.425,264.67,-609.33,0,0
271886.75,265.961,-612.281,0,0
272147.075,267.215,-616.253,0,0
272407.4,267.811,-621.349,0,0
272667.725,267.22,-627.1,0,0
272928.05,265.379,-632.982,0,0
273188.375,262.693,-638.464,0,0
273448.7,259.351,-643.871,0,0
273709.025,255.16,-649.243,0,0
273969.35,249.971,-654.27,0,0
274229.675,243.837,-658.546,0,0
274490.0,237.131,-661.937,0,0
274750.325,230.195,-664.508,0,0
275010.65,222.972,-666.334,0,0
275270.975,215.559,-667.368,0,0
275531.3,207.995,-667.566,0,0
275791.625,200.604,-666.89,0,0
276051.95,193.44,-665.483,0,0
276312.275,186.555,-663.473,0,0
276572.6,179.988,-660.857,0,0
276832.925,173.772,-657.7,0,0
277093.25,167.967,-654.018,0,0
277353.575,162.663,-649.865,0,0
277613.9,157.915,-645.306,0,0
277874.225,153.784,-640.512,0,0
278134.55,150.356,-635.548,0,0
278394.875,147.55,-630.587,0,0
278655.2,145.23,-625.779,0,0
278915.525,143.379,-621.136,0,0
279175.85,141.803,-616.691,0,0
279436.175,140.481,-612.38,0,0
279696.5,139.473,-608.168,0,0
279956.825,138.761,-604.049,0,0
280217.15,138.319,-600.192,0,0
280477.475,138.147,-596.518,0,0
280737.8,138.207,-593.064,0,0
280998.125,138.37,-590.005,0,0
281258.45,138.584,-587.332,0,0
281518.775,138.668,-584.975,0,0
281779.1,138.499,-582.779,0,0
282039.425,138.141,-580.584,0,0
282299.75,137.646,-578.345,0,0
282560,137.068,-576.046,0,0
282820,136.427,-573.619,0,0
283081,135.756,-571.052,0,0
283341,135.145,-568.292,0,0
283601,134.654,-565.341,0,0
283862,134.372,-562.21,0,0
284122,134.413,-559.037,0,0
284382,134.77,-555.908,0,0
284643,135.392,-552.932,0,0
284903,136.234,-550.151,0,0
285163,137.099,-547.561,0,0
285424,138.088,-545.156,0,0
285684,139.109,-542.888,0,0
285944,140.162,-540.805,0,0
286205,141.217,-538.846,0,0
286465,142.273,-537.059,0,0
286725,143.248,-535.375,0,0
286986,144.136,-533.809,0,0
287246,144.936,-532.295,0,0
287506,145.649,-530.771,0,0
287767,146.303,-529.224,0,0
288027,146.933,-527.657,0,0
288287,147.522,-526.015,0,0
288548,148.122,-524.305,0,0
288808,148.765,-522.495,0,0
289068,149.518,-520.607,0,0
289329,150.453,-518.746,0,0
289589,151.44,-516.913,0,0
289849,152.538,-515.114,0,0
290109,153.677,-513.369,0,0
290370,154.899,-511.554,0,0
290630,156.305,-509.799,0,0
290890,157.851,-508.156,0,0
291151,159.492,-506.69,0,0
291411,161.183,-505.366,0,0
291671,162.856,-504.18,0,0
291932,164.506,-503.11,0,0
292192,166.128,-502.129,0,0
292452,167.686,-501.195,0,0
292713,169.244,-500.3,0,0
292973,170.767,-499.431,0,0
293233,172.272,-498.547,0,0
293494,173.82,-497.683,0,0
293754,175.412,-496.832,0,0
294014,176.991,-496.033,0,0
294275,178.591,-495.262,0,0
294535,180.205,-494.429,0,0
294795,181.887,-493.583,0,0
295056,183.688,-492.758,0,0
295316,185.58,-491.914,0,0
295576,187.627,-491.119,0,0
295837,189.818,-490.423,0,0
296097,192.111,-489.867,0,0
296357,194.492,-489.446,0,0
296618,196.95,-489.169,0,0
296878,199.471,-489.024,0,0
297138,202.047,-489.036,0,0
297399,204.69,-489.181,0,0
297659,207.413,-489.535,0,0
297919,210.122,-490.106,0,0
298180,212.753,-490.934,0,0
298440,215.24,-491.868,0,0
298700.2,217.569,-492.82,0,0
298960.525,220.059,-493.752,0,0
299220.85,222.583,-494.677,0,0
299481.175,225.203,-495.779,0,0
299741.5,227.987,-497.08,0,0
300001.825,230.803,-498.493,0,0
300262.15,233.802,-500.261,0,0
300522.475,236.831,-502.313,0,0
300782.8,239.807,-504.642,0,0
301043.125,242.829,-507.445,0,0
301303.45,245.808,-510.508,0,0
301563.775,248.649,-514.027,0,0
301824.1,251.39,-518.014,0,0
302084.425,253.884,-522.605,0,0
302344.75,255.96,-527.685,0,0
302605.075,257.369,-533.335,0,0
302865.4,258.122,-539.184,0,0
303125.725,257.97,-545.161,0,0
303386.05,257.052,-550.993,0,0
303646.375,255.498,-556.528,0,0
303906.7,253.466,-561.695,0,0
304167.025,251.108,-566.531,0,0
304427.35,248.481,-571.105,0,0
304687.675,245.5,-575.419,0,0
304948.0,242.235,-579.44,0,0
305208.325,238.733,-583.125,0,0
305468.65,235.029,-586.473,0,0
305728.975,231.173,-589.526,0,0
305989.3,227.111,-592.321,0,0
306249.625,222.843,-594.706,0,0
306509.95,218.497,-596.691,0,0
306770.275,214.11,-598.226,0,0
307030.6,209.82,-599.419,0,0
307290.925,205.653,-600.319,0,0
307551.25,201.563,-600.965,0,0
307811.575,197.558,-601.411,0,0
308071.9,193.624,-601.676,0,0
308332.225,189.746,-601.724,0,0
308592.55,185.919,-601.554,0,0
308852.875,182.196,-601.17,0,0
309113.2,178.589,-600.55,0,0
309373.525,175.12,-599.725,0,0
309633.85,171.86,-598.758,0,0
309894.175,168.761,-597.664,0,0
310154.5,165.855,-596.447,0,0
310414.825,163.134,-595.163,0,0
310675.15,160.575,-593.858,0,0
310935.475,158.186,-592.531,0,0
311195.8,155.959,-591.183,0,0
311456.125,153.826,-589.877,0,0
311716.45,151.805,-588.61,0,0
311976.775,149.85,-587.358,0,0
312237.1,147.93,-586.142,0,0
312497.425,146.056,-584.95,0,0
312757.75,144.181,-583.75,0,0
313018.075,142.311,-582.512,0,0
313278.4,140.512,-581.23,0,0
313538.725,138.704,-579.884,0,0
313799.05,136.979,-578.515,0,0
314059.375,135.272,-577.058,0,0
314319.7,133.659,-575.564,0,0
314580,132.144,-574.094,0,0
314840,130.607,-572.406,0,0
315101,129.354,-570.71,0,0
315361,128.061,-569.079,0,0
315621,127.013,-567.495,0,0
315882,126.039,-565.786,0,0
316142,125.145,-564.221,0,0
316402,124.334,-562.716,0,0
316663,123.627,-561.164,0,0
316923,123.008,-559.871,0,0
317183,122.358,-558.462,0,0
317444,121.667,-557.266,0,0
317704,121.069,-556.028,0,0
317964,120.452,-554.898,0,0
318225,119.775,-553.639,0,0
318485,119.193,-552.451,0,0
318745,118.628,-551.148,0,0
319006,118.083,-549.978,0,0
319266,117.663,-548.707,0,0
319526,117.331,-547.6,0,0
319787,117.023,-546.481,0,0
320047,116.756,-545.5,0,0
320307,116.457,-544.512,0,0
320567,116.249,-543.559,0,0
320828,115.966,-542.878,0,0
321088,115.741,-542.035,0,0
321348,115.338,-541.3,0,0
321609,115.085,-540.585,0,0
321869,114.747,-539.987,0,0
322129,114.332,-539.372,0,0
322390,113.902,-538.857,0,0
322650,113.468,-538.275,0,0
322910,112.906,-537.722,0,0
323171,112.38,-537.153,0,0
323431,111.805,-536.621,0,0
323691,111.204,-535.966,0,0
323952,110.519,-535.393,0,0
324212,109.962,-534.732,0,0
324472,109.313,-533.962,0,0
324733,108.631,-533.248,0,0
324993,107.986,-532.511,0,0
325253,107.47,-531.765,0,0
325514,106.952,-531.011,0,0
325774,106.467,-530.209,0,0
326034,106.061,-529.528,0,0
326295,105.617,-528.854,0,0
326555,105.162,-528.217,0,0
326815,104.737,-527.637,0,0
327076,104.267,-527.089,0,0
327336,103.729,-526.552,0,0
327596,103.187,-526.057,0,0
327857,102.654,-525.462,0,0
328117,102.023,-524.986,0,0
328377,101.36,-524.394,0,0
328638,100.702,-523.874,0,0
328898,100.028,-523.34,0,0
329158,99.3487,-522.693,0,0
329419,98.6877,-522.089,0,0
329679,98.026,-521.494,0,0
329939,97.3945,-520.767,0,0
330200,96.7092,-520.032,0,0
330460,96.1083,-519.41,0,0
330720.15,95.4752,-518.73,0,0
330980.475,94.8753,-518.173,0,0
331240.8,94.2341,-517.602,0,0
331501.125,93.6078,-517.109,0,0
331761.45,92.8252,-516.627,0,0
332021.775,91.9957,-516.082,0,0
332282.1,91.1507,-515.521,0,0
332542.425,90.2626,-514.87,0,0
332802.75,89.3152,-514.249,0,0
333063.075,88.3391,-513.516,0,0
333323.4,87.3887,-512.7,0,0
333583.725,86.3913,-511.811,0,0
333844.05,85.4087,-510.947,0,0
334104.375,84.4571,-509.93,0,0
334364.7,83.5745,-508.95,0,0
334625.025,82.7556,-507.921,0,0
334885.35,81.8584,-506.887,0,0
335145.675,81.0049,-505.715,0,0
335406.0,80.2439,-504.705,0,0
335666.325,79.369,-503.49,0,0
335926.65,78.613,-502.367,0,0
336186.975,77.8918,-501.111,0,0
336447.3,77.1617,-499.895,0,0
336707.625,76.5031,-498.646,0,0
336967.95,75.8219,-497.344,0,0
337228.275,75.2656,-496.041,0,0
337488.6,74.6927,-494.608,0,0
337748.925,74.1527,-493.351,0,0
338009.25,73.7209,-491.998,0,0
338269.575,73.3491,-490.679,0,0
338529.9,72.9691,-489.423,0,0
338790.225,72.6536,-488.113,0,0
339050.55,72.2804,-486.871,0,0
339310.875,71.9187,-485.628,0,0
339571.2,71.6306,-484.301,0,0
339831.525,71.3282,-483.038,0,0
340091.85,71.074,-481.822,0,0
340352.175,70.8219,-480.517,0,0
340612.5,70.5858,-479.221,0,0
340872.825,70.3598,-477.981,0,0
341133.15,70.1695,-476.662,0,0
341393.475,70.0736,-475.359,0,0
341653.8,69.9656,-474.029,0,0
341914.125,69.9059,-472.795,0,0
342174.45,69.8523,-471.533,0,0
342434.775,69.8756,-470.292,0,0
342695.1,69.8764,-469.107,0,0
342955.425,69.9247,-467.861,0,0
343215.75,70.0355,-466.673,0,0
343476.075,70.1503,-465.5,0,0
343736.4,70.1999,-464.367,0,0
343996.725,70.3527,-463.24,0,0
344257.05,70.5842,-462.099,0,0
344517.375,70.7865,-461.084,0,0
344777.7,70.9669,-460.038,0,0
345038.025,71.2801,-459.071,0,0
345298.35,71.4748,-458.098,0,0
345558.675,71.7391,-457.199,0,0
345819.0,71.9908,-456.369,0,0
346079.325,72.2496,-455.515,0,0
346339.65,72.4465,-454.851,0,0
346599.975,72.5577,-454.062,0,0
346860,72.7906,-453.345,0,0
347121,72.9363,-452.686,0,0
347381,73.0009,-452.069,0,0
347641,72.9953,-451.397,0,0
347902,72.9811,-450.772,0,0
348162,72.9209,-450.094,0,0
348422,72.814,-449.398,0,0
348683,72.6969,-448.636,0,0
348943,72.5709,-447.881,0,0
349203,72.44,-447.018,0,0
349464,72.3083,-446.152,0,0
349724,72.2371,-445.278,0,0
349984,72.1067,-444.437,0,0
350245,72.0967,-443.551,0,0
350505,71.9632,-442.647,0,0
350765,71.8182,-441.665,0,0
351025,71.8168,-440.662,0,0
351286,71.7437,-439.594,0,0
351546,71.835,-438.465,0,0
351806,71.9107,-437.388,0,0
352067,72.0689,-436.286,0,0
352327,72.3063,-435.269,0,0
352587,72.6119,-434.203,0,0
352848,72.91,-433.264,0,0
353108,73.2466,-432.331,0,0
353368,73.6622,-431.447,0,0
353629,73.9945,-430.552,0,0
353889,74.3813,-429.796,0,0
354149,74.7941,-429.038,0,0
354410,75.1986,-428.321,0,0
354670,75.5669,-427.652,0,0
354930,75.9518,-426.956,0,0
355191,76.3556,-426.29,0,0
355451,76.7728,-425.742,0,0
355711,77.145,-425.284,0,0
355972,77.4849,-424.855,0,0
356232,77.7363,-424.478,0,0
356492,77.9383,-424.142,0,0
356753,78.0559,-423.771,0,0
357013,78.0889,-423.409,0,0
357273,78.0703,-423.018,0,0
357534,78.0005,-422.61,0,0
357794,77.8627,-422.17,0,0
358054,77.6392,-421.679,0,0
358315,77.3947,-421.078,0,0
358575,77.2063,-420.38,0,0
358835,76.9653,-419.627,0,0
359096,76.811,-418.761,0,0
359356,76.6577,-417.902,0,0
359616,76.5372,-416.911,0,0
359877,76.535,-415.95,0,0
360137,76.5575,-414.971,0,0
360397,76.5818,-413.99,0,0
360658,76.7789,-412.964,0,0
360918,76.9366,-411.957,0,0
361178,77.1718,-410.98,0,0
361438,77.449,-410.043,0,0
361699,77.7716,-409.075,0,0
361959,78.1286,-408.181,0,0
362219,78.536,-407.32,0,0
362480,78.9282,-406.45,0,0
362740.1,79.3254,-405.672,0,0
363000.425,79.7602,-404.923,0,0
363260.75,80.1306,-404.169,0,0
363521.075,80.5418,-403.38,0,0
363781.4,80.9338,-402.61,0,0
364041.725,81.4144,-401.827,0,0
364302.05,81.8309,-401.104,0,0
364562.375,82.3694,-400.336,0,0
364822.7,82.9173,-399.678,0,0
365083.025,83.483,-399.012,0,0
365343.35,84.0578,-398.429,0,0
365603.675,84.6564,-397.894,0,0
365864.0,85.2106,-397.411,0,0
366124.325,85.7983,-396.96,0,0
366384.65,86.3147,-396.535,0,0
366644.975,86.7789,-396.134,0,0
366905.3,87.2057,-395.755,0,0
367165.625,87.6554,-395.351,0,0
367425.95,88.1189,-394.944,0,0
367686.275,88.5809,-394.612,0,0
367946.6,89.0201,-394.269,0,0
368206.925,89.5498,-393.982,0,0
368467.25,89.9874,-393.688,0,0
368727.575,90.4267,-393.499,0,0
368987.9,90.8509,-393.347,0,0
369248.225,91.2384,-393.206,0,0
369508.55,91.5708,-393.161,0,0
369768.875,91.8138,-393.149,0,0
370029.2,91.9725,-393.191,0,0
370289.525,92.0411,-393.214,0,0
370549.85,92.0112,-393.223,0,0
370810.175,91.8304,-393.155,0,0
371070.5,91.5611,-393.011,0,0
371330.825,91.2392,-392.773,0,0
371591.15,90.8581,-392.382,0,0
371851.475,90.5144,-391.899,0,0
372111.8,90.2157,-391.285,0,0
372372.125,90.0039,-390.585,0,0
372632.45,89.7756,-389.807,0,0
372892.775,89.6971,-388.967,0,0
373153.1,89.6675,-388.148,0,0
373413.425,89.7343,-387.316,0,0
373673.75,89.8115,-386.519,0,0
373934.075,89.9424,-385.675,0,0
374194.4,90.1436,-384.888,0,0
374454.725,90.3096,-384.131,0,0
374715.05,90.5684,-383.347,0,0
374975.375,90.845,-382.577,0,0
375235.7,91.1119,-381.816,0,0
375496.025,91.3923,-381.049,0,0
375756.35,91.7283,-380.34,0,0
376016.675,92.1219,-379.6,0,0
376277.0,92.4579,-378.962,0,0
376537.325,92.8069,-378.314,0,0
376797.65,93.1424,-377.676,0,0
377057.975,93.4465,-377.038,0,0
377318.3,93.6986,-376.357,0,0
377578.625,94.0072,-375.694,0,0
377838.95,94.3413,-374.969,0,0
378099.275,94.6873,-374.159,0,0
378359.6,95.0858,-373.474,0,0
378619.925,95.5736,-372.682,0,0
378880,96.0691,-371.945,0,0
379141,96.6389,-371.216,0,0
379401,97.2296,-370.519,0,0
379661,97.8167,-369.921,0,0
379922,98.4305,-369.355,0,0
380182,99.0075,-368.77,0,0
380442,99.5805,-368.264,0,0
380703,100.131,-367.767,0,0
380963,100.675,-367.232,0,0
381223,101.198,-366.734,0,0
381483,101.733,-366.181,0,0
381744,102.26,-365.58,0,0
382004,102.863,-365.054,0,0
382264,103.462,-364.527,0,0
382525,104.14,-363.952,0,0
382785,104.779,-363.456,0,0
383045,105.465,-362.982,0,0
383306,106.174,-362.578,0,0
383566,106.928,-362.169,0,0
383826,107.583,-361.779,0,0
384087,108.239,-361.441,0,0
384347,108.923,-361.086,0,0
384607,109.554,-360.751,0,0
384868,110.219,-360.437,0,0
385128,110.87,-360.128,0,0
385388,111.52,-359.853,0,0
385649,112.145,-359.575,0,0
385909,112.77,-359.297,0,0
386169,113.377,-359.018,0,0
386430,113.971,-358.694,0,0
386690,114.574,-358.382,0,0
386950,115.252,-358.09,0,0
387211,115.889,-357.838,0,0
387471,116.457,-357.575,0,0
387731,117.077,-357.316,0,0
387992,117.648,-357.034,0,0
388252,118.169,-356.653,0,0
388512,118.832,-356.227,0,0
388773,119.542,-355.785,0,0
389033,120.293,-355.374,0,0
389293,121.166,-355.004,0,0
389554,122.047,-354.693,0,0
389814,122.951,-354.465,0,0
390074,123.864,-354.281,0,0
390335,124.774,-354.115,0,0
390595,125.597,-353.993,0,0
390855,126.472,-353.889,0,0
391116,127.334,-353.833,0,0
391376,128.172,-353.731,0,0
391636,129.024,-353.679,0,0
391896,129.846,-353.658,0,0
392157,130.666,-353.604,0,0
392417,131.55,-353.539,0,0
392677,132.406,-353.488,0,0
392938,133.278,-353.455,0,0
393198,134.171,-353.455,0,0
393458,135.073,-353.492,0,0
393719,135.993,-353.47,0,0
393979,136.93,-353.515,0,0
394239,137.929,-353.527,0,0
394500,138.929,-353.579,0,0
394760.05,139.975,-353.702,0,0
395020.375,141.073,-353.767,0,0
395280.7,142.212,-353.923,0,0
395541.025,143.37,-354.149,0,0
395801.35,144.59,-354.377,0,0
396061.675,145.826,-354.676,0,0
396322.0,147.096,-355.068,0,0
396582.325,148.522,-355.5,0,0
396842.65,149.908,-356.123,0,0
397102.975,151.362,-356.884,0,0
397363.3,152.745,-357.771,0,0
397623.625,154.103,-358.802,0,0
397883.95,155.362,-359.99,0,0
398144.275,156.593,-361.337,0,0
398404.6,157.704,-362.727,0,0
398664.925,158.681,-364.257,0,0
398925.25,159.554,-365.86,0,0
399185.575,160.33,-367.519,0,0
399445.9,160.934,-369.293,0,0
399706.225,161.405,-371.152,0,0
399966.55,161.716,-373.107,0,0
400006.6,161.759,-373.398,0,0