File: Accelerated corrosion test data/2025-10-06_14-56-48/sample_4.csv
Frequency (Hz),Impedance (ohms),Phase (Radians),Temperature (C),Humidity (%)
10000.0,267.77,-11812.1,0,0
10260.325,263.817,-11514.6,0,0
10520.65,254.936,-11233.5,0,0
10780.975,248.617,-10964.3,0,0
11041.3,243.497,-10706.7,0,0
11301.625,237.765,-10465,0,0
11561.95,232.193,-10230.1,0,0
11822.275,227.667,-10006.4,0,0
12082.6,222.966,-9792.67,0,0
12342.925,218.725,-9587.59,0,0
12603.25,216.017,-9388.97,0,0
12863.575,211.424,-9203.09,0,0
13123.9,210.373,-9025.26,0,0
13384.225,202.387,-8847.47,0,0
13644.55,199.126,-8678.16,0,0
13904.875,195.865,-8513.16,0,0
14165.2,197.092,-8351.19,0,0
14425.525,201.623,-8202.17,0,0
14685.8,203.727,-8089.66,0,0
14946.175,184.665,-7934.94,0,0
15206.5,184.103,-7792.68,0,0
15466.825,191.202,-7648.42,0,0
15727.15,189.712,-7552.27,0,0
15987.5,192.068,-7431.63,0,0
16247.8,173.452,-7306.93,0,0
16508.125,192.331,-7179.71,0,0
16768.45,180.809,-7080.41,0,0
17028.775,173.341,-6992.61,0,0
17289.1,163.018,-6880.31,0,0
17549.425,160.611,-6776.16,0,0
17809.75,157.49,-6676.34,0,0
18070.075,154.12,-6578.2,0,0
18330.4,155.28,-6482.3,0,0
18590.725,155.551,-6394.13,0,0
18851.05,152.379,-6310.76,0,0
19111.375,147.269,-6221.96,0,0
19371.7,144.704,-6136.92,0,0
19632.025,143.69,-6052.9,0,0
19892.35,146.083,-5972.92,0,0
20152.675,145.626,-5896.53,0,0
20413.0,142.707,-5823.89,0,0
20673.3,142.038,-5749.45,0,0
20933.65,139.193,-5676.13,0,0
21193.975,141.692,-5602.03,0,0
21454.3,153.921,-5536.5,0,0
21714.625,147.251,-5479.12,0,0
21974.9,150.113,-5409.61,0,0
22235.275,149.797,-5364.01,0,0
22495.6,137.371,-5307.81,0,0
22755.925,129.556,-5242.84,0,0
23016.25,126.984,-5181.65,0,0
23276.6,124.538,-5121.62,0,0
23536.9,122.668,-5064.64,0,0
23797.225,120.686,-5008.12,0,0
24057.55,118.937,-4952.89,0,0
24317.875,118.087,-4898.63,0,0
24578.2,116.387,-4846.19,0,0
24838.525,115.92,-4793.7,0,0
25098.85,115.947,-4742.21,0,0
25359.175,114.734,-4695.65,0,0
25619.5,113.587,-4646.39,0,0
25879.8,112.52,-4602.26,0,0
26140.1,110.022,-4554.61,0,0
26400.5,108.785,-4508.44,0,0
26660.8,107.921,-4462.59,0,0
26921.1,107.771,-4418.55,0,0
27181.4,106.978,-4373.94,0,0
27441.8,107.253,-4328.9,0,0
27702.1,110.713,-4285.9,0,0
27962.4,117.811,-4245.44,0,0
28222.7,120.46,-4214.51,0,0
28483.1,115.414,-4181.91,0,0
28743.4,111.219,-4141.61,0,0
29003.7,111.906,-4100.56,0,0
29264,119.613,-4069.84,0,0
29524.4,112.653,-4037.6,0,0
29784.7,112.656,-4005.49,0,0
30045,106.357,-3972.38,0,0
30305.3,102.987,-3936.31,0,0
30565.7,100.796,-3901.03,0,0
30826,99.7671,-3866.65,0,0
31086.3,99.6208,-3832.45,0,0
31346.6,100.146,-3800.13,0,0
31607,98.8892,-3769.86,0,0
31867.3,98.6285,-3738.09,0,0
32127.6,100.438,-3707.02,0,0
32387.9,98.9964,-3681.2,0,0
32648.3,97.5162,-3651.06,0,0
32908.6,96.0569,-3624.11,0,0
33168.9,93.8617,-3595.66,0,0
33429.2,91.122,-3567.24,0,0
33689.6,89.8573,-3538.32,0,0
33949.9,88.8061,-3510.02,0,0
34210.2,88.5398,-3482.36,0,0
34470.5,87.2351,-3456.62,0,0
34730.9,86.3526,-3429.46,0,0
34991.2,85.7903,-3403.12,0,0
35251.5,85.1817,-3377.4,0,0
35511.8,84.3735,-3352.11,0,0
35772.2,84.0572,-3327.29,0,0
36032.5,82.8689,-3303.01,0,0
36292.8,82.1452,-3278.26,0,0
36553.1,81.8839,-3253.68,0,0
36813.5,81.3999,-3229.95,0,0
37073.8,81.9841,-3207.34,0,0
37334.1,80.6212,-3184.73,0,0
37594.4,80.07,-3161.36,0,0
37854.8,80.0807,-3139.17,0,0
38115.1,79.3364,-3117.94,0,0
38375.4,78.5229,-3095.56,0,0
38635.7,78.2888,-3073.32,0,0
38896.1,78.4935,-3051.79,0,0
39156.4,77.9119,-3031.24,0,0
39416.7,77.4124,-3010.2,0,0
39677,77.1907,-2989,0,0
39937.4,77.7314,-2968.17,0,0
40197.7,79.5843,-2947.65,0,0
40458,81.2502,-2928.74,0,0
40718.3,80.6532,-2912.5,0,0
40978.7,79.8332,-2893.38,0,0
41239,79.3757,-2874.07,0,0
41499.3,82.3938,-2856.19,0,0
41759.6,80.4636,-2840.93,0,0
42020,79.0572,-2823.1,0,0
42280.275,77.9369,-2804.1,0,0
42540.6,79.6054,-2787.1,0,0
42800.925,78.4507,-2772.21,0,0
43061.25,76.4707,-2754.03,0,0
43321.575,76.6927,-2737.47,0,0
43581.9,75.4215,-2720.8,0,0
43842.225,74.5463,-2703.51,0,0
44102.55,74.7534,-2687.79,0,0
44362.875,73.1102,-2671,0,0
44623.2,73.1897,-2654.34,0,0
44883.525,73.0125,-2638.88,0,0
45143.85,72.0865,-2622.82,0,0
45404.175,71.1614,-2606.4,0,0
45664.5,71.9308,-2589.64,0,0
45924.825,72.987,-2575.3,0,0
46185.15,72.9183,-2561.89,0,0
46445.475,71.6667,-2546.17,0,0
46705.8,72.2128,-2531.36,0,0
46966.125,72.4367,-2517.51,0,0
47226.45,72.368,-2503.09,0,0
47486.775,72.1256,-2490.44,0,0
47747.1,70.6554,-2476.29,0,0
48007.425,70.1557,-2462.13,0,0
48267.75,69.4649,-2449.28,0,0
48528.075,68.761,-2435.47,0,0
48788.4,67.7565,-2421.36,0,0
49048.725,67.1354,-2407.86,0,0
49309.05,66.796,-2393.8,0,0
49569.375,66.37,-2380.78,0,0
49829.7,65.772,-2366.96,0,0
50090.025,65.6932,-2353.9,0,0
50350.35,65.3446,-2340.7,0,0
50610.675,65.1148,-2327.63,0,0
50871.0,64.8566,-2314.67,0,0
51131.325,64.6529,-2301.89,0,0
51391.65,64.5523,-2289.05,0,0
51651.975,64.7115,-2276.16,0,0
51912.3,64.7256,-2263.66,0,0
52172.625,64.9849,-2250.94,0,0
52432.95,65.0467,-2239.01,0,0
52693.275,65.4502,-2226.12,0,0
52953.6,66.5024,-2213.68,0,0
53213.925,67.5121,-2201.91,0,0
53474.25,68.7814,-2190.15,0,0
53734.575,69.9401,-2178.51,0,0
53994.9,72.3859,-2167.25,0,0
54255.225,74.572,-2157.89,0,0
54515.55,76.3845,-2149.08,0,0
54775.875,76.6635,-2141.55,0,0
55036.2,75.0917,-2133.31,0,0
55296.525,74.1432,-2123.57,0,0
55556.85,72.6884,-2114.5,0,0
55817.175,70.9834,-2104.22,0,0
56077.5,69.5558,-2094.35,0,0
56337.825,68.0115,-2083.56,0,0
56598.15,66.9189,-2072.36,0,0
56858.475,66.5136,-2061.34,0,0
57118.8,66.3269,-2050.35,0,0
57379.125,66.7922,-2039.57,0,0
57639.45,67.0301,-2029.39,0,0
57899.775,67.3539,-2019.13,0,0
58160.1,67.5202,-2009.1,0,0
58420.4,68.2717,-1998.92,0,0
58680.7,68.9145,-1989.83,0,0
58941.1,68.2421,-1979.45,0,0
59201.4,69.5282,-1968.6,0,0
59461.7,72.1063,-1958.42,0,0
59722,74.5916,-1950.29,0,0
59982.4,76.5859,-1942.52,0,0
60242.7,77.6434,-1935.33,0,0
60503,79.0004,-1927.77,0,0
60763.3,81.191,-1921.66,0,0
61023.7,81.0744,-1917.64,0,0
61284,79.1442,-1912.5,0,0
61544.3,75.0178,-1906.17,0,0
61804.6,72.4819,-1896.93,0,0
62065,70.4715,-1888.27,0,0
62325.3,69.3734,-1879.85,0,0
62585.6,66.8452,-1871.25,0,0
62845.9,65.8442,-1860.78,0,0
63106.3,65.3997,-1851.98,0,0
63366.6,65.0124,-1842.73,0,0
63626.9,65.4019,-1833.71,0,0
63887.2,65.3607,-1825.81,0,0
64147.6,64.4438,-1817.33,0,0
64407.9,64.5932,-1808.03,0,0
64668.2,65.3102,-1799.6,0,0
64928.5,65.8107,-1791.68,0,0
65188.9,65.9929,-1783.65,0,0
65449.2,66.4175,-1775.77,0,0
65709.5,66.2298,-1767.7,0,0
65969.8,67.3469,-1759.27,0,0
66230.2,68.5894,-1752.25,0,0
66490.5,68.9251,-1744.9,0,0
66750.8,69.6025,-1737.82,0,0
67011.1,70.4619,-1730.56,0,0
67271.5,71.5294,-1723.61,0,0
67531.8,72.6791,-1717.43,0,0
67792.1,73.3765,-1711.55,0,0
68052.4,73.9061,-1705.84,0,0
68312.8,74.1166,-1700.22,0,0
68573.1,74.1305,-1695,0,0
68833.4,73.5653,-1690.49,0,0
69093.7,71.5449,-1685.3,0,0
69354.1,69.4653,-1679.07,0,0
69614.4,67.5738,-1672.05,0,0
69874.7,66.6668,-1664.43,0,0
70135,66.1763,-1657.62,0,0
70395.4,64.9614,-1650.69,0,0
70655.7,64.6704,-1642.84,0,0
70916,65.7361,-1636.27,0,0
71176.3,65.6033,-1630.79,0,0
71436.7,64.7258,-1625.03,0,0
71697,64.0662,-1618.9,0,0
71957.3,62.8058,-1613.1,0,0
72217.6,61.1122,-1606.58,0,0
72478,59.9486,-1599.41,0,0
72738.3,58.983,-1592.38,0,0
72998.6,58.1679,-1584.91,0,0
73258.9,57.813,-1577.34,0,0
73519.3,58.117,-1569.92,0,0
73779.6,58.3482,-1563.18,0,0
74039.9,58.695,-1556.23,0,0
74300.225,59.2472,-1549.8,0,0
74560.55,59.5573,-1543.29,0,0
74820.875,59.9672,-1537.03,0,0
75081.2,60.5918,-1530.63,0,0
75341.525,61.3039,-1524.73,0,0
75601.85,61.7312,-1519.1,0,0
75862.175,61.9336,-1513.36,0,0
76122.5,62.3277,-1507.47,0,0
76382.825,62.8278,-1502.06,0,0
76643.15,62.7395,-1496.63,0,0
76903.475,62.7397,-1490.66,0,0
77163.8,63.4734,-1484.48,0,0
77424.125,64.7497,-1479.26,0,0
77684.45,65.4319,-1474.61,0,0
77944.775,65.8503,-1470.16,0,0
78205.1,65.8148,-1465.86,0,0
78465.425,65.4214,-1461.35,0,0
78725.75,64.8954,-1456.79,0,0
78986.075,64.0183,-1451.93,0,0
79246.4,63.2369,-1446.84,0,0
79506.725,62.4147,-1441.56,0,0
79767.05,61.8666,-1436.06,0,0
80027.375,61.423,-1430.62,0,0
80287.7,61.1443,-1425.14,0,0
80548.025,60.8899,-1419.79,0,0
80808.35,60.8053,-1414.42,0,0
81068.675,60.7714,-1409.27,0,0
81329.0,60.6732,-1404.2,0,0
81589.325,60.4779,-1399.23,0,0
81849.65,60.1684,-1394.18,0,0
82109.975,59.9676,-1389.21,0,0
82370.3,59.6235,-1384.12,0,0
82630.625,59.4674,-1379.06,0,0
82890.95,59.2126,-1374.09,0,0
83151.275,59.025,-1369.18,0,0
83411.6,58.7171,-1364.19,0,0
83671.925,58.4555,-1359.16,0,0
83932.25,58.3993,-1354.23,0,0
84192.575,58.153,-1349.29,0,0
84452.9,57.9426,-1344.42,0,0
84713.225,57.7728,-1339.55,0,0
84973.55,57.7199,-1334.59,0,0
85233.875,57.5847,-1329.78,0,0
85494.2,57.5069,-1325.06,0,0
85754.525,57.3554,-1320.31,0,0
86014.85,57.078,-1315.53,0,0
86275.175,57.0461,-1310.8,0,0
86535.5,56.999,-1306.14,0,0
86795.825,56.7849,-1301.69,0,0
87056.15,56.6241,-1297.05,0,0
87316.475,56.4864,-1292.47,0,0
87576.8,56.387,-1288.01,0,0
87837.125,56.1013,-1283.64,0,0
88097.45,55.527,-1279.31,0,0
88357.775,54.9148,-1274.61,0,0
88618.1,54.3202,-1269.64,0,0
88878.425,54.2644,-1264.64,0,0
89138.75,54.175,-1259.93,0,0
89399.075,54.0261,-1255.22,0,0
89659.4,53.9938,-1250.38,0,0
89919.725,53.9902,-1245.74,0,0
90180,53.9571,-1241.08,0,0
90440.4,53.8925,-1236.56,0,0
90700.7,53.8703,-1232.03,0,0
90961,53.7223,-1227.51,0,0
91221.3,53.6402,-1222.85,0,0
91481.7,53.8666,-1218.19,0,0
91742,53.8939,-1213.55,0,0
92002.3,54.1457,-1208.98,0,0
92262.6,54.416,-1204.58,0,0
92523,54.7364,-1200.32,0,0
92783.3,54.9915,-1196.21,0,0
93043.6,55.2323,-1192.23,0,0
93303.9,55.2514,-1188.32,0,0
93564.3,55.0618,-1184.31,0,0
93824.6,54.9298,-1180.33,0,0
94084.9,54.6155,-1176.25,0,0
94345.2,54.2305,-1172.07,0,0
94605.6,53.9716,-1167.76,0,0
94865.9,53.6093,-1163.33,0,0
95126.2,53.466,-1158.8,0,0
95386.5,53.3589,-1154.28,0,0
95646.9,53.4092,-1149.79,0,0
95907.2,53.5199,-1145.24,0,0
96167.5,53.7253,-1140.84,0,0
96427.8,53.9377,-1136.49,0,0
96688.2,54.1854,-1132.22,0,0
96948.5,54.3316,-1127.97,0,0
97208.8,54.4804,-1123.73,0,0
97469.1,54.752,-1119.47,0,0
97729.5,54.9152,-1115.24,0,0
97989.8,55.1396,-1110.89,0,0
98250.1,55.514,-1106.61,0,0
98510.4,55.9405,-1102.43,0,0
98770.8,56.2735,-1098.11,0,0
99031.1,56.7811,-1093.86,0,0
99291.4,57.3879,-1089.61,0,0
99551.7,58.0968,-1085.59,0,0
99812.1,58.6998,-1081.64,0,0
100072,59.2517,-1077.59,0,0
100333,60.182,-1073.49,0,0
100593,61.3716,-1069.75,0,0
100853,62.5326,-1066.53,0,0
101114,63.1375,-1063.59,0,0
101374,63.7615,-1060.51,0,0
101634,64.2719,-1057.93,0,0
101895,64.0767,-1055.48,0,0
102155,63.1772,-1052.82,0,0
102415,61.9929,-1049.38,0,0
102676,60.9828,-1045.38,0,0
102936,60.0886,-1041.11,0,0
103196,59.3927,-1036.5,0,0
103457,59.0212,-1031.66,0,0
103717,59.0676,-1026.6,0,0
103977,59.4854,-1021.61,0,0
104238,60.2353,-1016.84,0,0
104498,60.977,-1012.18,0,0
104758,61.9328,-1007.54,0,0
105019,63.1502,-1003.06,0,0
105279,64.4626,-998.813,0,0
105539,65.7544,-994.718,0,0
105800,67.0479,-990.706,0,0
106060,68.439,-986.798,0,0
106320.175,69.8398,-983.047,0,0
106580.5,71.2739,-979.301,0,0
106840.825,72.7227,-975.795,0,0
107101.15,74.0963,-972.417,0,0
107361.475,75.3663,-968.943,0,0
107621.8,76.6319,-965.477,0,0
107882.125,78.0935,-961.921,0,0
108142.45,79.7246,-958.457,0,0
108402.775,81.4157,-955.141,0,0
108663.1,83.2415,-952.036,0,0
108923.425,85.0292,-949.164,0,0
109183.75,86.7538,-946.448,0,0
109444.075,88.5245,-943.878,0,0
109704.4,90.1286,-941.476,0,0
109964.725,91.5935,-939.103,0,0
110225.05,92.8898,-936.854,0,0
110485.375,94.2875,-934.592,0,0
110745.7,95.6738,-932.518,0,0
111006.025,96.7574,-930.383,0,0
111266.35,97.9256,-928.315,0,0
111526.675,99.0622,-926.305,0,0
111787.0,100.055,-924.237,0,0
112047.325,100.993,-922.232,0,0
112307.65,102.199,-920.292,0,0
112567.975,103.016,-918.526,0,0
112828.3,103.868,-916.743,0,0
113088.625,104.589,-914.971,0,0
113348.95,105.376,-913.288,0,0
113609.275,105.949,-911.7,0,0
113869.6,106.504,-909.998,0,0
114129.925,106.963,-908.285,0,0
114390.25,107.364,-906.711,0,0
114650.575,107.712,-905.018,0,0
114910.9,108.046,-903.348,0,0
115171.225,108.359,-901.892,0,0
115431.55,108.458,-900.415,0,0
115691.875,108.373,-898.814,0,0
115952.2,108.174,-897.203,0,0
116212.525,108.104,-895.505,0,0
116472.85,107.822,-893.845,0,0
116733.175,107.38,-892.095,0,0
116993.5,106.845,-890.21,0,0
117253.825,106.326,-888.135,0,0
117514.15,105.766,-885.977,0,0
117774.475,105.204,-883.676,0,0
118034.8,104.673,-881.14,0,0
118295.125,104.276,-878.441,0,0
118555.45,103.993,-875.605,0,0
118815.775,104.105,-872.504,0,0
119076.1,104.656,-869.539,0,0
119336.425,105.469,-866.719,0,0
119596.75,106.875,-864.187,0,0
119857.075,108.489,-862.488,0,0
120117.4,109.856,-861.68,0,0
120377.725,110.532,-861.394,0,0
120638.05,110.454,-861.287,0,0
120898.375,109.446,-861.046,0,0
121158.7,107.918,-860.154,0,0
121419.025,106.34,-858.641,0,0
121679.35,104.87,-856.762,0,0
121939.675,103.525,-854.62,0,0
122200.0,102.234,-852.297,0,0
122460,101.118,-849.83,0,0
122721,100.157,-847.197,0,0
122981,99.4647,-844.622,0,0
123241,98.7409,-842.17,0,0
123502,98.0241,-839.628,0,0
123762,97.3909,-837.097,0,0
124022,96.7682,-834.574,0,0
124283,96.1546,-832.064,0,0
124543,95.5219,-829.553,0,0
124803,94.8909,-826.936,0,0
125064,94.3762,-824.332,0,0
125324,93.9567,-821.788,0,0
125584,93.5224,-819.283,0,0
125845,93.0932,-816.863,0,0
126105,92.6456,-814.42,0,0
126365,92.1644,-812.232,0,0
126626,91.4207,-810.081,0,0
126886,90.5631,-807.723,0,0
127146,89.7099,-805.18,0,0
127406,88.8665,-802.633,0,0
127667,88.178,-800.054,0,0
127927,87.454,-797.69,0,0
128187,86.4465,-795.261,0,0
128448,85.2883,-792.737,0,0
128708,84.035,-789.89,0,0
128968,82.9159,-787.042,0,0
129229,81.7062,-784.054,0,0
129489,80.5385,-780.866,0,0
129749,79.4792,-777.578,0,0
130010,78.4109,-774.131,0,0
130270,77.5564,-770.645,0,0
130530,76.7845,-767.093,0,0
130791,76.0541,-763.571,0,0
131051,75.3427,-759.955,0,0
131311,74.6914,-756.293,0,0
131572,74.2171,-752.482,0,0
131832,73.93,-748.764,0,0
132092,73.6242,-745.156,0,0
132353,73.2193,-741.46,0,0
132613,73.0096,-737.688,0,0
132873,72.8786,-733.891,0,0
133134,72.8236,-730.165,0,0
133394,72.7767,-726.46,0,0
133654,72.7555,-722.742,0,0
133915,72.7947,-719.039,0,0
134175,72.9373,-715.218,0,0
134435,73.1078,-711.487,0,0
134696,73.3434,-707.772,0,0
134956,73.6181,-704.005,0,0
135216,73.9719,-700.275,0,0
135477,74.4335,-696.522,0,0
135737,74.9436,-692.881,0,0
135997,75.4561,-689.277,0,0
136258,75.9744,-685.781,0,0
136518,76.5302,-682.243,0,0
136778,77.132,-678.747,0,0
137039,77.7733,-675.273,0,0
137299,78.3771,-671.932,0,0
137559,78.8568,-668.713,0,0
137819,79.2636,-665.382,0,0
138080,79.5846,-661.979,0,0
138340.125,79.8762,-658.402,0,0
138600.45,80.2567,-654.776,0,0
138860.775,80.7677,-651.095,0,0
139121.1,81.2592,-647.307,0,0
139381.425,81.8957,-643.524,0,0
139641.75,82.6055,-639.769,0,0
139902.075,83.3179,-636.009,0,0
140162.4,84.1135,-632.199,0,0
140422.725,84.992,-628.374,0,0
140683.05,85.9444,-624.587,0,0
140943.375,86.9767,-620.799,0,0
141203.7,88.0597,-617.042,0,0
141464.025,89.2059,-613.353,0,0
141724.35,90.3681,-609.72,0,0
141984.675,91.4746,-606.1,0,0
142245.0,92.5968,-602.369,0,0
142505.325,93.8618,-598.666,0,0
142765.65,95.1334,-595.016,0,0
143025.975,96.3487,-591.314,0,0
143286.3,97.6792,-587.595,0,0
143546.625,99.0862,-583.883,0,0
143806.95,100.508,-580.198,0,0
144067.275,101.987,-576.511,0,0
144327.6,103.49,-572.798,0,0
144587.925,105.052,-569.083,0,0
144848.25,106.694,-565.348,0,0
145108.575,108.37,-561.676,0,0
145368.9,110.048,-557.974,0,0
145629.225,111.828,-554.162,0,0
145889.55,113.739,-550.443,0,0
146149.875,115.717,-546.688,0,0
146410.2,117.794,-542.985,0,0
146670.525,119.948,-539.348,0,0
146930.85,122.126,-535.819,0,0
147191.175,124.277,-532.27,0,0
147451.5,126.484,-528.7,0,0
147711.825,128.758,-525.173,0,0
147972.15,131.029,-521.663,0,0
148232.475,133.309,-518.046,0,0
148492.8,135.738,-514.366,0,0
148753.125,138.307,-510.698,0,0
149013.45,141.022,-507.062,0,0
149273.775,143.816,-503.497,0,0
149534.1,146.642,-499.93,0,0
149794.425,149.628,-496.304,0,0
150054.75,152.827,-492.793,0,0
150315.075,156.095,-489.325,0,0
150575.4,159.543,-485.928,0,0
150835.725,163.077,-482.675,0,0
151096.05,166.686,-479.391,0,0
151356.375,170.584,-476.198,0,0
151616.7,174.655,-473.281,0,0
151877.025,178.721,-470.587,0,0
152137.35,182.792,-467.935,0,0
152397.675,187.049,-465.301,0,0
152658.0,191.642,-462.96,0,0
152918.325,196.28,-461.086,0,0
153178.65,200.777,-459.512,0,0
153438.975,205.275,-458.096,0,0
153699.3,209.703,-456.993,0,0
153959.625,213.949,-456.259,0,0
154219.95,217.893,-455.659,0,0
154480,221.621,-455.186,0,0
154741,225.026,-454.727,0,0
155001,228.097,-454.269,0,0
155261,231.199,-453.249,0,0
155522,234.605,-452.322,0,0
155782,238.105,-451.626,0,0
156042,241.351,-451.18,0,0
156303,244.42,-450.741,0,0
156563,247.497,-450.419,0,0
156823,250.037,-449.991,0,0
157084,252.586,-449.049,0,0
157344,255.274,-448.025,0,0
157604,258.134,-446.985,0,0
157864,260.832,-445.699,0,0
158125,264.047,-443.937,0,0
158385,267.881,-442.378,0,0
158645,271.95,-441.523,0,0
158906,276.017,-440.666,0,0
159166,280.497,-439.946,0,0
159426,285.234,-439.905,0,0
159687,289.762,-440.337,0,0
159947,294.512,-441.34,0,0
160207,298.566,-443.278,0,0
160468,301.937,-445.28,0,0
160728,304.723,-447.331,0,0
160988,307.072,-449.343,0,0
161249,308.952,-451.286,0,0
161509,310.371,-453.16,0,0
161769,311.143,-454.421,0,0
162030,311.971,-455.009,0,0
162290,312.913,-455.342,0,0
162550,313.836,-455.561,0,0
162811,314.811,-455.527,0,0
163071,315.751,-455.065,0,0
163331,317.11,-454.448,0,0
163592,318.382,-453.667,0,0
163852,319.838,-452.72,0,0
164112,321.499,-451.257,0,0
164373,323.826,-449.814,0,0
164633,326.559,-448.576,0,0
164893,329.587,-447.548,0,0
165154,332.624,-446.737,0,0
165414,335.671,-446.165,0,0
165674,338.671,-445.36,0,0
165935,342.029,-444.488,0,0
166195,345.713,-443.593,0,0
166455,349.925,-442.666,0,0
166716,354.802,-442.004,0,0
166976,360.187,-442.039,0,0
167236,365.916,-442.78,0,0
167497,371.771,-444.313,0,0
167757,377.683,-446.676,0,0
168017,383.404,-449.774,0,0
168277,388.89,-453.83,0,0
168538,393.621,-458.725,0,0
168798,397.58,-463.851,0,0
169058,401.09,-469.146,0,0
169319,404.248,-474.788,0,0
169579,406.81,-480.942,0,0
169839,408.794,-487.167,0,0
170100,410.465,-493.727,0,0
170360.075,411.478,-500.991,0,0
170620.4,411.302,-508.834,0,0
170880.725,409.669,-516.595,0,0
171141.05,406.789,-523.911,0,0
171401.375,402.879,-530.438,0,0
171661.7,398.315,-536.117,0,0
171922.025,393.372,-541.045,0,0
172182.35,388.022,-545.383,0,0
172442.675,382.254,-549.071,0,0
172703.0,376.118,-552.066,0,0
172963.325,369.635,-554.258,0,0
173223.65,362.993,-555.582,0,0
173483.975,356.355,-556.08,0,0
173744.3,349.736,-555.71,0,0
174004.625,343.445,-554.485,0,0
174264.95,337.527,-552.744,0,0
174525.275,331.889,-550.421,0,0
174785.6,326.646,-547.519,0,0
175045.925,321.92,-544.274,0,0
175306.25,317.479,-540.754,0,0
175566.575,313.366,-536.801,0,0
175826.9,309.769,-532.48,0,0
176087.225,306.754,-527.934,0,0
176347.55,304.208,-523.377,0,0
176607.875,302.048,-518.785,0,0
176868.2,300.228,-514.077,0,0
177128.525,298.842,-509.325,0,0
177388.85,297.864,-504.665,0,0
177649.175,297.219,-500.099,0,0
177909.5,296.884,-495.698,0,0
178169.825,296.757,-491.542,0,0
178430.15,296.683,-487.561,0,0
178690.475,296.593,-483.55,0,0
178950.8,296.669,-479.511,0,0
179211.125,296.951,-475.45,0,0
179471.45,297.428,-471.5,0,0
179731.775,298.054,-467.634,0,0
179992.1,298.847,-463.936,0,0
180252.425,299.634,-460.401,0,0
180512.75,300.406,-456.924,0,0
180773.075,301.174,-453.482,0,0
181033.4,301.983,-450.022,0,0
181293.725,302.808,-446.621,0,0
181554.05,303.67,-443.226,0,0
181814.375,304.504,-439.881,0,0
182074.7,305.243,-436.522,0,0
182335.025,305.899,-433.02,0,0
182595.35,306.614,-429.385,0,0
182855.675,307.346,-425.626,0,0
183116.0,308.104,-421.74,0,0
183376.325,308.96,-417.653,0,0
183636.65,309.942,-413.394,0,0
183896.975,311.084,-408.996,0,0
184157.3,312.436,-404.502,0,0
184417.625,313.945,-399.908,0,0
184677.95,315.664,-395.234,0,0
184938.275,317.552,-390.526,0,0
185198.6,319.587,-385.729,0,0
185458.925,321.8,-380.829,0,0
185719.25,324.259,-375.849,0,0
185979.575,326.955,-370.842,0,0
186239.9,329.89,-365.804,0,0
186500,332.974,-360.77,0,0
186761,336.351,-355.698,0,0
187021,339.95,-350.67,0,0
187281,343.669,-345.571,0,0
187542,347.697,-340.482,0,0
187802,351.87,-335.336,0,0
188062,356.355,-330.08,0,0
188322,361.212,-325.014,0,0
188583,366.361,-319.855,0,0
188843,371.791,-314.847,0,0
189103,377.522,-309.842,0,0
189364,383.568,-304.93,0,0
189624,389.827,-300.048,0,0
189884,396.512,-295.289,0,0
190145,403.517,-290.653,0,0
190405,411.03,-286.192,0,0
190665,418.828,-282.022,0,0
190926,426.946,-278.157,0,0
191186,435.325,-274.515,0,0
191446,443.858,-271.144,0,0
191707,452.771,-268.024,0,0
191967,462.011,-265.115,0,0
192227,471.507,-262.754,0,0
192488,481.117,-260.776,0,0
192748,491.091,-258.935,0,0
193008,501.132,-257.601,0,0
193269,511.458,-256.719,0,0
193529,521.743,-256.361,0,0
193789,532.089,-256.327,0,0
194050,542.474,-256.572,0,0
194310,552.923,-257.142,0,0
194570,563.481,-258.032,0,0
194831,574.161,-259.305,0,0
195091,584.839,-260.961,0,0
195351,595.478,-262.994,0,0
195612,606.116,-265.252,0,0
195872,616.831,-267.693,0,0
196132,627.761,-270.396,0,0
196393,638.857,-273.487,0,0
196653,650.15,-276.945,0,0
196913,661.614,-280.762,0,0
197174,673.415,-285.055,0,0
197434,685.507,-290,0,0
197694,697.74,-295.762,0,0
197955,709.968,-302.321,0,0
198215,722.084,-309.72,0,0
198475,734.097,-317.868,0,0
198735,745.922,-326.793,0,0
198996,757.531,-336.447,0,0
199256,768.914,-347.171,0,0
199516,779.789,-358.958,0,0
199777,789.694,-371.643,0,0
200037,798.755,-384.726,0,0
200297,807.27,-398.422,0,0
200558,814.787,-412.821,0,0
200818,821.318,-427.518,0,0
201078,826.965,-442.642,0,0
201339,831.48,-457.987,0,0
201599,834.989,-473.173,0,0
201859,837.808,-488.489,0,0
202120,839.497,-503.788,0,0
202380.025,840.328,-518.837,0,0
202640.35,840.073,-533.572,0,0
202900.675,838.807,-547.493,0,0
203161.0,837.284,-560.36,0,0
203421.325,836.153,-572.997,0,0
203681.65,834.78,-585.761,0,0
203941.975,832.814,-598.543,0,0
204202.3,830.305,-611.042,0,0
204462.625,827.414,-623.166,0,0
204722.95,824.208,-634.889,0,0
204983.275,820.968,-646.38,0,0
205243.6,817.315,-658.149,0,0
205503.925,813.053,-669.62,0,0
205764.25,808.207,-680.236,0,0
206024.575,803.651,-690.347,0,0
206284.9,799.183,-700.485,0,0
206545.225,794.715,-710.596,0,0
206805.55,790.141,-720.881,0,0
207065.875,785.334,-731.47,0,0
207326.2,779.922,-742.437,0,0
207586.525,773.596,-753.621,0,0
207846.85,766.178,-764.561,0,0
208107.175,757.668,-774.972,0,0
208367.5,748.33,-784.433,0,0
208627.825,738.401,-792.986,0,0
208888.15,728.193,-800.533,0,0
209148.475,717.776,-807.087,0,0
209408.8,707.258,-812.643,0,0
209669.125,697.03,-817.31,0,0
209929.45,687.263,-821.34,0,0
210189.775,677.536,-824.727,0,0
210450.1,668.184,-827.533,0,0
210710.425,659.098,-829.99,0,0
210970.75,650.143,-831.948,0,0
211231.075,641.561,-833.467,0,0
211491.4,633.217,-834.538,0,0
211751.725,625.22,-835.104,0,0
212012.05,617.492,-835.307,0,0
212272.375,610.328,-835.012,0,0
212532.7,603.745,-834.499,0,0
212793.025,597.82,-833.944,0,0
213053.35,592.108,-833.479,0,0
213313.675,586.741,-832.811,0,0
213574.0,581.614,-831.931,0,0
213834.325,577.106,-830.78,0,0
214094.65,573.316,-829.719,0,0
214354.975,570.222,-829.03,0,0
214615.3,567.53,-828.553,0,0
214875.625,565.278,-828.525,0,0
215135.95,563.326,-829.281,0,0
215396.275,561.291,-830.586,0,0
215656.6,558.8,-832.394,0,0
215916.925,556.221,-834.51,0,0
216177.25,553.47,-836.605,0,0
216437.575,550.396,-839.17,0,0
216697.9,546.831,-841.665,0,0
216958.225,542.883,-843.872,0,0
217218.55,538.944,-845.878,0,0
217478.875,535.013,-847.692,0,0
217739.2,531.223,-849.537,0,0
217999.525,527.338,-851.274,0,0
218259.85,523.465,-853.179,0,0
218520,519.563,-854.968,0,0
218780,515.637,-856.746,0,0
219041,511.746,-858.53,0,0
219301,507.881,-860.366,0,0
219561,503.943,-862.352,0,0
219822,499.901,-864.404,0,0
220082,495.605,-866.476,0,0
220342,491.343,-868.641,0,0
220603,486.697,-870.596,0,0
220863,481.727,-872.646,0,0
221123,476.855,-874.307,0,0
221384,471.748,-875.93,0,0
221644,466.56,-877.361,0,0
221904,461.358,-878.667,0,0
222165,455.981,-879.707,0,0
222425,450.663,-880.561,0,0
222685,445.367,-881.252,0,0
222946,440.39,-881.782,0,0
223206,435.305,-882.517,0,0
223466,430.158,-882.935,0,0
223727,425.089,-883.419,0,0
223987,419.927,-883.786,0,0
224247,414.812,-884.139,0,0
224508,409.684,-884.482,0,0
224768,404.459,-884.77,0,0
225028,399.211,-885.157,0,0
225289,393.818,-885.361,0,0
225549,388.152,-885.584,0,0
225809,382.237,-885.593,0,0
226070,376.339,-885.289,0,0
226330,370.149,-884.639,0,0
226590,364.188,-883.673,0,0
226851,358.13,-882.497,0,0
227111,352.26,-881.003,0,0
227371,346.484,-879.448,0,0
227632,340.776,-877.663,0,0
227892,335.074,-875.729,0,0
228152,329.289,-873.45,0,0
228413,323.657,-871.005,0,0
228673,318.151,-868.154,0,0
228933,312.887,-865.133,0,0
229193,307.799,-861.888,0,0
229454,303.049,-858.358,0,0
229714,298.453,-854.721,0,0
229974,294.3,-850.949,0,0
230235,290.308,-847.19,0,0
230495,286.755,-843.397,0,0
230755,283.258,-839.622,0,0
231016,280.063,-835.841,0,0
231276,277.093,-832.126,0,0
231536,274.197,-828.53,0,0
231797,271.461,-824.945,0,0
232057,268.851,-821.353,0,0
232317,266.336,-817.75,0,0
232578,264.023,-814.183,0,0
232838,261.796,-810.673,0,0
233098,259.647,-807.067,0,0
233359,257.774,-803.528,0,0
233619,256.084,-800.033,0,0
233879,254.541,-796.712,0,0
234140,253.047,-793.479,0,0
234400,251.651,-790.291,0,0
234660.3,250.279,-787.175,0,0
234920.625,249.042,-784.03,0,0
235180.95,247.955,-780.94,0,0
235441.275,247.119,-778.087,0,0
235701.6,246.153,-775.498,0,0
235961.925,245.311,-772.976,0,0
236222.25,244.218,-770.396,0,0
236482.575,243.177,-767.826,0,0
236742.9,242.158,-765.234,0,0
237003.225,241.283,-762.631,0,0
237263.55,240.386,-760.049,0,0
237523.875,239.602,-757.41,0,0
237784.2,239.008,-754.787,0,0
238044.525,238.677,-752.333,0,0
238304.85,238.347,-749.922,0,0
238565.175,238.137,-747.799,0,0
238825.5,238.05,-745.716,0,0
239085.825,237.779,-743.995,0,0
239346.15,237.623,-742.169,0,0
239606.475,237.358,-740.51,0,0
239866.8,237.082,-738.957,0,0
240127.125,236.814,-737.454,0,0
240387.45,236.49,-736.258,0,0
240647.775,235.955,-735.026,0,0
240908.1,235.466,-733.814,0,0
241168.425,234.78,-732.654,0,0
241428.75,234.203,-731.532,0,0
241689.075,233.483,-730.362,0,0
241949.4,232.76,-729.218,0,0
242209.725,231.995,-728.132,0,0
242470.05,231.133,-727.17,0,0
242730.375,230.198,-726.123,0,0
242990.7,229.17,-725.016,0,0
243251.025,228.08,-723.96,0,0
243511.35,226.973,-722.855,0,0
243771.675,225.774,-721.71,0,0
244032.0,224.503,-720.573,0,0
244292.325,223.15,-719.315,0,0
244552.65,221.765,-718.006,0,0
244812.975,220.307,-716.558,0,0
245073.3,218.795,-715.006,0,0
245333.625,217.462,-713.345,0,0
245593.95,216.208,-711.653,0,0
245854.275,214.896,-709.835,0,0
246114.6,213.635,-707.843,0,0
246374.925,212.496,-705.899,0,0
246635.25,211.498,-703.896,0,0
246895.575,210.535,-701.834,0,0
247155.9,209.719,-699.795,0,0
247416.225,209.124,-697.745,0,0
247676.55,208.688,-695.822,0,0
247936.875,208.256,-694.052,0,0
248197.2,207.763,-692.488,0,0
248457.525,207.314,-690.903,0,0
248717.85,206.689,-689.456,0,0
248978.175,206.089,-688.025,0,0
249238.5,205.322,-686.609,0,0
249498.825,204.553,-685.101,0,0
249759.15,203.789,-683.636,0,0
250019.475,203.046,-682.157,0,0
250279.8,202.24,-680.445,0,0
250540,201.493,-679.016,0,0
250800,200.7,-677.538,0,0
251061,199.848,-676.076,0,0
251321,198.907,-674.654,0,0
251581,197.897,-673.213,0,0
251842,196.793,-671.74,0,0
252102,195.515,-670.183,0,0
252362,194.119,-668.506,0,0
252623,192.639,-666.674,0,0
252883,191.056,-664.521,0,0
253143,189.5,-662.196,0,0
253404,188.094,-659.518,0,0
253664,186.847,-656.725,0,0
253924,185.766,-653.813,0,0
254185,184.905,-650.793,0,0
254445,184.123,-647.807,0,0
254705,183.375,-644.786,0,0
254966,182.628,-641.417,0,0
255226,182.591,-637.734,0,0
255486,182.095,-634.546,0,0
255747,181.773,-631.221,0,0
256007,181.747,-627.488,0,0
256267,182.063,-623.649,0,0
256528,182.682,-619.869,0,0
256788,183.465,-616.115,0,0
257048,184.574,-612.375,0,0
257309,185.764,-608.736,0,0
257569,187.193,-605.134,0,0
257829,188.854,-601.506,0,0
258090,190.757,-597.966,0,0
258350,192.9,-594.557,0,0
258610,195.173,-591.223,0,0
258871,197.709,-587.97,0,0
259131,200.511,-584.76,0,0
259391,203.667,-581.728,0,0
259651,207.117,-579.008,0,0
259912,210.715,-576.625,0,0
260172,214.475,-574.535,0,0
260432,218.33,-572.657,0,0
260693,222.186,-571.115,0,0
260953,226.183,-569.775,0,0
261213,230.317,-568.807,0,0
261474,234.431,-568.193,0,0
261734,238.45,-567.831,0,0
261994,242.339,-567.583,0,0
262255,246.395,-567.478,0,0
262515,250.476,-567.669,0,0
262775,254.601,-568.132,0,0
263036,258.805,-568.904,0,0
263296,262.926,-570.145,0,0
263556,266.922,-571.723,0,0
263817,270.71,-573.605,0,0
264077,274.308,-575.649,0,0
264337,277.752,-577.929,0,0
264598,281.153,-580.385,0,0
264858,284.356,-583.153,0,0
265118,287.421,-586.219,0,0
265379,290.225,-589.532,0,0
265639,292.658,-593.041,0,0
265899,295.012,-596.73,0,0
266160,297.126,-600.746,0,0
266420,298.882,-605.135,0,0
266680.25,300.044,-609.634,0,0
266940.575,300.576,-614.275,0,0
267200.9,300.688,-618.786,0,0
267461.225,300.362,-623.06,0,0
267721.55,299.851,-627.088,0,0
267981.875,299.161,-630.996,0,0
268242.2,298.266,-634.82,0,0
268502.525,297.227,-638.561,0,0
268762.85,295.95,-642.507,0,0
269023.175,294.24,-646.417,0,0
269283.5,292.04,-650.205,0,0
269543.825,289.392,-653.692,0,0
269804.15,286.245,-656.665,0,0
270064.475,282.904,-659.023,0,0
270324.8,279.674,-660.797,0,0
270585.125,276.649,-662.061,0,0
270845.45,273.87,-662.996,0,0
271105.775,271.449,-663.716,0,0
271366.1,269.429,-664.303,0,0
271626.425,267.773,-665.001,0,0
271886.75,266.301,-666.048,0,0
272147.075,264.867,-667.356,0,0
272407.4,263.251,-668.823,0,0
272667.725,261.49,-670.406,0,0
272928.05,259.494,-672.06,0,0
273188.375,257.35,-673.62,0,0
273448.7,255.092,-675.182,0,0
273709.025,252.732,-676.71,0,0
273969.35,250.335,-678.271,0,0
274229.675,247.635,-679.918,0,0
274490.0,244.683,-681.49,0,0
274750.325,241.438,-682.943,0,0
275010.65,237.914,-684.299,0,0
275270.975,234.142,-685.199,0,0
275531.3,230.168,-685.899,0,0
275791.625,226.105,-686.213,0,0
276051.95,221.968,-686.225,0,0
276312.275,217.802,-685.86,0,0
276572.6,213.601,-685.098,0,0
276832.925,209.551,-684.017,0,0
277093.25,205.571,-682.603,0,0
277353.575,201.783,-680.831,0,0
277613.9,198.066,-678.779,0,0
277874.225,194.692,-676.385,0,0
278134.55,191.562,-673.646,0,0
278394.875,188.816,-670.701,0,0
278655.2,186.496,-667.687,0,0
278915.525,184.509,-664.548,0,0
279175.85,182.953,-661.349,0,0
279436.175,181.84,-658.261,0,0
279696.5,181.075,-655.329,0,0
279956.825,180.645,-652.642,0,0
280217.15,180.393,-650.262,0,0
280477.475,180.283,-648.154,0,0
280737.8,180.208,-646.295,0,0
280998.125,180.106,-644.683,0,0
281258.45,179.891,-643.164,0,0
281518.775,179.623,-641.889,0,0
281779.1,179.151,-640.6,0,0
282039.425,178.603,-639.276,0,0
282299.75,178.051,-637.777,0,0
282560,177.612,-636.15,0,0
282820,177.331,-634.447,0,0
283081,177.327,-632.829,0,0
283341,177.585,-631.34,0,0
283601,177.929,-630.197,0,0
283862,178.238,-629.332,0,0
284122,178.341,-628.692,0,0
284382,178.356,-628.128,0,0
284643,178.159,-627.637,0,0
284903,177.893,-627.117,0,0
285163,177.572,-626.552,0,0
285424,177.135,-626.093,0,0
285684,176.653,-625.621,0,0
285944,176.035,-625.215,0,0
286205,175.218,-624.815,0,0
286465,174.126,-624.343,0,0
286725,172.908,-623.567,0,0
286986,171.617,-622.523,0,0
287246,170.357,-621.211,0,0
287506,169.194,-619.708,0,0
287767,168.109,-618.023,0,0
288027,167.122,-616.086,0,0
288287,166.308,-613.953,0,0
288548,165.756,-611.631,0,0
288808,165.445,-609.122,0,0
289068,165.515,-606.493,0,0
289329,165.931,-603.78,0,0
289589,166.801,-601.115,0,0
289849,168.097,-598.599,0,0
290109,169.835,-596.337,0,0
290370,171.861,-594.376,0,0
290630,174.128,-592.783,0,0
290890,176.601,-591.589,0,0
291151,179.178,-590.818,0,0
291411,181.769,-590.502,0,0
291671,184.361,-590.551,0,0
291932,186.849,-591.014,0,0
292192,189.173,-591.796,0,0
292452,191.354,-592.881,0,0
292713,193.408,-594.215,0,0
292973,195.284,-595.911,0,0
293233,196.926,-597.905,0,0
293494,198.251,-600.182,0,0
293754,199.222,-602.667,0,0
294014,199.79,-605.306,0,0
294275,200.004,-608.002,0,0
294535,199.85,-610.781,0,0
294795,199.254,-613.563,0,0
295056,198.211,-616.255,0,0
295316,196.824,-618.78,0,0
295576,195.098,-621.053,0,0
295837,193.116,-623.088,0,0
296097,190.904,-624.878,0,0
296357,188.557,-626.316,0,0
296618,186.1,-627.466,0,0
296878,183.601,-628.323,0,0
297138,181.118,-628.893,0,0
297399,178.703,-629.214,0,0
297659,176.368,-629.325,0,0
297919,174.137,-629.297,0,0
298180,172.005,-629.15,0,0
298440,169.991,-628.851,0,0
298700.2,168.072,-628.518,0,0
298960.525,166.254,-628.174,0,0
299220.85,164.486,-627.792,0,0
299481.175,162.723,-627.388,0,0
299741.5,161.004,-626.961,0,0
300001.825,159.339,-626.505,0,0
300262.15,157.665,-626.012,0,0
300522.475,156.037,-625.503,0,0
300782.8,154.408,-624.956,0,0
301043.125,152.713,-624.349,0,0
301303.45,151.036,-623.712,0,0
301563.775,149.377,-622.964,0,0
301824.1,147.744,-622.138,0,0
302084.425,146.148,-621.189,0,0
302344.75,144.653,-620.218,0,0
302605.075,143.224,-619.201,0,0
302865.4,141.925,-618.166,0,0
303125.725,140.647,-617.165,0,0
303386.05,139.347,-616.177,0,0
303646.375,138.049,-615.119,0,0
303906.7,136.781,-613.979,0,0
304167.025,135.601,-612.803,0,0
304427.35,134.509,-611.608,0,0
304687.675,133.471,-610.424,0,0
304948.0,132.431,-609.187,0,0
305208.325,131.509,-607.962,0,0
305468.65,130.62,-606.687,0,0
305728.975,129.836,-605.428,0,0
305989.3,129.099,-604.22,0,0
306249.625,128.42,-602.973,0,0
306509.95,127.798,-601.759,0,0
306770.275,127.272,-600.534,0,0
307030.6,126.83,-599.376,0,0
307290.925,126.454,-598.301,0,0
307551.25,126.098,-597.305,0,0
307811.575,125.756,-596.358,0,0
308071.9,125.422,-595.51,0,0
308332.225,125.083,-594.729,0,0
308592.55,124.729,-593.955,0,0
308852.875,124.337,-593.26,0,0
309113.2,123.942,-592.592,0,0
309373.525,123.492,-591.984,0,0
309633.85,123.006,-591.376,0,0
309894.175,122.474,-590.788,0,0
310154.5,121.905,-590.212,0,0
310414.825,121.306,-589.638,0,0
310675.15,120.661,-589.06,0,0
310935.475,119.942,-588.451,0,0
311195.8,119.213,-587.734,0,0
311456.125,118.495,-587.022,0,0
311716.45,117.778,-586.259,0,0
311976.775,117.078,-585.462,0,0
312237.1,116.384,-584.639,0,0
312497.425,115.713,-583.793,0,0
312757.75,115.062,-582.932,0,0
313018.075,114.437,-582.026,0,0
313278.4,113.861,-581.102,0,0
313538.725,113.332,-580.157,0,0
313799.05,112.852,-579.237,0,0
314059.375,112.388,-578.307,0,0
314319.7,112.032,-577.404,0,0
314580,111.626,-576.5,0,0
314840,111.297,-575.631,0,0
315101,110.922,-574.848,0,0
315361,110.687,-574.079,0,0
315621,110.524,-573.323,0,0
315882,110.232,-572.635,0,0
316142,109.939,-572.041,0,0
316402,109.671,-571.401,0,0
316663,109.465,-570.8,0,0
316923,109.099,-570.273,0,0
317183,108.91,-569.803,0,0
317444,108.634,-569.397,0,0
317704,108.333,-568.845,0,0
317964,107.95,-568.479,0,0
318225,107.55,-568.049,0,0
318485,107.117,-567.739,0,0
318745,106.669,-567.444,0,0
319006,106.173,-567.102,0,0
319266,105.695,-566.774,0,0
319526,105.083,-566.658,0,0
319787,104.425,-566.452,0,0
320047,103.793,-566.197,0,0
320307,103.005,-565.885,0,0
320567,102.146,-565.72,0,0
320828,101.259,-565.504,0,0
321088,100.314,-565.234,0,0
321348,99.2242,-564.961,0,0
321609,98.0359,-564.591,0,0
321869,96.7594,-564.142,0,0
322129,95.448,-563.618,0,0
322390,94.0939,-562.927,0,0
322650,92.6552,-562.211,0,0
322910,91.1127,-561.19,0,0
323171,89.8607,-560.093,0,0
323431,88.4354,-558.869,0,0
323691,87.312,-557.412,0,0
323952,86.2167,-556.067,0,0
324212,85.278,-554.487,0,0
324472,84.4856,-552.997,0,0
324733,83.7423,-551.482,0,0
324993,83.1414,-550.039,0,0
325253,82.5382,-548.718,0,0
325514,82.0581,-547.305,0,0
325774,81.4899,-545.991,0,0
326034,80.9468,-544.635,0,0
326295,80.4776,-543.376,0,0
326555,80.0399,-542.053,0,0
326815,79.5053,-540.716,0,0
327076,79.0408,-539.334,0,0
327336,78.6225,-537.992,0,0
327596,78.1843,-536.67,0,0
327857,77.8889,-535.31,0,0
328117,77.524,-533.947,0,0
328377,77.1866,-532.465,0,0
328638,76.8965,-531.091,0,0
328898,76.702,-529.64,0,0
329158,76.5543,-528.148,0,0
329419,76.5494,-526.691,0,0
329679,76.5653,-525.255,0,0
329939,76.6203,-523.842,0,0
330200,76.8378,-522.426,0,0
330460,77.0356,-521.24,0,0
330720.15,77.3465,-519.969,0,0
330980.475,77.6753,-518.837,0,0
331240.8,78.0659,-517.854,0,0
331501.125,78.3817,-516.889,0,0
331761.45,78.6484,-515.995,0,0
332021.775,78.9568,-515.189,0,0
332282.1,79.2567,-514.442,0,0
332542.425,79.479,-513.753,0,0
332802.75,79.666,-513.108,0,0
333063.075,79.7508,-512.524,0,0
333323.4,79.8435,-511.926,0,0
333583.725,79.9219,-511.339,0,0
333844.05,79.8543,-510.889,0,0
334104.375,79.7271,-510.245,0,0
334364.7,79.5466,-509.735,0,0
334625.025,79.4055,-509.18,0,0
334885.35,79.108,-508.499,0,0
335145.675,78.9173,-507.896,0,0
335406.0,78.574,-507.173,0,0
335666.325,78.2085,-506.451,0,0
335926.65,77.8661,-505.724,0,0
336186.975,77.4817,-504.84,0,0
336447.3,77.107,-503.995,0,0
336707.625,76.6877,-503.004,0,0
336967.95,76.324,-502.06,0,0
337228.275,75.9943,-500.984,0,0
337488.6,75.6611,-499.787,0,0
337748.925,75.4958,-498.658,0,0
338009.25,75.3252,-497.415,0,0
338269.575,75.1203,-496.156,0,0
338529.9,75.1362,-494.927,0,0
338790.225,75.1259,-493.649,0,0
339050.55,75.1691,-492.42,0,0
339310.875,75.3066,-491.167,0,0
339571.2,75.4653,-489.859,0,0
339831.525,75.6752,-488.666,0,0
340091.85,75.9852,-487.378,0,0
340352.175,76.3449,-486.085,0,0
340612.5,76.8199,-484.84,0,0
340872.825,77.3445,-483.698,0,0
341133.15,77.9008,-482.483,0,0
341393.475,78.644,-481.41,0,0
341653.8,79.418,-480.374,0,0
341914.125,80.1862,-479.439,0,0
342174.45,81.0926,-478.637,0,0
342434.775,82.0108,-477.875,0,0
342695.1,82.9857,-477.314,0,0
342955.425,83.9388,-476.88,0,0
343215.75,84.8188,-476.547,0,0
343476.075,85.6523,-476.388,0,0
343736.4,86.4164,-476.297,0,0
343996.725,87.1415,-476.264,0,0
344257.05,87.7846,-476.269,0,0
344517.375,88.2172,-476.464,0,0
344777.7,88.6387,-476.572,0,0
345038.025,88.963,-476.695,0,0
345298.35,89.2001,-476.886,0,0
345558.675,89.3513,-477.006,0,0
345819.0,89.4466,-477.119,0,0
346079.325,89.4394,-477.269,0,0
346339.65,89.323,-477.358,0,0
346599.975,89.2326,-477.484,0,0
346860,89.042,-477.479,0,0
347121,88.8362,-477.515,0,0
347381,88.5688,-477.529,0,0
347641,88.2569,-477.371,0,0
347902,87.9447,-477.306,0,0
348162,87.6726,-477.159,0,0
348422,87.3193,-476.996,0,0
348683,86.8414,-476.775,0,0
348943,86.4232,-476.469,0,0
349203,86.0489,-476.246,0,0
349464,85.5811,-475.907,0,0
349724,85.1374,-475.496,0,0
349984,84.7101,-475.104,0,0
350245,84.2656,-474.654,0,0
350505,83.8464,-474.174,0,0
350765,83.44,-473.631,0,0
351025,83.0581,-473.049,0,0
351286,82.589,-472.409,0,0
351546,82.2854,-471.833,0,0
351806,81.9068,-471.174,0,0
352067,81.5683,-470.399,0,0
352327,81.21,-469.761,0,0
352587,80.9618,-469.012,0,0
352848,80.6962,-468.157,0,0
353108,80.5076,-467.34,0,0
353368,80.3619,-466.55,0,0
353629,80.2629,-465.694,0,0
353889,80.2954,-464.878,0,0
354149,80.3252,-464.098,0,0
354410,80.5097,-463.34,0,0
354670,80.6365,-462.695,0,0
354930,80.7761,-462.142,0,0
355191,80.9506,-461.581,0,0
355451,81.0089,-461.17,0,0
355711,81.0915,-460.755,0,0
355972,81.1018,-460.329,0,0
356232,81.067,-459.84,0,0
356492,81.0383,-459.484,0,0
356753,80.9867,-459.139,0,0
357013,80.8531,-458.749,0,0
357273,80.7256,-458.349,0,0
357534,80.5528,-457.968,0,0
357794,80.2676,-457.6,0,0
358054,79.9682,-457.093,0,0
358315,79.6607,-456.632,0,0
358575,79.3328,-456.092,0,0
358835,78.9316,-455.464,0,0
359096,78.585,-454.706,0,0
359356,78.2178,-454.02,0,0
359616,77.9815,-453.138,0,0
359877,77.7811,-452.25,0,0
360137,77.6279,-451.33,0,0
360397,77.5764,-450.462,0,0
360658,77.5456,-449.65,0,0
360918,77.4884,-448.761,0,0
361178,77.5581,-447.882,0,0
361438,77.6209,-446.977,0,0
361699,77.7238,-446.154,0,0
361959,77.8982,-445.346,0,0
362219,78.1002,-444.5,0,0
362480,78.4018,-443.781,0,0
362740.1,78.6195,-443.057,0,0
363000.425,78.8697,-442.385,0,0
363260.75,79.1351,-441.786,0,0
363521.075,79.3885,-441.263,0,0
363781.4,79.6184,-440.731,0,0
364041.725,79.7659,-440.21,0,0
364302.05,79.9025,-439.751,0,0
364562.375,79.9423,-439.244,0,0
364822.7,79.9729,-438.725,0,0
365083.025,79.9843,-438.126,0,0
365343.35,79.9314,-437.501,0,0
365603.675,79.9173,-436.819,0,0
365864.0,79.9246,-436.074,0,0
366124.325,79.9407,-435.342,0,0
366384.65,79.9759,-434.482,0,0
366644.975,80.0463,-433.62,0,0
366905.3,80.2346,-432.758,0,0
367165.625,80.4672,-431.828,0,0
367425.95,80.7587,-430.859,0,0
367686.275,81.1061,-429.93,0,0
367946.6,81.5469,-428.986,0,0
368206.925,82.0102,-428.162,0,0
368467.25,82.5903,-427.266,0,0
368727.575,83.1644,-426.41,0,0
368987.9,83.8631,-425.672,0,0
369248.225,84.6064,-424.855,0,0
369508.55,85.3646,-424.094,0,0
369768.875,86.2392,-423.445,0,0
370029.2,87.2004,-422.901,0,0
370289.525,88.0776,-422.313,0,0
370549.85,89.086,-421.891,0,0
370810.175,90.1193,-421.591,0,0
371070.5,91.1749,-421.318,0,0
371330.825,92.2371,-421.172,0,0
371591.15,93.3207,-421.126,0,0
371851.475,94.4238,-421.231,0,0
372111.8,95.4576,-421.459,0,0
372372.125,96.3998,-421.79,0,0
372632.45,97.2854,-422.32,0,0
372892.775,98.087,-422.919,0,0
373153.1,98.7551,-423.519,0,0
373413.425,99.3044,-424.256,0,0
373673.75,99.6448,-425.011,0,0
373934.075,99.8609,-425.776,0,0
374194.4,100.017,-426.509,0,0
374454.725,100.022,-427.169,0,0
374715.05,99.926,-427.829,0,0
374975.375,99.7574,-428.297,0,0
375235.7,99.5023,-428.78,0,0
375496.025,99.317,-429.185,0,0
375756.35,99.0089,-429.522,0,0
376016.675,98.6997,-429.789,0,0
376277.0,98.438,-429.946,0,0
376537.325,98.1646,-430.132,0,0
376797.65,97.8552,-430.292,0,0
377057.975,97.6266,-430.381,0,0
377318.3,97.3265,-430.506,0,0
377578.625,97.1508,-430.601,0,0
377838.95,96.8901,-430.696,0,0
378099.275,96.673,-430.797,0,0
378359.6,96.4724,-430.906,0,0
378619.925,96.1692,-430.999,0,0
378880,95.8263,-431.102,0,0
379141,95.5264,-431.145,0,0
379401,95.2361,-431.153,0,0
379661,94.9001,-431.133,0,0
379922,94.563,-431.148,0,0
380182,94.2875,-431.12,0,0
380442,93.9727,-431.11,0,0
380703,93.6254,-431.112,0,0
380963,93.2994,-431.05,0,0
381223,92.9223,-430.965,0,0
381483,92.5578,-430.774,0,0
381744,92.1825,-430.574,0,0
382004,92.0122,-430.302,0,0
382264,91.8992,-430.012,0,0
382525,91.8618,-429.799,0,0
382785,91.9148,-429.716,0,0
383045,92.0047,-429.712,0,0
383306,92.098,-429.828,0,0
383566,92.095,-430.136,0,0
383826,92.0712,-430.526,0,0
384087,91.8461,-431.004,0,0
384347,91.4778,-431.491,0,0
384607,90.969,-432.051,0,0
384868,90.3004,-432.526,0,0
385128,89.5283,-432.938,0,0
385388,88.6154,-433.325,0,0
385649,87.626,-433.508,0,0
385909,86.5771,-433.596,0,0
386169,85.451,-433.568,0,0
386430,84.3482,-433.398,0,0
386690,83.2241,-433.138,0,0
386950,82.0565,-432.731,0,0
387211,81.0022,-432.206,0,0
387471,79.9745,-431.521,0,0
387731,79.0633,-430.726,0,0
387992,78.1968,-429.864,0,0
388252,77.3822,-428.909,0,0
388512,76.827,-427.963,0,0
388773,76.3309,-426.944,0,0
389033,76.0162,-425.964,0,0
389293,75.7757,-425.021,0,0
389554,75.6444,-424.128,0,0
389814,75.6473,-423.29,0,0
390074,75.6684,-422.49,0,0
390335,75.811,-421.844,0,0
390595,75.9746,-421.28,0,0
390855,76.2037,-420.894,0,0
391116,76.3782,-420.612,0,0
391376,76.5815,-420.448,0,0
391636,76.6294,-420.463,0,0
391896,76.5974,-420.501,0,0
392157,76.4233,-420.603,0,0
392417,76.1244,-420.813,0,0
392677,75.6492,-420.968,0,0
392938,75.0527,-421.082,0,0
393198,74.3387,-421.183,0,0
393458,73.5667,-421.135,0,0
393719,72.7161,-420.916,0,0
393979,71.8226,-420.673,0,0
394239,70.9035,-420.279,0,0
394500,69.9775,-419.805,0,0
394760.05,69.1468,-419.248,0,0
395020.375,68.322,-418.641,0,0
395280.7,67.4995,-417.921,0,0
395541.025,66.7165,-417.181,0,0
395801.35,65.9651,-416.366,0,0
396061.675,65.2779,-415.533,0,0
396322.0,64.6984,-414.625,0,0
396582.325,64.1375,-413.751,0,0
396842.65,63.6029,-412.8,0,0
397102.975,63.1124,-411.897,0,0
397363.3,62.7058,-410.961,0,0
397623.625,62.2969,-410.08,0,0
397883.95,61.8494,-409.147,0,0
398144.275,61.4837,-408.247,0,0
398404.6,61.1696,-407.294,0,0
398664.925,60.8483,-406.342,0,0
398925.25,60.5457,-405.354,0,0
399185.575,60.2581,-404.421,0,0
399445.9,60.0239,-403.417,0,0
399706.225,59.7756,-402.415,0,0
399966.55,59.6582,-401.433,0,0
400006.6,59.612,-401.294,0,0