File: Accelerated corrosion test data/2025-10-06_14-56-48/sample_8.csv
Frequency (Hz),Impedance (ohms),Phase (Radians),Temperature (C),Humidity (%)
10000.0,315.441,-10893,0,0
10260.325,307.593,-10619.5,0,0
10520.65,299.907,-10360.1,0,0
10780.975,292.326,-10113.2,0,0
11041.3,286.11,-9877.71,0,0
11301.625,279.226,-9653.62,0,0
11561.95,273.833,-9438.21,0,0
11822.275,267.675,-9232.79,0,0
12082.6,265.935,-9034.78,0,0
12342.925,262.456,-8850.48,0,0
12603.25,257.467,-8670.05,0,0
12863.575,253.088,-8500.59,0,0
13123.9,244.16,-8336.41,0,0
13384.225,238.055,-8175.23,0,0
13644.55,235.023,-8021.33,0,0
13904.875,228.125,-7873.71,0,0
14165.2,223.14,-7730.27,0,0
14425.525,220.07,-7591.78,0,0
14685.8,215.449,-7458,0,0
14946.175,211.26,-7329.58,0,0
15206.5,208.02,-7205.28,0,0
15466.825,204.64,-7085.9,0,0
15727.15,201.148,-6969.49,0,0
15987.5,198.17,-6857.2,0,0
16247.8,195.18,-6748.58,0,0
16508.125,191.953,-6643.27,0,0
16768.45,188.831,-6540.92,0,0
17028.775,185.839,-6441.96,0,0
17289.1,183.192,-6345.45,0,0
17549.425,180.401,-6251.53,0,0
17809.75,177.721,-6160.52,0,0
18070.075,176.498,-6073.28,0,0
18330.4,173.155,-5986.92,0,0
18590.725,171.34,-5902.46,0,0
18851.05,171.348,-5819.9,0,0
19111.375,169.544,-5741.6,0,0
19371.7,172.225,-5665.52,0,0
19632.025,168.181,-5592.72,0,0
19892.35,165.205,-5523.21,0,0
20152.675,162.528,-5450.55,0,0
20413.0,161.756,-5381.15,0,0
20673.3,161.147,-5314.39,0,0
20933.65,159.312,-5251.3,0,0
21193.975,156.221,-5188.24,0,0
21454.3,154.061,-5124.59,0,0
21714.625,152.331,-5062.76,0,0
21974.9,151.927,-5003.86,0,0
22235.275,152.134,-4945.99,0,0
22495.6,149.765,-4889.83,0,0
22755.925,148.058,-4835.83,0,0
23016.25,146.09,-4781.26,0,0
23276.6,142.316,-4729.71,0,0
23536.9,140.487,-4676.85,0,0
23797.225,138.851,-4626.39,0,0
24057.55,137.234,-4575.75,0,0
24317.875,135.584,-4527.01,0,0
24578.2,133.597,-4478.61,0,0
24838.525,132.448,-4431.3,0,0
25098.85,131.436,-4385.28,0,0
25359.175,129.729,-4340.76,0,0
25619.5,128.694,-4295.78,0,0
25879.8,127.536,-4252.16,0,0
26140.1,126.199,-4210.42,0,0
26400.5,125.911,-4168.48,0,0
26660.8,123.637,-4127.93,0,0
26921.1,123.406,-4086.61,0,0
27181.4,123.302,-4047.85,0,0
27441.8,122.224,-4009.21,0,0
27702.1,121.784,-3972.2,0,0
27962.4,119.853,-3935.09,0,0
28222.7,120.162,-3897.8,0,0
28483.1,119.201,-3862.36,0,0
28743.4,119.146,-3826.76,0,0
29003.7,118.366,-3792.91,0,0
29264,118.401,-3758.27,0,0
29524.4,117.547,-3725.35,0,0
29784.7,117.502,-3692.41,0,0
30045,117.402,-3661.25,0,0
30305.3,117.036,-3630,0,0
30565.7,116.299,-3599.43,0,0
30826,115.748,-3569.16,0,0
31086.3,114.975,-3539.36,0,0
31346.6,114.665,-3509.6,0,0
31607,113.812,-3480.28,0,0
31867.3,113.624,-3452.09,0,0
32127.6,113.465,-3424.43,0,0
32387.9,112.859,-3396.38,0,0
32648.3,112.9,-3369,0,0
32908.6,113.666,-3341.6,0,0
33168.9,113.585,-3315.95,0,0
33429.2,115.029,-3290.6,0,0
33689.6,115.989,-3266.88,0,0
33949.9,115.296,-3243.9,0,0
34210.2,114.559,-3220.49,0,0
34470.5,113.466,-3197.2,0,0
34730.9,112.769,-3173.59,0,0
34991.2,112.433,-3151.03,0,0
35251.5,111.431,-3129.51,0,0
35511.8,109.952,-3107.55,0,0
35772.2,108.375,-3086.06,0,0
36032.5,106.93,-3064.44,0,0
36292.8,105.222,-3043.2,0,0
36553.1,103.539,-3021.56,0,0
36813.5,102.154,-3000.64,0,0
37073.8,101.351,-2979.26,0,0
37334.1,99.9063,-2958.53,0,0
37594.4,98.0273,-2938.09,0,0
37854.8,96.8893,-2917.83,0,0
38115.1,95.4943,-2897.81,0,0
38375.4,94.1755,-2877.99,0,0
38635.7,93.0117,-2858.22,0,0
38896.1,91.8878,-2838.59,0,0
39156.4,90.6473,-2819.27,0,0
39416.7,89.6523,-2799.96,0,0
39677,88.6918,-2780.95,0,0
39937.4,87.5812,-2762.31,0,0
40197.7,86.6784,-2743.11,0,0
40458,86.742,-2724.74,0,0
40718.3,86.4248,-2707.09,0,0
40978.7,85.8275,-2689.6,0,0
41239,85.1435,-2672.11,0,0
41499.3,84.702,-2654.65,0,0
41759.6,84.2681,-2637.65,0,0
42020,83.7628,-2621.15,0,0
42280.275,83.2761,-2604.4,0,0
42540.6,82.8086,-2587.6,0,0
42800.925,82.7013,-2571.41,0,0
43061.25,82.693,-2555.35,0,0
43321.575,82.8503,-2539.84,0,0
43581.9,82.7898,-2524.76,0,0
43842.225,82.1924,-2510.19,0,0
44102.55,81.2796,-2495.07,0,0
44362.875,80.7035,-2480.19,0,0
44623.2,80.3065,-2465.43,0,0
44883.525,79.3176,-2450.79,0,0
45143.85,78.8531,-2436.16,0,0
45404.175,78.3174,-2421.83,0,0
45664.5,78.0122,-2407.51,0,0
45924.825,77.6027,-2393.58,0,0
46185.15,76.9188,-2379.41,0,0
46445.475,76.4913,-2365.74,0,0
46705.8,76.2649,-2352.11,0,0
46966.125,75.9246,-2338.33,0,0
47226.45,75.6759,-2325.44,0,0
47486.775,75.4208,-2312.09,0,0
47747.1,75.191,-2298.83,0,0
48007.425,74.8341,-2286.29,0,0
48267.75,74.4586,-2273.59,0,0
48528.075,74.0743,-2260.88,0,0
48788.4,73.778,-2248.83,0,0
49048.725,73.0085,-2236.42,0,0
49309.05,72.634,-2223.9,0,0
49569.375,72.3674,-2211.83,0,0
49829.7,71.8824,-2199.77,0,0
50090.025,71.5728,-2187.8,0,0
50350.35,71.2689,-2175.88,0,0
50610.675,70.9574,-2164.22,0,0
50871.0,70.7117,-2152.42,0,0
51131.325,70.5343,-2140.93,0,0
51391.65,70.3632,-2129.47,0,0
51651.975,70.5102,-2118.15,0,0
51912.3,70.2589,-2107.27,0,0
52172.625,70.2303,-2096.37,0,0
52432.95,70.0315,-2085.66,0,0
52693.275,69.8217,-2074.7,0,0
52953.6,70.0927,-2064.11,0,0
53213.925,70.1933,-2053.9,0,0
53474.25,70.0732,-2043.85,0,0
53734.575,69.9512,-2034.35,0,0
53994.9,69.1105,-2024.53,0,0
54255.225,68.4591,-2014.49,0,0
54515.55,67.816,-2004.4,0,0
54775.875,67.5486,-1994.48,0,0
55036.2,66.8916,-1984.98,0,0
55296.525,66.214,-1975.11,0,0
55556.85,65.4885,-1965.19,0,0
55817.175,65.0338,-1955.41,0,0
56077.5,64.4703,-1945.65,0,0
56337.825,64.0194,-1935.77,0,0
56598.15,63.7587,-1926.06,0,0
56858.475,63.542,-1916.44,0,0
57118.8,63.3083,-1906.98,0,0
57379.125,63.2062,-1897.57,0,0
57639.45,62.9608,-1888.28,0,0
57899.775,62.8077,-1879.1,0,0
58160.1,62.6989,-1869.97,0,0
58420.4,62.7165,-1860.93,0,0
58680.7,62.6258,-1852.11,0,0
58941.1,62.8081,-1843.31,0,0
59201.4,62.8077,-1835.03,0,0
59461.7,62.4583,-1826.65,0,0
59722,62.0386,-1818.14,0,0
59982.4,61.7688,-1809.61,0,0
60242.7,61.501,-1801.01,0,0
60503,61.1132,-1792.5,0,0
60763.3,61.0402,-1783.96,0,0
61023.7,61.0306,-1775.54,0,0
61284,61.0389,-1767.2,0,0
61544.3,61.1342,-1759.17,0,0
61804.6,61.108,-1751.28,0,0
62065,60.869,-1743.27,0,0
62325.3,60.8474,-1735.14,0,0
62585.6,60.9271,-1727.19,0,0
62845.9,60.9366,-1719.27,0,0
63106.3,61.2322,-1711.44,0,0
63366.6,61.5404,-1703.8,0,0
63626.9,61.7384,-1696.31,0,0
63887.2,62.0077,-1688.86,0,0
64147.6,62.4847,-1681.7,0,0
64407.9,62.7445,-1674.76,0,0
64668.2,62.7986,-1668.02,0,0
64928.5,62.5284,-1661.13,0,0
65188.9,62.4733,-1654.3,0,0
65449.2,62.1923,-1647.76,0,0
65709.5,61.6753,-1640.86,0,0
65969.8,61.52,-1633.9,0,0
66230.2,61.247,-1627.18,0,0
66490.5,60.634,-1620.49,0,0
66750.8,60.1588,-1613.42,0,0
67011.1,59.7836,-1606.44,0,0
67271.5,59.3956,-1599.48,0,0
67531.8,59.3029,-1592.62,0,0
67792.1,58.9988,-1585.84,0,0
68052.4,58.7801,-1578.91,0,0
68312.8,58.7552,-1572.11,0,0
68573.1,58.5801,-1565.48,0,0
68833.4,58.4657,-1558.77,0,0
69093.7,58.4878,-1552.12,0,0
69354.1,58.3673,-1545.43,0,0
69614.4,58.4651,-1538.82,0,0
69874.7,58.5708,-1532.52,0,0
70135,58.7034,-1526.13,0,0
70395.4,58.7253,-1519.85,0,0
70655.7,58.7952,-1513.69,0,0
70916,58.8382,-1507.48,0,0
71176.3,58.8724,-1501.31,0,0
71436.7,59.035,-1495.26,0,0
71697,59.1542,-1489.3,0,0
71957.3,59.1419,-1483.56,0,0
72217.6,59.1287,-1477.72,0,0
72478,59.1307,-1471.9,0,0
72738.3,59.0119,-1466.43,0,0
72998.6,58.573,-1460.69,0,0
73258.9,58.2611,-1454.79,0,0
73519.3,58.0662,-1448.79,0,0
73779.6,57.9941,-1442.96,0,0
74039.9,58.029,-1437.16,0,0
74300.225,57.9852,-1431.55,0,0
74560.55,57.8317,-1425.91,0,0
74820.875,57.6245,-1420.13,0,0
75081.2,57.6564,-1414.42,0,0
75341.525,57.5947,-1408.77,0,0
75601.85,57.5578,-1403.1,0,0
75862.175,57.6906,-1397.46,0,0
76122.5,57.7265,-1392.09,0,0
76382.825,57.7983,-1386.69,0,0
76643.15,57.7872,-1381.32,0,0
76903.475,57.7461,-1376.06,0,0
77163.8,57.6859,-1370.84,0,0
77424.125,57.5628,-1365.51,0,0
77684.45,57.5239,-1360.16,0,0
77944.775,57.445,-1354.94,0,0
78205.1,57.2986,-1349.71,0,0
78465.425,57.2082,-1344.39,0,0
78725.75,57.0586,-1339.17,0,0
78986.075,57.0738,-1333.83,0,0
79246.4,57.0471,-1328.6,0,0
79506.725,57.0366,-1323.36,0,0
79767.05,57.1352,-1318.17,0,0
80027.375,57.1474,-1312.97,0,0
80287.7,57.2494,-1307.78,0,0
80548.025,57.3643,-1302.72,0,0
80808.35,57.3592,-1297.74,0,0
81068.675,57.3804,-1292.57,0,0
81329.0,57.4942,-1287.34,0,0
81589.325,57.683,-1282.26,0,0
81849.65,57.91,-1277.22,0,0
82109.975,58.3102,-1272.2,0,0
82370.3,58.6974,-1267.32,0,0
82630.625,58.9714,-1262.54,0,0
82890.95,59.2929,-1257.77,0,0
83151.275,59.7061,-1253.03,0,0
83411.6,59.9538,-1248.35,0,0
83671.925,60.3181,-1243.64,0,0
83932.25,60.7761,-1239.02,0,0
84192.575,61.2423,-1234.54,0,0
84452.9,61.5962,-1230.24,0,0
84713.225,62.0516,-1225.94,0,0
84973.55,62.399,-1222.04,0,0
85233.875,62.1469,-1218.06,0,0
85494.2,61.8356,-1213.69,0,0
85754.525,61.5616,-1209.16,0,0
86014.85,61.5411,-1204.48,0,0
86275.175,61.5576,-1199.83,0,0
86535.5,61.6436,-1195.12,0,0
86795.825,61.8829,-1190.47,0,0
87056.15,62.2299,-1185.86,0,0
87316.475,62.6374,-1181.55,0,0
87576.8,62.8942,-1177.1,0,0
87837.125,63.2315,-1172.61,0,0
88097.45,63.7125,-1168.28,0,0
88357.775,64.1316,-1163.98,0,0
88618.1,64.423,-1159.68,0,0
88878.425,64.9034,-1155.39,0,0
89138.75,65.2943,-1151.05,0,0
89399.075,65.769,-1146.81,0,0
89659.4,66.3013,-1142.57,0,0
89919.725,66.8627,-1138.33,0,0
90180,67.5122,-1134.12,0,0
90440.4,68.2081,-1129.91,0,0
90700.7,69.0259,-1125.8,0,0
90961,69.9895,-1121.83,0,0
91221.3,70.9762,-1118.01,0,0
91481.7,72.021,-1114.41,0,0
91742,73.0133,-1111.06,0,0
92002.3,73.8663,-1107.94,0,0
92262.6,74.642,-1104.78,0,0
92523,75.2629,-1101.83,0,0
92783.3,75.6212,-1098.93,0,0
93043.6,75.8682,-1096.16,0,0
93303.9,75.4502,-1093.34,0,0
93564.3,75.0307,-1089.86,0,0
93824.6,74.9148,-1086.06,0,0
94084.9,75.095,-1082.48,0,0
94345.2,75.3121,-1079.09,0,0
94605.6,75.3135,-1075.55,0,0
94865.9,75.5389,-1071.94,0,0
95126.2,75.7532,-1068.53,0,0
95386.5,75.9844,-1064.89,0,0
95646.9,76.474,-1061.53,0,0
95907.2,76.5065,-1058.29,0,0
96167.5,76.6399,-1054.76,0,0
96427.8,76.9592,-1051.12,0,0
96688.2,77.5232,-1047.73,0,0
96948.5,78.0157,-1044.5,0,0
97208.8,78.302,-1041.27,0,0
97469.1,78.8167,-1038,0,0
97729.5,79.3535,-1034.85,0,0
97989.8,79.8601,-1031.93,0,0
98250.1,80.2498,-1029.07,0,0
98510.4,80.5843,-1026.22,0,0
98770.8,80.945,-1023.51,0,0
99031.1,81.012,-1020.99,0,0
99291.4,80.674,-1018.22,0,0
99551.7,80.489,-1015.09,0,0
99812.1,80.4808,-1011.98,0,0
100072,80.6731,-1008.88,0,0
100333,80.8443,-1005.97,0,0
100593,80.9708,-1003.21,0,0
100853,80.97,-1000.43,0,0
101114,80.8249,-997.684,0,0
101374,80.6777,-994.811,0,0
101634,80.5272,-991.971,0,0
101895,80.2281,-989.179,0,0
102155,79.861,-986.101,0,0
102415,79.597,-982.976,0,0
102676,79.4148,-979.756,0,0
102936,79.3074,-976.641,0,0
103196,79.1965,-973.493,0,0
103457,79.1643,-970.261,0,0
103717,79.2457,-967.103,0,0
103977,79.3867,-964.05,0,0
104238,79.4523,-961.12,0,0
104498,79.3624,-958.195,0,0
104758,79.174,-955.141,0,0
105019,79.0993,-952.012,0,0
105279,79.1016,-948.687,0,0
105539,79.3209,-945.537,0,0
105800,79.6737,-942.409,0,0
106060,79.9523,-939.521,0,0
106320.175,80.1446,-936.605,0,0
106580.5,80.4287,-933.71,0,0
106840.825,80.7626,-930.948,0,0
107101.15,80.9854,-928.339,0,0
107361.475,81.0478,-925.726,0,0
107621.8,81.0887,-923.081,0,0
107882.125,81.0046,-920.521,0,0
108142.45,80.7718,-917.818,0,0
108402.775,80.6108,-914.891,0,0
108663.1,80.5706,-911.953,0,0
108923.425,80.5981,-909.005,0,0
109183.75,80.7134,-906.126,0,0
109444.075,80.8788,-903.248,0,0
109704.4,81.0725,-900.452,0,0
109964.725,81.2457,-897.795,0,0
110225.05,81.3214,-895.146,0,0
110485.375,81.4016,-892.455,0,0
110745.7,81.4835,-889.866,0,0
111006.025,81.4791,-887.359,0,0
111266.35,81.2814,-884.79,0,0
111526.675,81.2654,-882.102,0,0
111787.0,81.2502,-879.262,0,0
112047.325,81.3011,-876.597,0,0
112307.65,81.3101,-873.982,0,0
112567.975,81.2619,-871.251,0,0
112828.3,81.3178,-868.686,0,0
113088.625,81.2385,-866.029,0,0
113348.95,81.187,-863.395,0,0
113609.275,81.1997,-860.746,0,0
113869.6,81.1462,-858.176,0,0
114129.925,81.0557,-855.605,0,0
114390.25,80.8987,-852.961,0,0
114650.575,80.8299,-850.254,0,0
114910.9,80.7317,-847.618,0,0
115171.225,80.6739,-844.962,0,0
115431.55,80.5837,-842.396,0,0
115691.875,80.4202,-839.757,0,0
115952.2,80.2494,-837.079,0,0
116212.525,80.1328,-834.3,0,0
116472.85,80.0491,-831.69,0,0
116733.175,79.8487,-829.015,0,0
116993.5,79.6528,-826.154,0,0
117253.825,79.5486,-823.286,0,0
117514.15,79.5326,-820.456,0,0
117774.475,79.5906,-817.61,0,0
118034.8,79.6693,-814.807,0,0
118295.125,79.7728,-812.074,0,0
118555.45,79.8908,-809.375,0,0
118815.775,80.103,-806.758,0,0
119076.1,80.1564,-804.272,0,0
119336.425,80.0284,-801.687,0,0
119596.75,79.9615,-799.111,0,0
119857.075,79.8606,-796.412,0,0
120117.4,79.8793,-793.676,0,0
120377.725,79.8423,-790.936,0,0
120638.05,79.8089,-788.323,0,0
120898.375,79.7651,-785.555,0,0
121158.7,79.8392,-782.771,0,0
121419.025,79.8993,-780.096,0,0
121679.35,79.9191,-777.364,0,0
121939.675,79.9792,-774.64,0,0
122200.0,80.0814,-771.894,0,0
122460,80.2315,-769.212,0,0
122721,80.3457,-766.699,0,0
122981,80.3522,-764.143,0,0
123241,80.1743,-761.436,0,0
123502,80.1213,-758.561,0,0
123762,80.2302,-755.702,0,0
124022,80.3377,-752.825,0,0
124283,80.4761,-749.996,0,0
124543,80.6811,-747.107,0,0
124803,81.0335,-744.293,0,0
125064,81.3894,-741.557,0,0
125324,81.7461,-738.895,0,0
125584,82.0818,-736.301,0,0
125845,82.4295,-733.696,0,0
126105,82.7495,-731.168,0,0
126365,83.0056,-728.605,0,0
126626,83.2936,-726.05,0,0
126886,83.5851,-723.533,0,0
127146,83.9321,-721.11,0,0
127406,84.1393,-718.718,0,0
127667,84.2814,-716.27,0,0
127927,84.4216,-713.842,0,0
128187,84.4915,-711.309,0,0
128448,84.6914,-708.825,0,0
128708,84.7551,-706.378,0,0
128968,84.7599,-703.872,0,0
129229,84.8351,-701.304,0,0
129489,84.8107,-698.726,0,0
129749,84.775,-696.032,0,0
130010,84.7953,-693.217,0,0
130270,84.9149,-690.296,0,0
130530,85.2395,-687.361,0,0
130791,85.7582,-684.588,0,0
131051,86.2215,-682.029,0,0
131311,86.6024,-679.504,0,0
131572,87.0477,-677.107,0,0
131832,87.1872,-674.856,0,0
132092,87.0669,-672.34,0,0
132353,87.0342,-669.641,0,0
132613,87.0874,-666.795,0,0
132873,87.2806,-663.877,0,0
133134,87.6633,-661.003,0,0
133394,88.0029,-658.279,0,0
133654,88.3847,-655.529,0,0
133915,88.7745,-652.809,0,0
134175,89.0947,-650.062,0,0
134435,89.5343,-647.306,0,0
134696,89.9333,-644.57,0,0
134956,90.3682,-641.841,0,0
135216,90.8932,-638.978,0,0
135477,91.5979,-636.273,0,0
135737,92.3484,-633.718,0,0
135997,93.0608,-631.251,0,0
136258,93.741,-629.056,0,0
136518,94.1535,-626.931,0,0
136778,94.4491,-624.774,0,0
137039,94.5744,-622.661,0,0
137299,94.4633,-620.427,0,0
137559,94.2273,-617.98,0,0
137819,93.9732,-615.323,0,0
138080,93.7663,-612.493,0,0
138340.125,93.5842,-609.465,0,0
138600.45,93.6617,-606.27,0,0
138860.775,93.9007,-603.164,0,0
139121.1,94.206,-600.092,0,0
139381.425,94.5531,-597.059,0,0
139641.75,94.8098,-594.1,0,0
139902.075,95.0368,-590.965,0,0
140162.4,95.4498,-587.795,0,0
140422.725,95.8436,-584.702,0,0
140683.05,96.1635,-581.574,0,0
140943.375,96.5219,-578.277,0,0
141203.7,97.0183,-574.917,0,0
141464.025,97.648,-571.628,0,0
141724.35,98.2896,-568.389,0,0
141984.675,98.8491,-565.19,0,0
142245.0,99.3458,-561.834,0,0
142505.325,99.9714,-558.356,0,0
142765.65,100.745,-554.834,0,0
143025.975,101.632,-551.391,0,0
143286.3,102.448,-547.943,0,0
143546.625,103.355,-544.434,0,0
143806.95,104.263,-540.894,0,0
144067.275,105.234,-537.227,0,0
144327.6,106.323,-533.53,0,0
144587.925,107.484,-529.722,0,0
144848.25,108.877,-525.766,0,0
145108.575,110.586,-521.85,0,0
145368.9,112.518,-518.054,0,0
145629.225,114.671,-514.413,0,0
145889.55,116.958,-511.137,0,0
146149.875,119.059,-508.069,0,0
146410.2,121.097,-505.02,0,0
146670.525,123.175,-501.948,0,0
146930.85,125.353,-499.043,0,0
147191.175,127.391,-496.315,0,0
147451.5,129.376,-493.595,0,0
147711.825,131.176,-491.149,0,0
147972.15,132.419,-488.444,0,0
148232.475,133.704,-485.137,0,0
148492.8,135.309,-481.461,0,0
148753.125,137.363,-477.75,0,0
149013.45,139.635,-474.087,0,0
149273.775,142.119,-470.338,0,0
149534.1,144.833,-466.687,0,0
149794.425,147.815,-463.035,0,0
150054.75,150.968,-459.485,0,0
150315.075,154.513,-455.843,0,0
150575.4,158.626,-452.444,0,0
150835.725,163.206,-449.445,0,0
151096.05,168.118,-447.113,0,0
151356.375,173.157,-445.612,0,0
151616.7,177.902,-444.84,0,0
151877.025,182.244,-444.562,0,0
152137.35,186.157,-444.838,0,0
152397.675,189.259,-445.399,0,0
152658.0,191.628,-445.79,0,0
152918.325,193.608,-445.796,0,0
153178.65,195.599,-445.631,0,0
153438.975,197.282,-445.357,0,0
153699.3,198.716,-444.795,0,0
153959.625,200.123,-443.913,0,0
154219.95,201.783,-442.802,0,0
154480,203.298,-441.655,0,0
154741,204.917,-440.158,0,0
155001,206.997,-438.183,0,0
155261,209.785,-436.421,0,0
155522,213.134,-435.339,0,0
155782,216.381,-434.811,0,0
156042,219.897,-435.04,0,0
156303,223.001,-436.649,0,0
156563,224.341,-439.056,0,0
156823,223.719,-440.933,0,0
157084,222.151,-441.396,0,0
157344,220.53,-439.981,0,0
157604,219.608,-437.5,0,0
157864,219.433,-434.474,0,0
158125,219.918,-430.808,0,0
158385,221.657,-427.325,0,0
158645,224.224,-424.197,0,0
158906,227.549,-421.734,0,0
159166,231.076,-420.246,0,0
159426,234.579,-419.582,0,0
159687,237.547,-420.062,0,0
159947,239.148,-420.91,0,0
160207,239.773,-421.087,0,0
160468,239.97,-420.677,0,0
160728,239.906,-419.662,0,0
160988,239.879,-417.427,0,0
161249,240.771,-414.566,0,0
161509,242.372,-411.639,0,0
161769,244.892,-408.903,0,0
162030,247.628,-406.636,0,0
162290,250.777,-404.563,0,0
162550,254.493,-403.039,0,0
162811,258.179,-402.447,0,0
163071,261.533,-402.316,0,0
163331,264.62,-402.544,0,0
163592,267.675,-403.175,0,0
163852,270.056,-404.398,0,0
164112,271.851,-405.666,0,0
164373,272.936,-406.698,0,0
164633,274.017,-407.38,0,0
164893,275.082,-408.061,0,0
165154,276.255,-408.86,0,0
165414,277.321,-410.292,0,0
165674,277.26,-412.318,0,0
165935,275.898,-413.777,0,0
166195,274.192,-414.214,0,0
166455,272.633,-414.143,0,0
166716,270.742,-413.939,0,0
166976,268.369,-412.962,0,0
167236,266.191,-411.18,0,0
167497,264.448,-408.898,0,0
167757,262.783,-406.473,0,0
168017,261.242,-403.599,0,0
168277,259.941,-400.345,0,0
168538,258.893,-396.95,0,0
168798,258.106,-393.144,0,0
169058,257.382,-389.193,0,0
169319,257.163,-384.728,0,0
169579,257.697,-380.273,0,0
169839,258.469,-376.164,0,0
170100,259.112,-372.358,0,0
170360.075,259.46,-368.053,0,0
170620.4,260.304,-363.276,0,0
170880.725,261.57,-358.465,0,0
171141.05,263.178,-353.881,0,0
171401.375,264.782,-349.19,0,0
171661.7,266.572,-344.154,0,0
171922.025,268.933,-338.812,0,0
172182.35,272.148,-333.542,0,0
172442.675,275.967,-328.868,0,0
172703.0,279.806,-324.725,0,0
172963.325,283.708,-320.834,0,0
173223.65,287.493,-317.291,0,0
173483.975,291.4,-313.67,0,0
173744.3,295.411,-310.334,0,0
174004.625,299.589,-307.151,0,0
174264.95,303.739,-304.458,0,0
174525.275,307.675,-301.942,0,0
174785.6,311.076,-299.63,0,0
175045.925,314.183,-296.971,0,0
175306.25,317.3,-293.894,0,0
175566.575,320.41,-290.711,0,0
175826.9,323.434,-286.965,0,0
176087.225,327.011,-282.68,0,0
176347.55,331.324,-278.364,0,0
176607.875,336.062,-274.282,0,0
176868.2,341.445,-270.367,0,0
177128.525,347.117,-267.094,0,0
177388.85,352.621,-264.342,0,0
177649.175,357.606,-261.778,0,0
177909.5,362.318,-258.51,0,0
178169.825,367.626,-254.768,0,0
178430.15,373.837,-251.11,0,0
178690.475,380.521,-247.826,0,0
178950.8,387.627,-245.186,0,0
179211.125,394.771,-242.896,0,0
179471.45,402.154,-241.023,0,0
179731.775,409.395,-239.647,0,0
179992.1,416.851,-238.61,0,0
180252.425,424.266,-238.092,0,0
180512.75,431.379,-238.318,0,0
180773.075,437.705,-238.317,0,0
181033.4,443.99,-238.097,0,0
181293.725,450.318,-238.052,0,0
181554.05,456.524,-237.839,0,0
181814.375,463.126,-237.555,0,0
182074.7,469.68,-237.62,0,0
182335.025,476.203,-237.71,0,0
182595.35,482.981,-238.077,0,0
182855.675,489.967,-238.749,0,0
183116.0,496.649,-240.327,0,0
183376.325,502.382,-242.042,0,0
183636.65,507.317,-243.136,0,0
183896.975,512.371,-243.363,0,0
184157.3,517.764,-243.521,0,0
184417.625,523.279,-243.168,0,0
184677.95,529.776,-242.688,0,0
184938.275,536.625,-242.582,0,0
185198.6,543.381,-242.83,0,0
185458.925,550.288,-242.836,0,0
185719.25,557.714,-242.929,0,0
185979.575,565.447,-243.313,0,0
186239.9,573.424,-243.835,0,0
186500,582.212,-244.833,0,0
186761,590.719,-246.928,0,0
187021,598.739,-249.286,0,0
187281,606.38,-251.586,0,0
187542,614.056,-253.461,0,0
187802,622.428,-255.134,0,0
188062,631.535,-257.233,0,0
188322,641.21,-260.106,0,0
188583,651.081,-264.018,0,0
188843,660.616,-269.113,0,0
189103,669.431,-275.19,0,0
189364,676.963,-281.74,0,0
189624,683.394,-287.761,0,0
189884,689.553,-293.116,0,0
190145,695.641,-298.231,0,0
190405,701.274,-302.945,0,0
190665,706.916,-306.478,0,0
190926,713.826,-309.053,0,0
191186,722.486,-312.106,0,0
191446,731.558,-316.309,0,0
191707,741.127,-321.192,0,0
191967,750.89,-327.193,0,0
192227,760.098,-334.091,0,0
192488,768.838,-341.307,0,0
192748,776.84,-348.252,0,0
193008,785.337,-354.101,0,0
193269,795.769,-360.078,0,0
193529,807.277,-367.354,0,0
193789,819.584,-376.165,0,0
194050,832.407,-386.84,0,0
194310,844.974,-399.984,0,0
194570,856.441,-415.205,0,0
194831,866.138,-432.158,0,0
195091,873.496,-449.91,0,0
195351,879.156,-467.126,0,0
195612,884.248,-483.678,0,0
195872,889.595,-500.476,0,0
196132,894.865,-518.711,0,0
196393,898.633,-538.726,0,0
196653,900.401,-559.56,0,0
196913,899.82,-580.509,0,0
197174,897.278,-600.852,0,0
197434,893.532,-620.385,0,0
197694,888.64,-639.641,0,0
197955,882.253,-658.34,0,0
198215,874.526,-676.036,0,0
198475,865.877,-692.57,0,0
198735,857.117,-708.113,0,0
198996,847.799,-723.252,0,0
199256,838.109,-737.788,0,0
199516,827.786,-752.143,0,0
199777,816.569,-766.256,0,0
200037,803.424,-779.825,0,0
200297,789.266,-791.55,0,0
200558,774.258,-801.499,0,0
200818,759.525,-809.542,0,0
201078,745.334,-816.138,0,0
201339,732.035,-821.841,0,0
201599,719.192,-827.561,0,0
201859,706.134,-833.022,0,0
202120,692.697,-837.982,0,0
202380.025,678.71,-842.139,0,0
202640.35,664.252,-844.915,0,0
202900.675,650.089,-845.963,0,0
203161.0,636.93,-845.724,0,0
203421.325,624.606,-844.749,0,0
203681.65,612.985,-843.165,0,0
203941.975,602.519,-840.922,0,0
204202.3,592.891,-838.671,0,0
204462.625,583.938,-836.484,0,0
204722.95,575.499,-834.505,0,0
204983.275,567.229,-832.708,0,0
205243.6,558.853,-830.844,0,0
205503.925,550.403,-828.689,0,0
205764.25,541.852,-826.155,0,0
206024.575,533.409,-822.617,0,0
206284.9,525.528,-818.139,0,0
206545.225,518.508,-812.998,0,0
206805.55,512.877,-807.419,0,0
207065.875,508.439,-801.983,0,0
207326.2,504.78,-796.94,0,0
207586.525,501.921,-792.473,0,0
207846.85,499.459,-788.53,0,0
208107.175,497.209,-785.235,0,0
208367.5,494.755,-782.389,0,0
208627.825,492.201,-779.487,0,0
208888.15,489.665,-776.58,0,0
209148.475,487.411,-773.355,0,0
209408.8,485.455,-769.963,0,0
209669.125,484.144,-766.485,0,0
209929.45,483.314,-763.277,0,0
210189.775,483.205,-760.387,0,0
210450.1,483.395,-758.108,0,0
210710.425,483.792,-756.227,0,0
210970.75,484.186,-754.972,0,0
211231.075,484.385,-754.04,0,0
211491.4,484.597,-753.109,0,0
211751.725,485.197,-752.397,0,0
212012.05,485.999,-752.227,0,0
212272.375,486.723,-752.521,0,0
212532.7,487.265,-753.205,0,0
212793.025,487.69,-754.229,0,0
213053.35,487.945,-755.659,0,0
213313.675,487.918,-757.506,0,0
213574.0,487.441,-759.631,0,0
213834.325,486.445,-761.775,0,0
214094.65,485.138,-763.957,0,0
214354.975,483.431,-766.166,0,0
214615.3,481.386,-768.145,0,0
214875.625,478.973,-769.939,0,0
215135.95,476.314,-771.523,0,0
215396.275,473.357,-772.873,0,0
215656.6,470.197,-773.907,0,0
215916.925,466.943,-774.353,0,0
216177.25,463.794,-774.243,0,0
216437.575,460.855,-773.767,0,0
216697.9,458.237,-772.831,0,0
216958.225,456.13,-771.564,0,0
217218.55,454.673,-770.207,0,0
217478.875,453.915,-768.896,0,0
217739.2,453.508,-767.946,0,0
217999.525,453.567,-767.303,0,0
218259.85,453.87,-767.098,0,0
218520,454.304,-767.426,0,0
218780,454.677,-768.131,0,0
219041,454.897,-769.26,0,0
219301,455.091,-770.568,0,0
219561,455.119,-772.164,0,0
219822,455.044,-773.953,0,0
220082,454.705,-775.912,0,0
220342,454.313,-777.916,0,0
220603,453.748,-779.98,0,0
220863,453.245,-782.176,0,0
221123,452.607,-784.611,0,0
221384,451.905,-787.136,0,0
221644,451.18,-789.79,0,0
221904,450.434,-792.817,0,0
222165,449.296,-796.255,0,0
222425,447.76,-799.848,0,0
222685,445.617,-803.549,0,0
222946,443.144,-807.238,0,0
223206,440.174,-810.504,0,0
223466,437.012,-813.332,0,0
223727,434.023,-816.05,0,0
223987,431.214,-818.632,0,0
224247,428.504,-821.548,0,0
224508,425.458,-824.556,0,0
224768,422.242,-827.751,0,0
225028,418.708,-830.997,0,0
225289,414.969,-834.39,0,0
225549,410.395,-837.797,0,0
225809,405.345,-840.826,0,0
226070,399.93,-843.255,0,0
226330,394.553,-845.388,0,0
226590,389.05,-847.064,0,0
226851,383.633,-848.558,0,0
227111,378.065,-849.815,0,0
227371,372.443,-850.882,0,0
227632,366.554,-851.633,0,0
227892,360.497,-851.796,0,0
228152,354.725,-851.309,0,0
228413,349.446,-850.363,0,0
228673,344.701,-849.346,0,0
228933,340.3,-848.44,0,0
229193,336.204,-847.651,0,0
229454,332.213,-847.132,0,0
229714,328.276,-846.823,0,0
229974,324.109,-846.762,0,0
230235,319.805,-846.831,0,0
230495,315.057,-846.804,0,0
230755,309.939,-846.503,0,0
231016,304.8,-845.677,0,0
231276,299.675,-844.537,0,0
231536,294.842,-843.258,0,0
231797,289.926,-841.876,0,0
232057,285.075,-840.305,0,0
232317,280.301,-838.517,0,0
232578,275.563,-836.571,0,0
232838,271,-834.34,0,0
233098,266.638,-832.036,0,0
233359,262.346,-829.631,0,0
233619,258.21,-827.251,0,0
233879,253.97,-824.665,0,0
234140,249.906,-821.81,0,0
234400,245.907,-818.934,0,0
234660.3,242.2,-815.805,0,0
234920.625,238.684,-812.485,0,0
235180.95,235.382,-809.063,0,0
235441.275,232.227,-805.651,0,0
235701.6,229.483,-802.174,0,0
235961.925,226.904,-798.747,0,0
236222.25,224.445,-795.315,0,0
236482.575,222.241,-791.906,0,0
236742.9,220.226,-788.495,0,0
237003.225,218.392,-785.198,0,0
237263.55,216.843,-781.95,0,0
237523.875,215.306,-778.932,0,0
237784.2,213.856,-776.012,0,0
238044.525,212.475,-773.148,0,0
238304.85,211.162,-770.323,0,0
238565.175,209.923,-767.464,0,0
238825.5,208.921,-764.594,0,0
239085.825,208.191,-761.912,0,0
239346.15,207.669,-759.524,0,0
239606.475,207.177,-757.573,0,0
239866.8,206.547,-755.856,0,0
240127.125,205.739,-754.407,0,0
240387.45,204.564,-753.001,0,0
240647.775,203.394,-751.528,0,0
240908.1,202.002,-750.207,0,0
241168.425,200.503,-748.785,0,0
241428.75,198.881,-747.396,0,0
241689.075,197.133,-745.819,0,0
241949.4,195.252,-744.269,0,0
242209.725,193.243,-742.534,0,0
242470.05,191.157,-740.635,0,0
242730.375,189.074,-738.465,0,0
242990.7,187.135,-736.109,0,0
243251.025,185.308,-733.682,0,0
243511.35,183.576,-731.111,0,0
243771.675,181.969,-728.457,0,0
244032.0,180.438,-725.802,0,0
244292.325,179.158,-723.033,0,0
244552.65,177.945,-720.215,0,0
244812.975,176.884,-717.505,0,0
245073.3,175.991,-714.852,0,0
245333.625,174.992,-712.261,0,0
245593.95,174.073,-709.534,0,0
245854.275,173.274,-706.739,0,0
246114.6,172.716,-703.98,0,0
246374.925,172.347,-701.273,0,0
246635.25,172.111,-698.759,0,0
246895.575,171.893,-696.372,0,0
247155.9,171.74,-694.078,0,0
247416.225,171.495,-692.098,0,0
247676.55,171.124,-690.227,0,0
247936.875,170.617,-688.29,0,0
248197.2,170.052,-686.449,0,0
248457.525,169.292,-684.437,0,0
248717.85,168.403,-682.251,0,0
248978.175,167.559,-679.854,0,0
249238.5,166.894,-677.319,0,0
249498.825,166.203,-674.681,0,0
249759.15,165.864,-671.889,0,0
250019.475,165.59,-669.028,0,0
250279.8,165.504,-666.178,0,0
250540,165.62,-663.317,0,0
250800,165.906,-660.451,0,0
251061,166.377,-657.592,0,0
251321,167.075,-654.735,0,0
251581,167.997,-652.035,0,0
251842,169.203,-649.46,0,0
252102,170.549,-647.183,0,0
252362,172.005,-645.167,0,0
252623,173.622,-643.379,0,0
252883,175.392,-642.037,0,0
253143,176.515,-641.115,0,0
253404,177.758,-639.972,0,0
253664,178.649,-639.332,0,0
253924,179.339,-638.536,0,0
254185,179.839,-637.747,0,0
254445,180.287,-636.802,0,0
254705,180.57,-635.816,0,0
254966,180.845,-634.761,0,0
255226,181.07,-633.502,0,0
255486,181.448,-632.179,0,0
255747,181.838,-630.811,0,0
256007,182.38,-629.378,0,0
256267,183.082,-627.972,0,0
256528,183.867,-626.723,0,0
256788,184.628,-625.524,0,0
257048,185.363,-624.313,0,0
257309,186.147,-623.036,0,0
257569,186.996,-621.748,0,0
257829,187.991,-620.544,0,0
258090,189.087,-619.284,0,0
258350,190.272,-618.228,0,0
258610,191.605,-617.258,0,0
258871,192.73,-616.798,0,0
259131,194.08,-616.052,0,0
259391,195.328,-615.395,0,0
259651,196.839,-614.949,0,0
259912,198.177,-614.669,0,0
260172,199.388,-614.541,0,0
260432,200.401,-614.535,0,0
260693,201.416,-614.533,0,0
260953,202.289,-614.499,0,0
261213,203.235,-614.565,0,0
261474,204.027,-614.668,0,0
261734,204.7,-614.782,0,0
261994,205.308,-614.818,0,0
262255,205.936,-614.917,0,0
262515,206.471,-615.01,0,0
262775,206.855,-615.123,0,0
263036,207.153,-615.094,0,0
263296,207.606,-614.963,0,0
263556,208.159,-614.755,0,0
263817,208.539,-614.723,0,0
264077,208.957,-614.595,0,0
264337,209.301,-614.354,0,0
264598,209.645,-613.955,0,0
264858,210.082,-613.355,0,0
265118,210.78,-612.614,0,0
265379,211.684,-611.924,0,0
265639,212.816,-611.223,0,0
265899,214.15,-610.551,0,0
266160,215.712,-609.863,0,0
266420,217.566,-609.433,0,0
266680.25,219.631,-609.137,0,0
266940.575,221.983,-609.172,0,0
267200.9,224.485,-609.524,0,0
267461.225,227.098,-610.206,0,0
267721.55,229.8,-611.309,0,0
267981.875,232.531,-612.777,0,0
268242.2,235.185,-614.692,0,0
268502.525,237.605,-617.099,0,0
268762.85,239.873,-619.878,0,0
269023.175,241.812,-623.041,0,0
269283.5,243.456,-626.44,0,0
269543.825,244.626,-630.078,0,0
269804.15,245.49,-633.866,0,0
270064.475,246.082,-637.856,0,0
270324.8,246.262,-641.901,0,0
270585.125,246.089,-646.037,0,0
270845.45,245.49,-650.241,0,0
271105.775,244.537,-654.423,0,0
271366.1,243.175,-658.634,0,0
271626.425,241.421,-662.725,0,0
271886.75,239.332,-666.729,0,0
272147.075,236.907,-670.636,0,0
272407.4,234.113,-674.432,0,0
272667.725,230.913,-678.003,0,0
272928.05,227.333,-681.368,0,0
273188.375,223.499,-684.452,0,0
273448.7,219.237,-687.183,0,0
273709.025,214.709,-689.485,0,0
273969.35,210.083,-691.279,0,0
274229.675,205.486,-692.802,0,0
274490.0,200.734,-693.829,0,0
274750.325,195.933,-694.507,0,0
275010.65,191.161,-694.743,0,0
275270.975,186.471,-694.551,0,0
275531.3,181.965,-694.042,0,0
275791.625,177.807,-693.338,0,0
276051.95,173.686,-692.334,0,0
276312.275,169.827,-691.119,0,0
276572.6,166.082,-689.765,0,0
276832.925,162.592,-688.233,0,0
277093.25,159.244,-686.602,0,0
277353.575,156.067,-684.863,0,0
277613.9,153.062,-683.056,0,0
277874.225,150.191,-681.184,0,0
278134.55,147.478,-679.26,0,0
278394.875,144.797,-677.203,0,0
278655.2,142.304,-675.136,0,0
278915.525,139.904,-672.915,0,0
279175.85,137.681,-670.621,0,0
279436.175,135.61,-668.175,0,0
279696.5,133.792,-665.757,0,0
279956.825,132.246,-663.249,0,0
280217.15,130.859,-660.764,0,0
280477.475,129.708,-658.353,0,0
280737.8,128.742,-655.993,0,0
280998.125,128.012,-653.769,0,0
281258.45,127.366,-651.696,0,0
281518.775,126.822,-649.778,0,0
281779.1,126.338,-647.96,0,0
282039.425,125.877,-646.204,0,0
282299.75,125.502,-644.619,0,0
282560,125.163,-643.147,0,0
282820,124.831,-641.774,0,0
283081,124.414,-640.521,0,0
283341,123.905,-639.33,0,0
283601,123.388,-638.035,0,0
283862,122.861,-636.781,0,0
284122,122.371,-635.453,0,0
284382,121.934,-634.201,0,0
284643,121.498,-632.862,0,0
284903,121.128,-631.468,0,0
285163,120.895,-630.054,0,0
285424,120.828,-628.659,0,0
285684,120.982,-627.331,0,0
285944,121.277,-626.163,0,0
286205,121.697,-625.153,0,0
286465,122.236,-624.414,0,0
286725,122.852,-623.9,0,0
286986,123.43,-623.747,0,0
287246,123.864,-623.903,0,0
287506,124.115,-624.327,0,0
287767,124.082,-624.952,0,0
288027,123.745,-625.666,0,0
288287,123.085,-626.419,0,0
288548,122.138,-627.068,0,0
288808,120.942,-627.642,0,0
289068,119.571,-628.056,0,0
289329,118.012,-628.25,0,0
289589,116.43,-628.271,0,0
289849,114.732,-628.114,0,0
290109,113.12,-627.788,0,0
290370,111.509,-627.342,0,0
290630,110.038,-626.761,0,0
290890,108.642,-626.135,0,0
291151,107.269,-625.592,0,0
291411,105.891,-625.102,0,0
291671,104.446,-624.599,0,0
291932,102.909,-624.058,0,0
292192,101.298,-623.453,0,0
292452,99.5946,-622.714,0,0
292713,97.8786,-621.868,0,0
292973,96.1944,-620.847,0,0
293233,94.577,-619.767,0,0
293494,92.991,-618.541,0,0
293754,91.521,-617.278,0,0
294014,90.0999,-615.984,0,0
294275,88.7202,-614.639,0,0
294535,87.3684,-613.278,0,0
294795,86.0884,-611.854,0,0
295056,84.8576,-610.392,0,0
295316,83.6681,-608.89,0,0
295576,82.5389,-607.338,0,0
295837,81.4823,-605.792,0,0
296097,80.5055,-604.213,0,0
296357,79.5997,-602.667,0,0
296618,78.7346,-601.092,0,0
296878,77.9107,-599.525,0,0
297138,77.143,-598.01,0,0
297399,76.4119,-596.486,0,0
297659,75.6981,-594.969,0,0
297919,75.0189,-593.426,0,0
298180,74.3477,-591.909,0,0
298440,73.7017,-590.407,0,0
298700.2,73.112,-588.864,0,0
298960.525,72.5434,-587.316,0,0
299220.85,72.0229,-585.762,0,0
299481.175,71.5205,-584.174,0,0
299741.5,71.0724,-582.625,0,0
300001.825,70.6756,-581.055,0,0
300262.15,70.3192,-579.459,0,0
300522.475,70.0417,-577.893,0,0
300782.8,69.7917,-576.32,0,0
301043.125,69.6451,-574.757,0,0
301303.45,69.5326,-573.231,0,0
301563.775,69.5219,-571.758,0,0
301824.1,69.5182,-570.359,0,0
302084.425,69.5568,-568.987,0,0
302344.75,69.6428,-567.69,0,0
302605.075,69.7414,-566.411,0,0
302865.4,69.8555,-565.215,0,0
303125.725,69.9474,-564.076,0,0
303386.05,70.0504,-562.966,0,0
303646.375,70.1603,-561.875,0,0
303906.7,70.2733,-560.841,0,0
304167.025,70.3928,-559.831,0,0
304427.35,70.4686,-558.852,0,0
304687.675,70.5769,-557.896,0,0
304948.0,70.6474,-556.941,0,0
305208.325,70.7663,-556.021,0,0
305468.65,70.8915,-555.112,0,0
305728.975,71.039,-554.268,0,0
305989.3,71.1785,-553.453,0,0
306249.625,71.2983,-552.682,0,0
306509.95,71.4067,-551.928,0,0
306770.275,71.4961,-551.21,0,0
307030.6,71.5929,-550.514,0,0
307290.925,71.6785,-549.815,0,0
307551.25,71.7698,-549.165,0,0
307811.575,71.871,-548.544,0,0
308071.9,71.9876,-547.987,0,0
308332.225,72.0767,-547.479,0,0
308592.55,72.1321,-547.052,0,0
308852.875,72.1277,-546.656,0,0
309113.2,72.0232,-546.321,0,0
309373.525,71.8443,-545.969,0,0
309633.85,71.5884,-545.591,0,0
309894.175,71.2823,-545.181,0,0
310154.5,70.95,-544.699,0,0
310414.825,70.6282,-544.159,0,0
310675.15,70.2944,-543.628,0,0
310935.475,69.9889,-543.069,0,0
311195.8,69.6708,-542.518,0,0
311456.125,69.3697,-541.96,0,0
311716.45,69.0547,-541.401,0,0
311976.775,68.7189,-540.852,0,0
312237.1,68.3653,-540.306,0,0
312497.425,67.9976,-539.752,0,0
312757.75,67.6257,-539.178,0,0
313018.075,67.2357,-538.611,0,0
313278.4,66.8099,-538.05,0,0
313538.725,66.3836,-537.428,0,0
313799.05,65.8995,-536.799,0,0
314059.375,65.4401,-536.132,0,0
314319.7,64.9501,-535.432,0,0
314580,64.4622,-534.64,0,0
314840,63.9972,-533.889,0,0
315101,63.6514,-533.061,0,0
315361,63.2633,-532.323,0,0
315621,62.9057,-531.535,0,0
315882,62.5838,-530.631,0,0
316142,62.2378,-529.825,0,0
316402,62.0212,-528.952,0,0
316663,61.6434,-528.131,0,0
316923,61.4405,-527.296,0,0
317183,61.2738,-526.454,0,0
317444,61.0563,-525.645,0,0
317704,60.8021,-524.874,0,0
317964,60.6731,-524.062,0,0
318225,60.6145,-523.291,0,0
318485,60.4323,-522.508,0,0
318745,60.2337,-521.823,0,0
319006,60.174,-521.097,0,0
319266,60.0476,-520.385,0,0
319526,59.9774,-519.637,0,0
319787,59.8721,-519.088,0,0
320047,59.8072,-518.459,0,0
320307,59.6813,-517.833,0,0
320567,59.5836,-517.314,0,0
320828,59.4789,-516.796,0,0
321088,59.348,-516.27,0,0
321348,59.2144,-515.8,0,0
321609,58.8871,-515.336,0,0
321869,58.6361,-514.825,0,0
322129,58.3308,-514.315,0,0
322390,58.0871,-513.809,0,0
322650,57.7911,-513.262,0,0
322910,57.4761,-512.744,0,0
323171,57.2058,-512.253,0,0
323431,56.8979,-511.787,0,0
323691,56.5263,-511.266,0,0
323952,56.1661,-510.77,0,0
324212,55.8084,-510.275,0,0
324472,55.3518,-509.77,0,0
324733,54.9021,-509.183,0,0
324993,54.383,-508.606,0,0
325253,53.9224,-507.955,0,0
325514,53.3771,-507.281,0,0
325774,52.9492,-506.645,0,0
326034,52.4707,-505.866,0,0
326295,51.9882,-505.14,0,0
326555,51.5779,-504.361,0,0
326815,51.1922,-503.607,0,0
327076,50.7852,-502.865,0,0
327336,50.4524,-502.068,0,0
327596,50.0333,-501.262,0,0
327857,49.6393,-500.471,0,0
328117,49.3597,-499.67,0,0
328377,48.9561,-498.931,0,0
328638,48.6424,-498.103,0,0
328898,48.291,-497.246,0,0
329158,48.0256,-496.472,0,0
329419,47.7088,-495.619,0,0
329679,47.3959,-494.865,0,0
329939,47.078,-494.008,0,0
330200,46.793,-493.196,0,0
330460,46.49,-492.301,0,0
330720.15,46.1753,-491.481,0,0
330980.475,45.9209,-490.56,0,0
331240.8,45.7271,-489.777,0,0
331501.125,45.4866,-488.902,0,0
331761.45,45.2346,-488.001,0,0
332021.775,45.0462,-487.137,0,0
332282.1,44.8436,-486.27,0,0
332542.425,44.6299,-485.439,0,0
332802.75,44.451,-484.503,0,0
333063.075,44.2919,-483.612,0,0
333323.4,44.1899,-482.786,0,0
333583.725,44.1097,-481.889,0,0
333844.05,43.9374,-481.02,0,0
334104.375,43.8844,-480.123,0,0
334364.7,43.8656,-479.315,0,0
334625.025,43.8653,-478.436,0,0
334885.35,43.7929,-477.564,0,0
335145.675,43.8276,-476.751,0,0
335406.0,43.8209,-476.018,0,0
335666.325,43.8668,-475.225,0,0
335926.65,43.8851,-474.457,0,0
336186.975,43.8735,-473.796,0,0
336447.3,43.9008,-473.059,0,0
336707.625,43.9513,-472.403,0,0
336967.95,43.8979,-471.731,0,0
337228.275,43.9174,-471.045,0,0
337488.6,43.9004,-470.439,0,0
337748.925,43.9497,-469.79,0,0
338009.25,43.8214,-469.182,0,0
338269.575,43.8299,-468.594,0,0
338529.9,43.8076,-468.005,0,0
338790.225,43.6897,-467.405,0,0
339050.55,43.6218,-466.826,0,0
339310.875,43.5318,-466.224,0,0
339571.2,43.3977,-465.642,0,0
339831.525,43.2746,-465.032,0,0
340091.85,43.1923,-464.427,0,0
340352.175,43.093,-463.854,0,0
340612.5,42.936,-463.213,0,0
340872.825,42.7894,-462.607,0,0
341133.15,42.6758,-461.944,0,0
341393.475,42.4692,-461.299,0,0
341653.8,42.2954,-460.641,0,0
341914.125,42.2005,-460.042,0,0
342174.45,41.9725,-459.332,0,0
342434.775,41.8305,-458.68,0,0
342695.1,41.6855,-458.006,0,0
342955.425,41.5083,-457.285,0,0
343215.75,41.3405,-456.598,0,0
343476.075,41.243,-455.856,0,0
343736.4,41.1007,-455.183,0,0
343996.725,40.9636,-454.449,0,0
344257.05,40.8973,-453.726,0,0
344517.375,40.7518,-453.001,0,0
344777.7,40.6598,-452.196,0,0
345038.025,40.5581,-451.487,0,0
345298.35,40.4836,-450.746,0,0
345558.675,40.4058,-450.024,0,0
345819.0,40.3404,-449.277,0,0
346079.325,40.2967,-448.483,0,0
346339.65,40.2454,-447.75,0,0
346599.975,40.2347,-447.006,0,0
346860,40.2087,-446.27,0,0
347121,40.1911,-445.51,0,0
347381,40.1809,-444.788,0,0
347641,40.2271,-444.049,0,0
347902,40.2273,-443.323,0,0
348162,40.305,-442.619,0,0
348422,40.3319,-441.895,0,0
348683,40.3492,-441.193,0,0
348943,40.4442,-440.488,0,0
349203,40.4565,-439.804,0,0
349464,40.5449,-439.101,0,0
349724,40.6348,-438.439,0,0
349984,40.7156,-437.795,0,0
350245,40.7804,-437.123,0,0
350505,40.894,-436.447,0,0
350765,40.9112,-435.847,0,0
351025,41.0581,-435.204,0,0
351286,41.1401,-434.595,0,0
351546,41.2426,-433.962,0,0
351806,41.3386,-433.422,0,0
352067,41.339,-432.828,0,0
352327,41.4522,-432.215,0,0
352587,41.5299,-431.659,0,0
352848,41.6271,-431.052,0,0
353108,41.6693,-430.512,0,0
353368,41.7574,-429.912,0,0
353629,41.8589,-429.356,0,0
353889,41.9223,-428.756,0,0
354149,42.0059,-428.198,0,0
354410,42.0589,-427.667,0,0
354670,42.1761,-427.096,0,0
354930,42.2239,-426.6,0,0
355191,42.3597,-426.094,0,0
355451,42.3977,-425.57,0,0
355711,42.4785,-425.025,0,0
355972,42.5474,-424.577,0,0
356232,42.6377,-424.068,0,0
356492,42.6223,-423.603,0,0
356753,42.6328,-423.157,0,0
357013,42.6386,-422.682,0,0
357273,42.6569,-422.223,0,0
357534,42.6448,-421.71,0,0
357794,42.6182,-421.166,0,0
358054,42.5866,-420.694,0,0
358315,42.5818,-420.179,0,0
358575,42.5278,-419.675,0,0
358835,42.5288,-419.127,0,0
359096,42.4821,-418.571,0,0
359356,42.4368,-418.02,0,0
359616,42.4154,-417.502,0,0
359877,42.4085,-416.933,0,0
360137,42.3721,-416.334,0,0
360397,42.3554,-415.77,0,0
360658,42.37,-415.175,0,0
360918,42.366,-414.603,0,0
361178,42.4048,-414.003,0,0
361438,42.3761,-413.459,0,0
361699,42.4066,-412.828,0,0
361959,42.4576,-412.272,0,0
362219,42.4758,-411.661,0,0
362480,42.4814,-411.125,0,0
362740.1,42.543,-410.446,0,0
363000.425,42.5904,-409.875,0,0
363260.75,42.6191,-409.299,0,0
363521.075,42.7156,-408.643,0,0
363781.4,42.7964,-408.065,0,0
364041.725,42.8894,-407.416,0,0
364302.05,43.0221,-406.829,0,0
364562.375,43.1099,-406.229,0,0
364822.7,43.2653,-405.654,0,0
365083.025,43.4027,-405.101,0,0
365343.35,43.5833,-404.505,0,0
365603.675,43.7786,-403.977,0,0
365864.0,43.9403,-403.446,0,0
366124.325,44.136,-402.952,0,0
366384.65,44.2538,-402.479,0,0
366644.975,44.4213,-402.006,0,0
366905.3,44.6024,-401.529,0,0
367165.625,44.7038,-401.077,0,0
367425.95,44.8518,-400.603,0,0
367686.275,44.9525,-400.123,0,0
367946.6,45.0432,-399.622,0,0
368206.925,45.1563,-399.141,0,0
368467.25,45.2676,-398.626,0,0
368727.575,45.3766,-398.111,0,0
368987.9,45.5742,-397.636,0,0
369248.225,45.6862,-397.11,0,0
369508.55,45.9156,-396.545,0,0
369768.875,46.0916,-396.081,0,0
370029.2,46.3342,-395.568,0,0
370289.525,46.632,-395.075,0,0
370549.85,46.9134,-394.658,0,0
370810.175,47.2193,-394.314,0,0
371070.5,47.4789,-393.94,0,0
371330.825,47.7004,-393.643,0,0
371591.15,47.9299,-393.385,0,0
371851.475,48.1259,-393.062,0,0
372111.8,48.3441,-392.817,0,0
372372.125,48.5287,-392.601,0,0
372632.45,48.6632,-392.322,0,0
372892.775,48.776,-392.118,0,0
373153.1,48.8715,-391.932,0,0
373413.425,48.9433,-391.739,0,0
373673.75,49.0005,-391.516,0,0
373934.075,48.9822,-391.289,0,0
374194.4,48.9702,-391.054,0,0
374454.725,48.9285,-390.755,0,0
374715.05,48.9159,-390.458,0,0
374975.375,48.8956,-390.181,0,0
375235.7,48.858,-389.826,0,0
375496.025,48.8451,-389.471,0,0
375756.35,48.8262,-389.131,0,0
376016.675,48.8286,-388.77,0,0
376277.0,48.8628,-388.383,0,0
376537.325,48.9147,-388.03,0,0
376797.65,48.9523,-387.642,0,0
377057.975,49.0573,-387.318,0,0
377318.3,49.1224,-387.057,0,0
377578.625,49.2189,-386.751,0,0
377838.95,49.2429,-386.544,0,0
378099.275,49.2314,-386.288,0,0
378359.6,49.2177,-386.054,0,0
378619.925,49.1331,-385.834,0,0
378880,49.0002,-385.578,0,0
379141,48.8761,-385.252,0,0
379401,48.7216,-384.842,0,0
379661,48.5822,-384.447,0,0
379922,48.5285,-383.991,0,0
380182,48.5238,-383.477,0,0
380442,48.5799,-382.994,0,0
380703,48.7116,-382.55,0,0
380963,48.9101,-382.182,0,0
381223,49.0982,-381.868,0,0
381483,49.2732,-381.686,0,0
381744,49.3967,-381.567,0,0
382004,49.4561,-381.509,0,0
382264,49.4085,-381.471,0,0
382525,49.3077,-381.378,0,0
382785,49.1307,-381.274,0,0
383045,48.9126,-381.157,0,0
383306,48.6506,-380.973,0,0
383566,48.3267,-380.748,0,0
383826,48.0117,-380.483,0,0
384087,47.713,-380.185,0,0
384347,47.3969,-379.848,0,0
384607,47.0738,-379.466,0,0
384868,46.7521,-379.043,0,0
385128,46.4778,-378.57,0,0
385388,46.1831,-378.087,0,0
385649,45.9209,-377.599,0,0
385909,45.7208,-377.063,0,0
386169,45.4817,-376.528,0,0
386430,45.2372,-375.992,0,0
386690,45.0847,-375.417,0,0
386950,44.9007,-374.832,0,0
387211,44.7286,-374.258,0,0
387471,44.5852,-373.63,0,0
387731,44.4599,-373.005,0,0
387992,44.3836,-372.42,0,0
388252,44.3345,-371.821,0,0
388512,44.2706,-371.187,0,0
388773,44.257,-370.613,0,0
389033,44.2539,-370.018,0,0
389293,44.2756,-369.409,0,0
389554,44.2927,-368.894,0,0
389814,44.3192,-368.35,0,0
390074,44.3672,-367.81,0,0
390335,44.3814,-367.299,0,0
390595,44.4172,-366.796,0,0
390855,44.4408,-366.34,0,0
391116,44.4551,-365.879,0,0
391376,44.4514,-365.356,0,0
391636,44.4665,-364.878,0,0
391896,44.4425,-364.398,0,0
392157,44.4705,-363.913,0,0
392417,44.4543,-363.405,0,0
392677,44.4504,-362.915,0,0
392938,44.4397,-362.441,0,0
393198,44.4108,-361.943,0,0
393458,44.4398,-361.425,0,0
393719,44.4487,-360.947,0,0
393979,44.4493,-360.448,0,0
394239,44.4576,-359.966,0,0
394500,44.4595,-359.434,0,0
394760.05,44.4627,-358.935,0,0
395020.375,44.4952,-358.408,0,0
395280.7,44.4822,-357.903,0,0
395541.025,44.5064,-357.377,0,0
395801.35,44.5499,-356.833,0,0
396061.675,44.5924,-356.315,0,0
396322.0,44.6667,-355.798,0,0
396582.325,44.7363,-355.298,0,0
396842.65,44.7857,-354.838,0,0
397102.975,44.8533,-354.343,0,0
397363.3,44.9315,-353.854,0,0
397623.625,44.9993,-353.416,0,0
397883.95,45.0575,-352.966,0,0
398144.275,45.0864,-352.517,0,0
398404.6,45.1118,-352.039,0,0
398664.925,45.1321,-351.585,0,0
398925.25,45.1631,-351.122,0,0
399185.575,45.1748,-350.647,0,0
399445.9,45.191,-350.175,0,0
399706.225,45.1967,-349.69,0,0
399966.55,45.1811,-349.188,0,0
400006.6,45.1825,-349.091,0,0