File: Accelerated corrosion test data/2025-10-06_14-56-48/sample_2.csv
Frequency (Hz),Impedance (ohms),Phase (Radians),Temperature (C),Humidity (%)
10000.0,235.235,-11351.4,0,0
10260.325,229.883,-11066.3,0,0
10520.65,224.455,-10794.9,0,0
10780.975,219.41,-10535.3,0,0
11041.3,213.655,-10289.5,0,0
11301.625,208.617,-10054.4,0,0
11561.95,205.788,-9828.47,0,0
11822.275,202.149,-9618.88,0,0
12082.6,199.331,-9412.92,0,0
12342.925,192.178,-9216.91,0,0
12603.25,188.138,-9026.9,0,0
12863.575,184.17,-8844.68,0,0
13123.9,182.003,-8672.58,0,0
13384.225,177.536,-8502.43,0,0
13644.55,175.304,-8339.44,0,0
13904.875,188.663,-8185.66,0,0
14165.2,169.387,-8041.88,0,0
14425.525,166.217,-7894.89,0,0
14685.8,167.509,-7749.55,0,0
14946.175,164.805,-7622.61,0,0
15206.5,170.507,-7497.48,0,0
15466.825,165.287,-7365.91,0,0
15727.15,154.805,-7254.79,0,0
15987.5,151.526,-7133.77,0,0
16247.8,150.999,-7019.81,0,0
16508.125,146.427,-6911.07,0,0
16768.45,143.642,-6803.64,0,0
17028.775,142.512,-6700.21,0,0
17289.1,141.078,-6599.93,0,0
17549.425,137.122,-6501.87,0,0
17809.75,136.099,-6407.03,0,0
18070.075,133.269,-6314.68,0,0
18330.4,131.885,-6224.27,0,0
18590.725,130.875,-6136.69,0,0
18851.05,129.673,-6051.53,0,0
19111.375,131.224,-5970.42,0,0
19371.7,130.461,-5892.85,0,0
19632.025,125.485,-5815.91,0,0
19892.35,122.945,-5738.57,0,0
20152.675,121.238,-5663.57,0,0
20413.0,120.434,-5589.84,0,0
20673.3,119.467,-5517.96,0,0
20933.65,119.975,-5446.86,0,0
21193.975,124.977,-5380.39,0,0
21454.3,130.726,-5316.99,0,0
21714.625,129.311,-5261.78,0,0
21974.9,122.622,-5198.5,0,0
22235.275,120.67,-5144.26,0,0
22495.6,116.488,-5084.55,0,0
22755.925,113.267,-5024,0,0
23016.25,113.708,-4968.29,0,0
23276.6,113.977,-4913.65,0,0
23536.9,109.852,-4859.31,0,0
23797.225,108.192,-4806.05,0,0
24057.55,107.94,-4754.94,0,0
24317.875,104.593,-4704.27,0,0
24578.2,103.088,-4654.09,0,0
24838.525,101.951,-4604.47,0,0
25098.85,100.795,-4555.7,0,0
25359.175,99.3919,-4508.67,0,0
25619.5,98.5923,-4463.3,0,0
25879.8,97.3579,-4417.08,0,0
26140.1,97.8625,-4371.89,0,0
26400.5,97.0098,-4329.69,0,0
26660.8,97.3976,-4287.78,0,0
26921.1,96.587,-4246.21,0,0
27181.4,94.7364,-4206.35,0,0
27441.8,93.5896,-4166.17,0,0
27702.1,91.7886,-4126.66,0,0
27962.4,91.1026,-4086.33,0,0
28222.7,91.7977,-4048.06,0,0
28483.1,90.9595,-4010.54,0,0
28743.4,90.3587,-3974.01,0,0
29003.7,91.2355,-3936.12,0,0
29264,92.3917,-3901.98,0,0
29524.4,93.7231,-3865.49,0,0
29784.7,97.7303,-3836.42,0,0
30045,93.3422,-3805,0,0
30305.3,94.7763,-3772.66,0,0
30565.7,91.6141,-3744.87,0,0
30826,88.7133,-3712.14,0,0
31086.3,87.8238,-3680.1,0,0
31346.6,85.6017,-3649.62,0,0
31607,86.1599,-3618.52,0,0
31867.3,84.4885,-3589.67,0,0
32127.6,83.2418,-3559.29,0,0
32387.9,83.2114,-3529.45,0,0
32648.3,84.046,-3501.4,0,0
32908.6,84.2125,-3475.48,0,0
33168.9,82.5523,-3448.92,0,0
33429.2,80.392,-3421.48,0,0
33689.6,80.5545,-3394.86,0,0
33949.9,79.6524,-3368.95,0,0
34210.2,78.0518,-3343.28,0,0
34470.5,77.0592,-3317.08,0,0
34730.9,76.4659,-3291.8,0,0
34991.2,76.3067,-3266.95,0,0
35251.5,75.5392,-3242.49,0,0
35511.8,74.9996,-3218.42,0,0
35772.2,74.7505,-3194.49,0,0
36032.5,74.0349,-3171.12,0,0
36292.8,73.4208,-3148.12,0,0
36553.1,72.7756,-3125.3,0,0
36813.5,72.2432,-3102.63,0,0
37073.8,72.1405,-3080.38,0,0
37334.1,71.9016,-3058.43,0,0
37594.4,71.554,-3037.29,0,0
37854.8,70.9585,-3015.84,0,0
38115.1,70.6329,-2995.25,0,0
38375.4,69.8817,-2974.6,0,0
38635.7,69.5314,-2954.17,0,0
38896.1,69.3256,-2933.83,0,0
39156.4,68.8521,-2914.13,0,0
39416.7,68.4623,-2894.55,0,0
39677,67.9853,-2875.07,0,0
39937.4,67.5722,-2855.82,0,0
40197.7,67.1861,-2837.11,0,0
40458,66.8645,-2818.27,0,0
40718.3,66.626,-2799.68,0,0
40978.7,66.654,-2781.81,0,0
41239,66.3885,-2763.59,0,0
41499.3,66.185,-2745.86,0,0
41759.6,65.802,-2728.58,0,0
42020,65.5513,-2711.16,0,0
42280.275,65.4497,-2694.33,0,0
42540.6,65.1521,-2677.62,0,0
42800.925,64.7743,-2661.11,0,0
43061.25,64.4712,-2644.52,0,0
43321.575,64.2578,-2628.21,0,0
43581.9,64.0288,-2612.13,0,0
43842.225,63.4281,-2596.28,0,0
44102.55,63.4783,-2580.28,0,0
44362.875,63.5791,-2564.89,0,0
44623.2,62.8997,-2549.65,0,0
44883.525,62.7568,-2534.39,0,0
45143.85,62.7065,-2519.12,0,0
45404.175,62.6915,-2504.21,0,0
45664.5,62.3128,-2489.84,0,0
45924.825,61.9883,-2474.81,0,0
46185.15,62.3394,-2460.72,0,0
46445.475,62.0194,-2446.76,0,0
46705.8,61.5024,-2432.8,0,0
46966.125,61.0862,-2418.64,0,0
47226.45,61.3203,-2404.83,0,0
47486.775,61.3268,-2391.45,0,0
47747.1,61.1739,-2378.21,0,0
48007.425,61.016,-2364.6,0,0
48267.75,61.5109,-2351.21,0,0
48528.075,62.0526,-2339.02,0,0
48788.4,61.5841,-2326.87,0,0
49048.725,61.057,-2314.66,0,0
49309.05,60.4906,-2302.15,0,0
49569.375,59.7125,-2289.64,0,0
49829.7,59.4859,-2277.35,0,0
50090.025,58.9466,-2265.2,0,0
50350.35,58.5439,-2252.93,0,0
50610.675,58.2245,-2240.62,0,0
50871.0,58.2492,-2228.6,0,0
51131.325,58.1153,-2217.27,0,0
51391.65,57.6741,-2205.82,0,0
51651.975,57.0676,-2194.28,0,0
51912.3,56.7373,-2182.71,0,0
52172.625,56.3322,-2171.08,0,0
52432.95,56.1443,-2159.92,0,0
52693.275,55.8285,-2148.49,0,0
52953.6,55.6516,-2137.34,0,0
53213.925,55.4408,-2126.2,0,0
53474.25,55.3732,-2115.26,0,0
53734.575,55.1317,-2104.52,0,0
53994.9,55.0078,-2093.68,0,0
54255.225,54.6808,-2083.07,0,0
54515.55,54.8962,-2072.37,0,0
54775.875,54.7392,-2062.05,0,0
55036.2,54.6276,-2051.83,0,0
55296.525,54.3957,-2041.57,0,0
55556.85,54.4168,-2031.21,0,0
55817.175,54.3571,-2021.17,0,0
56077.5,54.3672,-2011.32,0,0
56337.825,54.2209,-2001.47,0,0
56598.15,54.1682,-1991.55,0,0
56858.475,54.2424,-1981.82,0,0
57118.8,54.3533,-1972.22,0,0
57379.125,54.4074,-1962.86,0,0
57639.45,54.5029,-1953.26,0,0
57899.775,54.4974,-1943.96,0,0
58160.1,54.4102,-1934.82,0,0
58420.4,54.3394,-1925.48,0,0
58680.7,54.3375,-1916.37,0,0
58941.1,54.5787,-1907.12,0,0
59201.4,54.8467,-1898.08,0,0
59461.7,55.0294,-1889.15,0,0
59722,55.224,-1880.24,0,0
59982.4,55.898,-1871.41,0,0
60242.7,56.6654,-1863.14,0,0
60503,56.7678,-1855.17,0,0
60763.3,56.7796,-1846.97,0,0
61023.7,57.0266,-1838.53,0,0
61284,57.6608,-1830.29,0,0
61544.3,58.6626,-1822.65,0,0
61804.6,59.1567,-1815.54,0,0
62065,59.0985,-1808.89,0,0
62325.3,58.3713,-1801.84,0,0
62585.6,57.9132,-1793.97,0,0
62845.9,57.815,-1786.75,0,0
63106.3,57.3223,-1779.9,0,0
63366.6,56.1501,-1772.58,0,0
63626.9,55.3238,-1764.83,0,0
63887.2,54.7391,-1757.3,0,0
64147.6,54.2261,-1749.53,0,0
64407.9,53.6413,-1742.01,0,0
64668.2,53.121,-1734.59,0,0
64928.5,52.3357,-1726.8,0,0
65188.9,51.9499,-1719.07,0,0
65449.2,51.2583,-1711.36,0,0
65709.5,51.0365,-1703.26,0,0
65969.8,51.062,-1695.64,0,0
66230.2,51.1404,-1688.07,0,0
66490.5,51.2817,-1680.48,0,0
66750.8,51.3373,-1673.36,0,0
67011.1,51.3498,-1665.76,0,0
67271.5,51.7406,-1658.22,0,0
67531.8,52.4083,-1651.2,0,0
67792.1,52.7524,-1644.16,0,0
68052.4,53.5899,-1637.63,0,0
68312.8,53.7665,-1631.35,0,0
68573.1,54.143,-1624.69,0,0
68833.4,54.4651,-1618.32,0,0
69093.7,55.0863,-1611.83,0,0
69354.1,55.3029,-1606.15,0,0
69614.4,55.5905,-1600.15,0,0
69874.7,56.1786,-1594.56,0,0
70135,56.0202,-1589.51,0,0
70395.4,55.502,-1584.12,0,0
70655.7,54.4616,-1578.81,0,0
70916,53.287,-1572.7,0,0
71176.3,52.6417,-1566.51,0,0
71436.7,52.0978,-1560.51,0,0
71697,51.4973,-1554.75,0,0
71957.3,50.3719,-1549.1,0,0
72217.6,48.9955,-1542.74,0,0
72478,48.0889,-1536.03,0,0
72738.3,47.4986,-1529.41,0,0
72998.6,46.9902,-1522.79,0,0
73258.9,46.7699,-1516.47,0,0
73519.3,46.0638,-1510.08,0,0
73779.6,45.6409,-1503.39,0,0
74039.9,45.4053,-1496.73,0,0
74300.225,45.5322,-1490.24,0,0
74560.55,45.5255,-1484,0,0
74820.875,45.5323,-1477.68,0,0
75081.2,45.7045,-1471.36,0,0
75341.525,45.8412,-1465.2,0,0
75601.85,46.1254,-1459.03,0,0
75862.175,46.4049,-1453.03,0,0
76122.5,46.926,-1446.94,0,0
76382.825,47.3966,-1441.18,0,0
76643.15,47.8302,-1435.42,0,0
76903.475,48.2623,-1429.7,0,0
77163.8,48.7694,-1424.04,0,0
77424.125,49.4197,-1418.46,0,0
77684.45,50.0988,-1413.16,0,0
77944.775,50.8562,-1407.9,0,0
78205.1,51.6831,-1402.9,0,0
78465.425,52.3963,-1398.16,0,0
78725.75,52.8534,-1393.58,0,0
78986.075,53.3265,-1388.99,0,0
79246.4,53.716,-1384.81,0,0
79506.725,53.7137,-1380.61,0,0
79767.05,53.4358,-1376.56,0,0
80027.375,52.9184,-1372.13,0,0
80287.7,52.1596,-1367.62,0,0
80548.025,51.4993,-1362.79,0,0
80808.35,50.8761,-1357.86,0,0
81068.675,50.3582,-1352.82,0,0
81329.0,49.9079,-1347.75,0,0
81589.325,49.5859,-1342.66,0,0
81849.65,49.2994,-1337.64,0,0
82109.975,48.9669,-1332.55,0,0
82370.3,48.754,-1327.45,0,0
82630.625,48.5351,-1322.3,0,0
82890.95,48.4309,-1317.12,0,0
83151.275,48.4921,-1311.99,0,0
83411.6,48.6262,-1306.94,0,0
83671.925,48.8478,-1302.05,0,0
83932.25,49.0618,-1297.17,0,0
84192.575,49.3245,-1292.39,0,0
84452.9,49.5007,-1287.8,0,0
84713.225,49.6083,-1283.17,0,0
84973.55,49.6855,-1278.45,0,0
85233.875,49.8847,-1273.77,0,0
85494.2,50.1514,-1269.21,0,0
85754.525,50.4449,-1264.69,0,0
86014.85,50.6349,-1260.31,0,0
86275.175,50.815,-1255.93,0,0
86535.5,51.0047,-1251.62,0,0
86795.825,51.0766,-1247.22,0,0
87056.15,51.2554,-1242.74,0,0
87316.475,51.7837,-1238.51,0,0
87576.8,51.9986,-1234.57,0,0
87837.125,51.7638,-1230.61,0,0
88097.45,51.7115,-1226.46,0,0
88357.775,51.7508,-1222.03,0,0
88618.1,51.9504,-1217.99,0,0
88878.425,51.4104,-1213.9,0,0
89138.75,51.4266,-1209.29,0,0
89399.075,51.7389,-1204.94,0,0
89659.4,51.8423,-1200.66,0,0
89919.725,52.4743,-1196.5,0,0
90180,52.3296,-1192.9,0,0
90440.4,52.3987,-1188.94,0,0
90700.7,51.9619,-1184.8,0,0
90961,51.9209,-1180.07,0,0
91221.3,52.614,-1175.76,0,0
91481.7,53.0864,-1171.78,0,0
91742,53.3506,-1167.87,0,0
92002.3,53.4171,-1163.85,0,0
92262.6,53.9364,-1159.72,0,0
92523,54.4986,-1155.88,0,0
92783.3,54.945,-1152.27,0,0
93043.6,55.3597,-1148.46,0,0
93303.9,55.9966,-1144.91,0,0
93564.3,56.4721,-1141.62,0,0
93824.6,56.8917,-1138.41,0,0
94084.9,56.8178,-1135.51,0,0
94345.2,56.4017,-1132.41,0,0
94605.6,55.714,-1128.61,0,0
94865.9,55.9017,-1124.62,0,0
95126.2,55.9484,-1121.32,0,0
95386.5,55.5564,-1117.65,0,0
95646.9,55.2686,-1113.66,0,0
95907.2,55.4795,-1109.34,0,0
96167.5,56.1804,-1105.3,0,0
96427.8,57.1077,-1101.83,0,0
96688.2,57.8146,-1098.89,0,0
96948.5,58.0518,-1095.83,0,0
97208.8,58.4121,-1092.75,0,0
97469.1,58.8368,-1089.87,0,0
97729.5,58.9777,-1087.24,0,0
97989.8,58.976,-1084.65,0,0
98250.1,58.574,-1082.06,0,0
98510.4,58.1886,-1079.26,0,0
98770.8,57.8134,-1076.43,0,0
99031.1,57.325,-1073.92,0,0
99291.4,56.2671,-1071.37,0,0
99551.7,54.87,-1068.24,0,0
99812.1,53.6306,-1064.74,0,0
100072,52.6476,-1060.83,0,0
100333,52.0395,-1056.92,0,0
100593,51.6895,-1053.17,0,0
100853,51.239,-1049.73,0,0
101114,50.655,-1046.34,0,0
101374,49.732,-1042.82,0,0
101634,48.7885,-1038.91,0,0
101895,48.0727,-1034.8,0,0
102155,47.6179,-1030.59,0,0
102415,47.3333,-1026.43,0,0
102676,47.1079,-1022.48,0,0
102936,46.7594,-1018.28,0,0
103196,46.6363,-1014.06,0,0
103457,46.6772,-1009.92,0,0
103717,46.6307,-1005.72,0,0
103977,46.7495,-1001.19,0,0
104238,47.3975,-996.862,0,0
104498,48.1881,-992.716,0,0
104758,49.209,-988.806,0,0
105019,50.2221,-985.268,0,0
105279,50.9322,-981.923,0,0
105539,51.6856,-978.254,0,0
105800,52.7696,-974.673,0,0
106060,54.0699,-971.553,0,0
106320.175,55.0771,-968.829,0,0
106580.5,56.0637,-966.126,0,0
106840.825,56.8961,-963.715,0,0
107101.15,57.324,-961.457,0,0
107361.475,57.625,-959.043,0,0
107621.8,57.9633,-956.645,0,0
107882.125,58.1773,-954.462,0,0
108142.45,57.9884,-952.407,0,0
108402.775,57.3855,-950.023,0,0
108663.1,56.9233,-947.274,0,0
108923.425,56.5064,-944.7,0,0
109183.75,55.8274,-941.956,0,0
109444.075,55.0714,-938.862,0,0
109704.4,54.5843,-935.667,0,0
109964.725,53.9616,-932.545,0,0
110225.05,53.4297,-929.088,0,0
110485.375,53.0363,-925.675,0,0
110745.7,52.7677,-922.112,0,0
111006.025,52.5809,-918.47,0,0
111266.35,52.6309,-914.905,0,0
111526.675,52.7663,-911.417,0,0
111787.0,52.7696,-908.089,0,0
112047.325,52.8135,-904.59,0,0
112307.65,52.8648,-901.159,0,0
112567.975,52.9917,-897.799,0,0
112828.3,53.2158,-894.311,0,0
113088.625,53.4459,-890.848,0,0
113348.95,53.7588,-887.454,0,0
113609.275,54.1632,-884.075,0,0
113869.6,54.622,-880.685,0,0
114129.925,55.0718,-877.315,0,0
114390.25,55.6097,-874.006,0,0
114650.575,56.2156,-870.833,0,0
114910.9,56.7867,-867.558,0,0
115171.225,57.3514,-864.401,0,0
115431.55,57.9793,-861.315,0,0
115691.875,58.7374,-858.224,0,0
115952.2,59.4179,-855.263,0,0
116212.525,60.0822,-852.324,0,0
116472.85,60.8313,-849.321,0,0
116733.175,61.6593,-846.47,0,0
116993.5,62.4083,-843.747,0,0
117253.825,63.1522,-841.055,0,0
117514.15,63.9183,-838.453,0,0
117774.475,64.5998,-835.786,0,0
118034.8,65.3892,-833.26,0,0
118295.125,66.1126,-830.851,0,0
118555.45,66.7359,-828.415,0,0
118815.775,67.4323,-826.032,0,0
119076.1,68.1355,-823.783,0,0
119336.425,68.6397,-821.583,0,0
119596.75,69.1721,-819.462,0,0
119857.075,69.6503,-817.381,0,0
120117.4,69.875,-815.482,0,0
120377.725,70.1066,-813.541,0,0
120638.05,70.1618,-811.566,0,0
120898.375,69.9614,-809.58,0,0
121158.7,69.6874,-807.393,0,0
121419.025,69.4462,-805.027,0,0
121679.35,69.1656,-802.587,0,0
121939.675,68.9593,-800.134,0,0
122200.0,68.699,-797.629,0,0
122460,68.4504,-795.081,0,0
122721,68.1647,-792.459,0,0
122981,67.9959,-789.762,0,0
123241,67.7667,-787.002,0,0
123502,67.6302,-784.192,0,0
123762,67.5352,-781.463,0,0
124022,67.3829,-778.701,0,0
124283,67.2483,-775.849,0,0
124543,67.1284,-772.957,0,0
124803,67.0344,-770.056,0,0
125064,66.9576,-767.032,0,0
125324,66.9818,-763.969,0,0
125584,67.1053,-760.908,0,0
125845,67.2631,-757.875,0,0
126105,67.4528,-754.832,0,0
126365,67.737,-751.757,0,0
126626,68.1227,-748.749,0,0
126886,68.3911,-745.767,0,0
127146,68.8711,-742.721,0,0
127406,69.2035,-739.815,0,0
127667,69.7651,-736.852,0,0
127927,70.3302,-734.075,0,0
128187,70.8239,-731.306,0,0
128448,71.3459,-728.513,0,0
128708,71.8555,-725.781,0,0
128968,72.3483,-723.106,0,0
129229,72.8447,-720.458,0,0
129489,73.2744,-717.804,0,0
129749,73.6774,-715.173,0,0
130010,74.081,-712.484,0,0
130270,74.5324,-709.807,0,0
130530,74.9767,-707.149,0,0
130791,75.4014,-704.46,0,0
131051,75.8364,-701.847,0,0
131311,76.2603,-699.241,0,0
131572,76.6614,-696.652,0,0
131832,77.0235,-694.036,0,0
132092,77.3379,-691.463,0,0
132353,77.5314,-688.857,0,0
132613,77.7316,-686.111,0,0
132873,77.9581,-683.28,0,0
133134,78.2654,-680.378,0,0
133394,78.6436,-677.477,0,0
133654,79.1005,-674.595,0,0
133915,79.5255,-671.791,0,0
134175,79.9231,-668.964,0,0
134435,80.2998,-666.113,0,0
134696,80.6209,-663.146,0,0
134956,81.1188,-660.083,0,0
135216,81.6735,-657.132,0,0
135477,82.2125,-654.102,0,0
135737,82.8206,-651.17,0,0
135997,83.3751,-648.221,0,0
136258,83.9624,-645.207,0,0
136518,84.679,-642.219,0,0
136778,85.3432,-639.254,0,0
137039,85.9659,-636.238,0,0
137299,86.6692,-633.213,0,0
137559,87.4481,-630.158,0,0
137819,88.2846,-627.237,0,0
138080,89.035,-624.35,0,0
138340.125,89.6986,-621.408,0,0
138600.45,90.3417,-618.435,0,0
138860.775,90.931,-615.36,0,0
139121.1,91.5744,-612.145,0,0
139381.425,92.3125,-608.912,0,0
139641.75,93.0987,-605.628,0,0
139902.075,93.8819,-602.363,0,0
140162.4,94.5534,-598.912,0,0
140422.725,95.3469,-595.203,0,0
140683.05,96.454,-591.341,0,0
140943.375,97.8677,-587.581,0,0
141203.7,99.3039,-583.966,0,0
141464.025,100.812,-580.267,0,0
141724.35,102.488,-576.544,0,0
141984.675,104.348,-572.84,0,0
142245.0,106.437,-569.229,0,0
142505.325,108.645,-565.773,0,0
142765.65,110.907,-562.35,0,0
143025.975,113.418,-559.086,0,0
143286.3,115.972,-556.126,0,0
143546.625,118.359,-553.357,0,0
143806.95,120.634,-550.522,0,0
144067.275,122.985,-547.689,0,0
144327.6,125.34,-544.899,0,0
144587.925,127.657,-542.177,0,0
144848.25,130.005,-539.296,0,0
145108.575,132.536,-536.39,0,0
145368.9,135.241,-533.636,0,0
145629.225,137.96,-531.004,0,0
145889.55,140.689,-528.478,0,0
146149.875,143.376,-525.935,0,0
146410.2,146.114,-523.347,0,0
146670.525,148.947,-520.761,0,0
146930.85,151.884,-518.14,0,0
147191.175,155.007,-515.497,0,0
147451.5,158.362,-512.95,0,0
147711.825,161.888,-510.542,0,0
147972.15,165.502,-508.352,0,0
148232.475,169.102,-506.185,0,0
148492.8,172.953,-503.928,0,0
148753.125,177.146,-501.845,0,0
149013.45,181.566,-499.947,0,0
149273.775,186.396,-498.214,0,0
149534.1,191.717,-497.019,0,0
149794.425,197.155,-496.606,0,0
150054.75,202.483,-496.777,0,0
150315.075,207.775,-497.446,0,0
150575.4,212.968,-498.797,0,0
150835.725,217.802,-500.894,0,0
151096.05,222.061,-503.619,0,0
151356.375,225.546,-506.706,0,0
151616.7,228.394,-509.804,0,0
151877.025,230.839,-513.071,0,0
152137.35,232.651,-516.562,0,0
152397.675,233.671,-519.985,0,0
152658.0,234.161,-523.068,0,0
152918.325,234.168,-526.016,0,0
153178.65,233.703,-528.593,0,0
153438.975,232.944,-530.658,0,0
153699.3,232.114,-532.477,0,0
153959.625,231.024,-534.098,0,0
154219.95,229.575,-535.385,0,0
154480,227.946,-536.052,0,0
154741,226.591,-536.278,0,0
155001,225.372,-536.413,0,0
155261,224.053,-536.488,0,0
155522,222.753,-536.077,0,0
155782,221.536,-535.584,0,0
156042,220.568,-534.821,0,0
156303,219.734,-534.021,0,0
156563,218.784,-533.433,0,0
156823,217.657,-532.579,0,0
157084,216.658,-531.314,0,0
157344,215.648,-529.997,0,0
157604,214.642,-528.284,0,0
157864,214.192,-526.166,0,0
158125,214.216,-524.111,0,0
158385,214.45,-522.551,0,0
158645,214.631,-521.165,0,0
158906,214.632,-519.709,0,0
159166,214.819,-518.148,0,0
159426,215.107,-516.669,0,0
159687,215.363,-515.261,0,0
159947,215.608,-513.79,0,0
160207,216.116,-512.14,0,0
160468,216.806,-510.854,0,0
160728,217.233,-509.724,0,0
160988,217.689,-508.389,0,0
161249,218.258,-506.662,0,0
161509,219.719,-504.97,0,0
161769,221.607,-504.106,0,0
162030,223.389,-504.225,0,0
162290,224.675,-504.88,0,0
162550,225.432,-506.032,0,0
162811,225.537,-507.44,0,0
163071,224.636,-508.956,0,0
163331,222.897,-510.013,0,0
163592,220.795,-510.381,0,0
163852,218.715,-510.393,0,0
164112,216.305,-510.185,0,0
164373,213.483,-509.663,0,0
164633,210.366,-508.518,0,0
164893,207.318,-506.511,0,0
165154,204.728,-504.01,0,0
165414,202.409,-501.698,0,0
165674,199.78,-499.083,0,0
165935,197.116,-495.793,0,0
166195,194.903,-492.151,0,0
166455,193.072,-488.16,0,0
166716,191.594,-483.99,0,0
166976,190.329,-479.82,0,0
167236,189.405,-475.538,0,0
167497,188.708,-471.359,0,0
167757,187.975,-467.199,0,0
168017,187.398,-462.719,0,0
168277,187.064,-458.223,0,0
168538,186.965,-453.518,0,0
168798,187.306,-448.679,0,0
169058,188.031,-444.259,0,0
169319,188.74,-440.172,0,0
169579,189.115,-436.122,0,0
169839,189.471,-431.757,0,0
170100,190.02,-427.146,0,0
170360.075,190.86,-422.511,0,0
170620.4,191.82,-418.06,0,0
170880.725,192.578,-413.479,0,0
171141.05,193.441,-408.528,0,0
171401.375,194.756,-403.35,0,0
171661.7,196.497,-398.249,0,0
171922.025,198.32,-393.261,0,0
172182.35,200.441,-388.355,0,0
172442.675,202.497,-383.529,0,0
172703.0,204.659,-378.484,0,0
172963.325,207.077,-373.411,0,0
173223.65,209.788,-368.317,0,0
173483.975,212.754,-363.263,0,0
173744.3,215.919,-358.25,0,0
174004.625,219.199,-353.211,0,0
174264.95,222.78,-348.099,0,0
174525.275,226.845,-342.84,0,0
174785.6,231.638,-337.845,0,0
175045.925,236.813,-333.428,0,0
175306.25,241.991,-329.563,0,0
175566.575,247.087,-325.901,0,0
175826.9,252.289,-322.438,0,0
176087.225,257.819,-319.213,0,0
176347.55,263.322,-316.447,0,0
176607.875,268.68,-314.056,0,0
176868.2,273.865,-311.389,0,0
177128.525,279.686,-308.69,0,0
177388.85,286.297,-306.607,0,0
177649.175,293.058,-305.819,0,0
177909.5,299.314,-306.354,0,0
178169.825,304.27,-307.623,0,0
178430.15,307.951,-308.626,0,0
178690.475,311.276,-309.217,0,0
178950.8,314.107,-308.442,0,0
179211.125,317.052,-308.938,0,0
179471.45,319.466,-309.062,0,0
179731.775,321.526,-308.953,0,0
179992.1,323.256,-308.651,0,0
180252.425,324.404,-308.069,0,0
180512.75,324.954,-306.811,0,0
180773.075,325.517,-304.512,0,0
181033.4,326.22,-301.471,0,0
181293.725,327.346,-297.671,0,0
181554.05,329.22,-293.268,0,0
181814.375,331.821,-288.796,0,0
182074.7,334.815,-284.449,0,0
182335.025,338.07,-279.906,0,0
182595.35,341.804,-275.305,0,0
182855.675,345.778,-270.767,0,0
183116.0,349.914,-266.147,0,0
183376.325,354.384,-261.146,0,0
183636.65,359.763,-255.907,0,0
183896.975,365.858,-251.204,0,0
184157.3,372.105,-246.912,0,0
184417.625,378.446,-242.479,0,0
184677.95,385.456,-238.056,0,0
184938.275,393.107,-233.971,0,0
185198.6,401.073,-230.548,0,0
185458.925,408.99,-227.556,0,0
185719.25,417.161,-224.692,0,0
185979.575,425.709,-222.158,0,0
186239.9,434.536,-220.23,0,0
186500,443.344,-219.071,0,0
186761,451.574,-218.541,0,0
187021,459.034,-217.534,0,0
187281,466.907,-215.811,0,0
187542,475.787,-214.041,0,0
187802,485.364,-213.106,0,0
188062,494.888,-213.336,0,0
188322,503.572,-214.059,0,0
188583,511.722,-214.613,0,0
188843,520.075,-214.967,0,0
189103,528.314,-215.586,0,0
189364,536.278,-215.923,0,0
189624,544.375,-215.953,0,0
189884,552.898,-215.738,0,0
190145,561.818,-215.508,0,0
190405,571.159,-215.353,0,0
190665,580.832,-215.317,0,0
190926,590.896,-215.135,0,0
191186,601.863,-214.977,0,0
191446,613.772,-215.368,0,0
191707,626.306,-216.673,0,0
191967,639.01,-218.84,0,0
192227,651.87,-221.537,0,0
192488,665.232,-224.753,0,0
192748,679.12,-228.851,0,0
193008,693.4,-234.031,0,0
193269,707.926,-240.625,0,0
193529,722.117,-248.851,0,0
193789,735.307,-258.449,0,0
194050,747.288,-268.708,0,0
194310,758.32,-279.021,0,0
194570,768.994,-289.29,0,0
194831,779.693,-299.769,0,0
195091,790.358,-310.909,0,0
195351,800.658,-323.004,0,0
195612,810.189,-335.886,0,0
195872,818.739,-349.465,0,0
196132,826.053,-362.85,0,0
196393,833.105,-375.716,0,0
196653,840.219,-388.861,0,0
196913,847.041,-402.459,0,0
197174,853.565,-416.504,0,0
197434,859.459,-431.35,0,0
197694,864.306,-446.267,0,0
197955,868.718,-460.707,0,0
198215,873.505,-475.651,0,0
198475,877.772,-491.698,0,0
198735,880.878,-508.43,0,0
198996,882.796,-525.364,0,0
199256,883.46,-542.135,0,0
199516,883.116,-558.321,0,0
199777,882.54,-573.796,0,0
200037,882.249,-589.288,0,0
200297,881.956,-605.496,0,0
200558,880.893,-622.797,0,0
200818,878.102,-640.68,0,0
201078,873.794,-658.233,0,0
201339,868.268,-675.287,0,0
201599,861.864,-691.907,0,0
201859,854.479,-707.919,0,0
202120,845.97,-723.584,0,0
202380.025,836.436,-738.345,0,0
202640.35,825.864,-752.332,0,0
202900.675,814.268,-764.858,0,0
203161.0,802.515,-775.869,0,0
203421.325,790.955,-785.678,0,0
203681.65,779.676,-794.521,0,0
203941.975,768.644,-802.88,0,0
204202.3,757.662,-810.782,0,0
204462.625,746.634,-817.756,0,0
204722.95,736.145,-824.526,0,0
204983.275,726.017,-831.206,0,0
205243.6,714.951,-838.401,0,0
205503.925,703.057,-844.516,0,0
205764.25,690.432,-849.638,0,0
206024.575,678.179,-852.911,0,0
206284.9,666.777,-855.228,0,0
206545.225,656.033,-857.175,0,0
206805.55,645.882,-858.497,0,0
207065.875,636.502,-859.522,0,0
207326.2,627.6,-860.749,0,0
207586.525,618.721,-861.756,0,0
207846.85,610.22,-862.347,0,0
208107.175,602.349,-862.507,0,0
208367.5,595.136,-862.79,0,0
208627.825,588.367,-863.466,0,0
208888.15,581.896,-864.399,0,0
209148.475,575.683,-865.802,0,0
209408.8,569.192,-867.527,0,0
209669.125,562.377,-869.587,0,0
209929.45,554.979,-871.749,0,0
210189.775,547.065,-873.456,0,0
210450.1,538.765,-874.652,0,0
210710.425,530.55,-875.316,0,0
210970.75,522.358,-875.838,0,0
211231.075,514.007,-875.756,0,0
211491.4,505.478,-875.25,0,0
211751.725,497.171,-873.865,0,0
212012.05,489.556,-871.79,0,0
212272.375,482.553,-869.581,0,0
212532.7,476.067,-867.553,0,0
212793.025,469.709,-865.533,0,0
213053.35,463.372,-863.383,0,0
213313.675,457.233,-861.155,0,0
213574.0,451.221,-858.457,0,0
213834.325,445.806,-855.622,0,0
214094.65,440.499,-852.764,0,0
214354.975,435.707,-849.879,0,0
214615.3,431.156,-846.882,0,0
214875.625,426.995,-844.16,0,0
215135.95,422.854,-841.593,0,0
215396.275,418.732,-839.111,0,0
215656.6,414.668,-836.485,0,0
215916.925,410.741,-833.666,0,0
216177.25,406.99,-830.87,0,0
216437.575,403.522,-827.932,0,0
216697.9,400.292,-825.056,0,0
216958.225,397.224,-822.073,0,0
217218.55,394.393,-819.104,0,0
217478.875,391.79,-816.181,0,0
217739.2,389.461,-813.268,0,0
217999.525,387.361,-810.468,0,0
218259.85,385.398,-807.972,0,0
218520,383.497,-805.481,0,0
218780,381.668,-802.941,0,0
219041,380.076,-800.445,0,0
219301,378.747,-798.123,0,0
219561,377.509,-796,0,0
219822,376.334,-793.93,0,0
220082,375.171,-792.037,0,0
220342,374.124,-790.194,0,0
220603,372.987,-788.454,0,0
220863,371.906,-786.655,0,0
221123,371.037,-784.644,0,0
221384,370.475,-782.711,0,0
221644,370.13,-780.918,0,0
221904,370.106,-779.413,0,0
222165,370.253,-778.146,0,0
222425,370.461,-777.234,0,0
222685,370.71,-776.646,0,0
222946,370.967,-776.29,0,0
223206,371.058,-776.29,0,0
223466,371.02,-776.578,0,0
223727,370.797,-777.007,0,0
223987,370.237,-777.411,0,0
224247,369.734,-777.886,0,0
224508,368.993,-778.571,0,0
224768,368.237,-779.18,0,0
225028,367.142,-779.839,0,0
225289,366.03,-780.188,0,0
225549,364.884,-780.499,0,0
225809,363.763,-780.752,0,0
226070,362.889,-781.013,0,0
226330,362.201,-781.37,0,0
226590,361.53,-781.73,0,0
226851,361.05,-782.409,0,0
227111,360.433,-783.242,0,0
227371,359.772,-784.292,0,0
227632,359.138,-785.528,0,0
227892,358.429,-786.952,0,0
228152,357.604,-788.602,0,0
228413,356.552,-790.467,0,0
228673,355.338,-792.542,0,0
228933,353.856,-794.799,0,0
229193,351.945,-797.061,0,0
229454,349.679,-799.359,0,0
229714,347.103,-801.649,0,0
229974,344.344,-803.739,0,0
230235,341.243,-805.655,0,0
230495,338.023,-807.324,0,0
230755,334.561,-808.939,0,0
231016,331.104,-810.338,0,0
231276,327.537,-811.619,0,0
231536,323.813,-812.683,0,0
231797,320.028,-813.504,0,0
232057,316.275,-814.219,0,0
232317,312.533,-814.777,0,0
232578,308.754,-815.271,0,0
232838,304.78,-815.654,0,0
233098,300.867,-815.853,0,0
233359,296.918,-815.817,0,0
233619,292.953,-815.615,0,0
233879,289.15,-815.232,0,0
234140,285.443,-814.772,0,0
234400,281.785,-814.302,0,0
234660.3,278.073,-813.757,0,0
234920.625,274.384,-813.129,0,0
235180.95,270.737,-812.568,0,0
235441.275,267.131,-811.765,0,0
235701.6,263.458,-810.955,0,0
235961.925,259.825,-810.037,0,0
236222.25,256.131,-808.961,0,0
236482.575,252.551,-807.775,0,0
236742.9,248.987,-806.558,0,0
237003.225,245.511,-805.233,0,0
237263.55,241.939,-803.776,0,0
237523.875,238.51,-802.232,0,0
237784.2,235.111,-800.579,0,0
238044.525,231.78,-798.787,0,0
238304.85,228.607,-796.877,0,0
238565.175,225.591,-794.916,0,0
238825.5,222.58,-793.039,0,0
239085.825,219.679,-791.121,0,0
239346.15,216.932,-789.075,0,0
239606.475,214.154,-787.01,0,0
239866.8,211.548,-784.893,0,0
240127.125,208.977,-782.783,0,0
240387.45,206.474,-780.696,0,0
240647.775,204.112,-778.657,0,0
240908.1,201.727,-776.495,0,0
241168.425,199.42,-774.526,0,0
241428.75,197.359,-772.376,0,0
241689.075,195.139,-770.292,0,0
241949.4,192.996,-768.161,0,0
242209.725,190.87,-766.063,0,0
242470.05,188.897,-763.92,0,0
242730.375,187.03,-761.808,0,0
242990.7,185.241,-759.759,0,0
243251.025,183.506,-757.855,0,0
243511.35,181.728,-755.964,0,0
243771.675,179.822,-754.062,0,0
244032.0,178.016,-752.255,0,0
244292.325,176.271,-750.371,0,0
244552.65,174.457,-748.554,0,0
244812.975,172.677,-746.743,0,0
245073.3,170.959,-744.941,0,0
245333.625,169.189,-743.162,0,0
245593.95,167.392,-741.555,0,0
245854.275,165.399,-739.98,0,0
246114.6,163.493,-738.336,0,0
246374.925,161.263,-736.745,0,0
246635.25,159.037,-735.021,0,0
246895.575,156.536,-733.123,0,0
247155.9,154.096,-731.042,0,0
247416.225,151.656,-728.735,0,0
247676.55,149.241,-726.161,0,0
247936.875,147.075,-723.58,0,0
248197.2,145.007,-720.808,0,0
248457.525,143.017,-717.952,0,0
248717.85,141.14,-715.176,0,0
248978.175,139.229,-712.281,0,0
249238.5,137.573,-709.287,0,0
249498.825,136.009,-706.333,0,0
249759.15,134.319,-703.275,0,0
250019.475,132.981,-700.13,0,0
250279.8,131.596,-697.02,0,0
250540,130.288,-693.938,0,0
250800,129.108,-690.634,0,0
251061,128.092,-687.411,0,0
251321,127.184,-684.189,0,0
251581,126.38,-680.934,0,0
251842,125.637,-677.759,0,0
252102,125.024,-674.275,0,0
252362,124.382,-671.301,0,0
252623,124.017,-668.012,0,0
252883,123.796,-664.895,0,0
253143,123.577,-661.738,0,0
253404,123.461,-658.681,0,0
253664,123.498,-655.681,0,0
253924,123.303,-652.768,0,0
254185,123.382,-649.715,0,0
254445,123.472,-646.748,0,0
254705,123.594,-643.74,0,0
254966,123.699,-640.769,0,0
255226,123.941,-637.65,0,0
255486,124.411,-634.57,0,0
255747,124.986,-631.485,0,0
256007,125.737,-628.476,0,0
256267,126.655,-625.582,0,0
256528,127.675,-622.802,0,0
256788,128.768,-620.175,0,0
257048,129.913,-617.593,0,0
257309,131.091,-615.172,0,0
257569,132.337,-612.838,0,0
257829,133.47,-610.464,0,0
258090,134.864,-608.254,0,0
258350,136.168,-606.153,0,0
258610,137.483,-604.139,0,0
258871,138.855,-602.092,0,0
259131,140.294,-600.082,0,0
259391,141.689,-598.096,0,0
259651,143.311,-596.213,0,0
259912,145.006,-594.392,0,0
260172,146.757,-592.659,0,0
260432,148.602,-591.082,0,0
260693,150.488,-589.574,0,0
260953,152.444,-588.266,0,0
261213,154.511,-587.081,0,0
261474,156.537,-586.113,0,0
261734,158.592,-585.38,0,0
261994,160.506,-584.788,0,0
262255,162.379,-584.315,0,0
262515,164.184,-584.001,0,0
262775,165.847,-583.713,0,0
263036,167.551,-583.521,0,0
263296,169.182,-583.368,0,0
263556,170.821,-583.422,0,0
263817,172.358,-583.652,0,0
264077,173.806,-584,0,0
264337,175.077,-584.485,0,0
264598,176.164,-585.046,0,0
264858,177.09,-585.721,0,0
265118,177.664,-586.368,0,0
265379,178.133,-586.979,0,0
265639,178.453,-587.545,0,0
265899,178.628,-587.879,0,0
266160,178.668,-588.074,0,0
266420,178.674,-588.11,0,0
266680.25,178.805,-588.016,0,0
266940.575,179.053,-587.92,0,0
267200.9,179.26,-587.888,0,0
267461.225,179.468,-587.908,0,0
267721.55,179.536,-587.96,0,0
267981.875,179.541,-587.906,0,0
268242.2,179.46,-587.8,0,0
268502.525,179.319,-587.625,0,0
268762.85,179.13,-587.191,0,0
269023.175,178.925,-586.717,0,0
269283.5,178.817,-586.01,0,0
269543.825,178.766,-585.168,0,0
269804.15,178.843,-584.263,0,0
270064.475,179.1,-583.244,0,0
270324.8,179.447,-582.189,0,0
270585.125,180.036,-581.024,0,0
270845.45,180.772,-579.792,0,0
271105.775,181.798,-578.625,0,0
271366.1,183.032,-577.587,0,0
271626.425,184.515,-576.669,0,0
271886.75,186.046,-576.019,0,0
272147.075,187.614,-575.449,0,0
272407.4,189.245,-574.953,0,0
272667.725,191.032,-574.454,0,0
272928.05,193.002,-574.093,0,0
273188.375,195.191,-573.888,0,0
273448.7,197.565,-573.932,0,0
273709.025,200.189,-574.267,0,0
273969.35,202.893,-575.025,0,0
274229.675,205.616,-576.142,0,0
274490.0,208.381,-577.756,0,0
274750.325,211.025,-579.853,0,0
275010.65,213.391,-582.398,0,0
275270.975,215.517,-585.361,0,0
275531.3,217.303,-588.665,0,0
275791.625,218.671,-592.359,0,0
276051.95,219.442,-596.288,0,0
276312.275,219.692,-600.396,0,0
276572.6,219.319,-604.503,0,0
276832.925,218.35,-608.497,0,0
277093.25,216.795,-612.243,0,0
277353.575,214.857,-615.551,0,0
277613.9,212.748,-618.559,0,0
277874.225,210.423,-621.151,0,0
278134.55,208.004,-623.546,0,0
278394.875,205.506,-625.658,0,0
278655.2,202.945,-627.549,0,0
278915.525,200.365,-629.264,0,0
279175.85,197.641,-630.745,0,0
279436.175,194.939,-632.043,0,0
279696.5,192.179,-633.087,0,0
279956.825,189.503,-634.026,0,0
280217.15,186.816,-634.74,0,0
280477.475,184.201,-635.406,0,0
280737.8,181.607,-635.966,0,0
280998.125,179.028,-636.483,0,0
281258.45,176.394,-636.951,0,0
281518.775,173.757,-637.252,0,0
281779.1,171.052,-637.574,0,0
282039.425,168.267,-637.837,0,0
282299.75,165.312,-637.941,0,0
282560,162.248,-637.811,0,0
282820,159.074,-637.447,0,0
283081,155.957,-636.71,0,0
283341,152.923,-635.683,0,0
283601,150.142,-634.351,0,0
283862,147.672,-632.856,0,0
284122,145.565,-631.398,0,0
284382,143.61,-630.081,0,0
284643,141.77,-628.986,0,0
284903,139.782,-628.049,0,0
285163,137.628,-627.163,0,0
285424,135.173,-626.167,0,0
285684,132.707,-624.956,0,0
285944,130.085,-623.566,0,0
286205,127.425,-621.86,0,0
286465,124.71,-619.898,0,0
286725,122.12,-617.528,0,0
286986,119.711,-614.841,0,0
287246,117.526,-611.862,0,0
287506,115.593,-608.682,0,0
287767,113.986,-605.291,0,0
288027,112.665,-601.727,0,0
288287,111.698,-598.007,0,0
288548,111.098,-594.13,0,0
288808,110.939,-590.177,0,0
289068,111.298,-586.181,0,0
289329,112.206,-582.258,0,0
289589,113.652,-578.596,0,0
289849,115.564,-575.213,0,0
290109,117.87,-572.323,0,0
290370,120.449,-569.884,0,0
290630,123.161,-567.917,0,0
290890,125.986,-566.409,0,0
291151,128.898,-565.336,0,0
291411,131.852,-564.748,0,0
291671,134.744,-564.633,0,0
291932,137.515,-565.054,0,0
292192,140.023,-565.947,0,0
292452,142.179,-567.267,0,0
292713,143.911,-568.929,0,0
292973,145.151,-570.823,0,0
293233,145.812,-572.854,0,0
293494,145.935,-574.729,0,0
293754,145.59,-576.402,0,0
294014,144.966,-577.756,0,0
294275,144.1,-578.769,0,0
294535,143.154,-579.438,0,0
294795,142.238,-579.642,0,0
295056,141.53,-579.529,0,0
295316,141.239,-579.237,0,0
295576,141.391,-578.98,0,0
295837,141.814,-578.976,0,0
296097,142.479,-579.369,0,0
296357,143.189,-580.27,0,0
296618,143.609,-581.619,0,0
296878,143.673,-583.275,0,0
297138,143.226,-585.064,0,0
297399,142.321,-586.784,0,0
297659,141.025,-588.259,0,0
297919,139.569,-589.514,0,0
298180,137.921,-590.52,0,0
298440,136.195,-591.258,0,0
298700.2,134.461,-591.828,0,0
298960.525,132.749,-592.239,0,0
299220.85,131.056,-592.559,0,0
299481.175,129.334,-592.783,0,0
299741.5,127.551,-592.915,0,0
300001.825,125.718,-592.888,0,0
300262.15,123.89,-592.63,0,0
300522.475,122.126,-592.245,0,0
300782.8,120.403,-591.707,0,0
301043.125,118.83,-591.019,0,0
301303.45,117.361,-590.189,0,0
301563.775,116.094,-589.295,0,0
301824.1,115.036,-588.348,0,0
302084.425,114.208,-587.474,0,0
302344.75,113.538,-586.712,0,0
302605.075,112.981,-586.148,0,0
302865.4,112.485,-585.756,0,0
303125.725,111.94,-585.563,0,0
303386.05,111.277,-585.56,0,0
303646.375,110.506,-585.627,0,0
303906.7,109.56,-585.802,0,0
304167.025,108.461,-585.995,0,0
304427.35,107.207,-586.143,0,0
304687.675,105.764,-586.251,0,0
304948.0,104.177,-586.308,0,0
305208.325,102.482,-586.16,0,0
305468.65,100.715,-585.908,0,0
305728.975,98.931,-585.473,0,0
305989.3,97.1259,-584.897,0,0
306249.625,95.3389,-584.201,0,0
306509.95,93.5819,-583.356,0,0
306770.275,91.8988,-582.408,0,0
307030.6,90.2681,-581.348,0,0
307290.925,88.7414,-580.224,0,0
307551.25,87.3287,-579.023,0,0
307811.575,85.9883,-577.819,0,0
308071.9,84.7056,-576.59,0,0
308332.225,83.474,-575.36,0,0
308592.55,82.2836,-574.125,0,0
308852.875,81.1373,-572.857,0,0
309113.2,80.0491,-571.595,0,0
309373.525,79.0025,-570.298,0,0
309633.85,78.0174,-569.028,0,0
309894.175,77.0582,-567.716,0,0
310154.5,76.1034,-566.412,0,0
310414.825,75.1832,-565.178,0,0
310675.15,74.273,-563.849,0,0
310935.475,73.4015,-562.514,0,0
311195.8,72.5828,-561.142,0,0
311456.125,71.8048,-559.741,0,0
311716.45,71.1029,-558.337,0,0
311976.775,70.4488,-556.975,0,0
312237.1,69.8516,-555.605,0,0
312497.425,69.299,-554.25,0,0
312757.75,68.7648,-552.944,0,0
313018.075,68.2834,-551.665,0,0
313278.4,67.7984,-550.415,0,0
313538.725,67.3323,-549.18,0,0
313799.05,66.8646,-547.958,0,0
314059.375,66.4027,-546.736,0,0
314319.7,65.9522,-545.548,0,0
314580,65.4873,-544.389,0,0
314840,64.9717,-543.173,0,0
315101,64.6001,-541.838,0,0
315361,64.2154,-540.74,0,0
315621,63.8691,-539.549,0,0
315882,63.4775,-538.322,0,0
316142,63.0616,-537.138,0,0
316402,62.7479,-535.907,0,0
316663,62.4451,-534.726,0,0
316923,62.1655,-533.5,0,0
317183,61.9548,-532.335,0,0
317444,61.7154,-531.109,0,0
317704,61.5632,-529.973,0,0
317964,61.3792,-528.819,0,0
318225,61.2146,-527.775,0,0
318485,61.071,-526.672,0,0
318745,60.9117,-525.619,0,0
319006,60.7785,-524.64,0,0
319266,60.5865,-523.68,0,0
319526,60.4503,-522.723,0,0
319787,60.2151,-521.679,0,0
320047,60.0586,-520.724,0,0
320307,59.7927,-519.751,0,0
320567,59.608,-518.794,0,0
320828,59.4341,-517.775,0,0
321088,59.1774,-516.785,0,0
321348,58.9752,-515.849,0,0
321609,58.7667,-514.783,0,0
321869,58.6046,-513.826,0,0
322129,58.3786,-512.908,0,0
322390,58.119,-511.832,0,0
322650,57.8906,-510.862,0,0
322910,57.6301,-509.814,0,0
323171,57.3353,-508.76,0,0
323431,57.0809,-507.609,0,0
323691,56.8336,-506.446,0,0
323952,56.6073,-505.216,0,0
324212,56.4166,-503.922,0,0
324472,56.3418,-502.505,0,0
324733,56.3861,-501.117,0,0
324993,56.4689,-499.794,0,0
325253,56.7044,-498.394,0,0
325514,57.0401,-497.056,0,0
325774,57.4787,-495.758,0,0
326034,58.0377,-494.597,0,0
326295,58.6263,-493.436,0,0
326555,59.3791,-492.495,0,0
326815,59.9828,-491.704,0,0
327076,60.6377,-490.998,0,0
327336,61.2403,-490.411,0,0
327596,61.7661,-489.899,0,0
327857,62.2252,-489.46,0,0
328117,62.6085,-489.055,0,0
328377,63.004,-488.599,0,0
328638,63.302,-488.17,0,0
328898,63.581,-487.75,0,0
329158,63.8567,-487.454,0,0
329419,64.131,-487.022,0,0
329679,64.3897,-486.67,0,0
329939,64.6452,-486.329,0,0
330200,64.8082,-486.101,0,0
330460,64.961,-485.864,0,0
330720.15,65.1413,-485.636,0,0
330980.475,65.1779,-485.451,0,0
331240.8,65.2098,-485.296,0,0
331501.125,65.2246,-485.156,0,0
331761.45,65.1814,-485.016,0,0
332021.775,65.0625,-484.886,0,0
332282.1,64.8212,-484.837,0,0
332542.425,64.6093,-484.729,0,0
332802.75,64.2272,-484.588,0,0
333063.075,63.8139,-484.353,0,0
333323.4,63.3466,-484.056,0,0
333583.725,62.8267,-483.743,0,0
333844.05,62.3347,-483.381,0,0
334104.375,61.8335,-482.872,0,0
334364.7,61.3501,-482.336,0,0
334625.025,60.8622,-481.747,0,0
334885.35,60.3572,-481.143,0,0
335145.675,59.9909,-480.472,0,0
335406.0,59.5604,-479.783,0,0
335666.325,59.1223,-479.146,0,0
335926.65,58.7769,-478.422,0,0
336186.975,58.3843,-477.709,0,0
336447.3,58.0113,-477.058,0,0
336707.625,57.6932,-476.268,0,0
336967.95,57.3313,-475.479,0,0
337228.275,56.9741,-474.716,0,0
337488.6,56.6746,-473.934,0,0
337748.925,56.3808,-473.035,0,0
338009.25,56.1288,-472.174,0,0
338269.575,55.8548,-471.337,0,0
338529.9,55.6009,-470.526,0,0
338790.225,55.425,-469.643,0,0
339050.55,55.2744,-468.728,0,0
339310.875,55.0767,-467.882,0,0
339571.2,54.943,-466.985,0,0
339831.525,54.8672,-466.084,0,0
340091.85,54.7943,-465.215,0,0
340352.175,54.6775,-464.345,0,0
340612.5,54.6701,-463.484,0,0
340872.825,54.6097,-462.649,0,0
341133.15,54.6147,-461.753,0,0
341393.475,54.6071,-460.918,0,0
341653.8,54.6313,-460.021,0,0
341914.125,54.6461,-459.214,0,0
342174.45,54.6401,-458.391,0,0
342434.775,54.7038,-457.549,0,0
342695.1,54.7813,-456.694,0,0
342955.425,54.8009,-455.893,0,0
343215.75,54.8977,-455.004,0,0
343476.075,54.975,-454.226,0,0
343736.4,55.0761,-453.417,0,0
343996.725,55.2273,-452.566,0,0
344257.05,55.3649,-451.8,0,0
344517.375,55.5372,-450.985,0,0
344777.7,55.7796,-450.188,0,0
345038.025,55.952,-449.482,0,0
345298.35,56.1893,-448.697,0,0
345558.675,56.3856,-447.968,0,0
345819.0,56.6533,-447.263,0,0
346079.325,56.8507,-446.551,0,0
346339.65,57.1402,-445.899,0,0
346599.975,57.3453,-445.218,0,0
346860,57.5871,-444.573,0,0
347121,57.827,-443.934,0,0
347381,58.1118,-443.274,0,0
347641,58.3518,-442.671,0,0
347902,58.5887,-442.067,0,0
348162,58.8945,-441.417,0,0
348422,59.1852,-440.844,0,0
348683,59.4718,-440.237,0,0
348943,59.7379,-439.652,0,0
349203,60.0214,-439.096,0,0
349464,60.3882,-438.555,0,0
349724,60.7324,-438.066,0,0
349984,61.0828,-437.597,0,0
350245,61.3902,-437.116,0,0
350505,61.7152,-436.643,0,0
350765,62.0911,-436.27,0,0
351025,62.4186,-435.861,0,0
351286,62.689,-435.502,0,0
351546,62.9769,-435.201,0,0
351806,63.2032,-434.817,0,0
352067,63.4132,-434.496,0,0
352327,63.671,-434.132,0,0
352587,63.8933,-433.776,0,0
352848,64.0614,-433.44,0,0
353108,64.2629,-433.114,0,0
353368,64.4867,-432.761,0,0
353629,64.6943,-432.387,0,0
353889,64.8694,-432.026,0,0
354149,65.1341,-431.729,0,0
354410,65.3774,-431.423,0,0
354670,65.5323,-431.14,0,0
354930,65.7157,-430.804,0,0
355191,65.8884,-430.505,0,0
355451,66.0795,-430.223,0,0
355711,66.2317,-429.868,0,0
355972,66.4383,-429.532,0,0
356232,66.5977,-429.17,0,0
356492,66.8294,-428.866,0,0
356753,67.0562,-428.512,0,0
357013,67.3138,-428.237,0,0
357273,67.588,-427.922,0,0
357534,67.8338,-427.686,0,0
357794,68.1385,-427.442,0,0
358054,68.4658,-427.248,0,0
358315,68.7697,-427.053,0,0
358575,69.0579,-426.916,0,0
358835,69.3386,-426.815,0,0
359096,69.6082,-426.755,0,0
359356,69.8436,-426.737,0,0
359616,70.0831,-426.814,0,0
359877,70.237,-426.852,0,0
360137,70.3441,-426.87,0,0
360397,70.4337,-426.982,0,0
360658,70.468,-427.062,0,0
360918,70.5353,-427.049,0,0
361178,70.4941,-427.087,0,0
361438,70.4886,-427.174,0,0
361699,70.45,-427.197,0,0
361959,70.385,-427.23,0,0
362219,70.2735,-427.277,0,0
362480,70.1366,-427.362,0,0
362740.1,69.9874,-427.421,0,0
363000.425,69.8032,-427.471,0,0
363260.75,69.5984,-427.468,0,0
363521.075,69.3122,-427.398,0,0
363781.4,69.0432,-427.418,0,0
364041.725,68.7451,-427.367,0,0
364302.05,68.4171,-427.261,0,0
364562.375,68.1065,-427.168,0,0
364822.7,67.8058,-427.005,0,0
365083.025,67.4335,-426.835,0,0
365343.35,67.1014,-426.653,0,0
365603.675,66.7557,-426.416,0,0
365864.0,66.45,-426.225,0,0
366124.325,66.0968,-425.924,0,0
366384.65,65.7205,-425.599,0,0
366644.975,65.3993,-425.226,0,0
366905.3,65.0566,-424.816,0,0
367165.625,64.8521,-424.42,0,0
367425.95,64.648,-423.992,0,0
367686.275,64.492,-423.556,0,0
367946.6,64.3177,-423.13,0,0
368206.925,64.2701,-422.732,0,0
368467.25,64.1696,-422.38,0,0
368727.575,64.1474,-422.056,0,0
368987.9,64.129,-421.763,0,0
369248.225,64.12,-421.507,0,0
369508.55,64.0726,-421.296,0,0
369768.875,64.0138,-421.118,0,0
370029.2,63.8966,-421.037,0,0
370289.525,63.7507,-420.865,0,0
370549.85,63.5254,-420.733,0,0
370810.175,63.2923,-420.579,0,0
371070.5,63.0309,-420.385,0,0
371330.825,62.7943,-420.174,0,0
371591.15,62.4567,-419.989,0,0
371851.475,62.1621,-419.707,0,0
372111.8,61.9548,-419.425,0,0
372372.125,61.7015,-419.136,0,0
372632.45,61.4598,-418.803,0,0
372892.775,61.2832,-418.578,0,0
373153.1,61.0288,-418.263,0,0
373413.425,60.7966,-418.031,0,0
373673.75,60.601,-417.767,0,0
373934.075,60.3432,-417.481,0,0
374194.4,60.1062,-417.198,0,0
374454.725,59.8317,-417.033,0,0
374715.05,59.5969,-416.724,0,0
374975.375,59.2853,-416.421,0,0
375235.7,59.0043,-416.216,0,0
375496.025,58.6939,-415.904,0,0
375756.35,58.3734,-415.55,0,0
376016.675,58.0438,-415.262,0,0
376277.0,57.782,-414.934,0,0
376537.325,57.4971,-414.618,0,0
376797.65,57.1947,-414.312,0,0
377057.975,56.9796,-413.94,0,0
377318.3,56.701,-413.614,0,0
377578.625,56.4867,-413.347,0,0
377838.95,56.1946,-413.136,0,0
378099.275,55.9121,-412.836,0,0
378359.6,55.5427,-412.656,0,0
378619.925,55.1142,-412.453,0,0
378880,54.6499,-412.218,0,0
379141,54.0909,-411.912,0,0
379401,53.4867,-411.551,0,0
379661,52.8811,-411.059,0,0
379922,52.2456,-410.468,0,0
380182,51.6684,-409.779,0,0
380442,51.1993,-408.969,0,0
380703,50.8703,-408.124,0,0
380963,50.6893,-407.294,0,0
381223,50.6283,-406.521,0,0
381483,50.6323,-405.89,0,0
381744,50.6748,-405.335,0,0
382004,50.6597,-404.866,0,0
382264,50.6485,-404.452,0,0
382525,50.5058,-404.116,0,0
382785,50.3922,-403.766,0,0
383045,50.175,-403.472,0,0
383306,49.9275,-403.141,0,0
383566,49.7356,-402.765,0,0
383826,49.3928,-402.337,0,0
384087,49.1221,-401.953,0,0
384347,48.8094,-401.545,0,0
384607,48.4616,-401.09,0,0
384868,48.1217,-400.621,0,0
385128,47.7446,-400.102,0,0
385388,47.4713,-399.584,0,0
385649,47.1172,-399.077,0,0
385909,46.7604,-398.511,0,0
386169,46.4667,-397.952,0,0
386430,46.0972,-397.352,0,0
386690,45.8234,-396.697,0,0
386950,45.4848,-396.068,0,0
387211,45.2431,-395.428,0,0
387471,44.959,-394.683,0,0
387731,44.7682,-393.998,0,0
387992,44.554,-393.285,0,0
388252,44.3684,-392.575,0,0
388512,44.2179,-391.882,0,0
388773,44.125,-391.143,0,0
389033,44.0101,-390.452,0,0
389293,43.9654,-389.691,0,0
389554,43.97,-388.958,0,0
389814,43.9774,-388.32,0,0
390074,44.0315,-387.661,0,0
390335,44.0978,-387.061,0,0
390595,44.1732,-386.477,0,0
390855,44.2964,-385.957,0,0
391116,44.4303,-385.511,0,0
391376,44.4459,-385.127,0,0
391636,44.4871,-384.741,0,0
391896,44.4454,-384.419,0,0
392157,44.3269,-384.072,0,0
392417,44.175,-383.788,0,0
392677,43.9918,-383.387,0,0
392938,43.7348,-383.057,0,0
393198,43.4364,-382.608,0,0
393458,43.1396,-382.161,0,0
393719,42.8307,-381.651,0,0
393979,42.534,-381.068,0,0
394239,42.2207,-380.48,0,0
394500,41.9118,-379.862,0,0
394760.05,41.6465,-379.212,0,0
395020.375,41.3573,-378.487,0,0
395280.7,41.1442,-377.718,0,0
395541.025,40.9494,-376.964,0,0
395801.35,40.7711,-376.173,0,0
396061.675,40.6428,-375.407,0,0
396322.0,40.5288,-374.653,0,0
396582.325,40.4896,-373.862,0,0
396842.65,40.4692,-373.063,0,0
397102.975,40.4261,-372.303,0,0
397363.3,40.4628,-371.517,0,0
397623.625,40.474,-370.764,0,0
397883.95,40.5155,-370.028,0,0
398144.275,40.5732,-369.269,0,0
398404.6,40.6684,-368.558,0,0
398664.925,40.7483,-367.857,0,0
398925.25,40.8374,-367.15,0,0
399185.575,40.9738,-366.475,0,0
399445.9,41.0465,-365.837,0,0
399706.225,41.2129,-365.165,0,0
399966.55,41.3089,-364.504,0,0
400006.6,41.3422,-364.418,0,0