File: Accelerated corrosion test data/2025-10-06_14-56-48/sample_1.csv
Frequency (Hz),Impedance (ohms),Phase (Radians),Temperature (C),Humidity (%)
10000.0,241.095,-12126.4,0,0
10260.325,241.435,-11815.2,0,0
10520.65,231.563,-11536.8,0,0
10780.975,226.327,-11254.8,0,0
11041.3,220.817,-10996.6,0,0
11301.625,215.466,-10741.4,0,0
11561.95,211.912,-10498.9,0,0
11822.275,209.235,-10262.1,0,0
12082.6,226.924,-10033,0,0
12342.925,212.016,-9858.87,0,0
12603.25,195.665,-9648.79,0,0
12863.575,192.004,-9448.37,0,0
13123.9,199.071,-9257.69,0,0
13384.225,186.869,-9087.75,0,0
13644.55,181.984,-8907.39,0,0
13904.875,182.907,-8731.51,0,0
14165.2,196.524,-8597.25,0,0
14425.525,212.821,-8428.1,0,0
14685.8,199.23,-8266.6,0,0
14946.175,178.549,-8165.21,0,0
15206.5,184.692,-8005,0,0
15466.825,175.071,-7886.12,0,0
15727.15,172.886,-7758.83,0,0
15987.5,161.528,-7629.27,0,0
16247.8,158.628,-7504.32,0,0
16508.125,156.119,-7381.93,0,0
16768.45,160.023,-7265.92,0,0
17028.775,163.173,-7159.74,0,0
17289.1,154.53,-7056.94,0,0
17549.425,154.148,-6952.45,0,0
17809.75,147.31,-6850.93,0,0
18070.075,147.949,-6752.24,0,0
18330.4,142.314,-6656.58,0,0
18590.725,138.703,-6562.34,0,0
18851.05,138.6,-6465.27,0,0
19111.375,136.348,-6383.95,0,0
19371.7,133.634,-6292.55,0,0
19632.025,132.486,-6204.47,0,0
19892.35,135.794,-6119.46,0,0
20152.675,136.959,-6032.15,0,0
20413.0,156.749,-5946.57,0,0
20673.3,168.051,-5904.24,0,0
20933.65,151.609,-5836.17,0,0
21193.975,156.491,-5771.78,0,0
21454.3,145.428,-5697,0,0
21714.625,139.21,-5633.58,0,0
21974.9,136.522,-5547.87,0,0
22235.275,172.411,-5503.78,0,0
22495.6,141.842,-5462.74,0,0
22755.925,127.21,-5393.96,0,0
23016.25,123.775,-5327.59,0,0
23276.6,118.914,-5267.51,0,0
23536.9,116.199,-5207.1,0,0
23797.225,113.259,-5145.98,0,0
24057.55,115.594,-5085.8,0,0
24317.875,112.894,-5037.7,0,0
24578.2,111.671,-4978.61,0,0
24838.525,111.025,-4928.71,0,0
25098.85,112.075,-4874.85,0,0
25359.175,106.851,-4826.16,0,0
25619.5,105.744,-4774.77,0,0
25879.8,103.914,-4724.61,0,0
26140.1,104.49,-4675.19,0,0
26400.5,102.944,-4626.49,0,0
26660.8,106.02,-4575.81,0,0
26921.1,113.95,-4529.81,0,0
27181.4,119.948,-4494.83,0,0
27441.8,112.071,-4461.43,0,0
27702.1,104.216,-4413.15,0,0
27962.4,111.334,-4364.7,0,0
28222.7,111.185,-4325.5,0,0
28483.1,121.164,-4282.81,0,0
28743.4,129.895,-4264.99,0,0
29003.7,116.443,-4229.66,0,0
29264,118.547,-4194.07,0,0
29524.4,106.745,-4159.67,0,0
29784.7,105.55,-4118.39,0,0
30045,101.595,-4086.08,0,0
30305.3,100.339,-4047.47,0,0
30565.7,97.6255,-4009.34,0,0
30826,101.302,-3975.08,0,0
31086.3,103.379,-3946.04,0,0
31346.6,99.0898,-3917.25,0,0
31607,93.9385,-3880.85,0,0
31867.3,96.957,-3846.88,0,0
32127.6,98.6827,-3816.5,0,0
32387.9,97.8933,-3791.24,0,0
32648.3,93.9465,-3759.49,0,0
32908.6,95.4766,-3731.27,0,0
33168.9,91.5029,-3702.7,0,0
33429.2,89.3801,-3674.94,0,0
33689.6,86.5346,-3645.08,0,0
33949.9,85.1427,-3614.46,0,0
34210.2,86.872,-3588.16,0,0
34470.5,84.3295,-3561.59,0,0
34730.9,82.5557,-3533.7,0,0
34991.2,81.4942,-3506.79,0,0
35251.5,80.6159,-3480.1,0,0
35511.8,80.0023,-3453.92,0,0
35772.2,79.4027,-3428.4,0,0
36032.5,78.0743,-3403.21,0,0
36292.8,77.5664,-3378.06,0,0
36553.1,76.9776,-3353.25,0,0
36813.5,76.6646,-3329.1,0,0
37073.8,76.479,-3305.32,0,0
37334.1,75.588,-3282.12,0,0
37594.4,75.5144,-3258.8,0,0
37854.8,74.6686,-3236.13,0,0
38115.1,74.0474,-3213.28,0,0
38375.4,73.5178,-3190.76,0,0
38635.7,73.6595,-3168.74,0,0
38896.1,72.7471,-3147.38,0,0
39156.4,72.6692,-3125.26,0,0
39416.7,72.6241,-3104.84,0,0
39677,71.5753,-3084.1,0,0
39937.4,71.4459,-3063.02,0,0
40197.7,71.6446,-3042.56,0,0
40458,71.2924,-3022.7,0,0
40718.3,71.0543,-3001.8,0,0
40978.7,72.612,-2982.9,0,0
41239,72.1927,-2964.26,0,0
41499.3,72.1116,-2946.6,0,0
41759.6,71.2397,-2928.16,0,0
42020,70.5416,-2909.25,0,0
42280.275,70.3158,-2890.71,0,0
42540.6,70.8324,-2873.16,0,0
42800.925,70.4201,-2855.78,0,0
43061.25,69.551,-2837.98,0,0
43321.575,69.4445,-2821.29,0,0
43581.9,68.8863,-2804.24,0,0
43842.225,68.0409,-2786.46,0,0
44102.55,68.4709,-2769.14,0,0
44362.875,69.5296,-2752.74,0,0
44623.2,69.5541,-2736.88,0,0
44883.525,68.5581,-2721.32,0,0
45143.85,69.1373,-2706.1,0,0
45404.175,68.9968,-2690.13,0,0
45664.5,68.0537,-2675.34,0,0
45924.825,67.4379,-2659.65,0,0
46185.15,66.9059,-2645.1,0,0
46445.475,66.1244,-2630.3,0,0
46705.8,65.529,-2614.7,0,0
46966.125,64.9129,-2600.02,0,0
47226.45,64.6394,-2585.07,0,0
47486.775,64.8326,-2570.73,0,0
47747.1,64.0077,-2556.63,0,0
48007.425,63.4771,-2542.24,0,0
48267.75,63.4806,-2528.03,0,0
48528.075,63.1045,-2515.37,0,0
48788.4,62.1054,-2500.85,0,0
49048.725,61.4618,-2486.92,0,0
49309.05,61.7337,-2473.15,0,0
49569.375,61.4334,-2459.93,0,0
49829.7,61.1576,-2446.93,0,0
50090.025,60.4897,-2433.99,0,0
50350.35,60.0736,-2420.8,0,0
50610.675,59.734,-2407.62,0,0
50871.0,59.5051,-2394.71,0,0
51131.325,59.5264,-2381.98,0,0
51391.65,59.6294,-2369.72,0,0
51651.975,59.0723,-2357.52,0,0
51912.3,58.6823,-2345.13,0,0
52172.625,58.3828,-2332.94,0,0
52432.95,58.3212,-2320.73,0,0
52693.275,58.1443,-2308.79,0,0
52953.6,57.9618,-2296.88,0,0
53213.925,58.0102,-2285.29,0,0
53474.25,57.9143,-2273.86,0,0
53734.575,57.6638,-2262.29,0,0
53994.9,57.6939,-2251.36,0,0
54255.225,57.1005,-2240.23,0,0
54515.55,56.8432,-2229.05,0,0
54775.875,56.392,-2217.9,0,0
55036.2,56.2992,-2206.73,0,0
55296.525,56.3876,-2195.71,0,0
55556.85,56.3273,-2185.19,0,0
55817.175,55.8854,-2174.91,0,0
56077.5,55.4537,-2164.02,0,0
56337.825,55.3321,-2153.23,0,0
56598.15,55.3486,-2142.94,0,0
56858.475,55.1731,-2132.62,0,0
57118.8,55.0759,-2122.35,0,0
57379.125,54.9055,-2111.94,0,0
57639.45,55.1409,-2102.04,0,0
57899.775,54.9691,-2092.1,0,0
58160.1,55.073,-2082.24,0,0
58420.4,54.9185,-2072.72,0,0
58680.7,54.7275,-2062.95,0,0
58941.1,54.7025,-2053.2,0,0
59201.4,54.836,-2043.73,0,0
59461.7,54.7872,-2034.57,0,0
59722,54.5464,-2025.19,0,0
59982.4,54.6286,-2015.91,0,0
60242.7,54.5477,-2006.74,0,0
60503,54.5913,-1997.67,0,0
60763.3,54.8657,-1989.01,0,0
61023.7,54.3038,-1980.5,0,0
61284,53.9687,-1971.49,0,0
61544.3,53.7081,-1962.52,0,0
61804.6,53.8328,-1953.74,0,0
62065,53.353,-1945.38,0,0
62325.3,52.9876,-1936.37,0,0
62585.6,52.8595,-1927.65,0,0
62845.9,52.8811,-1918.95,0,0
63106.3,52.8991,-1910.36,0,0
63366.6,52.8377,-1902.01,0,0
63626.9,52.8963,-1893.48,0,0
63887.2,52.9503,-1885.14,0,0
64147.6,53.0689,-1876.81,0,0
64407.9,53.058,-1868.65,0,0
64668.2,53.379,-1860.16,0,0
64928.5,53.8827,-1852.14,0,0
65188.9,54.3777,-1844.27,0,0
65449.2,55.1928,-1836.6,0,0
65709.5,55.5854,-1829.66,0,0
65969.8,55.3745,-1822.63,0,0
66230.2,55.2758,-1815.37,0,0
66490.5,54.9975,-1807.98,0,0
66750.8,55.0324,-1801,0,0
67011.1,54.6928,-1793.98,0,0
67271.5,54.0608,-1786.19,0,0
67531.8,54.4801,-1778.7,0,0
67792.1,54.777,-1771.99,0,0
68052.4,54.5434,-1765.2,0,0
68312.8,53.8619,-1758.18,0,0
68573.1,53.8314,-1751.04,0,0
68833.4,53.9407,-1743.96,0,0
69093.7,53.8556,-1737.34,0,0
69354.1,53.2764,-1730.67,0,0
69614.4,53.1219,-1723.88,0,0
69874.7,52.4306,-1717.46,0,0
70135,51.9341,-1710.5,0,0
70395.4,51.4411,-1703.49,0,0
70655.7,50.9844,-1696.47,0,0
70916,50.888,-1689.56,0,0
71176.3,50.7978,-1682.78,0,0
71436.7,50.6497,-1676.28,0,0
71697,50.1231,-1669.77,0,0
71957.3,49.6488,-1663.09,0,0
72217.6,49.0394,-1656.27,0,0
72478,48.8735,-1649.29,0,0
72738.3,48.5374,-1642.42,0,0
72998.6,48.6227,-1635.62,0,0
73258.9,48.7441,-1629.02,0,0
73519.3,48.5286,-1622.6,0,0
73779.6,48.4661,-1616.04,0,0
74039.9,48.4939,-1609.38,0,0
74300.225,48.6695,-1602.99,0,0
74560.55,48.619,-1596.63,0,0
74820.875,48.6244,-1590.21,0,0
75081.2,48.8188,-1584.08,0,0
75341.525,48.8627,-1577.88,0,0
75601.85,48.8263,-1571.59,0,0
75862.175,48.9523,-1565.23,0,0
76122.5,49.3426,-1559.06,0,0
76382.825,49.5516,-1553.13,0,0
76643.15,49.7898,-1547.24,0,0
76903.475,50.0156,-1541.27,0,0
77163.8,50.2696,-1535.46,0,0
77424.125,50.3873,-1529.75,0,0
77684.45,50.4895,-1523.94,0,0
77944.775,50.6565,-1518.01,0,0
78205.1,51.0949,-1512.25,0,0
78465.425,51.7299,-1506.74,0,0
78725.75,52.1244,-1501.66,0,0
78986.075,52.2274,-1496.56,0,0
79246.4,52.1116,-1491.35,0,0
79506.725,52.0999,-1486.09,0,0
79767.05,51.8732,-1480.83,0,0
80027.375,51.6874,-1475.47,0,0
80287.7,51.3823,-1470.28,0,0
80548.025,51.0095,-1464.66,0,0
80808.35,51.058,-1459.13,0,0
81068.675,50.8963,-1453.53,0,0
81329.0,51.0405,-1447.83,0,0
81589.325,51.2265,-1442.51,0,0
81849.65,51.2991,-1437.12,0,0
82109.975,51.429,-1431.81,0,0
82370.3,51.4648,-1426.45,0,0
82630.625,51.5849,-1421.2,0,0
82890.95,51.6245,-1415.73,0,0
83151.275,52.0061,-1410.42,0,0
83411.6,52.3286,-1405.22,0,0
83671.925,52.6141,-1399.99,0,0
83932.25,52.9596,-1394.86,0,0
84192.575,53.3482,-1389.86,0,0
84452.9,53.7006,-1384.77,0,0
84713.225,54.0439,-1379.66,0,0
84973.55,54.6172,-1374.83,0,0
85233.875,55.2088,-1370.03,0,0
85494.2,55.5027,-1365.57,0,0
85754.525,55.7094,-1360.94,0,0
86014.85,55.9459,-1356.19,0,0
86275.175,56.2341,-1351.61,0,0
86535.5,56.4262,-1347.01,0,0
86795.825,56.6213,-1342.44,0,0
87056.15,56.6936,-1337.66,0,0
87316.475,57.1136,-1333.14,0,0
87576.8,57.1099,-1328.83,0,0
87837.125,56.9169,-1324.31,0,0
88097.45,56.9377,-1319.41,0,0
88357.775,56.882,-1314.62,0,0
88618.1,57.2373,-1309.46,0,0
88878.425,57.7525,-1304.89,0,0
89138.75,57.8361,-1300.08,0,0
89399.075,58.2316,-1295.19,0,0
89659.4,58.8473,-1290.03,0,0
89919.725,59.7769,-1285.2,0,0
90180,60.6672,-1280.88,0,0
90440.4,61.2999,-1276.22,0,0
90700.7,62.012,-1271.64,0,0
90961,63.1509,-1266.9,0,0
91221.3,64.4863,-1262.53,0,0
91481.7,65.8749,-1258.32,0,0
91742,67.4692,-1254.45,0,0
92002.3,68.5139,-1251.1,0,0
92262.6,69.6383,-1247.22,0,0
92523,70.9653,-1243.51,0,0
92783.3,72.666,-1240.1,0,0
93043.6,74.1833,-1237.28,0,0
93303.9,75.6239,-1234.69,0,0
93564.3,77.1072,-1232.41,0,0
93824.6,78.7538,-1231.46,0,0
94084.9,78.3586,-1231.57,0,0
94345.2,75.789,-1230.36,0,0
94605.6,73.3959,-1227.03,0,0
94865.9,72.4816,-1223.47,0,0
95126.2,70.9209,-1220.41,0,0
95386.5,69.7077,-1216.75,0,0
95646.9,68.0678,-1213.04,0,0
95907.2,66.8294,-1208.62,0,0
96167.5,66.2739,-1203.85,0,0
96427.8,66.3842,-1199.79,0,0
96688.2,65.7814,-1196.21,0,0
96948.5,65.0125,-1192.17,0,0
97208.8,64.3969,-1187.81,0,0
97469.1,64.1909,-1183.4,0,0
97729.5,64.1877,-1179.08,0,0
97989.8,64.3169,-1175.06,0,0
98250.1,64.4368,-1171.29,0,0
98510.4,64.2784,-1167.67,0,0
98770.8,63.8644,-1163.87,0,0
99031.1,63.5186,-1159.67,0,0
99291.4,63.5007,-1155.61,0,0
99551.7,63.3585,-1151.6,0,0
99812.1,63.3323,-1147.38,0,0
100072,63.6539,-1143.37,0,0
100333,63.7524,-1139.6,0,0
100593,63.7345,-1135.68,0,0
100853,63.7326,-1131.81,0,0
101114,63.7339,-1127.88,0,0
101374,63.6724,-1124.05,0,0
101634,63.444,-1120.03,0,0
101895,63.1847,-1115.76,0,0
102155,63.0905,-1111.09,0,0
102415,63.4282,-1106.19,0,0
102676,64.3976,-1101.36,0,0
102936,65.5716,-1097.15,0,0
103196,66.5946,-1093.19,0,0
103457,67.478,-1089.11,0,0
103717,68.5301,-1084.98,0,0
103977,69.7587,-1080.86,0,0
104238,71.6088,-1076.96,0,0
104498,73.3122,-1073.81,0,0
104758,74.4474,-1070.91,0,0
105019,75.4307,-1067.68,0,0
105279,76.4692,-1064.31,0,0
105539,77.7435,-1060.92,0,0
105800,79.2617,-1057.59,0,0
106060,80.8465,-1054.72,0,0
106320.175,82.2379,-1051.98,0,0
106580.5,83.5694,-1049.26,0,0
106840.825,84.9163,-1046.71,0,0
107101.15,86.2968,-1044.12,0,0
107361.475,87.7592,-1042,0,0
107621.8,88.8038,-1040.06,0,0
107882.125,89.5961,-1038.01,0,0
108142.45,90.4713,-1035.72,0,0
108402.775,91.4658,-1033.54,0,0
108663.1,92.5569,-1031.62,0,0
108923.425,93.3937,-1029.97,0,0
109183.75,94.1217,-1028.36,0,0
109444.075,94.5237,-1027.06,0,0
109704.4,94.5753,-1025.46,0,0
109964.725,94.4368,-1023.89,0,0
110225.05,93.9709,-1022.02,0,0
110485.375,93.723,-1019.67,0,0
110745.7,93.5702,-1017.37,0,0
111006.025,93.4929,-1014.92,0,0
111266.35,93.5965,-1012.16,0,0
111526.675,94.1921,-1009.7,0,0
111787.0,94.5183,-1007.96,0,0
112047.325,94.6251,-1006.02,0,0
112307.65,94.9889,-1003.93,0,0
112567.975,95.2039,-1002.14,0,0
112828.3,95.2785,-1000.36,0,0
113088.625,95.2299,-998.567,0,0
113348.95,95.099,-996.911,0,0
113609.275,94.7691,-995.312,0,0
113869.6,94.4182,-993.705,0,0
114129.925,93.6835,-992.082,0,0
114390.25,92.9065,-990.181,0,0
114650.575,92.1516,-988.15,0,0
114910.9,91.3273,-986.109,0,0
115171.225,90.2775,-983.98,0,0
115431.55,89.4095,-981.742,0,0
115691.875,88.3857,-979.431,0,0
115952.2,87.3272,-976.793,0,0
116212.525,86.4862,-974.125,0,0
116472.85,85.6297,-971.34,0,0
116733.175,84.8416,-968.596,0,0
116993.5,84.0693,-965.841,0,0
117253.825,83.1877,-962.93,0,0
117514.15,82.4181,-959.826,0,0
117774.475,81.8112,-956.587,0,0
118034.8,81.3723,-953.416,0,0
118295.125,81.0688,-950.29,0,0
118555.45,80.8091,-947.15,0,0
118815.775,80.6346,-943.988,0,0
119076.1,80.4873,-940.931,0,0
119336.425,80.5317,-937.827,0,0
119596.75,80.605,-934.74,0,0
119857.075,80.8938,-931.724,0,0
120117.4,81.2702,-928.998,0,0
120377.725,81.3939,-926.434,0,0
120638.05,81.583,-923.954,0,0
120898.375,81.5737,-921.548,0,0
121158.7,81.4272,-919.126,0,0
121419.025,81.2524,-916.583,0,0
121679.35,81.017,-914.142,0,0
121939.675,80.6508,-911.525,0,0
122200.0,80.3413,-908.774,0,0
122460,80.1253,-906.1,0,0
122721,79.7478,-903.301,0,0
122981,79.4196,-900.419,0,0
123241,79.2478,-897.441,0,0
123502,79.127,-894.511,0,0
123762,79.0846,-891.478,0,0
124022,78.9666,-888.469,0,0
124283,78.9837,-885.478,0,0
124543,79.2093,-882.536,0,0
124803,79.3002,-879.712,0,0
125064,79.3129,-876.797,0,0
125324,79.4671,-873.827,0,0
125584,79.7374,-870.83,0,0
125845,79.9997,-868,0,0
126105,80.2364,-865.181,0,0
126365,80.4665,-862.336,0,0
126626,80.8084,-859.536,0,0
126886,81.0426,-856.758,0,0
127146,81.3288,-853.88,0,0
127406,81.6042,-850.945,0,0
127667,81.7808,-847.996,0,0
127927,82.2929,-845.043,0,0
128187,82.7636,-842.276,0,0
128448,83.3768,-839.391,0,0
128708,83.93,-836.602,0,0
128968,84.4463,-833.868,0,0
129229,84.9988,-830.999,0,0
129489,85.5876,-828.194,0,0
129749,86.3462,-825.264,0,0
130010,87.3291,-822.456,0,0
130270,88.421,-819.855,0,0
130530,89.4946,-817.356,0,0
130791,90.5424,-815.109,0,0
131051,91.4657,-812.951,0,0
131311,92.3718,-810.768,0,0
131572,93.2119,-808.741,0,0
131832,93.941,-806.769,0,0
132092,94.6647,-804.738,0,0
132353,95.2451,-802.766,0,0
132613,95.7839,-800.729,0,0
132873,96.3905,-798.655,0,0
133134,97.0311,-796.7,0,0
133394,97.562,-794.739,0,0
133654,98.0218,-792.817,0,0
133915,98.3973,-790.798,0,0
134175,98.8091,-788.886,0,0
134435,99.0807,-786.876,0,0
134696,99.3154,-784.639,0,0
134956,99.7501,-782.303,0,0
135216,100.238,-780.147,0,0
135477,100.889,-777.95,0,0
135737,101.348,-775.773,0,0
135997,101.916,-773.472,0,0
136258,102.698,-771.397,0,0
136518,103.391,-769.39,0,0
136778,104.066,-767.318,0,0
137039,104.836,-765.253,0,0
137299,105.739,-763.286,0,0
137559,106.814,-761.38,0,0
137819,107.854,-760.069,0,0
138080,108.525,-758.871,0,0
138340.125,108.921,-757.742,0,0
138600.45,108.97,-756.506,0,0
138860.775,108.95,-755.099,0,0
139121.1,108.758,-753.416,0,0
139381.425,108.798,-751.579,0,0
139641.75,108.892,-749.831,0,0
139902.075,108.809,-748.137,0,0
140162.4,108.579,-746.225,0,0
140422.725,108.537,-744.098,0,0
140683.05,108.614,-741.989,0,0
140943.375,108.738,-739.968,0,0
141203.7,108.854,-737.855,0,0
141464.025,108.977,-735.812,0,0
141724.35,109.01,-733.761,0,0
141984.675,109.087,-731.507,0,0
142245.0,109.421,-729.238,0,0
142505.325,109.756,-727.158,0,0
142765.65,109.932,-725.135,0,0
143025.975,110.15,-723.055,0,0
143286.3,110.419,-720.991,0,0
143546.625,110.501,-718.838,0,0
143806.95,110.736,-716.593,0,0
144067.275,111.001,-714.371,0,0
144327.6,111.209,-712.073,0,0
144587.925,111.61,-709.617,0,0
144848.25,112.203,-707.377,0,0
145108.575,112.712,-705.286,0,0
145368.9,113.176,-703.188,0,0
145629.225,113.628,-701.116,0,0
145889.55,114.001,-698.957,0,0
146149.875,114.458,-696.701,0,0
146410.2,115.085,-694.462,0,0
146670.525,115.807,-692.32,0,0
146930.85,116.638,-690.455,0,0
147191.175,117.17,-688.866,0,0
147451.5,117.319,-687.053,0,0
147711.825,117.533,-684.924,0,0
147972.15,118.043,-682.722,0,0
148232.475,118.605,-680.692,0,0
148492.8,119.191,-678.743,0,0
148753.125,119.558,-676.992,0,0
149013.45,119.88,-675.021,0,0
149273.775,120.297,-673.012,0,0
149534.1,120.738,-671.127,0,0
149794.425,121.054,-669.334,0,0
150054.75,121.232,-667.515,0,0
150315.075,121.38,-665.494,0,0
150575.4,121.494,-663.643,0,0
150835.725,121.37,-661.716,0,0
151096.05,121.066,-659.549,0,0
151356.375,120.841,-657.081,0,0
151616.7,120.785,-654.45,0,0
151877.025,120.776,-651.798,0,0
152137.35,120.917,-649.036,0,0
152397.675,120.924,-646.293,0,0
152658.0,120.904,-643.204,0,0
152918.325,121.196,-639.81,0,0
153178.65,121.921,-636.441,0,0
153438.975,122.824,-633.361,0,0
153699.3,123.548,-630.38,0,0
153959.625,124.322,-627.17,0,0
154219.95,125.212,-623.802,0,0
154480,126.31,-620.444,0,0
154741,127.639,-616.972,0,0
155001,129.329,-613.645,0,0
155261,131.027,-610.61,0,0
155522,132.608,-607.516,0,0
155782,134.442,-604.218,0,0
156042,136.629,-601.024,0,0
156303,138.92,-598.17,0,0
156563,141.168,-595.28,0,0
156823,143.706,-592.375,0,0
157084,146.62,-589.824,0,0
157344,149.54,-587.782,0,0
157604,152.159,-586.051,0,0
157864,154.455,-584.258,0,0
158125,156.738,-582.38,0,0
158385,159.084,-580.492,0,0
158645,161.41,-578.704,0,0
158906,163.485,-577.013,0,0
159166,165.408,-574.947,0,0
159426,167.576,-572.621,0,0
159687,170.201,-570.074,0,0
159947,173.297,-567.68,0,0
160207,176.529,-565.545,0,0
160468,180.091,-563.509,0,0
160728,184.003,-561.849,0,0
160988,188.124,-560.64,0,0
161249,192.392,-560.086,0,0
161509,196.343,-560.206,0,0
161769,199.719,-560.564,0,0
162030,202.686,-560.903,0,0
162290,205.638,-561.242,0,0
162550,208.284,-561.658,0,0
162811,210.779,-561.854,0,0
163071,213.567,-561.91,0,0
163331,216.539,-562.324,0,0
163592,219.17,-563.248,0,0
163852,221.464,-564.031,0,0
164112,223.72,-564.67,0,0
164373,226.064,-565.25,0,0
164633,228.53,-566.012,0,0
164893,231.021,-566.95,0,0
165154,233.51,-568.054,0,0
165414,236.012,-569.4,0,0
165674,238.554,-571.062,0,0
165935,240.889,-573.294,0,0
166195,242.675,-575.983,0,0
166455,243.848,-578.613,0,0
166716,244.723,-581.145,0,0
166976,245.377,-583.739,0,0
167236,245.543,-586.445,0,0
167497,245.187,-588.91,0,0
167757,244.646,-591.065,0,0
168017,243.908,-593.135,0,0
168277,242.905,-595.055,0,0
168538,241.693,-596.716,0,0
168798,240.191,-598.114,0,0
169058,238.686,-599.137,0,0
169319,237.216,-600.032,0,0
169579,235.525,-600.825,0,0
169839,233.686,-601.204,0,0
170100,231.938,-601.194,0,0
170360.075,230.328,-601.111,0,0
170620.4,228.756,-600.801,0,0
170880.725,227.307,-600.287,0,0
171141.05,226.049,-599.765,0,0
171401.375,224.75,-599.172,0,0
171661.7,223.43,-598.55,0,0
171922.025,222.216,-597.854,0,0
172182.35,220.906,-597.021,0,0
172442.675,219.592,-595.997,0,0
172703.0,218.366,-594.862,0,0
172963.325,217.197,-593.355,0,0
173223.65,216.318,-591.73,0,0
173483.975,215.654,-590.061,0,0
173744.3,215.201,-588.426,0,0
174004.625,214.918,-586.74,0,0
174264.95,214.895,-585.202,0,0
174525.275,214.902,-583.73,0,0
174785.6,215.11,-582.408,0,0
175045.925,215.418,-581.2,0,0
175306.25,215.766,-580.071,0,0
175566.575,216.311,-579.157,0,0
175826.9,216.807,-578.683,0,0
176087.225,216.9,-578.519,0,0
176347.55,216.616,-578.172,0,0
176607.875,216.413,-577.638,0,0
176868.2,216.12,-577.214,0,0
177128.525,215.655,-576.728,0,0
177388.85,215.144,-576.053,0,0
177649.175,214.797,-575.378,0,0
177909.5,214.36,-574.847,0,0
178169.825,213.771,-574.276,0,0
178430.15,213.127,-573.671,0,0
178690.475,212.495,-572.992,0,0
178950.8,211.791,-572.374,0,0
179211.125,210.942,-571.724,0,0
179471.45,210.159,-570.976,0,0
179731.775,209.365,-570.367,0,0
179992.1,208.319,-569.961,0,0
180252.425,206.741,-569.544,0,0
180512.75,204.788,-568.449,0,0
180773.075,202.994,-566.9,0,0
181033.4,201.486,-565.214,0,0
181293.725,199.984,-563.355,0,0
181554.05,198.607,-561.241,0,0
181814.375,197.592,-559.071,0,0
182074.7,196.694,-557.207,0,0
182335.025,195.586,-555.462,0,0
182595.35,194.183,-553.535,0,0
182855.675,192.715,-551.257,0,0
183116.0,191.401,-548.708,0,0
183376.325,190.186,-545.982,0,0
183636.65,189.129,-543.049,0,0
183896.975,188.225,-539.938,0,0
184157.3,187.591,-536.688,0,0
184417.625,187.31,-533.422,0,0
184677.95,187.198,-530.363,0,0
184938.275,187.039,-527.348,0,0
185198.6,187.015,-524.229,0,0
185458.925,187.165,-521.202,0,0
185719.25,187.328,-518.278,0,0
185979.575,187.455,-515.301,0,0
186239.9,187.759,-512.217,0,0
186500,188.22,-509.256,0,0
186761,188.682,-506.493,0,0
187021,189.021,-503.552,0,0
187281,189.44,-500.648,0,0
187542,189.964,-497.66,0,0
187802,190.569,-494.838,0,0
188062,190.927,-492.035,0,0
188322,191.305,-488.965,0,0
188583,191.912,-485.77,0,0
188843,192.604,-482.466,0,0
189103,193.438,-479.253,0,0
189364,194.491,-476.075,0,0
189624,195.468,-472.806,0,0
189884,196.709,-469.706,0,0
190145,197.938,-466.661,0,0
190405,199.18,-463.632,0,0
190665,200.431,-460.626,0,0
190926,201.71,-457.649,0,0
191186,202.768,-454.707,0,0
191446,203.956,-451.509,0,0
191707,205.321,-448.203,0,0
191967,206.869,-444.857,0,0
192227,208.523,-441.703,0,0
192488,210.186,-438.592,0,0
192748,211.753,-435.408,0,0
193008,213.323,-432.234,0,0
193269,215.058,-428.884,0,0
193529,216.854,-425.512,0,0
193789,218.781,-422.111,0,0
194050,220.836,-418.8,0,0
194310,222.878,-415.421,0,0
194570,224.874,-411.924,0,0
194831,227.137,-408.346,0,0
195091,229.454,-404.639,0,0
195351,231.976,-400.959,0,0
195612,234.657,-397.31,0,0
195872,237.393,-393.56,0,0
196132,240.375,-389.824,0,0
196393,243.429,-386.023,0,0
196653,246.779,-382.151,0,0
196913,250.404,-378.315,0,0
197174,254.34,-374.499,0,0
197434,258.499,-370.926,0,0
197694,262.81,-367.6,0,0
197955,267.245,-364.443,0,0
198215,271.7,-361.483,0,0
198475,276.274,-358.695,0,0
198735,280.732,-356.024,0,0
198996,285.154,-353.398,0,0
199256,289.457,-350.754,0,0
199516,293.755,-347.876,0,0
199777,298.176,-344.903,0,0
200037,302.766,-341.683,0,0
200297,307.761,-338.308,0,0
200558,313.043,-334.936,0,0
200818,318.831,-331.618,0,0
201078,324.936,-328.276,0,0
201339,331.547,-325.186,0,0
201599,338.445,-322.285,0,0
201859,345.702,-319.723,0,0
202120,353.283,-317.367,0,0
202380.025,361.247,-315.36,0,0
202640.35,369.421,-313.805,0,0
202900.675,377.713,-312.57,0,0
203161.0,386.242,-311.672,0,0
203421.325,395.058,-310.994,0,0
203681.65,404.207,-310.682,0,0
203941.975,413.705,-310.853,0,0
204202.3,423.743,-311.541,0,0
204462.625,434.086,-313.032,0,0
204722.95,444.591,-315.774,0,0
204983.275,455.089,-319.483,0,0
205243.6,464.981,-324.385,0,0
205503.925,474.092,-329.935,0,0
205764.25,482.721,-335.986,0,0
206024.575,490.614,-342.437,0,0
206284.9,497.971,-349.185,0,0
206545.225,505.016,-356.325,0,0
206805.55,511.483,-363.953,0,0
207065.875,517.193,-372.218,0,0
207326.2,521.691,-380.698,0,0
207586.525,525.247,-388.793,0,0
207846.85,528.29,-396.469,0,0
208107.175,531.134,-403.86,0,0
208367.5,533.737,-411.374,0,0
208627.825,535.862,-418.983,0,0
208888.15,537.21,-426.67,0,0
209148.475,537.91,-434.15,0,0
209408.8,537.933,-441.287,0,0
209669.125,537.305,-447.891,0,0
209929.45,536.243,-453.979,0,0
210189.775,534.905,-459.37,0,0
210450.1,533.449,-463.989,0,0
210710.425,532.029,-468.161,0,0
210970.75,530.576,-471.97,0,0
211231.075,528.832,-475.213,0,0
211491.4,527.217,-477.559,0,0
211751.725,526.109,-479.441,0,0
212012.05,525.219,-480.895,0,0
212272.375,524.748,-481.776,0,0
212532.7,525.005,-482.042,0,0
212793.025,526.365,-482.45,0,0
213053.35,528.572,-483.38,0,0
213313.675,530.917,-485.048,0,0
213574.0,533.068,-487.247,0,0
213834.325,534.926,-489.547,0,0
214094.65,536.742,-491.64,0,0
214354.975,538.795,-493.811,0,0
214615.3,540.921,-496.127,0,0
214875.625,542.874,-498.566,0,0
215135.95,544.968,-501.002,0,0
215396.275,547.07,-503.367,0,0
215656.6,549.328,-505.793,0,0
215916.925,551.57,-508.588,0,0
216177.25,553.423,-511.298,0,0
216437.575,555.325,-513.534,0,0
216697.9,557.483,-515.439,0,0
216958.225,560.223,-517.111,0,0
217218.55,563.726,-518.849,0,0
217478.875,568.013,-521.27,0,0
217739.2,572.419,-524.575,0,0
217999.525,576.607,-528.697,0,0
218259.85,580.243,-533.207,0,0
218520,583.409,-537.582,0,0
218780,586.637,-541.836,0,0
219041,590.078,-546.064,0,0
219301,593.632,-550.433,0,0
219561,597.501,-555.087,0,0
219822,601.507,-560.164,0,0
220082,605.405,-565.681,0,0
220342,609.314,-571.434,0,0
220603,613.407,-577.485,0,0
220863,617.694,-584.037,0,0
221123,621.84,-591.538,0,0
221384,625.584,-599.615,0,0
221644,629.018,-608.058,0,0
221904,632.042,-617.089,0,0
222165,634.76,-626.599,0,0
222425,636.749,-636.829,0,0
222685,637.841,-647.217,0,0
222946,638.307,-657.685,0,0
223206,638.121,-668.177,0,0
223466,637.396,-678.711,0,0
223727,636.327,-689.348,0,0
223987,634.4,-700.039,0,0
224247,631.923,-710.472,0,0
224508,629.03,-720.351,0,0
224768,625.917,-730.418,0,0
225028,622.747,-740.727,0,0
225289,618.657,-751.055,0,0
225549,613.724,-761.434,0,0
225809,608.523,-771.701,0,0
226070,602.407,-781.766,0,0
226330,595.393,-791.373,0,0
226590,587.958,-800.276,0,0
226851,580.033,-808.652,0,0
227111,571.873,-816.643,0,0
227371,563.337,-824.147,0,0
227632,554.418,-831.306,0,0
227892,545.059,-837.905,0,0
228152,535.33,-843.733,0,0
228413,525.357,-848.731,0,0
228673,515.325,-853.107,0,0
228933,505.469,-856.655,0,0
229193,495.602,-859.647,0,0
229454,485.868,-862.108,0,0
229714,476.35,-864.158,0,0
229974,467.038,-865.76,0,0
230235,457.776,-866.847,0,0
230495,448.697,-867.315,0,0
230755,440.077,-867.363,0,0
231016,431.76,-866.936,0,0
231276,423.876,-866.501,0,0
231536,416.336,-865.71,0,0
231797,409.157,-864.773,0,0
232057,402.345,-863.613,0,0
232317,395.93,-862.431,0,0
232578,389.849,-861.402,0,0
232838,383.98,-860.479,0,0
233098,378.142,-859.596,0,0
233359,372.228,-858.82,0,0
233619,366.498,-857.917,0,0
233879,360.736,-856.846,0,0
234140,355.013,-855.773,0,0
234400,349.456,-854.528,0,0
234660.3,343.873,-853.021,0,0
234920.625,338.669,-851.27,0,0
235180.95,333.76,-849.693,0,0
235441.275,328.879,-848.291,0,0
235701.6,324.064,-846.879,0,0
235961.925,319.236,-845.517,0,0
236222.25,314.506,-844.008,0,0
236482.575,309.841,-842.37,0,0
236742.9,305.209,-840.727,0,0
237003.225,300.741,-839.076,0,0
237263.55,296.369,-837.371,0,0
237523.875,292.032,-835.669,0,0
237784.2,287.694,-833.96,0,0
238044.525,283.462,-832.19,0,0
238304.85,279.243,-830.428,0,0
238565.175,275.07,-828.696,0,0
238825.5,270.761,-826.819,0,0
239085.825,266.53,-824.798,0,0
239346.15,262.295,-822.656,0,0
239606.475,258.166,-820.28,0,0
239866.8,254.226,-817.822,0,0
240127.125,250.484,-815.049,0,0
240387.45,246.939,-812.603,0,0
240647.775,243.493,-809.994,0,0
240908.1,240.374,-807.411,0,0
241168.425,237.253,-805.014,0,0
241428.75,234.156,-802.648,0,0
241689.075,231.041,-800.299,0,0
241949.4,228.015,-797.703,0,0
242209.725,225.159,-795.19,0,0
242470.05,222.306,-792.625,0,0
242730.375,219.664,-790.063,0,0
242990.7,217.098,-787.577,0,0
243251.025,214.535,-785.133,0,0
243511.35,212.252,-782.728,0,0
243771.675,209.874,-780.399,0,0
244032.0,207.5,-778.124,0,0
244292.325,205.214,-775.862,0,0
244552.65,202.818,-773.566,0,0
244812.975,200.425,-771.396,0,0
245073.3,198.136,-768.929,0,0
245333.625,195.789,-766.606,0,0
245593.95,193.77,-764.286,0,0
245854.275,191.553,-762.097,0,0
246114.6,189.286,-759.872,0,0
246374.925,186.992,-757.511,0,0
246635.25,184.753,-755.111,0,0
246895.575,182.623,-752.567,0,0
247155.9,180.598,-749.988,0,0
247416.225,178.587,-747.451,0,0
247676.55,176.719,-744.972,0,0
247936.875,174.921,-742.341,0,0
248197.2,173.222,-739.799,0,0
248457.525,171.471,-737.207,0,0
248717.85,169.992,-734.673,0,0
248978.175,168.283,-732.267,0,0
249238.5,166.807,-729.668,0,0
249498.825,165.25,-727.199,0,0
249759.15,163.953,-724.664,0,0
250019.475,162.535,-722.18,0,0
250279.8,161.228,-719.768,0,0
250540,159.894,-717.291,0,0
250800,158.423,-714.947,0,0
251061,157.211,-712.489,0,0
251321,156.017,-710,0,0
251581,154.769,-707.631,0,0
251842,153.58,-705.14,0,0
252102,152.432,-702.605,0,0
252362,151.292,-700.098,0,0
252623,150.251,-697.578,0,0
252883,149.314,-695.076,0,0
253143,148.346,-692.565,0,0
253404,147.441,-690.024,0,0
253664,146.559,-687.435,0,0
253924,145.732,-684.883,0,0
254185,145.06,-682.297,0,0
254445,144.438,-679.588,0,0
254705,143.983,-677.043,0,0
254966,143.284,-674.354,0,0
255226,143.304,-672.206,0,0
255486,142.879,-669.629,0,0
255747,142.64,-667.265,0,0
256007,142.379,-665.019,0,0
256267,142.119,-662.699,0,0
256528,141.784,-660.498,0,0
256788,141.652,-658.193,0,0
257048,141.432,-655.837,0,0
257309,141.243,-653.528,0,0
257569,141.119,-651.211,0,0
257829,141.032,-648.883,0,0
258090,141.062,-646.531,0,0
258350,141.135,-644.155,0,0
258610,141.328,-641.797,0,0
258871,141.634,-639.446,0,0
259131,142.003,-637.134,0,0
259391,142.507,-634.879,0,0
259651,143.141,-632.698,0,0
259912,143.804,-630.552,0,0
260172,144.499,-628.563,0,0
260432,145.334,-626.591,0,0
260693,146.217,-624.741,0,0
260953,147.239,-622.902,0,0
261213,148.272,-621.403,0,0
261474,149.208,-619.844,0,0
261734,150.325,-618.447,0,0
261994,151.295,-617.166,0,0
262255,152.237,-615.939,0,0
262515,153.171,-614.694,0,0
262775,154.173,-613.469,0,0
263036,155.227,-612.287,0,0
263296,156.393,-611.155,0,0
263556,157.623,-610.125,0,0
263817,158.917,-609.225,0,0
264077,160.26,-608.528,0,0
264337,161.596,-607.898,0,0
264598,162.997,-607.58,0,0
264858,164.405,-607.326,0,0
265118,165.764,-607.378,0,0
265379,167.051,-607.561,0,0
265639,168.245,-607.891,0,0
265899,169.341,-608.484,0,0
266160,170.269,-609.247,0,0
266420,170.975,-610.165,0,0
266680.25,171.531,-611.193,0,0
266940.575,171.835,-612.401,0,0
267200.9,171.858,-613.703,0,0
267461.225,171.633,-615.021,0,0
267721.55,171.067,-616.36,0,0
267981.875,170.219,-617.603,0,0
268242.2,169.054,-618.767,0,0
268502.525,167.597,-619.71,0,0
268762.85,165.946,-620.46,0,0
269023.175,164.186,-620.989,0,0
269283.5,162.2,-621.198,0,0
269543.825,160.224,-621.143,0,0
269804.15,158.153,-620.85,0,0
270064.475,156.221,-620.401,0,0
270324.8,154.172,-619.558,0,0
270585.125,152.345,-618.459,0,0
270845.45,150.62,-617.233,0,0
271105.775,149.057,-615.873,0,0
271366.1,147.628,-614.415,0,0
271626.425,146.316,-612.855,0,0
271886.75,145.131,-611.238,0,0
272147.075,144.115,-609.546,0,0
272407.4,143.282,-607.826,0,0
272667.725,142.481,-606.107,0,0
272928.05,141.83,-604.367,0,0
273188.375,141.316,-602.595,0,0
273448.7,140.934,-600.851,0,0
273709.025,140.694,-599.154,0,0
273969.35,140.542,-597.518,0,0
274229.675,140.494,-595.927,0,0
274490.0,140.467,-594.409,0,0
274750.325,140.543,-592.926,0,0
275010.65,140.675,-591.524,0,0
275270.975,140.772,-590.205,0,0
275531.3,140.939,-588.954,0,0
275791.625,141.142,-587.687,0,0
276051.95,141.345,-586.368,0,0
276312.275,141.682,-585.071,0,0
276572.6,142.16,-583.842,0,0
276832.925,142.712,-582.769,0,0
277093.25,143.355,-581.844,0,0
277353.575,143.949,-581.085,0,0
277613.9,144.486,-580.426,0,0
277874.225,145,-579.876,0,0
278134.55,145.454,-579.421,0,0
278394.875,145.832,-578.981,0,0
278655.2,146.201,-578.623,0,0
278915.525,146.631,-578.288,0,0
279175.85,146.941,-578.081,0,0
279436.175,147.156,-577.945,0,0
279696.5,147.297,-577.888,0,0
279956.825,147.302,-577.895,0,0
280217.15,147.192,-577.869,0,0
280477.475,147.026,-577.787,0,0
280737.8,146.774,-577.724,0,0
280998.125,146.497,-577.611,0,0
281258.45,146.186,-577.485,0,0
281518.775,145.757,-577.382,0,0
281779.1,145.279,-577.319,0,0
282039.425,144.711,-577.159,0,0
282299.75,144.105,-576.901,0,0
282560,143.341,-576.56,0,0
282820,142.655,-576.147,0,0
283081,141.911,-575.715,0,0
283341,141.211,-575.172,0,0
283601,140.537,-574.589,0,0
283862,139.879,-574.006,0,0
284122,139.224,-573.322,0,0
284382,138.604,-572.719,0,0
284643,137.949,-572.085,0,0
284903,137.206,-571.471,0,0
285163,136.478,-570.817,0,0
285424,135.697,-570.086,0,0
285684,134.974,-569.242,0,0
285944,134.162,-568.399,0,0
286205,133.337,-567.509,0,0
286465,132.443,-566.576,0,0
286725,131.541,-565.47,0,0
286986,130.659,-564.237,0,0
287246,129.817,-562.867,0,0
287506,129.048,-561.362,0,0
287767,128.367,-559.71,0,0
288027,127.885,-557.948,0,0
288287,127.618,-556.192,0,0
288548,127.491,-554.336,0,0
288808,127.596,-552.529,0,0
289068,127.918,-550.814,0,0
289329,128.373,-549.198,0,0
289589,128.877,-547.787,0,0
289849,129.499,-546.439,0,0
290109,130.212,-545.306,0,0
290370,130.88,-544.296,0,0
290630,131.549,-543.539,0,0
290890,132.065,-542.887,0,0
291151,132.431,-542.282,0,0
291411,132.717,-541.766,0,0
291671,132.87,-541.128,0,0
291932,133.018,-540.537,0,0
292192,133.087,-539.925,0,0
292452,133.064,-539.283,0,0
292713,132.989,-538.578,0,0
292973,132.84,-537.831,0,0
293233,132.665,-536.997,0,0
293494,132.449,-536.003,0,0
293754,132.288,-534.923,0,0
294014,132.138,-533.71,0,0
294275,132.105,-532.358,0,0
294535,132.209,-530.969,0,0
294795,132.421,-529.577,0,0
295056,132.796,-528.129,0,0
295316,133.221,-526.706,0,0
295576,133.815,-525.287,0,0
295837,134.517,-523.872,0,0
296097,135.398,-522.496,0,0
296357,136.344,-521.287,0,0
296618,137.385,-520.211,0,0
296878,138.432,-519.25,0,0
297138,139.481,-518.351,0,0
297399,140.508,-517.525,0,0
297659,141.532,-516.713,0,0
297919,142.609,-515.942,0,0
298180,143.746,-515.2,0,0
298440,144.924,-514.537,0,0
298700.2,146.143,-513.992,0,0
298960.525,147.413,-513.539,0,0
299220.85,148.654,-513.171,0,0
299481.175,149.883,-512.927,0,0
299741.5,150.959,-512.828,0,0
300001.825,152.026,-512.593,0,0
300262.15,153.073,-512.536,0,0
300522.475,154,-512.32,0,0
300782.8,154.994,-512.081,0,0
301043.125,156.153,-511.907,0,0
301303.45,157.296,-511.62,0,0
301563.775,158.599,-511.494,0,0
301824.1,159.956,-511.388,0,0
302084.425,161.384,-511.524,0,0
302344.75,162.829,-511.849,0,0
302605.075,164.203,-512.212,0,0
302865.4,165.502,-512.89,0,0
303125.725,166.732,-513.528,0,0
303386.05,167.87,-514.155,0,0
303646.375,168.885,-514.994,0,0
303906.7,169.928,-515.839,0,0
304167.025,170.874,-516.802,0,0
304427.35,171.776,-517.757,0,0
304687.675,172.452,-518.732,0,0
304948.0,173.211,-519.728,0,0
305208.325,173.782,-520.667,0,0
305468.65,174.504,-521.621,0,0
305728.975,175.129,-522.719,0,0
305989.3,175.796,-523.811,0,0
306249.625,176.373,-525.052,0,0
306509.95,176.883,-526.364,0,0
306770.275,177.352,-527.721,0,0
307030.6,177.525,-529.116,0,0
307290.925,177.824,-530.552,0,0
307551.25,177.852,-531.985,0,0
307811.575,178.001,-533.424,0,0
308071.9,177.895,-534.994,0,0
308332.225,177.636,-536.394,0,0
308592.55,177.361,-537.906,0,0
308852.875,176.887,-539.293,0,0
309113.2,176.308,-540.63,0,0
309373.525,175.794,-541.853,0,0
309633.85,175.266,-543.085,0,0
309894.175,174.744,-544.235,0,0
310154.5,174.219,-545.485,0,0
310414.825,173.559,-546.723,0,0
310675.15,173.036,-548.089,0,0
310935.475,172.18,-549.43,0,0
311195.8,171.472,-550.806,0,0
311456.125,170.403,-552.263,0,0
311716.45,169.251,-553.533,0,0
311976.775,167.973,-554.776,0,0
312237.1,166.598,-556.074,0,0
312497.425,165.224,-557.087,0,0
312757.75,163.606,-558.102,0,0
313018.075,161.984,-558.978,0,0
313278.4,160.314,-559.724,0,0
313538.725,158.747,-560.331,0,0
313799.05,157.009,-560.839,0,0
314059.375,155.403,-561.312,0,0
314319.7,153.742,-561.676,0,0
314580,152.229,-561.911,0,0
314840,150.663,-562.064,0,0
315101,149.173,-562.284,0,0
315361,147.696,-562.49,0,0
315621,146.179,-562.802,0,0
315882,144.596,-562.864,0,0
316142,143.095,-563.053,0,0
316402,141.534,-563.207,0,0
316663,139.893,-563.184,0,0
316923,138.253,-563.12,0,0
317183,136.527,-562.966,0,0
317444,134.904,-562.725,0,0
317704,133.235,-562.526,0,0
317964,131.635,-562.147,0,0
318225,130.145,-561.724,0,0
318485,128.579,-561.273,0,0
318745,127.078,-560.826,0,0
319006,125.655,-560.323,0,0
319266,124.252,-559.919,0,0
319526,122.719,-559.306,0,0
319787,121.208,-558.692,0,0
320047,119.801,-557.999,0,0
320307,118.417,-557.277,0,0
320567,117.043,-556.533,0,0
320828,115.694,-555.732,0,0
321088,114.383,-554.85,0,0
321348,113.137,-553.975,0,0
321609,111.92,-553.106,0,0
321869,110.735,-552.153,0,0
322129,109.543,-551.137,0,0
322390,108.448,-550.127,0,0
322650,107.301,-548.992,0,0
322910,106.303,-547.853,0,0
323171,105.368,-546.724,0,0
323431,104.591,-545.467,0,0
323691,103.794,-544.283,0,0
323952,103.036,-543.12,0,0
324212,102.443,-541.991,0,0
324472,101.88,-540.872,0,0
324733,101.375,-539.722,0,0
324993,100.962,-538.706,0,0
325253,100.616,-537.601,0,0
325514,100.212,-536.549,0,0
325774,99.9675,-535.674,0,0
326034,99.6645,-534.797,0,0
326295,99.3536,-533.873,0,0
326555,99.1292,-533.047,0,0
326815,98.9468,-532.206,0,0
327076,98.7404,-531.505,0,0
327336,98.4792,-530.833,0,0
327596,98.3088,-530.114,0,0
327857,98.1999,-529.601,0,0
328117,97.9197,-528.979,0,0
328377,97.7132,-528.363,0,0
328638,97.5177,-527.882,0,0
328898,97.3371,-527.411,0,0
329158,97.1075,-527.009,0,0
329419,96.8541,-526.594,0,0
329679,96.5258,-526.3,0,0
329939,96.2258,-525.935,0,0
330200,95.8693,-525.625,0,0
330460,95.575,-525.275,0,0
330720.15,95.1553,-525.013,0,0
330980.475,94.6971,-524.72,0,0
331240.8,94.2633,-524.47,0,0
331501.125,93.7044,-524.205,0,0
331761.45,93.2085,-523.966,0,0
332021.775,92.6433,-523.687,0,0
332282.1,91.9759,-523.404,0,0
332542.425,91.2831,-523.189,0,0
332802.75,90.5843,-522.865,0,0
333063.075,89.8894,-522.457,0,0
333323.4,89.1678,-522.021,0,0
333583.725,88.3329,-521.618,0,0
333844.05,87.6023,-521.244,0,0
334104.375,86.8452,-520.682,0,0
334364.7,86.083,-520.18,0,0
334625.025,85.2624,-519.696,0,0
334885.35,84.5313,-519.152,0,0
335145.675,83.7037,-518.584,0,0
335406.0,82.9192,-517.883,0,0
335666.325,82.1357,-517.274,0,0
335926.65,81.3883,-516.481,0,0
336186.975,80.5878,-515.811,0,0
336447.3,79.9376,-515.106,0,0
336707.625,79.2222,-514.334,0,0
336967.95,78.5398,-513.532,0,0
337228.275,77.8222,-512.819,0,0
337488.6,77.2398,-512.001,0,0
337748.925,76.5952,-511.254,0,0
338009.25,75.9409,-510.43,0,0
338269.575,75.3854,-509.632,0,0
338529.9,74.7179,-508.797,0,0
338790.225,74.1728,-507.996,0,0
339050.55,73.6164,-507.229,0,0
339310.875,73.0587,-506.359,0,0
339571.2,72.4815,-505.479,0,0
339831.525,72.007,-504.7,0,0
340091.85,71.4711,-503.825,0,0
340352.175,70.9407,-503.003,0,0
340612.5,70.4339,-502.078,0,0
340872.825,69.996,-501.241,0,0
341133.15,69.4408,-500.35,0,0
341393.475,69.0565,-499.561,0,0
341653.8,68.6905,-498.696,0,0
341914.125,68.2625,-497.846,0,0
342174.45,67.8178,-497.056,0,0
342434.775,67.4475,-496.171,0,0
342695.1,67.0427,-495.388,0,0
342955.425,66.6597,-494.571,0,0
343215.75,66.2049,-493.774,0,0
343476.075,65.829,-492.933,0,0
343736.4,65.4065,-492.109,0,0
343996.725,65.0332,-491.364,0,0
344257.05,64.6175,-490.519,0,0
344517.375,64.2246,-489.693,0,0
344777.7,63.796,-488.922,0,0
345038.025,63.3669,-488.002,0,0
345298.35,62.9709,-487.114,0,0
345558.675,62.6029,-486.247,0,0
345819.0,62.1893,-485.381,0,0
346079.325,61.8433,-484.478,0,0
346339.65,61.5019,-483.573,0,0
346599.975,61.1357,-482.653,0,0
346860,60.8514,-481.771,0,0
347121,60.5069,-480.856,0,0
347381,60.2136,-479.901,0,0
347641,59.8703,-478.955,0,0
347902,59.6423,-478.052,0,0
348162,59.3538,-477.094,0,0
348422,59.1058,-476.142,0,0
348683,58.8462,-475.208,0,0
348943,58.6116,-474.252,0,0
349203,58.4348,-473.271,0,0
349464,58.2366,-472.348,0,0
349724,58.0962,-471.356,0,0
349984,57.9889,-470.416,0,0
350245,57.9476,-469.479,0,0
350505,57.8236,-468.53,0,0
350765,57.7657,-467.684,0,0
351025,57.6704,-466.83,0,0
351286,57.6372,-465.886,0,0
351546,57.5764,-465.08,0,0
351806,57.5394,-464.238,0,0
352067,57.4768,-463.381,0,0
352327,57.4097,-462.549,0,0
352587,57.4282,-461.75,0,0
352848,57.3105,-460.961,0,0
353108,57.2668,-460.106,0,0
353368,57.1614,-459.342,0,0
353629,57.1152,-458.499,0,0
353889,57.0819,-457.719,0,0
354149,57.0506,-456.919,0,0
354410,56.9769,-456.119,0,0
354670,56.9475,-455.238,0,0
354930,56.8866,-454.42,0,0
355191,56.8886,-453.618,0,0
355451,56.9267,-452.791,0,0
355711,56.9388,-451.943,0,0
355972,56.9552,-451.123,0,0
356232,57.0418,-450.304,0,0
356492,57.1534,-449.536,0,0
356753,57.1937,-448.769,0,0
357013,57.2953,-448.022,0,0
357273,57.3989,-447.33,0,0
357534,57.4136,-446.613,0,0
357794,57.4766,-445.913,0,0
358054,57.5903,-445.245,0,0
358315,57.6061,-444.553,0,0
358575,57.6189,-443.879,0,0
358835,57.6576,-443.166,0,0
359096,57.6672,-442.472,0,0
359356,57.733,-441.771,0,0
359616,57.7541,-441.056,0,0
359877,57.8075,-440.388,0,0
360137,57.9194,-439.67,0,0
360397,57.9549,-439.005,0,0
360658,58.0459,-438.298,0,0
360918,58.1719,-437.662,0,0
361178,58.2081,-437.009,0,0
361438,58.293,-436.346,0,0
361699,58.3506,-435.75,0,0
361959,58.4404,-435.103,0,0
362219,58.4646,-434.463,0,0
362480,58.4464,-433.785,0,0
362740.1,58.5124,-433.175,0,0
363000.425,58.5436,-432.483,0,0
363260.75,58.5539,-431.841,0,0
363521.075,58.6232,-431.113,0,0
363781.4,58.6717,-430.439,0,0
364041.725,58.7187,-429.779,0,0
364302.05,58.7508,-429.081,0,0
364562.375,58.8582,-428.42,0,0
364822.7,58.9556,-427.747,0,0
365083.025,59.008,-427.039,0,0
365343.35,59.1245,-426.366,0,0
365603.675,59.2536,-425.683,0,0
365864.0,59.2806,-425.04,0,0
366124.325,59.3423,-424.431,0,0
366384.65,59.3881,-423.706,0,0
366644.975,59.452,-423.078,0,0
366905.3,59.5035,-422.319,0,0
367165.625,59.5494,-421.62,0,0
367425.95,59.5824,-420.918,0,0
367686.275,59.6083,-420.12,0,0
367946.6,59.694,-419.266,0,0
368206.925,59.744,-418.443,0,0
368467.25,59.8651,-417.578,0,0
368727.575,60.0533,-416.619,0,0
368987.9,60.2413,-415.643,0,0
369248.225,60.5515,-414.682,0,0
369508.55,60.9386,-413.751,0,0
369768.875,61.4201,-412.837,0,0
370029.2,61.9224,-411.923,0,0
370289.525,62.4835,-411.143,0,0
370549.85,63.0917,-410.327,0,0
370810.175,63.7085,-409.609,0,0
371070.5,64.3329,-408.965,0,0
371330.825,64.9927,-408.334,0,0
371591.15,65.6344,-407.721,0,0
371851.475,66.2824,-407.17,0,0
372111.8,66.9929,-406.669,0,0
372372.125,67.7016,-406.196,0,0
372632.45,68.3985,-405.805,0,0
372892.775,69.0978,-405.412,0,0
373153.1,69.8019,-405.135,0,0
373413.425,70.5327,-404.881,0,0
373673.75,71.1651,-404.686,0,0
373934.075,71.783,-404.552,0,0
374194.4,72.4083,-404.458,0,0
374454.725,72.9881,-404.403,0,0
374715.05,73.5278,-404.375,0,0
374975.375,73.9855,-404.33,0,0
375235.7,74.409,-404.31,0,0
375496.025,74.7727,-404.341,0,0
375756.35,75.1465,-404.268,0,0
376016.675,75.4393,-404.243,0,0
376277.0,75.7777,-404.171,0,0
376537.325,76.0903,-404.061,0,0
376797.65,76.4188,-404.026,0,0
377057.975,76.7689,-403.88,0,0
377318.3,77.1562,-403.858,0,0
377578.625,77.5048,-403.773,0,0
377838.95,77.8652,-403.816,0,0
378099.275,78.2089,-403.879,0,0
378359.6,78.5054,-403.92,0,0
378619.925,78.7699,-403.976,0,0
378880,79.0686,-404.075,0,0
379141,79.2702,-404.116,0,0
379401,79.474,-404.203,0,0
379661,79.7076,-404.278,0,0
379922,79.8662,-404.313,0,0
380182,80.1374,-404.364,0,0
380442,80.352,-404.458,0,0
380703,80.5917,-404.544,0,0
380963,80.853,-404.644,0,0
381223,81.1391,-404.843,0,0
381483,81.4002,-405.097,0,0
381744,81.6007,-405.407,0,0
382004,81.7362,-405.788,0,0
382264,81.8253,-406.236,0,0
382525,81.7826,-406.663,0,0
382785,81.7187,-407.089,0,0
383045,81.6076,-407.478,0,0
383306,81.3285,-407.939,0,0
383566,81.103,-408.291,0,0
383826,80.7189,-408.623,0,0
384087,80.3189,-408.999,0,0
384347,79.8694,-409.223,0,0
384607,79.3642,-409.425,0,0
384868,78.9004,-409.579,0,0
385128,78.3495,-409.689,0,0
385388,77.8785,-409.766,0,0
385649,77.3559,-409.813,0,0
385909,76.7873,-409.829,0,0
386169,76.225,-409.854,0,0
386430,75.6458,-409.768,0,0
386690,74.9605,-409.751,0,0
386950,74.3472,-409.609,0,0
387211,73.7063,-409.377,0,0
387471,73.0742,-409.098,0,0
387731,72.4274,-408.769,0,0
387992,71.8696,-408.342,0,0
388252,71.3612,-407.907,0,0
388512,70.869,-407.484,0,0
388773,70.475,-407.009,0,0
389033,70.0647,-406.508,0,0
389293,69.7048,-406.021,0,0
389554,69.4057,-405.56,0,0
389814,69.109,-405.162,0,0
390074,68.8092,-404.691,0,0
390335,68.5989,-404.272,0,0
390595,68.3676,-403.867,0,0
390855,68.1374,-403.478,0,0
391116,67.8969,-403.11,0,0
391376,67.6798,-402.77,0,0
391636,67.4515,-402.475,0,0
391896,67.1824,-402.126,0,0
392157,66.9304,-401.824,0,0
392417,66.6639,-401.515,0,0
392677,66.3841,-401.272,0,0
392938,66.0323,-400.967,0,0
393198,65.6886,-400.67,0,0
393458,65.2663,-400.38,0,0
393719,64.7949,-400.047,0,0
393979,64.4078,-399.638,0,0
394239,63.9877,-399.256,0,0
394500,63.5623,-398.836,0,0
394760.05,63.1077,-398.356,0,0
395020.375,62.6669,-397.865,0,0
395280.7,62.2634,-397.363,0,0
395541.025,61.8089,-396.78,0,0
395801.35,61.4091,-396.233,0,0
396061.675,61.0206,-395.649,0,0
396322.0,60.6772,-395.019,0,0
396582.325,60.2776,-394.347,0,0
396842.65,59.9987,-393.738,0,0
397102.975,59.687,-393.118,0,0
397363.3,59.3444,-392.463,0,0
397623.625,59.0632,-391.809,0,0
397883.95,58.7959,-391.137,0,0
398144.275,58.5347,-390.448,0,0
398404.6,58.3248,-389.725,0,0
398664.925,58.1045,-389.047,0,0
398925.25,57.8604,-388.37,0,0
399185.575,57.6814,-387.622,0,0
399445.9,57.5244,-386.953,0,0
399706.225,57.34,-386.243,0,0
399966.55,57.1922,-385.432,0,0
400006.6,57.1364,-385.355,0,0