File: Accelerated corrosion test data/2025-10-06_14-56-48/sample_3.csv
Frequency (Hz),Impedance (ohms),Phase (Radians),Temperature (C),Humidity (%)
10000.0,255.317,-11727.6,0,0
10260.325,248.757,-11432.2,0,0
10520.65,242.931,-11151.6,0,0
10780.975,238.111,-10882.5,0,0
11041.3,232.508,-10632.3,0,0
11301.625,227.429,-10388.6,0,0
11561.95,222.401,-10155.5,0,0
11822.275,217.397,-9933.57,0,0
12082.6,214.427,-9721.34,0,0
12342.925,212.24,-9516.55,0,0
12603.25,205.548,-9323.46,0,0
12863.575,202.208,-9135.18,0,0
13123.9,202.461,-8952.68,0,0
13384.225,195.155,-8785.36,0,0
13644.55,191.832,-8617.55,0,0
13904.875,188.129,-8455.41,0,0
14165.2,186.989,-8300.82,0,0
14425.525,182.657,-8152.26,0,0
14685.8,181.105,-8008.25,0,0
14946.175,178.091,-7870.34,0,0
15206.5,175.358,-7729.89,0,0
15466.825,181.37,-7594.55,0,0
15727.15,194.555,-7486.22,0,0
15987.5,175.558,-7378.7,0,0
16247.8,169.989,-7250.01,0,0
16508.125,164.024,-7138.23,0,0
16768.45,167.698,-7017.97,0,0
17028.775,159.09,-6920.66,0,0
17289.1,163.278,-6808.07,0,0
17549.425,157.32,-6715.53,0,0
17809.75,158.908,-6612.93,0,0
18070.075,164.458,-6525.98,0,0
18330.4,152.91,-6433.21,0,0
18590.725,150.707,-6341.41,0,0
18851.05,146.522,-6252.1,0,0
19111.375,148.242,-6163.24,0,0
19371.7,146.766,-6080.78,0,0
19632.025,147.231,-5997.84,0,0
19892.35,151.748,-5917.41,0,0
20152.675,148.52,-5842.68,0,0
20413.0,159.874,-5762.89,0,0
20673.3,165.614,-5701.03,0,0
20933.65,160.513,-5643.31,0,0
21193.975,164.321,-5579.95,0,0
21454.3,145.955,-5519.94,0,0
21714.625,139.68,-5445.56,0,0
21974.9,143.22,-5379.03,0,0
22235.275,139.952,-5321.12,0,0
22495.6,139.462,-5260.92,0,0
22755.925,130.415,-5200.6,0,0
23016.25,128.997,-5141.52,0,0
23276.6,129.161,-5079.97,0,0
23536.9,129.963,-5033.97,0,0
23797.225,122.311,-4975.75,0,0
24057.55,120.14,-4918.66,0,0
24317.875,120.881,-4863.61,0,0
24578.2,118.291,-4814.12,0,0
24838.525,119.161,-4760.78,0,0
25098.85,116.978,-4714.81,0,0
25359.175,114.953,-4665.34,0,0
25619.5,114.395,-4617.32,0,0
25879.8,112.065,-4571.33,0,0
26140.1,109.302,-4523.88,0,0
26400.5,108.45,-4477.52,0,0
26660.8,109.258,-4432.92,0,0
26921.1,109.89,-4388.72,0,0
27181.4,108.771,-4348.64,0,0
27441.8,108.048,-4304.41,0,0
27702.1,109.879,-4265.79,0,0
27962.4,105.868,-4226.47,0,0
28222.7,104.627,-4182.91,0,0
28483.1,110.917,-4140.98,0,0
28743.4,114.166,-4105.66,0,0
29003.7,116.21,-4076.78,0,0
29264,107.511,-4043.55,0,0
29524.4,110.707,-4005.79,0,0
29784.7,105.625,-3972.48,0,0
30045,103.241,-3938.34,0,0
30305.3,101.366,-3901.58,0,0
30565.7,103.364,-3868.14,0,0
30826,100.914,-3835.36,0,0
31086.3,103.375,-3803.36,0,0
31346.6,99.6044,-3772.63,0,0
31607,98.2563,-3738.76,0,0
31867.3,99.0114,-3705.32,0,0
32127.6,102.185,-3672.52,0,0
32387.9,110.188,-3643.99,0,0
32648.3,112.668,-3626.18,0,0
32908.6,104.244,-3601.32,0,0
33168.9,101.626,-3574.63,0,0
33429.2,99.9678,-3547.87,0,0
33689.6,94.5311,-3520.75,0,0
33949.9,91.5458,-3490.79,0,0
34210.2,91.3605,-3463.4,0,0
34470.5,90.6165,-3436.81,0,0
34730.9,88.4765,-3411.05,0,0
34991.2,87.0507,-3384.54,0,0
35251.5,86.6,-3358.42,0,0
35511.8,86.0073,-3333.46,0,0
35772.2,85.1976,-3308.47,0,0
36032.5,84.3823,-3283.83,0,0
36292.8,83.5386,-3259.39,0,0
36553.1,83.1052,-3236.11,0,0
36813.5,82.4974,-3212.82,0,0
37073.8,81.9971,-3189.75,0,0
37334.1,81.1474,-3166.61,0,0
37594.4,80.82,-3144.18,0,0
37854.8,80.2594,-3122.14,0,0
38115.1,79.6397,-3100.29,0,0
38375.4,79.1444,-3078.54,0,0
38635.7,78.8562,-3057.33,0,0
38896.1,78.3447,-3036.36,0,0
39156.4,78.0427,-3015.64,0,0
39416.7,77.7425,-2995.39,0,0
39677,77.0779,-2975.51,0,0
39937.4,76.5671,-2955.45,0,0
40197.7,76.2619,-2935.48,0,0
40458,75.705,-2916.28,0,0
40718.3,75.319,-2897.14,0,0
40978.7,75.1305,-2877.9,0,0
41239,74.936,-2858.92,0,0
41499.3,74.73,-2840.75,0,0
41759.6,75.0016,-2822.29,0,0
42020,74.619,-2804.8,0,0
42280.275,74.3929,-2787.08,0,0
42540.6,73.7194,-2769.59,0,0
42800.925,73.7626,-2752.4,0,0
43061.25,73.1859,-2735.52,0,0
43321.575,72.7754,-2718.45,0,0
43581.9,72.3042,-2701.32,0,0
43842.225,72.6089,-2684.78,0,0
44102.55,72.4533,-2668.29,0,0
44362.875,72.579,-2652.75,0,0
44623.2,71.9889,-2636.92,0,0
44883.525,71.6983,-2620.9,0,0
45143.85,71.5499,-2605.24,0,0
45404.175,71.1434,-2590.21,0,0
45664.5,70.9749,-2574.51,0,0
45924.825,71.5636,-2559.04,0,0
46185.15,70.9232,-2545.15,0,0
46445.475,70.5474,-2529.93,0,0
46705.8,70.2645,-2515.06,0,0
46966.125,70.649,-2500.83,0,0
47226.45,70.1103,-2486.7,0,0
47486.775,70.1279,-2472.15,0,0
47747.1,70.6164,-2457.71,0,0
48007.425,71.29,-2444.64,0,0
48267.75,71.1528,-2432.01,0,0
48528.075,69.9318,-2418.92,0,0
48788.4,69.9743,-2405.58,0,0
49048.725,69.0879,-2392.62,0,0
49309.05,68.5645,-2379.31,0,0
49569.375,68.3739,-2366.01,0,0
49829.7,68.368,-2353.24,0,0
50090.025,67.7632,-2340.88,0,0
50350.35,67.2585,-2327.83,0,0
50610.675,66.9905,-2314.86,0,0
50871.0,66.924,-2302.39,0,0
51131.325,66.8495,-2289.8,0,0
51391.65,66.7268,-2277.64,0,0
51651.975,66.8346,-2265.43,0,0
51912.3,66.6559,-2253.48,0,0
52172.625,66.5495,-2241.5,0,0
52432.95,66.6982,-2229.6,0,0
52693.275,66.8509,-2217.63,0,0
52953.6,67.1622,-2206.01,0,0
53213.925,67.8645,-2194.38,0,0
53474.25,68.651,-2183.71,0,0
53734.575,68.8789,-2173.04,0,0
53994.9,69.2147,-2162.13,0,0
54255.225,69.9937,-2151.61,0,0
54515.55,70.7593,-2142.43,0,0
54775.875,70.331,-2133.39,0,0
55036.2,69.299,-2123.59,0,0
55296.525,68.8111,-2114.06,0,0
55556.85,67.2021,-2104.44,0,0
55817.175,65.6705,-2093.86,0,0
56077.5,64.8136,-2083.38,0,0
56337.825,63.9085,-2072.87,0,0
56598.15,63.0377,-2062.49,0,0
56858.475,62.312,-2051.88,0,0
57118.8,61.8699,-2040.95,0,0
57379.125,61.7074,-2030.49,0,0
57639.45,61.7875,-2020.06,0,0
57899.775,61.7685,-2010,0,0
58160.1,61.679,-2000.12,0,0
58420.4,61.5987,-1990.11,0,0
58680.7,61.6832,-1980.15,0,0
58941.1,61.8252,-1970.4,0,0
59201.4,61.981,-1960.62,0,0
59461.7,62.3331,-1951.09,0,0
59722,62.6051,-1941.62,0,0
59982.4,62.804,-1932.25,0,0
60242.7,63.0776,-1922.97,0,0
60503,63.1866,-1913.87,0,0
60763.3,63.631,-1904.57,0,0
61023.7,64.086,-1895.52,0,0
61284,64.4743,-1886.5,0,0
61544.3,65.2072,-1877.53,0,0
61804.6,65.6516,-1868.99,0,0
62065,65.9188,-1860.18,0,0
62325.3,66.4273,-1851.45,0,0
62585.6,66.9346,-1842.78,0,0
62845.9,67.4624,-1833.85,0,0
63106.3,68.678,-1825.06,0,0
63366.6,69.503,-1816.77,0,0
63626.9,70.6618,-1807.8,0,0
63887.2,72.4258,-1799.79,0,0
64147.6,73.8098,-1791.26,0,0
64407.9,75.763,-1783.2,0,0
64668.2,78.4785,-1775.19,0,0
64928.5,81.4128,-1768.13,0,0
65188.9,85.5336,-1762.23,0,0
65449.2,87.9147,-1758.13,0,0
65709.5,89.9145,-1753.71,0,0
65969.8,92.2654,-1751.31,0,0
66230.2,91.2211,-1750.77,0,0
66490.5,86.4573,-1748.43,0,0
66750.8,80.944,-1741.98,0,0
67011.1,78.3891,-1732.65,0,0
67271.5,76.8154,-1725.19,0,0
67531.8,75.1612,-1716.85,0,0
67792.1,75.4796,-1708.78,0,0
68052.4,75.3586,-1701.26,0,0
68312.8,76.5927,-1694.12,0,0
68573.1,76.7552,-1688.11,0,0
68833.4,76.769,-1681.86,0,0
69093.7,76.9436,-1675.65,0,0
69354.1,77.2006,-1670.24,0,0
69614.4,76.5385,-1664.74,0,0
69874.7,75.9908,-1659.21,0,0
70135,74.7039,-1653.4,0,0
70395.4,73.7865,-1647.35,0,0
70655.7,72.7516,-1641.45,0,0
70916,71.6548,-1635.07,0,0
71176.3,70.5017,-1628.55,0,0
71436.7,69.7456,-1621.83,0,0
71697,69.0851,-1615.08,0,0
71957.3,69.0467,-1608.27,0,0
72217.6,69.1321,-1602.01,0,0
72478,69.1022,-1595.96,0,0
72738.3,69.026,-1590.21,0,0
72998.6,68.8267,-1584.66,0,0
73258.9,68.2204,-1579.03,0,0
73519.3,67.6904,-1573.23,0,0
73779.6,67.2878,-1567.51,0,0
74039.9,66.5832,-1561.93,0,0
74300.225,65.9653,-1556.31,0,0
74560.55,65.2213,-1550.56,0,0
74820.875,64.4601,-1544.79,0,0
75081.2,63.7694,-1539.04,0,0
75341.525,63.0469,-1533.26,0,0
75601.85,62.3586,-1527.45,0,0
75862.175,61.6195,-1521.57,0,0
76122.5,60.9411,-1515.71,0,0
76382.825,60.4082,-1509.75,0,0
76643.15,59.8948,-1503.93,0,0
76903.475,59.4707,-1498.04,0,0
77163.8,59.0314,-1492.28,0,0
77424.125,58.5841,-1486.62,0,0
77684.45,58.0546,-1480.94,0,0
77944.775,57.5729,-1475.22,0,0
78205.1,57.1617,-1469.57,0,0
78465.425,56.7605,-1463.88,0,0
78725.75,56.3737,-1458.19,0,0
78986.075,55.9822,-1452.57,0,0
79246.4,55.6854,-1446.92,0,0
79506.725,55.3445,-1441.27,0,0
79767.05,55.0536,-1435.75,0,0
80027.375,54.792,-1430.16,0,0
80287.7,54.6294,-1424.69,0,0
80548.025,54.3875,-1419.18,0,0
80808.35,54.177,-1413.73,0,0
81068.675,53.9949,-1408.37,0,0
81329.0,53.7919,-1402.95,0,0
81589.325,53.6229,-1397.6,0,0
81849.65,53.5026,-1392.31,0,0
82109.975,53.4074,-1387.02,0,0
82370.3,53.2924,-1381.68,0,0
82630.625,53.2212,-1376.48,0,0
82890.95,53.133,-1371.25,0,0
83151.275,53.062,-1366.11,0,0
83411.6,53.0184,-1360.97,0,0
83671.925,52.9438,-1355.85,0,0
83932.25,52.8816,-1350.77,0,0
84192.575,52.899,-1345.73,0,0
84452.9,52.8875,-1340.72,0,0
84713.225,52.8254,-1335.78,0,0
84973.55,52.7903,-1330.73,0,0
85233.875,52.8759,-1325.73,0,0
85494.2,52.9325,-1320.81,0,0
85754.525,52.9962,-1315.86,0,0
86014.85,53.0633,-1311.04,0,0
86275.175,53.0933,-1306.27,0,0
86535.5,53.0652,-1301.52,0,0
86795.825,53.0898,-1296.61,0,0
87056.15,53.0955,-1291.84,0,0
87316.475,53.2497,-1287.01,0,0
87576.8,53.2799,-1282.24,0,0
87837.125,53.542,-1277.49,0,0
88097.45,53.6841,-1272.76,0,0
88357.775,53.839,-1268.04,0,0
88618.1,54.0917,-1263.35,0,0
88878.425,54.2109,-1258.45,0,0
89138.75,54.5293,-1253.83,0,0
89399.075,55.0116,-1249.2,0,0
89659.4,55.5465,-1244.62,0,0
89919.725,56.1255,-1240.3,0,0
90180,56.5766,-1235.81,0,0
90440.4,57.0847,-1231.87,0,0
90700.7,57.5834,-1227.44,0,0
90961,57.9754,-1223.12,0,0
91221.3,58.4379,-1219.08,0,0
91481.7,59.1064,-1214.82,0,0
91742,59.7426,-1210.82,0,0
92002.3,60.2526,-1206.87,0,0
92262.6,60.8623,-1202.81,0,0
92523,61.416,-1199.19,0,0
92783.3,62.0652,-1195.56,0,0
93043.6,62.6361,-1191.89,0,0
93303.9,63.4587,-1188.38,0,0
93564.3,64.2229,-1185.33,0,0
93824.6,64.5594,-1182.51,0,0
94084.9,64.7559,-1179.68,0,0
94345.2,64.5527,-1176.96,0,0
94605.6,64.4493,-1174.04,0,0
94865.9,64.0159,-1171.75,0,0
95126.2,62.4046,-1169.18,0,0
95386.5,60.7197,-1165.42,0,0
95646.9,59.4539,-1161.2,0,0
95907.2,58.7078,-1156.79,0,0
96167.5,58.1823,-1152.48,0,0
96427.8,57.806,-1148.13,0,0
96688.2,57.7383,-1143.87,0,0
96948.5,57.7108,-1139.83,0,0
97208.8,57.6341,-1135.84,0,0
97469.1,57.5955,-1131.9,0,0
97729.5,57.5458,-1128.08,0,0
97989.8,57.4841,-1124.29,0,0
98250.1,57.4037,-1120.46,0,0
98510.4,57.3432,-1116.65,0,0
98770.8,57.3276,-1112.85,0,0
99031.1,57.2553,-1109.21,0,0
99291.4,57.089,-1105.59,0,0
99551.7,56.763,-1101.84,0,0
99812.1,56.5225,-1097.97,0,0
100072,56.3897,-1094.11,0,0
100333,56.2464,-1090.25,0,0
100593,56.0734,-1086.33,0,0
100853,55.9157,-1082.29,0,0
101114,55.9376,-1078.25,0,0
101374,55.9675,-1074.2,0,0
101634,56.0442,-1070.12,0,0
101895,56.3208,-1066.01,0,0
102155,56.6628,-1061.96,0,0
102415,57.1507,-1057.79,0,0
102676,57.9836,-1053.78,0,0
102936,58.9854,-1050.13,0,0
103196,59.8435,-1046.88,0,0
103457,60.3558,-1043.62,0,0
103717,60.9092,-1040.12,0,0
103977,61.7911,-1036.74,0,0
104238,62.8187,-1033.65,0,0
104498,63.7136,-1031.08,0,0
104758,64.1825,-1028.83,0,0
105019,64.1305,-1026.38,0,0
105279,64.0032,-1023.65,0,0
105539,64.0202,-1020.87,0,0
105800,63.9473,-1018.2,0,0
106060,63.6694,-1015.6,0,0
106320.175,63.1039,-1012.81,0,0
106580.5,62.63,-1009.79,0,0
106840.825,62.1537,-1006.75,0,0
107101.15,61.5994,-1003.65,0,0
107361.475,60.9463,-1000.27,0,0
107621.8,60.5266,-996.854,0,0
107882.125,60.131,-993.384,0,0
108142.45,59.692,-989.888,0,0
108402.775,59.4094,-986.267,0,0
108663.1,59.118,-982.716,0,0
108923.425,58.837,-978.983,0,0
109183.75,58.7083,-975.183,0,0
109444.075,58.6873,-971.402,0,0
109704.4,58.7976,-967.636,0,0
109964.725,58.954,-963.944,0,0
110225.05,59.1443,-960.274,0,0
110485.375,59.4354,-956.487,0,0
110745.7,59.8564,-952.765,0,0
111006.025,60.4482,-949.096,0,0
111266.35,61.2231,-946.001,0,0
111526.675,61.5608,-942.529,0,0
111787.0,62.0667,-939.254,0,0
112047.325,62.5731,-935.995,0,0
112307.65,63.0038,-932.842,0,0
112567.975,63.5242,-929.705,0,0
112828.3,63.6902,-926.62,0,0
113088.625,64.0754,-923.295,0,0
113348.95,64.4695,-920.034,0,0
113609.275,64.8951,-916.926,0,0
113869.6,65.2047,-913.812,0,0
114129.925,65.5406,-910.506,0,0
114390.25,65.9009,-907.298,0,0
114650.575,66.1399,-904.001,0,0
114910.9,66.6659,-900.554,0,0
115171.225,67.2206,-897.2,0,0
115431.55,67.9047,-893.885,0,0
115691.875,68.6124,-890.649,0,0
115952.2,69.3278,-887.449,0,0
116212.525,69.9834,-884.189,0,0
116472.85,70.8178,-880.828,0,0
116733.175,71.8632,-877.582,0,0
116993.5,72.9903,-874.589,0,0
117253.825,73.8583,-871.722,0,0
117514.15,74.6703,-868.543,0,0
117774.475,75.9395,-865.084,0,0
118034.8,77.738,-862.151,0,0
118295.125,79.402,-859.645,0,0
118555.45,81.0322,-857.543,0,0
118815.775,82.1394,-855.605,0,0
119076.1,82.9985,-853.396,0,0
119336.425,84.2132,-850.812,0,0
119596.75,86.0016,-848.659,0,0
119857.075,87.8269,-847.463,0,0
120117.4,88.7623,-846.473,0,0
120377.725,89.318,-845.443,0,0
120638.05,89.5962,-844.471,0,0
120898.375,89.5175,-843.341,0,0
121158.7,89.213,-842.047,0,0
121419.025,88.5247,-840.48,0,0
121679.35,87.7389,-838.451,0,0
121939.675,87.1221,-835.955,0,0
122200.0,86.9471,-833.304,0,0
122460,86.9019,-830.743,0,0
122721,87.0145,-828.178,0,0
122981,87.1661,-825.667,0,0
123241,87.5118,-823.217,0,0
123502,87.9034,-820.939,0,0
123762,88.1024,-818.842,0,0
124022,88.2682,-816.581,0,0
124283,88.4849,-814.35,0,0
124543,88.7684,-812.205,0,0
124803,88.9147,-810.096,0,0
125064,89.1286,-808.039,0,0
125324,89.2853,-806.001,0,0
125584,89.3984,-803.961,0,0
125845,89.5308,-801.952,0,0
126105,89.5636,-800.108,0,0
126365,89.4661,-798.288,0,0
126626,89.173,-796.355,0,0
126886,88.8482,-794.346,0,0
127146,88.4489,-792.255,0,0
127406,88.0797,-789.99,0,0
127667,87.6451,-787.818,0,0
127927,87.2848,-785.465,0,0
128187,87.0489,-783.138,0,0
128448,86.5414,-780.883,0,0
128708,85.9853,-778.396,0,0
128968,85.5181,-775.71,0,0
129229,85.2253,-772.925,0,0
129489,84.9964,-770.238,0,0
129749,84.81,-767.383,0,0
130010,84.8542,-764.488,0,0
130270,85.0598,-761.682,0,0
130530,85.3441,-759.01,0,0
130791,85.7585,-756.504,0,0
131051,86.0917,-754.317,0,0
131311,86.2254,-752.136,0,0
131572,86.218,-749.947,0,0
131832,86.163,-747.751,0,0
132092,86,-745.525,0,0
132353,85.7656,-743.158,0,0
132613,85.5961,-740.666,0,0
132873,85.5931,-738.24,0,0
133134,85.4625,-735.928,0,0
133394,85.3039,-733.6,0,0
133654,85.1222,-731.254,0,0
133915,84.8461,-728.902,0,0
134175,84.481,-726.428,0,0
134435,84.1749,-723.958,0,0
134696,83.9049,-721.403,0,0
134956,83.4369,-718.816,0,0
135216,83.0728,-715.993,0,0
135477,82.9454,-713.232,0,0
135737,82.6855,-710.564,0,0
135997,82.372,-707.794,0,0
136258,82.1179,-704.975,0,0
136518,81.828,-702.092,0,0
136778,81.628,-698.984,0,0
137039,81.6284,-695.85,0,0
137299,81.7868,-692.788,0,0
137559,82.0246,-689.775,0,0
137819,82.2967,-687.017,0,0
138080,82.4142,-684.205,0,0
138340.125,82.7314,-681.311,0,0
138600.45,83.1768,-678.693,0,0
138860.775,83.3115,-676.329,0,0
139121.1,83.177,-673.857,0,0
139381.425,83.0355,-671.155,0,0
139641.75,82.8433,-668.412,0,0
139902.075,82.6606,-665.521,0,0
140162.4,82.5786,-662.529,0,0
140422.725,82.6626,-659.501,0,0
140683.05,82.8069,-656.632,0,0
140943.375,82.7928,-653.892,0,0
141203.7,82.7164,-651.075,0,0
141464.025,82.5212,-648.151,0,0
141724.35,82.3205,-645.087,0,0
141984.675,82.1705,-641.927,0,0
142245.0,82.1453,-638.699,0,0
142505.325,82.1321,-635.454,0,0
142765.65,82.0905,-632.237,0,0
143025.975,82.0557,-628.852,0,0
143286.3,82.1862,-625.49,0,0
143546.625,82.271,-622.037,0,0
143806.95,82.411,-618.532,0,0
144067.275,82.6201,-615.019,0,0
144327.6,82.9139,-611.492,0,0
144587.925,83.2,-607.882,0,0
144848.25,83.5557,-604.299,0,0
145108.575,83.9724,-600.654,0,0
145368.9,84.4451,-597.071,0,0
145629.225,84.8567,-593.43,0,0
145889.55,85.2933,-589.679,0,0
146149.875,85.8465,-585.823,0,0
146410.2,86.5084,-581.979,0,0
146670.525,87.2389,-578.137,0,0
146930.85,87.9877,-574.221,0,0
147191.175,88.8654,-570.275,0,0
147451.5,89.8046,-566.357,0,0
147711.825,90.7455,-562.316,0,0
147972.15,91.9117,-558.228,0,0
148232.475,93.2183,-554.21,0,0
148492.8,94.5342,-550.273,0,0
148753.125,95.8364,-546.282,0,0
149013.45,97.2746,-542.192,0,0
149273.775,98.7964,-538.07,0,0
149534.1,100.463,-533.846,0,0
149794.425,102.436,-529.52,0,0
150054.75,104.762,-525.391,0,0
150315.075,107.217,-521.482,0,0
150575.4,109.761,-517.777,0,0
150835.725,112.377,-514.234,0,0
151096.05,114.967,-510.875,0,0
151356.375,117.581,-507.632,0,0
151616.7,120.222,-504.495,0,0
151877.025,122.833,-501.507,0,0
152137.35,125.48,-498.597,0,0
152397.675,128.13,-495.885,0,0
152658.0,130.661,-493.36,0,0
152918.325,133.098,-490.886,0,0
153178.65,135.428,-488.552,0,0
153438.975,137.471,-486.364,0,0
153699.3,139.261,-483.881,0,0
153959.625,141.212,-481.249,0,0
154219.95,143.202,-478.733,0,0
154480,145.04,-476.407,0,0
154741,146.369,-473.947,0,0
155001,147.428,-470.963,0,0
155261,148.844,-467.321,0,0
155522,150.864,-463.43,0,0
155782,153.484,-460.015,0,0
156042,155.982,-457.032,0,0
156303,157.953,-454.075,0,0
156563,159.77,-450.49,0,0
156823,162.329,-446.508,0,0
157084,165.488,-442.77,0,0
157344,168.94,-439.457,0,0
157604,172.608,-436.891,0,0
157864,175.647,-434.811,0,0
158125,178.281,-432.554,0,0
158385,180.979,-430.506,0,0
158645,182.982,-428.668,0,0
158906,184.158,-426.569,0,0
159166,185.017,-423.277,0,0
159426,186.455,-419.489,0,0
159687,187.718,-415.577,0,0
159947,188.743,-410.345,0,0
160207,191.058,-404.264,0,0
160468,194.337,-398.31,0,0
160728,198.589,-392.15,0,0
160988,204.023,-386.87,0,0
161249,209.118,-382.901,0,0
161509,213.191,-378.352,0,0
161769,217.974,-372.611,0,0
162030,224.232,-366.907,0,0
162290,231.265,-362.074,0,0
162550,238.591,-357.709,0,0
162811,246.155,-354.087,0,0
163071,253.717,-350.675,0,0
163331,261.592,-347.378,0,0
163592,269.755,-344.098,0,0
163852,278.515,-340.983,0,0
164112,288.322,-338.504,0,0
164373,298.263,-337.148,0,0
164633,308.132,-336.281,0,0
164893,318.573,-335.618,0,0
165154,330.152,-336.11,0,0
165414,341.712,-338.755,0,0
165674,351.936,-342.476,0,0
165935,361.561,-346.259,0,0
166195,371.725,-350.656,0,0
166455,381.349,-356.828,0,0
166716,389.692,-363.861,0,0
166976,397.177,-371.163,0,0
167236,403.609,-379.152,0,0
167497,408.925,-386.927,0,0
167757,413.965,-394.642,0,0
168017,418.528,-402.669,0,0
168277,422.336,-411.385,0,0
168538,424.443,-420.564,0,0
168798,425.344,-428.773,0,0
169058,426.051,-436.104,0,0
169319,427.164,-443.705,0,0
169579,427.159,-452.556,0,0
169839,424.737,-461.275,0,0
170100,420.496,-468.233,0,0
170360.075,416.002,-473.035,0,0
170620.4,411.886,-476.343,0,0
170880.725,408.289,-479.05,0,0
171141.05,404.66,-481.063,0,0
171401.375,401.278,-481.756,0,0
171661.7,399.037,-481.706,0,0
171922.025,397.747,-481.688,0,0
172182.35,396.849,-481.642,0,0
172442.675,396.369,-481.619,0,0
172703.0,396.234,-481.079,0,0
172963.325,397.423,-480.342,0,0
173223.65,400.018,-480.529,0,0
173483.975,402.497,-482.761,0,0
173744.3,403.738,-485.57,0,0
174004.625,404.248,-487.661,0,0
174264.95,405.706,-489.131,0,0
174525.275,408.135,-492.144,0,0
174785.6,409.311,-496.541,0,0
175045.925,409.359,-500.788,0,0
175306.25,408.944,-504.828,0,0
175566.575,408.181,-508.909,0,0
175826.9,406.734,-512.949,0,0
176087.225,404.743,-516.532,0,0
176347.55,402.633,-519.652,0,0
176607.875,400.689,-522.77,0,0
176868.2,398.355,-526.368,0,0
177128.525,394.691,-530.145,0,0
177388.85,389.976,-532.561,0,0
177649.175,385.656,-533.91,0,0
177909.5,381.399,-535.332,0,0
178169.825,376.131,-536.013,0,0
178430.15,370.854,-535.058,0,0
178690.475,366.57,-532.939,0,0
178950.8,363.22,-530.529,0,0
179211.125,360.633,-528,0,0
179471.45,358.452,-525.477,0,0
179731.775,356.649,-522.7,0,0
179992.1,355.61,-519.59,0,0
180252.425,355.681,-516.805,0,0
180512.75,356.255,-514.888,0,0
180773.075,356.748,-513.643,0,0
181033.4,357.003,-512.679,0,0
181293.725,357.379,-511.682,0,0
181554.05,358.298,-510.982,0,0
181814.375,359.345,-511.256,0,0
182074.7,359.747,-512.812,0,0
182335.025,358.605,-514.477,0,0
182595.35,356.614,-515.499,0,0
182855.675,354.336,-515.79,0,0
183116.0,352.095,-515.589,0,0
183376.325,349.931,-514.98,0,0
183636.65,347.713,-514.545,0,0
183896.975,345.152,-513.875,0,0
184157.3,342.333,-512.61,0,0
184417.625,339.691,-510.72,0,0
184677.95,337.338,-508.641,0,0
184938.275,335.035,-506.555,0,0
185198.6,332.529,-504.052,0,0
185458.925,330.117,-501.054,0,0
185719.25,327.863,-497.595,0,0
185979.575,325.857,-493.613,0,0
186239.9,324.316,-489.053,0,0
186500,323.444,-484.101,0,0
186761,323.604,-479.046,0,0
187021,324.647,-474.263,0,0
187281,325.969,-470.163,0,0
187542,327.283,-466.473,0,0
187802,328.905,-462.707,0,0
188062,330.827,-459.296,0,0
188322,333.02,-456.317,0,0
188583,335.189,-454.061,0,0
188843,336.604,-452.234,0,0
189103,337.487,-450.03,0,0
189364,338.38,-447.182,0,0
189624,339.663,-444.018,0,0
189884,341.536,-440.715,0,0
190145,343.794,-438.073,0,0
190405,345.869,-435.832,0,0
190665,347.481,-433.529,0,0
190926,349.192,-431.105,0,0
191186,350.856,-428.551,0,0
191446,352.679,-425.916,0,0
191707,354.468,-423.159,0,0
191967,356.497,-420.222,0,0
192227,358.634,-417.535,0,0
192488,360.688,-414.791,0,0
192748,362.589,-411.903,0,0
193008,364.587,-408.401,0,0
193269,367.024,-404.342,0,0
193529,370.297,-400.294,0,0
193789,374.165,-396.365,0,0
194050,378.279,-392.439,0,0
194310,383.226,-388.635,0,0
194570,389.12,-385.068,0,0
194831,395.617,-382.409,0,0
195091,402.402,-380.667,0,0
195351,409.184,-379.993,0,0
195612,415.521,-380.051,0,0
195872,421.667,-380.243,0,0
196132,427.852,-380.769,0,0
196393,434.164,-382.063,0,0
196653,440.254,-384.375,0,0
196913,445.34,-387.819,0,0
197174,449.02,-391.608,0,0
197434,451.347,-394.451,0,0
197694,453.452,-396.22,0,0
197955,456.253,-397.659,0,0
198215,459.24,-399.701,0,0
198475,461.445,-402.218,0,0
198735,462.67,-404.439,0,0
198996,463.255,-405.627,0,0
199256,464.286,-405.706,0,0
199516,466.378,-405.568,0,0
199777,468.977,-406.202,0,0
200037,470.922,-407.679,0,0
200297,471.57,-408.848,0,0
200558,471.843,-408.852,0,0
200818,472.347,-407.944,0,0
201078,473.424,-406.328,0,0
201339,475.127,-404.32,0,0
201599,477.565,-402.064,0,0
201859,480.393,-399.942,0,0
202120,483.735,-397.66,0,0
202380.025,487.823,-395.079,0,0
202640.35,492.921,-392.973,0,0
202900.675,498.569,-391.561,0,0
203161.0,504.429,-390.718,0,0
203421.325,510.573,-390.345,0,0
203681.65,517.078,-390.618,0,0
203941.975,523.475,-391.789,0,0
204202.3,529.501,-393.629,0,0
204462.625,535.377,-395.624,0,0
204722.95,541,-398.062,0,0
204983.275,546.512,-400.78,0,0
205243.6,551.855,-404.1,0,0
205503.925,556.58,-408.02,0,0
205764.25,560.423,-412.208,0,0
206024.575,563.166,-416.286,0,0
206284.9,564.879,-419.758,0,0
206545.225,566.266,-421.78,0,0
206805.55,568.041,-422.802,0,0
207065.875,570.523,-423.101,0,0
207326.2,573.964,-423.02,0,0
207586.525,578.302,-423.136,0,0
207846.85,583.246,-423.671,0,0
208107.175,588.558,-424.494,0,0
208367.5,594.281,-425.686,0,0
208627.825,600.465,-427.243,0,0
208888.15,606.826,-429.483,0,0
209148.475,613.277,-432.252,0,0
209408.8,619.858,-435.527,0,0
209669.125,626.352,-439.493,0,0
209929.45,632.657,-443.925,0,0
210189.775,638.832,-448.731,0,0
210450.1,644.767,-453.939,0,0
210710.425,650.403,-459.431,0,0
210970.75,655.8,-465.259,0,0
211231.075,660.898,-471.197,0,0
211491.4,665.881,-477.316,0,0
211751.725,670.776,-483.766,0,0
212012.05,675.423,-490.423,0,0
212272.375,679.736,-497.436,0,0
212532.7,683.716,-504.461,0,0
212793.025,687.679,-511.43,0,0
213053.35,691.597,-518.64,0,0
213313.675,695.588,-526.247,0,0
213574.0,699.257,-534.41,0,0
213834.325,702.429,-543.019,0,0
214094.65,704.955,-551.705,0,0
214354.975,706.874,-560.15,0,0
214615.3,708.878,-568.357,0,0
214875.625,711.318,-576.636,0,0
215135.95,713.52,-585.69,0,0
215396.275,715.161,-595.306,0,0
215656.6,716.129,-605.03,0,0
215916.925,716.811,-614.734,0,0
216177.25,717.03,-624.941,0,0
216437.575,716.493,-635.405,0,0
216697.9,715.218,-645.838,0,0
216958.225,712.913,-656.032,0,0
217218.55,709.94,-665.6,0,0
217478.875,706.675,-674.322,0,0
217739.2,703.555,-682.744,0,0
217999.525,700.377,-691.244,0,0
218259.85,697.031,-699.472,0,0
218520,693.263,-707.999,0,0
218780,688.798,-715.956,0,0
219041,684.047,-723.114,0,0
219301,679.527,-729.498,0,0
219561,675.629,-735.834,0,0
219822,672.165,-742.153,0,0
220082,668.961,-748.745,0,0
220342,665.741,-756.339,0,0
220603,661.657,-764.524,0,0
220863,656.614,-772.627,0,0
221123,650.785,-780.35,0,0
221384,644.615,-787.522,0,0
221644,638.378,-794.264,0,0
221904,631.872,-801.137,0,0
222165,624.867,-807.991,0,0
222425,617.127,-814.456,0,0
222685,609.052,-820.415,0,0
222946,600.052,-825.796,0,0
223206,590.424,-830.337,0,0
223466,580.471,-833.768,0,0
223727,570.431,-835.672,0,0
223987,561.117,-836.035,0,0
224247,553.063,-835.744,0,0
224508,545.82,-835.153,0,0
224768,539.235,-834.335,0,0
225028,533.351,-833.367,0,0
225289,528.195,-831.983,0,0
225549,524.01,-830.962,0,0
225809,520.722,-830.38,0,0
226070,518.161,-830.442,0,0
226330,515.679,-831.592,0,0
226590,512.751,-833.342,0,0
226851,509.742,-835.429,0,0
227111,506.291,-837.915,0,0
227371,502.519,-840.597,0,0
227632,498.334,-843.529,0,0
227892,493.669,-846.381,0,0
228152,488.649,-849.015,0,0
228413,483.403,-851.503,0,0
228673,477.936,-853.891,0,0
228933,472.1,-855.86,0,0
229193,466.306,-857.607,0,0
229454,460.325,-858.985,0,0
229714,454.314,-860.117,0,0
229974,448.408,-860.96,0,0
230235,442.566,-861.747,0,0
230495,436.678,-862.386,0,0
230755,430.636,-862.686,0,0
231016,424.778,-862.707,0,0
231276,419.013,-862.483,0,0
231536,413.668,-862.137,0,0
231797,408.31,-861.777,0,0
232057,402.901,-861.409,0,0
232317,397.692,-860.799,0,0
232578,392.455,-860.127,0,0
232838,387.418,-859.432,0,0
233098,382.5,-858.67,0,0
233359,377.469,-857.786,0,0
233619,372.728,-856.834,0,0
233879,368.138,-856.052,0,0
234140,363.521,-855.205,0,0
234400,358.685,-854.422,0,0
234660.3,353.833,-853.432,0,0
234920.625,349.343,-852.386,0,0
235180.95,344.717,-851.552,0,0
235441.275,340.02,-850.639,0,0
235701.6,335.102,-849.771,0,0
235961.925,330.089,-848.612,0,0
236222.25,324.934,-847.316,0,0
236482.575,319.729,-845.702,0,0
236742.9,314.684,-843.792,0,0
237003.225,309.768,-841.813,0,0
237263.55,305.154,-839.815,0,0
237523.875,300.368,-837.644,0,0
237784.2,295.362,-835.146,0,0
238044.525,290.711,-832.92,0,0
238304.85,285.861,-829.998,0,0
238565.175,281.1,-827.019,0,0
238825.5,276.633,-823.666,0,0
239085.825,272.284,-820.099,0,0
239346.15,268.339,-816.403,0,0
239606.475,264.862,-812.428,0,0
239866.8,261.637,-808.627,0,0
240127.125,258.588,-804.79,0,0
240387.45,255.878,-801.132,0,0
240647.775,253.147,-797.514,0,0
240908.1,250.471,-793.852,0,0
241168.425,248.068,-790.162,0,0
241428.75,245.772,-786.479,0,0
241689.075,243.636,-782.788,0,0
241949.4,241.618,-778.99,0,0
242209.725,240.075,-775.158,0,0
242470.05,238.741,-771.447,0,0
242730.375,237.547,-768.181,0,0
242990.7,236.432,-764.876,0,0
243251.025,235.485,-761.645,0,0
243511.35,234.58,-758.485,0,0
243771.675,233.872,-755.633,0,0
244032.0,233.204,-752.866,0,0
244292.325,232.598,-750.265,0,0
244552.65,231.912,-747.884,0,0
244812.975,230.97,-745.511,0,0
245073.3,230.345,-743.294,0,0
245333.625,229.755,-741.089,0,0
245593.95,228.925,-739.036,0,0
245854.275,227.972,-737.073,0,0
246114.6,227.079,-735.178,0,0
246374.925,226.098,-732.933,0,0
246635.25,224.992,-730.659,0,0
246895.575,224.2,-728.576,0,0
247155.9,223.395,-726.441,0,0
247416.225,222.514,-724.261,0,0
247676.55,221.733,-722.14,0,0
247936.875,220.938,-719.923,0,0
248197.2,220.308,-717.745,0,0
248457.525,219.814,-715.375,0,0
248717.85,219.408,-713.214,0,0
248978.175,219.263,-711.199,0,0
249238.5,219.196,-709.417,0,0
249498.825,218.993,-707.842,0,0
249759.15,218.863,-706.497,0,0
250019.475,218.548,-705.275,0,0
250279.8,218.07,-704.032,0,0
250540,217.412,-703.159,0,0
250800,216.513,-702.148,0,0
251061,215.457,-701.084,0,0
251321,214.284,-699.881,0,0
251581,212.939,-698.586,0,0
251842,211.477,-697.192,0,0
252102,210.005,-695.645,0,0
252362,208.331,-693.899,0,0
252623,206.698,-691.921,0,0
252883,205.085,-689.679,0,0
253143,203.529,-687.229,0,0
253404,202.125,-684.497,0,0
253664,200.903,-681.589,0,0
253924,199.936,-678.626,0,0
254185,199.199,-675.573,0,0
254445,198.735,-672.402,0,0
254705,198.267,-668.946,0,0
254966,197.972,-666.112,0,0
255226,198.15,-662.696,0,0
255486,198.368,-659.537,0,0
255747,198.848,-656.245,0,0
256007,199.75,-652.913,0,0
256267,200.91,-649.832,0,0
256528,202.426,-646.975,0,0
256788,203.988,-644.303,0,0
257048,205.816,-641.918,0,0
257309,207.743,-639.846,0,0
257569,209.662,-638.038,0,0
257829,211.522,-636.523,0,0
258090,213.22,-635.201,0,0
258350,214.798,-633.87,0,0
258610,216.339,-632.532,0,0
258871,218.001,-631.09,0,0
259131,219.793,-629.625,0,0
259391,221.9,-628.179,0,0
259651,224.337,-627.004,0,0
259912,227.003,-626.115,0,0
260172,229.677,-625.608,0,0
260432,232.427,-625.535,0,0
260693,235.19,-625.714,0,0
260953,238.076,-626.22,0,0
261213,240.886,-627.283,0,0
261474,243.688,-628.758,0,0
261734,246.066,-630.96,0,0
261994,247.97,-633.507,0,0
262255,249.339,-636.314,0,0
262515,250.189,-639.235,0,0
262775,250.582,-642.269,0,0
263036,250.411,-645.262,0,0
263296,249.79,-648.099,0,0
263556,248.827,-650.704,0,0
263817,247.627,-653.186,0,0
264077,246.095,-655.62,0,0
264337,244.23,-657.772,0,0
264598,242.083,-659.778,0,0
264858,239.671,-661.452,0,0
265118,237.105,-662.759,0,0
265379,234.331,-663.836,0,0
265639,231.523,-664.61,0,0
265899,228.596,-665.076,0,0
266160,225.638,-665.17,0,0
266420,222.689,-665.009,0,0
266680.25,219.754,-664.552,0,0
266940.575,216.911,-663.714,0,0
267200.9,214.196,-662.59,0,0
267461.225,211.706,-661.182,0,0
267721.55,209.459,-659.626,0,0
267981.875,207.382,-657.968,0,0
268242.2,205.518,-656.139,0,0
268502.525,203.852,-654.338,0,0
268762.85,202.39,-652.47,0,0
269023.175,201.127,-650.484,0,0
269283.5,200.096,-648.542,0,0
269543.825,199.191,-646.601,0,0
269804.15,198.38,-644.91,0,0
270064.475,197.575,-642.973,0,0
270324.8,196.856,-641.184,0,0
270585.125,196.238,-639.249,0,0
270845.45,195.865,-637.255,0,0
271105.775,195.638,-635.348,0,0
271366.1,195.703,-633.565,0,0
271626.425,195.736,-631.906,0,0
271886.75,195.934,-630.364,0,0
272147.075,196.212,-628.89,0,0
272407.4,196.499,-627.594,0,0
272667.725,196.795,-626.487,0,0
272928.05,196.938,-625.511,0,0
273188.375,196.932,-624.455,0,0
273448.7,196.863,-623.274,0,0
273709.025,196.863,-622.028,0,0
273969.35,196.984,-620.617,0,0
274229.675,197.214,-619.284,0,0
274490.0,197.587,-617.871,0,0
274750.325,198.102,-616.546,0,0
275010.65,198.725,-615.123,0,0
275270.975,199.66,-613.771,0,0
275531.3,200.716,-612.565,0,0
275791.625,201.936,-611.535,0,0
276051.95,203.335,-610.637,0,0
276312.275,204.86,-610.052,0,0
276572.6,206.46,-609.694,0,0
276832.925,208.086,-609.582,0,0
277093.25,209.762,-609.826,0,0
277353.575,211.317,-610.425,0,0
277613.9,212.661,-611.263,0,0
277874.225,213.811,-612.279,0,0
278134.55,214.84,-613.457,0,0
278394.875,215.725,-614.867,0,0
278655.2,216.301,-616.462,0,0
278915.525,216.594,-618.118,0,0
279175.85,216.542,-619.893,0,0
279436.175,216.259,-621.579,0,0
279696.5,215.765,-623.233,0,0
279956.825,215.027,-624.82,0,0
280217.15,213.982,-626.378,0,0
280477.475,212.774,-627.8,0,0
280737.8,211.394,-628.991,0,0
280998.125,209.937,-630.014,0,0
281258.45,208.403,-630.882,0,0
281518.775,206.822,-631.675,0,0
281779.1,205.174,-632.484,0,0
282039.425,203.372,-633.111,0,0
282299.75,201.392,-633.567,0,0
282560,199.468,-633.777,0,0
282820,197.451,-633.912,0,0
283081,195.451,-633.778,0,0
283341,193.471,-633.508,0,0
283601,191.531,-633.098,0,0
283862,189.681,-632.574,0,0
284122,187.899,-631.925,0,0
284382,186.157,-631.218,0,0
284643,184.513,-630.383,0,0
284903,182.846,-629.482,0,0
285163,181.211,-628.529,0,0
285424,179.628,-627.439,0,0
285684,178.105,-626.233,0,0
285944,176.705,-624.892,0,0
286205,175.454,-623.445,0,0
286465,174.257,-621.984,0,0
286725,173.281,-620.415,0,0
286986,172.317,-618.821,0,0
287246,171.561,-617.088,0,0
287506,171.045,-615.385,0,0
287767,170.77,-613.679,0,0
288027,170.701,-612.132,0,0
288287,170.782,-610.772,0,0
288548,170.963,-609.601,0,0
288808,171.053,-608.546,0,0
289068,171.237,-607.707,0,0
289329,171.335,-606.921,0,0
289589,171.338,-606.243,0,0
289849,171.318,-605.58,0,0
290109,171.25,-604.904,0,0
290370,171.202,-604.257,0,0
290630,171.194,-603.685,0,0
290890,171.198,-603.162,0,0
291151,171.103,-602.744,0,0
291411,170.913,-602.345,0,0
291671,170.615,-601.967,0,0
291932,170.193,-601.469,0,0
292192,169.806,-600.867,0,0
292452,169.422,-600.114,0,0
292713,169.131,-599.318,0,0
292973,168.943,-598.494,0,0
293233,168.806,-597.603,0,0
293494,168.813,-596.697,0,0
293754,168.963,-595.774,0,0
294014,169.224,-594.929,0,0
294275,169.698,-594.162,0,0
294535,170.24,-593.495,0,0
294795,170.916,-592.992,0,0
295056,171.672,-592.757,0,0
295316,172.484,-592.643,0,0
295576,173.234,-592.793,0,0
295837,173.887,-593.157,0,0
296097,174.396,-593.683,0,0
296357,174.769,-594.357,0,0
296618,175.015,-595.091,0,0
296878,175.075,-595.904,0,0
297138,174.987,-596.823,0,0
297399,174.787,-597.763,0,0
297659,174.385,-598.72,0,0
297919,173.789,-599.665,0,0
298180,173.034,-600.585,0,0
298440,172.129,-601.409,0,0
298700.2,171.12,-602.125,0,0
298960.525,170.014,-602.79,0,0
299220.85,168.813,-603.33,0,0
299481.175,167.591,-603.794,0,0
299741.5,166.317,-604.131,0,0
300001.825,164.973,-604.401,0,0
300262.15,163.644,-604.637,0,0
300522.475,162.257,-604.761,0,0
300782.8,160.861,-604.821,0,0
301043.125,159.414,-604.804,0,0
301303.45,157.946,-604.666,0,0
301563.775,156.465,-604.527,0,0
301824.1,154.97,-604.27,0,0
302084.425,153.529,-603.917,0,0
302344.75,152.068,-603.466,0,0
302605.075,150.658,-602.93,0,0
302865.4,149.311,-602.345,0,0
303125.725,148.003,-601.712,0,0
303386.05,146.73,-601.078,0,0
303646.375,145.488,-600.385,0,0
303906.7,144.227,-599.641,0,0
304167.025,143.046,-598.876,0,0
304427.35,141.896,-598.048,0,0
304687.675,140.762,-597.172,0,0
304948.0,139.72,-596.301,0,0
305208.325,138.652,-595.38,0,0
305468.65,137.626,-594.454,0,0
305728.975,136.652,-593.476,0,0
305989.3,135.753,-592.423,0,0
306249.625,134.887,-591.391,0,0
306509.95,134.131,-590.303,0,0
306770.275,133.445,-589.232,0,0
307030.6,132.84,-588.215,0,0
307290.925,132.314,-587.194,0,0
307551.25,131.822,-586.256,0,0
307811.575,131.393,-585.344,0,0
308071.9,130.997,-584.504,0,0
308332.225,130.617,-583.743,0,0
308592.55,130.228,-583.079,0,0
308852.875,129.837,-582.468,0,0
309113.2,129.372,-581.885,0,0
309373.525,128.862,-581.357,0,0
309633.85,128.337,-580.872,0,0
309894.175,127.71,-580.344,0,0
310154.5,127.054,-579.862,0,0
310414.825,126.36,-579.345,0,0
310675.15,125.615,-578.776,0,0
310935.475,124.823,-578.233,0,0
311195.8,124.045,-577.627,0,0
311456.125,123.187,-577.035,0,0
311716.45,122.32,-576.396,0,0
311976.775,121.391,-575.704,0,0
312237.1,120.403,-574.926,0,0
312497.425,119.42,-574.055,0,0
312757.75,118.419,-573.085,0,0
313018.075,117.488,-571.999,0,0
313278.4,116.6,-570.84,0,0
313538.725,115.763,-569.614,0,0
313799.05,115.044,-568.333,0,0
314059.375,114.365,-566.971,0,0
314319.7,113.825,-565.576,0,0
314580,113.389,-564.187,0,0
314840,113.015,-562.751,0,0
315101,112.836,-561.315,0,0
315361,112.655,-559.941,0,0
315621,112.62,-558.629,0,0
315882,112.707,-557.356,0,0
316142,112.796,-556.201,0,0
316402,113.1,-555.024,0,0
316663,113.401,-554.072,0,0
316923,113.64,-553.202,0,0
317183,113.888,-552.395,0,0
317444,114.18,-551.784,0,0
317704,114.392,-551.187,0,0
317964,114.586,-550.742,0,0
318225,114.693,-550.247,0,0
318485,114.787,-549.796,0,0
318745,114.711,-549.4,0,0
319006,114.662,-548.848,0,0
319266,114.616,-548.484,0,0
319526,114.546,-548,0,0
319787,114.386,-547.518,0,0
320047,114.242,-546.988,0,0
320307,114.182,-546.49,0,0
320567,114.035,-545.897,0,0
320828,114.04,-545.371,0,0
321088,113.926,-544.795,0,0
321348,113.982,-544.333,0,0
321609,114.033,-543.826,0,0
321869,114.108,-543.399,0,0
322129,114.28,-543.023,0,0
322390,114.379,-542.752,0,0
322650,114.484,-542.539,0,0
322910,114.593,-542.421,0,0
323171,114.62,-542.372,0,0
323431,114.633,-542.432,0,0
323691,114.514,-542.359,0,0
323952,114.283,-542.577,0,0
324212,114.025,-542.649,0,0
324472,113.703,-542.722,0,0
324733,113.328,-542.817,0,0
324993,112.803,-542.891,0,0
325253,112.298,-542.979,0,0
325514,111.737,-543.042,0,0
325774,111.02,-543.067,0,0
326034,110.391,-543.111,0,0
326295,109.608,-543.033,0,0
326555,108.866,-542.908,0,0
326815,107.995,-542.787,0,0
327076,107.12,-542.599,0,0
327336,106.26,-542.317,0,0
327596,105.372,-541.974,0,0
327857,104.469,-541.642,0,0
328117,103.638,-541.266,0,0
328377,102.741,-540.742,0,0
328638,101.9,-540.294,0,0
328898,101.109,-539.667,0,0
329158,100.385,-539.253,0,0
329419,99.5905,-538.718,0,0
329679,98.7735,-538.166,0,0
329939,98.0338,-537.613,0,0
330200,97.1785,-537.099,0,0
330460,96.472,-536.503,0,0
330720.15,95.5928,-535.963,0,0
330980.475,94.776,-535.396,0,0
331240.8,93.9526,-534.795,0,0
331501.125,93.0146,-534.147,0,0
331761.45,92.1681,-533.511,0,0
332021.775,91.3034,-532.809,0,0
332282.1,90.4109,-532,0,0
332542.425,89.5937,-531.222,0,0
332802.75,88.72,-530.394,0,0
333063.075,87.8255,-529.591,0,0
333323.4,87.0315,-528.699,0,0
333583.725,86.1349,-527.77,0,0
333844.05,85.3231,-526.826,0,0
334104.375,84.4346,-525.886,0,0
334364.7,83.5906,-524.717,0,0
334625.025,82.8964,-523.645,0,0
334885.35,82.1629,-522.5,0,0
335145.675,81.4965,-521.262,0,0
335406.0,80.88,-520.083,0,0
335666.325,80.2654,-518.879,0,0
335926.65,79.6843,-517.639,0,0
336186.975,79.1859,-516.401,0,0
336447.3,78.764,-515.137,0,0
336707.625,78.3606,-513.892,0,0
336967.95,77.9595,-512.611,0,0
337228.275,77.6369,-511.485,0,0
337488.6,77.268,-510.19,0,0
337748.925,76.9905,-508.952,0,0
338009.25,76.7262,-507.705,0,0
338269.575,76.4845,-506.356,0,0
338529.9,76.2783,-505.138,0,0
338790.225,76.0762,-503.874,0,0
339050.55,75.9389,-502.558,0,0
339310.875,75.8713,-501.201,0,0
339571.2,75.7829,-499.935,0,0
339831.525,75.7483,-498.52,0,0
340091.85,75.9425,-497.219,0,0
340352.175,76.0851,-495.95,0,0
340612.5,76.439,-494.638,0,0
340872.825,76.7667,-493.417,0,0
341133.15,77.1328,-492.279,0,0
341393.475,77.6128,-491.23,0,0
341653.8,78.0876,-490.219,0,0
341914.125,78.6545,-489.272,0,0
342174.45,79.1655,-488.439,0,0
342434.775,79.6816,-487.69,0,0
342695.1,80.2621,-487.044,0,0
342955.425,80.713,-486.495,0,0
343215.75,81.1699,-486.035,0,0
343476.075,81.5691,-485.643,0,0
343736.4,81.8718,-485.234,0,0
343996.725,82.2656,-484.972,0,0
344257.05,82.5065,-484.569,0,0
344517.375,82.6387,-484.309,0,0
344777.7,82.7529,-484.044,0,0
345038.025,82.7563,-483.706,0,0
345298.35,82.7518,-483.348,0,0
345558.675,82.7078,-482.991,0,0
345819.0,82.6339,-482.592,0,0
346079.325,82.592,-482.227,0,0
346339.65,82.4769,-481.849,0,0
346599.975,82.376,-481.377,0,0
346860,82.2428,-480.915,0,0
347121,82.1993,-480.449,0,0
347381,81.9728,-479.944,0,0
347641,81.8311,-479.497,0,0
347902,81.6488,-478.898,0,0
348162,81.5106,-478.411,0,0
348422,81.3282,-477.746,0,0
348683,81.1875,-477.186,0,0
348943,81.0804,-476.465,0,0
349203,80.9472,-475.777,0,0
349464,80.9274,-475.02,0,0
349724,80.9554,-474.335,0,0
349984,80.9787,-473.617,0,0
350245,81.1257,-472.925,0,0
350505,81.2946,-472.192,0,0
350765,81.5904,-471.539,0,0
351025,81.8265,-470.92,0,0
351286,82.1859,-470.402,0,0
351546,82.4762,-470.036,0,0
351806,82.8073,-469.715,0,0
352067,83.0639,-469.505,0,0
352327,83.2545,-469.248,0,0
352587,83.4232,-469.248,0,0
352848,83.5321,-469.102,0,0
353108,83.5021,-469.1,0,0
353368,83.4328,-469.029,0,0
353629,83.171,-468.961,0,0
353889,82.9621,-468.859,0,0
354149,82.6026,-468.694,0,0
354410,82.2451,-468.528,0,0
354670,81.896,-468.288,0,0
354930,81.449,-467.95,0,0
355191,81.0218,-467.531,0,0
355451,80.6146,-467.054,0,0
355711,80.21,-466.622,0,0
355972,79.8596,-466.106,0,0
356232,79.5081,-465.569,0,0
356492,79.1848,-465.003,0,0
356753,78.87,-464.484,0,0
357013,78.516,-463.888,0,0
357273,78.1782,-463.261,0,0
357534,77.9432,-462.643,0,0
357794,77.5887,-461.937,0,0
358054,77.3925,-461.225,0,0
358315,77.1281,-460.547,0,0
358575,76.9327,-459.742,0,0
358835,76.7368,-458.958,0,0
359096,76.6531,-458.254,0,0
359356,76.5756,-457.494,0,0
359616,76.6182,-456.796,0,0
359877,76.5948,-456.027,0,0
360137,76.5431,-455.331,0,0
360397,76.5879,-454.758,0,0
360658,76.6084,-454.128,0,0
360918,76.6782,-453.578,0,0
361178,76.6852,-452.923,0,0
361438,76.6758,-452.347,0,0
361699,76.7429,-451.719,0,0
361959,76.689,-451.145,0,0
362219,76.7353,-450.574,0,0
362480,76.7573,-449.956,0,0
362740.1,76.7959,-449.318,0,0
363000.425,76.836,-448.708,0,0
363260.75,76.971,-448.098,0,0
363521.075,77.1075,-447.419,0,0
363781.4,77.3246,-446.791,0,0
364041.725,77.6141,-446.262,0,0
364302.05,77.8947,-445.77,0,0
364562.375,78.2086,-445.336,0,0
364822.7,78.5955,-444.992,0,0
365083.025,78.8509,-444.724,0,0
365343.35,79.1443,-444.551,0,0
365603.675,79.3469,-444.469,0,0
365864.0,79.5508,-444.444,0,0
366124.325,79.5709,-444.461,0,0
366384.65,79.5106,-444.524,0,0
366644.975,79.3924,-444.574,0,0
366905.3,79.0699,-444.535,0,0
367165.625,78.7389,-444.547,0,0
367425.95,78.3288,-444.468,0,0
367686.275,77.8678,-444.257,0,0
367946.6,77.2895,-443.998,0,0
368206.925,76.7127,-443.599,0,0
368467.25,76.1595,-443.097,0,0
368727.575,75.5223,-442.581,0,0
368987.9,74.9719,-441.808,0,0
369248.225,74.5071,-440.966,0,0
369508.55,74.1581,-439.999,0,0
369768.875,73.9507,-438.997,0,0
370029.2,73.9199,-437.971,0,0
370289.525,74.0303,-436.968,0,0
370549.85,74.2961,-436.137,0,0
370810.175,74.6268,-435.344,0,0
371070.5,75.09,-434.728,0,0
371330.825,75.4795,-434.23,0,0
371591.15,75.8807,-433.911,0,0
371851.475,76.2026,-433.633,0,0
372111.8,76.4758,-433.547,0,0
372372.125,76.6181,-433.463,0,0
372632.45,76.692,-433.405,0,0
372892.775,76.593,-433.329,0,0
373153.1,76.4078,-433.291,0,0
373413.425,76.1627,-433.175,0,0
373673.75,75.8111,-433.023,0,0
373934.075,75.402,-432.774,0,0
374194.4,75.0282,-432.444,0,0
374454.725,74.6609,-432.068,0,0
374715.05,74.256,-431.543,0,0
374975.375,73.8718,-431.021,0,0
375235.7,73.505,-430.536,0,0
375496.025,73.1486,-429.88,0,0
375756.35,72.8642,-429.208,0,0
376016.675,72.5309,-428.45,0,0
376277.0,72.3601,-427.716,0,0
376537.325,72.1836,-426.922,0,0
376797.65,72.151,-426.165,0,0
377057.975,72.0795,-425.409,0,0
377318.3,72.114,-424.635,0,0
377578.625,72.1438,-423.931,0,0
377838.95,72.2762,-423.235,0,0
378099.275,72.3706,-422.603,0,0
378359.6,72.5668,-421.935,0,0
378619.925,72.6924,-421.366,0,0
378880,72.8294,-420.779,0,0
379141,73.046,-420.28,0,0
379401,73.2227,-419.768,0,0
379661,73.4621,-419.315,0,0
379922,73.634,-418.87,0,0
380182,73.8625,-418.528,0,0
380442,73.9381,-418.178,0,0
380703,74.117,-417.876,0,0
380963,74.2154,-417.495,0,0
381223,74.2826,-417.144,0,0
381483,74.3718,-416.856,0,0
381744,74.4521,-416.55,0,0
382004,74.5053,-416.299,0,0
382264,74.588,-416.015,0,0
382525,74.5895,-415.78,0,0
382785,74.6253,-415.49,0,0
383045,74.5708,-415.286,0,0
383306,74.5244,-414.995,0,0
383566,74.4445,-414.783,0,0
383826,74.3526,-414.537,0,0
384087,74.2242,-414.287,0,0
384347,74.0687,-414.06,0,0
384607,73.8797,-413.776,0,0
384868,73.652,-413.53,0,0
385128,73.3943,-413.173,0,0
385388,73.1169,-412.79,0,0
385649,72.8528,-412.412,0,0
385909,72.6066,-411.955,0,0
386169,72.3648,-411.526,0,0
386430,72.1306,-411.001,0,0
386690,71.8616,-410.499,0,0
386950,71.673,-409.974,0,0
387211,71.4277,-409.47,0,0
387471,71.1908,-408.923,0,0
387731,70.9752,-408.373,0,0
387992,70.731,-407.781,0,0
388252,70.4922,-407.175,0,0
388512,70.2952,-406.537,0,0
388773,70.0557,-405.805,0,0
389033,69.8953,-405.101,0,0
389293,69.7357,-404.359,0,0
389554,69.6578,-403.538,0,0
389814,69.5974,-402.735,0,0
390074,69.5644,-401.864,0,0
390335,69.651,-401.087,0,0
390595,69.6755,-400.254,0,0
390855,69.7994,-399.408,0,0
391116,69.9702,-398.616,0,0
391376,70.1885,-397.793,0,0
391636,70.4596,-396.985,0,0
391896,70.7689,-396.191,0,0
392157,71.1394,-395.418,0,0
392417,71.5301,-394.705,0,0
392677,71.9853,-394.053,0,0
392938,72.477,-393.44,0,0
393198,72.9869,-392.861,0,0
393458,73.4926,-392.386,0,0
393719,74.0294,-391.921,0,0
393979,74.5616,-391.517,0,0
394239,75.0842,-391.188,0,0
394500,75.5852,-390.86,0,0
394760.05,76.0835,-390.631,0,0
395020.375,76.6056,-390.4,0,0
395280.7,77.0865,-390.253,0,0
395541.025,77.5349,-390.122,0,0
395801.35,77.9658,-390.051,0,0
396061.675,78.3672,-390.019,0,0
396322.0,78.7489,-390.055,0,0
396582.325,79.0912,-390.049,0,0
396842.65,79.3782,-390.117,0,0
397102.975,79.6256,-390.236,0,0
397363.3,79.8147,-390.338,0,0
397623.625,79.9495,-390.474,0,0
397883.95,80.07,-390.617,0,0
398144.275,80.1056,-390.771,0,0
398404.6,80.0494,-390.875,0,0
398664.925,79.9728,-390.982,0,0
398925.25,79.868,-391.11,0,0
399185.575,79.7173,-391.146,0,0
399445.9,79.5476,-391.176,0,0
399706.225,79.3635,-391.187,0,0
399966.55,79.1109,-391.153,0,0
400006.6,79.094,-391.124,0,0