File: Accelerated corrosion test data/2025-10-06_14-56-48/sample_6.csv
Frequency (Hz),Impedance (ohms),Phase (Radians),Temperature (C),Humidity (%)
10000.0,4273.14,-6340.99,0,0
10260.325,4136.98,-6271.95,0,0
10520.65,4007.35,-6202.55,0,0
10780.975,3883.07,-6134.34,0,0
11041.3,3764.84,-6065.24,0,0
11301.625,3650.5,-5997.03,0,0
11561.95,3542.06,-5929.98,0,0
11822.275,3438.49,-5862.08,0,0
12082.6,3337.91,-5795.05,0,0
12342.925,3241.74,-5728.25,0,0
12603.25,3152.91,-5661.38,0,0
12863.575,3064.93,-5597.66,0,0
13123.9,2983.43,-5534.94,0,0
13384.225,2901.13,-5474.63,0,0
13644.55,2822.03,-5413.16,0,0
13904.875,2746.68,-5351.14,0,0
14165.2,2674.53,-5291.02,0,0
14425.525,2604.99,-5231.73,0,0
14685.8,2538.36,-5172.19,0,0
14946.175,2474.63,-5114.92,0,0
15206.5,2412.67,-5057.5,0,0
15466.825,2354.38,-5002.54,0,0
15727.15,2296.54,-4947.48,0,0
15987.5,2241.83,-4893.78,0,0
16247.8,2188.47,-4840.35,0,0
16508.125,2136.61,-4788.26,0,0
16768.45,2087.35,-4736.02,0,0
17028.775,2039.37,-4686.28,0,0
17289.1,1993.76,-4637.12,0,0
17549.425,1948.93,-4587.79,0,0
17809.75,1906.14,-4540.18,0,0
18070.075,1863.29,-4493.32,0,0
18330.4,1822.89,-4446.51,0,0
18590.725,1784.67,-4399.5,0,0
18851.05,1747.44,-4354.13,0,0
19111.375,1712.2,-4310.99,0,0
19371.7,1676.91,-4268.3,0,0
19632.025,1642.09,-4227.15,0,0
19892.35,1608.94,-4184.94,0,0
20152.675,1575.78,-4143.28,0,0
20413.0,1544.72,-4102.84,0,0
20673.3,1513.67,-4063.7,0,0
20933.65,1483.88,-4023.42,0,0
21193.975,1456.29,-3984.99,0,0
21454.3,1428.12,-3947.02,0,0
21714.625,1401.28,-3909.56,0,0
21974.9,1375.51,-3872.89,0,0
22235.275,1349.71,-3836.09,0,0
22495.6,1324.89,-3798.99,0,0
22755.925,1302.08,-3761.4,0,0
23016.25,1282.18,-3726.93,0,0
23276.6,1262.19,-3696.44,0,0
23536.9,1239.72,-3665.5,0,0
23797.225,1217.83,-3634.7,0,0
24057.55,1195.93,-3603.16,0,0
24317.875,1174.89,-3571.18,0,0
24578.2,1154.53,-3540.4,0,0
24838.525,1134.84,-3509.24,0,0
25098.85,1115.86,-3479.13,0,0
25359.175,1097.95,-3449.32,0,0
25619.5,1079.47,-3420.16,0,0
25879.8,1061.89,-3391.26,0,0
26140.1,1044.93,-3362.43,0,0
26400.5,1028.47,-3334.2,0,0
26660.8,1012.25,-3306.25,0,0
26921.1,996.821,-3278.69,0,0
27181.4,981.523,-3251.5,0,0
27441.8,967.134,-3225.07,0,0
27702.1,952.745,-3199.1,0,0
27962.4,939.416,-3173.59,0,0
28222.7,925.372,-3149.5,0,0
28483.1,910.961,-3124.5,0,0
28743.4,896.677,-3099.42,0,0
29003.7,883.879,-3074.88,0,0
29264,871.102,-3050.05,0,0
29524.4,860.183,-3025.3,0,0
29784.7,848.644,-3003.27,0,0
30045,836.769,-2979.86,0,0
30305.3,825.875,-2956.97,0,0
30565.7,815.209,-2934.84,0,0
30826,804.248,-2913.53,0,0
31086.3,793.048,-2891.98,0,0
31346.6,782.285,-2869.89,0,0
31607,772.048,-2847.88,0,0
31867.3,762.636,-2825.79,0,0
32127.6,753.897,-2804.67,0,0
32387.9,745.529,-2784.42,0,0
32648.3,737.563,-2763.71,0,0
32908.6,730.07,-2744.99,0,0
33168.9,721.941,-2725.49,0,0
33429.2,715.378,-2706.74,0,0
33689.6,708.079,-2690.33,0,0
33949.9,699.603,-2673.49,0,0
34210.2,690.837,-2656.25,0,0
34470.5,682.276,-2638.86,0,0
34730.9,674.063,-2621.22,0,0
34991.2,666.815,-2603.81,0,0
35251.5,659.558,-2587.59,0,0
35511.8,651.926,-2571.63,0,0
35772.2,644.496,-2556.01,0,0
36032.5,635.765,-2540.16,0,0
36292.8,627.839,-2523.91,0,0
36553.1,619.926,-2507.74,0,0
36813.5,612.463,-2492.26,0,0
37073.8,604.585,-2476.12,0,0
37334.1,597.014,-2460.33,0,0
37594.4,589.878,-2444.27,0,0
37854.8,582.8,-2428.35,0,0
38115.1,575.973,-2412.57,0,0
38375.4,569.58,-2396.58,0,0
38635.7,563.259,-2381.39,0,0
38896.1,557.031,-2365.97,0,0
39156.4,551.42,-2350.77,0,0
39416.7,545.626,-2335.4,0,0
39677,540.455,-2320.87,0,0
39937.4,535.194,-2306.53,0,0
40197.7,530.034,-2292.44,0,0
40458,525.028,-2278.47,0,0
40718.3,520.137,-2264.81,0,0
40978.7,514.814,-2251.19,0,0
41239,509.531,-2237.5,0,0
41499.3,505.159,-2223.63,0,0
41759.6,500.483,-2210.54,0,0
42020,496.283,-2198.13,0,0
42280.275,491.528,-2185.62,0,0
42540.6,486.17,-2172.93,0,0
42800.925,481.19,-2159.88,0,0
43061.25,476.483,-2146.53,0,0
43321.575,471.964,-2133.43,0,0
43581.9,468.591,-2120.05,0,0
43842.225,464.952,-2107.57,0,0
44102.55,461.471,-2095,0,0
44362.875,458.112,-2082.84,0,0
44623.2,454.681,-2071,0,0
44883.525,451.682,-2058.19,0,0
45143.85,449.351,-2046.35,0,0
45404.175,447.061,-2035.43,0,0
45664.5,444.406,-2024.36,0,0
45924.825,441.968,-2013.1,0,0
46185.15,440.196,-2001.76,0,0
46445.475,438.238,-1992.37,0,0
46705.8,435.488,-1982.41,0,0
46966.125,433.328,-1972.79,0,0
47226.45,431.123,-1962.94,0,0
47486.775,428.954,-1953.59,0,0
47747.1,426.77,-1944.44,0,0
48007.425,424.736,-1935.78,0,0
48267.75,422.471,-1926.84,0,0
48528.075,420.496,-1919.04,0,0
48788.4,418.035,-1911.42,0,0
49048.725,415.582,-1903.57,0,0
49309.05,413.011,-1896.94,0,0
49569.375,409.548,-1890.87,0,0
49829.7,404.571,-1883.83,0,0
50090.025,400.014,-1876.39,0,0
50350.35,395.348,-1869.18,0,0
50610.675,389.506,-1861.12,0,0
50871.0,384.331,-1851.88,0,0
51131.325,380.298,-1842.63,0,0
51391.65,376.149,-1833.95,0,0
51651.975,371.999,-1825.04,0,0
51912.3,367.779,-1815.86,0,0
52172.625,364.316,-1806.54,0,0
52432.95,361.078,-1797.6,0,0
52693.275,358.375,-1788.69,0,0
52953.6,355.323,-1780.76,0,0
53213.925,351.974,-1772.74,0,0
53474.25,348.339,-1764.75,0,0
53734.575,344.452,-1756.45,0,0
53994.9,341.012,-1747.98,0,0
54255.225,337.582,-1739.35,0,0
54515.55,334.342,-1730.95,0,0
54775.875,331.365,-1722.47,0,0
55036.2,328.142,-1714.45,0,0
55296.525,324.689,-1706.34,0,0
55556.85,321.105,-1697.77,0,0
55817.175,317.787,-1688.95,0,0
56077.5,314.71,-1679.92,0,0
56337.825,311.952,-1670.63,0,0
56598.15,309.898,-1661.12,0,0
56858.475,308.547,-1652.23,0,0
57118.8,307.297,-1643.78,0,0
57379.125,306.294,-1635.53,0,0
57639.45,305.507,-1627.97,0,0
57899.775,304.553,-1620.97,0,0
58160.1,303.154,-1614.29,0,0
58420.4,301.652,-1607.95,0,0
58680.7,299.555,-1601.47,0,0
58941.1,297.686,-1594.73,0,0
59201.4,295.671,-1588.41,0,0
59461.7,293.461,-1581.93,0,0
59722,291.159,-1575.51,0,0
59982.4,288.602,-1569.14,0,0
60242.7,286.111,-1562.42,0,0
60503,283.557,-1555.52,0,0
60763.3,281.138,-1548.85,0,0
61023.7,278.593,-1542.03,0,0
61284,276.15,-1535.1,0,0
61544.3,273.477,-1528.19,0,0
61804.6,270.794,-1520.88,0,0
62065,268.247,-1513.2,0,0
62325.3,266.21,-1505.21,0,0
62585.6,264.94,-1497.23,0,0
62845.9,264.159,-1489.4,0,0
63106.3,263.971,-1481.96,0,0
63366.6,264.203,-1475.35,0,0
63626.9,264.558,-1469.75,0,0
63887.2,263.906,-1465.19,0,0
64147.6,262.572,-1460.65,0,0
64407.9,260.515,-1456.03,0,0
64668.2,257.91,-1450.5,0,0
64928.5,255.415,-1444.58,0,0
65188.9,253.28,-1438.16,0,0
65449.2,251.812,-1432.04,0,0
65709.5,250.206,-1426.33,0,0
65969.8,248.815,-1420.95,0,0
66230.2,246.554,-1415.43,0,0
66490.5,244.467,-1409.7,0,0
66750.8,242.062,-1403.97,0,0
67011.1,239.72,-1398.11,0,0
67271.5,237.359,-1392.03,0,0
67531.8,235.127,-1385.58,0,0
67792.1,233.325,-1379.11,0,0
68052.4,231.427,-1372.92,0,0
68312.8,229.711,-1366.2,0,0
68573.1,228.055,-1359.66,0,0
68833.4,226.723,-1353.23,0,0
69093.7,225.32,-1346.69,0,0
69354.1,223.905,-1340.46,0,0
69614.4,222.786,-1334,0,0
69874.7,221.868,-1327.36,0,0
70135,220.931,-1321.2,0,0
70395.4,220.309,-1314.8,0,0
70655.7,219.645,-1308.71,0,0
70916,219.108,-1302.49,0,0
71176.3,218.608,-1296.46,0,0
71436.7,218.323,-1290.43,0,0
71697,218.249,-1284.54,0,0
71957.3,218.036,-1278.94,0,0
72217.6,217.957,-1273.29,0,0
72478,217.973,-1267.79,0,0
72738.3,218.134,-1262.49,0,0
72998.6,218.032,-1257.45,0,0
73258.9,218.223,-1252.5,0,0
73519.3,218.243,-1247.76,0,0
73779.6,218.132,-1243.21,0,0
74039.9,217.919,-1238.58,0,0
74300.225,217.434,-1233.99,0,0
74560.55,217.109,-1229.37,0,0
74820.875,216.829,-1224.67,0,0
75081.2,216.643,-1220.13,0,0
75341.525,216.414,-1215.69,0,0
75601.85,216.147,-1211.22,0,0
75862.175,215.844,-1206.91,0,0
76122.5,215.546,-1202.54,0,0
76382.825,215.267,-1198.25,0,0
76643.15,214.947,-1193.98,0,0
76903.475,214.703,-1189.77,0,0
77163.8,214.406,-1185.53,0,0
77424.125,214.178,-1181.35,0,0
77684.45,213.969,-1177.32,0,0
77944.775,213.653,-1173.43,0,0
78205.1,213.36,-1169.57,0,0
78465.425,213.089,-1165.75,0,0
78725.75,212.641,-1161.98,0,0
78986.075,212.176,-1158.2,0,0
79246.4,211.683,-1154.52,0,0
79506.725,211.17,-1150.83,0,0
79767.05,210.663,-1147.22,0,0
80027.375,210.132,-1143.52,0,0
80287.7,209.492,-1139.95,0,0
80548.025,208.88,-1136.4,0,0
80808.35,208.105,-1132.8,0,0
81068.675,207.372,-1129.2,0,0
81329.0,206.581,-1125.72,0,0
81589.325,205.786,-1122.09,0,0
81849.65,204.859,-1118.5,0,0
82109.975,203.957,-1114.8,0,0
82370.3,203.074,-1111.2,0,0
82630.625,202.146,-1107.48,0,0
82890.95,201.253,-1103.82,0,0
83151.275,200.252,-1100.04,0,0
83411.6,199.279,-1096.18,0,0
83671.925,198.269,-1092.4,0,0
83932.25,197.25,-1088.5,0,0
84192.575,196.402,-1084.49,0,0
84452.9,195.483,-1080.43,0,0
84713.225,194.68,-1076.36,0,0
84973.55,194.097,-1072.12,0,0
85233.875,193.577,-1067.99,0,0
85494.2,193.299,-1063.94,0,0
85754.525,192.843,-1059.89,0,0
86014.85,192.69,-1056.1,0,0
86275.175,192.386,-1052.27,0,0
86535.5,192.293,-1048.55,0,0
86795.825,191.936,-1044.87,0,0
87056.15,191.768,-1041.46,0,0
87316.475,191.365,-1037.88,0,0
87576.8,190.991,-1034.32,0,0
87837.125,190.525,-1030.65,0,0
88097.45,190.248,-1027.08,0,0
88357.775,189.922,-1023.3,0,0
88618.1,189.598,-1019.73,0,0
88878.425,189.35,-1016.01,0,0
89138.75,189.261,-1012.4,0,0
89399.075,189.457,-1008.8,0,0
89659.4,189.404,-1005.38,0,0
89919.725,189.696,-1002.02,0,0
90180,189.815,-998.913,0,0
90440.4,190.064,-996.013,0,0
90700.7,189.904,-992.935,0,0
90961,189.992,-990.128,0,0
91221.3,189.641,-987.616,0,0
91481.7,189.192,-984.542,0,0
91742,188.585,-981.601,0,0
92002.3,188.057,-978.629,0,0
92262.6,187.603,-975.272,0,0
92523,187.188,-972.009,0,0
92783.3,186.894,-968.688,0,0
93043.6,186.827,-965.498,0,0
93303.9,186.625,-962.47,0,0
93564.3,186.128,-959.483,0,0
93824.6,185.663,-956.097,0,0
94084.9,185.264,-952.352,0,0
94345.2,185.521,-948.727,0,0
94605.6,186.017,-945.269,0,0
94865.9,186.759,-942.307,0,0
95126.2,187.401,-939.844,0,0
95386.5,187.367,-937.329,0,0
95646.9,187.35,-934.438,0,0
95907.2,187.606,-931.647,0,0
96167.5,188.024,-929.178,0,0
96427.8,188.285,-926.898,0,0
96688.2,188.163,-924.823,0,0
96948.5,187.712,-922.635,0,0
97208.8,187.153,-920.098,0,0
97469.1,186.829,-917.258,0,0
97729.5,186.554,-914.435,0,0
97989.8,186.325,-911.629,0,0
98250.1,186.184,-908.513,0,0
98510.4,186.39,-905.284,0,0
98770.8,187.113,-902.176,0,0
99031.1,188.181,-899.454,0,0
99291.4,189.483,-897.285,0,0
99551.7,190.654,-895.805,0,0
99812.1,191.349,-894.698,0,0
100072,191.578,-893.753,0,0
100333,191.514,-892.92,0,0
100593,190.978,-892.073,0,0
100853,190.016,-891.067,0,0
101114,188.803,-889.623,0,0
101374,187.674,-887.823,0,0
101634,186.698,-885.887,0,0
101895,185.859,-883.892,0,0
102155,185.193,-881.899,0,0
102415,184.605,-880.113,0,0
102676,184.041,-878.532,0,0
102936,183.371,-877.33,0,0
103196,182.116,-876.284,0,0
103457,180.432,-874.974,0,0
103717,178.69,-873.536,0,0
103977,176.653,-871.867,0,0
104238,174.815,-870.123,0,0
104498,172.483,-868.423,0,0
104758,169.572,-866.332,0,0
105019,166.749,-863.585,0,0
105279,163.944,-860.547,0,0
105539,161.08,-856.878,0,0
105800,158.608,-852.814,0,0
106060,156.411,-848.315,0,0
106320.175,154.749,-843.588,0,0
106580.5,153.497,-838.767,0,0
106840.825,152.753,-833.941,0,0
107101.15,152.373,-829.273,0,0
107361.475,152.281,-824.768,0,0
107621.8,152.355,-820.57,0,0
107882.125,152.546,-816.243,0,0
108142.45,153.282,-812.141,0,0
108402.775,154.064,-808.633,0,0
108663.1,154.442,-805.397,0,0
108923.425,154.83,-802.027,0,0
109183.75,155.355,-798.676,0,0
109444.075,155.765,-795.577,0,0
109704.4,156.148,-792.269,0,0
109964.725,156.559,-789.07,0,0
110225.05,157.152,-785.804,0,0
110485.375,157.732,-782.952,0,0
110745.7,158.399,-779.767,0,0
111006.025,158.922,-776.84,0,0
111266.35,159.768,-773.584,0,0
111526.675,160.787,-770.761,0,0
111787.0,161.493,-767.95,0,0
112047.325,162.276,-765.487,0,0
112307.65,163.144,-762.8,0,0
112567.975,164.156,-760.301,0,0
112828.3,165.038,-757.892,0,0
113088.625,165.999,-755.362,0,0
113348.95,167.1,-753.029,0,0
113609.275,168.052,-751.134,0,0
113869.6,168.826,-749.164,0,0
114129.925,169.603,-747.284,0,0
114390.25,170.183,-745.345,0,0
114650.575,170.851,-743.256,0,0
114910.9,171.652,-741.098,0,0
115171.225,172.763,-739.363,0,0
115431.55,173.385,-737.759,0,0
115691.875,174.046,-735.813,0,0
115952.2,174.94,-734.138,0,0
116212.525,175.83,-732.676,0,0
116472.85,176.804,-731.297,0,0
116733.175,177.869,-730.464,0,0
116993.5,178.245,-729.857,0,0
117253.825,178.177,-729.322,0,0
117514.15,177.834,-728.527,0,0
117774.475,177.039,-727.502,0,0
118034.8,176.239,-726.074,0,0
118295.125,175.431,-724.315,0,0
118555.45,174.691,-722.328,0,0
118815.775,174.122,-720.066,0,0
119076.1,173.782,-717.736,0,0
119336.425,173.555,-715.286,0,0
119596.75,173.706,-712.697,0,0
119857.075,174.289,-709.775,0,0
120117.4,175.061,-707.143,0,0
120377.725,176.505,-704.851,0,0
120638.05,178.532,-703.258,0,0
120898.375,180.349,-702.781,0,0
121158.7,181.385,-702.933,0,0
121419.025,181.609,-703.381,0,0
121679.35,180.986,-703.562,0,0
121939.675,179.696,-703.206,0,0
122200.0,178.428,-702.118,0,0
122460,177.388,-700.683,0,0
122721,176.508,-699.141,0,0
122981,175.693,-697.49,0,0
123241,175.071,-695.756,0,0
123502,174.475,-693.974,0,0
123762,174.101,-692.217,0,0
124022,173.716,-690.768,0,0
124283,173.105,-689.201,0,0
124543,172.547,-687.583,0,0
124803,171.853,-685.908,0,0
125064,171.233,-684.1,0,0
125324,170.714,-682.187,0,0
125584,170.331,-680.47,0,0
125845,169.795,-678.766,0,0
126105,169.071,-677.069,0,0
126365,168.356,-675.112,0,0
126626,167.653,-673.125,0,0
126886,166.945,-671.073,0,0
127146,166.572,-668.852,0,0
127406,166.144,-666.42,0,0
127667,165.819,-664.221,0,0
127927,165.551,-661.888,0,0
128187,165.372,-659.578,0,0
128448,165.458,-657.058,0,0
128708,165.893,-654.727,0,0
128968,166.458,-652.709,0,0
129229,167.106,-651.056,0,0
129489,167.517,-649.605,0,0
129749,167.737,-648.338,0,0
130010,167.895,-646.983,0,0
130270,167.903,-645.727,0,0
130530,167.893,-644.467,0,0
130791,167.766,-643.365,0,0
131051,167.435,-642.136,0,0
131311,167.029,-640.862,0,0
131572,166.784,-639.548,0,0
131832,166.342,-638.306,0,0
132092,165.758,-637.086,0,0
132353,165.176,-635.809,0,0
132613,164.552,-634.418,0,0
132873,163.881,-633.106,0,0
133134,163.098,-631.731,0,0
133394,162.217,-630.413,0,0
133654,161.205,-628.895,0,0
133915,160.15,-627.238,0,0
134175,159.071,-625.525,0,0
134435,158.009,-623.755,0,0
134696,156.918,-621.806,0,0
134956,155.778,-619.768,0,0
135216,154.752,-617.549,0,0
135477,153.569,-615.459,0,0
135737,152.664,-613.071,0,0
135997,151.832,-610.589,0,0
136258,150.989,-608.123,0,0
136518,150.222,-605.636,0,0
136778,149.57,-603.129,0,0
137039,148.886,-600.547,0,0
137299,148.369,-597.874,0,0
137559,147.835,-595.279,0,0
137819,147.335,-592.694,0,0
138080,146.871,-590.049,0,0
138340.125,146.445,-587.341,0,0
138600.45,146.166,-584.579,0,0
138860.775,145.887,-581.862,0,0
139121.1,145.789,-579.112,0,0
139381.425,145.735,-576.434,0,0
139641.75,145.618,-573.742,0,0
139902.075,145.627,-571.074,0,0
140162.4,145.643,-568.359,0,0
140422.725,145.707,-565.657,0,0
140683.05,145.808,-562.961,0,0
140943.375,145.965,-560.179,0,0
141203.7,146.343,-557.483,0,0
141464.025,146.82,-554.889,0,0
141724.35,147.25,-552.445,0,0
141984.675,147.623,-550.133,0,0
142245.0,147.889,-547.742,0,0
142505.325,148.127,-545.298,0,0
142765.65,148.46,-542.776,0,0
143025.975,148.871,-540.279,0,0
143286.3,149.367,-537.902,0,0
143546.625,149.744,-535.477,0,0
143806.95,150.189,-532.996,0,0
144067.275,150.72,-530.435,0,0
144327.6,151.449,-527.908,0,0
144587.925,152.349,-525.507,0,0
144848.25,153.346,-523.239,0,0
145108.575,154.456,-521.281,0,0
145368.9,155.372,-519.615,0,0
145629.225,156.01,-518.093,0,0
145889.55,156.425,-516.492,0,0
146149.875,156.798,-514.844,0,0
146410.2,157.094,-513.124,0,0
146670.525,157.325,-511.438,0,0
146930.85,157.461,-509.696,0,0
147191.175,157.534,-507.905,0,0
147451.5,157.497,-506.099,0,0
147711.825,157.331,-504.135,0,0
147972.15,157.188,-501.969,0,0
148232.475,157.127,-499.681,0,0
148492.8,157.242,-497.33,0,0
148753.125,157.307,-495.051,0,0
149013.45,157.371,-492.8,0,0
149273.775,157.35,-490.435,0,0
149534.1,157.254,-487.932,0,0
149794.425,157.299,-485.291,0,0
150054.75,157.302,-482.53,0,0
150315.075,157.545,-479.613,0,0
150575.4,157.884,-476.653,0,0
150835.725,158.269,-473.689,0,0
151096.05,158.724,-470.537,0,0
151356.375,159.378,-467.26,0,0
151616.7,160.275,-463.803,0,0
151877.025,161.518,-460.373,0,0
152137.35,163.301,-456.909,0,0
152397.675,165.429,-453.939,0,0
152658.0,167.656,-451.282,0,0
152918.325,170.003,-449.022,0,0
153178.65,172.27,-447.182,0,0
153438.975,174.452,-445.778,0,0
153699.3,176.213,-444.522,0,0
153959.625,177.669,-443.343,0,0
154219.95,178.889,-442.283,0,0
154480,179.691,-441.02,0,0
154741,180.264,-439.447,0,0
155001,181.075,-437.34,0,0
155261,181.969,-435.278,0,0
155522,183.087,-432.986,0,0
155782,184.561,-430.661,0,0
156042,186.371,-428.351,0,0
156303,188.421,-426.399,0,0
156563,190.864,-424.733,0,0
156823,193.262,-423.67,0,0
157084,195.462,-423.126,0,0
157344,197.107,-422.987,0,0
157604,198.269,-422.722,0,0
157864,199.158,-422.321,0,0
158125,199.982,-421.938,0,0
158385,200.575,-421.442,0,0
158645,200.921,-420.809,0,0
158906,201.157,-419.964,0,0
159166,201.531,-418.882,0,0
159426,201.769,-417.87,0,0
159687,202.018,-416.796,0,0
159947,202.295,-415.58,0,0
160207,202.681,-414.261,0,0
160468,202.88,-412.924,0,0
160728,203.178,-411.544,0,0
160988,203.56,-410.085,0,0
161249,204.096,-408.661,0,0
161509,204.557,-407.479,0,0
161769,204.791,-406.427,0,0
162030,204.835,-405.292,0,0
162290,204.672,-403.961,0,0
162550,204.481,-402.333,0,0
162811,204.314,-400.56,0,0
163071,204.441,-398.568,0,0
163331,204.638,-396.76,0,0
163592,204.892,-395.047,0,0
163852,204.97,-393.28,0,0
164112,205.019,-391.575,0,0
164373,204.848,-389.566,0,0
164633,204.741,-387.428,0,0
164893,204.675,-385.115,0,0
165154,204.72,-382.651,0,0
165414,204.862,-380.11,0,0
165674,205.197,-377.373,0,0
165935,205.772,-374.655,0,0
166195,206.617,-372.014,0,0
166455,207.489,-369.677,0,0
166716,208.266,-367.433,0,0
166976,208.911,-365.18,0,0
167236,209.544,-362.787,0,0
167497,210.231,-360.337,0,0
167757,210.998,-357.85,0,0
168017,211.85,-355.325,0,0
168277,212.687,-352.865,0,0
168538,213.655,-350.414,0,0
168798,214.598,-347.96,0,0
169058,215.571,-345.442,0,0
169319,216.621,-343.095,0,0
169579,217.645,-340.704,0,0
169839,218.655,-338.289,0,0
170100,219.743,-335.928,0,0
170360.075,220.797,-333.567,0,0
170620.4,221.757,-331.237,0,0
170880.725,222.77,-328.829,0,0
171141.05,223.711,-326.567,0,0
171401.375,224.672,-324.011,0,0
171661.7,225.602,-321.473,0,0
171922.025,226.601,-318.918,0,0
172182.35,227.626,-316.245,0,0
172442.675,228.724,-313.611,0,0
172703.0,229.869,-310.921,0,0
172963.325,231.028,-308.323,0,0
173223.65,232.148,-305.713,0,0
173483.975,233.25,-303.022,0,0
173744.3,234.241,-300.354,0,0
174004.625,235.269,-297.571,0,0
174264.95,236.254,-294.618,0,0
174525.275,237.278,-291.669,0,0
174785.6,238.297,-288.596,0,0
175045.925,239.301,-285.285,0,0
175306.25,240.533,-281.865,0,0
175566.575,241.772,-278.351,0,0
175826.9,243.156,-274.715,0,0
176087.225,244.639,-271.067,0,0
176347.55,246.206,-267.291,0,0
176607.875,247.87,-263.421,0,0
176868.2,249.673,-259.469,0,0
177128.525,251.636,-255.407,0,0
177388.85,253.807,-251.298,0,0
177649.175,256.128,-247.138,0,0
177909.5,258.599,-242.928,0,0
178169.825,261.242,-238.655,0,0
178430.15,264.03,-234.367,0,0
178690.475,267.088,-229.965,0,0
178950.8,270.425,-225.558,0,0
179211.125,274.034,-221.17,0,0
179471.45,277.93,-216.851,0,0
179731.775,282.097,-212.736,0,0
179992.1,286.474,-208.744,0,0
180252.425,291.08,-205.017,0,0
180512.75,295.779,-201.498,0,0
180773.075,300.585,-198.22,0,0
181033.4,305.414,-195.159,0,0
181293.725,310.223,-192.17,0,0
181554.05,315.139,-189.244,0,0
181814.375,320.193,-186.498,0,0
182074.7,325.338,-183.985,0,0
182335.025,330.455,-181.744,0,0
182595.35,335.512,-179.645,0,0
182855.675,340.487,-177.64,0,0
183116.0,345.37,-175.765,0,0
183376.325,350.212,-173.979,0,0
183636.65,355.022,-172.114,0,0
183896.975,359.946,-170.271,0,0
184157.3,364.954,-168.63,0,0
184417.625,369.925,-167.207,0,0
184677.95,374.788,-165.999,0,0
184938.275,379.474,-164.886,0,0
185198.6,383.986,-163.845,0,0
185458.925,388.244,-162.829,0,0
185719.25,392.314,-161.758,0,0
185979.575,396.303,-160.626,0,0
186239.9,400.064,-159.388,0,0
186500,403.742,-158.12,0,0
186761,407.028,-156.597,0,0
187021,410.097,-154.784,0,0
187281,413.101,-152.557,0,0
187542,416.003,-149.733,0,0
187802,419.079,-146.481,0,0
188062,422.378,-142.752,0,0
188322,425.913,-138.624,0,0
188583,429.668,-133.991,0,0
188843,433.962,-128.747,0,0
189103,438.871,-123.213,0,0
189364,444.376,-117.363,0,0
189624,450.656,-111.29,0,0
189884,457.521,-105.092,0,0
190145,465.299,-98.7767,0,0
190405,473.869,-92.3449,0,0
190665,483.383,-86.1975,0,0
190926,493.777,-80.3504,0,0
191186,505.069,-74.918,0,0
191446,517.156,-70.0103,0,0
191707,529.953,-65.9781,0,0
191967,543.154,-62.6576,0,0
192227,556.552,-60.2213,0,0
192488,570.074,-58.3659,0,0
192748,583.792,-56.8636,0,0
193008,597.699,-55.6971,0,0
193269,612.03,-54.9176,0,0
193529,626.799,-54.5528,0,0
193789,642.183,-54.6967,0,0
194050,658.124,-55.6096,0,0
194310,674.604,-57.4986,0,0
194570,691.257,-60.4472,0,0
194831,708.146,-64.2992,0,0
195091,725.032,-69.3676,0,0
195351,741.895,-75.4613,0,0
195612,758.266,-82.5673,0,0
195872,774.349,-90.4931,0,0
196132,790.104,-99.0767,0,0
196393,805.512,-108.425,0,0
196653,820.635,-118.504,0,0
196913,835.298,-129.26,0,0
197174,849.515,-140.823,0,0
197434,863.281,-152.904,0,0
197694,876.324,-165.4,0,0
197955,889.137,-178.194,0,0
198215,901.521,-191.545,0,0
198475,913.87,-205.256,0,0
198735,925.965,-219.464,0,0
198996,937.776,-234.686,0,0
199256,949.171,-250.56,0,0
199516,959.705,-266.952,0,0
199777,969.494,-284.086,0,0
200037,979.127,-301.519,0,0
200297,988.075,-319.627,0,0
200558,996.681,-338.05,0,0
200818,1004.64,-357.357,0,0
201078,1011.99,-377.505,0,0
201339,1018.69,-398.13,0,0
201599,1024.44,-419.809,0,0
201859,1028.97,-442.532,0,0
202120,1032.43,-465.54,0,0
202380.025,1033.96,-490.153,0,0
202640.35,1033.63,-514.502,0,0
202900.675,1031.2,-538.72,0,0
203161.0,1027.13,-562.402,0,0
203421.325,1021.64,-584.484,0,0
203681.65,1014.88,-606.829,0,0
203941.975,1006.86,-627.564,0,0
204202.3,998.294,-647.537,0,0
204462.625,989.022,-666.671,0,0
204722.95,978.908,-684.895,0,0
204983.275,968.403,-702.86,0,0
205243.6,957.169,-719.419,0,0
205503.925,945.182,-735.446,0,0
205764.25,932.763,-750.512,0,0
206024.575,919.679,-764.9,0,0
206284.9,906.47,-778.127,0,0
206545.225,892.779,-790.016,0,0
206805.55,879.068,-801.545,0,0
207065.875,865.673,-812.161,0,0
207326.2,851.775,-821.726,0,0
207586.525,838.283,-830.613,0,0
207846.85,824.882,-838.556,0,0
208107.175,811.54,-845.783,0,0
208367.5,798.711,-852.687,0,0
208627.825,785.993,-858.618,0,0
208888.15,773.512,-864.368,0,0
209148.475,761.535,-869.614,0,0
209408.8,749.941,-874.716,0,0
209669.125,738.6,-879.455,0,0
209929.45,727.622,-883.527,0,0
210189.775,717.402,-888.613,0,0
210450.1,706.828,-893.101,0,0
210710.425,696.173,-897.749,0,0
210970.75,685.737,-903.318,0,0
211231.075,674.996,-908.536,0,0
211491.4,663.233,-914.019,0,0
211751.725,651.233,-918.958,0,0
212012.05,638.286,-923.52,0,0
212272.375,625.128,-927.261,0,0
212532.7,611.523,-930.201,0,0
212793.025,597.546,-932.51,0,0
213053.35,584.412,-933.304,0,0
213313.675,571.24,-933.585,0,0
213574.0,558.338,-933.459,0,0
213834.325,545.886,-932.714,0,0
214094.65,533.576,-931.541,0,0
214354.975,521.809,-929.884,0,0
214615.3,510.293,-927.746,0,0
214875.625,499.351,-925.402,0,0
215135.95,488.396,-922.431,0,0
215396.275,478.661,-919.414,0,0
215656.6,468.753,-916.268,0,0
215916.925,459.317,-912.665,0,0
216177.25,450.41,-909.424,0,0
216437.575,441.771,-905.835,0,0
216697.9,433.33,-902.238,0,0
216958.225,425.204,-898.529,0,0
217218.55,417.431,-894.677,0,0
217478.875,409.835,-891.008,0,0
217739.2,402.416,-887.117,0,0
217999.525,395.461,-883.095,0,0
218259.85,388.489,-879.232,0,0
218520,381.849,-875.143,0,0
218780,375.41,-871.08,0,0
219041,369.081,-866.91,0,0
219301,363.1,-862.696,0,0
219561,357.289,-858.441,0,0
219822,351.753,-854.443,0,0
220082,345.831,-849.999,0,0
220342,340.879,-845.793,0,0
220603,335.552,-841.816,0,0
220863,330.786,-837.202,0,0
221123,325.828,-833.048,0,0
221384,321.037,-828.786,0,0
221644,316.597,-824.346,0,0
221904,312.026,-819.965,0,0
222165,307.783,-815.405,0,0
222425,303.61,-810.806,0,0
222685,299.855,-806.33,0,0
222946,295.991,-801.785,0,0
223206,292.288,-797.041,0,0
223466,289.193,-792.353,0,0
223727,285.982,-787.441,0,0
223987,282.931,-782.846,0,0
224247,280.469,-778.042,0,0
224508,277.977,-772.933,0,0
224768,275.793,-768.176,0,0
225028,274.05,-763.66,0,0
225289,272.116,-759.041,0,0
225549,270.95,-754.402,0,0
225809,269.581,-749.956,0,0
226070,269.006,-745.592,0,0
226330,268.642,-741.449,0,0
226590,268.251,-737.764,0,0
226851,268.239,-734.264,0,0
227111,268.315,-731.152,0,0
227371,268.488,-728.39,0,0
227632,268.756,-726.009,0,0
227892,268.796,-723.961,0,0
228152,268.738,-722.292,0,0
228413,268.585,-720.779,0,0
228673,268.13,-719.75,0,0
228933,267.464,-718.684,0,0
229193,266.516,-717.658,0,0
229454,265.207,-716.839,0,0
229714,263.78,-715.902,0,0
229974,262.069,-714.824,0,0
230235,260.177,-713.807,0,0
230495,258.258,-712.731,0,0
230755,255.85,-711.351,0,0
231016,253.787,-709.716,0,0
231276,251.379,-708.124,0,0
231536,249.111,-706.217,0,0
231797,246.807,-704.225,0,0
232057,244.713,-702.031,0,0
232317,242.336,-699.768,0,0
232578,240.283,-697.379,0,0
232838,238.167,-694.829,0,0
233098,236.163,-692.17,0,0
233359,234.405,-689.553,0,0
233619,232.682,-686.787,0,0
233879,231.131,-683.881,0,0
234140,229.619,-681.16,0,0
234400,228.137,-678.283,0,0
234660.3,226.679,-675.252,0,0
234920.625,225.754,-672.515,0,0
235180.95,224.724,-669.662,0,0
235441.275,223.754,-666.703,0,0
235701.6,222.889,-663.832,0,0
235961.925,222.039,-660.953,0,0
236222.25,221.468,-658.125,0,0
236482.575,220.795,-655.368,0,0
236742.9,220.24,-652.679,0,0
237003.225,219.869,-649.901,0,0
237263.55,219.409,-647.2,0,0
237523.875,219.016,-644.592,0,0
237784.2,218.766,-642.048,0,0
238044.525,218.653,-639.348,0,0
238304.85,218.362,-636.786,0,0
238565.175,218.22,-634.334,0,0
238825.5,218.211,-631.604,0,0
239085.825,218.209,-629.175,0,0
239346.15,218.205,-626.732,0,0
239606.475,218.468,-624.371,0,0
239866.8,218.652,-622.118,0,0
240127.125,218.816,-619.803,0,0
240387.45,219.044,-617.467,0,0
240647.775,219.232,-615.198,0,0
240908.1,219.761,-613.018,0,0
241168.425,220.057,-610.814,0,0
241428.75,220.416,-608.618,0,0
241689.075,220.823,-606.428,0,0
241949.4,221.457,-604.287,0,0
242209.725,221.914,-602.25,0,0
242470.05,222.542,-600.119,0,0
242730.375,223.159,-598.033,0,0
242990.7,223.843,-596.063,0,0
243251.025,224.611,-594.073,0,0
243511.35,225.405,-592.061,0,0
243771.675,226.282,-590.075,0,0
244032.0,227.213,-588.276,0,0
244292.325,228.065,-586.299,0,0
244552.65,228.963,-584.465,0,0
244812.975,229.954,-582.653,0,0
245073.3,231.214,-580.918,0,0
245333.625,232.396,-579.048,0,0
245593.95,233.641,-577.178,0,0
245854.275,235.007,-575.405,0,0
246114.6,236.404,-573.631,0,0
246374.925,237.957,-571.937,0,0
246635.25,239.629,-570.244,0,0
246895.575,241.555,-568.638,0,0
247155.9,243.523,-567.132,0,0
247416.225,245.628,-565.775,0,0
247676.55,247.881,-564.501,0,0
247936.875,250.366,-563.482,0,0
248197.2,252.762,-562.663,0,0
248457.525,255.129,-562.106,0,0
248717.85,257.554,-561.756,0,0
248978.175,260.021,-561.55,0,0
249238.5,262.311,-561.525,0,0
249498.825,264.551,-561.602,0,0
249759.15,266.668,-561.883,0,0
250019.475,268.689,-562.013,0,0
250279.8,270.663,-562.186,0,0
250540,272.589,-562.306,0,0
250800,274.728,-562.306,0,0
251061,277.023,-562.41,0,0
251321,279.491,-562.509,0,0
251581,282.204,-562.859,0,0
251842,285.147,-563.315,0,0
252102,288.209,-564.177,0,0
252362,292.066,-565.241,0,0
252623,294.513,-567.534,0,0
252883,297.804,-569.047,0,0
253143,300.962,-571.472,0,0
253404,303.936,-574.243,0,0
253664,306.515,-577.38,0,0
253924,308.952,-581.021,0,0
254185,311.047,-584.507,0,0
254445,313.022,-588.837,0,0
254705,314.354,-593.182,0,0
254966,315.406,-597.671,0,0
255226,316.023,-602.346,0,0
255486,316.289,-606.93,0,0
255747,316.055,-611.522,0,0
256007,315.474,-616.123,0,0
256267,314.509,-620.548,0,0
256528,313.1,-625.071,0,0
256788,311.447,-629.254,0,0
257048,309.45,-633.412,0,0
257309,307.288,-637.352,0,0
257569,304.812,-641.092,0,0
257829,302.155,-644.407,0,0
258090,299.13,-647.757,0,0
258350,296.461,-650.768,0,0
258610,293.44,-653.845,0,0
258871,290.326,-656.421,0,0
259131,286.782,-659.143,0,0
259391,283.388,-661.232,0,0
259651,279.845,-663.632,0,0
259912,276.268,-665.397,0,0
260172,272.739,-667.246,0,0
260432,269.001,-668.737,0,0
260693,265.313,-670.064,0,0
260953,261.452,-671.245,0,0
261213,257.855,-672.187,0,0
261474,254.046,-672.747,0,0
261734,250.416,-673.284,0,0
261994,246.802,-673.813,0,0
262255,243.208,-673.862,0,0
262515,239.616,-673.959,0,0
262775,236.268,-673.808,0,0
263036,232.883,-673.667,0,0
263296,229.713,-673.461,0,0
263556,226.701,-673.095,0,0
263817,223.467,-672.744,0,0
264077,220.475,-672.363,0,0
264337,217.489,-671.897,0,0
264598,214.45,-671.315,0,0
264858,211.804,-670.626,0,0
265118,208.651,-669.935,0,0
265379,206.074,-669.214,0,0
265639,203.29,-668.273,0,0
265899,200.621,-667.429,0,0
266160,197.859,-666.701,0,0
266420,195.495,-665.49,0,0
266680.25,192.979,-664.572,0,0
266940.575,190.569,-663.545,0,0
267200.9,188.208,-662.399,0,0
267461.225,185.923,-661.433,0,0
267721.55,183.626,-660.288,0,0
267981.875,181.325,-659.148,0,0
268242.2,179.213,-658.025,0,0
268502.525,177.177,-656.775,0,0
268762.85,175.047,-655.694,0,0
269023.175,173.167,-654.503,0,0
269283.5,170.994,-653.226,0,0
269543.825,169.026,-651.962,0,0
269804.15,167.183,-650.812,0,0
270064.475,165.173,-649.611,0,0
270324.8,163.225,-648.21,0,0
270585.125,161.434,-647.011,0,0
270845.45,159.615,-645.663,0,0
271105.775,157.868,-644.363,0,0
271366.1,156.133,-643.117,0,0
271626.425,154.404,-641.762,0,0
271886.75,152.752,-640.434,0,0
272147.075,151.047,-639.067,0,0
272407.4,149.401,-637.655,0,0
272667.725,147.871,-636.289,0,0
272928.05,146.256,-634.913,0,0
273188.375,144.74,-633.53,0,0
273448.7,143.244,-632.145,0,0
273709.025,141.736,-630.723,0,0
273969.35,140.363,-629.29,0,0
274229.675,138.872,-627.903,0,0
274490.0,137.384,-626.452,0,0
274750.325,136.09,-624.978,0,0
275010.65,134.698,-623.517,0,0
275270.975,133.434,-621.991,0,0
275531.3,132.221,-620.505,0,0
275791.625,130.958,-618.997,0,0
276051.95,129.808,-617.566,0,0
276312.275,128.612,-616.096,0,0
276572.6,127.434,-614.52,0,0
276832.925,126.326,-613.061,0,0
277093.25,125.252,-611.571,0,0
277353.575,124.207,-610.047,0,0
277613.9,123.182,-608.58,0,0
277874.225,122.11,-607.07,0,0
278134.55,121.196,-605.635,0,0
278394.875,120.2,-604.076,0,0
278655.2,119.263,-602.52,0,0
278915.525,118.359,-601.031,0,0
279175.85,117.461,-599.518,0,0
279436.175,116.591,-597.943,0,0
279696.5,115.891,-596.415,0,0
279956.825,115.132,-594.823,0,0
280217.15,114.51,-593.321,0,0
280477.475,113.87,-591.802,0,0
280737.8,113.295,-590.399,0,0
280998.125,112.737,-588.97,0,0
281258.45,112.273,-587.572,0,0
281518.775,111.797,-586.264,0,0
281779.1,111.27,-584.98,0,0
282039.425,110.816,-583.696,0,0
282299.75,110.254,-582.511,0,0
282560,109.829,-581.359,0,0
282820,109.282,-580.158,0,0
283081,108.682,-578.88,0,0
283341,108.144,-577.778,0,0
283601,107.646,-576.555,0,0
283862,107.08,-575.328,0,0
284122,106.734,-574.117,0,0
284382,106.197,-572.756,0,0
284643,105.805,-571.53,0,0
284903,105.315,-570.245,0,0
285163,104.912,-569.189,0,0
285424,104.539,-567.936,0,0
285684,104.295,-566.859,0,0
285944,103.981,-565.798,0,0
286205,103.683,-564.702,0,0
286465,103.435,-563.717,0,0
286725,103.054,-562.798,0,0
286986,102.76,-561.898,0,0
287246,102.404,-560.998,0,0
287506,101.912,-559.998,0,0
287767,101.503,-559.051,0,0
288027,101.035,-558.09,0,0
288287,100.535,-557.101,0,0
288548,100.206,-556.152,0,0
288808,99.7708,-555.108,0,0
289068,99.3834,-554.168,0,0
289329,99.0396,-553.115,0,0
289589,98.6588,-552.136,0,0
289849,98.2456,-551.249,0,0
290109,97.9403,-550.193,0,0
290370,97.668,-549.24,0,0
290630,97.3475,-548.407,0,0
290890,97.0316,-547.467,0,0
291151,96.7469,-546.601,0,0
291411,96.3346,-545.731,0,0
291671,96.1219,-544.854,0,0
291932,95.7927,-543.994,0,0
292192,95.4898,-543.253,0,0
292452,95.1925,-542.355,0,0
292713,94.8566,-541.652,0,0
292973,94.5473,-540.806,0,0
293233,94.2542,-540.129,0,0
293494,93.9077,-539.457,0,0
293754,93.5332,-538.687,0,0
294014,93.0965,-538.007,0,0
294275,92.6549,-537.316,0,0
294535,92.1485,-536.653,0,0
294795,91.6845,-535.959,0,0
295056,91.073,-535.209,0,0
295316,90.5499,-534.41,0,0
295576,89.9411,-533.695,0,0
295837,89.2327,-532.819,0,0
296097,88.7299,-532.028,0,0
296357,88.0968,-531.069,0,0
296618,87.4262,-530.18,0,0
296878,86.8843,-529.217,0,0
297138,86.2392,-528.207,0,0
297399,85.658,-527.128,0,0
297659,85.1239,-525.955,0,0
297919,84.6162,-524.793,0,0
298180,84.2675,-523.52,0,0
298440,83.8679,-522.373,0,0
298700.2,83.6201,-521.143,0,0
298960.525,83.4526,-520.028,0,0
299220.85,83.3178,-518.955,0,0
299481.175,83.19,-517.83,0,0
299741.5,83.2306,-516.822,0,0
300001.825,83.1246,-515.865,0,0
300262.15,83.0059,-514.978,0,0
300522.475,82.9378,-514.027,0,0
300782.8,82.8725,-513.254,0,0
301043.125,82.7657,-512.409,0,0
301303.45,82.6763,-511.628,0,0
301563.775,82.5239,-510.869,0,0
301824.1,82.4098,-510.094,0,0
302084.425,82.2294,-509.32,0,0
302344.75,82.0508,-508.513,0,0
302605.075,81.9186,-507.845,0,0
302865.4,81.7344,-506.967,0,0
303125.725,81.5482,-506.295,0,0
303386.05,81.3704,-505.54,0,0
303646.375,81.1458,-504.74,0,0
303906.7,80.935,-504.016,0,0
304167.025,80.7872,-503.158,0,0
304427.35,80.6113,-502.376,0,0
304687.675,80.4197,-501.616,0,0
304948.0,80.2481,-500.771,0,0
305208.325,80.1242,-499.961,0,0
305468.65,80.0478,-499.147,0,0
305728.975,79.9525,-498.343,0,0
305989.3,79.9315,-497.578,0,0
306249.625,79.9403,-496.831,0,0
306509.95,79.943,-496.122,0,0
306770.275,79.9764,-495.587,0,0
307030.6,79.9788,-495.023,0,0
307290.925,79.9994,-494.512,0,0
307551.25,79.8628,-493.982,0,0
307811.575,79.7444,-493.505,0,0
308071.9,79.5706,-493.04,0,0
308332.225,79.4469,-492.488,0,0
308592.55,79.1424,-492.026,0,0
308852.875,78.9313,-491.52,0,0
309113.2,78.736,-490.969,0,0
309373.525,78.4446,-490.437,0,0
309633.85,78.2534,-489.885,0,0
309894.175,78.0219,-489.378,0,0
310154.5,77.8058,-488.781,0,0
310414.825,77.5376,-488.246,0,0
310675.15,77.2687,-487.737,0,0
310935.475,76.9114,-487.188,0,0
311195.8,76.6796,-486.69,0,0
311456.125,76.4012,-486.115,0,0
311716.45,76.0925,-485.551,0,0
311976.775,75.7939,-484.982,0,0
312237.1,75.459,-484.49,0,0
312497.425,75.1511,-483.921,0,0
312757.75,74.8805,-483.283,0,0
313018.075,74.4784,-482.713,0,0
313278.4,74.1547,-482.112,0,0
313538.725,73.7954,-481.475,0,0
313799.05,73.4381,-480.891,0,0
314059.375,73.0805,-480.221,0,0
314319.7,72.7978,-479.6,0,0
314580,72.4884,-478.952,0,0
314840,72.1703,-478.314,0,0
315101,71.8909,-477.632,0,0
315361,71.6627,-477.018,0,0
315621,71.3025,-476.337,0,0
315882,71.0747,-475.725,0,0
316142,70.7774,-475.067,0,0
316402,70.4869,-474.414,0,0
316663,70.2676,-473.75,0,0
316923,69.9382,-473.17,0,0
317183,69.6358,-472.496,0,0
317444,69.3925,-471.905,0,0
317704,69.082,-471.285,0,0
317964,68.8121,-470.592,0,0
318225,68.4861,-469.991,0,0
318485,68.2363,-469.404,0,0
318745,67.9253,-468.702,0,0
319006,67.6673,-468.039,0,0
319266,67.3354,-467.446,0,0
319526,67.0899,-466.818,0,0
319787,66.7682,-466.167,0,0
320047,66.4688,-465.444,0,0
320307,66.1137,-464.802,0,0
320567,65.9054,-464.141,0,0
320828,65.5772,-463.455,0,0
321088,65.2297,-462.736,0,0
321348,65.0143,-462.038,0,0
321609,64.7274,-461.308,0,0
321869,64.5018,-460.583,0,0
322129,64.2561,-459.912,0,0
322390,64.0093,-459.244,0,0
322650,63.8246,-458.512,0,0
322910,63.5884,-457.805,0,0
323171,63.3838,-457.12,0,0
323431,63.1775,-456.468,0,0
323691,63.0037,-455.795,0,0
323952,62.7693,-455.105,0,0
324212,62.5801,-454.426,0,0
324472,62.3997,-453.816,0,0
324733,62.1782,-453.133,0,0
324993,62.0055,-452.56,0,0
325253,61.8042,-451.913,0,0
325514,61.5759,-451.246,0,0
325774,61.3522,-450.553,0,0
326034,61.1392,-449.916,0,0
326295,60.8678,-449.192,0,0
326555,60.6595,-448.639,0,0
326815,60.4864,-447.884,0,0
327076,60.2296,-447.247,0,0
327336,60.0658,-446.588,0,0
327596,59.8831,-445.935,0,0
327857,59.6512,-445.263,0,0
328117,59.463,-444.577,0,0
328377,59.302,-443.911,0,0
328638,59.0898,-443.243,0,0
328898,58.9278,-442.5,0,0
329158,58.7103,-441.904,0,0
329419,58.5892,-441.215,0,0
329679,58.4047,-440.557,0,0
329939,58.2372,-439.892,0,0
330200,58.0564,-439.179,0,0
330460,57.8882,-438.516,0,0
330720.15,57.7179,-437.832,0,0
330980.475,57.5592,-437.144,0,0
331240.8,57.3935,-436.488,0,0
331501.125,57.2579,-435.821,0,0
331761.45,57.1127,-435.154,0,0
332021.775,56.9158,-434.511,0,0
332282.1,56.7636,-433.81,0,0
332542.425,56.6278,-433.121,0,0
332802.75,56.4975,-432.482,0,0
333063.075,56.4085,-431.753,0,0
333323.4,56.2163,-431.138,0,0
333583.725,56.1193,-430.374,0,0
333844.05,55.9802,-429.689,0,0
334104.375,55.8812,-429.052,0,0
334364.7,55.7878,-428.355,0,0
334625.025,55.6742,-427.655,0,0
334885.35,55.6227,-427.05,0,0
335145.675,55.5491,-426.374,0,0
335406.0,55.4756,-425.684,0,0
335666.325,55.4221,-425.027,0,0
335926.65,55.2945,-424.397,0,0
336186.975,55.2726,-423.789,0,0
336447.3,55.1665,-423.172,0,0
336707.625,55.1109,-422.539,0,0
336967.95,55.0863,-421.901,0,0
337228.275,54.9991,-421.27,0,0
337488.6,54.9214,-420.715,0,0
337748.925,54.8055,-420.049,0,0
338009.25,54.7629,-419.45,0,0
338269.575,54.686,-418.851,0,0
338529.9,54.5935,-418.292,0,0
338790.225,54.536,-417.63,0,0
339050.55,54.4299,-417.034,0,0
339310.875,54.4096,-416.405,0,0
339571.2,54.2843,-415.807,0,0
339831.525,54.2566,-415.185,0,0
340091.85,54.1783,-414.541,0,0
340352.175,54.1554,-413.884,0,0
340612.5,54.0667,-413.316,0,0
340872.825,54.0354,-412.702,0,0
341133.15,54.0029,-412.077,0,0
341393.475,53.9507,-411.49,0,0
341653.8,53.9455,-410.858,0,0
341914.125,53.9797,-410.226,0,0
342174.45,53.9593,-409.645,0,0
342434.775,53.9682,-409.019,0,0
342695.1,54.0472,-408.438,0,0
342955.425,54.0801,-407.886,0,0
343215.75,54.0808,-407.377,0,0
343476.075,54.1819,-406.886,0,0
343736.4,54.218,-406.4,0,0
343996.725,54.2196,-405.966,0,0
344257.05,54.2161,-405.55,0,0
344517.375,54.2021,-405.19,0,0
344777.7,54.0957,-404.791,0,0
345038.025,53.9196,-404.326,0,0
345298.35,53.8092,-403.895,0,0
345558.675,53.6319,-403.411,0,0
345819.0,53.4816,-402.89,0,0
346079.325,53.3489,-402.389,0,0
346339.65,53.1562,-401.834,0,0
346599.975,53.0095,-401.269,0,0
346860,52.8635,-400.688,0,0
347121,52.7223,-400.105,0,0
347381,52.634,-399.556,0,0
347641,52.5368,-398.955,0,0
347902,52.4597,-398.388,0,0
348162,52.4223,-397.761,0,0
348422,52.2802,-397.182,0,0
348683,52.2454,-396.576,0,0
348943,52.2096,-395.988,0,0
349203,52.1285,-395.415,0,0
349464,52.0744,-394.879,0,0
349724,52.0428,-394.279,0,0
349984,52.0189,-393.69,0,0
350245,51.9765,-393.122,0,0
350505,51.8946,-392.561,0,0
350765,51.8972,-392.01,0,0
351025,51.8697,-391.408,0,0
351286,51.8137,-390.867,0,0
351546,51.8381,-390.348,0,0
351806,51.8203,-389.753,0,0
352067,51.8293,-389.211,0,0
352327,51.8192,-388.624,0,0
352587,51.8273,-388.08,0,0
352848,51.8728,-387.577,0,0
353108,51.8571,-387.022,0,0
353368,51.8749,-386.551,0,0
353629,51.8918,-386.04,0,0
353889,51.8997,-385.493,0,0
354149,51.9063,-385.071,0,0
354410,51.8841,-384.531,0,0
354670,51.8956,-384.086,0,0
354930,51.8116,-383.62,0,0
355191,51.8147,-383.135,0,0
355451,51.7692,-382.657,0,0
355711,51.7433,-382.145,0,0
355972,51.7278,-381.673,0,0
356232,51.6805,-381.122,0,0
356492,51.6646,-380.626,0,0
356753,51.5926,-380.098,0,0
357013,51.5347,-379.55,0,0
357273,51.6035,-379,0,0
357534,51.6315,-378.526,0,0
357794,51.6218,-377.996,0,0
358054,51.656,-377.488,0,0
358315,51.687,-377.003,0,0
358575,51.745,-376.547,0,0
358835,51.7373,-376.066,0,0
359096,51.7589,-375.566,0,0
359356,51.8346,-375.154,0,0
359616,51.8297,-374.723,0,0
359877,51.879,-374.296,0,0
360137,51.8399,-373.865,0,0
360397,51.8354,-373.476,0,0
360658,51.8375,-373.105,0,0
360918,51.8186,-372.662,0,0
361178,51.8063,-372.207,0,0
361438,51.779,-371.824,0,0
361699,51.7441,-371.405,0,0
361959,51.6858,-371.037,0,0
362219,51.6338,-370.607,0,0
362480,51.5376,-370.189,0,0
362740.1,51.4902,-369.726,0,0
363000.425,51.3536,-369.275,0,0
363260.75,51.3347,-368.879,0,0
363521.075,51.214,-368.435,0,0
363781.4,51.1896,-367.926,0,0
364041.725,51.1092,-367.482,0,0
364302.05,51.0213,-367.006,0,0
364562.375,50.9535,-366.544,0,0
364822.7,50.8673,-366.044,0,0
365083.025,50.8121,-365.563,0,0
365343.35,50.7676,-365.082,0,0
365603.675,50.7567,-364.596,0,0
365864.0,50.6637,-364.107,0,0
366124.325,50.6417,-363.623,0,0
366384.65,50.601,-363.14,0,0
366644.975,50.5537,-362.653,0,0
366905.3,50.5233,-362.178,0,0
367165.625,50.4936,-361.707,0,0
367425.95,50.4533,-361.243,0,0
367686.275,50.4187,-360.768,0,0
367946.6,50.412,-360.261,0,0
368206.925,50.4047,-359.804,0,0
368467.25,50.3292,-359.296,0,0
368727.575,50.3198,-358.841,0,0
368987.9,50.3004,-358.328,0,0
369248.225,50.2608,-357.869,0,0
369508.55,50.2592,-357.372,0,0
369768.875,50.2451,-356.906,0,0
370029.2,50.2409,-356.413,0,0
370289.525,50.2553,-355.891,0,0
370549.85,50.2674,-355.465,0,0
370810.175,50.2736,-354.952,0,0
371070.5,50.2716,-354.485,0,0
371330.825,50.3162,-354,0,0
371591.15,50.3607,-353.527,0,0
371851.475,50.3791,-353.034,0,0
372111.8,50.4398,-352.592,0,0
372372.125,50.4881,-352.132,0,0
372632.45,50.5705,-351.709,0,0
372892.775,50.615,-351.334,0,0
373153.1,50.6857,-350.919,0,0
373413.425,50.768,-350.571,0,0
373673.75,50.8196,-350.228,0,0
373934.075,50.8746,-349.888,0,0
374194.4,50.8925,-349.61,0,0
374454.725,50.9026,-349.296,0,0
374715.05,50.8464,-348.98,0,0
374975.375,50.7738,-348.71,0,0
375235.7,50.7027,-348.365,0,0
375496.025,50.5734,-348.045,0,0
375756.35,50.428,-347.687,0,0
376016.675,50.3407,-347.335,0,0
376277.0,50.2037,-346.938,0,0
376537.325,50.0744,-346.541,0,0
376797.65,49.9595,-346.145,0,0
377057.975,49.824,-345.715,0,0
377318.3,49.7365,-345.3,0,0
377578.625,49.598,-344.875,0,0
377838.95,49.5035,-344.443,0,0
378099.275,49.3744,-344.017,0,0
378359.6,49.2728,-343.554,0,0
378619.925,49.1296,-343.101,0,0
378880,49.0007,-342.681,0,0
379141,48.8907,-342.224,0,0
379401,48.7958,-341.757,0,0
379661,48.6152,-341.273,0,0
379922,48.4996,-340.78,0,0
380182,48.3591,-340.356,0,0
380442,48.2519,-339.812,0,0
380703,48.1291,-339.275,0,0
380963,48.0391,-338.744,0,0
381223,47.9357,-338.19,0,0
381483,47.8285,-337.611,0,0
381744,47.7329,-337.061,0,0
382004,47.7022,-336.463,0,0
382264,47.6826,-335.874,0,0
382525,47.7076,-335.293,0,0
382785,47.7407,-334.754,0,0
383045,47.8083,-334.2,0,0
383306,47.9151,-333.757,0,0
383566,47.962,-333.271,0,0
383826,48.0549,-332.84,0,0
384087,48.1004,-332.466,0,0
384347,48.0728,-332.074,0,0
384607,48.0396,-331.709,0,0
384868,47.9693,-331.285,0,0
385128,47.8885,-330.886,0,0
385388,47.8618,-330.428,0,0
385649,47.7806,-329.962,0,0
385909,47.6837,-329.501,0,0
386169,47.6713,-329.061,0,0
386430,47.5608,-328.612,0,0
386690,47.5054,-328.111,0,0
386950,47.3917,-327.611,0,0
387211,47.3162,-327.144,0,0
387471,47.2884,-326.588,0,0
387731,47.2012,-326.127,0,0
387992,47.1886,-325.592,0,0
388252,47.072,-325.101,0,0
388512,47.0101,-324.603,0,0
388773,46.9706,-324.021,0,0
389033,46.9329,-323.528,0,0
389293,46.8898,-323,0,0
389554,46.879,-322.493,0,0
389814,46.8416,-321.926,0,0
390074,46.819,-321.426,0,0
390335,46.7623,-320.914,0,0
390595,46.7558,-320.359,0,0
390855,46.7438,-319.835,0,0
391116,46.7331,-319.321,0,0
391376,46.7517,-318.792,0,0
391636,46.6968,-318.26,0,0
391896,46.6999,-317.731,0,0
392157,46.6831,-317.21,0,0
392417,46.6834,-316.662,0,0
392677,46.712,-316.166,0,0
392938,46.696,-315.634,0,0
393198,46.7031,-315.1,0,0
393458,46.6935,-314.555,0,0
393719,46.7027,-314.029,0,0
393979,46.7048,-313.514,0,0
394239,46.7242,-312.95,0,0
394500,46.7341,-312.426,0,0
394760.05,46.7429,-311.908,0,0
395020.375,46.7495,-311.37,0,0
395280.7,46.777,-310.856,0,0
395541.025,46.8305,-310.303,0,0
395801.35,46.8205,-309.775,0,0
396061.675,46.8296,-309.244,0,0
396322.0,46.8854,-308.671,0,0
396582.325,46.8993,-308.172,0,0
396842.65,46.9148,-307.641,0,0
397102.975,46.9573,-307.083,0,0
397363.3,46.9854,-306.542,0,0
397623.625,47.01,-305.985,0,0
397883.95,47.0643,-305.462,0,0
398144.275,47.0961,-304.916,0,0
398404.6,47.1661,-304.368,0,0
398664.925,47.1982,-303.834,0,0
398925.25,47.2484,-303.311,0,0
399185.575,47.304,-302.77,0,0
399445.9,47.3615,-302.236,0,0
399706.225,47.3917,-301.694,0,0
399966.55,47.4546,-301.141,0,0
400006.6,47.446,-301.099,0,0