File: Accelerated corrosion test data/2025-10-14_18-00-03/sample_8.csv
Frequency (Hz),Impedance (ohms),Phase (Radians),Temperature (C),Humidity (%)
10000.0,315.793,-10921.1,0,0
10260.325,307.544,-10647.3,0,0
10520.65,300.925,-10387.3,0,0
10780.975,292.834,-10139.9,0,0
11041.3,286.469,-9902.75,0,0
11301.625,279.594,-9678.83,0,0
11561.95,273.836,-9462.27,0,0
11822.275,267.919,-9256.81,0,0
12082.6,266.449,-9058.5,0,0
12342.925,261.883,-8873.09,0,0
12603.25,257.07,-8692.79,0,0
12863.575,253.022,-8523.22,0,0
13123.9,244.134,-8357.82,0,0
13384.225,238.554,-8196.51,0,0
13644.55,234.799,-8042.7,0,0
13904.875,228.246,-7894.59,0,0
14165.2,223.746,-7750.38,0,0
14425.525,219.005,-7612.69,0,0
14685.8,215.494,-7477.64,0,0
14946.175,210.83,-7348.55,0,0
15206.5,207.807,-7224.24,0,0
15466.825,204.366,-7104.26,0,0
15727.15,201.071,-6988.05,0,0
15987.5,197.834,-6875.5,0,0
16247.8,194.208,-6766.5,0,0
16508.125,191.47,-6660.64,0,0
16768.45,188.05,-6558.03,0,0
17028.775,185.384,-6458.61,0,0
17289.1,182.566,-6361.9,0,0
17549.425,179.907,-6267.89,0,0
17809.75,177.727,-6176.49,0,0
18070.075,175.255,-6088.47,0,0
18330.4,172.293,-6001.98,0,0
18590.725,170.978,-5917.26,0,0
18851.05,171.609,-5835.07,0,0
19111.375,169.738,-5755.96,0,0
19371.7,170.995,-5679.8,0,0
19632.025,168.725,-5607.96,0,0
19892.35,164.919,-5537.1,0,0
20152.675,162.605,-5464.83,0,0
20413.0,162.622,-5395.53,0,0
20673.3,163.15,-5329.49,0,0
20933.65,158.923,-5266.44,0,0
21193.975,155.249,-5202.49,0,0
21454.3,153.581,-5139.05,0,0
21714.625,151.769,-5077.2,0,0
21974.9,150.871,-5017.28,0,0
22235.275,150.838,-4960.11,0,0
22495.6,149.175,-4903.58,0,0
22755.925,148.044,-4850.21,0,0
23016.25,145.565,-4795.46,0,0
23276.6,141.175,-4742.97,0,0
23536.9,139.853,-4690.75,0,0
23797.225,137.76,-4639.41,0,0
24057.55,135.652,-4589.06,0,0
24317.875,134.129,-4540.06,0,0
24578.2,132.162,-4492.09,0,0
24838.525,130.354,-4444.13,0,0
25098.85,129.302,-4397.94,0,0
25359.175,127.817,-4353.29,0,0
25619.5,126.818,-4308.14,0,0
25879.8,126.158,-4263.99,0,0
26140.1,124.928,-4222.37,0,0
26400.5,123.389,-4181.04,0,0
26660.8,122.13,-4139.06,0,0
26921.1,121.858,-4098.28,0,0
27181.4,121.389,-4059.45,0,0
27441.8,120.976,-4021.06,0,0
27702.1,119.852,-3983.89,0,0
27962.4,117.771,-3945.83,0,0
28222.7,118.55,-3909.68,0,0
28483.1,117.336,-3873.86,0,0
28743.4,117.096,-3838.66,0,0
29003.7,116.42,-3804.52,0,0
29264,116.236,-3770.7,0,0
29524.4,114.959,-3737.64,0,0
29784.7,114.618,-3704.51,0,0
30045,114.313,-3672.71,0,0
30305.3,113.119,-3642.08,0,0
30565.7,111.853,-3611.21,0,0
30826,110.691,-3580.67,0,0
31086.3,109.521,-3550.08,0,0
31346.6,108.492,-3520.23,0,0
31607,108.155,-3490.8,0,0
31867.3,107.528,-3461.73,0,0
32127.6,106.663,-3433.18,0,0
32387.9,106.129,-3405.15,0,0
32648.3,106.041,-3377.32,0,0
32908.6,106.466,-3350.33,0,0
33168.9,105.98,-3323.4,0,0
33429.2,106.305,-3297.3,0,0
33689.6,106.227,-3271.66,0,0
33949.9,106.166,-3246.68,0,0
34210.2,106.354,-3221.61,0,0
34470.5,106.355,-3197.16,0,0
34730.9,106.791,-3172.89,0,0
34991.2,107.361,-3149.44,0,0
35251.5,108.198,-3126.56,0,0
35511.8,108.745,-3104.34,0,0
35772.2,109.096,-3082.65,0,0
36032.5,109.226,-3061.75,0,0
36292.8,109.447,-3041.03,0,0
36553.1,108.996,-3021.13,0,0
36813.5,108.247,-3001,0,0
37073.8,107.692,-2981.27,0,0
37334.1,106.765,-2962.36,0,0
37594.4,105.025,-2943.31,0,0
37854.8,103.46,-2923.96,0,0
38115.1,101.434,-2905.09,0,0
38375.4,99.3444,-2885.89,0,0
38635.7,97.4911,-2866.32,0,0
38896.1,95.455,-2847.11,0,0
39156.4,93.5395,-2827.86,0,0
39416.7,92.2496,-2808.72,0,0
39677,90.9165,-2789.64,0,0
39937.4,89.2037,-2770.56,0,0
40197.7,88.6505,-2751.17,0,0
40458,88.6055,-2732.77,0,0
40718.3,87.9263,-2715.43,0,0
40978.7,87.1591,-2697.76,0,0
41239,86.4118,-2680.26,0,0
41499.3,85.7405,-2662.99,0,0
41759.6,85.2557,-2646.29,0,0
42020,84.3497,-2629.37,0,0
42280.275,83.7365,-2612.5,0,0
42540.6,83.4397,-2595.82,0,0
42800.925,82.9867,-2579.19,0,0
43061.25,83.416,-2563.31,0,0
43321.575,83.3426,-2547.97,0,0
43581.9,82.8858,-2533.05,0,0
43842.225,82.334,-2518.41,0,0
44102.55,81.3145,-2503.4,0,0
44362.875,80.6303,-2488.42,0,0
44623.2,79.8786,-2473.47,0,0
44883.525,79.2885,-2458.45,0,0
45143.85,78.6218,-2444.16,0,0
45404.175,78.0998,-2429.79,0,0
45664.5,77.5995,-2415.54,0,0
45924.825,76.7954,-2401.57,0,0
46185.15,76.2597,-2387.38,0,0
46445.475,75.6964,-2373.26,0,0
46705.8,75.2911,-2359.75,0,0
46966.125,74.9665,-2346.09,0,0
47226.45,74.4872,-2332.83,0,0
47486.775,74.2538,-2319.47,0,0
47747.1,73.9179,-2306.51,0,0
48007.425,73.4957,-2293.67,0,0
48267.75,73.1708,-2280.72,0,0
48528.075,72.7957,-2268.35,0,0
48788.4,72.1448,-2255.73,0,0
49048.725,71.8214,-2243.32,0,0
49309.05,71.4526,-2230.93,0,0
49569.375,70.9418,-2218.82,0,0
49829.7,70.5798,-2206.53,0,0
50090.025,70.1167,-2194.69,0,0
50350.35,69.8908,-2182.7,0,0
50610.675,69.6406,-2170.91,0,0
50871.0,69.3226,-2159.09,0,0
51131.325,69.1265,-2147.65,0,0
51391.65,68.9568,-2136.12,0,0
51651.975,68.9701,-2124.85,0,0
51912.3,68.8662,-2113.91,0,0
52172.625,68.6433,-2102.83,0,0
52432.95,68.3175,-2092,0,0
52693.275,68.3572,-2081.02,0,0
52953.6,68.4096,-2070.52,0,0
53213.925,68.4341,-2059.98,0,0
53474.25,68.5054,-2049.79,0,0
53734.575,68.6357,-2040.07,0,0
53994.9,68.0919,-2030.53,0,0
54255.225,67.3574,-2020.74,0,0
54515.55,66.6528,-2010.92,0,0
54775.875,66.2901,-2000.7,0,0
55036.2,65.6262,-1991.12,0,0
55296.525,64.7231,-1981.33,0,0
55556.85,64.1841,-1971.37,0,0
55817.175,63.7409,-1961.54,0,0
56077.5,63.0493,-1951.71,0,0
56337.825,62.6923,-1942.06,0,0
56598.15,62.3701,-1932.21,0,0
56858.475,62.0597,-1922.66,0,0
57118.8,61.9218,-1913.26,0,0
57379.125,61.691,-1903.84,0,0
57639.45,61.5333,-1894.59,0,0
57899.775,61.2882,-1885.39,0,0
58160.1,61.1941,-1876.38,0,0
58420.4,60.9858,-1867.29,0,0
58680.7,60.9409,-1858.38,0,0
58941.1,60.9503,-1849.63,0,0
59201.4,60.8366,-1841.17,0,0
59461.7,60.5222,-1832.67,0,0
59722,60.2184,-1824.22,0,0
59982.4,59.8624,-1815.72,0,0
60242.7,59.4452,-1807.13,0,0
60503,59.3645,-1798.54,0,0
60763.3,59.0276,-1790.1,0,0
61023.7,58.9822,-1781.76,0,0
61284,59.0216,-1773.42,0,0
61544.3,59.0831,-1765.24,0,0
61804.6,59.0162,-1757.34,0,0
62065,58.7097,-1749.36,0,0
62325.3,58.6146,-1741.36,0,0
62585.6,58.5255,-1733.34,0,0
62845.9,58.5559,-1725.26,0,0
63106.3,58.7756,-1717.56,0,0
63366.6,58.9505,-1709.9,0,0
63626.9,58.9747,-1702.39,0,0
63887.2,59.1312,-1694.85,0,0
64147.6,59.4027,-1687.59,0,0
64407.9,59.6125,-1680.45,0,0
64668.2,59.7887,-1673.5,0,0
64928.5,59.6831,-1666.65,0,0
65188.9,59.5279,-1659.74,0,0
65449.2,59.1195,-1652.87,0,0
65709.5,58.936,-1645.84,0,0
65969.8,58.8397,-1639.04,0,0
66230.2,58.4104,-1632.31,0,0
66490.5,57.8988,-1625.65,0,0
66750.8,57.2366,-1618.64,0,0
67011.1,56.9151,-1611.37,0,0
67271.5,56.6774,-1604.44,0,0
67531.8,56.5315,-1597.54,0,0
67792.1,56.3365,-1590.77,0,0
68052.4,56.1247,-1583.96,0,0
68312.8,56.011,-1577.27,0,0
68573.1,55.8531,-1570.54,0,0
68833.4,55.6512,-1563.9,0,0
69093.7,55.6416,-1557.21,0,0
69354.1,55.5432,-1550.48,0,0
69614.4,55.6506,-1544.03,0,0
69874.7,55.7139,-1537.53,0,0
70135,55.6397,-1531.35,0,0
70395.4,55.6207,-1525.01,0,0
70655.7,55.4296,-1518.61,0,0
70916,55.5139,-1512.4,0,0
71176.3,55.5967,-1506.2,0,0
71436.7,55.5664,-1500.02,0,0
71697,55.857,-1493.93,0,0
71957.3,55.8872,-1488.13,0,0
72217.6,55.7993,-1482.33,0,0
72478,55.7651,-1476.51,0,0
72738.3,55.7002,-1470.86,0,0
72998.6,55.3982,-1465.11,0,0
73258.9,55.1902,-1459.17,0,0
73519.3,55.1729,-1453.3,0,0
73779.6,55.0779,-1447.57,0,0
74039.9,54.9831,-1441.93,0,0
74300.225,54.7806,-1436.3,0,0
74560.55,54.5218,-1430.62,0,0
74820.875,54.3419,-1424.9,0,0
75081.2,54.257,-1419.17,0,0
75341.525,54.1668,-1413.53,0,0
75601.85,54.1588,-1407.97,0,0
75862.175,54.0538,-1402.38,0,0
76122.5,54.0305,-1396.85,0,0
76382.825,54.0363,-1391.34,0,0
76643.15,54.0386,-1385.97,0,0
76903.475,53.9732,-1380.68,0,0
77163.8,53.8639,-1375.36,0,0
77424.125,53.771,-1369.98,0,0
77684.45,53.692,-1364.75,0,0
77944.775,53.5606,-1359.45,0,0
78205.1,53.4496,-1354.21,0,0
78465.425,53.322,-1349.04,0,0
78725.75,53.134,-1343.7,0,0
78986.075,53.09,-1338.48,0,0
79246.4,52.8938,-1333.31,0,0
79506.725,52.7763,-1328.02,0,0
79767.05,52.7185,-1322.76,0,0
80027.375,52.6682,-1317.56,0,0
80287.7,52.6689,-1312.46,0,0
80548.025,52.6081,-1307.29,0,0
80808.35,52.5883,-1302.13,0,0
81068.675,52.6052,-1296.95,0,0
81329.0,52.6664,-1291.87,0,0
81589.325,52.7376,-1286.78,0,0
81849.65,52.813,-1281.69,0,0
82109.975,53.1494,-1276.61,0,0
82370.3,53.312,-1271.71,0,0
82630.625,53.4855,-1266.8,0,0
82890.95,53.6973,-1261.9,0,0
83151.275,53.8954,-1257.15,0,0
83411.6,53.9984,-1252.32,0,0
83671.925,54.3168,-1247.51,0,0
83932.25,54.6908,-1242.74,0,0
84192.575,54.9277,-1238.17,0,0
84452.9,55.325,-1233.52,0,0
84713.225,55.7691,-1229.02,0,0
84973.55,56.2662,-1224.87,0,0
85233.875,56.1563,-1220.94,0,0
85494.2,55.9232,-1216.61,0,0
85754.525,55.7007,-1212.21,0,0
86014.85,55.4705,-1207.6,0,0
86275.175,55.3448,-1202.93,0,0
86535.5,55.2991,-1198.27,0,0
86795.825,55.4693,-1193.6,0,0
87056.15,55.7514,-1189.03,0,0
87316.475,55.8936,-1184.64,0,0
87576.8,55.9455,-1180.16,0,0
87837.125,56.08,-1175.67,0,0
88097.45,56.1893,-1171.17,0,0
88357.775,56.4868,-1166.66,0,0
88618.1,56.6148,-1162.26,0,0
88878.425,56.7743,-1157.85,0,0
89138.75,56.9964,-1153.38,0,0
89399.075,57.166,-1148.9,0,0
89659.4,57.461,-1144.45,0,0
89919.725,57.8113,-1139.81,0,0
90180,58.347,-1135.35,0,0
90440.4,58.634,-1131.06,0,0
90700.7,59.1027,-1126.52,0,0
90961,59.7514,-1122,0,0
91221.3,60.6572,-1117.55,0,0
91481.7,61.7244,-1113.4,0,0
91742,62.6523,-1109.5,0,0
92002.3,63.4657,-1105.84,0,0
92262.6,64.1544,-1101.94,0,0
92523,64.9561,-1098.25,0,0
92783.3,65.7462,-1094.58,0,0
93043.6,66.6661,-1091.06,0,0
93303.9,67.3813,-1087.92,0,0
93564.3,67.8843,-1084.99,0,0
93824.6,67.6977,-1082,0,0
94084.9,67.3474,-1078.4,0,0
94345.2,67.3005,-1074.71,0,0
94605.6,67.2596,-1070.58,0,0
94865.9,67.6556,-1066.73,0,0
95126.2,67.7619,-1062.9,0,0
95386.5,68.1136,-1058.89,0,0
95646.9,68.5242,-1055,0,0
95907.2,69.0057,-1051,0,0
96167.5,69.6331,-1047.19,0,0
96427.8,70.2421,-1043.24,0,0
96688.2,71.1238,-1039.41,0,0
96948.5,71.9224,-1035.76,0,0
97208.8,72.8004,-1032.14,0,0
97469.1,73.6546,-1028.63,0,0
97729.5,74.5914,-1025.16,0,0
97989.8,75.5461,-1021.8,0,0
98250.1,76.4543,-1018.47,0,0
98510.4,77.5427,-1015.16,0,0
98770.8,78.761,-1012.05,0,0
99031.1,79.904,-1009.28,0,0
99291.4,80.813,-1006.81,0,0
99551.7,81.386,-1004.2,0,0
99812.1,81.9325,-1001.36,0,0
100072,82.6676,-998.583,0,0
100333,83.376,-995.952,0,0
100593,84.0564,-993.382,0,0
100853,84.669,-990.866,0,0
101114,85.2022,-988.492,0,0
101374,85.5742,-986.117,0,0
101634,85.9536,-983.74,0,0
101895,86.2372,-981.44,0,0
102155,86.3711,-979.065,0,0
102415,86.5359,-976.698,0,0
102676,86.5811,-974.438,0,0
102936,86.5177,-972.166,0,0
103196,86.2296,-969.833,0,0
103457,85.8253,-967.29,0,0
103717,85.4518,-964.513,0,0
103977,85.2591,-961.643,0,0
104238,85.322,-958.767,0,0
104498,85.3092,-956.106,0,0
104758,85.2058,-953.514,0,0
105019,84.9592,-950.888,0,0
105279,84.6849,-947.964,0,0
105539,84.6176,-945.133,0,0
105800,84.5496,-942.251,0,0
106060,84.531,-939.409,0,0
106320.175,84.5158,-936.589,0,0
106580.5,84.5663,-933.778,0,0
106840.825,84.5435,-930.998,0,0
107101.15,84.6232,-928.251,0,0
107361.475,84.6797,-925.6,0,0
107621.8,84.5982,-922.987,0,0
107882.125,84.4326,-920.332,0,0
108142.45,84.2616,-917.512,0,0
108402.775,84.0927,-914.67,0,0
108663.1,84.0292,-911.817,0,0
108923.425,83.9532,-908.884,0,0
109183.75,84.0433,-905.862,0,0
109444.075,84.1518,-902.945,0,0
109704.4,84.4607,-900.081,0,0
109964.725,84.7588,-897.333,0,0
110225.05,85.0479,-894.75,0,0
110485.375,85.2564,-892.228,0,0
110745.7,85.3362,-889.641,0,0
111006.025,85.3999,-887.27,0,0
111266.35,85.4448,-884.57,0,0
111526.675,85.5616,-881.959,0,0
111787.0,85.7563,-879.35,0,0
112047.325,85.8846,-876.949,0,0
112307.65,85.9742,-874.452,0,0
112567.975,85.9467,-871.997,0,0
112828.3,86.0584,-869.542,0,0
113088.625,85.9878,-867.188,0,0
113348.95,86.0802,-864.729,0,0
113609.275,86.0562,-862.364,0,0
113869.6,85.9828,-860.038,0,0
114129.925,85.8103,-857.661,0,0
114390.25,85.6705,-855.188,0,0
114650.575,85.5302,-852.8,0,0
114910.9,85.4121,-850.308,0,0
115171.225,85.3379,-847.943,0,0
115431.55,85.1558,-845.656,0,0
115691.875,84.7732,-843.307,0,0
115952.2,84.4116,-840.863,0,0
116212.525,84.051,-838.318,0,0
116472.85,83.6396,-835.725,0,0
116733.175,83.2419,-833.004,0,0
116993.5,82.9324,-830.234,0,0
117253.825,82.8263,-827.387,0,0
117514.15,82.7945,-824.653,0,0
117774.475,82.7706,-822.084,0,0
118034.8,82.7198,-819.485,0,0
118295.125,82.5491,-816.982,0,0
118555.45,82.3627,-814.405,0,0
118815.775,82.2509,-811.737,0,0
119076.1,82.2163,-809.175,0,0
119336.425,82.0604,-806.737,0,0
119596.75,81.7654,-804.228,0,0
119857.075,81.4749,-801.608,0,0
120117.4,81.1751,-798.995,0,0
120377.725,80.922,-796.226,0,0
120638.05,80.715,-793.467,0,0
120898.375,80.5721,-790.694,0,0
121158.7,80.4874,-787.983,0,0
121419.025,80.3444,-785.312,0,0
121679.35,80.1754,-782.577,0,0
121939.675,80.0097,-779.857,0,0
122200.0,79.9274,-776.994,0,0
122460,79.9196,-774.273,0,0
122721,79.8209,-771.589,0,0
122981,79.7244,-768.852,0,0
123241,79.6262,-766.107,0,0
123502,79.5201,-763.303,0,0
123762,79.4155,-760.528,0,0
124022,79.3404,-757.646,0,0
124283,79.3673,-754.753,0,0
124543,79.4371,-751.862,0,0
124803,79.5762,-749.036,0,0
125064,79.6828,-746.241,0,0
125324,79.8061,-743.469,0,0
125584,79.8987,-740.687,0,0
125845,80.0136,-737.893,0,0
126105,80.1657,-735.033,0,0
126365,80.3933,-732.16,0,0
126626,80.6438,-729.388,0,0
126886,80.9773,-726.7,0,0
127146,81.248,-724.001,0,0
127406,81.4048,-721.422,0,0
127667,81.6739,-718.749,0,0
127927,81.9403,-716.078,0,0
128187,82.2286,-713.521,0,0
128448,82.4169,-710.949,0,0
128708,82.5476,-708.361,0,0
128968,82.6595,-705.59,0,0
129229,82.9647,-702.916,0,0
129489,83.2332,-700.341,0,0
129749,83.375,-697.789,0,0
130010,83.4374,-695.168,0,0
130270,83.5422,-692.409,0,0
130530,83.7471,-689.604,0,0
130791,84.0926,-686.837,0,0
131051,84.4378,-684.136,0,0
131311,84.8336,-681.516,0,0
131572,85.1314,-678.984,0,0
131832,85.3637,-676.362,0,0
132092,85.6344,-673.74,0,0
132353,85.9112,-671.121,0,0
132613,86.186,-668.547,0,0
132873,86.4442,-666.027,0,0
133134,86.6102,-663.428,0,0
133394,86.7244,-660.778,0,0
133654,86.8822,-657.998,0,0
133915,87.1298,-655.236,0,0
134175,87.4538,-652.436,0,0
134435,87.7561,-649.72,0,0
134696,88.0152,-646.913,0,0
134956,88.4295,-644.055,0,0
135216,88.9479,-641.221,0,0
135477,89.4814,-638.499,0,0
135737,90.0895,-635.841,0,0
135997,90.811,-633.308,0,0
136258,91.3707,-631.008,0,0
136518,91.8572,-628.723,0,0
136778,92.1338,-626.609,0,0
137039,92.0904,-624.413,0,0
137299,91.9791,-621.978,0,0
137559,91.8185,-619.462,0,0
137819,91.5421,-616.796,0,0
138080,91.2332,-613.93,0,0
138340.125,91.018,-610.729,0,0
138600.45,91.0628,-607.466,0,0
138860.775,91.2326,-604.178,0,0
139121.1,91.584,-600.899,0,0
139381.425,91.9524,-597.784,0,0
139641.75,92.2209,-594.602,0,0
139902.075,92.6157,-591.292,0,0
140162.4,93.1486,-588.023,0,0
140422.725,93.6842,-584.852,0,0
140683.05,94.152,-581.601,0,0
140943.375,94.7581,-578.311,0,0
141203.7,95.448,-575.095,0,0
141464.025,96.0426,-571.943,0,0
141724.35,96.5847,-568.679,0,0
141984.675,97.1794,-565.348,0,0
142245.0,97.8258,-561.957,0,0
142505.325,98.5602,-558.54,0,0
142765.65,99.2963,-555.119,0,0
143025.975,100.045,-551.601,0,0
143286.3,100.927,-547.89,0,0
143546.625,102.082,-544.326,0,0
143806.95,103.105,-540.81,0,0
144067.275,104.197,-537.19,0,0
144327.6,105.348,-533.536,0,0
144587.925,106.608,-529.774,0,0
144848.25,108.091,-525.95,0,0
145108.575,109.766,-522.236,0,0
145368.9,111.518,-518.539,0,0
145629.225,113.501,-514.973,0,0
145889.55,115.447,-511.599,0,0
146149.875,117.366,-508.226,0,0
146410.2,119.342,-504.826,0,0
146670.525,121.468,-501.471,0,0
146930.85,123.626,-498.257,0,0
147191.175,125.862,-495.093,0,0
147451.5,128.106,-492.173,0,0
147711.825,129.977,-489.346,0,0
147972.15,131.713,-486.183,0,0
148232.475,133.578,-482.677,0,0
148492.8,135.747,-478.942,0,0
148753.125,138.218,-475.265,0,0
149013.45,140.987,-471.53,0,0
149273.775,144.045,-467.978,0,0
149534.1,147.277,-464.441,0,0
149794.425,150.824,-461.102,0,0
150054.75,154.553,-457.927,0,0
150315.075,158.42,-454.883,0,0
150575.4,162.686,-451.993,0,0
150835.725,167.183,-449.311,0,0
151096.05,172.282,-447.082,0,0
151356.375,177.738,-445.819,0,0
151616.7,182.736,-445.645,0,0
151877.025,187.116,-445.795,0,0
152137.35,191.15,-446.382,0,0
152397.675,194.404,-447.453,0,0
152658.0,196.79,-448.207,0,0
152918.325,198.982,-448.493,0,0
153178.65,201.056,-448.821,0,0
153438.975,203.462,-449.122,0,0
153699.3,204.909,-449.351,0,0
153959.625,206.415,-449.305,0,0
154219.95,207.665,-449.478,0,0
154480,208.093,-449.065,0,0
154741,208.811,-447.418,0,0
155001,210.586,-445.346,0,0
155261,213.188,-443.694,0,0
155522,216.206,-442.547,0,0
155782,219.689,-442.192,0,0
156042,223.136,-443.166,0,0
156303,225.359,-445.278,0,0
156563,226.098,-447.558,0,0
156823,225.472,-449.167,0,0
157084,224.058,-449.551,0,0
157344,222.622,-448.706,0,0
157604,221.715,-446.817,0,0
157864,221.35,-444.477,0,0
158125,221.699,-441.734,0,0
158385,222.732,-438.793,0,0
158645,224.536,-436.041,0,0
158906,227.116,-433.669,0,0
159166,230.101,-432.097,0,0
159426,233.277,-431.659,0,0
159687,235.883,-432.174,0,0
159947,237.115,-433.273,0,0
160207,237.278,-433.881,0,0
160468,236.66,-433.873,0,0
160728,235.692,-432.742,0,0
160988,235.063,-430.522,0,0
161249,235.102,-427.561,0,0
161509,236.127,-424.354,0,0
161769,237.962,-421.381,0,0
162030,240.433,-418.786,0,0
162290,243.223,-416.789,0,0
162550,246.138,-415.232,0,0
162811,249.117,-414.261,0,0
163071,251.774,-413.892,0,0
163331,254.192,-413.743,0,0
163592,256.194,-413.781,0,0
163852,258.064,-413.783,0,0
164112,259.565,-413.909,0,0
164373,261.084,-413.888,0,0
164633,262.691,-414.104,0,0
164893,264,-414.601,0,0
165154,265.307,-415.199,0,0
165414,266.399,-416.373,0,0
165674,266.528,-418.17,0,0
165935,265.499,-419.553,0,0
166195,263.875,-420.115,0,0
166455,261.989,-420.326,0,0
166716,259.587,-419.749,0,0
166976,256.901,-418.17,0,0
167236,254.702,-415.569,0,0
167497,253.408,-412.581,0,0
167757,252.453,-409.718,0,0
168017,251.741,-406.79,0,0
168277,251.241,-404.02,0,0
168538,250.365,-401.17,0,0
168798,249.515,-397.804,0,0
169058,249.081,-393.893,0,0
169319,249.212,-389.857,0,0
169579,249.838,-385.882,0,0
169839,250.641,-382.314,0,0
170100,251.286,-378.791,0,0
170360.075,252.069,-375.337,0,0
170620.4,252.857,-371.717,0,0
170880.725,253.513,-368.405,0,0
171141.05,253.696,-364.754,0,0
171401.375,253.863,-360.178,0,0
171661.7,254.741,-354.821,0,0
171922.025,256.768,-349.35,0,0
172182.35,259.548,-344.455,0,0
172442.675,262.618,-340.214,0,0
172703.0,265.523,-336.322,0,0
172963.325,268.577,-332.372,0,0
173223.65,271.999,-328.716,0,0
173483.975,275.445,-325.764,0,0
173744.3,278.654,-323.037,0,0
174004.625,281.691,-320.933,0,0
174264.95,284.03,-319.083,0,0
174525.275,285.411,-317.124,0,0
174785.6,286.116,-314.168,0,0
175045.925,286.996,-310.319,0,0
175306.25,288.118,-306.054,0,0
175566.575,289.402,-301.005,0,0
175826.9,291.35,-295.36,0,0
176087.225,294.106,-289.461,0,0
176347.55,297.631,-283.484,0,0
176607.875,301.654,-277.883,0,0
176868.2,306.296,-272.699,0,0
177128.525,310.953,-268.102,0,0
177388.85,315.249,-263.462,0,0
177649.175,319.492,-258.39,0,0
177909.5,324.433,-252.858,0,0
178169.825,330.019,-247.453,0,0
178430.15,335.932,-242.276,0,0
178690.475,342.141,-237.111,0,0
178950.8,348.876,-232.043,0,0
179211.125,356.191,-227.101,0,0
179471.45,363.981,-222.589,0,0
179731.775,372.213,-218.2,0,0
179992.1,381.745,-214.496,0,0
180252.425,391.243,-212.06,0,0
180512.75,400.308,-210.185,0,0
180773.075,409.549,-208.623,0,0
181033.4,418.723,-207.789,0,0
181293.725,427.397,-207.345,0,0
181554.05,436.159,-206.873,0,0
181814.375,445.236,-206.806,0,0
182074.7,454.564,-207.612,0,0
182335.025,463.284,-209.198,0,0
182595.35,471.512,-211.091,0,0
182855.675,479.441,-213.312,0,0
183116.0,486.892,-216.033,0,0
183376.325,493.381,-219.049,0,0
183636.65,499.17,-221.8,0,0
183896.975,504.403,-224.226,0,0
184157.3,509.269,-225.784,0,0
184417.625,514.359,-227.047,0,0
184677.95,519.248,-228.074,0,0
184938.275,524.462,-228.581,0,0
185198.6,530.23,-228.682,0,0
185458.925,536.379,-228.977,0,0
185719.25,542.416,-229.319,0,0
185979.575,548.932,-229.11,0,0
186239.9,556.641,-229.297,0,0
186500,564.364,-230.572,0,0
186761,571.545,-232.126,0,0
187021,578.803,-233.623,0,0
187281,586.068,-235.401,0,0
187542,593.126,-237.247,0,0
187802,600.295,-238.718,0,0
188062,608.161,-240.343,0,0
188322,616.432,-242.673,0,0
188583,624.716,-245.783,0,0
188843,632.627,-249.785,0,0
189103,639.321,-254.443,0,0
189364,644.786,-258.241,0,0
189624,650.363,-261.077,0,0
189884,656.215,-263.444,0,0
190145,662.224,-265.41,0,0
190405,668.844,-266.938,0,0
190665,676.277,-267.701,0,0
190926,685.479,-268.777,0,0
191186,695.612,-271.418,0,0
191446,705.356,-275.279,0,0
191707,714.673,-279.787,0,0
191967,723.651,-284.607,0,0
192227,732.275,-289.583,0,0
192488,740.307,-294.566,0,0
192748,747.853,-298.384,0,0
193008,756.793,-300.667,0,0
193269,768.219,-303.318,0,0
193529,781.143,-307.29,0,0
193789,795.191,-312.802,0,0
194050,809.897,-320.601,0,0
194310,824.238,-330.491,0,0
194570,838.083,-342.402,0,0
194831,850.309,-355.901,0,0
195091,861.254,-369.553,0,0
195351,871.721,-383.248,0,0
195612,882.709,-397.532,0,0
195872,893.839,-413.536,0,0
196132,904.09,-431.92,0,0
196393,912.373,-451.867,0,0
196653,918.514,-472.659,0,0
196913,922.315,-493.662,0,0
197174,924.223,-514.759,0,0
197434,924.711,-535.4,0,0
197694,923.487,-555.896,0,0
197955,920.737,-575.415,0,0
198215,916.928,-593.795,0,0
198475,912.544,-611.127,0,0
198735,908.509,-627.596,0,0
198996,904.231,-644.391,0,0
199256,900.012,-661.566,0,0
199516,894.754,-680.073,0,0
199777,886.882,-698.647,0,0
200037,876.889,-716.002,0,0
200297,865.518,-731.665,0,0
200558,853.75,-745.573,0,0
200818,841.627,-758.041,0,0
201078,830.294,-769.449,0,0
201339,819.387,-781.012,0,0
201599,807.643,-792.9,0,0
201859,794.769,-804.845,0,0
202120,780.021,-816.225,0,0
202380.025,763.025,-825.379,0,0
202640.35,745.506,-831.624,0,0
202900.675,728.962,-834.808,0,0
203161.0,714.258,-836.451,0,0
203421.325,700.989,-837.373,0,0
203681.65,689.083,-838.081,0,0
203941.975,677.776,-838.951,0,0
204202.3,666.54,-839.768,0,0
204462.625,655.877,-840.484,0,0
204722.95,645.16,-841.038,0,0
204983.275,634.451,-841.118,0,0
205243.6,623.575,-840.948,0,0
205503.925,612.317,-839.915,0,0
205764.25,601.231,-837.794,0,0
206024.575,590.326,-834.23,0,0
206284.9,580.317,-829.228,0,0
206545.225,571.932,-823,0,0
206805.55,565.577,-816.157,0,0
207065.875,561.282,-809.784,0,0
207326.2,558.319,-804.397,0,0
207586.525,556.043,-799.883,0,0
207846.85,554.465,-796.104,0,0
208107.175,553.333,-793.407,0,0
208367.5,552.177,-791.802,0,0
208627.825,550.363,-790.716,0,0
208888.15,548.238,-789.651,0,0
209148.475,545.905,-788.529,0,0
209408.8,543.683,-787.156,0,0
209669.125,541.694,-785.516,0,0
209929.45,540.302,-784.015,0,0
210189.775,539.205,-782.858,0,0
210450.1,538.376,-781.95,0,0
210710.425,537.528,-781.414,0,0
210970.75,536.741,-781.015,0,0
211231.075,536.086,-780.7,0,0
211491.4,535.664,-780.46,0,0
211751.725,535.68,-780.694,0,0
212012.05,535.825,-781.233,0,0
212272.375,535.998,-782.238,0,0
212532.7,536.247,-783.768,0,0
212793.025,536.359,-785.86,0,0
213053.35,536.039,-788.358,0,0
213313.675,535.444,-790.974,0,0
213574.0,534.652,-793.832,0,0
213834.325,533.621,-796.926,0,0
214094.65,532.146,-800.268,0,0
214354.975,530.497,-803.706,0,0
214615.3,528.555,-807.302,0,0
214875.625,526.126,-810.887,0,0
215135.95,523.359,-814.467,0,0
215396.275,520.292,-818.067,0,0
215656.6,516.779,-821.637,0,0
215916.925,512.84,-824.944,0,0
216177.25,508.689,-827.974,0,0
216437.575,504.19,-830.599,0,0
216697.9,499.675,-832.85,0,0
216958.225,495.364,-834.885,0,0
217218.55,490.907,-836.805,0,0
217478.875,486.33,-838.543,0,0
217739.2,481.744,-840.164,0,0
217999.525,477.071,-841.489,0,0
218259.85,472.44,-842.565,0,0
218520,467.868,-843.486,0,0
218780,463.374,-844.197,0,0
219041,458.984,-844.751,0,0
219301,454.697,-845.22,0,0
219561,450.508,-845.768,0,0
219822,446.191,-846.183,0,0
220082,441.767,-846.422,0,0
220342,437.334,-846.525,0,0
220603,432.868,-846.253,0,0
220863,428.488,-845.782,0,0
221123,424.205,-844.864,0,0
221384,420.352,-843.671,0,0
221644,417.017,-842.32,0,0
221904,414.171,-841.066,0,0
222165,411.617,-840.051,0,0
222425,409.191,-839.367,0,0
222685,406.81,-838.816,0,0
222946,404.408,-838.37,0,0
223206,402.173,-837.819,0,0
223466,400.12,-837.462,0,0
223727,398.229,-837.382,0,0
223987,396.321,-837.417,0,0
224247,394.431,-837.661,0,0
224508,392.484,-837.971,0,0
224768,390.746,-838.395,0,0
225028,389.201,-839.154,0,0
225289,387.553,-840.409,0,0
225549,385.565,-842.237,0,0
225809,383.155,-844.203,0,0
226070,380.196,-846.255,0,0
226330,376.828,-848.207,0,0
226590,373.142,-849.954,0,0
226851,369.298,-851.526,0,0
227111,365.044,-853.046,0,0
227371,360.724,-854.359,0,0
227632,356.081,-855.345,0,0
227892,351.314,-855.928,0,0
228152,346.638,-856.143,0,0
228413,342.1,-856.127,0,0
228673,337.744,-856.079,0,0
228933,333.523,-855.853,0,0
229193,329.325,-855.724,0,0
229454,325.106,-855.592,0,0
229714,320.97,-855.345,0,0
229974,316.75,-855.333,0,0
230235,312.368,-855.268,0,0
230495,307.72,-855.196,0,0
230755,302.802,-854.813,0,0
231016,297.98,-854.15,0,0
231276,293.094,-853.289,0,0
231536,288.211,-852.296,0,0
231797,283.351,-851.146,0,0
232057,278.471,-849.74,0,0
232317,273.56,-848.173,0,0
232578,268.802,-846.387,0,0
232838,264.054,-844.452,0,0
233098,259.419,-842.369,0,0
233359,254.748,-840.176,0,0
233619,250.096,-837.697,0,0
233879,245.595,-834.957,0,0
234140,241.193,-832.166,0,0
234400,236.883,-829.109,0,0
234660.3,232.67,-825.792,0,0
234920.625,228.695,-822.303,0,0
235180.95,225.034,-818.543,0,0
235441.275,221.665,-814.705,0,0
235701.6,218.543,-810.889,0,0
235961.925,215.621,-807.033,0,0
236222.25,212.918,-803.028,0,0
236482.575,210.571,-799.039,0,0
236742.9,208.45,-795.156,0,0
237003.225,206.552,-791.396,0,0
237263.55,204.736,-787.67,0,0
237523.875,203.137,-783.964,0,0
237784.2,201.645,-780.324,0,0
238044.525,200.368,-776.737,0,0
238304.85,199.205,-773.218,0,0
238565.175,198.318,-769.728,0,0
238825.5,197.705,-766.374,0,0
239085.825,197.372,-763.256,0,0
239346.15,197.107,-760.463,0,0
239606.475,196.937,-757.958,0,0
239866.8,196.605,-755.74,0,0
240127.125,196.157,-753.792,0,0
240387.45,195.659,-751.984,0,0
240647.775,195.013,-750.164,0,0
240908.1,194.206,-748.535,0,0
241168.425,193.306,-746.928,0,0
241428.75,192.288,-745.314,0,0
241689.075,191.049,-743.775,0,0
241949.4,189.692,-742.128,0,0
242209.725,188.151,-740.214,0,0
242470.05,186.547,-738.335,0,0
242730.375,184.965,-736.133,0,0
242990.7,183.518,-733.746,0,0
243251.025,182.15,-731.281,0,0
243511.35,181.009,-728.766,0,0
243771.675,180.011,-726.193,0,0
244032.0,179.151,-723.676,0,0
244292.325,178.419,-721.124,0,0
244552.65,177.846,-718.763,0,0
244812.975,177.426,-716.541,0,0
245073.3,176.804,-714.513,0,0
245333.625,176.115,-712.478,0,0
245593.95,175.415,-710.301,0,0
245854.275,174.747,-708.069,0,0
246114.6,174.227,-705.776,0,0
246374.925,173.858,-703.549,0,0
246635.25,173.57,-701.483,0,0
246895.575,173.294,-699.571,0,0
247155.9,172.919,-697.846,0,0
247416.225,172.448,-696.124,0,0
247676.55,171.912,-694.328,0,0
247936.875,171.25,-692.55,0,0
248197.2,170.538,-690.689,0,0
248457.525,169.823,-688.802,0,0
248717.85,169.145,-686.717,0,0
248978.175,168.439,-684.581,0,0
249238.5,167.78,-682.411,0,0
249498.825,167.205,-680.056,0,0
249759.15,166.688,-677.653,0,0
250019.475,166.313,-675.208,0,0
250279.8,166.076,-672.646,0,0
250540,165.977,-670.036,0,0
250800,166.048,-667.388,0,0
251061,166.432,-664.76,0,0
251321,167.019,-662.28,0,0
251581,167.817,-659.97,0,0
251842,168.717,-657.814,0,0
252102,169.802,-655.867,0,0
252362,170.949,-654.222,0,0
252623,172.1,-652.883,0,0
252883,173.092,-651.861,0,0
253143,173.91,-651.015,0,0
253404,174.47,-650.264,0,0
253664,174.798,-649.608,0,0
253924,174.916,-648.833,0,0
254185,174.849,-647.947,0,0
254445,174.783,-646.94,0,0
254705,174.724,-645.874,0,0
254966,174.544,-644.778,0,0
255226,174.415,-643.557,0,0
255486,174.215,-642.288,0,0
255747,174.071,-640.873,0,0
256007,174,-639.414,0,0
256267,173.921,-637.936,0,0
256528,173.895,-636.403,0,0
256788,173.854,-634.767,0,0
257048,173.933,-632.933,0,0
257309,174.171,-631.14,0,0
257569,174.554,-629.314,0,0
257829,175.042,-627.488,0,0
258090,175.641,-625.707,0,0
258350,176.437,-623.973,0,0
258610,177.269,-622.298,0,0
258871,178.161,-620.713,0,0
259131,179.2,-619.108,0,0
259391,180.352,-617.587,0,0
259651,181.652,-616.173,0,0
259912,183.077,-614.934,0,0
260172,184.527,-613.877,0,0
260432,185.923,-613.084,0,0
260693,187.225,-612.354,0,0
260953,188.508,-611.667,0,0
261213,189.766,-611.09,0,0
261474,191.018,-610.549,0,0
261734,192.264,-610.087,0,0
261994,193.536,-609.843,0,0
262255,194.666,-609.771,0,0
262515,195.49,-609.755,0,0
262775,196.173,-609.607,0,0
263036,196.82,-609.295,0,0
263296,197.461,-609.007,0,0
263556,197.962,-608.698,0,0
263817,198.405,-608.264,0,0
264077,198.804,-607.627,0,0
264337,199.233,-606.746,0,0
264598,199.832,-605.656,0,0
264858,200.712,-604.406,0,0
265118,201.923,-603.12,0,0
265379,203.329,-601.868,0,0
265639,204.924,-600.587,0,0
265899,206.884,-599.346,0,0
266160,209.161,-598.147,0,0
266420,211.802,-597.148,0,0
266680.25,214.719,-596.376,0,0
266940.575,218.035,-595.904,0,0
267200.9,221.678,-595.896,0,0
267461.225,225.514,-596.383,0,0
267721.55,229.504,-597.436,0,0
267981.875,233.559,-599.127,0,0
268242.2,237.462,-601.51,0,0
268502.525,241.13,-604.47,0,0
268762.85,244.422,-607.993,0,0
269023.175,247.243,-611.941,0,0
269283.5,249.594,-616.221,0,0
269543.825,251.569,-620.595,0,0
269804.15,253.062,-625.339,0,0
270064.475,254.179,-630.143,0,0
270324.8,254.829,-635.291,0,0
270585.125,255.039,-640.535,0,0
270845.45,254.615,-645.884,0,0
271105.775,253.666,-651.332,0,0
271366.1,252.148,-656.624,0,0
271626.425,250.124,-661.798,0,0
271886.75,247.564,-666.812,0,0
272147.075,244.541,-671.566,0,0
272407.4,241.071,-676.071,0,0
272667.725,237.231,-680.295,0,0
272928.05,232.964,-684.169,0,0
273188.375,228.317,-687.655,0,0
273448.7,223.323,-690.704,0,0
273709.025,218.037,-693.23,0,0
273969.35,212.536,-695.231,0,0
274229.675,206.914,-696.604,0,0
274490.0,201.339,-697.335,0,0
274750.325,195.913,-697.532,0,0
275010.65,190.645,-697.291,0,0
275270.975,185.544,-696.583,0,0
275531.3,180.811,-695.503,0,0
275791.625,176.393,-694.133,0,0
276051.95,172.324,-692.579,0,0
276312.275,168.536,-690.926,0,0
276572.6,164.976,-689.21,0,0
276832.925,161.619,-687.381,0,0
277093.25,158.423,-685.488,0,0
277353.575,155.427,-683.516,0,0
277613.9,152.649,-681.487,0,0
277874.225,150.053,-679.475,0,0
278134.55,147.548,-677.448,0,0
278394.875,145.124,-675.443,0,0
278655.2,142.762,-673.268,0,0
278915.525,140.547,-671.026,0,0
279175.85,138.477,-668.605,0,0
279436.175,136.67,-666.116,0,0
279696.5,135.15,-663.606,0,0
279956.825,133.851,-661.158,0,0
280217.15,132.764,-658.768,0,0
280477.475,131.891,-656.465,0,0
280737.8,131.177,-654.275,0,0
280998.125,130.572,-652.218,0,0
281258.45,130.13,-650.299,0,0
281518.775,129.76,-648.527,0,0
281779.1,129.468,-646.905,0,0
282039.425,129.223,-645.403,0,0
282299.75,129.035,-644.08,0,0
282560,128.815,-642.966,0,0
282820,128.516,-642.014,0,0
283081,128.078,-641.14,0,0
283341,127.485,-640.293,0,0
283601,126.809,-639.403,0,0
283862,126.06,-638.434,0,0
284122,125.313,-637.408,0,0
284382,124.528,-636.309,0,0
284643,123.769,-635.099,0,0
284903,123.097,-633.773,0,0
285163,122.581,-632.305,0,0
285424,122.288,-630.848,0,0
285684,122.21,-629.418,0,0
285944,122.378,-628.123,0,0
286205,122.686,-627.002,0,0
286465,123.142,-626.101,0,0
286725,123.712,-625.46,0,0
286986,124.341,-625.151,0,0
287246,124.907,-625.18,0,0
287506,125.317,-625.551,0,0
287767,125.478,-626.233,0,0
288027,125.288,-627.122,0,0
288287,124.686,-628.108,0,0
288548,123.695,-629.002,0,0
288808,122.447,-629.763,0,0
289068,120.968,-630.382,0,0
289329,119.309,-630.898,0,0
289589,117.463,-631.166,0,0
289849,115.454,-631.204,0,0
290109,113.412,-630.993,0,0
290370,111.401,-630.547,0,0
290630,109.487,-629.889,0,0
290890,107.688,-629.146,0,0
291151,105.969,-628.357,0,0
291411,104.337,-627.537,0,0
291671,102.655,-626.69,0,0
291932,100.969,-625.787,0,0
292192,99.3019,-624.794,0,0
292452,97.6573,-623.704,0,0
292713,96.0829,-622.512,0,0
292973,94.541,-621.237,0,0
293233,93.077,-619.961,0,0
293494,91.6646,-618.669,0,0
293754,90.2852,-617.35,0,0
294014,88.9324,-615.987,0,0
294275,87.5562,-614.569,0,0
294535,86.2558,-613.052,0,0
294795,85.0307,-611.467,0,0
295056,83.8857,-609.855,0,0
295316,82.8652,-608.202,0,0
295576,81.8996,-606.56,0,0
295837,81.0518,-604.943,0,0
296097,80.2934,-603.368,0,0
296357,79.5344,-601.836,0,0
296618,78.7883,-600.378,0,0
296878,78.0618,-598.915,0,0
297138,77.3011,-597.442,0,0
297399,76.5452,-595.946,0,0
297659,75.8297,-594.414,0,0
297919,75.1228,-592.86,0,0
298180,74.4835,-591.278,0,0
298440,73.8817,-589.685,0,0
298700.2,73.3449,-588.094,0,0
298960.525,72.8256,-586.496,0,0
299220.85,72.3712,-584.888,0,0
299481.175,71.9574,-583.26,0,0
299741.5,71.5931,-581.665,0,0
300001.825,71.2819,-580.025,0,0
300262.15,71.0287,-578.394,0,0
300522.475,70.8524,-576.789,0,0
300782.8,70.7493,-575.208,0,0
301043.125,70.6877,-573.647,0,0
301303.45,70.7132,-572.125,0,0
301563.775,70.7962,-570.641,0,0
301824.1,70.9366,-569.224,0,0
302084.425,71.1018,-567.88,0,0
302344.75,71.3206,-566.594,0,0
302605.075,71.5417,-565.373,0,0
302865.4,71.7795,-564.204,0,0
303125.725,72.0362,-563.106,0,0
303386.05,72.2921,-562.062,0,0
303646.375,72.5446,-561.085,0,0
303906.7,72.7638,-560.171,0,0
304167.025,72.9669,-559.267,0,0
304427.35,73.172,-558.406,0,0
304687.675,73.3525,-557.552,0,0
304948.0,73.5575,-556.761,0,0
305208.325,73.7458,-555.952,0,0
305468.65,73.9476,-555.223,0,0
305728.975,74.1401,-554.549,0,0
305989.3,74.3035,-553.891,0,0
306249.625,74.4513,-553.279,0,0
306509.95,74.5877,-552.71,0,0
306770.275,74.6857,-552.173,0,0
307030.6,74.763,-551.641,0,0
307290.925,74.8055,-551.12,0,0
307551.25,74.8741,-550.617,0,0
307811.575,74.9298,-550.165,0,0
308071.9,74.99,-549.759,0,0
308332.225,74.9929,-549.443,0,0
308592.55,74.9273,-549.168,0,0
308852.875,74.7623,-548.922,0,0
309113.2,74.4908,-548.673,0,0
309373.525,74.1466,-548.357,0,0
309633.85,73.7466,-548.002,0,0
309894.175,73.3338,-547.573,0,0
310154.5,72.9084,-547.103,0,0
310414.825,72.5078,-546.586,0,0
310675.15,72.1249,-546.07,0,0
310935.475,71.7341,-545.533,0,0
311195.8,71.3588,-544.999,0,0
311456.125,70.9772,-544.456,0,0
311716.45,70.587,-543.913,0,0
311976.775,70.1859,-543.364,0,0
312237.1,69.789,-542.825,0,0
312497.425,69.3698,-542.282,0,0
312757.75,68.9214,-541.739,0,0
313018.075,68.4755,-541.164,0,0
313278.4,67.9991,-540.587,0,0
313538.725,67.5043,-539.99,0,0
313799.05,66.9971,-539.374,0,0
314059.375,66.4938,-538.718,0,0
314319.7,65.9605,-538.003,0,0
314580,65.4451,-537.256,0,0
314840,65.0105,-536.452,0,0
315101,64.468,-535.795,0,0
315361,64.0614,-534.983,0,0
315621,63.6212,-534.222,0,0
315882,63.1901,-533.35,0,0
316142,62.7995,-532.453,0,0
316402,62.4522,-531.568,0,0
316663,62.1023,-530.741,0,0
316923,61.7701,-529.901,0,0
317183,61.5848,-529.044,0,0
317444,61.2937,-528.197,0,0
317704,61.1072,-527.396,0,0
317964,60.8525,-526.617,0,0
318225,60.6695,-525.823,0,0
318485,60.4957,-525.062,0,0
318745,60.3129,-524.232,0,0
319006,60.1521,-523.558,0,0
319266,60.0086,-522.818,0,0
319526,59.8756,-522.104,0,0
319787,59.7869,-521.442,0,0
320047,59.6492,-520.798,0,0
320307,59.5141,-520.253,0,0
320567,59.3026,-519.656,0,0
320828,59.127,-519.072,0,0
321088,58.9651,-518.579,0,0
321348,58.6861,-518.011,0,0
321609,58.4212,-517.476,0,0
321869,58.1561,-516.896,0,0
322129,57.8383,-516.39,0,0
322390,57.5762,-515.86,0,0
322650,57.2843,-515.325,0,0
322910,56.954,-514.78,0,0
323171,56.5713,-514.28,0,0
323431,56.2221,-513.675,0,0
323691,55.8108,-513.197,0,0
323952,55.3728,-512.576,0,0
324212,54.8779,-512.032,0,0
324472,54.391,-511.465,0,0
324733,53.88,-510.788,0,0
324993,53.4128,-510.132,0,0
325253,52.9395,-509.424,0,0
325514,52.463,-508.62,0,0
325774,52.0461,-507.871,0,0
326034,51.5638,-507.093,0,0
326295,51.2127,-506.28,0,0
326555,50.8082,-505.495,0,0
326815,50.3924,-504.676,0,0
327076,50.0441,-503.805,0,0
327336,49.6881,-502.931,0,0
327596,49.3456,-502.159,0,0
327857,49.0844,-501.285,0,0
328117,48.7165,-500.495,0,0
328377,48.4704,-499.686,0,0
328638,48.1661,-498.895,0,0
328898,47.8718,-498.035,0,0
329158,47.6088,-497.21,0,0
329419,47.3218,-496.384,0,0
329679,47.0735,-495.547,0,0
329939,46.8125,-494.727,0,0
330200,46.5422,-493.821,0,0
330460,46.2948,-493.052,0,0
330720.15,46.1474,-492.246,0,0
330980.475,45.8466,-491.374,0,0
331240.8,45.6328,-490.548,0,0
331501.125,45.442,-489.718,0,0
331761.45,45.206,-488.895,0,0
332021.775,44.9955,-488.014,0,0
332282.1,44.7552,-487.138,0,0
332542.425,44.5719,-486.281,0,0
332802.75,44.4825,-485.438,0,0
333063.075,44.2937,-484.523,0,0
333323.4,44.1252,-483.653,0,0
333583.725,44.0595,-482.787,0,0
333844.05,43.9056,-481.858,0,0
334104.375,43.8869,-481.05,0,0
334364.7,43.8827,-480.212,0,0
334625.025,43.842,-479.386,0,0
334885.35,43.7886,-478.541,0,0
335145.675,43.8081,-477.846,0,0
335406.0,43.7905,-477.042,0,0
335666.325,43.7127,-476.321,0,0
335926.65,43.753,-475.568,0,0
336186.975,43.7038,-474.878,0,0
336447.3,43.7054,-474.173,0,0
336707.625,43.7195,-473.445,0,0
336967.95,43.702,-472.758,0,0
337228.275,43.6476,-472.083,0,0
337488.6,43.6329,-471.412,0,0
337748.925,43.659,-470.795,0,0
338009.25,43.6067,-470.147,0,0
338269.575,43.4909,-469.55,0,0
338529.9,43.4786,-468.91,0,0
338790.225,43.407,-468.308,0,0
339050.55,43.332,-467.693,0,0
339310.875,43.206,-467.061,0,0
339571.2,43.0958,-466.484,0,0
339831.525,42.9597,-465.86,0,0
340091.85,42.8593,-465.203,0,0
340352.175,42.7029,-464.643,0,0
340612.5,42.5226,-463.972,0,0
340872.825,42.3241,-463.325,0,0
341133.15,42.2114,-462.688,0,0
341393.475,42.0302,-462.03,0,0
341653.8,41.8554,-461.323,0,0
341914.125,41.6814,-460.656,0,0
342174.45,41.4847,-459.92,0,0
342434.775,41.3423,-459.149,0,0
342695.1,41.2118,-458.419,0,0
342955.425,41.0741,-457.718,0,0
343215.75,40.9436,-456.959,0,0
343476.075,40.8232,-456.189,0,0
343736.4,40.7273,-455.418,0,0
343996.725,40.597,-454.673,0,0
344257.05,40.4892,-453.914,0,0
344517.375,40.4196,-453.173,0,0
344777.7,40.3464,-452.397,0,0
345038.025,40.2079,-451.648,0,0
345298.35,40.1879,-450.851,0,0
345558.675,40.1109,-450.061,0,0
345819.0,40.0678,-449.252,0,0
346079.325,40.0463,-448.496,0,0
346339.65,40.0409,-447.703,0,0
346599.975,40.0648,-446.897,0,0
346860,40.0943,-446.15,0,0
347121,40.1165,-445.385,0,0
347381,40.145,-444.599,0,0
347641,40.2724,-443.833,0,0
347902,40.342,-443.101,0,0
348162,40.4227,-442.365,0,0
348422,40.5139,-441.637,0,0
348683,40.604,-440.918,0,0
348943,40.6864,-440.202,0,0
349203,40.7328,-439.502,0,0
349464,40.8919,-438.851,0,0
349724,40.9898,-438.184,0,0
349984,41.1189,-437.451,0,0
350245,41.2344,-436.804,0,0
350505,41.3782,-436.128,0,0
350765,41.5495,-435.496,0,0
351025,41.6817,-434.829,0,0
351286,41.809,-434.25,0,0
351546,41.9105,-433.659,0,0
351806,42.0955,-433.029,0,0
352067,42.2346,-432.48,0,0
352327,42.3608,-431.925,0,0
352587,42.4906,-431.308,0,0
352848,42.6556,-430.794,0,0
353108,42.7233,-430.231,0,0
353368,42.8856,-429.706,0,0
353629,42.981,-429.162,0,0
353889,43.0612,-428.681,0,0
354149,43.223,-428.13,0,0
354410,43.2987,-427.618,0,0
354670,43.3636,-427.049,0,0
354930,43.4564,-426.56,0,0
355191,43.6057,-426.038,0,0
355451,43.6358,-425.527,0,0
355711,43.7408,-425.01,0,0
355972,43.8714,-424.504,0,0
356232,43.9428,-424.027,0,0
356492,44.0135,-423.569,0,0
356753,44.1008,-423.055,0,0
357013,44.146,-422.577,0,0
357273,44.2291,-422.091,0,0
357534,44.2664,-421.61,0,0
357794,44.3209,-421.143,0,0
358054,44.352,-420.617,0,0
358315,44.4278,-420.119,0,0
358575,44.4728,-419.586,0,0
358835,44.5229,-419.1,0,0
359096,44.5692,-418.617,0,0
359356,44.6858,-418.111,0,0
359616,44.7123,-417.637,0,0
359877,44.795,-417.188,0,0
360137,44.8075,-416.675,0,0
360397,44.8968,-416.212,0,0
360658,44.9369,-415.726,0,0
360918,44.9734,-415.263,0,0
361178,45.0398,-414.772,0,0
361438,45.0837,-414.337,0,0
361699,45.1123,-413.825,0,0
361959,45.182,-413.316,0,0
362219,45.2034,-412.894,0,0
362480,45.2438,-412.361,0,0
362740.1,45.315,-411.866,0,0
363000.425,45.3422,-411.372,0,0
363260.75,45.4299,-410.92,0,0
363521.075,45.4385,-410.409,0,0
363781.4,45.5102,-409.923,0,0
364041.725,45.5278,-409.446,0,0
364302.05,45.5933,-408.942,0,0
364562.375,45.674,-408.402,0,0
364822.7,45.7573,-407.933,0,0
365083.025,45.8415,-407.411,0,0
365343.35,45.9832,-406.921,0,0
365603.675,46.0179,-406.449,0,0
365864.0,46.1817,-406.011,0,0
366124.325,46.2337,-405.57,0,0
366384.65,46.3418,-405.111,0,0
366644.975,46.4634,-404.651,0,0
366905.3,46.5324,-404.237,0,0
367165.625,46.6219,-403.835,0,0
367425.95,46.6643,-403.395,0,0
367686.275,46.7525,-402.926,0,0
367946.6,46.8131,-402.479,0,0
368206.925,46.8883,-402,0,0
368467.25,46.9663,-401.546,0,0
368727.575,47.0222,-401.101,0,0
368987.9,47.1748,-400.6,0,0
369248.225,47.2998,-400.116,0,0
369508.55,47.4471,-399.623,0,0
369768.875,47.656,-399.207,0,0
370029.2,47.8561,-398.775,0,0
370289.525,48.0576,-398.394,0,0
370549.85,48.2657,-398.025,0,0
370810.175,48.4572,-397.709,0,0
371070.5,48.6378,-397.444,0,0
371330.825,48.8068,-397.146,0,0
371591.15,48.9099,-396.919,0,0
371851.475,49.0415,-396.674,0,0
372111.8,49.1456,-396.47,0,0
372372.125,49.2105,-396.227,0,0
372632.45,49.2453,-396.011,0,0
372892.775,49.2949,-395.81,0,0
373153.1,49.2831,-395.59,0,0
373413.425,49.2743,-395.397,0,0
373673.75,49.2121,-395.188,0,0
373934.075,49.1218,-394.923,0,0
374194.4,49.0297,-394.634,0,0
374454.725,48.9036,-394.382,0,0
374715.05,48.7419,-394.077,0,0
374975.375,48.6544,-393.739,0,0
375235.7,48.5188,-393.319,0,0
375496.025,48.3777,-392.932,0,0
375756.35,48.2808,-392.504,0,0
376016.675,48.2487,-392.101,0,0
376277.0,48.2191,-391.591,0,0
376537.325,48.2187,-391.187,0,0
376797.65,48.2661,-390.785,0,0
377057.975,48.3264,-390.373,0,0
377318.3,48.3597,-390.016,0,0
377578.625,48.4458,-389.736,0,0
377838.95,48.4598,-389.467,0,0
378099.275,48.4437,-389.235,0,0
378359.6,48.3862,-388.982,0,0
378619.925,48.2448,-388.72,0,0
378880,48.0975,-388.449,0,0
379141,47.8879,-388.083,0,0
379401,47.7107,-387.691,0,0
379661,47.5394,-387.223,0,0
379922,47.4096,-386.751,0,0
380182,47.334,-386.224,0,0
380442,47.3292,-385.701,0,0
380703,47.4113,-385.149,0,0
380963,47.5631,-384.67,0,0
381223,47.7078,-384.288,0,0
381483,47.8531,-383.95,0,0
381744,48.0104,-383.762,0,0
382004,48.0603,-383.607,0,0
382264,48.0891,-383.457,0,0
382525,47.9951,-383.346,0,0
382785,47.905,-383.225,0,0
383045,47.6955,-383.023,0,0
383306,47.5151,-382.85,0,0
383566,47.2022,-382.589,0,0
383826,46.9603,-382.31,0,0
384087,46.6825,-382.048,0,0
384347,46.3538,-381.679,0,0
384607,46.0615,-381.315,0,0
384868,45.7888,-380.917,0,0
385128,45.4543,-380.481,0,0
385388,45.1952,-380.015,0,0
385649,44.9446,-379.506,0,0
385909,44.6759,-378.981,0,0
386169,44.4284,-378.436,0,0
386430,44.2001,-377.92,0,0
386690,43.9071,-377.317,0,0
386950,43.7345,-376.754,0,0
387211,43.5754,-376.143,0,0
387471,43.4395,-375.537,0,0
387731,43.2743,-374.918,0,0
387992,43.152,-374.28,0,0
388252,43.0516,-373.656,0,0
388512,42.9626,-372.985,0,0
388773,42.9609,-372.376,0,0
389033,42.9087,-371.777,0,0
389293,42.9214,-371.146,0,0
389554,42.9335,-370.543,0,0
389814,42.939,-370.01,0,0
390074,43.0287,-369.405,0,0
390335,43.0186,-368.888,0,0
390595,43.0512,-368.391,0,0
390855,43.0549,-367.883,0,0
391116,43.0747,-367.374,0,0
391376,43.0653,-366.863,0,0
391636,43.1101,-366.379,0,0
391896,43.1137,-365.866,0,0
392157,43.0665,-365.416,0,0
392417,43.0866,-364.903,0,0
392677,43.0432,-364.433,0,0
392938,43.0152,-363.905,0,0
393198,42.9669,-363.368,0,0
393458,42.9434,-362.884,0,0
393719,42.8978,-362.345,0,0
393979,42.8469,-361.78,0,0
394239,42.8615,-361.242,0,0
394500,42.8223,-360.668,0,0
394760.05,42.8277,-360.105,0,0
395020.375,42.8164,-359.538,0,0
395280.7,42.8329,-358.951,0,0
395541.025,42.8929,-358.376,0,0
395801.35,42.9486,-357.809,0,0
396061.675,42.9992,-357.229,0,0
396322.0,43.066,-356.672,0,0
396582.325,43.1265,-356.149,0,0
396842.65,43.2293,-355.624,0,0
397102.975,43.3029,-355.084,0,0
397363.3,43.3765,-354.611,0,0
397623.625,43.4547,-354.07,0,0
397883.95,43.5381,-353.547,0,0
398144.275,43.5843,-353.034,0,0
398404.6,43.6906,-352.533,0,0
398664.925,43.7714,-352.029,0,0
398925.25,43.8351,-351.552,0,0
399185.575,43.9155,-351.047,0,0
399445.9,43.9582,-350.552,0,0
399706.225,44.0345,-350.055,0,0
399966.55,44.0693,-349.579,0,0
400006.6,44.0765,-349.478,0,0