File: Accelerated corrosion test data/2025-10-14_18-00-03/sample_7.csv
Frequency (Hz),Impedance (ohms),Phase (Radians),Temperature (C),Humidity (%)
10000.0,274.646,-12001.4,0,0
10260.325,268.507,-11713.2,0,0
10520.65,258.493,-11417.9,0,0
10780.975,253.332,-11138,0,0
11041.3,250.884,-10873.2,0,0
11301.625,247.608,-10618.9,0,0
11561.95,251.661,-10372.2,0,0
11822.275,260.96,-10142.4,0,0
12082.6,272.877,-9915.02,0,0
12342.925,309.005,-9777.36,0,0
12603.25,257.495,-9569.31,0,0
12863.575,261.153,-9396.91,0,0
13123.9,237.027,-9204.82,0,0
13384.225,225.602,-9032.35,0,0
13644.55,223.831,-8860.34,0,0
13904.875,211.471,-8687.46,0,0
14165.2,216.02,-8515.99,0,0
14425.525,205.175,-8377.62,0,0
14685.8,202.998,-8230.01,0,0
14946.175,198.851,-8085.15,0,0
15206.5,193.712,-7956.2,0,0
15466.825,188.443,-7815.26,0,0
15727.15,182.616,-7687.61,0,0
15987.5,180.655,-7557.97,0,0
16247.8,176.816,-7441.03,0,0
16508.125,172.063,-7319.48,0,0
16768.45,172.288,-7201.96,0,0
17028.775,171.63,-7093.11,0,0
17289.1,166.632,-6984.09,0,0
17549.425,165.962,-6876.56,0,0
17809.75,173.505,-6770.17,0,0
18070.075,169.939,-6671.57,0,0
18330.4,183.902,-6568.22,0,0
18590.725,201.345,-6489.55,0,0
18851.05,193.193,-6413.51,0,0
19111.375,181.407,-6324.87,0,0
19371.7,198.301,-6268.41,0,0
19632.025,166.114,-6186.9,0,0
19892.35,160.61,-6086.95,0,0
20152.675,169.139,-6012.14,0,0
20413.0,166.67,-5940.63,0,0
20673.3,171.201,-5859.77,0,0
20933.65,178.295,-5804.64,0,0
21193.975,161.097,-5738.18,0,0
21454.3,154.285,-5663.08,0,0
21714.625,156.632,-5601.93,0,0
21974.9,146.253,-5536.7,0,0
22235.275,142.239,-5468.72,0,0
22495.6,139.004,-5406.76,0,0
22755.925,134.162,-5343.05,0,0
23016.25,130.74,-5279.41,0,0
23276.6,129.431,-5216.54,0,0
23536.9,130.33,-5158.58,0,0
23797.225,127.768,-5103.25,0,0
24057.55,124.611,-5046.08,0,0
24317.875,123.472,-4988.8,0,0
24578.2,123.907,-4935.16,0,0
24838.525,122.856,-4881.46,0,0
25098.85,120.849,-4830.52,0,0
25359.175,119.815,-4779.51,0,0
25619.5,119.717,-4726.92,0,0
25879.8,119.015,-4677.38,0,0
26140.1,120.372,-4626.22,0,0
26400.5,123.907,-4581.57,0,0
26660.8,121.243,-4533.36,0,0
26921.1,123.514,-4483.53,0,0
27181.4,128.461,-4437.64,0,0
27441.8,132.318,-4390.29,0,0
27702.1,142.253,-4345.62,0,0
27962.4,158.108,-4302.92,0,0
28222.7,176.327,-4277.95,0,0
28483.1,181.421,-4256.46,0,0
28743.4,178.797,-4240.66,0,0
29003.7,163.885,-4217.05,0,0
29264,147.111,-4180.47,0,0
29524.4,139.855,-4141.57,0,0
29784.7,131.289,-4103.68,0,0
30045,130.761,-4061.21,0,0
30305.3,132.298,-4026.93,0,0
30565.7,131.951,-3992.45,0,0
30826,133.027,-3960.11,0,0
31086.3,133.516,-3931.59,0,0
31346.6,132.149,-3901.35,0,0
31607,127.783,-3877.69,0,0
31867.3,120.639,-3845.32,0,0
32127.6,117.364,-3813.74,0,0
32387.9,114.819,-3784.1,0,0
32648.3,110.697,-3753.96,0,0
32908.6,107.95,-3723.9,0,0
33168.9,104.63,-3694,0,0
33429.2,101.73,-3664.56,0,0
33689.6,99.4658,-3634.58,0,0
33949.9,97.5251,-3605.75,0,0
34210.2,95.6304,-3577.22,0,0
34470.5,94.2338,-3548.71,0,0
34730.9,92.601,-3520.59,0,0
34991.2,92.1231,-3493.33,0,0
35251.5,90.3808,-3466.65,0,0
35511.8,89.6969,-3440.02,0,0
35772.2,89.0612,-3413.68,0,0
36032.5,89.0673,-3388.12,0,0
36292.8,88.2425,-3363.28,0,0
36553.1,87.1913,-3338.57,0,0
36813.5,86.6732,-3313.45,0,0
37073.8,86.5424,-3289.22,0,0
37334.1,86.391,-3265.24,0,0
37594.4,85.8559,-3242.16,0,0
37854.8,85.5701,-3218.71,0,0
38115.1,85.7602,-3194.88,0,0
38375.4,86.0805,-3171.8,0,0
38635.7,86.9276,-3149.11,0,0
38896.1,88.3594,-3126.75,0,0
39156.4,89.8932,-3105.02,0,0
39416.7,93.3797,-3083.97,0,0
39677,97.2146,-3066.34,0,0
39937.4,98.3329,-3050.15,0,0
40197.7,98.3721,-3034.71,0,0
40458,95.3311,-3018.66,0,0
40718.3,92.3187,-3001.19,0,0
40978.7,89.6203,-2982.26,0,0
41239,86.8293,-2963.19,0,0
41499.3,85.3058,-2943.78,0,0
41759.6,84.2279,-2925.3,0,0
42020,82.265,-2906.73,0,0
42280.275,80.757,-2887.21,0,0
42540.6,80.6367,-2867.97,0,0
42800.925,80.5905,-2850.22,0,0
43061.25,80.7374,-2831.84,0,0
43321.575,80.6166,-2815.88,0,0
43581.9,79.2952,-2797.9,0,0
43842.225,79.6208,-2779.85,0,0
44102.55,80.8958,-2762.42,0,0
44362.875,82.0652,-2747.74,0,0
44623.2,82.0965,-2732.37,0,0
44883.525,81.1979,-2717.86,0,0
45143.85,80.3279,-2702.56,0,0
45404.175,79.059,-2686.35,0,0
45664.5,80.1503,-2670.37,0,0
45924.825,81.3434,-2657.25,0,0
46185.15,79.6132,-2644.89,0,0
46445.475,77.2523,-2630.86,0,0
46705.8,74.5237,-2615.96,0,0
46966.125,72.5385,-2600.24,0,0
47226.45,71.8194,-2584.47,0,0
47486.775,71.3504,-2569.64,0,0
47747.1,71.126,-2555.04,0,0
48007.425,70.7715,-2540.71,0,0
48267.75,70.0662,-2526.84,0,0
48528.075,69.4304,-2512.95,0,0
48788.4,68.7527,-2499.02,0,0
49048.725,68.2742,-2485.3,0,0
49309.05,67.8463,-2471.68,0,0
49569.375,67.3416,-2458.03,0,0
49829.7,67.0971,-2444.76,0,0
50090.025,66.6995,-2431.63,0,0
50350.35,66.4204,-2418.56,0,0
50610.675,66.0921,-2405.75,0,0
50871.0,65.5563,-2393.09,0,0
51131.325,65.2798,-2380.5,0,0
51391.65,64.989,-2367.9,0,0
51651.975,64.7621,-2355.53,0,0
51912.3,64.4092,-2343.28,0,0
52172.625,64.335,-2331.06,0,0
52432.95,64.0529,-2319.08,0,0
52693.275,63.9983,-2307,0,0
52953.6,63.9444,-2295.4,0,0
53213.925,63.9026,-2284.22,0,0
53474.25,63.5696,-2272.99,0,0
53734.575,63.1201,-2261.52,0,0
53994.9,62.7217,-2250.23,0,0
54255.225,62.6156,-2239.08,0,0
54515.55,62.2049,-2228.23,0,0
54775.875,62.0403,-2217.02,0,0
55036.2,61.7056,-2206.3,0,0
55296.525,61.4803,-2195.43,0,0
55556.85,61.2575,-2184.73,0,0
55817.175,60.9822,-2174.19,0,0
56077.5,60.6949,-2163.53,0,0
56337.825,60.8115,-2153.22,0,0
56598.15,60.5422,-2142.92,0,0
56858.475,60.4448,-2132.87,0,0
57118.8,60.1811,-2122.64,0,0
57379.125,60.0088,-2112.75,0,0
57639.45,59.7156,-2102.74,0,0
57899.775,59.5163,-2092.63,0,0
58160.1,59.7225,-2082.68,0,0
58420.4,59.9958,-2073.17,0,0
58680.7,59.8134,-2063.95,0,0
58941.1,59.6976,-2054.53,0,0
59201.4,59.3569,-2044.96,0,0
59461.7,59.8401,-2035.51,0,0
59722,59.9924,-2026.85,0,0
59982.4,59.7329,-2017.8,0,0
60242.7,59.885,-2009.16,0,0
60503,59.7609,-2000.57,0,0
60763.3,59.297,-1992.06,0,0
61023.7,58.7635,-1983.27,0,0
61284,58.5745,-1974.6,0,0
61544.3,58.1932,-1966.23,0,0
61804.6,57.5441,-1957.63,0,0
62065,57.279,-1948.92,0,0
62325.3,56.9761,-1940.32,0,0
62585.6,56.6454,-1931.85,0,0
62845.9,56.2741,-1923.42,0,0
63106.3,56.0019,-1914.87,0,0
63366.6,56.0146,-1906.37,0,0
63626.9,55.986,-1898.32,0,0
63887.2,55.8516,-1890.31,0,0
64147.6,55.6751,-1882.24,0,0
64407.9,55.4142,-1874.28,0,0
64668.2,55.3167,-1866.13,0,0
64928.5,55.3421,-1858.24,0,0
65188.9,55.4591,-1850.49,0,0
65449.2,55.5847,-1842.83,0,0
65709.5,55.4588,-1835.46,0,0
65969.8,55.3435,-1828.14,0,0
66230.2,54.9678,-1820.8,0,0
66490.5,54.832,-1813.36,0,0
66750.8,54.3026,-1806.27,0,0
67011.1,53.8629,-1798.95,0,0
67271.5,53.5002,-1791.5,0,0
67531.8,53.259,-1784.07,0,0
67792.1,52.9523,-1776.82,0,0
68052.4,52.7073,-1769.5,0,0
68312.8,52.4101,-1762.28,0,0
68573.1,52.3829,-1755.03,0,0
68833.4,52.1274,-1747.98,0,0
69093.7,51.9067,-1740.73,0,0
69354.1,51.8368,-1733.73,0,0
69614.4,51.8289,-1726.92,0,0
69874.7,51.7604,-1719.94,0,0
70135,51.7574,-1713.2,0,0
70395.4,51.469,-1706.33,0,0
70655.7,51.5126,-1699.54,0,0
70916,51.6584,-1693.06,0,0
71176.3,51.5974,-1686.55,0,0
71436.7,51.4319,-1680.13,0,0
71697,51.1609,-1673.7,0,0
71957.3,50.9368,-1667.31,0,0
72217.6,50.722,-1660.86,0,0
72478,50.4734,-1654.52,0,0
72738.3,50.3346,-1648.13,0,0
72998.6,50.1559,-1641.71,0,0
73258.9,50.0448,-1635.4,0,0
73519.3,49.8171,-1629.18,0,0
73779.6,49.7074,-1622.94,0,0
74039.9,49.5702,-1616.75,0,0
74300.225,49.4619,-1610.58,0,0
74560.55,49.3637,-1604.53,0,0
74820.875,49.252,-1598.45,0,0
75081.2,49.2315,-1592.39,0,0
75341.525,49.1106,-1586.41,0,0
75601.85,48.9776,-1580.52,0,0
75862.175,48.7708,-1574.62,0,0
76122.5,48.7351,-1568.74,0,0
76382.825,48.7016,-1562.83,0,0
76643.15,48.5469,-1556.96,0,0
76903.475,48.541,-1551.24,0,0
77163.8,48.4834,-1545.49,0,0
77424.125,48.4185,-1539.87,0,0
77684.45,48.317,-1534.24,0,0
77944.775,48.2279,-1528.65,0,0
78205.1,48.1412,-1523.06,0,0
78465.425,48.1301,-1517.43,0,0
78725.75,48.1061,-1511.99,0,0
78986.075,48.0719,-1506.47,0,0
79246.4,47.9993,-1501.01,0,0
79506.725,47.9765,-1495.63,0,0
79767.05,47.9588,-1490.2,0,0
80027.375,47.9174,-1484.94,0,0
80287.7,47.899,-1479.62,0,0
80548.025,47.83,-1474.35,0,0
80808.35,47.6801,-1469.17,0,0
81068.675,47.6008,-1463.87,0,0
81329.0,47.5626,-1458.7,0,0
81589.325,47.5044,-1453.5,0,0
81849.65,47.4411,-1448.38,0,0
82109.975,47.4173,-1443.26,0,0
82370.3,47.4192,-1438.13,0,0
82630.625,47.3435,-1433.17,0,0
82890.95,47.2483,-1428.06,0,0
83151.275,47.1943,-1423.03,0,0
83411.6,47.1814,-1417.99,0,0
83671.925,47.1773,-1412.95,0,0
83932.25,47.2272,-1408.02,0,0
84192.575,47.2736,-1403.09,0,0
84452.9,47.3283,-1398.27,0,0
84713.225,47.4439,-1393.44,0,0
84973.55,47.5102,-1388.55,0,0
85233.875,47.5643,-1383.95,0,0
85494.2,47.5167,-1379.29,0,0
85754.525,47.4211,-1374.52,0,0
86014.85,47.4875,-1369.72,0,0
86275.175,47.5747,-1365.07,0,0
86535.5,47.6368,-1360.59,0,0
86795.825,47.5414,-1355.98,0,0
87056.15,47.5771,-1351.35,0,0
87316.475,47.7545,-1346.83,0,0
87576.8,47.7625,-1342.44,0,0
87837.125,47.7491,-1337.96,0,0
88097.45,47.6111,-1333.52,0,0
88357.775,47.6788,-1329.19,0,0
88618.1,47.6026,-1324.7,0,0
88878.425,47.444,-1320.32,0,0
89138.75,47.3431,-1315.89,0,0
89399.075,47.2705,-1311.46,0,0
89659.4,47.2753,-1306.91,0,0
89919.725,47.2949,-1302.52,0,0
90180,47.3179,-1297.98,0,0
90440.4,47.4652,-1293.61,0,0
90700.7,47.4888,-1289.43,0,0
90961,47.4602,-1285.1,0,0
91221.3,47.4159,-1280.71,0,0
91481.7,47.5338,-1276.42,0,0
91742,47.6733,-1272.18,0,0
92002.3,47.9463,-1267.77,0,0
92262.6,48.033,-1263.67,0,0
92523,48.1616,-1259.6,0,0
92783.3,48.107,-1255.48,0,0
93043.6,48.2532,-1251.14,0,0
93303.9,48.43,-1246.95,0,0
93564.3,48.6652,-1242.74,0,0
93824.6,49.1592,-1238.53,0,0
94084.9,49.5876,-1234.92,0,0
94345.2,49.7967,-1230.98,0,0
94605.6,50.0812,-1227.16,0,0
94865.9,50.5781,-1223.34,0,0
95126.2,50.8187,-1220.04,0,0
95386.5,50.6981,-1216.74,0,0
95646.9,50.3861,-1213.1,0,0
95907.2,50.2041,-1209.21,0,0
96167.5,50.0812,-1205.54,0,0
96427.8,49.8334,-1201.71,0,0
96688.2,49.785,-1197.82,0,0
96948.5,49.6671,-1193.96,0,0
97208.8,49.4743,-1190,0,0
97469.1,49.4985,-1185.79,0,0
97729.5,49.8598,-1181.91,0,0
97989.8,49.9952,-1178.23,0,0
98250.1,50.2124,-1174.33,0,0
98510.4,50.4112,-1170.82,0,0
98770.8,50.4525,-1167.28,0,0
99031.1,50.3705,-1163.74,0,0
99291.4,50.1834,-1160.05,0,0
99551.7,50.0326,-1156.12,0,0
99812.1,50.0984,-1152.09,0,0
100072,50.3992,-1148.09,0,0
100333,50.8366,-1144.44,0,0
100593,50.9353,-1140.84,0,0
100853,51.1933,-1136.93,0,0
101114,51.6278,-1133.3,0,0
101374,51.9072,-1129.86,0,0
101634,52.1059,-1126.27,0,0
101895,52.3716,-1122.65,0,0
102155,52.6917,-1118.98,0,0
102415,53.1355,-1115.36,0,0
102676,53.6133,-1111.78,0,0
102936,54.2972,-1108.34,0,0
103196,54.8775,-1105.12,0,0
103457,55.4122,-1102.07,0,0
103717,55.914,-1099.18,0,0
103977,55.8826,-1096.29,0,0
104238,55.9643,-1092.96,0,0
104498,56.3007,-1089.66,0,0
104758,56.7671,-1086.73,0,0
105019,56.7906,-1083.88,0,0
105279,56.7148,-1081.03,0,0
105539,56.4817,-1077.89,0,0
105800,56.3386,-1074.58,0,0
106060,56.1674,-1071.12,0,0
106320.175,56.3979,-1067.54,0,0
106580.5,56.6927,-1064.21,0,0
106840.825,57.1173,-1060.98,0,0
107101.15,57.3438,-1057.97,0,0
107361.475,57.3621,-1054.94,0,0
107621.8,57.3724,-1051.65,0,0
107882.125,57.5089,-1048.29,0,0
108142.45,57.8015,-1045.07,0,0
108402.775,58.0713,-1041.82,0,0
108663.1,58.3013,-1038.7,0,0
108923.425,58.5118,-1035.55,0,0
109183.75,58.7022,-1032.43,0,0
109444.075,58.7215,-1029.31,0,0
109704.4,58.7646,-1026.02,0,0
109964.725,58.8116,-1022.55,0,0
110225.05,59.0847,-1018.83,0,0
110485.375,59.4832,-1015.21,0,0
110745.7,60.4078,-1011.67,0,0
111006.025,61.383,-1008.58,0,0
111266.35,61.7397,-1005.59,0,0
111526.675,62.224,-1002.27,0,0
111787.0,62.8683,-998.841,0,0
112047.325,63.7943,-995.617,0,0
112307.65,64.9104,-992.366,0,0
112567.975,65.9928,-989.368,0,0
112828.3,66.9922,-986.442,0,0
113088.625,68.2358,-983.644,0,0
113348.95,69.15,-981.016,0,0
113609.275,70.0637,-978.301,0,0
113869.6,71.1033,-975.659,0,0
114129.925,72.1712,-972.902,0,0
114390.25,73.3219,-970.503,0,0
114650.575,74.3816,-968,0,0
114910.9,75.5106,-965.444,0,0
115171.225,76.7312,-963.087,0,0
115431.55,78.0846,-960.643,0,0
115691.875,79.6725,-958.517,0,0
115952.2,81.2114,-956.686,0,0
116212.525,82.7254,-954.924,0,0
116472.85,84.2961,-953.705,0,0
116733.175,85.425,-952.77,0,0
116993.5,86.1777,-951.623,0,0
117253.825,87.1583,-950.534,0,0
117514.15,87.7591,-949.825,0,0
117774.475,88.0078,-948.846,0,0
118034.8,88.3361,-947.605,0,0
118295.125,88.9151,-946.443,0,0
118555.45,89.5401,-945.57,0,0
118815.775,90.1126,-945.012,0,0
119076.1,90.4086,-944.728,0,0
119336.425,90.4588,-944.697,0,0
119596.75,89.9705,-944.967,0,0
119857.075,88.7007,-945.045,0,0
120117.4,87.3932,-944.688,0,0
120377.725,85.5455,-944.476,0,0
120638.05,83.167,-943.567,0,0
120898.375,80.8236,-942.277,0,0
121158.7,78.3191,-940.213,0,0
121419.025,76.4684,-937.69,0,0
121679.35,74.955,-935.361,0,0
121939.675,73.3581,-933.112,0,0
122200.0,71.7431,-930.708,0,0
122460,70.1833,-928.114,0,0
122721,68.6555,-925.506,0,0
122981,67.2031,-922.557,0,0
123241,66.0551,-919.543,0,0
123502,64.9705,-916.554,0,0
123762,64.1108,-913.505,0,0
124022,63.4284,-910.556,0,0
124283,62.7991,-907.806,0,0
124543,62.0883,-905.099,0,0
124803,61.3965,-902.485,0,0
125064,60.5214,-899.838,0,0
125324,59.5594,-897.011,0,0
125584,58.838,-893.963,0,0
125845,58.2468,-891.093,0,0
126105,57.5751,-888.288,0,0
126365,56.8498,-885.346,0,0
126626,56.3068,-882.314,0,0
126886,55.7342,-879.464,0,0
127146,55.1129,-876.345,0,0
127406,54.87,-873.388,0,0
127667,54.523,-870.307,0,0
127927,54.268,-867.497,0,0
128187,53.883,-864.681,0,0
128448,53.4579,-861.833,0,0
128708,53.0692,-858.852,0,0
128968,52.7807,-855.827,0,0
129229,52.6417,-852.922,0,0
129489,52.4363,-850.16,0,0
129749,52.0597,-847.238,0,0
130010,51.9359,-844.242,0,0
130270,51.813,-841.43,0,0
130530,51.5986,-838.727,0,0
130791,51.2567,-835.893,0,0
131051,50.8479,-832.936,0,0
131311,50.6406,-829.802,0,0
131572,50.5722,-826.732,0,0
131832,50.5995,-823.755,0,0
132092,50.4769,-820.847,0,0
132353,50.3742,-817.779,0,0
132613,50.3934,-814.684,0,0
132873,50.4615,-811.63,0,0
133134,50.546,-808.591,0,0
133394,50.6863,-805.51,0,0
133654,50.8565,-802.322,0,0
133915,51.249,-799.146,0,0
134175,51.8488,-796.065,0,0
134435,52.4296,-793.15,0,0
134696,53.0361,-790.32,0,0
134956,53.5805,-787.556,0,0
135216,54.1671,-784.679,0,0
135477,55.0605,-781.699,0,0
135737,56.2287,-779.082,0,0
135997,57.3891,-776.987,0,0
136258,58.35,-775.094,0,0
136518,59.2219,-773.395,0,0
136778,59.7642,-772.084,0,0
137039,59.7022,-770.772,0,0
137299,59.296,-769.112,0,0
137559,58.8367,-767.097,0,0
137819,58.5213,-765.015,0,0
138080,57.9955,-762.901,0,0
138340.125,57.3706,-760.454,0,0
138600.45,56.9003,-757.806,0,0
138860.775,56.595,-754.979,0,0
139121.1,56.4878,-752.145,0,0
139381.425,56.4869,-749.398,0,0
139641.75,56.5364,-746.679,0,0
139902.075,56.6725,-743.999,0,0
140162.4,56.733,-741.49,0,0
140422.725,56.7149,-738.935,0,0
140683.05,56.6314,-736.283,0,0
140943.375,56.6198,-733.581,0,0
141203.7,56.6464,-730.86,0,0
141464.025,56.6007,-728.073,0,0
141724.35,56.6999,-725.184,0,0
141984.675,56.8709,-722.317,0,0
142245.0,57.0488,-719.471,0,0
142505.325,57.3599,-716.61,0,0
142765.65,57.678,-713.714,0,0
143025.975,58.1499,-710.891,0,0
143286.3,58.7094,-708.137,0,0
143546.625,59.1939,-705.508,0,0
143806.95,59.7175,-702.987,0,0
144067.275,60.1467,-700.519,0,0
144327.6,60.5257,-698.044,0,0
144587.925,60.8086,-695.579,0,0
144848.25,61.1168,-692.987,0,0
145108.575,61.453,-690.512,0,0
145368.9,61.7197,-688.062,0,0
145629.225,61.8565,-685.56,0,0
145889.55,61.9422,-682.92,0,0
146149.875,62.1182,-680.132,0,0
146410.2,62.4497,-677.328,0,0
146670.525,62.7872,-674.606,0,0
146930.85,63.1839,-671.828,0,0
147191.175,63.6442,-669.211,0,0
147451.5,63.9324,-666.577,0,0
147711.825,64.3314,-663.772,0,0
147972.15,64.8721,-661.171,0,0
148232.475,65.3027,-658.725,0,0
148492.8,65.5446,-656.303,0,0
148753.125,65.6111,-653.77,0,0
149013.45,65.5619,-651.133,0,0
149273.775,65.5282,-648.248,0,0
149534.1,65.56,-645.222,0,0
149794.425,65.6799,-642.134,0,0
150054.75,65.8394,-638.977,0,0
150315.075,66.0743,-635.772,0,0
150575.4,66.3268,-632.512,0,0
150835.725,66.6625,-629.13,0,0
151096.05,67.0966,-625.742,0,0
151356.375,67.6004,-622.302,0,0
151616.7,68.1851,-618.822,0,0
151877.025,68.8598,-615.293,0,0
152137.35,69.656,-611.739,0,0
152397.675,70.5381,-608.224,0,0
152658.0,71.4698,-604.722,0,0
152918.325,72.4776,-601.183,0,0
153178.65,73.574,-597.667,0,0
153438.975,74.6984,-594.204,0,0
153699.3,75.8352,-590.67,0,0
153959.625,77.0865,-587.072,0,0
154219.95,78.4629,-583.504,0,0
154480,79.971,-579.913,0,0
154741,81.4017,-576.352,0,0
155001,83.0526,-572.74,0,0
155261,84.8831,-569.236,0,0
155522,86.6395,-565.781,0,0
155782,88.5474,-562.361,0,0
156042,90.6234,-558.932,0,0
156303,92.6263,-555.579,0,0
156563,94.8966,-552.314,0,0
156823,97.1866,-548.949,0,0
157084,99.5829,-545.827,0,0
157344,102.26,-542.846,0,0
157604,104.84,-540.184,0,0
157864,107.368,-537.568,0,0
158125,109.848,-535.099,0,0
158385,112.495,-532.861,0,0
158645,114.74,-530.975,0,0
158906,116.772,-529.142,0,0
159166,118.563,-527.281,0,0
159426,119.932,-525.301,0,0
159687,121.126,-523.261,0,0
159947,121.936,-520.888,0,0
160207,122.716,-518.062,0,0
160468,123.61,-514.944,0,0
160728,124.408,-511.672,0,0
160988,125.072,-507.811,0,0
161249,126.067,-503.395,0,0
161509,127.548,-498.598,0,0
161769,129.475,-493.677,0,0
162030,131.852,-488.57,0,0
162290,134.809,-483.626,0,0
162550,137.839,-478.811,0,0
162811,141.026,-473.791,0,0
163071,144.685,-468.533,0,0
163331,148.878,-463.31,0,0
163592,153.745,-458.334,0,0
163852,159.01,-453.838,0,0
164112,164.284,-449.598,0,0
164373,169.631,-445.504,0,0
164633,175.303,-441.576,0,0
164893,180.836,-438.092,0,0
165154,186.209,-434.372,0,0
165414,191.717,-430.222,0,0
165674,197.669,-425.737,0,0
165935,204.454,-420.92,0,0
166195,212.23,-416.189,0,0
166455,220.968,-411.994,0,0
166716,230.201,-408.511,0,0
166976,239.887,-405.314,0,0
167236,250.525,-402.651,0,0
167497,261.756,-401.121,0,0
167757,273.196,-400.365,0,0
168017,285.172,-400.267,0,0
168277,297.815,-401.41,0,0
168538,310.496,-403.974,0,0
168798,323.184,-407.807,0,0
169058,335.547,-413.098,0,0
169319,347.021,-419.84,0,0
169579,357.521,-426.992,0,0
169839,367.865,-434.688,0,0
170100,377.96,-443.454,0,0
170360.075,387.663,-453.514,0,0
170620.4,395.741,-465.154,0,0
170880.725,402.143,-476.917,0,0
171141.05,407.733,-488.799,0,0
171401.375,412.25,-501.095,0,0
171661.7,415.777,-513.376,0,0
171922.025,418.89,-525.971,0,0
172182.35,421.122,-539.718,0,0
172442.675,421.176,-554.3,0,0
172703.0,419.245,-568.371,0,0
172963.325,415.707,-582.203,0,0
173223.65,410.162,-595.608,0,0
173483.975,402.249,-607.7,0,0
173744.3,392.915,-617.43,0,0
174004.625,383.165,-624.992,0,0
174264.95,373.233,-630.794,0,0
174525.275,363.26,-634.957,0,0
174785.6,353.249,-637.006,0,0
175045.925,344.869,-636.976,0,0
175306.25,337.864,-636.853,0,0
175566.575,330.665,-635.872,0,0
175826.9,324.962,-633.059,0,0
176087.225,321.306,-630.059,0,0
176347.55,318.839,-627.236,0,0
176607.875,317.799,-624.318,0,0
176868.2,318.533,-622.15,0,0
177128.525,320.46,-621.551,0,0
177388.85,322.219,-622.443,0,0
177649.175,324.158,-623.737,0,0
177909.5,327.015,-626.163,0,0
178169.825,330.467,-630.825,0,0
178430.15,332.486,-638.605,0,0
178690.475,331.353,-647.517,0,0
178950.8,327.756,-656.009,0,0
179211.125,322.11,-663.316,0,0
179471.45,315.62,-669.026,0,0
179731.775,308.721,-673.686,0,0
179992.1,301.642,-676.791,0,0
180252.425,295.474,-679.127,0,0
180512.75,289.747,-681.757,0,0
180773.075,283.935,-684.879,0,0
181033.4,276.995,-688.666,0,0
181293.725,268.107,-691.297,0,0
181554.05,259.292,-691.878,0,0
181814.375,251.209,-692.067,0,0
182074.7,242.662,-691.855,0,0
182335.025,233.783,-690.597,0,0
182595.35,225.175,-687.978,0,0
182855.675,217.298,-684.186,0,0
183116.0,210.848,-679.941,0,0
183376.325,205.176,-676.286,0,0
183636.65,199.168,-672.738,0,0
183896.975,193.119,-668.533,0,0
184157.3,187.525,-663.582,0,0
184417.625,182.945,-658.173,0,0
184677.95,179.408,-653.063,0,0
184938.275,176.116,-648.737,0,0
185198.6,172.524,-644.676,0,0
185458.925,168.682,-640.474,0,0
185719.25,164.735,-635.728,0,0
185979.575,161.243,-630.372,0,0
186239.9,158.413,-624.918,0,0
186500,155.97,-619.592,0,0
186761,153.743,-614.26,0,0
187021,151.853,-608.69,0,0
187281,150.614,-603.15,0,0
187542,149.887,-597.904,0,0
187802,149.546,-593.146,0,0
188062,149.255,-588.853,0,0
188322,149.019,-584.957,0,0
188583,148.533,-581.625,0,0
188843,147.422,-578.346,0,0
189103,145.971,-574.68,0,0
189364,144.676,-570.677,0,0
189624,143.427,-566.574,0,0
189884,142.312,-562.333,0,0
190145,141.465,-557.904,0,0
190405,140.698,-553.789,0,0
190665,139.563,-549.538,0,0
190926,138.492,-544.676,0,0
191186,138.089,-539.575,0,0
191446,138.127,-534.773,0,0
191707,138.098,-530.234,0,0
191967,137.947,-525.728,0,0
192227,137.85,-520.954,0,0
192488,138.066,-516.074,0,0
192748,138.477,-511.256,0,0
193008,139.02,-506.46,0,0
193269,139.692,-501.696,0,0
193529,140.474,-496.925,0,0
193789,141.38,-492.142,0,0
194050,142.417,-487.337,0,0
194310,143.581,-482.46,0,0
194570,145.078,-477.478,0,0
194831,146.999,-472.666,0,0
195091,149.004,-468.18,0,0
195351,151.093,-463.873,0,0
195612,153.161,-459.609,0,0
195872,155.48,-455.44,0,0
196132,157.813,-451.6,0,0
196393,160.129,-447.677,0,0
196653,162.598,-443.883,0,0
196913,165.082,-440.406,0,0
197174,167.468,-437.109,0,0
197434,169.708,-433.976,0,0
197694,171.629,-431.026,0,0
197955,173.148,-427.643,0,0
198215,174.836,-423.901,0,0
198475,176.746,-420.053,0,0
198735,178.803,-416.191,0,0
198996,180.781,-412.35,0,0
199256,182.637,-408.325,0,0
199516,184.595,-403.933,0,0
199777,186.958,-399.286,0,0
200037,189.623,-394.508,0,0
200297,192.656,-389.814,0,0
200558,195.98,-385.303,0,0
200818,199.3,-380.905,0,0
201078,202.592,-376.445,0,0
201339,206.06,-371.65,0,0
201599,209.857,-366.653,0,0
201859,214.162,-361.683,0,0
202120,218.839,-356.745,0,0
202380.025,224.03,-351.977,0,0
202640.35,229.335,-347.519,0,0
202900.675,234.889,-343.133,0,0
203161.0,240.815,-338.845,0,0
203421.325,247.01,-334.776,0,0
203681.65,253.375,-330.981,0,0
203941.975,259.938,-327.292,0,0
204202.3,266.861,-323.699,0,0
204462.625,274.009,-320.352,0,0
204722.95,281.352,-317.125,0,0
204983.275,289.287,-313.716,0,0
205243.6,298.131,-310.794,0,0
205503.925,307.588,-308.879,0,0
205764.25,317.143,-307.978,0,0
206024.575,326.477,-308.034,0,0
206284.9,335.531,-308.717,0,0
206545.225,344.224,-310.079,0,0
206805.55,352.336,-312.053,0,0
207065.875,359.688,-314.231,0,0
207326.2,366.403,-316.45,0,0
207586.525,372.351,-318.415,0,0
207846.85,377.735,-319.514,0,0
208107.175,383.382,-319.572,0,0
208367.5,389.686,-319.03,0,0
208627.825,397.022,-317.794,0,0
208888.15,405.939,-316.599,0,0
209148.475,416.276,-316.203,0,0
209408.8,427.565,-316.989,0,0
209669.125,439.423,-319.115,0,0
209929.45,451.789,-322.588,0,0
210189.775,464.734,-327.698,0,0
210450.1,477.366,-335.08,0,0
210710.425,488.555,-344.796,0,0
210970.75,497.676,-355.214,0,0
211231.075,505.567,-365.72,0,0
211491.4,512.541,-376.467,0,0
211751.725,518.584,-387.643,0,0
212012.05,523.295,-399.023,0,0
212272.375,527.012,-409.973,0,0
212532.7,530.468,-420.95,0,0
212793.025,532.973,-432.603,0,0
213053.35,533.446,-443.832,0,0
213313.675,533.173,-453.589,0,0
213574.0,533.28,-462.6,0,0
213834.325,533.468,-471.691,0,0
214094.65,533.208,-481.039,0,0
214354.975,532.114,-490.288,0,0
214615.3,530.443,-498.871,0,0
214875.625,528.439,-507.157,0,0
215135.95,525.944,-514.809,0,0
215396.275,523.419,-521.575,0,0
215656.6,521.195,-527.873,0,0
215916.925,519.71,-533.96,0,0
216177.25,518.699,-540.562,0,0
216437.575,517.689,-548.121,0,0
216697.9,515.826,-556.726,0,0
216958.225,512.276,-565.645,0,0
217218.55,507.175,-573.629,0,0
217478.875,501.668,-580.248,0,0
217739.2,496.389,-586.161,0,0
217999.525,491.001,-591.866,0,0
218259.85,485.402,-597.296,0,0
218520,479.436,-602.577,0,0
218780,472.698,-607.518,0,0
219041,465.125,-611.56,0,0
219301,457.363,-614.185,0,0
219561,449.906,-615.805,0,0
219822,442.612,-616.609,0,0
220082,435.699,-616.476,0,0
220342,429.386,-615.534,0,0
220603,423.734,-614.185,0,0
220863,418.627,-612.332,0,0
221123,414.205,-610.111,0,0
221384,410.452,-607.622,0,0
221644,407.336,-604.983,0,0
221904,404.933,-602.196,0,0
222165,403.371,-599.513,0,0
222425,402.514,-597.291,0,0
222685,401.918,-595.6,0,0
222946,401.446,-594.139,0,0
223206,401.133,-592.963,0,0
223466,400.944,-592.047,0,0
223727,400.738,-591.357,0,0
223987,400.448,-590.739,0,0
224247,400.105,-590.126,0,0
224508,399.717,-589.422,0,0
224768,399.366,-588.347,0,0
225028,399.406,-586.892,0,0
225289,400.184,-585.185,0,0
225549,401.749,-583.708,0,0
225809,403.987,-582.767,0,0
226070,406.604,-582.528,0,0
226330,409.382,-583.038,0,0
226590,411.883,-584.192,0,0
226851,414.105,-585.558,0,0
227111,416.33,-586.937,0,0
227371,418.675,-588.501,0,0
227632,421.406,-590.348,0,0
227892,424.374,-592.867,0,0
228152,427.282,-596.24,0,0
228413,429.71,-600.218,0,0
228673,431.756,-604.589,0,0
228933,433.274,-609.382,0,0
229193,434.129,-614.307,0,0
229454,434.686,-618.929,0,0
229714,435.422,-623.484,0,0
229974,436.488,-628.626,0,0
230235,437.124,-634.668,0,0
230495,436.843,-641.529,0,0
230755,435.339,-648.309,0,0
231016,433.052,-654.504,0,0
231276,430.426,-660.34,0,0
231536,427.761,-665.795,0,0
231797,425.115,-671.292,0,0
232057,422.399,-677.147,0,0
232317,419.15,-683.446,0,0
232578,414.988,-689.909,0,0
232838,409.815,-696.252,0,0
233098,404.023,-701.982,0,0
233359,397.77,-707.434,0,0
233619,390.721,-712.598,0,0
233879,382.895,-716.984,0,0
234140,374.762,-720.536,0,0
234400,366.239,-723.571,0,0
234660.3,356.978,-725.768,0,0
234920.625,347.362,-726.374,0,0
235180.95,338.076,-725.523,0,0
235441.275,329.7,-723.52,0,0
235701.6,322.249,-720.922,0,0
235961.925,315.734,-717.942,0,0
236222.25,310.143,-714.912,0,0
236482.575,305.211,-712.216,0,0
236742.9,300.621,-709.882,0,0
237003.225,296.019,-707.848,0,0
237263.55,291.301,-705.883,0,0
237523.875,286.38,-703.796,0,0
237784.2,281.353,-701.53,0,0
238044.525,276.049,-698.911,0,0
238304.85,270.578,-695.518,0,0
238565.175,265.491,-691.114,0,0
238825.5,261.3,-685.957,0,0
239085.825,258.211,-680.444,0,0
239346.15,256.331,-674.997,0,0
239606.475,255.454,-670.025,0,0
239866.8,255.409,-665.884,0,0
240127.125,255.543,-662.729,0,0
240387.45,255.708,-660.509,0,0
240647.775,255.514,-658.997,0,0
240908.1,254.774,-657.778,0,0
241168.425,253.562,-656.74,0,0
241428.75,251.913,-655.618,0,0
241689.075,250.032,-654.396,0,0
241949.4,247.789,-653.17,0,0
242209.725,244.998,-651.623,0,0
242470.05,242.047,-649.261,0,0
242730.375,239.435,-646.302,0,0
242990.7,237.274,-643.088,0,0
243251.025,235.386,-639.887,0,0
243511.35,233.471,-636.415,0,0
243771.675,231.871,-632.429,0,0
244032.0,231.022,-628.088,0,0
244292.325,231.016,-623.792,0,0
244552.65,231.856,-620.025,0,0
244812.975,233.032,-617.019,0,0
245073.3,234.041,-614.739,0,0
245333.625,234.853,-612.765,0,0
245593.95,235.48,-610.958,0,0
245854.275,235.995,-609.342,0,0
246114.6,236.281,-607.827,0,0
246374.925,236.449,-606.297,0,0
246635.25,236.564,-604.784,0,0
246895.575,236.491,-603.263,0,0
247155.9,236.33,-601.554,0,0
247416.225,236.224,-599.606,0,0
247676.55,236.374,-597.618,0,0
247936.875,236.649,-595.621,0,0
248197.2,236.958,-593.731,0,0
248457.525,237.383,-591.816,0,0
248717.85,237.887,-589.857,0,0
248978.175,238.539,-587.936,0,0
249238.5,239.289,-586.111,0,0
249498.825,240.055,-584.289,0,0
249759.15,241.004,-582.417,0,0
250019.475,242.099,-580.59,0,0
250279.8,243.381,-578.804,0,0
250540,244.832,-577.087,0,0
250800,246.5,-575.537,0,0
251061,248.321,-574.199,0,0
251321,250.225,-573.049,0,0
251581,252.227,-572.019,0,0
251842,254.453,-571.115,0,0
252102,256.917,-570.52,0,0
252362,259.472,-570.324,0,0
252623,262.077,-570.534,0,0
252883,264.671,-571.168,0,0
253143,267.152,-572.266,0,0
253404,269.341,-573.808,0,0
253664,271.224,-575.702,0,0
253924,272.658,-577.847,0,0
254185,273.656,-580.143,0,0
254445,274.326,-582.49,0,0
254705,274.608,-584.86,0,0
254966,274.537,-587.288,0,0
255226,273.981,-589.647,0,0
255486,272.984,-591.793,0,0
255747,271.784,-593.642,0,0
256007,270.358,-595.197,0,0
256267,268.861,-596.5,0,0
256528,267.282,-597.61,0,0
256788,265.564,-598.547,0,0
257048,263.742,-599.239,0,0
257309,261.86,-599.596,0,0
257569,260.071,-599.658,0,0
257829,258.381,-599.538,0,0
258090,256.792,-599.209,0,0
258350,255.407,-598.658,0,0
258610,254.308,-598.071,0,0
258871,253.418,-597.619,0,0
259131,252.522,-597.368,0,0
259391,251.492,-597.227,0,0
259651,250.239,-597.024,0,0
259912,248.772,-596.584,0,0
260172,247.333,-595.802,0,0
260432,245.94,-594.72,0,0
260693,244.811,-593.401,0,0
260953,243.91,-591.95,0,0
261213,243.237,-590.421,0,0
261474,242.735,-588.8,0,0
261734,242.471,-587.031,0,0
261994,242.585,-585.124,0,0
262255,243.096,-583.264,0,0
262515,244.031,-581.548,0,0
262775,245.351,-580.051,0,0
263036,247.059,-578.938,0,0
263296,248.948,-578.311,0,0
263556,250.853,-578.155,0,0
263817,252.799,-578.468,0,0
264077,254.577,-579.301,0,0
264337,255.993,-580.483,0,0
264598,257.097,-581.893,0,0
264858,257.764,-583.514,0,0
265118,257.918,-585.105,0,0
265379,257.805,-586.477,0,0
265639,257.535,-587.523,0,0
265899,257.301,-588.433,0,0
266160,257.102,-589.215,0,0
266420,257.077,-589.967,0,0
266680.25,257.114,-590.899,0,0
266940.575,257.098,-592.031,0,0
267200.9,256.829,-593.194,0,0
267461.225,256.424,-594.377,0,0
267721.55,255.827,-595.547,0,0
267981.875,255.081,-596.633,0,0
268242.2,254.135,-597.533,0,0
268502.525,253.115,-598.204,0,0
268762.85,252.092,-598.579,0,0
269023.175,251.239,-598.692,0,0
269283.5,250.644,-598.649,0,0
269543.825,250.273,-598.507,0,0
269804.15,250.153,-598.332,0,0
270064.475,250.41,-598.158,0,0
270324.8,251.022,-598.12,0,0
270585.125,251.943,-598.372,0,0
270845.45,253.078,-598.864,0,0
271105.775,254.557,-599.698,0,0
271366.1,256.347,-601.019,0,0
271626.425,258.332,-602.976,0,0
271886.75,260.377,-605.824,0,0
272147.075,262.236,-609.635,0,0
272407.4,263.4,-614.494,0,0
272667.725,263.518,-619.997,0,0
272928.05,262.56,-625.732,0,0
273188.375,260.637,-631.504,0,0
273448.7,257.789,-637.229,0,0
273709.025,253.929,-642.706,0,0
273969.35,249.205,-647.687,0,0
274229.675,243.763,-652.049,0,0
274490.0,237.867,-655.752,0,0
274750.325,231.506,-659.045,0,0
275010.65,224.548,-661.629,0,0
275270.975,216.99,-663.378,0,0
275531.3,209.28,-663.937,0,0
275791.625,201.725,-663.443,0,0
276051.95,194.568,-662.208,0,0
276312.275,187.743,-660.426,0,0
276572.6,181.117,-658.107,0,0
276832.925,174.752,-655.19,0,0
277093.25,168.774,-651.591,0,0
277353.575,163.368,-647.453,0,0
277613.9,158.645,-642.939,0,0
277874.225,154.562,-638.271,0,0
278134.55,151.05,-633.458,0,0
278394.875,148.103,-628.649,0,0
278655.2,145.688,-623.877,0,0
278915.525,143.701,-619.262,0,0
279175.85,142.023,-614.815,0,0
279436.175,140.613,-610.398,0,0
279696.5,139.577,-606.061,0,0
279956.825,138.872,-601.906,0,0
280217.15,138.512,-597.882,0,0
280477.475,138.499,-594.16,0,0
280737.8,138.73,-590.809,0,0
280998.125,138.994,-587.928,0,0
281258.45,139.207,-585.352,0,0
281518.775,139.238,-583.031,0,0
281779.1,139.111,-580.839,0,0
282039.425,138.811,-578.773,0,0
282299.75,138.265,-576.67,0,0
282560,137.527,-574.411,0,0
282820,136.826,-571.901,0,0
283081,136.131,-569.158,0,0
283341,135.671,-566.24,0,0
283601,135.344,-563.228,0,0
283862,135.34,-560.202,0,0
284122,135.557,-557.193,0,0
284382,135.976,-554.257,0,0
284643,136.624,-551.492,0,0
284903,137.359,-548.79,0,0
285163,138.332,-546.287,0,0
285424,139.269,-543.921,0,0
285684,140.351,-541.824,0,0
285944,141.467,-539.787,0,0
286205,142.645,-537.958,0,0
286465,143.755,-536.35,0,0
286725,144.739,-534.981,0,0
286986,145.608,-533.589,0,0
287246,146.326,-532.447,0,0
287506,146.83,-531.164,0,0
287767,147.223,-529.755,0,0
288027,147.556,-528.304,0,0
288287,148.032,-526.617,0,0
288548,148.438,-524.885,0,0
288808,148.968,-523.077,0,0
289068,149.647,-521.283,0,0
289329,150.345,-519.48,0,0
289589,151.213,-517.659,0,0
289849,152.078,-515.823,0,0
290109,152.979,-514.033,0,0
290370,154.205,-512.037,0,0
290630,155.55,-510.227,0,0
290890,157.058,-508.511,0,0
291151,158.637,-507.071,0,0
291411,160.233,-505.68,0,0
291671,161.863,-504.472,0,0
291932,163.328,-503.309,0,0
292192,164.922,-502.222,0,0
292452,166.42,-501.14,0,0
292713,168.04,-500.083,0,0
292973,169.619,-499.107,0,0
293233,171.249,-498.269,0,0
293494,172.903,-497.425,0,0
293754,174.522,-496.573,0,0
294014,176.105,-495.813,0,0
294275,177.725,-495.056,0,0
294535,179.35,-494.218,0,0
294795,181.106,-493.4,0,0
295056,182.885,-492.583,0,0
295316,184.905,-491.927,0,0
295576,186.96,-491.218,0,0
295837,189.023,-490.774,0,0
296097,191.195,-490.314,0,0
296357,193.376,-489.962,0,0
296618,195.723,-489.635,0,0
296878,198.087,-489.466,0,0
297138,200.572,-489.442,0,0
297399,203.184,-489.601,0,0
297659,205.804,-489.953,0,0
297919,208.367,-490.447,0,0
298180,210.933,-491.144,0,0
298440,213.535,-491.959,0,0
298700.2,215.983,-492.893,0,0
298960.525,218.516,-493.863,0,0
299220.85,221.026,-495.016,0,0
299481.175,223.649,-496.257,0,0
299741.5,226.243,-497.694,0,0
300001.825,228.993,-499.304,0,0
300262.15,231.661,-501.105,0,0
300522.475,234.417,-503.133,0,0
300782.8,237.241,-505.443,0,0
301043.125,239.954,-508.088,0,0
301303.45,242.7,-511.005,0,0
301563.775,245.504,-514.388,0,0
301824.1,248.086,-518.24,0,0
302084.425,250.692,-522.542,0,0
302344.75,252.63,-527.523,0,0
302605.075,254.031,-533.004,0,0
302865.4,254.77,-538.78,0,0
303125.725,254.65,-544.712,0,0
303386.05,253.718,-550.553,0,0
303646.375,252.09,-556.105,0,0
303906.7,249.898,-561.293,0,0
304167.025,247.309,-566.081,0,0
304427.35,244.415,-570.469,0,0
304687.675,241.275,-574.456,0,0
304948.0,238.009,-578.166,0,0
305208.325,234.559,-581.622,0,0
305468.65,230.906,-584.799,0,0
305728.975,227.023,-587.704,0,0
305989.3,222.98,-590.24,0,0
306249.625,218.798,-592.396,0,0
306509.95,214.591,-594.131,0,0
306770.275,210.433,-595.549,0,0
307030.6,206.326,-596.668,0,0
307290.925,202.295,-597.538,0,0
307551.25,198.296,-598.213,0,0
307811.575,194.361,-598.678,0,0
308071.9,190.426,-598.94,0,0
308332.225,186.524,-598.946,0,0
308592.55,182.671,-598.701,0,0
308852.875,178.918,-598.181,0,0
309113.2,175.299,-597.399,0,0
309373.525,171.894,-596.369,0,0
309633.85,168.756,-595.181,0,0
309894.175,165.871,-593.909,0,0
310154.5,163.197,-592.609,0,0
310414.825,160.699,-591.3,0,0
310675.15,158.376,-589.998,0,0
310935.475,156.136,-588.737,0,0
311195.8,154.033,-587.47,0,0
311456.125,152.011,-586.231,0,0
311716.45,150.071,-585.01,0,0
311976.775,148.179,-583.85,0,0
312237.1,146.315,-582.679,0,0
312497.425,144.457,-581.534,0,0
312757.75,142.6,-580.346,0,0
313018.075,140.765,-579.135,0,0
313278.4,138.939,-577.854,0,0
313538.725,137.127,-576.518,0,0
313799.05,135.377,-575.095,0,0
314059.375,133.686,-573.566,0,0
314319.7,132.081,-571.961,0,0
314580,130.612,-570.21,0,0
314840,129.291,-568.507,0,0
315101,128.212,-566.831,0,0
315361,127.171,-565.132,0,0
315621,126.257,-563.495,0,0
315882,125.511,-561.879,0,0
316142,124.828,-560.41,0,0
316402,124.146,-559.03,0,0
316663,123.524,-557.647,0,0
316923,122.933,-556.478,0,0
317183,122.321,-555.204,0,0
317444,121.674,-554.08,0,0
317704,121.171,-552.908,0,0
317964,120.64,-551.829,0,0
318225,120.06,-550.67,0,0
318485,119.527,-549.58,0,0
318745,118.97,-548.462,0,0
319006,118.534,-547.392,0,0
319266,118.16,-546.456,0,0
319526,117.764,-545.475,0,0
319787,117.411,-544.567,0,0
320047,117.052,-543.666,0,0
320307,116.686,-542.896,0,0
320567,116.167,-542.104,0,0
320828,115.824,-541.33,0,0
321088,115.385,-540.628,0,0
321348,114.884,-539.873,0,0
321609,114.483,-539.157,0,0
321869,114.01,-538.459,0,0
322129,113.563,-537.728,0,0
322390,113.142,-537.082,0,0
322650,112.639,-536.427,0,0
322910,112.137,-535.831,0,0
323171,111.626,-535.263,0,0
323431,110.976,-534.663,0,0
323691,110.349,-534.056,0,0
323952,109.704,-533.283,0,0
324212,109.049,-532.617,0,0
324472,108.45,-531.783,0,0
324733,107.869,-530.973,0,0
324993,107.458,-530.155,0,0
325253,107.029,-529.37,0,0
325514,106.67,-528.645,0,0
325774,106.313,-527.962,0,0
326034,105.97,-527.357,0,0
326295,105.505,-526.838,0,0
326555,105.172,-526.291,0,0
326815,104.703,-525.837,0,0
327076,104.294,-525.387,0,0
327336,103.678,-524.915,0,0
327596,103.109,-524.461,0,0
327857,102.596,-524.002,0,0
328117,101.848,-523.591,0,0
328377,101.183,-523.051,0,0
328638,100.49,-522.539,0,0
328898,99.8441,-522.027,0,0
329158,99.0884,-521.418,0,0
329419,98.4306,-520.9,0,0
329679,97.7368,-520.33,0,0
329939,97.1037,-519.694,0,0
330200,96.3592,-519.177,0,0
330460,95.6562,-518.563,0,0
330720.15,94.9428,-518.004,0,0
330980.475,94.2245,-517.487,0,0
331240.8,93.4661,-516.938,0,0
331501.125,92.6654,-516.382,0,0
331761.45,91.8951,-515.785,0,0
332021.775,91.0558,-515.19,0,0
332282.1,90.1094,-514.534,0,0
332542.425,89.2218,-514.022,0,0
332802.75,88.2846,-513.266,0,0
333063.075,87.2407,-512.566,0,0
333323.4,86.2605,-511.798,0,0
333583.725,85.301,-510.997,0,0
333844.05,84.291,-510.105,0,0
334104.375,83.2717,-509.182,0,0
334364.7,82.3826,-508.133,0,0
334625.025,81.4147,-507.136,0,0
334885.35,80.5546,-506.099,0,0
335145.675,79.6743,-505.034,0,0
335406.0,78.7797,-503.934,0,0
335666.325,77.9607,-502.798,0,0
335926.65,77.0977,-501.712,0,0
336186.975,76.2857,-500.504,0,0
336447.3,75.5218,-499.246,0,0
336707.625,74.7263,-497.966,0,0
336967.95,73.9771,-496.684,0,0
337228.275,73.4168,-495.363,0,0
337488.6,72.76,-493.969,0,0
337748.925,72.1524,-492.712,0,0
338009.25,71.5689,-491.392,0,0
338269.575,71.0981,-490.06,0,0
338529.9,70.5685,-488.736,0,0
338790.225,70.1075,-487.392,0,0
339050.55,69.6555,-486.039,0,0
339310.875,69.2865,-484.748,0,0
339571.2,68.8438,-483.387,0,0
339831.525,68.5012,-481.986,0,0
340091.85,68.1194,-480.689,0,0
340352.175,67.8247,-479.265,0,0
340612.5,67.5292,-477.931,0,0
340872.825,67.2639,-476.501,0,0
341133.15,67.0526,-475.17,0,0
341393.475,66.8952,-473.779,0,0
341653.8,66.7659,-472.347,0,0
341914.125,66.6034,-470.944,0,0
342174.45,66.616,-469.593,0,0
342434.775,66.5547,-468.241,0,0
342695.1,66.5725,-466.872,0,0
342955.425,66.6375,-465.571,0,0
343215.75,66.719,-464.261,0,0
343476.075,66.8536,-462.941,0,0
343736.4,67.0877,-461.712,0,0
343996.725,67.2718,-460.496,0,0
344257.05,67.4978,-459.309,0,0
344517.375,67.7585,-458.244,0,0
344777.7,68.0481,-457.163,0,0
345038.025,68.3412,-456.069,0,0
345298.35,68.6424,-455.148,0,0
345558.675,68.937,-454.155,0,0
345819.0,69.2295,-453.293,0,0
346079.325,69.492,-452.442,0,0
346339.65,69.745,-451.678,0,0
346599.975,69.9407,-450.932,0,0
346860,70.094,-450.224,0,0
347121,70.2124,-449.521,0,0
347381,70.2964,-448.849,0,0
347641,70.368,-448.185,0,0
347902,70.3662,-447.49,0,0
348162,70.2527,-446.785,0,0
348422,70.1452,-446.066,0,0
348683,69.9895,-445.256,0,0
348943,69.8825,-444.377,0,0
349203,69.7453,-443.485,0,0
349464,69.6446,-442.582,0,0
349724,69.5362,-441.63,0,0
349984,69.4652,-440.663,0,0
350245,69.3978,-439.68,0,0
350505,69.2961,-438.675,0,0
350765,69.2474,-437.581,0,0
351025,69.2261,-436.48,0,0
351286,69.2915,-435.33,0,0
351546,69.3894,-434.172,0,0
351806,69.5923,-432.897,0,0
352067,69.8198,-431.837,0,0
352327,70.1184,-430.699,0,0
352587,70.5039,-429.646,0,0
352848,70.8731,-428.644,0,0
353108,71.3032,-427.675,0,0
353368,71.789,-426.683,0,0
353629,72.2195,-425.813,0,0
353889,72.7517,-424.976,0,0
354149,73.2429,-424.174,0,0
354410,73.7112,-423.383,0,0
354670,74.2107,-422.638,0,0
354930,74.777,-421.98,0,0
355191,75.3578,-421.333,0,0
355451,75.8877,-420.82,0,0
355711,76.418,-420.429,0,0
355972,76.8762,-420.13,0,0
356232,77.2021,-419.815,0,0
356492,77.4691,-419.531,0,0
356753,77.5919,-419.307,0,0
357013,77.6435,-419.038,0,0
357273,77.6775,-418.689,0,0
357534,77.5713,-418.365,0,0
357794,77.4333,-417.903,0,0
358054,77.2334,-417.452,0,0
358315,77.0121,-416.93,0,0
358575,76.7922,-416.309,0,0
358835,76.602,-415.607,0,0
359096,76.3645,-414.804,0,0
359356,76.1747,-413.952,0,0
359616,76.0728,-413.059,0,0
359877,76.021,-412.044,0,0
360137,75.9947,-411.106,0,0
360397,76.0392,-410.089,0,0
360658,76.1233,-409.086,0,0
360918,76.2617,-408.082,0,0
361178,76.4565,-407.07,0,0
361438,76.7417,-406.036,0,0
361699,77.0272,-405.098,0,0
361959,77.3656,-404.132,0,0
362219,77.6876,-403.209,0,0
362480,78.0888,-402.316,0,0
362740.1,78.4147,-401.418,0,0
363000.425,78.8457,-400.577,0,0
363260.75,79.21,-399.699,0,0
363521.075,79.6498,-398.771,0,0
363781.4,80.0869,-397.91,0,0
364041.725,80.6237,-397.031,0,0
364302.05,81.1969,-396.173,0,0
364562.375,81.7508,-395.313,0,0
364822.7,82.4578,-394.508,0,0
365083.025,83.2046,-393.751,0,0
365343.35,83.9359,-393.115,0,0
365603.675,84.6877,-392.543,0,0
365864.0,85.4662,-392.097,0,0
366124.325,86.1772,-391.71,0,0
366384.65,86.7645,-391.317,0,0
366644.975,87.3612,-390.959,0,0
366905.3,87.947,-390.634,0,0
367165.625,88.5145,-390.281,0,0
367425.95,89.0958,-389.983,0,0
367686.275,89.6,-389.712,0,0
367946.6,90.1345,-389.408,0,0
368206.925,90.6597,-389.167,0,0
368467.25,91.1863,-388.964,0,0
368727.575,91.6519,-388.755,0,0
368987.9,92.175,-388.632,0,0
369248.225,92.6261,-388.55,0,0
369508.55,93.0594,-388.514,0,0
369768.875,93.4392,-388.568,0,0
370029.2,93.7085,-388.61,0,0
370289.525,93.8965,-388.783,0,0
370549.85,93.9243,-388.865,0,0
370810.175,93.841,-389.005,0,0
371070.5,93.6084,-388.984,0,0
371330.825,93.3439,-388.882,0,0
371591.15,93.016,-388.66,0,0
371851.475,92.6347,-388.306,0,0
372111.8,92.2855,-387.771,0,0
372372.125,91.982,-387.181,0,0
372632.45,91.7651,-386.53,0,0
372892.775,91.6027,-385.774,0,0
373153.1,91.5441,-384.952,0,0
373413.425,91.5593,-384.116,0,0
373673.75,91.6186,-383.353,0,0
373934.075,91.7833,-382.532,0,0
374194.4,91.9704,-381.749,0,0
374454.725,92.1935,-381.008,0,0
374715.05,92.4973,-380.289,0,0
374975.375,92.7629,-379.572,0,0
375235.7,93.079,-378.905,0,0
375496.025,93.4161,-378.309,0,0
375756.35,93.7903,-377.693,0,0
376016.675,94.0836,-377.17,0,0
376277.0,94.3549,-376.656,0,0
376537.325,94.5893,-376.148,0,0
376797.65,94.7617,-375.565,0,0
377057.975,94.9444,-374.978,0,0
377318.3,95.1032,-374.324,0,0
377578.625,95.306,-373.608,0,0
377838.95,95.5276,-372.845,0,0
378099.275,95.804,-372.045,0,0
378359.6,96.176,-371.253,0,0
378619.925,96.5405,-370.495,0,0
378880,97.0168,-369.72,0,0
379141,97.5515,-369.011,0,0
379401,98.0375,-368.273,0,0
379661,98.5909,-367.615,0,0
379922,99.1711,-366.984,0,0
380182,99.7438,-366.408,0,0
380442,100.311,-365.828,0,0
380703,100.848,-365.245,0,0
380963,101.394,-364.767,0,0
381223,101.933,-364.213,0,0
381483,102.432,-363.695,0,0
381744,102.961,-363.117,0,0
382004,103.538,-362.549,0,0
382264,104.106,-361.945,0,0
382525,104.734,-361.387,0,0
382785,105.402,-360.861,0,0
383045,106.038,-360.321,0,0
383306,106.753,-359.838,0,0
383566,107.448,-359.364,0,0
383826,108.15,-358.922,0,0
384087,108.913,-358.511,0,0
384347,109.651,-358.128,0,0
384607,110.363,-357.8,0,0
384868,111.053,-357.527,0,0
385128,111.738,-357.274,0,0
385388,112.342,-356.998,0,0
385649,112.947,-356.708,0,0
385909,113.557,-356.402,0,0
386169,114.159,-356.061,0,0
386430,114.82,-355.746,0,0
386690,115.458,-355.511,0,0
386950,116.13,-355.229,0,0
387211,116.699,-354.961,0,0
387471,117.247,-354.7,0,0
387731,117.755,-354.402,0,0
387992,118.33,-354.017,0,0
388252,118.898,-353.565,0,0
388512,119.52,-353.073,0,0
388773,120.267,-352.56,0,0
389033,121.105,-352.09,0,0
389293,122.005,-351.646,0,0
389554,122.98,-351.249,0,0
389814,123.973,-350.985,0,0
390074,125.019,-350.789,0,0
390335,126.012,-350.673,0,0
390595,126.997,-350.633,0,0
390855,127.933,-350.601,0,0
391116,128.823,-350.623,0,0
391376,129.66,-350.59,0,0
391636,130.494,-350.596,0,0
391896,131.308,-350.563,0,0
392157,132.173,-350.567,0,0
392417,133.055,-350.624,0,0
392677,133.908,-350.626,0,0
392938,134.709,-350.733,0,0
393198,135.5,-350.795,0,0
393458,136.268,-350.78,0,0
393719,137.043,-350.791,0,0
393979,137.829,-350.763,0,0
394239,138.675,-350.682,0,0
394500,139.55,-350.556,0,0
394760.05,140.496,-350.482,0,0
395020.375,141.539,-350.337,0,0
395280.7,142.681,-350.26,0,0
395541.025,143.891,-350.192,0,0
395801.35,145.229,-350.197,0,0
396061.675,146.597,-350.285,0,0
396322.0,148.057,-350.484,0,0
396582.325,149.576,-350.764,0,0
396842.65,151.147,-351.204,0,0
397102.975,152.769,-351.776,0,0
397363.3,154.339,-352.439,0,0
397623.625,155.973,-353.269,0,0
397883.95,157.624,-354.27,0,0
398144.275,159.218,-355.414,0,0
398404.6,160.783,-356.738,0,0
398664.925,162.271,-358.206,0,0
398925.25,163.69,-359.844,0,0
399185.575,164.988,-361.682,0,0
399445.9,166.143,-363.723,0,0
399706.225,167.061,-365.876,0,0
399966.55,167.817,-368.191,0,0
400006.6,167.923,-368.522,0,0