File: Accelerated corrosion test data/2025-10-14_18-00-03/sample_4.csv
Frequency (Hz),Impedance (ohms),Phase (Radians),Temperature (C),Humidity (%)
10000.0,265.79,-11837.6,0,0
10260.325,262.433,-11541.1,0,0
10520.65,252.742,-11257.5,0,0
10780.975,246.79,-10987.3,0,0
11041.3,242.09,-10729.8,0,0
11301.625,236.165,-10487.6,0,0
11561.95,231.083,-10252.5,0,0
11822.275,226.016,-10028.1,0,0
12082.6,221.158,-9813.94,0,0
12342.925,216.77,-9608.05,0,0
12603.25,214.855,-9408.95,0,0
12863.575,210.056,-9222.81,0,0
13123.9,208.204,-9044.98,0,0
13384.225,200.905,-8866.26,0,0
13644.55,197.453,-8696.68,0,0
13904.875,194.805,-8531.34,0,0
14165.2,195.98,-8368.6,0,0
14425.525,201.088,-8220.12,0,0
14685.8,197.51,-8107.72,0,0
14946.175,183.629,-7951.35,0,0
15206.5,182.571,-7808.8,0,0
15466.825,191.562,-7665.34,0,0
15727.15,189.812,-7565.53,0,0
15987.5,186.509,-7451.65,0,0
16247.8,172.012,-7321.59,0,0
16508.125,191.918,-7198.36,0,0
16768.45,180.781,-7095.16,0,0
17028.775,171.09,-7006.92,0,0
17289.1,161.5,-6893.95,0,0
17549.425,159.827,-6790.17,0,0
17809.75,156.77,-6690.2,0,0
18070.075,153.139,-6591.2,0,0
18330.4,155.002,-6496.34,0,0
18590.725,154.126,-6407.73,0,0
18851.05,150.213,-6323.27,0,0
19111.375,146.539,-6234.59,0,0
19371.7,143.926,-6149.65,0,0
19632.025,142.899,-6065.73,0,0
19892.35,145.16,-5985.84,0,0
20152.675,144.823,-5909.37,0,0
20413.0,141.56,-5835.56,0,0
20673.3,141.674,-5761.51,0,0
20933.65,138.382,-5687.49,0,0
21193.975,141.85,-5613.32,0,0
21454.3,153.284,-5548.61,0,0
21714.625,145.235,-5491.16,0,0
21974.9,151.56,-5421.64,0,0
22235.275,148.419,-5374.83,0,0
22495.6,135.67,-5318.42,0,0
22755.925,129.23,-5254.08,0,0
23016.25,125.92,-5192.37,0,0
23276.6,123.806,-5132.37,0,0
23536.9,122.389,-5075.03,0,0
23797.225,119.851,-5018.37,0,0
24057.55,118.4,-4962.62,0,0
24317.875,116.909,-4908.74,0,0
24578.2,115.816,-4855.51,0,0
24838.525,115.331,-4803.24,0,0
25098.85,115.741,-4752.84,0,0
25359.175,114.331,-4705.31,0,0
25619.5,113.354,-4655.56,0,0
25879.8,110.839,-4611.84,0,0
26140.1,108.826,-4563.3,0,0
26400.5,108.174,-4517.21,0,0
26660.8,107.445,-4470.92,0,0
26921.1,107.722,-4427.35,0,0
27181.4,106.444,-4383.02,0,0
27441.8,106.611,-4338.78,0,0
27702.1,110.675,-4294.55,0,0
27962.4,117.166,-4252.96,0,0
28222.7,121.081,-4225.5,0,0
28483.1,112.777,-4189.57,0,0
28743.4,111.16,-4149.49,0,0
29003.7,113.561,-4109.54,0,0
29264,117.58,-4077.42,0,0
29524.4,113.23,-4045.73,0,0
29784.7,108.372,-4014.52,0,0
30045,107.371,-3978.61,0,0
30305.3,102.37,-3944.42,0,0
30565.7,100.638,-3908.89,0,0
30826,99.6054,-3874.85,0,0
31086.3,98.7639,-3840.66,0,0
31346.6,99.8773,-3808.19,0,0
31607,98.343,-3777.09,0,0
31867.3,98.0689,-3745.21,0,0
32127.6,101.199,-3714.98,0,0
32387.9,98.426,-3689.17,0,0
32648.3,97.234,-3659.1,0,0
32908.6,95.1886,-3631.82,0,0
33168.9,93.0428,-3602.97,0,0
33429.2,90.6221,-3574.28,0,0
33689.6,88.9096,-3545.14,0,0
33949.9,88.1736,-3516.62,0,0
34210.2,88.4152,-3489.35,0,0
34470.5,86.7891,-3463.49,0,0
34730.9,85.5547,-3436.42,0,0
34991.2,85.2151,-3409.63,0,0
35251.5,85.0442,-3384.16,0,0
35511.8,83.9675,-3359.12,0,0
35772.2,83.3265,-3334.11,0,0
36032.5,82.4469,-3309.24,0,0
36292.8,81.6851,-3284.58,0,0
36553.1,81.3773,-3260.12,0,0
36813.5,81.1499,-3236.4,0,0
37073.8,80.9988,-3213.28,0,0
37334.1,80.4175,-3190.99,0,0
37594.4,79.8183,-3167.93,0,0
37854.8,79.6119,-3145.49,0,0
38115.1,78.646,-3123.77,0,0
38375.4,78.0873,-3101.31,0,0
38635.7,77.5765,-3079.38,0,0
38896.1,77.9854,-3058.07,0,0
39156.4,77.4776,-3037.06,0,0
39416.7,76.9415,-3015.94,0,0
39677,77.1317,-2994.63,0,0
39937.4,77.7777,-2973.82,0,0
40197.7,79.4194,-2953.7,0,0
40458,80.9612,-2935.47,0,0
40718.3,79.7341,-2917.78,0,0
40978.7,79.7559,-2897.83,0,0
41239,80.7367,-2879.96,0,0
41499.3,82.2774,-2863.84,0,0
41759.6,79.3932,-2846.52,0,0
42020,77.8027,-2828.6,0,0
42280.275,77.1331,-2808.95,0,0
42540.6,79.5684,-2791.9,0,0
42800.925,78.0499,-2777.7,0,0
43061.25,75.9614,-2759.07,0,0
43321.575,76.2547,-2742.46,0,0
43581.9,74.8398,-2726.32,0,0
43842.225,74.0426,-2708.79,0,0
44102.55,74.0378,-2692.87,0,0
44362.875,72.7011,-2675.92,0,0
44623.2,73.0896,-2659.73,0,0
44883.525,72.5135,-2643.71,0,0
45143.85,71.5972,-2627.71,0,0
45404.175,71.2159,-2611.25,0,0
45664.5,71.9597,-2595.2,0,0
45924.825,72.9753,-2581,0,0
46185.15,71.0264,-2567,0,0
46445.475,70.9707,-2550.49,0,0
46705.8,71.8179,-2535.73,0,0
46966.125,72.308,-2522.05,0,0
47226.45,72.4072,-2508,0,0
47486.775,71.9002,-2495.39,0,0
47747.1,70.8964,-2481.33,0,0
48007.425,69.7606,-2467.29,0,0
48267.75,68.8368,-2453.48,0,0
48528.075,68.4767,-2439.74,0,0
48788.4,67.6766,-2426.11,0,0
49048.725,66.5961,-2412.15,0,0
49309.05,66.6283,-2398.27,0,0
49569.375,65.8575,-2385.26,0,0
49829.7,65.641,-2371.39,0,0
50090.025,65.2596,-2358.37,0,0
50350.35,65.1259,-2344.93,0,0
50610.675,64.7593,-2332.06,0,0
50871.0,64.6197,-2319.12,0,0
51131.325,64.3909,-2306.24,0,0
51391.65,64.2816,-2293.34,0,0
51651.975,64.4406,-2280.51,0,0
51912.3,64.3423,-2268.03,0,0
52172.625,64.8661,-2255.25,0,0
52432.95,64.7949,-2243.24,0,0
52693.275,65.167,-2230.25,0,0
52953.6,66.1575,-2218.02,0,0
53213.925,67.0724,-2206.15,0,0
53474.25,68.3043,-2194.17,0,0
53734.575,69.5083,-2182.3,0,0
53994.9,72.2841,-2171.22,0,0
54255.225,74.4613,-2161.62,0,0
54515.55,76.2654,-2153.41,0,0
54775.875,76.1377,-2145.58,0,0
55036.2,74.7265,-2137.05,0,0
55296.525,74.0634,-2127.39,0,0
55556.85,72.2456,-2118.67,0,0
55817.175,70.6066,-2108.3,0,0
56077.5,68.9308,-2097.89,0,0
56337.825,67.5627,-2087.28,0,0
56598.15,66.5365,-2075.78,0,0
56858.475,66.363,-2064.65,0,0
57118.8,66.4375,-2053.89,0,0
57379.125,66.8489,-2043.47,0,0
57639.45,66.8766,-2033.22,0,0
57899.775,66.9075,-2022.91,0,0
58160.1,67.2888,-2012.39,0,0
58420.4,68.4105,-2002.46,0,0
58680.7,68.4102,-1993.69,0,0
58941.1,68.3334,-1982.83,0,0
59201.4,69.6228,-1972.47,0,0
59461.7,71.6285,-1962.48,0,0
59722,74.0364,-1953.65,0,0
59982.4,76.5318,-1946.1,0,0
60242.7,77.3422,-1939.06,0,0
60503,78.3545,-1931.22,0,0
60763.3,81.1737,-1924.61,0,0
61023.7,81.2378,-1921,0,0
61284,79.1384,-1916.03,0,0
61544.3,74.8008,-1909.99,0,0
61804.6,71.9913,-1900.13,0,0
62065,70.7269,-1891.38,0,0
62325.3,69.2598,-1883.62,0,0
62585.6,66.3883,-1874.52,0,0
62845.9,65.9126,-1864.26,0,0
63106.3,65.2498,-1855.45,0,0
63366.6,64.7878,-1846.1,0,0
63626.9,65.1474,-1837.03,0,0
63887.2,64.8294,-1829.41,0,0
64147.6,63.9489,-1820.11,0,0
64407.9,64.8232,-1810.96,0,0
64668.2,65.2928,-1803.05,0,0
64928.5,65.6079,-1794.98,0,0
65188.9,65.6083,-1787.02,0,0
65449.2,65.6947,-1779.07,0,0
65709.5,65.9801,-1770.38,0,0
65969.8,67.4927,-1762.41,0,0
66230.2,68.4154,-1755.27,0,0
66490.5,68.9296,-1748.16,0,0
66750.8,69.4321,-1741.02,0,0
67011.1,70.0804,-1733.56,0,0
67271.5,71.3569,-1726.73,0,0
67531.8,72.368,-1720.36,0,0
67792.1,73.1863,-1714.24,0,0
68052.4,73.7424,-1708.48,0,0
68312.8,74.1184,-1703.07,0,0
68573.1,74.2932,-1698.09,0,0
68833.4,73.3545,-1693.54,0,0
69093.7,71.4781,-1688.28,0,0
69354.1,69.1789,-1682.32,0,0
69614.4,67.3636,-1674.83,0,0
69874.7,66.5081,-1667.64,0,0
70135,65.4612,-1660.81,0,0
70395.4,63.9804,-1653.16,0,0
70655.7,64.6643,-1645.02,0,0
70916,65.5439,-1639.17,0,0
71176.3,65.0757,-1633.41,0,0
71436.7,64.9343,-1627.44,0,0
71697,64.3298,-1621.86,0,0
71957.3,62.6542,-1616.05,0,0
72217.6,60.9624,-1609.38,0,0
72478,59.5501,-1602.04,0,0
72738.3,58.8309,-1594.75,0,0
72998.6,58.1194,-1587.56,0,0
73258.9,57.9604,-1579.91,0,0
73519.3,58.0885,-1572.64,0,0
73779.6,58.3671,-1565.76,0,0
74039.9,58.8455,-1559.22,0,0
74300.225,58.7642,-1552.66,0,0
74560.55,59.2466,-1545.91,0,0
74820.875,59.7089,-1539.52,0,0
75081.2,60.4928,-1533.02,0,0
75341.525,61.177,-1527.36,0,0
75601.85,61.5015,-1521.63,0,0
75862.175,61.7954,-1515.82,0,0
76122.5,62.2477,-1509.95,0,0
76382.825,62.7167,-1504.59,0,0
76643.15,62.6088,-1499.16,0,0
76903.475,62.4964,-1492.97,0,0
77163.8,63.5854,-1486.77,0,0
77424.125,64.7225,-1481.73,0,0
77684.45,65.5399,-1477.03,0,0
77944.775,65.8941,-1472.75,0,0
78205.1,65.7131,-1468.29,0,0
78465.425,65.4159,-1463.84,0,0
78725.75,64.7645,-1459.35,0,0
78986.075,63.91,-1454.46,0,0
79246.4,62.9958,-1449.33,0,0
79506.725,62.2714,-1443.87,0,0
79767.05,61.7292,-1438.35,0,0
80027.375,61.3135,-1433.01,0,0
80287.7,61.0342,-1427.48,0,0
80548.025,60.829,-1422.09,0,0
80808.35,60.7144,-1416.7,0,0
81068.675,60.7338,-1411.58,0,0
81329.0,60.5574,-1406.51,0,0
81589.325,60.3767,-1401.49,0,0
81849.65,60.1526,-1396.51,0,0
82109.975,59.8431,-1391.45,0,0
82370.3,59.6125,-1386.38,0,0
82630.625,59.323,-1381.36,0,0
82890.95,59.1956,-1376.41,0,0
83151.275,58.94,-1371.42,0,0
83411.6,58.6411,-1366.4,0,0
83671.925,58.3733,-1361.4,0,0
83932.25,58.2505,-1356.42,0,0
84192.575,58.0859,-1351.54,0,0
84452.9,57.8499,-1346.56,0,0
84713.225,57.7478,-1341.67,0,0
84973.55,57.5669,-1336.76,0,0
85233.875,57.4368,-1332.03,0,0
85494.2,57.2964,-1327.2,0,0
85754.525,57.1332,-1322.47,0,0
86014.85,56.9159,-1317.64,0,0
86275.175,56.9155,-1312.88,0,0
86535.5,56.8617,-1308.28,0,0
86795.825,56.7673,-1303.61,0,0
87056.15,56.5416,-1299.1,0,0
87316.475,56.4053,-1294.53,0,0
87576.8,56.1856,-1290.06,0,0
87837.125,55.7874,-1285.69,0,0
88097.45,55.3309,-1281.18,0,0
88357.775,54.6272,-1276.41,0,0
88618.1,54.4032,-1271.43,0,0
88878.425,54.2212,-1266.7,0,0
89138.75,53.9373,-1261.96,0,0
89399.075,53.7152,-1257.13,0,0
89659.4,53.8669,-1252.28,0,0
89919.725,53.8433,-1247.71,0,0
90180,53.788,-1243.04,0,0
90440.4,53.7171,-1238.52,0,0
90700.7,53.6511,-1233.96,0,0
90961,53.5266,-1229.36,0,0
91221.3,53.4752,-1224.69,0,0
91481.7,53.5226,-1219.98,0,0
91742,53.7118,-1215.31,0,0
92002.3,53.9391,-1210.73,0,0
92262.6,54.2661,-1206.36,0,0
92523,54.5282,-1202.06,0,0
92783.3,54.927,-1197.95,0,0
93043.6,55.0125,-1193.96,0,0
93303.9,55.0736,-1190,0,0
93564.3,54.9908,-1185.97,0,0
93824.6,54.7751,-1181.96,0,0
94084.9,54.6006,-1177.95,0,0
94345.2,54.1429,-1173.79,0,0
94605.6,53.7043,-1169.36,0,0
94865.9,53.5164,-1164.88,0,0
95126.2,53.3704,-1160.35,0,0
95386.5,53.3211,-1155.82,0,0
95646.9,53.362,-1151.32,0,0
95907.2,53.4628,-1146.84,0,0
96167.5,53.6141,-1142.44,0,0
96427.8,53.8733,-1138.07,0,0
96688.2,54.0908,-1133.82,0,0
96948.5,54.2063,-1129.52,0,0
97208.8,54.4249,-1125.2,0,0
97469.1,54.6023,-1120.95,0,0
97729.5,54.7493,-1116.63,0,0
97989.8,55.0195,-1112.23,0,0
98250.1,55.4704,-1107.91,0,0
98510.4,55.8514,-1103.67,0,0
98770.8,56.2948,-1099.34,0,0
99031.1,56.8716,-1095.01,0,0
99291.4,57.5681,-1090.97,0,0
99551.7,58.1963,-1087.05,0,0
99812.1,58.6221,-1083.02,0,0
100072,59.2683,-1078.73,0,0
100333,60.388,-1074.63,0,0
100593,61.6896,-1071.08,0,0
100853,62.6398,-1068.06,0,0
101114,63.1167,-1064.77,0,0
101374,63.96,-1061.72,0,0
101634,64.4645,-1059.23,0,0
101895,64.1778,-1056.85,0,0
102155,63.2743,-1054.01,0,0
102415,62.1171,-1050.55,0,0
102676,61.0638,-1046.55,0,0
102936,60.2396,-1042.23,0,0
103196,59.6118,-1037.61,0,0
103457,59.2428,-1032.71,0,0
103717,59.4213,-1027.64,0,0
103977,59.9175,-1022.79,0,0
104238,60.4668,-1018.04,0,0
104498,61.2956,-1013.26,0,0
104758,62.3055,-1008.59,0,0
105019,63.5452,-1004.21,0,0
105279,64.8192,-999.904,0,0
105539,66.1064,-995.718,0,0
105800,67.5248,-991.651,0,0
106060,68.9622,-987.74,0,0
106320.175,70.4315,-983.951,0,0
106580.5,71.9376,-980.244,0,0
106840.825,73.4505,-976.811,0,0
107101.15,74.8254,-973.375,0,0
107361.475,76.1609,-969.927,0,0
107621.8,77.5175,-966.406,0,0
107882.125,79.088,-962.886,0,0
108142.45,80.7779,-959.506,0,0
108402.775,82.5629,-956.315,0,0
108663.1,84.3725,-953.292,0,0
108923.425,86.159,-950.456,0,0
109183.75,88.0424,-947.752,0,0
109444.075,89.8262,-945.352,0,0
109704.4,91.3361,-943.1,0,0
109964.725,92.8228,-940.806,0,0
110225.05,94.3004,-938.546,0,0
110485.375,95.67,-936.484,0,0
110745.7,96.8472,-934.427,0,0
111006.025,98.0354,-932.55,0,0
111266.35,99.0444,-930.602,0,0
111526.675,100.023,-928.515,0,0
111787.0,100.912,-926.658,0,0
112047.325,102.013,-924.682,0,0
112307.65,102.88,-922.808,0,0
112567.975,103.657,-921.086,0,0
112828.3,104.377,-919.264,0,0
113088.625,105.119,-917.555,0,0
113348.95,105.689,-915.818,0,0
113609.275,106.205,-914.196,0,0
113869.6,106.62,-912.535,0,0
114129.925,107.003,-910.815,0,0
114390.25,107.29,-909.052,0,0
114650.575,107.704,-907.353,0,0
114910.9,107.954,-905.776,0,0
115171.225,108.096,-904.253,0,0
115431.55,108.158,-902.696,0,0
115691.875,108.046,-901.016,0,0
115952.2,107.863,-899.32,0,0
116212.525,107.711,-897.61,0,0
116472.85,107.345,-895.912,0,0
116733.175,106.909,-894.09,0,0
116993.5,106.414,-892.128,0,0
117253.825,105.874,-890.082,0,0
117514.15,105.238,-887.889,0,0
117774.475,104.63,-885.494,0,0
118034.8,104.117,-882.829,0,0
118295.125,103.896,-880.123,0,0
118555.45,103.633,-877.452,0,0
118815.775,103.474,-874.533,0,0
119076.1,103.744,-871.153,0,0
119336.425,104.762,-867.993,0,0
119596.75,106.386,-865.493,0,0
119857.075,108.001,-863.854,0,0
120117.4,109.436,-862.977,0,0
120377.725,110.19,-862.731,0,0
120638.05,110.066,-862.775,0,0
120898.375,108.937,-862.513,0,0
121158.7,107.327,-861.538,0,0
121419.025,105.727,-859.893,0,0
121679.35,104.304,-857.978,0,0
121939.675,102.916,-855.778,0,0
122200.0,101.713,-853.383,0,0
122460,100.654,-850.849,0,0
122721,99.846,-848.243,0,0
122981,99.1062,-845.74,0,0
123241,98.3658,-843.26,0,0
123502,97.6256,-840.7,0,0
123762,96.9685,-838.142,0,0
124022,96.3465,-835.574,0,0
124283,95.7594,-832.991,0,0
124543,95.1968,-830.39,0,0
124803,94.6919,-827.747,0,0
125064,94.3133,-825.173,0,0
125324,93.9157,-822.722,0,0
125584,93.486,-820.295,0,0
125845,93.0897,-817.927,0,0
126105,92.6034,-815.688,0,0
126365,91.9359,-813.511,0,0
126626,91.1552,-811.113,0,0
126886,90.3399,-808.71,0,0
127146,89.4893,-806.145,0,0
127406,88.7936,-803.572,0,0
127667,88.0844,-801.176,0,0
127927,87.2588,-798.858,0,0
128187,86.189,-796.422,0,0
128448,85.0073,-793.794,0,0
128708,83.8485,-791.057,0,0
128968,82.6468,-788.205,0,0
129229,81.4153,-785.185,0,0
129489,80.1879,-781.994,0,0
129749,79.0123,-778.696,0,0
130010,77.9485,-775.185,0,0
130270,77.1209,-771.592,0,0
130530,76.344,-768.06,0,0
130791,75.5778,-764.5,0,0
131051,74.8632,-760.805,0,0
131311,74.321,-757.07,0,0
131572,73.9112,-753.328,0,0
131832,73.5048,-749.616,0,0
132092,73.1434,-745.924,0,0
132353,72.8785,-742.152,0,0
132613,72.6959,-738.351,0,0
132873,72.6122,-734.607,0,0
133134,72.5462,-730.903,0,0
133394,72.5012,-727.227,0,0
133654,72.4716,-723.496,0,0
133915,72.5643,-719.703,0,0
134175,72.7161,-715.973,0,0
134435,72.8688,-712.277,0,0
134696,73.0985,-708.532,0,0
134956,73.3301,-704.799,0,0
135216,73.6997,-701.022,0,0
135477,74.1206,-697.375,0,0
135737,74.6271,-693.697,0,0
135997,75.1289,-690.14,0,0
136258,75.5958,-686.532,0,0
136518,76.1778,-682.948,0,0
136778,76.8243,-679.444,0,0
137039,77.4423,-676.096,0,0
137299,77.9329,-672.798,0,0
137559,78.3251,-669.454,0,0
137819,78.6959,-666.023,0,0
138080,78.9859,-662.482,0,0
138340.125,79.3898,-658.83,0,0
138600.45,79.8506,-655.227,0,0
138860.775,80.3628,-651.518,0,0
139121.1,80.8621,-647.721,0,0
139381.425,81.5679,-643.933,0,0
139641.75,82.3081,-640.196,0,0
139902.075,83.0518,-636.471,0,0
140162.4,83.8189,-632.692,0,0
140422.725,84.6614,-628.873,0,0
140683.05,85.6005,-625.047,0,0
140943.375,86.6274,-621.271,0,0
141203.7,87.7115,-617.516,0,0
141464.025,88.7967,-613.825,0,0
141724.35,89.9099,-610.102,0,0
141984.675,91.0834,-606.407,0,0
142245.0,92.2611,-602.718,0,0
142505.325,93.4604,-599.028,0,0
142765.65,94.7068,-595.324,0,0
143025.975,96.0253,-591.588,0,0
143286.3,97.3504,-587.896,0,0
143546.625,98.7337,-584.225,0,0
143806.95,100.135,-580.542,0,0
144067.275,101.558,-576.799,0,0
144327.6,103.068,-573.042,0,0
144587.925,104.635,-569.278,0,0
144848.25,106.254,-565.506,0,0
145108.575,107.958,-561.737,0,0
145368.9,109.744,-557.949,0,0
145629.225,111.658,-554.219,0,0
145889.55,113.579,-550.518,0,0
146149.875,115.563,-546.808,0,0
146410.2,117.64,-543.146,0,0
146670.525,119.788,-539.531,0,0
146930.85,121.931,-535.982,0,0
147191.175,124.094,-532.416,0,0
147451.5,126.335,-528.853,0,0
147711.825,128.585,-525.305,0,0
147972.15,130.878,-521.733,0,0
148232.475,133.262,-518.128,0,0
148492.8,135.772,-514.53,0,0
148753.125,138.339,-510.96,0,0
149013.45,140.987,-507.434,0,0
149273.775,143.647,-503.933,0,0
149534.1,146.335,-500.33,0,0
149794.425,149.23,-496.655,0,0
150054.75,152.346,-493.031,0,0
150315.075,155.593,-489.504,0,0
150575.4,159.035,-485.93,0,0
150835.725,162.596,-482.533,0,0
151096.05,166.389,-479.235,0,0
151356.375,170.267,-476.158,0,0
151616.7,174.212,-473.209,0,0
151877.025,178.2,-470.31,0,0
152137.35,182.44,-467.393,0,0
152397.675,187.072,-464.813,0,0
152658.0,191.763,-462.757,0,0
152918.325,196.256,-460.969,0,0
153178.65,200.756,-459.334,0,0
153438.975,205.278,-457.983,0,0
153699.3,209.662,-456.935,0,0
153959.625,213.855,-456.119,0,0
154219.95,217.899,-455.502,0,0
154480,221.606,-455.193,0,0
154741,224.869,-454.856,0,0
155001,227.846,-454.007,0,0
155261,231.044,-452.99,0,0
155522,234.543,-452.051,0,0
155782,238.118,-451.52,0,0
156042,241.36,-451.212,0,0
156303,244.293,-450.818,0,0
156563,246.964,-450.301,0,0
156823,249.471,-449.558,0,0
157084,252.288,-448.448,0,0
157344,255.167,-447.392,0,0
157604,258.034,-446.321,0,0
157864,261.027,-444.939,0,0
158125,264.443,-443.511,0,0
158385,268.167,-442.243,0,0
158645,272.147,-441.17,0,0
158906,276.364,-440.312,0,0
159166,281.03,-439.719,0,0
159426,285.702,-439.925,0,0
159687,290.134,-440.773,0,0
159947,294.159,-441.865,0,0
160207,298.057,-443.131,0,0
160468,301.728,-444.862,0,0
160728,304.792,-447.198,0,0
160988,306.873,-449.511,0,0
161249,308.285,-451.273,0,0
161509,309.56,-452.421,0,0
161769,311.016,-453.403,0,0
162030,312.119,-454.156,0,0
162290,313.286,-454.559,0,0
162550,314.596,-454.996,0,0
162811,315.504,-455.214,0,0
163071,316.498,-455.062,0,0
163331,317.617,-454.627,0,0
163592,318.858,-454.041,0,0
163852,320.12,-453.18,0,0
164112,321.62,-452.163,0,0
164373,323.546,-450.839,0,0
164633,325.874,-449.513,0,0
164893,328.514,-448.423,0,0
165154,330.952,-447.31,0,0
165414,333.555,-445.918,0,0
165674,336.719,-444.376,0,0
165935,340.639,-442.845,0,0
166195,344.964,-441.81,0,0
166455,349.751,-441.03,0,0
166716,354.998,-440.61,0,0
166976,360.733,-441.002,0,0
167236,366.51,-442.291,0,0
167497,372.083,-444.219,0,0
167757,377.611,-446.723,0,0
168017,382.999,-449.913,0,0
168277,387.862,-453.811,0,0
168538,392.18,-457.977,0,0
168798,396.381,-462.371,0,0
169058,400.528,-467.451,0,0
169319,403.915,-473.355,0,0
169579,406.423,-479.31,0,0
169839,408.869,-485.403,0,0
170100,410.836,-492.357,0,0
170360.075,411.771,-500.01,0,0
170620.4,411.273,-507.833,0,0
170880.725,409.513,-515.474,0,0
171141.05,406.565,-522.501,0,0
171401.375,402.975,-528.635,0,0
171661.7,399.034,-534.451,0,0
171922.025,394.221,-540.008,0,0
172182.35,388.539,-544.617,0,0
172442.675,382.557,-548.249,0,0
172703.0,376.361,-551.214,0,0
172963.325,369.778,-553.346,0,0
173223.65,363.177,-554.542,0,0
173483.975,356.523,-555.062,0,0
173744.3,349.938,-554.574,0,0
174004.625,343.778,-553.405,0,0
174264.95,337.853,-551.708,0,0
174525.275,332.278,-549.392,0,0
174785.6,327.163,-546.682,0,0
175045.925,322.207,-543.726,0,0
175306.25,317.46,-540.118,0,0
175566.575,313.198,-535.934,0,0
175826.9,309.656,-531.475,0,0
176087.225,306.581,-526.929,0,0
176347.55,303.964,-522.181,0,0
176607.875,301.906,-517.415,0,0
176868.2,300.231,-512.658,0,0
177128.525,298.964,-507.942,0,0
177388.85,298.014,-503.301,0,0
177649.175,297.393,-498.772,0,0
177909.5,297.062,-494.468,0,0
178169.825,296.785,-490.33,0,0
178430.15,296.57,-486.203,0,0
178690.475,296.527,-482.032,0,0
178950.8,296.662,-477.852,0,0
179211.125,297.087,-473.693,0,0
179471.45,297.723,-469.717,0,0
179731.775,298.525,-465.923,0,0
179992.1,299.296,-462.344,0,0
180252.425,300.099,-458.818,0,0
180512.75,300.92,-455.377,0,0
180773.075,301.707,-451.949,0,0
181033.4,302.521,-448.558,0,0
181293.725,303.322,-445.21,0,0
181554.05,304.121,-441.846,0,0
181814.375,304.899,-438.469,0,0
182074.7,305.641,-435.069,0,0
182335.025,306.307,-431.589,0,0
182595.35,306.964,-427.965,0,0
182855.675,307.658,-424.185,0,0
183116.0,308.394,-420.232,0,0
183376.325,309.248,-416.093,0,0
183636.65,310.25,-411.815,0,0
183896.975,311.383,-407.431,0,0
184157.3,312.732,-402.898,0,0
184417.625,314.251,-398.282,0,0
184677.95,315.934,-393.603,0,0
184938.275,317.792,-388.834,0,0
185198.6,319.887,-383.996,0,0
185458.925,322.205,-379.114,0,0
185719.25,324.68,-374.261,0,0
185979.575,327.242,-369.329,0,0
186239.9,330.106,-364.322,0,0
186500,333.079,-359.274,0,0
186761,336.27,-354.165,0,0
187021,339.767,-349.06,0,0
187281,343.39,-343.849,0,0
187542,347.365,-338.609,0,0
187802,351.537,-333.317,0,0
188062,356.055,-328.047,0,0
188322,360.858,-322.843,0,0
188583,365.937,-317.607,0,0
188843,371.431,-312.473,0,0
189103,376.991,-307.303,0,0
189364,382.996,-302.24,0,0
189624,389.275,-297.267,0,0
189884,396.022,-292.38,0,0
190145,403.132,-287.646,0,0
190405,410.533,-283.111,0,0
190665,418.274,-278.828,0,0
190926,426.281,-274.796,0,0
191186,434.571,-270.887,0,0
191446,443.211,-267.23,0,0
191707,452.233,-263.896,0,0
191967,461.543,-260.833,0,0
192227,471.057,-258.223,0,0
192488,480.921,-255.909,0,0
192748,490.902,-254.001,0,0
193008,501.194,-252.576,0,0
193269,511.533,-251.493,0,0
193529,521.923,-250.734,0,0
193789,532.468,-250.397,0,0
194050,543.217,-250.485,0,0
194310,553.913,-251.023,0,0
194570,564.621,-251.867,0,0
194831,575.35,-253.009,0,0
195091,586.106,-254.433,0,0
195351,596.861,-256.11,0,0
195612,607.847,-257.989,0,0
195872,618.981,-260.172,0,0
196132,630.322,-262.676,0,0
196393,641.916,-265.614,0,0
196653,653.658,-268.998,0,0
196913,665.644,-272.808,0,0
197174,677.926,-277.228,0,0
197434,690.315,-282.363,0,0
197694,702.734,-288.202,0,0
197955,715.196,-294.698,0,0
198215,727.631,-301.943,0,0
198475,740.043,-309.875,0,0
198735,752.46,-318.648,0,0
198996,764.789,-328.471,0,0
199256,776.804,-339.353,0,0
199516,788.184,-351.355,0,0
199777,798.766,-364.265,0,0
200037,808.482,-377.779,0,0
200297,817.488,-391.986,0,0
200558,825.56,-406.943,0,0
200818,832.381,-422.355,0,0
201078,838.128,-438.087,0,0
201339,842.869,-453.824,0,0
201599,846.527,-469.829,0,0
201859,848.958,-485.654,0,0
202120,850.538,-500.918,0,0
202380.025,851.471,-515.929,0,0
202640.35,851.465,-530.724,0,0
202900.675,850.856,-544.623,0,0
203161.0,850.361,-557.949,0,0
203421.325,850.078,-571.587,0,0
203681.65,849.129,-585.864,0,0
203941.975,846.901,-600.047,0,0
204202.3,843.758,-613.719,0,0
204462.625,839.989,-626.442,0,0
204722.95,836.257,-638.643,0,0
204983.275,832.14,-650.656,0,0
205243.6,827.932,-662.281,0,0
205503.925,823.276,-673.394,0,0
205764.25,818.737,-684.094,0,0
206024.575,814.209,-694.655,0,0
206284.9,809.727,-705.001,0,0
206545.225,805.412,-715.679,0,0
206805.55,800.826,-726.852,0,0
207065.875,795.592,-738.561,0,0
207326.2,789.166,-750.404,0,0
207586.525,781.405,-761.911,0,0
207846.85,772.775,-772.544,0,0
208107.175,763.573,-782.258,0,0
208367.5,754.006,-791.207,0,0
208627.825,744.145,-799.562,0,0
208888.15,733.722,-807.068,0,0
209148.475,723.104,-813.437,0,0
209408.8,712.701,-818.825,0,0
209669.125,702.442,-823.554,0,0
209929.45,692.349,-827.746,0,0
210189.775,682.485,-831.208,0,0
210450.1,672.82,-834.094,0,0
210710.425,663.365,-836.632,0,0
210970.75,654.193,-838.37,0,0
211231.075,645.471,-839.672,0,0
211491.4,636.979,-840.605,0,0
211751.725,628.946,-841.082,0,0
212012.05,621.378,-841.25,0,0
212272.375,614.302,-841.184,0,0
212532.7,607.695,-840.981,0,0
212793.025,601.481,-840.872,0,0
213053.35,595.24,-840.678,0,0
213313.675,589.214,-840.035,0,0
213574.0,583.708,-839.008,0,0
213834.325,578.695,-837.717,0,0
214094.65,574.534,-836.238,0,0
214354.975,571.28,-835.004,0,0
214615.3,568.726,-834.314,0,0
214875.625,566.458,-834.3,0,0
215135.95,564.501,-834.961,0,0
215396.275,562.37,-836.293,0,0
215656.6,560.004,-838.094,0,0
215916.925,557.185,-840.4,0,0
216177.25,553.95,-842.766,0,0
216437.575,550.26,-845.015,0,0
216697.9,546.279,-847.024,0,0
216958.225,542.245,-848.748,0,0
217218.55,538.46,-850.339,0,0
217478.875,534.651,-851.904,0,0
217739.2,530.806,-853.598,0,0
217999.525,527.028,-855.221,0,0
218259.85,523.223,-856.923,0,0
218520,519.333,-858.558,0,0
218780,515.669,-860.192,0,0
219041,511.973,-862.035,0,0
219301,508.148,-864.005,0,0
219561,504.211,-866.167,0,0
219822,499.904,-868.227,0,0
220082,495.491,-870.327,0,0
220342,490.87,-872.384,0,0
220603,485.975,-874.341,0,0
220863,480.983,-875.902,0,0
221123,475.978,-877.311,0,0
221384,470.988,-878.629,0,0
221644,465.966,-879.82,0,0
221904,460.877,-881.057,0,0
222165,455.678,-882.095,0,0
222425,450.419,-882.948,0,0
222685,445.226,-883.596,0,0
222946,440.155,-884.157,0,0
223206,435.024,-884.697,0,0
223466,429.975,-885.064,0,0
223727,424.954,-885.34,0,0
223987,420.048,-885.772,0,0
224247,415.271,-886.102,0,0
224508,410.19,-886.67,0,0
224768,404.993,-887.186,0,0
225028,399.536,-887.614,0,0
225289,393.912,-887.835,0,0
225549,388.139,-887.927,0,0
225809,382.294,-887.814,0,0
226070,376.377,-887.367,0,0
226330,370.413,-886.7,0,0
226590,364.452,-885.813,0,0
226851,358.583,-884.695,0,0
227111,352.607,-883.403,0,0
227371,346.726,-881.818,0,0
227632,340.881,-880.133,0,0
227892,334.994,-878.18,0,0
228152,329.169,-875.834,0,0
228413,323.453,-873.173,0,0
228673,317.954,-870.192,0,0
228933,312.771,-867.014,0,0
229193,307.908,-863.626,0,0
229454,303.24,-860.12,0,0
229714,298.803,-856.574,0,0
229974,294.736,-852.985,0,0
230235,290.83,-849.356,0,0
230495,287.068,-845.674,0,0
230755,283.552,-842.022,0,0
231016,280.171,-838.309,0,0
231276,277.006,-834.644,0,0
231536,274.06,-830.993,0,0
231797,271.177,-827.326,0,0
232057,268.503,-823.636,0,0
232317,265.964,-820.023,0,0
232578,263.561,-816.397,0,0
232838,261.374,-812.783,0,0
233098,259.368,-809.213,0,0
233359,257.466,-805.801,0,0
233619,255.622,-802.412,0,0
233879,253.87,-799.045,0,0
234140,252.3,-795.661,0,0
234400,250.888,-792.453,0,0
234660.3,249.536,-789.182,0,0
234920.625,248.264,-786.121,0,0
235180.95,247.163,-783.175,0,0
235441.275,246.145,-780.293,0,0
235701.6,245.046,-777.605,0,0
235961.925,243.843,-774.903,0,0
236222.25,242.745,-772.182,0,0
236482.575,241.66,-769.456,0,0
236742.9,240.67,-766.755,0,0
237003.225,239.72,-764.017,0,0
237263.55,238.881,-761.242,0,0
237523.875,238.191,-758.483,0,0
237784.2,237.697,-755.799,0,0
238044.525,237.319,-753.225,0,0
238304.85,237.086,-750.83,0,0
238565.175,236.89,-748.646,0,0
238825.5,236.737,-746.572,0,0
239085.825,236.532,-744.626,0,0
239346.15,236.309,-742.824,0,0
239606.475,236.1,-741.152,0,0
239866.8,235.863,-739.565,0,0
240127.125,235.465,-738.016,0,0
240387.45,235.144,-736.606,0,0
240647.775,234.733,-735.331,0,0
240908.1,234.329,-733.966,0,0
241168.425,233.798,-732.756,0,0
241428.75,233.252,-731.57,0,0
241689.075,232.555,-730.459,0,0
241949.4,231.868,-729.293,0,0
242209.725,231.066,-728.238,0,0
242470.05,230.201,-727.247,0,0
242730.375,229.287,-726.153,0,0
242990.7,228.224,-725.038,0,0
243251.025,227.204,-723.858,0,0
243511.35,226.077,-722.707,0,0
243771.675,224.922,-721.573,0,0
244032.0,223.668,-720.379,0,0
244292.325,222.376,-719.099,0,0
244552.65,220.939,-717.75,0,0
244812.975,219.538,-716.203,0,0
245073.3,218.134,-714.601,0,0
245333.625,216.76,-712.847,0,0
245593.95,215.539,-711.014,0,0
245854.275,214.406,-709.123,0,0
246114.6,213.336,-707.249,0,0
246374.925,212.282,-705.324,0,0
246635.25,211.316,-703.363,0,0
246895.575,210.399,-701.309,0,0
247155.9,209.715,-699.267,0,0
247416.225,209.168,-697.295,0,0
247676.55,208.67,-695.541,0,0
247936.875,208.132,-693.927,0,0
248197.2,207.513,-692.292,0,0
248457.525,206.817,-690.638,0,0
248717.85,206.14,-689.038,0,0
248978.175,205.461,-687.413,0,0
249238.5,204.881,-685.738,0,0
249498.825,204.276,-684.105,0,0
249759.15,203.693,-682.56,0,0
250019.475,203.092,-680.99,0,0
250279.8,202.467,-679.509,0,0
250540,201.822,-678.125,0,0
250800,201.1,-676.74,0,0
251061,200.307,-675.429,0,0
251321,199.355,-674.155,0,0
251581,198.188,-672.797,0,0
251842,196.936,-671.273,0,0
252102,195.543,-669.634,0,0
252362,194.074,-667.867,0,0
252623,192.6,-665.805,0,0
252883,191.109,-663.507,0,0
253143,189.743,-661.021,0,0
253404,188.565,-658.348,0,0
253664,187.54,-655.572,0,0
253924,186.653,-652.819,0,0
254185,185.771,-650.045,0,0
254445,184.927,-647.136,0,0
254705,184.154,-644.126,0,0
254966,183.39,-640.939,0,0
255226,182.801,-637.607,0,0
255486,182.369,-634.032,0,0
255747,182.194,-630.342,0,0
256007,182.267,-626.527,0,0
256267,182.661,-622.677,0,0
256528,183.286,-618.913,0,0
256788,184.109,-615.11,0,0
257048,185.162,-611.312,0,0
257309,186.474,-607.526,0,0
257569,188.067,-603.831,0,0
257829,189.882,-600.22,0,0
258090,191.898,-596.74,0,0
258350,194.07,-593.3,0,0
258610,196.536,-589.865,0,0
258871,199.38,-586.621,0,0
259131,202.551,-583.642,0,0
259391,205.879,-581.089,0,0
259651,209.217,-578.853,0,0
259912,212.495,-576.784,0,0
260172,215.771,-574.708,0,0
260432,219.284,-572.749,0,0
260693,223.057,-570.925,0,0
260953,227.056,-569.44,0,0
261213,231.184,-568.327,0,0
261474,235.321,-567.612,0,0
261734,239.35,-567.178,0,0
261994,243.26,-566.864,0,0
262255,247.263,-566.642,0,0
262515,251.442,-566.575,0,0
262775,255.85,-566.834,0,0
263036,260.348,-567.642,0,0
263296,264.757,-568.883,0,0
263556,269.041,-570.591,0,0
263817,273.063,-572.714,0,0
264077,276.83,-575.107,0,0
264337,280.271,-577.826,0,0
264598,283.403,-580.725,0,0
264858,286.238,-583.703,0,0
265118,288.91,-586.779,0,0
265379,291.364,-589.917,0,0
265639,293.721,-593.291,0,0
265899,295.838,-596.869,0,0
266160,297.686,-600.599,0,0
266420,299.281,-604.458,0,0
266680.25,300.561,-608.404,0,0
266940.575,301.647,-612.39,0,0
267200.9,302.575,-616.624,0,0
267461.225,303.12,-621.063,0,0
267721.55,303.228,-625.542,0,0
267981.875,302.964,-630.111,0,0
268242.2,302.302,-634.734,0,0
268502.525,301.075,-639.482,0,0
268762.85,299.236,-643.964,0,0
269023.175,296.797,-648.229,0,0
269283.5,293.767,-651.992,0,0
269543.825,290.441,-654.988,0,0
269804.15,287.028,-657.279,0,0
270064.475,284.008,-658.909,0,0
270324.8,281.24,-660.335,0,0
270585.125,278.759,-661.597,0,0
270845.45,276.445,-662.695,0,0
271105.775,274.414,-663.797,0,0
271366.1,272.492,-664.967,0,0
271626.425,270.629,-666.204,0,0
271886.75,268.867,-667.494,0,0
272147.075,267.081,-668.875,0,0
272407.4,265.189,-670.393,0,0
272667.725,263.246,-671.963,0,0
272928.05,261.103,-673.481,0,0
273188.375,258.943,-675.035,0,0
273448.7,256.707,-676.609,0,0
273709.025,254.261,-678.233,0,0
273969.35,251.636,-679.835,0,0
274229.675,248.849,-681.355,0,0
274490.0,245.769,-682.933,0,0
274750.325,242.432,-684.366,0,0
275010.65,238.728,-685.546,0,0
275270.975,234.854,-686.374,0,0
275531.3,230.919,-686.834,0,0
275791.625,226.954,-686.993,0,0
276051.95,222.977,-686.951,0,0
276312.275,218.937,-686.661,0,0
276572.6,214.814,-686.09,0,0
276832.925,210.625,-685.171,0,0
277093.25,206.481,-683.784,0,0
277353.575,202.449,-681.978,0,0
277613.9,198.652,-679.795,0,0
277874.225,195.15,-677.265,0,0
278134.55,191.959,-674.384,0,0
278394.875,189.162,-671.285,0,0
278655.2,186.86,-667.955,0,0
278915.525,185.098,-664.581,0,0
279175.85,183.777,-661.291,0,0
279436.175,182.933,-658.171,0,0
279696.5,182.399,-655.302,0,0
279956.825,182.164,-652.737,0,0
280217.15,182.127,-650.55,0,0
280477.475,182.067,-648.713,0,0
280737.8,181.852,-647.102,0,0
280998.125,181.584,-645.632,0,0
281258.45,181.211,-644.245,0,0
281518.775,180.724,-642.932,0,0
281779.1,180.086,-641.49,0,0
282039.425,179.495,-639.831,0,0
282299.75,179.179,-638.094,0,0
282560,179.085,-636.376,0,0
282820,179.239,-634.874,0,0
283081,179.474,-633.583,0,0
283341,179.746,-632.571,0,0
283601,179.931,-631.826,0,0
283862,179.926,-631.268,0,0
284122,179.743,-630.729,0,0
284382,179.402,-630.181,0,0
284643,179.061,-629.619,0,0
284903,178.641,-629.098,0,0
285163,178.11,-628.635,0,0
285424,177.458,-628.179,0,0
285684,176.648,-627.679,0,0
285944,175.709,-627.113,0,0
286205,174.584,-626.398,0,0
286465,173.39,-625.447,0,0
286725,172.256,-624.269,0,0
286986,171.199,-623.042,0,0
287246,170.099,-621.644,0,0
287506,169.024,-620.109,0,0
287767,167.948,-618.336,0,0
288027,167.007,-616.333,0,0
288287,166.267,-614.071,0,0
288548,165.755,-611.594,0,0
288808,165.608,-608.947,0,0
289068,165.862,-606.203,0,0
289329,166.596,-603.469,0,0
289589,167.714,-600.91,0,0
289849,169.219,-598.603,0,0
290109,170.987,-596.57,0,0
290370,172.97,-594.843,0,0
290630,175.16,-593.42,0,0
290890,177.453,-592.314,0,0
291151,179.882,-591.56,0,0
291411,182.387,-591.156,0,0
291671,184.905,-591.137,0,0
291932,187.392,-591.463,0,0
292192,189.824,-592.17,0,0
292452,192.17,-593.287,0,0
292713,194.284,-594.785,0,0
292973,196.143,-596.644,0,0
293233,197.636,-598.777,0,0
293494,198.765,-601.063,0,0
293754,199.582,-603.472,0,0
294014,200.076,-605.98,0,0
294275,200.294,-608.605,0,0
294535,200.109,-611.312,0,0
294795,199.547,-613.997,0,0
295056,198.566,-616.614,0,0
295316,197.221,-619.148,0,0
295576,195.545,-621.472,0,0
295837,193.583,-623.547,0,0
296097,191.358,-625.309,0,0
296357,188.955,-626.76,0,0
296618,186.452,-627.883,0,0
296878,183.918,-628.655,0,0
297138,181.457,-629.151,0,0
297399,179.081,-629.408,0,0
297659,176.788,-629.513,0,0
297919,174.608,-629.432,0,0
298180,172.53,-629.26,0,0
298440,170.58,-628.982,0,0
298700.2,168.746,-628.667,0,0
298960.525,166.98,-628.345,0,0
299220.85,165.254,-628.026,0,0
299481.175,163.539,-627.718,0,0
299741.5,161.841,-627.364,0,0
300001.825,160.109,-626.989,0,0
300262.15,158.371,-626.53,0,0
300522.475,156.635,-626.021,0,0
300782.8,154.903,-625.443,0,0
301043.125,153.185,-624.794,0,0
301303.45,151.505,-624.048,0,0
301563.775,149.872,-623.238,0,0
301824.1,148.335,-622.367,0,0
302084.425,146.845,-621.454,0,0
302344.75,145.411,-620.571,0,0
302605.075,144.005,-619.656,0,0
302865.4,142.606,-618.743,0,0
303125.725,141.201,-617.789,0,0
303386.05,139.797,-616.732,0,0
303646.375,138.458,-615.619,0,0
303906.7,137.183,-614.459,0,0
304167.025,135.983,-613.258,0,0
304427.35,134.843,-612.02,0,0
304687.675,133.775,-610.744,0,0
304948.0,132.796,-609.451,0,0
305208.325,131.899,-608.187,0,0
305468.65,131.077,-606.936,0,0
305728.975,130.286,-605.706,0,0
305989.3,129.532,-604.48,0,0
306249.625,128.828,-603.228,0,0
306509.95,128.222,-601.978,0,0
306770.275,127.692,-600.753,0,0
307030.6,127.251,-599.577,0,0
307290.925,126.871,-598.476,0,0
307551.25,126.51,-597.47,0,0
307811.575,126.183,-596.504,0,0
308071.9,125.867,-595.591,0,0
308332.225,125.583,-594.733,0,0
308592.55,125.307,-593.963,0,0
308852.875,125.006,-593.292,0,0
309113.2,124.668,-592.696,0,0
309373.525,124.27,-592.171,0,0
309633.85,123.781,-591.661,0,0
309894.175,123.208,-591.167,0,0
310154.5,122.567,-590.656,0,0
310414.825,121.839,-590.122,0,0
310675.15,121.072,-589.437,0,0
310935.475,120.32,-588.737,0,0
311195.8,119.555,-587.999,0,0
311456.125,118.858,-587.209,0,0
311716.45,118.14,-586.378,0,0
311976.775,117.47,-585.523,0,0
312237.1,116.834,-584.673,0,0
312497.425,116.195,-583.796,0,0
312757.75,115.571,-582.895,0,0
313018.075,115.021,-581.956,0,0
313278.4,114.49,-581.01,0,0
313538.725,114.048,-580.081,0,0
313799.05,113.641,-579.172,0,0
314059.375,113.261,-578.296,0,0
314319.7,112.918,-577.44,0,0
314580,112.65,-576.677,0,0
314840,112.248,-575.877,0,0
315101,111.965,-575.132,0,0
315361,111.654,-574.528,0,0
315621,111.299,-573.802,0,0
315882,110.999,-573.013,0,0
316142,110.725,-572.446,0,0
316402,110.432,-571.796,0,0
316663,110.202,-571.305,0,0
316923,109.854,-570.721,0,0
317183,109.545,-570.272,0,0
317444,109.132,-569.792,0,0
317704,108.764,-569.325,0,0
317964,108.447,-568.945,0,0
318225,108.012,-568.476,0,0
318485,107.642,-568.094,0,0
318745,107.202,-567.736,0,0
319006,106.673,-567.531,0,0
319266,106.236,-567.147,0,0
319526,105.742,-566.98,0,0
319787,105.105,-566.713,0,0
320047,104.396,-566.49,0,0
320307,103.577,-566.343,0,0
320567,102.769,-566.115,0,0
320828,101.797,-565.917,0,0
321088,100.851,-565.597,0,0
321348,99.6981,-565.343,0,0
321609,98.5853,-565.006,0,0
321869,97.2336,-564.54,0,0
322129,95.9482,-564.013,0,0
322390,94.4946,-563.388,0,0
322650,93.052,-562.519,0,0
322910,91.6203,-561.545,0,0
323171,90.2549,-560.37,0,0
323431,88.9516,-559.154,0,0
323691,87.8332,-557.716,0,0
323952,86.7189,-556.379,0,0
324212,85.8267,-554.853,0,0
324472,84.9077,-553.316,0,0
324733,84.2273,-551.916,0,0
324993,83.6279,-550.438,0,0
325253,83.0228,-549.1,0,0
325514,82.4465,-547.793,0,0
325774,81.8193,-546.408,0,0
326034,81.304,-545.04,0,0
326295,80.851,-543.773,0,0
326555,80.3182,-542.482,0,0
326815,79.8792,-541.126,0,0
327076,79.3976,-539.718,0,0
327336,78.9333,-538.377,0,0
327596,78.4891,-537.003,0,0
327857,78.1291,-535.607,0,0
328117,77.8106,-534.223,0,0
328377,77.4857,-532.803,0,0
328638,77.2255,-531.325,0,0
328898,77.0118,-529.839,0,0
329158,76.8564,-528.427,0,0
329419,76.8455,-526.975,0,0
329679,76.7805,-525.429,0,0
329939,76.967,-524.064,0,0
330200,77.0936,-522.694,0,0
330460,77.2699,-521.422,0,0
330720.15,77.5938,-520.214,0,0
330980.475,77.8941,-519.036,0,0
331240.8,78.1809,-517.961,0,0
331501.125,78.4913,-516.944,0,0
331761.45,78.8942,-515.994,0,0
332021.775,79.2189,-515.126,0,0
332282.1,79.5856,-514.346,0,0
332542.425,79.8501,-513.658,0,0
332802.75,80.1275,-513.048,0,0
333063.075,80.3465,-512.437,0,0
333323.4,80.4625,-512.008,0,0
333583.725,80.5139,-511.454,0,0
333844.05,80.4505,-511.016,0,0
334104.375,80.3429,-510.535,0,0
334364.7,80.1539,-509.984,0,0
334625.025,79.8999,-509.368,0,0
334885.35,79.632,-508.827,0,0
335145.675,79.3604,-508.249,0,0
335406.0,78.9699,-507.554,0,0
335666.325,78.6124,-506.83,0,0
335926.65,78.2055,-506.03,0,0
336186.975,77.747,-505.219,0,0
336447.3,77.2884,-504.273,0,0
336707.625,76.9376,-503.284,0,0
336967.95,76.5213,-502.222,0,0
337228.275,76.1946,-501.084,0,0
337488.6,75.9826,-499.954,0,0
337748.925,75.7348,-498.779,0,0
338009.25,75.5892,-497.633,0,0
338269.575,75.4835,-496.42,0,0
338529.9,75.4061,-495.193,0,0
338790.225,75.3533,-493.952,0,0
339050.55,75.3585,-492.682,0,0
339310.875,75.3976,-491.407,0,0
339571.2,75.5826,-490.095,0,0
339831.525,75.8115,-488.774,0,0
340091.85,76.0783,-487.467,0,0
340352.175,76.4192,-486.147,0,0
340612.5,76.8801,-484.915,0,0
340872.825,77.4061,-483.649,0,0
341133.15,78.0171,-482.526,0,0
341393.475,78.7558,-481.368,0,0
341653.8,79.4887,-480.314,0,0
341914.125,80.3724,-479.362,0,0
342174.45,81.2927,-478.491,0,0
342434.775,82.3031,-477.807,0,0
342695.1,83.2641,-477.273,0,0
342955.425,84.1561,-476.832,0,0
343215.75,85.0502,-476.465,0,0
343476.075,85.9062,-476.355,0,0
343736.4,86.6769,-476.289,0,0
343996.725,87.4265,-476.203,0,0
344257.05,87.9434,-476.268,0,0
344517.375,88.4606,-476.315,0,0
344777.7,88.9569,-476.52,0,0
345038.025,89.2217,-476.658,0,0
345298.35,89.477,-476.795,0,0
345558.675,89.6787,-476.999,0,0
345819.0,89.7452,-477.104,0,0
346079.325,89.7369,-477.26,0,0
346339.65,89.7032,-477.346,0,0
346599.975,89.583,-477.455,0,0
346860,89.381,-477.487,0,0
347121,89.1772,-477.497,0,0
347381,88.9194,-477.5,0,0
347641,88.6389,-477.456,0,0
347902,88.2415,-477.357,0,0
348162,87.8829,-477.26,0,0
348422,87.4952,-477.018,0,0
348683,87.0704,-476.793,0,0
348943,86.6376,-476.525,0,0
349203,86.1682,-476.206,0,0
349464,85.7636,-475.875,0,0
349724,85.3289,-475.462,0,0
349984,84.8989,-475.005,0,0
350245,84.4846,-474.535,0,0
350505,84.1186,-474.005,0,0
350765,83.6237,-473.524,0,0
351025,83.1946,-472.945,0,0
351286,82.8396,-472.384,0,0
351546,82.4374,-471.71,0,0
351806,82.0938,-471.059,0,0
352067,81.7174,-470.362,0,0
352327,81.3699,-469.627,0,0
352587,81.1377,-468.811,0,0
352848,80.9449,-467.938,0,0
353108,80.7809,-467.153,0,0
353368,80.6831,-466.336,0,0
353629,80.693,-465.467,0,0
353889,80.7439,-464.718,0,0
354149,80.8039,-464.008,0,0
354410,80.8749,-463.396,0,0
354670,80.9617,-462.87,0,0
354930,80.9793,-462.304,0,0
355191,81.0329,-461.796,0,0
355451,81.0649,-461.303,0,0
355711,81.1074,-460.778,0,0
355972,81.0666,-460.311,0,0
356232,81.0217,-459.847,0,0
356492,81.019,-459.376,0,0
356753,80.9177,-458.962,0,0
357013,80.7759,-458.537,0,0
357273,80.6341,-458.051,0,0
357534,80.4426,-457.653,0,0
357794,80.1969,-457.144,0,0
358054,79.9863,-456.629,0,0
358315,79.748,-456.088,0,0
358575,79.4598,-455.471,0,0
358835,79.2398,-454.819,0,0
359096,78.9972,-454.193,0,0
359356,78.7756,-453.479,0,0
359616,78.6064,-452.739,0,0
359877,78.3927,-451.91,0,0
360137,78.2101,-451.209,0,0
360397,78.0416,-450.413,0,0
360658,77.9285,-449.54,0,0
360918,77.885,-448.654,0,0
361178,77.8908,-447.831,0,0
361438,77.9627,-446.905,0,0
361699,78.1037,-446.051,0,0
361959,78.2492,-445.259,0,0
362219,78.4785,-444.47,0,0
362480,78.6618,-443.72,0,0
362740.1,78.9039,-443.034,0,0
363000.425,79.1771,-442.397,0,0
363260.75,79.3159,-441.846,0,0
363521.075,79.4802,-441.246,0,0
363781.4,79.6009,-440.751,0,0
364041.725,79.7438,-440.225,0,0
364302.05,79.8046,-439.651,0,0
364562.375,79.8088,-439.065,0,0
364822.7,79.7905,-438.467,0,0
365083.025,79.7828,-437.813,0,0
365343.35,79.7145,-437.151,0,0
365603.675,79.7369,-436.388,0,0
365864.0,79.7474,-435.485,0,0
366124.325,79.8196,-434.671,0,0
366384.65,79.9601,-433.728,0,0
366644.975,80.1793,-432.813,0,0
366905.3,80.4558,-431.931,0,0
367165.625,80.7546,-431.022,0,0
367425.95,81.1211,-430.151,0,0
367686.275,81.5213,-429.305,0,0
367946.6,81.9879,-428.448,0,0
368206.925,82.5193,-427.559,0,0
368467.25,83.086,-426.733,0,0
368727.575,83.7039,-425.901,0,0
368987.9,84.3694,-425.208,0,0
369248.225,85.1247,-424.438,0,0
369508.55,85.8817,-423.774,0,0
369768.875,86.7077,-423.16,0,0
370029.2,87.5423,-422.61,0,0
370289.525,88.4139,-422.074,0,0
370549.85,89.3821,-421.589,0,0
370810.175,90.398,-421.236,0,0
371070.5,91.4248,-420.88,0,0
371330.825,92.5624,-420.723,0,0
371591.15,93.6543,-420.718,0,0
371851.475,94.7217,-420.794,0,0
372111.8,95.7451,-421.01,0,0
372372.125,96.7202,-421.362,0,0
372632.45,97.6399,-421.8,0,0
372892.775,98.4815,-422.331,0,0
373153.1,99.2119,-422.956,0,0
373413.425,99.7903,-423.73,0,0
373673.75,100.265,-424.467,0,0
373934.075,100.531,-425.341,0,0
374194.4,100.67,-426.13,0,0
374454.725,100.641,-426.956,0,0
374715.05,100.476,-427.588,0,0
374975.375,100.246,-428.177,0,0
375235.7,99.9134,-428.613,0,0
375496.025,99.6097,-428.99,0,0
375756.35,99.2781,-429.205,0,0
376016.675,98.984,-429.487,0,0
376277.0,98.7495,-429.615,0,0
376537.325,98.4956,-429.854,0,0
376797.65,98.2341,-429.924,0,0
377057.975,98.0345,-430.07,0,0
377318.3,97.7661,-430.192,0,0
377578.625,97.5501,-430.259,0,0
377838.95,97.3048,-430.379,0,0
378099.275,97.0955,-430.469,0,0
378359.6,96.7941,-430.605,0,0
378619.925,96.5767,-430.695,0,0
378880,96.2773,-430.751,0,0
379141,95.951,-430.842,0,0
379401,95.5948,-430.862,0,0
379661,95.2705,-430.904,0,0
379922,94.8845,-430.954,0,0
380182,94.5831,-430.875,0,0
380442,94.2091,-430.829,0,0
380703,93.8343,-430.765,0,0
380963,93.4348,-430.604,0,0
381223,93.0826,-430.346,0,0
381483,92.7623,-430.037,0,0
381744,92.5746,-429.757,0,0
382004,92.5731,-429.45,0,0
382264,92.6713,-429.222,0,0
382525,92.7822,-429.125,0,0
382785,92.9133,-429.214,0,0
383045,93.0502,-429.407,0,0
383306,93.1177,-429.764,0,0
383566,93.0558,-430.24,0,0
383826,92.8242,-430.731,0,0
384087,92.4478,-431.222,0,0
384347,91.9565,-431.792,0,0
384607,91.3002,-432.297,0,0
384868,90.5578,-432.701,0,0
385128,89.7388,-433.084,0,0
385388,88.7668,-433.324,0,0
385649,87.7492,-433.508,0,0
385909,86.6171,-433.536,0,0
386169,85.5898,-433.412,0,0
386430,84.3722,-433.175,0,0
386690,83.2812,-432.885,0,0
386950,82.1403,-432.399,0,0
387211,81.1034,-431.856,0,0
387471,80.0495,-431.143,0,0
387731,79.159,-430.308,0,0
387992,78.3002,-429.387,0,0
388252,77.6361,-428.456,0,0
388512,77.0396,-427.456,0,0
388773,76.5834,-426.485,0,0
389033,76.2771,-425.444,0,0
389293,76.1108,-424.425,0,0
389554,76.0859,-423.489,0,0
389814,76.1539,-422.638,0,0
390074,76.2891,-421.953,0,0
390335,76.483,-421.329,0,0
390595,76.6829,-420.939,0,0
390855,76.9256,-420.625,0,0
391116,77.1036,-420.437,0,0
391376,77.2287,-420.417,0,0
391636,77.2157,-420.458,0,0
391896,77.059,-420.684,0,0
392157,76.7644,-420.862,0,0
392417,76.3204,-421.026,0,0
392677,75.719,-421.109,0,0
392938,75.0078,-421.155,0,0
393198,74.2468,-421.082,0,0
393458,73.4603,-420.912,0,0
393719,72.5713,-420.638,0,0
393979,71.7326,-420.296,0,0
394239,70.8446,-419.906,0,0
394500,69.975,-419.333,0,0
394760.05,69.1726,-418.723,0,0
395020.375,68.3448,-418.05,0,0
395280.7,67.5978,-417.351,0,0
395541.025,66.8805,-416.539,0,0
395801.35,66.2451,-415.737,0,0
396061.675,65.6458,-414.91,0,0
396322.0,65.1224,-414.097,0,0
396582.325,64.6152,-413.216,0,0
396842.65,64.1331,-412.408,0,0
397102.975,63.6698,-411.563,0,0
397363.3,63.182,-410.721,0,0
397623.625,62.7371,-409.861,0,0
397883.95,62.2659,-408.961,0,0
398144.275,61.8805,-408.014,0,0
398404.6,61.4244,-407.142,0,0
398664.925,61.0906,-406.195,0,0
398925.25,60.7549,-405.212,0,0
399185.575,60.4474,-404.232,0,0
399445.9,60.1848,-403.239,0,0
399706.225,59.8515,-402.257,0,0
399966.55,59.7469,-401.196,0,0
400006.6,59.7073,-401.07,0,0