File: Accelerated corrosion test data/2025-10-14_18-00-03/sample_3.csv
Frequency (Hz),Impedance (ohms),Phase (Radians),Temperature (C),Humidity (%)
10000.0,254.448,-11801.2,0,0
10260.325,248.358,-11503.5,0,0
10520.65,242.619,-11220.7,0,0
10780.975,238.42,-10950.3,0,0
11041.3,231.925,-10698.6,0,0
11301.625,226.545,-10453,0,0
11561.95,222.056,-10218.6,0,0
11822.275,217.452,-9995.63,0,0
12082.6,214.276,-9781.98,0,0
12342.925,212.921,-9576.18,0,0
12603.25,205.03,-9381.72,0,0
12863.575,201.778,-9191.52,0,0
13123.9,202.254,-9008.42,0,0
13384.225,195.064,-8839.84,0,0
13644.55,191.335,-8672,0,0
13904.875,187.483,-8507.52,0,0
14165.2,188.266,-8351.31,0,0
14425.525,183.347,-8201.54,0,0
14685.8,180.16,-8055.36,0,0
14946.175,177.656,-7918.1,0,0
15206.5,175.714,-7777.07,0,0
15466.825,183.603,-7636.5,0,0
15727.15,195.075,-7539.48,0,0
15987.5,173.666,-7422.44,0,0
16247.8,169.971,-7293.91,0,0
16508.125,163.082,-7181.54,0,0
16768.45,169.918,-7062.11,0,0
17028.775,159.068,-6962.83,0,0
17289.1,163.808,-6849.78,0,0
17549.425,157.777,-6757.97,0,0
17809.75,158.613,-6653.5,0,0
18070.075,162.346,-6567.55,0,0
18330.4,152.395,-6471.87,0,0
18590.725,150.005,-6381.03,0,0
18851.05,146.121,-6290.69,0,0
19111.375,148.206,-6201.92,0,0
19371.7,146.376,-6118.07,0,0
19632.025,147.554,-6033.93,0,0
19892.35,151.252,-5952.96,0,0
20152.675,150.129,-5878.81,0,0
20413.0,160.544,-5802.75,0,0
20673.3,168.353,-5732.94,0,0
20933.65,161.221,-5681.37,0,0
21193.975,161.561,-5614.84,0,0
21454.3,145.022,-5553.56,0,0
21714.625,140.127,-5477.77,0,0
21974.9,143.33,-5413.3,0,0
22235.275,140.291,-5355.04,0,0
22495.6,138.259,-5292.75,0,0
22755.925,131.363,-5231.86,0,0
23016.25,129.024,-5172.93,0,0
23276.6,129.728,-5110.82,0,0
23536.9,129.449,-5064.96,0,0
23797.225,122.322,-5006.02,0,0
24057.55,120.022,-4949.03,0,0
24317.875,120.843,-4893.05,0,0
24578.2,117.436,-4843.8,0,0
24838.525,119.348,-4791.13,0,0
25098.85,116.428,-4743.62,0,0
25359.175,114.585,-4694.03,0,0
25619.5,114.505,-4646.43,0,0
25879.8,112.08,-4599.11,0,0
26140.1,109.439,-4551.71,0,0
26400.5,108.565,-4504.85,0,0
26660.8,108.865,-4459.9,0,0
26921.1,109.469,-4415.16,0,0
27181.4,109.589,-4375.07,0,0
27441.8,109.156,-4331.28,0,0
27702.1,108.726,-4292.27,0,0
27962.4,106.33,-4251.17,0,0
28222.7,105.257,-4207.95,0,0
28483.1,113.211,-4167.04,0,0
28743.4,114.758,-4132.76,0,0
29003.7,115.691,-4102.91,0,0
29264,109.069,-4067.73,0,0
29524.4,108.993,-4031.72,0,0
29784.7,105.435,-3996.15,0,0
30045,102.913,-3962.35,0,0
30305.3,101.582,-3925.06,0,0
30565.7,102.599,-3891.41,0,0
30826,102.209,-3858.95,0,0
31086.3,103.449,-3826.68,0,0
31346.6,99.6282,-3795.68,0,0
31607,99.0015,-3761.81,0,0
31867.3,99.4606,-3727.84,0,0
32127.6,102.457,-3694.39,0,0
32387.9,111.33,-3666.69,0,0
32648.3,112.815,-3648.38,0,0
32908.6,104.642,-3623.52,0,0
33168.9,101.871,-3596.44,0,0
33429.2,99.8062,-3570.54,0,0
33689.6,94.2742,-3542.18,0,0
33949.9,91.7037,-3512.41,0,0
34210.2,91.3448,-3484.25,0,0
34470.5,90.7255,-3458.43,0,0
34730.9,88.5727,-3431.69,0,0
34991.2,87.1689,-3405.08,0,0
35251.5,86.8492,-3379.1,0,0
35511.8,85.6243,-3354.02,0,0
35772.2,84.9236,-3328.87,0,0
36032.5,84.1566,-3304.04,0,0
36292.8,83.6032,-3279.49,0,0
36553.1,83.1716,-3255.9,0,0
36813.5,82.3536,-3232.65,0,0
37073.8,81.8958,-3209.39,0,0
37334.1,81.043,-3185.95,0,0
37594.4,80.9254,-3163.19,0,0
37854.8,80.3012,-3141.5,0,0
38115.1,79.6978,-3119.29,0,0
38375.4,79.4374,-3097.5,0,0
38635.7,78.7721,-3076.04,0,0
38896.1,78.2555,-3054.82,0,0
39156.4,77.9336,-3033.95,0,0
39416.7,77.9205,-3013.76,0,0
39677,77.2203,-2993.64,0,0
39937.4,76.4249,-2973.51,0,0
40197.7,76.3587,-2953.43,0,0
40458,75.6312,-2933.88,0,0
40718.3,75.4259,-2914.65,0,0
40978.7,75.2015,-2895.28,0,0
41239,75.1699,-2876.49,0,0
41499.3,74.8962,-2857.97,0,0
41759.6,75.0981,-2839.55,0,0
42020,74.5614,-2821.78,0,0
42280.275,74.527,-2804.14,0,0
42540.6,73.7869,-2786.54,0,0
42800.925,73.9264,-2769.08,0,0
43061.25,73.1264,-2752.35,0,0
43321.575,72.5643,-2734.92,0,0
43581.9,72.5878,-2717.8,0,0
43842.225,72.3874,-2700.94,0,0
44102.55,72.5747,-2684.53,0,0
44362.875,72.6697,-2668.83,0,0
44623.2,71.8912,-2652.79,0,0
44883.525,71.7568,-2636.83,0,0
45143.85,71.5866,-2621.08,0,0
45404.175,70.9334,-2605.43,0,0
45664.5,70.9204,-2589.66,0,0
45924.825,71.4817,-2574.8,0,0
46185.15,70.8924,-2560.52,0,0
46445.475,70.405,-2545.26,0,0
46705.8,70.4353,-2530.13,0,0
46966.125,70.2095,-2515.83,0,0
47226.45,70.1678,-2501.58,0,0
47486.775,70.0892,-2486.97,0,0
47747.1,70.9732,-2472.81,0,0
48007.425,70.9271,-2459.69,0,0
48267.75,71.0419,-2446.68,0,0
48528.075,70.1957,-2433.19,0,0
48788.4,69.8721,-2420.24,0,0
49048.725,69.1553,-2407.09,0,0
49309.05,68.4722,-2393.57,0,0
49569.375,68.5062,-2380.33,0,0
49829.7,68.2419,-2367.55,0,0
50090.025,67.7138,-2354.86,0,0
50350.35,67.1434,-2341.88,0,0
50610.675,67.0863,-2328.92,0,0
50871.0,66.9197,-2316.31,0,0
51131.325,66.8231,-2303.82,0,0
51391.65,66.7871,-2291.44,0,0
51651.975,66.8223,-2279.05,0,0
51912.3,66.8414,-2267.16,0,0
52172.625,66.6103,-2255.15,0,0
52432.95,66.4588,-2242.99,0,0
52693.275,66.762,-2231.06,0,0
52953.6,67.1166,-2219.13,0,0
53213.925,67.8759,-2207.65,0,0
53474.25,68.6942,-2196.95,0,0
53734.575,68.6906,-2186.05,0,0
53994.9,69.1768,-2174.97,0,0
54255.225,70.2356,-2164.31,0,0
54515.55,70.9784,-2155.42,0,0
54775.875,70.1625,-2146.1,0,0
55036.2,69.4473,-2136.18,0,0
55296.525,68.7255,-2126.78,0,0
55556.85,67.3159,-2116.99,0,0
55817.175,65.9318,-2106.45,0,0
56077.5,64.8051,-2095.93,0,0
56337.825,64.1685,-2085.41,0,0
56598.15,63.0354,-2074.92,0,0
56858.475,62.2322,-2064.14,0,0
57118.8,61.8124,-2053.17,0,0
57379.125,61.7751,-2042.71,0,0
57639.45,61.7767,-2032.16,0,0
57899.775,61.7146,-2022.01,0,0
58160.1,61.7437,-2012.04,0,0
58420.4,61.7113,-2002.07,0,0
58680.7,61.664,-1992.02,0,0
58941.1,61.7457,-1982.13,0,0
59201.4,61.9552,-1972.24,0,0
59461.7,62.2465,-1962.66,0,0
59722,62.5794,-1953.15,0,0
59982.4,62.8736,-1943.74,0,0
60242.7,63.0451,-1934.52,0,0
60503,63.3056,-1925.25,0,0
60763.3,63.7361,-1915.93,0,0
61023.7,63.9474,-1906.82,0,0
61284,64.369,-1897.71,0,0
61544.3,65.0905,-1888.71,0,0
61804.6,65.4392,-1880.17,0,0
62065,65.6548,-1871.1,0,0
62325.3,66.4065,-1862.31,0,0
62585.6,66.7821,-1853.5,0,0
62845.9,67.5425,-1844.44,0,0
63106.3,68.797,-1835.78,0,0
63366.6,69.5139,-1827.46,0,0
63626.9,70.8068,-1818.57,0,0
63887.2,72.1903,-1810.27,0,0
64147.6,73.7945,-1801.48,0,0
64407.9,76.2058,-1793.33,0,0
64668.2,78.7283,-1785.98,0,0
64928.5,81.5829,-1778.42,0,0
65188.9,85.3076,-1772.71,0,0
65449.2,88.0413,-1768.04,0,0
65709.5,90.2037,-1763.58,0,0
65969.8,93.5182,-1761.34,0,0
66230.2,92.0376,-1762.14,0,0
66490.5,85.7027,-1758.45,0,0
66750.8,81.5259,-1751.98,0,0
67011.1,78.7404,-1743.91,0,0
67271.5,76.1209,-1735.35,0,0
67531.8,75.3934,-1726.81,0,0
67792.1,75.4732,-1718.67,0,0
68052.4,75.6899,-1710.78,0,0
68312.8,76.7754,-1704.12,0,0
68573.1,76.6905,-1697.95,0,0
68833.4,76.7493,-1691.31,0,0
69093.7,77.4928,-1685.04,0,0
69354.1,77.6719,-1679.85,0,0
69614.4,77.2056,-1674.38,0,0
69874.7,76.1785,-1668.79,0,0
70135,75.3203,-1663.07,0,0
70395.4,74.407,-1657.11,0,0
70655.7,72.9454,-1651.11,0,0
70916,71.7093,-1644.49,0,0
71176.3,70.8477,-1637.75,0,0
71436.7,70.1838,-1631.25,0,0
71697,69.4246,-1624.15,0,0
71957.3,69.5714,-1617.52,0,0
72217.6,69.5626,-1611.2,0,0
72478,69.6474,-1605.19,0,0
72738.3,69.7123,-1599.43,0,0
72998.6,69.2591,-1593.92,0,0
73258.9,68.7681,-1588.15,0,0
73519.3,68.3171,-1582.43,0,0
73779.6,67.8684,-1576.85,0,0
74039.9,67.1991,-1571.24,0,0
74300.225,66.4187,-1565.55,0,0
74560.55,65.6928,-1559.81,0,0
74820.875,64.9538,-1554.03,0,0
75081.2,64.2006,-1548.2,0,0
75341.525,63.4812,-1542.39,0,0
75601.85,62.7083,-1536.57,0,0
75862.175,62.0537,-1530.71,0,0
76122.5,61.3318,-1524.77,0,0
76382.825,60.7833,-1518.84,0,0
76643.15,60.2747,-1512.92,0,0
76903.475,59.7277,-1507.15,0,0
77163.8,59.3252,-1501.3,0,0
77424.125,58.8621,-1495.6,0,0
77684.45,58.3464,-1489.85,0,0
77944.775,57.9391,-1484.14,0,0
78205.1,57.4035,-1478.34,0,0
78465.425,56.9854,-1472.64,0,0
78725.75,56.606,-1466.96,0,0
78986.075,56.2098,-1461.33,0,0
79246.4,55.8305,-1455.64,0,0
79506.725,55.5787,-1450.03,0,0
79767.05,55.2372,-1444.36,0,0
80027.375,54.9533,-1438.76,0,0
80287.7,54.7613,-1433.22,0,0
80548.025,54.6053,-1427.74,0,0
80808.35,54.3278,-1422.29,0,0
81068.675,54.1093,-1416.87,0,0
81329.0,53.8895,-1411.39,0,0
81589.325,53.7567,-1406.01,0,0
81849.65,53.702,-1400.64,0,0
82109.975,53.492,-1395.3,0,0
82370.3,53.4018,-1390,0,0
82630.625,53.3553,-1384.75,0,0
82890.95,53.3242,-1379.49,0,0
83151.275,53.1727,-1374.31,0,0
83411.6,53.1062,-1369.05,0,0
83671.925,53.0529,-1364,0,0
83932.25,53.0255,-1358.83,0,0
84192.575,53.0285,-1353.83,0,0
84452.9,53.0115,-1348.77,0,0
84713.225,52.9003,-1343.71,0,0
84973.55,52.9846,-1338.74,0,0
85233.875,52.9196,-1333.8,0,0
85494.2,53.017,-1328.81,0,0
85754.525,53.0708,-1323.93,0,0
86014.85,53.0611,-1319.09,0,0
86275.175,53.0521,-1314.12,0,0
86535.5,53.1288,-1309.34,0,0
86795.825,53.1873,-1304.48,0,0
87056.15,53.2514,-1299.65,0,0
87316.475,53.3237,-1294.89,0,0
87576.8,53.464,-1290.05,0,0
87837.125,53.5686,-1285.27,0,0
88097.45,53.6995,-1280.63,0,0
88357.775,53.9693,-1275.8,0,0
88618.1,54.056,-1271.05,0,0
88878.425,54.2651,-1266.25,0,0
89138.75,54.6217,-1261.42,0,0
89399.075,55.0834,-1256.74,0,0
89659.4,55.686,-1252.34,0,0
89919.725,56.2151,-1247.9,0,0
90180,56.7775,-1243.62,0,0
90440.4,57.0458,-1239.44,0,0
90700.7,57.3955,-1235.11,0,0
90961,57.9493,-1230.85,0,0
91221.3,58.3745,-1226.83,0,0
91481.7,58.8474,-1222.69,0,0
91742,59.3016,-1218.64,0,0
92002.3,59.7705,-1214.56,0,0
92262.6,60.3663,-1210.51,0,0
92523,61.0584,-1206.73,0,0
92783.3,61.5557,-1203.24,0,0
93043.6,61.9785,-1199.46,0,0
93303.9,62.6273,-1195.85,0,0
93564.3,63.2997,-1192.65,0,0
93824.6,63.7714,-1189.64,0,0
94084.9,64.1399,-1186.97,0,0
94345.2,63.6712,-1184.41,0,0
94605.6,63.124,-1181.38,0,0
94865.9,62.5167,-1178.59,0,0
95126.2,61.1693,-1175.62,0,0
95386.5,59.7286,-1171.78,0,0
95646.9,58.7863,-1167.6,0,0
95907.2,57.9058,-1163.44,0,0
96167.5,57.096,-1158.95,0,0
96427.8,56.8775,-1154.44,0,0
96688.2,56.8171,-1150.24,0,0
96948.5,56.7218,-1146.13,0,0
97208.8,56.6799,-1142.05,0,0
97469.1,56.6258,-1138.12,0,0
97729.5,56.5655,-1134.17,0,0
97989.8,56.48,-1130.23,0,0
98250.1,56.3542,-1126.28,0,0
98510.4,56.388,-1122.37,0,0
98770.8,56.454,-1118.59,0,0
99031.1,56.345,-1114.89,0,0
99291.4,56.1233,-1111.12,0,0
99551.7,55.9593,-1107.22,0,0
99812.1,55.8514,-1103.33,0,0
100072,55.715,-1099.44,0,0
100333,55.632,-1095.51,0,0
100593,55.502,-1091.54,0,0
100853,55.4078,-1087.47,0,0
101114,55.5321,-1083.42,0,0
101374,55.6077,-1079.38,0,0
101634,55.7937,-1075.24,0,0
101895,56.06,-1071.16,0,0
102155,56.4382,-1067.05,0,0
102415,57.0617,-1062.84,0,0
102676,57.9953,-1058.94,0,0
102936,58.9374,-1055.46,0,0
103196,59.5838,-1052.16,0,0
103457,60.1824,-1048.78,0,0
103717,60.7496,-1045.4,0,0
103977,61.4863,-1041.89,0,0
104238,62.5107,-1038.73,0,0
104498,63.4422,-1036.16,0,0
104758,63.7859,-1033.8,0,0
105019,63.8044,-1031.17,0,0
105279,63.7266,-1028.29,0,0
105539,63.849,-1025.41,0,0
105800,63.8057,-1022.74,0,0
106060,63.5963,-1020.02,0,0
106320.175,63.2063,-1017.12,0,0
106580.5,62.8348,-1014.12,0,0
106840.825,62.4613,-1011.15,0,0
107101.15,61.9053,-1007.93,0,0
107361.475,61.543,-1004.6,0,0
107621.8,61.1461,-1001.32,0,0
107882.125,60.7764,-997.892,0,0
108142.45,60.4869,-994.479,0,0
108402.775,60.1946,-991.056,0,0
108663.1,59.7883,-987.48,0,0
108923.425,59.4998,-983.747,0,0
109183.75,59.4134,-979.993,0,0
109444.075,59.4565,-976.297,0,0
109704.4,59.4659,-972.652,0,0
109964.725,59.515,-968.968,0,0
110225.05,59.6123,-965.211,0,0
110485.375,59.8645,-961.398,0,0
110745.7,60.5146,-957.641,0,0
111006.025,60.927,-954.112,0,0
111266.35,61.4202,-950.941,0,0
111526.675,62.0074,-947.335,0,0
111787.0,62.5171,-944.033,0,0
112047.325,62.9805,-940.81,0,0
112307.65,63.4937,-937.624,0,0
112567.975,63.8169,-934.519,0,0
112828.3,64.2333,-931.371,0,0
113088.625,64.5485,-928.189,0,0
113348.95,64.8868,-925.076,0,0
113609.275,65.17,-921.88,0,0
113869.6,65.4664,-918.665,0,0
114129.925,65.7868,-915.404,0,0
114390.25,66.0658,-912.074,0,0
114650.575,66.4295,-908.641,0,0
114910.9,66.9605,-905.241,0,0
115171.225,67.5448,-901.878,0,0
115431.55,68.2335,-898.57,0,0
115691.875,68.8522,-895.347,0,0
115952.2,69.453,-892.076,0,0
116212.525,70.1249,-888.682,0,0
116472.85,71.0614,-885.323,0,0
116733.175,72.0685,-882.172,0,0
116993.5,72.9907,-879.135,0,0
117253.825,73.7995,-876.021,0,0
117514.15,74.732,-872.615,0,0
117774.475,76.2737,-869.172,0,0
118034.8,78.0874,-866.442,0,0
118295.125,79.6385,-864.05,0,0
118555.45,81.0368,-861.902,0,0
118815.775,81.9803,-859.652,0,0
119076.1,83.1323,-857.059,0,0
119336.425,84.6527,-854.56,0,0
119596.75,86.4116,-852.445,0,0
119857.075,88.2619,-850.936,0,0
120117.4,89.8582,-850.163,0,0
120377.725,90.3456,-849.713,0,0
120638.05,90.446,-848.69,0,0
120898.375,90.3206,-847.689,0,0
121158.7,89.8837,-846.465,0,0
121419.025,89.0468,-844.961,0,0
121679.35,88.0008,-842.817,0,0
121939.675,87.3328,-840.091,0,0
122200.0,87.1819,-837.265,0,0
122460,87.2477,-834.667,0,0
122721,87.2976,-832.109,0,0
122981,87.5403,-829.414,0,0
123241,88.009,-827.004,0,0
123502,88.276,-824.816,0,0
123762,88.4419,-822.468,0,0
124022,88.7725,-820.146,0,0
124283,89.0536,-817.955,0,0
124543,89.3077,-815.757,0,0
124803,89.5673,-813.545,0,0
125064,89.8549,-811.451,0,0
125324,90.0413,-809.418,0,0
125584,90.2758,-807.34,0,0
125845,90.4737,-805.462,0,0
126105,90.514,-803.662,0,0
126365,90.3689,-801.847,0,0
126626,90.0852,-799.804,0,0
126886,89.8425,-797.743,0,0
127146,89.5912,-795.548,0,0
127406,89.3604,-793.432,0,0
127667,89.0225,-791.398,0,0
127927,88.6565,-789.183,0,0
128187,88.2224,-786.946,0,0
128448,87.6937,-784.586,0,0
128708,87.1771,-781.993,0,0
128968,86.8305,-779.298,0,0
129229,86.663,-776.589,0,0
129489,86.4736,-773.991,0,0
129749,86.239,-771.299,0,0
130010,86.1651,-768.324,0,0
130270,86.5028,-765.432,0,0
130530,87,-762.894,0,0
130791,87.3665,-760.608,0,0
131051,87.5863,-758.464,0,0
131311,87.6826,-756.372,0,0
131572,87.6156,-754.279,0,0
131832,87.4211,-752.112,0,0
132092,87.1493,-749.808,0,0
132353,86.8855,-747.357,0,0
132613,86.8448,-744.868,0,0
132873,86.7747,-742.566,0,0
133134,86.6231,-740.275,0,0
133394,86.4071,-737.954,0,0
133654,86.0752,-735.651,0,0
133915,85.6849,-733.22,0,0
134175,85.3795,-730.623,0,0
134435,85.1326,-728.109,0,0
134696,84.7865,-725.55,0,0
134956,84.4425,-722.959,0,0
135216,84.095,-720.209,0,0
135477,83.9169,-717.518,0,0
135737,83.6825,-714.956,0,0
135997,83.281,-712.277,0,0
136258,82.7637,-709.399,0,0
136518,82.4154,-706.341,0,0
136778,82.2717,-703.166,0,0
137039,82.29,-700.117,0,0
137299,82.3419,-697.008,0,0
137559,82.5112,-694.003,0,0
137819,82.7076,-691.059,0,0
138080,82.9676,-688.128,0,0
138340.125,83.3457,-685.313,0,0
138600.45,83.6988,-682.725,0,0
138860.775,83.8648,-680.271,0,0
139121.1,83.7874,-677.785,0,0
139381.425,83.6191,-675.173,0,0
139641.75,83.4013,-672.404,0,0
139902.075,83.2513,-669.498,0,0
140162.4,83.2291,-666.483,0,0
140422.725,83.3356,-663.605,0,0
140683.05,83.3358,-660.88,0,0
140943.375,83.1939,-658.087,0,0
141203.7,83.0284,-655.171,0,0
141464.025,82.8202,-652.234,0,0
141724.35,82.5514,-649.137,0,0
141984.675,82.3789,-645.861,0,0
142245.0,82.3355,-642.61,0,0
142505.325,82.2515,-639.381,0,0
142765.65,82.2116,-636.021,0,0
143025.975,82.2519,-632.595,0,0
143286.3,82.2819,-629.157,0,0
143546.625,82.4437,-625.709,0,0
143806.95,82.606,-622.225,0,0
144067.275,82.7594,-618.715,0,0
144327.6,82.9846,-615.094,0,0
144587.925,83.2943,-611.442,0,0
144848.25,83.7034,-607.811,0,0
145108.575,84.1647,-604.23,0,0
145368.9,84.5792,-600.597,0,0
145629.225,85.0239,-596.943,0,0
145889.55,85.4445,-593.193,0,0
146149.875,85.9929,-589.319,0,0
146410.2,86.6913,-585.452,0,0
146670.525,87.365,-581.638,0,0
146930.85,88.0756,-577.738,0,0
147191.175,88.8688,-573.751,0,0
147451.5,89.7787,-569.685,0,0
147711.825,90.8603,-565.634,0,0
147972.15,91.9744,-561.645,0,0
148232.475,93.1718,-557.586,0,0
148492.8,94.4424,-553.5,0,0
148753.125,95.8199,-549.413,0,0
149013.45,97.2707,-545.301,0,0
149273.775,98.8618,-541.07,0,0
149534.1,100.694,-536.799,0,0
149794.425,102.828,-532.637,0,0
150054.75,105.078,-528.65,0,0
150315.075,107.485,-524.799,0,0
150575.4,109.963,-521.139,0,0
150835.725,112.455,-517.628,0,0
151096.05,114.939,-514.227,0,0
151356.375,117.487,-510.894,0,0
151616.7,120.103,-507.659,0,0
151877.025,122.788,-504.604,0,0
152137.35,125.451,-501.778,0,0
152397.675,127.981,-499.066,0,0
152658.0,130.457,-496.389,0,0
152918.325,132.964,-493.862,0,0
153178.65,135.294,-491.542,0,0
153438.975,137.359,-489.192,0,0
153699.3,139.318,-486.762,0,0
153959.625,141.227,-484.196,0,0
154219.95,143.286,-481.769,0,0
154480,144.953,-479.579,0,0
154741,145.997,-477.002,0,0
155001,147.138,-473.74,0,0
155261,148.859,-470.026,0,0
155522,151.081,-466.51,0,0
155782,153.286,-463.356,0,0
156042,155.336,-460.178,0,0
156303,157.326,-456.75,0,0
156563,159.472,-452.999,0,0
156823,162.099,-448.955,0,0
157084,165.432,-445.17,0,0
157344,169.136,-442.08,0,0
157604,172.731,-439.541,0,0
157864,176.086,-437.295,0,0
158125,179.211,-435.741,0,0
158385,181.248,-434.399,0,0
158645,182.599,-432.471,0,0
158906,183.863,-430.029,0,0
159166,184.825,-427.098,0,0
159426,185.542,-423.527,0,0
159687,186.105,-418.997,0,0
159947,187.563,-413.284,0,0
160207,190.238,-407.176,0,0
160468,193.979,-401.251,0,0
160728,198.517,-395.981,0,0
160988,202.826,-391.777,0,0
161249,206.3,-386.753,0,0
161509,210.829,-380.582,0,0
161769,216.958,-374.763,0,0
162030,223.537,-370.28,0,0
162290,229.739,-366.006,0,0
162550,236.338,-361.864,0,0
162811,242.759,-357.927,0,0
163071,249.515,-353.458,0,0
163331,257.441,-348.77,0,0
163592,266.447,-344.997,0,0
163852,275.666,-342.101,0,0
164112,285.007,-339.683,0,0
164373,294.807,-337.464,0,0
164633,305.725,-335.915,0,0
164893,317.343,-335.906,0,0
165154,328.808,-337.775,0,0
165414,338.978,-340.802,0,0
165674,348.599,-343.878,0,0
165935,358.254,-347.475,0,0
166195,367.815,-351.738,0,0
166455,377.164,-357.283,0,0
166716,385.338,-363.728,0,0
166976,392.567,-370.467,0,0
167236,399.073,-377.431,0,0
167497,404.946,-384.463,0,0
167757,410.423,-391.836,0,0
168017,415.306,-399.588,0,0
168277,419.19,-407.838,0,0
168538,422.357,-415.808,0,0
168798,425.215,-423.821,0,0
169058,427.588,-432.867,0,0
169319,427.933,-442.502,0,0
169579,426.26,-451.619,0,0
169839,422.852,-459.361,0,0
170100,418.793,-465.184,0,0
170360.075,414.934,-469.452,0,0
170620.4,411.314,-472.724,0,0
170880.725,408.013,-475.327,0,0
171141.05,404.629,-477.04,0,0
171401.375,401.816,-477.496,0,0
171661.7,400.464,-477.432,0,0
171922.025,399.763,-478.085,0,0
172182.35,398.747,-478.634,0,0
172442.675,397.864,-478.377,0,0
172703.0,398.264,-477.277,0,0
172963.325,400.734,-476.937,0,0
173223.65,403.639,-478.554,0,0
173483.975,405.614,-481.404,0,0
173744.3,406.431,-484.331,0,0
174004.625,407.153,-486.602,0,0
174264.95,408.516,-489.103,0,0
174525.275,409.659,-492.891,0,0
174785.6,409.31,-496.973,0,0
175045.925,408.1,-500.23,0,0
175306.25,406.913,-502.208,0,0
175566.575,407.149,-503.979,0,0
175826.9,407.908,-507.107,0,0
176087.225,407.652,-511.1,0,0
176347.55,406.65,-514.877,0,0
176607.875,405.73,-518.926,0,0
176868.2,403.771,-524.109,0,0
177128.525,399.588,-528.988,0,0
177388.85,394.308,-531.982,0,0
177649.175,389.316,-533.705,0,0
177909.5,384.269,-535.042,0,0
178169.825,378.499,-535.248,0,0
178430.15,373.256,-533.729,0,0
178690.475,369.057,-531.428,0,0
178950.8,365.951,-528.812,0,0
179211.125,363.506,-526.294,0,0
179471.45,361.227,-523.641,0,0
179731.775,359.73,-520.418,0,0
179992.1,359.516,-517.406,0,0
180252.425,359.692,-515.299,0,0
180512.75,359.832,-513.458,0,0
180773.075,360.275,-511.757,0,0
181033.4,361.149,-510.337,0,0
181293.725,362.509,-509.55,0,0
181554.05,364.013,-509.706,0,0
181814.375,365.216,-511.158,0,0
182074.7,364.848,-513.39,0,0
182335.025,362.978,-515.083,0,0
182595.35,360.781,-515.721,0,0
182855.675,358.805,-515.861,0,0
183116.0,356.941,-516.099,0,0
183376.325,354.577,-516.44,0,0
183636.65,351.589,-516.344,0,0
183896.975,348.256,-515.405,0,0
184157.3,345.3,-513.628,0,0
184417.625,342.854,-511.733,0,0
184677.95,340.276,-509.925,0,0
184938.275,337.486,-507.62,0,0
185198.6,334.79,-504.742,0,0
185458.925,332.32,-501.357,0,0
185719.25,330.266,-497.577,0,0
185979.575,328.57,-493.439,0,0
186239.9,327.306,-489.022,0,0
186500,326.463,-484.192,0,0
186761,326.692,-479.147,0,0
187021,327.671,-474.491,0,0
187281,329.012,-470.365,0,0
187542,330.739,-466.532,0,0
187802,332.556,-463.194,0,0
188062,334.427,-460.277,0,0
188322,336.419,-457.677,0,0
188583,337.983,-455.778,0,0
188843,338.784,-453.794,0,0
189103,339.338,-451.069,0,0
189364,340.194,-447.802,0,0
189624,341.601,-444.38,0,0
189884,343.585,-441.162,0,0
190145,345.691,-438.481,0,0
190405,347.632,-435.994,0,0
190665,349.544,-433.443,0,0
190926,351.376,-430.973,0,0
191186,353.367,-428.667,0,0
191446,354.896,-426.392,0,0
191707,356.347,-423.635,0,0
191967,358.24,-420.86,0,0
192227,359.988,-418.281,0,0
192488,361.446,-415.249,0,0
192748,362.958,-411.637,0,0
193008,365.023,-407.494,0,0
193269,367.872,-402.949,0,0
193529,371.581,-398.577,0,0
193789,375.782,-394.711,0,0
194050,380.325,-391.011,0,0
194310,385.242,-387.494,0,0
194570,390.758,-384.344,0,0
194831,396.685,-381.61,0,0
195091,402.867,-379.375,0,0
195351,409.446,-377.687,0,0
195612,416.624,-376.616,0,0
195872,423.605,-376.6,0,0
196132,430.408,-377.339,0,0
196393,437.163,-378.981,0,0
196653,443.217,-381.773,0,0
196913,447.834,-385.419,0,0
197174,450.88,-388.526,0,0
197434,453.468,-390.597,0,0
197694,456.32,-392.126,0,0
197955,459.296,-393.71,0,0
198215,462.28,-395.251,0,0
198475,465.412,-397.178,0,0
198735,467.609,-399.636,0,0
198996,469.042,-401.329,0,0
199256,470.738,-402.397,0,0
199516,472.768,-403.546,0,0
199777,474.32,-405.246,0,0
200037,474.954,-406.685,0,0
200297,474.787,-407.137,0,0
200558,474.587,-406.164,0,0
200818,475.39,-404.024,0,0
201078,477.28,-401.605,0,0
201339,479.888,-399.375,0,0
201599,483.035,-397.284,0,0
201859,486.424,-395.242,0,0
202120,490.28,-393.014,0,0
202380.025,495.004,-390.691,0,0
202640.35,500.621,-389.022,0,0
202900.675,506.576,-388.089,0,0
203161.0,512.721,-387.79,0,0
203421.325,518.918,-387.964,0,0
203681.65,525.236,-388.589,0,0
203941.975,531.744,-389.715,0,0
204202.3,538.378,-391.719,0,0
204462.625,544.52,-394.584,0,0
204722.95,550.076,-397.828,0,0
204983.275,555.266,-401.485,0,0
205243.6,559.733,-405.565,0,0
205503.925,563.189,-409.64,0,0
205764.25,566.073,-413.57,0,0
206024.575,567.779,-417.135,0,0
206284.9,568.915,-419.125,0,0
206545.225,570.644,-420.012,0,0
206805.55,573.051,-420.151,0,0
207065.875,576.447,-419.749,0,0
207326.2,581.121,-419.634,0,0
207586.525,586.313,-420.226,0,0
207846.85,591.533,-421.203,0,0
208107.175,597.289,-422.142,0,0
208367.5,603.616,-423.797,0,0
208627.825,609.982,-426.095,0,0
208888.15,616.383,-428.777,0,0
209148.475,622.904,-431.973,0,0
209408.8,629.47,-435.741,0,0
209669.125,635.894,-439.986,0,0
209929.45,642.108,-444.673,0,0
210189.775,648.17,-449.718,0,0
210450.1,654.076,-455.048,0,0
210710.425,659.932,-460.847,0,0
210970.75,665.461,-467.134,0,0
211231.075,670.52,-473.804,0,0
211491.4,675.045,-480.67,0,0
211751.725,679.112,-487.405,0,0
212012.05,683.043,-494.049,0,0
212272.375,686.966,-500.749,0,0
212532.7,690.86,-507.493,0,0
212793.025,694.884,-514.199,0,0
213053.35,699.163,-521.59,0,0
213313.675,703.116,-529.763,0,0
213574.0,706.293,-538.367,0,0
213834.325,708.903,-547.041,0,0
214094.65,710.988,-555.398,0,0
214354.975,713.211,-563.816,0,0
214615.3,715.139,-572.48,0,0
214875.625,716.874,-581.426,0,0
215135.95,718.156,-590.718,0,0
215396.275,718.777,-600.007,0,0
215656.6,718.863,-609.216,0,0
215916.925,718.78,-618.048,0,0
216177.25,718.537,-627.043,0,0
216437.575,718.28,-636.128,0,0
216697.9,717.452,-645.777,0,0
216958.225,715.712,-655.371,0,0
217218.55,713.36,-664.308,0,0
217478.875,711.043,-672.982,0,0
217739.2,708.745,-681.71,0,0
217999.525,705.785,-690.696,0,0
218259.85,702.203,-699.349,0,0
218520,698.188,-707.576,0,0
218780,693.74,-715.023,0,0
219041,689.494,-721.764,0,0
219301,685.68,-728.228,0,0
219561,682.377,-734.73,0,0
219822,679.123,-741.716,0,0
220082,675.501,-749.164,0,0
220342,671.428,-756.532,0,0
220603,667.05,-763.896,0,0
220863,662.358,-771.195,0,0
221123,657.265,-778.406,0,0
221384,652.024,-785.586,0,0
221644,646.618,-792.966,0,0
221904,640.299,-800.48,0,0
222165,633.115,-807.762,0,0
222425,625.458,-814.461,0,0
222685,616.947,-820.557,0,0
222946,608.002,-826.161,0,0
223206,598.015,-830.696,0,0
223466,588.043,-833.52,0,0
223727,578.58,-835.123,0,0
223987,569.764,-835.932,0,0
224247,561.566,-835.866,0,0
224508,554.286,-835.204,0,0
224768,547.927,-834.032,0,0
225028,542.837,-832.899,0,0
225289,538.398,-832.273,0,0
225549,534.761,-831.843,0,0
225809,531.703,-832.152,0,0
226070,528.608,-833.234,0,0
226330,525.291,-834.867,0,0
226590,521.874,-836.522,0,0
226851,518.48,-838.393,0,0
227111,515.197,-840.72,0,0
227371,511.404,-843.614,0,0
227632,506.911,-846.705,0,0
227892,502.009,-849.394,0,0
228152,496.833,-851.985,0,0
228413,491.403,-854.311,0,0
228673,485.725,-856.233,0,0
228933,480.124,-857.785,0,0
229193,474.745,-859.148,0,0
229454,469.294,-860.543,0,0
229714,463.879,-861.889,0,0
229974,458.263,-863.158,0,0
230235,452.703,-864.329,0,0
230495,446.817,-865.291,0,0
230755,440.948,-865.895,0,0
231016,435.109,-866.25,0,0
231276,429.465,-866.47,0,0
231536,423.832,-866.49,0,0
231797,418.333,-866.397,0,0
232057,412.883,-866.182,0,0
232317,407.448,-865.84,0,0
232578,402.202,-865.365,0,0
232838,397.07,-864.908,0,0
233098,391.953,-864.357,0,0
233359,386.918,-863.684,0,0
233619,381.894,-863.077,0,0
233879,376.883,-862.463,0,0
234140,371.785,-861.497,0,0
234400,366.884,-860.527,0,0
234660.3,362.082,-859.52,0,0
234920.625,357.503,-858.579,0,0
235180.95,352.85,-857.74,0,0
235441.275,347.982,-856.915,0,0
235701.6,343.02,-856.105,0,0
235961.925,337.875,-855.039,0,0
236222.25,332.668,-853.709,0,0
236482.575,327.553,-852.124,0,0
236742.9,322.558,-850.361,0,0
237003.225,317.627,-848.673,0,0
237263.55,312.633,-846.865,0,0
237523.875,307.547,-844.854,0,0
237784.2,302.344,-842.64,0,0
238044.525,297.162,-839.974,0,0
238304.85,292.273,-837.007,0,0
238565.175,287.517,-833.727,0,0
238825.5,283.074,-830.281,0,0
239085.825,278.898,-826.597,0,0
239346.15,275.181,-822.81,0,0
239606.475,271.869,-819.168,0,0
239866.8,268.484,-815.592,0,0
240127.125,265.481,-812.12,0,0
240387.45,262.436,-808.698,0,0
240647.775,259.392,-805.289,0,0
240908.1,256.5,-801.748,0,0
241168.425,253.81,-798.111,0,0
241428.75,251.151,-794.289,0,0
241689.075,248.75,-790.358,0,0
241949.4,246.853,-786.342,0,0
242209.725,245.127,-782.474,0,0
242470.05,243.637,-778.937,0,0
242730.375,242.338,-775.358,0,0
242990.7,241.109,-771.837,0,0
243251.025,240.291,-768.455,0,0
243511.35,239.538,-765.302,0,0
243771.675,238.924,-762.463,0,0
244032.0,238.257,-759.945,0,0
244292.325,237.586,-757.595,0,0
244552.65,236.73,-755.314,0,0
244812.975,235.928,-753.162,0,0
245073.3,234.801,-751.013,0,0
245333.625,233.728,-748.842,0,0
245593.95,232.541,-746.56,0,0
245854.275,231.477,-744.326,0,0
246114.6,230.38,-742.084,0,0
246374.925,229.279,-739.657,0,0
246635.25,228.385,-737.241,0,0
246895.575,227.653,-734.918,0,0
247155.9,226.961,-732.714,0,0
247416.225,226.162,-730.612,0,0
247676.55,225.349,-728.464,0,0
247936.875,224.522,-726.215,0,0
248197.2,223.884,-723.87,0,0
248457.525,223.371,-721.566,0,0
248717.85,223.169,-719.296,0,0
248978.175,223.201,-717.352,0,0
249238.5,223.144,-715.734,0,0
249498.825,223.005,-714.381,0,0
249759.15,222.712,-713.127,0,0
250019.475,222.306,-712.006,0,0
250279.8,221.683,-710.989,0,0
250540,220.773,-710.002,0,0
250800,219.689,-708.962,0,0
251061,218.456,-707.792,0,0
251321,217.122,-706.496,0,0
251581,215.71,-705.034,0,0
251842,214.212,-703.529,0,0
252102,212.648,-701.902,0,0
252362,210.923,-700.018,0,0
252623,209.231,-697.853,0,0
252883,207.691,-695.416,0,0
253143,206.236,-692.793,0,0
253404,205.041,-690.102,0,0
253664,203.923,-687.352,0,0
253924,202.897,-684.432,0,0
254185,202.086,-681.383,0,0
254445,201.504,-678.199,0,0
254705,201.144,-675.135,0,0
254966,200.931,-671.948,0,0
255226,200.872,-668.661,0,0
255486,201.11,-665.308,0,0
255747,201.665,-661.954,0,0
256007,202.579,-658.688,0,0
256267,203.837,-655.596,0,0
256528,205.378,-652.842,0,0
256788,207.042,-650.451,0,0
257048,208.63,-648.208,0,0
257309,210.333,-646.258,0,0
257569,212,-644.582,0,0
257829,213.502,-643.02,0,0
258090,214.887,-641.494,0,0
258350,216.207,-639.896,0,0
258610,217.573,-638.111,0,0
258871,219.241,-636.208,0,0
259131,221.256,-634.335,0,0
259391,223.657,-632.633,0,0
259651,226.414,-631.309,0,0
259912,229.334,-630.451,0,0
260172,232.363,-630.023,0,0
260432,235.424,-629.871,0,0
260693,238.589,-630.203,0,0
260953,241.77,-631.129,0,0
261213,244.764,-632.634,0,0
261474,247.392,-634.756,0,0
261734,249.527,-637.269,0,0
261994,251.15,-640.072,0,0
262255,252.263,-643.073,0,0
262515,252.765,-646.159,0,0
262775,252.723,-649.167,0,0
263036,252.253,-652.017,0,0
263296,251.463,-654.682,0,0
263556,250.392,-657.297,0,0
263817,249.012,-659.789,0,0
264077,247.206,-662.172,0,0
264337,245.037,-664.217,0,0
264598,242.628,-665.876,0,0
264858,240.104,-667.27,0,0
265118,237.421,-668.381,0,0
265379,234.674,-669.237,0,0
265639,231.922,-669.697,0,0
265899,229.163,-670.018,0,0
266160,226.25,-670.061,0,0
266420,223.325,-669.777,0,0
266680.25,220.404,-669.204,0,0
266940.575,217.594,-668.272,0,0
267200.9,214.956,-667.062,0,0
267461.225,212.504,-665.647,0,0
267721.55,210.177,-663.975,0,0
267981.875,208.171,-662.142,0,0
268242.2,206.391,-660.277,0,0
268502.525,204.877,-658.355,0,0
268762.85,203.561,-656.44,0,0
269023.175,202.372,-654.611,0,0
269283.5,201.283,-652.834,0,0
269543.825,200.193,-650.968,0,0
269804.15,199.141,-649.066,0,0
270064.475,198.312,-647.059,0,0
270324.8,197.693,-644.939,0,0
270585.125,197.228,-642.885,0,0
270845.45,196.971,-640.85,0,0
271105.775,196.952,-638.938,0,0
271366.1,197.061,-637.153,0,0
271626.425,197.231,-635.614,0,0
271886.75,197.476,-634.116,0,0
272147.075,197.783,-632.899,0,0
272407.4,197.977,-631.843,0,0
272667.725,197.986,-630.795,0,0
272928.05,197.781,-629.681,0,0
273188.375,197.532,-628.394,0,0
273448.7,197.357,-626.836,0,0
273709.025,197.452,-625.289,0,0
273969.35,197.672,-623.608,0,0
274229.675,198.137,-621.99,0,0
274490.0,198.824,-620.53,0,0
274750.325,199.577,-619.142,0,0
275010.65,200.446,-617.822,0,0
275270.975,201.536,-616.57,0,0
275531.3,202.71,-615.542,0,0
275791.625,203.961,-614.636,0,0
276051.95,205.325,-613.823,0,0
276312.275,206.817,-613.243,0,0
276572.6,208.398,-612.874,0,0
276832.925,210.061,-612.843,0,0
277093.25,211.67,-613.131,0,0
277353.575,213.172,-613.681,0,0
277613.9,214.496,-614.44,0,0
277874.225,215.695,-615.404,0,0
278134.55,216.733,-616.542,0,0
278394.875,217.581,-617.867,0,0
278655.2,218.226,-619.348,0,0
278915.525,218.605,-620.934,0,0
279175.85,218.754,-622.573,0,0
279436.175,218.669,-624.242,0,0
279696.5,218.351,-625.894,0,0
279956.825,217.851,-627.653,0,0
280217.15,217.011,-629.416,0,0
280477.475,215.856,-631.029,0,0
280737.8,214.47,-632.407,0,0
280998.125,213.006,-633.588,0,0
281258.45,211.496,-634.659,0,0
281518.775,209.873,-635.628,0,0
281779.1,208.074,-636.512,0,0
282039.425,206.166,-637.169,0,0
282299.75,204.191,-637.628,0,0
282560,202.221,-637.911,0,0
282820,200.288,-638.027,0,0
283081,198.311,-638.093,0,0
283341,196.261,-638.014,0,0
283601,194.155,-637.719,0,0
283862,192.134,-637.204,0,0
284122,190.199,-636.591,0,0
284382,188.363,-635.89,0,0
284643,186.566,-635.083,0,0
284903,184.785,-634.19,0,0
285163,183.107,-633.155,0,0
285424,181.454,-632.01,0,0
285684,179.945,-630.723,0,0
285944,178.539,-629.348,0,0
286205,177.274,-627.962,0,0
286465,176.115,-626.506,0,0
286725,175.034,-625.047,0,0
286986,174.061,-623.443,0,0
287246,173.309,-621.8,0,0
287506,172.689,-620.187,0,0
287767,172.28,-618.582,0,0
288027,172.031,-617.101,0,0
288287,171.894,-615.738,0,0
288548,171.806,-614.481,0,0
288808,171.778,-613.296,0,0
289068,171.809,-612.288,0,0
289329,171.831,-611.366,0,0
289589,171.797,-610.521,0,0
289849,171.749,-609.698,0,0
290109,171.724,-608.946,0,0
290370,171.744,-608.245,0,0
290630,171.727,-607.661,0,0
290890,171.657,-607.185,0,0
291151,171.441,-606.726,0,0
291411,171.16,-606.245,0,0
291671,170.781,-605.707,0,0
291932,170.349,-605.074,0,0
292192,169.929,-604.361,0,0
292452,169.495,-603.525,0,0
292713,169.156,-602.589,0,0
292973,168.923,-601.541,0,0
293233,168.877,-600.422,0,0
293494,169.006,-599.357,0,0
293754,169.319,-598.377,0,0
294014,169.759,-597.508,0,0
294275,170.271,-596.779,0,0
294535,170.843,-596.131,0,0
294795,171.496,-595.632,0,0
295056,172.219,-595.31,0,0
295316,172.996,-595.146,0,0
295576,173.703,-595.221,0,0
295837,174.359,-595.444,0,0
296097,174.909,-595.843,0,0
296357,175.36,-596.348,0,0
296618,175.715,-596.975,0,0
296878,175.916,-597.734,0,0
297138,175.982,-598.567,0,0
297399,175.85,-599.472,0,0
297659,175.547,-600.407,0,0
297919,175.06,-601.332,0,0
298180,174.403,-602.172,0,0
298440,173.638,-602.953,0,0
298700.2,172.784,-603.65,0,0
298960.525,171.834,-604.31,0,0
299220.85,170.826,-604.894,0,0
299481.175,169.723,-605.426,0,0
299741.5,168.567,-605.912,0,0
300001.825,167.325,-606.298,0,0
300262.15,166.032,-606.622,0,0
300522.475,164.688,-606.866,0,0
300782.8,163.313,-607.048,0,0
301043.125,161.891,-607.133,0,0
301303.45,160.416,-607.149,0,0
301563.775,158.905,-607.047,0,0
301824.1,157.393,-606.83,0,0
302084.425,155.887,-606.483,0,0
302344.75,154.433,-606.073,0,0
302605.075,153.031,-605.573,0,0
302865.4,151.677,-605.033,0,0
303125.725,150.355,-604.456,0,0
303386.05,149.075,-603.821,0,0
303646.375,147.786,-603.188,0,0
303906.7,146.519,-602.493,0,0
304167.025,145.261,-601.725,0,0
304427.35,144.059,-600.904,0,0
304687.675,142.902,-600.023,0,0
304948.0,141.766,-599.101,0,0
305208.325,140.728,-598.147,0,0
305468.65,139.734,-597.148,0,0
305728.975,138.826,-596.129,0,0
305989.3,137.991,-595.1,0,0
306249.625,137.216,-594.091,0,0
306509.95,136.493,-593.077,0,0
306770.275,135.85,-592.092,0,0
307030.6,135.236,-591.128,0,0
307290.925,134.699,-590.167,0,0
307551.25,134.206,-589.27,0,0
307811.575,133.76,-588.445,0,0
308071.9,133.323,-587.683,0,0
308332.225,132.878,-586.997,0,0
308592.55,132.409,-586.349,0,0
308852.875,131.9,-585.749,0,0
309113.2,131.362,-585.165,0,0
309373.525,130.811,-584.577,0,0
309633.85,130.245,-584.009,0,0
309894.175,129.647,-583.459,0,0
310154.5,129.018,-582.914,0,0
310414.825,128.365,-582.417,0,0
310675.15,127.63,-581.932,0,0
310935.475,126.836,-581.42,0,0
311195.8,125.98,-580.875,0,0
311456.125,125.093,-580.27,0,0
311716.45,124.143,-579.585,0,0
311976.775,123.172,-578.837,0,0
312237.1,122.202,-578.031,0,0
312497.425,121.247,-577.122,0,0
312757.75,120.288,-576.16,0,0
313018.075,119.355,-575.123,0,0
313278.4,118.485,-573.992,0,0
313538.725,117.658,-572.794,0,0
313799.05,116.885,-571.547,0,0
314059.375,116.185,-570.251,0,0
314319.7,115.564,-568.88,0,0
314580,115.038,-567.501,0,0
314840,114.588,-566.012,0,0
315101,114.328,-564.616,0,0
315361,114.132,-563.13,0,0
315621,114.162,-561.778,0,0
315882,114.196,-560.595,0,0
316142,114.342,-559.333,0,0
316402,114.512,-558.267,0,0
316663,114.71,-557.253,0,0
316923,114.966,-556.362,0,0
317183,115.163,-555.542,0,0
317444,115.39,-554.819,0,0
317704,115.558,-554.213,0,0
317964,115.585,-553.614,0,0
318225,115.777,-553.05,0,0
318485,115.772,-552.455,0,0
318745,115.749,-551.909,0,0
319006,115.724,-551.344,0,0
319266,115.726,-550.82,0,0
319526,115.708,-550.257,0,0
319787,115.693,-549.676,0,0
320047,115.683,-549.174,0,0
320307,115.594,-548.596,0,0
320567,115.498,-548.028,0,0
320828,115.619,-547.443,0,0
321088,115.688,-546.854,0,0
321348,115.726,-546.397,0,0
321609,115.94,-545.921,0,0
321869,116.166,-545.57,0,0
322129,116.415,-545.24,0,0
322390,116.479,-545.025,0,0
322650,116.625,-544.839,0,0
322910,116.68,-544.797,0,0
323171,116.786,-544.788,0,0
323431,116.77,-544.782,0,0
323691,116.7,-544.853,0,0
323952,116.501,-545.087,0,0
324212,116.352,-545.094,0,0
324472,116.073,-545.394,0,0
324733,115.66,-545.51,0,0
324993,115.235,-545.733,0,0
325253,114.647,-545.867,0,0
325514,114.01,-545.975,0,0
325774,113.293,-546.103,0,0
326034,112.512,-546.096,0,0
326295,111.698,-546.146,0,0
326555,110.911,-546.065,0,0
326815,110.001,-545.938,0,0
327076,109.07,-545.632,0,0
327336,108.187,-545.477,0,0
327596,107.287,-545.08,0,0
327857,106.455,-544.686,0,0
328117,105.486,-544.318,0,0
328377,104.639,-543.891,0,0
328638,103.725,-543.44,0,0
328898,102.863,-543.012,0,0
329158,101.995,-542.341,0,0
329419,101.181,-541.803,0,0
329679,100.354,-541.168,0,0
329939,99.5843,-540.677,0,0
330200,98.7817,-540.108,0,0
330460,97.9398,-539.583,0,0
330720.15,97.1492,-538.997,0,0
330980.475,96.3599,-538.352,0,0
331240.8,95.4254,-537.726,0,0
331501.125,94.5993,-537.063,0,0
331761.45,93.7356,-536.34,0,0
332021.775,92.8406,-535.627,0,0
332282.1,91.9571,-534.873,0,0
332542.425,91.1456,-534.074,0,0
332802.75,90.2762,-533.282,0,0
333063.075,89.3819,-532.44,0,0
333323.4,88.5652,-531.559,0,0
333583.725,87.6945,-530.608,0,0
333844.05,86.8468,-529.687,0,0
334104.375,86.0301,-528.649,0,0
334364.7,85.2248,-527.6,0,0
334625.025,84.461,-526.489,0,0
334885.35,83.7094,-525.411,0,0
335145.675,83.0326,-524.197,0,0
335406.0,82.363,-523.015,0,0
335666.325,81.6883,-521.831,0,0
335926.65,81.1488,-520.593,0,0
336186.975,80.5889,-519.373,0,0
336447.3,80.137,-518.027,0,0
336707.625,79.7025,-516.854,0,0
336967.95,79.232,-515.598,0,0
337228.275,78.8602,-514.373,0,0
337488.6,78.531,-513.078,0,0
337748.925,78.2113,-511.849,0,0
338009.25,77.8626,-510.555,0,0
338269.575,77.5338,-509.275,0,0
338529.9,77.3358,-507.932,0,0
338790.225,77.0946,-506.591,0,0
339050.55,76.9861,-505.285,0,0
339310.875,76.8852,-503.871,0,0
339571.2,76.8584,-502.463,0,0
339831.525,76.9006,-501.083,0,0
340091.85,77.0148,-499.77,0,0
340352.175,77.2207,-498.491,0,0
340612.5,77.4444,-497.137,0,0
340872.825,77.828,-495.943,0,0
341133.15,78.192,-494.747,0,0
341393.475,78.6443,-493.662,0,0
341653.8,79.1339,-492.587,0,0
341914.125,79.6296,-491.581,0,0
342174.45,80.1582,-490.71,0,0
342434.775,80.7339,-489.929,0,0
342695.1,81.286,-489.257,0,0
342955.425,81.7852,-488.589,0,0
343215.75,82.3256,-488.101,0,0
343476.075,82.7936,-487.622,0,0
343736.4,83.1815,-487.267,0,0
343996.725,83.4974,-486.856,0,0
344257.05,83.8208,-486.646,0,0
344517.375,83.9627,-486.288,0,0
344777.7,84.105,-486.039,0,0
345038.025,84.1013,-485.724,0,0
345298.35,84.1581,-485.362,0,0
345558.675,84.1366,-484.965,0,0
345819.0,84.0618,-484.596,0,0
346079.325,84.0202,-484.208,0,0
346339.65,84.0036,-483.787,0,0
346599.975,83.9729,-483.387,0,0
346860,83.8571,-482.893,0,0
347121,83.7962,-482.484,0,0
347381,83.6731,-482.025,0,0
347641,83.468,-481.587,0,0
347902,83.3286,-481.124,0,0
348162,83.1884,-480.582,0,0
348422,82.9017,-480.02,0,0
348683,82.6584,-479.362,0,0
348943,82.4819,-478.695,0,0
349203,82.44,-477.894,0,0
349464,82.3055,-477.102,0,0
349724,82.3359,-476.35,0,0
349984,82.3498,-475.555,0,0
350245,82.5375,-474.749,0,0
350505,82.7738,-473.998,0,0
350765,83.0335,-473.342,0,0
351025,83.3975,-472.706,0,0
351286,83.8057,-472.194,0,0
351546,84.2394,-471.819,0,0
351806,84.6098,-471.507,0,0
352067,84.9202,-471.304,0,0
352327,85.1519,-471.115,0,0
352587,85.3427,-471.077,0,0
352848,85.4465,-471.032,0,0
353108,85.3551,-470.998,0,0
353368,85.2866,-470.983,0,0
353629,85.1142,-470.943,0,0
353889,84.8357,-470.835,0,0
354149,84.5266,-470.636,0,0
354410,84.1895,-470.426,0,0
354670,83.8753,-470.164,0,0
354930,83.4734,-469.845,0,0
355191,83.1461,-469.465,0,0
355451,82.7741,-469.038,0,0
355711,82.4031,-468.682,0,0
355972,82.0465,-468.222,0,0
356232,81.6991,-467.761,0,0
356492,81.3254,-467.257,0,0
356753,80.9316,-466.761,0,0
357013,80.5704,-466.156,0,0
357273,80.184,-465.508,0,0
357534,79.8181,-464.899,0,0
357794,79.5304,-464.123,0,0
358054,79.2832,-463.375,0,0
358315,79.0473,-462.646,0,0
358575,78.9631,-461.891,0,0
358835,78.8521,-461.168,0,0
359096,78.7555,-460.415,0,0
359356,78.7021,-459.713,0,0
359616,78.7236,-459,0,0
359877,78.7352,-458.284,0,0
360137,78.7767,-457.746,0,0
360397,78.7589,-457.187,0,0
360658,78.7971,-456.57,0,0
360918,78.7926,-455.999,0,0
361178,78.7633,-455.473,0,0
361438,78.7196,-454.917,0,0
361699,78.6877,-454.336,0,0
361959,78.692,-453.734,0,0
362219,78.5662,-453.141,0,0
362480,78.5545,-452.486,0,0
362740.1,78.5791,-451.789,0,0
363000.425,78.5881,-451.086,0,0
363260.75,78.7519,-450.431,0,0
363521.075,78.973,-449.778,0,0
363781.4,79.2051,-449.126,0,0
364041.725,79.4763,-448.603,0,0
364302.05,79.7934,-448.111,0,0
364562.375,80.1403,-447.67,0,0
364822.7,80.513,-447.365,0,0
365083.025,80.8089,-447.102,0,0
365343.35,81.107,-446.928,0,0
365603.675,81.294,-446.88,0,0
365864.0,81.4663,-446.884,0,0
366124.325,81.4812,-446.898,0,0
366384.65,81.3684,-446.852,0,0
366644.975,81.204,-446.891,0,0
366905.3,81.0282,-446.869,0,0
367165.625,80.6326,-446.799,0,0
367425.95,80.3126,-446.658,0,0
367686.275,79.8744,-446.466,0,0
367946.6,79.4092,-446.27,0,0
368206.925,78.8255,-445.918,0,0
368467.25,78.2716,-445.497,0,0
368727.575,77.6884,-444.934,0,0
368987.9,77.1386,-444.267,0,0
369248.225,76.6805,-443.443,0,0
369508.55,76.3422,-442.523,0,0
369768.875,76.0869,-441.517,0,0
370029.2,76.0571,-440.57,0,0
370289.525,76.1209,-439.66,0,0
370549.85,76.4216,-438.824,0,0
370810.175,76.7197,-438.05,0,0
371070.5,77.0901,-437.403,0,0
371330.825,77.5127,-436.973,0,0
371591.15,77.8725,-436.639,0,0
371851.475,78.2207,-436.414,0,0
372111.8,78.4542,-436.291,0,0
372372.125,78.5431,-436.256,0,0
372632.45,78.5798,-436.233,0,0
372892.775,78.469,-436.193,0,0
373153.1,78.2551,-436.138,0,0
373413.425,77.9717,-436.02,0,0
373673.75,77.6044,-435.816,0,0
373934.075,77.1519,-435.554,0,0
374194.4,76.7775,-435.24,0,0
374454.725,76.3541,-434.862,0,0
374715.05,75.9462,-434.391,0,0
374975.375,75.5538,-433.883,0,0
375235.7,75.0917,-433.286,0,0
375496.025,74.7565,-432.593,0,0
375756.35,74.4181,-431.928,0,0
376016.675,74.1392,-431.128,0,0
376277.0,73.9449,-430.392,0,0
376537.325,73.8216,-429.599,0,0
376797.65,73.7572,-428.838,0,0
377057.975,73.7499,-428.084,0,0
377318.3,73.7869,-427.38,0,0
377578.625,73.8099,-426.667,0,0
377838.95,73.8961,-426.012,0,0
378099.275,73.939,-425.327,0,0
378359.6,74.094,-424.673,0,0
378619.925,74.2029,-424.073,0,0
378880,74.4123,-423.486,0,0
379141,74.6591,-422.917,0,0
379401,74.81,-422.393,0,0
379661,75.1096,-421.93,0,0
379922,75.3322,-421.574,0,0
380182,75.5227,-421.203,0,0
380442,75.6835,-420.943,0,0
380703,75.7755,-420.691,0,0
380963,75.7962,-420.43,0,0
381223,75.8191,-420.173,0,0
381483,75.7922,-419.788,0,0
381744,75.8053,-419.446,0,0
382004,75.7758,-419.092,0,0
382264,75.8077,-418.812,0,0
382525,75.8305,-418.445,0,0
382785,75.8569,-418.14,0,0
383045,75.8936,-417.847,0,0
383306,75.851,-417.586,0,0
383566,75.7825,-417.421,0,0
383826,75.7063,-417.171,0,0
384087,75.5391,-416.983,0,0
384347,75.3508,-416.685,0,0
384607,75.18,-416.396,0,0
384868,74.9569,-416.091,0,0
385128,74.7089,-415.738,0,0
385388,74.4848,-415.364,0,0
385649,74.2169,-414.986,0,0
385909,74.0197,-414.565,0,0
386169,73.8036,-414.135,0,0
386430,73.5017,-413.734,0,0
386690,73.1954,-413.226,0,0
386950,72.9203,-412.725,0,0
387211,72.6524,-412.222,0,0
387471,72.3647,-411.664,0,0
387731,72.1038,-411.068,0,0
387992,71.8561,-410.472,0,0
388252,71.5832,-409.847,0,0
388512,71.3219,-409.117,0,0
388773,71.1026,-408.366,0,0
389033,70.9101,-407.596,0,0
389293,70.7225,-406.793,0,0
389554,70.6209,-405.97,0,0
389814,70.5708,-405.145,0,0
390074,70.5592,-404.249,0,0
390335,70.6081,-403.408,0,0
390595,70.6652,-402.521,0,0
390855,70.8375,-401.64,0,0
391116,71.034,-400.771,0,0
391376,71.2918,-399.896,0,0
391636,71.605,-399.097,0,0
391896,71.9882,-398.304,0,0
392157,72.3913,-397.608,0,0
392417,72.8675,-396.905,0,0
392677,73.3754,-396.287,0,0
392938,73.8533,-395.658,0,0
393198,74.3694,-395.149,0,0
393458,74.9277,-394.716,0,0
393719,75.3913,-394.292,0,0
393979,75.918,-393.938,0,0
394239,76.4106,-393.617,0,0
394500,76.8839,-393.375,0,0
394760.05,77.3452,-393.103,0,0
395020.375,77.785,-392.898,0,0
395280.7,78.2115,-392.719,0,0
395541.025,78.6438,-392.591,0,0
395801.35,79.034,-392.463,0,0
396061.675,79.4292,-392.386,0,0
396322.0,79.7464,-392.359,0,0
396582.325,80.0893,-392.335,0,0
396842.65,80.4185,-392.394,0,0
397102.975,80.6525,-392.458,0,0
397363.3,80.9006,-392.536,0,0
397623.625,81.0714,-392.624,0,0
397883.95,81.1054,-392.76,0,0
398144.275,81.1985,-392.878,0,0
398404.6,81.1857,-392.954,0,0
398664.925,81.1552,-393.057,0,0
398925.25,81.08,-393.156,0,0
399185.575,80.9587,-393.208,0,0
399445.9,80.8571,-393.262,0,0
399706.225,80.6898,-393.251,0,0
399966.55,80.4999,-393.293,0,0
400006.6,80.4438,-393.28,0,0