File: Accelerated corrosion test data/2025-10-14_18-00-03/sample_1.csv
Frequency (Hz),Impedance (ohms),Phase (Radians),Temperature (C),Humidity (%)
10000.0,246.127,-12123.2,0,0
10260.325,246.324,-11810.6,0,0
10520.65,240.357,-11534.1,0,0
10780.975,231.175,-11251.1,0,0
11041.3,223.928,-10993.4,0,0
11301.625,216.381,-10738.2,0,0
11561.95,212.411,-10496.1,0,0
11822.275,209.941,-10258.3,0,0
12082.6,234.068,-10029.7,0,0
12342.925,211.541,-9857.5,0,0
12603.25,197.489,-9645,0,0
12863.575,193.531,-9445.15,0,0
13123.9,202.794,-9255.59,0,0
13384.225,189.225,-9084.52,0,0
13644.55,184.966,-8903.96,0,0
13904.875,186.031,-8727.23,0,0
14165.2,189.709,-8589.72,0,0
14425.525,212.349,-8434.05,0,0
14685.8,212.402,-8264.44,0,0
14946.175,178.057,-8160.19,0,0
15206.5,190.365,-8002.7,0,0
15466.825,175.153,-7884.77,0,0
15727.15,171.941,-7757.36,0,0
15987.5,162.493,-7626.88,0,0
16247.8,158.767,-7501.8,0,0
16508.125,157.192,-7379.83,0,0
16768.45,161.378,-7263.81,0,0
17028.775,165.878,-7158.32,0,0
17289.1,156.116,-7054.85,0,0
17549.425,153.543,-6952.07,0,0
17809.75,147.128,-6847.62,0,0
18070.075,151.258,-6749.64,0,0
18330.4,144.51,-6653.78,0,0
18590.725,139.191,-6560.24,0,0
18851.05,141.965,-6462.95,0,0
19111.375,137.089,-6381.76,0,0
19371.7,134.567,-6290.56,0,0
19632.025,133.509,-6202.34,0,0
19892.35,137.946,-6118.06,0,0
20152.675,138.683,-6029.74,0,0
20413.0,160.29,-5943.53,0,0
20673.3,166.81,-5903.16,0,0
20933.65,148.681,-5831.5,0,0
21193.975,158.902,-5772.98,0,0
21454.3,142.588,-5696.96,0,0
21714.625,138.06,-5627.52,0,0
21974.9,141.2,-5545.2,0,0
22235.275,171.604,-5507.56,0,0
22495.6,140.372,-5460.87,0,0
22755.925,126.831,-5392.17,0,0
23016.25,122.956,-5326.47,0,0
23276.6,119.069,-5265.35,0,0
23536.9,115.945,-5205.16,0,0
23797.225,113.209,-5144.86,0,0
24057.55,116.443,-5084.4,0,0
24317.875,112.097,-5035.69,0,0
24578.2,112.099,-4977.06,0,0
24838.525,110.752,-4927.25,0,0
25098.85,111.628,-4874.11,0,0
25359.175,106.632,-4824.22,0,0
25619.5,105.485,-4774.08,0,0
25879.8,104.009,-4722.52,0,0
26140.1,104.44,-4673.8,0,0
26400.5,103.036,-4623.63,0,0
26660.8,106.211,-4573.71,0,0
26921.1,115.578,-4527.34,0,0
27181.4,122.223,-4496.04,0,0
27441.8,110.386,-4459.07,0,0
27702.1,104.26,-4410.78,0,0
27962.4,112.359,-4362.66,0,0
28222.7,111.184,-4323.74,0,0
28483.1,121.517,-4281.99,0,0
28743.4,127.515,-4264.01,0,0
29003.7,117.731,-4226.11,0,0
29264,117.419,-4193.32,0,0
29524.4,106.884,-4158.59,0,0
29784.7,106.41,-4117.68,0,0
30045,101.518,-4085.23,0,0
30305.3,99.4452,-4046.93,0,0
30565.7,97.5809,-4008.05,0,0
30826,101.553,-3972.88,0,0
31086.3,102.785,-3945.63,0,0
31346.6,98.413,-3916.4,0,0
31607,94.5093,-3878.87,0,0
31867.3,97.8408,-3847.01,0,0
32127.6,98.0847,-3815.94,0,0
32387.9,97.4828,-3789.9,0,0
32648.3,93.6799,-3757.91,0,0
32908.6,95.6312,-3731.02,0,0
33168.9,91.1084,-3702.24,0,0
33429.2,88.4881,-3673.58,0,0
33689.6,86.1368,-3643.82,0,0
33949.9,86.2108,-3613.25,0,0
34210.2,86.3082,-3587.71,0,0
34470.5,83.7,-3560.39,0,0
34730.9,82.4246,-3532.53,0,0
34991.2,81.447,-3505.76,0,0
35251.5,81.0835,-3479.37,0,0
35511.8,80.0112,-3452.77,0,0
35772.2,79.7161,-3427.5,0,0
36032.5,78.3208,-3402.16,0,0
36292.8,77.8103,-3376.95,0,0
36553.1,77.4369,-3352.55,0,0
36813.5,76.8297,-3328.03,0,0
37073.8,76.458,-3304.14,0,0
37334.1,76.5825,-3281.05,0,0
37594.4,76.7276,-3257.84,0,0
37854.8,76.2439,-3235.31,0,0
38115.1,76.253,-3212.44,0,0
38375.4,76.6952,-3189.82,0,0
38635.7,75.6205,-3168.19,0,0
38896.1,75.0304,-3146.26,0,0
39156.4,75.127,-3124.52,0,0
39416.7,74.6033,-3104.28,0,0
39677,73.7523,-3083.09,0,0
39937.4,72.779,-3062.21,0,0
40197.7,75.6229,-3041.83,0,0
40458,74.2651,-3021.83,0,0
40718.3,77.0189,-3001.09,0,0
40978.7,74.8317,-2981.84,0,0
41239,74.8597,-2964.14,0,0
41499.3,73.722,-2945.74,0,0
41759.6,72.3402,-2927.38,0,0
42020,72.6483,-2908.19,0,0
42280.275,70.3266,-2889.83,0,0
42540.6,71.2317,-2872.33,0,0
42800.925,70.6994,-2855.69,0,0
43061.25,69.7278,-2837.29,0,0
43321.575,69.3464,-2820.6,0,0
43581.9,69.0246,-2803.5,0,0
43842.225,68.2027,-2785.7,0,0
44102.55,68.2884,-2768.58,0,0
44362.875,69.3421,-2752.08,0,0
44623.2,69.512,-2736.6,0,0
44883.525,68.5842,-2720.67,0,0
45143.85,68.903,-2704.98,0,0
45404.175,69.0979,-2689.66,0,0
45664.5,67.7979,-2674.78,0,0
45924.825,66.6689,-2659.38,0,0
46185.15,66.6247,-2644.43,0,0
46445.475,65.275,-2628.88,0,0
46705.8,65.7885,-2613.53,0,0
46966.125,65.503,-2599.24,0,0
47226.45,64.8578,-2584.28,0,0
47486.775,64.9981,-2570,0,0
47747.1,64.3431,-2555.92,0,0
48007.425,63.9777,-2541.8,0,0
48267.75,63.6949,-2527.93,0,0
48528.075,62.3707,-2514.31,0,0
48788.4,61.9826,-2500.07,0,0
49048.725,61.6981,-2486.08,0,0
49309.05,61.8914,-2472.31,0,0
49569.375,61.5435,-2459.4,0,0
49829.7,61.1157,-2446.55,0,0
50090.025,60.4182,-2433.33,0,0
50350.35,59.9465,-2419.89,0,0
50610.675,59.9624,-2406.73,0,0
50871.0,59.7627,-2394.03,0,0
51131.325,59.7023,-2381.41,0,0
51391.65,59.5423,-2369.18,0,0
51651.975,58.8979,-2356.85,0,0
51912.3,58.6793,-2344.39,0,0
52172.625,58.4748,-2332.09,0,0
52432.95,58.3422,-2320.12,0,0
52693.275,58.1284,-2308.25,0,0
52953.6,58.0816,-2296.39,0,0
53213.925,57.9127,-2284.76,0,0
53474.25,57.6063,-2273.21,0,0
53734.575,57.5357,-2261.85,0,0
53994.9,57.5179,-2250.9,0,0
54255.225,56.9368,-2239.67,0,0
54515.55,56.5915,-2228.3,0,0
54775.875,56.2751,-2217.24,0,0
55036.2,56.1323,-2206.14,0,0
55296.525,56.1928,-2195.26,0,0
55556.85,56.1539,-2184.7,0,0
55817.175,55.7697,-2174.13,0,0
56077.5,55.4809,-2163.37,0,0
56337.825,55.1473,-2152.66,0,0
56598.15,55.1588,-2142.29,0,0
56858.475,55.1899,-2131.88,0,0
57118.8,55.0129,-2121.76,0,0
57379.125,54.981,-2111.4,0,0
57639.45,55.0084,-2101.5,0,0
57899.775,55.0124,-2091.48,0,0
58160.1,55.0365,-2081.7,0,0
58420.4,54.7585,-2072.18,0,0
58680.7,54.5685,-2062.35,0,0
58941.1,54.4935,-2052.57,0,0
59201.4,54.8121,-2042.98,0,0
59461.7,54.7385,-2034.08,0,0
59722,54.4945,-2024.54,0,0
59982.4,54.4386,-2015.34,0,0
60242.7,54.2997,-2006.21,0,0
60503,54.6641,-1997.01,0,0
60763.3,54.8615,-1988.6,0,0
61023.7,54.2827,-1979.94,0,0
61284,53.7745,-1971.05,0,0
61544.3,53.6491,-1961.99,0,0
61804.6,53.7761,-1953.28,0,0
62065,53.4455,-1944.76,0,0
62325.3,53.126,-1935.95,0,0
62585.6,52.865,-1927.24,0,0
62845.9,52.7628,-1918.46,0,0
63106.3,52.8773,-1909.95,0,0
63366.6,52.7571,-1901.51,0,0
63626.9,52.7533,-1893,0,0
63887.2,52.7606,-1884.52,0,0
64147.6,52.7861,-1876.43,0,0
64407.9,52.9519,-1867.85,0,0
64668.2,53.2542,-1859.75,0,0
64928.5,53.9027,-1851.56,0,0
65188.9,54.4206,-1843.7,0,0
65449.2,54.9895,-1836.24,0,0
65709.5,55.5079,-1829.15,0,0
65969.8,55.3028,-1822.13,0,0
66230.2,55.1503,-1814.85,0,0
66490.5,55.0985,-1807.6,0,0
66750.8,55.0673,-1800.56,0,0
67011.1,54.4604,-1793.53,0,0
67271.5,54.1403,-1785.46,0,0
67531.8,54.6919,-1778.25,0,0
67792.1,54.8864,-1771.45,0,0
68052.4,54.4175,-1764.94,0,0
68312.8,53.7516,-1757.65,0,0
68573.1,53.6745,-1750.34,0,0
68833.4,53.8967,-1743.59,0,0
69093.7,53.4777,-1736.91,0,0
69354.1,53.3517,-1729.92,0,0
69614.4,53.0233,-1723.6,0,0
69874.7,52.4808,-1716.7,0,0
70135,51.9922,-1710.05,0,0
70395.4,51.4834,-1703.06,0,0
70655.7,51.099,-1696.15,0,0
70916,50.8028,-1689.27,0,0
71176.3,50.6194,-1682.51,0,0
71436.7,50.4438,-1675.92,0,0
71697,49.9812,-1669.39,0,0
71957.3,49.4322,-1662.65,0,0
72217.6,48.972,-1655.8,0,0
72478,48.7172,-1648.85,0,0
72738.3,48.6607,-1641.93,0,0
72998.6,48.7098,-1635.31,0,0
73258.9,48.5715,-1628.81,0,0
73519.3,48.436,-1622.19,0,0
73779.6,48.2906,-1615.61,0,0
74039.9,48.3986,-1609.02,0,0
74300.225,48.4225,-1602.56,0,0
74560.55,48.4627,-1596.08,0,0
74820.875,48.696,-1589.74,0,0
75081.2,48.7916,-1583.58,0,0
75341.525,48.8308,-1577.41,0,0
75601.85,48.8943,-1571.07,0,0
75862.175,49.0577,-1564.79,0,0
76122.5,49.3928,-1558.71,0,0
76382.825,49.64,-1552.73,0,0
76643.15,49.7721,-1546.9,0,0
76903.475,49.9721,-1540.96,0,0
77163.8,50.2832,-1535.09,0,0
77424.125,50.4478,-1529.33,0,0
77684.45,50.5343,-1523.66,0,0
77944.775,50.8027,-1517.68,0,0
78205.1,51.3126,-1511.93,0,0
78465.425,51.9109,-1506.56,0,0
78725.75,52.1621,-1501.49,0,0
78986.075,52.2544,-1496.24,0,0
79246.4,52.15,-1491.18,0,0
79506.725,51.9305,-1486.01,0,0
79767.05,51.7397,-1480.58,0,0
80027.375,51.6783,-1475.23,0,0
80287.7,51.3367,-1469.95,0,0
80548.025,51.0359,-1464.33,0,0
80808.35,50.8998,-1458.79,0,0
81068.675,50.8456,-1453.2,0,0
81329.0,50.8997,-1447.65,0,0
81589.325,51.0417,-1442.16,0,0
81849.65,51.2351,-1436.74,0,0
82109.975,51.3811,-1431.44,0,0
82370.3,51.5205,-1426.25,0,0
82630.625,51.568,-1420.97,0,0
82890.95,51.679,-1415.54,0,0
83151.275,51.9345,-1410.23,0,0
83411.6,52.2464,-1405,0,0
83671.925,52.4704,-1399.86,0,0
83932.25,52.8417,-1394.65,0,0
84192.575,53.227,-1389.5,0,0
84452.9,53.6456,-1384.5,0,0
84713.225,54.0276,-1379.5,0,0
84973.55,54.5702,-1374.56,0,0
85233.875,55.1912,-1369.8,0,0
85494.2,55.5718,-1365.41,0,0
85754.525,55.775,-1360.77,0,0
86014.85,55.844,-1356.1,0,0
86275.175,55.9926,-1351.48,0,0
86535.5,56.2645,-1346.86,0,0
86795.825,56.2521,-1342.29,0,0
87056.15,56.5087,-1337.44,0,0
87316.475,56.905,-1333.05,0,0
87576.8,56.8288,-1328.61,0,0
87837.125,56.7031,-1323.94,0,0
88097.45,56.5938,-1319.06,0,0
88357.775,56.6867,-1314.05,0,0
88618.1,57.2445,-1309.04,0,0
88878.425,57.5736,-1304.42,0,0
89138.75,58.0282,-1299.62,0,0
89399.075,58.428,-1294.72,0,0
89659.4,59.1571,-1289.86,0,0
89919.725,59.9766,-1285.22,0,0
90180,60.5717,-1280.79,0,0
90440.4,61.0766,-1276.24,0,0
90700.7,61.9297,-1271.51,0,0
90961,62.9589,-1266.81,0,0
91221.3,64.4003,-1262.22,0,0
91481.7,65.7905,-1258.16,0,0
91742,67.1001,-1254.48,0,0
92002.3,68.2613,-1250.59,0,0
92262.6,69.7222,-1246.76,0,0
92523,70.9084,-1243.18,0,0
92783.3,72.7461,-1239.87,0,0
93043.6,73.8983,-1237.08,0,0
93303.9,75.3779,-1233.95,0,0
93564.3,77.6231,-1231.55,0,0
93824.6,79.4694,-1231.18,0,0
94084.9,78.8045,-1231.56,0,0
94345.2,76.183,-1230.34,0,0
94605.6,74.1102,-1227.2,0,0
94865.9,72.5387,-1224.45,0,0
95126.2,70.5476,-1220.81,0,0
95386.5,69.3014,-1217.04,0,0
95646.9,67.6975,-1213.07,0,0
95907.2,66.3981,-1208.47,0,0
96167.5,66.079,-1203.72,0,0
96427.8,66.1574,-1199.73,0,0
96688.2,65.6385,-1196.09,0,0
96948.5,64.8134,-1192.01,0,0
97208.8,64.3706,-1187.73,0,0
97469.1,64.0125,-1183.43,0,0
97729.5,63.8936,-1179.11,0,0
97989.8,63.8975,-1174.92,0,0
98250.1,64.1964,-1170.94,0,0
98510.4,64.2826,-1167.32,0,0
98770.8,63.9109,-1163.59,0,0
99031.1,63.5907,-1159.59,0,0
99291.4,63.4694,-1155.59,0,0
99551.7,63.3447,-1151.55,0,0
99812.1,63.3596,-1147.45,0,0
100072,63.4409,-1143.49,0,0
100333,63.3661,-1139.6,0,0
100593,63.3647,-1135.55,0,0
100853,63.4552,-1131.62,0,0
101114,63.5064,-1127.69,0,0
101374,63.4154,-1123.79,0,0
101634,63.2858,-1119.71,0,0
101895,63.1117,-1115.42,0,0
102155,63.1751,-1110.83,0,0
102415,63.4885,-1106.06,0,0
102676,64.4472,-1101.35,0,0
102936,65.4374,-1097.21,0,0
103196,66.3596,-1093.09,0,0
103457,67.3624,-1089.04,0,0
103717,68.3716,-1084.82,0,0
103977,69.7764,-1080.6,0,0
104238,71.5982,-1076.87,0,0
104498,73.2606,-1073.69,0,0
104758,74.5836,-1070.72,0,0
105019,75.5024,-1067.69,0,0
105279,76.3561,-1064.25,0,0
105539,77.7579,-1060.81,0,0
105800,79.3076,-1057.63,0,0
106060,80.8246,-1054.66,0,0
106320.175,82.3339,-1051.95,0,0
106580.5,83.7803,-1049.46,0,0
106840.825,84.9023,-1047.03,0,0
107101.15,86.1663,-1044.45,0,0
107361.475,87.6936,-1042.22,0,0
107621.8,88.7497,-1040.43,0,0
107882.125,89.4088,-1038.41,0,0
108142.45,90.1042,-1036.2,0,0
108402.775,90.9405,-1033.94,0,0
108663.1,91.9069,-1031.82,0,0
108923.425,92.6895,-1029.99,0,0
109183.75,93.5462,-1028.23,0,0
109444.075,94.1356,-1026.81,0,0
109704.4,94.3525,-1025.41,0,0
109964.725,94.1011,-1023.95,0,0
110225.05,93.667,-1022.23,0,0
110485.375,93.0974,-1020,0,0
110745.7,92.7369,-1017.21,0,0
111006.025,92.8454,-1014.68,0,0
111266.35,92.9682,-1011.88,0,0
111526.675,93.4185,-1009.74,0,0
111787.0,93.9045,-1007.58,0,0
112047.325,94.1636,-1005.62,0,0
112307.65,94.461,-1003.65,0,0
112567.975,94.6512,-1001.75,0,0
112828.3,94.849,-999.883,0,0
113088.625,94.8267,-998.182,0,0
113348.95,94.8458,-996.605,0,0
113609.275,94.4323,-995.101,0,0
113869.6,93.9313,-993.356,0,0
114129.925,93.3253,-991.491,0,0
114390.25,92.5164,-989.491,0,0
114650.575,92.0063,-987.402,0,0
114910.9,91.3633,-985.478,0,0
115171.225,90.5646,-983.468,0,0
115431.55,89.6809,-981.384,0,0
115691.875,88.5669,-979.111,0,0
115952.2,87.5523,-976.557,0,0
116212.525,86.6416,-973.907,0,0
116472.85,85.8722,-971.233,0,0
116733.175,85.1005,-968.621,0,0
116993.5,84.1549,-966.009,0,0
117253.825,83.248,-963.061,0,0
117514.15,82.4809,-959.977,0,0
117774.475,81.8176,-956.869,0,0
118034.8,81.3209,-953.665,0,0
118295.125,80.9612,-950.554,0,0
118555.45,80.5339,-947.44,0,0
118815.775,80.2511,-944.253,0,0
119076.1,80.1498,-941.033,0,0
119336.425,80.1311,-937.914,0,0
119596.75,80.1703,-934.851,0,0
119857.075,80.3016,-931.799,0,0
120117.4,80.6089,-928.945,0,0
120377.725,80.8553,-926.185,0,0
120638.05,81.0373,-923.667,0,0
120898.375,81.2201,-921.207,0,0
121158.7,81.1294,-918.794,0,0
121419.025,81.0022,-916.333,0,0
121679.35,80.7642,-913.924,0,0
121939.675,80.3259,-911.376,0,0
122200.0,79.9268,-908.583,0,0
122460,79.6639,-905.749,0,0
122721,79.4309,-902.915,0,0
122981,79.1542,-900.079,0,0
123241,78.8464,-897.05,0,0
123502,78.7357,-893.986,0,0
123762,78.7633,-890.966,0,0
124022,78.7688,-887.963,0,0
124283,78.8788,-884.964,0,0
124543,79.0173,-881.989,0,0
124803,79.2385,-879.076,0,0
125064,79.4292,-876.255,0,0
125324,79.5405,-873.279,0,0
125584,79.8715,-870.332,0,0
125845,80.186,-867.532,0,0
126105,80.4233,-864.721,0,0
126365,80.7484,-861.905,0,0
126626,81.0253,-859.113,0,0
126886,81.3268,-856.381,0,0
127146,81.6782,-853.527,0,0
127406,81.9472,-850.727,0,0
127667,82.3875,-847.923,0,0
127927,82.8221,-845.013,0,0
128187,83.2794,-842.26,0,0
128448,83.8153,-839.552,0,0
128708,84.3121,-836.94,0,0
128968,84.6842,-834.251,0,0
129229,85.0687,-831.427,0,0
129489,85.6035,-828.496,0,0
129749,86.3094,-825.537,0,0
130010,87.2423,-822.641,0,0
130270,88.3246,-820,0,0
130530,89.3969,-817.528,0,0
130791,90.4073,-815.202,0,0
131051,91.4035,-812.908,0,0
131311,92.4544,-810.785,0,0
131572,93.3399,-808.908,0,0
131832,94.0154,-806.915,0,0
132092,94.6507,-805.039,0,0
132353,95.1588,-803.129,0,0
132613,95.6055,-801.021,0,0
132873,96.1245,-798.893,0,0
133134,96.7005,-796.867,0,0
133394,97.1981,-794.833,0,0
133654,97.6483,-792.753,0,0
133915,98.1669,-790.702,0,0
134175,98.6671,-788.686,0,0
134435,99.1285,-786.679,0,0
134696,99.5103,-784.668,0,0
134956,99.8629,-782.533,0,0
135216,100.27,-780.396,0,0
135477,100.729,-778.26,0,0
135737,101.14,-776.132,0,0
135997,101.643,-773.872,0,0
136258,102.219,-771.613,0,0
136518,102.976,-769.328,0,0
136778,103.853,-767.297,0,0
137039,104.656,-765.294,0,0
137299,105.605,-763.314,0,0
137559,106.661,-761.654,0,0
137819,107.53,-760.366,0,0
138080,107.956,-759.136,0,0
138340.125,108.217,-757.657,0,0
138600.45,108.562,-756.187,0,0
138860.775,108.665,-754.781,0,0
139121.1,108.638,-753.215,0,0
139381.425,108.72,-751.485,0,0
139641.75,108.775,-749.817,0,0
139902.075,108.649,-748.153,0,0
140162.4,108.459,-746.244,0,0
140422.725,108.364,-744.229,0,0
140683.05,108.31,-742.144,0,0
140943.375,108.369,-740.001,0,0
141203.7,108.476,-737.845,0,0
141464.025,108.67,-735.77,0,0
141724.35,108.701,-733.843,0,0
141984.675,108.596,-731.545,0,0
142245.0,108.848,-729.122,0,0
142505.325,109.305,-726.892,0,0
142765.65,109.608,-724.832,0,0
143025.975,109.771,-722.74,0,0
143286.3,109.956,-720.596,0,0
143546.625,110.244,-718.297,0,0
143806.95,110.653,-715.986,0,0
144067.275,111.144,-713.897,0,0
144327.6,111.439,-711.856,0,0
144587.925,111.692,-709.551,0,0
144848.25,112.19,-707.268,0,0
145108.575,112.658,-705.08,0,0
145368.9,113.191,-702.913,0,0
145629.225,113.808,-700.772,0,0
145889.55,114.393,-698.727,0,0
146149.875,114.878,-696.805,0,0
146410.2,115.234,-694.718,0,0
146670.525,115.813,-692.49,0,0
146930.85,116.631,-690.504,0,0
147191.175,117.278,-688.837,0,0
147451.5,117.652,-687.164,0,0
147711.825,117.844,-685.462,0,0
147972.15,117.839,-683.528,0,0
148232.475,117.949,-681.249,0,0
148492.8,118.295,-678.968,0,0
148753.125,118.695,-676.656,0,0
149013.45,119.345,-674.33,0,0
149273.775,120.236,-672.201,0,0
149534.1,121.072,-670.506,0,0
149794.425,121.576,-669.012,0,0
150054.75,121.813,-667.5,0,0
150315.075,121.792,-665.836,0,0
150575.4,121.688,-664.064,0,0
150835.725,121.332,-662.161,0,0
151096.05,120.893,-659.832,0,0
151356.375,120.693,-657.186,0,0
151616.7,120.745,-654.57,0,0
151877.025,120.8,-652.018,0,0
152137.35,120.713,-649.391,0,0
152397.675,120.587,-646.5,0,0
152658.0,120.577,-643.3,0,0
152918.325,120.893,-639.885,0,0
153178.65,121.561,-636.503,0,0
153438.975,122.369,-633.293,0,0
153699.3,123.203,-630.126,0,0
153959.625,124.09,-626.8,0,0
154219.95,125.216,-623.517,0,0
154480,126.423,-620.246,0,0
154741,127.78,-616.956,0,0
155001,129.314,-613.768,0,0
155261,130.803,-610.63,0,0
155522,132.378,-607.263,0,0
155782,134.416,-603.864,0,0
156042,136.734,-600.704,0,0
156303,139.147,-597.842,0,0
156563,141.532,-595.093,0,0
156823,144.02,-592.393,0,0
157084,146.846,-589.755,0,0
157344,149.91,-587.6,0,0
157604,152.67,-586.035,0,0
157864,154.972,-584.509,0,0
158125,157.157,-582.775,0,0
158385,159.418,-581.088,0,0
158645,161.41,-579.57,0,0
158906,163.019,-577.664,0,0
159166,164.861,-575.276,0,0
159426,167.066,-572.647,0,0
159687,169.733,-569.798,0,0
159947,173.014,-567.221,0,0
160207,176.642,-565.028,0,0
160468,180.408,-563.189,0,0
160728,184.367,-561.62,0,0
160988,188.508,-560.431,0,0
161249,192.787,-559.795,0,0
161509,196.975,-559.735,0,0
161769,200.921,-560.046,0,0
162030,204.462,-560.944,0,0
162290,207.384,-561.955,0,0
162550,209.942,-562.834,0,0
162811,212.265,-563.621,0,0
163071,214.389,-564.212,0,0
163331,216.557,-564.629,0,0
163592,218.88,-565.082,0,0
163852,221.156,-565.746,0,0
164112,223.26,-566.442,0,0
164373,225.346,-567.106,0,0
164633,227.343,-567.705,0,0
164893,229.582,-568.254,0,0
165154,231.96,-569.066,0,0
165414,234.461,-570.072,0,0
165674,237.05,-571.499,0,0
165935,239.451,-573.584,0,0
166195,241.256,-576.134,0,0
166455,242.376,-578.639,0,0
166716,243.124,-580.781,0,0
166976,244.024,-582.8,0,0
167236,244.844,-585.187,0,0
167497,245.118,-587.794,0,0
167757,245.046,-590.227,0,0
168017,244.56,-592.76,0,0
168277,243.571,-595.072,0,0
168538,242.367,-597.033,0,0
168798,240.864,-598.863,0,0
169058,239.02,-600.33,0,0
169319,237.054,-601.419,0,0
169579,234.9,-602.162,0,0
169839,232.655,-602.438,0,0
170100,230.566,-602.174,0,0
170360.075,228.781,-601.601,0,0
170620.4,227.251,-600.98,0,0
170880.725,225.744,-600.303,0,0
171141.05,224.364,-599.324,0,0
171401.375,223.309,-598.323,0,0
171661.7,222.375,-597.322,0,0
171922.025,221.479,-596.359,0,0
172182.35,220.671,-595.332,0,0
172442.675,220.095,-594.311,0,0
172703.0,219.492,-593.52,0,0
172963.325,218.683,-592.732,0,0
173223.65,217.819,-591.743,0,0
173483.975,217.003,-590.619,0,0
173744.3,216.266,-589.334,0,0
174004.625,215.697,-587.905,0,0
174264.95,215.36,-586.477,0,0
174525.275,215.101,-585.186,0,0
174785.6,214.949,-583.924,0,0
175045.925,214.781,-582.606,0,0
175306.25,214.886,-581.176,0,0
175566.575,215.338,-580.017,0,0
175826.9,215.805,-579.444,0,0
176087.225,215.805,-578.984,0,0
176347.55,215.548,-578.439,0,0
176607.875,215.302,-577.831,0,0
176868.2,214.95,-577.227,0,0
177128.525,214.568,-576.434,0,0
177388.85,214.366,-575.528,0,0
177649.175,214.362,-574.891,0,0
177909.5,214.188,-574.54,0,0
178169.825,213.68,-574.262,0,0
178430.15,212.935,-573.91,0,0
178690.475,212.108,-573.36,0,0
178950.8,211.092,-572.756,0,0
179211.125,210.125,-571.878,0,0
179471.45,209.341,-571.046,0,0
179731.775,208.386,-570.388,0,0
179992.1,207.059,-569.705,0,0
180252.425,205.572,-568.612,0,0
180512.75,204.226,-567.22,0,0
180773.075,202.986,-565.833,0,0
181033.4,201.638,-564.395,0,0
181293.725,200.349,-562.683,0,0
181554.05,199.162,-560.925,0,0
181814.375,198.007,-559.11,0,0
182074.7,196.834,-557.277,0,0
182335.025,195.611,-555.327,0,0
182595.35,194.422,-553.254,0,0
182855.675,193.246,-551.122,0,0
183116.0,191.982,-548.883,0,0
183376.325,190.696,-546.386,0,0
183636.65,189.572,-543.666,0,0
183896.975,188.519,-540.834,0,0
184157.3,187.547,-537.795,0,0
184417.625,186.784,-534.594,0,0
184677.95,186.162,-531.216,0,0
184938.275,185.863,-527.688,0,0
185198.6,185.983,-524.213,0,0
185458.925,186.348,-521.027,0,0
185719.25,186.641,-518,0,0
185979.575,186.931,-514.969,0,0
186239.9,187.344,-511.965,0,0
186500,187.771,-508.963,0,0
186761,188.268,-506.062,0,0
187021,188.602,-503.086,0,0
187281,189.245,-500.031,0,0
187542,189.979,-497.04,0,0
187802,190.762,-494.23,0,0
188062,191.302,-491.369,0,0
188322,192.053,-488.457,0,0
188583,192.731,-485.501,0,0
188843,193.631,-482.464,0,0
189103,194.485,-479.647,0,0
189364,195.356,-476.781,0,0
189624,196.288,-473.844,0,0
189884,197.063,-470.948,0,0
190145,197.921,-467.871,0,0
190405,198.976,-464.77,0,0
190665,200.003,-461.698,0,0
190926,201.128,-458.643,0,0
191186,202.17,-455.571,0,0
191446,203.201,-452.355,0,0
191707,204.292,-448.928,0,0
191967,205.697,-445.419,0,0
192227,207.293,-441.919,0,0
192488,209.052,-438.559,0,0
192748,210.77,-435.153,0,0
193008,212.626,-431.804,0,0
193269,214.594,-428.514,0,0
193529,216.479,-425.284,0,0
193789,218.403,-422.005,0,0
194050,220.293,-418.635,0,0
194310,222.306,-415.197,0,0
194570,224.435,-411.564,0,0
194831,226.727,-407.89,0,0
195091,229.153,-404.176,0,0
195351,231.83,-400.454,0,0
195612,234.797,-396.829,0,0
195872,237.774,-393.324,0,0
196132,240.622,-389.842,0,0
196393,243.658,-386.131,0,0
196653,247.014,-382.384,0,0
196913,250.568,-378.735,0,0
197174,254.2,-375.055,0,0
197434,258.136,-371.421,0,0
197694,262.292,-367.927,0,0
197955,266.623,-364.641,0,0
198215,271.025,-361.507,0,0
198475,275.441,-358.499,0,0
198735,280.024,-355.505,0,0
198996,284.566,-352.694,0,0
199256,289.061,-349.904,0,0
199516,293.523,-346.998,0,0
199777,298.183,-343.851,0,0
200037,303.238,-340.636,0,0
200297,308.455,-337.419,0,0
200558,314.019,-334.277,0,0
200818,319.982,-331.202,0,0
201078,326.093,-328.382,0,0
201339,332.383,-325.575,0,0
201599,338.954,-322.746,0,0
201859,345.988,-319.991,0,0
202120,353.603,-317.346,0,0
202380.025,361.758,-315.228,0,0
202640.35,370.195,-313.74,0,0
202900.675,378.716,-312.811,0,0
203161.0,387.105,-312.14,0,0
203421.325,395.697,-311.549,0,0
203681.65,404.755,-311.108,0,0
203941.975,414.511,-311.197,0,0
204202.3,424.586,-312.06,0,0
204462.625,434.981,-313.959,0,0
204722.95,445.392,-316.758,0,0
204983.275,455.631,-320.656,0,0
205243.6,465.32,-325.507,0,0
205503.925,474.338,-330.899,0,0
205764.25,482.818,-336.877,0,0
206024.575,490.726,-343.225,0,0
206284.9,498.1,-349.946,0,0
206545.225,505.161,-357.068,0,0
206805.55,511.558,-364.854,0,0
207065.875,517.064,-372.915,0,0
207326.2,521.762,-380.975,0,0
207586.525,525.874,-388.968,0,0
207846.85,529.37,-397.095,0,0
208107.175,532.101,-405.15,0,0
208367.5,534.254,-412.864,0,0
208627.825,536.065,-420.376,0,0
208888.15,537.404,-427.896,0,0
209148.475,538.119,-435.19,0,0
209408.8,538.447,-442.306,0,0
209669.125,538.222,-449.231,0,0
209929.45,537.329,-455.941,0,0
210189.775,535.552,-462.005,0,0
210450.1,533.316,-467.013,0,0
210710.425,531.162,-471.082,0,0
210970.75,529.145,-474.443,0,0
211231.075,527.34,-477.226,0,0
211491.4,525.893,-479.656,0,0
211751.725,524.459,-481.74,0,0
212012.05,522.983,-483.155,0,0
212272.375,521.928,-483.761,0,0
212532.7,521.583,-483.668,0,0
212793.025,522.523,-483.294,0,0
213053.35,524.283,-483.15,0,0
213313.675,526.849,-483.546,0,0
213574.0,529.774,-484.653,0,0
213834.325,532.71,-486.401,0,0
214094.65,535.451,-488.435,0,0
214354.975,538.161,-490.576,0,0
214615.3,540.974,-492.924,0,0
214875.625,543.658,-495.44,0,0
215135.95,546.476,-498.012,0,0
215396.275,549.511,-500.828,0,0
215656.6,552.546,-504.152,0,0
215916.925,554.959,-507.837,0,0
216177.25,557.05,-511.121,0,0
216437.575,559.172,-514.169,0,0
216697.9,561.366,-517.149,0,0
216958.225,563.73,-519.976,0,0
217218.55,566.475,-522.751,0,0
217478.875,569.496,-525.832,0,0
217739.2,572.624,-529.286,0,0
217999.525,575.58,-532.896,0,0
218259.85,578.463,-536.647,0,0
218520,581.282,-540.146,0,0
218780,584.414,-543.608,0,0
219041,587.985,-547.188,0,0
219301,592.015,-550.999,0,0
219561,596.325,-555.436,0,0
219822,600.797,-560.401,0,0
220082,605.233,-565.984,0,0
220342,609.513,-572.041,0,0
220603,613.681,-578.49,0,0
220863,617.923,-585.371,0,0
221123,621.979,-592.883,0,0
221384,625.902,-601.051,0,0
221644,629.429,-609.813,0,0
221904,632.416,-619.3,0,0
222165,634.787,-629.215,0,0
222425,636.445,-639.612,0,0
222685,637.373,-650.22,0,0
222946,637.568,-660.941,0,0
223206,636.837,-671.744,0,0
223466,635.497,-682.292,0,0
223727,633.845,-692.614,0,0
223987,631.67,-702.936,0,0
224247,628.97,-713.13,0,0
224508,625.902,-723.28,0,0
224768,622.363,-733.213,0,0
225028,618.071,-743.349,0,0
225289,613.445,-753.063,0,0
225549,608.103,-762.538,0,0
225809,602.572,-771.502,0,0
226070,596.765,-780.444,0,0
226330,590.563,-789.078,0,0
226590,583.918,-797.481,0,0
226851,576.915,-805.615,0,0
227111,569.619,-813.66,0,0
227371,561.723,-821.298,0,0
227632,553.237,-828.762,0,0
227892,544.094,-835.677,0,0
228152,534.604,-841.642,0,0
228413,524.895,-847.038,0,0
228673,515.046,-851.581,0,0
228933,505.202,-855.499,0,0
229193,495.42,-858.718,0,0
229454,485.688,-861.498,0,0
229714,476.04,-863.726,0,0
229974,466.53,-865.279,0,0
230235,457.246,-866.361,0,0
230495,448.234,-866.835,0,0
230755,439.626,-866.943,0,0
231016,431.296,-866.616,0,0
231276,423.264,-866.22,0,0
231536,415.651,-865.403,0,0
231797,408.353,-864.45,0,0
232057,401.397,-863.339,0,0
232317,394.857,-862.062,0,0
232578,388.631,-860.814,0,0
232838,382.686,-859.61,0,0
233098,376.946,-858.444,0,0
233359,371.311,-857.324,0,0
233619,365.878,-856.227,0,0
233879,360.565,-855.08,0,0
234140,355.322,-853.964,0,0
234400,350.337,-852.922,0,0
234660.3,345.313,-851.97,0,0
234920.625,340.114,-851.069,0,0
235180.95,334.905,-850.098,0,0
235441.275,329.758,-849.182,0,0
235701.6,324.543,-847.894,0,0
235961.925,319.274,-846.401,0,0
236222.25,314.297,-844.816,0,0
236482.575,309.479,-843.2,0,0
236742.9,304.816,-841.549,0,0
237003.225,300.208,-839.891,0,0
237263.55,295.602,-838.253,0,0
237523.875,291.018,-836.473,0,0
237784.2,286.562,-834.566,0,0
238044.525,282.159,-832.775,0,0
238304.85,277.719,-830.784,0,0
238565.175,273.302,-828.649,0,0
238825.5,269.136,-826.415,0,0
239085.825,264.981,-824.211,0,0
239346.15,260.986,-821.767,0,0
239606.475,257.224,-819.353,0,0
239866.8,253.447,-816.828,0,0
240127.125,249.88,-814.302,0,0
240387.45,246.5,-811.785,0,0
240647.775,243.246,-809.365,0,0
240908.1,239.947,-806.939,0,0
241168.425,236.78,-804.492,0,0
241428.75,233.678,-801.995,0,0
241689.075,230.653,-799.488,0,0
241949.4,227.754,-796.97,0,0
242209.725,224.999,-794.408,0,0
242470.05,222.339,-791.889,0,0
242730.375,219.713,-789.482,0,0
242990.7,217.225,-787.071,0,0
243251.025,214.753,-784.668,0,0
243511.35,212.387,-782.315,0,0
243771.675,210.111,-780.051,0,0
244032.0,207.833,-777.868,0,0
244292.325,205.452,-775.767,0,0
244552.65,203.108,-773.696,0,0
244812.975,200.745,-771.48,0,0
245073.3,198.386,-769.289,0,0
245333.625,195.965,-767.094,0,0
245593.95,193.641,-764.843,0,0
245854.275,191.346,-762.525,0,0
246114.6,188.983,-760.27,0,0
246374.925,186.648,-757.922,0,0
246635.25,184.367,-755.435,0,0
246895.575,182.156,-752.903,0,0
247155.9,180.123,-750.348,0,0
247416.225,177.989,-747.654,0,0
247676.55,176.217,-745.018,0,0
247936.875,174.396,-742.379,0,0
248197.2,172.689,-739.826,0,0
248457.525,171.07,-737.263,0,0
248717.85,169.375,-734.753,0,0
248978.175,167.822,-732.234,0,0
249238.5,166.313,-729.701,0,0
249498.825,164.833,-727.192,0,0
249759.15,163.493,-724.719,0,0
250019.475,162.044,-722.252,0,0
250279.8,160.647,-719.769,0,0
250540,159.284,-717.333,0,0
250800,158.014,-714.843,0,0
251061,156.776,-712.32,0,0
251321,155.61,-709.802,0,0
251581,154.496,-707.387,0,0
251842,153.382,-704.946,0,0
252102,152.287,-702.527,0,0
252362,151.194,-700.088,0,0
252623,150.141,-697.645,0,0
252883,149.069,-695.151,0,0
253143,148.114,-692.602,0,0
253404,147.212,-690.071,0,0
253664,146.356,-687.52,0,0
253924,145.571,-684.955,0,0
254185,144.875,-682.369,0,0
254445,144.222,-679.766,0,0
254705,143.745,-677.142,0,0
254966,143.35,-674.691,0,0
255226,142.978,-672.184,0,0
255486,142.583,-669.803,0,0
255747,142.299,-667.499,0,0
256007,141.979,-665.157,0,0
256267,141.681,-662.886,0,0
256528,141.425,-660.539,0,0
256788,141.259,-658.236,0,0
257048,141.114,-655.955,0,0
257309,140.972,-653.727,0,0
257569,140.826,-651.475,0,0
257829,140.691,-649.183,0,0
258090,140.624,-646.845,0,0
258350,140.619,-644.502,0,0
258610,140.725,-642.083,0,0
258871,140.941,-639.661,0,0
259131,141.33,-637.268,0,0
259391,141.862,-634.969,0,0
259651,142.438,-632.708,0,0
259912,143.204,-630.543,0,0
260172,143.994,-628.527,0,0
260432,144.792,-626.524,0,0
260693,145.743,-624.591,0,0
260953,146.691,-622.841,0,0
261213,147.746,-621.158,0,0
261474,148.805,-619.569,0,0
261734,149.909,-618.098,0,0
261994,151.023,-616.739,0,0
262255,152.168,-615.498,0,0
262515,153.313,-614.368,0,0
262775,154.452,-613.307,0,0
263036,155.553,-612.381,0,0
263296,156.667,-611.522,0,0
263556,157.74,-610.759,0,0
263817,158.838,-609.978,0,0
264077,159.949,-609.333,0,0
264337,161.064,-608.773,0,0
264598,162.224,-608.23,0,0
264858,163.399,-607.842,0,0
265118,164.666,-607.723,0,0
265379,165.942,-607.572,0,0
265639,167.173,-607.754,0,0
265899,168.37,-608.178,0,0
266160,169.406,-608.834,0,0
266420,170.288,-609.675,0,0
266680.25,170.95,-610.676,0,0
266940.575,171.347,-611.813,0,0
267200.9,171.516,-613.081,0,0
267461.225,171.359,-614.377,0,0
267721.55,170.97,-615.662,0,0
267981.875,170.29,-616.965,0,0
268242.2,169.403,-618.166,0,0
268502.525,168.083,-619.385,0,0
268762.85,166.528,-620.361,0,0
269023.175,164.692,-621.052,0,0
269283.5,162.693,-621.382,0,0
269543.825,160.703,-621.498,0,0
269804.15,158.612,-621.33,0,0
270064.475,156.515,-620.915,0,0
270324.8,154.48,-620.232,0,0
270585.125,152.417,-619.293,0,0
270845.45,150.531,-618.113,0,0
271105.775,148.814,-616.744,0,0
271366.1,147.247,-615.201,0,0
271626.425,145.84,-613.592,0,0
271886.75,144.58,-611.974,0,0
272147.075,143.485,-610.211,0,0
272407.4,142.554,-608.454,0,0
272667.725,141.738,-606.616,0,0
272928.05,141.071,-604.78,0,0
273188.375,140.596,-602.965,0,0
273448.7,140.233,-601.162,0,0
273709.025,140.01,-599.4,0,0
273969.35,139.89,-597.736,0,0
274229.675,139.841,-596.116,0,0
274490.0,139.865,-594.567,0,0
274750.325,139.973,-593.14,0,0
275010.65,140.106,-591.735,0,0
275270.975,140.259,-590.444,0,0
275531.3,140.441,-589.166,0,0
275791.625,140.599,-587.919,0,0
276051.95,140.858,-586.664,0,0
276312.275,141.158,-585.423,0,0
276572.6,141.561,-584.292,0,0
276832.925,141.989,-583.223,0,0
277093.25,142.493,-582.239,0,0
277353.575,143.014,-581.356,0,0
277613.9,143.541,-580.587,0,0
277874.225,144.072,-579.952,0,0
278134.55,144.55,-579.392,0,0
278394.875,145.042,-578.91,0,0
278655.2,145.485,-578.532,0,0
278915.525,145.859,-578.255,0,0
279175.85,146.164,-578.072,0,0
279436.175,146.392,-577.943,0,0
279696.5,146.48,-577.863,0,0
279956.825,146.478,-577.798,0,0
280217.15,146.406,-577.712,0,0
280477.475,146.292,-577.606,0,0
280737.8,146.1,-577.502,0,0
280998.125,145.854,-577.395,0,0
281258.45,145.579,-577.355,0,0
281518.775,145.202,-577.314,0,0
281779.1,144.665,-577.271,0,0
282039.425,144.015,-577.094,0,0
282299.75,143.317,-576.858,0,0
282560,142.612,-576.476,0,0
282820,141.873,-576.055,0,0
283081,141.133,-575.565,0,0
283341,140.371,-574.992,0,0
283601,139.648,-574.344,0,0
283862,138.95,-573.654,0,0
284122,138.275,-572.873,0,0
284382,137.654,-572.112,0,0
284643,137.079,-571.309,0,0
284903,136.574,-570.498,0,0
285163,136.072,-569.73,0,0
285424,135.56,-569.008,0,0
285684,135.015,-568.368,0,0
285944,134.373,-567.722,0,0
286205,133.616,-567.048,0,0
286465,132.717,-566.279,0,0
286725,131.742,-565.351,0,0
286986,130.742,-564.244,0,0
287246,129.765,-562.961,0,0
287506,128.847,-561.482,0,0
287767,128.068,-559.792,0,0
288027,127.461,-557.955,0,0
288287,127.121,-555.98,0,0
288548,127.064,-554.001,0,0
288808,127.249,-552.117,0,0
289068,127.593,-550.354,0,0
289329,128.126,-548.715,0,0
289589,128.783,-547.25,0,0
289849,129.544,-546.003,0,0
290109,130.204,-545.083,0,0
290370,130.834,-544.199,0,0
290630,131.354,-543.449,0,0
290890,131.797,-542.697,0,0
291151,132.181,-541.973,0,0
291411,132.558,-541.26,0,0
291671,132.908,-540.661,0,0
291932,133.205,-540.106,0,0
292192,133.381,-539.607,0,0
292452,133.433,-539.084,0,0
292713,133.359,-538.503,0,0
292973,133.22,-537.845,0,0
293233,133.041,-537.079,0,0
293494,132.817,-536.23,0,0
293754,132.575,-535.239,0,0
294014,132.363,-534.117,0,0
294275,132.244,-532.851,0,0
294535,132.229,-531.486,0,0
294795,132.336,-530.05,0,0
295056,132.593,-528.55,0,0
295316,133.022,-527.086,0,0
295576,133.571,-525.6,0,0
295837,134.273,-524.186,0,0
296097,135.11,-522.83,0,0
296357,136.096,-521.581,0,0
296618,137.127,-520.488,0,0
296878,138.181,-519.538,0,0
297138,139.207,-518.677,0,0
297399,140.192,-517.91,0,0
297659,141.201,-517.133,0,0
297919,142.2,-516.388,0,0
298180,143.23,-515.684,0,0
298440,144.263,-515.012,0,0
298700.2,145.397,-514.429,0,0
298960.525,146.476,-513.791,0,0
299220.85,147.533,-513.324,0,0
299481.175,148.7,-512.754,0,0
299741.5,149.958,-512.321,0,0
300001.825,151.182,-512.037,0,0
300262.15,152.386,-511.732,0,0
300522.475,153.569,-511.495,0,0
300782.8,154.662,-511.201,0,0
301043.125,155.966,-510.952,0,0
301303.45,157.422,-510.87,0,0
301563.775,158.899,-510.885,0,0
301824.1,160.292,-510.974,0,0
302084.425,161.773,-511.287,0,0
302344.75,163.142,-511.653,0,0
302605.075,164.466,-512.168,0,0
302865.4,165.767,-512.885,0,0
303125.725,166.956,-513.58,0,0
303386.05,167.936,-514.368,0,0
303646.375,168.915,-515.13,0,0
303906.7,169.876,-515.9,0,0
304167.025,170.84,-516.804,0,0
304427.35,171.631,-517.732,0,0
304687.675,172.411,-518.652,0,0
304948.0,173.241,-519.576,0,0
305208.325,173.953,-520.529,0,0
305468.65,174.637,-521.525,0,0
305728.975,175.396,-522.662,0,0
305989.3,176.007,-523.801,0,0
306249.625,176.589,-525.056,0,0
306509.95,177.225,-526.414,0,0
306770.275,177.654,-527.883,0,0
307030.6,177.978,-529.393,0,0
307290.925,178.102,-530.911,0,0
307551.25,178.142,-532.496,0,0
307811.575,177.999,-534.067,0,0
308071.9,177.736,-535.553,0,0
308332.225,177.291,-536.957,0,0
308592.55,176.845,-538.285,0,0
308852.875,176.347,-539.483,0,0
309113.2,175.896,-540.63,0,0
309373.525,175.473,-541.717,0,0
309633.85,175.081,-542.935,0,0
309894.175,174.621,-544.141,0,0
310154.5,174.18,-545.385,0,0
310414.825,173.647,-546.761,0,0
310675.15,173.053,-548.092,0,0
310935.475,172.304,-549.392,0,0
311195.8,171.482,-550.845,0,0
311456.125,170.542,-552.203,0,0
311716.45,169.557,-553.6,0,0
311976.775,168.331,-554.945,0,0
312237.1,167.129,-556.303,0,0
312497.425,165.716,-557.596,0,0
312757.75,164.05,-558.737,0,0
313018.075,162.335,-559.77,0,0
313278.4,160.529,-560.581,0,0
313538.725,158.722,-561.359,0,0
313799.05,156.925,-561.835,0,0
314059.375,155.1,-562.209,0,0
314319.7,153.446,-562.514,0,0
314580,151.764,-562.717,0,0
314840,150.181,-562.912,0,0
315101,148.686,-563.058,0,0
315361,147.101,-563.177,0,0
315621,145.511,-563.32,0,0
315882,143.952,-563.527,0,0
316142,142.293,-563.542,0,0
316402,140.668,-563.452,0,0
316663,139.003,-563.447,0,0
316923,137.46,-563.216,0,0
317183,135.835,-563.03,0,0
317444,134.231,-562.769,0,0
317704,132.636,-562.501,0,0
317964,131.159,-562.106,0,0
318225,129.632,-561.733,0,0
318485,128.077,-561.288,0,0
318745,126.652,-560.791,0,0
319006,125.19,-560.315,0,0
319266,123.719,-559.805,0,0
319526,122.296,-559.216,0,0
319787,120.86,-558.612,0,0
320047,119.417,-557.899,0,0
320307,118.161,-557.186,0,0
320567,116.757,-556.422,0,0
320828,115.505,-555.621,0,0
321088,114.236,-554.81,0,0
321348,113.02,-553.918,0,0
321609,111.755,-552.98,0,0
321869,110.553,-552.109,0,0
322129,109.417,-551.155,0,0
322390,108.298,-550.023,0,0
322650,107.235,-548.963,0,0
322910,106.264,-547.874,0,0
323171,105.36,-546.699,0,0
323431,104.539,-545.525,0,0
323691,103.844,-544.275,0,0
323952,103.16,-543.156,0,0
324212,102.603,-542.099,0,0
324472,102.05,-541.033,0,0
324733,101.533,-539.909,0,0
324993,101.072,-538.891,0,0
325253,100.666,-537.862,0,0
325514,100.288,-536.9,0,0
325774,99.9784,-535.944,0,0
326034,99.6829,-535.052,0,0
326295,99.4278,-534.187,0,0
326555,99.1663,-533.366,0,0
326815,98.9376,-532.665,0,0
327076,98.7509,-531.878,0,0
327336,98.564,-531.275,0,0
327596,98.3403,-530.603,0,0
327857,98.1523,-530.055,0,0
328117,97.912,-529.526,0,0
328377,97.7786,-528.973,0,0
328638,97.5168,-528.499,0,0
328898,97.2766,-528.078,0,0
329158,97.0291,-527.663,0,0
329419,96.6391,-527.306,0,0
329679,96.3154,-526.963,0,0
329939,95.9635,-526.659,0,0
330200,95.6365,-526.313,0,0
330460,95.2211,-526.089,0,0
330720.15,94.7081,-525.747,0,0
330980.475,94.2107,-525.506,0,0
331240.8,93.6358,-525.18,0,0
331501.125,93.1183,-524.889,0,0
331761.45,92.4591,-524.574,0,0
332021.775,91.8862,-524.223,0,0
332282.1,91.1777,-523.909,0,0
332542.425,90.4669,-523.508,0,0
332802.75,89.8436,-523.101,0,0
333063.075,89.1299,-522.682,0,0
333323.4,88.36,-522.297,0,0
333583.725,87.6487,-521.805,0,0
333844.05,86.9735,-521.347,0,0
334104.375,86.1759,-520.862,0,0
334364.7,85.4035,-520.302,0,0
334625.025,84.636,-519.803,0,0
334885.35,83.7841,-519.177,0,0
335145.675,83.0845,-518.611,0,0
335406.0,82.2416,-517.914,0,0
335666.325,81.4837,-517.196,0,0
335926.65,80.8159,-516.483,0,0
336186.975,80.1406,-515.751,0,0
336447.3,79.4546,-515.063,0,0
336707.625,78.7735,-514.241,0,0
336967.95,78.1547,-513.472,0,0
337228.275,77.5484,-512.74,0,0
337488.6,76.9053,-512.026,0,0
337748.925,76.268,-511.213,0,0
338009.25,75.635,-510.435,0,0
338269.575,75.0261,-509.612,0,0
338529.9,74.4131,-508.848,0,0
338790.225,73.8646,-508.028,0,0
339050.55,73.3738,-507.213,0,0
339310.875,72.7547,-506.348,0,0
339571.2,72.2251,-505.535,0,0
339831.525,71.7316,-504.682,0,0
340091.85,71.2596,-503.85,0,0
340352.175,70.805,-503.088,0,0
340612.5,70.3206,-502.174,0,0
340872.825,69.8476,-501.385,0,0
341133.15,69.3804,-500.518,0,0
341393.475,68.9876,-499.733,0,0
341653.8,68.5543,-498.902,0,0
341914.125,68.1336,-498.12,0,0
342174.45,67.6417,-497.311,0,0
342434.775,67.2254,-496.5,0,0
342695.1,66.7854,-495.667,0,0
342955.425,66.3543,-494.836,0,0
343215.75,65.9734,-494.055,0,0
343476.075,65.5784,-493.269,0,0
343736.4,65.1355,-492.459,0,0
343996.725,64.6937,-491.633,0,0
344257.05,64.2984,-490.781,0,0
344517.375,63.9101,-489.924,0,0
344777.7,63.4258,-489.084,0,0
345038.025,63.0454,-488.257,0,0
345298.35,62.6758,-487.442,0,0
345558.675,62.2755,-486.506,0,0
345819.0,61.8817,-485.576,0,0
346079.325,61.5358,-484.714,0,0
346339.65,61.1563,-483.835,0,0
346599.975,60.7687,-482.927,0,0
346860,60.4589,-481.986,0,0
347121,60.0876,-481.084,0,0
347381,59.8075,-480.124,0,0
347641,59.4833,-479.171,0,0
347902,59.2303,-478.214,0,0
348162,58.9713,-477.276,0,0
348422,58.7193,-476.252,0,0
348683,58.4879,-475.286,0,0
348943,58.3281,-474.372,0,0
349203,58.1303,-473.451,0,0
349464,57.921,-472.477,0,0
349724,57.8265,-471.576,0,0
349984,57.6543,-470.67,0,0
350245,57.5158,-469.734,0,0
350505,57.4099,-468.796,0,0
350765,57.351,-467.872,0,0
351025,57.2221,-466.947,0,0
351286,57.2014,-466.097,0,0
351546,57.1115,-465.181,0,0
351806,57.1,-464.313,0,0
352067,57.0209,-463.443,0,0
352327,57.033,-462.627,0,0
352587,56.9413,-461.794,0,0
352848,56.9634,-460.97,0,0
353108,56.9295,-460.13,0,0
353368,56.8694,-459.384,0,0
353629,56.8515,-458.534,0,0
353889,56.8193,-457.743,0,0
354149,56.7514,-457.004,0,0
354410,56.7316,-456.154,0,0
354670,56.7432,-455.406,0,0
354930,56.6684,-454.545,0,0
355191,56.6587,-453.736,0,0
355451,56.6863,-452.943,0,0
355711,56.699,-452.138,0,0
355972,56.6813,-451.346,0,0
356232,56.7481,-450.608,0,0
356492,56.7912,-449.782,0,0
356753,56.8297,-449.036,0,0
357013,56.8603,-448.29,0,0
357273,56.8649,-447.504,0,0
357534,56.9491,-446.828,0,0
357794,57.021,-446.077,0,0
358054,57.0465,-445.394,0,0
358315,57.0838,-444.624,0,0
358575,57.1173,-443.944,0,0
358835,57.2102,-443.2,0,0
359096,57.2756,-442.451,0,0
359356,57.335,-441.774,0,0
359616,57.3618,-441.038,0,0
359877,57.4361,-440.307,0,0
360137,57.558,-439.601,0,0
360397,57.6219,-438.943,0,0
360658,57.7211,-438.261,0,0
360918,57.8043,-437.625,0,0
361178,57.9126,-436.964,0,0
361438,57.9287,-436.281,0,0
361699,58.0299,-435.666,0,0
361959,58.0623,-434.98,0,0
362219,58.1132,-434.312,0,0
362480,58.1604,-433.648,0,0
362740.1,58.228,-432.96,0,0
363000.425,58.2857,-432.251,0,0
363260.75,58.3729,-431.598,0,0
363521.075,58.4732,-430.919,0,0
363781.4,58.5298,-430.278,0,0
364041.725,58.6389,-429.563,0,0
364302.05,58.7484,-428.897,0,0
364562.375,58.851,-428.249,0,0
364822.7,58.9629,-427.592,0,0
365083.025,59.0679,-426.926,0,0
365343.35,59.1796,-426.288,0,0
365603.675,59.3023,-425.691,0,0
365864.0,59.4084,-425.024,0,0
366124.325,59.4867,-424.382,0,0
366384.65,59.5438,-423.781,0,0
366644.975,59.5998,-423.152,0,0
366905.3,59.6213,-422.503,0,0
367165.625,59.6607,-421.806,0,0
367425.95,59.6867,-421.097,0,0
367686.275,59.7025,-420.321,0,0
367946.6,59.7377,-419.511,0,0
368206.925,59.8209,-418.646,0,0
368467.25,59.9023,-417.809,0,0
368727.575,60.1092,-416.875,0,0
368987.9,60.3242,-415.994,0,0
369248.225,60.6308,-415.032,0,0
369508.55,60.9592,-414.175,0,0
369768.875,61.3424,-413.267,0,0
370029.2,61.7421,-412.403,0,0
370289.525,62.2676,-411.531,0,0
370549.85,62.8055,-410.693,0,0
370810.175,63.3573,-409.941,0,0
371070.5,64.019,-409.207,0,0
371330.825,64.6398,-408.491,0,0
371591.15,65.3132,-407.865,0,0
371851.475,66.0277,-407.304,0,0
372111.8,66.7568,-406.784,0,0
372372.125,67.506,-406.298,0,0
372632.45,68.2705,-405.911,0,0
372892.775,68.9911,-405.546,0,0
373153.1,69.6891,-405.222,0,0
373413.425,70.3796,-405.003,0,0
373673.75,71.0883,-404.83,0,0
373934.075,71.7686,-404.695,0,0
374194.4,72.4038,-404.612,0,0
374454.725,72.9454,-404.555,0,0
374715.05,73.4504,-404.519,0,0
374975.375,73.9269,-404.546,0,0
375235.7,74.3797,-404.549,0,0
375496.025,74.7636,-404.547,0,0
375756.35,75.1276,-404.514,0,0
376016.675,75.4279,-404.516,0,0
376277.0,75.7771,-404.434,0,0
376537.325,76.1269,-404.381,0,0
376797.65,76.455,-404.306,0,0
377057.975,76.8411,-404.258,0,0
377318.3,77.17,-404.23,0,0
377578.625,77.5664,-404.195,0,0
377838.95,77.8852,-404.297,0,0
378099.275,78.193,-404.342,0,0
378359.6,78.513,-404.453,0,0
378619.925,78.7316,-404.546,0,0
378880,78.9441,-404.611,0,0
379141,79.0864,-404.774,0,0
379401,79.252,-404.832,0,0
379661,79.3688,-404.809,0,0
379922,79.5547,-404.817,0,0
380182,79.7518,-404.831,0,0
380442,79.9993,-404.813,0,0
380703,80.2572,-404.846,0,0
380963,80.5899,-404.992,0,0
381223,80.8526,-405.137,0,0
381483,81.1506,-405.467,0,0
381744,81.3562,-405.8,0,0
382004,81.4776,-406.199,0,0
382264,81.5468,-406.618,0,0
382525,81.5268,-407.063,0,0
382785,81.4454,-407.461,0,0
383045,81.2809,-407.921,0,0
383306,81.0311,-408.339,0,0
383566,80.7925,-408.753,0,0
383826,80.3966,-409.061,0,0
384087,79.986,-409.398,0,0
384347,79.5598,-409.641,0,0
384607,79.0798,-409.859,0,0
384868,78.5579,-410.05,0,0
385128,78.0256,-410.239,0,0
385388,77.3887,-410.312,0,0
385649,76.7993,-410.374,0,0
385909,76.1873,-410.378,0,0
386169,75.5214,-410.286,0,0
386430,74.818,-410.17,0,0
386690,74.23,-410.008,0,0
386950,73.5605,-409.744,0,0
387211,72.9455,-409.464,0,0
387471,72.3812,-409.102,0,0
387731,71.8668,-408.743,0,0
387992,71.3508,-408.332,0,0
388252,70.8288,-407.903,0,0
388512,70.373,-407.468,0,0
388773,70.0099,-406.961,0,0
389033,69.6297,-406.533,0,0
389293,69.2906,-406.031,0,0
389554,68.9965,-405.548,0,0
389814,68.7196,-405.065,0,0
390074,68.4936,-404.642,0,0
390335,68.22,-404.263,0,0
390595,68.0295,-403.824,0,0
390855,67.7931,-403.409,0,0
391116,67.5868,-403.042,0,0
391376,67.3919,-402.682,0,0
391636,67.2265,-402.373,0,0
391896,67.0232,-402.057,0,0
392157,66.8092,-401.797,0,0
392417,66.5589,-401.533,0,0
392677,66.2219,-401.258,0,0
392938,65.8853,-401.054,0,0
393198,65.5425,-400.777,0,0
393458,65.1482,-400.468,0,0
393719,64.7117,-400.178,0,0
393979,64.2562,-399.797,0,0
394239,63.8226,-399.398,0,0
394500,63.3663,-398.968,0,0
394760.05,62.8895,-398.469,0,0
395020.375,62.4599,-398.039,0,0
395280.7,62.0047,-397.524,0,0
395541.025,61.5862,-396.92,0,0
395801.35,61.1798,-396.34,0,0
396061.675,60.7742,-395.728,0,0
396322.0,60.3977,-395.128,0,0
396582.325,60.0264,-394.468,0,0
396842.65,59.7128,-393.818,0,0
397102.975,59.3887,-393.146,0,0
397363.3,59.107,-392.456,0,0
397623.625,58.8269,-391.78,0,0
397883.95,58.5973,-391.086,0,0
398144.275,58.3575,-390.422,0,0
398404.6,58.1313,-389.694,0,0
398664.925,57.9708,-389,0,0
398925.25,57.7153,-388.263,0,0
399185.575,57.5656,-387.56,0,0
399445.9,57.4305,-386.873,0,0
399706.225,57.2997,-386.141,0,0
399966.55,57.1573,-385.464,0,0
400006.6,57.17,-385.311,0,0