File: Accelerated corrosion test data/2025-10-14_18-00-03/sample_6.csv
Frequency (Hz),Impedance (ohms),Phase (Radians),Temperature (C),Humidity (%)
10000.0,4161.01,-6573.22,0,0
10260.325,4024.05,-6493.77,0,0
10520.65,3893.66,-6415.15,0,0
10780.975,3768.91,-6336.54,0,0
11041.3,3650.41,-6258.9,0,0
11301.625,3536.6,-6182,0,0
11561.95,3428.27,-6106.27,0,0
11822.275,3324.25,-6031.24,0,0
12082.6,3224.7,-5956.54,0,0
12342.925,3130.17,-5883.68,0,0
12603.25,3040.77,-5810.48,0,0
12863.575,2953.76,-5739.67,0,0
13123.9,2872.44,-5670.95,0,0
13384.225,2791.97,-5604.61,0,0
13644.55,2714.54,-5537.41,0,0
13904.875,2640.69,-5471.03,0,0
14165.2,2569.69,-5405.52,0,0
14425.525,2501.77,-5341.04,0,0
14685.8,2435.85,-5277.86,0,0
14946.175,2373.98,-5215.82,0,0
15206.5,2313.67,-5155.58,0,0
15466.825,2255.76,-5096.03,0,0
15727.15,2199.89,-5037.28,0,0
15987.5,2146.04,-4980.15,0,0
16247.8,2094.09,-4923.56,0,0
16508.125,2044.14,-4867.9,0,0
16768.45,1996.24,-4813.33,0,0
17028.775,1950.23,-4759.79,0,0
17289.1,1905.29,-4707.84,0,0
17549.425,1861.81,-4656.32,0,0
17809.75,1820.5,-4605.41,0,0
18070.075,1779.68,-4555.63,0,0
18330.4,1739.93,-4506.97,0,0
18590.725,1702.71,-4458.25,0,0
18851.05,1667.35,-4411.73,0,0
19111.375,1632.29,-4365.71,0,0
19371.7,1597.61,-4320.6,0,0
19632.025,1565.4,-4275.88,0,0
19892.35,1533.22,-4232.71,0,0
20152.675,1502.14,-4189.82,0,0
20413.0,1471.33,-4148.06,0,0
20673.3,1442.32,-4106.05,0,0
20933.65,1414.33,-4065.54,0,0
21193.975,1386.95,-4025.46,0,0
21454.3,1360.22,-3986.49,0,0
21714.625,1334.56,-3947.48,0,0
21974.9,1309.78,-3909.26,0,0
22235.275,1285.39,-3872.09,0,0
22495.6,1260.91,-3834.73,0,0
22755.925,1238.49,-3797.98,0,0
23016.25,1218.35,-3761.77,0,0
23276.6,1197.95,-3728.11,0,0
23536.9,1176.96,-3694.87,0,0
23797.225,1156.09,-3662.01,0,0
24057.55,1135.4,-3629.37,0,0
24317.875,1116.05,-3596.53,0,0
24578.2,1097.29,-3565.03,0,0
24838.525,1078.83,-3533.01,0,0
25098.85,1061.03,-3501.82,0,0
25359.175,1043.82,-3471.86,0,0
25619.5,1026.47,-3441.82,0,0
25879.8,1009.75,-3411.99,0,0
26140.1,993.931,-3382.68,0,0
26400.5,978.169,-3354.07,0,0
26660.8,963.001,-3325.6,0,0
26921.1,948.478,-3297.68,0,0
27181.4,934.07,-3270.11,0,0
27441.8,920.454,-3243.4,0,0
27702.1,906.894,-3217.13,0,0
27962.4,893.471,-3191.53,0,0
28222.7,879.647,-3166.23,0,0
28483.1,866.167,-3140.78,0,0
28743.4,853.169,-3115.41,0,0
29003.7,840.547,-3090.45,0,0
29264,828.217,-3065.15,0,0
29524.4,817.137,-3040.78,0,0
29784.7,805.772,-3016.59,0,0
30045,795.168,-2993.19,0,0
30305.3,785.303,-2969.71,0,0
30565.7,775.532,-2946.93,0,0
30826,765.982,-2925.63,0,0
31086.3,755.625,-2904.49,0,0
31346.6,745.154,-2882.67,0,0
31607,735.884,-2861.27,0,0
31867.3,725.857,-2839.57,0,0
32127.6,717.712,-2818.27,0,0
32387.9,709.273,-2797.93,0,0
32648.3,701.597,-2777.92,0,0
32908.6,693.979,-2758.67,0,0
33168.9,686.346,-2740.42,0,0
33429.2,678.297,-2723.21,0,0
33689.6,668.475,-2705.39,0,0
33949.9,659.336,-2686.72,0,0
34210.2,650.907,-2667.73,0,0
34470.5,642.66,-2649.39,0,0
34730.9,634.703,-2630.88,0,0
34991.2,628,-2612.86,0,0
35251.5,620.858,-2596.28,0,0
35511.8,612.867,-2579.77,0,0
35772.2,604.135,-2562.74,0,0
36032.5,596.309,-2544.76,0,0
36292.8,589.352,-2527.35,0,0
36553.1,582.403,-2510.05,0,0
36813.5,575.676,-2492.92,0,0
37073.8,569.399,-2476.02,0,0
37334.1,563.274,-2459.78,0,0
37594.4,557.361,-2443.3,0,0
37854.8,551.459,-2427.57,0,0
38115.1,545.16,-2411.54,0,0
38375.4,539.549,-2395.42,0,0
38635.7,534.099,-2379.53,0,0
38896.1,529.085,-2363.63,0,0
39156.4,524.533,-2348.2,0,0
39416.7,520.449,-2333.44,0,0
39677,516.102,-2318.52,0,0
39937.4,512.276,-2304.25,0,0
40197.7,508.474,-2291,0,0
40458,504.465,-2277.96,0,0
40718.3,500.05,-2265.38,0,0
40978.7,495.118,-2252.53,0,0
41239,490.989,-2239.89,0,0
41499.3,485.807,-2227.77,0,0
41759.6,480.755,-2214.52,0,0
42020,476.386,-2202.46,0,0
42280.275,470.725,-2190.72,0,0
42540.6,464.81,-2178.05,0,0
42800.925,459.383,-2163.88,0,0
43061.25,455.753,-2150.1,0,0
43321.575,452.458,-2137.16,0,0
43581.9,448.629,-2124.81,0,0
43842.225,445.552,-2112.13,0,0
44102.55,441.843,-2100.19,0,0
44362.875,438.694,-2087.51,0,0
44623.2,436.225,-2075.77,0,0
44883.525,433.46,-2064.33,0,0
45143.85,430.661,-2053.22,0,0
45404.175,427.8,-2042.26,0,0
45664.5,425.053,-2031.44,0,0
45924.825,422.507,-2020.91,0,0
46185.15,419.667,-2010.79,0,0
46445.475,416.943,-2000.62,0,0
46705.8,414.164,-1990.65,0,0
46966.125,411.051,-1980.83,0,0
47226.45,408.314,-1970.51,0,0
47486.775,406.184,-1960.42,0,0
47747.1,404.023,-1951.63,0,0
48007.425,401.471,-1942.56,0,0
48267.75,399.009,-1933.78,0,0
48528.075,396.597,-1925.31,0,0
48788.4,393.917,-1917.45,0,0
49048.725,390.569,-1909.81,0,0
49309.05,387.113,-1902.26,0,0
49569.375,382.986,-1894.52,0,0
49829.7,378.635,-1886.6,0,0
50090.025,374.103,-1878.4,0,0
50350.35,369.235,-1869.91,0,0
50610.675,364.493,-1860.73,0,0
50871.0,360.24,-1851.12,0,0
51131.325,356.39,-1841.72,0,0
51391.65,352.605,-1832.3,0,0
51651.975,349.285,-1822.9,0,0
51912.3,346.042,-1813.76,0,0
52172.625,342.677,-1804.54,0,0
52432.95,339.701,-1795.27,0,0
52693.275,337.012,-1786.44,0,0
52953.6,334.151,-1777.79,0,0
53213.925,331.34,-1769.23,0,0
53474.25,328.326,-1760.89,0,0
53734.575,325.129,-1752.17,0,0
53994.9,322.222,-1743.16,0,0
54255.225,320.017,-1734.15,0,0
54515.55,317.968,-1725.7,0,0
54775.875,315.84,-1717.65,0,0
55036.2,313.426,-1709.74,0,0
55296.525,310.868,-1701.99,0,0
55556.85,308.209,-1693.93,0,0
55817.175,305.472,-1685.94,0,0
56077.5,302.765,-1677.65,0,0
56337.825,300.208,-1669.12,0,0
56598.15,298.203,-1660.41,0,0
56858.475,296.8,-1651.9,0,0
57118.8,295.751,-1643.97,0,0
57379.125,294.553,-1636.56,0,0
57639.45,293.378,-1629.39,0,0
57899.775,292.05,-1622.58,0,0
58160.1,290.344,-1616.05,0,0
58420.4,288.564,-1609.59,0,0
58680.7,286.566,-1603.05,0,0
58941.1,284.524,-1596.51,0,0
59201.4,282.356,-1590.05,0,0
59461.7,280.016,-1583.47,0,0
59722,277.713,-1576.83,0,0
59982.4,275.522,-1570.01,0,0
60242.7,273.234,-1563.42,0,0
60503,270.958,-1556.67,0,0
60763.3,268.848,-1549.81,0,0
61023.7,266.728,-1543.3,0,0
61284,264.254,-1536.8,0,0
61544.3,261.667,-1530.03,0,0
61804.6,259.04,-1522.9,0,0
62065,256.606,-1515.38,0,0
62325.3,254.77,-1507.18,0,0
62585.6,253.85,-1499.39,0,0
62845.9,253.407,-1492.23,0,0
63106.3,252.922,-1485.45,0,0
63366.6,252.774,-1479.21,0,0
63626.9,252.317,-1473.56,0,0
63887.2,251.467,-1468.28,0,0
64147.6,250.382,-1463.45,0,0
64407.9,248.534,-1458.62,0,0
64668.2,246.244,-1453.14,0,0
64928.5,243.985,-1447.15,0,0
65188.9,242.004,-1440.92,0,0
65449.2,240.611,-1434.72,0,0
65709.5,239.191,-1428.67,0,0
65969.8,237.838,-1422.84,0,0
66230.2,236.584,-1417.18,0,0
66490.5,235.366,-1411.66,0,0
66750.8,233.871,-1406.31,0,0
67011.1,232.494,-1400.92,0,0
67271.5,230.825,-1395.41,0,0
67531.8,228.936,-1389.9,0,0
67792.1,227.694,-1384.49,0,0
68052.4,225.992,-1379.15,0,0
68312.8,224.489,-1373.63,0,0
68573.1,222.882,-1368.12,0,0
68833.4,221.34,-1362.7,0,0
69093.7,219.829,-1357.34,0,0
69354.1,218.351,-1351.91,0,0
69614.4,216.85,-1346.58,0,0
69874.7,215.375,-1341.15,0,0
70135,213.88,-1335.81,0,0
70395.4,212.436,-1330.5,0,0
70655.7,210.914,-1325,0,0
70916,209.579,-1319.61,0,0
71176.3,208.157,-1314.34,0,0
71436.7,206.837,-1308.96,0,0
71697,205.559,-1303.58,0,0
71957.3,204.277,-1298.22,0,0
72217.6,203.077,-1292.98,0,0
72478,201.975,-1287.66,0,0
72738.3,200.9,-1282.45,0,0
72998.6,199.791,-1277.35,0,0
73258.9,198.68,-1272.23,0,0
73519.3,197.635,-1267.15,0,0
73779.6,196.626,-1262,0,0
74039.9,195.671,-1257.09,0,0
74300.225,194.624,-1252.21,0,0
74560.55,193.753,-1247.37,0,0
74820.875,192.792,-1242.55,0,0
75081.2,191.821,-1237.85,0,0
75341.525,190.855,-1233.22,0,0
75601.85,189.701,-1228.51,0,0
75862.175,188.677,-1223.78,0,0
76122.5,187.609,-1219.05,0,0
76382.825,186.603,-1214.35,0,0
76643.15,185.491,-1209.65,0,0
76903.475,184.512,-1204.99,0,0
77163.8,183.447,-1200.28,0,0
77424.125,182.435,-1195.61,0,0
77684.45,181.466,-1191.01,0,0
77944.775,180.501,-1186.33,0,0
78205.1,179.51,-1181.7,0,0
78465.425,178.581,-1177.05,0,0
78725.75,177.657,-1172.41,0,0
78986.075,176.735,-1167.89,0,0
79246.4,175.835,-1163.23,0,0
79506.725,174.943,-1158.64,0,0
79767.05,174.067,-1154.1,0,0
80027.375,173.214,-1149.58,0,0
80287.7,172.315,-1144.99,0,0
80548.025,171.482,-1140.39,0,0
80808.35,170.752,-1135.84,0,0
81068.675,170.007,-1131.26,0,0
81329.0,169.279,-1126.71,0,0
81589.325,168.593,-1122.2,0,0
81849.65,167.916,-1117.65,0,0
82109.975,167.331,-1113.11,0,0
82370.3,166.761,-1108.71,0,0
82630.625,166.278,-1104.21,0,0
82890.95,165.735,-1099.79,0,0
83151.275,165.218,-1095.47,0,0
83411.6,164.761,-1091.03,0,0
83671.925,164.233,-1086.61,0,0
83932.25,163.902,-1082.2,0,0
84192.575,163.64,-1077.8,0,0
84452.9,163.24,-1073.43,0,0
84713.225,163.016,-1069.05,0,0
84973.55,162.968,-1064.8,0,0
85233.875,162.898,-1060.6,0,0
85494.2,162.874,-1056.41,0,0
85754.525,162.876,-1052.4,0,0
86014.85,162.905,-1048.44,0,0
86275.175,162.892,-1044.53,0,0
86535.5,162.911,-1040.78,0,0
86795.825,162.871,-1037.02,0,0
87056.15,162.829,-1033.26,0,0
87316.475,162.766,-1029.57,0,0
87576.8,162.746,-1025.78,0,0
87837.125,162.763,-1022.09,0,0
88097.45,162.748,-1018.45,0,0
88357.775,162.903,-1014.8,0,0
88618.1,162.74,-1011.3,0,0
88878.425,162.999,-1007.72,0,0
89138.75,163.109,-1004.28,0,0
89399.075,163.415,-1000.86,0,0
89659.4,163.67,-997.675,0,0
89919.725,163.968,-994.656,0,0
90180,163.97,-991.906,0,0
90440.4,164.173,-989.087,0,0
90700.7,163.799,-986.484,0,0
90961,163.554,-983.93,0,0
91221.3,163.081,-981.276,0,0
91481.7,162.261,-978.527,0,0
91742,161.447,-975.564,0,0
92002.3,160.429,-972.415,0,0
92262.6,159.661,-968.825,0,0
92523,159.308,-965.383,0,0
92783.3,158.799,-962.197,0,0
93043.6,158.286,-958.996,0,0
93303.9,157.624,-955.559,0,0
93564.3,157.169,-952.06,0,0
93824.6,156.781,-948.454,0,0
94084.9,156.611,-944.835,0,0
94345.2,156.66,-941.201,0,0
94605.6,156.688,-937.729,0,0
94865.9,156.897,-934.743,0,0
95126.2,156.885,-931.582,0,0
95386.5,156.975,-928.427,0,0
95646.9,157.198,-925.352,0,0
95907.2,157.391,-922.42,0,0
96167.5,157.618,-919.73,0,0
96427.8,157.749,-917.107,0,0
96688.2,157.695,-914.611,0,0
96948.5,157.499,-912.086,0,0
97208.8,157.257,-909.63,0,0
97469.1,156.72,-907.091,0,0
97729.5,156.079,-904.325,0,0
97989.8,155.66,-901.32,0,0
98250.1,155.321,-898.33,0,0
98510.4,155.038,-895.255,0,0
98770.8,154.944,-892.224,0,0
99031.1,154.949,-889.192,0,0
99291.4,155.108,-886.302,0,0
99551.7,155.358,-883.639,0,0
99812.1,155.535,-881.107,0,0
100072,155.659,-878.671,0,0
100333,155.762,-876.329,0,0
100593,155.851,-874.08,0,0
100853,155.791,-871.995,0,0
101114,155.612,-870.029,0,0
101374,155.131,-868.029,0,0
101634,154.51,-865.835,0,0
101895,153.968,-863.473,0,0
102155,153.623,-861.135,0,0
102415,153.234,-858.94,0,0
102676,152.836,-856.817,0,0
102936,152.31,-854.792,0,0
103196,151.635,-852.751,0,0
103457,150.949,-850.683,0,0
103717,150.159,-848.721,0,0
103977,149.251,-846.76,0,0
104238,148.146,-844.788,0,0
104498,146.945,-842.816,0,0
104758,145.504,-840.832,0,0
105019,143.707,-838.6,0,0
105279,141.836,-836.027,0,0
105539,139.851,-833.265,0,0
105800,137.84,-830.041,0,0
106060,135.965,-826.485,0,0
106320.175,134.076,-822.683,0,0
106580.5,132.655,-818.369,0,0
106840.825,131.801,-813.956,0,0
107101.15,131.365,-809.741,0,0
107361.475,131,-805.665,0,0
107621.8,130.778,-801.681,0,0
107882.125,130.749,-797.633,0,0
108142.45,131.007,-793.719,0,0
108402.775,131.271,-790.156,0,0
108663.1,131.494,-786.555,0,0
108923.425,131.796,-782.946,0,0
109183.75,132.2,-779.439,0,0
109444.075,132.747,-775.993,0,0
109704.4,133.427,-772.531,0,0
109964.725,134.255,-769.28,0,0
110225.05,135.016,-766.309,0,0
110485.375,135.706,-763.334,0,0
110745.7,136.355,-760.291,0,0
111006.025,137.361,-757.324,0,0
111266.35,138.315,-754.438,0,0
111526.675,139.631,-751.914,0,0
111787.0,140.893,-749.785,0,0
112047.325,141.783,-747.854,0,0
112307.65,142.698,-745.997,0,0
112567.975,143.48,-744.301,0,0
112828.3,143.972,-742.704,0,0
113088.625,144.323,-741.167,0,0
113348.95,144.5,-739.599,0,0
113609.275,144.399,-737.99,0,0
113869.6,144.032,-736.224,0,0
114129.925,143.718,-734.122,0,0
114390.25,143.708,-731.766,0,0
114650.575,143.781,-729.611,0,0
114910.9,143.879,-727.366,0,0
115171.225,144.443,-725.139,0,0
115431.55,145.049,-723.474,0,0
115691.875,145.444,-722.121,0,0
115952.2,145.525,-720.971,0,0
116212.525,145.327,-719.812,0,0
116472.85,144.866,-718.773,0,0
116733.175,144.012,-717.718,0,0
116993.5,142.788,-716.418,0,0
117253.825,141.221,-714.793,0,0
117514.15,139.607,-712.655,0,0
117774.475,138.122,-710.122,0,0
118034.8,136.856,-707.384,0,0
118295.125,135.723,-704.384,0,0
118555.45,134.831,-701.325,0,0
118815.775,134.074,-698.214,0,0
119076.1,133.49,-694.919,0,0
119336.425,133.223,-691.57,0,0
119596.75,133.128,-688.33,0,0
119857.075,133.09,-685.133,0,0
120117.4,133.362,-681.846,0,0
120377.725,134.002,-678.668,0,0
120638.05,134.884,-675.912,0,0
120898.375,135.751,-673.553,0,0
121158.7,136.602,-671.451,0,0
121419.025,137.208,-669.769,0,0
121679.35,137.372,-668.256,0,0
121939.675,137.172,-666.615,0,0
122200.0,136.72,-664.773,0,0
122460,136.162,-662.608,0,0
122721,135.75,-660.261,0,0
122981,135.459,-657.772,0,0
123241,135.341,-655.329,0,0
123502,135.268,-652.89,0,0
123762,135.252,-650.497,0,0
124022,135.319,-648.169,0,0
124283,135.318,-645.958,0,0
124543,135.206,-643.775,0,0
124803,135.086,-641.598,0,0
125064,134.845,-639.406,0,0
125324,134.575,-637.134,0,0
125584,134.258,-634.793,0,0
125845,133.994,-632.37,0,0
126105,133.732,-629.913,0,0
126365,133.487,-627.401,0,0
126626,133.221,-624.926,0,0
126886,132.903,-622.257,0,0
127146,132.705,-619.651,0,0
127406,132.548,-616.818,0,0
127667,132.689,-614.024,0,0
127927,132.654,-611.289,0,0
128187,132.746,-608.492,0,0
128448,132.947,-605.647,0,0
128708,133.253,-602.85,0,0
128968,133.634,-600.144,0,0
129229,134.11,-597.527,0,0
129489,134.555,-594.996,0,0
129749,134.939,-592.538,0,0
130010,135.357,-590.051,0,0
130270,135.726,-587.635,0,0
130530,136.064,-585.2,0,0
130791,136.419,-582.694,0,0
131051,136.842,-580.2,0,0
131311,137.261,-577.728,0,0
131572,137.74,-575.191,0,0
131832,138.268,-572.759,0,0
132092,138.804,-570.314,0,0
132353,139.376,-567.915,0,0
132613,139.938,-565.475,0,0
132873,140.63,-563.08,0,0
133134,141.343,-560.782,0,0
133394,142.056,-558.59,0,0
133654,142.733,-556.41,0,0
133915,143.377,-554.271,0,0
134175,143.971,-552.15,0,0
134435,144.599,-550.036,0,0
134696,145.16,-547.961,0,0
134956,145.784,-545.851,0,0
135216,146.417,-543.774,0,0
135477,146.998,-541.685,0,0
135737,147.571,-539.661,0,0
135997,148.201,-537.441,0,0
136258,148.895,-535.383,0,0
136518,149.62,-533.321,0,0
136778,150.427,-531.375,0,0
137039,151.248,-529.487,0,0
137299,151.995,-527.727,0,0
137559,152.718,-526.049,0,0
137819,153.393,-524.415,0,0
138080,153.978,-522.869,0,0
138340.125,154.399,-521.348,0,0
138600.45,154.823,-519.884,0,0
138860.775,154.96,-518.324,0,0
139121.1,155.079,-516.622,0,0
139381.425,155.261,-514.856,0,0
139641.75,155.494,-513.12,0,0
139902.075,155.637,-511.202,0,0
140162.4,155.808,-509.314,0,0
140422.725,155.932,-507.316,0,0
140683.05,156.196,-505.36,0,0
140943.375,156.557,-503.325,0,0
141203.7,157.052,-501.476,0,0
141464.025,157.394,-499.84,0,0
141724.35,157.579,-498.194,0,0
141984.675,157.685,-496.418,0,0
142245.0,157.7,-494.745,0,0
142505.325,157.622,-492.935,0,0
142765.65,157.443,-490.991,0,0
143025.975,157.276,-488.982,0,0
143286.3,157.1,-486.651,0,0
143546.625,156.999,-484.339,0,0
143806.95,157.119,-481.916,0,0
144067.275,157.209,-479.53,0,0
144327.6,157.419,-477.066,0,0
144587.925,157.769,-474.645,0,0
144848.25,158.226,-472.173,0,0
145108.575,158.75,-469.862,0,0
145368.9,159.314,-467.533,0,0
145629.225,159.87,-465.31,0,0
145889.55,160.491,-463.208,0,0
146149.875,160.994,-461.192,0,0
146410.2,161.463,-459.187,0,0
146670.525,161.887,-457.255,0,0
146930.85,162.228,-455.404,0,0
147191.175,162.436,-453.571,0,0
147451.5,162.427,-451.697,0,0
147711.825,162.34,-449.593,0,0
147972.15,162.191,-447.318,0,0
148232.475,162.056,-444.935,0,0
148492.8,162.036,-442.454,0,0
148753.125,162.005,-439.817,0,0
149013.45,162.057,-437.111,0,0
149273.775,162.197,-434.332,0,0
149534.1,162.378,-431.448,0,0
149794.425,162.769,-428.539,0,0
150054.75,163.199,-425.539,0,0
150315.075,163.752,-422.62,0,0
150575.4,164.382,-419.764,0,0
150835.725,165.076,-416.866,0,0
151096.05,165.705,-413.916,0,0
151356.375,166.407,-410.893,0,0
151616.7,167.263,-407.713,0,0
151877.025,168.387,-404.58,0,0
152137.35,169.749,-401.531,0,0
152397.675,171.259,-398.653,0,0
152658.0,172.772,-395.96,0,0
152918.325,174.31,-393.513,0,0
153178.65,175.781,-391.25,0,0
153438.975,177.106,-389.048,0,0
153699.3,178.268,-386.829,0,0
153959.625,179.366,-384.561,0,0
154219.95,180.541,-382.247,0,0
154480,181.58,-380.045,0,0
154741,182.554,-377.573,0,0
155001,183.609,-374.962,0,0
155261,184.873,-372.303,0,0
155522,186.326,-369.643,0,0
155782,187.889,-367.165,0,0
156042,189.579,-364.812,0,0
156303,191.314,-362.595,0,0
156563,193.013,-360.529,0,0
156823,194.679,-358.591,0,0
157084,196.289,-356.935,0,0
157344,197.674,-355.35,0,0
157604,198.811,-353.79,0,0
157864,199.764,-352.14,0,0
158125,200.656,-350.315,0,0
158385,201.485,-348.394,0,0
158645,202.307,-346.344,0,0
158906,203.217,-344.284,0,0
159166,204.103,-342.13,0,0
159426,205.076,-340.006,0,0
159687,206.012,-337.831,0,0
159947,206.984,-335.669,0,0
160207,207.825,-333.504,0,0
160468,208.702,-331.252,0,0
160728,209.575,-328.953,0,0
160988,210.553,-326.609,0,0
161249,211.425,-324.303,0,0
161509,212.324,-321.931,0,0
161769,213.201,-319.506,0,0
162030,214.12,-317.048,0,0
162290,215.045,-314.452,0,0
162550,216.002,-311.905,0,0
162811,216.973,-309.26,0,0
163071,217.979,-306.612,0,0
163331,219.07,-303.927,0,0
163592,220.183,-301.278,0,0
163852,221.302,-298.688,0,0
164112,222.292,-296.053,0,0
164373,223.256,-293.312,0,0
164633,224.223,-290.559,0,0
164893,225.198,-287.635,0,0
165154,226.224,-284.632,0,0
165414,227.279,-281.517,0,0
165674,228.403,-278.329,0,0
165935,229.59,-275.121,0,0
166195,230.862,-271.819,0,0
166455,232.203,-268.51,0,0
166716,233.596,-265.158,0,0
166976,235.052,-261.805,0,0
167236,236.466,-258.324,0,0
167497,237.981,-254.839,0,0
167757,239.627,-251.273,0,0
168017,241.321,-247.571,0,0
168277,243.138,-243.897,0,0
168538,245.091,-240.208,0,0
168798,247.094,-236.542,0,0
169058,249.113,-232.867,0,0
169319,251.214,-229.189,0,0
169579,253.326,-225.49,0,0
169839,255.519,-221.757,0,0
170100,257.744,-218.025,0,0
170360.075,259.99,-214.179,0,0
170620.4,262.329,-210.333,0,0
170880.725,264.696,-206.377,0,0
171141.05,267.182,-202.384,0,0
171401.375,269.695,-198.362,0,0
171661.7,272.285,-194.242,0,0
171922.025,274.982,-190.018,0,0
172182.35,277.773,-185.806,0,0
172442.675,280.673,-181.463,0,0
172703.0,283.657,-177.098,0,0
172963.325,286.8,-172.646,0,0
173223.65,290.032,-168.168,0,0
173483.975,293.371,-163.605,0,0
173744.3,296.867,-158.994,0,0
174004.625,300.492,-154.235,0,0
174264.95,304.318,-149.441,0,0
174525.275,308.353,-144.599,0,0
174785.6,312.558,-139.701,0,0
175045.925,316.983,-134.758,0,0
175306.25,321.578,-129.858,0,0
175566.575,326.421,-124.905,0,0
175826.9,331.487,-119.998,0,0
176087.225,336.757,-115.062,0,0
176347.55,342.239,-110.214,0,0
176607.875,347.943,-105.394,0,0
176868.2,353.896,-100.576,0,0
177128.525,360.071,-95.8216,0,0
177388.85,366.474,-91.1921,0,0
177649.175,373.076,-86.672,0,0
177909.5,379.925,-82.2483,0,0
178169.825,386.919,-77.8624,0,0
178430.15,394.213,-73.6382,0,0
178690.475,401.685,-69.5017,0,0
178950.8,409.465,-65.5339,0,0
179211.125,417.438,-61.8752,0,0
179471.45,425.582,-58.331,0,0
179731.775,433.848,-55.1628,0,0
179992.1,442.161,-52.133,0,0
180252.425,450.481,-49.3574,0,0
180512.75,458.821,-46.7006,0,0
180773.075,467.114,-44.0566,0,0
181033.4,475.47,-41.5496,0,0
181293.725,484.063,-38.9175,0,0
181554.05,492.762,-36.3375,0,0
181814.375,501.639,-33.8818,0,0
182074.7,510.669,-31.571,0,0
182335.025,519.963,-29.3809,0,0
182595.35,529.389,-27.2728,0,0
182855.675,538.936,-25.5511,0,0
183116.0,548.422,-23.7217,0,0
183376.325,558.078,-22.0551,0,0
183636.65,567.838,-20.3399,0,0
183896.975,577.68,-18.7683,0,0
184157.3,587.677,-17.0731,0,0
184417.625,597.908,-15.4059,0,0
184677.95,608.437,-13.7062,0,0
184938.275,619.258,-11.9628,0,0
185198.6,630.475,-10.1588,0,0
185458.925,642.168,-8.46662,0,0
185719.25,654.373,-6.83507,0,0
185979.575,667.085,-5.4074,0,0
186239.9,680.403,-4.20306,0,0
186500,694.306,-3.42969,0,0
186761,708.717,-3.00998,0,0
187021,723.646,-3.17929,0,0
187281,738.93,-3.78175,0,0
187542,754.686,-4.94917,0,0
187802,770.836,-6.70624,0,0
188062,787.367,-9.03546,0,0
188322,804.294,-11.9837,0,0
188583,821.664,-15.6569,0,0
188843,839.392,-20.0659,0,0
189103,857.512,-25.2893,0,0
189364,875.841,-31.4655,0,0
189624,894.438,-38.5667,0,0
189884,913.266,-46.5904,0,0
190145,932.235,-55.7671,0,0
190405,951.168,-66.1044,0,0
190665,970.066,-77.567,0,0
190926,988.71,-90.3602,0,0
191186,1006.93,-104.198,0,0
191446,1024.74,-119.14,0,0
191707,1042.04,-135.2,0,0
191967,1058.82,-152.26,0,0
192227,1074.85,-170.357,0,0
192488,1090.25,-189.317,0,0
192748,1104.89,-209.14,0,0
193008,1118.78,-229.791,0,0
193269,1131.84,-251.33,0,0
193529,1144.09,-273.7,0,0
193789,1155.39,-296.847,0,0
194050,1165.87,-320.68,0,0
194310,1175.18,-345.43,0,0
194570,1183.34,-371.001,0,0
194831,1190.18,-396.987,0,0
195091,1195.77,-423.615,0,0
195351,1199.84,-450.646,0,0
195612,1202.62,-477.968,0,0
195872,1203.85,-505.541,0,0
196132,1203.57,-532.895,0,0
196393,1202.04,-560.612,0,0
196653,1198.89,-588.088,0,0
196913,1194.18,-615.076,0,0
197174,1188.29,-641.738,0,0
197434,1180.78,-667.888,0,0
197694,1171.94,-693.544,0,0
197955,1162.07,-718.354,0,0
198215,1150.79,-742.369,0,0
198475,1138.61,-765.314,0,0
198735,1125.54,-787.513,0,0
198996,1111.84,-808.445,0,0
199256,1097.28,-828.76,0,0
199516,1081.83,-848.152,0,0
199777,1066.05,-866.603,0,0
200037,1049.63,-883.789,0,0
200297,1033.12,-900.577,0,0
200558,1015.3,-916.096,0,0
200818,997.392,-930.682,0,0
201078,979.301,-944.212,0,0
201339,960.76,-956.682,0,0
201599,941.721,-967.795,0,0
201859,923.074,-978.313,0,0
202120,904.135,-987.319,0,0
202380.025,885.302,-995.813,0,0
202640.35,866.798,-1003.07,0,0
202900.675,848.42,-1009.34,0,0
203161.0,830.244,-1014.92,0,0
203421.325,812.7,-1019.65,0,0
203681.65,795.179,-1024,0,0
203941.975,777.986,-1027.18,0,0
204202.3,761.036,-1030.13,0,0
204462.625,744.879,-1032.41,0,0
204722.95,728.645,-1034.32,0,0
204983.275,712.994,-1035.2,0,0
205243.6,697.226,-1036.19,0,0
205503.925,682.116,-1036.33,0,0
205764.25,667.206,-1036.5,0,0
206024.575,652.853,-1035.99,0,0
206284.9,638.941,-1035.12,0,0
206545.225,625.25,-1034.12,0,0
206805.55,611.697,-1032.66,0,0
207065.875,598.725,-1030.8,0,0
207326.2,586.108,-1028.99,0,0
207586.525,573.706,-1026.7,0,0
207846.85,561.785,-1024.14,0,0
208107.175,549.999,-1021.6,0,0
208367.5,538.633,-1018.7,0,0
208627.825,527.592,-1015.7,0,0
208888.15,516.808,-1012.48,0,0
209148.475,506.41,-1009.16,0,0
209408.8,496.239,-1005.77,0,0
209669.125,486.464,-1002.3,0,0
209929.45,476.828,-998.737,0,0
210189.775,467.455,-994.978,0,0
210450.1,458.365,-991.253,0,0
210710.425,449.456,-987.335,0,0
210970.75,440.599,-983.531,0,0
211231.075,432.097,-979.508,0,0
211491.4,423.643,-975.374,0,0
211751.725,415.52,-971.085,0,0
212012.05,407.612,-966.679,0,0
212272.375,400.034,-962.153,0,0
212532.7,392.65,-957.52,0,0
212793.025,385.643,-953.132,0,0
213053.35,378.721,-948.601,0,0
213313.675,372.074,-944.067,0,0
213574.0,365.511,-939.529,0,0
213834.325,359.113,-934.994,0,0
214094.65,352.878,-930.373,0,0
214354.975,346.82,-925.745,0,0
214615.3,340.957,-921.074,0,0
214875.625,335.355,-916.263,0,0
215135.95,329.873,-911.576,0,0
215396.275,324.608,-906.735,0,0
215656.6,319.441,-901.957,0,0
215916.925,314.628,-897.283,0,0
216177.25,309.869,-892.615,0,0
216437.575,305.268,-887.94,0,0
216697.9,300.758,-883.279,0,0
216958.225,296.414,-878.73,0,0
217218.55,292.235,-874.098,0,0
217478.875,288.091,-869.564,0,0
217739.2,284.159,-864.956,0,0
217999.525,280.206,-860.475,0,0
218259.85,276.535,-855.864,0,0
218520,272.774,-851.4,0,0
218780,269.278,-846.872,0,0
219041,265.842,-842.396,0,0
219301,262.528,-837.882,0,0
219561,259.313,-833.502,0,0
219822,256.3,-829.008,0,0
220082,253.302,-824.523,0,0
220342,250.282,-820.168,0,0
220603,247.593,-815.816,0,0
220863,244.817,-811.374,0,0
221123,242.187,-807.059,0,0
221384,239.65,-802.65,0,0
221644,237.265,-798.267,0,0
221904,234.907,-793.966,0,0
222165,232.7,-789.599,0,0
222425,230.546,-785.365,0,0
222685,228.596,-781.064,0,0
222946,226.597,-776.847,0,0
223206,224.713,-772.519,0,0
223466,222.939,-768.288,0,0
223727,221.41,-764.079,0,0
223987,219.806,-759.9,0,0
224247,218.392,-755.551,0,0
224508,217.032,-751.512,0,0
224768,215.898,-747.329,0,0
225028,214.767,-743.261,0,0
225289,213.917,-739.307,0,0
225549,212.957,-735.508,0,0
225809,212.075,-731.572,0,0
226070,211.464,-727.807,0,0
226330,210.774,-724.193,0,0
226590,210.112,-720.499,0,0
226851,209.553,-716.979,0,0
227111,208.951,-713.541,0,0
227371,208.457,-710.147,0,0
227632,207.933,-706.792,0,0
227892,207.35,-703.473,0,0
228152,206.886,-700.077,0,0
228413,206.448,-696.844,0,0
228673,206.011,-693.459,0,0
228933,205.61,-690.228,0,0
229193,205.345,-686.94,0,0
229454,205.078,-683.716,0,0
229714,204.91,-680.459,0,0
229974,204.738,-677.133,0,0
230235,204.653,-673.917,0,0
230495,204.609,-670.679,0,0
230755,204.634,-667.486,0,0
231016,204.744,-664.266,0,0
231276,204.899,-661.114,0,0
231536,205.124,-658.002,0,0
231797,205.49,-654.898,0,0
232057,205.878,-651.763,0,0
232317,206.312,-648.669,0,0
232578,206.887,-645.659,0,0
232838,207.5,-642.638,0,0
233098,208.213,-639.696,0,0
233359,208.994,-636.785,0,0
233619,209.841,-633.916,0,0
233879,210.802,-631.122,0,0
234140,211.796,-628.369,0,0
234400,212.912,-625.597,0,0
234660.3,214.047,-622.946,0,0
234920.625,215.367,-620.43,0,0
235180.95,216.674,-617.985,0,0
235441.275,218.08,-615.472,0,0
235701.6,219.58,-613.153,0,0
235961.925,221.173,-610.835,0,0
236222.25,222.746,-608.698,0,0
236482.575,224.457,-606.607,0,0
236742.9,226.228,-604.59,0,0
237003.225,228.007,-602.702,0,0
237263.55,229.849,-600.874,0,0
237523.875,231.776,-599.187,0,0
237784.2,233.758,-597.548,0,0
238044.525,235.709,-596.087,0,0
238304.85,237.813,-594.702,0,0
238565.175,239.914,-593.402,0,0
238825.5,242.022,-592.246,0,0
239085.825,244.164,-591.215,0,0
239346.15,246.388,-590.328,0,0
239606.475,248.519,-589.527,0,0
239866.8,250.661,-588.9,0,0
240127.125,252.919,-588.321,0,0
240387.45,255.062,-587.886,0,0
240647.775,257.302,-587.618,0,0
240908.1,259.479,-587.461,0,0
241168.425,261.63,-587.401,0,0
241428.75,263.725,-587.46,0,0
241689.075,265.786,-587.68,0,0
241949.4,267.869,-587.971,0,0
242209.725,269.889,-588.362,0,0
242470.05,271.839,-588.809,0,0
242730.375,273.746,-589.454,0,0
242990.7,275.651,-590.179,0,0
243251.025,277.583,-590.931,0,0
243511.35,279.449,-591.804,0,0
243771.675,281.309,-592.868,0,0
244032.0,283.178,-594.123,0,0
244292.325,284.987,-595.51,0,0
244552.65,286.621,-597.083,0,0
244812.975,288.085,-598.922,0,0
245073.3,289.443,-600.903,0,0
245333.625,290.542,-603.004,0,0
245593.95,291.37,-605.179,0,0
245854.275,291.987,-607.207,0,0
246114.6,292.457,-609.359,0,0
246374.925,292.759,-611.475,0,0
246635.25,292.856,-613.374,0,0
246895.575,292.825,-615.371,0,0
247155.9,292.677,-617.328,0,0
247416.225,292.551,-619.15,0,0
247676.55,292.259,-620.985,0,0
247936.875,291.825,-622.846,0,0
248197.2,291.413,-624.455,0,0
248457.525,290.857,-626.128,0,0
248717.85,290.204,-627.575,0,0
248978.175,289.707,-629.015,0,0
249238.5,289.007,-630.322,0,0
249498.825,288.427,-631.531,0,0
249759.15,288.124,-632.757,0,0
250019.475,287.825,-634.063,0,0
250279.8,287.542,-635.449,0,0
250540,287.296,-636.784,0,0
250800,286.978,-638.533,0,0
251061,286.557,-640.282,0,0
251321,286.176,-642.189,0,0
251581,285.502,-644.08,0,0
251842,284.861,-646.041,0,0
252102,284.01,-647.969,0,0
252362,283.133,-650.067,0,0
252623,282.138,-652.106,0,0
252883,280.995,-654.205,0,0
253143,279.719,-656.351,0,0
253404,278.229,-658.536,0,0
253664,276.58,-660.691,0,0
253924,274.828,-662.859,0,0
254185,272.836,-664.912,0,0
254445,270.6,-666.891,0,0
254705,268.297,-668.746,0,0
254966,265.895,-670.479,0,0
255226,263.29,-672.048,0,0
255486,260.625,-673.574,0,0
255747,257.819,-674.872,0,0
256007,255.04,-676.066,0,0
256267,252.21,-677.078,0,0
256528,249.327,-677.932,0,0
256788,246.399,-678.718,0,0
257048,243.493,-679.3,0,0
257309,240.632,-679.778,0,0
257569,237.7,-680.132,0,0
257829,234.886,-680.379,0,0
258090,232.019,-680.504,0,0
258350,229.217,-680.583,0,0
258610,226.403,-680.522,0,0
258871,223.746,-680.506,0,0
259131,220.963,-680.256,0,0
259391,218.282,-679.976,0,0
259651,215.674,-679.632,0,0
259912,213.015,-679.322,0,0
260172,210.435,-678.778,0,0
260432,207.832,-678.267,0,0
260693,205.3,-677.676,0,0
260953,202.784,-677.051,0,0
261213,200.375,-676.316,0,0
261474,197.956,-675.596,0,0
261734,195.594,-674.759,0,0
261994,193.288,-673.914,0,0
262255,191.009,-672.991,0,0
262515,188.785,-672.072,0,0
262775,186.621,-671.086,0,0
263036,184.5,-670.098,0,0
263296,182.412,-669.025,0,0
263556,180.368,-668.044,0,0
263817,178.43,-666.912,0,0
264077,176.442,-665.81,0,0
264337,174.558,-664.731,0,0
264598,172.695,-663.547,0,0
264858,170.929,-662.403,0,0
265118,169.035,-661.272,0,0
265379,167.422,-660.085,0,0
265639,165.687,-658.881,0,0
265899,164.028,-657.615,0,0
266160,162.36,-656.482,0,0
266420,160.824,-655.315,0,0
266680.25,159.192,-654.131,0,0
266940.575,157.664,-652.943,0,0
267200.9,156.149,-651.746,0,0
267461.225,154.621,-650.571,0,0
267721.55,153.111,-649.354,0,0
267981.875,151.699,-648.141,0,0
268242.2,150.255,-646.903,0,0
268502.525,148.834,-645.767,0,0
268762.85,147.439,-644.507,0,0
269023.175,146.064,-643.304,0,0
269283.5,144.734,-642.034,0,0
269543.825,143.432,-640.834,0,0
269804.15,142.137,-639.566,0,0
270064.475,140.85,-638.335,0,0
270324.8,139.643,-637.085,0,0
270585.125,138.304,-635.888,0,0
270845.45,137.099,-634.597,0,0
271105.775,135.88,-633.338,0,0
271366.1,134.7,-632.124,0,0
271626.425,133.509,-630.874,0,0
271886.75,132.377,-629.597,0,0
272147.075,131.212,-628.349,0,0
272407.4,130.11,-627.075,0,0
272667.725,129.007,-625.822,0,0
272928.05,127.922,-624.565,0,0
273188.375,126.9,-623.311,0,0
273448.7,125.84,-622.019,0,0
273709.025,124.813,-620.785,0,0
273969.35,123.805,-619.518,0,0
274229.675,122.846,-618.232,0,0
274490.0,121.845,-616.974,0,0
274750.325,120.865,-615.773,0,0
275010.65,119.937,-614.481,0,0
275270.975,118.967,-613.255,0,0
275531.3,118.035,-611.934,0,0
275791.625,117.155,-610.68,0,0
276051.95,116.239,-609.432,0,0
276312.275,115.376,-608.155,0,0
276572.6,114.511,-606.868,0,0
276832.925,113.645,-605.62,0,0
277093.25,112.807,-604.348,0,0
277353.575,111.994,-603.081,0,0
277613.9,111.16,-601.787,0,0
277874.225,110.354,-600.48,0,0
278134.55,109.559,-599.193,0,0
278394.875,108.798,-597.874,0,0
278655.2,108.057,-596.562,0,0
278915.525,107.311,-595.2,0,0
279175.85,106.605,-593.865,0,0
279436.175,105.995,-592.495,0,0
279696.5,105.366,-591.136,0,0
279956.825,104.766,-589.787,0,0
280217.15,104.298,-588.44,0,0
280477.475,103.84,-587.148,0,0
280737.8,103.409,-585.877,0,0
280998.125,103.036,-584.653,0,0
281258.45,102.663,-583.504,0,0
281518.775,102.263,-582.384,0,0
281779.1,101.859,-581.301,0,0
282039.425,101.443,-580.249,0,0
282299.75,100.972,-579.204,0,0
282560,100.551,-578.242,0,0
282820,100.033,-577.087,0,0
283081,99.6314,-576.087,0,0
283341,99.0953,-574.969,0,0
283601,98.5684,-573.952,0,0
283862,98.1298,-572.919,0,0
284122,97.7118,-571.788,0,0
284382,97.2498,-570.714,0,0
284643,96.8414,-569.687,0,0
284903,96.5425,-568.538,0,0
285163,96.1436,-567.609,0,0
285424,95.8635,-566.532,0,0
285684,95.5505,-565.531,0,0
285944,95.2322,-564.617,0,0
286205,94.993,-563.702,0,0
286465,94.6332,-562.912,0,0
286725,94.2922,-562.045,0,0
286986,93.9046,-561.216,0,0
287246,93.5598,-560.302,0,0
287506,93.1304,-559.597,0,0
287767,92.6831,-558.744,0,0
288027,92.1868,-557.974,0,0
288287,91.7765,-557.121,0,0
288548,91.2438,-556.235,0,0
288808,90.8291,-555.308,0,0
289068,90.3056,-554.483,0,0
289329,89.9276,-553.612,0,0
289589,89.4185,-552.748,0,0
289849,88.9236,-551.847,0,0
290109,88.4731,-550.904,0,0
290370,88.0631,-550.064,0,0
290630,87.6335,-549.198,0,0
290890,87.2787,-548.265,0,0
291151,86.7813,-547.378,0,0
291411,86.4088,-546.596,0,0
291671,86.0111,-545.762,0,0
291932,85.6595,-544.902,0,0
292192,85.2387,-544.071,0,0
292452,84.7677,-543.234,0,0
292713,84.3724,-542.4,0,0
292973,83.9329,-541.596,0,0
293233,83.3729,-540.838,0,0
293494,82.947,-539.918,0,0
293754,82.5538,-539.15,0,0
294014,81.9903,-538.238,0,0
294275,81.5642,-537.374,0,0
294535,80.9983,-536.561,0,0
294795,80.5426,-535.623,0,0
295056,80.0301,-534.718,0,0
295316,79.5311,-533.749,0,0
295576,79.0373,-532.789,0,0
295837,78.5297,-531.86,0,0
296097,78.1423,-530.894,0,0
296357,77.7507,-529.903,0,0
296618,77.3331,-528.833,0,0
296878,76.9424,-527.892,0,0
297138,76.5907,-526.805,0,0
297399,76.2485,-525.792,0,0
297659,75.9927,-524.772,0,0
297919,75.7195,-523.762,0,0
298180,75.5469,-522.801,0,0
298440,75.2998,-521.821,0,0
298700.2,75.1292,-520.925,0,0
298960.525,74.9601,-520.099,0,0
299220.85,74.8045,-519.246,0,0
299481.175,74.6124,-518.442,0,0
299741.5,74.4123,-517.653,0,0
300001.825,74.1197,-516.91,0,0
300262.15,73.8831,-516.109,0,0
300522.475,73.5916,-515.325,0,0
300782.8,73.2139,-514.444,0,0
301043.125,73.0355,-513.717,0,0
301303.45,72.7187,-512.845,0,0
301563.775,72.3827,-512.017,0,0
301824.1,72.0955,-511.212,0,0
302084.425,71.7986,-510.438,0,0
302344.75,71.6219,-509.558,0,0
302605.075,71.3082,-508.767,0,0
302865.4,71.0089,-507.963,0,0
303125.725,70.8147,-507.092,0,0
303386.05,70.5781,-506.229,0,0
303646.375,70.2991,-505.41,0,0
303906.7,70.1016,-504.638,0,0
304167.025,69.8773,-503.77,0,0
304427.35,69.6846,-502.935,0,0
304687.675,69.5247,-502.153,0,0
304948.0,69.2521,-501.384,0,0
305208.325,69.0732,-500.585,0,0
305468.65,68.9254,-499.847,0,0
305728.975,68.6643,-499.055,0,0
305989.3,68.4855,-498.313,0,0
306249.625,68.2798,-497.596,0,0
306509.95,68.0369,-496.823,0,0
306770.275,67.8446,-496.089,0,0
307030.6,67.5874,-495.388,0,0
307290.925,67.3709,-494.636,0,0
307551.25,67.172,-493.916,0,0
307811.575,66.9282,-493.187,0,0
308071.9,66.6863,-492.395,0,0
308332.225,66.4562,-491.682,0,0
308592.55,66.2121,-490.868,0,0
308852.875,65.9891,-490.111,0,0
309113.2,65.7972,-489.412,0,0
309373.525,65.544,-488.635,0,0
309633.85,65.371,-487.955,0,0
309894.175,65.1092,-487.152,0,0
310154.5,64.9582,-486.47,0,0
310414.825,64.7867,-485.741,0,0
310675.15,64.5485,-484.982,0,0
310935.475,64.3128,-484.23,0,0
311195.8,64.1801,-483.576,0,0
311456.125,63.9383,-482.868,0,0
311716.45,63.743,-482.126,0,0
311976.775,63.5276,-481.39,0,0
312237.1,63.3161,-480.657,0,0
312497.425,63.1291,-479.988,0,0
312757.75,62.9404,-479.203,0,0
313018.075,62.6909,-478.532,0,0
313278.4,62.498,-477.798,0,0
313538.725,62.279,-477.072,0,0
313799.05,62.0787,-476.423,0,0
314059.375,61.9175,-475.649,0,0
314319.7,61.7241,-474.928,0,0
314580,61.5489,-474.217,0,0
314840,61.3104,-473.518,0,0
315101,61.1795,-472.801,0,0
315361,60.9568,-472.091,0,0
315621,60.7377,-471.341,0,0
315882,60.5548,-470.723,0,0
316142,60.3931,-470.006,0,0
316402,60.2107,-469.297,0,0
316663,60.0401,-468.592,0,0
316923,59.8457,-467.9,0,0
317183,59.6522,-467.184,0,0
317444,59.4769,-466.475,0,0
317704,59.3133,-465.829,0,0
317964,59.1113,-465.111,0,0
318225,58.9956,-464.389,0,0
318485,58.8076,-463.708,0,0
318745,58.6472,-462.995,0,0
319006,58.4507,-462.268,0,0
319266,58.2691,-461.574,0,0
319526,58.1034,-460.852,0,0
319787,57.9649,-460.156,0,0
320047,57.7963,-459.478,0,0
320307,57.6908,-458.792,0,0
320567,57.5026,-458.036,0,0
320828,57.3491,-457.406,0,0
321088,57.2619,-456.746,0,0
321348,57.0932,-456.017,0,0
321609,56.9681,-455.331,0,0
321869,56.8247,-454.657,0,0
322129,56.6745,-453.976,0,0
322390,56.5486,-453.315,0,0
322650,56.4461,-452.675,0,0
322910,56.2883,-452.032,0,0
323171,56.1815,-451.351,0,0
323431,56.0458,-450.693,0,0
323691,55.9022,-450.041,0,0
323952,55.7876,-449.381,0,0
324212,55.5908,-448.725,0,0
324472,55.484,-448.059,0,0
324733,55.3241,-447.451,0,0
324993,55.1917,-446.782,0,0
325253,55.0789,-446.102,0,0
325514,54.8864,-445.471,0,0
325774,54.7635,-444.818,0,0
326034,54.6403,-444.197,0,0
326295,54.5148,-443.499,0,0
326555,54.3245,-442.832,0,0
326815,54.2328,-442.225,0,0
327076,54.0756,-441.573,0,0
327336,53.9256,-440.873,0,0
327596,53.7977,-440.231,0,0
327857,53.701,-439.544,0,0
328117,53.5557,-438.913,0,0
328377,53.4315,-438.239,0,0
328638,53.3553,-437.534,0,0
328898,53.179,-436.875,0,0
329158,53.0845,-436.213,0,0
329419,53.0017,-435.556,0,0
329679,52.886,-434.96,0,0
329939,52.7879,-434.259,0,0
330200,52.6744,-433.606,0,0
330460,52.5591,-432.971,0,0
330720.15,52.4937,-432.285,0,0
330980.475,52.4201,-431.655,0,0
331240.8,52.3076,-430.974,0,0
331501.125,52.2328,-430.336,0,0
331761.45,52.195,-429.688,0,0
332021.775,52.0555,-429.056,0,0
332282.1,51.9956,-428.412,0,0
332542.425,51.9133,-427.778,0,0
332802.75,51.8857,-427.179,0,0
333063.075,51.7819,-426.498,0,0
333323.4,51.7184,-425.877,0,0
333583.725,51.622,-425.276,0,0
333844.05,51.5584,-424.66,0,0
334104.375,51.4746,-424.019,0,0
334364.7,51.4462,-423.409,0,0
334625.025,51.3374,-422.793,0,0
334885.35,51.2589,-422.134,0,0
335145.675,51.2476,-421.532,0,0
335406.0,51.1728,-420.943,0,0
335666.325,51.0962,-420.293,0,0
335926.65,50.9946,-419.684,0,0
336186.975,50.9678,-419.107,0,0
336447.3,50.9202,-418.456,0,0
336707.625,50.8428,-417.866,0,0
336967.95,50.7662,-417.237,0,0
337228.275,50.7394,-416.695,0,0
337488.6,50.6857,-416.079,0,0
337748.925,50.6251,-415.457,0,0
338009.25,50.5654,-414.914,0,0
338269.575,50.4487,-414.278,0,0
338529.9,50.3539,-413.68,0,0
338790.225,50.3594,-413.044,0,0
339050.55,50.308,-412.442,0,0
339310.875,50.2337,-411.832,0,0
339571.2,50.2135,-411.236,0,0
339831.525,50.1572,-410.653,0,0
340091.85,50.1135,-410.043,0,0
340352.175,50.0642,-409.456,0,0
340612.5,49.993,-408.831,0,0
340872.825,49.9822,-408.202,0,0
341133.15,49.9431,-407.568,0,0
341393.475,49.9728,-407.009,0,0
341653.8,49.8723,-406.389,0,0
341914.125,49.9248,-405.778,0,0
342174.45,49.886,-405.178,0,0
342434.775,49.8852,-404.633,0,0
342695.1,49.8982,-404.019,0,0
342955.425,49.9126,-403.44,0,0
343215.75,49.8998,-402.885,0,0
343476.075,49.9104,-402.328,0,0
343736.4,49.9531,-401.819,0,0
343996.725,49.9027,-401.257,0,0
344257.05,49.8873,-400.741,0,0
344517.375,49.8604,-400.193,0,0
344777.7,49.8661,-399.664,0,0
345038.025,49.8164,-399.087,0,0
345298.35,49.73,-398.504,0,0
345558.675,49.7508,-397.975,0,0
345819.0,49.7375,-397.396,0,0
346079.325,49.7015,-396.835,0,0
346339.65,49.6912,-396.283,0,0
346599.975,49.6715,-395.741,0,0
346860,49.6864,-395.188,0,0
347121,49.6792,-394.611,0,0
347381,49.6667,-394.075,0,0
347641,49.6859,-393.489,0,0
347902,49.6921,-392.918,0,0
348162,49.7283,-392.43,0,0
348422,49.7319,-391.846,0,0
348683,49.7658,-391.304,0,0
348943,49.7999,-390.759,0,0
349203,49.8257,-390.299,0,0
349464,49.8133,-389.724,0,0
349724,49.8857,-389.207,0,0
349984,49.8684,-388.708,0,0
350245,49.9392,-388.229,0,0
350505,49.962,-387.679,0,0
350765,49.9744,-387.232,0,0
351025,50.0097,-386.742,0,0
351286,50.0486,-386.227,0,0
351546,50.0541,-385.739,0,0
351806,50.0791,-385.257,0,0
352067,50.0943,-384.789,0,0
352327,50.1484,-384.27,0,0
352587,50.1468,-383.843,0,0
352848,50.1557,-383.365,0,0
353108,50.1948,-382.911,0,0
353368,50.1817,-382.466,0,0
353629,50.1864,-381.999,0,0
353889,50.1985,-381.569,0,0
354149,50.2157,-381.113,0,0
354410,50.2054,-380.709,0,0
354670,50.2309,-380.269,0,0
354930,50.2049,-379.838,0,0
355191,50.1826,-379.403,0,0
355451,50.1566,-378.953,0,0
355711,50.1407,-378.54,0,0
355972,50.1121,-378.111,0,0
356232,50.0738,-377.656,0,0
356492,50.0315,-377.232,0,0
356753,49.9716,-376.753,0,0
357013,49.9322,-376.309,0,0
357273,49.8992,-375.891,0,0
357534,49.8329,-375.401,0,0
357794,49.7814,-374.977,0,0
358054,49.7451,-374.484,0,0
358315,49.7278,-374.071,0,0
358575,49.6619,-373.585,0,0
358835,49.5943,-373.111,0,0
359096,49.5873,-372.686,0,0
359356,49.5427,-372.175,0,0
359616,49.5265,-371.773,0,0
359877,49.4676,-371.264,0,0
360137,49.4228,-370.848,0,0
360397,49.32,-370.416,0,0
360658,49.2638,-369.923,0,0
360918,49.2718,-369.44,0,0
361178,49.1848,-368.971,0,0
361438,49.1133,-368.5,0,0
361699,49.0397,-368.016,0,0
361959,49.0142,-367.544,0,0
362219,48.9568,-367.092,0,0
362480,48.9203,-366.564,0,0
362740.1,48.8861,-366.114,0,0
363000.425,48.8329,-365.617,0,0
363260.75,48.8149,-365.121,0,0
363521.075,48.7715,-364.624,0,0
363781.4,48.7458,-364.178,0,0
364041.725,48.68,-363.693,0,0
364302.05,48.6522,-363.18,0,0
364562.375,48.6494,-362.702,0,0
364822.7,48.6472,-362.214,0,0
365083.025,48.5973,-361.717,0,0
365343.35,48.5766,-361.229,0,0
365603.675,48.5453,-360.763,0,0
365864.0,48.5772,-360.268,0,0
366124.325,48.5491,-359.768,0,0
366384.65,48.5215,-359.308,0,0
366644.975,48.5136,-358.844,0,0
366905.3,48.51,-358.354,0,0
367165.625,48.4807,-357.918,0,0
367425.95,48.4981,-357.426,0,0
367686.275,48.4881,-356.972,0,0
367946.6,48.459,-356.514,0,0
368206.925,48.4412,-356.064,0,0
368467.25,48.4438,-355.596,0,0
368727.575,48.4153,-355.111,0,0
368987.9,48.3843,-354.672,0,0
369248.225,48.3647,-354.186,0,0
369508.55,48.3742,-353.729,0,0
369768.875,48.3548,-353.229,0,0
370029.2,48.3372,-352.804,0,0
370289.525,48.3419,-352.312,0,0
370549.85,48.3305,-351.843,0,0
370810.175,48.329,-351.371,0,0
371070.5,48.315,-350.902,0,0
371330.825,48.3406,-350.448,0,0
371591.15,48.3478,-349.982,0,0
371851.475,48.3772,-349.537,0,0
372111.8,48.3893,-349.061,0,0
372372.125,48.4242,-348.638,0,0
372632.45,48.4421,-348.18,0,0
372892.775,48.4511,-347.773,0,0
373153.1,48.5082,-347.332,0,0
373413.425,48.4821,-346.931,0,0
373673.75,48.4833,-346.541,0,0
373934.075,48.5107,-346.16,0,0
374194.4,48.4927,-345.77,0,0
374454.725,48.4699,-345.395,0,0
374715.05,48.4003,-345.01,0,0
374975.375,48.3495,-344.601,0,0
375235.7,48.2617,-344.193,0,0
375496.025,48.1984,-343.8,0,0
375756.35,48.1002,-343.362,0,0
376016.675,48.0402,-342.902,0,0
376277.0,47.9695,-342.452,0,0
376537.325,47.873,-342.017,0,0
376797.65,47.8234,-341.577,0,0
377057.975,47.7285,-341.084,0,0
377318.3,47.6659,-340.628,0,0
377578.625,47.5981,-340.154,0,0
377838.95,47.5453,-339.698,0,0
378099.275,47.4946,-339.209,0,0
378359.6,47.4092,-338.715,0,0
378619.925,47.3767,-338.247,0,0
378880,47.3138,-337.745,0,0
379141,47.2676,-337.246,0,0
379401,47.2241,-336.765,0,0
379661,47.169,-336.262,0,0
379922,47.117,-335.736,0,0
380182,47.0858,-335.266,0,0
380442,47.0423,-334.738,0,0
380703,46.9889,-334.233,0,0
380963,46.9791,-333.715,0,0
381223,46.9308,-333.207,0,0
381483,46.922,-332.659,0,0
381744,46.9103,-332.166,0,0
382004,46.9492,-331.607,0,0
382264,46.9655,-331.082,0,0
382525,47.0043,-330.579,0,0
382785,47.0478,-330.029,0,0
383045,47.1395,-329.565,0,0
383306,47.1934,-329.113,0,0
383566,47.2364,-328.698,0,0
383826,47.2556,-328.273,0,0
384087,47.2562,-327.883,0,0
384347,47.2238,-327.456,0,0
384607,47.1957,-326.988,0,0
384868,47.1457,-326.586,0,0
385128,47.1247,-326.092,0,0
385388,47.0878,-325.638,0,0
385649,47.0523,-325.126,0,0
385909,47.0325,-324.65,0,0
386169,46.9919,-324.169,0,0
386430,46.996,-323.665,0,0
386690,46.957,-323.167,0,0
386950,46.9479,-322.691,0,0
387211,46.92,-322.21,0,0
387471,46.8863,-321.703,0,0
387731,46.8785,-321.213,0,0
387992,46.8607,-320.704,0,0
388252,46.8796,-320.195,0,0
388512,46.862,-319.73,0,0
388773,46.8481,-319.213,0,0
389033,46.8319,-318.704,0,0
389293,46.8678,-318.181,0,0
389554,46.8575,-317.707,0,0
389814,46.8373,-317.187,0,0
390074,46.8525,-316.691,0,0
390335,46.8747,-316.197,0,0
390595,46.8685,-315.64,0,0
390855,46.8521,-315.158,0,0
391116,46.8567,-314.656,0,0
391376,46.8858,-314.155,0,0
391636,46.8658,-313.62,0,0
391896,46.8721,-313.123,0,0
392157,46.8608,-312.58,0,0
392417,46.9017,-312.082,0,0
392677,46.9193,-311.58,0,0
392938,46.9234,-311.067,0,0
393198,46.9306,-310.529,0,0
393458,46.9539,-310.013,0,0
393719,46.9758,-309.501,0,0
393979,46.9803,-308.972,0,0
394239,46.9837,-308.465,0,0
394500,47.0185,-307.922,0,0
394760.05,47.0561,-307.411,0,0
395020.375,47.0823,-306.853,0,0
395280.7,47.1052,-306.336,0,0
395541.025,47.1377,-305.818,0,0
395801.35,47.1381,-305.27,0,0
396061.675,47.1773,-304.745,0,0
396322.0,47.206,-304.213,0,0
396582.325,47.2602,-303.669,0,0
396842.65,47.2659,-303.124,0,0
397102.975,47.3156,-302.598,0,0
397363.3,47.346,-302.059,0,0
397623.625,47.3768,-301.515,0,0
397883.95,47.4431,-300.969,0,0
398144.275,47.4782,-300.418,0,0
398404.6,47.5099,-299.869,0,0
398664.925,47.5588,-299.319,0,0
398925.25,47.6205,-298.793,0,0
399185.575,47.666,-298.23,0,0
399445.9,47.7355,-297.702,0,0
399706.225,47.7893,-297.136,0,0
399966.55,47.845,-296.583,0,0
400006.6,47.8449,-296.488,0,0