File: Accelerated corrosion test data/2025-10-14_18-00-03/sample_2.csv
Frequency (Hz),Impedance (ohms),Phase (Radians),Temperature (C),Humidity (%)
10000.0,231.489,-11372.4,0,0
10260.325,225.988,-11085.9,0,0
10520.65,220.417,-10814.1,0,0
10780.975,215.395,-10554.8,0,0
11041.3,210.438,-10308.4,0,0
11301.625,205.761,-10072.1,0,0
11561.95,202.329,-9845.9,0,0
11822.275,199.782,-9637.9,0,0
12082.6,195.096,-9428.35,0,0
12342.925,189.228,-9233.23,0,0
12603.25,185.424,-9042.33,0,0
12863.575,182.176,-8859.62,0,0
13123.9,178.98,-8687.16,0,0
13384.225,174.921,-8517.31,0,0
13644.55,172.283,-8352.75,0,0
13904.875,186.09,-8207,0,0
14165.2,166.25,-8055.65,0,0
14425.525,163.555,-7909.04,0,0
14685.8,166.372,-7762.24,0,0
14946.175,161.05,-7633.75,0,0
15206.5,162.408,-7514.38,0,0
15466.825,163.899,-7380.21,0,0
15727.15,152.732,-7266.62,0,0
15987.5,150.224,-7145.83,0,0
16247.8,149.847,-7032.84,0,0
16508.125,144.398,-6922.66,0,0
16768.45,142.204,-6814.93,0,0
17028.775,140.294,-6711.35,0,0
17289.1,138.848,-6611.58,0,0
17549.425,136.046,-6512.75,0,0
17809.75,133.46,-6417.48,0,0
18070.075,132.497,-6325.88,0,0
18330.4,131.025,-6235.22,0,0
18590.725,129.723,-6147.43,0,0
18851.05,128.261,-6061.73,0,0
19111.375,129.4,-5980.73,0,0
19371.7,128.73,-5903.84,0,0
19632.025,123.986,-5825.42,0,0
19892.35,121.599,-5748.16,0,0
20152.675,119.99,-5672.78,0,0
20413.0,119.352,-5599.35,0,0
20673.3,118.494,-5526.91,0,0
20933.65,119.101,-5455.8,0,0
21193.975,123.194,-5389.4,0,0
21454.3,130.286,-5329.07,0,0
21714.625,126.456,-5271.98,0,0
21974.9,123.363,-5206.87,0,0
22235.275,118.939,-5152.22,0,0
22495.6,115.37,-5092.55,0,0
22755.925,113.014,-5031.45,0,0
23016.25,112.718,-4976.9,0,0
23276.6,112.624,-4922.27,0,0
23536.9,108.763,-4868.15,0,0
23797.225,107.892,-4813.67,0,0
24057.55,106.473,-4763.62,0,0
24317.875,103.79,-4712.3,0,0
24578.2,101.804,-4661.65,0,0
24838.525,101.033,-4612.14,0,0
25098.85,100.65,-4563.74,0,0
25359.175,98.5469,-4515.9,0,0
25619.5,98.04,-4469.89,0,0
25879.8,96.9991,-4423.93,0,0
26140.1,96.9197,-4380.02,0,0
26400.5,96.2237,-4336.32,0,0
26660.8,96.2549,-4295.31,0,0
26921.1,95.8329,-4252.83,0,0
27181.4,94.8392,-4213.49,0,0
27441.8,92.78,-4173.39,0,0
27702.1,90.8448,-4132.92,0,0
27962.4,90.8873,-4092.9,0,0
28222.7,90.8112,-4054.69,0,0
28483.1,90.543,-4017.08,0,0
28743.4,89.524,-3979.77,0,0
29003.7,90.9075,-3943.25,0,0
29264,90.9389,-3906.7,0,0
29524.4,94.2663,-3872.15,0,0
29784.7,95.8617,-3843.88,0,0
30045,93.2297,-3811.32,0,0
30305.3,94.6034,-3779.16,0,0
30565.7,90.076,-3750.8,0,0
30826,87.8311,-3717.58,0,0
31086.3,86.9367,-3686.38,0,0
31346.6,85.4297,-3654.91,0,0
31607,85.5833,-3625.2,0,0
31867.3,83.3523,-3595.27,0,0
32127.6,82.425,-3564.75,0,0
32387.9,82.88,-3534.5,0,0
32648.3,83.9592,-3507.49,0,0
32908.6,83.41,-3481.39,0,0
33168.9,81.9638,-3454.43,0,0
33429.2,80.1903,-3426.89,0,0
33689.6,79.7718,-3400.38,0,0
33949.9,78.979,-3374.71,0,0
34210.2,77.5803,-3348.34,0,0
34470.5,76.6048,-3322.59,0,0
34730.9,76.0751,-3296.9,0,0
34991.2,75.7287,-3272.2,0,0
35251.5,75.1603,-3247.85,0,0
35511.8,74.4382,-3223.3,0,0
35772.2,74.2357,-3199.7,0,0
36032.5,73.501,-3176.31,0,0
36292.8,72.8511,-3152.99,0,0
36553.1,72.4843,-3130.11,0,0
36813.5,72.1908,-3107.71,0,0
37073.8,71.6771,-3085.54,0,0
37334.1,71.4525,-3063.52,0,0
37594.4,71.0986,-3042.17,0,0
37854.8,70.9189,-3020.93,0,0
38115.1,70.327,-3000.23,0,0
38375.4,69.4673,-2979.25,0,0
38635.7,69.3464,-2958.93,0,0
38896.1,69.0418,-2938.71,0,0
39156.4,68.3963,-2918.77,0,0
39416.7,68.2079,-2899.06,0,0
39677,67.7065,-2879.66,0,0
39937.4,67.3892,-2860.64,0,0
40197.7,66.8731,-2841.69,0,0
40458,66.6272,-2822.55,0,0
40718.3,66.7138,-2804.2,0,0
40978.7,66.4303,-2786.37,0,0
41239,65.9415,-2768.02,0,0
41499.3,65.8834,-2750.49,0,0
41759.6,65.4583,-2733.01,0,0
42020,65.4309,-2715.68,0,0
42280.275,65.2117,-2698.72,0,0
42540.6,64.7662,-2681.79,0,0
42800.925,64.397,-2665.35,0,0
43061.25,64.0476,-2648.7,0,0
43321.575,63.973,-2632.06,0,0
43581.9,63.7776,-2616.24,0,0
43842.225,63.3558,-2600.33,0,0
44102.55,63.1517,-2584.42,0,0
44362.875,63.304,-2568.86,0,0
44623.2,62.6921,-2553.76,0,0
44883.525,62.3923,-2538.33,0,0
45143.85,62.2254,-2523.21,0,0
45404.175,62.3019,-2508.4,0,0
45664.5,61.6106,-2493.6,0,0
45924.825,62.3211,-2478.83,0,0
46185.15,62.1522,-2465.23,0,0
46445.475,61.2869,-2450.84,0,0
46705.8,61.0872,-2436.34,0,0
46966.125,61.1531,-2422.57,0,0
47226.45,61.4215,-2408.51,0,0
47486.775,61.1398,-2395.55,0,0
47747.1,60.8195,-2381.73,0,0
48007.425,60.8481,-2368.22,0,0
48267.75,61.5895,-2354.81,0,0
48528.075,61.7473,-2342.66,0,0
48788.4,61.5029,-2330.8,0,0
49048.725,60.9234,-2318.45,0,0
49309.05,60.068,-2306.03,0,0
49569.375,59.4164,-2293.54,0,0
49829.7,59.0524,-2280.96,0,0
50090.025,58.7467,-2268.83,0,0
50350.35,58.2729,-2256.42,0,0
50610.675,57.9765,-2244.23,0,0
50871.0,58.0836,-2232.18,0,0
51131.325,57.8035,-2220.74,0,0
51391.65,57.5236,-2209.22,0,0
51651.975,56.9794,-2197.58,0,0
51912.3,56.5381,-2186.15,0,0
52172.625,56.1894,-2174.5,0,0
52432.95,55.8909,-2163.15,0,0
52693.275,55.6025,-2151.89,0,0
52953.6,55.4595,-2140.54,0,0
53213.925,55.298,-2129.49,0,0
53474.25,55.2368,-2118.66,0,0
53734.575,54.8045,-2107.75,0,0
53994.9,54.788,-2096.9,0,0
54255.225,54.7808,-2086.18,0,0
54515.55,54.5693,-2075.75,0,0
54775.875,54.6397,-2065.31,0,0
55036.2,54.4197,-2054.96,0,0
55296.525,54.3126,-2044.58,0,0
55556.85,54.2582,-2034.44,0,0
55817.175,54.3184,-2024.42,0,0
56077.5,54.2171,-2014.46,0,0
56337.825,54.1609,-2004.51,0,0
56598.15,54.0743,-1994.73,0,0
56858.475,54.1589,-1984.95,0,0
57118.8,54.1982,-1975.39,0,0
57379.125,54.3367,-1965.75,0,0
57639.45,54.3616,-1956.26,0,0
57899.775,54.5006,-1947.01,0,0
58160.1,54.3813,-1937.9,0,0
58420.4,54.2476,-1928.64,0,0
58680.7,54.2468,-1919.25,0,0
58941.1,54.5764,-1910.06,0,0
59201.4,54.6599,-1901.1,0,0
59461.7,54.883,-1892.16,0,0
59722,55.3146,-1883.14,0,0
59982.4,55.928,-1874.43,0,0
60242.7,56.5534,-1866.3,0,0
60503,56.4392,-1858.28,0,0
60763.3,56.5152,-1849.65,0,0
61023.7,57.1085,-1841.27,0,0
61284,57.6768,-1833.08,0,0
61544.3,58.4934,-1825.3,0,0
61804.6,59.4117,-1818.34,0,0
62065,59.0282,-1812.05,0,0
62325.3,58.3905,-1804.42,0,0
62585.6,58.124,-1796.97,0,0
62845.9,57.8799,-1790.08,0,0
63106.3,56.5607,-1783.03,0,0
63366.6,55.9715,-1775,0,0
63626.9,55.3345,-1767.51,0,0
63887.2,54.7441,-1759.72,0,0
64147.6,54.3702,-1752.22,0,0
64407.9,53.8463,-1744.89,0,0
64668.2,53.1665,-1737.59,0,0
64928.5,52.171,-1730.02,0,0
65188.9,51.1967,-1721.97,0,0
65449.2,50.8672,-1713.64,0,0
65709.5,50.9315,-1705.66,0,0
65969.8,51.1255,-1698,0,0
66230.2,51.2503,-1690.56,0,0
66490.5,51.3522,-1683.13,0,0
66750.8,51.3037,-1675.89,0,0
67011.1,51.2583,-1668.38,0,0
67271.5,51.7347,-1660.85,0,0
67531.8,52.3082,-1653.7,0,0
67792.1,53.1049,-1646.79,0,0
68052.4,53.6887,-1640.51,0,0
68312.8,53.516,-1633.98,0,0
68573.1,53.7332,-1626.92,0,0
68833.4,54.7627,-1620.49,0,0
69093.7,55.208,-1614.59,0,0
69354.1,55.3407,-1608.5,0,0
69614.4,55.997,-1602.67,0,0
69874.7,56.0961,-1597.38,0,0
70135,55.9421,-1592.05,0,0
70395.4,55.3738,-1586.89,0,0
70655.7,54.1748,-1581.3,0,0
70916,53.2394,-1574.95,0,0
71176.3,52.8268,-1568.98,0,0
71436.7,52.147,-1563.17,0,0
71697,51.3653,-1557.37,0,0
71957.3,50.2297,-1551.51,0,0
72217.6,49.0753,-1545.2,0,0
72478,48.1104,-1538.66,0,0
72738.3,47.3417,-1532.01,0,0
72998.6,46.8111,-1525.23,0,0
73258.9,46.4818,-1518.92,0,0
73519.3,45.8866,-1512.54,0,0
73779.6,45.3681,-1505.78,0,0
74039.9,45.3148,-1499.12,0,0
74300.225,45.3285,-1492.62,0,0
74560.55,45.356,-1486.27,0,0
74820.875,45.457,-1479.92,0,0
75081.2,45.5498,-1473.64,0,0
75341.525,45.8267,-1467.42,0,0
75601.85,46.0774,-1461.31,0,0
75862.175,46.4266,-1455.18,0,0
76122.5,46.8883,-1449.29,0,0
76382.825,47.3176,-1443.43,0,0
76643.15,47.7641,-1437.71,0,0
76903.475,48.1724,-1432,0,0
77163.8,48.7557,-1426.22,0,0
77424.125,49.4919,-1420.75,0,0
77684.45,50.1695,-1415.42,0,0
77944.775,50.8299,-1410.22,0,0
78205.1,51.6314,-1405.17,0,0
78465.425,52.3586,-1400.46,0,0
78725.75,52.807,-1395.76,0,0
78986.075,53.2927,-1391.31,0,0
79246.4,53.476,-1386.99,0,0
79506.725,53.6605,-1382.7,0,0
79767.05,53.4108,-1378.67,0,0
80027.375,52.7105,-1374.43,0,0
80287.7,51.9722,-1369.77,0,0
80548.025,51.3722,-1364.93,0,0
80808.35,50.8002,-1359.94,0,0
81068.675,50.2957,-1354.92,0,0
81329.0,49.8937,-1349.89,0,0
81589.325,49.4638,-1344.9,0,0
81849.65,49.0364,-1339.76,0,0
82109.975,48.8275,-1334.69,0,0
82370.3,48.545,-1329.56,0,0
82630.625,48.4237,-1324.28,0,0
82890.95,48.362,-1319.17,0,0
83151.275,48.4738,-1314.02,0,0
83411.6,48.6575,-1309.04,0,0
83671.925,48.8027,-1304.15,0,0
83932.25,48.9338,-1299.28,0,0
84192.575,49.2125,-1294.54,0,0
84452.9,49.3325,-1289.94,0,0
84713.225,49.3708,-1285.23,0,0
84973.55,49.4796,-1280.5,0,0
85233.875,49.6857,-1275.8,0,0
85494.2,49.9338,-1271.03,0,0
85754.525,50.3255,-1266.56,0,0
86014.85,50.6247,-1262.18,0,0
86275.175,50.7855,-1257.88,0,0
86535.5,50.8973,-1253.61,0,0
86795.825,50.9246,-1249.17,0,0
87056.15,51.2382,-1244.77,0,0
87316.475,51.626,-1240.66,0,0
87576.8,51.5694,-1236.68,0,0
87837.125,51.4996,-1232.38,0,0
88097.45,51.5457,-1228.03,0,0
88357.775,51.7192,-1223.87,0,0
88618.1,51.5848,-1220.03,0,0
88878.425,51.3387,-1215.52,0,0
89138.75,51.5178,-1211,0,0
89399.075,51.7203,-1206.92,0,0
89659.4,51.9611,-1202.53,0,0
89919.725,52.4396,-1198.54,0,0
90180,52.47,-1195,0,0
90440.4,52.0049,-1191.01,0,0
90700.7,51.5976,-1186.43,0,0
90961,51.9949,-1181.82,0,0
91221.3,52.6203,-1177.8,0,0
91481.7,52.7777,-1173.87,0,0
91742,52.8976,-1169.77,0,0
92002.3,53.2542,-1165.6,0,0
92262.6,53.8659,-1161.47,0,0
92523,54.4378,-1157.77,0,0
92783.3,54.7431,-1154.03,0,0
93043.6,55.2937,-1150.35,0,0
93303.9,55.5675,-1146.9,0,0
93564.3,56.0139,-1143.17,0,0
93824.6,56.647,-1140.08,0,0
94084.9,56.6683,-1137.18,0,0
94345.2,56.1467,-1133.86,0,0
94605.6,56.0447,-1130.19,0,0
94865.9,56.1686,-1126.79,0,0
95126.2,55.606,-1123.7,0,0
95386.5,54.7082,-1119.66,0,0
95646.9,54.5524,-1115.07,0,0
95907.2,55.2154,-1110.7,0,0
96167.5,56.1327,-1106.91,0,0
96427.8,56.8901,-1103.52,0,0
96688.2,57.4806,-1100.46,0,0
96948.5,57.9324,-1097.28,0,0
97208.8,58.5387,-1094.46,0,0
97469.1,58.6561,-1091.95,0,0
97729.5,58.4395,-1089.14,0,0
97989.8,58.2607,-1086.33,0,0
98250.1,58.1233,-1083.41,0,0
98510.4,57.942,-1080.69,0,0
98770.8,57.4264,-1078.07,0,0
99031.1,56.7002,-1075.33,0,0
99291.4,55.7228,-1072.47,0,0
99551.7,54.5156,-1069.22,0,0
99812.1,53.5821,-1065.42,0,0
100072,53.0092,-1061.68,0,0
100333,52.7771,-1058.13,0,0
100593,52.3623,-1055.06,0,0
100853,51.5213,-1051.83,0,0
101114,50.5519,-1048.46,0,0
101374,49.3275,-1044.85,0,0
101634,48.2774,-1040.58,0,0
101895,47.764,-1036.19,0,0
102155,47.5684,-1032.13,0,0
102415,47.2673,-1028.21,0,0
102676,46.8109,-1024.32,0,0
102936,46.3427,-1020.08,0,0
103196,46.0644,-1015.71,0,0
103457,46.064,-1011.23,0,0
103717,46.2927,-1006.92,0,0
103977,46.6518,-1002.61,0,0
104238,47.2795,-998.352,0,0
104498,48.0767,-994.338,0,0
104758,48.9062,-990.591,0,0
105019,49.6728,-987.01,0,0
105279,50.3511,-983.328,0,0
105539,51.2551,-979.604,0,0
105800,52.3591,-976.201,0,0
106060,53.3826,-973.047,0,0
106320.175,54.4681,-969.966,0,0
106580.5,55.6422,-967.267,0,0
106840.825,56.5031,-964.882,0,0
107101.15,57.1451,-962.565,0,0
107361.475,57.5262,-960.375,0,0
107621.8,57.7038,-958.155,0,0
107882.125,57.7508,-955.945,0,0
108142.45,57.3867,-953.814,0,0
108402.775,56.9095,-951.171,0,0
108663.1,56.5741,-948.583,0,0
108923.425,55.9968,-946.065,0,0
109183.75,55.2558,-943.154,0,0
109444.075,54.6844,-940.054,0,0
109704.4,54.1345,-937.095,0,0
109964.725,53.3866,-933.863,0,0
110225.05,52.7861,-930.396,0,0
110485.375,52.4251,-926.808,0,0
110745.7,52.1267,-923.316,0,0
111006.025,52.1201,-919.771,0,0
111266.35,52.0369,-916.228,0,0
111526.675,52.0527,-912.573,0,0
111787.0,52.024,-909.037,0,0
112047.325,52.1704,-905.654,0,0
112307.65,52.1881,-902.22,0,0
112567.975,52.3692,-898.694,0,0
112828.3,52.5402,-895.272,0,0
113088.625,52.7657,-891.745,0,0
113348.95,53.1597,-888.219,0,0
113609.275,53.5575,-884.891,0,0
113869.6,53.9093,-881.52,0,0
114129.925,54.374,-878.147,0,0
114390.25,54.8951,-874.823,0,0
114650.575,55.4028,-871.493,0,0
114910.9,56.0102,-868.174,0,0
115171.225,56.7272,-864.961,0,0
115431.55,57.4426,-861.896,0,0
115691.875,58.0997,-858.853,0,0
115952.2,58.7344,-855.777,0,0
116212.525,59.4549,-852.737,0,0
116472.85,60.1915,-849.799,0,0
116733.175,60.9894,-846.901,0,0
116993.5,61.7919,-844.096,0,0
117253.825,62.5828,-841.34,0,0
117514.15,63.3636,-838.618,0,0
117774.475,64.1764,-836.005,0,0
118034.8,64.9524,-833.553,0,0
118295.125,65.5947,-831.049,0,0
118555.45,66.2622,-828.536,0,0
118815.775,67.0333,-826.163,0,0
119076.1,67.649,-824.014,0,0
119336.425,68.1062,-821.665,0,0
119596.75,68.7466,-819.404,0,0
119857.075,69.233,-817.37,0,0
120117.4,69.5702,-815.344,0,0
120377.725,69.7999,-813.288,0,0
120638.05,69.9053,-811.285,0,0
120898.375,69.7789,-809.301,0,0
121158.7,69.6065,-806.998,0,0
121419.025,69.4855,-804.696,0,0
121679.35,69.3335,-802.385,0,0
121939.675,69.0719,-799.985,0,0
122200.0,68.8024,-797.486,0,0
122460,68.5395,-794.833,0,0
122721,68.3953,-792.165,0,0
122981,68.2166,-789.488,0,0
123241,68.1268,-786.755,0,0
123502,68.0253,-784.057,0,0
123762,67.8533,-781.319,0,0
124022,67.7213,-778.499,0,0
124283,67.6104,-775.59,0,0
124543,67.5536,-772.693,0,0
124803,67.4928,-769.712,0,0
125064,67.5651,-766.704,0,0
125324,67.6985,-763.71,0,0
125584,67.8111,-760.674,0,0
125845,67.9922,-757.638,0,0
126105,68.2979,-754.634,0,0
126365,68.6435,-751.673,0,0
126626,68.9539,-748.685,0,0
126886,69.3299,-745.693,0,0
127146,69.6765,-742.714,0,0
127406,70.3827,-739.688,0,0
127667,70.8888,-736.858,0,0
127927,71.5252,-734.069,0,0
128187,72.0555,-731.355,0,0
128448,72.5837,-728.622,0,0
128708,73.1653,-725.957,0,0
128968,73.7322,-723.386,0,0
129229,74.1831,-720.863,0,0
129489,74.5671,-718.293,0,0
129749,74.9281,-715.677,0,0
130010,75.3298,-712.958,0,0
130270,75.8105,-710.299,0,0
130530,76.2977,-707.689,0,0
130791,76.837,-705.091,0,0
131051,77.3115,-702.626,0,0
131311,77.6532,-700.163,0,0
131572,77.9748,-697.635,0,0
131832,78.2533,-695.123,0,0
132092,78.4808,-692.596,0,0
132353,78.5814,-689.981,0,0
132613,78.7501,-687.186,0,0
132873,78.9981,-684.338,0,0
133134,79.3192,-681.513,0,0
133394,79.683,-678.696,0,0
133654,80.07,-675.903,0,0
133915,80.4259,-673.186,0,0
134175,80.6647,-670.377,0,0
134435,80.9078,-667.492,0,0
134696,81.2844,-664.535,0,0
134956,81.6063,-661.516,0,0
135216,82.0244,-658.434,0,0
135477,82.5335,-655.369,0,0
135737,83.1411,-652.335,0,0
135997,83.7238,-649.349,0,0
136258,84.3725,-646.312,0,0
136518,85.0176,-643.406,0,0
136778,85.5627,-640.444,0,0
137039,86.1432,-637.384,0,0
137299,86.8122,-634.251,0,0
137559,87.6133,-631.207,0,0
137819,88.4003,-628.195,0,0
138080,89.1528,-625.291,0,0
138340.125,89.8393,-622.322,0,0
138600.45,90.4637,-619.299,0,0
138860.775,91.1197,-616.218,0,0
139121.1,91.804,-613.031,0,0
139381.425,92.5194,-609.837,0,0
139641.75,93.2117,-606.638,0,0
139902.075,93.8539,-603.236,0,0
140162.4,94.6134,-599.709,0,0
140422.725,95.5306,-596.008,0,0
140683.05,96.6167,-592.297,0,0
140943.375,97.8409,-588.516,0,0
141203.7,99.2887,-584.676,0,0
141464.025,100.984,-580.937,0,0
141724.35,102.781,-577.288,0,0
141984.675,104.712,-573.751,0,0
142245.0,106.743,-570.278,0,0
142505.325,108.893,-566.929,0,0
142765.65,111.108,-563.716,0,0
143025.975,113.315,-560.722,0,0
143286.3,115.394,-557.694,0,0
143546.625,117.546,-554.576,0,0
143806.95,119.762,-551.543,0,0
144067.275,122.062,-548.548,0,0
144327.6,124.339,-545.667,0,0
144587.925,126.572,-542.704,0,0
144848.25,128.949,-539.605,0,0
145108.575,131.567,-536.556,0,0
145368.9,134.315,-533.669,0,0
145629.225,137.145,-530.919,0,0
145889.55,139.919,-528.324,0,0
146149.875,142.674,-525.69,0,0
146410.2,145.533,-523.031,0,0
146670.525,148.491,-520.466,0,0
146930.85,151.465,-517.917,0,0
147191.175,154.549,-515.298,0,0
147451.5,157.885,-512.727,0,0
147711.825,161.368,-510.327,0,0
147972.15,164.857,-508.003,0,0
148232.475,168.536,-505.646,0,0
148492.8,172.468,-503.365,0,0
148753.125,176.648,-501.148,0,0
149013.45,181.295,-499.125,0,0
149273.775,186.312,-497.591,0,0
149534.1,191.491,-496.61,0,0
149794.425,196.682,-496.188,0,0
150054.75,201.794,-496.161,0,0
150315.075,207.104,-496.504,0,0
150575.4,212.478,-497.753,0,0
150835.725,217.281,-499.94,0,0
151096.05,221.261,-502.419,0,0
151356.375,224.857,-504.975,0,0
151616.7,228.158,-507.907,0,0
151877.025,230.738,-511.268,0,0
152137.35,232.526,-514.568,0,0
152397.675,233.737,-517.768,0,0
152658.0,234.381,-520.68,0,0
152918.325,234.791,-523.258,0,0
153178.65,235.061,-525.793,0,0
153438.975,234.88,-528.425,0,0
153699.3,234.004,-530.826,0,0
153959.625,232.657,-532.63,0,0
154219.95,231.151,-533.811,0,0
154480,229.686,-534.472,0,0
154741,228.371,-534.702,0,0
155001,227.138,-534.937,0,0
155261,226.162,-534.743,0,0
155522,225.269,-534.541,0,0
155782,224.257,-534.543,0,0
156042,223.114,-534.203,0,0
156303,221.878,-533.611,0,0
156563,220.973,-532.967,0,0
156823,219.768,-532.246,0,0
157084,218.408,-531.215,0,0
157344,217.092,-529.646,0,0
157604,216.225,-527.631,0,0
157864,215.918,-525.506,0,0
158125,215.808,-523.532,0,0
158385,215.986,-521.694,0,0
158645,216.394,-519.929,0,0
158906,217.005,-518.365,0,0
159166,217.5,-517.186,0,0
159426,217.907,-515.934,0,0
159687,218.357,-514.705,0,0
159947,218.655,-513.615,0,0
160207,218.953,-512.427,0,0
160468,219.203,-511.352,0,0
160728,219.284,-509.94,0,0
160988,219.681,-508.074,0,0
161249,220.976,-506.205,0,0
161509,222.477,-505.108,0,0
161769,224.301,-504.244,0,0
162030,226.361,-504.439,0,0
162290,227.841,-505.627,0,0
162550,228.205,-507.21,0,0
162811,227.864,-508.814,0,0
163071,226.54,-510.322,0,0
163331,224.543,-511.238,0,0
163592,222.341,-511.513,0,0
163852,220.08,-511.454,0,0
164112,217.328,-511.021,0,0
164373,214.571,-509.959,0,0
164633,211.847,-508.51,0,0
164893,209.137,-506.715,0,0
165154,206.387,-504.618,0,0
165414,203.633,-502.116,0,0
165674,200.939,-498.995,0,0
165935,198.792,-495.445,0,0
166195,196.891,-491.912,0,0
166455,195.224,-488.173,0,0
166716,193.627,-484.152,0,0
166976,192.48,-479.995,0,0
167236,191.652,-475.96,0,0
167497,190.757,-471.926,0,0
167757,189.96,-467.552,0,0
168017,189.358,-463.055,0,0
168277,189.178,-458.359,0,0
168538,189.368,-453.781,0,0
168798,189.836,-449.422,0,0
169058,190.177,-445.338,0,0
169319,190.384,-441.037,0,0
169579,190.636,-436.392,0,0
169839,191.47,-431.703,0,0
170100,192.46,-427.243,0,0
170360.075,193.465,-423.073,0,0
170620.4,194.05,-418.778,0,0
170880.725,194.674,-413.969,0,0
171141.05,195.812,-408.755,0,0
171401.375,197.454,-403.783,0,0
171661.7,199.24,-398.95,0,0
171922.025,201.179,-394.25,0,0
172182.35,203.076,-389.563,0,0
172442.675,205.017,-384.708,0,0
172703.0,207.305,-379.759,0,0
172963.325,209.82,-374.928,0,0
173223.65,212.345,-370.135,0,0
173483.975,214.972,-365.179,0,0
173744.3,217.937,-360.172,0,0
174004.625,221.126,-355.148,0,0
174264.95,224.564,-349.971,0,0
174525.275,228.575,-344.772,0,0
174785.6,233.07,-339.881,0,0
175045.925,237.907,-335.234,0,0
175306.25,243.1,-330.938,0,0
175566.575,248.465,-327.133,0,0
175826.9,253.936,-323.788,0,0
176087.225,259.326,-320.741,0,0
176347.55,264.745,-318.084,0,0
176607.875,269.925,-315.507,0,0
176868.2,275.21,-312.803,0,0
177128.525,281.03,-310.301,0,0
177388.85,287.273,-308.393,0,0
177649.175,293.522,-307.467,0,0
177909.5,299.282,-307.325,0,0
178169.825,304.377,-307.496,0,0
178430.15,309.155,-307.792,0,0
178690.475,313.518,-308.426,0,0
178950.8,317.355,-309.413,0,0
179211.125,320.459,-310.56,0,0
179471.45,322.424,-311.869,0,0
179731.775,324.226,-310.885,0,0
179992.1,325.261,-310.587,0,0
180252.425,326.161,-309.556,0,0
180512.75,327.216,-308.04,0,0
180773.075,327.972,-305.989,0,0
181033.4,328.839,-303.153,0,0
181293.725,330.068,-299.544,0,0
181554.05,331.867,-295.433,0,0
181814.375,334.441,-291.008,0,0
182074.7,337.774,-286.672,0,0
182335.025,341.402,-282.793,0,0
182595.35,344.91,-279.036,0,0
182855.675,348.371,-275.042,0,0
183116.0,352.117,-270.682,0,0
183376.325,356.39,-265.985,0,0
183636.65,361.147,-261.414,0,0
183896.975,366.201,-256.796,0,0
184157.3,371.618,-251.962,0,0
184417.625,377.915,-247.029,0,0
184677.95,385.036,-242.582,0,0
184938.275,392.527,-238.968,0,0
185198.6,399.896,-235.932,0,0
185458.925,407.151,-232.997,0,0
185719.25,414.701,-230.152,0,0
185979.575,422.436,-227.415,0,0
186239.9,430.419,-225.236,0,0
186500,438.227,-223.654,0,0
186761,445.503,-221.918,0,0
187021,453.034,-219.549,0,0
187281,461.489,-217.028,0,0
187542,470.599,-215.36,0,0
187802,479.711,-214.341,0,0
188062,488.761,-213.78,0,0
188322,497.706,-213.502,0,0
188583,506.452,-213.821,0,0
188843,514.599,-214.341,0,0
189103,522.268,-214.453,0,0
189364,530.129,-213.967,0,0
189624,538.339,-213.326,0,0
189884,547.057,-212.391,0,0
190145,556.528,-211.554,0,0
190405,566.249,-211.261,0,0
190665,575.773,-211.053,0,0
190926,585.721,-210.161,0,0
191186,597.025,-209.221,0,0
191446,609.375,-209.292,0,0
191707,621.847,-210.172,0,0
191967,634.732,-211.362,0,0
192227,648.252,-213.235,0,0
192488,662.339,-215.847,0,0
192748,676.911,-219.382,0,0
193008,692.009,-224.035,0,0
193269,707.376,-230.236,0,0
193529,722.431,-237.914,0,0
193789,736.929,-246.98,0,0
194050,750.518,-257.059,0,0
194310,763.283,-267.911,0,0
194570,775.272,-279.306,0,0
194831,786.609,-291.198,0,0
195091,797.152,-303.602,0,0
195351,806.94,-316.364,0,0
195612,816.067,-329.334,0,0
195872,824.591,-342.485,0,0
196132,832.488,-355.776,0,0
196393,839.902,-369.109,0,0
196653,846.894,-382.366,0,0
196913,853.81,-395.66,0,0
197174,860.785,-409.2,0,0
197434,867.69,-423.326,0,0
197694,874.479,-438.235,0,0
197955,880.847,-454.125,0,0
198215,886.263,-471.184,0,0
198475,890.212,-488.876,0,0
198735,892.563,-506.56,0,0
198996,893.854,-523.828,0,0
199256,894.274,-540.7,0,0
199516,894.438,-557.069,0,0
199777,894.29,-573.462,0,0
200037,893.982,-590.018,0,0
200297,892.885,-607.369,0,0
200558,890.93,-624.858,0,0
200818,887.927,-642.758,0,0
201078,883.417,-660.836,0,0
201339,877.085,-678.472,0,0
201599,869.395,-694.76,0,0
201859,861.327,-709.836,0,0
202120,853.292,-724.332,0,0
202380.025,844.76,-738.738,0,0
202640.35,835.168,-752.812,0,0
202900.675,824.41,-765.98,0,0
203161.0,813.103,-778.123,0,0
203421.325,801.299,-788.688,0,0
203681.65,789.725,-797.95,0,0
203941.975,778.845,-806.54,0,0
204202.3,768.151,-814.901,0,0
204462.625,757.534,-823.044,0,0
204722.95,746.985,-831.298,0,0
204983.275,735.463,-839.502,0,0
205243.6,722.876,-847.197,0,0
205503.925,709.357,-853.05,0,0
205764.25,696.373,-857.147,0,0
206024.575,684.155,-860.243,0,0
206284.9,672.566,-863.004,0,0
206545.225,661.165,-865.133,0,0
206805.55,650.217,-866.506,0,0
207065.875,639.697,-867.142,0,0
207326.2,630.244,-867.396,0,0
207586.525,621.425,-867.52,0,0
207846.85,613.177,-867.622,0,0
208107.175,605.607,-867.647,0,0
208367.5,598.609,-867.886,0,0
208627.825,591.912,-868.186,0,0
208888.15,585.91,-868.941,0,0
209148.475,580.07,-870.516,0,0
209408.8,573.951,-872.748,0,0
209669.125,566.927,-875.464,0,0
209929.45,559.145,-877.802,0,0
210189.775,550.916,-879.503,0,0
210450.1,542.731,-880.787,0,0
210710.425,534.399,-881.742,0,0
210970.75,525.918,-882.418,0,0
211231.075,517.203,-882.68,0,0
211491.4,508.254,-882.133,0,0
211751.725,499.516,-880.63,0,0
212012.05,491.518,-878.372,0,0
212272.375,484.357,-875.978,0,0
212532.7,477.761,-873.695,0,0
212793.025,471.191,-871.395,0,0
213053.35,464.959,-869.012,0,0
213313.675,458.884,-866.481,0,0
213574.0,453.135,-863.763,0,0
213834.325,447.753,-861.038,0,0
214094.65,442.572,-858.362,0,0
214354.975,437.679,-855.665,0,0
214615.3,433.039,-852.894,0,0
214875.625,428.61,-850.239,0,0
215135.95,424.221,-847.674,0,0
215396.275,419.841,-845.057,0,0
215656.6,415.59,-842.201,0,0
215916.925,411.701,-839.24,0,0
216177.25,408.084,-836.334,0,0
216437.575,404.56,-833.475,0,0
216697.9,401.263,-830.569,0,0
216958.225,398.113,-827.578,0,0
217218.55,395.291,-824.642,0,0
217478.875,392.733,-821.78,0,0
217739.2,390.29,-819.148,0,0
217999.525,387.875,-816.497,0,0
218259.85,385.534,-813.813,0,0
218520,383.449,-811.111,0,0
218780,381.574,-808.422,0,0
219041,379.964,-805.868,0,0
219301,378.464,-803.41,0,0
219561,377.203,-800.983,0,0
219822,376.096,-798.901,0,0
220082,374.988,-796.904,0,0
220342,373.839,-795.044,0,0
220603,372.708,-793.199,0,0
220863,371.717,-791.159,0,0
221123,370.995,-789.216,0,0
221384,370.596,-787.432,0,0
221644,370.305,-785.819,0,0
221904,370.222,-784.402,0,0
222165,370.358,-783.28,0,0
222425,370.512,-782.592,0,0
222685,370.708,-782.193,0,0
222946,370.723,-782.231,0,0
223206,370.308,-782.498,0,0
223466,369.755,-782.811,0,0
223727,368.919,-782.953,0,0
223987,368.149,-783.04,0,0
224247,367.465,-783.297,0,0
224508,366.558,-783.665,0,0
224768,365.461,-784.094,0,0
225028,364.164,-784.302,0,0
225289,362.971,-784.398,0,0
225549,361.926,-784.263,0,0
225809,361.023,-784.256,0,0
226070,360.323,-784.307,0,0
226330,359.687,-784.483,0,0
226590,359.103,-784.802,0,0
226851,358.672,-785.332,0,0
227111,358.154,-786.126,0,0
227371,357.607,-787.104,0,0
227632,357.009,-788.346,0,0
227892,356.331,-789.713,0,0
228152,355.518,-791.32,0,0
228413,354.477,-793.331,0,0
228673,353.179,-795.352,0,0
228933,351.51,-797.519,0,0
229193,349.582,-799.775,0,0
229454,347.213,-801.845,0,0
229714,344.626,-803.969,0,0
229974,341.702,-805.829,0,0
230235,338.689,-807.627,0,0
230495,335.552,-809.237,0,0
230755,332.16,-810.633,0,0
231016,328.707,-811.923,0,0
231276,325.214,-812.916,0,0
231536,321.671,-813.839,0,0
231797,318.09,-814.689,0,0
232057,314.452,-815.375,0,0
232317,310.646,-816.005,0,0
232578,306.862,-816.358,0,0
232838,303.067,-816.657,0,0
233098,299.25,-816.763,0,0
233359,295.438,-816.766,0,0
233619,291.559,-816.596,0,0
233879,287.728,-816.304,0,0
234140,283.965,-815.873,0,0
234400,280.231,-815.325,0,0
234660.3,276.584,-814.631,0,0
234920.625,272.996,-813.912,0,0
235180.95,269.33,-813.187,0,0
235441.275,265.728,-812.268,0,0
235701.6,262.215,-811.308,0,0
235961.925,258.728,-810.272,0,0
236222.25,255.253,-809.215,0,0
236482.575,251.798,-808.05,0,0
236742.9,248.365,-806.827,0,0
237003.225,244.91,-805.512,0,0
237263.55,241.474,-804.146,0,0
237523.875,238.149,-802.568,0,0
237784.2,234.837,-800.909,0,0
238044.525,231.619,-799.195,0,0
238304.85,228.535,-797.395,0,0
238565.175,225.488,-795.546,0,0
238825.5,222.541,-793.659,0,0
239085.825,219.681,-791.786,0,0
239346.15,216.937,-789.805,0,0
239606.475,214.147,-787.77,0,0
239866.8,211.496,-785.663,0,0
240127.125,209.052,-783.589,0,0
240387.45,206.586,-781.553,0,0
240647.775,204.206,-779.493,0,0
240908.1,201.888,-777.447,0,0
241168.425,199.631,-775.433,0,0
241428.75,197.323,-773.412,0,0
241689.075,195.078,-771.336,0,0
241949.4,192.875,-769.176,0,0
242209.725,190.802,-766.97,0,0
242470.05,188.879,-764.766,0,0
242730.375,187.08,-762.668,0,0
242990.7,185.334,-760.677,0,0
243251.025,183.529,-758.737,0,0
243511.35,181.765,-756.827,0,0
243771.675,179.971,-754.962,0,0
244032.0,178.219,-753.085,0,0
244292.325,176.511,-751.142,0,0
244552.65,174.798,-749.355,0,0
244812.975,173.125,-747.545,0,0
245073.3,171.407,-745.818,0,0
245333.625,169.679,-744.14,0,0
245593.95,167.925,-742.511,0,0
245854.275,166.094,-740.978,0,0
246114.6,164.077,-739.498,0,0
246374.925,161.952,-737.954,0,0
246635.25,159.602,-736.255,0,0
246895.575,157.116,-734.385,0,0
247155.9,154.669,-732.288,0,0
247416.225,152.275,-729.987,0,0
247676.55,150.004,-727.512,0,0
247936.875,147.74,-724.956,0,0
248197.2,145.622,-722.33,0,0
248457.525,143.627,-719.577,0,0
248717.85,141.616,-716.807,0,0
248978.175,139.818,-713.888,0,0
249238.5,138.087,-711.025,0,0
249498.825,136.43,-708.108,0,0
249759.15,134.774,-705.114,0,0
250019.475,133.214,-702.132,0,0
250279.8,131.798,-698.988,0,0
250540,130.354,-695.789,0,0
250800,129.095,-692.529,0,0
251061,127.99,-689.186,0,0
251321,127.01,-685.829,0,0
251581,126.203,-682.485,0,0
251842,125.575,-679.13,0,0
252102,125.072,-675.9,0,0
252362,124.634,-672.704,0,0
252623,124.267,-669.532,0,0
252883,124.022,-666.455,0,0
253143,123.799,-663.412,0,0
253404,123.619,-660.383,0,0
253664,123.468,-657.375,0,0
253924,123.387,-654.36,0,0
254185,123.355,-651.348,0,0
254445,123.354,-648.34,0,0
254705,123.462,-645.302,0,0
254966,123.651,-642.265,0,0
255226,123.976,-639.167,0,0
255486,124.411,-636.072,0,0
255747,125.015,-633.027,0,0
256007,125.767,-630.003,0,0
256267,126.687,-627.102,0,0
256528,127.683,-624.29,0,0
256788,128.82,-621.635,0,0
257048,129.979,-619.107,0,0
257309,131.197,-616.7,0,0
257569,132.388,-614.373,0,0
257829,133.631,-612.137,0,0
258090,134.893,-609.961,0,0
258350,136.171,-607.823,0,0
258610,137.494,-605.761,0,0
258871,138.859,-603.75,0,0
259131,140.254,-601.734,0,0
259391,141.766,-599.748,0,0
259651,143.381,-597.89,0,0
259912,145.069,-596.141,0,0
260172,146.822,-594.509,0,0
260432,148.595,-593.033,0,0
260693,150.391,-591.647,0,0
260953,152.236,-590.429,0,0
261213,154.105,-589.297,0,0
261474,155.946,-588.284,0,0
261734,157.767,-587.457,0,0
261994,159.568,-586.692,0,0
262255,161.377,-586.082,0,0
262515,163.141,-585.551,0,0
262775,164.918,-585.228,0,0
263036,166.595,-584.99,0,0
263296,168.19,-584.882,0,0
263556,169.687,-584.876,0,0
263817,171.113,-584.933,0,0
264077,172.434,-585.067,0,0
264337,173.66,-585.295,0,0
264598,174.833,-585.585,0,0
264858,175.9,-585.937,0,0
265118,176.809,-586.388,0,0
265379,177.564,-586.868,0,0
265639,178.153,-587.319,0,0
265899,178.592,-587.73,0,0
266160,178.908,-588.068,0,0
266420,179.191,-588.282,0,0
266680.25,179.442,-588.536,0,0
266940.575,179.615,-588.659,0,0
267200.9,179.823,-588.738,0,0
267461.225,179.934,-588.793,0,0
267721.55,180.02,-588.849,0,0
267981.875,180.015,-588.815,0,0
268242.2,180.026,-588.74,0,0
268502.525,179.976,-588.602,0,0
268762.85,179.839,-588.363,0,0
269023.175,179.69,-587.997,0,0
269283.5,179.552,-587.493,0,0
269543.825,179.501,-586.802,0,0
269804.15,179.561,-586.054,0,0
270064.475,179.693,-585.159,0,0
270324.8,180.022,-584.207,0,0
270585.125,180.469,-583.157,0,0
270845.45,181.171,-582.094,0,0
271105.775,182.044,-581.125,0,0
271366.1,183.077,-580.287,0,0
271626.425,184.198,-579.493,0,0
271886.75,185.361,-578.757,0,0
272147.075,186.676,-578.03,0,0
272407.4,188.188,-577.329,0,0
272667.725,189.922,-576.735,0,0
272928.05,191.84,-576.348,0,0
273188.375,193.881,-576.145,0,0
273448.7,196.079,-576.199,0,0
273709.025,198.403,-576.464,0,0
273969.35,200.828,-577.009,0,0
274229.675,203.4,-577.877,0,0
274490.0,206.051,-579.181,0,0
274750.325,208.638,-580.977,0,0
275010.65,211.09,-583.243,0,0
275270.975,213.286,-585.972,0,0
275531.3,215.072,-589.122,0,0
275791.625,216.457,-592.636,0,0
276051.95,217.318,-596.368,0,0
276312.275,217.636,-600.258,0,0
276572.6,217.311,-604.126,0,0
276832.925,216.488,-607.855,0,0
277093.25,215.232,-611.351,0,0
277353.575,213.606,-614.605,0,0
277613.9,211.716,-617.591,0,0
277874.225,209.595,-620.271,0,0
278134.55,207.334,-622.67,0,0
278394.875,204.991,-624.794,0,0
278655.2,202.57,-626.705,0,0
278915.525,200.104,-628.445,0,0
279175.85,197.575,-629.996,0,0
279436.175,194.999,-631.396,0,0
279696.5,192.343,-632.665,0,0
279956.825,189.588,-633.735,0,0
280217.15,186.815,-634.575,0,0
280477.475,184.049,-635.161,0,0
280737.8,181.42,-635.567,0,0
280998.125,178.904,-635.913,0,0
281258.45,176.436,-636.245,0,0
281518.775,173.961,-636.605,0,0
281779.1,171.375,-636.952,0,0
282039.425,168.678,-637.222,0,0
282299.75,165.829,-637.372,0,0
282560,162.863,-637.273,0,0
282820,159.833,-636.923,0,0
283081,156.779,-636.28,0,0
283341,153.879,-635.296,0,0
283601,151.219,-634.057,0,0
283862,148.884,-632.723,0,0
284122,146.852,-631.476,0,0
284382,144.941,-630.418,0,0
284643,143.012,-629.551,0,0
284903,140.915,-628.791,0,0
285163,138.516,-628.008,0,0
285424,135.964,-627.044,0,0
285684,133.27,-625.812,0,0
285944,130.526,-624.294,0,0
286205,127.79,-622.482,0,0
286465,125.095,-620.337,0,0
286725,122.612,-617.865,0,0
286986,120.331,-615.139,0,0
287246,118.255,-612.175,0,0
287506,116.448,-609.039,0,0
287767,114.926,-605.725,0,0
288027,113.68,-602.291,0,0
288287,112.713,-598.703,0,0
288548,112.083,-594.965,0,0
288808,111.893,-591.098,0,0
289068,112.194,-587.218,0,0
289329,113.019,-583.434,0,0
289589,114.314,-579.878,0,0
289849,116.001,-576.635,0,0
290109,117.968,-573.71,0,0
290370,120.247,-571.079,0,0
290630,122.812,-568.791,0,0
290890,125.647,-566.903,0,0
291151,128.709,-565.55,0,0
291411,131.874,-564.767,0,0
291671,135.01,-564.557,0,0
291932,138.034,-564.94,0,0
292192,140.817,-565.888,0,0
292452,143.237,-567.384,0,0
292713,145.075,-569.3,0,0
292973,146.308,-571.405,0,0
293233,146.936,-573.577,0,0
293494,147.013,-575.652,0,0
293754,146.575,-577.499,0,0
294014,145.764,-578.991,0,0
294275,144.676,-580.013,0,0
294535,143.588,-580.584,0,0
294795,142.593,-580.73,0,0
295056,141.833,-580.572,0,0
295316,141.41,-580.235,0,0
295576,141.384,-579.849,0,0
295837,141.768,-579.566,0,0
296097,142.527,-579.642,0,0
296357,143.483,-580.294,0,0
296618,144.263,-581.564,0,0
296878,144.614,-583.304,0,0
297138,144.411,-585.286,0,0
297399,143.648,-587.235,0,0
297659,142.44,-588.995,0,0
297919,140.911,-590.511,0,0
298180,139.154,-591.708,0,0
298440,137.311,-592.633,0,0
298700.2,135.389,-593.3,0,0
298960.525,133.525,-593.744,0,0
299220.85,131.662,-594.022,0,0
299481.175,129.806,-594.203,0,0
299741.5,127.952,-594.223,0,0
300001.825,126.095,-594.127,0,0
300262.15,124.237,-593.869,0,0
300522.475,122.411,-593.423,0,0
300782.8,120.677,-592.784,0,0
301043.125,119.107,-592.001,0,0
301303.45,117.73,-591.13,0,0
301563.775,116.571,-590.215,0,0
301824.1,115.588,-589.334,0,0
302084.425,114.801,-588.563,0,0
302344.75,114.119,-587.941,0,0
302605.075,113.478,-587.491,0,0
302865.4,112.815,-587.189,0,0
303125.725,112.081,-586.981,0,0
303386.05,111.295,-586.877,0,0
303646.375,110.395,-586.834,0,0
303906.7,109.405,-586.856,0,0
304167.025,108.292,-586.9,0,0
304427.35,107.077,-586.957,0,0
304687.675,105.693,-586.95,0,0
304948.0,104.185,-586.88,0,0
305208.325,102.573,-586.676,0,0
305468.65,100.937,-586.358,0,0
305728.975,99.2502,-585.901,0,0
305989.3,97.5713,-585.351,0,0
306249.625,95.8971,-584.702,0,0
306509.95,94.2279,-583.954,0,0
306770.275,92.5691,-583.105,0,0
307030.6,90.9514,-582.147,0,0
307290.925,89.3874,-581.083,0,0
307551.25,87.9138,-579.96,0,0
307811.575,86.5004,-578.77,0,0
308071.9,85.1689,-577.552,0,0
308332.225,83.8987,-576.289,0,0
308592.55,82.6929,-575.004,0,0
308852.875,81.5585,-573.689,0,0
309113.2,80.5187,-572.378,0,0
309373.525,79.5093,-571.092,0,0
309633.85,78.5586,-569.811,0,0
309894.175,77.6455,-568.58,0,0
310154.5,76.7287,-567.317,0,0
310414.825,75.8239,-566.065,0,0
310675.15,74.9348,-564.787,0,0
310935.475,74.1009,-563.488,0,0
311195.8,73.286,-562.191,0,0
311456.125,72.4991,-560.883,0,0
311716.45,71.7361,-559.568,0,0
311976.775,71.0065,-558.246,0,0
312237.1,70.3184,-556.916,0,0
312497.425,69.6694,-555.57,0,0
312757.75,69.0811,-554.238,0,0
313018.075,68.5186,-552.902,0,0
313278.4,68.0031,-551.592,0,0
313538.725,67.5115,-550.313,0,0
313799.05,67.0454,-549.071,0,0
314059.375,66.5668,-547.818,0,0
314319.7,66.1306,-546.577,0,0
314580,65.698,-545.419,0,0
314840,65.1848,-544.101,0,0
315101,64.8817,-542.894,0,0
315361,64.3878,-541.697,0,0
315621,64.0329,-540.527,0,0
315882,63.7122,-539.282,0,0
316142,63.3401,-538.034,0,0
316402,62.982,-536.791,0,0
316663,62.7305,-535.606,0,0
316923,62.46,-534.461,0,0
317183,62.1872,-533.254,0,0
317444,61.9794,-532.052,0,0
317704,61.828,-530.92,0,0
317964,61.5794,-529.81,0,0
318225,61.5155,-528.678,0,0
318485,61.207,-527.658,0,0
318745,61.1432,-526.619,0,0
319006,60.973,-525.587,0,0
319266,60.7904,-524.561,0,0
319526,60.6582,-523.55,0,0
319787,60.4581,-522.596,0,0
320047,60.1982,-521.603,0,0
320307,60.0606,-520.636,0,0
320567,59.7843,-519.646,0,0
320828,59.6165,-518.699,0,0
321088,59.4315,-517.747,0,0
321348,59.1702,-516.697,0,0
321609,58.8847,-515.649,0,0
321869,58.7289,-514.728,0,0
322129,58.4772,-513.674,0,0
322390,58.2361,-512.656,0,0
322650,58.0403,-511.608,0,0
322910,57.7594,-510.523,0,0
323171,57.5585,-509.395,0,0
323431,57.3204,-508.312,0,0
323691,57.0822,-507.105,0,0
323952,56.9375,-505.86,0,0
324212,56.7889,-504.581,0,0
324472,56.7816,-503.245,0,0
324733,56.7368,-501.92,0,0
324993,56.8877,-500.5,0,0
325253,57.0905,-499.159,0,0
325514,57.4497,-497.825,0,0
325774,57.8521,-496.5,0,0
326034,58.3978,-495.323,0,0
326295,59.046,-494.236,0,0
326555,59.6566,-493.303,0,0
326815,60.3378,-492.439,0,0
327076,61.0091,-491.765,0,0
327336,61.6214,-491.163,0,0
327596,62.1344,-490.734,0,0
327857,62.6265,-490.219,0,0
328117,62.9873,-489.855,0,0
328377,63.4099,-489.398,0,0
328638,63.6946,-489.012,0,0
328898,64.0143,-488.629,0,0
329158,64.1985,-488.231,0,0
329419,64.4566,-487.798,0,0
329679,64.7383,-487.505,0,0
329939,64.9669,-487.194,0,0
330200,65.2293,-486.859,0,0
330460,65.3772,-486.616,0,0
330720.15,65.5648,-486.388,0,0
330980.475,65.645,-486.227,0,0
331240.8,65.7208,-486.101,0,0
331501.125,65.7296,-486.007,0,0
331761.45,65.6714,-485.908,0,0
332021.775,65.5428,-485.802,0,0
332282.1,65.38,-485.717,0,0
332542.425,65.0642,-485.617,0,0
332802.75,64.7372,-485.463,0,0
333063.075,64.3345,-485.282,0,0
333323.4,63.8026,-485.041,0,0
333583.725,63.3543,-484.716,0,0
333844.05,62.7406,-484.329,0,0
334104.375,62.2056,-483.821,0,0
334364.7,61.6621,-483.266,0,0
334625.025,61.2745,-482.703,0,0
334885.35,60.7847,-482.089,0,0
335145.675,60.3739,-481.41,0,0
335406.0,59.9086,-480.792,0,0
335666.325,59.5387,-480.006,0,0
335926.65,59.1972,-479.357,0,0
336186.975,58.7221,-478.678,0,0
336447.3,58.39,-477.925,0,0
336707.625,57.9866,-477.159,0,0
336967.95,57.6865,-476.376,0,0
337228.275,57.3702,-475.563,0,0
337488.6,57.1276,-474.786,0,0
337748.925,56.8295,-473.981,0,0
338009.25,56.5546,-473.146,0,0
338269.575,56.3018,-472.317,0,0
338529.9,56.0608,-471.495,0,0
338790.225,55.8833,-470.61,0,0
339050.55,55.7021,-469.754,0,0
339310.875,55.4972,-468.862,0,0
339571.2,55.2882,-468.007,0,0
339831.525,55.209,-467.1,0,0
340091.85,55.1435,-466.188,0,0
340352.175,55.0244,-465.315,0,0
340612.5,54.9632,-464.456,0,0
340872.825,54.9218,-463.543,0,0
341133.15,54.9016,-462.692,0,0
341393.475,54.9222,-461.834,0,0
341653.8,54.9047,-460.996,0,0
341914.125,54.9457,-460.202,0,0
342174.45,54.9922,-459.335,0,0
342434.775,55.0408,-458.497,0,0
342695.1,55.0692,-457.662,0,0
342955.425,55.1439,-456.863,0,0
343215.75,55.2243,-455.996,0,0
343476.075,55.3493,-455.176,0,0
343736.4,55.4306,-454.355,0,0
343996.725,55.5558,-453.494,0,0
344257.05,55.6653,-452.728,0,0
344517.375,55.8877,-451.913,0,0
344777.7,56.0288,-451.149,0,0
345038.025,56.2391,-450.388,0,0
345298.35,56.4789,-449.623,0,0
345558.675,56.7196,-448.919,0,0
345819.0,56.9568,-448.173,0,0
346079.325,57.2354,-447.458,0,0
346339.65,57.4435,-446.816,0,0
346599.975,57.7181,-446.147,0,0
346860,57.9452,-445.485,0,0
347121,58.2072,-444.89,0,0
347381,58.4729,-444.259,0,0
347641,58.7278,-443.626,0,0
347902,58.9743,-443.02,0,0
348162,59.2816,-442.438,0,0
348422,59.5416,-441.812,0,0
348683,59.8672,-441.277,0,0
348943,60.1131,-440.681,0,0
349203,60.4323,-440.141,0,0
349464,60.7751,-439.595,0,0
349724,61.1133,-439.133,0,0
349984,61.4181,-438.563,0,0
350245,61.7413,-438.129,0,0
350505,62.0574,-437.678,0,0
350765,62.4294,-437.246,0,0
351025,62.7754,-436.878,0,0
351286,63.0155,-436.54,0,0
351546,63.3306,-436.201,0,0
351806,63.5538,-435.831,0,0
352067,63.7973,-435.569,0,0
352327,64.0494,-435.299,0,0
352587,64.2121,-434.972,0,0
352848,64.3787,-434.668,0,0
353108,64.5685,-434.304,0,0
353368,64.6854,-433.934,0,0
353629,64.8978,-433.594,0,0
353889,65.0696,-433.246,0,0
354149,65.2418,-432.86,0,0
354410,65.4612,-432.526,0,0
354670,65.6339,-432.136,0,0
354930,65.8124,-431.836,0,0
355191,66.0348,-431.512,0,0
355451,66.1745,-431.192,0,0
355711,66.4266,-430.84,0,0
355972,66.6256,-430.511,0,0
356232,66.8283,-430.193,0,0
356492,67.0506,-429.874,0,0
356753,67.298,-429.52,0,0
357013,67.5321,-429.224,0,0
357273,67.8563,-428.932,0,0
357534,68.0899,-428.679,0,0
357794,68.3853,-428.474,0,0
358054,68.7685,-428.292,0,0
358315,68.9969,-428.125,0,0
358575,69.287,-428.002,0,0
358835,69.5721,-427.938,0,0
359096,69.8003,-427.914,0,0
359356,70.0129,-427.875,0,0
359616,70.2401,-427.923,0,0
359877,70.3703,-427.941,0,0
360137,70.4761,-427.981,0,0
360397,70.5825,-427.991,0,0
360658,70.6567,-428.071,0,0
360918,70.7067,-428.182,0,0
361178,70.6649,-428.205,0,0
361438,70.6395,-428.322,0,0
361699,70.5395,-428.334,0,0
361959,70.4814,-428.419,0,0
362219,70.2993,-428.477,0,0
362480,70.1567,-428.503,0,0
362740.1,70.0076,-428.521,0,0
363000.425,69.7468,-428.534,0,0
363260.75,69.4959,-428.514,0,0
363521.075,69.2467,-428.463,0,0
363781.4,68.9893,-428.387,0,0
364041.725,68.733,-428.332,0,0
364302.05,68.4206,-428.201,0,0
364562.375,68.107,-428.094,0,0
364822.7,67.8253,-428.004,0,0
365083.025,67.4761,-427.851,0,0
365343.35,67.0874,-427.647,0,0
365603.675,66.7112,-427.387,0,0
365864.0,66.413,-427.165,0,0
366124.325,66.0316,-426.847,0,0
366384.65,65.7082,-426.467,0,0
366644.975,65.3733,-426.158,0,0
366905.3,65.0716,-425.735,0,0
367165.625,64.8437,-425.251,0,0
367425.95,64.6302,-424.856,0,0
367686.275,64.459,-424.354,0,0
367946.6,64.3856,-423.952,0,0
368206.925,64.3407,-423.561,0,0
368467.25,64.272,-423.156,0,0
368727.575,64.3264,-422.874,0,0
368987.9,64.2724,-422.65,0,0
369248.225,64.2872,-422.373,0,0
369508.55,64.217,-422.233,0,0
369768.875,64.1255,-422.111,0,0
370029.2,64.0103,-421.988,0,0
370289.525,63.798,-421.819,0,0
370549.85,63.5988,-421.691,0,0
370810.175,63.331,-421.541,0,0
371070.5,63.0203,-421.341,0,0
371330.825,62.7469,-421.127,0,0
371591.15,62.454,-420.881,0,0
371851.475,62.21,-420.595,0,0
372111.8,61.9266,-420.341,0,0
372372.125,61.6672,-419.993,0,0
372632.45,61.4068,-419.731,0,0
372892.775,61.2344,-419.419,0,0
373153.1,60.9696,-419.136,0,0
373413.425,60.7519,-418.872,0,0
373673.75,60.5651,-418.564,0,0
373934.075,60.3226,-418.308,0,0
374194.4,60.1144,-418.056,0,0
374454.725,59.915,-417.796,0,0
374715.05,59.6533,-417.568,0,0
374975.375,59.3524,-417.352,0,0
375235.7,59.0348,-417.098,0,0
375496.025,58.7304,-416.843,0,0
375756.35,58.4067,-416.577,0,0
376016.675,58.0474,-416.191,0,0
376277.0,57.7002,-415.877,0,0
376537.325,57.3904,-415.515,0,0
376797.65,57.0796,-415.133,0,0
377057.975,56.8332,-414.779,0,0
377318.3,56.6024,-414.402,0,0
377578.625,56.3346,-414.11,0,0
377838.95,56.1094,-413.798,0,0
378099.275,55.8594,-413.597,0,0
378359.6,55.5222,-413.324,0,0
378619.925,55.1032,-413.117,0,0
378880,54.6477,-412.895,0,0
379141,54.1158,-412.658,0,0
379401,53.5134,-412.264,0,0
379661,52.8984,-411.818,0,0
379922,52.2406,-411.229,0,0
380182,51.6776,-410.498,0,0
380442,51.2124,-409.689,0,0
380703,50.9008,-408.843,0,0
380963,50.7557,-407.976,0,0
381223,50.6892,-407.176,0,0
381483,50.7717,-406.53,0,0
381744,50.8248,-405.994,0,0
382004,50.871,-405.531,0,0
382264,50.8486,-405.189,0,0
382525,50.7932,-404.899,0,0
382785,50.6538,-404.584,0,0
383045,50.459,-404.272,0,0
383306,50.1747,-404.022,0,0
383566,49.8983,-403.69,0,0
383826,49.5956,-403.335,0,0
384087,49.2076,-402.897,0,0
384347,48.8671,-402.515,0,0
384607,48.4739,-402.06,0,0
384868,48.1411,-401.571,0,0
385128,47.7574,-401.073,0,0
385388,47.3976,-400.541,0,0
385649,47.0225,-399.965,0,0
385909,46.6914,-399.402,0,0
386169,46.3875,-398.769,0,0
386430,46.0496,-398.136,0,0
386690,45.7563,-397.48,0,0
386950,45.5133,-396.814,0,0
387211,45.2686,-396.14,0,0
387471,45.0442,-395.502,0,0
387731,44.7977,-394.785,0,0
387992,44.6299,-394.104,0,0
388252,44.4496,-393.387,0,0
388512,44.2919,-392.707,0,0
388773,44.1571,-391.986,0,0
389033,44.0723,-391.288,0,0
389293,44.0014,-390.589,0,0
389554,43.9603,-389.863,0,0
389814,43.9834,-389.17,0,0
390074,44.0097,-388.567,0,0
390335,44.0324,-387.893,0,0
390595,44.1325,-387.323,0,0
390855,44.1982,-386.807,0,0
391116,44.2895,-386.289,0,0
391376,44.3373,-385.872,0,0
391636,44.3518,-385.482,0,0
391896,44.359,-385.127,0,0
392157,44.3044,-384.815,0,0
392417,44.1409,-384.483,0,0
392677,44.0101,-384.119,0,0
392938,43.7765,-383.757,0,0
393198,43.4979,-383.338,0,0
393458,43.2098,-382.918,0,0
393719,42.8978,-382.379,0,0
393979,42.5628,-381.87,0,0
394239,42.2368,-381.3,0,0
394500,41.8922,-380.694,0,0
394760.05,41.5928,-379.987,0,0
395020.375,41.3245,-379.268,0,0
395280.7,41.0726,-378.526,0,0
395541.025,40.8913,-377.764,0,0
395801.35,40.7031,-376.965,0,0
396061.675,40.5832,-376.188,0,0
396322.0,40.4718,-375.39,0,0
396582.325,40.4279,-374.598,0,0
396842.65,40.3683,-373.825,0,0
397102.975,40.3321,-373.027,0,0
397363.3,40.3476,-372.24,0,0
397623.625,40.3924,-371.467,0,0
397883.95,40.404,-370.706,0,0
398144.275,40.4932,-369.953,0,0
398404.6,40.5904,-369.258,0,0
398664.925,40.6943,-368.553,0,0
398925.25,40.7831,-367.852,0,0
399185.575,40.9136,-367.124,0,0
399445.9,41.0248,-366.497,0,0
399706.225,41.1699,-365.861,0,0
399966.55,41.2485,-365.193,0,0
400006.6,41.2825,-365.087,0,0