File: Accelerated corrosion test data/2025-10-01_06-00-03/sample_1.csv
Frequency (Hz),Impedance (ohms),Phase (Radians),Temperature (C),Humidity (%)
10000.0,239.952,-12244.8,0,0
10260.325,241.397,-11929.3,0,0
10520.65,230.315,-11650.1,0,0
10780.975,224.725,-11364.9,0,0
11041.3,219.506,-11104.1,0,0
11301.625,213.305,-10845.6,0,0
11561.95,211.821,-10601,0,0
11822.275,208.33,-10361.3,0,0
12082.6,223.103,-10128.8,0,0
12342.925,208.637,-9953.8,0,0
12603.25,194.63,-9742.33,0,0
12863.575,191.068,-9540.15,0,0
13123.9,196.542,-9346.31,0,0
13384.225,185.086,-9174.82,0,0
13644.55,180.56,-8993.44,0,0
13904.875,181.737,-8814.9,0,0
14165.2,188.37,-8675.33,0,0
14425.525,215.422,-8508.59,0,0
14685.8,199.94,-8344.21,0,0
14946.175,179.125,-8246.73,0,0
15206.5,180.519,-8084.22,0,0
15466.825,176.71,-7957.26,0,0
15727.15,170.42,-7836.83,0,0
15987.5,160.292,-7702.38,0,0
16247.8,157.074,-7576.35,0,0
16508.125,156.018,-7453.23,0,0
16768.45,159.283,-7335.32,0,0
17028.775,162.636,-7229.15,0,0
17289.1,152.33,-7124.53,0,0
17549.425,153.03,-7016.33,0,0
17809.75,148.09,-6917.15,0,0
18070.075,147.811,-6817.57,0,0
18330.4,141.208,-6719.79,0,0
18590.725,138.204,-6625.18,0,0
18851.05,137.574,-6526.97,0,0
19111.375,135.475,-6445.34,0,0
19371.7,132.878,-6352.8,0,0
19632.025,131.754,-6263.65,0,0
19892.35,134.123,-6177.85,0,0
20152.675,136.155,-6089.79,0,0
20413.0,154.535,-6002.22,0,0
20673.3,168.235,-5959.94,0,0
20933.65,152.55,-5891.83,0,0
21193.975,158.074,-5824.41,0,0
21454.3,147.467,-5752.99,0,0
21714.625,138.411,-5687.95,0,0
21974.9,135.395,-5600.71,0,0
22235.275,175.166,-5552.37,0,0
22495.6,143.081,-5515.58,0,0
22755.925,127.454,-5446.56,0,0
23016.25,122.633,-5379.14,0,0
23276.6,119.432,-5318.05,0,0
23536.9,115.886,-5257.07,0,0
23797.225,112.8,-5195.54,0,0
24057.55,115.089,-5133.76,0,0
24317.875,112.861,-5085.97,0,0
24578.2,111.166,-5025.97,0,0
24838.525,111.184,-4975.62,0,0
25098.85,111.558,-4920.8,0,0
25359.175,106.522,-4872.6,0,0
25619.5,104.97,-4820.89,0,0
25879.8,103.362,-4768.96,0,0
26140.1,103.23,-4719.88,0,0
26400.5,102.577,-4669.76,0,0
26660.8,105.364,-4618.94,0,0
26921.1,113.497,-4572.27,0,0
27181.4,120.267,-4536.07,0,0
27441.8,113.982,-4504.27,0,0
27702.1,104.48,-4454.79,0,0
27962.4,111.228,-4405.55,0,0
28222.7,110.553,-4367.37,0,0
28483.1,121.407,-4321.68,0,0
28743.4,133.277,-4303.78,0,0
29003.7,116.219,-4271.17,0,0
29264,119.351,-4233.18,0,0
29524.4,107.769,-4199.85,0,0
29784.7,105.289,-4158.02,0,0
30045,101.773,-4125.48,0,0
30305.3,99.9551,-4086.15,0,0
30565.7,97.0761,-4048.07,0,0
30826,100.697,-4012.58,0,0
31086.3,103.921,-3983.59,0,0
31346.6,99.2915,-3955.21,0,0
31607,94.1426,-3918.08,0,0
31867.3,97.1951,-3883.75,0,0
32127.6,98.3217,-3853.07,0,0
32387.9,97.9523,-3827.63,0,0
32648.3,93.0543,-3795.64,0,0
32908.6,95.1183,-3765.89,0,0
33168.9,90.6696,-3737.93,0,0
33429.2,89.0609,-3709.34,0,0
33689.6,85.9784,-3679.44,0,0
33949.9,85.1658,-3648.88,0,0
34210.2,86.9599,-3622.08,0,0
34470.5,84.2713,-3594.87,0,0
34730.9,82.1949,-3567.31,0,0
34991.2,81.6902,-3540.25,0,0
35251.5,80.5136,-3513.26,0,0
35511.8,79.6629,-3487.02,0,0
35772.2,79.0732,-3461.51,0,0
36032.5,77.873,-3435.69,0,0
36292.8,77.3887,-3410.11,0,0
36553.1,76.6429,-3385.6,0,0
36813.5,76.2693,-3360.59,0,0
37073.8,76.2474,-3336.66,0,0
37334.1,75.2279,-3312.83,0,0
37594.4,75.5352,-3289.31,0,0
37854.8,74.0976,-3266.93,0,0
38115.1,73.8432,-3243.77,0,0
38375.4,73.1373,-3220.88,0,0
38635.7,72.9885,-3198.91,0,0
38896.1,72.6109,-3176.81,0,0
39156.4,72.2298,-3154.79,0,0
39416.7,72.5086,-3134.27,0,0
39677,71.2152,-3112.9,0,0
39937.4,71.1765,-3092.02,0,0
40197.7,71.3803,-3071.27,0,0
40458,70.9248,-3051.08,0,0
40718.3,70.9211,-3030.4,0,0
40978.7,72.3707,-3011.07,0,0
41239,72.296,-2992.46,0,0
41499.3,71.7797,-2974.69,0,0
41759.6,70.9263,-2955.99,0,0
42020,70.0616,-2936.56,0,0
42280.275,70.4293,-2917.85,0,0
42540.6,70.8,-2900.5,0,0
42800.925,70.3578,-2883.4,0,0
43061.25,69.1811,-2865.09,0,0
43321.575,69.1938,-2847.91,0,0
43581.9,68.4293,-2830.48,0,0
43842.225,67.6809,-2812.61,0,0
44102.55,67.8724,-2795.36,0,0
44362.875,68.918,-2778.12,0,0
44623.2,69.5845,-2762.72,0,0
44883.525,68.4903,-2747.18,0,0
45143.85,68.8531,-2730.92,0,0
45404.175,69.1313,-2715.46,0,0
45664.5,68.1949,-2700.56,0,0
45924.825,67.4702,-2685,0,0
46185.15,66.6538,-2670.04,0,0
46445.475,65.9638,-2654.7,0,0
46705.8,65.3931,-2639.48,0,0
46966.125,64.7113,-2624.5,0,0
47226.45,64.6848,-2609.07,0,0
47486.775,64.803,-2595.1,0,0
47747.1,64.2219,-2580.99,0,0
48007.425,63.5521,-2566.42,0,0
48267.75,63.5379,-2552.11,0,0
48528.075,62.6922,-2538.45,0,0
48788.4,61.9653,-2524.27,0,0
49048.725,61.7412,-2510.19,0,0
49309.05,61.5756,-2496.63,0,0
49569.375,61.0801,-2483.25,0,0
49829.7,61.038,-2469.87,0,0
50090.025,60.5396,-2456.59,0,0
50350.35,59.9876,-2443.44,0,0
50610.675,59.7902,-2430.26,0,0
50871.0,59.4235,-2417.25,0,0
51131.325,59.3949,-2404.35,0,0
51391.65,59.546,-2392.07,0,0
51651.975,58.7659,-2379.63,0,0
51912.3,58.4743,-2367.08,0,0
52172.625,58.3864,-2354.63,0,0
52432.95,58.1916,-2342.68,0,0
52693.275,57.8686,-2330.6,0,0
52953.6,57.7991,-2318.45,0,0
53213.925,57.8246,-2306.53,0,0
53474.25,57.6327,-2295.09,0,0
53734.575,57.5412,-2283.45,0,0
53994.9,57.6219,-2272.39,0,0
54255.225,57.0279,-2261.25,0,0
54515.55,56.7934,-2249.93,0,0
54775.875,56.3633,-2238.74,0,0
55036.2,55.9264,-2227.44,0,0
55296.525,56.116,-2216.12,0,0
55556.85,56.2077,-2205.61,0,0
55817.175,55.9667,-2195.23,0,0
56077.5,55.4388,-2184.23,0,0
56337.825,55.2179,-2173.4,0,0
56598.15,55.2494,-2163.12,0,0
56858.475,55.2116,-2152.58,0,0
57118.8,54.8991,-2142.24,0,0
57379.125,54.7902,-2131.78,0,0
57639.45,55.0116,-2121.67,0,0
57899.775,54.8904,-2111.78,0,0
58160.1,54.7982,-2101.85,0,0
58420.4,54.6202,-2091.91,0,0
58680.7,54.5509,-2082.11,0,0
58941.1,54.6057,-2072.31,0,0
59201.4,54.6722,-2062.71,0,0
59461.7,54.7658,-2053.65,0,0
59722,54.3835,-2044.2,0,0
59982.4,54.4724,-2034.71,0,0
60242.7,54.2404,-2025.56,0,0
60503,54.4525,-2016.15,0,0
60763.3,54.7852,-2007.42,0,0
61023.7,54.1154,-1998.84,0,0
61284,53.7901,-1989.85,0,0
61544.3,53.6441,-1980.68,0,0
61804.6,53.8318,-1971.75,0,0
62065,53.3615,-1963.51,0,0
62325.3,52.9528,-1954.46,0,0
62585.6,52.848,-1945.62,0,0
62845.9,52.7098,-1936.72,0,0
63106.3,52.8842,-1928.06,0,0
63366.6,52.7668,-1919.66,0,0
63626.9,52.8964,-1910.92,0,0
63887.2,52.9426,-1902.57,0,0
64147.6,52.8869,-1894.25,0,0
64407.9,53.08,-1885.94,0,0
64668.2,53.2188,-1877.6,0,0
64928.5,53.5221,-1869.31,0,0
65188.9,54.1264,-1861.21,0,0
65449.2,54.9452,-1853.38,0,0
65709.5,55.7351,-1846.37,0,0
65969.8,55.642,-1839.5,0,0
66230.2,55.307,-1832.19,0,0
66490.5,55.0498,-1824.84,0,0
66750.8,55.1551,-1817.65,0,0
67011.1,54.6439,-1810.77,0,0
67271.5,53.9978,-1802.61,0,0
67531.8,54.5316,-1794.96,0,0
67792.1,54.841,-1788.22,0,0
68052.4,54.5592,-1781.63,0,0
68312.8,53.7464,-1774.61,0,0
68573.1,53.4256,-1767.14,0,0
68833.4,53.5628,-1759.83,0,0
69093.7,53.6196,-1753.25,0,0
69354.1,53.3584,-1746.41,0,0
69614.4,52.9962,-1739.83,0,0
69874.7,52.3044,-1733.09,0,0
70135,51.9651,-1726.03,0,0
70395.4,51.6322,-1719.13,0,0
70655.7,51.1817,-1712.16,0,0
70916,51.0285,-1705.14,0,0
71176.3,50.902,-1698.62,0,0
71436.7,50.6617,-1691.7,0,0
71697,50.0952,-1685.26,0,0
71957.3,49.5774,-1678.33,0,0
72217.6,49.2556,-1671.3,0,0
72478,49.0087,-1664.57,0,0
72738.3,48.6588,-1657.71,0,0
72998.6,48.6611,-1650.98,0,0
73258.9,48.6389,-1644.24,0,0
73519.3,48.5038,-1637.65,0,0
73779.6,48.441,-1630.99,0,0
74039.9,48.4642,-1624.36,0,0
74300.225,48.5698,-1617.87,0,0
74560.55,48.5531,-1611.33,0,0
74820.875,48.7669,-1604.98,0,0
75081.2,48.802,-1598.83,0,0
75341.525,48.6533,-1592.45,0,0
75601.85,48.6455,-1586.01,0,0
75862.175,48.9638,-1579.55,0,0
76122.5,49.3143,-1573.36,0,0
76382.825,49.7427,-1567.52,0,0
76643.15,49.7776,-1561.69,0,0
76903.475,49.7974,-1555.58,0,0
77163.8,50.1718,-1549.62,0,0
77424.125,50.3222,-1543.9,0,0
77684.45,50.3635,-1537.93,0,0
77944.775,50.6726,-1531.95,0,0
78205.1,51.07,-1526.11,0,0
78465.425,51.713,-1520.53,0,0
78725.75,52.1226,-1515.35,0,0
78986.075,52.1581,-1510.16,0,0
79246.4,52.1568,-1505,0,0
79506.725,52.2511,-1499.64,0,0
79767.05,51.9163,-1494.51,0,0
80027.375,51.7684,-1489.14,0,0
80287.7,51.4255,-1483.74,0,0
80548.025,51.1633,-1477.99,0,0
80808.35,51.1556,-1472.52,0,0
81068.675,51.0277,-1466.87,0,0
81329.0,51.1412,-1461.36,0,0
81589.325,51.2779,-1455.93,0,0
81849.65,51.2532,-1450.63,0,0
82109.975,51.2954,-1445.21,0,0
82370.3,51.2918,-1439.81,0,0
82630.625,51.3569,-1434.42,0,0
82890.95,51.4201,-1428.95,0,0
83151.275,51.7141,-1423.43,0,0
83411.6,52.1087,-1418.09,0,0
83671.925,52.3614,-1412.82,0,0
83932.25,52.7848,-1407.65,0,0
84192.575,53.2608,-1402.53,0,0
84452.9,53.5825,-1397.46,0,0
84713.225,54.0079,-1392.5,0,0
84973.55,54.5573,-1387.58,0,0
85233.875,54.905,-1382.83,0,0
85494.2,55.1667,-1378.13,0,0
85754.525,55.373,-1373.47,0,0
86014.85,55.4096,-1368.57,0,0
86275.175,55.8014,-1363.77,0,0
86535.5,56.2165,-1359.05,0,0
86795.825,56.3251,-1354.43,0,0
87056.15,56.5359,-1349.63,0,0
87316.475,57.0355,-1345.17,0,0
87576.8,57.1067,-1340.87,0,0
87837.125,56.8074,-1336.28,0,0
88097.45,56.7453,-1331.27,0,0
88357.775,56.9651,-1326.37,0,0
88618.1,57.1152,-1321.41,0,0
88878.425,57.466,-1316.7,0,0
89138.75,57.3705,-1311.91,0,0
89399.075,57.9058,-1306.56,0,0
89659.4,58.5675,-1301.59,0,0
89919.725,59.2733,-1296.77,0,0
90180,60.4578,-1291.79,0,0
90440.4,61.4001,-1287.6,0,0
90700.7,61.911,-1283.2,0,0
90961,62.8288,-1278.3,0,0
91221.3,64.0553,-1273.62,0,0
91481.7,65.4684,-1269.35,0,0
91742,67.0368,-1265.34,0,0
92002.3,68.2634,-1261.59,0,0
92262.6,69.4122,-1257.79,0,0
92523,70.7857,-1254.04,0,0
92783.3,72.4069,-1250.49,0,0
93043.6,73.9635,-1247.47,0,0
93303.9,75.7349,-1244.61,0,0
93564.3,77.6195,-1242.34,0,0
93824.6,79.1289,-1241.58,0,0
94084.9,78.8801,-1241.19,0,0
94345.2,77.1201,-1240.08,0,0
94605.6,74.913,-1237.32,0,0
94865.9,73.8287,-1234.23,0,0
95126.2,72.0421,-1231.33,0,0
95386.5,70.3902,-1227.5,0,0
95646.9,69.1257,-1223.52,0,0
95907.2,68.0374,-1219.2,0,0
96167.5,67.402,-1214.76,0,0
96427.8,67.2848,-1210.83,0,0
96688.2,66.5386,-1207.21,0,0
96948.5,65.7068,-1203.08,0,0
97208.8,64.9937,-1198.64,0,0
97469.1,64.8154,-1194.12,0,0
97729.5,64.8864,-1189.91,0,0
97989.8,64.9374,-1185.92,0,0
98250.1,64.9496,-1182.2,0,0
98510.4,64.5361,-1178.42,0,0
98770.8,64.2058,-1174.35,0,0
99031.1,64.0372,-1170.27,0,0
99291.4,63.8612,-1166.21,0,0
99551.7,63.7575,-1162.02,0,0
99812.1,63.8,-1157.88,0,0
100072,64.0115,-1153.79,0,0
100333,64.1218,-1149.97,0,0
100593,64.1291,-1146.06,0,0
100853,64.2415,-1142.19,0,0
101114,64.1943,-1138.33,0,0
101374,64.1291,-1134.49,0,0
101634,63.7774,-1130.67,0,0
101895,63.241,-1126.31,0,0
102155,63.1112,-1121.34,0,0
102415,63.5463,-1116.45,0,0
102676,64.468,-1111.79,0,0
102936,65.4585,-1107.46,0,0
103196,66.4185,-1103.28,0,0
103457,67.3675,-1099.34,0,0
103717,68.1657,-1095.21,0,0
103977,69.4131,-1090.73,0,0
104238,71.1893,-1086.88,0,0
104498,72.7663,-1083.5,0,0
104758,74.0253,-1080.32,0,0
105019,75.0501,-1076.96,0,0
105279,76.1695,-1073.58,0,0
105539,77.4439,-1070.2,0,0
105800,78.897,-1066.95,0,0
106060,80.3063,-1064.02,0,0
106320.175,81.5619,-1061.03,0,0
106580.5,82.9634,-1058.03,0,0
106840.825,84.5408,-1055.33,0,0
107101.15,86.001,-1052.93,0,0
107361.475,87.2156,-1050.72,0,0
107621.8,88.1862,-1048.59,0,0
107882.125,88.959,-1046.2,0,0
108142.45,89.956,-1043.74,0,0
108402.775,91.07,-1041.49,0,0
108663.1,92.132,-1039.41,0,0
108923.425,93.1321,-1037.59,0,0
109183.75,93.8626,-1035.89,0,0
109444.075,94.1479,-1034.21,0,0
109704.4,94.4312,-1032.49,0,0
109964.725,94.6156,-1030.55,0,0
110225.05,94.6644,-1028.53,0,0
110485.375,94.5929,-1026.41,0,0
110745.7,94.6856,-1024.26,0,0
111006.025,94.6659,-1021.7,0,0
111266.35,94.7791,-1019.21,0,0
111526.675,95.353,-1016.96,0,0
111787.0,95.9797,-1014.6,0,0
112047.325,96.4301,-1012.58,0,0
112307.65,96.8688,-1010.55,0,0
112567.975,97.3487,-1008.8,0,0
112828.3,97.7825,-1007.2,0,0
113088.625,97.8962,-1005.56,0,0
113348.95,97.8839,-1004.14,0,0
113609.275,97.7088,-1002.52,0,0
113869.6,97.4816,-1001.11,0,0
114129.925,96.8998,-999.708,0,0
114390.25,96.1274,-998.036,0,0
114650.575,95.421,-996.215,0,0
114910.9,94.612,-994.298,0,0
115171.225,93.7306,-992.461,0,0
115431.55,92.825,-990.512,0,0
115691.875,91.6051,-988.549,0,0
115952.2,90.3114,-986.082,0,0
116212.525,89.2919,-983.382,0,0
116472.85,88.3424,-980.687,0,0
116733.175,87.4939,-978.045,0,0
116993.5,86.547,-975.301,0,0
117253.825,85.5952,-972.383,0,0
117514.15,84.8228,-969.375,0,0
117774.475,84.0568,-966.338,0,0
118034.8,83.4482,-963.172,0,0
118295.125,82.942,-959.977,0,0
118555.45,82.5961,-956.755,0,0
118815.775,82.3713,-953.602,0,0
119076.1,82.2708,-950.53,0,0
119336.425,82.1574,-947.439,0,0
119596.75,82.2519,-944.465,0,0
119857.075,82.2804,-941.64,0,0
120117.4,82.2013,-938.774,0,0
120377.725,82.3219,-935.926,0,0
120638.05,82.4364,-933.317,0,0
120898.375,82.4298,-930.788,0,0
121158.7,82.2814,-928.324,0,0
121419.025,82.1676,-925.773,0,0
121679.35,81.8977,-923.316,0,0
121939.675,81.4427,-920.742,0,0
122200.0,81.0133,-917.895,0,0
122460,80.6891,-915.157,0,0
122721,80.2331,-912.318,0,0
122981,79.8778,-909.23,0,0
123241,79.7092,-906.175,0,0
123502,79.6288,-903.119,0,0
123762,79.4552,-900.226,0,0
124022,79.4714,-897.186,0,0
124283,79.3992,-894.057,0,0
124543,79.5748,-890.998,0,0
124803,79.6816,-888.138,0,0
125064,79.801,-885.271,0,0
125324,79.8742,-882.238,0,0
125584,80.0708,-879.267,0,0
125845,80.3194,-876.355,0,0
126105,80.5041,-873.488,0,0
126365,80.7741,-870.594,0,0
126626,80.9137,-867.784,0,0
126886,81.1518,-864.998,0,0
127146,81.2057,-861.942,0,0
127406,81.5316,-858.929,0,0
127667,81.7955,-856.092,0,0
127927,82.1458,-852.969,0,0
128187,82.5188,-849.91,0,0
128448,83.1827,-846.844,0,0
128708,83.8485,-843.941,0,0
128968,84.4565,-841.149,0,0
129229,85.0147,-838.291,0,0
129489,85.6846,-835.447,0,0
129749,86.3219,-832.537,0,0
130010,87.2163,-829.701,0,0
130270,88.1974,-826.898,0,0
130530,89.2179,-824.154,0,0
130791,90.3467,-821.679,0,0
131051,91.4141,-819.321,0,0
131311,92.4216,-817.098,0,0
131572,93.3429,-814.97,0,0
131832,94.1197,-812.885,0,0
132092,94.9941,-810.744,0,0
132353,95.7287,-808.695,0,0
132613,96.4108,-806.591,0,0
132873,97.1292,-804.468,0,0
133134,97.7959,-802.469,0,0
133394,98.4392,-800.458,0,0
133654,99.0701,-798.449,0,0
133915,99.6592,-796.448,0,0
134175,100.205,-794.556,0,0
134435,100.571,-792.552,0,0
134696,100.949,-790.488,0,0
134956,101.263,-788.22,0,0
135216,101.788,-785.936,0,0
135477,102.558,-783.735,0,0
135737,103.116,-781.631,0,0
135997,103.728,-779.353,0,0
136258,104.578,-777.112,0,0
136518,105.471,-775.089,0,0
136778,106.307,-773.063,0,0
137039,107.229,-771.138,0,0
137299,108.206,-769.265,0,0
137559,109.249,-767.521,0,0
137819,110.356,-766.196,0,0
138080,111.094,-765.06,0,0
138340.125,111.707,-764.003,0,0
138600.45,111.851,-763.015,0,0
138860.775,111.76,-761.742,0,0
139121.1,111.598,-760.204,0,0
139381.425,111.519,-758.566,0,0
139641.75,111.497,-756.939,0,0
139902.075,111.401,-755.328,0,0
140162.4,111.119,-753.553,0,0
140422.725,110.812,-751.588,0,0
140683.05,110.67,-749.493,0,0
140943.375,110.613,-747.342,0,0
141203.7,110.531,-745.134,0,0
141464.025,110.671,-742.869,0,0
141724.35,110.828,-740.7,0,0
141984.675,110.922,-738.45,0,0
142245.0,111.271,-736.111,0,0
142505.325,111.672,-734.106,0,0
142765.65,111.843,-732.131,0,0
143025.975,112.104,-730.015,0,0
143286.3,112.319,-728.047,0,0
143546.625,112.337,-725.981,0,0
143806.95,112.349,-723.769,0,0
144067.275,112.405,-721.367,0,0
144327.6,112.758,-718.818,0,0
144587.925,113.179,-716.489,0,0
144848.25,113.574,-714.156,0,0
145108.575,114.067,-711.775,0,0
145368.9,114.64,-709.451,0,0
145629.225,115.3,-707.207,0,0
145889.55,115.999,-705.046,0,0
146149.875,116.675,-703.031,0,0
146410.2,117.165,-700.948,0,0
146670.525,117.815,-698.76,0,0
146930.85,118.681,-696.712,0,0
147191.175,119.411,-695.001,0,0
147451.5,119.883,-693.179,0,0
147711.825,120.392,-691.245,0,0
147972.15,121.045,-689.474,0,0
148232.475,121.475,-687.802,0,0
148492.8,121.762,-685.995,0,0
148753.125,122.042,-684.21,0,0
149013.45,122.282,-682.221,0,0
149273.775,122.671,-680.243,0,0
149534.1,123.012,-678.359,0,0
149794.425,123.331,-676.462,0,0
150054.75,123.601,-674.651,0,0
150315.075,123.721,-672.806,0,0
150575.4,123.887,-670.93,0,0
150835.725,123.885,-668.973,0,0
151096.05,123.746,-667.036,0,0
151356.375,123.444,-664.836,0,0
151616.7,123.247,-662.353,0,0
151877.025,123.182,-659.787,0,0
152137.35,123.124,-657.162,0,0
152397.675,123.087,-654.411,0,0
152658.0,123.174,-651.5,0,0
152918.325,123.344,-648.428,0,0
153178.65,123.746,-645.354,0,0
153438.975,124.318,-642.356,0,0
153699.3,124.774,-639.493,0,0
153959.625,125.085,-636.35,0,0
154219.95,125.555,-632.929,0,0
154480,126.216,-629.362,0,0
154741,127.147,-625.535,0,0
155001,128.667,-621.725,0,0
155261,130.439,-618.188,0,0
155522,132.221,-614.844,0,0
155782,134.226,-611.501,0,0
156042,136.41,-608.392,0,0
156303,138.619,-605.457,0,0
156563,140.881,-602.552,0,0
156823,143.389,-599.657,0,0
157084,146.08,-597.019,0,0
157344,148.839,-594.799,0,0
157604,151.536,-592.801,0,0
157864,153.999,-590.986,0,0
158125,156.423,-589.305,0,0
158385,158.502,-587.76,0,0
158645,160.188,-585.864,0,0
158906,162.024,-583.616,0,0
159166,164.108,-581.129,0,0
159426,166.706,-578.57,0,0
159687,169.604,-576.263,0,0
159947,172.335,-574.202,0,0
160207,175.252,-571.972,0,0
160468,178.711,-569.747,0,0
160728,182.578,-567.994,0,0
160988,186.525,-566.913,0,0
161249,190.252,-566.333,0,0
161509,193.635,-565.957,0,0
161769,196.733,-565.769,0,0
162030,199.732,-565.362,0,0
162290,202.806,-565.195,0,0
162550,205.714,-565.148,0,0
162811,208.486,-565.042,0,0
163071,211.35,-564.966,0,0
163331,214.335,-564.914,0,0
163592,217.464,-565.282,0,0
163852,220.333,-566.141,0,0
164112,222.671,-567.06,0,0
164373,224.669,-567.671,0,0
164633,226.883,-567.869,0,0
164893,229.45,-568.154,0,0
165154,232.212,-568.642,0,0
165414,235.261,-569.455,0,0
165674,238.365,-571.013,0,0
165935,241.021,-573.049,0,0
166195,243.253,-575.364,0,0
166455,245.067,-577.865,0,0
166716,246.521,-580.369,0,0
166976,247.572,-583.121,0,0
167236,248.085,-585.826,0,0
167497,248.068,-588.217,0,0
167757,247.983,-590.29,0,0
168017,247.914,-592.301,0,0
168277,247.514,-594.391,0,0
168538,246.816,-596.231,0,0
168798,245.948,-597.935,0,0
169058,244.969,-599.482,0,0
169319,243.875,-600.945,0,0
169579,242.358,-602.404,0,0
169839,240.332,-603.415,0,0
170100,238.325,-603.587,0,0
170360.075,236.7,-603.508,0,0
170620.4,235.191,-603.157,0,0
170880.725,233.99,-602.628,0,0
171141.05,233.203,-602.132,0,0
171401.375,232.453,-602.004,0,0
171661.7,231.523,-601.91,0,0
171922.025,230.4,-601.945,0,0
172182.35,228.895,-601.744,0,0
172442.675,227.322,-601.056,0,0
172703.0,226.002,-600.022,0,0
172963.325,224.889,-598.904,0,0
173223.65,223.97,-597.723,0,0
173483.975,223.13,-596.562,0,0
173744.3,222.25,-595.308,0,0
174004.625,221.52,-593.74,0,0
174264.95,221.251,-592.154,0,0
174525.275,221.16,-590.696,0,0
174785.6,221.178,-589.418,0,0
175045.925,221.469,-588.179,0,0
175306.25,221.904,-587.131,0,0
175566.575,222.432,-586.541,0,0
175826.9,222.587,-586.374,0,0
176087.225,222.274,-586.211,0,0
176347.55,221.804,-585.666,0,0
176607.875,221.563,-585.015,0,0
176868.2,221.299,-584.592,0,0
177128.525,220.858,-584.275,0,0
177388.85,220.077,-583.793,0,0
177649.175,219.389,-582.943,0,0
177909.5,218.942,-582.079,0,0
178169.825,218.531,-581.359,0,0
178430.15,218.025,-580.699,0,0
178690.475,217.525,-580.002,0,0
178950.8,217.077,-579.338,0,0
179211.125,216.587,-578.903,0,0
179471.45,215.807,-578.574,0,0
179731.775,214.756,-578.012,0,0
179992.1,213.87,-577.43,0,0
180252.425,212.701,-577.073,0,0
180512.75,211.09,-576.409,0,0
180773.075,209.44,-575.311,0,0
181033.4,208.059,-574.029,0,0
181293.725,206.634,-572.866,0,0
181554.05,204.996,-571.519,0,0
181814.375,203.481,-569.897,0,0
182074.7,201.995,-568.423,0,0
182335.025,200.197,-566.864,0,0
182595.35,198.237,-564.937,0,0
182855.675,196.281,-562.545,0,0
183116.0,194.626,-559.719,0,0
183376.325,193.292,-556.809,0,0
183636.65,192.147,-553.838,0,0
183896.975,191.148,-550.818,0,0
184157.3,190.302,-547.711,0,0
184417.625,189.678,-544.545,0,0
184677.95,189.209,-541.433,0,0
184938.275,188.815,-538.238,0,0
185198.6,188.636,-535.111,0,0
185458.925,188.476,-531.959,0,0
185719.25,188.4,-528.834,0,0
185979.575,188.45,-525.6,0,0
186239.9,188.71,-522.449,0,0
186500,189.02,-519.44,0,0
186761,189.344,-516.453,0,0
187021,189.651,-513.46,0,0
187281,190.082,-510.345,0,0
187542,190.605,-507.344,0,0
187802,191.173,-504.345,0,0
188062,191.719,-501.609,0,0
188322,192.167,-498.732,0,0
188583,192.503,-495.683,0,0
188843,192.968,-492.557,0,0
189103,193.571,-489.222,0,0
189364,194.233,-485.964,0,0
189624,195.179,-482.499,0,0
189884,196.315,-479.064,0,0
190145,197.562,-475.842,0,0
190405,198.792,-472.768,0,0
190665,200.008,-469.729,0,0
190926,201.308,-466.592,0,0
191186,202.617,-463.442,0,0
191446,204.065,-460.411,0,0
191707,205.418,-457.398,0,0
191967,206.759,-454.226,0,0
192227,208.291,-451.084,0,0
192488,209.918,-447.983,0,0
192748,211.449,-445.069,0,0
193008,212.791,-442.011,0,0
193269,214.147,-438.633,0,0
193529,215.77,-435.086,0,0
193789,217.567,-431.509,0,0
194050,219.603,-428.103,0,0
194310,221.678,-424.747,0,0
194570,223.694,-421.413,0,0
194831,225.706,-417.848,0,0
195091,227.876,-414.159,0,0
195351,230.387,-410.367,0,0
195612,233.075,-406.664,0,0
195872,235.921,-403.077,0,0
196132,238.761,-399.583,0,0
196393,241.669,-395.985,0,0
196653,244.733,-392.293,0,0
196913,248.078,-388.53,0,0
197174,251.784,-384.796,0,0
197434,255.752,-381.314,0,0
197694,259.807,-378.049,0,0
197955,263.864,-375.086,0,0
198215,267.846,-372.2,0,0
198475,271.873,-369.359,0,0
198735,275.825,-366.656,0,0
198996,279.775,-363.831,0,0
199256,283.741,-360.829,0,0
199516,287.838,-357.679,0,0
199777,292.128,-354.597,0,0
200037,296.55,-351.554,0,0
200297,300.9,-348.268,0,0
200558,305.689,-344.728,0,0
200818,310.858,-340.985,0,0
201078,316.472,-337.428,0,0
201339,322.576,-333.975,0,0
201599,329.115,-330.749,0,0
201859,335.903,-327.812,0,0
202120,342.85,-325.143,0,0
202380.025,350.117,-322.662,0,0
202640.35,357.719,-320.329,0,0
202900.675,365.685,-318.312,0,0
203161.0,373.785,-316.662,0,0
203421.325,382.139,-315.235,0,0
203681.65,390.824,-314.025,0,0
203941.975,400.07,-313.131,0,0
204202.3,409.562,-312.694,0,0
204462.625,419.691,-312.677,0,0
204722.95,430.339,-313.765,0,0
204983.275,441.2,-315.918,0,0
205243.6,451.658,-319.086,0,0
205503.925,461.881,-323.222,0,0
205764.25,471.814,-327.947,0,0
206024.575,481.393,-333.78,0,0
206284.9,490.061,-340.072,0,0
206545.225,498.133,-346.809,0,0
206805.55,505.708,-353.893,0,0
207065.875,512.772,-361.505,0,0
207326.2,519.256,-369.731,0,0
207586.525,524.648,-378.273,0,0
207846.85,529.073,-386.737,0,0
208107.175,532.84,-394.937,0,0
208367.5,536.181,-403.079,0,0
208627.825,538.95,-411.204,0,0
208888.15,541.192,-419.392,0,0
209148.475,542.749,-427.539,0,0
209408.8,543.593,-435.485,0,0
209669.125,543.553,-443.182,0,0
209929.45,542.991,-450.166,0,0
210189.775,541.937,-456.492,0,0
210450.1,540.619,-462.228,0,0
210710.425,539.134,-467.415,0,0
210970.75,537.361,-472.155,0,0
211231.075,535.332,-476.312,0,0
211491.4,533.113,-479.446,0,0
211751.725,531.268,-481.701,0,0
212012.05,529.96,-483.284,0,0
212272.375,529.103,-484.258,0,0
212532.7,529.133,-484.79,0,0
212793.025,530.209,-485.379,0,0
213053.35,531.819,-486.29,0,0
213313.675,533.822,-487.842,0,0
213574.0,535.865,-489.626,0,0
213834.325,537.882,-491.527,0,0
214094.65,540.127,-493.511,0,0
214354.975,542.753,-495.72,0,0
214615.3,545.61,-498.298,0,0
214875.625,548.38,-501.476,0,0
215135.95,550.916,-505.063,0,0
215396.275,553.024,-508.719,0,0
215656.6,555.101,-512.414,0,0
215916.925,556.699,-516.45,0,0
216177.25,557.694,-520.456,0,0
216437.575,558.19,-523.839,0,0
216697.9,558.713,-526.415,0,0
216958.225,559.776,-528.297,0,0
217218.55,561.724,-530.059,0,0
217478.875,564.331,-532.144,0,0
217739.2,567.254,-534.663,0,0
217999.525,570.201,-537.711,0,0
218259.85,573.214,-541.018,0,0
218520,575.983,-544.553,0,0
218780,578.694,-548.006,0,0
219041,581.676,-551.439,0,0
219301,585.004,-555.031,0,0
219561,588.626,-559.051,0,0
219822,592.233,-563.459,0,0
220082,595.882,-568.205,0,0
220342,599.576,-573.276,0,0
220603,603.137,-578.636,0,0
220863,607.008,-584.368,0,0
221123,610.761,-590.685,0,0
221384,614.454,-597.642,0,0
221644,617.761,-605.182,0,0
221904,620.535,-613.053,0,0
222165,623.079,-621.102,0,0
222425,625.489,-629.494,0,0
222685,627.566,-638.46,0,0
222946,629.021,-647.829,0,0
223206,630.134,-657.379,0,0
223466,630.479,-667.348,0,0
223727,630.331,-677.496,0,0
223987,629.443,-687.803,0,0
224247,627.934,-697.919,0,0
224508,625.769,-707.954,0,0
224768,623.375,-717.891,0,0
225028,620.457,-727.429,0,0
225289,617.231,-737.401,0,0
225549,613.437,-747.448,0,0
225809,609.064,-757.29,0,0
226070,603.683,-767.037,0,0
226330,598.042,-776.431,0,0
226590,591.799,-785.294,0,0
226851,585.156,-793.941,0,0
227111,577.892,-802.258,0,0
227371,570.176,-810.063,0,0
227632,561.918,-817.288,0,0
227892,553.621,-823.807,0,0
228152,545.155,-829.962,0,0
228413,536.487,-835.565,0,0
228673,527.501,-840.72,0,0
228933,518.649,-845.172,0,0
229193,509.733,-849.38,0,0
229454,500.649,-852.927,0,0
229714,491.639,-856.338,0,0
229974,482.361,-859.386,0,0
230235,473.006,-861.301,0,0
230495,463.81,-862.724,0,0
230755,454.829,-863.876,0,0
231016,446.129,-864.318,0,0
231276,437.8,-864.312,0,0
231536,429.751,-863.977,0,0
231797,422.08,-863.315,0,0
232057,414.884,-862.429,0,0
232317,408.189,-861.394,0,0
232578,401.809,-860.381,0,0
232838,395.64,-859.469,0,0
233098,389.672,-858.506,0,0
233359,383.717,-857.584,0,0
233619,377.906,-856.484,0,0
233879,372.465,-855.285,0,0
234140,367.126,-854.164,0,0
234400,362.014,-853.253,0,0
234660.3,356.779,-852.175,0,0
234920.625,351.567,-851.189,0,0
235180.95,346.798,-849.856,0,0
235441.275,341.91,-848.909,0,0
235701.6,336.978,-847.918,0,0
235961.925,331.853,-846.653,0,0
236222.25,326.951,-845.151,0,0
236482.575,322.219,-843.549,0,0
236742.9,317.783,-841.796,0,0
237003.225,313.538,-840.122,0,0
237263.55,309.519,-838.582,0,0
237523.875,305.547,-837.19,0,0
237784.2,301.583,-835.918,0,0
238044.525,297.615,-834.672,0,0
238304.85,293.472,-833.538,0,0
238565.175,289.347,-832.396,0,0
238825.5,284.954,-831.03,0,0
239085.825,280.538,-829.641,0,0
239346.15,275.97,-828.109,0,0
239606.475,271.703,-826.155,0,0
239866.8,267.346,-824.165,0,0
240127.125,263.002,-822.206,0,0
240387.45,259.029,-820.039,0,0
240647.775,255.123,-817.633,0,0
240908.1,251.243,-815.078,0,0
241168.425,247.719,-812.569,0,0
241428.75,244.319,-810.027,0,0
241689.075,240.917,-807.509,0,0
241949.4,237.659,-804.949,0,0
242209.725,234.596,-802.287,0,0
242470.05,231.682,-799.639,0,0
242730.375,228.86,-797.091,0,0
242990.7,226.208,-794.563,0,0
243251.025,223.679,-792.062,0,0
243511.35,221.172,-789.66,0,0
243771.675,218.85,-787.309,0,0
244032.0,216.406,-785.09,0,0
244292.325,213.968,-782.881,0,0
244552.65,211.76,-780.716,0,0
244812.975,209.458,-778.539,0,0
245073.3,206.767,-776.689,0,0
245333.625,204.437,-774.291,0,0
245593.95,201.954,-772.12,0,0
245854.275,199.573,-769.843,0,0
246114.6,197.155,-767.695,0,0
246374.925,194.821,-765.23,0,0
246635.25,192.517,-762.815,0,0
246895.575,190.322,-760.338,0,0
247155.9,188.171,-757.86,0,0
247416.225,186.074,-755.424,0,0
247676.55,184.167,-752.893,0,0
247936.875,182.193,-750.356,0,0
248197.2,180.376,-747.771,0,0
248457.525,178.559,-745.287,0,0
248717.85,176.876,-742.856,0,0
248978.175,175.189,-740.36,0,0
249238.5,173.496,-737.964,0,0
249498.825,171.864,-735.421,0,0
249759.15,170.309,-732.928,0,0
250019.475,168.875,-730.496,0,0
250279.8,167.424,-728.088,0,0
250540,166.034,-725.762,0,0
250800,164.611,-723.275,0,0
251061,163.278,-720.851,0,0
251321,161.915,-718.429,0,0
251581,160.654,-716.048,0,0
251842,159.407,-713.641,0,0
252102,158.095,-711.28,0,0
252362,156.833,-708.877,0,0
252623,155.632,-706.35,0,0
252883,154.484,-703.876,0,0
253143,153.385,-701.362,0,0
253404,152.257,-698.873,0,0
253664,151.257,-696.344,0,0
253924,150.197,-693.742,0,0
254185,149.256,-691.109,0,0
254445,148.409,-688.415,0,0
254705,147.833,-685.724,0,0
254966,147.204,-683.045,0,0
255226,146.633,-680.501,0,0
255486,146.254,-677.973,0,0
255747,145.847,-675.42,0,0
256007,145.507,-672.989,0,0
256267,145.178,-670.575,0,0
256528,144.856,-668.169,0,0
256788,144.567,-665.719,0,0
257048,144.413,-663.289,0,0
257309,144.212,-660.883,0,0
257569,144.156,-658.464,0,0
257829,144.121,-656.031,0,0
258090,144.205,-653.683,0,0
258350,144.415,-651.29,0,0
258610,144.592,-649.095,0,0
258871,144.839,-646.863,0,0
259131,145.1,-644.644,0,0
259391,145.432,-642.417,0,0
259651,145.939,-640.21,0,0
259912,146.429,-638.058,0,0
260172,147.078,-636.02,0,0
260432,147.825,-633.98,0,0
260693,148.61,-632.125,0,0
260953,149.422,-630.336,0,0
261213,150.258,-628.606,0,0
261474,151.141,-626.978,0,0
261734,152.081,-625.505,0,0
261994,152.992,-624.09,0,0
262255,153.87,-622.721,0,0
262515,154.722,-621.406,0,0
262775,155.579,-620.102,0,0
263036,156.555,-618.741,0,0
263296,157.477,-617.551,0,0
263556,158.59,-616.354,0,0
263817,159.747,-615.31,0,0
264077,160.924,-614.305,0,0
264337,162.187,-613.422,0,0
264598,163.537,-612.641,0,0
264858,164.903,-612.163,0,0
265118,166.265,-611.702,0,0
265379,167.791,-611.508,0,0
265639,169.096,-611.599,0,0
265899,170.391,-611.796,0,0
266160,171.54,-612.212,0,0
266420,172.591,-612.779,0,0
266680.25,173.578,-613.435,0,0
266940.575,174.429,-614.405,0,0
267200.9,175.037,-615.483,0,0
267461.225,175.488,-616.797,0,0
267721.55,175.602,-618.257,0,0
267981.875,175.398,-619.757,0,0
268242.2,174.795,-621.316,0,0
268502.525,173.864,-622.773,0,0
268762.85,172.603,-624.109,0,0
269023.175,170.958,-625.239,0,0
269283.5,169.12,-626.124,0,0
269543.825,167.119,-626.686,0,0
269804.15,164.852,-626.889,0,0
270064.475,162.691,-626.748,0,0
270324.8,160.553,-626.33,0,0
270585.125,158.477,-625.68,0,0
270845.45,156.505,-624.828,0,0
271105.775,154.6,-623.817,0,0
271366.1,152.827,-622.644,0,0
271626.425,151.143,-621.313,0,0
271886.75,149.542,-619.801,0,0
272147.075,148.208,-618.205,0,0
272407.4,146.992,-616.509,0,0
272667.725,145.95,-614.785,0,0
272928.05,145.022,-613.074,0,0
273188.375,144.273,-611.311,0,0
273448.7,143.612,-609.585,0,0
273709.025,143.108,-607.905,0,0
273969.35,142.663,-606.256,0,0
274229.675,142.28,-604.65,0,0
274490.0,141.89,-603.092,0,0
274750.325,141.609,-601.471,0,0
275010.65,141.45,-599.864,0,0
275270.975,141.4,-598.288,0,0
275531.3,141.41,-596.795,0,0
275791.625,141.476,-595.419,0,0
276051.95,141.531,-594.075,0,0
276312.275,141.564,-592.78,0,0
276572.6,141.681,-591.45,0,0
276832.925,141.835,-590.079,0,0
277093.25,142.107,-588.77,0,0
277353.575,142.462,-587.525,0,0
277613.9,142.892,-586.404,0,0
277874.225,143.341,-585.379,0,0
278134.55,143.796,-584.442,0,0
278394.875,144.258,-583.526,0,0
278655.2,144.735,-582.722,0,0
278915.525,145.248,-581.986,0,0
279175.85,145.821,-581.356,0,0
279436.175,146.336,-580.848,0,0
279696.5,146.867,-580.488,0,0
279956.825,147.256,-580.254,0,0
280217.15,147.568,-580.103,0,0
280477.475,147.764,-580.009,0,0
280737.8,147.868,-579.948,0,0
280998.125,147.82,-579.902,0,0
281258.45,147.685,-579.854,0,0
281518.775,147.424,-579.766,0,0
281779.1,147.13,-579.608,0,0
282039.425,146.753,-579.436,0,0
282299.75,146.385,-579.187,0,0
282560,145.986,-578.968,0,0
282820,145.526,-578.75,0,0
283081,144.982,-578.49,0,0
283341,144.366,-578.168,0,0
283601,143.718,-577.774,0,0
283862,143.102,-577.276,0,0
284122,142.463,-576.757,0,0
284382,141.885,-576.172,0,0
284643,141.255,-575.703,0,0
284903,140.631,-575.206,0,0
285163,139.797,-574.703,0,0
285424,138.978,-574.016,0,0
285684,138.095,-573.299,0,0
285944,137.252,-572.427,0,0
286205,136.421,-571.5,0,0
286465,135.591,-570.5,0,0
286725,134.803,-569.431,0,0
286986,133.992,-568.286,0,0
287246,133.178,-567.003,0,0
287506,132.422,-565.603,0,0
287767,131.793,-564.05,0,0
288027,131.291,-562.414,0,0
288287,130.91,-560.705,0,0
288548,130.71,-558.965,0,0
288808,130.669,-557.138,0,0
289068,130.898,-555.337,0,0
289329,131.349,-553.663,0,0
289589,131.988,-552.139,0,0
289849,132.714,-550.885,0,0
290109,133.436,-549.818,0,0
290370,134.13,-548.946,0,0
290630,134.736,-548.218,0,0
290890,135.208,-547.603,0,0
291151,135.576,-547.071,0,0
291411,135.77,-546.494,0,0
291671,135.919,-545.893,0,0
291932,136.065,-545.191,0,0
292192,136.174,-544.56,0,0
292452,136.181,-543.903,0,0
292713,136.185,-543.18,0,0
292973,136.174,-542.418,0,0
293233,136.17,-541.61,0,0
293494,136.148,-540.817,0,0
293754,136.093,-539.953,0,0
294014,135.99,-539.067,0,0
294275,135.882,-538.059,0,0
294535,135.783,-536.91,0,0
294795,135.758,-535.664,0,0
295056,135.873,-534.448,0,0
295316,136.021,-533.096,0,0
295576,136.318,-531.627,0,0
295837,136.797,-530.137,0,0
296097,137.443,-528.675,0,0
296357,138.275,-527.291,0,0
296618,139.242,-526.032,0,0
296878,140.305,-524.938,0,0
297138,141.377,-524.005,0,0
297399,142.412,-523.179,0,0
297659,143.432,-522.41,0,0
297919,144.468,-521.689,0,0
298180,145.508,-521.004,0,0
298440,146.566,-520.405,0,0
298700.2,147.628,-519.81,0,0
298960.525,148.583,-519.341,0,0
299220.85,149.616,-518.838,0,0
299481.175,150.776,-518.3,0,0
299741.5,151.921,-517.871,0,0
300001.825,153.045,-517.586,0,0
300262.15,154.243,-517.328,0,0
300522.475,155.306,-517.202,0,0
300782.8,156.418,-517.083,0,0
301043.125,157.525,-516.947,0,0
301303.45,158.692,-516.918,0,0
301563.775,159.817,-516.92,0,0
301824.1,160.962,-516.969,0,0
302084.425,162.092,-516.955,0,0
302344.75,163.357,-517.215,0,0
302605.075,164.486,-517.58,0,0
302865.4,165.647,-517.986,0,0
303125.725,166.658,-518.417,0,0
303386.05,167.787,-518.889,0,0
303646.375,168.767,-519.474,0,0
303906.7,169.743,-520.052,0,0
304167.025,170.702,-520.82,0,0
304427.35,171.695,-521.687,0,0
304687.675,172.479,-522.725,0,0
304948.0,173.189,-523.552,0,0
305208.325,173.716,-524.54,0,0
305468.65,174.238,-525.424,0,0
305728.975,174.683,-526.323,0,0
305989.3,175.198,-527.241,0,0
306249.625,175.658,-528.113,0,0
306509.95,176.215,-529.146,0,0
306770.275,176.618,-530.09,0,0
307030.6,177.024,-531.191,0,0
307290.925,177.375,-532.344,0,0
307551.25,177.623,-533.485,0,0
307811.575,177.887,-534.745,0,0
308071.9,177.96,-536.02,0,0
308332.225,178.111,-537.303,0,0
308592.55,178.052,-538.718,0,0
308852.875,177.894,-540.034,0,0
309113.2,177.653,-541.45,0,0
309373.525,177.223,-542.747,0,0
309633.85,176.819,-543.962,0,0
309894.175,176.421,-545.237,0,0
310154.5,175.867,-546.416,0,0
310414.825,175.339,-547.626,0,0
310675.15,174.731,-548.853,0,0
310935.475,174.117,-550.034,0,0
311195.8,173.305,-551.2,0,0
311456.125,172.579,-552.335,0,0
311716.45,171.742,-553.507,0,0
311976.775,170.919,-554.648,0,0
312237.1,169.968,-555.82,0,0
312497.425,168.815,-557.08,0,0
312757.75,167.602,-558.064,0,0
313018.075,166.376,-559.181,0,0
313278.4,165.008,-560.105,0,0
313538.725,163.61,-560.938,0,0
313799.05,162.234,-561.617,0,0
314059.375,160.834,-562.365,0,0
314319.7,159.305,-562.963,0,0
314580,157.901,-563.536,0,0
314840,156.395,-564.054,0,0
315101,154.884,-564.554,0,0
315361,153.415,-564.953,0,0
315621,151.862,-565.29,0,0
315882,150.318,-565.69,0,0
316142,148.744,-565.966,0,0
316402,147.124,-566.193,0,0
316663,145.585,-566.327,0,0
316923,143.919,-566.624,0,0
317183,142.135,-566.672,0,0
317444,140.382,-566.542,0,0
317704,138.619,-566.389,0,0
317964,137.001,-566.138,0,0
318225,135.322,-565.742,0,0
318485,133.776,-565.391,0,0
318745,132.303,-564.919,0,0
319006,130.777,-564.515,0,0
319266,129.349,-564.044,0,0
319526,127.94,-563.632,0,0
319787,126.513,-563.132,0,0
320047,125.079,-562.665,0,0
320307,123.573,-562.112,0,0
320567,122.147,-561.542,0,0
320828,120.685,-560.812,0,0
321088,119.234,-560.137,0,0
321348,117.802,-559.389,0,0
321609,116.47,-558.616,0,0
321869,115.059,-557.702,0,0
322129,113.79,-556.715,0,0
322390,112.554,-555.667,0,0
322650,111.315,-554.546,0,0
322910,110.139,-553.457,0,0
323171,109.152,-552.188,0,0
323431,108.133,-551.1,0,0
323691,107.291,-549.871,0,0
323952,106.423,-548.688,0,0
324212,105.798,-547.384,0,0
324472,105.069,-546.199,0,0
324733,104.602,-545.006,0,0
324993,104.14,-543.806,0,0
325253,103.764,-542.822,0,0
325514,103.379,-541.754,0,0
325774,103.083,-540.817,0,0
326034,102.728,-539.839,0,0
326295,102.426,-539.023,0,0
326555,102.141,-538.236,0,0
326815,101.855,-537.335,0,0
327076,101.603,-536.541,0,0
327336,101.371,-535.875,0,0
327596,101.155,-535.061,0,0
327857,100.988,-534.446,0,0
328117,100.721,-533.834,0,0
328377,100.566,-533.222,0,0
328638,100.369,-532.751,0,0
328898,100.12,-532.237,0,0
329158,99.8655,-531.759,0,0
329419,99.5581,-531.377,0,0
329679,99.222,-530.881,0,0
329939,98.9553,-530.486,0,0
330200,98.6613,-530.173,0,0
330460,98.3417,-529.852,0,0
330720.15,97.8555,-529.461,0,0
330980.475,97.5161,-529.183,0,0
331240.8,97.089,-528.857,0,0
331501.125,96.6086,-528.516,0,0
331761.45,96.0587,-528.237,0,0
332021.775,95.5862,-527.897,0,0
332282.1,95.031,-527.677,0,0
332542.425,94.3981,-527.413,0,0
332802.75,93.7579,-527.027,0,0
333063.075,93.1076,-526.67,0,0
333323.4,92.4111,-526.333,0,0
333583.725,91.7248,-525.914,0,0
333844.05,91.0675,-525.482,0,0
334104.375,90.315,-525.11,0,0
334364.7,89.5851,-524.676,0,0
334625.025,88.8942,-524.149,0,0
334885.35,88.0436,-523.696,0,0
335145.675,87.3084,-523.128,0,0
335406.0,86.5488,-522.603,0,0
335666.325,85.8218,-521.966,0,0
335926.65,85.0533,-521.36,0,0
336186.975,84.3093,-520.801,0,0
336447.3,83.5737,-520.052,0,0
336707.625,82.8386,-519.381,0,0
336967.95,82.1365,-518.728,0,0
337228.275,81.4754,-517.981,0,0
337488.6,80.7747,-517.329,0,0
337748.925,80.1046,-516.61,0,0
338009.25,79.437,-515.901,0,0
338269.575,78.7912,-515.182,0,0
338529.9,78.107,-514.379,0,0
338790.225,77.4298,-513.57,0,0
339050.55,76.7419,-512.829,0,0
339310.875,76.1125,-512.024,0,0
339571.2,75.4948,-511.116,0,0
339831.525,74.8677,-510.298,0,0
340091.85,74.3097,-509.402,0,0
340352.175,73.876,-508.505,0,0
340612.5,73.2653,-507.607,0,0
340872.825,72.7292,-506.706,0,0
341133.15,72.2742,-505.859,0,0
341393.475,71.8154,-505.035,0,0
341653.8,71.5103,-504.184,0,0
341914.125,71.0309,-503.341,0,0
342174.45,70.6119,-502.544,0,0
342434.775,70.1811,-501.782,0,0
342695.1,69.723,-500.974,0,0
342955.425,69.3216,-500.126,0,0
343215.75,68.848,-499.33,0,0
343476.075,68.3896,-498.518,0,0
343736.4,68.0584,-497.677,0,0
343996.725,67.6411,-496.886,0,0
344257.05,67.2222,-496.072,0,0
344517.375,66.7708,-495.288,0,0
344777.7,66.3583,-494.414,0,0
345038.025,65.8909,-493.569,0,0
345298.35,65.581,-492.791,0,0
345558.675,65.0793,-491.885,0,0
345819.0,64.626,-491.006,0,0
346079.325,64.214,-490.105,0,0
346339.65,63.8753,-489.23,0,0
346599.975,63.473,-488.317,0,0
346860,63.1053,-487.338,0,0
347121,62.7686,-486.513,0,0
347381,62.4977,-485.595,0,0
347641,62.2045,-484.652,0,0
347902,61.8541,-483.686,0,0
348162,61.6358,-482.759,0,0
348422,61.2723,-481.87,0,0
348683,61.0012,-480.924,0,0
348943,60.7738,-479.992,0,0
349203,60.5094,-479.074,0,0
349464,60.3792,-478.054,0,0
349724,60.1827,-477.129,0,0
349984,59.9046,-476.243,0,0
350245,59.7991,-475.298,0,0
350505,59.7019,-474.367,0,0
350765,59.5175,-473.445,0,0
351025,59.5078,-472.599,0,0
351286,59.3284,-471.685,0,0
351546,59.2604,-470.824,0,0
351806,59.1401,-469.958,0,0
352067,59.0843,-469.197,0,0
352327,59.0057,-468.296,0,0
352587,58.8728,-467.542,0,0
352848,58.7439,-466.726,0,0
353108,58.6359,-465.943,0,0
353368,58.5098,-465.126,0,0
353629,58.3957,-464.215,0,0
353889,58.2861,-463.43,0,0
354149,58.2046,-462.573,0,0
354410,58.1681,-461.731,0,0
354670,58.0417,-460.929,0,0
354930,58.0163,-460,0,0
355191,57.9195,-459.164,0,0
355451,57.9282,-458.33,0,0
355711,57.9284,-457.527,0,0
355972,57.9275,-456.635,0,0
356232,57.9361,-455.862,0,0
356492,57.9506,-455.085,0,0
356753,57.9773,-454.22,0,0
357013,58.0156,-453.466,0,0
357273,58.0469,-452.658,0,0
357534,58.0927,-451.906,0,0
357794,58.1467,-451.185,0,0
358054,58.2142,-450.471,0,0
358315,58.2393,-449.744,0,0
358575,58.2623,-449.047,0,0
358835,58.2568,-448.314,0,0
359096,58.3091,-447.597,0,0
359356,58.2927,-446.844,0,0
359616,58.2902,-446.157,0,0
359877,58.31,-445.381,0,0
360137,58.3416,-444.656,0,0
360397,58.3312,-443.902,0,0
360658,58.4383,-443.147,0,0
360918,58.5164,-442.427,0,0
361178,58.5208,-441.639,0,0
361438,58.6298,-440.963,0,0
361699,58.75,-440.244,0,0
361959,58.8346,-439.656,0,0
362219,58.8854,-438.956,0,0
362480,58.9594,-438.292,0,0
362740.1,58.9883,-437.665,0,0
363000.425,59.0263,-436.93,0,0
363260.75,59.0138,-436.328,0,0
363521.075,59.088,-435.623,0,0
363781.4,59.1395,-434.904,0,0
364041.725,59.1791,-434.229,0,0
364302.05,59.231,-433.532,0,0
364562.375,59.2379,-432.881,0,0
364822.7,59.3401,-432.167,0,0
365083.025,59.3015,-431.421,0,0
365343.35,59.374,-430.708,0,0
365603.675,59.4163,-430.004,0,0
365864.0,59.4857,-429.229,0,0
366124.325,59.5757,-428.506,0,0
366384.65,59.6504,-427.758,0,0
366644.975,59.7693,-427.036,0,0
366905.3,59.8314,-426.25,0,0
367165.625,59.9582,-425.503,0,0
367425.95,60.0599,-424.768,0,0
367686.275,60.1719,-423.972,0,0
367946.6,60.2735,-423.183,0,0
368206.925,60.3581,-422.405,0,0
368467.25,60.5008,-421.525,0,0
368727.575,60.7018,-420.707,0,0
368987.9,60.8855,-419.825,0,0
369248.225,61.1024,-418.918,0,0
369508.55,61.3841,-417.971,0,0
369768.875,61.7522,-417.045,0,0
370029.2,62.1685,-416.186,0,0
370289.525,62.6099,-415.333,0,0
370549.85,63.1654,-414.51,0,0
370810.175,63.6763,-413.699,0,0
371070.5,64.2314,-412.925,0,0
371330.825,64.8412,-412.275,0,0
371591.15,65.4274,-411.578,0,0
371851.475,66.0396,-410.969,0,0
372111.8,66.7072,-410.401,0,0
372372.125,67.3839,-409.877,0,0
372632.45,67.9957,-409.382,0,0
372892.775,68.638,-408.927,0,0
373153.1,69.2858,-408.459,0,0
373413.425,69.932,-408.08,0,0
373673.75,70.5943,-407.704,0,0
373934.075,71.2036,-407.412,0,0
374194.4,71.892,-407.131,0,0
374454.725,72.5115,-406.899,0,0
374715.05,73.1393,-406.711,0,0
374975.375,73.724,-406.608,0,0
375235.7,74.2832,-406.478,0,0
375496.025,74.7404,-406.421,0,0
375756.35,75.2644,-406.336,0,0
376016.675,75.6785,-406.213,0,0
376277.0,76.0611,-406.174,0,0
376537.325,76.4837,-406.085,0,0
376797.65,76.8496,-405.962,0,0
377057.975,77.2662,-405.883,0,0
377318.3,77.645,-405.785,0,0
377578.625,78.074,-405.745,0,0
377838.95,78.4296,-405.737,0,0
378099.275,78.8152,-405.693,0,0
378359.6,79.1691,-405.659,0,0
378619.925,79.506,-405.719,0,0
378880,79.8649,-405.688,0,0
379141,80.198,-405.708,0,0
379401,80.4443,-405.736,0,0
379661,80.7318,-405.733,0,0
379922,81.0561,-405.788,0,0
380182,81.3977,-405.817,0,0
380442,81.6791,-405.891,0,0
380703,81.9564,-405.96,0,0
380963,82.299,-406.049,0,0
381223,82.6206,-406.199,0,0
381483,82.9189,-406.387,0,0
381744,83.1926,-406.595,0,0
382004,83.4996,-406.864,0,0
382264,83.6968,-407.222,0,0
382525,83.9247,-407.661,0,0
382785,84.0332,-408.032,0,0
383045,84.0625,-408.521,0,0
383306,84.0323,-408.971,0,0
383566,83.914,-409.418,0,0
383826,83.7796,-409.869,0,0
384087,83.5692,-410.293,0,0
384347,83.2504,-410.658,0,0
384607,82.8536,-411.072,0,0
384868,82.482,-411.369,0,0
385128,81.951,-411.683,0,0
385388,81.5063,-411.891,0,0
385649,80.9578,-412.017,0,0
385909,80.494,-412.109,0,0
386169,79.914,-412.222,0,0
386430,79.437,-412.277,0,0
386690,78.8812,-412.239,0,0
386950,78.3414,-412.266,0,0
387211,77.73,-412.303,0,0
387471,77.1132,-412.143,0,0
387731,76.4594,-412.033,0,0
387992,75.8498,-411.775,0,0
388252,75.2743,-411.511,0,0
388512,74.6931,-411.208,0,0
388773,74.142,-410.817,0,0
389033,73.6699,-410.478,0,0
389293,73.2303,-410.061,0,0
389554,72.8213,-409.634,0,0
389814,72.3983,-409.235,0,0
390074,72.0793,-408.793,0,0
390335,71.8256,-408.346,0,0
390595,71.5227,-408.014,0,0
390855,71.281,-407.595,0,0
391116,71.0612,-407.29,0,0
391376,70.8012,-407.015,0,0
391636,70.526,-406.743,0,0
391896,70.2384,-406.476,0,0
392157,69.9822,-406.237,0,0
392417,69.6294,-406.042,0,0
392677,69.2732,-405.843,0,0
392938,68.8406,-405.595,0,0
393198,68.3766,-405.345,0,0
393458,67.8889,-405.066,0,0
393719,67.4055,-404.747,0,0
393979,66.8733,-404.359,0,0
394239,66.3607,-404.002,0,0
394500,65.8426,-403.551,0,0
394760.05,65.3314,-403.097,0,0
395020.375,64.7831,-402.597,0,0
395280.7,64.326,-402.008,0,0
395541.025,63.8289,-401.424,0,0
395801.35,63.4093,-400.851,0,0
396061.675,62.972,-400.294,0,0
396322.0,62.5584,-399.627,0,0
396582.325,62.1473,-398.96,0,0
396842.65,61.7659,-398.281,0,0
397102.975,61.3992,-397.611,0,0
397363.3,61.1378,-396.937,0,0
397623.625,60.816,-396.251,0,0
397883.95,60.5176,-395.527,0,0
398144.275,60.252,-394.82,0,0
398404.6,60.009,-394.131,0,0
398664.925,59.7526,-393.409,0,0
398925.25,59.5303,-392.675,0,0
399185.575,59.3075,-391.974,0,0
399445.9,59.1398,-391.233,0,0
399706.225,58.9279,-390.513,0,0
399966.55,58.8081,-389.757,0,0
400006.6,58.7482,-389.688,0,0