File: Accelerated corrosion test data/2025-10-01_06-00-03/sample_3.csv
Frequency (Hz),Impedance (ohms),Phase (Radians),Temperature (C),Humidity (%)
10000.0,255.862,-11765.4,0,0
10260.325,249.356,-11469,0,0
10520.65,243.479,-11186.6,0,0
10780.975,238.705,-10917.7,0,0
11041.3,233.236,-10666.4,0,0
11301.625,227.494,-10421.2,0,0
11561.95,222.234,-10188.7,0,0
11822.275,218.255,-9965.89,0,0
12082.6,215.43,-9752.23,0,0
12342.925,211.931,-9547.1,0,0
12603.25,205.939,-9353.46,0,0
12863.575,202.509,-9164.08,0,0
13123.9,202.426,-8981.17,0,0
13384.225,195.641,-8813.16,0,0
13644.55,192.158,-8645.58,0,0
13904.875,188.281,-8482.96,0,0
14165.2,187.895,-8326.36,0,0
14425.525,183.262,-8178.9,0,0
14685.8,182.114,-8033.28,0,0
14946.175,179.211,-7894.48,0,0
15206.5,176.212,-7755.53,0,0
15466.825,178.232,-7618.56,0,0
15727.15,200.82,-7506.28,0,0
15987.5,177.828,-7402.72,0,0
16247.8,170.124,-7272.77,0,0
16508.125,164.963,-7161.56,0,0
16768.45,165.131,-7040.94,0,0
17028.775,160.792,-6943.01,0,0
17289.1,162.444,-6829.33,0,0
17549.425,159.389,-6737.7,0,0
17809.75,159.337,-6633.31,0,0
18070.075,165.743,-6542.74,0,0
18330.4,153.532,-6454.55,0,0
18590.725,150.933,-6361.74,0,0
18851.05,147.456,-6272.02,0,0
19111.375,147.854,-6182.3,0,0
19371.7,148.155,-6100.11,0,0
19632.025,148.789,-6018,0,0
19892.35,148.561,-5935.45,0,0
20152.675,152.043,-5862.39,0,0
20413.0,158.804,-5781.18,0,0
20673.3,164.282,-5713.98,0,0
20933.65,167.427,-5664.23,0,0
21193.975,165.463,-5599.18,0,0
21454.3,147.846,-5538.08,0,0
21714.625,140.294,-5463.61,0,0
21974.9,145.152,-5397.66,0,0
22235.275,140.353,-5338.82,0,0
22495.6,139.166,-5276.36,0,0
22755.925,131.445,-5217.59,0,0
23016.25,129.432,-5158,0,0
23276.6,129.429,-5095.63,0,0
23536.9,132.149,-5049.92,0,0
23797.225,123.577,-4991.87,0,0
24057.55,120.902,-4934.38,0,0
24317.875,120.783,-4879.28,0,0
24578.2,119.155,-4829.6,0,0
24838.525,119.995,-4775.72,0,0
25098.85,118.533,-4730.24,0,0
25359.175,116.893,-4680.85,0,0
25619.5,115.676,-4633.14,0,0
25879.8,112.909,-4586.51,0,0
26140.1,109.942,-4538.87,0,0
26400.5,109.184,-4492.26,0,0
26660.8,109.491,-4447.79,0,0
26921.1,109.389,-4403.16,0,0
27181.4,110.076,-4362.3,0,0
27441.8,108.314,-4319.05,0,0
27702.1,110.301,-4279.17,0,0
27962.4,107.167,-4240.19,0,0
28222.7,105.331,-4197.13,0,0
28483.1,111.076,-4154.48,0,0
28743.4,114.434,-4120.72,0,0
29003.7,115.615,-4089.11,0,0
29264,108.803,-4056.26,0,0
29524.4,110.976,-4018.15,0,0
29784.7,106.772,-3985.88,0,0
30045,104.661,-3951.74,0,0
30305.3,101.443,-3914.39,0,0
30565.7,104.087,-3880.55,0,0
30826,101.978,-3847.87,0,0
31086.3,103.952,-3815.15,0,0
31346.6,100.1,-3785.8,0,0
31607,98.7884,-3751.1,0,0
31867.3,99.1316,-3717.36,0,0
32127.6,102.948,-3684.29,0,0
32387.9,109.149,-3655.57,0,0
32648.3,114.234,-3638.04,0,0
32908.6,104.621,-3613.77,0,0
33168.9,102.808,-3584.81,0,0
33429.2,101.216,-3558.89,0,0
33689.6,96.0939,-3532.06,0,0
33949.9,92.4664,-3502.93,0,0
34210.2,92.1708,-3474.69,0,0
34470.5,91.336,-3448.45,0,0
34730.9,89.2403,-3422.18,0,0
34991.2,88.2059,-3395.77,0,0
35251.5,87.3545,-3369.47,0,0
35511.8,86.0477,-3344.72,0,0
35772.2,85.6143,-3319.48,0,0
36032.5,84.7597,-3294.75,0,0
36292.8,84.3347,-3270.23,0,0
36553.1,83.7136,-3246.31,0,0
36813.5,83.15,-3223.27,0,0
37073.8,82.5098,-3200.22,0,0
37334.1,81.8328,-3177.31,0,0
37594.4,81.5129,-3154.23,0,0
37854.8,80.9254,-3132.43,0,0
38115.1,80.2098,-3110.54,0,0
38375.4,79.7338,-3088.67,0,0
38635.7,79.3938,-3067.26,0,0
38896.1,78.9421,-3046.56,0,0
39156.4,78.575,-3025.48,0,0
39416.7,78.3152,-3005.37,0,0
39677,77.5251,-2985.24,0,0
39937.4,76.7918,-2965.16,0,0
40197.7,76.412,-2945.1,0,0
40458,76.4042,-2925.66,0,0
40718.3,76.2804,-2906.6,0,0
40978.7,75.6774,-2887.38,0,0
41239,75.4208,-2868.14,0,0
41499.3,75.3622,-2850.19,0,0
41759.6,75.511,-2831.73,0,0
42020,75.1995,-2813.95,0,0
42280.275,74.9919,-2796.16,0,0
42540.6,74.7087,-2778.89,0,0
42800.925,74.2315,-2761.73,0,0
43061.25,73.7376,-2744.79,0,0
43321.575,73.1535,-2727.47,0,0
43581.9,72.675,-2710.33,0,0
43842.225,73.0939,-2693.28,0,0
44102.55,73.1477,-2677.15,0,0
44362.875,72.9601,-2661.23,0,0
44623.2,72.6254,-2645.44,0,0
44883.525,72.4739,-2629.76,0,0
45143.85,71.8019,-2614.03,0,0
45404.175,71.5722,-2598.31,0,0
45664.5,71.3483,-2582.52,0,0
45924.825,72.0086,-2567.31,0,0
46185.15,71.453,-2553.36,0,0
46445.475,71.1687,-2538.22,0,0
46705.8,71.1666,-2523.36,0,0
46966.125,71.2308,-2508.93,0,0
47226.45,70.5704,-2494.93,0,0
47486.775,70.6448,-2480.17,0,0
47747.1,71.0625,-2465.73,0,0
48007.425,71.7801,-2452.79,0,0
48267.75,71.8417,-2440.27,0,0
48528.075,70.6973,-2426.88,0,0
48788.4,70.314,-2413.71,0,0
49048.725,69.734,-2400.54,0,0
49309.05,69.0962,-2387.22,0,0
49569.375,68.9116,-2373.77,0,0
49829.7,68.6871,-2361.05,0,0
50090.025,68.2361,-2348.35,0,0
50350.35,67.5766,-2335.44,0,0
50610.675,67.4779,-2322.48,0,0
50871.0,67.5553,-2309.98,0,0
51131.325,67.3416,-2297.62,0,0
51391.65,67.3416,-2285.19,0,0
51651.975,67.305,-2273.11,0,0
51912.3,67.3704,-2261.06,0,0
52172.625,67.1836,-2249.18,0,0
52432.95,67.0301,-2236.98,0,0
52693.275,67.1696,-2225.18,0,0
52953.6,67.5814,-2213.27,0,0
53213.925,68.432,-2201.79,0,0
53474.25,69.0619,-2191.13,0,0
53734.575,69.1692,-2180.36,0,0
53994.9,69.4273,-2169.38,0,0
54255.225,70.2774,-2158.81,0,0
54515.55,71.171,-2149.16,0,0
54775.875,70.6226,-2140.34,0,0
55036.2,69.6571,-2130.36,0,0
55296.525,69.2506,-2120.88,0,0
55556.85,67.9114,-2111.48,0,0
55817.175,66.2375,-2100.79,0,0
56077.5,65.3861,-2090.46,0,0
56337.825,64.4787,-2079.77,0,0
56598.15,63.563,-2069.4,0,0
56858.475,62.7109,-2058.72,0,0
57118.8,62.3892,-2047.83,0,0
57379.125,62.151,-2037.17,0,0
57639.45,62.1251,-2026.98,0,0
57899.775,62.065,-2016.66,0,0
58160.1,62.0986,-2006.71,0,0
58420.4,62.1692,-1996.67,0,0
58680.7,62.1642,-1986.82,0,0
58941.1,62.3168,-1977,0,0
59201.4,62.4074,-1967.33,0,0
59461.7,62.6816,-1957.69,0,0
59722,62.9992,-1948.22,0,0
59982.4,63.1458,-1938.89,0,0
60242.7,63.3132,-1929.56,0,0
60503,63.4944,-1920.2,0,0
60763.3,64.1573,-1910.92,0,0
61023.7,64.4316,-1901.93,0,0
61284,64.8508,-1892.77,0,0
61544.3,65.6223,-1883.71,0,0
61804.6,66.0292,-1875.43,0,0
62065,66.1914,-1866.47,0,0
62325.3,66.5993,-1857.82,0,0
62585.6,67.2136,-1848.86,0,0
62845.9,68.0891,-1839.98,0,0
63106.3,69.0086,-1831.58,0,0
63366.6,69.621,-1823,0,0
63626.9,70.7985,-1814.27,0,0
63887.2,72.2319,-1805.7,0,0
64147.6,74.1394,-1797.12,0,0
64407.9,76.084,-1789.48,0,0
64668.2,78.1011,-1781.65,0,0
64928.5,80.8825,-1773.94,0,0
65188.9,84.6034,-1767.67,0,0
65449.2,87.76,-1762.8,0,0
65709.5,89.6969,-1758.64,0,0
65969.8,92.7334,-1755.17,0,0
66230.2,92.6402,-1755.42,0,0
66490.5,88.2552,-1753.29,0,0
66750.8,82.7418,-1748.38,0,0
67011.1,78.4428,-1738.99,0,0
67271.5,77.466,-1730.93,0,0
67531.8,75.8575,-1723.22,0,0
67792.1,75.4467,-1714.56,0,0
68052.4,75.6469,-1706.56,0,0
68312.8,76.7518,-1699.49,0,0
68573.1,77.2331,-1693.62,0,0
68833.4,76.9157,-1687.14,0,0
69093.7,77.2559,-1680.77,0,0
69354.1,77.6454,-1675.01,0,0
69614.4,77.4627,-1669.66,0,0
69874.7,76.5053,-1664.32,0,0
70135,75.8097,-1658.54,0,0
70395.4,74.6326,-1652.79,0,0
70655.7,73.4472,-1646.56,0,0
70916,72.2921,-1640.26,0,0
71176.3,71.3083,-1633.59,0,0
71436.7,70.6589,-1627.12,0,0
71697,69.8491,-1620.34,0,0
71957.3,69.6403,-1613.53,0,0
72217.6,69.7159,-1607.16,0,0
72478,69.7817,-1601,0,0
72738.3,69.8399,-1595.18,0,0
72998.6,69.6283,-1589.6,0,0
73258.9,69.1679,-1584.05,0,0
73519.3,68.7291,-1578.26,0,0
73779.6,68.208,-1572.61,0,0
74039.9,67.718,-1567.06,0,0
74300.225,66.8834,-1561.5,0,0
74560.55,66.1826,-1555.86,0,0
74820.875,65.4408,-1550.09,0,0
75081.2,64.6543,-1544.22,0,0
75341.525,63.9508,-1538.47,0,0
75601.85,63.2399,-1532.68,0,0
75862.175,62.5092,-1526.84,0,0
76122.5,61.7544,-1521.01,0,0
76382.825,61.1562,-1515.06,0,0
76643.15,60.6409,-1509.21,0,0
76903.475,60.1228,-1503.33,0,0
77163.8,59.6543,-1497.55,0,0
77424.125,59.2715,-1491.84,0,0
77684.45,58.7637,-1486.18,0,0
77944.775,58.2743,-1480.43,0,0
78205.1,57.7941,-1474.71,0,0
78465.425,57.3746,-1469.04,0,0
78725.75,56.9774,-1463.41,0,0
78986.075,56.5838,-1457.73,0,0
79246.4,56.2048,-1452.05,0,0
79506.725,55.8882,-1446.43,0,0
79767.05,55.6045,-1440.85,0,0
80027.375,55.2934,-1435.33,0,0
80287.7,55.0683,-1429.74,0,0
80548.025,54.8046,-1424.23,0,0
80808.35,54.7159,-1418.77,0,0
81068.675,54.4179,-1413.37,0,0
81329.0,54.2899,-1407.94,0,0
81589.325,54.0163,-1402.61,0,0
81849.65,53.9572,-1397.19,0,0
82109.975,53.7505,-1391.87,0,0
82370.3,53.6661,-1386.68,0,0
82630.625,53.545,-1381.37,0,0
82890.95,53.4943,-1376.17,0,0
83151.275,53.4001,-1370.96,0,0
83411.6,53.3491,-1365.79,0,0
83671.925,53.3291,-1360.67,0,0
83932.25,53.279,-1355.57,0,0
84192.575,53.2388,-1350.51,0,0
84452.9,53.173,-1345.44,0,0
84713.225,53.1953,-1340.5,0,0
84973.55,53.1428,-1335.45,0,0
85233.875,53.1115,-1330.43,0,0
85494.2,53.1618,-1325.51,0,0
85754.525,53.1859,-1320.57,0,0
86014.85,53.2612,-1315.68,0,0
86275.175,53.2157,-1310.86,0,0
86535.5,53.2718,-1305.93,0,0
86795.825,53.2945,-1301.2,0,0
87056.15,53.32,-1296.34,0,0
87316.475,53.4105,-1291.57,0,0
87576.8,53.4947,-1286.72,0,0
87837.125,53.6265,-1281.86,0,0
88097.45,53.7402,-1277.13,0,0
88357.775,53.9583,-1272.54,0,0
88618.1,54.1037,-1267.68,0,0
88878.425,54.2614,-1262.9,0,0
89138.75,54.6509,-1258.14,0,0
89399.075,55.0773,-1253.56,0,0
89659.4,55.5658,-1248.8,0,0
89919.725,56.0583,-1244.29,0,0
90180,56.6399,-1239.91,0,0
90440.4,56.9909,-1235.64,0,0
90700.7,57.4424,-1231.34,0,0
90961,57.7856,-1227.05,0,0
91221.3,58.3939,-1222.67,0,0
91481.7,58.9812,-1218.46,0,0
91742,59.5561,-1214.33,0,0
92002.3,60.1217,-1210.23,0,0
92262.6,60.852,-1206.22,0,0
92523,61.6495,-1202.35,0,0
92783.3,62.2906,-1198.78,0,0
93043.6,62.9833,-1195.17,0,0
93303.9,63.6809,-1191.57,0,0
93564.3,64.4826,-1188.33,0,0
93824.6,65.0778,-1185.23,0,0
94084.9,65.6212,-1182.54,0,0
94345.2,65.592,-1179.73,0,0
94605.6,65.6087,-1177.15,0,0
94865.9,65.0507,-1174.83,0,0
95126.2,63.8405,-1172.3,0,0
95386.5,62.0383,-1168.91,0,0
95646.9,60.6614,-1164.62,0,0
95907.2,59.906,-1160.15,0,0
96167.5,59.3205,-1155.87,0,0
96427.8,58.9495,-1151.42,0,0
96688.2,58.9458,-1147.15,0,0
96948.5,59.041,-1143.08,0,0
97208.8,59.0292,-1139.12,0,0
97469.1,59.0967,-1135.16,0,0
97729.5,59.159,-1131.41,0,0
97989.8,59.2029,-1127.67,0,0
98250.1,59.2159,-1123.92,0,0
98510.4,59.1994,-1120.27,0,0
98770.8,59.1045,-1116.63,0,0
99031.1,59.0206,-1112.98,0,0
99291.4,58.9436,-1109.42,0,0
99551.7,58.6141,-1105.78,0,0
99812.1,58.38,-1102.11,0,0
100072,58.2046,-1098.27,0,0
100333,58.0019,-1094.51,0,0
100593,57.6875,-1090.63,0,0
100853,57.4832,-1086.72,0,0
101114,57.3452,-1082.7,0,0
101374,57.2268,-1078.59,0,0
101634,57.3633,-1074.43,0,0
101895,57.6076,-1070.33,0,0
102155,57.9326,-1066.27,0,0
102415,58.3387,-1062.11,0,0
102676,59.1328,-1057.97,0,0
102936,60.1408,-1054.25,0,0
103196,61.0361,-1050.89,0,0
103457,61.6751,-1047.56,0,0
103717,62.4248,-1044.25,0,0
103977,63.0531,-1040.89,0,0
104238,64.0394,-1037.54,0,0
104498,65.3077,-1034.72,0,0
104758,66.177,-1032.68,0,0
105019,66.4595,-1030.54,0,0
105279,66.3367,-1028.28,0,0
105539,66.0903,-1025.79,0,0
105800,65.9477,-1023.26,0,0
106060,65.5232,-1020.89,0,0
106320.175,64.7255,-1018.27,0,0
106580.5,64.0271,-1015.24,0,0
106840.825,63.3733,-1012.25,0,0
107101.15,62.6748,-1009.08,0,0
107361.475,61.9542,-1005.84,0,0
107621.8,61.2551,-1002.33,0,0
107882.125,60.6766,-998.844,0,0
108142.45,60.1946,-995.212,0,0
108402.775,59.908,-991.553,0,0
108663.1,59.4814,-988.004,0,0
108923.425,59.0911,-984.219,0,0
109183.75,58.8512,-980.424,0,0
109444.075,58.7592,-976.519,0,0
109704.4,58.8207,-972.709,0,0
109964.725,59.0019,-969.018,0,0
110225.05,59.0729,-965.174,0,0
110485.375,59.2356,-961.371,0,0
110745.7,59.6237,-957.46,0,0
111006.025,60.1557,-953.724,0,0
111266.35,60.9203,-950.253,0,0
111526.675,61.4394,-947.084,0,0
111787.0,61.9096,-943.772,0,0
112047.325,62.3431,-940.55,0,0
112307.65,62.7436,-937.311,0,0
112567.975,63.1654,-934.086,0,0
112828.3,63.5587,-930.985,0,0
113088.625,63.8094,-927.791,0,0
113348.95,64.1294,-924.539,0,0
113609.275,64.4381,-921.261,0,0
113869.6,64.7307,-918.018,0,0
114129.925,65.1188,-914.655,0,0
114390.25,65.5365,-911.387,0,0
114650.575,65.9005,-908.078,0,0
114910.9,66.432,-904.688,0,0
115171.225,66.9839,-901.364,0,0
115431.55,67.5826,-898.079,0,0
115691.875,68.148,-894.796,0,0
115952.2,68.9022,-891.456,0,0
116212.525,69.6186,-888.277,0,0
116472.85,70.3339,-884.962,0,0
116733.175,71.3118,-881.613,0,0
116993.5,72.3374,-878.515,0,0
117253.825,73.2287,-875.496,0,0
117514.15,74.1497,-872.249,0,0
117774.475,75.4749,-869.029,0,0
118034.8,76.9526,-866.089,0,0
118295.125,78.5504,-863.249,0,0
118555.45,80.2658,-860.869,0,0
118815.775,81.6433,-858.9,0,0
119076.1,82.7263,-856.773,0,0
119336.425,83.9412,-854.499,0,0
119596.75,85.4811,-852.341,0,0
119857.075,87.3161,-850.79,0,0
120117.4,88.5742,-849.976,0,0
120377.725,88.8718,-849.433,0,0
120638.05,88.6152,-848.221,0,0
120898.375,88.4648,-846.567,0,0
121158.7,88.435,-845.006,0,0
121419.025,87.9816,-843.52,0,0
121679.35,87.2584,-841.503,0,0
121939.675,86.6968,-839.042,0,0
122200.0,86.446,-836.438,0,0
122460,86.4048,-833.852,0,0
122721,86.4787,-831.235,0,0
122981,86.6618,-828.685,0,0
123241,86.9895,-826.186,0,0
123502,87.4261,-823.9,0,0
123762,87.6343,-821.739,0,0
124022,87.8117,-819.477,0,0
124283,88.0249,-817.196,0,0
124543,88.3289,-814.952,0,0
124803,88.6086,-812.79,0,0
125064,88.8771,-810.736,0,0
125324,89.0714,-808.708,0,0
125584,89.2293,-806.749,0,0
125845,89.2607,-804.804,0,0
126105,89.2609,-802.824,0,0
126365,89.197,-800.906,0,0
126626,89.0258,-798.96,0,0
126886,88.7663,-796.92,0,0
127146,88.5181,-794.862,0,0
127406,88.178,-792.77,0,0
127667,87.751,-790.68,0,0
127927,87.2781,-788.436,0,0
128187,86.8587,-786.094,0,0
128448,86.4134,-783.675,0,0
128708,85.8917,-781.233,0,0
128968,85.429,-778.45,0,0
129229,85.254,-775.745,0,0
129489,85.0483,-773.081,0,0
129749,84.8716,-770.388,0,0
130010,84.687,-767.655,0,0
130270,84.6708,-764.785,0,0
130530,84.9116,-761.998,0,0
130791,85.2431,-759.319,0,0
131051,85.6645,-756.966,0,0
131311,85.8,-754.83,0,0
131572,85.7498,-752.56,0,0
131832,85.7264,-750.288,0,0
132092,85.615,-748.033,0,0
132353,85.3795,-745.741,0,0
132613,85.1094,-743.169,0,0
132873,85.071,-740.579,0,0
133134,85.0414,-738.181,0,0
133394,84.9217,-735.802,0,0
133654,84.692,-733.398,0,0
133915,84.4775,-730.935,0,0
134175,84.1233,-728.376,0,0
134435,83.9559,-725.764,0,0
134696,83.7933,-723.163,0,0
134956,83.5057,-720.602,0,0
135216,83.2753,-717.934,0,0
135477,83.0703,-715.096,0,0
135737,82.982,-712.425,0,0
135997,82.7023,-709.75,0,0
136258,82.4165,-706.907,0,0
136518,82.2354,-703.971,0,0
136778,82.0884,-700.932,0,0
137039,82.1003,-697.855,0,0
137299,82.2954,-694.762,0,0
137559,82.6241,-691.856,0,0
137819,82.8669,-689.101,0,0
138080,83.0333,-686.341,0,0
138340.125,83.2626,-683.49,0,0
138600.45,83.6627,-680.762,0,0
138860.775,84.0036,-678.347,0,0
139121.1,83.9442,-675.976,0,0
139381.425,83.8328,-673.348,0,0
139641.75,83.7458,-670.694,0,0
139902.075,83.5207,-668.018,0,0
140162.4,83.3041,-665.142,0,0
140422.725,83.2001,-662.14,0,0
140683.05,83.212,-659.143,0,0
140943.375,83.277,-656.179,0,0
141203.7,83.3185,-653.296,0,0
141464.025,83.2715,-650.386,0,0
141724.35,83.1564,-647.505,0,0
141984.675,82.9622,-644.463,0,0
142245.0,82.8506,-641.213,0,0
142505.325,82.8927,-637.964,0,0
142765.65,82.8837,-634.81,0,0
143025.975,82.8271,-631.519,0,0
143286.3,82.8552,-628.116,0,0
143546.625,82.9665,-624.737,0,0
143806.95,83.0744,-621.317,0,0
144067.275,83.2338,-617.775,0,0
144327.6,83.5352,-614.233,0,0
144587.925,83.8582,-610.713,0,0
144848.25,84.1689,-607.179,0,0
145108.575,84.4806,-603.615,0,0
145368.9,84.9108,-599.971,0,0
145629.225,85.3334,-596.339,0,0
145889.55,85.7733,-592.66,0,0
146149.875,86.2528,-588.899,0,0
146410.2,86.794,-585.08,0,0
146670.525,87.4082,-581.178,0,0
146930.85,88.1335,-577.251,0,0
147191.175,88.9466,-573.289,0,0
147451.5,89.8244,-569.309,0,0
147711.825,90.8109,-565.283,0,0
147972.15,91.8976,-561.264,0,0
148232.475,93.0805,-557.251,0,0
148492.8,94.3125,-553.26,0,0
148753.125,95.6005,-549.209,0,0
149013.45,96.9855,-545.112,0,0
149273.775,98.4988,-540.959,0,0
149534.1,100.161,-536.797,0,0
149794.425,101.99,-532.641,0,0
150054.75,103.998,-528.543,0,0
150315.075,106.136,-524.47,0,0
150575.4,108.505,-520.475,0,0
150835.725,111.055,-516.679,0,0
151096.05,113.64,-513.094,0,0
151356.375,116.272,-509.632,0,0
151616.7,118.977,-506.338,0,0
151877.025,121.64,-503.262,0,0
152137.35,124.185,-500.281,0,0
152397.675,126.732,-497.296,0,0
152658.0,129.329,-494.381,0,0
152918.325,131.976,-491.614,0,0
153178.65,134.604,-489.05,0,0
153438.975,137.022,-486.707,0,0
153699.3,139.173,-484.326,0,0
153959.625,141.182,-481.838,0,0
154219.95,143.241,-479.158,0,0
154480,145.513,-476.682,0,0
154741,147.34,-474.52,0,0
155001,148.628,-472.097,0,0
155261,149.753,-468.921,0,0
155522,151.378,-465.086,0,0
155782,153.751,-461.387,0,0
156042,156.344,-458.189,0,0
156303,158.556,-455.24,0,0
156563,160.758,-451.891,0,0
156823,163.163,-448.369,0,0
157084,165.923,-444.823,0,0
157344,168.959,-441.561,0,0
157604,172.156,-438.446,0,0
157864,175.353,-435.786,0,0
158125,178.438,-433.267,0,0
158385,181.232,-431.26,0,0
158645,183.484,-429.189,0,0
158906,185.06,-427.046,0,0
159166,186.215,-423.822,0,0
159426,188.186,-420.089,0,0
159687,189.963,-416.706,0,0
159947,191.179,-412.536,0,0
160207,193.091,-407.283,0,0
160468,195.746,-401.973,0,0
160728,198.636,-396.246,0,0
160988,202.421,-389.885,0,0
161249,207.741,-383.863,0,0
161509,213.355,-378.983,0,0
161769,218.656,-374.398,0,0
162030,224.094,-368.932,0,0
162290,231.009,-363.421,0,0
162550,238.706,-358.939,0,0
162811,246.732,-355.336,0,0
163071,254.419,-352.256,0,0
163331,262.197,-349.278,0,0
163592,270.291,-346.5,0,0
163852,278.859,-343.896,0,0
164112,287.96,-342.108,0,0
164373,296.712,-340.966,0,0
164633,305.348,-339.444,0,0
164893,315.362,-337.658,0,0
165154,326.88,-337.206,0,0
165414,338.918,-339.041,0,0
165674,349.877,-343.097,0,0
165935,359.262,-347.7,0,0
166195,367.954,-352.146,0,0
166455,376.879,-357.244,0,0
166716,384.867,-363.543,0,0
166976,391.869,-369.78,0,0
167236,398.526,-376.593,0,0
167497,404.005,-383.604,0,0
167757,408.78,-390.346,0,0
168017,413.218,-396.805,0,0
168277,418.127,-403.678,0,0
168538,422.102,-411.836,0,0
168798,424.082,-420.265,0,0
169058,424.68,-427.123,0,0
169319,426.013,-432.414,0,0
169579,429.017,-438.612,0,0
169839,431.17,-447.421,0,0
170100,429.844,-456.849,0,0
170360.075,426.057,-463.953,0,0
170620.4,422.435,-468.348,0,0
170880.725,419.701,-471.997,0,0
171141.05,417.055,-475.246,0,0
171401.375,414.134,-477.884,0,0
171661.7,411.349,-479.049,0,0
171922.025,410.177,-479.642,0,0
172182.35,409.484,-480.881,0,0
172442.675,408.715,-481.921,0,0
172703.0,408.398,-482.72,0,0
172963.325,408.54,-483.34,0,0
173223.65,409.474,-484.155,0,0
173483.975,410.566,-485.652,0,0
173744.3,411.293,-487.142,0,0
174004.625,412.56,-488.079,0,0
174264.95,415.229,-489.516,0,0
174525.275,418.335,-492.966,0,0
174785.6,420.154,-497.614,0,0
175045.925,421.119,-502.478,0,0
175306.25,421.244,-507.579,0,0
175566.575,420.758,-512.537,0,0
175826.9,419.736,-517.9,0,0
176087.225,417.434,-523.413,0,0
176347.55,413.657,-528.036,0,0
176607.875,409.673,-530.842,0,0
176868.2,406.736,-533.161,0,0
177128.525,404.062,-536.011,0,0
177388.85,400.687,-539.16,0,0
177649.175,396.467,-541.767,0,0
177909.5,392.186,-544.058,0,0
178169.825,386.955,-546.217,0,0
178430.15,380.609,-546.809,0,0
178690.475,374.664,-545.49,0,0
178950.8,369.809,-542.834,0,0
179211.125,366.502,-539.655,0,0
179471.45,364.203,-537.179,0,0
179731.775,361.681,-535.042,0,0
179992.1,359.223,-532.197,0,0
180252.425,357.749,-528.626,0,0
180512.75,357.573,-525.032,0,0
180773.075,358.647,-522.45,0,0
181033.4,359.85,-521.084,0,0
181293.725,360.708,-520.351,0,0
181554.05,361.337,-519.854,0,0
181814.375,362.339,-519.588,0,0
182074.7,363.583,-520.426,0,0
182335.025,363.772,-522.696,0,0
182595.35,362.196,-525.165,0,0
182855.675,359.457,-526.661,0,0
183116.0,356.508,-527.14,0,0
183376.325,353.654,-527.124,0,0
183636.65,350.548,-526.793,0,0
183896.975,347.443,-525.839,0,0
184157.3,344.486,-524.587,0,0
184417.625,341.43,-523.092,0,0
184677.95,338.411,-520.96,0,0
184938.275,335.48,-518.557,0,0
185198.6,332.65,-515.606,0,0
185458.925,330.294,-512.168,0,0
185719.25,328.363,-508.639,0,0
185979.575,326.703,-504.983,0,0
186239.9,325.213,-501.18,0,0
186500,323.884,-497.1,0,0
186761,322.94,-492.599,0,0
187021,322.641,-487.766,0,0
187281,323.285,-482.998,0,0
187542,324.491,-478.932,0,0
187802,325.648,-475.342,0,0
188062,326.688,-471.809,0,0
188322,327.95,-468.14,0,0
188583,329.752,-464.63,0,0
188843,331.819,-461.894,0,0
189103,333.348,-459.748,0,0
189364,334.246,-457.443,0,0
189624,334.942,-454.608,0,0
189884,335.923,-451.283,0,0
190145,337.431,-447.795,0,0
190405,339.269,-444.44,0,0
190665,341.44,-441.375,0,0
190926,343.746,-438.561,0,0
191186,345.932,-436.15,0,0
191446,347.882,-433.812,0,0
191707,349.523,-431.254,0,0
191967,351.334,-428.296,0,0
192227,353.526,-425.405,0,0
192488,355.674,-422.707,0,0
192748,357.641,-419.88,0,0
193008,359.617,-416.571,0,0
193269,362.044,-412.863,0,0
193529,365.053,-409.141,0,0
193789,368.394,-405.645,0,0
194050,371.69,-402.021,0,0
194310,375.654,-397.907,0,0
194570,380.64,-393.766,0,0
194831,386.581,-390.2,0,0
195091,393.349,-387.467,0,0
195351,400.48,-385.871,0,0
195612,407.644,-385.51,0,0
195872,414.313,-386.034,0,0
196132,420.624,-387.253,0,0
196393,426.174,-389.153,0,0
196653,431.036,-391.076,0,0
196913,435.699,-393.159,0,0
197174,440.505,-395.65,0,0
197434,443.74,-398.947,0,0
197694,446.006,-401.559,0,0
197955,447.976,-403.587,0,0
198215,449.892,-405.393,0,0
198475,451.597,-406.866,0,0
198735,453.047,-408.689,0,0
198996,453.417,-410.017,0,0
199256,453.665,-409.719,0,0
199516,454.98,-408.607,0,0
199777,457.335,-407.61,0,0
200037,460.246,-407.286,0,0
200297,462.956,-407.778,0,0
200558,464.67,-408.551,0,0
200818,465.719,-408.38,0,0
201078,467.267,-407.246,0,0
201339,469.532,-406.142,0,0
201599,471.892,-405.205,0,0
201859,474.129,-404.169,0,0
202120,476.369,-402.698,0,0
202380.025,478.996,-400.587,0,0
202640.35,482.68,-398.209,0,0
202900.675,487.149,-396.295,0,0
203161.0,491.825,-394.796,0,0
203421.325,496.777,-393.311,0,0
203681.65,502.368,-392.024,0,0
203941.975,508.588,-391.392,0,0
204202.3,514.996,-391.47,0,0
204462.625,521.294,-392.158,0,0
204722.95,527.581,-393.448,0,0
204983.275,533.93,-394.931,0,0
205243.6,540.467,-397.218,0,0
205503.925,546.621,-400.588,0,0
205764.25,551.761,-404.506,0,0
206024.575,555.937,-408.669,0,0
206284.9,559.136,-412.544,0,0
206545.225,561.7,-415.77,0,0
206805.55,563.95,-418.201,0,0
207065.875,566.569,-419.783,0,0
207326.2,569.645,-421.118,0,0
207586.525,572.925,-422.423,0,0
207846.85,576.346,-423.48,0,0
208107.175,580.024,-424.144,0,0
208367.5,584.445,-424.482,0,0
208627.825,589.725,-425.038,0,0
208888.15,595.521,-426.065,0,0
209148.475,601.614,-427.657,0,0
209408.8,607.981,-429.45,0,0
209669.125,614.767,-431.809,0,0
209929.45,621.912,-434.946,0,0
210189.775,628.928,-439.002,0,0
210450.1,635.609,-443.548,0,0
210710.425,642.198,-448.657,0,0
210970.75,648.393,-453.98,0,0
211231.075,654.352,-459.743,0,0
211491.4,660.021,-465.88,0,0
211751.725,665.433,-472.264,0,0
212012.05,670.442,-478.926,0,0
212272.375,675.058,-485.705,0,0
212532.7,679.423,-492.334,0,0
212793.025,684.007,-498.967,0,0
213053.35,688.576,-505.834,0,0
213313.675,693.199,-513.196,0,0
213574.0,697.618,-521.154,0,0
213834.325,701.554,-529.451,0,0
214094.65,705.259,-537.981,0,0
214354.975,708.555,-546.882,0,0
214615.3,711.384,-556.167,0,0
214875.625,713.499,-565.406,0,0
215135.95,715.465,-574.55,0,0
215396.275,716.972,-584.126,0,0
215656.6,717.95,-593.641,0,0
215916.925,718.448,-602.839,0,0
216177.25,719.001,-612.03,0,0
216437.575,719.53,-621.303,0,0
216697.9,719.893,-630.918,0,0
216958.225,719.845,-641.206,0,0
217218.55,718.675,-651.833,0,0
217478.875,716.437,-662.046,0,0
217739.2,713.814,-671.438,0,0
217999.525,711.312,-680.774,0,0
218259.85,708.413,-690.17,0,0
218520,705.049,-699.424,0,0
218780,701.226,-708.49,0,0
219041,696.775,-717.24,0,0
219301,691.604,-725.406,0,0
219561,686.47,-732.48,0,0
219822,681.798,-738.878,0,0
220082,677.655,-745.123,0,0
220342,674.071,-751.446,0,0
220603,671.016,-758.438,0,0
220863,667.788,-766.524,0,0
221123,663.543,-775.283,0,0
221384,658.227,-784.181,0,0
221644,651.731,-792.604,0,0
221904,644.836,-800.495,0,0
222165,637.387,-808.176,0,0
222425,628.853,-815.211,0,0
222685,619.891,-821.2,0,0
222946,610.995,-826.076,0,0
223206,601.968,-830.836,0,0
223466,592.75,-834.73,0,0
223727,583.245,-837.649,0,0
223987,574.2,-839.486,0,0
224247,565.547,-840.651,0,0
224508,557.782,-841.241,0,0
224768,550.118,-841.413,0,0
225028,543.351,-841.293,0,0
225289,537.131,-840.744,0,0
225549,531.457,-839.96,0,0
225809,526.682,-839.404,0,0
226070,522.611,-839.131,0,0
226330,519.328,-839.172,0,0
226590,516.222,-840.086,0,0
226851,513.119,-841.801,0,0
227111,509.57,-844.191,0,0
227371,505.531,-846.759,0,0
227632,500.914,-849.274,0,0
227892,495.932,-851.654,0,0
228152,490.812,-853.747,0,0
228413,485.843,-855.741,0,0
228673,480.73,-857.843,0,0
228933,475.447,-860.003,0,0
229193,469.693,-862.043,0,0
229454,463.712,-863.72,0,0
229714,457.679,-865.413,0,0
229974,451.324,-866.551,0,0
230235,444.991,-867.349,0,0
230495,438.783,-867.746,0,0
230755,432.66,-868.164,0,0
231016,426.57,-868.223,0,0
231276,420.552,-867.984,0,0
231536,414.644,-867.599,0,0
231797,408.902,-866.89,0,0
232057,403.359,-866.19,0,0
232317,397.982,-865.325,0,0
232578,392.764,-864.39,0,0
232838,387.743,-863.446,0,0
233098,382.844,-862.57,0,0
233359,377.856,-861.711,0,0
233619,372.987,-860.608,0,0
233879,368.285,-859.55,0,0
234140,363.679,-858.434,0,0
234400,359.104,-857.575,0,0
234660.3,354.44,-856.614,0,0
234920.625,349.513,-855.733,0,0
235180.95,344.925,-854.53,0,0
235441.275,340.396,-853.469,0,0
235701.6,335.798,-852.355,0,0
235961.925,330.923,-851.172,0,0
236222.25,326.052,-849.91,0,0
236482.575,320.993,-848.452,0,0
236742.9,316.017,-846.821,0,0
237003.225,311.089,-844.904,0,0
237263.55,306.301,-842.825,0,0
237523.875,301.618,-840.686,0,0
237784.2,296.997,-838.511,0,0
238044.525,292.274,-836.153,0,0
238304.85,287.588,-833.61,0,0
238565.175,282.997,-830.91,0,0
238825.5,278.55,-827.952,0,0
239085.825,274.104,-824.795,0,0
239346.15,269.976,-821.42,0,0
239606.475,266.026,-817.798,0,0
239866.8,262.291,-814.097,0,0
240127.125,258.904,-810.467,0,0
240387.45,255.632,-806.651,0,0
240647.775,252.719,-802.914,0,0
240908.1,249.893,-799.215,0,0
241168.425,247.329,-795.35,0,0
241428.75,244.881,-791.65,0,0
241689.075,242.513,-788.021,0,0
241949.4,240.395,-784.522,0,0
242209.725,238.297,-780.766,0,0
242470.05,236.421,-776.858,0,0
242730.375,234.984,-773.115,0,0
242990.7,233.707,-769.696,0,0
243251.025,232.562,-766.353,0,0
243511.35,231.322,-763.079,0,0
243771.675,230.323,-759.827,0,0
244032.0,229.448,-756.671,0,0
244292.325,228.849,-753.843,0,0
244552.65,228.166,-751.262,0,0
244812.975,227.536,-748.758,0,0
245073.3,226.417,-746.567,0,0
245333.625,225.465,-744.207,0,0
245593.95,224.411,-741.831,0,0
245854.275,223.332,-739.468,0,0
246114.6,222.374,-737.038,0,0
246374.925,221.385,-734.586,0,0
246635.25,220.553,-732.24,0,0
246895.575,219.836,-729.852,0,0
247155.9,218.983,-727.403,0,0
247416.225,218.153,-725.073,0,0
247676.55,217.266,-722.747,0,0
247936.875,216.499,-720.348,0,0
248197.2,215.871,-717.916,0,0
248457.525,215.255,-715.385,0,0
248717.85,214.837,-712.854,0,0
248978.175,214.736,-710.445,0,0
249238.5,214.709,-708.256,0,0
249498.825,214.689,-706.29,0,0
249759.15,214.677,-704.536,0,0
250019.475,214.572,-702.748,0,0
250279.8,214.534,-701.183,0,0
250540,214.463,-699.786,0,0
250800,214.291,-698.541,0,0
251061,213.865,-697.485,0,0
251321,213.321,-696.484,0,0
251581,212.46,-695.493,0,0
251842,211.42,-694.421,0,0
252102,210.172,-693.263,0,0
252362,208.788,-691.851,0,0
252623,207.217,-690.351,0,0
252883,205.65,-688.502,0,0
253143,204.055,-686.46,0,0
253404,202.494,-684.195,0,0
253664,200.997,-681.609,0,0
253924,199.692,-678.766,0,0
254185,198.639,-675.715,0,0
254445,197.813,-672.528,0,0
254705,197.244,-669.367,0,0
254966,197.004,-666.223,0,0
255226,196.741,-663.02,0,0
255486,196.792,-659.683,0,0
255747,196.903,-656.376,0,0
256007,197.297,-652.883,0,0
256267,198.109,-649.323,0,0
256528,199.372,-645.907,0,0
256788,200.995,-642.81,0,0
257048,202.813,-639.975,0,0
257309,204.833,-637.366,0,0
257569,207,-635.059,0,0
257829,209.317,-633.131,0,0
258090,211.582,-631.565,0,0
258350,213.693,-630.295,0,0
258610,215.662,-629.158,0,0
258871,217.434,-628.004,0,0
259131,219.197,-626.774,0,0
259391,221.071,-625.451,0,0
259651,223.201,-624.121,0,0
259912,225.557,-622.73,0,0
260172,228.521,-621.822,0,0
260432,231.566,-621.345,0,0
260693,234.57,-621.406,0,0
260953,237.511,-621.942,0,0
261213,240.383,-622.661,0,0
261474,243.222,-623.842,0,0
261734,245.881,-625.491,0,0
261994,248.207,-627.573,0,0
262255,250.194,-629.959,0,0
262515,251.771,-632.618,0,0
262775,252.901,-635.492,0,0
263036,253.555,-638.47,0,0
263296,253.763,-641.464,0,0
263556,253.565,-644.414,0,0
263817,253.017,-647.265,0,0
264077,252.128,-650.093,0,0
264337,250.833,-652.78,0,0
264598,249.252,-655.413,0,0
264858,247.338,-657.66,0,0
265118,245.192,-659.794,0,0
265379,242.636,-661.83,0,0
265639,239.891,-663.512,0,0
265899,236.786,-664.777,0,0
266160,233.54,-665.622,0,0
266420,230.321,-665.976,0,0
266680.25,227.09,-666.004,0,0
266940.575,224.002,-665.69,0,0
267200.9,220.98,-665.096,0,0
267461.225,218.051,-664.197,0,0
267721.55,215.285,-663.018,0,0
267981.875,212.737,-661.602,0,0
268242.2,210.387,-660.002,0,0
268502.525,208.226,-658.271,0,0
268762.85,206.333,-656.401,0,0
269023.175,204.668,-654.552,0,0
269283.5,203.123,-652.648,0,0
269543.825,201.805,-650.681,0,0
269804.15,200.716,-648.683,0,0
270064.475,199.739,-646.721,0,0
270324.8,198.855,-644.824,0,0
270585.125,198.065,-642.923,0,0
270845.45,197.433,-641.058,0,0
271105.775,196.931,-639.176,0,0
271366.1,196.625,-637.281,0,0
271626.425,196.442,-635.561,0,0
271886.75,196.279,-633.897,0,0
272147.075,196.198,-632.341,0,0
272407.4,196.178,-630.792,0,0
272667.725,196.154,-629.307,0,0
272928.05,196.264,-627.898,0,0
273188.375,196.404,-626.649,0,0
273448.7,196.464,-625.439,0,0
273709.025,196.443,-624.252,0,0
273969.35,196.411,-623.001,0,0
274229.675,196.374,-621.66,0,0
274490.0,196.397,-620.173,0,0
274750.325,196.658,-618.609,0,0
275010.65,197.058,-617.098,0,0
275270.975,197.619,-615.656,0,0
275531.3,198.365,-614.196,0,0
275791.625,199.265,-612.898,0,0
276051.95,200.221,-611.595,0,0
276312.275,201.427,-610.387,0,0
276572.6,202.827,-609.358,0,0
276832.925,204.378,-608.581,0,0
277093.25,206.091,-607.993,0,0
277353.575,207.92,-607.804,0,0
277613.9,209.74,-607.975,0,0
277874.225,211.436,-608.554,0,0
278134.55,212.94,-609.38,0,0
278394.875,214.237,-610.461,0,0
278655.2,215.295,-611.707,0,0
278915.525,216.169,-613.098,0,0
279175.85,216.868,-614.672,0,0
279436.175,217.29,-616.399,0,0
279696.5,217.354,-618.246,0,0
279956.825,217.116,-620.159,0,0
280217.15,216.468,-621.927,0,0
280477.475,215.454,-623.666,0,0
280737.8,214.129,-625.131,0,0
280998.125,212.656,-626.255,0,0
281258.45,211.162,-627.063,0,0
281518.775,209.727,-627.701,0,0
281779.1,208.406,-628.222,0,0
282039.425,207.023,-628.701,0,0
282299.75,205.699,-629.146,0,0
282560,204.304,-629.575,0,0
282820,202.854,-629.989,0,0
283081,201.275,-630.344,0,0
283341,199.56,-630.568,0,0
283601,197.792,-630.589,0,0
283862,196.023,-630.438,0,0
284122,194.324,-630.115,0,0
284382,192.665,-629.671,0,0
284643,191.101,-629.14,0,0
284903,189.636,-628.551,0,0
285163,188.125,-627.937,0,0
285424,186.633,-627.274,0,0
285684,185.122,-626.509,0,0
285944,183.63,-625.637,0,0
286205,182.204,-624.642,0,0
286465,180.854,-623.541,0,0
286725,179.499,-622.33,0,0
286986,178.299,-620.924,0,0
287246,177.28,-619.39,0,0
287506,176.457,-617.777,0,0
287767,175.878,-616.155,0,0
288027,175.534,-614.572,0,0
288287,175.387,-613.049,0,0
288548,175.456,-611.71,0,0
288808,175.62,-610.507,0,0
289068,175.909,-609.484,0,0
289329,176.249,-608.68,0,0
289589,176.58,-608.129,0,0
289849,176.798,-607.77,0,0
290109,176.893,-607.535,0,0
290370,176.794,-607.345,0,0
290630,176.578,-607.133,0,0
290890,176.348,-606.867,0,0
291151,176.035,-606.612,0,0
291411,175.67,-606.365,0,0
291671,175.253,-606.079,0,0
291932,174.802,-605.774,0,0
292192,174.268,-605.397,0,0
292452,173.746,-604.954,0,0
292713,173.207,-604.455,0,0
292973,172.688,-603.85,0,0
293233,172.223,-603.164,0,0
293494,171.811,-602.394,0,0
293754,171.541,-601.553,0,0
294014,171.449,-600.699,0,0
294275,171.544,-599.894,0,0
294535,171.737,-599.244,0,0
294795,172.007,-598.702,0,0
295056,172.338,-598.262,0,0
295316,172.716,-597.959,0,0
295576,173.135,-597.816,0,0
295837,173.571,-597.823,0,0
296097,173.962,-598.07,0,0
296357,174.206,-598.444,0,0
296618,174.31,-598.962,0,0
296878,174.28,-599.484,0,0
297138,174.159,-600.076,0,0
297399,173.94,-600.709,0,0
297659,173.597,-601.387,0,0
297919,173.103,-602.123,0,0
298180,172.483,-602.834,0,0
298440,171.696,-603.538,0,0
298700.2,170.767,-604.211,0,0
298960.525,169.705,-604.79,0,0
299220.85,168.537,-605.237,0,0
299481.175,167.332,-605.6,0,0
299741.5,166.094,-605.821,0,0
300001.825,164.848,-606.019,0,0
300262.15,163.556,-606.126,0,0
300522.475,162.295,-606.177,0,0
300782.8,160.98,-606.19,0,0
301043.125,159.65,-606.132,0,0
301303.45,158.284,-606.031,0,0
301563.775,156.906,-605.855,0,0
301824.1,155.516,-605.639,0,0
302084.425,154.105,-605.342,0,0
302344.75,152.662,-604.963,0,0
302605.075,151.231,-604.492,0,0
302865.4,149.847,-603.938,0,0
303125.725,148.478,-603.315,0,0
303386.05,147.158,-602.642,0,0
303646.375,145.885,-601.913,0,0
303906.7,144.628,-601.161,0,0
304167.025,143.402,-600.381,0,0
304427.35,142.19,-599.535,0,0
304687.675,141.029,-598.598,0,0
304948.0,139.9,-597.625,0,0
305208.325,138.872,-596.623,0,0
305468.65,137.9,-595.622,0,0
305728.975,136.978,-594.571,0,0
305989.3,136.121,-593.593,0,0
306249.625,135.272,-592.545,0,0
306509.95,134.459,-591.493,0,0
306770.275,133.712,-590.416,0,0
307030.6,133.022,-589.327,0,0
307290.925,132.419,-588.235,0,0
307551.25,131.877,-587.175,0,0
307811.575,131.427,-586.142,0,0
308071.9,131.049,-585.161,0,0
308332.225,130.705,-584.272,0,0
308592.55,130.416,-583.452,0,0
308852.875,130.087,-582.716,0,0
309113.2,129.753,-582.07,0,0
309373.525,129.35,-581.462,0,0
309633.85,128.946,-580.884,0,0
309894.175,128.442,-580.38,0,0
310154.5,127.909,-579.894,0,0
310414.825,127.313,-579.374,0,0
310675.15,126.64,-578.856,0,0
310935.475,125.923,-578.296,0,0
311195.8,125.182,-577.675,0,0
311456.125,124.398,-577.015,0,0
311716.45,123.631,-576.295,0,0
311976.775,122.89,-575.576,0,0
312237.1,122.123,-574.838,0,0
312497.425,121.332,-574.079,0,0
312757.75,120.505,-573.281,0,0
313018.075,119.658,-572.395,0,0
313278.4,118.804,-571.432,0,0
313538.725,117.969,-570.399,0,0
313799.05,117.18,-569.259,0,0
314059.375,116.456,-568.053,0,0
314319.7,115.824,-566.799,0,0
314580,115.254,-565.464,0,0
314840,114.812,-564.168,0,0
315101,114.376,-562.767,0,0
315361,114.17,-561.486,0,0
315621,113.982,-560.033,0,0
315882,113.936,-558.806,0,0
316142,114.057,-557.5,0,0
316402,114.125,-556.326,0,0
316663,114.338,-555.276,0,0
316923,114.677,-554.309,0,0
317183,114.854,-553.452,0,0
317444,115.146,-552.587,0,0
317704,115.467,-551.851,0,0
317964,115.71,-551.275,0,0
318225,115.937,-550.749,0,0
318485,116.079,-550.303,0,0
318745,116.051,-549.834,0,0
319006,116.139,-549.414,0,0
319266,116.092,-548.848,0,0
319526,116.1,-548.433,0,0
319787,116.067,-547.961,0,0
320047,115.952,-547.471,0,0
320307,115.901,-547.056,0,0
320567,115.832,-546.494,0,0
320828,115.852,-546.026,0,0
321088,115.772,-545.616,0,0
321348,115.841,-545.114,0,0
321609,115.838,-544.573,0,0
321869,116.018,-544.126,0,0
322129,116.102,-543.788,0,0
322390,116.26,-543.509,0,0
322650,116.343,-543.361,0,0
322910,116.496,-543.214,0,0
323171,116.605,-543.146,0,0
323431,116.514,-543.202,0,0
323691,116.481,-543.247,0,0
323952,116.3,-543.34,0,0
324212,116.195,-543.458,0,0
324472,115.877,-543.593,0,0
324733,115.484,-543.767,0,0
324993,115.057,-543.894,0,0
325253,114.579,-543.981,0,0
325514,114.084,-544.13,0,0
325774,113.407,-544.199,0,0
326034,112.56,-544.266,0,0
326295,111.919,-544.211,0,0
326555,111.062,-544.164,0,0
326815,110.248,-544.048,0,0
327076,109.409,-543.862,0,0
327336,108.546,-543.639,0,0
327596,107.689,-543.356,0,0
327857,106.805,-542.993,0,0
328117,105.9,-542.576,0,0
328377,105.084,-542.181,0,0
328638,104.321,-541.755,0,0
328898,103.453,-541.203,0,0
329158,102.721,-540.783,0,0
329419,101.914,-540.211,0,0
329679,101.214,-539.777,0,0
329939,100.407,-539.299,0,0
330200,99.7182,-538.747,0,0
330460,98.8863,-538.288,0,0
330720.15,97.948,-537.841,0,0
330980.475,97.1304,-537.294,0,0
331240.8,96.3259,-536.76,0,0
331501.125,95.4114,-536.177,0,0
331761.45,94.4971,-535.591,0,0
332021.775,93.6661,-534.865,0,0
332282.1,92.6843,-534.258,0,0
332542.425,91.8101,-533.49,0,0
332802.75,90.9005,-532.666,0,0
333063.075,89.9952,-531.885,0,0
333323.4,89.0501,-531.041,0,0
333583.725,88.2325,-530.114,0,0
333844.05,87.3713,-529.132,0,0
334104.375,86.4983,-528.207,0,0
334364.7,85.6763,-527.204,0,0
334625.025,84.7773,-526.172,0,0
334885.35,83.9762,-525.081,0,0
335145.675,83.3186,-523.962,0,0
335406.0,82.5854,-522.761,0,0
335666.325,81.9347,-521.556,0,0
335926.65,81.3509,-520.303,0,0
336186.975,80.7567,-519.03,0,0
336447.3,80.3115,-517.755,0,0
336707.625,79.8411,-516.518,0,0
336967.95,79.4073,-515.272,0,0
337228.275,79.0482,-513.999,0,0
337488.6,78.7231,-512.817,0,0
337748.925,78.4024,-511.592,0,0
338009.25,78.1016,-510.392,0,0
338269.575,77.8244,-509.18,0,0
338529.9,77.5085,-507.927,0,0
338790.225,77.2527,-506.639,0,0
339050.55,77.0534,-505.369,0,0
339310.875,76.8713,-504.04,0,0
339571.2,76.7857,-502.63,0,0
339831.525,76.765,-501.421,0,0
340091.85,76.7722,-500.023,0,0
340352.175,76.8723,-498.717,0,0
340612.5,77.147,-497.379,0,0
340872.825,77.3615,-496.136,0,0
341133.15,77.6583,-494.945,0,0
341393.475,78.1294,-493.821,0,0
341653.8,78.5231,-492.811,0,0
341914.125,79.0036,-491.806,0,0
342174.45,79.4391,-490.903,0,0
342434.775,79.9879,-490.067,0,0
342695.1,80.4645,-489.351,0,0
342955.425,80.996,-488.733,0,0
343215.75,81.4165,-488.152,0,0
343476.075,81.8376,-487.635,0,0
343736.4,82.1613,-487.2,0,0
343996.725,82.5459,-486.785,0,0
344257.05,82.7548,-486.407,0,0
344517.375,83.0424,-486.144,0,0
344777.7,83.2014,-485.847,0,0
345038.025,83.2446,-485.502,0,0
345298.35,83.2536,-485.202,0,0
345558.675,83.2379,-484.804,0,0
345819.0,83.1892,-484.453,0,0
346079.325,83.1205,-484.066,0,0
346339.65,83.0009,-483.675,0,0
346599.975,82.8123,-483.251,0,0
346860,82.7658,-482.735,0,0
347121,82.5812,-482.334,0,0
347381,82.3775,-481.806,0,0
347641,82.2283,-481.264,0,0
347902,82.0255,-480.627,0,0
348162,81.8531,-480.035,0,0
348422,81.6973,-479.417,0,0
348683,81.6247,-478.67,0,0
348943,81.5606,-478.008,0,0
349203,81.5672,-477.295,0,0
349464,81.5422,-476.583,0,0
349724,81.6218,-475.854,0,0
349984,81.7159,-475.218,0,0
350245,81.8562,-474.57,0,0
350505,82.0209,-473.95,0,0
350765,82.2203,-473.366,0,0
351025,82.4614,-472.792,0,0
351286,82.745,-472.32,0,0
351546,82.9432,-471.853,0,0
351806,83.2263,-471.52,0,0
352067,83.5281,-471.272,0,0
352327,83.6474,-471.019,0,0
352587,83.8461,-470.855,0,0
352848,83.8549,-470.684,0,0
353108,83.9663,-470.609,0,0
353368,83.8878,-470.561,0,0
353629,83.7544,-470.484,0,0
353889,83.4877,-470.415,0,0
354149,83.2049,-470.272,0,0
354410,82.8954,-470.12,0,0
354670,82.4831,-469.839,0,0
354930,82.0747,-469.542,0,0
355191,81.549,-469.215,0,0
355451,81.159,-468.799,0,0
355711,80.7247,-468.306,0,0
355972,80.3074,-467.796,0,0
356232,79.9159,-467.237,0,0
356492,79.5278,-466.654,0,0
356753,79.1913,-466.004,0,0
357013,78.9223,-465.347,0,0
357273,78.6908,-464.689,0,0
357534,78.4498,-464.088,0,0
357794,78.2393,-463.471,0,0
358054,77.9698,-462.831,0,0
358315,77.8219,-462.152,0,0
358575,77.5666,-461.537,0,0
358835,77.3851,-460.894,0,0
359096,77.1191,-460.203,0,0
359356,76.951,-459.511,0,0
359616,76.7789,-458.786,0,0
359877,76.6739,-457.984,0,0
360137,76.5858,-457.318,0,0
360397,76.5421,-456.623,0,0
360658,76.5034,-455.858,0,0
360918,76.5297,-455.216,0,0
361178,76.4522,-454.48,0,0
361438,76.4289,-453.82,0,0
361699,76.4654,-453.108,0,0
361959,76.5215,-452.447,0,0
362219,76.5994,-451.762,0,0
362480,76.691,-451.081,0,0
362740.1,76.7883,-450.461,0,0
363000.425,76.9322,-449.874,0,0
363260.75,77.1076,-449.248,0,0
363521.075,77.1931,-448.676,0,0
363781.4,77.3877,-448.091,0,0
364041.725,77.6039,-447.532,0,0
364302.05,77.7859,-446.975,0,0
364562.375,78.048,-446.513,0,0
364822.7,78.3318,-446.114,0,0
365083.025,78.5875,-445.747,0,0
365343.35,78.8451,-445.409,0,0
365603.675,79.1312,-445.186,0,0
365864.0,79.3715,-445.072,0,0
366124.325,79.5634,-444.977,0,0
366384.65,79.6481,-444.92,0,0
366644.975,79.5862,-445.049,0,0
366905.3,79.5256,-445.042,0,0
367165.625,79.284,-445.124,0,0
367425.95,78.9135,-445.14,0,0
367686.275,78.3858,-445.071,0,0
367946.6,77.8524,-444.865,0,0
368206.925,77.2344,-444.532,0,0
368467.25,76.6111,-444.132,0,0
368727.575,75.977,-443.527,0,0
368987.9,75.3707,-442.873,0,0
369248.225,74.839,-442.055,0,0
369508.55,74.4213,-441.123,0,0
369768.875,74.1734,-440.08,0,0
370029.2,73.993,-439.049,0,0
370289.525,74.0628,-438.009,0,0
370549.85,74.2179,-436.989,0,0
370810.175,74.5261,-436.171,0,0
371070.5,74.9232,-435.412,0,0
371330.825,75.3325,-434.808,0,0
371591.15,75.7577,-434.355,0,0
371851.475,76.1571,-434.017,0,0
372111.8,76.5091,-433.774,0,0
372372.125,76.6969,-433.653,0,0
372632.45,76.8465,-433.571,0,0
372892.775,76.8602,-433.509,0,0
373153.1,76.7291,-433.35,0,0
373413.425,76.5616,-433.243,0,0
373673.75,76.3453,-433.061,0,0
373934.075,76.0931,-432.842,0,0
374194.4,75.7314,-432.446,0,0
374454.725,75.4215,-432.116,0,0
374715.05,75.1544,-431.703,0,0
374975.375,74.8188,-431.248,0,0
375235.7,74.4491,-430.728,0,0
375496.025,74.237,-430.192,0,0
375756.35,73.9478,-429.593,0,0
376016.675,73.6874,-428.953,0,0
376277.0,73.4434,-428.301,0,0
376537.325,73.2643,-427.565,0,0
376797.65,73.0999,-426.843,0,0
377057.975,73.0163,-426.091,0,0
377318.3,73.001,-425.358,0,0
377578.625,72.9512,-424.575,0,0
377838.95,73.0529,-423.829,0,0
378099.275,73.1666,-423.105,0,0
378359.6,73.3895,-422.433,0,0
378619.925,73.63,-421.857,0,0
378880,73.7739,-421.318,0,0
379141,73.9619,-420.767,0,0
379401,74.1209,-420.343,0,0
379661,74.3673,-419.859,0,0
379922,74.5574,-419.417,0,0
380182,74.6769,-419.02,0,0
380442,74.8279,-418.6,0,0
380703,74.9917,-418.261,0,0
380963,75.1026,-417.855,0,0
381223,75.2023,-417.499,0,0
381483,75.3772,-417.072,0,0
381744,75.4839,-416.716,0,0
382004,75.6896,-416.46,0,0
382264,75.806,-416.159,0,0
382525,75.9487,-415.935,0,0
382785,76.0817,-415.767,0,0
383045,76.0748,-415.648,0,0
383306,76.1201,-415.44,0,0
383566,76.0066,-415.316,0,0
383826,75.8973,-415.181,0,0
384087,75.7468,-415.017,0,0
384347,75.5505,-414.824,0,0
384607,75.2787,-414.583,0,0
384868,75.0095,-414.346,0,0
385128,74.7267,-413.919,0,0
385388,74.4127,-413.663,0,0
385649,74.1258,-413.196,0,0
385909,73.8501,-412.804,0,0
386169,73.5331,-412.322,0,0
386430,73.3033,-411.842,0,0
386690,72.9953,-411.26,0,0
386950,72.7341,-410.682,0,0
387211,72.515,-410.071,0,0
387471,72.3332,-409.506,0,0
387731,72.113,-408.863,0,0
387992,71.9787,-408.228,0,0
388252,71.7925,-407.551,0,0
388512,71.6807,-406.908,0,0
388773,71.5649,-406.17,0,0
389033,71.4996,-405.502,0,0
389293,71.4367,-404.749,0,0
389554,71.3847,-404.042,0,0
389814,71.3623,-403.29,0,0
390074,71.3775,-402.534,0,0
390335,71.4481,-401.775,0,0
390595,71.5381,-401.024,0,0
390855,71.6948,-400.225,0,0
391116,71.9118,-399.443,0,0
391376,72.1327,-398.77,0,0
391636,72.3969,-398.032,0,0
391896,72.687,-397.336,0,0
392157,73.0027,-396.656,0,0
392417,73.3703,-396.017,0,0
392677,73.7377,-395.388,0,0
392938,74.1688,-394.809,0,0
393198,74.5723,-394.248,0,0
393458,75.0368,-393.767,0,0
393719,75.514,-393.313,0,0
393979,76.0112,-392.884,0,0
394239,76.4838,-392.51,0,0
394500,77.0102,-392.174,0,0
394760.05,77.4905,-391.886,0,0
395020.375,77.9629,-391.672,0,0
395280.7,78.4418,-391.487,0,0
395541.025,78.9258,-391.352,0,0
395801.35,79.3571,-391.251,0,0
396061.675,79.7427,-391.255,0,0
396322.0,80.1131,-391.219,0,0
396582.325,80.4571,-391.267,0,0
396842.65,80.7475,-391.267,0,0
397102.975,81.0123,-391.389,0,0
397363.3,81.2178,-391.484,0,0
397623.625,81.3746,-391.58,0,0
397883.95,81.5096,-391.749,0,0
398144.275,81.6004,-391.838,0,0
398404.6,81.6069,-392.048,0,0
398664.925,81.5984,-392.141,0,0
398925.25,81.5228,-392.311,0,0
399185.575,81.433,-392.425,0,0
399445.9,81.2209,-392.579,0,0
399706.225,81.0064,-392.674,0,0
399966.55,80.7657,-392.686,0,0
400006.6,80.686,-392.658,0,0