File: Accelerated corrosion test data/2025-10-01_06-00-03/sample_8.csv
Frequency (Hz),Impedance (ohms),Phase (Radians),Temperature (C),Humidity (%)
10000.0,317.749,-10950.9,0,0
10260.325,309.531,-10676.3,0,0
10520.65,302.271,-10415.5,0,0
10780.975,295.108,-10167.5,0,0
11041.3,288.163,-9930.36,0,0
11301.625,282.019,-9705.23,0,0
11561.95,275.383,-9488.97,0,0
11822.275,269.724,-9282.5,0,0
12082.6,266.547,-9082.51,0,0
12342.925,264.271,-8896.22,0,0
12603.25,258.528,-8715.28,0,0
12863.575,254.211,-8544.01,0,0
13123.9,246.843,-8380.57,0,0
13384.225,240.012,-8218.29,0,0
13644.55,236.905,-8062.8,0,0
13904.875,230.133,-7916.22,0,0
14165.2,225.529,-7771.14,0,0
14425.525,221.321,-7632.03,0,0
14685.8,216.599,-7498.41,0,0
14946.175,212.614,-7369.37,0,0
15206.5,209.108,-7243.84,0,0
15466.825,205.875,-7123.69,0,0
15727.15,202.657,-7006.85,0,0
15987.5,199.338,-6893.56,0,0
16247.8,196.058,-6784.29,0,0
16508.125,192.948,-6678.29,0,0
16768.45,189.802,-6575.65,0,0
17028.775,187.191,-6475.96,0,0
17289.1,184.021,-6379,0,0
17549.425,181.507,-6285.01,0,0
17809.75,179.767,-6193.24,0,0
18070.075,177.099,-6105.39,0,0
18330.4,174.047,-6018.45,0,0
18590.725,172.201,-5933.49,0,0
18851.05,171.707,-5850.4,0,0
19111.375,170.49,-5771.83,0,0
19371.7,172.68,-5694.17,0,0
19632.025,169.135,-5623.16,0,0
19892.35,166.753,-5552.84,0,0
20152.675,162.984,-5480.4,0,0
20413.0,162.329,-5409.97,0,0
20673.3,161.534,-5342.78,0,0
20933.65,160.462,-5278.82,0,0
21193.975,157.76,-5215.81,0,0
21454.3,154.883,-5151.69,0,0
21714.625,153.462,-5089.53,0,0
21974.9,153.309,-5029.91,0,0
22235.275,153.411,-4971.75,0,0
22495.6,151.301,-4916.03,0,0
22755.925,149.875,-4861.52,0,0
23016.25,147.134,-4807.32,0,0
23276.6,143.596,-4755.5,0,0
23536.9,142.157,-4702.44,0,0
23797.225,140.076,-4650.96,0,0
24057.55,137.931,-4600.63,0,0
24317.875,136.265,-4551.64,0,0
24578.2,134.282,-4502.89,0,0
24838.525,132.865,-4455.75,0,0
25098.85,131.828,-4409.18,0,0
25359.175,130.329,-4363.95,0,0
25619.5,129.616,-4319.17,0,0
25879.8,128.015,-4275.43,0,0
26140.1,127.336,-4233.19,0,0
26400.5,126.328,-4191.46,0,0
26660.8,125.157,-4150.01,0,0
26921.1,123.857,-4108.81,0,0
27181.4,123.859,-4069.62,0,0
27441.8,122.379,-4031.26,0,0
27702.1,122.299,-3993.18,0,0
27962.4,120.32,-3956.82,0,0
28222.7,120.61,-3918.6,0,0
28483.1,119.612,-3883.29,0,0
28743.4,119.358,-3847.51,0,0
29003.7,119.032,-3813.39,0,0
29264,118.405,-3778.71,0,0
29524.4,117.875,-3745.62,0,0
29784.7,117.421,-3712.47,0,0
30045,117.628,-3680.93,0,0
30305.3,117.257,-3649.66,0,0
30565.7,116.263,-3619.33,0,0
30826,115.509,-3588.74,0,0
31086.3,114.661,-3558.93,0,0
31346.6,113.562,-3529.03,0,0
31607,113.27,-3499.51,0,0
31867.3,112.857,-3470.76,0,0
32127.6,112.408,-3443.05,0,0
32387.9,111.786,-3414.87,0,0
32648.3,111.783,-3387.23,0,0
32908.6,111.848,-3359.51,0,0
33168.9,111.819,-3333.68,0,0
33429.2,112.598,-3307.67,0,0
33689.6,113.741,-3282.87,0,0
33949.9,113.888,-3259.45,0,0
34210.2,113.087,-3235.47,0,0
34470.5,112.203,-3212.02,0,0
34730.9,111.763,-3188.07,0,0
34991.2,111.682,-3165.06,0,0
35251.5,111.317,-3142.99,0,0
35511.8,110.521,-3121.26,0,0
35772.2,109.504,-3099.87,0,0
36032.5,108.044,-3078.35,0,0
36292.8,106.961,-3056.93,0,0
36553.1,105.427,-3035.62,0,0
36813.5,103.892,-3014.57,0,0
37073.8,102.679,-2993.54,0,0
37334.1,101.586,-2973.08,0,0
37594.4,100.235,-2952.88,0,0
37854.8,98.569,-2932.68,0,0
38115.1,97.3479,-2912.59,0,0
38375.4,95.8033,-2892.77,0,0
38635.7,94.6739,-2872.98,0,0
38896.1,93.1846,-2853.44,0,0
39156.4,92.0952,-2834.14,0,0
39416.7,90.9174,-2814.72,0,0
39677,89.9697,-2795.88,0,0
39937.4,88.7456,-2776.94,0,0
40197.7,87.6691,-2757.79,0,0
40458,87.5572,-2739.01,0,0
40718.3,87.4134,-2721.07,0,0
40978.7,86.9056,-2703.65,0,0
41239,86.1668,-2686.19,0,0
41499.3,85.5304,-2668.81,0,0
41759.6,85.0258,-2651.94,0,0
42020,84.5899,-2635.08,0,0
42280.275,83.7962,-2618.38,0,0
42540.6,83.5529,-2601.49,0,0
42800.925,83.368,-2584.94,0,0
43061.25,83.2844,-2568.94,0,0
43321.575,83.3766,-2552.94,0,0
43581.9,83.3269,-2537.61,0,0
43842.225,83.0607,-2522.99,0,0
44102.55,82.3817,-2508.38,0,0
44362.875,81.7522,-2493.54,0,0
44623.2,80.8872,-2478.8,0,0
44883.525,80.101,-2463.95,0,0
45143.85,79.5898,-2449.2,0,0
45404.175,79.2151,-2434.78,0,0
45664.5,78.5695,-2420.54,0,0
45924.825,78.2487,-2406.42,0,0
46185.15,77.6792,-2392.41,0,0
46445.475,77.1861,-2378.64,0,0
46705.8,76.5441,-2364.59,0,0
46966.125,76.2971,-2350.98,0,0
47226.45,75.9733,-2337.54,0,0
47486.775,75.6977,-2324.44,0,0
47747.1,75.5657,-2311.29,0,0
48007.425,75.1167,-2298.44,0,0
48267.75,74.8522,-2285.75,0,0
48528.075,74.3302,-2273.06,0,0
48788.4,74.1457,-2260.47,0,0
49048.725,73.7133,-2248.41,0,0
49309.05,73.0077,-2236,0,0
49569.375,72.6714,-2223.61,0,0
49829.7,72.3833,-2211.5,0,0
50090.025,72.0593,-2199.55,0,0
50350.35,71.5491,-2187.58,0,0
50610.675,71.419,-2175.74,0,0
50871.0,71.0847,-2163.89,0,0
51131.325,70.8321,-2152.37,0,0
51391.65,70.7326,-2140.98,0,0
51651.975,70.5632,-2129.5,0,0
51912.3,70.6404,-2118.46,0,0
52172.625,70.5842,-2107.55,0,0
52432.95,70.3091,-2096.76,0,0
52693.275,70.0123,-2085.83,0,0
52953.6,70.175,-2075.18,0,0
53213.925,70.2312,-2064.85,0,0
53474.25,70.1511,-2054.61,0,0
53734.575,70.0773,-2044.54,0,0
53994.9,69.6902,-2034.86,0,0
54255.225,69.1932,-2025.19,0,0
54515.55,68.3285,-2015.3,0,0
54775.875,67.7339,-2005.04,0,0
55036.2,67.4112,-1995.39,0,0
55296.525,66.7886,-1985.63,0,0
55556.85,66.0131,-1975.75,0,0
55817.175,65.4786,-1965.8,0,0
56077.5,64.9876,-1956.08,0,0
56337.825,64.507,-1946.24,0,0
56598.15,64.0867,-1936.53,0,0
56858.475,63.7677,-1926.9,0,0
57118.8,63.5185,-1917.3,0,0
57379.125,63.2946,-1907.78,0,0
57639.45,63.2825,-1898.45,0,0
57899.775,62.9853,-1889.26,0,0
58160.1,62.8402,-1880.08,0,0
58420.4,62.7241,-1870.92,0,0
58680.7,62.8072,-1861.99,0,0
58941.1,62.8206,-1853.07,0,0
59201.4,62.8854,-1844.39,0,0
59461.7,62.8543,-1836.02,0,0
59722,62.5697,-1827.81,0,0
59982.4,62.1422,-1819.33,0,0
60242.7,61.845,-1810.71,0,0
60503,61.4553,-1802.28,0,0
60763.3,61.2935,-1793.78,0,0
61023.7,61.151,-1785.28,0,0
61284,61.0109,-1776.88,0,0
61544.3,61.0796,-1768.58,0,0
61804.6,61.2081,-1760.52,0,0
62065,61.1882,-1752.71,0,0
62325.3,60.9496,-1744.68,0,0
62585.6,60.8952,-1736.63,0,0
62845.9,60.9614,-1728.63,0,0
63106.3,61.068,-1720.75,0,0
63366.6,61.2483,-1712.87,0,0
63626.9,61.4692,-1705.24,0,0
63887.2,61.6986,-1697.85,0,0
64147.6,61.8914,-1690.4,0,0
64407.9,62.3833,-1682.88,0,0
64668.2,62.8574,-1676.02,0,0
64928.5,62.8241,-1669.41,0,0
65188.9,62.7231,-1662.73,0,0
65449.2,62.5817,-1655.73,0,0
65709.5,62.5425,-1649.23,0,0
65969.8,62.2356,-1642.44,0,0
66230.2,61.8143,-1635.76,0,0
66490.5,61.3523,-1629.21,0,0
66750.8,60.6397,-1622.35,0,0
67011.1,60.0739,-1615.2,0,0
67271.5,59.7255,-1608.22,0,0
67531.8,59.4846,-1601.08,0,0
67792.1,59.4122,-1594.22,0,0
68052.4,59.1965,-1587.51,0,0
68312.8,58.9353,-1580.81,0,0
68573.1,58.9212,-1573.98,0,0
68833.4,58.708,-1567.29,0,0
69093.7,58.5509,-1560.66,0,0
69354.1,58.366,-1554.01,0,0
69614.4,58.3018,-1547.32,0,0
69874.7,58.3352,-1540.75,0,0
70135,58.3536,-1534.21,0,0
70395.4,58.5643,-1527.74,0,0
70655.7,58.7246,-1521.45,0,0
70916,58.8007,-1515.24,0,0
71176.3,58.8485,-1509.14,0,0
71436.7,58.9667,-1503,0,0
71697,59.0471,-1496.88,0,0
71957.3,59.2995,-1490.96,0,0
72217.6,59.2546,-1485.13,0,0
72478,59.3621,-1479.4,0,0
72738.3,59.3164,-1473.67,0,0
72998.6,59.1081,-1468.06,0,0
73258.9,58.789,-1462.3,0,0
73519.3,58.5356,-1456.47,0,0
73779.6,58.3827,-1450.59,0,0
74039.9,58.4474,-1444.67,0,0
74300.225,58.5054,-1438.99,0,0
74560.55,58.3971,-1433.43,0,0
74820.875,58.206,-1427.85,0,0
75081.2,57.9666,-1422.29,0,0
75341.525,57.9443,-1416.49,0,0
75601.85,57.7906,-1410.83,0,0
75862.175,57.7136,-1405.11,0,0
76122.5,57.839,-1399.56,0,0
76382.825,57.8649,-1394.05,0,0
76643.15,57.9423,-1388.6,0,0
76903.475,58.0021,-1383.31,0,0
77163.8,57.951,-1378.04,0,0
77424.125,57.8952,-1372.71,0,0
77684.45,57.8832,-1367.4,0,0
77944.775,57.8834,-1362.06,0,0
78205.1,57.7482,-1356.93,0,0
78465.425,57.7585,-1351.71,0,0
78725.75,57.5592,-1346.54,0,0
78986.075,57.4032,-1341.23,0,0
79246.4,57.4259,-1335.97,0,0
79506.725,57.3574,-1330.83,0,0
79767.05,57.3087,-1325.52,0,0
80027.375,57.3623,-1320.31,0,0
80287.7,57.4261,-1315.15,0,0
80548.025,57.4857,-1309.99,0,0
80808.35,57.6452,-1304.91,0,0
81068.675,57.7001,-1299.97,0,0
81329.0,57.6935,-1294.88,0,0
81589.325,57.832,-1289.84,0,0
81849.65,57.9032,-1284.83,0,0
82109.975,57.9794,-1279.88,0,0
82370.3,58.038,-1274.77,0,0
82630.625,58.2866,-1269.69,0,0
82890.95,58.6058,-1264.67,0,0
83151.275,59.0742,-1259.9,0,0
83411.6,59.3282,-1255.22,0,0
83671.925,59.5107,-1250.37,0,0
83932.25,60.0033,-1245.48,0,0
84192.575,60.4946,-1240.86,0,0
84452.9,60.9921,-1236.39,0,0
84713.225,61.3648,-1232.03,0,0
84973.55,61.6787,-1227.49,0,0
85233.875,62.095,-1223.16,0,0
85494.2,62.3248,-1219.04,0,0
85754.525,62.61,-1214.96,0,0
86014.85,62.4009,-1210.71,0,0
86275.175,62.3734,-1206.29,0,0
86535.5,62.3573,-1201.97,0,0
86795.825,62.3186,-1197.36,0,0
87056.15,62.4751,-1192.75,0,0
87316.475,62.7389,-1188.27,0,0
87576.8,63.0051,-1183.9,0,0
87837.125,63.0537,-1179.42,0,0
88097.45,63.4645,-1174.77,0,0
88357.775,63.8325,-1170.39,0,0
88618.1,64.2893,-1166.04,0,0
88878.425,64.7602,-1161.82,0,0
89138.75,65.1251,-1157.57,0,0
89399.075,65.5122,-1153.27,0,0
89659.4,66.0692,-1149.12,0,0
89919.725,66.5412,-1144.87,0,0
90180,67.0786,-1140.64,0,0
90440.4,67.6552,-1136.51,0,0
90700.7,68.2186,-1132.38,0,0
90961,68.8722,-1128.31,0,0
91221.3,69.5556,-1124.21,0,0
91481.7,70.5248,-1120.07,0,0
91742,71.6626,-1116.31,0,0
92002.3,72.6604,-1112.73,0,0
92262.6,73.6605,-1109.42,0,0
92523,74.5655,-1106.22,0,0
92783.3,75.315,-1103.3,0,0
93043.6,75.7882,-1100.33,0,0
93303.9,76.2506,-1097.55,0,0
93564.3,76.3359,-1094.74,0,0
93824.6,76.2236,-1091.86,0,0
94084.9,75.9483,-1088.85,0,0
94345.2,75.4214,-1085.55,0,0
94605.6,74.9912,-1081.83,0,0
94865.9,74.7636,-1077.84,0,0
95126.2,75.1927,-1073.88,0,0
95386.5,75.5515,-1070.38,0,0
95646.9,75.9466,-1066.72,0,0
95907.2,76.4266,-1063.41,0,0
96167.5,76.6776,-1060.26,0,0
96427.8,76.6015,-1056.97,0,0
96688.2,76.6852,-1053.25,0,0
96948.5,77.1132,-1049.61,0,0
97208.8,77.6094,-1046.2,0,0
97469.1,78.0576,-1042.87,0,0
97729.5,78.6581,-1039.48,0,0
97989.8,79.3602,-1036.46,0,0
98250.1,79.819,-1033.57,0,0
98510.4,80.0601,-1030.69,0,0
98770.8,80.3771,-1027.67,0,0
99031.1,80.7963,-1024.77,0,0
99291.4,81.1263,-1022.14,0,0
99551.7,81.0247,-1019.58,0,0
99812.1,80.8485,-1016.72,0,0
100072,80.5727,-1013.57,0,0
100333,80.7359,-1010.35,0,0
100593,80.9444,-1007.21,0,0
100853,81.271,-1004.38,0,0
101114,81.3891,-1001.63,0,0
101374,81.2784,-998.963,0,0
101634,81.1059,-996.074,0,0
101895,81.0569,-993.146,0,0
102155,80.9259,-990.302,0,0
102415,80.7451,-987.391,0,0
102676,80.5759,-984.428,0,0
102936,80.4479,-981.386,0,0
103196,80.3331,-978.386,0,0
103457,80.2267,-975.356,0,0
103717,80.1688,-972.33,0,0
103977,80.1479,-969.392,0,0
104238,79.9542,-966.49,0,0
104498,79.7549,-963.526,0,0
104758,79.4729,-960.417,0,0
105019,79.4287,-957.258,0,0
105279,79.3081,-954.159,0,0
105539,79.2005,-950.947,0,0
105800,79.2009,-947.732,0,0
106060,79.2442,-944.485,0,0
106320.175,79.4498,-941.319,0,0
106580.5,79.6687,-938.167,0,0
106840.825,80.0327,-935.17,0,0
107101.15,80.3521,-932.227,0,0
107361.475,80.601,-929.416,0,0
107621.8,80.8296,-926.697,0,0
107882.125,80.9738,-923.964,0,0
108142.45,80.9574,-921.294,0,0
108402.775,80.8533,-918.358,0,0
108663.1,80.9443,-915.392,0,0
108923.425,81.1466,-912.44,0,0
109183.75,81.3756,-909.595,0,0
109444.075,81.5483,-906.786,0,0
109704.4,81.8263,-904.024,0,0
109964.725,82.0359,-901.382,0,0
110225.05,82.2914,-898.728,0,0
110485.375,82.4318,-896.157,0,0
110745.7,82.5923,-893.533,0,0
111006.025,82.5511,-891.035,0,0
111266.35,82.6225,-888.414,0,0
111526.675,82.4488,-885.916,0,0
111787.0,82.4574,-883.131,0,0
112047.325,82.5178,-880.442,0,0
112307.65,82.5484,-877.825,0,0
112567.975,82.5767,-875.175,0,0
112828.3,82.626,-872.637,0,0
113088.625,82.6738,-870.059,0,0
113348.95,82.6722,-867.384,0,0
113609.275,82.58,-864.856,0,0
113869.6,82.6061,-862.321,0,0
114129.925,82.517,-859.753,0,0
114390.25,82.4353,-857.244,0,0
114650.575,82.2825,-854.664,0,0
114910.9,82.1307,-851.951,0,0
115171.225,82.0774,-849.251,0,0
115431.55,82.0573,-846.611,0,0
115691.875,81.9982,-844.013,0,0
115952.2,81.9145,-841.427,0,0
116212.525,81.7967,-838.89,0,0
116472.85,81.7273,-836.23,0,0
116733.175,81.6113,-833.675,0,0
116993.5,81.4516,-831.097,0,0
117253.825,81.2541,-828.486,0,0
117514.15,81.0308,-825.803,0,0
117774.475,80.8066,-823.013,0,0
118034.8,80.6952,-820.209,0,0
118295.125,80.5752,-817.457,0,0
118555.45,80.4564,-814.583,0,0
118815.775,80.5196,-811.668,0,0
119076.1,80.7614,-808.86,0,0
119336.425,80.9553,-806.308,0,0
119596.75,80.942,-803.852,0,0
119857.075,80.8569,-801.265,0,0
120117.4,80.7585,-798.61,0,0
120377.725,80.6948,-795.968,0,0
120638.05,80.6291,-793.302,0,0
120898.375,80.4804,-790.628,0,0
121158.7,80.3426,-787.811,0,0
121419.025,80.3668,-784.928,0,0
121679.35,80.5205,-782.199,0,0
121939.675,80.4977,-779.519,0,0
122200.0,80.5226,-776.782,0,0
122460,80.5751,-774.004,0,0
122721,80.7291,-771.267,0,0
122981,80.8776,-768.598,0,0
123241,80.9854,-765.964,0,0
123502,81.0136,-763.395,0,0
123762,80.9877,-760.736,0,0
124022,80.9344,-758.046,0,0
124283,80.9157,-755.207,0,0
124543,80.979,-752.333,0,0
124803,81.152,-749.491,0,0
125064,81.363,-746.678,0,0
125324,81.6501,-743.928,0,0
125584,81.9097,-741.258,0,0
125845,82.1316,-738.625,0,0
126105,82.3305,-735.966,0,0
126365,82.4768,-733.327,0,0
126626,82.7124,-730.6,0,0
126886,83.0172,-727.88,0,0
127146,83.3674,-725.274,0,0
127406,83.5808,-722.705,0,0
127667,83.8988,-720.135,0,0
127927,84.135,-717.607,0,0
128187,84.3344,-715.085,0,0
128448,84.6557,-712.539,0,0
128708,84.8616,-710.084,0,0
128968,85.0113,-707.707,0,0
129229,85.0341,-705.246,0,0
129489,85.1129,-702.665,0,0
129749,85.2287,-700.177,0,0
130010,85.2204,-697.715,0,0
130270,85.0707,-695.078,0,0
130530,84.9456,-692.347,0,0
130791,84.8516,-689.464,0,0
131051,84.8058,-686.522,0,0
131311,84.7927,-683.329,0,0
131572,85.1578,-679.931,0,0
131832,86.0203,-676.814,0,0
132092,86.8652,-674.2,0,0
132353,87.4408,-671.779,0,0
132613,87.8183,-669.437,0,0
132873,87.8756,-666.935,0,0
133134,87.9815,-664.06,0,0
133394,88.395,-661.019,0,0
133654,89.0816,-658.213,0,0
133915,89.7167,-655.61,0,0
134175,90.2047,-653.136,0,0
134435,90.5627,-650.535,0,0
134696,90.9978,-647.869,0,0
134956,91.4778,-645.257,0,0
135216,91.86,-642.591,0,0
135477,92.3249,-639.916,0,0
135737,92.84,-637.205,0,0
135997,93.5243,-634.472,0,0
136258,94.3084,-631.98,0,0
136518,94.9524,-629.667,0,0
136778,95.4607,-627.273,0,0
137039,96.0768,-624.858,0,0
137299,96.7075,-622.667,0,0
137559,97.1916,-620.616,0,0
137819,97.4083,-618.72,0,0
138080,97.2965,-616.711,0,0
138340.125,96.9489,-614.478,0,0
138600.45,96.5205,-611.891,0,0
138860.775,96.1599,-608.994,0,0
139121.1,96.0226,-605.975,0,0
139381.425,96.013,-602.881,0,0
139641.75,96.1571,-599.713,0,0
139902.075,96.4475,-596.587,0,0
140162.4,96.7874,-593.508,0,0
140422.725,97.1956,-590.509,0,0
140683.05,97.5405,-587.575,0,0
140943.375,97.7418,-584.621,0,0
141203.7,97.9395,-581.513,0,0
141464.025,98.2039,-578.296,0,0
141724.35,98.517,-575.019,0,0
141984.675,98.9321,-571.675,0,0
142245.0,99.451,-568.361,0,0
142505.325,99.9316,-565.038,0,0
142765.65,100.449,-561.63,0,0
143025.975,101.219,-558.147,0,0
143286.3,101.937,-554.806,0,0
143546.625,102.589,-551.483,0,0
143806.95,103.185,-548.035,0,0
144067.275,103.8,-544.433,0,0
144327.6,104.545,-540.708,0,0
144587.925,105.378,-536.847,0,0
144848.25,106.409,-532.891,0,0
145108.575,107.656,-528.886,0,0
145368.9,109.144,-524.897,0,0
145629.225,110.731,-520.911,0,0
145889.55,112.665,-516.948,0,0
146149.875,114.864,-513.215,0,0
146410.2,117.15,-509.786,0,0
146670.525,119.348,-506.575,0,0
146930.85,121.512,-503.435,0,0
147191.175,123.676,-500.394,0,0
147451.5,125.861,-497.36,0,0
147711.825,128.256,-494.463,0,0
147972.15,130.643,-492.067,0,0
148232.475,132.452,-490.074,0,0
148492.8,133.507,-487.765,0,0
148753.125,134.369,-484.738,0,0
149013.45,135.454,-481.206,0,0
149273.775,136.793,-477.313,0,0
149534.1,138.539,-472.98,0,0
149794.425,140.945,-468.593,0,0
150054.75,143.977,-464.455,0,0
150315.075,147.165,-460.54,0,0
150575.4,150.728,-456.765,0,0
150835.725,154.534,-453.36,0,0
151096.05,158.363,-450.171,0,0
151356.375,162.414,-446.885,0,0
151616.7,167.196,-443.768,0,0
151877.025,172.636,-441.391,0,0
152137.35,178.308,-440.26,0,0
152397.675,183.348,-440.207,0,0
152658.0,187.669,-440.6,0,0
152918.325,191.285,-441.412,0,0
153178.65,194.115,-442.296,0,0
153438.975,196.299,-442.824,0,0
153699.3,198.217,-443.141,0,0
153959.625,199.914,-443.272,0,0
154219.95,201.353,-443.545,0,0
154480,202.15,-443.372,0,0
154741,202.635,-442.71,0,0
155001,203.229,-441.205,0,0
155261,204.299,-439.103,0,0
155522,205.951,-436.704,0,0
155782,208.308,-434.362,0,0
156042,211.348,-432.485,0,0
156303,215.098,-431.147,0,0
156563,219.071,-431.243,0,0
156823,222.163,-432.822,0,0
157084,223.588,-434.86,0,0
157344,223.455,-436.766,0,0
157604,221.496,-437.399,0,0
157864,219.482,-435.708,0,0
158125,218.332,-433.064,0,0
158385,218.003,-429.447,0,0
158645,218.578,-425.79,0,0
158906,219.63,-421.824,0,0
159166,221.63,-417.317,0,0
159426,225.385,-412.978,0,0
159687,230.566,-409.986,0,0
159947,235.736,-409.025,0,0
160207,240.212,-409.443,0,0
160468,243.327,-410.893,0,0
160728,245.056,-412.236,0,0
160988,245.534,-413.308,0,0
161249,244.903,-413.07,0,0
161509,244.346,-411.021,0,0
161769,245.011,-408.16,0,0
162030,246.573,-405.188,0,0
162290,248.794,-402.33,0,0
162550,251.668,-399.757,0,0
162811,255.072,-397.566,0,0
163071,258.728,-396.122,0,0
163331,262.331,-395.062,0,0
163592,266.115,-394.447,0,0
163852,269.89,-394.562,0,0
164112,273.311,-395.084,0,0
164373,276.402,-396.455,0,0
164633,278.525,-398.148,0,0
164893,279.68,-399.487,0,0
165154,280.714,-400.147,0,0
165414,281.983,-400.688,0,0
165674,283.155,-401.297,0,0
165935,284.585,-402.042,0,0
166195,285.824,-403.381,0,0
166455,286.335,-405.414,0,0
166716,285.797,-407.402,0,0
166976,284.084,-408.909,0,0
167236,281.752,-409.476,0,0
167497,279.17,-409.09,0,0
167757,276.878,-407.769,0,0
168017,274.788,-406.221,0,0
168277,272.609,-404.287,0,0
168538,270.388,-401.621,0,0
168798,268.598,-398.435,0,0
169058,267.069,-394.783,0,0
169319,266.06,-390.718,0,0
169579,265.423,-386.587,0,0
169839,265.201,-382.089,0,0
170100,265.504,-377.675,0,0
170360.075,266.17,-373.498,0,0
170620.4,266.771,-369.325,0,0
170880.725,267.411,-364.939,0,0
171141.05,268.399,-360.505,0,0
171401.375,269.474,-355.886,0,0
171661.7,270.902,-351.284,0,0
171922.025,272.266,-346.451,0,0
172182.35,274.004,-341.185,0,0
172442.675,276.405,-335.87,0,0
172703.0,279.2,-330.597,0,0
172963.325,282.645,-325.309,0,0
173223.65,286.66,-320.554,0,0
173483.975,290.767,-316.277,0,0
173744.3,294.788,-312.169,0,0
174004.625,299.106,-308.152,0,0
174264.95,303.676,-304.29,0,0
174525.275,308.381,-300.823,0,0
174785.6,313.384,-297.75,0,0
175045.925,318.066,-295.3,0,0
175306.25,322.344,-292.922,0,0
175566.575,326.664,-290.612,0,0
175826.9,330.553,-288.508,0,0
176087.225,333.944,-286.096,0,0
176347.55,337.114,-283.21,0,0
176607.875,340.524,-279.638,0,0
176868.2,344.532,-275.528,0,0
177128.525,349.38,-271.391,0,0
177388.85,354.821,-267.704,0,0
177649.175,360.64,-264.584,0,0
177909.5,366.283,-261.809,0,0
178169.825,371.722,-259.038,0,0
178430.15,377.563,-256.065,0,0
178690.475,383.535,-253.458,0,0
178950.8,389.822,-250.905,0,0
179211.125,396.316,-248.662,0,0
179471.45,402.909,-246.604,0,0
179731.775,409.843,-244.634,0,0
179992.1,416.999,-243.395,0,0
180252.425,423.962,-242.587,0,0
180512.75,430.694,-241.978,0,0
180773.075,437.051,-241.397,0,0
181033.4,443.611,-240.607,0,0
181293.725,450.536,-240.203,0,0
181554.05,457.472,-240.249,0,0
181814.375,464.112,-240.544,0,0
182074.7,470.634,-240.737,0,0
182335.025,477.241,-241.476,0,0
182595.35,483.118,-242.421,0,0
182855.675,488.804,-242.841,0,0
183116.0,495.138,-243.156,0,0
183376.325,501.702,-244.084,0,0
183636.65,507.43,-245.67,0,0
183896.975,512.39,-246.785,0,0
184157.3,517.588,-247.348,0,0
184417.625,522.865,-247.318,0,0
184677.95,528.524,-247.353,0,0
184938.275,534.556,-247.565,0,0
185198.6,540.602,-248.292,0,0
185458.925,545.766,-248.795,0,0
185719.25,550.91,-248.418,0,0
185979.575,556.845,-247.253,0,0
186239.9,563.557,-246.005,0,0
186500,571.031,-244.642,0,0
186761,579.749,-243.676,0,0
187021,588.9,-243.933,0,0
187281,598.073,-245.046,0,0
187542,606.761,-246.61,0,0
187802,615.126,-248.06,0,0
188062,623.852,-249.126,0,0
188322,633.334,-250.228,0,0
188583,643.802,-251.797,0,0
188843,654.959,-254.595,0,0
189103,665.975,-258.806,0,0
189364,676.511,-264.387,0,0
189624,686.352,-270.55,0,0
189884,694.866,-277.037,0,0
190145,702.448,-283.258,0,0
190405,709.921,-288.742,0,0
190665,717.484,-294.221,0,0
190926,724.765,-299.688,0,0
191186,731.969,-304.314,0,0
191446,739.979,-308.262,0,0
191707,749.301,-312.387,0,0
191967,759.658,-317.146,0,0
192227,771.094,-323.312,0,0
192488,782.508,-331.436,0,0
192748,792.926,-340.969,0,0
193008,801.888,-351.25,0,0
193269,809.492,-360.739,0,0
193529,817.309,-369.102,0,0
193789,826.262,-377.036,0,0
194050,836.081,-385.576,0,0
194310,847.427,-395.077,0,0
194570,859.817,-406.142,0,0
194831,872.784,-419.603,0,0
195091,884.964,-436.601,0,0
195351,894.779,-455.734,0,0
195612,901.667,-475.669,0,0
195872,906.54,-495.374,0,0
196132,910.5,-514.209,0,0
196393,914.506,-533.265,0,0
196653,917.941,-553.506,0,0
196913,919.839,-575.007,0,0
197174,919.661,-597.507,0,0
197434,917.191,-620.218,0,0
197694,912.178,-642.6,0,0
197955,904.933,-663.999,0,0
198215,895.781,-684.006,0,0
198475,885.457,-702.259,0,0
198735,874.306,-718.859,0,0
198996,862.989,-733.798,0,0
199256,851.887,-748.075,0,0
199516,840.143,-762.048,0,0
199777,828.047,-775.139,0,0
200037,815.378,-787.558,0,0
200297,801.735,-799.525,0,0
200558,787.162,-810.189,0,0
200818,771.813,-819.074,0,0
201078,756.522,-826.131,0,0
201339,741.927,-831.528,0,0
201599,728.36,-836.094,0,0
201859,715.558,-840.216,0,0
202120,703.112,-844.277,0,0
202380.025,690.689,-848.017,0,0
202640.35,678.316,-851.845,0,0
202900.675,665.437,-855.16,0,0
203161.0,652.017,-857.512,0,0
203421.325,638.606,-858.516,0,0
203681.65,626.009,-858.497,0,0
203941.975,613.722,-858.215,0,0
204202.3,601.223,-857.311,0,0
204462.625,589.445,-854.866,0,0
204722.95,578.368,-851.909,0,0
204983.275,568.05,-848.17,0,0
205243.6,558.851,-843.646,0,0
205503.925,550.626,-839.406,0,0
205764.25,543.197,-835.365,0,0
206024.575,536.107,-831.287,0,0
206284.9,529.361,-827.151,0,0
206545.225,522.842,-822.913,0,0
206805.55,516.734,-818.12,0,0
207065.875,511.289,-813.143,0,0
207326.2,506.588,-807.993,0,0
207586.525,502.708,-802.668,0,0
207846.85,499.751,-797.57,0,0
208107.175,497.48,-792.913,0,0
208367.5,495.854,-788.767,0,0
208627.825,494.465,-785.437,0,0
208888.15,493.073,-782.619,0,0
209148.475,491.554,-780.021,0,0
209408.8,489.91,-777.205,0,0
209669.125,488.615,-774.506,0,0
209929.45,487.616,-771.717,0,0
210189.775,487.159,-768.992,0,0
210450.1,487.155,-766.614,0,0
210710.425,487.365,-764.769,0,0
210970.75,487.842,-763.277,0,0
211231.075,488.429,-762.412,0,0
211491.4,488.933,-761.937,0,0
211751.725,489.168,-761.869,0,0
212012.05,489.233,-761.846,0,0
212272.375,489.516,-762.012,0,0
212532.7,489.721,-762.498,0,0
212793.025,489.92,-763.208,0,0
213053.35,490.181,-764.189,0,0
213313.675,490.471,-765.565,0,0
213574.0,490.63,-767.483,0,0
213834.325,490.321,-769.977,0,0
214094.65,489.388,-772.741,0,0
214354.975,487.937,-775.51,0,0
214615.3,485.777,-778.324,0,0
214875.625,483.22,-781.023,0,0
215135.95,480.162,-783.402,0,0
215396.275,476.705,-785.334,0,0
215656.6,472.942,-786.859,0,0
215916.925,469.061,-787.813,0,0
216177.25,465.11,-788.189,0,0
216437.575,461.344,-787.985,0,0
216697.9,457.928,-787.349,0,0
216958.225,454.77,-786.532,0,0
217218.55,451.829,-785.277,0,0
217478.875,449.472,-783.608,0,0
217739.2,447.813,-781.853,0,0
217999.525,446.711,-780.213,0,0
218259.85,446.194,-778.85,0,0
218520,446.076,-777.828,0,0
218780,446.311,-777.21,0,0
219041,446.79,-777.153,0,0
219301,447.261,-777.483,0,0
219561,447.724,-778.415,0,0
219822,447.932,-779.799,0,0
220082,447.907,-781.185,0,0
220342,447.753,-782.753,0,0
220603,447.616,-784.594,0,0
220863,447.374,-786.45,0,0
221123,447.086,-788.605,0,0
221384,446.762,-791.084,0,0
221644,446.161,-793.97,0,0
221904,445.181,-797.029,0,0
222165,443.952,-800.196,0,0
222425,442.478,-803.491,0,0
222685,440.709,-807.029,0,0
222946,438.327,-810.609,0,0
223206,435.654,-814.071,0,0
223466,432.402,-817.585,0,0
223727,428.643,-820.697,0,0
223987,424.812,-823.278,0,0
224247,420.854,-825.464,0,0
224508,417.06,-827.502,0,0
224768,413.271,-829.377,0,0
225028,409.738,-831.219,0,0
225289,405.954,-833.044,0,0
225549,402.036,-834.949,0,0
225809,398.198,-836.541,0,0
226070,394.408,-838.392,0,0
226330,390.361,-840.25,0,0
226590,386.039,-842.319,0,0
226851,381.108,-844.07,0,0
227111,376.123,-845.472,0,0
227371,370.872,-846.393,0,0
227632,365.638,-846.928,0,0
227892,360.536,-847.164,0,0
228152,355.548,-847.171,0,0
228413,350.792,-847.004,0,0
228673,346.086,-846.755,0,0
228933,341.395,-846.236,0,0
229193,336.859,-845.458,0,0
229454,332.672,-844.602,0,0
229714,328.654,-843.833,0,0
229974,324.765,-843.28,0,0
230235,320.749,-842.772,0,0
230495,316.621,-842.191,0,0
230755,312.704,-841.645,0,0
231016,308.396,-841.096,0,0
231276,304.002,-840.376,0,0
231536,299.654,-839.403,0,0
231797,295.404,-838.32,0,0
232057,291.143,-837.216,0,0
232317,286.827,-835.97,0,0
232578,282.605,-834.564,0,0
232838,278.382,-833.172,0,0
233098,273.983,-831.494,0,0
233359,269.722,-829.679,0,0
233619,265.541,-827.652,0,0
233879,261.45,-825.45,0,0
234140,257.357,-823.161,0,0
234400,253.512,-820.754,0,0
234660.3,249.672,-818.111,0,0
234920.625,245.883,-815.364,0,0
235180.95,242.443,-812.387,0,0
235441.275,239.197,-809.304,0,0
235701.6,236.064,-806.177,0,0
235961.925,233.141,-802.982,0,0
236222.25,230.498,-799.776,0,0
236482.575,228.009,-796.583,0,0
236742.9,225.67,-793.368,0,0
237003.225,223.599,-790.085,0,0
237263.55,221.692,-786.916,0,0
237523.875,219.979,-783.848,0,0
237784.2,218.469,-780.82,0,0
238044.525,217.087,-777.925,0,0
238304.85,215.844,-775.218,0,0
238565.175,214.606,-772.589,0,0
238825.5,213.441,-770.133,0,0
239085.825,212.27,-767.653,0,0
239346.15,211.254,-765.228,0,0
239606.475,210.363,-763.031,0,0
239866.8,209.57,-760.987,0,0
240127.125,208.822,-759.084,0,0
240387.45,208.009,-757.415,0,0
240647.775,207.036,-755.956,0,0
240908.1,205.979,-754.606,0,0
241168.425,204.789,-753.356,0,0
241428.75,203.412,-752.195,0,0
241689.075,201.737,-751.033,0,0
241949.4,199.824,-749.773,0,0
242209.725,197.833,-748.295,0,0
242470.05,195.738,-746.675,0,0
242730.375,193.64,-744.877,0,0
242990.7,191.513,-742.874,0,0
243251.025,189.475,-740.746,0,0
243511.35,187.543,-738.475,0,0
243771.675,185.736,-736.06,0,0
244032.0,183.99,-733.596,0,0
244292.325,182.405,-731.093,0,0
244552.65,181.014,-728.549,0,0
244812.975,179.678,-726.106,0,0
245073.3,178.388,-723.743,0,0
245333.625,176.991,-721.475,0,0
245593.95,175.523,-719.07,0,0
245854.275,174.051,-716.526,0,0
246114.6,172.681,-713.839,0,0
246374.925,171.427,-710.987,0,0
246635.25,170.299,-708.146,0,0
246895.575,169.326,-705.124,0,0
247155.9,168.563,-702.199,0,0
247416.225,168.017,-699.221,0,0
247676.55,167.621,-696.396,0,0
247936.875,167.275,-693.683,0,0
248197.2,167.045,-691.079,0,0
248457.525,166.864,-688.497,0,0
248717.85,166.652,-686.142,0,0
248978.175,166.237,-683.784,0,0
249238.5,165.946,-681.281,0,0
249498.825,165.689,-678.73,0,0
249759.15,165.453,-676.098,0,0
250019.475,165.359,-673.381,0,0
250279.8,165.439,-670.775,0,0
250540,165.672,-668.325,0,0
250800,166.022,-665.764,0,0
251061,166.371,-663.325,0,0
251321,166.782,-660.898,0,0
251581,167.245,-658.435,0,0
251842,167.921,-656.005,0,0
252102,168.719,-653.673,0,0
252362,169.726,-651.468,0,0
252623,170.869,-649.413,0,0
252883,172.166,-647.631,0,0
253143,173.447,-646.155,0,0
253404,174.637,-644.939,0,0
253664,175.629,-643.949,0,0
253924,176.366,-643.067,0,0
254185,176.863,-642.191,0,0
254445,177.103,-641.235,0,0
254705,177.309,-640.059,0,0
254966,177.429,-638.694,0,0
255226,177.576,-637.227,0,0
255486,177.853,-635.685,0,0
255747,178.265,-633.981,0,0
256007,178.811,-632.332,0,0
256267,179.482,-630.623,0,0
256528,180.296,-628.97,0,0
256788,181.283,-627.407,0,0
257048,182.38,-626.026,0,0
257309,183.409,-624.803,0,0
257569,184.38,-623.631,0,0
257829,185.365,-622.452,0,0
258090,186.417,-621.288,0,0
258350,187.493,-620.105,0,0
258610,188.754,-618.97,0,0
258871,190.094,-617.999,0,0
259131,191.469,-617.182,0,0
259391,192.809,-616.517,0,0
259651,194.232,-615.837,0,0
259912,195.617,-615.403,0,0
260172,196.939,-615.106,0,0
260432,198.128,-614.958,0,0
260693,199.156,-614.85,0,0
260953,200.101,-614.664,0,0
261213,201.118,-614.433,0,0
261474,202.211,-614.243,0,0
261734,203.322,-614.179,0,0
261994,204.387,-614.267,0,0
262255,205.389,-614.45,0,0
262515,206.284,-614.77,0,0
262775,206.96,-615.204,0,0
263036,207.331,-615.577,0,0
263296,207.408,-615.418,0,0
263556,207.912,-615.057,0,0
263817,208.569,-614.892,0,0
264077,209.317,-614.861,0,0
264337,210.053,-614.946,0,0
264598,210.646,-615.127,0,0
264858,211.009,-615.213,0,0
265118,211.348,-615.175,0,0
265379,211.63,-614.865,0,0
265639,212.155,-614.42,0,0
265899,212.791,-613.844,0,0
266160,213.746,-613.234,0,0
266420,214.937,-612.625,0,0
266680.25,216.404,-612.151,0,0
266940.575,218.04,-611.765,0,0
267200.9,219.892,-611.562,0,0
267461.225,221.941,-611.596,0,0
267721.55,224.147,-611.903,0,0
267981.875,226.513,-612.566,0,0
268242.2,228.941,-613.573,0,0
268502.525,231.264,-614.981,0,0
268762.85,233.555,-616.669,0,0
269023.175,235.845,-618.559,0,0
269283.5,238.091,-620.867,0,0
269543.825,240.301,-623.736,0,0
269804.15,241.965,-626.9,0,0
270064.475,243.336,-630.382,0,0
270324.8,244.293,-634.06,0,0
270585.125,244.919,-637.841,0,0
270845.45,245.249,-641.581,0,0
271105.775,245.49,-645.659,0,0
271366.1,245.255,-649.833,0,0
271626.425,244.538,-654.171,0,0
271886.75,243.423,-658.443,0,0
272147.075,241.883,-662.626,0,0
272407.4,240.066,-666.869,0,0
272667.725,237.799,-671.025,0,0
272928.05,235.038,-675.196,0,0
273188.375,231.744,-679.17,0,0
273448.7,227.907,-682.794,0,0
273709.025,223.642,-686.049,0,0
273969.35,219.087,-688.761,0,0
274229.675,214.302,-690.877,0,0
274490.0,209.474,-692.587,0,0
274750.325,204.559,-693.822,0,0
275010.65,199.677,-694.63,0,0
275270.975,194.923,-695.028,0,0
275531.3,190.12,-695.108,0,0
275791.625,185.378,-694.725,0,0
276051.95,180.805,-693.987,0,0
276312.275,176.472,-692.82,0,0
276572.6,172.424,-691.359,0,0
276832.925,168.761,-689.661,0,0
277093.25,165.449,-687.936,0,0
277353.575,162.387,-686.179,0,0
277613.9,159.559,-684.439,0,0
277874.225,156.906,-682.732,0,0
278134.55,154.357,-681.046,0,0
278394.875,151.904,-679.359,0,0
278655.2,149.48,-677.628,0,0
278915.525,147.129,-675.873,0,0
279175.85,144.821,-674.031,0,0
279436.175,142.6,-672.107,0,0
279696.5,140.602,-670.073,0,0
279956.825,138.719,-668.07,0,0
280217.15,136.876,-665.985,0,0
280477.475,135.209,-663.796,0,0
280737.8,133.786,-661.555,0,0
280998.125,132.556,-659.314,0,0
281258.45,131.603,-657.172,0,0
281518.775,130.82,-655.217,0,0
281779.1,130.065,-653.468,0,0
282039.425,129.264,-651.8,0,0
282299.75,128.442,-650.189,0,0
282560,127.646,-648.518,0,0
282820,126.908,-646.856,0,0
283081,126.266,-645.206,0,0
283341,125.682,-643.593,0,0
283601,125.166,-642.041,0,0
283862,124.703,-640.529,0,0
284122,124.284,-639.025,0,0
284382,123.881,-637.496,0,0
284643,123.609,-635.995,0,0
284903,123.555,-634.586,0,0
285163,123.481,-633.29,0,0
285424,123.469,-632.079,0,0
285684,123.572,-630.907,0,0
285944,123.719,-629.823,0,0
286205,124.004,-628.852,0,0
286465,124.382,-628.05,0,0
286725,124.773,-627.501,0,0
286986,125.152,-627.087,0,0
287246,125.591,-626.925,0,0
287506,125.96,-627.07,0,0
287767,126.137,-627.49,0,0
288027,126.043,-628.114,0,0
288287,125.645,-628.841,0,0
288548,124.955,-629.573,0,0
288808,123.976,-630.271,0,0
289068,122.762,-630.831,0,0
289329,121.37,-631.265,0,0
289589,119.818,-631.523,0,0
289849,118.176,-631.644,0,0
290109,116.492,-631.607,0,0
290370,114.753,-631.403,0,0
290630,112.998,-631.042,0,0
290890,111.31,-630.575,0,0
291151,109.631,-629.939,0,0
291411,108.043,-629.261,0,0
291671,106.534,-628.579,0,0
291932,105.052,-627.855,0,0
292192,103.549,-627.161,0,0
292452,102.009,-626.489,0,0
292713,100.397,-625.761,0,0
292973,98.7287,-624.952,0,0
293233,97.033,-624.033,0,0
293494,95.3497,-623.021,0,0
293754,93.6643,-621.884,0,0
294014,92.0187,-620.669,0,0
294275,90.3909,-619.333,0,0
294535,88.8389,-617.89,0,0
294795,87.4006,-616.335,0,0
295056,86.0257,-614.781,0,0
295316,84.8023,-613.154,0,0
295576,83.6614,-611.536,0,0
295837,82.5924,-609.944,0,0
296097,81.6009,-608.365,0,0
296357,80.6118,-606.797,0,0
296618,79.6477,-605.228,0,0
296878,78.7429,-603.644,0,0
297138,77.867,-602.049,0,0
297399,77.0079,-600.436,0,0
297659,76.2154,-598.791,0,0
297919,75.4757,-597.15,0,0
298180,74.7886,-595.49,0,0
298440,74.1644,-593.863,0,0
298700.2,73.5743,-592.226,0,0
298960.525,73.0239,-590.585,0,0
299220.85,72.5321,-588.965,0,0
299481.175,72.0763,-587.34,0,0
299741.5,71.6638,-585.713,0,0
300001.825,71.3263,-584.132,0,0
300262.15,71.0172,-582.547,0,0
300522.475,70.7555,-580.998,0,0
300782.8,70.5199,-579.471,0,0
301043.125,70.3064,-577.96,0,0
301303.45,70.1051,-576.464,0,0
301563.775,69.9523,-574.943,0,0
301824.1,69.8424,-573.455,0,0
302084.425,69.7862,-571.951,0,0
302344.75,69.8215,-570.485,0,0
302605.075,69.885,-569.046,0,0
302865.4,70.03,-567.661,0,0
303125.725,70.2073,-566.328,0,0
303386.05,70.4301,-565.085,0,0
303646.375,70.6618,-563.918,0,0
303906.7,70.9271,-562.789,0,0
304167.025,71.1698,-561.751,0,0
304427.35,71.418,-560.759,0,0
304687.675,71.6767,-559.854,0,0
304948.0,71.8603,-559.003,0,0
305208.325,71.9902,-558.178,0,0
305468.65,72.0965,-557.352,0,0
305728.975,72.1791,-556.531,0,0
305989.3,72.295,-555.715,0,0
306249.625,72.3973,-554.888,0,0
306509.95,72.5348,-554.079,0,0
306770.275,72.7033,-553.305,0,0
307030.6,72.882,-552.58,0,0
307290.925,73.0749,-551.925,0,0
307551.25,73.2389,-551.341,0,0
307811.575,73.3586,-550.798,0,0
308071.9,73.4233,-550.286,0,0
308332.225,73.4757,-549.788,0,0
308592.55,73.5004,-549.295,0,0
308852.875,73.5236,-548.855,0,0
309113.2,73.5132,-548.479,0,0
309373.525,73.4411,-548.103,0,0
309633.85,73.288,-547.786,0,0
309894.175,73.0631,-547.443,0,0
310154.5,72.7839,-547.089,0,0
310414.825,72.4472,-546.667,0,0
310675.15,72.086,-546.209,0,0
310935.475,71.7103,-545.696,0,0
311195.8,71.3582,-545.18,0,0
311456.125,71.0054,-544.635,0,0
311716.45,70.6411,-544.072,0,0
311976.775,70.3002,-543.556,0,0
312237.1,69.9391,-542.992,0,0
312497.425,69.5919,-542.416,0,0
312757.75,69.2321,-541.84,0,0
313018.075,68.8676,-541.274,0,0
313278.4,68.4637,-540.7,0,0
313538.725,68.0753,-540.143,0,0
313799.05,67.6605,-539.552,0,0
314059.375,67.2329,-538.974,0,0
314319.7,66.7669,-538.386,0,0
314580,66.3048,-537.757,0,0
314840,65.7964,-537.15,0,0
315101,65.1743,-536.384,0,0
315361,64.6726,-535.64,0,0
315621,64.173,-534.848,0,0
315882,63.7081,-533.876,0,0
316142,63.2961,-533.05,0,0
316402,62.9033,-532.142,0,0
316663,62.5575,-531.277,0,0
316923,62.2582,-530.348,0,0
317183,62.0255,-529.434,0,0
317444,61.74,-528.454,0,0
317704,61.5527,-527.64,0,0
317964,61.446,-526.796,0,0
318225,61.2457,-525.899,0,0
318485,61.1691,-525.058,0,0
318745,61.107,-524.222,0,0
319006,60.9818,-523.511,0,0
319266,60.9382,-522.666,0,0
319526,60.9016,-521.973,0,0
319787,60.8963,-521.305,0,0
320047,60.8581,-520.72,0,0
320307,60.7702,-520.1,0,0
320567,60.7577,-519.465,0,0
320828,60.6896,-518.961,0,0
321088,60.589,-518.391,0,0
321348,60.5055,-517.92,0,0
321609,60.3606,-517.483,0,0
321869,60.1282,-517.035,0,0
322129,59.9489,-516.582,0,0
322390,59.6873,-516.133,0,0
322650,59.3715,-515.682,0,0
322910,59.0588,-515.22,0,0
323171,58.7306,-514.715,0,0
323431,58.4088,-514.188,0,0
323691,58.0466,-513.68,0,0
323952,57.7218,-513.173,0,0
324212,57.3555,-512.619,0,0
324472,56.9957,-512.144,0,0
324733,56.5657,-511.6,0,0
324993,56.115,-511.127,0,0
325253,55.6997,-510.493,0,0
325514,55.1624,-509.957,0,0
325774,54.7476,-509.327,0,0
326034,54.2563,-508.687,0,0
326295,53.8219,-507.978,0,0
326555,53.3626,-507.296,0,0
326815,52.8429,-506.507,0,0
327076,52.4705,-505.794,0,0
327336,52.0741,-505.059,0,0
327596,51.6564,-504.267,0,0
327857,51.2569,-503.504,0,0
328117,50.9373,-502.731,0,0
328377,50.4958,-501.942,0,0
328638,50.1267,-501.149,0,0
328898,49.7354,-500.391,0,0
329158,49.4018,-499.514,0,0
329419,49.0078,-498.754,0,0
329679,48.704,-497.907,0,0
329939,48.3781,-497.05,0,0
330200,48.049,-496.267,0,0
330460,47.7788,-495.382,0,0
330720.15,47.4952,-494.541,0,0
330980.475,47.2267,-493.663,0,0
331240.8,47.0221,-492.8,0,0
331501.125,46.6959,-491.934,0,0
331761.45,46.518,-491.082,0,0
332021.775,46.2673,-490.269,0,0
332282.1,46.0781,-489.434,0,0
332542.425,45.8831,-488.581,0,0
332802.75,45.6251,-487.735,0,0
333063.075,45.4709,-486.862,0,0
333323.4,45.297,-486.014,0,0
333583.725,45.1098,-485.162,0,0
333844.05,44.9653,-484.254,0,0
334104.375,44.7544,-483.393,0,0
334364.7,44.7216,-482.502,0,0
334625.025,44.6127,-481.636,0,0
334885.35,44.5555,-480.786,0,0
335145.675,44.4809,-479.956,0,0
335406.0,44.4919,-479.109,0,0
335666.325,44.4389,-478.273,0,0
335926.65,44.4309,-477.513,0,0
336186.975,44.4689,-476.746,0,0
336447.3,44.4654,-475.943,0,0
336707.625,44.4565,-475.301,0,0
336967.95,44.5232,-474.585,0,0
337228.275,44.4809,-473.936,0,0
337488.6,44.4743,-473.26,0,0
337748.925,44.4382,-472.561,0,0
338009.25,44.3967,-471.922,0,0
338269.575,44.3566,-471.265,0,0
338529.9,44.3256,-470.584,0,0
338790.225,44.2661,-469.97,0,0
339050.55,44.2205,-469.346,0,0
339310.875,44.1442,-468.693,0,0
339571.2,44.0878,-468.085,0,0
339831.525,43.9747,-467.488,0,0
340091.85,43.9229,-466.878,0,0
340352.175,43.8145,-466.246,0,0
340612.5,43.7287,-465.624,0,0
340872.825,43.5738,-465.045,0,0
341133.15,43.478,-464.415,0,0
341393.475,43.3109,-463.74,0,0
341653.8,43.2349,-463.167,0,0
341914.125,43.1209,-462.551,0,0
342174.45,42.9567,-461.842,0,0
342434.775,42.7994,-461.18,0,0
342695.1,42.6079,-460.6,0,0
342955.425,42.4532,-459.875,0,0
343215.75,42.3098,-459.209,0,0
343476.075,42.116,-458.491,0,0
343736.4,42.001,-457.821,0,0
343996.725,41.8094,-457.091,0,0
344257.05,41.7105,-456.318,0,0
344517.375,41.5144,-455.596,0,0
344777.7,41.4762,-454.852,0,0
345038.025,41.3563,-454.079,0,0
345298.35,41.2912,-453.364,0,0
345558.675,41.2236,-452.604,0,0
345819.0,41.1537,-451.89,0,0
346079.325,41.1198,-451.126,0,0
346339.65,41.0186,-450.387,0,0
346599.975,40.9951,-449.619,0,0
346860,40.9679,-448.875,0,0
347121,40.9082,-448.143,0,0
347381,40.8849,-447.373,0,0
347641,40.927,-446.661,0,0
347902,40.9129,-445.869,0,0
348162,40.9568,-445.152,0,0
348422,41.0104,-444.453,0,0
348683,41.0353,-443.726,0,0
348943,41.1159,-443.02,0,0
349203,41.1266,-442.306,0,0
349464,41.2129,-441.631,0,0
349724,41.2601,-440.914,0,0
349984,41.302,-440.243,0,0
350245,41.441,-439.58,0,0
350505,41.5288,-438.892,0,0
350765,41.6157,-438.247,0,0
351025,41.7256,-437.554,0,0
351286,41.8316,-436.983,0,0
351546,41.9539,-436.332,0,0
351806,42.0095,-435.72,0,0
352067,42.173,-435.176,0,0
352327,42.2147,-434.543,0,0
352587,42.3247,-434.024,0,0
352848,42.3982,-433.422,0,0
353108,42.496,-432.861,0,0
353368,42.577,-432.303,0,0
353629,42.6281,-431.753,0,0
353889,42.6859,-431.198,0,0
354149,42.7161,-430.641,0,0
354410,42.8119,-430.06,0,0
354670,42.9307,-429.519,0,0
354930,43.0014,-428.976,0,0
355191,43.0802,-428.44,0,0
355451,43.1422,-427.95,0,0
355711,43.2269,-427.376,0,0
355972,43.3025,-426.895,0,0
356232,43.3363,-426.364,0,0
356492,43.4474,-425.882,0,0
356753,43.5012,-425.476,0,0
357013,43.5395,-424.941,0,0
357273,43.5846,-424.491,0,0
357534,43.5904,-424.02,0,0
357794,43.5727,-423.559,0,0
358054,43.5636,-423.132,0,0
358315,43.5422,-422.627,0,0
358575,43.5319,-422.143,0,0
358835,43.4566,-421.647,0,0
359096,43.4011,-421.174,0,0
359356,43.372,-420.604,0,0
359616,43.3181,-420.112,0,0
359877,43.2651,-419.554,0,0
360137,43.21,-419.029,0,0
360397,43.1352,-418.444,0,0
360658,43.1408,-417.901,0,0
360918,43.0909,-417.36,0,0
361178,43.0691,-416.735,0,0
361438,43.0192,-416.136,0,0
361699,43.0506,-415.558,0,0
361959,43.0183,-414.972,0,0
362219,43.0323,-414.36,0,0
362480,43.0149,-413.737,0,0
362740.1,43.0324,-413.173,0,0
363000.425,43.0366,-412.562,0,0
363260.75,43.0647,-411.955,0,0
363521.075,43.1068,-411.304,0,0
363781.4,43.1645,-410.703,0,0
364041.725,43.2054,-410.05,0,0
364302.05,43.2623,-409.431,0,0
364562.375,43.4016,-408.823,0,0
364822.7,43.4777,-408.207,0,0
365083.025,43.6172,-407.668,0,0
365343.35,43.7163,-406.975,0,0
365603.675,43.8522,-406.396,0,0
365864.0,43.9404,-405.82,0,0
366124.325,44.152,-405.222,0,0
366384.65,44.31,-404.674,0,0
366644.975,44.4963,-404.132,0,0
366905.3,44.6745,-403.582,0,0
367165.625,44.8506,-403.079,0,0
367425.95,45.0422,-402.566,0,0
367686.275,45.2066,-402.135,0,0
367946.6,45.3082,-401.641,0,0
368206.925,45.4897,-401.156,0,0
368467.25,45.5851,-400.665,0,0
368727.575,45.7627,-400.154,0,0
368987.9,45.9125,-399.672,0,0
369248.225,46.045,-399.149,0,0
369508.55,46.1943,-398.635,0,0
369768.875,46.3764,-398.151,0,0
370029.2,46.5382,-397.617,0,0
370289.525,46.7843,-397.129,0,0
370549.85,47.0585,-396.657,0,0
370810.175,47.2898,-396.222,0,0
371070.5,47.5827,-395.797,0,0
371330.825,47.8349,-395.404,0,0
371591.15,48.0875,-395.088,0,0
371851.475,48.3455,-394.769,0,0
372111.8,48.573,-394.446,0,0
372372.125,48.7505,-394.176,0,0
372632.45,48.9483,-393.915,0,0
372892.775,49.0794,-393.639,0,0
373153.1,49.1885,-393.408,0,0
373413.425,49.3708,-393.162,0,0
373673.75,49.4422,-392.903,0,0
373934.075,49.4759,-392.625,0,0
374194.4,49.5171,-392.415,0,0
374454.725,49.5702,-392.139,0,0
374715.05,49.5913,-391.816,0,0
374975.375,49.6205,-391.511,0,0
375235.7,49.6261,-391.174,0,0
375496.025,49.6853,-390.841,0,0
375756.35,49.7295,-390.525,0,0
376016.675,49.7848,-390.158,0,0
376277.0,49.8146,-389.858,0,0
376537.325,49.8894,-389.564,0,0
376797.65,49.9559,-389.235,0,0
377057.975,50.0376,-388.981,0,0
377318.3,50.085,-388.686,0,0
377578.625,50.1372,-388.414,0,0
377838.95,50.1479,-388.112,0,0
378099.275,50.1581,-387.866,0,0
378359.6,50.1099,-387.647,0,0
378619.925,50.0742,-387.359,0,0
378880,50.0131,-387.096,0,0
379141,49.8726,-386.788,0,0
379401,49.7918,-386.428,0,0
379661,49.7209,-386.011,0,0
379922,49.6449,-385.538,0,0
380182,49.6918,-385.068,0,0
380442,49.7445,-384.575,0,0
380703,49.8756,-384.136,0,0
380963,50.0868,-383.775,0,0
381223,50.3708,-383.462,0,0
381483,50.5705,-383.295,0,0
381744,50.8008,-383.158,0,0
382004,50.9405,-383.129,0,0
382264,51.0207,-383.183,0,0
382525,50.8945,-383.238,0,0
382785,50.7187,-383.257,0,0
383045,50.4411,-383.263,0,0
383306,50.1121,-383.173,0,0
383566,49.7413,-382.983,0,0
383826,49.3735,-382.798,0,0
384087,48.9792,-382.477,0,0
384347,48.6051,-382.086,0,0
384607,48.2812,-381.695,0,0
384868,47.9458,-381.273,0,0
385128,47.6467,-380.797,0,0
385388,47.3583,-380.323,0,0
385649,47.1187,-379.859,0,0
385909,46.8659,-379.32,0,0
386169,46.5758,-378.781,0,0
386430,46.3616,-378.251,0,0
386690,46.1476,-377.72,0,0
386950,45.9626,-377.177,0,0
387211,45.769,-376.562,0,0
387471,45.6347,-375.996,0,0
387731,45.4444,-375.409,0,0
387992,45.3281,-374.792,0,0
388252,45.2518,-374.187,0,0
388512,45.1722,-373.564,0,0
388773,45.0972,-372.983,0,0
389033,45.0596,-372.366,0,0
389293,45.0207,-371.772,0,0
389554,45.0104,-371.202,0,0
389814,45.0135,-370.604,0,0
390074,45.0434,-370.057,0,0
390335,45.0636,-369.485,0,0
390595,45.1151,-368.989,0,0
390855,45.1467,-368.467,0,0
391116,45.1955,-367.998,0,0
391376,45.1773,-367.528,0,0
391636,45.2055,-367.042,0,0
391896,45.1802,-366.552,0,0
392157,45.1446,-366.049,0,0
392417,45.1086,-365.58,0,0
392677,45.085,-365.069,0,0
392938,45.0786,-364.552,0,0
393198,45.0506,-364.039,0,0
393458,45.0383,-363.522,0,0
393719,45.0299,-363.013,0,0
393979,45.0158,-362.462,0,0
394239,44.9704,-361.919,0,0
394500,44.9987,-361.375,0,0
394760.05,45.0015,-360.835,0,0
395020.375,45.0265,-360.259,0,0
395280.7,45.06,-359.725,0,0
395541.025,45.0927,-359.15,0,0
395801.35,45.1576,-358.632,0,0
396061.675,45.2098,-358.104,0,0
396322.0,45.3104,-357.55,0,0
396582.325,45.3992,-357.008,0,0
396842.65,45.5002,-356.462,0,0
397102.975,45.5812,-355.968,0,0
397363.3,45.7154,-355.483,0,0
397623.625,45.8084,-355.001,0,0
397883.95,45.8866,-354.534,0,0
398144.275,45.9986,-354.1,0,0
398404.6,46.0713,-353.619,0,0
398664.925,46.1647,-353.18,0,0
398925.25,46.2264,-352.739,0,0
399185.575,46.2803,-352.29,0,0
399445.9,46.3208,-351.866,0,0
399706.225,46.3673,-351.398,0,0
399966.55,46.4044,-350.938,0,0
400006.6,46.4206,-350.904,0,0