File: Accelerated corrosion test data/2025-10-01_06-00-03/sample_2.csv
Frequency (Hz),Impedance (ohms),Phase (Radians),Temperature (C),Humidity (%)
10000.0,226.44,-11392.7,0,0
10260.325,221.44,-11106.1,0,0
10520.65,215.905,-10833,0,0
10780.975,211.431,-10572.8,0,0
11041.3,206.29,-10326.7,0,0
11301.625,201.714,-10089.7,0,0
11561.95,198.279,-9862.62,0,0
11822.275,194.869,-9652.15,0,0
12082.6,192.741,-9446.32,0,0
12342.925,185.831,-9249.14,0,0
12603.25,181.908,-9058.03,0,0
12863.575,178.645,-8874.73,0,0
13123.9,176.939,-8702.78,0,0
13384.225,172.322,-8531.66,0,0
13644.55,169.801,-8367.17,0,0
13904.875,184.919,-8217.86,0,0
14165.2,164.72,-8069.22,0,0
14425.525,160.937,-7920.35,0,0
14685.8,162.738,-7775.6,0,0
14946.175,160.533,-7648.71,0,0
15206.5,163.6,-7527.19,0,0
15466.825,163.519,-7390.71,0,0
15727.15,150.388,-7279.2,0,0
15987.5,147.089,-7158.17,0,0
16247.8,146.627,-7043.38,0,0
16508.125,142.294,-6934.52,0,0
16768.45,140.123,-6826.6,0,0
17028.775,138.241,-6722.75,0,0
17289.1,136.99,-6622.72,0,0
17549.425,134.083,-6523.93,0,0
17809.75,131.517,-6428.17,0,0
18070.075,131.071,-6335.1,0,0
18330.4,128.868,-6244.83,0,0
18590.725,127.554,-6157.44,0,0
18851.05,126.68,-6071.5,0,0
19111.375,128.385,-5990.36,0,0
19371.7,127.761,-5912.76,0,0
19632.025,122.366,-5835.41,0,0
19892.35,119.982,-5757.83,0,0
20152.675,118.411,-5682.18,0,0
20413.0,117.734,-5608.6,0,0
20673.3,116.967,-5535.94,0,0
20933.65,117.449,-5464.81,0,0
21193.975,121.206,-5397.84,0,0
21454.3,129.242,-5334.44,0,0
21714.625,127.48,-5278.8,0,0
21974.9,123.078,-5214.86,0,0
22235.275,118.554,-5161.96,0,0
22495.6,114.525,-5101.37,0,0
22755.925,111.374,-5040.19,0,0
23016.25,111.631,-4985.49,0,0
23276.6,112.146,-4930.33,0,0
23536.9,108.337,-4876.14,0,0
23797.225,106.663,-4821.96,0,0
24057.55,106.232,-4770.61,0,0
24317.875,102.536,-4720.14,0,0
24578.2,101.394,-4669.04,0,0
24838.525,100.107,-4619.85,0,0
25098.85,98.5799,-4570.71,0,0
25359.175,98.0153,-4523.31,0,0
25619.5,96.6718,-4477.6,0,0
25879.8,95.6359,-4431.52,0,0
26140.1,95.5334,-4386.38,0,0
26400.5,95.4493,-4343.16,0,0
26660.8,95.742,-4302.4,0,0
26921.1,94.8205,-4260.19,0,0
27181.4,93.9788,-4220.11,0,0
27441.8,92.2148,-4179.97,0,0
27702.1,90.3241,-4139.88,0,0
27962.4,89.7236,-4099.83,0,0
28222.7,90.1189,-4061.31,0,0
28483.1,89.2316,-4023.56,0,0
28743.4,88.5384,-3986.3,0,0
29003.7,89.7395,-3948.46,0,0
29264,89.9693,-3913.51,0,0
29524.4,93.3971,-3877.88,0,0
29784.7,97.4909,-3850.07,0,0
30045,91.6715,-3818.05,0,0
30305.3,94.1119,-3783.99,0,0
30565.7,90.2254,-3756.87,0,0
30826,88.0724,-3723.91,0,0
31086.3,86.6439,-3692.48,0,0
31346.6,84.8795,-3661.33,0,0
31607,84.9639,-3630.43,0,0
31867.3,83.186,-3601.48,0,0
32127.6,82.0697,-3571.25,0,0
32387.9,82.2714,-3540.45,0,0
32648.3,83.6398,-3513.33,0,0
32908.6,83.1128,-3487.22,0,0
33168.9,81.6556,-3460.03,0,0
33429.2,79.648,-3432.86,0,0
33689.6,79.8593,-3406.22,0,0
33949.9,78.559,-3380.2,0,0
34210.2,76.9622,-3354.11,0,0
34470.5,76.0806,-3328.19,0,0
34730.9,75.553,-3302.66,0,0
34991.2,75.1969,-3277.47,0,0
35251.5,74.7983,-3253.24,0,0
35511.8,74.1319,-3228.96,0,0
35772.2,73.5514,-3204.93,0,0
36032.5,72.8288,-3181.68,0,0
36292.8,72.6598,-3158.3,0,0
36553.1,72.1057,-3135.31,0,0
36813.5,71.5778,-3112.92,0,0
37073.8,71.1867,-3090.33,0,0
37334.1,71.0571,-3068.54,0,0
37594.4,70.6153,-3047.19,0,0
37854.8,70.2398,-3025.75,0,0
38115.1,69.9412,-3005.15,0,0
38375.4,69.2231,-2984.19,0,0
38635.7,68.7419,-2963.66,0,0
38896.1,68.49,-2943.46,0,0
39156.4,68.244,-2923.69,0,0
39416.7,67.7982,-2903.91,0,0
39677,67.2962,-2884.55,0,0
39937.4,67.0519,-2865.33,0,0
40197.7,66.8719,-2846.48,0,0
40458,66.1549,-2827.53,0,0
40718.3,66.0889,-2808.85,0,0
40978.7,66.1376,-2790.72,0,0
41239,65.5782,-2772.6,0,0
41499.3,65.6668,-2754.97,0,0
41759.6,65.297,-2737.2,0,0
42020,65.2872,-2720.13,0,0
42280.275,64.9908,-2703.58,0,0
42540.6,64.4311,-2686.61,0,0
42800.925,64.209,-2669.77,0,0
43061.25,63.9259,-2653.04,0,0
43321.575,63.708,-2636.72,0,0
43581.9,63.5142,-2620.59,0,0
43842.225,63.2698,-2604.7,0,0
44102.55,63.4903,-2588.82,0,0
44362.875,62.7798,-2573.65,0,0
44623.2,62.2929,-2558.29,0,0
44883.525,61.9041,-2542.83,0,0
45143.85,61.8572,-2527.34,0,0
45404.175,61.9214,-2512.68,0,0
45664.5,61.4782,-2497.96,0,0
45924.825,61.6003,-2482.99,0,0
46185.15,61.9322,-2468.98,0,0
46445.475,61.2648,-2455.21,0,0
46705.8,60.9194,-2440.7,0,0
46966.125,60.8676,-2426.6,0,0
47226.45,60.8424,-2412.78,0,0
47486.775,60.991,-2399.35,0,0
47747.1,60.8414,-2386.16,0,0
48007.425,60.4412,-2372.43,0,0
48267.75,61.0767,-2359.07,0,0
48528.075,61.4343,-2346.86,0,0
48788.4,60.9695,-2334.63,0,0
49048.725,60.7309,-2322.3,0,0
49309.05,60.1081,-2310.09,0,0
49569.375,59.1088,-2297.47,0,0
49829.7,58.8137,-2284.83,0,0
50090.025,58.4643,-2272.72,0,0
50350.35,57.9689,-2260.31,0,0
50610.675,57.8219,-2247.98,0,0
50871.0,57.7933,-2236.05,0,0
51131.325,57.7122,-2224.37,0,0
51391.65,57.35,-2213.13,0,0
51651.975,56.8735,-2201.45,0,0
51912.3,56.3217,-2190.22,0,0
52172.625,55.8982,-2178.41,0,0
52432.95,55.5876,-2166.97,0,0
52693.275,55.3835,-2155.63,0,0
52953.6,55.1727,-2144.43,0,0
53213.925,54.954,-2133.3,0,0
53474.25,54.7984,-2122.41,0,0
53734.575,54.5293,-2111.57,0,0
53994.9,54.5119,-2100.67,0,0
54255.225,54.423,-2089.92,0,0
54515.55,54.3684,-2079.3,0,0
54775.875,54.1544,-2069.06,0,0
55036.2,54.1471,-2058.57,0,0
55296.525,54.1069,-2048.34,0,0
55556.85,54.0818,-2038.12,0,0
55817.175,53.9709,-2028,0,0
56077.5,54.074,-2017.89,0,0
56337.825,53.8738,-2008.12,0,0
56598.15,53.8376,-1998.1,0,0
56858.475,53.8777,-1988.4,0,0
57118.8,54.0448,-1978.72,0,0
57379.125,53.9901,-1969.37,0,0
57639.45,53.9833,-1959.8,0,0
57899.775,54.2143,-1950.34,0,0
58160.1,54.2939,-1941.29,0,0
58420.4,54.0136,-1932.03,0,0
58680.7,54.1121,-1922.77,0,0
58941.1,54.273,-1913.6,0,0
59201.4,54.4731,-1904.61,0,0
59461.7,54.6721,-1895.62,0,0
59722,55.0228,-1886.59,0,0
59982.4,55.5623,-1877.88,0,0
60242.7,56.2015,-1869.62,0,0
60503,56.2219,-1861.72,0,0
60763.3,55.9466,-1853.11,0,0
61023.7,56.5175,-1844.5,0,0
61284,57.2308,-1836.03,0,0
61544.3,58.3852,-1828.39,0,0
61804.6,59.1469,-1821.4,0,0
62065,59.0176,-1815.04,0,0
62325.3,58.0305,-1807.8,0,0
62585.6,57.6609,-1800.09,0,0
62845.9,57.6805,-1792.63,0,0
63106.3,56.9627,-1785.76,0,0
63366.6,56.197,-1778.25,0,0
63626.9,55.3756,-1770.87,0,0
63887.2,54.8228,-1762.93,0,0
64147.6,54.5282,-1755.74,0,0
64407.9,53.4385,-1748.17,0,0
64668.2,53.0503,-1740.5,0,0
64928.5,52.4105,-1733.19,0,0
65188.9,51.647,-1725.4,0,0
65449.2,50.84,-1717.44,0,0
65709.5,50.8753,-1709.2,0,0
65969.8,50.756,-1701.64,0,0
66230.2,50.7381,-1693.98,0,0
66490.5,50.9776,-1686.5,0,0
66750.8,51.1372,-1679.16,0,0
67011.1,51.0114,-1671.68,0,0
67271.5,51.2953,-1664.06,0,0
67531.8,51.8319,-1656.91,0,0
67792.1,52.6786,-1649.88,0,0
68052.4,53.306,-1643.68,0,0
68312.8,53.183,-1637.04,0,0
68573.1,53.5436,-1630.3,0,0
68833.4,54.1067,-1623.84,0,0
69093.7,54.4335,-1617.77,0,0
69354.1,54.5918,-1611.25,0,0
69614.4,55.453,-1605.05,0,0
69874.7,56.0452,-1599.9,0,0
70135,55.8608,-1594.75,0,0
70395.4,55.2429,-1589.51,0,0
70655.7,54.3572,-1584.03,0,0
70916,53.4803,-1577.81,0,0
71176.3,53.0587,-1571.88,0,0
71436.7,52.4458,-1566.37,0,0
71697,51.4639,-1560.66,0,0
71957.3,49.8823,-1554.89,0,0
72217.6,48.8958,-1548.39,0,0
72478,47.8042,-1541.67,0,0
72738.3,47.2699,-1535.05,0,0
72998.6,46.6669,-1528.51,0,0
73258.9,46.2203,-1522.02,0,0
73519.3,45.6231,-1515.46,0,0
73779.6,45.3767,-1508.8,0,0
74039.9,45.2012,-1502.19,0,0
74300.225,45.1314,-1495.72,0,0
74560.55,45.173,-1489.28,0,0
74820.875,45.2746,-1483.08,0,0
75081.2,45.2479,-1476.75,0,0
75341.525,45.5563,-1470.51,0,0
75601.85,45.8173,-1464.42,0,0
75862.175,46.1722,-1458.35,0,0
76122.5,46.5544,-1452.32,0,0
76382.825,47.0074,-1446.54,0,0
76643.15,47.3818,-1440.79,0,0
76903.475,47.7651,-1434.96,0,0
77163.8,48.3277,-1429.27,0,0
77424.125,48.9851,-1423.66,0,0
77684.45,49.6348,-1418.33,0,0
77944.775,50.3082,-1413,0,0
78205.1,51.1044,-1407.86,0,0
78465.425,51.9182,-1403.04,0,0
78725.75,52.45,-1398.39,0,0
78986.075,53.1192,-1393.9,0,0
79246.4,53.2705,-1389.66,0,0
79506.725,53.3679,-1385.21,0,0
79767.05,53.4848,-1381.12,0,0
80027.375,52.9499,-1377.19,0,0
80287.7,52.0649,-1372.7,0,0
80548.025,51.3059,-1367.87,0,0
80808.35,50.5924,-1362.85,0,0
81068.675,50.1492,-1357.78,0,0
81329.0,49.784,-1352.81,0,0
81589.325,49.393,-1347.76,0,0
81849.65,49.0387,-1342.71,0,0
82109.975,48.72,-1337.59,0,0
82370.3,48.4233,-1332.5,0,0
82630.625,48.1845,-1327.37,0,0
82890.95,48.095,-1322.28,0,0
83151.275,48.0612,-1317.1,0,0
83411.6,48.1666,-1311.98,0,0
83671.925,48.3595,-1306.98,0,0
83932.25,48.6028,-1302.16,0,0
84192.575,48.868,-1297.38,0,0
84452.9,49.0445,-1292.77,0,0
84713.225,49.0635,-1288.14,0,0
84973.55,49.1573,-1283.46,0,0
85233.875,49.2895,-1278.74,0,0
85494.2,49.5691,-1274.06,0,0
85754.525,49.8414,-1269.49,0,0
86014.85,50.1154,-1265.1,0,0
86275.175,50.2075,-1260.83,0,0
86535.5,50.2687,-1256.54,0,0
86795.825,50.2611,-1251.98,0,0
87056.15,50.5271,-1247.38,0,0
87316.475,50.9962,-1243.08,0,0
87576.8,51.3583,-1239.22,0,0
87837.125,51.1487,-1235.27,0,0
88097.45,50.8744,-1230.85,0,0
88357.775,50.9297,-1226.4,0,0
88618.1,51.2802,-1222.37,0,0
88878.425,50.8676,-1218.35,0,0
89138.75,50.6794,-1213.77,0,0
89399.075,50.9928,-1209.25,0,0
89659.4,51.3462,-1204.93,0,0
89919.725,51.7556,-1200.83,0,0
90180,51.9416,-1196.95,0,0
90440.4,52.0423,-1193.24,0,0
90700.7,51.5515,-1189.05,0,0
90961,51.5115,-1184.45,0,0
91221.3,52.148,-1180.02,0,0
91481.7,52.5039,-1176.13,0,0
91742,52.6791,-1172.19,0,0
92002.3,52.8754,-1167.91,0,0
92262.6,53.5319,-1163.65,0,0
92523,54.3978,-1159.85,0,0
92783.3,54.8603,-1156.45,0,0
93043.6,55.3353,-1152.74,0,0
93303.9,55.9856,-1149.47,0,0
93564.3,56.151,-1146.18,0,0
93824.6,56.4789,-1143.15,0,0
94084.9,56.3866,-1140.25,0,0
94345.2,55.6738,-1136.96,0,0
94605.6,55.1897,-1133.22,0,0
94865.9,55.0904,-1129.36,0,0
95126.2,55.0408,-1125.82,0,0
95386.5,54.5418,-1122.07,0,0
95646.9,54.071,-1117.82,0,0
95907.2,54.5195,-1113.25,0,0
96167.5,55.4274,-1109.41,0,0
96427.8,56.2475,-1106,0,0
96688.2,56.8079,-1102.98,0,0
96948.5,57.029,-1099.83,0,0
97208.8,57.3178,-1096.51,0,0
97469.1,57.9194,-1093.58,0,0
97729.5,58.0379,-1090.97,0,0
97989.8,57.9032,-1088.09,0,0
98250.1,57.8789,-1085.19,0,0
98510.4,57.7702,-1082.45,0,0
98770.8,57.6822,-1079.86,0,0
99031.1,57.1206,-1077.56,0,0
99291.4,56.0112,-1074.99,0,0
99551.7,54.7241,-1071.99,0,0
99812.1,53.4169,-1068.51,0,0
100072,52.3776,-1064.72,0,0
100333,51.6775,-1060.76,0,0
100593,51.4281,-1056.9,0,0
100853,51.0367,-1053.68,0,0
101114,50.2032,-1050.3,0,0
101374,49.1968,-1046.67,0,0
101634,48.19,-1042.53,0,0
101895,47.719,-1038.12,0,0
102155,47.7007,-1034.01,0,0
102415,47.5392,-1030.34,0,0
102676,47.038,-1026.51,0,0
102936,46.6505,-1022.4,0,0
103196,46.3438,-1018.25,0,0
103457,46.2325,-1013.88,0,0
103717,46.2692,-1009.61,0,0
103977,46.4577,-1005.19,0,0
104238,47.0948,-1000.81,0,0
104498,47.9506,-996.778,0,0
104758,48.7408,-993.036,0,0
105019,49.4401,-989.4,0,0
105279,50.272,-985.709,0,0
105539,51.1119,-982.213,0,0
105800,51.9776,-978.7,0,0
106060,53.0946,-975.246,0,0
106320.175,54.3514,-972.293,0,0
106580.5,55.4893,-969.578,0,0
106840.825,56.3863,-967.224,0,0
107101.15,57.0199,-965.066,0,0
107361.475,57.2409,-962.694,0,0
107621.8,57.6315,-960.314,0,0
107882.125,57.8023,-958.111,0,0
108142.45,57.6399,-955.984,0,0
108402.775,57.2215,-953.621,0,0
108663.1,56.803,-951.088,0,0
108923.425,56.4151,-948.511,0,0
109183.75,55.6527,-945.927,0,0
109444.075,54.8888,-942.917,0,0
109704.4,54.3358,-939.888,0,0
109964.725,53.6038,-936.743,0,0
110225.05,53.0004,-933.44,0,0
110485.375,52.4446,-929.898,0,0
110745.7,52.1372,-926.242,0,0
111006.025,51.9774,-922.814,0,0
111266.35,51.9184,-919.386,0,0
111526.675,51.8083,-915.966,0,0
111787.0,51.6221,-912.332,0,0
112047.325,51.759,-908.725,0,0
112307.65,51.9318,-905.416,0,0
112567.975,51.936,-902.051,0,0
112828.3,51.9562,-898.583,0,0
113088.625,52.1295,-894.968,0,0
113348.95,52.399,-891.509,0,0
113609.275,52.7279,-888.081,0,0
113869.6,53.1149,-884.608,0,0
114129.925,53.604,-881.267,0,0
114390.25,54.1014,-878.049,0,0
114650.575,54.4489,-874.755,0,0
114910.9,54.9419,-871.501,0,0
115171.225,55.3741,-868.267,0,0
115431.55,55.9803,-865.039,0,0
115691.875,56.5501,-861.902,0,0
115952.2,57.0204,-858.763,0,0
116212.525,57.6201,-855.588,0,0
116472.85,58.2738,-852.442,0,0
116733.175,59.0569,-849.327,0,0
116993.5,59.8032,-846.397,0,0
117253.825,60.5073,-843.519,0,0
117514.15,61.2395,-840.609,0,0
117774.475,62.0173,-837.731,0,0
118034.8,62.8407,-834.971,0,0
118295.125,63.6466,-832.291,0,0
118555.45,64.4644,-829.612,0,0
118815.775,65.3192,-827.065,0,0
119076.1,66.1222,-824.622,0,0
119336.425,66.7648,-822.267,0,0
119596.75,67.6608,-819.736,0,0
119857.075,68.6948,-817.782,0,0
120117.4,69.112,-815.905,0,0
120377.725,69.4713,-813.917,0,0
120638.05,69.8298,-811.94,0,0
120898.375,69.8049,-810.191,0,0
121158.7,69.4372,-807.993,0,0
121419.025,69.3477,-805.537,0,0
121679.35,69.3245,-803.132,0,0
121939.675,69.2771,-800.699,0,0
122200.0,69.1629,-798.259,0,0
122460,69.0753,-795.721,0,0
122721,68.99,-793.104,0,0
122981,68.9669,-790.447,0,0
123241,69.0051,-787.808,0,0
123502,69.0709,-785.228,0,0
123762,69.0766,-782.643,0,0
124022,69.0396,-780.05,0,0
124283,68.9878,-777.376,0,0
124543,68.9281,-774.671,0,0
124803,68.8624,-771.922,0,0
125064,68.7901,-769.133,0,0
125324,68.7715,-766.292,0,0
125584,68.7754,-763.404,0,0
125845,68.7757,-760.472,0,0
126105,68.8361,-757.443,0,0
126365,69.0018,-754.438,0,0
126626,69.2179,-751.373,0,0
126886,69.4776,-748.326,0,0
127146,69.834,-745.277,0,0
127406,70.1943,-742.142,0,0
127667,70.781,-738.973,0,0
127927,71.5082,-736.07,0,0
128187,72.1129,-733.226,0,0
128448,72.7434,-730.41,0,0
128708,73.4692,-727.594,0,0
128968,74.1478,-724.906,0,0
129229,74.8295,-722.242,0,0
129489,75.5311,-719.626,0,0
129749,76.2189,-717.05,0,0
130010,76.8844,-714.48,0,0
130270,77.6194,-711.977,0,0
130530,78.2802,-709.619,0,0
130791,78.8672,-707.269,0,0
131051,79.3772,-704.933,0,0
131311,79.907,-702.607,0,0
131572,80.3191,-700.292,0,0
131832,80.7337,-697.923,0,0
132092,81.0867,-695.634,0,0
132353,81.3362,-693.323,0,0
132613,81.588,-690.945,0,0
132873,81.71,-688.51,0,0
133134,81.8648,-685.99,0,0
133394,82.0182,-683.38,0,0
133654,82.2159,-680.729,0,0
133915,82.4408,-678.098,0,0
134175,82.6697,-675.466,0,0
134435,82.8559,-672.737,0,0
134696,83.0529,-669.968,0,0
134956,83.4114,-667.117,0,0
135216,83.7369,-664.364,0,0
135477,84.0247,-661.608,0,0
135737,84.2605,-658.796,0,0
135997,84.5826,-655.901,0,0
136258,84.9035,-652.996,0,0
136518,85.3098,-650.024,0,0
136778,85.6961,-647.052,0,0
137039,86.1786,-644.009,0,0
137299,86.7596,-641.012,0,0
137559,87.3967,-638.157,0,0
137819,87.8548,-635.348,0,0
138080,88.2896,-632.393,0,0
138340.125,88.7367,-629.397,0,0
138600.45,89.2232,-626.366,0,0
138860.775,89.7219,-623.29,0,0
139121.1,90.1347,-620.166,0,0
139381.425,90.657,-616.929,0,0
139641.75,91.2251,-613.673,0,0
139902.075,91.7702,-610.37,0,0
140162.4,92.2892,-606.905,0,0
140422.725,92.9875,-603.271,0,0
140683.05,93.9196,-599.534,0,0
140943.375,95.0587,-595.931,0,0
141203.7,96.0809,-592.381,0,0
141464.025,97.2217,-588.592,0,0
141724.35,98.6981,-584.794,0,0
141984.675,100.35,-581.122,0,0
142245.0,102.145,-577.631,0,0
142505.325,103.935,-574.287,0,0
142765.65,105.765,-570.901,0,0
143025.975,107.725,-567.617,0,0
143286.3,109.642,-564.594,0,0
143546.625,111.415,-561.498,0,0
143806.95,113.225,-558.333,0,0
144067.275,115.11,-555.127,0,0
144327.6,117.116,-551.991,0,0
144587.925,119.148,-548.804,0,0
144848.25,121.305,-545.653,0,0
145108.575,123.559,-542.515,0,0
145368.9,125.869,-539.52,0,0
145629.225,128.184,-536.621,0,0
145889.55,130.428,-533.724,0,0
146149.875,132.662,-530.771,0,0
146410.2,134.908,-527.718,0,0
146670.525,137.282,-524.556,0,0
146930.85,139.815,-521.336,0,0
147191.175,142.546,-518.064,0,0
147451.5,145.516,-514.842,0,0
147711.825,148.631,-511.714,0,0
147972.15,151.916,-508.617,0,0
148232.475,155.33,-505.614,0,0
148492.8,158.858,-502.601,0,0
148753.125,162.622,-499.513,0,0
149013.45,166.781,-496.347,0,0
149273.775,171.602,-493.34,0,0
149534.1,176.962,-490.915,0,0
149794.425,182.494,-489.131,0,0
150054.75,188.104,-487.898,0,0
150315.075,193.632,-487.212,0,0
150575.4,199.179,-486.846,0,0
150835.725,204.838,-487.065,0,0
151096.05,210.396,-488.015,0,0
151356.375,215.477,-489.633,0,0
151616.7,220.011,-491.547,0,0
151877.025,224.333,-493.69,0,0
152137.35,228.249,-496.4,0,0
152397.675,231.4,-499.357,0,0
152658.0,234.055,-502.29,0,0
152918.325,236.234,-505.301,0,0
153178.65,237.877,-508.282,0,0
153438.975,239.038,-511.176,0,0
153699.3,239.659,-513.806,0,0
153959.625,240.03,-516.138,0,0
154219.95,240.112,-518.268,0,0
154480,239.971,-520.093,0,0
154741,239.61,-521.413,0,0
155001,239.415,-522.741,0,0
155261,239.077,-523.874,0,0
155522,238.818,-524.723,0,0
155782,238.404,-525.603,0,0
156042,237.872,-526.363,0,0
156303,237.266,-526.973,0,0
156563,236.713,-527.387,0,0
156823,235.999,-527.903,0,0
157084,234.865,-528.124,0,0
157344,234.158,-527.802,0,0
157604,233.403,-527.745,0,0
157864,232.437,-527.359,0,0
158125,231.803,-526.729,0,0
158385,231.127,-526.326,0,0
158645,230.282,-525.797,0,0
158906,229.221,-525.009,0,0
159166,228.416,-523.708,0,0
159426,227.714,-522.452,0,0
159687,226.982,-520.855,0,0
159947,226.863,-518.716,0,0
160207,227.572,-517.164,0,0
160468,227.777,-515.914,0,0
160728,228.049,-514.534,0,0
160988,228.455,-512.874,0,0
161249,229.233,-511.157,0,0
161509,230.616,-509.399,0,0
161769,232.696,-508.418,0,0
162030,234.797,-508.314,0,0
162290,236.577,-509.069,0,0
162550,237.857,-510.161,0,0
162811,238.88,-511.68,0,0
163071,239.317,-514.031,0,0
163331,238.123,-516.748,0,0
163592,235.758,-518.441,0,0
163852,233.286,-519.368,0,0
164112,230.646,-519.81,0,0
164373,227.876,-519.87,0,0
164633,224.769,-519.87,0,0
164893,221.154,-519.084,0,0
165154,217.976,-517.397,0,0
165414,214.819,-515.662,0,0
165674,211.266,-513.541,0,0
165935,207.903,-510.568,0,0
166195,205.068,-506.793,0,0
166455,203.017,-502.89,0,0
166716,201.348,-499.144,0,0
166976,199.827,-495.569,0,0
167236,198.33,-491.806,0,0
167497,196.981,-487.869,0,0
167757,195.967,-483.949,0,0
168017,194.844,-480.038,0,0
168277,193.679,-475.841,0,0
168538,192.729,-471.329,0,0
168798,192.238,-466.404,0,0
169058,192.305,-461.546,0,0
169319,192.79,-456.904,0,0
169579,193.27,-452.571,0,0
169839,193.934,-448.327,0,0
170100,194.517,-444.076,0,0
170360.075,195.389,-439.871,0,0
170620.4,196.119,-436.03,0,0
170880.725,196.379,-431.992,0,0
171141.05,196.645,-427.494,0,0
171401.375,197.384,-422.477,0,0
171661.7,198.65,-417.436,0,0
171922.025,200.166,-412.673,0,0
172182.35,201.871,-408.076,0,0
172442.675,203.462,-403.604,0,0
172703.0,205.022,-398.838,0,0
172963.325,207.045,-393.897,0,0
173223.65,209.33,-389.177,0,0
173483.975,211.657,-384.485,0,0
173744.3,214.187,-379.701,0,0
174004.625,216.897,-375.07,0,0
174264.95,219.692,-370.342,0,0
174525.275,222.724,-365.54,0,0
174785.6,226.098,-360.603,0,0
175045.925,230.029,-355.853,0,0
175306.25,234.371,-351.431,0,0
175566.575,238.878,-347.516,0,0
175826.9,243.245,-344.018,0,0
176087.225,247.558,-340.456,0,0
176347.55,251.91,-336.975,0,0
176607.875,256.375,-333.516,0,0
176868.2,261.207,-329.954,0,0
177128.525,266.692,-326.547,0,0
177388.85,272.778,-323.987,0,0
177649.175,278.836,-322.442,0,0
177909.5,284.436,-321.774,0,0
178169.825,289.297,-321.716,0,0
178430.15,293.075,-321.732,0,0
178690.475,296.162,-319.834,0,0
178950.8,300.371,-318.721,0,0
179211.125,304.672,-318.172,0,0
179471.45,308.595,-318.15,0,0
179731.775,311.965,-318.415,0,0
179992.1,314.569,-318.933,0,0
180252.425,316.292,-319.173,0,0
180512.75,317.528,-318.832,0,0
180773.075,318.09,-317.917,0,0
181033.4,318.511,-316.02,0,0
181293.725,319.001,-313.206,0,0
181554.05,320.015,-309.629,0,0
181814.375,321.621,-305.726,0,0
182074.7,323.741,-301.703,0,0
182335.025,326.014,-297.651,0,0
182595.35,328.477,-293.048,0,0
182855.675,331.64,-288.149,0,0
183116.0,335.544,-283.405,0,0
183376.325,339.614,-278.989,0,0
183636.65,343.737,-274.419,0,0
183896.975,348.154,-269.716,0,0
184157.3,353.039,-264.823,0,0
184417.625,358.34,-259.959,0,0
184677.95,364.124,-255.101,0,0
184938.275,370.491,-250.224,0,0
185198.6,377.505,-245.605,0,0
185458.925,385.033,-241.44,0,0
185719.25,392.931,-237.631,0,0
185979.575,401.376,-234.38,0,0
186239.9,410.164,-231.987,0,0
186500,418.687,-230.827,0,0
186761,426.253,-230.012,0,0
187021,433.055,-228.933,0,0
187281,439.683,-227.03,0,0
187542,447.107,-224.343,0,0
187802,455.784,-222.064,0,0
188062,464.765,-220.981,0,0
188322,473.291,-220.785,0,0
188583,480.993,-220.621,0,0
188843,488.474,-220.043,0,0
189103,496.194,-218.896,0,0
189364,504.609,-217.943,0,0
189624,513.001,-217.362,0,0
189884,521.347,-216.868,0,0
190145,529.507,-216.215,0,0
190405,537.937,-215.219,0,0
190665,547.002,-213.746,0,0
190926,556.776,-212.346,0,0
191186,567.393,-210.965,0,0
191446,579.129,-210.204,0,0
191707,591.405,-210.499,0,0
191967,603.65,-211.619,0,0
192227,615.886,-213.082,0,0
192488,628.501,-214.76,0,0
192748,641.829,-216.875,0,0
193008,655.913,-219.948,0,0
193269,670.282,-224.312,0,0
193529,684.77,-229.933,0,0
193789,698.868,-237.017,0,0
194050,712.026,-244.995,0,0
194310,724.741,-253.358,0,0
194570,737.021,-262.464,0,0
194831,748.583,-272.047,0,0
195091,759.848,-281.692,0,0
195351,771.135,-291.716,0,0
195612,782.361,-302.676,0,0
195872,792.889,-314.612,0,0
196132,802.465,-327.091,0,0
196393,811.138,-339.519,0,0
196653,819.573,-351.652,0,0
196913,828.212,-364.17,0,0
197174,836.657,-377.53,0,0
197434,844.514,-391.653,0,0
197694,851.475,-406.448,0,0
197955,857.203,-421.321,0,0
198215,862.514,-435.591,0,0
198475,868.072,-449.937,0,0
198735,873.856,-465.163,0,0
198996,878.851,-481.637,0,0
199256,882.628,-498.931,0,0
199516,884.89,-516.415,0,0
199777,885.902,-533.597,0,0
200037,886.177,-550.011,0,0
200297,886.414,-566.367,0,0
200558,886.167,-582.99,0,0
200818,885.034,-600.196,0,0
201078,882.975,-617.279,0,0
201339,880.131,-634.488,0,0
201599,876.337,-651.924,0,0
201859,870.963,-669.26,0,0
202120,864.325,-685.873,0,0
202380.025,856.905,-701.852,0,0
202640.35,848.373,-717.221,0,0
202900.675,838.663,-731.892,0,0
203161.0,827.903,-744.94,0,0
203421.325,817.051,-756.535,0,0
203681.65,806.309,-767.028,0,0
203941.975,795.862,-776.755,0,0
204202.3,785.254,-785.836,0,0
204462.625,774.642,-793.936,0,0
204722.95,764.685,-800.903,0,0
204983.275,755.61,-807.805,0,0
205243.6,746.89,-815.632,0,0
205503.925,737.297,-823.347,0,0
205764.25,726.919,-831.061,0,0
206024.575,715.799,-837.582,0,0
206284.9,704.863,-842.893,0,0
206545.225,694.167,-847.536,0,0
206805.55,683.752,-851.748,0,0
207065.875,673.674,-855.163,0,0
207326.2,664.06,-858.379,0,0
207586.525,654.534,-861.361,0,0
207846.85,645.277,-863.974,0,0
208107.175,636.131,-866.193,0,0
208367.5,627.34,-867.825,0,0
208627.825,619.474,-869.124,0,0
208888.15,612.461,-870.822,0,0
209148.475,605.538,-873.144,0,0
209408.8,598.342,-876.058,0,0
209669.125,590.985,-879.123,0,0
209929.45,583.06,-882.27,0,0
210189.775,574.488,-885.24,0,0
210450.1,565.76,-887.744,0,0
210710.425,556.666,-889.844,0,0
210970.75,547.414,-891.644,0,0
211231.075,537.915,-892.895,0,0
211491.4,528.155,-893.602,0,0
211751.725,518.321,-893.468,0,0
212012.05,508.649,-892.442,0,0
212272.375,499.735,-890.535,0,0
212532.7,491.406,-888.284,0,0
212793.025,483.924,-886.237,0,0
213053.35,476.51,-884.158,0,0
213313.675,469.205,-881.92,0,0
213574.0,462.067,-879.341,0,0
213834.325,455.436,-876.415,0,0
214094.65,449.283,-873.409,0,0
214354.975,443.497,-870.481,0,0
214615.3,437.986,-867.543,0,0
214875.625,432.629,-864.549,0,0
215135.95,427.747,-861.82,0,0
215396.275,422.734,-859.013,0,0
215656.6,417.898,-856.242,0,0
215916.925,413.148,-853.341,0,0
216177.25,408.635,-850.24,0,0
216437.575,404.34,-847.022,0,0
216697.9,400.371,-843.809,0,0
216958.225,396.618,-840.633,0,0
217218.55,393.083,-837.467,0,0
217478.875,389.716,-834.199,0,0
217739.2,386.68,-831.054,0,0
217999.525,383.858,-827.936,0,0
218259.85,381.242,-824.91,0,0
218520,378.779,-821.992,0,0
218780,376.482,-819.069,0,0
219041,374.355,-816.24,0,0
219301,372.46,-813.535,0,0
219561,370.78,-810.947,0,0
219822,369.151,-808.546,0,0
220082,367.59,-806.392,0,0
220342,365.981,-804.364,0,0
220603,364.398,-802.337,0,0
220863,362.736,-800.332,0,0
221123,361.136,-798.184,0,0
221384,359.751,-795.968,0,0
221644,358.508,-793.788,0,0
221904,357.515,-791.656,0,0
222165,356.734,-789.572,0,0
222425,356.185,-787.682,0,0
222685,355.86,-785.977,0,0
222946,355.712,-784.605,0,0
223206,355.419,-783.617,0,0
223466,355.066,-782.775,0,0
223727,354.765,-782.128,0,0
223987,354.224,-781.63,0,0
224247,353.626,-781.171,0,0
224508,352.879,-780.872,0,0
224768,352.067,-780.313,0,0
225028,351.414,-779.903,0,0
225289,350.631,-779.539,0,0
225549,349.782,-779.164,0,0
225809,349.041,-778.825,0,0
226070,348.4,-778.444,0,0
226330,347.811,-777.985,0,0
226590,347.455,-777.817,0,0
226851,347.1,-777.831,0,0
227111,346.724,-778.155,0,0
227371,346.296,-778.5,0,0
227632,345.708,-778.963,0,0
227892,345.238,-779.538,0,0
228152,344.768,-780.228,0,0
228413,344.27,-781.103,0,0
228673,343.621,-782.24,0,0
228933,342.861,-783.521,0,0
229193,341.904,-785.041,0,0
229454,340.882,-786.666,0,0
229714,339.412,-788.505,0,0
229974,337.793,-790.239,0,0
230235,335.81,-792.034,0,0
230495,333.624,-793.689,0,0
230755,331.284,-795.387,0,0
231016,328.75,-796.957,0,0
231276,325.955,-798.567,0,0
231536,322.886,-799.946,0,0
231797,319.668,-801.032,0,0
232057,316.469,-801.885,0,0
232317,313.233,-802.591,0,0
232578,310.04,-803.193,0,0
232838,306.809,-803.758,0,0
233098,303.515,-804.157,0,0
233359,300.187,-804.477,0,0
233619,296.803,-804.635,0,0
233879,293.43,-804.609,0,0
234140,290.232,-804.507,0,0
234400,287.001,-804.379,0,0
234660.3,283.832,-804.212,0,0
234920.625,280.664,-804.119,0,0
235180.95,277.33,-804.106,0,0
235441.275,274.048,-803.879,0,0
235701.6,270.563,-803.466,0,0
235961.925,267.085,-802.947,0,0
236222.25,263.571,-802.348,0,0
236482.575,260.175,-801.591,0,0
236742.9,256.769,-800.739,0,0
237003.225,253.444,-799.857,0,0
237263.55,250.071,-798.857,0,0
237523.875,246.671,-797.86,0,0
237784.2,243.272,-796.682,0,0
238044.525,239.89,-795.297,0,0
238304.85,236.707,-793.726,0,0
238565.175,233.616,-792.161,0,0
238825.5,230.576,-790.566,0,0
239085.825,227.573,-788.963,0,0
239346.15,224.634,-787.268,0,0
239606.475,221.76,-785.409,0,0
239866.8,218.848,-783.662,0,0
240127.125,216.207,-781.772,0,0
240387.45,213.517,-779.728,0,0
240647.775,210.976,-777.775,0,0
240908.1,208.499,-775.662,0,0
241168.425,206.142,-773.566,0,0
241428.75,203.904,-771.339,0,0
241689.075,201.755,-769.148,0,0
241949.4,199.813,-766.993,0,0
242209.725,197.917,-764.948,0,0
242470.05,196.179,-762.907,0,0
242730.375,194.412,-760.839,0,0
242990.7,192.851,-758.815,0,0
243251.025,191.342,-756.858,0,0
243511.35,189.979,-755.05,0,0
243771.675,188.668,-753.401,0,0
244032.0,187.315,-751.89,0,0
244292.325,185.953,-750.494,0,0
244552.65,184.539,-749.295,0,0
244812.975,183.132,-748.133,0,0
245073.3,181.236,-746.992,0,0
245333.625,179.654,-745.89,0,0
245593.95,177.871,-744.713,0,0
245854.275,175.978,-743.718,0,0
246114.6,174.029,-742.737,0,0
246374.925,171.81,-741.804,0,0
246635.25,169.361,-740.859,0,0
246895.575,166.724,-739.753,0,0
247155.9,163.862,-738.387,0,0
247416.225,160.93,-736.748,0,0
247676.55,158.067,-734.755,0,0
247936.875,155.317,-732.554,0,0
248197.2,152.641,-730.283,0,0
248457.525,150.132,-727.876,0,0
248717.85,147.66,-725.47,0,0
248978.175,145.134,-722.867,0,0
249238.5,142.666,-720.142,0,0
249498.825,140.377,-717.203,0,0
249759.15,138.146,-714.239,0,0
250019.475,136.173,-711.105,0,0
250279.8,134.224,-707.954,0,0
250540,132.428,-704.752,0,0
250800,130.776,-701.431,0,0
251061,129.329,-698.045,0,0
251321,127.993,-694.721,0,0
251581,126.798,-691.358,0,0
251842,125.703,-688.019,0,0
252102,124.756,-684.677,0,0
252362,123.856,-681.346,0,0
252623,123.106,-678.015,0,0
252883,122.529,-674.682,0,0
253143,122.048,-671.432,0,0
253404,121.642,-668.26,0,0
253664,121.25,-665.13,0,0
253924,120.98,-661.987,0,0
254185,120.712,-658.839,0,0
254445,120.552,-655.678,0,0
254705,120.433,-652.556,0,0
254966,120.39,-649.469,0,0
255226,120.443,-646.475,0,0
255486,120.63,-643.297,0,0
255747,120.876,-640.197,0,0
256007,121.266,-637.157,0,0
256267,121.78,-634.134,0,0
256528,122.36,-631.179,0,0
256788,123.037,-628.289,0,0
257048,123.789,-625.436,0,0
257309,124.67,-622.601,0,0
257569,125.638,-619.894,0,0
257829,126.732,-617.261,0,0
258090,127.904,-614.697,0,0
258350,129.102,-612.328,0,0
258610,130.325,-610.049,0,0
258871,131.549,-607.811,0,0
259131,132.785,-605.663,0,0
259391,134.064,-603.507,0,0
259651,135.457,-601.39,0,0
259912,136.895,-599.339,0,0
260172,138.387,-597.354,0,0
260432,139.997,-595.502,0,0
260693,141.656,-593.774,0,0
260953,143.358,-592.129,0,0
261213,145.062,-590.62,0,0
261474,146.82,-589.193,0,0
261734,148.569,-587.91,0,0
261994,150.355,-586.747,0,0
262255,152.129,-585.726,0,0
262515,153.89,-584.823,0,0
262775,155.621,-584.054,0,0
263036,157.21,-583.319,0,0
263296,158.843,-582.615,0,0
263556,160.515,-582.004,0,0
263817,162.238,-581.482,0,0
264077,163.936,-581.166,0,0
264337,165.619,-580.994,0,0
264598,167.16,-580.964,0,0
264858,168.66,-581.125,0,0
265118,169.927,-581.386,0,0
265379,171.085,-581.634,0,0
265639,172.019,-581.98,0,0
265899,172.827,-582.297,0,0
266160,173.457,-582.591,0,0
266420,174.013,-582.682,0,0
266680.25,174.572,-582.745,0,0
266940.575,175.163,-582.715,0,0
267200.9,175.814,-582.727,0,0
267461.225,176.469,-582.813,0,0
267721.55,177.096,-582.957,0,0
267981.875,177.663,-583.217,0,0
268242.2,178.092,-583.52,0,0
268502.525,178.422,-583.847,0,0
268762.85,178.555,-584.175,0,0
269023.175,178.527,-584.483,0,0
269283.5,178.307,-584.63,0,0
269543.825,177.919,-584.595,0,0
269804.15,177.484,-584.23,0,0
270064.475,177.074,-583.652,0,0
270324.8,176.915,-582.84,0,0
270585.125,176.87,-581.91,0,0
270845.45,177.009,-580.797,0,0
271105.775,177.398,-579.68,0,0
271366.1,177.981,-578.561,0,0
271626.425,178.778,-577.517,0,0
271886.75,179.705,-576.546,0,0
272147.075,180.745,-575.692,0,0
272407.4,181.891,-574.883,0,0
272667.725,183.061,-574.095,0,0
272928.05,184.382,-573.306,0,0
273188.375,185.86,-572.563,0,0
273448.7,187.529,-571.841,0,0
273709.025,189.44,-571.187,0,0
273969.35,191.683,-570.711,0,0
274229.675,194.225,-570.544,0,0
274490.0,197.01,-570.777,0,0
274750.325,199.833,-571.48,0,0
275010.65,202.766,-572.755,0,0
275270.975,205.466,-574.405,0,0
275531.3,207.979,-576.536,0,0
275791.625,210.327,-579.076,0,0
276051.95,212.281,-582.012,0,0
276312.275,213.887,-585.272,0,0
276572.6,215.043,-588.784,0,0
276832.925,215.672,-592.485,0,0
277093.25,215.749,-596.261,0,0
277353.575,215.306,-599.97,0,0
277613.9,214.35,-603.466,0,0
277874.225,213.063,-606.754,0,0
278134.55,211.502,-609.835,0,0
278394.875,209.635,-612.624,0,0
278655.2,207.606,-615.073,0,0
278915.525,205.442,-617.274,0,0
279175.85,203.322,-619.23,0,0
279436.175,201.114,-621.005,0,0
279696.5,198.892,-622.66,0,0
279956.825,196.669,-624.151,0,0
280217.15,194.326,-625.568,0,0
280477.475,191.984,-626.878,0,0
280737.8,189.611,-628.059,0,0
280998.125,187.147,-629.246,0,0
281258.45,184.598,-630.299,0,0
281518.775,181.948,-631.25,0,0
281779.1,179.21,-632.029,0,0
282039.425,176.416,-632.681,0,0
282299.75,173.481,-633.236,0,0
282560,170.421,-633.607,0,0
282820,167.249,-633.688,0,0
283081,164.015,-633.497,0,0
283341,160.785,-632.907,0,0
283601,157.742,-631.984,0,0
283862,154.989,-630.756,0,0
284122,152.608,-629.44,0,0
284382,150.562,-628.175,0,0
284643,148.727,-627.128,0,0
284903,146.883,-626.438,0,0
285163,144.774,-625.835,0,0
285424,142.419,-625.253,0,0
285684,139.8,-624.4,0,0
285944,137.086,-623.308,0,0
286205,134.374,-621.95,0,0
286465,131.696,-620.34,0,0
286725,128.978,-618.51,0,0
286986,126.345,-616.367,0,0
287246,123.812,-613.966,0,0
287506,121.392,-611.271,0,0
287767,119.182,-608.293,0,0
288027,117.233,-604.981,0,0
288287,115.622,-601.398,0,0
288548,114.373,-597.652,0,0
288808,113.56,-593.721,0,0
289068,113.247,-589.695,0,0
289329,113.418,-585.671,0,0
289589,114.096,-581.727,0,0
289849,115.272,-577.916,0,0
290109,116.928,-574.352,0,0
290370,119.075,-571.111,0,0
290630,121.625,-568.352,0,0
290890,124.46,-566.133,0,0
291151,127.467,-564.457,0,0
291411,130.471,-563.391,0,0
291671,133.394,-562.834,0,0
291932,136.149,-562.683,0,0
292192,138.724,-562.926,0,0
292452,141.092,-563.498,0,0
292713,143.245,-564.383,0,0
292973,145.182,-565.595,0,0
293233,146.748,-567.117,0,0
293494,147.847,-568.918,0,0
293754,148.461,-570.817,0,0
294014,148.472,-572.581,0,0
294275,148.006,-574.064,0,0
294535,147.203,-575.13,0,0
294795,146.284,-575.637,0,0
295056,145.593,-575.558,0,0
295316,145.311,-575.138,0,0
295576,145.627,-574.605,0,0
295837,146.571,-574.368,0,0
296097,147.908,-574.657,0,0
296357,149.317,-575.657,0,0
296618,150.519,-577.337,0,0
296878,151.221,-579.561,0,0
297138,151.286,-582.058,0,0
297399,150.714,-584.611,0,0
297659,149.513,-587.026,0,0
297919,147.826,-589.118,0,0
298180,145.806,-590.772,0,0
298440,143.628,-591.988,0,0
298700.2,141.458,-592.823,0,0
298960.525,139.345,-593.363,0,0
299220.85,137.329,-593.684,0,0
299481.175,135.439,-593.868,0,0
299741.5,133.618,-593.973,0,0
300001.825,131.821,-594.026,0,0
300262.15,130.039,-593.989,0,0
300522.475,128.219,-593.862,0,0
300782.8,126.392,-593.563,0,0
301043.125,124.635,-593.102,0,0
301303.45,122.987,-592.513,0,0
301563.775,121.449,-591.822,0,0
301824.1,120.069,-591.013,0,0
302084.425,118.884,-590.164,0,0
302344.75,117.909,-589.317,0,0
302605.075,117.133,-588.579,0,0
302865.4,116.49,-588.037,0,0
303125.725,115.895,-587.671,0,0
303386.05,115.262,-587.519,0,0
303646.375,114.53,-587.51,0,0
303906.7,113.644,-587.625,0,0
304167.025,112.609,-587.766,0,0
304427.35,111.423,-587.92,0,0
304687.675,110.156,-588.012,0,0
304948.0,108.763,-588.094,0,0
305208.325,107.219,-588.136,0,0
305468.65,105.541,-588.09,0,0
305728.975,103.765,-587.913,0,0
305989.3,101.932,-587.566,0,0
306249.625,100.096,-587.079,0,0
306509.95,98.2681,-586.45,0,0
306770.275,96.4709,-585.702,0,0
307030.6,94.7087,-584.837,0,0
307290.925,93.0153,-583.833,0,0
307551.25,91.4113,-582.777,0,0
307811.575,89.901,-581.643,0,0
308071.9,88.4738,-580.498,0,0
308332.225,87.1349,-579.331,0,0
308592.55,85.815,-578.168,0,0
308852.875,84.5445,-576.996,0,0
309113.2,83.3052,-575.793,0,0
309373.525,82.1183,-574.585,0,0
309633.85,80.9365,-573.336,0,0
309894.175,79.8222,-572.086,0,0
310154.5,78.7189,-570.792,0,0
310414.825,77.6621,-569.523,0,0
310675.15,76.6528,-568.226,0,0
310935.475,75.6669,-566.914,0,0
311195.8,74.6891,-565.589,0,0
311456.125,73.7835,-564.228,0,0
311716.45,72.915,-562.843,0,0
311976.775,72.113,-561.453,0,0
312237.1,71.3753,-560.09,0,0
312497.425,70.6785,-558.725,0,0
312757.75,70.0274,-557.388,0,0
313018.075,69.39,-556.082,0,0
313278.4,68.7733,-554.808,0,0
313538.725,68.1741,-553.551,0,0
313799.05,67.5667,-552.302,0,0
314059.375,66.99,-551.042,0,0
314319.7,66.4093,-549.79,0,0
314580,65.8395,-548.566,0,0
314840,65.3457,-547.265,0,0
315101,64.7558,-546.001,0,0
315361,64.2273,-544.868,0,0
315621,63.7683,-543.548,0,0
315882,63.1767,-542.325,0,0
316142,62.7141,-541.083,0,0
316402,62.2425,-539.771,0,0
316663,61.785,-538.479,0,0
316923,61.3958,-537.194,0,0
317183,60.9678,-535.842,0,0
317444,60.6579,-534.57,0,0
317704,60.3951,-533.274,0,0
317964,60.1094,-531.989,0,0
318225,59.8602,-530.807,0,0
318485,59.6833,-529.495,0,0
318745,59.4377,-528.34,0,0
319006,59.3232,-527.215,0,0
319266,59.1321,-526.049,0,0
319526,58.9354,-524.917,0,0
319787,58.774,-523.811,0,0
320047,58.5146,-522.728,0,0
320307,58.3527,-521.692,0,0
320567,58.0735,-520.567,0,0
320828,57.8428,-519.446,0,0
321088,57.6992,-518.297,0,0
321348,57.4737,-517.212,0,0
321609,57.3067,-516.142,0,0
321869,57.1443,-514.991,0,0
322129,56.982,-513.868,0,0
322390,56.803,-512.745,0,0
322650,56.6511,-511.623,0,0
322910,56.43,-510.506,0,0
323171,56.3295,-509.295,0,0
323431,56.1186,-508.128,0,0
323691,55.9971,-506.949,0,0
323952,55.8795,-505.749,0,0
324212,55.7512,-504.44,0,0
324472,55.7012,-503.082,0,0
324733,55.7728,-501.684,0,0
324993,55.8902,-500.268,0,0
325253,56.0913,-499.003,0,0
325514,56.4324,-497.618,0,0
325774,56.8938,-496.281,0,0
326034,57.4018,-495.088,0,0
326295,57.9658,-493.948,0,0
326555,58.6436,-492.848,0,0
326815,59.314,-492.009,0,0
327076,59.8888,-491.185,0,0
327336,60.5986,-490.486,0,0
327596,61.1786,-489.884,0,0
327857,61.7264,-489.361,0,0
328117,62.2182,-488.871,0,0
328377,62.6215,-488.4,0,0
328638,62.979,-487.941,0,0
328898,63.3797,-487.498,0,0
329158,63.7417,-487.061,0,0
329419,64.1149,-486.669,0,0
329679,64.4217,-486.286,0,0
329939,64.7451,-485.931,0,0
330200,65.0387,-485.646,0,0
330460,65.3502,-485.433,0,0
330720.15,65.6028,-485.218,0,0
330980.475,65.7365,-485.053,0,0
331240.8,65.8831,-484.9,0,0
331501.125,66.0047,-484.763,0,0
331761.45,66.0282,-484.713,0,0
332021.775,66.0247,-484.629,0,0
332282.1,65.8843,-484.571,0,0
332542.425,65.7467,-484.529,0,0
332802.75,65.4601,-484.416,0,0
333063.075,65.2051,-484.314,0,0
333323.4,64.7944,-484.132,0,0
333583.725,64.3125,-483.936,0,0
333844.05,63.8587,-483.634,0,0
334104.375,63.3574,-483.285,0,0
334364.7,62.9579,-482.872,0,0
334625.025,62.4378,-482.417,0,0
334885.35,61.9115,-481.929,0,0
335145.675,61.5579,-481.326,0,0
335406.0,61.0755,-480.843,0,0
335666.325,60.6569,-480.213,0,0
335926.65,60.1426,-479.603,0,0
336186.975,59.7882,-478.973,0,0
336447.3,59.2914,-478.341,0,0
336707.625,58.9485,-477.595,0,0
336967.95,58.5112,-476.98,0,0
337228.275,58.1221,-476.19,0,0
337488.6,57.7557,-475.443,0,0
337748.925,57.3781,-474.623,0,0
338009.25,57.0655,-473.817,0,0
338269.575,56.8002,-473.017,0,0
338529.9,56.5012,-472.182,0,0
338790.225,56.2718,-471.356,0,0
339050.55,55.9956,-470.559,0,0
339310.875,55.8556,-469.79,0,0
339571.2,55.596,-468.861,0,0
339831.525,55.4041,-468.082,0,0
340091.85,55.285,-467.232,0,0
340352.175,55.0869,-466.444,0,0
340612.5,54.8914,-465.596,0,0
340872.825,54.7604,-464.736,0,0
341133.15,54.6225,-463.915,0,0
341393.475,54.4945,-463.074,0,0
341653.8,54.3606,-462.216,0,0
341914.125,54.2738,-461.356,0,0
342174.45,54.1732,-460.493,0,0
342434.775,54.0506,-459.626,0,0
342695.1,54.0617,-458.747,0,0
342955.425,54.0515,-457.806,0,0
343215.75,54.0127,-456.983,0,0
343476.075,54.0251,-456.096,0,0
343736.4,54.016,-455.167,0,0
343996.725,54.0545,-454.288,0,0
344257.05,54.1342,-453.408,0,0
344517.375,54.241,-452.54,0,0
344777.7,54.3191,-451.682,0,0
345038.025,54.4229,-450.791,0,0
345298.35,54.5929,-449.944,0,0
345558.675,54.7168,-449.108,0,0
345819.0,54.9496,-448.283,0,0
346079.325,55.1015,-447.433,0,0
346339.65,55.3405,-446.675,0,0
346599.975,55.5774,-445.878,0,0
346860,55.8242,-445.116,0,0
347121,56.0297,-444.353,0,0
347381,56.3659,-443.615,0,0
347641,56.6323,-442.881,0,0
347902,56.908,-442.158,0,0
348162,57.1547,-441.493,0,0
348422,57.4327,-440.779,0,0
348683,57.7573,-440.088,0,0
348943,58.0713,-439.396,0,0
349203,58.3849,-438.779,0,0
349464,58.7321,-438.151,0,0
349724,59.1544,-437.54,0,0
349984,59.4854,-437,0,0
350245,59.9109,-436.486,0,0
350505,60.3072,-435.961,0,0
350765,60.6864,-435.496,0,0
351025,61.038,-435.096,0,0
351286,61.3555,-434.681,0,0
351546,61.6476,-434.271,0,0
351806,61.8758,-433.933,0,0
352067,62.1274,-433.527,0,0
352327,62.3732,-433.152,0,0
352587,62.5868,-432.767,0,0
352848,62.812,-432.346,0,0
353108,63.0005,-431.917,0,0
353368,63.2259,-431.498,0,0
353629,63.467,-431.055,0,0
353889,63.6673,-430.614,0,0
354149,63.9123,-430.184,0,0
354410,64.1333,-429.765,0,0
354670,64.4278,-429.361,0,0
354930,64.6736,-429,0,0
355191,64.9527,-428.57,0,0
355451,65.2064,-428.206,0,0
355711,65.4714,-427.791,0,0
355972,65.7725,-427.514,0,0
356232,66.0137,-427.113,0,0
356492,66.3139,-426.804,0,0
356753,66.5662,-426.482,0,0
357013,66.8363,-426.087,0,0
357273,67.1116,-425.722,0,0
357534,67.3878,-425.431,0,0
357794,67.7438,-425.111,0,0
358054,68.0527,-424.839,0,0
358315,68.3842,-424.559,0,0
358575,68.7573,-424.341,0,0
358835,69.1149,-424.083,0,0
359096,69.4808,-423.91,0,0
359356,69.8641,-423.861,0,0
359616,70.1862,-423.748,0,0
359877,70.4965,-423.744,0,0
360137,70.8121,-423.745,0,0
360397,71.0311,-423.743,0,0
360658,71.2405,-423.814,0,0
360918,71.4342,-423.865,0,0
361178,71.4922,-423.998,0,0
361438,71.5886,-424.025,0,0
361699,71.656,-424.128,0,0
361959,71.6354,-424.185,0,0
362219,71.5666,-424.192,0,0
362480,71.5941,-424.224,0,0
362740.1,71.5296,-424.22,0,0
363000.425,71.4221,-424.184,0,0
363260.75,71.3279,-424.186,0,0
363521.075,71.2432,-424.148,0,0
363781.4,71.1752,-424.11,0,0
364041.725,70.9958,-424.149,0,0
364302.05,70.831,-424.054,0,0
364562.375,70.6486,-423.994,0,0
364822.7,70.5127,-423.93,0,0
365083.025,70.2872,-423.773,0,0
365343.35,70.0299,-423.673,0,0
365603.675,69.9122,-423.504,0,0
365864.0,69.6671,-423.31,0,0
366124.325,69.4519,-423.128,0,0
366384.65,69.2576,-422.934,0,0
366644.975,69.0429,-422.657,0,0
366905.3,68.8713,-422.406,0,0
367165.625,68.7186,-422.07,0,0
367425.95,68.6203,-421.756,0,0
367686.275,68.5476,-421.462,0,0
367946.6,68.4905,-421.249,0,0
368206.925,68.4691,-420.961,0,0
368467.25,68.4071,-420.77,0,0
368727.575,68.4243,-420.519,0,0
368987.9,68.4383,-420.374,0,0
369248.225,68.4172,-420.26,0,0
369508.55,68.4066,-420.207,0,0
369768.875,68.3412,-420.163,0,0
370029.2,68.2222,-420.129,0,0
370289.525,68.0518,-420.101,0,0
370549.85,67.8849,-420.096,0,0
370810.175,67.5756,-420.041,0,0
371070.5,67.3165,-419.875,0,0
371330.825,67.0381,-419.742,0,0
371591.15,66.7771,-419.555,0,0
371851.475,66.529,-419.373,0,0
372111.8,66.325,-419.172,0,0
372372.125,66.0977,-418.998,0,0
372632.45,65.8274,-418.805,0,0
372892.775,65.7015,-418.646,0,0
373153.1,65.4144,-418.487,0,0
373413.425,65.2116,-418.288,0,0
373673.75,64.948,-418.117,0,0
373934.075,64.6951,-417.991,0,0
374194.4,64.4594,-417.795,0,0
374454.725,64.1163,-417.689,0,0
374715.05,63.8388,-417.507,0,0
374975.375,63.4973,-417.352,0,0
375235.7,63.216,-417.126,0,0
375496.025,62.836,-416.938,0,0
375756.35,62.4542,-416.691,0,0
376016.675,62.0677,-416.445,0,0
376277.0,61.6961,-416.176,0,0
376537.325,61.3125,-415.875,0,0
376797.65,61.0229,-415.529,0,0
377057.975,60.7125,-415.247,0,0
377318.3,60.4729,-414.897,0,0
377578.625,60.2426,-414.641,0,0
377838.95,60.0259,-414.438,0,0
378099.275,59.7536,-414.298,0,0
378359.6,59.3859,-414.167,0,0
378619.925,58.9391,-414.073,0,0
378880,58.435,-413.931,0,0
379141,57.8363,-413.73,0,0
379401,57.1191,-413.435,0,0
379661,56.4323,-413.033,0,0
379922,55.7709,-412.517,0,0
380182,55.1204,-411.816,0,0
380442,54.6005,-411.119,0,0
380703,54.1728,-410.237,0,0
380963,53.9166,-409.462,0,0
381223,53.7967,-408.66,0,0
381483,53.7514,-408,0,0
381744,53.7441,-407.449,0,0
382004,53.7743,-407,0,0
382264,53.7459,-406.624,0,0
382525,53.6529,-406.31,0,0
382785,53.5444,-406.06,0,0
383045,53.2863,-405.823,0,0
383306,52.9775,-405.547,0,0
383566,52.6103,-405.292,0,0
383826,52.2774,-404.975,0,0
384087,51.8799,-404.643,0,0
384347,51.4471,-404.223,0,0
384607,51.0512,-403.783,0,0
384868,50.6229,-403.313,0,0
385128,50.1671,-402.818,0,0
385388,49.8557,-402.259,0,0
385649,49.4688,-401.715,0,0
385909,49.0639,-401.168,0,0
386169,48.7139,-400.562,0,0
386430,48.3544,-400.006,0,0
386690,47.989,-399.351,0,0
386950,47.6785,-398.764,0,0
387211,47.3365,-398.114,0,0
387471,47.0208,-397.462,0,0
387731,46.7327,-396.784,0,0
387992,46.4582,-396.081,0,0
388252,46.1735,-395.356,0,0
388512,45.9844,-394.689,0,0
388773,45.7932,-393.928,0,0
389033,45.6335,-393.149,0,0
389293,45.5356,-392.45,0,0
389554,45.4234,-391.714,0,0
389814,45.3869,-390.976,0,0
390074,45.3382,-390.32,0,0
390335,45.4027,-389.637,0,0
390595,45.5011,-389.023,0,0
390855,45.5831,-388.45,0,0
391116,45.6677,-387.966,0,0
391376,45.7227,-387.516,0,0
391636,45.7513,-387.127,0,0
391896,45.7336,-386.813,0,0
392157,45.6494,-386.456,0,0
392417,45.4779,-386.153,0,0
392677,45.2028,-385.821,0,0
392938,44.981,-385.453,0,0
393198,44.6687,-385.076,0,0
393458,44.321,-384.63,0,0
393719,43.9605,-384.106,0,0
393979,43.5907,-383.529,0,0
394239,43.2277,-382.922,0,0
394500,42.8578,-382.261,0,0
394760.05,42.4995,-381.499,0,0
395020.375,42.2213,-380.783,0,0
395280.7,41.9312,-379.987,0,0
395541.025,41.7369,-379.19,0,0
395801.35,41.5402,-378.41,0,0
396061.675,41.4023,-377.553,0,0
396322.0,41.2811,-376.704,0,0
396582.325,41.2009,-375.895,0,0
396842.65,41.1421,-375.097,0,0
397102.975,41.1414,-374.288,0,0
397363.3,41.1113,-373.493,0,0
397623.625,41.1128,-372.67,0,0
397883.95,41.2144,-371.876,0,0
398144.275,41.2809,-371.145,0,0
398404.6,41.3691,-370.395,0,0
398664.925,41.4211,-369.603,0,0
398925.25,41.5538,-368.888,0,0
399185.575,41.7255,-368.151,0,0
399445.9,41.8203,-367.475,0,0
399706.225,41.9711,-366.825,0,0
399966.55,42.108,-366.128,0,0
400006.6,42.1814,-366.019,0,0