File: Accelerated corrosion test data/2025-10-01_06-00-03/sample_7.csv
Frequency (Hz),Impedance (ohms),Phase (Radians),Temperature (C),Humidity (%)
10000.0,278.719,-12091.6,0,0
10260.325,282.408,-11800.4,0,0
10520.65,262.045,-11501.5,0,0
10780.975,256.472,-11220.4,0,0
11041.3,253.333,-10952.4,0,0
11301.625,250.325,-10696.8,0,0
11561.95,251.969,-10448.2,0,0
11822.275,261.484,-10219.3,0,0
12082.6,265.616,-9995.4,0,0
12342.925,326.614,-9806.87,0,0
12603.25,267.431,-9651.6,0,0
12863.575,272.397,-9448.1,0,0
13123.9,242.102,-9275.5,0,0
13384.225,237.397,-9100.3,0,0
13644.55,224.584,-8916.36,0,0
13904.875,211.931,-8753.07,0,0
14165.2,208.609,-8581.61,0,0
14425.525,211.454,-8443.09,0,0
14685.8,207.614,-8288.54,0,0
14946.175,201.753,-8143.59,0,0
15206.5,202.071,-8012.42,0,0
15466.825,187.767,-7872.93,0,0
15727.15,188.665,-7744.08,0,0
15987.5,182.498,-7615.28,0,0
16247.8,182.689,-7493.73,0,0
16508.125,174.59,-7373.97,0,0
16768.45,173.589,-7255.25,0,0
17028.775,173.607,-7145.39,0,0
17289.1,170.05,-7037.01,0,0
17549.425,168.845,-6927.24,0,0
17809.75,171.142,-6818.37,0,0
18070.075,173.52,-6722.11,0,0
18330.4,181.278,-6615.45,0,0
18590.725,200.229,-6529.85,0,0
18851.05,197.9,-6466.39,0,0
19111.375,185.182,-6383.83,0,0
19371.7,207.118,-6302.09,0,0
19632.025,174.177,-6237.16,0,0
19892.35,159.354,-6140.22,0,0
20152.675,171.834,-6052.27,0,0
20413.0,175.001,-5980.39,0,0
20673.3,170.737,-5904.89,0,0
20933.65,179.562,-5841.71,0,0
21193.975,163.09,-5782.33,0,0
21454.3,154.345,-5707.45,0,0
21714.625,157.689,-5638.52,0,0
21974.9,149.84,-5576.45,0,0
22235.275,143.774,-5508.17,0,0
22495.6,142.392,-5444.32,0,0
22755.925,137.124,-5381.7,0,0
23016.25,133.264,-5318.48,0,0
23276.6,130.958,-5255.81,0,0
23536.9,131.042,-5194.57,0,0
23797.225,131.118,-5139.61,0,0
24057.55,127.029,-5082.94,0,0
24317.875,125.08,-5025.72,0,0
24578.2,126.317,-4970.18,0,0
24838.525,124.9,-4917.01,0,0
25098.85,123.31,-4865.35,0,0
25359.175,122.006,-4813.24,0,0
25619.5,121.357,-4761.41,0,0
25879.8,122.126,-4710.97,0,0
26140.1,121.656,-4659.43,0,0
26400.5,126.235,-4611.59,0,0
26660.8,125.354,-4567.19,0,0
26921.1,125.073,-4516.42,0,0
27181.4,131.898,-4468.35,0,0
27441.8,135.36,-4424.61,0,0
27702.1,146.287,-4375.44,0,0
27962.4,161.323,-4334.97,0,0
28222.7,182.563,-4309.7,0,0
28483.1,183.792,-4293.2,0,0
28743.4,177.422,-4274.87,0,0
29003.7,161.763,-4246.72,0,0
29264,146.504,-4210.91,0,0
29524.4,138.25,-4170.25,0,0
29784.7,134.917,-4131.92,0,0
30045,129.363,-4090.31,0,0
30305.3,132.922,-4051.66,0,0
30565.7,134.297,-4019.1,0,0
30826,137.183,-3986.03,0,0
31086.3,138.982,-3958.28,0,0
31346.6,134.659,-3931.96,0,0
31607,132.936,-3904.53,0,0
31867.3,122.92,-3874.73,0,0
32127.6,120.04,-3842.06,0,0
32387.9,116.355,-3811.68,0,0
32648.3,112.553,-3781.24,0,0
32908.6,109.19,-3750.55,0,0
33168.9,106.741,-3720.6,0,0
33429.2,104.176,-3690.72,0,0
33689.6,101.565,-3660.76,0,0
33949.9,99.7908,-3631.62,0,0
34210.2,97.6888,-3602.91,0,0
34470.5,95.8654,-3574.32,0,0
34730.9,94.8994,-3546.4,0,0
34991.2,93.7587,-3518.83,0,0
35251.5,92.7013,-3492.01,0,0
35511.8,91.5521,-3464.97,0,0
35772.2,90.884,-3438.66,0,0
36032.5,90.3495,-3412.89,0,0
36292.8,89.7968,-3387.68,0,0
36553.1,88.8342,-3362.45,0,0
36813.5,88.1772,-3337.75,0,0
37073.8,88.0909,-3313.08,0,0
37334.1,88.1937,-3289.08,0,0
37594.4,88.0695,-3265.43,0,0
37854.8,87.1744,-3242.16,0,0
38115.1,87.1413,-3218.21,0,0
38375.4,87.4386,-3195.14,0,0
38635.7,88.3942,-3172.03,0,0
38896.1,89.7766,-3149.62,0,0
39156.4,91.708,-3128.31,0,0
39416.7,94.1628,-3106.8,0,0
39677,97.6904,-3087.96,0,0
39937.4,99.5008,-3071.91,0,0
40197.7,99.2515,-3055.65,0,0
40458,97.4812,-3039.54,0,0
40718.3,94.3028,-3021.73,0,0
40978.7,91.4543,-3003.16,0,0
41239,89.0994,-2984.54,0,0
41499.3,86.7193,-2965.03,0,0
41759.6,85.8069,-2945.66,0,0
42020,84.1349,-2927.23,0,0
42280.275,82.7396,-2908.06,0,0
42540.6,81.7973,-2888.65,0,0
42800.925,82.1725,-2869.98,0,0
43061.25,81.8671,-2851.82,0,0
43321.575,82.9,-2834.7,0,0
43581.9,81.5552,-2817.86,0,0
43842.225,81.093,-2799.62,0,0
44102.55,82.3176,-2781.82,0,0
44362.875,84.0011,-2765.91,0,0
44623.2,84.5265,-2751.2,0,0
44883.525,84.4617,-2737.77,0,0
45143.85,82.243,-2722.29,0,0
45404.175,80.9888,-2706.48,0,0
45664.5,80.9148,-2689.6,0,0
45924.825,82.3383,-2675.59,0,0
46185.15,81.5101,-2662.7,0,0
46445.475,79.5162,-2649.2,0,0
46705.8,77.0721,-2634.84,0,0
46966.125,74.9573,-2619.37,0,0
47226.45,73.6237,-2603.15,0,0
47486.775,73.2413,-2588.05,0,0
47747.1,72.5901,-2573.39,0,0
48007.425,72.32,-2558.89,0,0
48267.75,71.9037,-2544.52,0,0
48528.075,71.064,-2530.76,0,0
48788.4,70.7089,-2516.83,0,0
49048.725,70.1303,-2503.05,0,0
49309.05,69.4496,-2489.23,0,0
49569.375,69.1036,-2475.74,0,0
49829.7,68.6109,-2462.11,0,0
50090.025,68.4682,-2448.87,0,0
50350.35,68.0363,-2435.86,0,0
50610.675,67.589,-2422.78,0,0
50871.0,67.3898,-2410.15,0,0
51131.325,67.0107,-2397.36,0,0
51391.65,66.7021,-2384.76,0,0
51651.975,66.2182,-2372.17,0,0
51912.3,65.9718,-2359.83,0,0
52172.625,65.7661,-2347.45,0,0
52432.95,65.6324,-2335.62,0,0
52693.275,65.5254,-2323.48,0,0
52953.6,65.3603,-2311.72,0,0
53213.925,65.3337,-2300.02,0,0
53474.25,65.1661,-2288.64,0,0
53734.575,64.8505,-2277.42,0,0
53994.9,64.4549,-2266.22,0,0
54255.225,64.1557,-2254.85,0,0
54515.55,63.9367,-2243.68,0,0
54775.875,63.5219,-2232.47,0,0
55036.2,63.339,-2221.56,0,0
55296.525,63.1188,-2210.69,0,0
55556.85,62.9278,-2199.97,0,0
55817.175,62.7794,-2189.32,0,0
56077.5,62.4765,-2178.65,0,0
56337.825,62.5526,-2168.04,0,0
56598.15,62.52,-2157.83,0,0
56858.475,62.1239,-2147.74,0,0
57118.8,62.0859,-2137.55,0,0
57379.125,61.7929,-2127.44,0,0
57639.45,61.7126,-2117.41,0,0
57899.775,61.4348,-2107.3,0,0
58160.1,61.3613,-2097.26,0,0
58420.4,61.7934,-2087.42,0,0
58680.7,61.9318,-2078.14,0,0
58941.1,61.8371,-2068.96,0,0
59201.4,61.4929,-2059.48,0,0
59461.7,61.5398,-2050.02,0,0
59722,61.7857,-2040.95,0,0
59982.4,61.6829,-2032.04,0,0
60242.7,61.7201,-2023.08,0,0
60503,61.54,-2014.72,0,0
60763.3,61.1315,-2006.03,0,0
61023.7,60.6605,-1997.33,0,0
61284,60.2773,-1988.6,0,0
61544.3,60.0487,-1979.85,0,0
61804.6,59.5531,-1971.29,0,0
62065,59.0404,-1962.7,0,0
62325.3,58.7172,-1954,0,0
62585.6,58.5202,-1945.35,0,0
62845.9,58.2699,-1936.85,0,0
63106.3,58.0868,-1928.39,0,0
63366.6,58.0131,-1920.01,0,0
63626.9,57.9189,-1911.81,0,0
63887.2,57.5381,-1903.87,0,0
64147.6,57.1377,-1895.71,0,0
64407.9,56.9971,-1887.53,0,0
64668.2,56.8353,-1879.42,0,0
64928.5,56.7911,-1871.44,0,0
65188.9,56.8863,-1863.33,0,0
65449.2,57.0405,-1855.67,0,0
65709.5,57.2595,-1848.11,0,0
65969.8,56.9908,-1840.87,0,0
66230.2,56.7396,-1833.46,0,0
66490.5,56.5022,-1826.1,0,0
66750.8,56.1366,-1818.7,0,0
67011.1,55.7967,-1811.55,0,0
67271.5,55.1528,-1804.07,0,0
67531.8,54.8809,-1796.68,0,0
67792.1,54.6051,-1789.26,0,0
68052.4,54.4514,-1781.88,0,0
68312.8,54.1436,-1774.5,0,0
68573.1,54.008,-1767.18,0,0
68833.4,53.8865,-1760.08,0,0
69093.7,53.7771,-1752.95,0,0
69354.1,53.7628,-1745.8,0,0
69614.4,53.5552,-1738.85,0,0
69874.7,53.5049,-1731.84,0,0
70135,53.4945,-1725.02,0,0
70395.4,53.4567,-1718.29,0,0
70655.7,53.3908,-1711.48,0,0
70916,53.3611,-1704.86,0,0
71176.3,53.3035,-1698.29,0,0
71436.7,53.1338,-1691.94,0,0
71697,52.8863,-1685.38,0,0
71957.3,52.6343,-1678.86,0,0
72217.6,52.4325,-1672.42,0,0
72478,52.1898,-1666.02,0,0
72738.3,52.0587,-1659.59,0,0
72998.6,51.8582,-1653.22,0,0
73258.9,51.6622,-1646.78,0,0
73519.3,51.5565,-1640.51,0,0
73779.6,51.3812,-1634.2,0,0
74039.9,51.2618,-1627.93,0,0
74300.225,51.0859,-1621.71,0,0
74560.55,51.0414,-1615.54,0,0
74820.875,50.9309,-1609.49,0,0
75081.2,50.8222,-1603.31,0,0
75341.525,50.7514,-1597.36,0,0
75601.85,50.677,-1591.33,0,0
75862.175,50.6064,-1585.42,0,0
76122.5,50.3781,-1579.47,0,0
76382.825,50.3411,-1573.61,0,0
76643.15,50.2606,-1567.74,0,0
76903.475,50.2865,-1561.91,0,0
77163.8,50.1726,-1556.13,0,0
77424.125,50.1139,-1550.37,0,0
77684.45,50.0192,-1544.7,0,0
77944.775,50.0479,-1539.02,0,0
78205.1,49.91,-1533.47,0,0
78465.425,49.8898,-1527.79,0,0
78725.75,49.7712,-1522.22,0,0
78986.075,49.7113,-1516.73,0,0
79246.4,49.6714,-1511.15,0,0
79506.725,49.6555,-1505.64,0,0
79767.05,49.6395,-1500.24,0,0
80027.375,49.6527,-1494.9,0,0
80287.7,49.6058,-1489.57,0,0
80548.025,49.5893,-1484.25,0,0
80808.35,49.5642,-1479.03,0,0
81068.675,49.4461,-1473.71,0,0
81329.0,49.3533,-1468.44,0,0
81589.325,49.3188,-1463.27,0,0
81849.65,49.2518,-1458.04,0,0
82109.975,49.25,-1452.86,0,0
82370.3,49.2048,-1447.73,0,0
82630.625,49.223,-1442.54,0,0
82890.95,49.2373,-1437.53,0,0
83151.275,49.1846,-1432.53,0,0
83411.6,49.1476,-1427.52,0,0
83671.925,49.1012,-1422.5,0,0
83932.25,49.1444,-1417.46,0,0
84192.575,49.1779,-1412.48,0,0
84452.9,49.2417,-1407.63,0,0
84713.225,49.2675,-1402.75,0,0
84973.55,49.2599,-1397.95,0,0
85233.875,49.4469,-1393.14,0,0
85494.2,49.5273,-1388.39,0,0
85754.525,49.3791,-1383.72,0,0
86014.85,49.4175,-1378.92,0,0
86275.175,49.4312,-1374.25,0,0
86535.5,49.459,-1369.57,0,0
86795.825,49.411,-1365.02,0,0
87056.15,49.4454,-1360.32,0,0
87316.475,49.5025,-1355.67,0,0
87576.8,49.5527,-1351.05,0,0
87837.125,49.6431,-1346.52,0,0
88097.45,49.7339,-1341.97,0,0
88357.775,49.7933,-1337.63,0,0
88618.1,49.7956,-1333.13,0,0
88878.425,49.7563,-1328.68,0,0
89138.75,49.688,-1324.26,0,0
89399.075,49.7097,-1319.78,0,0
89659.4,49.7576,-1315.43,0,0
89919.725,49.647,-1310.94,0,0
90180,49.6879,-1306.54,0,0
90440.4,49.852,-1302.07,0,0
90700.7,49.8986,-1297.75,0,0
90961,50.1108,-1293.47,0,0
91221.3,50.1936,-1289.22,0,0
91481.7,50.3118,-1284.88,0,0
91742,50.5181,-1280.75,0,0
92002.3,50.6176,-1276.6,0,0
92262.6,50.696,-1272.41,0,0
92523,50.9068,-1268.27,0,0
92783.3,50.8901,-1264.32,0,0
93043.6,50.7584,-1260.26,0,0
93303.9,50.6552,-1255.72,0,0
93564.3,50.8759,-1251.45,0,0
93824.6,51.1687,-1247.17,0,0
94084.9,51.7665,-1242.92,0,0
94345.2,52.4525,-1239.27,0,0
94605.6,52.8609,-1235.8,0,0
94865.9,52.9273,-1232.34,0,0
95126.2,52.7592,-1228.66,0,0
95386.5,52.9029,-1225.01,0,0
95646.9,52.8433,-1221.54,0,0
95907.2,52.3532,-1217.9,0,0
96167.5,52.0816,-1213.83,0,0
96427.8,52.123,-1209.97,0,0
96688.2,51.8749,-1206.15,0,0
96948.5,51.7614,-1202.05,0,0
97208.8,51.8107,-1198.13,0,0
97469.1,51.7571,-1194.17,0,0
97729.5,51.8331,-1190.03,0,0
97989.8,52.1749,-1186.08,0,0
98250.1,52.4391,-1182.41,0,0
98510.4,52.6797,-1178.61,0,0
98770.8,53.008,-1175.14,0,0
99031.1,52.8437,-1171.64,0,0
99291.4,52.8247,-1167.9,0,0
99551.7,52.7796,-1164.3,0,0
99812.1,52.6451,-1160.41,0,0
100072,52.7322,-1156.37,0,0
100333,53.1225,-1152.6,0,0
100593,53.3474,-1148.99,0,0
100853,53.3359,-1145.34,0,0
101114,53.5448,-1141.36,0,0
101374,54.0441,-1137.57,0,0
101634,54.4359,-1134.18,0,0
101895,54.6129,-1130.64,0,0
102155,54.8929,-1127.05,0,0
102415,55.1411,-1123.41,0,0
102676,55.5548,-1119.81,0,0
102936,55.9605,-1116.24,0,0
103196,56.4681,-1112.61,0,0
103457,57.2004,-1109.25,0,0
103717,57.9713,-1106.08,0,0
103977,58.6545,-1103.34,0,0
104238,58.4673,-1100.67,0,0
104498,58.5232,-1097.19,0,0
104758,59.0603,-1094,0,0
105019,59.3514,-1091.23,0,0
105279,59.2575,-1088.35,0,0
105539,59.1585,-1085.34,0,0
105800,59.1419,-1082.16,0,0
106060,59.1169,-1079.07,0,0
106320.175,58.8361,-1075.83,0,0
106580.5,58.8287,-1072.35,0,0
106840.825,58.8798,-1068.81,0,0
107101.15,59.2909,-1065.35,0,0
107361.475,59.6496,-1062.27,0,0
107621.8,59.7246,-1059.1,0,0
107882.125,60.0481,-1055.84,0,0
108142.45,60.3254,-1052.79,0,0
108402.775,60.5588,-1049.75,0,0
108663.1,60.6182,-1046.69,0,0
108923.425,60.6412,-1043.64,0,0
109183.75,60.5451,-1040.38,0,0
109444.075,60.6675,-1037.07,0,0
109704.4,60.8619,-1033.9,0,0
109964.725,60.835,-1030.64,0,0
110225.05,60.8806,-1027.15,0,0
110485.375,61.0243,-1023.49,0,0
110745.7,61.5304,-1019.85,0,0
111006.025,62.0993,-1016.4,0,0
111266.35,63.04,-1012.9,0,0
111526.675,63.4862,-1009.82,0,0
111787.0,64.113,-1006.64,0,0
112047.325,64.7999,-1003.3,0,0
112307.65,65.5731,-999.936,0,0
112567.975,66.5094,-996.763,0,0
112828.3,67.4384,-993.58,0,0
113088.625,68.6207,-990.493,0,0
113348.95,69.8773,-987.79,0,0
113609.275,70.8737,-985.229,0,0
113869.6,71.6913,-982.659,0,0
114129.925,72.6325,-979.96,0,0
114390.25,73.4601,-977.303,0,0
114650.575,74.4894,-974.617,0,0
114910.9,75.4913,-972.11,0,0
115171.225,76.4395,-969.486,0,0
115431.55,77.5521,-966.993,0,0
115691.875,78.5954,-964.398,0,0
115952.2,80.0975,-961.806,0,0
116212.525,81.8313,-959.628,0,0
116472.85,83.4804,-957.815,0,0
116733.175,85.1057,-956.274,0,0
116993.5,86.5489,-955.083,0,0
117253.825,87.727,-954.148,0,0
117514.15,88.5842,-953.34,0,0
117774.475,89.1291,-952.492,0,0
118034.8,89.2981,-951.586,0,0
118295.125,89.4297,-950.133,0,0
118555.45,90.1068,-948.51,0,0
118815.775,91.2229,-947.552,0,0
119076.1,91.8148,-947.256,0,0
119336.425,92.0597,-946.777,0,0
119596.75,92.3725,-946.608,0,0
119857.075,92.2154,-947.097,0,0
120117.4,90.7878,-947.545,0,0
120377.725,88.9885,-947.128,0,0
120638.05,87.1884,-946.499,0,0
120898.375,85.1273,-945.504,0,0
121158.7,82.8031,-944.246,0,0
121419.025,80.2561,-942.249,0,0
121679.35,78.2386,-939.579,0,0
121939.675,76.8083,-936.878,0,0
122200.0,75.4486,-934.564,0,0
122460,73.8849,-932.061,0,0
122721,72.5248,-929.264,0,0
122981,71.4424,-926.551,0,0
123241,70.3238,-923.89,0,0
123502,69.1271,-921.163,0,0
123762,67.9735,-918.206,0,0
124022,67.0657,-915.17,0,0
124283,66.4082,-912.162,0,0
124543,65.7903,-909.28,0,0
124803,65.3472,-906.43,0,0
125064,64.9114,-903.894,0,0
125324,64.2311,-901.526,0,0
125584,63.2638,-898.946,0,0
125845,62.3709,-896.106,0,0
126105,61.6401,-893.102,0,0
126365,61.0654,-890.233,0,0
126626,60.413,-887.359,0,0
126886,59.8079,-884.437,0,0
127146,59.2418,-881.662,0,0
127406,58.5525,-878.622,0,0
127667,58.1201,-875.458,0,0
127927,57.7973,-872.382,0,0
128187,57.4775,-869.485,0,0
128448,57.143,-866.544,0,0
128708,56.7829,-863.647,0,0
128968,56.4566,-860.711,0,0
129229,56.1697,-857.675,0,0
129489,56.0434,-854.699,0,0
129749,55.8723,-851.934,0,0
130010,55.5673,-848.991,0,0
130270,55.306,-845.954,0,0
130530,55.2215,-842.984,0,0
130791,55.1888,-840.082,0,0
131051,55.1124,-837.314,0,0
131311,54.8915,-834.562,0,0
131572,54.5075,-831.616,0,0
131832,54.3065,-828.474,0,0
132092,54.1823,-825.361,0,0
132353,54.1986,-822.225,0,0
132613,54.244,-819.201,0,0
132873,54.3181,-816.088,0,0
133134,54.3983,-812.983,0,0
133394,54.6082,-809.851,0,0
133654,54.8696,-806.726,0,0
133915,55.3388,-803.616,0,0
134175,55.754,-800.53,0,0
134435,56.2947,-797.517,0,0
134696,56.8876,-794.557,0,0
134956,57.626,-791.652,0,0
135216,58.3366,-788.881,0,0
135477,59.2206,-786.105,0,0
135737,60.1949,-783.539,0,0
135997,61.2228,-781.191,0,0
136258,62.2919,-779.146,0,0
136518,63.1179,-777.374,0,0
136778,63.6329,-775.776,0,0
137039,63.8602,-774.25,0,0
137299,63.6711,-772.63,0,0
137559,63.2943,-770.53,0,0
137819,63.1708,-768.33,0,0
138080,63.0144,-766.154,0,0
138340.125,62.7371,-763.953,0,0
138600.45,62.3616,-761.586,0,0
138860.775,62.032,-759.071,0,0
139121.1,61.7093,-756.352,0,0
139381.425,61.6273,-753.536,0,0
139641.75,61.7573,-750.818,0,0
139902.075,61.789,-748.19,0,0
140162.4,61.8216,-745.494,0,0
140422.725,62,-742.817,0,0
140683.05,62.1677,-740.203,0,0
140943.375,62.2834,-737.657,0,0
141203.7,62.3323,-735.011,0,0
141464.025,62.4588,-732.354,0,0
141724.35,62.5222,-729.702,0,0
141984.675,62.5858,-726.896,0,0
142245.0,62.8617,-724.043,0,0
142505.325,63.162,-721.359,0,0
142765.65,63.3836,-718.629,0,0
143025.975,63.6914,-715.801,0,0
143286.3,64.0787,-713.006,0,0
143546.625,64.5677,-710.27,0,0
143806.95,65.095,-707.626,0,0
144067.275,65.619,-705.065,0,0
144327.6,66.0897,-702.587,0,0
144587.925,66.5311,-700.09,0,0
144848.25,66.9383,-697.676,0,0
145108.575,67.2441,-695.203,0,0
145368.9,67.6424,-692.753,0,0
145629.225,67.9009,-690.443,0,0
145889.55,67.9313,-688.036,0,0
146149.875,67.9219,-685.346,0,0
146410.2,68.127,-682.509,0,0
146670.525,68.5224,-679.744,0,0
146930.85,68.8322,-677.086,0,0
147191.175,69.1708,-674.328,0,0
147451.5,69.6384,-671.741,0,0
147711.825,69.8697,-669.164,0,0
147972.15,70.1,-666.396,0,0
148232.475,70.4709,-663.643,0,0
148492.8,70.8024,-660.954,0,0
148753.125,71.1761,-658.285,0,0
149013.45,71.4273,-655.666,0,0
149273.775,71.529,-652.993,0,0
149534.1,71.5842,-650.137,0,0
149794.425,71.6622,-647.13,0,0
150054.75,71.8112,-644.047,0,0
150315.075,72.0306,-640.848,0,0
150575.4,72.3345,-637.611,0,0
150835.725,72.6507,-634.369,0,0
151096.05,72.9829,-631.001,0,0
151356.375,73.4088,-627.547,0,0
151616.7,73.9301,-624.022,0,0
151877.025,74.5814,-620.452,0,0
152137.35,75.3283,-616.828,0,0
152397.675,76.179,-613.226,0,0
152658.0,77.0979,-609.587,0,0
152918.325,78.1507,-605.904,0,0
153178.65,79.3816,-602.236,0,0
153438.975,80.7083,-598.642,0,0
153699.3,82.0688,-595.178,0,0
153959.625,83.3502,-591.685,0,0
154219.95,84.7045,-588.051,0,0
154480,86.2334,-584.377,0,0
154741,87.9655,-580.693,0,0
155001,89.8031,-577.122,0,0
155261,91.7447,-573.617,0,0
155522,93.736,-570.146,0,0
155782,95.8602,-566.684,0,0
156042,98.1148,-563.329,0,0
156303,100.49,-560.092,0,0
156563,102.922,-556.999,0,0
156823,105.372,-554.001,0,0
157084,107.869,-551.099,0,0
157344,110.45,-548.312,0,0
157604,113.061,-545.667,0,0
157864,115.718,-543.216,0,0
158125,118.297,-540.99,0,0
158385,120.672,-538.864,0,0
158645,123,-536.755,0,0
158906,125.303,-534.835,0,0
159166,127.417,-533.126,0,0
159426,129.177,-531.522,0,0
159687,130.486,-529.91,0,0
159947,131.244,-528.056,0,0
160207,131.788,-525.512,0,0
160468,132.375,-522.457,0,0
160728,133.088,-518.909,0,0
160988,134.167,-515.061,0,0
161249,135.387,-511.052,0,0
161509,136.703,-506.557,0,0
161769,138.576,-501.607,0,0
162030,141.137,-496.575,0,0
162290,144.187,-491.633,0,0
162550,147.696,-486.85,0,0
162811,151.444,-482.395,0,0
163071,155.192,-477.971,0,0
163331,159.167,-473.355,0,0
163592,163.665,-468.586,0,0
163852,168.849,-464.04,0,0
164112,174.368,-459.945,0,0
164373,179.994,-456.351,0,0
164633,185.767,-452.844,0,0
164893,191.729,-449.434,0,0
165154,197.863,-446.759,0,0
165414,203.62,-444,0,0
165674,209.428,-441.088,0,0
165935,215.405,-437.837,0,0
166195,221.843,-434.218,0,0
166455,229.233,-430.441,0,0
166716,237.854,-426.893,0,0
166976,247.519,-424.35,0,0
167236,257.5,-423.002,0,0
167497,267.673,-422.428,0,0
167757,277.992,-422.762,0,0
168017,288.193,-423.945,0,0
168277,298.457,-425.732,0,0
168538,308.95,-428.479,0,0
168798,319.265,-432.29,0,0
169058,329.005,-437.228,0,0
169319,338.257,-442.721,0,0
169579,346.9,-449.156,0,0
169839,354.374,-455.954,0,0
170100,361.426,-462.286,0,0
170360.075,368.646,-468.725,0,0
170620.4,376.496,-475.709,0,0
170880.725,384.535,-484.577,0,0
171141.05,391.035,-495.303,0,0
171401.375,395.454,-506.569,0,0
171661.7,398.127,-517.505,0,0
171922.025,399.703,-527.502,0,0
172182.35,401.471,-536.709,0,0
172442.675,403.613,-546.595,0,0
172703.0,404.903,-557.797,0,0
172963.325,404.378,-569.523,0,0
173223.65,402.124,-581.134,0,0
173483.975,397.989,-591.98,0,0
173744.3,392.725,-601.527,0,0
174004.625,386.633,-609.873,0,0
174264.95,380.178,-617.019,0,0
174525.275,373.037,-623.236,0,0
174785.6,365.726,-627.849,0,0
175045.925,358.634,-631.626,0,0
175306.25,351.292,-634.258,0,0
175566.575,344.247,-635.71,0,0
175826.9,337.025,-636.115,0,0
176087.225,330.335,-633.827,0,0
176347.55,326.705,-629.913,0,0
176607.875,325.906,-626.776,0,0
176868.2,326.466,-625.143,0,0
177128.525,327.642,-624.779,0,0
177388.85,329.052,-625.35,0,0
177649.175,330.854,-626.719,0,0
177909.5,332.922,-629.172,0,0
178169.825,335.213,-632.558,0,0
178430.15,338.025,-637.642,0,0
178690.475,339.959,-645.425,0,0
178950.8,339.008,-655.268,0,0
179211.125,334.687,-664.682,0,0
179471.45,328.413,-672.385,0,0
179731.775,321.329,-678.589,0,0
179992.1,313.477,-683.722,0,0
180252.425,305.016,-687.095,0,0
180512.75,297.57,-688.675,0,0
180773.075,291.237,-690.213,0,0
181033.4,285.313,-692.177,0,0
181293.725,279.194,-694.954,0,0
181554.05,271.576,-698.099,0,0
181814.375,262.427,-699.863,0,0
182074.7,253.167,-700.021,0,0
182335.025,244.208,-699.066,0,0
182595.35,235.549,-697.396,0,0
182855.675,227.011,-694.817,0,0
183116.0,218.937,-691.223,0,0
183376.325,211.775,-686.835,0,0
183636.65,205.65,-682.297,0,0
183896.975,199.954,-677.977,0,0
184157.3,194.299,-673.52,0,0
184417.625,188.864,-668.492,0,0
184677.95,184.06,-662.815,0,0
184938.275,180.481,-656.844,0,0
185198.6,178.141,-651.602,0,0
185458.925,175.771,-647.564,0,0
185719.25,172.823,-643.929,0,0
185979.575,169.324,-640.126,0,0
186239.9,165.507,-635.601,0,0
186500,162.131,-630.371,0,0
186761,159.564,-624.97,0,0
187021,157.234,-619.817,0,0
187281,154.962,-614.485,0,0
187542,153.21,-608.67,0,0
187802,152.355,-602.925,0,0
188062,152.097,-597.683,0,0
188322,152.237,-592.928,0,0
188583,152.706,-588.978,0,0
188843,152.825,-586.026,0,0
189103,151.933,-583.452,0,0
189364,150.264,-580.474,0,0
189624,148.357,-576.868,0,0
189884,146.55,-572.821,0,0
190145,144.852,-568.433,0,0
190405,143.367,-563.747,0,0
190665,142.286,-558.881,0,0
190926,141.297,-554.162,0,0
191186,140.238,-549.052,0,0
191446,139.664,-543.542,0,0
191707,139.725,-538.118,0,0
191967,140.174,-533.007,0,0
192227,140.652,-528.222,0,0
192488,141.019,-523.563,0,0
192748,141.329,-518.75,0,0
193008,141.88,-513.803,0,0
193269,142.675,-508.893,0,0
193529,143.543,-504.122,0,0
193789,144.464,-499.334,0,0
194050,145.455,-494.471,0,0
194310,146.597,-489.493,0,0
194570,148.018,-484.472,0,0
194831,149.765,-479.456,0,0
195091,151.777,-474.543,0,0
195351,154.076,-469.881,0,0
195612,156.458,-465.557,0,0
195872,158.759,-461.406,0,0
196132,161.026,-457.06,0,0
196393,163.535,-452.909,0,0
196653,166.101,-448.863,0,0
196913,168.783,-444.936,0,0
197174,171.491,-441.242,0,0
197434,174.113,-437.682,0,0
197694,176.682,-434.04,0,0
197955,179.241,-430.359,0,0
198215,181.833,-426.783,0,0
198475,184.396,-423.098,0,0
198735,187.103,-419.356,0,0
198996,189.883,-415.585,0,0
199256,192.779,-411.866,0,0
199516,195.592,-408.182,0,0
199777,198.417,-404.414,0,0
200037,201.294,-400.411,0,0
200297,204.503,-396.129,0,0
200558,207.984,-391.764,0,0
200818,211.927,-387.438,0,0
201078,216.195,-383.427,0,0
201339,220.459,-379.653,0,0
201599,224.596,-375.811,0,0
201859,228.998,-371.563,0,0
202120,233.999,-367.333,0,0
202380.025,239.468,-363.288,0,0
202640.35,245.37,-359.656,0,0
202900.675,251.316,-356.474,0,0
203161.0,257.285,-353.296,0,0
203421.325,263.612,-350.145,0,0
203681.65,270.249,-347.343,0,0
203941.975,277.195,-344.856,0,0
204202.3,284.377,-342.796,0,0
204462.625,291.675,-341.247,0,0
204722.95,298.979,-340.028,0,0
204983.275,306.279,-339.186,0,0
205243.6,313.554,-338.641,0,0
205503.925,320.808,-338.189,0,0
205764.25,328.448,-338.01,0,0
206024.575,336.408,-338.54,0,0
206284.9,344.1,-339.947,0,0
206545.225,351.191,-341.797,0,0
206805.55,358.108,-343.99,0,0
207065.875,364.575,-346.67,0,0
207326.2,370.009,-349.67,0,0
207586.525,374.801,-352.141,0,0
207846.85,379.159,-354.095,0,0
208107.175,383.369,-355.521,0,0
208367.5,387.39,-356.193,0,0
208627.825,391.862,-355.708,0,0
208888.15,397.604,-354.481,0,0
209148.475,405.154,-353.094,0,0
209408.8,414.341,-352.588,0,0
209669.125,424.65,-353.474,0,0
209929.45,435.604,-356.296,0,0
210189.775,446.264,-361.071,0,0
210450.1,455.994,-366.835,0,0
210710.425,465.337,-373.644,0,0
210970.75,474.055,-381.575,0,0
211231.075,481.762,-390.375,0,0
211491.4,488.506,-399.902,0,0
211751.725,493.996,-410.107,0,0
212012.05,497.851,-420.501,0,0
212272.375,500.358,-430.247,0,0
212532.7,502.206,-439.189,0,0
212793.025,503.909,-447.494,0,0
213053.35,505.839,-455.651,0,0
213313.675,507.534,-464.219,0,0
213574.0,508.606,-472.989,0,0
213834.325,508.984,-481.658,0,0
214094.65,509.022,-490.161,0,0
214354.975,508.573,-498.746,0,0
214615.3,507.47,-507.418,0,0
214875.625,505.263,-515.976,0,0
215135.95,501.942,-523.483,0,0
215396.275,498.423,-529.653,0,0
215656.6,495.455,-534.849,0,0
215916.925,493.259,-539.703,0,0
216177.25,491.483,-544.816,0,0
216437.575,489.897,-550.269,0,0
216697.9,488.182,-556.223,0,0
216958.225,486.045,-562.512,0,0
217218.55,483.252,-569.049,0,0
217478.875,479.707,-575.546,0,0
217739.2,475.345,-581.826,0,0
217999.525,470.226,-587.543,0,0
218259.85,464.665,-592.423,0,0
218520,459.041,-596.612,0,0
218780,453.486,-600.325,0,0
219041,447.734,-603.932,0,0
219301,441.356,-607.257,0,0
219561,434.27,-609.731,0,0
219822,426.891,-610.83,0,0
220082,419.913,-610.716,0,0
220342,413.596,-609.656,0,0
220603,407.966,-607.927,0,0
220863,403.132,-605.832,0,0
221123,398.864,-603.45,0,0
221384,395.291,-600.813,0,0
221644,392.275,-598.223,0,0
221904,389.605,-595.526,0,0
222165,387.402,-592.604,0,0
222425,385.892,-589.565,0,0
222685,385.062,-586.67,0,0
222946,384.772,-584.118,0,0
223206,384.747,-581.991,0,0
223466,384.739,-580.214,0,0
223727,384.802,-578.5,0,0
223987,385.018,-576.676,0,0
224247,385.51,-574.943,0,0
224508,386.276,-573.254,0,0
224768,387.28,-571.74,0,0
225028,388.349,-570.355,0,0
225289,389.575,-568.766,0,0
225549,391.44,-566.887,0,0
225809,393.976,-565.461,0,0
226070,396.914,-564.374,0,0
226330,400.323,-563.775,0,0
226590,404.2,-563.841,0,0
226851,408.203,-564.824,0,0
227111,411.904,-566.636,0,0
227371,415.037,-568.79,0,0
227632,417.981,-571.029,0,0
227892,420.925,-573.307,0,0
228152,424.015,-575.764,0,0
228413,427.305,-578.575,0,0
228673,430.778,-582.016,0,0
228933,434.281,-586.234,0,0
229193,437.369,-591.309,0,0
229454,439.868,-597.023,0,0
229714,441.428,-603.291,0,0
229974,442.181,-609.478,0,0
230235,442.417,-615.28,0,0
230495,442.84,-620.939,0,0
230755,443.318,-627.279,0,0
231016,443.014,-634.495,0,0
231276,441.343,-641.778,0,0
231536,438.803,-648.463,0,0
231797,436.02,-654.528,0,0
232057,433.107,-660.4,0,0
232317,430.013,-666.088,0,0
232578,426.815,-671.811,0,0
232838,423.373,-677.597,0,0
233098,419.598,-683.533,0,0
233359,415.263,-689.642,0,0
233619,410.449,-695.857,0,0
233879,404.654,-702.427,0,0
234140,397.34,-708.726,0,0
234400,388.825,-713.848,0,0
234660.3,379.59,-717.847,0,0
234920.625,369.848,-720.505,0,0
235180.95,360.124,-721.734,0,0
235441.275,350.642,-721.567,0,0
235701.6,341.678,-720.038,0,0
235961.925,333.722,-717.68,0,0
236222.25,326.854,-714.862,0,0
236482.575,320.826,-711.94,0,0
236742.9,315.42,-708.872,0,0
237003.225,310.916,-705.848,0,0
237263.55,307,-703.558,0,0
237523.875,302.896,-701.919,0,0
237784.2,298.267,-700.278,0,0
238044.525,293.352,-698.447,0,0
238304.85,288.222,-696.068,0,0
238565.175,282.953,-692.94,0,0
238825.5,278.093,-688.874,0,0
239085.825,274.065,-684.109,0,0
239346.15,271.253,-679.155,0,0
239606.475,269.463,-674.571,0,0
239866.8,268.263,-670.351,0,0
240127.125,267.446,-666.675,0,0
240387.45,267.12,-663.265,0,0
240647.775,267.327,-660.639,0,0
240908.1,267.519,-659.232,0,0
241168.425,266.806,-658.576,0,0
241428.75,265.202,-657.729,0,0
241689.075,263.463,-656.417,0,0
241949.4,261.765,-655.082,0,0
242209.725,259.991,-653.903,0,0
242470.05,257.733,-652.905,0,0
242730.375,254.771,-651.497,0,0
242990.7,251.479,-649.145,0,0
243251.025,248.567,-645.831,0,0
243511.35,246.582,-642.127,0,0
243771.675,245.134,-638.536,0,0
244032.0,243.865,-635.053,0,0
244292.325,242.826,-631.194,0,0
244552.65,242.381,-627.16,0,0
244812.975,242.641,-623.186,0,0
245073.3,243.48,-619.512,0,0
245333.625,244.94,-616.305,0,0
245593.95,246.654,-613.808,0,0
245854.275,248.538,-612.006,0,0
246114.6,250.027,-610.847,0,0
246374.925,251.15,-610.012,0,0
246635.25,251.835,-609.291,0,0
246895.575,252.371,-608.415,0,0
247155.9,252.935,-607.573,0,0
247416.225,253.289,-606.95,0,0
247676.55,253.388,-606.265,0,0
247936.875,253.309,-605.318,0,0
248197.2,253.353,-604.112,0,0
248457.525,253.653,-602.876,0,0
248717.85,254.064,-601.71,0,0
248978.175,254.599,-600.647,0,0
249238.5,255.162,-599.647,0,0
249498.825,255.804,-598.701,0,0
249759.15,256.48,-597.858,0,0
250019.475,257.249,-597.046,0,0
250279.8,258.166,-596.5,0,0
250540,259.137,-596.205,0,0
250800,259.817,-596.016,0,0
251061,260.417,-595.898,0,0
251321,260.917,-595.661,0,0
251581,261.584,-595.406,0,0
251842,262.253,-595.337,0,0
252102,263.091,-595.369,0,0
252362,263.894,-595.592,0,0
252623,264.619,-596.033,0,0
252883,265.247,-596.673,0,0
253143,265.664,-597.48,0,0
253404,265.935,-598.307,0,0
253664,266.105,-599.144,0,0
253924,266.262,-600.094,0,0
254185,266.242,-601.261,0,0
254445,265.993,-602.57,0,0
254705,265.397,-603.979,0,0
254966,264.353,-605.321,0,0
255226,263.17,-606.409,0,0
255486,261.815,-607.426,0,0
255747,260.228,-608.299,0,0
256007,258.42,-609.001,0,0
256267,256.384,-609.337,0,0
256528,254.384,-609.324,0,0
256788,252.46,-609.048,0,0
257048,250.698,-608.587,0,0
257309,248.985,-608.095,0,0
257569,247.262,-607.514,0,0
257829,245.448,-606.757,0,0
258090,243.679,-605.708,0,0
258350,242.084,-604.469,0,0
258610,240.633,-603.101,0,0
258871,239.36,-601.542,0,0
259131,238.313,-599.883,0,0
259391,237.521,-598.302,0,0
259651,236.765,-596.766,0,0
259912,236.013,-595.284,0,0
260172,235.36,-593.659,0,0
260432,234.713,-591.959,0,0
260693,234.161,-590.121,0,0
260953,233.772,-588.13,0,0
261213,233.616,-586.037,0,0
261474,233.683,-583.823,0,0
261734,233.992,-581.528,0,0
261994,234.689,-579.118,0,0
262255,235.91,-576.788,0,0
262515,237.499,-574.643,0,0
262775,239.532,-572.811,0,0
263036,241.855,-571.42,0,0
263296,244.363,-570.473,0,0
263556,246.986,-570.053,0,0
263817,249.603,-570.146,0,0
264077,252.063,-570.755,0,0
264337,254.282,-571.793,0,0
264598,255.984,-573.345,0,0
264858,257.235,-574.939,0,0
265118,257.964,-576.426,0,0
265379,258.422,-577.744,0,0
265639,258.719,-578.904,0,0
265899,258.939,-579.844,0,0
266160,259.18,-580.511,0,0
266420,259.577,-581.164,0,0
266680.25,260.055,-581.827,0,0
266940.575,260.698,-582.516,0,0
267200.9,261.419,-583.358,0,0
267461.225,262.192,-584.334,0,0
267721.55,262.963,-585.561,0,0
267981.875,263.572,-587.049,0,0
268242.2,263.952,-588.732,0,0
268502.525,263.976,-590.37,0,0
268762.85,263.834,-591.857,0,0
269023.175,263.656,-593.061,0,0
269283.5,263.507,-594.267,0,0
269543.825,263.35,-595.288,0,0
269804.15,263.389,-596.153,0,0
270064.475,263.591,-597.13,0,0
270324.8,264.225,-598.159,0,0
270585.125,264.92,-599.466,0,0
270845.45,265.726,-601.067,0,0
271105.775,266.59,-603.028,0,0
271366.1,267.353,-605.292,0,0
271626.425,268.043,-607.744,0,0
271886.75,268.845,-610.441,0,0
272147.075,269.772,-613.63,0,0
272407.4,270.717,-617.589,0,0
272667.725,271.274,-622.398,0,0
272928.05,270.998,-628.098,0,0
273188.375,269.493,-634.282,0,0
273448.7,266.767,-640.371,0,0
273709.025,263.182,-646.231,0,0
273969.35,258.675,-651.854,0,0
274229.675,253.179,-657.053,0,0
274490.0,246.803,-661.591,0,0
274750.325,239.752,-665.219,0,0
275010.65,232.13,-667.86,0,0
275270.975,224.418,-669.484,0,0
275531.3,216.68,-670.306,0,0
275791.625,208.906,-670.243,0,0
276051.95,201.301,-669.388,0,0
276312.275,193.921,-667.76,0,0
276572.6,186.852,-665.418,0,0
276832.925,180.233,-662.44,0,0
277093.25,174.13,-659.014,0,0
277353.575,168.448,-655.165,0,0
277613.9,163.227,-650.969,0,0
277874.225,158.488,-646.375,0,0
278134.55,154.326,-641.482,0,0
278394.875,150.819,-636.439,0,0
278655.2,147.954,-631.368,0,0
278915.525,145.665,-626.373,0,0
279175.85,143.851,-621.549,0,0
279436.175,142.428,-617.001,0,0
279696.5,141.297,-612.617,0,0
279956.825,140.363,-608.439,0,0
280217.15,139.739,-604.442,0,0
280477.475,139.297,-600.63,0,0
280737.8,138.97,-596.998,0,0
280998.125,138.875,-593.593,0,0
281258.45,138.947,-590.485,0,0
281518.775,138.986,-587.693,0,0
281779.1,138.912,-585.105,0,0
282039.425,138.709,-582.638,0,0
282299.75,138.409,-580.2,0,0
282560,138.025,-577.762,0,0
282820,137.572,-575.297,0,0
283081,137.039,-572.729,0,0
283341,136.556,-570.006,0,0
283601,136.172,-567.196,0,0
283862,135.897,-564.303,0,0
284122,135.72,-561.325,0,0
284382,135.725,-558.212,0,0
284643,135.989,-555.057,0,0
284903,136.541,-551.994,0,0
285163,137.308,-549.032,0,0
285424,138.323,-546.219,0,0
285684,139.445,-543.631,0,0
285944,140.682,-541.277,0,0
286205,141.945,-539.091,0,0
286465,143.224,-537.107,0,0
286725,144.505,-535.286,0,0
286986,145.735,-533.655,0,0
287246,146.908,-532.193,0,0
287506,147.93,-530.849,0,0
287767,148.803,-529.574,0,0
288027,149.527,-528.308,0,0
288287,150.123,-526.959,0,0
288548,150.634,-525.507,0,0
288808,151.124,-523.917,0,0
289068,151.674,-522.167,0,0
289329,152.344,-520.286,0,0
289589,153.214,-518.365,0,0
289849,154.283,-516.55,0,0
290109,155.419,-514.783,0,0
290370,156.62,-513.122,0,0
290630,157.852,-511.512,0,0
290890,159.124,-509.897,0,0
291151,160.513,-508.331,0,0
291411,162.033,-506.831,0,0
291671,163.604,-505.519,0,0
291932,165.132,-504.324,0,0
292192,166.63,-503.176,0,0
292452,168.116,-502.035,0,0
292713,169.664,-500.933,0,0
292973,171.263,-499.873,0,0
293233,172.856,-498.909,0,0
293494,174.436,-498.004,0,0
293754,175.985,-497.123,0,0
294014,177.564,-496.241,0,0
294275,179.174,-495.349,0,0
294535,180.834,-494.472,0,0
294795,182.537,-493.648,0,0
295056,184.249,-492.849,0,0
295316,186.025,-491.998,0,0
295576,187.907,-491.136,0,0
295837,189.934,-490.303,0,0
296097,192.097,-489.558,0,0
296357,194.352,-488.939,0,0
296618,196.71,-488.395,0,0
296878,199.163,-487.965,0,0
297138,201.729,-487.67,0,0
297399,204.388,-487.526,0,0
297659,207.103,-487.567,0,0
297919,209.858,-487.763,0,0
298180,212.683,-488.135,0,0
298440,215.523,-488.702,0,0
298700.2,218.335,-489.492,0,0
298960.525,221.14,-490.387,0,0
299220.85,223.885,-491.562,0,0
299481.175,226.595,-492.683,0,0
299741.5,229.346,-493.984,0,0
300001.825,232.144,-495.421,0,0
300262.15,234.921,-497.063,0,0
300522.475,237.72,-498.814,0,0
300782.8,240.69,-500.756,0,0
301043.125,243.742,-502.953,0,0
301303.45,246.73,-505.464,0,0
301563.775,249.911,-508.444,0,0
301824.1,252.991,-511.775,0,0
302084.425,255.955,-515.567,0,0
302344.75,258.851,-519.923,0,0
302605.075,261.52,-525.079,0,0
302865.4,263.559,-530.778,0,0
303125.725,264.759,-537.077,0,0
303386.05,264.954,-543.58,0,0
303646.375,264.175,-549.979,0,0
303906.7,262.576,-556.06,0,0
304167.025,260.336,-561.656,0,0
304427.35,257.698,-566.726,0,0
304687.675,254.815,-571.313,0,0
304948.0,251.779,-575.634,0,0
305208.325,248.517,-579.653,0,0
305468.65,245.052,-583.377,0,0
305728.975,241.362,-586.792,0,0
305989.3,237.588,-589.872,0,0
306249.625,233.676,-592.655,0,0
306509.95,229.664,-595.191,0,0
306770.275,225.514,-597.45,0,0
307030.6,221.241,-599.379,0,0
307290.925,216.924,-600.937,0,0
307551.25,212.614,-602.125,0,0
307811.575,208.374,-603.04,0,0
308071.9,204.217,-603.676,0,0
308332.225,200.122,-604.078,0,0
308592.55,196.103,-604.266,0,0
308852.875,192.171,-604.185,0,0
309113.2,188.317,-603.871,0,0
309373.525,184.667,-603.334,0,0
309633.85,181.168,-602.641,0,0
309894.175,177.86,-601.809,0,0
310154.5,174.683,-600.888,0,0
310414.825,171.668,-599.876,0,0
310675.15,168.769,-598.799,0,0
310935.475,166.01,-597.659,0,0
311195.8,163.361,-596.471,0,0
311456.125,160.831,-595.205,0,0
311716.45,158.409,-593.897,0,0
311976.775,156.117,-592.512,0,0
312237.1,154.001,-591.119,0,0
312497.425,152.013,-589.792,0,0
312757.75,150.064,-588.532,0,0
313018.075,148.158,-587.287,0,0
313278.4,146.254,-586.028,0,0
313538.725,144.364,-584.737,0,0
313799.05,142.524,-583.403,0,0
314059.375,140.752,-582.056,0,0
314319.7,138.976,-580.624,0,0
314580,137.244,-579.145,0,0
314840,135.576,-577.577,0,0
315101,134.04,-575.947,0,0
315361,132.573,-574.29,0,0
315621,131.273,-572.582,0,0
315882,130.081,-570.869,0,0
316142,129.024,-569.213,0,0
316402,128.059,-567.573,0,0
316663,127.169,-565.97,0,0
316923,126.354,-564.47,0,0
317183,125.589,-562.97,0,0
317444,124.883,-561.524,0,0
317704,124.246,-560.141,0,0
317964,123.631,-558.845,0,0
318225,123.01,-557.553,0,0
318485,122.381,-556.311,0,0
318745,121.759,-555.045,0,0
319006,121.17,-553.793,0,0
319266,120.611,-552.517,0,0
319526,120.174,-551.226,0,0
319787,119.781,-549.962,0,0
320047,119.51,-548.759,0,0
320307,119.233,-547.66,0,0
320567,119.03,-546.629,0,0
320828,118.857,-545.695,0,0
321088,118.646,-544.866,0,0
321348,118.405,-544.091,0,0
321609,118.121,-543.368,0,0
321869,117.81,-542.674,0,0
322129,117.469,-541.996,0,0
322390,117.134,-541.363,0,0
322650,116.763,-540.767,0,0
322910,116.332,-540.188,0,0
323171,115.841,-539.625,0,0
323431,115.318,-539.018,0,0
323691,114.793,-538.41,0,0
323952,114.241,-537.756,0,0
324212,113.713,-537.11,0,0
324472,113.186,-536.466,0,0
324733,112.67,-535.804,0,0
324993,112.165,-535.148,0,0
325253,111.656,-534.51,0,0
325514,111.129,-533.879,0,0
325774,110.619,-533.225,0,0
326034,110.118,-532.573,0,0
326295,109.638,-531.941,0,0
326555,109.159,-531.353,0,0
326815,108.673,-530.775,0,0
327076,108.164,-530.231,0,0
327336,107.639,-529.698,0,0
327596,107.095,-529.148,0,0
327857,106.541,-528.605,0,0
328117,105.981,-528.072,0,0
328377,105.398,-527.586,0,0
328638,104.782,-527.091,0,0
328898,104.113,-526.582,0,0
329158,103.395,-526.033,0,0
329419,102.74,-525.443,0,0
329679,102.06,-524.827,0,0
329939,101.412,-524.215,0,0
330200,100.768,-523.637,0,0
330460,100.073,-523.042,0,0
330720.15,99.4378,-522.411,0,0
330980.475,98.7377,-521.835,0,0
331240.8,98.0434,-521.274,0,0
331501.125,97.497,-520.679,0,0
331761.45,96.7005,-520.186,0,0
332021.775,95.9961,-519.654,0,0
332282.1,95.1702,-519.124,0,0
332542.425,94.3891,-518.596,0,0
332802.75,93.4949,-518.083,0,0
333063.075,92.4537,-517.49,0,0
333323.4,91.4587,-516.85,0,0
333583.725,90.4982,-516.096,0,0
333844.05,89.4156,-515.279,0,0
334104.375,88.4239,-514.398,0,0
334364.7,87.473,-513.536,0,0
334625.025,86.5338,-512.533,0,0
334885.35,85.5675,-511.606,0,0
335145.675,84.6346,-510.559,0,0
335406.0,83.7382,-509.498,0,0
335666.325,82.8911,-508.329,0,0
335926.65,82.0163,-507.322,0,0
336186.975,81.22,-506.197,0,0
336447.3,80.4263,-505.03,0,0
336707.625,79.6167,-503.867,0,0
336967.95,78.8027,-502.612,0,0
337228.275,78.05,-501.389,0,0
337488.6,77.3735,-500.044,0,0
337748.925,76.6831,-498.666,0,0
338009.25,76.1002,-497.386,0,0
338269.575,75.5279,-496.035,0,0
338529.9,75.0081,-494.61,0,0
338790.225,74.5842,-493.276,0,0
339050.55,74.1812,-491.941,0,0
339310.875,73.7587,-490.659,0,0
339571.2,73.4311,-489.356,0,0
339831.525,73.0353,-488.035,0,0
340091.85,72.7036,-486.795,0,0
340352.175,72.3975,-485.467,0,0
340612.5,72.119,-484.193,0,0
340872.825,71.8324,-482.916,0,0
341133.15,71.6008,-481.603,0,0
341393.475,71.3127,-480.33,0,0
341653.8,71.1016,-478.994,0,0
341914.125,70.9614,-477.669,0,0
342174.45,70.8665,-476.314,0,0
342434.775,70.7453,-475.075,0,0
342695.1,70.6593,-473.814,0,0
342955.425,70.6245,-472.488,0,0
343215.75,70.6104,-471.249,0,0
343476.075,70.653,-469.987,0,0
343736.4,70.7018,-468.77,0,0
343996.725,70.7631,-467.538,0,0
344257.05,70.9004,-466.419,0,0
344517.375,71.0297,-465.249,0,0
344777.7,71.2424,-464.161,0,0
345038.025,71.5123,-463.077,0,0
345298.35,71.6484,-462.071,0,0
345558.675,71.8578,-461.11,0,0
345819.0,72.1275,-460.164,0,0
346079.325,72.2608,-459.289,0,0
346339.65,72.4677,-458.426,0,0
346599.975,72.5799,-457.629,0,0
346860,72.6867,-456.811,0,0
347121,72.8584,-456.019,0,0
347381,72.9211,-455.32,0,0
347641,72.9138,-454.569,0,0
347902,72.96,-453.831,0,0
348162,72.9087,-453.113,0,0
348422,72.8103,-452.299,0,0
348683,72.7193,-451.506,0,0
348943,72.6099,-450.73,0,0
349203,72.4804,-449.839,0,0
349464,72.3387,-448.943,0,0
349724,72.1927,-448.038,0,0
349984,72.1117,-447.056,0,0
350245,72.0373,-446.107,0,0
350505,71.9925,-445.089,0,0
350765,71.9796,-444.125,0,0
351025,71.9229,-443.047,0,0
351286,71.9287,-442.061,0,0
351546,71.953,-440.967,0,0
351806,72.0256,-439.835,0,0
352067,72.1588,-438.698,0,0
352327,72.356,-437.623,0,0
352587,72.577,-436.554,0,0
352848,72.8381,-435.484,0,0
353108,73.1463,-434.52,0,0
353368,73.5359,-433.472,0,0
353629,73.9229,-432.513,0,0
353889,74.3205,-431.637,0,0
354149,74.8327,-430.725,0,0
354410,75.2401,-430.022,0,0
354670,75.7035,-429.264,0,0
354930,76.1533,-428.6,0,0
355191,76.6007,-427.948,0,0
355451,77.0265,-427.44,0,0
355711,77.382,-426.905,0,0
355972,77.7064,-426.502,0,0
356232,77.9627,-426.047,0,0
356492,78.0909,-425.631,0,0
356753,78.2391,-425.221,0,0
357013,78.2598,-424.73,0,0
357273,78.2655,-424.276,0,0
357534,78.2411,-423.755,0,0
357794,78.1914,-423.243,0,0
358054,78.1186,-422.697,0,0
358315,77.9867,-422.092,0,0
358575,77.812,-421.41,0,0
358835,77.6515,-420.708,0,0
359096,77.4863,-419.865,0,0
359356,77.3197,-419.019,0,0
359616,77.1989,-418.065,0,0
359877,77.1463,-417.088,0,0
360137,77.1572,-416.049,0,0
360397,77.2202,-414.946,0,0
360658,77.4048,-413.902,0,0
360918,77.644,-412.815,0,0
361178,77.9064,-411.814,0,0
361438,78.2445,-410.79,0,0
361699,78.6329,-409.82,0,0
361959,79.0313,-408.837,0,0
362219,79.4724,-407.944,0,0
362480,79.9355,-407.054,0,0
362740.1,80.4108,-406.204,0,0
363000.425,80.9242,-405.408,0,0
363260.75,81.3976,-404.64,0,0
363521.075,81.9388,-403.898,0,0
363781.4,82.4736,-403.18,0,0
364041.725,82.9902,-402.49,0,0
364302.05,83.5319,-401.8,0,0
364562.375,84.0127,-401.17,0,0
364822.7,84.5974,-400.517,0,0
365083.025,85.1036,-399.901,0,0
365343.35,85.6857,-399.371,0,0
365603.675,86.2828,-398.863,0,0
365864.0,86.8463,-398.392,0,0
366124.325,87.3517,-397.919,0,0
366384.65,87.8774,-397.54,0,0
366644.975,88.3826,-397.201,0,0
366905.3,88.8481,-396.849,0,0
367165.625,89.2247,-396.49,0,0
367425.95,89.6085,-396.129,0,0
367686.275,90.0016,-395.75,0,0
367946.6,90.3952,-395.339,0,0
368206.925,90.8079,-394.933,0,0
368467.25,91.2808,-394.606,0,0
368727.575,91.6849,-394.27,0,0
368987.9,92.1371,-394.038,0,0
369248.225,92.5334,-393.787,0,0
369508.55,92.9741,-393.606,0,0
369768.875,93.3486,-393.453,0,0
370029.2,93.6319,-393.412,0,0
370289.525,93.8928,-393.33,0,0
370549.85,93.9992,-393.324,0,0
370810.175,94.0222,-393.273,0,0
371070.5,93.9842,-393.189,0,0
371330.825,93.8295,-393.059,0,0
371591.15,93.6624,-392.807,0,0
371851.475,93.4101,-392.493,0,0
372111.8,93.1687,-392.052,0,0
372372.125,92.9329,-391.533,0,0
372632.45,92.7387,-390.963,0,0
372892.775,92.61,-390.291,0,0
373153.1,92.55,-389.56,0,0
373413.425,92.5013,-388.804,0,0
373673.75,92.5362,-388.046,0,0
373934.075,92.6148,-387.286,0,0
374194.4,92.8195,-386.553,0,0
374454.725,92.9812,-385.84,0,0
374715.05,93.1806,-385.079,0,0
374975.375,93.448,-384.385,0,0
375235.7,93.6727,-383.717,0,0
375496.025,93.9291,-383.016,0,0
375756.35,94.1925,-382.361,0,0
376016.675,94.4747,-381.7,0,0
376277.0,94.7554,-381.042,0,0
376537.325,95.0252,-380.385,0,0
376797.65,95.3239,-379.721,0,0
377057.975,95.689,-379.078,0,0
377318.3,95.962,-378.471,0,0
377578.625,96.2726,-377.858,0,0
377838.95,96.5863,-377.208,0,0
378099.275,96.9231,-376.571,0,0
378359.6,97.1964,-375.93,0,0
378619.925,97.5562,-375.205,0,0
378880,97.9421,-374.508,0,0
379141,98.3447,-373.847,0,0
379401,98.7887,-373.115,0,0
379661,99.2519,-372.46,0,0
379922,99.77,-371.832,0,0
380182,100.297,-371.179,0,0
380442,100.797,-370.6,0,0
380703,101.368,-369.955,0,0
380963,101.893,-369.379,0,0
381223,102.456,-368.827,0,0
381483,103.02,-368.289,0,0
381744,103.618,-367.791,0,0
382004,104.166,-367.262,0,0
382264,104.777,-366.748,0,0
382525,105.385,-366.245,0,0
382785,106.031,-365.783,0,0
383045,106.666,-365.348,0,0
383306,107.32,-364.97,0,0
383566,107.944,-364.6,0,0
383826,108.597,-364.244,0,0
384087,109.153,-363.925,0,0
384347,109.726,-363.604,0,0
384607,110.265,-363.3,0,0
384868,110.87,-362.917,0,0
385128,111.426,-362.618,0,0
385388,111.97,-362.344,0,0
385649,112.473,-362.058,0,0
385909,112.987,-361.768,0,0
386169,113.475,-361.51,0,0
386430,113.927,-361.204,0,0
386690,114.339,-360.824,0,0
386950,114.782,-360.393,0,0
387211,115.277,-359.985,0,0
387471,115.814,-359.528,0,0
387731,116.365,-359.114,0,0
387992,116.955,-358.672,0,0
388252,117.573,-358.257,0,0
388512,118.14,-357.784,0,0
388773,118.801,-357.376,0,0
389033,119.44,-356.909,0,0
389293,120.174,-356.44,0,0
389554,120.922,-356.052,0,0
389814,121.74,-355.647,0,0
390074,122.544,-355.299,0,0
390335,123.391,-354.974,0,0
390595,124.24,-354.715,0,0
390855,125.081,-354.469,0,0
391116,125.929,-354.266,0,0
391376,126.78,-354.056,0,0
391636,127.599,-353.905,0,0
391896,128.416,-353.803,0,0
392157,129.204,-353.624,0,0
392417,129.991,-353.546,0,0
392677,130.734,-353.352,0,0
392938,131.496,-353.128,0,0
393198,132.319,-352.918,0,0
393458,133.168,-352.688,0,0
393719,134.136,-352.464,0,0
393979,135.119,-352.233,0,0
394239,136.116,-352.095,0,0
394500,137.17,-351.928,0,0
394760.05,138.288,-351.79,0,0
395020.375,139.378,-351.69,0,0
395280.7,140.651,-351.626,0,0
395541.025,141.907,-351.625,0,0
395801.35,143.197,-351.722,0,0
396061.675,144.582,-351.92,0,0
396322.0,145.932,-352.174,0,0
396582.325,147.258,-352.503,0,0
396842.65,148.588,-352.861,0,0
397102.975,150.011,-353.294,0,0
397363.3,151.416,-353.755,0,0
397623.625,152.951,-354.38,0,0
397883.95,154.494,-355.143,0,0
398144.275,156.043,-356.012,0,0
398404.6,157.54,-357.116,0,0
398664.925,159.001,-358.324,0,0
398925.25,160.384,-359.741,0,0
399185.575,161.676,-361.29,0,0
399445.9,162.859,-363.027,0,0
399706.225,163.813,-364.875,0,0
399966.55,164.664,-366.886,0,0
400006.6,164.793,-367.167,0,0