File: Accelerated corrosion test data/2025-10-01_06-00-03/sample_4.csv
Frequency (Hz),Impedance (ohms),Phase (Radians),Temperature (C),Humidity (%)
10000.0,265.759,-11864.7,0,0
10260.325,262.144,-11564.9,0,0
10520.65,253.071,-11282.2,0,0
10780.975,247.08,-11012.5,0,0
11041.3,242.243,-10754.1,0,0
11301.625,237.225,-10511.5,0,0
11561.95,231.313,-10275.8,0,0
11822.275,226.222,-10050.4,0,0
12082.6,222.014,-9835.91,0,0
12342.925,217.802,-9629.4,0,0
12603.25,214.719,-9430.42,0,0
12863.575,211.54,-9243.82,0,0
13123.9,212.349,-9063.48,0,0
13384.225,202.167,-8886.65,0,0
13644.55,198.368,-8715.35,0,0
13904.875,194.995,-8550.55,0,0
14165.2,197.017,-8387.95,0,0
14425.525,200.849,-8235.99,0,0
14685.8,206.73,-8127.27,0,0
14946.175,184.535,-7971.05,0,0
15206.5,183.454,-7826.55,0,0
15466.825,188.707,-7683.15,0,0
15727.15,192.903,-7582.95,0,0
15987.5,190.675,-7467.67,0,0
16247.8,173.043,-7340.58,0,0
16508.125,184.086,-7209.95,0,0
16768.45,179.881,-7113.35,0,0
17028.775,174.634,-7024.78,0,0
17289.1,162.632,-6911,0,0
17549.425,161.03,-6806.14,0,0
17809.75,157.498,-6705.01,0,0
18070.075,153.849,-6607.04,0,0
18330.4,155.225,-6510.63,0,0
18590.725,156.697,-6422.46,0,0
18851.05,151.557,-6337.72,0,0
19111.375,146.92,-6249.28,0,0
19371.7,144.62,-6163.94,0,0
19632.025,143.324,-6079.85,0,0
19892.35,145.036,-5998.34,0,0
20152.675,145.656,-5921.65,0,0
20413.0,142.938,-5849.67,0,0
20673.3,141.712,-5773.78,0,0
20933.65,139.109,-5701.22,0,0
21193.975,141.432,-5626.97,0,0
21454.3,152.435,-5558.95,0,0
21714.625,146.381,-5503.48,0,0
21974.9,151.317,-5433.47,0,0
22235.275,150.068,-5385.63,0,0
22495.6,138.573,-5331.22,0,0
22755.925,130.336,-5267.08,0,0
23016.25,126.654,-5204.21,0,0
23276.6,124.153,-5144.13,0,0
23536.9,123.036,-5086.74,0,0
23797.225,120.92,-5029.95,0,0
24057.55,118.845,-4974.55,0,0
24317.875,118.025,-4919.6,0,0
24578.2,116.53,-4867.31,0,0
24838.525,115.978,-4814.68,0,0
25098.85,115.578,-4763.76,0,0
25359.175,114.049,-4716.75,0,0
25619.5,113.66,-4666.72,0,0
25879.8,112.956,-4622.78,0,0
26140.1,109.727,-4574.15,0,0
26400.5,108.499,-4527.59,0,0
26660.8,108.905,-4481.4,0,0
26921.1,108.122,-4438.14,0,0
27181.4,106.927,-4393.07,0,0
27441.8,107.932,-4348.68,0,0
27702.1,109.883,-4304.75,0,0
27962.4,117.971,-4263.16,0,0
28222.7,120.637,-4230.93,0,0
28483.1,117.813,-4200.97,0,0
28743.4,111.987,-4161.3,0,0
29003.7,112.323,-4119.72,0,0
29264,116.585,-4085.17,0,0
29524.4,114.45,-4055.28,0,0
29784.7,109.494,-4023.42,0,0
30045,109.405,-3986.76,0,0
30305.3,103.309,-3954.2,0,0
30565.7,101.696,-3918.08,0,0
30826,100.435,-3883.92,0,0
31086.3,99.9739,-3850.06,0,0
31346.6,100.643,-3816.85,0,0
31607,99.8386,-3786.96,0,0
31867.3,98.5983,-3755.37,0,0
32127.6,100.325,-3723.66,0,0
32387.9,99.7341,-3697.39,0,0
32648.3,98.0658,-3667.16,0,0
32908.6,96.5437,-3641.01,0,0
33168.9,93.7086,-3611.71,0,0
33429.2,91.6918,-3582.98,0,0
33689.6,90.2713,-3554.19,0,0
33949.9,88.8922,-3525.59,0,0
34210.2,89.3517,-3497.81,0,0
34470.5,87.6389,-3472.27,0,0
34730.9,86.2405,-3444.88,0,0
34991.2,85.9746,-3418.24,0,0
35251.5,85.261,-3392.59,0,0
35511.8,84.4818,-3367.28,0,0
35772.2,84.2229,-3342.48,0,0
36032.5,82.9287,-3317.23,0,0
36292.8,82.2642,-3292.47,0,0
36553.1,81.9324,-3268.05,0,0
36813.5,81.9959,-3244.04,0,0
37073.8,81.869,-3221.52,0,0
37334.1,80.949,-3198.43,0,0
37594.4,80.3356,-3175.76,0,0
37854.8,80.4389,-3153.32,0,0
38115.1,79.3959,-3131.6,0,0
38375.4,78.6803,-3109.04,0,0
38635.7,78.4887,-3086.81,0,0
38896.1,78.6209,-3065.31,0,0
39156.4,78.2745,-3044.63,0,0
39416.7,77.7611,-3023.67,0,0
39677,77.649,-3002.33,0,0
39937.4,78.1039,-2981.17,0,0
40197.7,79.4633,-2960.57,0,0
40458,81.9023,-2942.31,0,0
40718.3,80.2734,-2925.5,0,0
40978.7,79.79,-2904.86,0,0
41239,80.6907,-2886.04,0,0
41499.3,84.0485,-2869.01,0,0
41759.6,81.08,-2854.79,0,0
42020,79.0957,-2835.8,0,0
42280.275,78.179,-2816.58,0,0
42540.6,80.0536,-2799.62,0,0
42800.925,78.3705,-2784.17,0,0
43061.25,76.8015,-2766.16,0,0
43321.575,77.0725,-2749.51,0,0
43581.9,75.68,-2732.98,0,0
43842.225,74.8719,-2715.73,0,0
44102.55,75.139,-2699.73,0,0
44362.875,73.4767,-2683.22,0,0
44623.2,73.3885,-2666.32,0,0
44883.525,72.8555,-2650.55,0,0
45143.85,72.4001,-2634.54,0,0
45404.175,71.681,-2617.78,0,0
45664.5,72.6541,-2601.34,0,0
45924.825,73.576,-2587.2,0,0
46185.15,72.7938,-2573.64,0,0
46445.475,71.6291,-2557.56,0,0
46705.8,72.5497,-2542.3,0,0
46966.125,72.677,-2528.63,0,0
47226.45,72.8574,-2514.35,0,0
47486.775,72.7803,-2501.81,0,0
47747.1,70.9675,-2488.03,0,0
48007.425,70.196,-2473.93,0,0
48267.75,69.4479,-2459.61,0,0
48528.075,68.9494,-2446.11,0,0
48788.4,68.2957,-2432.68,0,0
49048.725,67.1058,-2418.61,0,0
49309.05,67.1315,-2404.26,0,0
49569.375,66.7406,-2391.69,0,0
49829.7,65.9679,-2377.84,0,0
50090.025,65.7092,-2364.38,0,0
50350.35,65.6048,-2351.22,0,0
50610.675,65.3958,-2338.27,0,0
50871.0,65.1033,-2325.46,0,0
51131.325,64.8274,-2312.36,0,0
51391.65,64.5657,-2299.18,0,0
51651.975,65.0206,-2286.44,0,0
51912.3,64.9006,-2274.14,0,0
52172.625,65.105,-2261.36,0,0
52432.95,65.294,-2249.17,0,0
52693.275,65.5251,-2236.1,0,0
52953.6,66.9341,-2223.54,0,0
53213.925,67.7027,-2212.38,0,0
53474.25,68.4569,-2200.44,0,0
53734.575,69.8063,-2188.28,0,0
53994.9,72.3478,-2177,0,0
54255.225,74.6551,-2167.13,0,0
54515.55,77.0594,-2158.3,0,0
54775.875,77.4037,-2151.82,0,0
55036.2,75.0126,-2143.15,0,0
55296.525,74.2276,-2133.37,0,0
55556.85,72.5052,-2123.94,0,0
55817.175,71.3667,-2113.83,0,0
56077.5,69.6018,-2104,0,0
56337.825,68.2312,-2093.2,0,0
56598.15,66.9897,-2081.88,0,0
56858.475,66.5302,-2070.77,0,0
57118.8,66.522,-2059.71,0,0
57379.125,66.7964,-2049.12,0,0
57639.45,67.0286,-2038.77,0,0
57899.775,67.0667,-2028.64,0,0
58160.1,67.3518,-2018.27,0,0
58420.4,68.1803,-2008.03,0,0
58680.7,68.81,-1998.91,0,0
58941.1,68.3902,-1988.61,0,0
59201.4,69.2208,-1977.69,0,0
59461.7,71.5164,-1967.51,0,0
59722,74.0682,-1958.4,0,0
59982.4,76.9533,-1950.8,0,0
60242.7,77.9399,-1944.51,0,0
60503,78.5896,-1936.69,0,0
60763.3,81.0018,-1929.65,0,0
61023.7,81.7482,-1926.04,0,0
61284,79.1506,-1921.06,0,0
61544.3,75.559,-1914.81,0,0
61804.6,71.9954,-1905.42,0,0
62065,70.8883,-1896.62,0,0
62325.3,69.5644,-1888.44,0,0
62585.6,66.96,-1880.03,0,0
62845.9,65.5371,-1869.61,0,0
63106.3,65.2069,-1860.1,0,0
63366.6,65.3234,-1850.78,0,0
63626.9,65.5727,-1842.34,0,0
63887.2,65.2751,-1834.2,0,0
64147.6,64.4191,-1825.52,0,0
64407.9,64.2872,-1816.37,0,0
64668.2,65.1279,-1807.57,0,0
64928.5,65.793,-1799.85,0,0
65188.9,65.6384,-1791.82,0,0
65449.2,66.185,-1783.44,0,0
65709.5,66.3835,-1775.8,0,0
65969.8,67.0462,-1767.41,0,0
66230.2,68.1982,-1760.12,0,0
66490.5,68.6905,-1752.77,0,0
66750.8,69.3336,-1745.62,0,0
67011.1,69.7916,-1738.45,0,0
67271.5,70.7509,-1731.05,0,0
67531.8,71.9456,-1724.48,0,0
67792.1,72.8672,-1718.05,0,0
68052.4,74.0566,-1712.3,0,0
68312.8,74.5524,-1707.15,0,0
68573.1,74.4704,-1702.06,0,0
68833.4,73.8975,-1697.14,0,0
69093.7,72.3638,-1692.09,0,0
69354.1,70.4904,-1686.19,0,0
69614.4,68.5687,-1679.57,0,0
69874.7,67.214,-1672.36,0,0
70135,66.2458,-1665.15,0,0
70395.4,65.2558,-1658.32,0,0
70655.7,64.7919,-1650.24,0,0
70916,65.8478,-1643.35,0,0
71176.3,66.034,-1637.89,0,0
71436.7,65.2602,-1632.06,0,0
71697,64.8188,-1625.99,0,0
71957.3,63.5695,-1620.66,0,0
72217.6,61.4119,-1614.39,0,0
72478,59.7923,-1606.87,0,0
72738.3,59.1351,-1599.48,0,0
72998.6,58.3712,-1592.5,0,0
73258.9,57.6592,-1584.6,0,0
73519.3,57.9717,-1577.12,0,0
73779.6,58.3073,-1570.17,0,0
74039.9,58.8099,-1563.37,0,0
74300.225,59.1627,-1556.74,0,0
74560.55,59.5086,-1550.28,0,0
74820.875,59.9421,-1543.83,0,0
75081.2,60.4418,-1537.57,0,0
75341.525,61.0477,-1531.48,0,0
75601.85,61.687,-1525.58,0,0
75862.175,62.0336,-1519.82,0,0
76122.5,62.4918,-1514.01,0,0
76382.825,62.8875,-1508.52,0,0
76643.15,62.9281,-1503.28,0,0
76903.475,62.6305,-1497.31,0,0
77163.8,63.2034,-1490.85,0,0
77424.125,64.6456,-1485.24,0,0
77684.45,65.6956,-1480.47,0,0
77944.775,66.3416,-1476.12,0,0
78205.1,66.3706,-1471.91,0,0
78465.425,66.0354,-1467.45,0,0
78725.75,65.5518,-1462.92,0,0
78986.075,64.802,-1458.27,0,0
79246.4,63.8889,-1453.35,0,0
79506.725,63.0444,-1448.01,0,0
79767.05,62.3361,-1442.61,0,0
80027.375,61.9545,-1437.05,0,0
80287.7,61.6451,-1431.55,0,0
80548.025,61.4524,-1426.13,0,0
80808.35,61.3482,-1420.78,0,0
81068.675,61.2872,-1415.65,0,0
81329.0,61.2224,-1410.53,0,0
81589.325,61.0898,-1405.52,0,0
81849.65,60.842,-1400.6,0,0
82109.975,60.5977,-1395.65,0,0
82370.3,60.2516,-1390.61,0,0
82630.625,60.0207,-1385.54,0,0
82890.95,59.8345,-1380.53,0,0
83151.275,59.5565,-1375.68,0,0
83411.6,59.2206,-1370.68,0,0
83671.925,59.0033,-1365.57,0,0
83932.25,58.8924,-1360.76,0,0
84192.575,58.6467,-1355.81,0,0
84452.9,58.3903,-1350.92,0,0
84713.225,58.1469,-1346.04,0,0
84973.55,57.9934,-1341.14,0,0
85233.875,57.9667,-1336.23,0,0
85494.2,57.7656,-1331.48,0,0
85754.525,57.4942,-1326.77,0,0
86014.85,57.3299,-1321.94,0,0
86275.175,57.2061,-1317.17,0,0
86535.5,57.1194,-1312.49,0,0
86795.825,57.0153,-1307.79,0,0
87056.15,56.8582,-1303.28,0,0
87316.475,56.6646,-1298.71,0,0
87576.8,56.426,-1294.16,0,0
87837.125,56.1234,-1289.73,0,0
88097.45,55.6605,-1285.34,0,0
88357.775,55.0953,-1280.64,0,0
88618.1,54.4684,-1275.77,0,0
88878.425,54.2918,-1270.79,0,0
89138.75,54.1225,-1265.88,0,0
89399.075,54.1446,-1260.92,0,0
89659.4,54.19,-1256.19,0,0
89919.725,54.1503,-1251.61,0,0
90180,54.2348,-1247.07,0,0
90440.4,54.1982,-1242.53,0,0
90700.7,54.1152,-1237.95,0,0
90961,54.0807,-1233.44,0,0
91221.3,53.995,-1228.74,0,0
91481.7,54.069,-1224.04,0,0
91742,54.1902,-1219.51,0,0
92002.3,54.3567,-1214.99,0,0
92262.6,54.67,-1210.44,0,0
92523,55.0409,-1206.15,0,0
92783.3,55.3545,-1201.94,0,0
93043.6,55.5935,-1198.01,0,0
93303.9,55.7534,-1194.08,0,0
93564.3,55.6561,-1190.17,0,0
93824.6,55.4979,-1186.27,0,0
94084.9,55.1888,-1182.33,0,0
94345.2,54.7452,-1178.21,0,0
94605.6,54.3696,-1173.94,0,0
94865.9,53.929,-1169.51,0,0
95126.2,53.7442,-1165.05,0,0
95386.5,53.6052,-1160.59,0,0
95646.9,53.5556,-1156.04,0,0
95907.2,53.6447,-1151.52,0,0
96167.5,53.8333,-1147.17,0,0
96427.8,53.9972,-1142.76,0,0
96688.2,54.1293,-1138.54,0,0
96948.5,54.2228,-1134.26,0,0
97208.8,54.3806,-1129.91,0,0
97469.1,54.611,-1125.67,0,0
97729.5,54.8593,-1121.47,0,0
97989.8,54.9904,-1117.27,0,0
98250.1,55.1955,-1112.95,0,0
98510.4,55.5221,-1108.65,0,0
98770.8,55.8043,-1104.39,0,0
99031.1,56.303,-1100.13,0,0
99291.4,56.8304,-1095.89,0,0
99551.7,57.555,-1091.86,0,0
99812.1,57.9969,-1088.02,0,0
100072,58.3119,-1084.04,0,0
100333,58.9955,-1079.76,0,0
100593,59.9975,-1075.72,0,0
100853,61.1688,-1072.29,0,0
101114,61.9206,-1069.19,0,0
101374,62.5406,-1065.97,0,0
101634,63.0681,-1063.2,0,0
101895,63.0657,-1060.69,0,0
102155,62.2878,-1058.02,0,0
102415,61.1396,-1054.53,0,0
102676,60.3503,-1050.57,0,0
102936,59.64,-1046.58,0,0
103196,58.775,-1042.22,0,0
103457,58.2489,-1037.38,0,0
103717,58.1933,-1032.37,0,0
103977,58.4143,-1027.42,0,0
104238,59.0767,-1022.59,0,0
104498,59.666,-1017.98,0,0
104758,60.4819,-1013.28,0,0
105019,61.6089,-1008.66,0,0
105279,62.8578,-1004.41,0,0
105539,64.003,-1000.29,0,0
105800,65.2832,-996.233,0,0
106060,66.554,-992.303,0,0
106320.175,67.7213,-988.496,0,0
106580.5,68.9702,-984.698,0,0
106840.825,70.3275,-980.914,0,0
107101.15,71.6426,-977.371,0,0
107361.475,72.8165,-973.85,0,0
107621.8,74.0343,-970.245,0,0
107882.125,75.3065,-966.613,0,0
108142.45,76.746,-962.988,0,0
108402.775,78.3302,-959.454,0,0
108663.1,80.0123,-956.071,0,0
108923.425,81.8231,-952.911,0,0
109183.75,83.5507,-950.004,0,0
109444.075,85.2849,-947.157,0,0
109704.4,86.8947,-944.513,0,0
109964.725,88.3483,-942.061,0,0
110225.05,89.67,-939.539,0,0
110485.375,91.112,-936.969,0,0
110745.7,92.3783,-934.578,0,0
111006.025,93.7343,-932.194,0,0
111266.35,94.8922,-929.972,0,0
111526.675,96.1817,-927.6,0,0
111787.0,97.2522,-925.248,0,0
112047.325,98.4502,-923.028,0,0
112307.65,99.7069,-920.873,0,0
112567.975,100.9,-918.756,0,0
112828.3,102.072,-916.779,0,0
113088.625,103.143,-914.844,0,0
113348.95,104.158,-913.054,0,0
113609.275,105.067,-911.312,0,0
113869.6,105.832,-909.638,0,0
114129.925,106.552,-907.898,0,0
114390.25,107.26,-906.164,0,0
114650.575,107.921,-904.471,0,0
114910.9,108.532,-902.9,0,0
115171.225,109.091,-901.332,0,0
115431.55,109.465,-899.851,0,0
115691.875,109.634,-898.408,0,0
115952.2,109.758,-896.858,0,0
116212.525,109.778,-895.128,0,0
116472.85,109.918,-893.475,0,0
116733.175,109.848,-891.979,0,0
116993.5,109.545,-890.33,0,0
117253.825,109.125,-888.515,0,0
117514.15,108.644,-886.491,0,0
117774.475,108.208,-884.197,0,0
118034.8,107.899,-881.805,0,0
118295.125,107.76,-879.313,0,0
118555.45,107.674,-876.719,0,0
118815.775,107.783,-873.93,0,0
119076.1,108.221,-871.138,0,0
119336.425,109.423,-868.352,0,0
119596.75,110.913,-866.243,0,0
119857.075,112.273,-864.878,0,0
120117.4,113.411,-863.956,0,0
120377.725,114.325,-863.552,0,0
120638.05,114.469,-863.583,0,0
120898.375,113.608,-863.693,0,0
121158.7,112.064,-863.01,0,0
121419.025,110.446,-861.796,0,0
121679.35,108.849,-860.082,0,0
121939.675,107.438,-858.014,0,0
122200.0,106.171,-855.845,0,0
122460,104.983,-853.563,0,0
122721,103.889,-851.109,0,0
122981,102.972,-848.562,0,0
123241,102.17,-846.005,0,0
123502,101.434,-843.465,0,0
123762,100.83,-840.885,0,0
124022,100.339,-838.385,0,0
124283,99.8214,-835.997,0,0
124543,99.2184,-833.628,0,0
124803,98.5586,-831.21,0,0
125064,97.9512,-828.652,0,0
125324,97.514,-826.102,0,0
125584,97.1008,-823.653,0,0
125845,96.6691,-821.227,0,0
126105,96.337,-818.893,0,0
126365,95.9634,-816.735,0,0
126626,95.5116,-814.676,0,0
126886,94.7195,-812.673,0,0
127146,93.7522,-810.57,0,0
127406,92.7102,-808.248,0,0
127667,91.765,-805.765,0,0
127927,90.8839,-803.312,0,0
128187,89.8627,-800.87,0,0
128448,88.7409,-798.555,0,0
128708,87.5234,-795.945,0,0
128968,86.3283,-793.245,0,0
129229,85.0789,-790.524,0,0
129489,83.6784,-787.642,0,0
129749,82.3265,-784.429,0,0
130010,81.0371,-781,0,0
130270,79.9945,-777.568,0,0
130530,79.0142,-774.088,0,0
130791,78.0991,-770.532,0,0
131051,77.2175,-766.942,0,0
131311,76.448,-763.225,0,0
131572,75.8078,-759.45,0,0
131832,75.3346,-755.701,0,0
132092,74.9201,-751.995,0,0
132353,74.4692,-748.317,0,0
132613,74.0465,-744.539,0,0
132873,73.7967,-740.711,0,0
133134,73.5984,-736.926,0,0
133394,73.459,-733.171,0,0
133654,73.3656,-729.379,0,0
133915,73.3133,-725.577,0,0
134175,73.3159,-721.747,0,0
134435,73.46,-717.899,0,0
134696,73.5756,-714.107,0,0
134956,73.8036,-710.349,0,0
135216,74.1062,-706.504,0,0
135477,74.49,-702.691,0,0
135737,74.9484,-698.982,0,0
135997,75.4645,-695.376,0,0
136258,75.9347,-691.808,0,0
136518,76.4005,-688.182,0,0
136778,76.9685,-684.507,0,0
137039,77.5889,-680.972,0,0
137299,78.2687,-677.52,0,0
137559,78.8762,-674.194,0,0
137819,79.3821,-670.903,0,0
138080,79.7429,-667.565,0,0
138340.125,80.016,-664.057,0,0
138600.45,80.3791,-660.432,0,0
138860.775,80.8529,-656.777,0,0
139121.1,81.3414,-653.089,0,0
139381.425,81.8813,-649.343,0,0
139641.75,82.4961,-645.555,0,0
139902.075,83.1986,-641.781,0,0
140162.4,83.9437,-637.972,0,0
140422.725,84.7418,-634.129,0,0
140683.05,85.6346,-630.311,0,0
140943.375,86.6334,-626.432,0,0
141203.7,87.7294,-622.604,0,0
141464.025,88.9149,-618.849,0,0
141724.35,90.1563,-615.212,0,0
141984.675,91.3767,-611.595,0,0
142245.0,92.5458,-608.024,0,0
142505.325,93.76,-604.395,0,0
142765.65,95.0112,-600.784,0,0
143025.975,96.2455,-597.222,0,0
143286.3,97.5322,-593.625,0,0
143546.625,98.8116,-590.014,0,0
143806.95,100.102,-586.423,0,0
144067.275,101.424,-582.769,0,0
144327.6,102.795,-579.064,0,0
144587.925,104.236,-575.35,0,0
144848.25,105.746,-571.632,0,0
145108.575,107.314,-567.913,0,0
145368.9,108.988,-564.194,0,0
145629.225,110.659,-560.495,0,0
145889.55,112.407,-556.776,0,0
146149.875,114.242,-553.066,0,0
146410.2,116.092,-549.354,0,0
146670.525,118.041,-545.584,0,0
146930.85,120.145,-541.879,0,0
147191.175,122.265,-538.281,0,0
147451.5,124.379,-534.673,0,0
147711.825,126.569,-531.061,0,0
147972.15,128.844,-527.467,0,0
148232.475,131.037,-523.944,0,0
148492.8,133.258,-520.256,0,0
148753.125,135.651,-516.503,0,0
149013.45,138.175,-512.743,0,0
149273.775,140.838,-509.004,0,0
149534.1,143.685,-505.295,0,0
149794.425,146.659,-501.637,0,0
150054.75,149.776,-498.03,0,0
150315.075,152.994,-494.561,0,0
150575.4,156.225,-491.177,0,0
150835.725,159.552,-487.701,0,0
151096.05,163.086,-484.291,0,0
151356.375,166.904,-480.982,0,0
151616.7,170.884,-477.903,0,0
151877.025,174.914,-475.074,0,0
152137.35,178.906,-472.35,0,0
152397.675,183.025,-469.69,0,0
152658.0,187.321,-467.175,0,0
152918.325,191.745,-464.902,0,0
153178.65,196.212,-462.857,0,0
153438.975,200.822,-461.067,0,0
153699.3,205.423,-459.715,0,0
153959.625,209.826,-458.719,0,0
154219.95,213.925,-457.947,0,0
154480,217.782,-457.235,0,0
154741,221.488,-456.632,0,0
155001,224.909,-456.087,0,0
155261,228.096,-455.318,0,0
155522,231.379,-454.352,0,0
155782,234.731,-453.414,0,0
156042,238.215,-452.523,0,0
156303,241.772,-451.834,0,0
156563,245.278,-451.303,0,0
156823,248.505,-451.238,0,0
157084,251.266,-450.896,0,0
157344,254.05,-450.072,0,0
157604,257.131,-449.391,0,0
157864,259.918,-448.82,0,0
158125,262.513,-447.813,0,0
158385,265.795,-446.428,0,0
158645,269.349,-445.409,0,0
158906,273.006,-444.663,0,0
159166,276.883,-443.691,0,0
159426,281.302,-443.32,0,0
159687,285.644,-443.506,0,0
159947,289.709,-444.22,0,0
160207,293.505,-445.163,0,0
160468,297.073,-446.578,0,0
160728,300.045,-447.915,0,0
160988,303.07,-449.154,0,0
161249,305.95,-450.887,0,0
161509,308.145,-453.093,0,0
161769,309.485,-454.853,0,0
162030,310.49,-456.181,0,0
162290,311.248,-457.173,0,0
162550,311.755,-457.652,0,0
162811,312.5,-457.66,0,0
163071,313.404,-457.561,0,0
163331,314.157,-457.212,0,0
163592,314.995,-456.385,0,0
163852,316.019,-455.334,0,0
164112,317.264,-453.961,0,0
164373,318.819,-452.188,0,0
164633,320.979,-450.233,0,0
164893,323.759,-448.467,0,0
165154,326.879,-446.996,0,0
165414,330.281,-445.864,0,0
165674,333.684,-445.026,0,0
165935,337.083,-444.092,0,0
166195,340.634,-443.166,0,0
166455,344.458,-442.374,0,0
166716,348.634,-441.463,0,0
166976,353.53,-440.677,0,0
167236,358.91,-440.513,0,0
167497,364.541,-440.886,0,0
167757,370.415,-441.842,0,0
168017,376.721,-443.572,0,0
168277,383.258,-446.45,0,0
168538,389.383,-450.485,0,0
168798,394.64,-455.372,0,0
169058,399.148,-460.744,0,0
169319,402.955,-466.387,0,0
169579,406.296,-472.287,0,0
169839,408.98,-478.593,0,0
170100,411.023,-485.048,0,0
170360.075,412.586,-491.501,0,0
170620.4,413.827,-498.424,0,0
170880.725,414.322,-505.961,0,0
171141.05,413.533,-514.076,0,0
171401.375,411.038,-521.885,0,0
171661.7,407.428,-528.873,0,0
171922.025,403.122,-535.052,0,0
172182.35,398.198,-540.527,0,0
172442.675,392.925,-545.136,0,0
172703.0,387.452,-549.335,0,0
172963.325,381.171,-553.262,0,0
173223.65,374.01,-555.968,0,0
173483.975,366.864,-557.256,0,0
173744.3,359.983,-557.7,0,0
174004.625,353.297,-557.277,0,0
174264.95,347.069,-556.09,0,0
174525.275,341.167,-554.579,0,0
174785.6,335.409,-552.457,0,0
175045.925,330.107,-549.684,0,0
175306.25,325.256,-546.608,0,0
175566.575,320.681,-543.209,0,0
175826.9,316.441,-539.508,0,0
176087.225,312.587,-535.36,0,0
176347.55,309.288,-530.946,0,0
176607.875,306.422,-526.338,0,0
176868.2,304.036,-521.625,0,0
177128.525,302.075,-516.839,0,0
177388.85,300.54,-512.086,0,0
177649.175,299.358,-507.267,0,0
177909.5,298.641,-502.462,0,0
178169.825,298.427,-497.855,0,0
178430.15,298.404,-493.623,0,0
178690.475,298.435,-489.582,0,0
178950.8,298.562,-485.589,0,0
179211.125,298.817,-481.714,0,0
179471.45,299.164,-477.945,0,0
179731.775,299.554,-474.22,0,0
179992.1,300.085,-470.567,0,0
180252.425,300.681,-466.956,0,0
180512.75,301.318,-463.481,0,0
180773.075,302.032,-460.06,0,0
181033.4,302.733,-456.661,0,0
181293.725,303.461,-453.287,0,0
181554.05,304.222,-449.981,0,0
181814.375,304.962,-446.685,0,0
182074.7,305.711,-443.376,0,0
182335.025,306.385,-440.074,0,0
182595.35,307.035,-436.692,0,0
182855.675,307.664,-433.226,0,0
183116.0,308.293,-429.66,0,0
183376.325,308.905,-425.965,0,0
183636.65,309.55,-422.047,0,0
183896.975,310.326,-417.951,0,0
184157.3,311.282,-413.731,0,0
184417.625,312.358,-409.411,0,0
184677.95,313.592,-404.999,0,0
184938.275,315.013,-400.543,0,0
185198.6,316.503,-396.049,0,0
185458.925,318.046,-391.397,0,0
185719.25,319.717,-386.581,0,0
185979.575,321.639,-381.581,0,0
186239.9,323.798,-376.486,0,0
186500,326.238,-371.331,0,0
186761,328.945,-366.144,0,0
187021,331.821,-360.876,0,0
187281,334.908,-355.72,0,0
187542,338.16,-350.419,0,0
187802,341.67,-345.128,0,0
188062,345.365,-339.693,0,0
188322,349.448,-334.185,0,0
188583,353.815,-328.788,0,0
188843,358.324,-323.415,0,0
189103,363.113,-317.934,0,0
189364,368.324,-312.468,0,0
189624,373.771,-307.067,0,0
189884,379.502,-301.616,0,0
190145,385.532,-296.286,0,0
190405,392.033,-290.926,0,0
190665,398.915,-285.618,0,0
190926,406.133,-280.466,0,0
191186,413.926,-275.576,0,0
191446,422.023,-270.835,0,0
191707,430.55,-266.336,0,0
191967,439.408,-262.238,0,0
192227,448.587,-258.413,0,0
192488,457.998,-254.93,0,0
192748,467.639,-251.84,0,0
193008,477.445,-248.947,0,0
193269,487.734,-246.487,0,0
193529,498.015,-244.457,0,0
193789,508.485,-242.81,0,0
194050,519.021,-241.371,0,0
194310,529.592,-240.215,0,0
194570,540.389,-239.262,0,0
194831,551.6,-238.521,0,0
195091,563.009,-238.23,0,0
195351,574.63,-238.285,0,0
195612,586.369,-238.714,0,0
195872,598.302,-239.484,0,0
196132,610.51,-240.539,0,0
196393,623.004,-242.047,0,0
196653,635.709,-243.984,0,0
196913,648.612,-246.327,0,0
197174,661.918,-249.075,0,0
197434,675.662,-252.379,0,0
197694,689.756,-256.524,0,0
197955,704.06,-261.377,0,0
198215,718.68,-267.138,0,0
198475,733.448,-274.011,0,0
198735,748.024,-281.91,0,0
198996,762.515,-290.676,0,0
199256,777.107,-300.466,0,0
199516,791.449,-311.607,0,0
199777,805.153,-324.022,0,0
200037,818.046,-337.527,0,0
200297,830.081,-352.21,0,0
200558,841.094,-367.513,0,0
200818,851.016,-383.515,0,0
201078,860.133,-399.992,0,0
201339,868.322,-417.172,0,0
201599,875.172,-435.112,0,0
201859,880.527,-453.194,0,0
202120,884.709,-471.2,0,0
202380.025,888.183,-489.097,0,0
202640.35,890.27,-507.176,0,0
202900.675,891.009,-525.182,0,0
203161.0,890.442,-542.574,0,0
203421.325,888.969,-558.808,0,0
203681.65,887.49,-574.33,0,0
203941.975,885.801,-589.645,0,0
204202.3,884.003,-604.849,0,0
204462.625,881.607,-620.437,0,0
204722.95,878.212,-636.031,0,0
204983.275,873.691,-650.912,0,0
205243.6,868.891,-664.913,0,0
205503.925,864.125,-678.508,0,0
205764.25,858.963,-692.073,0,0
206024.575,853.32,-705.443,0,0
206284.9,847.359,-718.716,0,0
206545.225,840.732,-731.505,0,0
206805.55,833.69,-743.969,0,0
207065.875,826.393,-755.977,0,0
207326.2,818.854,-767.824,0,0
207586.525,810.715,-779.898,0,0
207846.85,801.697,-791.662,0,0
208107.175,791.961,-802.712,0,0
208367.5,781.726,-813.358,0,0
208627.825,770.566,-823.374,0,0
208888.15,758.648,-832.393,0,0
209148.475,746.343,-840.184,0,0
209408.8,734.055,-846.841,0,0
209669.125,721.605,-852.544,0,0
209929.45,709.356,-857.212,0,0
210189.775,697.254,-860.66,0,0
210450.1,685.804,-863.409,0,0
210710.425,674.84,-865.302,0,0
210970.75,664.643,-866.851,0,0
211231.075,654.876,-868.262,0,0
211491.4,645.181,-869.361,0,0
211751.725,635.937,-870.164,0,0
212012.05,626.8,-870.433,0,0
212272.375,618.057,-870.238,0,0
212532.7,609.698,-869.595,0,0
212793.025,601.906,-868.601,0,0
213053.35,594.671,-867.323,0,0
213313.675,588.132,-865.902,0,0
213574.0,582.126,-864.585,0,0
213834.325,576.266,-863.131,0,0
214094.65,571.086,-861.524,0,0
214354.975,566.739,-859.952,0,0
214615.3,562.785,-858.677,0,0
214875.625,559.458,-857.722,0,0
215135.95,556.526,-857.364,0,0
215396.275,553.665,-857.601,0,0
215656.6,550.832,-858.332,0,0
215916.925,547.728,-859.502,0,0
216177.25,544.465,-860.875,0,0
216437.575,540.968,-862.403,0,0
216697.9,537.182,-864.115,0,0
216958.225,533.12,-865.745,0,0
217218.55,528.956,-867.351,0,0
217478.875,524.685,-868.854,0,0
217739.2,520.384,-870.396,0,0
217999.525,515.784,-871.942,0,0
218259.85,511.088,-873.305,0,0
218520,506.194,-874.543,0,0
218780,501.192,-875.532,0,0
219041,496.204,-876.092,0,0
219301,491.537,-876.448,0,0
219561,487.156,-876.681,0,0
219822,483.068,-876.954,0,0
220082,479.003,-877.693,0,0
220342,474.993,-878.52,0,0
220603,470.74,-879.379,0,0
220863,466.312,-880.098,0,0
221123,461.939,-880.849,0,0
221384,457.453,-881.557,0,0
221644,452.982,-882.263,0,0
221904,448.317,-882.968,0,0
222165,443.563,-883.637,0,0
222425,438.686,-884.02,0,0
222685,433.684,-884.226,0,0
222946,429.057,-883.992,0,0
223206,424.47,-883.895,0,0
223466,420.165,-883.898,0,0
223727,415.885,-883.814,0,0
223987,411.558,-883.87,0,0
224247,407.259,-884.088,0,0
224508,402.685,-884.131,0,0
224768,398.248,-884.369,0,0
225028,393.804,-884.416,0,0
225289,388.983,-884.614,0,0
225549,384.217,-884.793,0,0
225809,379.313,-885.049,0,0
226070,374.059,-885.135,0,0
226330,368.685,-885.055,0,0
226590,362.865,-884.631,0,0
226851,357.19,-883.755,0,0
227111,351.61,-882.604,0,0
227371,346.11,-881.352,0,0
227632,340.803,-879.963,0,0
227892,335.529,-878.502,0,0
228152,330.083,-876.89,0,0
228413,324.61,-875.082,0,0
228673,319.096,-872.897,0,0
228933,313.624,-870.386,0,0
229193,308.357,-867.679,0,0
229454,303.335,-864.705,0,0
229714,298.588,-861.554,0,0
229974,293.945,-858.111,0,0
230235,289.54,-854.665,0,0
230495,285.343,-851.049,0,0
230755,281.468,-847.266,0,0
231016,277.794,-843.507,0,0
231276,274.517,-839.671,0,0
231536,271.453,-835.853,0,0
231797,268.693,-832.153,0,0
232057,266.027,-828.639,0,0
232317,263.442,-825.123,0,0
232578,260.903,-821.682,0,0
232838,258.518,-818.224,0,0
233098,256.282,-814.82,0,0
233359,254.054,-811.441,0,0
233619,251.979,-808.06,0,0
233879,250.03,-804.612,0,0
234140,248.202,-801.235,0,0
234400,246.647,-797.977,0,0
234660.3,244.982,-794.816,0,0
234920.625,243.491,-791.766,0,0
235180.95,242.041,-788.628,0,0
235441.275,240.657,-785.629,0,0
235701.6,239.435,-782.623,0,0
235961.925,238.25,-779.775,0,0
236222.25,237.068,-777.004,0,0
236482.575,235.839,-774.288,0,0
236742.9,234.659,-771.511,0,0
237003.225,233.502,-768.756,0,0
237263.55,232.374,-765.906,0,0
237523.875,231.385,-763.05,0,0
237784.2,230.541,-760.227,0,0
238044.525,229.81,-757.386,0,0
238304.85,229.269,-754.655,0,0
238565.175,228.796,-752.004,0,0
238825.5,228.516,-749.433,0,0
239085.825,228.302,-747.038,0,0
239346.15,228.044,-744.797,0,0
239606.475,227.88,-742.765,0,0
239866.8,227.557,-740.852,0,0
240127.125,227.464,-738.877,0,0
240387.45,227.239,-736.975,0,0
240647.775,227.062,-735.347,0,0
240908.1,226.836,-733.737,0,0
241168.425,226.533,-732.3,0,0
241428.75,226.165,-730.955,0,0
241689.075,225.733,-729.638,0,0
241949.4,225.155,-728.386,0,0
242209.725,224.619,-727.064,0,0
242470.05,223.983,-725.83,0,0
242730.375,223.366,-724.674,0,0
242990.7,222.574,-723.519,0,0
243251.025,221.708,-722.335,0,0
243511.35,220.769,-721.081,0,0
243771.675,219.846,-719.83,0,0
244032.0,218.905,-718.612,0,0
244292.325,217.909,-717.432,0,0
244552.65,216.908,-716.209,0,0
244812.975,215.627,-714.844,0,0
245073.3,214.323,-713.589,0,0
245333.625,212.986,-712.102,0,0
245593.95,211.61,-710.483,0,0
245854.275,210.29,-708.794,0,0
246114.6,209.007,-706.921,0,0
246374.925,207.761,-704.914,0,0
246635.25,206.626,-702.833,0,0
246895.575,205.671,-700.695,0,0
247155.9,204.82,-698.642,0,0
247416.225,204.022,-696.538,0,0
247676.55,203.335,-694.4,0,0
247936.875,202.852,-692.334,0,0
248197.2,202.466,-690.26,0,0
248457.525,202.027,-688.443,0,0
248717.85,201.637,-686.648,0,0
248978.175,201.254,-684.959,0,0
249238.5,200.856,-683.321,0,0
249498.825,200.28,-681.668,0,0
249759.15,199.817,-680.188,0,0
250019.475,199.293,-678.571,0,0
250279.8,198.645,-677.004,0,0
250540,197.953,-675.374,0,0
250800,197.397,-673.579,0,0
251061,196.916,-671.923,0,0
251321,196.369,-670.394,0,0
251581,195.799,-668.905,0,0
251842,195.123,-667.431,0,0
252102,194.36,-665.994,0,0
252362,193.392,-664.518,0,0
252623,192.316,-662.959,0,0
252883,191.142,-661.257,0,0
253143,189.773,-659.421,0,0
253404,188.353,-657.216,0,0
253664,186.991,-654.784,0,0
253924,185.851,-652.084,0,0
254185,184.888,-649.309,0,0
254445,184.002,-646.4,0,0
254705,183.273,-643.407,0,0
254966,182.686,-640.314,0,0
255226,182.372,-637.204,0,0
255486,182.019,-633.991,0,0
255747,181.838,-630.799,0,0
256007,181.762,-627.494,0,0
256267,181.77,-624.061,0,0
256528,182.001,-620.493,0,0
256788,182.529,-616.844,0,0
257048,183.293,-613.201,0,0
257309,184.325,-609.627,0,0
257569,185.56,-606.103,0,0
257829,186.938,-602.661,0,0
258090,188.531,-599.283,0,0
258350,190.251,-595.994,0,0
258610,192.062,-592.741,0,0
258871,194.065,-589.437,0,0
259131,196.319,-586.173,0,0
259391,198.802,-582.949,0,0
259651,201.577,-579.81,0,0
259912,204.681,-576.834,0,0
260172,208.068,-574.114,0,0
260432,211.613,-571.611,0,0
260693,215.351,-569.3,0,0
260953,219.337,-567.321,0,0
261213,223.541,-565.581,0,0
261474,227.903,-564.233,0,0
261734,232.355,-563.391,0,0
261994,236.736,-562.934,0,0
262255,240.983,-562.797,0,0
262515,245.042,-562.875,0,0
262775,249.139,-563.087,0,0
263036,253.3,-563.531,0,0
263296,257.367,-564.287,0,0
263556,261.419,-565.297,0,0
263817,265.414,-566.556,0,0
264077,269.473,-568.363,0,0
264337,273.001,-570.327,0,0
264598,276.368,-572.263,0,0
264858,279.741,-574.304,0,0
265118,283.154,-576.594,0,0
265379,286.541,-579.1,0,0
265639,289.879,-581.962,0,0
265899,293.137,-585.26,0,0
266160,296.059,-588.997,0,0
266420,298.588,-593.039,0,0
266680.25,300.83,-597.341,0,0
266940.575,302.618,-601.984,0,0
267200.9,303.866,-606.819,0,0
267461.225,304.373,-611.691,0,0
267721.55,304.434,-616.393,0,0
267981.875,304.093,-620.887,0,0
268242.2,303.439,-625.125,0,0
268502.525,302.501,-629.225,0,0
268762.85,301.456,-633.06,0,0
269023.175,300.268,-636.826,0,0
269283.5,298.902,-640.543,0,0
269543.825,297.316,-644.381,0,0
269804.15,295.247,-648.197,0,0
270064.475,292.646,-651.784,0,0
270324.8,289.582,-654.821,0,0
270585.125,286.34,-657.197,0,0
270845.45,283.251,-658.907,0,0
271105.775,280.408,-660.229,0,0
271366.1,277.886,-661.427,0,0
271626.425,275.557,-662.412,0,0
271886.75,273.603,-663.424,0,0
272147.075,271.794,-664.451,0,0
272407.4,270.16,-665.692,0,0
272667.725,268.574,-667.088,0,0
272928.05,266.89,-668.739,0,0
273188.375,264.971,-670.533,0,0
273448.7,262.857,-672.273,0,0
273709.025,260.622,-673.991,0,0
273969.35,258.227,-675.783,0,0
274229.675,255.611,-677.525,0,0
274490.0,252.832,-679.099,0,0
274750.325,249.846,-680.591,0,0
275010.65,246.789,-682.11,0,0
275270.975,243.361,-683.473,0,0
275531.3,239.65,-684.67,0,0
275791.625,235.844,-685.621,0,0
276051.95,231.668,-686.241,0,0
276312.275,227.382,-686.431,0,0
276572.6,223.13,-686.211,0,0
276832.925,218.862,-685.638,0,0
277093.25,214.619,-684.716,0,0
277353.575,210.481,-683.323,0,0
277613.9,206.594,-681.554,0,0
277874.225,202.957,-679.499,0,0
278134.55,199.59,-677.148,0,0
278394.875,196.591,-674.678,0,0
278655.2,193.828,-672.095,0,0
278915.525,191.3,-669.33,0,0
279175.85,189.071,-666.398,0,0
279436.175,187.177,-663.41,0,0
279696.5,185.729,-660.279,0,0
279956.825,184.674,-657.322,0,0
280217.15,184.036,-654.437,0,0
280477.475,183.604,-651.825,0,0
280737.8,183.438,-649.52,0,0
280998.125,183.339,-647.493,0,0
281258.45,183.303,-645.675,0,0
281518.775,183.213,-644.093,0,0
281779.1,183.102,-642.689,0,0
282039.425,182.864,-641.408,0,0
282299.75,182.535,-640.163,0,0
282560,182.155,-638.89,0,0
282820,181.761,-637.537,0,0
283081,181.433,-636.088,0,0
283341,181.286,-634.604,0,0
283601,181.367,-633.199,0,0
283862,181.635,-631.976,0,0
284122,182.011,-631.087,0,0
284382,182.303,-630.482,0,0
284643,182.413,-630.148,0,0
284903,182.255,-629.892,0,0
285163,181.922,-629.662,0,0
285424,181.415,-629.333,0,0
285684,180.837,-628.993,0,0
285944,180.169,-628.641,0,0
286205,179.436,-628.249,0,0
286465,178.518,-627.883,0,0
286725,177.484,-627.449,0,0
286986,176.278,-626.914,0,0
287246,174.961,-626.201,0,0
287506,173.505,-625.321,0,0
287767,171.93,-624.181,0,0
288027,170.289,-622.657,0,0
288287,168.77,-620.704,0,0
288548,167.532,-618.389,0,0
288808,166.657,-615.854,0,0
289068,166.123,-613.162,0,0
289329,165.968,-610.362,0,0
289589,166.231,-607.524,0,0
289849,166.924,-604.732,0,0
290109,168.051,-602.095,0,0
290370,169.587,-599.663,0,0
290630,171.46,-597.565,0,0
290890,173.514,-595.86,0,0
291151,175.728,-594.48,0,0
291411,178.03,-593.422,0,0
291671,180.483,-592.727,0,0
291932,182.988,-592.379,0,0
292192,185.501,-592.497,0,0
292452,187.912,-592.978,0,0
292713,190.13,-593.805,0,0
292973,192.205,-594.955,0,0
293233,194.098,-596.351,0,0
293494,195.802,-598.02,0,0
293754,197.297,-599.985,0,0
294014,198.492,-602.236,0,0
294275,199.282,-604.663,0,0
294535,199.697,-607.219,0,0
294795,199.726,-609.831,0,0
295056,199.405,-612.449,0,0
295316,198.674,-615.092,0,0
295576,197.556,-617.56,0,0
295837,196.059,-619.833,0,0
296097,194.335,-621.836,0,0
296357,192.421,-623.607,0,0
296618,190.342,-625.146,0,0
296878,188.169,-626.409,0,0
297138,185.876,-627.49,0,0
297399,183.551,-628.268,0,0
297659,181.203,-628.824,0,0
297919,178.892,-629.155,0,0
298180,176.605,-629.278,0,0
298440,174.418,-629.208,0,0
298700.2,172.353,-628.971,0,0
298960.525,170.425,-628.652,0,0
299220.85,168.645,-628.28,0,0
299481.175,166.979,-627.921,0,0
299741.5,165.294,-627.596,0,0
300001.825,163.639,-627.247,0,0
300262.15,162.022,-626.825,0,0
300522.475,160.423,-626.411,0,0
300782.8,158.844,-625.964,0,0
301043.125,157.246,-625.507,0,0
301303.45,155.655,-625.02,0,0
301563.775,154.036,-624.487,0,0
301824.1,152.44,-623.91,0,0
302084.425,150.809,-623.262,0,0
302344.75,149.173,-622.533,0,0
302605.075,147.593,-621.705,0,0
302865.4,146.057,-620.79,0,0
303125.725,144.604,-619.838,0,0
303386.05,143.234,-618.844,0,0
303646.375,141.865,-617.869,0,0
303906.7,140.545,-616.832,0,0
304167.025,139.293,-615.757,0,0
304427.35,138.057,-614.615,0,0
304687.675,136.916,-613.497,0,0
304948.0,135.84,-612.378,0,0
305208.325,134.767,-611.251,0,0
305468.65,133.745,-610.084,0,0
305728.975,132.764,-608.914,0,0
305989.3,131.841,-607.688,0,0
306249.625,130.974,-606.436,0,0
306509.95,130.224,-605.196,0,0
306770.275,129.548,-603.942,0,0
307030.6,128.968,-602.743,0,0
307290.925,128.475,-601.599,0,0
307551.25,128.028,-600.553,0,0
307811.575,127.578,-599.592,0,0
308071.9,127.111,-598.67,0,0
308332.225,126.646,-597.785,0,0
308592.55,126.178,-596.944,0,0
308852.875,125.721,-596.116,0,0
309113.2,125.277,-595.344,0,0
309373.525,124.785,-594.625,0,0
309633.85,124.262,-593.914,0,0
309894.175,123.725,-593.218,0,0
310154.5,123.16,-592.508,0,0
310414.825,122.576,-591.83,0,0
310675.15,121.981,-591.156,0,0
310935.475,121.325,-590.487,0,0
311195.8,120.637,-589.753,0,0
311456.125,119.971,-589.025,0,0
311716.45,119.274,-588.279,0,0
311976.775,118.576,-587.493,0,0
312237.1,117.857,-586.685,0,0
312497.425,117.159,-585.837,0,0
312757.75,116.466,-584.928,0,0
313018.075,115.802,-583.996,0,0
313278.4,115.202,-583.014,0,0
313538.725,114.651,-582.022,0,0
313799.05,114.168,-581.037,0,0
314059.375,113.702,-580.06,0,0
314319.7,113.277,-579.115,0,0
314580,112.965,-578.102,0,0
314840,112.485,-577.211,0,0
315101,112.192,-576.338,0,0
315361,111.986,-575.425,0,0
315621,111.793,-574.583,0,0
315882,111.612,-573.74,0,0
316142,111.448,-572.979,0,0
316402,111.302,-572.277,0,0
316663,111.122,-571.653,0,0
316923,110.929,-571.096,0,0
317183,110.78,-570.519,0,0
317444,110.615,-569.992,0,0
317704,110.409,-569.454,0,0
317964,110.219,-569.107,0,0
318225,110.023,-568.741,0,0
318485,109.811,-568.479,0,0
318745,109.511,-568.167,0,0
319006,109.13,-568.074,0,0
319266,108.696,-567.981,0,0
319526,108.222,-567.826,0,0
319787,107.506,-567.678,0,0
320047,106.838,-567.592,0,0
320307,106.067,-567.413,0,0
320567,105.334,-567.17,0,0
320828,104.459,-566.985,0,0
321088,103.587,-566.797,0,0
321348,102.577,-566.55,0,0
321609,101.578,-566.352,0,0
321869,100.292,-566.068,0,0
322129,99.1352,-565.734,0,0
322390,97.7165,-565.242,0,0
322650,96.2977,-564.552,0,0
322910,94.875,-563.895,0,0
323171,93.449,-562.937,0,0
323431,92.0166,-561.848,0,0
323691,90.7335,-560.668,0,0
323952,89.4414,-559.321,0,0
324212,88.3977,-557.934,0,0
324472,87.3444,-556.529,0,0
324733,86.5877,-555.038,0,0
324993,85.7449,-553.606,0,0
325253,85.0387,-552.096,0,0
325514,84.5259,-550.779,0,0
325774,83.8075,-549.478,0,0
326034,83.2394,-548.145,0,0
326295,82.7539,-546.815,0,0
326555,82.2251,-545.493,0,0
326815,81.6683,-544.19,0,0
327076,81.147,-542.921,0,0
327336,80.6274,-541.537,0,0
327596,80.1632,-540.253,0,0
327857,79.706,-538.82,0,0
328117,79.2969,-537.418,0,0
328377,78.9246,-536.022,0,0
328638,78.6688,-534.546,0,0
328898,78.417,-533.185,0,0
329158,78.2531,-531.733,0,0
329419,78.1384,-530.239,0,0
329679,78.0778,-528.891,0,0
329939,78.1156,-527.522,0,0
330200,78.1984,-526.051,0,0
330460,78.394,-524.727,0,0
330720.15,78.5682,-523.523,0,0
330980.475,78.8505,-522.317,0,0
331240.8,79.166,-521.238,0,0
331501.125,79.4844,-520.282,0,0
331761.45,79.6993,-519.398,0,0
332021.775,80.0259,-518.59,0,0
332282.1,80.1879,-517.884,0,0
332542.425,80.4127,-517.177,0,0
332802.75,80.4862,-516.489,0,0
333063.075,80.5664,-515.856,0,0
333323.4,80.5777,-515.276,0,0
333583.725,80.5664,-514.643,0,0
333844.05,80.4238,-514.009,0,0
334104.375,80.3081,-513.369,0,0
334364.7,80.1593,-512.812,0,0
334625.025,79.9386,-512.129,0,0
334885.35,79.674,-511.459,0,0
335145.675,79.3658,-510.822,0,0
335406.0,79.137,-510.027,0,0
335666.325,78.8351,-509.28,0,0
335926.65,78.4553,-508.494,0,0
336186.975,78.1185,-507.684,0,0
336447.3,77.7652,-506.762,0,0
336707.625,77.3933,-505.906,0,0
336967.95,77.0101,-504.912,0,0
337228.275,76.7171,-503.921,0,0
337488.6,76.3139,-502.859,0,0
337748.925,76.0002,-501.744,0,0
338009.25,75.7299,-500.512,0,0
338269.575,75.4425,-499.329,0,0
338529.9,75.2817,-498.058,0,0
338790.225,75.1881,-496.802,0,0
339050.55,75.1231,-495.467,0,0
339310.875,75.2085,-494.126,0,0
339571.2,75.3742,-492.741,0,0
339831.525,75.6201,-491.44,0,0
340091.85,75.7961,-490.178,0,0
340352.175,76.131,-488.958,0,0
340612.5,76.4592,-487.748,0,0
340872.825,76.9498,-486.585,0,0
341133.15,77.385,-485.337,0,0
341393.475,77.9119,-484.182,0,0
341653.8,78.5232,-483.058,0,0
341914.125,79.2073,-482.034,0,0
342174.45,79.9488,-481.06,0,0
342434.775,80.7346,-480.121,0,0
342695.1,81.531,-479.316,0,0
342955.425,82.4512,-478.575,0,0
343215.75,83.3678,-477.958,0,0
343476.075,84.2954,-477.548,0,0
343736.4,85.136,-477.193,0,0
343996.725,86.0281,-476.918,0,0
344257.05,86.7236,-476.8,0,0
344517.375,87.4021,-476.725,0,0
344777.7,88.0385,-476.679,0,0
345038.025,88.5591,-476.75,0,0
345298.35,89.0048,-476.856,0,0
345558.675,89.3139,-476.965,0,0
345819.0,89.5535,-477.115,0,0
346079.325,89.7395,-477.291,0,0
346339.65,89.8667,-477.388,0,0
346599.975,89.8723,-477.475,0,0
346860,89.8412,-477.565,0,0
347121,89.7572,-477.588,0,0
347381,89.6736,-477.616,0,0
347641,89.4938,-477.613,0,0
347902,89.2839,-477.577,0,0
348162,89.0423,-477.528,0,0
348422,88.672,-477.445,0,0
348683,88.3985,-477.349,0,0
348943,88.0368,-477.142,0,0
349203,87.6765,-476.949,0,0
349464,87.3123,-476.679,0,0
349724,86.868,-476.429,0,0
349984,86.5837,-476.096,0,0
350245,86.0329,-475.755,0,0
350505,85.6564,-475.416,0,0
350765,85.1321,-474.984,0,0
351025,84.7116,-474.494,0,0
351286,84.2943,-473.921,0,0
351546,83.8532,-473.392,0,0
351806,83.4801,-472.764,0,0
352067,83.0996,-472.118,0,0
352327,82.7471,-471.491,0,0
352587,82.3903,-470.776,0,0
352848,82.0948,-470.021,0,0
353108,81.8512,-469.281,0,0
353368,81.6124,-468.485,0,0
353629,81.4289,-467.726,0,0
353889,81.2602,-466.87,0,0
354149,81.1771,-466.054,0,0
354410,81.2153,-465.201,0,0
354670,81.2937,-464.492,0,0
354930,81.4099,-463.74,0,0
355191,81.5429,-463.127,0,0
355451,81.6529,-462.564,0,0
355711,81.7455,-462.014,0,0
355972,81.8682,-461.556,0,0
356232,81.9646,-461.135,0,0
356492,81.885,-460.714,0,0
356753,81.8841,-460.256,0,0
357013,81.8366,-459.793,0,0
357273,81.7729,-459.391,0,0
357534,81.7162,-459.01,0,0
357794,81.5957,-458.58,0,0
358054,81.4303,-458.181,0,0
358315,81.256,-457.806,0,0
358575,80.986,-457.431,0,0
358835,80.7032,-456.979,0,0
359096,80.2941,-456.392,0,0
359356,79.9452,-455.835,0,0
359616,79.59,-455.179,0,0
359877,79.2519,-454.445,0,0
360137,78.9648,-453.584,0,0
360397,78.7455,-452.72,0,0
360658,78.553,-451.81,0,0
360918,78.4536,-450.902,0,0
361178,78.42,-450.001,0,0
361438,78.457,-449.228,0,0
361699,78.4658,-448.334,0,0
361959,78.5383,-447.488,0,0
362219,78.6572,-446.674,0,0
362480,78.7763,-445.883,0,0
362740.1,78.9106,-445.12,0,0
363000.425,79.0624,-444.349,0,0
363260.75,79.2694,-443.631,0,0
363521.075,79.4877,-442.921,0,0
363781.4,79.6784,-442.251,0,0
364041.725,79.8712,-441.63,0,0
364302.05,80.1121,-441.035,0,0
364562.375,80.2446,-440.487,0,0
364822.7,80.3501,-439.967,0,0
365083.025,80.4068,-439.403,0,0
365343.35,80.4672,-438.876,0,0
365603.675,80.375,-438.214,0,0
365864.0,80.3067,-437.551,0,0
366124.325,80.2948,-436.876,0,0
366384.65,80.2782,-436.021,0,0
366644.975,80.2365,-435.142,0,0
366905.3,80.3567,-434.231,0,0
367165.625,80.4981,-433.284,0,0
367425.95,80.6911,-432.304,0,0
367686.275,80.959,-431.348,0,0
367946.6,81.2214,-430.379,0,0
368206.925,81.6315,-429.349,0,0
368467.25,82.0894,-428.313,0,0
368727.575,82.6477,-427.322,0,0
368987.9,83.2478,-426.334,0,0
369248.225,83.9582,-425.339,0,0
369508.55,84.8577,-424.46,0,0
369768.875,85.7188,-423.627,0,0
370029.2,86.7261,-422.918,0,0
370289.525,87.791,-422.302,0,0
370549.85,88.811,-421.816,0,0
370810.175,89.8513,-421.392,0,0
371070.5,90.8775,-421.065,0,0
371330.825,92.0054,-420.815,0,0
371591.15,93.0695,-420.638,0,0
371851.475,94.207,-420.557,0,0
372111.8,95.3036,-420.624,0,0
372372.125,96.3611,-420.793,0,0
372632.45,97.3761,-421.083,0,0
372892.775,98.3894,-421.463,0,0
373153.1,99.2667,-422.062,0,0
373413.425,100.038,-422.625,0,0
373673.75,100.692,-423.339,0,0
373934.075,101.182,-424.159,0,0
374194.4,101.489,-424.957,0,0
374454.725,101.649,-425.692,0,0
374715.05,101.684,-426.431,0,0
374975.375,101.581,-426.953,0,0
375235.7,101.434,-427.505,0,0
375496.025,101.296,-427.939,0,0
375756.35,101.14,-428.219,0,0
376016.675,100.955,-428.503,0,0
376277.0,100.729,-428.727,0,0
376537.325,100.626,-428.914,0,0
376797.65,100.505,-429.096,0,0
377057.975,100.402,-429.283,0,0
377318.3,100.303,-429.482,0,0
377578.625,100.15,-429.695,0,0
377838.95,100.016,-429.897,0,0
378099.275,99.835,-430.114,0,0
378359.6,99.5798,-430.352,0,0
378619.925,99.3619,-430.547,0,0
378880,99.0298,-430.685,0,0
379141,98.737,-430.797,0,0
379401,98.3759,-430.851,0,0
379661,98.096,-430.871,0,0
379922,97.8387,-430.855,0,0
380182,97.52,-430.796,0,0
380442,97.359,-430.755,0,0
380703,97.1307,-430.711,0,0
380963,96.9374,-430.654,0,0
381223,96.7684,-430.66,0,0
381483,96.6181,-430.646,0,0
381744,96.3999,-430.589,0,0
382004,96.2189,-430.611,0,0
382264,96.0677,-430.64,0,0
382525,95.9866,-430.558,0,0
382785,95.8441,-430.554,0,0
383045,95.831,-430.666,0,0
383306,95.7074,-430.754,0,0
383566,95.6874,-430.936,0,0
383826,95.6222,-431.204,0,0
384087,95.4686,-431.585,0,0
384347,95.2501,-432.039,0,0
384607,94.8873,-432.577,0,0
384868,94.3574,-433.012,0,0
385128,93.7923,-433.539,0,0
385388,92.973,-433.976,0,0
385649,92.1311,-434.354,0,0
385909,91.1958,-434.614,0,0
386169,90.1308,-434.736,0,0
386430,89.089,-434.698,0,0
386690,87.9945,-434.598,0,0
386950,86.9998,-434.366,0,0
387211,85.9947,-434.006,0,0
387471,84.9721,-433.537,0,0
387731,84.0377,-433.053,0,0
387992,83.0556,-432.476,0,0
388252,82.2523,-431.787,0,0
388512,81.4046,-430.994,0,0
388773,80.7778,-430.174,0,0
389033,80.1749,-429.247,0,0
389293,79.816,-428.401,0,0
389554,79.4187,-427.5,0,0
389814,79.228,-426.656,0,0
390074,79.1384,-425.903,0,0
390335,79.154,-425.161,0,0
390595,79.2353,-424.586,0,0
390855,79.3544,-424.098,0,0
391116,79.4878,-423.796,0,0
391376,79.6089,-423.584,0,0
391636,79.6492,-423.523,0,0
391896,79.5939,-423.499,0,0
392157,79.4104,-423.649,0,0
392417,79.1705,-423.741,0,0
392677,78.6974,-423.872,0,0
392938,78.1911,-423.999,0,0
393198,77.5629,-424.078,0,0
393458,76.8555,-424.144,0,0
393719,76.0348,-424.097,0,0
393979,75.1428,-423.958,0,0
394239,74.2159,-423.711,0,0
394500,73.2402,-423.453,0,0
394760.05,72.2291,-422.968,0,0
395020.375,71.2478,-422.4,0,0
395280.7,70.3402,-421.81,0,0
395541.025,69.4491,-421.019,0,0
395801.35,68.5745,-420.245,0,0
396061.675,67.8536,-419.418,0,0
396322.0,67.0827,-418.513,0,0
396582.325,66.3888,-417.582,0,0
396842.65,65.7817,-416.688,0,0
397102.975,65.2246,-415.739,0,0
397363.3,64.6569,-414.769,0,0
397623.625,64.198,-413.832,0,0
397883.95,63.746,-412.811,0,0
398144.275,63.3167,-411.817,0,0
398404.6,62.9768,-410.835,0,0
398664.925,62.6425,-409.866,0,0
398925.25,62.3127,-408.869,0,0
399185.575,62.055,-407.945,0,0
399445.9,61.7803,-406.962,0,0
399706.225,61.5074,-405.952,0,0
399966.55,61.2329,-404.965,0,0
400006.6,61.2319,-404.819,0,0