File: Accelerated corrosion test data/2025-10-16_06-00-08/sample_1.csv
Frequency (Hz),Impedance (ohms),Phase (Radians),Temperature (C),Humidity (%)
10000.0,241.664,-12219.1,0,0
10260.325,241.661,-11904.5,0,0
10520.65,232.44,-11625.2,0,0
10780.975,226.819,-11339.8,0,0
11041.3,219.653,-11079.8,0,0
11301.625,214.47,-10823.2,0,0
11561.95,210.649,-10578.6,0,0
11822.275,208.496,-10339.7,0,0
12082.6,228.06,-10109.2,0,0
12342.925,211.871,-9935.05,0,0
12603.25,195.128,-9721.6,0,0
12863.575,192.134,-9519.49,0,0
13123.9,200.39,-9325.83,0,0
13384.225,185.674,-9156.58,0,0
13644.55,181.446,-8974.69,0,0
13904.875,182.453,-8796.61,0,0
14165.2,193.618,-8662.29,0,0
14425.525,210.753,-8490.23,0,0
14685.8,200.716,-8328.45,0,0
14946.175,177.979,-8227.92,0,0
15206.5,185.1,-8062.09,0,0
15466.825,173.953,-7949.91,0,0
15727.15,172.417,-7814.53,0,0
15987.5,160.405,-7687.61,0,0
16247.8,156.967,-7561.36,0,0
16508.125,155.202,-7438.04,0,0
16768.45,158.778,-7319.91,0,0
17028.775,163.321,-7211.88,0,0
17289.1,154.44,-7109.07,0,0
17549.425,152.821,-7006.49,0,0
17809.75,146.622,-6901.05,0,0
18070.075,148.782,-6801,0,0
18330.4,142.243,-6705.51,0,0
18590.725,137.527,-6611.45,0,0
18851.05,138.564,-6512.86,0,0
19111.375,135.677,-6432.36,0,0
19371.7,132.744,-6339.67,0,0
19632.025,131.749,-6250.99,0,0
19892.35,136.848,-6163.86,0,0
20152.675,135.143,-6077.66,0,0
20413.0,155.154,-5988.35,0,0
20673.3,167.762,-5947.49,0,0
20933.65,149.275,-5878.72,0,0
21193.975,163.17,-5816.08,0,0
21454.3,140.608,-5743.36,0,0
21714.625,136.355,-5671.8,0,0
21974.9,138.761,-5589.89,0,0
22235.275,173.507,-5543.9,0,0
22495.6,142.09,-5504.55,0,0
22755.925,127.058,-5435.59,0,0
23016.25,122.063,-5368.39,0,0
23276.6,118.927,-5307.01,0,0
23536.9,115.789,-5246.22,0,0
23797.225,112.743,-5184.98,0,0
24057.55,114.809,-5124.24,0,0
24317.875,112.875,-5075.68,0,0
24578.2,110.842,-5015.95,0,0
24838.525,110.672,-4965.48,0,0
25098.85,111.071,-4911.92,0,0
25359.175,106.32,-4862.4,0,0
25619.5,104.971,-4811.14,0,0
25879.8,103.678,-4759.6,0,0
26140.1,103.804,-4710.29,0,0
26400.5,102.155,-4660.32,0,0
26660.8,105.211,-4609.68,0,0
26921.1,114.214,-4561.4,0,0
27181.4,121.667,-4529.14,0,0
27441.8,111.175,-4495.41,0,0
27702.1,103.694,-4446.33,0,0
27962.4,110.135,-4395.91,0,0
28222.7,110.604,-4357.67,0,0
28483.1,120.6,-4315.04,0,0
28743.4,130.668,-4295.18,0,0
29003.7,117.669,-4259.28,0,0
29264,118.899,-4225.39,0,0
29524.4,107.771,-4192.17,0,0
29784.7,105.751,-4149.47,0,0
30045,102.237,-4117.6,0,0
30305.3,100.021,-4079.09,0,0
30565.7,97.1308,-4040.27,0,0
30826,100.894,-4004.43,0,0
31086.3,103.887,-3976.37,0,0
31346.6,100.514,-3947.29,0,0
31607,93.9293,-3910.06,0,0
31867.3,97.9781,-3876.86,0,0
32127.6,97.6659,-3846.08,0,0
32387.9,98.3093,-3818.82,0,0
32648.3,93.6072,-3787.86,0,0
32908.6,96.1249,-3759.23,0,0
33168.9,90.8743,-3731.55,0,0
33429.2,88.8405,-3702.46,0,0
33689.6,86.4248,-3672.68,0,0
33949.9,85.2579,-3641.51,0,0
34210.2,86.8737,-3615.17,0,0
34470.5,83.7862,-3588.51,0,0
34730.9,82.2805,-3560.29,0,0
34991.2,81.0927,-3533.48,0,0
35251.5,79.9875,-3506.4,0,0
35511.8,79.4619,-3479.88,0,0
35772.2,79.4167,-3454.24,0,0
36032.5,77.7718,-3428.82,0,0
36292.8,77.1976,-3403.32,0,0
36553.1,76.503,-3378.93,0,0
36813.5,76.1752,-3354.09,0,0
37073.8,76.186,-3330.08,0,0
37334.1,75.2226,-3306.68,0,0
37594.4,74.9016,-3283.16,0,0
37854.8,74.2451,-3260.44,0,0
38115.1,73.5507,-3237.53,0,0
38375.4,73.2882,-3214.68,0,0
38635.7,72.8657,-3192.85,0,0
38896.1,72.5955,-3170.66,0,0
39156.4,72.4966,-3148.59,0,0
39416.7,72.2316,-3128.47,0,0
39677,71.4809,-3106.88,0,0
39937.4,70.9353,-3085.86,0,0
40197.7,71.2131,-3065.06,0,0
40458,70.7165,-3045.19,0,0
40718.3,70.7643,-3024.46,0,0
40978.7,72.4636,-3005.06,0,0
41239,72.0513,-2987.16,0,0
41499.3,71.7363,-2968.64,0,0
41759.6,70.959,-2950.24,0,0
42020,70.2499,-2931.15,0,0
42280.275,70.1437,-2912.79,0,0
42540.6,70.5679,-2894.66,0,0
42800.925,70.2492,-2877.61,0,0
43061.25,69.4766,-2859.65,0,0
43321.575,69.4001,-2842.58,0,0
43581.9,68.7566,-2825.43,0,0
43842.225,67.8473,-2807.63,0,0
44102.55,67.895,-2790.01,0,0
44362.875,68.7014,-2773.22,0,0
44623.2,69.0385,-2757.77,0,0
44883.525,68.353,-2741.99,0,0
45143.85,68.6095,-2726.17,0,0
45404.175,68.7096,-2710.15,0,0
45664.5,67.5888,-2695.68,0,0
45924.825,66.5699,-2680.14,0,0
46185.15,66.4015,-2664.49,0,0
46445.475,65.3876,-2649.5,0,0
46705.8,64.9737,-2633.99,0,0
46966.125,65.0831,-2619.67,0,0
47226.45,64.6053,-2604.43,0,0
47486.775,64.343,-2589.82,0,0
47747.1,64.025,-2575.69,0,0
48007.425,63.7523,-2561.42,0,0
48267.75,63.5805,-2547.47,0,0
48528.075,62.6756,-2534.09,0,0
48788.4,61.8499,-2519.79,0,0
49048.725,61.3982,-2505.59,0,0
49309.05,61.4871,-2491.76,0,0
49569.375,61.3118,-2478.59,0,0
49829.7,61.0558,-2465.68,0,0
50090.025,60.2706,-2452.42,0,0
50350.35,59.6409,-2439.05,0,0
50610.675,59.4595,-2425.62,0,0
50871.0,59.3275,-2412.68,0,0
51131.325,59.4643,-2400.07,0,0
51391.65,59.3308,-2387.66,0,0
51651.975,58.6809,-2375.15,0,0
51912.3,58.2682,-2362.91,0,0
52172.625,58.1833,-2350.38,0,0
52432.95,58.0694,-2338.26,0,0
52693.275,57.7226,-2326.29,0,0
52953.6,57.7869,-2314.21,0,0
53213.925,57.695,-2302.47,0,0
53474.25,57.4809,-2291.18,0,0
53734.575,57.3082,-2279.42,0,0
53994.9,57.2776,-2268.37,0,0
54255.225,56.733,-2257.21,0,0
54515.55,56.1902,-2245.86,0,0
54775.875,56.065,-2234.68,0,0
55036.2,55.8838,-2223.38,0,0
55296.525,55.967,-2212.31,0,0
55556.85,55.8396,-2201.78,0,0
55817.175,55.5126,-2191.13,0,0
56077.5,55.0792,-2180.3,0,0
56337.825,54.8721,-2169.64,0,0
56598.15,54.8547,-2158.86,0,0
56858.475,54.9197,-2148.66,0,0
57118.8,54.6295,-2138.52,0,0
57379.125,54.5066,-2127.91,0,0
57639.45,54.7854,-2117.89,0,0
57899.775,54.5674,-2107.91,0,0
58160.1,54.5948,-2097.98,0,0
58420.4,54.5633,-2088.27,0,0
58680.7,54.3229,-2078.51,0,0
58941.1,54.2964,-2068.7,0,0
59201.4,54.525,-2059.01,0,0
59461.7,54.4949,-2049.98,0,0
59722,54.226,-2040.53,0,0
59982.4,54.1323,-2031.13,0,0
60242.7,54.1974,-2021.84,0,0
60503,54.2388,-2012.57,0,0
60763.3,54.5122,-2003.86,0,0
61023.7,54.1274,-1995.4,0,0
61284,53.6363,-1986.35,0,0
61544.3,53.2512,-1977.4,0,0
61804.6,53.4345,-1968.31,0,0
62065,53.0604,-1959.96,0,0
62325.3,52.6875,-1951.09,0,0
62585.6,52.6019,-1942.3,0,0
62845.9,52.5022,-1933.46,0,0
63106.3,52.6411,-1924.83,0,0
63366.6,52.4706,-1916.34,0,0
63626.9,52.587,-1907.83,0,0
63887.2,52.4309,-1899.31,0,0
64147.6,52.6726,-1891.04,0,0
64407.9,52.7803,-1882.54,0,0
64668.2,52.9235,-1874.15,0,0
64928.5,53.6242,-1865.93,0,0
65188.9,54.0532,-1858.09,0,0
65449.2,54.7079,-1850.48,0,0
65709.5,55.2386,-1843.41,0,0
65969.8,55.1863,-1836.37,0,0
66230.2,54.9878,-1829.15,0,0
66490.5,54.935,-1821.68,0,0
66750.8,54.739,-1814.64,0,0
67011.1,54.3296,-1807.51,0,0
67271.5,53.7424,-1799.86,0,0
67531.8,54.0496,-1792.14,0,0
67792.1,54.4908,-1785.03,0,0
68052.4,54.2811,-1778.74,0,0
68312.8,53.586,-1771.43,0,0
68573.1,53.1805,-1764.09,0,0
68833.4,53.4581,-1756.95,0,0
69093.7,53.4074,-1750.4,0,0
69354.1,52.8295,-1743.58,0,0
69614.4,52.75,-1736.87,0,0
69874.7,52.1546,-1730.12,0,0
70135,51.7863,-1723.34,0,0
70395.4,51.1451,-1716.47,0,0
70655.7,50.7094,-1709.32,0,0
70916,50.5314,-1702.39,0,0
71176.3,50.4117,-1695.59,0,0
71436.7,50.2337,-1688.79,0,0
71697,49.8599,-1682.33,0,0
71957.3,49.4011,-1675.61,0,0
72217.6,48.907,-1668.9,0,0
72478,48.5216,-1661.77,0,0
72738.3,48.3232,-1654.91,0,0
72998.6,48.3337,-1648.09,0,0
73258.9,48.3752,-1641.33,0,0
73519.3,48.31,-1635.04,0,0
73779.6,48.2053,-1628.32,0,0
74039.9,48.1035,-1621.71,0,0
74300.225,48.2062,-1615.2,0,0
74560.55,48.251,-1608.71,0,0
74820.875,48.3485,-1602.29,0,0
75081.2,48.5174,-1595.95,0,0
75341.525,48.6572,-1589.76,0,0
75601.85,48.6052,-1583.54,0,0
75862.175,48.7318,-1577.21,0,0
76122.5,48.9234,-1571.02,0,0
76382.825,49.2014,-1564.93,0,0
76643.15,49.4698,-1559.01,0,0
76903.475,49.6521,-1553.1,0,0
77163.8,49.905,-1547.15,0,0
77424.125,50.1672,-1541.32,0,0
77684.45,50.2819,-1535.57,0,0
77944.775,50.4465,-1529.71,0,0
78205.1,50.7552,-1523.89,0,0
78465.425,51.3562,-1518.23,0,0
78725.75,51.8375,-1513.1,0,0
78986.075,51.9588,-1507.89,0,0
79246.4,51.9758,-1502.73,0,0
79506.725,51.7037,-1497.63,0,0
79767.05,51.4047,-1492.27,0,0
80027.375,51.3488,-1486.74,0,0
80287.7,51.169,-1481.52,0,0
80548.025,50.7909,-1476.09,0,0
80808.35,50.5929,-1470.43,0,0
81068.675,50.4462,-1464.79,0,0
81329.0,50.4871,-1459.14,0,0
81589.325,50.5356,-1453.56,0,0
81849.65,50.7224,-1448.04,0,0
82109.975,50.9888,-1442.71,0,0
82370.3,51.1241,-1437.39,0,0
82630.625,51.1752,-1432.14,0,0
82890.95,51.2632,-1426.71,0,0
83151.275,51.5818,-1421.33,0,0
83411.6,51.9776,-1416.14,0,0
83671.925,52.0418,-1410.94,0,0
83932.25,52.3064,-1405.77,0,0
84192.575,52.7339,-1400.64,0,0
84452.9,52.9827,-1395.43,0,0
84713.225,53.447,-1390.38,0,0
84973.55,53.8107,-1385.39,0,0
85233.875,54.3489,-1380.38,0,0
85494.2,54.8959,-1375.72,0,0
85754.525,55.2787,-1371.22,0,0
86014.85,55.4979,-1366.58,0,0
86275.175,55.6614,-1361.97,0,0
86535.5,55.7743,-1357.34,0,0
86795.825,55.9541,-1352.74,0,0
87056.15,55.9907,-1347.93,0,0
87316.475,56.3634,-1343.2,0,0
87576.8,56.504,-1338.82,0,0
87837.125,56.438,-1334.18,0,0
88097.45,56.2469,-1329.39,0,0
88357.775,56.2472,-1324.33,0,0
88618.1,56.6352,-1319.09,0,0
88878.425,57.1473,-1314.34,0,0
89138.75,57.4571,-1309.41,0,0
89399.075,58.02,-1304.57,0,0
89659.4,58.7372,-1299.72,0,0
89919.725,59.4971,-1295.11,0,0
90180,60.2091,-1290.65,0,0
90440.4,60.8341,-1286.13,0,0
90700.7,61.3711,-1281.39,0,0
90961,62.329,-1276.57,0,0
91221.3,63.7423,-1271.84,0,0
91481.7,65.3019,-1267.56,0,0
91742,66.5764,-1263.98,0,0
92002.3,67.6515,-1260.1,0,0
92262.6,68.8567,-1256.17,0,0
92523,70.1702,-1252.29,0,0
92783.3,71.8946,-1248.64,0,0
93043.6,73.7343,-1245.87,0,0
93303.9,75.0262,-1243.27,0,0
93564.3,76.533,-1240.41,0,0
93824.6,78.9386,-1238.93,0,0
94084.9,79.4432,-1239.63,0,0
94345.2,76.9242,-1239.45,0,0
94605.6,73.9964,-1236.25,0,0
94865.9,72.8936,-1232.9,0,0
95126.2,70.97,-1229.63,0,0
95386.5,69.6021,-1225.64,0,0
95646.9,68.2858,-1221.84,0,0
95907.2,67.1615,-1217.52,0,0
96167.5,66.4836,-1212.82,0,0
96427.8,66.4583,-1208.48,0,0
96688.2,66.3211,-1204.84,0,0
96948.5,65.7378,-1201.09,0,0
97208.8,65.0973,-1196.99,0,0
97469.1,64.717,-1192.83,0,0
97729.5,64.3375,-1188.59,0,0
97989.8,64.2021,-1184.34,0,0
98250.1,64.1938,-1180.19,0,0
98510.4,64.4155,-1176.28,0,0
98770.8,64.3526,-1172.54,0,0
99031.1,64.094,-1168.75,0,0
99291.4,63.8562,-1164.8,0,0
99551.7,63.6823,-1160.86,0,0
99812.1,63.5035,-1156.84,0,0
100072,63.4334,-1152.69,0,0
100333,63.4615,-1148.7,0,0
100593,63.3559,-1144.68,0,0
100853,63.4741,-1140.63,0,0
101114,63.4505,-1136.55,0,0
101374,63.4928,-1132.57,0,0
101634,63.2938,-1128.46,0,0
101895,63.2706,-1124.21,0,0
102155,63.3021,-1119.65,0,0
102415,63.6827,-1114.99,0,0
102676,64.3929,-1110.27,0,0
102936,65.4963,-1105.87,0,0
103196,66.4287,-1101.73,0,0
103457,67.4482,-1097.65,0,0
103717,68.5403,-1093.67,0,0
103977,69.4789,-1089.57,0,0
104238,71.2593,-1085.41,0,0
104498,72.9966,-1082.17,0,0
104758,74.3677,-1079.2,0,0
105019,75.4192,-1076.34,0,0
105279,76.1206,-1073.04,0,0
105539,77.2258,-1069.49,0,0
105800,78.5626,-1066.11,0,0
106060,79.8958,-1062.94,0,0
106320.175,81.3892,-1059.98,0,0
106580.5,82.8798,-1057.27,0,0
106840.825,84.2077,-1054.8,0,0
107101.15,85.3236,-1052.28,0,0
107361.475,86.6038,-1049.75,0,0
107621.8,87.8879,-1047.54,0,0
107882.125,88.8158,-1045.49,0,0
108142.45,89.6187,-1043.31,0,0
108402.775,90.4498,-1041.04,0,0
108663.1,91.326,-1038.89,0,0
108923.425,92.1966,-1036.81,0,0
109183.75,92.9371,-1034.82,0,0
109444.075,93.835,-1033.07,0,0
109704.4,94.2716,-1031.48,0,0
109964.725,94.5392,-1030.08,0,0
110225.05,94.2523,-1028.36,0,0
110485.375,93.6846,-1026.41,0,0
110745.7,93.2283,-1023.67,0,0
111006.025,93.3784,-1021.04,0,0
111266.35,93.6233,-1018.36,0,0
111526.675,94.3043,-1015.77,0,0
111787.0,94.9407,-1013.47,0,0
112047.325,95.5362,-1011.46,0,0
112307.65,95.9565,-1009.58,0,0
112567.975,96.458,-1007.84,0,0
112828.3,96.7277,-1006.27,0,0
113088.625,96.8034,-1004.63,0,0
113348.95,96.7655,-1003.1,0,0
113609.275,96.5886,-1001.59,0,0
113869.6,96.2159,-1000.13,0,0
114129.925,95.5156,-998.42,0,0
114390.25,94.8443,-996.548,0,0
114650.575,94.2629,-994.467,0,0
114910.9,93.7759,-992.586,0,0
115171.225,93.0238,-990.726,0,0
115431.55,92.0632,-988.793,0,0
115691.875,91.1781,-986.714,0,0
115952.2,90.0832,-984.359,0,0
116212.525,89.1154,-981.858,0,0
116472.85,88.2989,-979.272,0,0
116733.175,87.5254,-976.702,0,0
116993.5,86.6815,-974.231,0,0
117253.825,85.6368,-971.534,0,0
117514.15,84.6963,-968.613,0,0
117774.475,83.9143,-965.613,0,0
118034.8,83.2518,-962.499,0,0
118295.125,82.7536,-959.366,0,0
118555.45,82.3715,-956.365,0,0
118815.775,81.948,-953.262,0,0
119076.1,81.6159,-950.159,0,0
119336.425,81.5045,-946.935,0,0
119596.75,81.4177,-943.936,0,0
119857.075,81.3815,-940.902,0,0
120117.4,81.6219,-938.036,0,0
120377.725,81.6579,-935.274,0,0
120638.05,81.7188,-932.586,0,0
120898.375,81.7642,-930.09,0,0
121158.7,81.6529,-927.714,0,0
121419.025,81.2731,-925.17,0,0
121679.35,80.997,-922.58,0,0
121939.675,80.5856,-919.924,0,0
122200.0,80.1901,-917.095,0,0
122460,79.8541,-914.211,0,0
122721,79.5824,-911.273,0,0
122981,79.4289,-908.349,0,0
123241,79.1846,-905.446,0,0
123502,79.0011,-902.417,0,0
123762,78.9148,-899.452,0,0
124022,78.8894,-896.408,0,0
124283,78.9282,-893.343,0,0
124543,79.0427,-890.389,0,0
124803,79.1352,-887.45,0,0
125064,79.1929,-884.532,0,0
125324,79.2977,-881.66,0,0
125584,79.4446,-878.593,0,0
125845,79.6982,-875.668,0,0
126105,79.9549,-872.793,0,0
126365,80.119,-869.931,0,0
126626,80.4197,-866.993,0,0
126886,80.6436,-864.118,0,0
127146,80.891,-861.199,0,0
127406,81.2692,-858.356,0,0
127667,81.586,-855.545,0,0
127927,81.8983,-852.579,0,0
128187,82.355,-849.582,0,0
128448,82.9429,-846.643,0,0
128708,83.5744,-843.907,0,0
128968,84.115,-841.255,0,0
129229,84.4966,-838.534,0,0
129489,84.9187,-835.647,0,0
129749,85.4822,-832.726,0,0
130010,86.2087,-829.708,0,0
130270,87.2459,-826.854,0,0
130530,88.2575,-824.195,0,0
130791,89.277,-821.697,0,0
131051,90.29,-819.266,0,0
131311,91.3348,-816.919,0,0
131572,92.3305,-814.743,0,0
131832,93.2403,-812.727,0,0
132092,94.0264,-810.702,0,0
132353,94.7153,-808.777,0,0
132613,95.1736,-806.766,0,0
132873,95.7156,-804.558,0,0
133134,96.348,-802.375,0,0
133394,96.9626,-800.35,0,0
133654,97.469,-798.27,0,0
133915,97.9566,-796.102,0,0
134175,98.5385,-793.856,0,0
134435,99.1918,-791.692,0,0
134696,99.7696,-789.66,0,0
134956,100.349,-787.545,0,0
135216,100.93,-785.44,0,0
135477,101.503,-783.366,0,0
135737,102.101,-781.211,0,0
135997,102.683,-779.086,0,0
136258,103.312,-776.909,0,0
136518,104.037,-774.624,0,0
136778,105.027,-772.434,0,0
137039,106.159,-770.488,0,0
137299,107.251,-768.746,0,0
137559,108.352,-767.15,0,0
137819,109.325,-765.915,0,0
138080,109.982,-764.878,0,0
138340.125,110.257,-763.79,0,0
138600.45,110.408,-762.446,0,0
138860.775,110.508,-761.136,0,0
139121.1,110.367,-759.725,0,0
139381.425,110.222,-758.027,0,0
139641.75,110.225,-756.248,0,0
139902.075,110.238,-754.511,0,0
140162.4,110.147,-752.77,0,0
140422.725,110.049,-750.93,0,0
140683.05,109.882,-749.047,0,0
140943.375,109.698,-746.975,0,0
141203.7,109.655,-744.787,0,0
141464.025,109.752,-742.643,0,0
141724.35,109.88,-740.586,0,0
141984.675,109.768,-738.582,0,0
142245.0,109.722,-736.185,0,0
142505.325,109.982,-733.807,0,0
142765.65,110.256,-731.63,0,0
143025.975,110.414,-729.461,0,0
143286.3,110.608,-727.216,0,0
143546.625,110.808,-724.767,0,0
143806.95,111.192,-722.39,0,0
144067.275,111.67,-720.062,0,0
144327.6,112.181,-717.929,0,0
144587.925,112.5,-715.722,0,0
144848.25,112.894,-713.317,0,0
145108.575,113.63,-710.944,0,0
145368.9,114.338,-708.865,0,0
145629.225,114.989,-706.826,0,0
145889.55,115.554,-704.762,0,0
146149.875,116.248,-702.726,0,0
146410.2,116.881,-700.854,0,0
146670.525,117.358,-698.924,0,0
146930.85,118.003,-696.906,0,0
147191.175,118.717,-695.125,0,0
147451.5,119.197,-693.479,0,0
147711.825,119.582,-691.804,0,0
147972.15,119.838,-690.158,0,0
148232.475,119.803,-688.321,0,0
148492.8,119.889,-686.144,0,0
148753.125,120.156,-683.938,0,0
149013.45,120.465,-681.652,0,0
149273.775,121.077,-679.314,0,0
149534.1,121.913,-677.199,0,0
149794.425,122.764,-675.532,0,0
150054.75,123.222,-674.091,0,0
150315.075,123.44,-672.518,0,0
150575.4,123.489,-670.96,0,0
150835.725,123.316,-669.331,0,0
151096.05,122.826,-667.449,0,0
151356.375,122.332,-665.193,0,0
151616.7,122.028,-662.602,0,0
151877.025,121.903,-660.004,0,0
152137.35,121.86,-657.414,0,0
152397.675,121.618,-654.732,0,0
152658.0,121.379,-651.733,0,0
152918.325,121.354,-648.44,0,0
153178.65,121.7,-645.006,0,0
153438.975,122.238,-641.617,0,0
153699.3,122.969,-638.283,0,0
153959.625,123.763,-634.991,0,0
154219.95,124.645,-631.606,0,0
154480,125.732,-628.18,0,0
154741,127.054,-624.741,0,0
155001,128.596,-621.514,0,0
155261,130.048,-618.383,0,0
155522,131.415,-615.108,0,0
155782,133.106,-611.654,0,0
156042,135.169,-608.201,0,0
156303,137.588,-604.993,0,0
156563,140.138,-602.156,0,0
156823,142.624,-599.452,0,0
157084,145.214,-596.786,0,0
157344,148.07,-594.313,0,0
157604,151.005,-592.388,0,0
157864,153.606,-590.916,0,0
158125,155.772,-589.323,0,0
158385,157.961,-587.55,0,0
158645,160.107,-585.96,0,0
158906,161.825,-584.41,0,0
159166,163.248,-582.294,0,0
159426,165.055,-579.633,0,0
159687,167.304,-576.721,0,0
159947,170.209,-573.778,0,0
160207,173.721,-571.107,0,0
160468,177.475,-568.97,0,0
160728,181.274,-567.189,0,0
160988,185.392,-565.708,0,0
161249,189.505,-564.81,0,0
161509,193.522,-564.34,0,0
161769,197.396,-564.147,0,0
162030,201.238,-564.338,0,0
162290,204.717,-565.101,0,0
162550,207.656,-565.933,0,0
162811,210.279,-566.798,0,0
163071,212.434,-567.625,0,0
163331,214.354,-568.12,0,0
163592,216.263,-568.263,0,0
163852,218.529,-568.258,0,0
164112,220.925,-568.432,0,0
164373,223.448,-568.761,0,0
164633,225.917,-569.417,0,0
164893,228.156,-570.031,0,0
165154,230.617,-570.631,0,0
165414,233.163,-571.556,0,0
165674,235.573,-572.612,0,0
165935,238.217,-574.009,0,0
166195,240.611,-575.957,0,0
166455,242.527,-578.299,0,0
166716,243.839,-580.694,0,0
166976,244.804,-582.843,0,0
167236,245.732,-584.797,0,0
167497,246.68,-587.047,0,0
167757,247.219,-589.444,0,0
168017,247.419,-591.888,0,0
168277,247.244,-594.269,0,0
168538,246.698,-596.529,0,0
168798,245.933,-598.645,0,0
169058,244.882,-600.707,0,0
169319,243.372,-602.613,0,0
169579,241.503,-604.223,0,0
169839,239.232,-605.226,0,0
170100,237.05,-605.767,0,0
170360.075,234.838,-605.776,0,0
170620.4,233.004,-605.252,0,0
170880.725,231.538,-604.871,0,0
171141.05,229.872,-604.465,0,0
171401.375,228.188,-603.539,0,0
171661.7,226.985,-602.294,0,0
171922.025,226.166,-601.204,0,0
172182.35,225.399,-600.126,0,0
172442.675,224.904,-599.008,0,0
172703.0,224.627,-598.123,0,0
172963.325,224.237,-597.563,0,0
173223.65,223.591,-597.052,0,0
173483.975,222.831,-596.227,0,0
173744.3,222.079,-595.348,0,0
174004.625,221.33,-594.286,0,0
174264.95,220.792,-593.112,0,0
174525.275,220.487,-591.872,0,0
174785.6,220.348,-590.815,0,0
175045.925,220.14,-589.851,0,0
175306.25,219.958,-588.832,0,0
175566.575,219.9,-587.766,0,0
175826.9,220.19,-586.867,0,0
176087.225,220.352,-586.442,0,0
176347.55,220.189,-586.171,0,0
176607.875,219.69,-585.759,0,0
176868.2,219.192,-585.093,0,0
177128.525,218.837,-584.289,0,0
177388.85,218.628,-583.562,0,0
177649.175,218.483,-582.946,0,0
177909.5,218.418,-582.595,0,0
178169.825,218.016,-582.501,0,0
178430.15,217.314,-582.371,0,0
178690.475,216.435,-582.041,0,0
178950.8,215.483,-581.686,0,0
179211.125,214.277,-581.263,0,0
179471.45,213.114,-580.52,0,0
179731.775,212.07,-579.887,0,0
179992.1,210.798,-579.371,0,0
180252.425,209.087,-578.728,0,0
180512.75,207.236,-577.578,0,0
180773.075,205.605,-576.065,0,0
181033.4,204.087,-574.538,0,0
181293.725,202.541,-572.863,0,0
181554.05,201.135,-570.977,0,0
181814.375,199.879,-569.088,0,0
182074.7,198.622,-567.267,0,0
182335.025,197.206,-565.259,0,0
182595.35,195.848,-563.066,0,0
182855.675,194.664,-560.707,0,0
183116.0,193.607,-558.383,0,0
183376.325,192.483,-556.052,0,0
183636.65,191.353,-553.516,0,0
183896.975,190.279,-550.884,0,0
184157.3,189.243,-548.062,0,0
184417.625,188.389,-545.094,0,0
184677.95,187.577,-542.08,0,0
184938.275,186.788,-538.885,0,0
185198.6,186.271,-535.297,0,0
185458.925,186.309,-531.72,0,0
185719.25,186.598,-528.486,0,0
185979.575,186.816,-525.427,0,0
186239.9,187.108,-522.374,0,0
186500,187.464,-519.398,0,0
186761,187.711,-516.49,0,0
187021,187.87,-513.502,0,0
187281,188.171,-510.213,0,0
187542,188.79,-506.804,0,0
187802,189.754,-503.66,0,0
188062,190.657,-500.821,0,0
188322,191.494,-498.091,0,0
188583,192.166,-495.306,0,0
188843,192.858,-492.398,0,0
189103,193.642,-489.532,0,0
189364,194.501,-486.651,0,0
189624,195.404,-483.87,0,0
189884,196.153,-481.005,0,0
190145,196.91,-478.128,0,0
190405,197.741,-475.096,0,0
190665,198.627,-471.987,0,0
190926,199.636,-468.899,0,0
191186,200.66,-465.822,0,0
191446,201.617,-462.685,0,0
191707,202.644,-459.398,0,0
191967,203.799,-455.972,0,0
192227,205.122,-452.438,0,0
192488,206.64,-448.999,0,0
192748,208.241,-445.493,0,0
193008,210.008,-442.034,0,0
193269,211.812,-438.575,0,0
193529,213.789,-435.162,0,0
193789,215.776,-431.838,0,0
194050,217.855,-428.463,0,0
194310,219.974,-425.173,0,0
194570,222.125,-421.82,0,0
194831,224.367,-418.392,0,0
195091,226.567,-414.863,0,0
195351,229.032,-411.305,0,0
195612,231.769,-407.745,0,0
195872,234.665,-404.37,0,0
196132,237.473,-401.028,0,0
196393,240.376,-397.614,0,0
196653,243.403,-394.189,0,0
196913,246.539,-390.726,0,0
197174,249.804,-387.388,0,0
197434,253.205,-383.891,0,0
197694,256.749,-380.417,0,0
197955,260.555,-376.926,0,0
198215,264.603,-373.683,0,0
198475,268.712,-370.531,0,0
198735,272.874,-367.538,0,0
198996,277.078,-364.597,0,0
199256,281.237,-361.714,0,0
199516,285.307,-358.854,0,0
199777,289.516,-355.696,0,0
200037,293.883,-352.453,0,0
200297,298.645,-349.037,0,0
200558,303.658,-345.754,0,0
200818,308.835,-342.473,0,0
201078,314.332,-339.232,0,0
201339,320.091,-336.044,0,0
201599,326.071,-332.887,0,0
201859,332.433,-329.64,0,0
202120,339.222,-326.498,0,0
202380.025,346.662,-323.452,0,0
202640.35,354.62,-320.857,0,0
202900.675,362.951,-318.973,0,0
203161.0,371.324,-317.562,0,0
203421.325,379.663,-316.551,0,0
203681.65,388.12,-315.359,0,0
203941.975,397.109,-314.344,0,0
204202.3,406.893,-313.908,0,0
204462.625,417.152,-314.18,0,0
204722.95,427.804,-315.406,0,0
204983.275,438.324,-317.714,0,0
205243.6,448.778,-321.011,0,0
205503.925,458.897,-325.178,0,0
205764.25,468.541,-330.048,0,0
206024.575,477.685,-335.599,0,0
206284.9,486.236,-341.801,0,0
206545.225,494.339,-348.397,0,0
206805.55,501.955,-355.625,0,0
207065.875,508.747,-363.449,0,0
207326.2,514.485,-371.361,0,0
207586.525,519.651,-379.189,0,0
207846.85,524.379,-387.023,0,0
208107.175,528.665,-395.05,0,0
208367.5,532.19,-403.293,0,0
208627.825,535.016,-411.34,0,0
208888.15,537.358,-419.229,0,0
209148.475,539.294,-427.102,0,0
209408.8,540.573,-434.85,0,0
209669.125,541.464,-442.577,0,0
209929.45,541.653,-450.378,0,0
210189.775,540.834,-458.081,0,0
210450.1,538.833,-464.972,0,0
210710.425,536.242,-470.613,0,0
210970.75,533.721,-475.181,0,0
211231.075,531.303,-478.804,0,0
211491.4,529.205,-481.717,0,0
211751.725,527.397,-484.174,0,0
212012.05,525.782,-486.186,0,0
212272.375,524.306,-487.405,0,0
212532.7,523.487,-487.928,0,0
212793.025,523.554,-487.995,0,0
213053.35,524.651,-488.201,0,0
213313.675,526.483,-488.723,0,0
213574.0,528.734,-489.633,0,0
213834.325,531.367,-491.01,0,0
214094.65,534.19,-492.998,0,0
214354.975,536.809,-495.432,0,0
214615.3,539.292,-498.018,0,0
214875.625,541.765,-500.722,0,0
215135.95,544.059,-503.576,0,0
215396.275,546.414,-506.382,0,0
215656.6,548.987,-509.427,0,0
215916.925,551.523,-512.927,0,0
216177.25,553.501,-516.593,0,0
216437.575,555.25,-519.951,0,0
216697.9,556.78,-523.184,0,0
216958.225,558.489,-526.065,0,0
217218.55,560.568,-528.891,0,0
217478.875,562.821,-531.916,0,0
217739.2,565.259,-535.031,0,0
217999.525,567.641,-538.382,0,0
218259.85,569.972,-541.841,0,0
218520,572.37,-545.128,0,0
218780,574.889,-548.418,0,0
219041,577.727,-551.721,0,0
219301,580.902,-555.137,0,0
219561,584.392,-558.802,0,0
219822,588.137,-562.975,0,0
220082,592.055,-567.643,0,0
220342,596.108,-572.644,0,0
220603,599.7,-578.378,0,0
220863,603.332,-584.352,0,0
221123,607.045,-590.438,0,0
221384,610.862,-597.214,0,0
221644,614.46,-604.731,0,0
221904,617.713,-612.741,0,0
222165,620.617,-621.355,0,0
222425,622.936,-630.447,0,0
222685,624.745,-639.933,0,0
222946,625.72,-649.862,0,0
223206,626.052,-659.96,0,0
223466,625.679,-669.9,0,0
223727,624.672,-679.796,0,0
223987,623.017,-689.761,0,0
224247,621.1,-699.234,0,0
224508,618.7,-708.864,0,0
224768,616.121,-718.275,0,0
225028,612.869,-727.665,0,0
225289,609.303,-737.265,0,0
225549,605.127,-746.504,0,0
225809,600.687,-755.553,0,0
226070,595.696,-764.336,0,0
226330,590.36,-772.991,0,0
226590,584.725,-781.301,0,0
226851,578.574,-789.529,0,0
227111,572.253,-797.397,0,0
227371,565.504,-805.139,0,0
227632,558.193,-812.744,0,0
227892,550.447,-820.108,0,0
228152,542.179,-826.914,0,0
228413,533.274,-833.054,0,0
228673,524.097,-838.529,0,0
228933,514.827,-843.267,0,0
229193,505.502,-847.341,0,0
229454,496.156,-850.727,0,0
229714,486.943,-853.911,0,0
229974,477.587,-856.4,0,0
230235,468.675,-858.254,0,0
230495,459.602,-859.759,0,0
230755,450.725,-860.671,0,0
231016,442.315,-861.041,0,0
231276,434.142,-861.134,0,0
231536,426.281,-860.91,0,0
231797,418.659,-860.378,0,0
232057,411.412,-859.665,0,0
232317,404.464,-858.727,0,0
232578,397.879,-857.57,0,0
232838,391.642,-856.304,0,0
233098,385.721,-854.924,0,0
233359,380.234,-853.654,0,0
233619,374.84,-852.471,0,0
233879,369.647,-851.402,0,0
234140,364.508,-850.395,0,0
234400,359.557,-849.109,0,0
234660.3,354.97,-848.107,0,0
234920.625,350.548,-847.033,0,0
235180.95,346.033,-846.594,0,0
235441.275,341.195,-846.128,0,0
235701.6,336.234,-845.4,0,0
235961.925,331.311,-844.648,0,0
236222.25,326.261,-843.734,0,0
236482.575,321.392,-842.646,0,0
236742.9,316.491,-841.437,0,0
237003.225,311.757,-840.202,0,0
237263.55,307.089,-838.934,0,0
237523.875,302.347,-837.562,0,0
237784.2,297.707,-835.976,0,0
238044.525,293.116,-834.317,0,0
238304.85,288.66,-832.638,0,0
238565.175,284.208,-830.929,0,0
238825.5,279.754,-828.906,0,0
239085.825,275.427,-826.85,0,0
239346.15,271.402,-824.734,0,0
239606.475,267.55,-822.633,0,0
239866.8,263.606,-820.259,0,0
240127.125,259.717,-818.075,0,0
240387.45,256.157,-815.761,0,0
240647.775,252.752,-813.521,0,0
240908.1,249.259,-811.345,0,0
241168.425,245.955,-809.134,0,0
241428.75,242.612,-806.878,0,0
241689.075,239.341,-804.644,0,0
241949.4,236.082,-802.222,0,0
242209.725,232.876,-799.769,0,0
242470.05,229.915,-797.187,0,0
242730.375,227.097,-794.73,0,0
242990.7,224.377,-792.191,0,0
243251.025,221.845,-789.801,0,0
243511.35,219.372,-787.414,0,0
243771.675,216.968,-785.175,0,0
244032.0,214.547,-782.924,0,0
244292.325,212.126,-780.753,0,0
244552.65,209.718,-778.579,0,0
244812.975,207.392,-776.428,0,0
245073.3,204.999,-774.439,0,0
245333.625,202.761,-772.261,0,0
245593.95,200.381,-770.001,0,0
245854.275,197.957,-767.856,0,0
246114.6,195.58,-765.68,0,0
246374.925,193.191,-763.455,0,0
246635.25,190.802,-761.12,0,0
246895.575,188.477,-758.687,0,0
247155.9,186.258,-756.316,0,0
247416.225,184.088,-753.732,0,0
247676.55,182.035,-751.205,0,0
247936.875,180.033,-748.646,0,0
248197.2,178.13,-746.064,0,0
248457.525,176.375,-743.496,0,0
248717.85,174.669,-740.954,0,0
248978.175,172.988,-738.441,0,0
249238.5,171.424,-735.878,0,0
249498.825,169.772,-733.49,0,0
249759.15,168.278,-730.973,0,0
250019.475,166.817,-728.497,0,0
250279.8,165.343,-725.981,0,0
250540,164.046,-723.639,0,0
250800,162.633,-721.245,0,0
251061,161.265,-718.809,0,0
251321,159.979,-716.351,0,0
251581,158.715,-713.936,0,0
251842,157.481,-711.516,0,0
252102,156.275,-709.085,0,0
252362,155.07,-706.657,0,0
252623,153.953,-704.278,0,0
252883,152.816,-701.807,0,0
253143,151.678,-699.338,0,0
253404,150.585,-696.808,0,0
253664,149.581,-694.176,0,0
253924,148.706,-691.541,0,0
254185,147.919,-688.955,0,0
254445,147.262,-686.334,0,0
254705,146.619,-683.802,0,0
254966,146.005,-681.198,0,0
255226,145.538,-678.825,0,0
255486,145.124,-676.216,0,0
255747,144.802,-673.871,0,0
256007,144.481,-671.538,0,0
256267,144.082,-669.253,0,0
256528,143.702,-666.981,0,0
256788,143.351,-664.645,0,0
257048,143.085,-662.272,0,0
257309,142.905,-659.958,0,0
257569,142.725,-657.667,0,0
257829,142.568,-655.423,0,0
258090,142.396,-653.105,0,0
258350,142.329,-650.781,0,0
258610,142.293,-648.434,0,0
258871,142.363,-646.036,0,0
259131,142.495,-643.586,0,0
259391,142.8,-641.16,0,0
259651,143.221,-638.793,0,0
259912,143.837,-636.52,0,0
260172,144.46,-634.293,0,0
260432,145.28,-632.221,0,0
260693,146.206,-630.201,0,0
260953,147.135,-628.317,0,0
261213,148.053,-626.603,0,0
261474,148.982,-624.914,0,0
261734,149.931,-623.361,0,0
261994,150.927,-621.852,0,0
262255,151.938,-620.41,0,0
262515,153.003,-619.047,0,0
262775,154.086,-617.751,0,0
263036,155.189,-616.58,0,0
263296,156.314,-615.507,0,0
263556,157.448,-614.532,0,0
263817,158.56,-613.67,0,0
264077,159.666,-612.828,0,0
264337,160.8,-612.124,0,0
264598,162.039,-611.427,0,0
264858,163.114,-610.886,0,0
265118,164.372,-610.355,0,0
265379,165.67,-609.913,0,0
265639,166.998,-609.767,0,0
265899,168.408,-609.794,0,0
266160,169.725,-610.039,0,0
266420,171.032,-610.557,0,0
266680.25,172.193,-611.402,0,0
266940.575,173.137,-612.413,0,0
267200.9,173.804,-613.679,0,0
267461.225,174.228,-615.069,0,0
267721.55,174.202,-616.559,0,0
267981.875,173.957,-617.99,0,0
268242.2,173.35,-619.384,0,0
268502.525,172.553,-620.724,0,0
268762.85,171.459,-622.025,0,0
269023.175,170.134,-623.173,0,0
269283.5,168.492,-624.15,0,0
269543.825,166.673,-624.961,0,0
269804.15,164.662,-625.52,0,0
270064.475,162.517,-625.67,0,0
270324.8,160.269,-625.642,0,0
270585.125,158.031,-625.235,0,0
270845.45,155.808,-624.592,0,0
271105.775,153.579,-623.675,0,0
271366.1,151.56,-622.498,0,0
271626.425,149.639,-621.147,0,0
271886.75,147.907,-619.629,0,0
272147.075,146.347,-617.937,0,0
272407.4,144.937,-616.143,0,0
272667.725,143.719,-614.297,0,0
272928.05,142.721,-612.397,0,0
273188.375,141.871,-610.443,0,0
273448.7,141.201,-608.551,0,0
273709.025,140.718,-606.674,0,0
273969.35,140.31,-604.867,0,0
274229.675,140.019,-603.112,0,0
274490.0,139.881,-601.412,0,0
274750.325,139.787,-599.745,0,0
275010.65,139.7,-598.186,0,0
275270.975,139.769,-596.645,0,0
275531.3,139.847,-595.244,0,0
275791.625,139.931,-593.919,0,0
276051.95,139.999,-592.604,0,0
276312.275,140.169,-591.275,0,0
276572.6,140.347,-590.005,0,0
276832.925,140.592,-588.77,0,0
277093.25,140.922,-587.608,0,0
277353.575,141.219,-586.476,0,0
277613.9,141.599,-585.435,0,0
277874.225,142.051,-584.467,0,0
278134.55,142.494,-583.632,0,0
278394.875,142.941,-582.872,0,0
278655.2,143.369,-582.176,0,0
278915.525,143.78,-581.594,0,0
279175.85,144.095,-581.127,0,0
279436.175,144.347,-580.646,0,0
279696.5,144.594,-580.252,0,0
279956.825,144.834,-579.891,0,0
280217.15,145.001,-579.523,0,0
280477.475,145.084,-579.278,0,0
280737.8,145.139,-579.043,0,0
280998.125,145.109,-578.821,0,0
281258.45,145.066,-578.603,0,0
281518.775,144.965,-578.501,0,0
281779.1,144.744,-578.43,0,0
282039.425,144.369,-578.358,0,0
282299.75,143.855,-578.217,0,0
282560,143.272,-577.973,0,0
282820,142.619,-577.674,0,0
283081,141.908,-577.259,0,0
283341,141.151,-576.741,0,0
283601,140.42,-576.082,0,0
283862,139.75,-575.338,0,0
284122,139.14,-574.536,0,0
284382,138.6,-573.679,0,0
284643,138.169,-572.865,0,0
284903,137.669,-572.06,0,0
285163,137.291,-571.198,0,0
285424,136.852,-570.481,0,0
285684,136.456,-569.769,0,0
285944,135.997,-569.077,0,0
286205,135.478,-568.392,0,0
286465,134.823,-567.747,0,0
286725,134.023,-566.989,0,0
286986,133.136,-566.069,0,0
287246,132.225,-564.948,0,0
287506,131.338,-563.61,0,0
287767,130.552,-562.079,0,0
288027,129.952,-560.361,0,0
288287,129.571,-558.548,0,0
288548,129.388,-556.673,0,0
288808,129.512,-554.774,0,0
289068,129.864,-552.98,0,0
289329,130.36,-551.38,0,0
289589,130.976,-549.922,0,0
289849,131.69,-548.577,0,0
290109,132.506,-547.422,0,0
290370,133.359,-546.487,0,0
290630,134.114,-545.769,0,0
290890,134.742,-545.192,0,0
291151,135.164,-544.663,0,0
291411,135.597,-544.122,0,0
291671,136.019,-543.602,0,0
291932,136.383,-543.16,0,0
292192,136.688,-542.801,0,0
292452,136.849,-542.521,0,0
292713,136.807,-542.284,0,0
292973,136.659,-541.901,0,0
293233,136.387,-541.406,0,0
293494,136.075,-540.809,0,0
293754,135.696,-540.058,0,0
294014,135.33,-539.206,0,0
294275,134.985,-538.205,0,0
294535,134.669,-537.053,0,0
294795,134.414,-535.773,0,0
295056,134.307,-534.312,0,0
295316,134.322,-532.823,0,0
295576,134.589,-531.205,0,0
295837,135.045,-529.662,0,0
296097,135.664,-528.108,0,0
296357,136.466,-526.65,0,0
296618,137.41,-525.353,0,0
296878,138.456,-524.206,0,0
297138,139.517,-523.214,0,0
297399,140.573,-522.375,0,0
297659,141.578,-521.63,0,0
297919,142.547,-520.942,0,0
298180,143.476,-520.297,0,0
298440,144.394,-519.61,0,0
298700.2,145.355,-518.932,0,0
298960.525,146.326,-518.343,0,0
299220.85,147.415,-517.764,0,0
299481.175,148.3,-517.281,0,0
299741.5,149.31,-516.801,0,0
300001.825,150.276,-516.379,0,0
300262.15,151.383,-515.829,0,0
300522.475,152.421,-515.387,0,0
300782.8,153.535,-515.005,0,0
301043.125,154.7,-514.545,0,0
301303.45,156.023,-514.158,0,0
301563.775,157.336,-513.801,0,0
301824.1,158.915,-513.731,0,0
302084.425,160.382,-513.726,0,0
302344.75,161.968,-513.894,0,0
302605.075,163.379,-514.41,0,0
302865.4,164.791,-514.919,0,0
303125.725,166.06,-515.555,0,0
303386.05,167.182,-516.361,0,0
303646.375,168.157,-517.137,0,0
303906.7,169.104,-517.843,0,0
304167.025,170.015,-518.633,0,0
304427.35,170.909,-519.355,0,0
304687.675,171.648,-520.133,0,0
304948.0,172.552,-521.019,0,0
305208.325,173.163,-521.859,0,0
305468.65,173.9,-522.732,0,0
305728.975,174.597,-523.607,0,0
305989.3,175.438,-524.612,0,0
306249.625,176.181,-525.7,0,0
306509.95,176.838,-526.886,0,0
306770.275,177.462,-528.125,0,0
307030.6,177.955,-529.594,0,0
307290.925,178.237,-531.023,0,0
307551.25,178.52,-532.517,0,0
307811.575,178.544,-534.053,0,0
308071.9,178.474,-535.643,0,0
308332.225,178.272,-537.091,0,0
308592.55,177.762,-538.476,0,0
308852.875,177.441,-539.711,0,0
309113.2,176.869,-540.884,0,0
309373.525,176.434,-541.901,0,0
309633.85,176.077,-543.044,0,0
309894.175,175.732,-543.96,0,0
310154.5,175.365,-545.064,0,0
310414.825,175.069,-546.239,0,0
310675.15,174.692,-547.484,0,0
310935.475,174.198,-548.812,0,0
311195.8,173.676,-550.086,0,0
311456.125,173.054,-551.418,0,0
311716.45,172.187,-552.841,0,0
311976.775,171.311,-554.277,0,0
312237.1,170.222,-555.753,0,0
312497.425,168.991,-557.149,0,0
312757.75,167.596,-558.371,0,0
313018.075,166.097,-559.457,0,0
313278.4,164.566,-560.534,0,0
313538.725,162.929,-561.349,0,0
313799.05,161.235,-562.109,0,0
314059.375,159.558,-562.682,0,0
314319.7,157.934,-563.262,0,0
314580,156.33,-563.682,0,0
314840,154.804,-563.934,0,0
315101,153.214,-564.199,0,0
315361,151.769,-564.432,0,0
315621,150.372,-564.788,0,0
315882,148.902,-565.04,0,0
316142,147.352,-565.34,0,0
316402,145.752,-565.578,0,0
316663,144.183,-565.65,0,0
316923,142.469,-565.775,0,0
317183,140.828,-565.766,0,0
317444,139.159,-565.585,0,0
317704,137.58,-565.519,0,0
317964,136.034,-565.312,0,0
318225,134.383,-565.049,0,0
318485,132.828,-564.761,0,0
318745,131.279,-564.442,0,0
319006,129.676,-564.027,0,0
319266,128.175,-563.568,0,0
319526,126.659,-563.106,0,0
319787,125.096,-562.607,0,0
320047,123.564,-561.961,0,0
320307,122.087,-561.341,0,0
320567,120.653,-560.653,0,0
320828,119.275,-559.848,0,0
321088,117.785,-559.016,0,0
321348,116.535,-558.104,0,0
321609,115.296,-557.202,0,0
321869,114.059,-556.296,0,0
322129,112.836,-555.361,0,0
322390,111.705,-554.36,0,0
322650,110.535,-553.402,0,0
322910,109.585,-552.287,0,0
323171,108.547,-551.156,0,0
323431,107.639,-549.969,0,0
323691,106.798,-548.754,0,0
323952,106.078,-547.592,0,0
324212,105.506,-546.444,0,0
324472,104.828,-545.36,0,0
324733,104.327,-544.362,0,0
324993,103.753,-543.292,0,0
325253,103.296,-542.289,0,0
325514,102.884,-541.351,0,0
325774,102.578,-540.379,0,0
326034,102.178,-539.394,0,0
326295,101.905,-538.587,0,0
326555,101.673,-537.758,0,0
326815,101.389,-536.934,0,0
327076,101.19,-536.207,0,0
327336,100.992,-535.573,0,0
327596,100.719,-534.955,0,0
327857,100.466,-534.397,0,0
328117,100.259,-533.803,0,0
328377,100.016,-533.385,0,0
328638,99.6765,-532.874,0,0
328898,99.3553,-532.438,0,0
329158,99.1149,-531.962,0,0
329419,98.7551,-531.586,0,0
329679,98.4186,-531.254,0,0
329939,98.0308,-530.928,0,0
330200,97.5892,-530.576,0,0
330460,97.1217,-530.283,0,0
330720.15,96.6998,-529.951,0,0
330980.475,96.2098,-529.659,0,0
331240.8,95.6118,-529.296,0,0
331501.125,95.0281,-529.036,0,0
331761.45,94.4889,-528.64,0,0
332021.775,93.8606,-528.33,0,0
332282.1,93.1395,-527.949,0,0
332542.425,92.5534,-527.631,0,0
332802.75,91.8666,-527.22,0,0
333063.075,91.1132,-526.775,0,0
333323.4,90.4051,-526.369,0,0
333583.725,89.6558,-525.882,0,0
333844.05,88.8801,-525.424,0,0
334104.375,88.1642,-524.901,0,0
334364.7,87.4446,-524.411,0,0
334625.025,86.6572,-523.887,0,0
334885.35,85.8941,-523.248,0,0
335145.675,85.0683,-522.7,0,0
335406.0,84.3169,-521.999,0,0
335666.325,83.5637,-521.353,0,0
335926.65,82.9612,-520.639,0,0
336186.975,82.155,-519.937,0,0
336447.3,81.4455,-519.214,0,0
336707.625,80.777,-518.524,0,0
336967.95,80.1033,-517.761,0,0
337228.275,79.4138,-517,0,0
337488.6,78.8419,-516.286,0,0
337748.925,78.1465,-515.511,0,0
338009.25,77.5096,-514.755,0,0
338269.575,76.8669,-513.927,0,0
338529.9,76.2483,-513.111,0,0
338790.225,75.7009,-512.316,0,0
339050.55,75.1145,-511.454,0,0
339310.875,74.559,-510.632,0,0
339571.2,74.0449,-509.772,0,0
339831.525,73.4749,-508.952,0,0
340091.85,73.0013,-508.106,0,0
340352.175,72.5709,-507.265,0,0
340612.5,72.0307,-506.438,0,0
340872.825,71.548,-505.603,0,0
341133.15,71.1539,-504.796,0,0
341393.475,70.7197,-503.966,0,0
341653.8,70.2452,-503.181,0,0
341914.125,69.8612,-502.362,0,0
342174.45,69.4534,-501.584,0,0
342434.775,68.95,-500.819,0,0
342695.1,68.5659,-500.03,0,0
342955.425,68.106,-499.325,0,0
343215.75,67.6639,-498.432,0,0
343476.075,67.2282,-497.653,0,0
343736.4,66.7602,-496.799,0,0
343996.725,66.3454,-496.01,0,0
344257.05,65.92,-495.203,0,0
344517.375,65.4435,-494.464,0,0
344777.7,65.0681,-493.552,0,0
345038.025,64.6446,-492.683,0,0
345298.35,64.206,-491.813,0,0
345558.675,63.8091,-491.041,0,0
345819.0,63.4113,-490.091,0,0
346079.325,62.9878,-489.223,0,0
346339.65,62.6045,-488.318,0,0
346599.975,62.2709,-487.475,0,0
346860,61.9074,-486.543,0,0
347121,61.5461,-485.637,0,0
347381,61.1764,-484.737,0,0
347641,60.8616,-483.713,0,0
347902,60.5283,-482.742,0,0
348162,60.3022,-481.801,0,0
348422,60.0589,-480.818,0,0
348683,59.8478,-479.862,0,0
348943,59.621,-478.932,0,0
349203,59.4521,-477.973,0,0
349464,59.3268,-477.095,0,0
349724,59.1827,-476.206,0,0
349984,59.0293,-475.347,0,0
350245,58.8472,-474.406,0,0
350505,58.7046,-473.549,0,0
350765,58.5433,-472.694,0,0
351025,58.3673,-471.817,0,0
351286,58.2393,-470.962,0,0
351546,58.1094,-470.053,0,0
351806,58.0197,-469.146,0,0
352067,57.9167,-468.35,0,0
352327,57.8194,-467.463,0,0
352587,57.7666,-466.645,0,0
352848,57.6828,-465.779,0,0
353108,57.6057,-464.981,0,0
353368,57.558,-464.173,0,0
353629,57.4294,-463.376,0,0
353889,57.4298,-462.575,0,0
354149,57.3016,-461.738,0,0
354410,57.2862,-460.92,0,0
354670,57.1913,-460.099,0,0
354930,57.1336,-459.313,0,0
355191,57.0729,-458.485,0,0
355451,57.041,-457.725,0,0
355711,57.001,-456.898,0,0
355972,56.9834,-456.135,0,0
356232,56.9443,-455.326,0,0
356492,56.969,-454.532,0,0
356753,56.9255,-453.741,0,0
357013,56.9522,-453.055,0,0
357273,56.9406,-452.243,0,0
357534,56.9393,-451.517,0,0
357794,56.9555,-450.719,0,0
358054,56.9222,-449.956,0,0
358315,56.8729,-449.169,0,0
358575,56.8827,-448.43,0,0
358835,56.9292,-447.655,0,0
359096,56.8762,-446.929,0,0
359356,56.9005,-446.168,0,0
359616,56.9132,-445.405,0,0
359877,56.9441,-444.607,0,0
360137,57.0561,-443.872,0,0
360397,57.1172,-443.125,0,0
360658,57.2182,-442.377,0,0
360918,57.2639,-441.661,0,0
361178,57.3411,-440.944,0,0
361438,57.44,-440.231,0,0
361699,57.475,-439.506,0,0
361959,57.5793,-438.884,0,0
362219,57.6162,-438.162,0,0
362480,57.7016,-437.514,0,0
362740.1,57.7048,-436.784,0,0
363000.425,57.7646,-436.092,0,0
363260.75,57.8382,-435.367,0,0
363521.075,57.8747,-434.632,0,0
363781.4,57.9608,-433.873,0,0
364041.725,57.9916,-433.164,0,0
364302.05,58.088,-432.455,0,0
364562.375,58.2241,-431.732,0,0
364822.7,58.3424,-431.034,0,0
365083.025,58.4258,-430.365,0,0
365343.35,58.5749,-429.691,0,0
365603.675,58.6828,-429.012,0,0
365864.0,58.7826,-428.31,0,0
366124.325,58.9368,-427.712,0,0
366384.65,59.0505,-427.039,0,0
366644.975,59.1225,-426.346,0,0
366905.3,59.2053,-425.726,0,0
367165.625,59.1819,-425.046,0,0
367425.95,59.2598,-424.39,0,0
367686.275,59.2505,-423.64,0,0
367946.6,59.2815,-422.831,0,0
368206.925,59.3777,-421.997,0,0
368467.25,59.415,-421.124,0,0
368727.575,59.5828,-420.241,0,0
368987.9,59.7309,-419.369,0,0
369248.225,59.9713,-418.404,0,0
369508.55,60.2155,-417.489,0,0
369768.875,60.5903,-416.596,0,0
370029.2,60.9385,-415.7,0,0
370289.525,61.3886,-414.819,0,0
370549.85,61.851,-413.98,0,0
370810.175,62.3296,-413.13,0,0
371070.5,62.8805,-412.286,0,0
371330.825,63.4623,-411.537,0,0
371591.15,64.08,-410.805,0,0
371851.475,64.7771,-410.082,0,0
372111.8,65.4253,-409.481,0,0
372372.125,66.1172,-408.928,0,0
372632.45,66.8242,-408.383,0,0
372892.775,67.5478,-407.927,0,0
373153.1,68.2499,-407.454,0,0
373413.425,68.9669,-407.096,0,0
373673.75,69.6322,-406.74,0,0
373934.075,70.3781,-406.473,0,0
374194.4,71.0938,-406.253,0,0
374454.725,71.707,-406.077,0,0
374715.05,72.3327,-405.95,0,0
374975.375,72.9217,-405.861,0,0
375235.7,73.4871,-405.741,0,0
375496.025,73.9354,-405.693,0,0
375756.35,74.4275,-405.622,0,0
376016.675,74.8408,-405.612,0,0
376277.0,75.2645,-405.54,0,0
376537.325,75.6455,-405.457,0,0
376797.65,76.0336,-405.407,0,0
377057.975,76.3621,-405.313,0,0
377318.3,76.7987,-405.266,0,0
377578.625,77.1585,-405.192,0,0
377838.95,77.6095,-405.169,0,0
378099.275,77.961,-405.177,0,0
378359.6,78.2616,-405.18,0,0
378619.925,78.6599,-405.194,0,0
378880,78.9578,-405.283,0,0
379141,79.2575,-405.339,0,0
379401,79.5166,-405.438,0,0
379661,79.7516,-405.473,0,0
379922,79.9234,-405.483,0,0
380182,80.1383,-405.409,0,0
380442,80.3936,-405.4,0,0
380703,80.6789,-405.365,0,0
380963,81.0796,-405.361,0,0
381223,81.4846,-405.442,0,0
381483,81.8947,-405.648,0,0
381744,82.2622,-405.883,0,0
382004,82.5738,-406.235,0,0
382264,82.7994,-406.655,0,0
382525,82.993,-407.109,0,0
382785,83.0855,-407.542,0,0
383045,83.1018,-408.003,0,0
383306,83.0427,-408.475,0,0
383566,82.9261,-408.921,0,0
383826,82.7203,-409.378,0,0
384087,82.4774,-409.831,0,0
384347,82.1195,-410.217,0,0
384607,81.7782,-410.567,0,0
384868,81.3317,-410.878,0,0
385128,80.927,-411.117,0,0
385388,80.4193,-411.341,0,0
385649,79.9058,-411.524,0,0
385909,79.3613,-411.676,0,0
386169,78.7834,-411.798,0,0
386430,78.1778,-411.858,0,0
386690,77.5918,-411.891,0,0
386950,76.9731,-411.826,0,0
387211,76.323,-411.703,0,0
387471,75.7039,-411.551,0,0
387731,75.0849,-411.298,0,0
387992,74.5276,-411.014,0,0
388252,73.9521,-410.714,0,0
388512,73.4191,-410.364,0,0
388773,72.8897,-410.037,0,0
389033,72.4768,-409.594,0,0
389293,72.0577,-409.208,0,0
389554,71.6809,-408.785,0,0
389814,71.3276,-408.357,0,0
390074,70.9995,-407.942,0,0
390335,70.6909,-407.555,0,0
390595,70.4248,-407.178,0,0
390855,70.1603,-406.856,0,0
391116,69.893,-406.488,0,0
391376,69.6464,-406.172,0,0
391636,69.4024,-405.857,0,0
391896,69.1162,-405.542,0,0
392157,68.8118,-405.306,0,0
392417,68.5569,-405.065,0,0
392677,68.249,-404.787,0,0
392938,67.8357,-404.542,0,0
393198,67.4269,-404.308,0,0
393458,67.0228,-404.007,0,0
393719,66.5356,-403.711,0,0
393979,66.0804,-403.382,0,0
394239,65.5832,-403.029,0,0
394500,65.0794,-402.613,0,0
394760.05,64.6102,-402.193,0,0
395020.375,64.0948,-401.709,0,0
395280.7,63.5716,-401.162,0,0
395541.025,63.1405,-400.621,0,0
395801.35,62.6659,-400.025,0,0
396061.675,62.2222,-399.442,0,0
396322.0,61.8154,-398.822,0,0
396582.325,61.4168,-398.124,0,0
396842.65,61.0556,-397.459,0,0
397102.975,60.73,-396.779,0,0
397363.3,60.4202,-396.126,0,0
397623.625,60.1472,-395.412,0,0
397883.95,59.8891,-394.755,0,0
398144.275,59.6102,-394.085,0,0
398404.6,59.3676,-393.353,0,0
398664.925,59.1155,-392.665,0,0
398925.25,58.9011,-391.939,0,0
399185.575,58.7436,-391.267,0,0
399445.9,58.5387,-390.532,0,0
399706.225,58.3549,-389.828,0,0
399966.55,58.1901,-389.077,0,0
400006.6,58.2187,-388.98,0,0