File: Accelerated corrosion test data/2025-10-16_06-00-08/sample_2.csv
Frequency (Hz),Impedance (ohms),Phase (Radians),Temperature (C),Humidity (%)
10000.0,229.682,-11451.9,0,0
10260.325,223.501,-11163.8,0,0
10520.65,218.704,-10889.3,0,0
10780.975,213.733,-10628.6,0,0
11041.3,208.747,-10380.2,0,0
11301.625,204.02,-10142.9,0,0
11561.95,200.214,-9914.55,0,0
11822.275,199.265,-9705.57,0,0
12082.6,192.79,-9494.03,0,0
12342.925,187.652,-9297.77,0,0
12603.25,183.738,-9105.62,0,0
12863.575,180.454,-8921.17,0,0
13123.9,177.487,-8747.64,0,0
13384.225,173.195,-8576.83,0,0
13644.55,170.574,-8411.51,0,0
13904.875,187.096,-8256.26,0,0
14165.2,164.685,-8112.63,0,0
14425.525,163.016,-7963.27,0,0
14685.8,163.388,-7816.85,0,0
14946.175,159.761,-7687.66,0,0
15206.5,165.238,-7566.24,0,0
15466.825,159.937,-7430.07,0,0
15727.15,151.921,-7317.35,0,0
15987.5,148.485,-7195.72,0,0
16247.8,148.89,-7080.87,0,0
16508.125,143.258,-6970.85,0,0
16768.45,140.859,-6862.38,0,0
17028.775,139.362,-6757.92,0,0
17289.1,138.24,-6657.16,0,0
17549.425,134.566,-6557.97,0,0
17809.75,133.024,-6461.87,0,0
18070.075,130.979,-6369.52,0,0
18330.4,129.409,-6278.19,0,0
18590.725,128.08,-6189.42,0,0
18851.05,126.953,-6103.69,0,0
19111.375,128.525,-6021.2,0,0
19371.7,128.431,-5943.87,0,0
19632.025,123.198,-5865.76,0,0
19892.35,120.685,-5787.8,0,0
20152.675,119.051,-5711.91,0,0
20413.0,118.109,-5637.71,0,0
20673.3,117.375,-5564.58,0,0
20933.65,118.029,-5493.11,0,0
21193.975,123.306,-5425.29,0,0
21454.3,130.7,-5363.14,0,0
21714.625,127.572,-5307.71,0,0
21974.9,121.21,-5243.29,0,0
22235.275,118.868,-5188.32,0,0
22495.6,114.771,-5127.67,0,0
22755.925,111.759,-5066.7,0,0
23016.25,112.577,-5011.09,0,0
23276.6,113.113,-4956.46,0,0
23536.9,108.511,-4901.49,0,0
23797.225,106.888,-4846.82,0,0
24057.55,105.983,-4795.88,0,0
24317.875,102.771,-4745.08,0,0
24578.2,101.603,-4693.56,0,0
24838.525,99.556,-4643.35,0,0
25098.85,99.6111,-4594.69,0,0
25359.175,97.6897,-4547.17,0,0
25619.5,97.5951,-4500.89,0,0
25879.8,95.9107,-4454.55,0,0
26140.1,96.3865,-4409.74,0,0
26400.5,95.3526,-4366.27,0,0
26660.8,96.2063,-4324.18,0,0
26921.1,94.6246,-4281.94,0,0
27181.4,93.9122,-4242.37,0,0
27441.8,91.9691,-4201.58,0,0
27702.1,90.8236,-4161.31,0,0
27962.4,89.9843,-4120.92,0,0
28222.7,89.8637,-4082.59,0,0
28483.1,89.6397,-4044.17,0,0
28743.4,89.1941,-4007.15,0,0
29003.7,90.2976,-3970.05,0,0
29264,90.0702,-3933.48,0,0
29524.4,93.2501,-3898.31,0,0
29784.7,96.7396,-3869.18,0,0
30045,93.0314,-3837.54,0,0
30305.3,93.8442,-3804.02,0,0
30565.7,90.969,-3776.8,0,0
30826,87.7447,-3744.17,0,0
31086.3,86.8132,-3711.69,0,0
31346.6,84.9331,-3680.21,0,0
31607,85.2378,-3649.43,0,0
31867.3,83.0908,-3620.19,0,0
32127.6,81.5951,-3589.14,0,0
32387.9,82.2811,-3559.1,0,0
32648.3,83.5235,-3530.75,0,0
32908.6,83.0884,-3504.61,0,0
33168.9,81.6073,-3478.31,0,0
33429.2,79.6955,-3450.93,0,0
33689.6,79.266,-3423.55,0,0
33949.9,78.7141,-3397.55,0,0
34210.2,76.963,-3371.34,0,0
34470.5,76.1822,-3345.64,0,0
34730.9,75.5219,-3319.59,0,0
34991.2,75.0488,-3294.23,0,0
35251.5,74.4471,-3269.88,0,0
35511.8,74.0824,-3245.38,0,0
35772.2,73.7298,-3221.63,0,0
36032.5,72.9052,-3197.96,0,0
36292.8,72.3611,-3174.68,0,0
36553.1,71.8657,-3151.47,0,0
36813.5,71.6282,-3128.82,0,0
37073.8,71.1784,-3106.36,0,0
37334.1,70.7619,-3084.28,0,0
37594.4,70.374,-3062.97,0,0
37854.8,70.1851,-3041.36,0,0
38115.1,69.9503,-3020.52,0,0
38375.4,69.1226,-2999.72,0,0
38635.7,68.7579,-2979,0,0
38896.1,68.5744,-2958.67,0,0
39156.4,67.9739,-2938.81,0,0
39416.7,67.6122,-2918.73,0,0
39677,67.3145,-2899.35,0,0
39937.4,66.7657,-2880.1,0,0
40197.7,66.6072,-2860.87,0,0
40458,66.0786,-2842.05,0,0
40718.3,66.0735,-2823.1,0,0
40978.7,65.8724,-2805.15,0,0
41239,65.4769,-2786.97,0,0
41499.3,65.4278,-2769.24,0,0
41759.6,65.1773,-2751.53,0,0
42020,65.0961,-2733.91,0,0
42280.275,64.9601,-2716.93,0,0
42540.6,64.3123,-2700.48,0,0
42800.925,64.0343,-2683.52,0,0
43061.25,63.5798,-2666.79,0,0
43321.575,63.4297,-2650.18,0,0
43581.9,63.3059,-2634.17,0,0
43842.225,63.0228,-2618.1,0,0
44102.55,62.8246,-2602.14,0,0
44362.875,62.5512,-2586.44,0,0
44623.2,62.3452,-2571.05,0,0
44883.525,61.8597,-2555.62,0,0
45143.85,61.8546,-2539.96,0,0
45404.175,61.9865,-2525.36,0,0
45664.5,61.5745,-2510.88,0,0
45924.825,61.6003,-2495.55,0,0
46185.15,61.9682,-2481.47,0,0
46445.475,61.1329,-2467.73,0,0
46705.8,60.815,-2453.13,0,0
46966.125,60.7512,-2439.08,0,0
47226.45,60.8527,-2425.02,0,0
47486.775,61.0129,-2411.63,0,0
47747.1,60.3328,-2398.13,0,0
48007.425,60.3241,-2384.46,0,0
48267.75,60.8501,-2370.9,0,0
48528.075,61.4861,-2358.81,0,0
48788.4,61.0048,-2346.26,0,0
49048.725,60.5231,-2334.19,0,0
49309.05,59.8641,-2321.73,0,0
49569.375,59.2166,-2309.16,0,0
49829.7,58.5792,-2296.63,0,0
50090.025,58.4373,-2284.16,0,0
50350.35,57.8511,-2271.99,0,0
50610.675,57.5712,-2259.44,0,0
50871.0,57.6591,-2247.49,0,0
51131.325,57.4127,-2235.8,0,0
51391.65,56.9981,-2224.23,0,0
51651.975,56.6245,-2212.72,0,0
51912.3,56.2262,-2201.13,0,0
52172.625,55.7536,-2189.49,0,0
52432.95,55.6318,-2177.9,0,0
52693.275,55.2732,-2166.62,0,0
52953.6,54.9682,-2155.31,0,0
53213.925,54.8455,-2144.1,0,0
53474.25,54.7419,-2133.08,0,0
53734.575,54.4444,-2122.11,0,0
53994.9,54.3372,-2111.3,0,0
54255.225,54.3478,-2100.6,0,0
54515.55,54.1799,-2089.74,0,0
54775.875,54.1961,-2079.43,0,0
55036.2,54.0897,-2068.98,0,0
55296.525,53.8929,-2058.71,0,0
55556.85,53.8779,-2048.36,0,0
55817.175,53.925,-2038.23,0,0
56077.5,53.8562,-2028.21,0,0
56337.825,53.7653,-2018.27,0,0
56598.15,53.7182,-2008.35,0,0
56858.475,53.8414,-1998.46,0,0
57118.8,53.7582,-1988.83,0,0
57379.125,53.7884,-1979.27,0,0
57639.45,53.7918,-1969.62,0,0
57899.775,53.9423,-1960.31,0,0
58160.1,54.0207,-1951.15,0,0
58420.4,53.9086,-1941.85,0,0
58680.7,53.9124,-1932.5,0,0
58941.1,54.1282,-1923.16,0,0
59201.4,54.3044,-1914.13,0,0
59461.7,54.5686,-1904.96,0,0
59722,54.7919,-1896.12,0,0
59982.4,55.4566,-1887.18,0,0
60242.7,56.1261,-1878.98,0,0
60503,56.3111,-1870.95,0,0
60763.3,56.2414,-1862.44,0,0
61023.7,56.5648,-1853.96,0,0
61284,57.2742,-1845.71,0,0
61544.3,57.9183,-1837.91,0,0
61804.6,58.7768,-1830.41,0,0
62065,58.9044,-1823.97,0,0
62325.3,58.0849,-1816.67,0,0
62585.6,57.876,-1809.17,0,0
62845.9,57.5364,-1801.98,0,0
63106.3,56.6751,-1795.18,0,0
63366.6,55.4272,-1787.22,0,0
63626.9,55.0406,-1779.47,0,0
63887.2,54.44,-1771.84,0,0
64147.6,54.0415,-1764.13,0,0
64407.9,53.3911,-1756.57,0,0
64668.2,53.0672,-1748.84,0,0
64928.5,52.4274,-1741.86,0,0
65188.9,51.1621,-1734.06,0,0
65449.2,50.5606,-1725.7,0,0
65709.5,50.482,-1717.6,0,0
65969.8,50.7442,-1709.73,0,0
66230.2,50.7702,-1702.17,0,0
66490.5,51.0281,-1694.68,0,0
66750.8,51.0411,-1687.5,0,0
67011.1,50.9648,-1679.99,0,0
67271.5,51.2198,-1672.43,0,0
67531.8,51.7899,-1665.23,0,0
67792.1,52.3299,-1658.07,0,0
68052.4,53.176,-1651.3,0,0
68312.8,53.4175,-1645.16,0,0
68573.1,53.3487,-1638.32,0,0
68833.4,53.9739,-1631.6,0,0
69093.7,54.6907,-1625.27,0,0
69354.1,55.111,-1619.44,0,0
69614.4,55.3676,-1613.56,0,0
69874.7,55.8812,-1607.99,0,0
70135,55.6515,-1602.6,0,0
70395.4,55.3825,-1597.25,0,0
70655.7,54.3121,-1592.09,0,0
70916,53.1941,-1586.09,0,0
71176.3,52.5201,-1579.89,0,0
71436.7,51.8019,-1573.79,0,0
71697,51.2632,-1567.83,0,0
71957.3,50.238,-1562.2,0,0
72217.6,48.9547,-1555.94,0,0
72478,47.9508,-1549.31,0,0
72738.3,47.0966,-1542.73,0,0
72998.6,46.4681,-1535.91,0,0
73258.9,46.2426,-1529.32,0,0
73519.3,45.7466,-1522.99,0,0
73779.6,45.1865,-1516.42,0,0
74039.9,44.9174,-1509.62,0,0
74300.225,45.013,-1503,0,0
74560.55,45.0939,-1496.69,0,0
74820.875,45.0216,-1490.33,0,0
75081.2,45.1753,-1483.94,0,0
75341.525,45.4478,-1477.68,0,0
75601.85,45.6637,-1471.57,0,0
75862.175,46.0245,-1465.42,0,0
76122.5,46.4654,-1459.33,0,0
76382.825,46.8973,-1453.52,0,0
76643.15,47.2973,-1447.72,0,0
76903.475,47.759,-1441.96,0,0
77163.8,48.2318,-1436.25,0,0
77424.125,48.9615,-1430.56,0,0
77684.45,49.6005,-1425.18,0,0
77944.775,50.4311,-1419.88,0,0
78205.1,51.193,-1414.77,0,0
78465.425,52.0111,-1409.91,0,0
78725.75,52.5489,-1405.38,0,0
78986.075,52.9956,-1400.85,0,0
79246.4,53.2503,-1396.47,0,0
79506.725,53.4371,-1392.24,0,0
79767.05,53.1456,-1388.06,0,0
80027.375,52.7052,-1383.9,0,0
80287.7,51.8011,-1379.4,0,0
80548.025,51.1186,-1374.44,0,0
80808.35,50.5136,-1369.48,0,0
81068.675,49.9931,-1364.37,0,0
81329.0,49.5672,-1359.29,0,0
81589.325,49.1989,-1354.24,0,0
81849.65,48.7914,-1349.15,0,0
82109.975,48.4961,-1343.98,0,0
82370.3,48.3144,-1338.84,0,0
82630.625,48.1106,-1333.67,0,0
82890.95,48.0047,-1328.5,0,0
83151.275,48.1141,-1323.36,0,0
83411.6,48.2173,-1318.31,0,0
83671.925,48.3811,-1313.39,0,0
83932.25,48.5405,-1308.44,0,0
84192.575,48.7404,-1303.66,0,0
84452.9,49.0022,-1298.93,0,0
84713.225,48.9889,-1294.29,0,0
84973.55,49.0698,-1289.61,0,0
85233.875,49.2461,-1284.87,0,0
85494.2,49.4813,-1280.12,0,0
85754.525,49.8304,-1275.41,0,0
86014.85,50.1091,-1271.1,0,0
86275.175,50.2767,-1266.67,0,0
86535.5,50.4774,-1262.43,0,0
86795.825,50.458,-1258.06,0,0
87056.15,50.7149,-1253.54,0,0
87316.475,50.9536,-1249.26,0,0
87576.8,51.1625,-1245.13,0,0
87837.125,51.0369,-1241,0,0
88097.45,51.0191,-1236.74,0,0
88357.775,51.0607,-1232.37,0,0
88618.1,51.2616,-1228.33,0,0
88878.425,50.908,-1224.14,0,0
89138.75,50.8153,-1219.41,0,0
89399.075,51.2525,-1215.18,0,0
89659.4,51.3646,-1210.88,0,0
89919.725,51.8212,-1206.76,0,0
90180,52.1281,-1202.99,0,0
90440.4,51.9233,-1199.38,0,0
90700.7,51.3887,-1195.05,0,0
90961,51.2525,-1190.28,0,0
91221.3,51.9696,-1185.77,0,0
91481.7,52.4551,-1181.86,0,0
91742,52.7042,-1177.9,0,0
92002.3,52.9208,-1173.77,0,0
92262.6,53.3412,-1169.63,0,0
92523,54.0359,-1165.77,0,0
92783.3,54.5056,-1162.2,0,0
93043.6,54.7786,-1158.51,0,0
93303.9,55.3478,-1154.8,0,0
93564.3,55.6461,-1151.46,0,0
93824.6,56.0349,-1148.1,0,0
94084.9,56.0978,-1145.14,0,0
94345.2,55.7675,-1141.96,0,0
94605.6,55.3072,-1138.25,0,0
94865.9,55.3357,-1134.57,0,0
95126.2,55.1773,-1131.24,0,0
95386.5,54.5591,-1127.59,0,0
95646.9,53.983,-1123.32,0,0
95907.2,54.1587,-1118.75,0,0
96167.5,55.0024,-1114.6,0,0
96427.8,55.863,-1111.01,0,0
96688.2,56.4419,-1107.68,0,0
96948.5,57.1146,-1104.39,0,0
97208.8,57.792,-1101.37,0,0
97469.1,58.3636,-1098.76,0,0
97729.5,58.2198,-1096.33,0,0
97989.8,57.937,-1093.46,0,0
98250.1,57.7078,-1090.43,0,0
98510.4,57.634,-1087.59,0,0
98770.8,57.3066,-1084.93,0,0
99031.1,56.7416,-1082.25,0,0
99291.4,55.9178,-1079.49,0,0
99551.7,54.805,-1076.57,0,0
99812.1,53.4797,-1073.04,0,0
100072,52.712,-1069.06,0,0
100333,52.4713,-1065.3,0,0
100593,52.1934,-1062.05,0,0
100853,51.4807,-1058.82,0,0
101114,50.6202,-1055.41,0,0
101374,49.8067,-1051.96,0,0
101634,48.6294,-1048.25,0,0
101895,47.632,-1043.99,0,0
102155,47.0848,-1039.6,0,0
102415,46.8968,-1035.33,0,0
102676,46.6993,-1031.34,0,0
102936,46.3055,-1027.31,0,0
103196,46.0023,-1023.02,0,0
103457,45.917,-1018.67,0,0
103717,46.0485,-1014.28,0,0
103977,46.36,-1010,0,0
104238,46.776,-1005.7,0,0
104498,47.518,-1001.43,0,0
104758,48.4374,-997.552,0,0
105019,49.3039,-993.911,0,0
105279,49.9932,-990.343,0,0
105539,50.7154,-986.643,0,0
105800,51.7701,-983.003,0,0
106060,52.9374,-979.771,0,0
106320.175,53.9818,-976.67,0,0
106580.5,55.0946,-973.807,0,0
106840.825,56.1446,-971.268,0,0
107101.15,56.9314,-968.952,0,0
107361.475,57.531,-966.763,0,0
107621.8,57.7164,-964.74,0,0
107882.125,57.6677,-962.453,0,0
108142.45,57.6483,-960.201,0,0
108402.775,57.192,-957.933,0,0
108663.1,56.6537,-955.4,0,0
108923.425,56.1384,-952.695,0,0
109183.75,55.5349,-949.964,0,0
109444.075,54.8294,-946.962,0,0
109704.4,54.2543,-943.947,0,0
109964.725,53.6642,-940.883,0,0
110225.05,52.9674,-937.567,0,0
110485.375,52.3582,-934.097,0,0
110745.7,51.9145,-930.478,0,0
111006.025,51.7108,-926.782,0,0
111266.35,51.6869,-923.181,0,0
111526.675,51.514,-919.682,0,0
111787.0,51.5104,-916.128,0,0
112047.325,51.6573,-912.46,0,0
112307.65,51.7883,-909.059,0,0
112567.975,51.8947,-905.62,0,0
112828.3,52.035,-902.107,0,0
113088.625,52.2584,-898.633,0,0
113348.95,52.5213,-895.112,0,0
113609.275,52.8969,-891.618,0,0
113869.6,53.3053,-888.32,0,0
114129.925,53.6699,-884.955,0,0
114390.25,54.1224,-881.554,0,0
114650.575,54.5567,-878.223,0,0
114910.9,55.0367,-874.879,0,0
115171.225,55.6602,-871.512,0,0
115431.55,56.3398,-868.294,0,0
115691.875,56.979,-865.206,0,0
115952.2,57.5901,-862.029,0,0
116212.525,58.252,-858.88,0,0
116472.85,59.0065,-855.798,0,0
116733.175,59.8028,-852.807,0,0
116993.5,60.5392,-849.871,0,0
117253.825,61.2986,-847.001,0,0
117514.15,62.0402,-844.083,0,0
117774.475,62.9407,-841.24,0,0
118034.8,63.893,-838.52,0,0
118295.125,64.7657,-836.046,0,0
118555.45,65.4885,-833.572,0,0
118815.775,66.2477,-831.007,0,0
119076.1,67.1223,-828.673,0,0
119336.425,67.7883,-826.503,0,0
119596.75,68.3533,-824.191,0,0
119857.075,69.0151,-822.019,0,0
120117.4,69.494,-819.999,0,0
120377.725,69.8437,-817.964,0,0
120638.05,70.1249,-815.93,0,0
120898.375,70.2436,-813.97,0,0
121158.7,70.1107,-811.905,0,0
121419.025,69.9574,-809.635,0,0
121679.35,69.8823,-807.297,0,0
121939.675,69.7533,-804.966,0,0
122200.0,69.5556,-802.561,0,0
122460,69.3109,-800.047,0,0
122721,69.1444,-797.38,0,0
122981,69.0727,-794.762,0,0
123241,68.9692,-792.119,0,0
123502,68.9181,-789.445,0,0
123762,68.8159,-786.833,0,0
124022,68.6331,-784.115,0,0
124283,68.534,-781.314,0,0
124543,68.4302,-778.505,0,0
124803,68.3688,-775.624,0,0
125064,68.2651,-772.693,0,0
125324,68.3105,-769.701,0,0
125584,68.354,-766.704,0,0
125845,68.4682,-763.673,0,0
126105,68.6267,-760.651,0,0
126365,68.8875,-757.61,0,0
126626,69.154,-754.589,0,0
126886,69.4666,-751.533,0,0
127146,69.834,-748.502,0,0
127406,70.2442,-745.336,0,0
127667,70.9551,-742.37,0,0
127927,71.5998,-739.485,0,0
128187,72.2252,-736.688,0,0
128448,72.8384,-733.907,0,0
128708,73.4835,-731.16,0,0
128968,74.1341,-728.472,0,0
129229,74.7999,-725.916,0,0
129489,75.3528,-723.41,0,0
129749,75.7928,-720.883,0,0
130010,76.2189,-718.251,0,0
130270,76.7751,-715.599,0,0
130530,77.3448,-712.999,0,0
130791,77.9525,-710.472,0,0
131051,78.5475,-708.072,0,0
131311,79.0152,-705.738,0,0
131572,79.3491,-703.394,0,0
131832,79.6557,-700.986,0,0
132092,79.8774,-698.565,0,0
132353,80.0196,-696.107,0,0
132613,80.0989,-693.488,0,0
132873,80.2842,-690.742,0,0
133134,80.5425,-687.995,0,0
133394,80.8317,-685.25,0,0
133654,81.1538,-682.485,0,0
133915,81.4953,-679.8,0,0
134175,81.759,-677.142,0,0
134435,81.9515,-674.412,0,0
134696,82.1118,-671.541,0,0
134956,82.3782,-668.596,0,0
135216,82.644,-665.584,0,0
135477,82.9996,-662.571,0,0
135737,83.4726,-659.485,0,0
135997,83.9955,-656.505,0,0
136258,84.5346,-653.485,0,0
136518,85.12,-650.475,0,0
136778,85.6889,-647.54,0,0
137039,86.2133,-644.562,0,0
137299,86.768,-641.46,0,0
137559,87.4513,-638.375,0,0
137819,88.1862,-635.363,0,0
138080,88.9389,-632.403,0,0
138340.125,89.5691,-629.532,0,0
138600.45,90.13,-626.535,0,0
138860.775,90.6907,-623.437,0,0
139121.1,91.3581,-620.269,0,0
139381.425,92.0802,-617.114,0,0
139641.75,92.7787,-614.002,0,0
139902.075,93.3291,-610.82,0,0
140162.4,93.8745,-607.386,0,0
140422.725,94.568,-603.746,0,0
140683.05,95.4744,-600.022,0,0
140943.375,96.5743,-596.29,0,0
141203.7,97.7673,-592.513,0,0
141464.025,99.2222,-588.681,0,0
141724.35,100.88,-584.981,0,0
141984.675,102.61,-581.384,0,0
142245.0,104.496,-577.842,0,0
142505.325,106.481,-574.402,0,0
142765.65,108.532,-571.115,0,0
143025.975,110.655,-567.97,0,0
143286.3,112.689,-564.966,0,0
143546.625,114.609,-561.922,0,0
143806.95,116.634,-558.806,0,0
144067.275,118.734,-555.748,0,0
144327.6,120.866,-552.75,0,0
144587.925,122.955,-549.808,0,0
144848.25,125.02,-546.729,0,0
145108.575,127.287,-543.536,0,0
145368.9,129.752,-540.482,0,0
145629.225,132.269,-537.507,0,0
145889.55,134.838,-534.623,0,0
146149.875,137.381,-531.794,0,0
146410.2,139.975,-528.894,0,0
146670.525,142.68,-525.999,0,0
146930.85,145.476,-523.191,0,0
147191.175,148.316,-520.315,0,0
147451.5,151.33,-517.365,0,0
147711.825,154.605,-514.487,0,0
147972.15,158.002,-511.778,0,0
148232.475,161.454,-509.062,0,0
148492.8,165.161,-506.316,0,0
148753.125,169.148,-503.657,0,0
149013.45,173.404,-501.047,0,0
149273.775,178.216,-498.626,0,0
149534.1,183.417,-496.794,0,0
149794.425,188.713,-495.508,0,0
150054.75,194.028,-494.681,0,0
150315.075,199.389,-494.181,0,0
150575.4,205.075,-494.184,0,0
150835.725,210.77,-495.241,0,0
151096.05,215.75,-497.091,0,0
151356.375,220.088,-499.174,0,0
151616.7,224.093,-501.389,0,0
151877.025,227.857,-504.009,0,0
152137.35,230.935,-507.116,0,0
152397.675,233.259,-510.189,0,0
152658.0,235.062,-513.163,0,0
152918.325,236.443,-515.973,0,0
153178.65,237.489,-518.625,0,0
153438.975,238.366,-521.173,0,0
153699.3,238.799,-523.885,0,0
153959.625,238.609,-526.396,0,0
154219.95,237.943,-528.491,0,0
154480,237.068,-530.015,0,0
154741,236.236,-531.077,0,0
155001,235.483,-531.918,0,0
155261,234.72,-532.475,0,0
155522,234.087,-532.985,0,0
155782,233.532,-533.511,0,0
156042,232.786,-534.227,0,0
156303,231.616,-534.656,0,0
156563,230.403,-534.556,0,0
156823,229.383,-534.446,0,0
157084,228.147,-534.259,0,0
157344,226.411,-533.621,0,0
157604,225.006,-532.131,0,0
157864,224.357,-530.31,0,0
158125,224.111,-528.887,0,0
158385,223.712,-527.426,0,0
158645,223.689,-525.907,0,0
158906,223.897,-524.531,0,0
159166,224.203,-523.395,0,0
159426,224.421,-522.448,0,0
159687,224.612,-521.397,0,0
159947,224.712,-520.487,0,0
160207,224.741,-519.587,0,0
160468,224.775,-518.557,0,0
160728,224.653,-517.525,0,0
160988,224.496,-516.082,0,0
161249,224.687,-514.209,0,0
161509,225.817,-512.308,0,0
161769,227.268,-511.304,0,0
162030,229.05,-510.472,0,0
162290,230.96,-510.902,0,0
162550,232.2,-512.291,0,0
162811,232.231,-513.904,0,0
163071,231.564,-515.443,0,0
163331,230.083,-516.606,0,0
163592,228.124,-517.294,0,0
163852,226.127,-517.627,0,0
164112,223.855,-517.785,0,0
164373,220.886,-517.385,0,0
164633,217.99,-516.425,0,0
164893,215.237,-514.988,0,0
165154,212.524,-513.257,0,0
165414,209.668,-511.224,0,0
165674,206.71,-508.745,0,0
165935,203.995,-505.52,0,0
166195,201.872,-502.106,0,0
166455,199.921,-498.616,0,0
166716,198.048,-494.974,0,0
166976,196.33,-490.863,0,0
167236,195.235,-486.74,0,0
167497,194.27,-482.805,0,0
167757,193.225,-478.728,0,0
168017,192.384,-474.402,0,0
168277,191.845,-469.929,0,0
168538,191.594,-465.246,0,0
168798,191.711,-460.723,0,0
169058,192.082,-456.406,0,0
169319,192.304,-452.3,0,0
169579,192.399,-448.029,0,0
169839,192.691,-443.306,0,0
170100,193.498,-438.6,0,0
170360.075,194.663,-434.114,0,0
170620.4,195.763,-430.06,0,0
170880.725,196.385,-425.982,0,0
171141.05,196.952,-421.334,0,0
171401.375,198.059,-416.414,0,0
171661.7,199.551,-411.548,0,0
171922.025,201.223,-406.873,0,0
172182.35,203.002,-402.249,0,0
172442.675,204.74,-397.696,0,0
172703.0,206.669,-392.985,0,0
172963.325,208.848,-388.184,0,0
173223.65,211.228,-383.544,0,0
173483.975,213.553,-379.046,0,0
173744.3,215.894,-374.207,0,0
174004.625,218.651,-369.242,0,0
174264.95,221.646,-364.304,0,0
174525.275,224.943,-359.314,0,0
174785.6,228.669,-354.341,0,0
175045.925,232.841,-349.609,0,0
175306.25,237.222,-345.151,0,0
175566.575,241.788,-340.848,0,0
175826.9,246.795,-336.8,0,0
176087.225,252.112,-333.267,0,0
176347.55,257.293,-330.308,0,0
176607.875,262.289,-327.686,0,0
176868.2,267.034,-325.133,0,0
177128.525,271.789,-322.413,0,0
177388.85,277,-319.649,0,0
177649.175,282.707,-317.294,0,0
177909.5,288.584,-315.798,0,0
178169.825,294.18,-315.15,0,0
178430.15,299.123,-314.896,0,0
178690.475,303.67,-314.603,0,0
178950.8,308.139,-314.653,0,0
179211.125,312.056,-315.085,0,0
179471.45,315.48,-315.665,0,0
179731.775,318.181,-316.744,0,0
179992.1,320.054,-315.853,0,0
180252.425,321.543,-315.791,0,0
180512.75,322.451,-314.913,0,0
180773.075,323.475,-313.499,0,0
181033.4,324.23,-311.59,0,0
181293.725,324.782,-308.808,0,0
181554.05,325.623,-305.028,0,0
181814.375,327.462,-300.491,0,0
182074.7,330.224,-295.901,0,0
182335.025,333.711,-291.727,0,0
182595.35,337.291,-288.031,0,0
182855.675,340.549,-284.354,0,0
183116.0,343.674,-280.155,0,0
183376.325,347.302,-275.366,0,0
183636.65,351.832,-270.49,0,0
183896.975,356.778,-265.994,0,0
184157.3,361.771,-261.635,0,0
184417.625,367.004,-256.932,0,0
184677.95,372.986,-252.045,0,0
184938.275,379.758,-247.5,0,0
185198.6,387.08,-243.674,0,0
185458.925,394.396,-240.402,0,0
185719.25,401.692,-237.41,0,0
185979.575,408.86,-234.556,0,0
186239.9,416.314,-231.71,0,0
186500,424.142,-229.299,0,0
186761,431.948,-227.488,0,0
187021,439.119,-225.642,0,0
187281,446.546,-223.207,0,0
187542,454.759,-220.749,0,0
187802,463.543,-218.85,0,0
188062,472.268,-217.66,0,0
188322,480.996,-216.663,0,0
188583,489.785,-215.979,0,0
188843,498.582,-216.084,0,0
189103,506.561,-216.51,0,0
189364,513.912,-216.206,0,0
189624,521.604,-215.386,0,0
189884,529.713,-214.267,0,0
190145,538.378,-213.058,0,0
190405,547.375,-211.863,0,0
190665,556.947,-210.949,0,0
190926,566.648,-210.147,0,0
191186,576.762,-209.126,0,0
191446,587.777,-208.07,0,0
191707,599.732,-207.663,0,0
191967,612.056,-207.923,0,0
192227,624.813,-208.635,0,0
192488,638.065,-209.915,0,0
192748,651.874,-211.751,0,0
193008,666.327,-214.342,0,0
193269,681.441,-217.993,0,0
193529,697.007,-223.029,0,0
193789,712.5,-229.587,0,0
194050,727.774,-237.59,0,0
194310,742.23,-247.011,0,0
194570,755.79,-257.284,0,0
194831,768.572,-268.116,0,0
195091,780.736,-279.578,0,0
195351,792.252,-291.813,0,0
195612,802.669,-304.487,0,0
195872,812.256,-317.239,0,0
196132,821.344,-329.945,0,0
196393,830.101,-342.919,0,0
196653,838.312,-356.246,0,0
196913,845.972,-369.52,0,0
197174,853.307,-382.791,0,0
197434,860.628,-396.183,0,0
197694,868.018,-409.914,0,0
197955,875.564,-424.418,0,0
198215,882.799,-440.043,0,0
198475,889.122,-456.969,0,0
198735,894.057,-474.682,0,0
198996,897.324,-492.509,0,0
199256,899.358,-510.244,0,0
199516,900.349,-527.254,0,0
199777,901.017,-543.676,0,0
200037,901.493,-560.065,0,0
200297,901.849,-576.848,0,0
200558,901.542,-594.107,0,0
200818,900.272,-611.733,0,0
201078,898.045,-629.533,0,0
201339,894.624,-647.928,0,0
201599,889.143,-666.152,0,0
201859,882.097,-683.021,0,0
202120,874.589,-697.935,0,0
202380.025,867.533,-712.445,0,0
202640.35,860.288,-727.264,0,0
202900.675,851.927,-742.185,0,0
203161.0,842.145,-756.377,0,0
203421.325,831.473,-769.173,0,0
203681.65,820.604,-780.533,0,0
203941.975,810.033,-790.913,0,0
204202.3,799.907,-800.921,0,0
204462.625,789.673,-810.629,0,0
204722.95,779.418,-819.973,0,0
204983.275,769.138,-829.421,0,0
205243.6,757.975,-839.003,0,0
205503.925,745.491,-848.152,0,0
205764.25,731.955,-855.652,0,0
206024.575,718.38,-861.108,0,0
206284.9,705.685,-865.222,0,0
206545.225,693.656,-868.803,0,0
206805.55,681.963,-871.837,0,0
207065.875,670.725,-874.349,0,0
207326.2,659.748,-876.187,0,0
207586.525,649.451,-877.301,0,0
207846.85,639.905,-878.057,0,0
208107.175,631.256,-878.561,0,0
208367.5,623.231,-879.287,0,0
208627.825,615.698,-880.133,0,0
208888.15,608.555,-881.141,0,0
209148.475,602.188,-882.572,0,0
209408.8,595.875,-885.015,0,0
209669.125,588.915,-888.152,0,0
209929.45,581.164,-891.449,0,0
210189.775,572.421,-894.314,0,0
210450.1,563.472,-896.677,0,0
210710.425,554.39,-898.422,0,0
210970.75,545.111,-899.847,0,0
211231.075,535.512,-900.785,0,0
211491.4,525.82,-901.119,0,0
211751.725,515.967,-900.697,0,0
212012.05,506.49,-899.19,0,0
212272.375,497.674,-897.004,0,0
212532.7,489.73,-894.69,0,0
212793.025,482.192,-892.369,0,0
213053.35,474.806,-890.009,0,0
213313.675,467.74,-887.453,0,0
213574.0,460.993,-884.754,0,0
213834.325,454.484,-881.905,0,0
214094.65,448.289,-878.93,0,0
214354.975,442.471,-875.888,0,0
214615.3,436.956,-872.806,0,0
214875.625,431.756,-869.73,0,0
215135.95,426.644,-866.701,0,0
215396.275,421.832,-863.775,0,0
215656.6,416.912,-860.695,0,0
215916.925,412.266,-857.397,0,0
216177.25,408.029,-854.037,0,0
216437.575,404.001,-850.737,0,0
216697.9,400.198,-847.479,0,0
216958.225,396.607,-844.157,0,0
217218.55,393.247,-840.849,0,0
217478.875,390.152,-837.5,0,0
217739.2,387.374,-834.318,0,0
217999.525,384.71,-831.325,0,0
218259.85,382.143,-828.429,0,0
218520,379.542,-825.494,0,0
218780,377.207,-822.449,0,0
219041,375.092,-819.483,0,0
219301,373.28,-816.624,0,0
219561,371.609,-813.886,0,0
219822,370.151,-811.1,0,0
220082,368.743,-808.684,0,0
220342,367.478,-806.494,0,0
220603,366.209,-804.338,0,0
220863,364.869,-802.166,0,0
221123,363.669,-799.868,0,0
221384,362.792,-797.683,0,0
221644,362.104,-795.67,0,0
221904,361.474,-793.802,0,0
222165,360.944,-792.014,0,0
222425,360.741,-790.426,0,0
222685,360.533,-789.211,0,0
222946,360.422,-788.235,0,0
223206,360.317,-787.491,0,0
223466,359.936,-787.153,0,0
223727,359.269,-786.838,0,0
223987,358.448,-786.457,0,0
224247,357.68,-785.991,0,0
224508,357.063,-785.62,0,0
224768,356.279,-785.391,0,0
225028,355.396,-785.195,0,0
225289,354.422,-785.022,0,0
225549,353.339,-784.746,0,0
225809,352.317,-784.229,0,0
226070,351.532,-783.63,0,0
226330,350.938,-783.242,0,0
226590,350.372,-782.902,0,0
226851,349.984,-782.567,0,0
227111,349.786,-782.423,0,0
227371,349.695,-782.629,0,0
227632,349.588,-783.139,0,0
227892,349.438,-783.749,0,0
228152,349.283,-784.647,0,0
228413,349.047,-785.868,0,0
228673,348.669,-787.313,0,0
228933,348.024,-789.156,0,0
229193,347.048,-791.088,0,0
229454,345.768,-793.126,0,0
229714,344.099,-795.13,0,0
229974,342.141,-797.264,0,0
230235,339.853,-799.268,0,0
230495,337.391,-801.181,0,0
230755,334.648,-802.783,0,0
231016,331.824,-804.378,0,0
231276,328.772,-805.69,0,0
231536,325.74,-806.834,0,0
231797,322.574,-807.848,0,0
232057,319.45,-808.782,0,0
232317,316.291,-809.668,0,0
232578,312.977,-810.496,0,0
232838,309.519,-811.187,0,0
233098,306.007,-811.651,0,0
233359,302.528,-811.995,0,0
233619,299.002,-812.142,0,0
233879,295.477,-812.275,0,0
234140,291.952,-812.292,0,0
234400,288.381,-812.111,0,0
234660.3,284.892,-811.866,0,0
234920.625,281.367,-811.404,0,0
235180.95,278.063,-810.858,0,0
235441.275,274.718,-810.458,0,0
235701.6,271.291,-809.807,0,0
235961.925,267.952,-809.218,0,0
236222.25,264.617,-808.586,0,0
236482.575,261.338,-807.825,0,0
236742.9,257.91,-807.05,0,0
237003.225,254.534,-806.207,0,0
237263.55,251.12,-805.204,0,0
237523.875,247.718,-804.135,0,0
237784.2,244.286,-802.885,0,0
238044.525,240.946,-801.514,0,0
238304.85,237.696,-800.02,0,0
238565.175,234.539,-798.492,0,0
238825.5,231.435,-796.906,0,0
239085.825,228.421,-795.145,0,0
239346.15,225.467,-793.475,0,0
239606.475,222.511,-791.68,0,0
239866.8,219.61,-789.843,0,0
240127.125,216.95,-787.905,0,0
240387.45,214.235,-785.831,0,0
240647.775,211.749,-783.803,0,0
240908.1,209.432,-781.74,0,0
241168.425,207.074,-779.692,0,0
241428.75,204.907,-777.757,0,0
241689.075,202.59,-775.834,0,0
241949.4,200.423,-773.828,0,0
242209.725,198.294,-771.739,0,0
242470.05,196.222,-769.592,0,0
242730.375,194.387,-767.532,0,0
242990.7,192.717,-765.493,0,0
243251.025,191.058,-763.605,0,0
243511.35,189.427,-761.786,0,0
243771.675,187.845,-760.101,0,0
244032.0,186.182,-758.553,0,0
244292.325,184.498,-756.955,0,0
244552.65,182.835,-755.443,0,0
244812.975,181.132,-753.9,0,0
245073.3,179.49,-752.546,0,0
245333.625,177.73,-751.113,0,0
245593.95,175.892,-749.851,0,0
245854.275,174.052,-748.509,0,0
246114.6,172.047,-747.347,0,0
246374.925,169.866,-746.222,0,0
246635.25,167.469,-744.972,0,0
246895.575,164.889,-743.541,0,0
247155.9,162.156,-741.937,0,0
247416.225,159.427,-740.096,0,0
247676.55,156.723,-738.039,0,0
247936.875,154.092,-735.8,0,0
248197.2,151.554,-733.363,0,0
248457.525,149.134,-730.819,0,0
248717.85,146.757,-728.251,0,0
248978.175,144.411,-725.631,0,0
249238.5,142.234,-722.805,0,0
249498.825,140.102,-719.962,0,0
249759.15,138.113,-716.975,0,0
250019.475,136.157,-713.97,0,0
250279.8,134.251,-710.95,0,0
250540,132.455,-707.805,0,0
250800,130.741,-704.518,0,0
251061,129.198,-701.125,0,0
251321,127.797,-697.701,0,0
251581,126.567,-694.176,0,0
251842,125.563,-690.637,0,0
252102,124.725,-687.158,0,0
252362,124.05,-683.738,0,0
252623,123.482,-680.409,0,0
252883,123.032,-677.147,0,0
253143,122.617,-673.957,0,0
253404,122.234,-670.837,0,0
253664,121.952,-667.716,0,0
253924,121.658,-664.676,0,0
254185,121.428,-661.555,0,0
254445,121.256,-658.444,0,0
254705,121.113,-655.355,0,0
254966,121.078,-652.302,0,0
255226,121.051,-649.186,0,0
255486,121.069,-646.023,0,0
255747,121.32,-642.815,0,0
256007,121.729,-639.559,0,0
256267,122.303,-636.398,0,0
256528,123.031,-633.318,0,0
256788,123.859,-630.335,0,0
257048,124.831,-627.462,0,0
257309,125.859,-624.716,0,0
257569,126.946,-622.109,0,0
257829,128.051,-619.566,0,0
258090,129.178,-617.099,0,0
258350,130.35,-614.698,0,0
258610,131.576,-612.352,0,0
258871,132.818,-610.085,0,0
259131,134.129,-607.841,0,0
259391,135.413,-605.651,0,0
259651,136.838,-603.504,0,0
259912,138.398,-601.395,0,0
260172,139.993,-599.378,0,0
260432,141.744,-597.507,0,0
260693,143.499,-595.818,0,0
260953,145.277,-594.188,0,0
261213,147.086,-592.737,0,0
261474,148.9,-591.384,0,0
261734,150.724,-590.149,0,0
261994,152.52,-589.026,0,0
262255,154.315,-587.994,0,0
262515,156.074,-587.042,0,0
262775,157.884,-586.201,0,0
263036,159.672,-585.47,0,0
263296,161.456,-584.878,0,0
263556,163.226,-584.404,0,0
263817,164.874,-584.068,0,0
264077,166.49,-583.817,0,0
264337,168.04,-583.657,0,0
264598,169.499,-583.583,0,0
264858,170.914,-583.564,0,0
265118,172.27,-583.595,0,0
265379,173.449,-583.741,0,0
265639,174.626,-583.908,0,0
265899,175.62,-584.143,0,0
266160,176.532,-584.317,0,0
266420,177.403,-584.487,0,0
266680.25,178.285,-584.665,0,0
266940.575,179.096,-584.872,0,0
267200.9,179.872,-585.136,0,0
267461.225,180.583,-585.423,0,0
267721.55,181.2,-585.752,0,0
267981.875,181.767,-586.092,0,0
268242.2,182.155,-586.496,0,0
268502.525,182.415,-586.833,0,0
268762.85,182.594,-587.123,0,0
269023.175,182.656,-587.354,0,0
269283.5,182.665,-587.447,0,0
269543.825,182.562,-587.417,0,0
269804.15,182.439,-587.195,0,0
270064.475,182.403,-586.864,0,0
270324.8,182.463,-586.335,0,0
270585.125,182.562,-585.765,0,0
270845.45,182.746,-585.043,0,0
271105.775,183.187,-584.268,0,0
271366.1,183.776,-583.513,0,0
271626.425,184.48,-582.778,0,0
271886.75,185.301,-582.113,0,0
272147.075,186.192,-581.482,0,0
272407.4,187.2,-580.837,0,0
272667.725,188.362,-580.17,0,0
272928.05,189.683,-579.566,0,0
273188.375,191.237,-579.072,0,0
273448.7,192.912,-578.751,0,0
273709.025,194.774,-578.561,0,0
273969.35,196.748,-578.585,0,0
274229.675,198.87,-578.787,0,0
274490.0,201.227,-579.245,0,0
274750.325,203.681,-580.04,0,0
275010.65,206.188,-581.312,0,0
275270.975,208.68,-583.005,0,0
275531.3,211.076,-585.229,0,0
275791.625,213.196,-587.888,0,0
276051.95,214.933,-591.01,0,0
276312.275,216.243,-594.516,0,0
276572.6,216.934,-598.238,0,0
276832.925,217.02,-602.044,0,0
277093.25,216.507,-605.731,0,0
277353.575,215.552,-609.218,0,0
277613.9,214.268,-612.403,0,0
277874.225,212.696,-615.363,0,0
278134.55,210.942,-618.078,0,0
278394.875,209.013,-620.56,0,0
278655.2,207.001,-622.838,0,0
278915.525,204.893,-624.976,0,0
279175.85,202.632,-626.927,0,0
279436.175,200.259,-628.755,0,0
279696.5,197.842,-630.351,0,0
279956.825,195.367,-631.818,0,0
280217.15,192.682,-633.088,0,0
280477.475,190.012,-634.168,0,0
280737.8,187.273,-635.049,0,0
280998.125,184.609,-635.735,0,0
281258.45,182.021,-636.26,0,0
281518.775,179.477,-636.768,0,0
281779.1,176.931,-637.262,0,0
282039.425,174.272,-637.732,0,0
282299.75,171.47,-638.087,0,0
282560,168.52,-638.288,0,0
282820,165.441,-638.236,0,0
283081,162.302,-637.831,0,0
283341,159.226,-637.083,0,0
283601,156.395,-635.999,0,0
283862,153.888,-634.694,0,0
284122,151.776,-633.41,0,0
284382,149.934,-632.319,0,0
284643,148.161,-631.558,0,0
284903,146.168,-630.952,0,0
285163,143.995,-630.496,0,0
285424,141.494,-629.868,0,0
285684,138.751,-629.077,0,0
285944,135.911,-627.963,0,0
286205,132.966,-626.542,0,0
286465,130.002,-624.786,0,0
286725,127.107,-622.603,0,0
286986,124.394,-620.052,0,0
287246,121.985,-617.196,0,0
287506,119.877,-614.094,0,0
287767,118.075,-610.921,0,0
288027,116.514,-607.561,0,0
288287,115.231,-604.099,0,0
288548,114.222,-600.501,0,0
288808,113.511,-596.729,0,0
289068,113.222,-592.83,0,0
289329,113.448,-588.865,0,0
289589,114.179,-585.039,0,0
289849,115.408,-581.311,0,0
290109,117.116,-577.975,0,0
290370,119.046,-574.951,0,0
290630,121.283,-572.201,0,0
290890,123.813,-569.773,0,0
291151,126.651,-567.774,0,0
291411,129.691,-566.249,0,0
291671,132.879,-565.247,0,0
291932,136.1,-564.851,0,0
292192,139.235,-565.022,0,0
292452,142.197,-565.797,0,0
292713,144.817,-567.172,0,0
292973,146.874,-569.034,0,0
293233,148.265,-571.141,0,0
293494,148.977,-573.268,0,0
293754,149.158,-575.215,0,0
294014,148.914,-576.939,0,0
294275,148.324,-578.27,0,0
294535,147.532,-579.191,0,0
294795,146.809,-579.683,0,0
295056,146.22,-579.848,0,0
295316,145.864,-579.839,0,0
295576,145.776,-579.71,0,0
295837,146.027,-579.558,0,0
296097,146.675,-579.545,0,0
296357,147.661,-579.916,0,0
296618,148.828,-580.856,0,0
296878,149.807,-582.523,0,0
297138,150.223,-584.712,0,0
297399,150.018,-587.089,0,0
297659,149.166,-589.45,0,0
297919,147.797,-591.555,0,0
298180,146.063,-593.31,0,0
298440,144.121,-594.718,0,0
298700.2,142.074,-595.809,0,0
298960.525,139.975,-596.567,0,0
299220.85,137.93,-597.069,0,0
299481.175,135.934,-597.459,0,0
299741.5,133.948,-597.709,0,0
300001.825,131.973,-597.812,0,0
300262.15,129.935,-597.754,0,0
300522.475,127.931,-597.491,0,0
300782.8,126.009,-597.025,0,0
301043.125,124.195,-596.369,0,0
301303.45,122.562,-595.546,0,0
301563.775,121.185,-594.628,0,0
301824.1,119.993,-593.714,0,0
302084.425,119.026,-592.856,0,0
302344.75,118.22,-592.094,0,0
302605.075,117.531,-591.498,0,0
302865.4,116.916,-591.07,0,0
303125.725,116.295,-590.825,0,0
303386.05,115.595,-590.716,0,0
303646.375,114.773,-590.73,0,0
303906.7,113.854,-590.786,0,0
304167.025,112.814,-590.905,0,0
304427.35,111.645,-591.024,0,0
304687.675,110.304,-591.135,0,0
304948.0,108.88,-591.207,0,0
305208.325,107.302,-591.212,0,0
305468.65,105.65,-591.064,0,0
305728.975,103.935,-590.802,0,0
305989.3,102.193,-590.413,0,0
306249.625,100.431,-589.903,0,0
306509.95,98.6808,-589.273,0,0
306770.275,96.9438,-588.551,0,0
307030.6,95.2455,-587.739,0,0
307290.925,93.5838,-586.821,0,0
307551.25,91.9547,-585.836,0,0
307811.575,90.4236,-584.752,0,0
308071.9,88.9251,-583.636,0,0
308332.225,87.4959,-582.427,0,0
308592.55,86.1267,-581.234,0,0
308852.875,84.8442,-579.962,0,0
309113.2,83.6075,-578.681,0,0
309373.525,82.483,-577.386,0,0
309633.85,81.4105,-576.066,0,0
309894.175,80.4021,-574.808,0,0
310154.5,79.4121,-573.542,0,0
310414.825,78.4362,-572.335,0,0
310675.15,77.4884,-571.099,0,0
310935.475,76.5475,-569.862,0,0
311195.8,75.6399,-568.605,0,0
311456.125,74.7471,-567.336,0,0
311716.45,73.8978,-566.066,0,0
311976.775,73.0298,-564.809,0,0
312237.1,72.2062,-563.527,0,0
312497.425,71.3995,-562.223,0,0
312757.75,70.6211,-560.9,0,0
313018.075,69.8915,-559.558,0,0
313278.4,69.2193,-558.228,0,0
313538.725,68.5771,-556.905,0,0
313799.05,67.9651,-555.588,0,0
314059.375,67.3632,-554.308,0,0
314319.7,66.7963,-553.032,0,0
314580,66.2221,-551.729,0,0
314840,65.6588,-550.48,0,0
315101,65.1313,-549.23,0,0
315361,64.6627,-547.948,0,0
315621,64.1496,-546.673,0,0
315882,63.696,-545.404,0,0
316142,63.2203,-544.072,0,0
316402,62.7114,-542.812,0,0
316663,62.3348,-541.473,0,0
316923,61.9695,-540.208,0,0
317183,61.591,-538.936,0,0
317444,61.299,-537.695,0,0
317704,60.9412,-536.348,0,0
317964,60.7174,-535.097,0,0
318225,60.5403,-533.914,0,0
318485,60.2919,-532.673,0,0
318745,60.0726,-531.452,0,0
319006,59.9069,-530.331,0,0
319266,59.6764,-529.129,0,0
319526,59.4472,-528.054,0,0
319787,59.2848,-526.998,0,0
320047,59.0324,-525.854,0,0
320307,58.9149,-524.731,0,0
320567,58.7518,-523.695,0,0
320828,58.5355,-522.538,0,0
321088,58.3267,-521.46,0,0
321348,58.1315,-520.399,0,0
321609,57.9061,-519.269,0,0
321869,57.6701,-518.139,0,0
322129,57.5241,-516.994,0,0
322390,57.3178,-515.875,0,0
322650,57.1981,-514.788,0,0
322910,57.0444,-513.595,0,0
323171,56.8607,-512.462,0,0
323431,56.6983,-511.251,0,0
323691,56.5588,-510.055,0,0
323952,56.435,-508.805,0,0
324212,56.3531,-507.457,0,0
324472,56.3203,-506.114,0,0
324733,56.3672,-504.766,0,0
324993,56.5252,-503.438,0,0
325253,56.7572,-502.026,0,0
325514,57.1457,-500.647,0,0
325774,57.5219,-499.367,0,0
326034,58.0131,-498.116,0,0
326295,58.6153,-496.976,0,0
326555,59.2844,-495.893,0,0
326815,59.9624,-494.995,0,0
327076,60.6777,-494.228,0,0
327336,61.3708,-493.524,0,0
327596,62.031,-492.916,0,0
327857,62.534,-492.417,0,0
328117,63.0707,-491.957,0,0
328377,63.5401,-491.497,0,0
328638,63.9069,-491.085,0,0
328898,64.307,-490.684,0,0
329158,64.6494,-490.293,0,0
329419,65.019,-489.878,0,0
329679,65.3326,-489.514,0,0
329939,65.6041,-489.277,0,0
330200,65.9144,-488.995,0,0
330460,66.1769,-488.772,0,0
330720.15,66.423,-488.552,0,0
330980.475,66.6445,-488.413,0,0
331240.8,66.7704,-488.309,0,0
331501.125,66.8447,-488.26,0,0
331761.45,66.9092,-488.177,0,0
332021.775,66.8666,-488.202,0,0
332282.1,66.7435,-488.145,0,0
332542.425,66.4779,-488.071,0,0
332802.75,66.1606,-488.071,0,0
333063.075,65.8181,-487.957,0,0
333323.4,65.3957,-487.817,0,0
333583.725,64.9306,-487.626,0,0
333844.05,64.3365,-487.276,0,0
334104.375,63.8381,-486.944,0,0
334364.7,63.3191,-486.494,0,0
334625.025,62.7725,-485.986,0,0
334885.35,62.2531,-485.451,0,0
335145.675,61.7641,-484.831,0,0
335406.0,61.2956,-484.249,0,0
335666.325,60.9003,-483.624,0,0
335926.65,60.4564,-482.923,0,0
336186.975,60.0317,-482.318,0,0
336447.3,59.6546,-481.626,0,0
336707.625,59.2594,-480.903,0,0
336967.95,58.8418,-480.238,0,0
337228.275,58.4714,-479.46,0,0
337488.6,58.1339,-478.704,0,0
337748.925,57.8389,-477.923,0,0
338009.25,57.5084,-477.109,0,0
338269.575,57.2728,-476.327,0,0
338529.9,56.9854,-475.549,0,0
338790.225,56.7506,-474.776,0,0
339050.55,56.4773,-473.957,0,0
339310.875,56.1773,-473.189,0,0
339571.2,55.9339,-472.302,0,0
339831.525,55.7367,-471.43,0,0
340091.85,55.5496,-470.595,0,0
340352.175,55.2718,-469.778,0,0
340612.5,55.1297,-468.885,0,0
340872.825,54.9899,-468.029,0,0
341133.15,54.8746,-467.111,0,0
341393.475,54.7289,-466.273,0,0
341653.8,54.6585,-465.327,0,0
341914.125,54.5541,-464.484,0,0
342174.45,54.5531,-463.627,0,0
342434.775,54.506,-462.779,0,0
342695.1,54.4232,-461.894,0,0
342955.425,54.426,-461.033,0,0
343215.75,54.3632,-460.126,0,0
343476.075,54.3803,-459.232,0,0
343736.4,54.4148,-458.391,0,0
343996.725,54.5004,-457.473,0,0
344257.05,54.5371,-456.601,0,0
344517.375,54.6111,-455.768,0,0
344777.7,54.6725,-454.85,0,0
345038.025,54.8095,-453.994,0,0
345298.35,55.0348,-453.151,0,0
345558.675,55.1745,-452.309,0,0
345819.0,55.3833,-451.469,0,0
346079.325,55.5724,-450.656,0,0
346339.65,55.7718,-449.835,0,0
346599.975,56.0207,-449.138,0,0
346860,56.2807,-448.338,0,0
347121,56.5052,-447.597,0,0
347381,56.7933,-446.878,0,0
347641,57.0331,-446.123,0,0
347902,57.3261,-445.435,0,0
348162,57.6307,-444.74,0,0
348422,57.8994,-444.097,0,0
348683,58.2088,-443.452,0,0
348943,58.5631,-442.767,0,0
349203,58.8597,-442.176,0,0
349464,59.1881,-441.546,0,0
349724,59.5184,-440.998,0,0
349984,59.8919,-440.429,0,0
350245,60.269,-439.948,0,0
350505,60.5864,-439.413,0,0
350765,60.9154,-438.901,0,0
351025,61.2385,-438.446,0,0
351286,61.5387,-438.012,0,0
351546,61.8521,-437.547,0,0
351806,62.1209,-437.174,0,0
352067,62.4038,-436.761,0,0
352327,62.6352,-436.399,0,0
352587,62.8965,-436.019,0,0
352848,63.1331,-435.581,0,0
353108,63.3234,-435.233,0,0
353368,63.5204,-434.833,0,0
353629,63.7358,-434.427,0,0
353889,63.9023,-434.036,0,0
354149,64.1224,-433.513,0,0
354410,64.3383,-433.127,0,0
354670,64.5838,-432.659,0,0
354930,64.8005,-432.277,0,0
355191,65.1083,-431.832,0,0
355451,65.3476,-431.432,0,0
355711,65.6597,-431.083,0,0
355972,65.9418,-430.702,0,0
356232,66.1701,-430.301,0,0
356492,66.455,-429.96,0,0
356753,66.7856,-429.585,0,0
357013,67.0829,-429.215,0,0
357273,67.3996,-428.891,0,0
357534,67.7326,-428.555,0,0
357794,68.0789,-428.292,0,0
358054,68.473,-428.026,0,0
358315,68.8301,-427.829,0,0
358575,69.209,-427.654,0,0
358835,69.5285,-427.52,0,0
359096,69.8826,-427.453,0,0
359356,70.2302,-427.382,0,0
359616,70.5288,-427.318,0,0
359877,70.7541,-427.318,0,0
360137,71.0077,-427.351,0,0
360397,71.2669,-427.39,0,0
360658,71.351,-427.444,0,0
360918,71.4482,-427.515,0,0
361178,71.5648,-427.539,0,0
361438,71.6202,-427.628,0,0
361699,71.6474,-427.682,0,0
361959,71.6578,-427.667,0,0
362219,71.6117,-427.769,0,0
362480,71.566,-427.812,0,0
362740.1,71.4315,-427.788,0,0
363000.425,71.3584,-427.792,0,0
363260.75,71.191,-427.776,0,0
363521.075,71.0313,-427.75,0,0
363781.4,70.8844,-427.694,0,0
364041.725,70.7443,-427.628,0,0
364302.05,70.5132,-427.501,0,0
364562.375,70.3894,-427.449,0,0
364822.7,70.178,-427.319,0,0
365083.025,70.0254,-427.189,0,0
365343.35,69.792,-427.08,0,0
365603.675,69.5532,-426.942,0,0
365864.0,69.3408,-426.744,0,0
366124.325,69.0989,-426.559,0,0
366384.65,68.8484,-426.347,0,0
366644.975,68.6437,-426.084,0,0
366905.3,68.3971,-425.787,0,0
367165.625,68.1874,-425.498,0,0
367425.95,68.009,-425.128,0,0
367686.275,67.8705,-424.828,0,0
367946.6,67.7944,-424.432,0,0
368206.925,67.7271,-424.165,0,0
368467.25,67.7865,-423.847,0,0
368727.575,67.757,-423.594,0,0
368987.9,67.7813,-423.374,0,0
369248.225,67.8037,-423.23,0,0
369508.55,67.819,-423.115,0,0
369768.875,67.8205,-423.065,0,0
370029.2,67.7002,-423.021,0,0
370289.525,67.5648,-423.036,0,0
370549.85,67.3579,-422.977,0,0
370810.175,67.0982,-422.945,0,0
371070.5,66.8303,-422.872,0,0
371330.825,66.5537,-422.733,0,0
371591.15,66.2546,-422.556,0,0
371851.475,65.9847,-422.333,0,0
372111.8,65.7075,-422.149,0,0
372372.125,65.4555,-421.928,0,0
372632.45,65.2033,-421.684,0,0
372892.775,64.9549,-421.473,0,0
373153.1,64.7087,-421.262,0,0
373413.425,64.4587,-420.979,0,0
373673.75,64.2754,-420.804,0,0
373934.075,64.0016,-420.571,0,0
374194.4,63.7744,-420.363,0,0
374454.725,63.5629,-420.17,0,0
374715.05,63.245,-419.941,0,0
374975.375,62.9634,-419.766,0,0
375235.7,62.7478,-419.558,0,0
375496.025,62.3741,-419.391,0,0
375756.35,62.044,-419.191,0,0
376016.675,61.7614,-418.938,0,0
376277.0,61.4362,-418.689,0,0
376537.325,61.0916,-418.428,0,0
376797.65,60.7202,-418.096,0,0
377057.975,60.4336,-417.872,0,0
377318.3,60.1204,-417.566,0,0
377578.625,59.8512,-417.261,0,0
377838.95,59.5744,-417.036,0,0
378099.275,59.2466,-416.831,0,0
378359.6,58.8965,-416.688,0,0
378619.925,58.51,-416.552,0,0
378880,58.0335,-416.387,0,0
379141,57.4547,-416.154,0,0
379401,56.8273,-415.873,0,0
379661,56.143,-415.478,0,0
379922,55.4554,-414.957,0,0
380182,54.7745,-414.29,0,0
380442,54.2734,-413.555,0,0
380703,53.831,-412.718,0,0
380963,53.5495,-411.876,0,0
381223,53.4508,-411.054,0,0
381483,53.436,-410.324,0,0
381744,53.4634,-409.736,0,0
382004,53.5306,-409.257,0,0
382264,53.5823,-408.891,0,0
382525,53.5073,-408.618,0,0
382785,53.4191,-408.394,0,0
383045,53.2717,-408.168,0,0
383306,52.956,-407.924,0,0
383566,52.6692,-407.7,0,0
383826,52.2785,-407.425,0,0
384087,51.8657,-407.105,0,0
384347,51.4619,-406.753,0,0
384607,51.0016,-406.399,0,0
384868,50.5716,-405.95,0,0
385128,50.098,-405.462,0,0
385388,49.6469,-404.97,0,0
385649,49.1897,-404.402,0,0
385909,48.7908,-403.819,0,0
386169,48.3404,-403.218,0,0
386430,47.9793,-402.51,0,0
386690,47.5783,-401.876,0,0
386950,47.2513,-401.188,0,0
387211,46.9811,-400.475,0,0
387471,46.7212,-399.802,0,0
387731,46.5045,-399.127,0,0
387992,46.2564,-398.441,0,0
388252,46.063,-397.72,0,0
388512,45.8565,-397.069,0,0
388773,45.6881,-396.362,0,0
389033,45.5057,-395.633,0,0
389293,45.4246,-394.948,0,0
389554,45.3111,-394.229,0,0
389814,45.2974,-393.564,0,0
390074,45.2389,-392.862,0,0
390335,45.2556,-392.221,0,0
390595,45.2726,-391.607,0,0
390855,45.3029,-391.024,0,0
391116,45.3604,-390.521,0,0
391376,45.3598,-390.047,0,0
391636,45.3725,-389.616,0,0
391896,45.3108,-389.222,0,0
392157,45.259,-388.885,0,0
392417,45.1442,-388.519,0,0
392677,44.926,-388.182,0,0
392938,44.6572,-387.815,0,0
393198,44.3895,-387.406,0,0
393458,44.0381,-386.932,0,0
393719,43.6463,-386.414,0,0
393979,43.326,-385.863,0,0
394239,42.9821,-385.249,0,0
394500,42.6313,-384.634,0,0
394760.05,42.3125,-383.906,0,0
395020.375,42.0368,-383.173,0,0
395280.7,41.7416,-382.384,0,0
395541.025,41.5084,-381.641,0,0
395801.35,41.2815,-380.852,0,0
396061.675,41.1489,-380.009,0,0
396322.0,41.0132,-379.208,0,0
396582.325,40.9009,-378.344,0,0
396842.65,40.8434,-377.534,0,0
397102.975,40.8047,-376.716,0,0
397363.3,40.7819,-375.909,0,0
397623.625,40.7594,-375.071,0,0
397883.95,40.8198,-374.28,0,0
398144.275,40.8931,-373.488,0,0
398404.6,40.9692,-372.715,0,0
398664.925,41.0614,-371.933,0,0
398925.25,41.1586,-371.198,0,0
399185.575,41.2945,-370.463,0,0
399445.9,41.4342,-369.743,0,0
399706.225,41.5648,-369.052,0,0
399966.55,41.7185,-368.362,0,0
400006.6,41.7132,-368.28,0,0