File: Accelerated corrosion test data/2025-10-16_06-00-08/sample_8.csv
Frequency (Hz),Impedance (ohms),Phase (Radians),Temperature (C),Humidity (%)
10000.0,310.526,-10972.5,0,0
10260.325,302.365,-10697.6,0,0
10520.65,295.043,-10435.7,0,0
10780.975,287.542,-10187,0,0
11041.3,281.391,-9949.67,0,0
11301.625,275.123,-9724.02,0,0
11561.95,268.906,-9506.7,0,0
11822.275,263.039,-9299.83,0,0
12082.6,260.755,-9099.86,0,0
12342.925,257.699,-8913.6,0,0
12603.25,252.692,-8732.25,0,0
12863.575,249.403,-8561.45,0,0
13123.9,240.95,-8396.33,0,0
13384.225,235.309,-8235.28,0,0
13644.55,232.422,-8079.93,0,0
13904.875,224.277,-7931.31,0,0
14165.2,219.955,-7785.64,0,0
14425.525,215.263,-7647.96,0,0
14685.8,211.043,-7512.96,0,0
14946.175,207.235,-7382.9,0,0
15206.5,204.093,-7257.04,0,0
15466.825,201.272,-7136.91,0,0
15727.15,197.622,-7020.1,0,0
15987.5,194.493,-6906.86,0,0
16247.8,191.736,-6797.32,0,0
16508.125,188.332,-6690.89,0,0
16768.45,185.118,-6587.84,0,0
17028.775,182.264,-6487.95,0,0
17289.1,179.842,-6390.74,0,0
17549.425,176.963,-6296.53,0,0
17809.75,174.693,-6204.51,0,0
18070.075,172.53,-6116.32,0,0
18330.4,169.743,-6029.1,0,0
18590.725,168.157,-5944,0,0
18851.05,168.647,-5860.78,0,0
19111.375,167.073,-5781.73,0,0
19371.7,168.69,-5706.14,0,0
19632.025,166.421,-5633.56,0,0
19892.35,162.687,-5562.9,0,0
20152.675,160.026,-5489.96,0,0
20413.0,159.969,-5419.88,0,0
20673.3,160.454,-5352.92,0,0
20933.65,157.116,-5290.37,0,0
21193.975,153.314,-5226.62,0,0
21454.3,151.112,-5162.41,0,0
21714.625,149.449,-5099.76,0,0
21974.9,148.668,-5040.34,0,0
22235.275,148.852,-4981.97,0,0
22495.6,147.213,-4925.6,0,0
22755.925,145.699,-4871.04,0,0
23016.25,143.595,-4817.02,0,0
23276.6,139.762,-4764.46,0,0
23536.9,137.216,-4711.5,0,0
23797.225,135.487,-4660.71,0,0
24057.55,133.483,-4609.5,0,0
24317.875,131.987,-4560.28,0,0
24578.2,130.155,-4512.28,0,0
24838.525,128.586,-4463.95,0,0
25098.85,127.428,-4417.55,0,0
25359.175,126.09,-4372.26,0,0
25619.5,125.153,-4327.46,0,0
25879.8,123.917,-4283.08,0,0
26140.1,122.962,-4241.14,0,0
26400.5,121.97,-4199.53,0,0
26660.8,120.186,-4157.45,0,0
26921.1,120.231,-4116.63,0,0
27181.4,120.518,-4077.15,0,0
27441.8,119.052,-4038.36,0,0
27702.1,118.436,-4001.34,0,0
27962.4,115.966,-3963.6,0,0
28222.7,117.399,-3926.63,0,0
28483.1,115.489,-3891.05,0,0
28743.4,115.284,-3855.66,0,0
29003.7,114.695,-3821.56,0,0
29264,114.772,-3786.93,0,0
29524.4,113.521,-3753.63,0,0
29784.7,113.044,-3720.56,0,0
30045,112.702,-3688.66,0,0
30305.3,111.731,-3658,0,0
30565.7,110.456,-3627.09,0,0
30826,109.149,-3596.16,0,0
31086.3,108.074,-3565.67,0,0
31346.6,107.349,-3535.37,0,0
31607,106.602,-3505.93,0,0
31867.3,106.102,-3476.69,0,0
32127.6,105.374,-3448.42,0,0
32387.9,105.106,-3419.73,0,0
32648.3,104.909,-3391.96,0,0
32908.6,105.014,-3364.64,0,0
33168.9,104.574,-3337.59,0,0
33429.2,105.056,-3311.38,0,0
33689.6,105.359,-3285.46,0,0
33949.9,105.074,-3260.27,0,0
34210.2,105.635,-3235.57,0,0
34470.5,105.795,-3211.08,0,0
34730.9,105.977,-3186.76,0,0
34991.2,106.779,-3163,0,0
35251.5,107.64,-3140.12,0,0
35511.8,108.176,-3118.03,0,0
35772.2,108.671,-3096.4,0,0
36032.5,108.911,-3075.73,0,0
36292.8,109.022,-3054.86,0,0
36553.1,108.401,-3035.01,0,0
36813.5,107.502,-3015.16,0,0
37073.8,106.961,-2995.35,0,0
37334.1,105.608,-2976.06,0,0
37594.4,103.886,-2956.86,0,0
37854.8,102.242,-2937.51,0,0
38115.1,100.034,-2918.34,0,0
38375.4,98.1038,-2898.99,0,0
38635.7,96.0849,-2879.51,0,0
38896.1,94.2029,-2860.03,0,0
39156.4,92.3192,-2840.66,0,0
39416.7,90.9521,-2821.1,0,0
39677,89.6175,-2802.21,0,0
39937.4,88.285,-2783.07,0,0
40197.7,87.3166,-2763.66,0,0
40458,87.2528,-2744.98,0,0
40718.3,87.0617,-2727.48,0,0
40978.7,86.0397,-2709.74,0,0
41239,85.4378,-2692.25,0,0
41499.3,84.6686,-2674.98,0,0
41759.6,84.4409,-2658.12,0,0
42020,83.3692,-2641.11,0,0
42280.275,82.5492,-2624.22,0,0
42540.6,82.357,-2607.29,0,0
42800.925,81.8715,-2590.78,0,0
43061.25,82.2237,-2574.64,0,0
43321.575,82.3696,-2559.34,0,0
43581.9,82.1535,-2544.28,0,0
43842.225,81.6028,-2529.74,0,0
44102.55,80.5072,-2514.77,0,0
44362.875,79.6692,-2499.76,0,0
44623.2,78.6826,-2484.73,0,0
44883.525,78.1265,-2469.89,0,0
45143.85,77.6376,-2455.28,0,0
45404.175,76.8353,-2440.69,0,0
45664.5,76.3702,-2426.35,0,0
45924.825,75.7514,-2412.32,0,0
46185.15,75.3745,-2398.08,0,0
46445.475,74.6587,-2384.22,0,0
46705.8,74.3125,-2370.46,0,0
46966.125,73.8333,-2356.68,0,0
47226.45,73.4745,-2343.23,0,0
47486.775,73.1397,-2329.79,0,0
47747.1,72.8952,-2316.82,0,0
48007.425,72.2856,-2303.86,0,0
48267.75,72.1014,-2290.98,0,0
48528.075,71.8888,-2278.37,0,0
48788.4,71.3259,-2265.96,0,0
49048.725,70.804,-2253.35,0,0
49309.05,70.3292,-2241.02,0,0
49569.375,69.8876,-2228.73,0,0
49829.7,69.4529,-2216.51,0,0
50090.025,69.1645,-2204.44,0,0
50350.35,68.7894,-2192.38,0,0
50610.675,68.6071,-2180.5,0,0
50871.0,68.2561,-2168.79,0,0
51131.325,68.0725,-2157.15,0,0
51391.65,67.899,-2145.82,0,0
51651.975,67.8595,-2134.29,0,0
51912.3,67.7848,-2123.21,0,0
52172.625,67.5711,-2112.26,0,0
52432.95,67.34,-2101.22,0,0
52693.275,67.3853,-2090.22,0,0
52953.6,67.4038,-2079.63,0,0
53213.925,67.4172,-2069.12,0,0
53474.25,67.5208,-2058.87,0,0
53734.575,67.8008,-2048.91,0,0
53994.9,67.2057,-2039.56,0,0
54255.225,66.4539,-2029.69,0,0
54515.55,65.8757,-2019.7,0,0
54775.875,65.186,-2009.57,0,0
55036.2,64.8768,-1999.98,0,0
55296.525,64.0442,-1990.23,0,0
55556.85,63.4072,-1980.22,0,0
55817.175,62.7637,-1970.35,0,0
56077.5,62.288,-1960.52,0,0
56337.825,61.8223,-1950.72,0,0
56598.15,61.4856,-1941.07,0,0
56858.475,61.1884,-1931.32,0,0
57118.8,60.9795,-1921.83,0,0
57379.125,60.7107,-1912.43,0,0
57639.45,60.6499,-1903.14,0,0
57899.775,60.3931,-1893.97,0,0
58160.1,60.1859,-1884.79,0,0
58420.4,60.0281,-1875.76,0,0
58680.7,60.0301,-1866.82,0,0
58941.1,60.0105,-1857.94,0,0
59201.4,59.8253,-1849.48,0,0
59461.7,59.6056,-1841.05,0,0
59722,59.4277,-1832.36,0,0
59982.4,58.9504,-1823.87,0,0
60242.7,58.6877,-1815.37,0,0
60503,58.3756,-1806.74,0,0
60763.3,58.2375,-1798.24,0,0
61023.7,58.1505,-1789.81,0,0
61284,58.0719,-1781.52,0,0
61544.3,58.1569,-1773.34,0,0
61804.6,58.1513,-1765.23,0,0
62065,57.8447,-1757.34,0,0
62325.3,57.7421,-1749.18,0,0
62585.6,57.6633,-1741.2,0,0
62845.9,57.7767,-1733.18,0,0
63106.3,57.8315,-1725.33,0,0
63366.6,58.0719,-1717.65,0,0
63626.9,58.1839,-1710.11,0,0
63887.2,58.2595,-1702.67,0,0
64147.6,58.5637,-1695.17,0,0
64407.9,58.7084,-1688.07,0,0
64668.2,58.6876,-1681.17,0,0
64928.5,58.6132,-1674.13,0,0
65188.9,58.4985,-1667.17,0,0
65449.2,58.2483,-1660.28,0,0
65709.5,57.8763,-1653.19,0,0
65969.8,57.9566,-1646.33,0,0
66230.2,57.6055,-1639.74,0,0
66490.5,57.1635,-1633.01,0,0
66750.8,56.5092,-1626.05,0,0
67011.1,56.1661,-1618.86,0,0
67271.5,55.9022,-1611.86,0,0
67531.8,55.7265,-1604.92,0,0
67792.1,55.6094,-1598.12,0,0
68052.4,55.4013,-1591.28,0,0
68312.8,55.2717,-1584.6,0,0
68573.1,54.938,-1577.83,0,0
68833.4,54.8073,-1571.16,0,0
69093.7,54.6983,-1564.46,0,0
69354.1,54.6665,-1557.81,0,0
69614.4,54.7238,-1551.18,0,0
69874.7,54.7307,-1544.82,0,0
70135,54.6855,-1538.3,0,0
70395.4,54.6368,-1532.06,0,0
70655.7,54.6815,-1525.76,0,0
70916,54.5703,-1519.52,0,0
71176.3,54.6663,-1513.14,0,0
71436.7,54.6883,-1507.08,0,0
71697,54.8517,-1500.9,0,0
71957.3,55.0531,-1495.04,0,0
72217.6,54.8831,-1489.27,0,0
72478,54.829,-1483.33,0,0
72738.3,54.7494,-1477.65,0,0
72998.6,54.5064,-1471.92,0,0
73258.9,54.1768,-1466,0,0
73519.3,54.2193,-1460,0,0
73779.6,54.0942,-1454.34,0,0
74039.9,53.9922,-1448.61,0,0
74300.225,53.8402,-1443,0,0
74560.55,53.6186,-1437.31,0,0
74820.875,53.406,-1431.58,0,0
75081.2,53.2533,-1425.79,0,0
75341.525,53.1761,-1420.16,0,0
75601.85,53.0416,-1414.52,0,0
75862.175,53.0541,-1408.91,0,0
76122.5,53.0735,-1403.34,0,0
76382.825,53.0197,-1397.87,0,0
76643.15,53.0089,-1392.46,0,0
76903.475,52.9948,-1387.09,0,0
77163.8,52.9069,-1381.8,0,0
77424.125,52.7984,-1376.44,0,0
77684.45,52.6719,-1371.12,0,0
77944.775,52.6017,-1365.83,0,0
78205.1,52.5079,-1360.55,0,0
78465.425,52.3329,-1355.3,0,0
78725.75,52.1554,-1350.07,0,0
78986.075,52.0215,-1344.75,0,0
79246.4,51.9203,-1339.61,0,0
79506.725,51.7659,-1334.29,0,0
79767.05,51.6296,-1329.02,0,0
80027.375,51.6893,-1323.8,0,0
80287.7,51.6512,-1318.7,0,0
80548.025,51.5811,-1313.51,0,0
80808.35,51.5311,-1308.36,0,0
81068.675,51.5211,-1303.18,0,0
81329.0,51.5676,-1298,0,0
81589.325,51.6384,-1292.87,0,0
81849.65,51.7068,-1287.82,0,0
82109.975,51.9534,-1282.68,0,0
82370.3,52.2095,-1277.83,0,0
82630.625,52.3192,-1272.9,0,0
82890.95,52.5172,-1267.93,0,0
83151.275,52.755,-1263.17,0,0
83411.6,52.8808,-1258.34,0,0
83671.925,53.1044,-1253.43,0,0
83932.25,53.419,-1248.62,0,0
84192.575,53.7692,-1244.09,0,0
84452.9,54.0136,-1239.42,0,0
84713.225,54.4776,-1234.89,0,0
84973.55,54.8943,-1230.65,0,0
85233.875,54.9734,-1226.66,0,0
85494.2,54.7069,-1222.36,0,0
85754.525,54.5491,-1217.93,0,0
86014.85,54.2148,-1213.38,0,0
86275.175,54.1306,-1208.71,0,0
86535.5,54.0238,-1204.1,0,0
86795.825,54.0935,-1199.34,0,0
87056.15,54.3085,-1194.65,0,0
87316.475,54.627,-1190.16,0,0
87576.8,54.6432,-1185.84,0,0
87837.125,54.7776,-1181.28,0,0
88097.45,54.924,-1176.77,0,0
88357.775,55.0188,-1172.36,0,0
88618.1,55.1923,-1167.92,0,0
88878.425,55.3944,-1163.45,0,0
89138.75,55.4383,-1159.01,0,0
89399.075,55.6061,-1154.41,0,0
89659.4,55.8097,-1149.88,0,0
89919.725,56.12,-1145.33,0,0
90180,56.6011,-1140.8,0,0
90440.4,56.9719,-1136.33,0,0
90700.7,57.4787,-1131.84,0,0
90961,58.0734,-1127.31,0,0
91221.3,58.8312,-1122.75,0,0
91481.7,59.8454,-1118.52,0,0
91742,60.843,-1114.57,0,0
92002.3,61.6162,-1110.74,0,0
92262.6,62.3926,-1106.95,0,0
92523,63.2355,-1103.23,0,0
92783.3,63.8584,-1099.53,0,0
93043.6,64.7517,-1096,0,0
93303.9,65.371,-1092.8,0,0
93564.3,65.6924,-1089.71,0,0
93824.6,65.5885,-1086.48,0,0
94084.9,65.2571,-1082.74,0,0
94345.2,65.4201,-1078.92,0,0
94605.6,65.3607,-1074.99,0,0
94865.9,65.7562,-1070.86,0,0
95126.2,65.9907,-1067.04,0,0
95386.5,66.3066,-1063.02,0,0
95646.9,66.8534,-1059.09,0,0
95907.2,67.2215,-1055.2,0,0
96167.5,67.7478,-1051.28,0,0
96427.8,68.2186,-1047.24,0,0
96688.2,69.132,-1043.25,0,0
96948.5,70.0095,-1039.54,0,0
97208.8,70.8357,-1035.83,0,0
97469.1,71.7478,-1032.17,0,0
97729.5,72.7075,-1028.59,0,0
97989.8,73.7419,-1025.03,0,0
98250.1,74.7559,-1021.68,0,0
98510.4,75.8119,-1018.33,0,0
98770.8,77.0056,-1015.07,0,0
99031.1,78.282,-1012.1,0,0
99291.4,79.2976,-1009.46,0,0
99551.7,80.0258,-1006.79,0,0
99812.1,80.7182,-1003.85,0,0
100072,81.5005,-1001.02,0,0
100333,82.4289,-998.216,0,0
100593,83.337,-995.578,0,0
100853,84.1405,-993.03,0,0
101114,84.9106,-990.664,0,0
101374,85.5016,-988.344,0,0
101634,86.0993,-985.989,0,0
101895,86.5597,-983.861,0,0
102155,86.8187,-981.656,0,0
102415,87.059,-979.441,0,0
102676,87.2409,-977.23,0,0
102936,87.2602,-975.127,0,0
103196,87.036,-973.025,0,0
103457,86.6343,-970.63,0,0
103717,86.2249,-968.026,0,0
103977,85.9581,-965.209,0,0
104238,85.9563,-962.437,0,0
104498,85.9123,-959.88,0,0
104758,85.7307,-957.359,0,0
105019,85.4065,-954.768,0,0
105279,85.0115,-952.005,0,0
105539,84.7937,-949.079,0,0
105800,84.6069,-946.133,0,0
106060,84.5015,-943.231,0,0
106320.175,84.489,-940.289,0,0
106580.5,84.5238,-937.374,0,0
106840.825,84.6139,-934.53,0,0
107101.15,84.7627,-931.735,0,0
107361.475,84.8951,-929.12,0,0
107621.8,84.8206,-926.562,0,0
107882.125,84.5794,-923.921,0,0
108142.45,84.3498,-921.061,0,0
108402.775,84.2269,-918.124,0,0
108663.1,84.2324,-915.146,0,0
108923.425,84.2625,-912.235,0,0
109183.75,84.372,-909.255,0,0
109444.075,84.6307,-906.354,0,0
109704.4,84.8845,-903.531,0,0
109964.725,85.1384,-900.731,0,0
110225.05,85.473,-898.099,0,0
110485.375,85.7482,-895.539,0,0
110745.7,85.9173,-893.022,0,0
111006.025,86.0629,-890.574,0,0
111266.35,86.0182,-887.93,0,0
111526.675,86.1606,-885.4,0,0
111787.0,86.3989,-882.711,0,0
112047.325,86.6149,-880.313,0,0
112307.65,86.725,-877.895,0,0
112567.975,86.7959,-875.409,0,0
112828.3,86.8746,-872.975,0,0
113088.625,86.9033,-870.617,0,0
113348.95,87.0026,-868.231,0,0
113609.275,86.977,-865.875,0,0
113869.6,87.0011,-863.557,0,0
114129.925,86.8216,-861.235,0,0
114390.25,86.6859,-858.728,0,0
114650.575,86.6032,-856.311,0,0
114910.9,86.4731,-853.857,0,0
115171.225,86.4241,-851.368,0,0
115431.55,86.4717,-849.049,0,0
115691.875,86.2533,-846.853,0,0
115952.2,85.901,-844.559,0,0
116212.525,85.5635,-842.09,0,0
116472.85,85.1877,-839.597,0,0
116733.175,84.7354,-836.993,0,0
116993.5,84.4186,-834.197,0,0
117253.825,84.3176,-831.356,0,0
117514.15,84.3758,-828.666,0,0
117774.475,84.4019,-826.125,0,0
118034.8,84.346,-823.629,0,0
118295.125,84.2604,-821.151,0,0
118555.45,84.088,-818.659,0,0
118815.775,83.9629,-816.097,0,0
119076.1,83.9113,-813.57,0,0
119336.425,83.8066,-811.203,0,0
119596.75,83.5098,-808.785,0,0
119857.075,83.2667,-806.23,0,0
120117.4,83.0072,-803.679,0,0
120377.725,82.6875,-801.064,0,0
120638.05,82.457,-798.389,0,0
120898.375,82.2442,-795.636,0,0
121158.7,82.1478,-792.956,0,0
121419.025,82.0164,-790.305,0,0
121679.35,81.8676,-787.65,0,0
121939.675,81.7217,-784.977,0,0
122200.0,81.6198,-782.268,0,0
122460,81.5931,-779.612,0,0
122721,81.5023,-777.046,0,0
122981,81.3554,-774.438,0,0
123241,81.1632,-771.798,0,0
123502,81.0032,-769.08,0,0
123762,80.8597,-766.357,0,0
124022,80.7112,-763.586,0,0
124283,80.6284,-760.741,0,0
124543,80.6205,-757.959,0,0
124803,80.6368,-755.218,0,0
125064,80.6177,-752.478,0,0
125324,80.6246,-749.75,0,0
125584,80.5955,-747.019,0,0
125845,80.577,-744.247,0,0
126105,80.5735,-741.431,0,0
126365,80.6075,-738.565,0,0
126626,80.7526,-735.708,0,0
126886,80.9007,-732.881,0,0
127146,81.2223,-730.146,0,0
127406,81.3447,-727.415,0,0
127667,81.4078,-724.726,0,0
127927,81.6283,-721.946,0,0
128187,81.8834,-719.23,0,0
128448,82.0836,-716.555,0,0
128708,82.2744,-713.946,0,0
128968,82.4083,-711.224,0,0
129229,82.6682,-708.425,0,0
129489,82.9603,-705.799,0,0
129749,83.1689,-703.258,0,0
130010,83.2707,-700.617,0,0
130270,83.392,-697.852,0,0
130530,83.6007,-695.032,0,0
130791,83.9684,-692.233,0,0
131051,84.3857,-689.533,0,0
131311,84.7907,-686.891,0,0
131572,85.2397,-684.407,0,0
131832,85.4974,-681.975,0,0
132092,85.6953,-679.47,0,0
132353,85.9167,-676.952,0,0
132613,86.0985,-674.405,0,0
132873,86.2622,-671.869,0,0
133134,86.3434,-669.296,0,0
133394,86.4125,-666.638,0,0
133654,86.5229,-663.918,0,0
133915,86.6653,-661.123,0,0
134175,86.8656,-658.299,0,0
134435,87.1424,-655.496,0,0
134696,87.3985,-652.687,0,0
134956,87.7092,-649.756,0,0
135216,88.2306,-646.84,0,0
135477,88.7806,-644.119,0,0
135737,89.3485,-641.387,0,0
135997,90.0731,-638.755,0,0
136258,90.7757,-636.425,0,0
136518,91.2423,-634.168,0,0
136778,91.6136,-632.021,0,0
137039,91.7261,-629.914,0,0
137299,91.5369,-627.6,0,0
137559,91.3661,-625.112,0,0
137819,91.1028,-622.517,0,0
138080,90.7747,-619.727,0,0
138340.125,90.4318,-616.645,0,0
138600.45,90.349,-613.345,0,0
138860.775,90.4675,-610.02,0,0
139121.1,90.7429,-606.667,0,0
139381.425,91.1834,-603.468,0,0
139641.75,91.5316,-600.321,0,0
139902.075,91.9478,-597.091,0,0
140162.4,92.4674,-593.874,0,0
140422.725,93.0031,-590.768,0,0
140683.05,93.4692,-587.623,0,0
140943.375,93.9794,-584.358,0,0
141203.7,94.6335,-581.151,0,0
141464.025,95.2589,-578.053,0,0
141724.35,95.7398,-574.915,0,0
141984.675,96.1978,-571.66,0,0
142245.0,96.7783,-568.268,0,0
142505.325,97.4208,-564.871,0,0
142765.65,98.1177,-561.41,0,0
143025.975,98.8481,-557.95,0,0
143286.3,99.638,-554.347,0,0
143546.625,100.7,-550.731,0,0
143806.95,101.782,-547.32,0,0
144067.275,102.752,-543.877,0,0
144327.6,103.759,-540.332,0,0
144587.925,104.8,-536.643,0,0
144848.25,106.057,-532.841,0,0
145108.575,107.52,-529.087,0,0
145368.9,109.086,-525.413,0,0
145629.225,110.777,-521.732,0,0
145889.55,112.623,-518.215,0,0
146149.875,114.421,-514.811,0,0
146410.2,116.185,-511.303,0,0
146670.525,118.135,-507.752,0,0
146930.85,120.249,-504.326,0,0
147191.175,122.444,-501.057,0,0
147451.5,124.586,-497.95,0,0
147711.825,126.563,-494.982,0,0
147972.15,128.283,-491.877,0,0
148232.475,130.007,-488.399,0,0
148492.8,131.939,-484.645,0,0
148753.125,134.228,-480.695,0,0
149013.45,136.872,-476.812,0,0
149273.775,139.791,-472.876,0,0
149534.1,142.972,-469.192,0,0
149794.425,146.387,-465.643,0,0
150054.75,150.065,-462.051,0,0
150315.075,153.982,-458.778,0,0
150575.4,158.197,-455.588,0,0
150835.725,162.749,-452.569,0,0
151096.05,167.881,-449.94,0,0
151356.375,173.393,-448.17,0,0
151616.7,178.818,-447.321,0,0
151877.025,183.792,-447.172,0,0
152137.35,188.349,-447.423,0,0
152397.675,192.523,-448.332,0,0
152658.0,195.644,-449.41,0,0
152918.325,198.218,-450.07,0,0
153178.65,200.772,-450.423,0,0
153438.975,203.806,-451.001,0,0
153699.3,205.689,-452.109,0,0
153959.625,207.089,-452.654,0,0
154219.95,208.428,-452.997,0,0
154480,209.167,-453.254,0,0
154741,209.449,-452.444,0,0
155001,210.603,-450.583,0,0
155261,212.876,-448.688,0,0
155522,215.847,-447.442,0,0
155782,219.372,-446.835,0,0
156042,223.076,-447.705,0,0
156303,225.869,-449.774,0,0
156563,227.46,-452.454,0,0
156823,227.367,-455.169,0,0
157084,225.851,-456.814,0,0
157344,223.845,-457.013,0,0
157604,221.877,-455.868,0,0
157864,220.661,-453.786,0,0
158125,220.125,-451.078,0,0
158385,220.355,-448.006,0,0
158645,221.541,-445.091,0,0
158906,223.421,-442.446,0,0
159166,226.004,-440.278,0,0
159426,229.021,-439.269,0,0
159687,231.482,-439.388,0,0
159947,232.953,-440.16,0,0
160207,233.318,-440.763,0,0
160468,232.981,-440.922,0,0
160728,231.816,-440.273,0,0
160988,230.771,-438.436,0,0
161249,230.104,-435.682,0,0
161509,230.408,-432.336,0,0
161769,231.573,-428.975,0,0
162030,233.372,-426.052,0,0
162290,235.6,-423.323,0,0
162550,238.087,-421.008,0,0
162811,240.898,-419.084,0,0
163071,243.742,-417.74,0,0
163331,246.557,-416.816,0,0
163592,249.166,-416.617,0,0
163852,251.054,-416.328,0,0
164112,252.99,-416.027,0,0
164373,254.736,-415.539,0,0
164633,256.757,-415.209,0,0
164893,258.712,-415.328,0,0
165154,260.543,-415.667,0,0
165414,262.338,-416.648,0,0
165674,263.313,-418.175,0,0
165935,263.384,-419.892,0,0
166195,262.387,-421.129,0,0
166455,261.086,-421.844,0,0
166716,259.078,-422.228,0,0
166976,256.404,-421.593,0,0
167236,253.858,-419.63,0,0
167497,252.09,-416.919,0,0
167757,250.916,-414.112,0,0
168017,250.034,-411.277,0,0
168277,249.549,-408.396,0,0
168538,249.023,-405.692,0,0
168798,248.356,-402.987,0,0
169058,247.683,-399.641,0,0
169319,247.323,-395.845,0,0
169579,247.557,-391.971,0,0
169839,248.142,-388.41,0,0
170100,248.837,-385.095,0,0
170360.075,249.275,-381.636,0,0
170620.4,249.922,-378.115,0,0
170880.725,250.628,-374.789,0,0
171141.05,251.024,-371.413,0,0
171401.375,250.986,-367.581,0,0
171661.7,251.149,-362.613,0,0
171922.025,252.394,-357.124,0,0
172182.35,254.632,-351.886,0,0
172442.675,257.557,-347.146,0,0
172703.0,260.505,-343.045,0,0
172963.325,263.434,-339.184,0,0
173223.65,266.653,-335.345,0,0
173483.975,270.069,-332.058,0,0
173744.3,273.502,-329.199,0,0
174004.625,276.719,-326.909,0,0
174264.95,279.497,-324.874,0,0
174525.275,281.713,-323.224,0,0
174785.6,282.893,-321.257,0,0
175045.925,283.645,-318.564,0,0
175306.25,284.339,-315.114,0,0
175566.575,284.893,-311.128,0,0
175826.9,285.647,-306.041,0,0
176087.225,287.276,-300.133,0,0
176347.55,290.057,-294.137,0,0
176607.875,293.523,-288.457,0,0
176868.2,297.313,-283.062,0,0
177128.525,301.386,-278.274,0,0
177388.85,305.16,-273.558,0,0
177649.175,308.91,-268.404,0,0
177909.5,313.069,-262.817,0,0
178169.825,317.986,-257.087,0,0
178430.15,323.453,-251.664,0,0
178690.475,329.149,-246.501,0,0
178950.8,335.148,-241.324,0,0
179211.125,341.561,-236.162,0,0
179471.45,348.73,-231.21,0,0
179731.775,355.996,-226.702,0,0
179992.1,363.756,-222.015,0,0
180252.425,372.526,-217.839,0,0
180512.75,381.55,-214.663,0,0
180773.075,390.554,-211.968,0,0
181033.4,399.996,-209.779,0,0
181293.725,409.142,-208.53,0,0
181554.05,418.085,-207.492,0,0
181814.375,427.203,-206.695,0,0
182074.7,436.508,-206.59,0,0
182335.025,445.704,-207.273,0,0
182595.35,454.58,-208.685,0,0
182855.675,462.833,-210.585,0,0
183116.0,470.649,-212.73,0,0
183376.325,477.732,-215.142,0,0
183636.65,484.113,-217.794,0,0
183896.975,489.827,-220.166,0,0
184157.3,494.831,-221.983,0,0
184417.625,500.101,-222.977,0,0
184677.95,505.558,-223.931,0,0
184938.275,510.875,-224.625,0,0
185198.6,516.532,-224.855,0,0
185458.925,522.787,-225.128,0,0
185719.25,528.987,-225.903,0,0
185979.575,534.838,-226.187,0,0
186239.9,541.684,-226.164,0,0
186500,549.048,-227.041,0,0
186761,555.848,-228.616,0,0
187021,562.237,-229.879,0,0
187281,568.721,-230.964,0,0
187542,575.253,-232.004,0,0
187802,581.839,-232.742,0,0
188062,589.103,-233.14,0,0
188322,597.232,-234.082,0,0
188583,605.711,-235.879,0,0
188843,614.047,-238.78,0,0
189103,621.519,-242.415,0,0
189364,627.92,-245.86,0,0
189624,633.646,-248.811,0,0
189884,639.224,-250.52,0,0
190145,645.533,-252.119,0,0
190405,652.017,-253.152,0,0
190665,659.197,-253.526,0,0
190926,667.908,-253.493,0,0
191186,678.299,-254.524,0,0
191446,689.133,-257.545,0,0
191707,699.2,-261.768,0,0
191967,708.413,-266.453,0,0
192227,716.912,-271.1,0,0
192488,724.975,-275.555,0,0
192748,732.286,-279.22,0,0
193008,740.279,-280.851,0,0
193269,750.764,-281.908,0,0
193529,763.205,-284.094,0,0
193789,776.871,-287.467,0,0
194050,791.508,-292.525,0,0
194310,806.654,-299.047,0,0
194570,822.11,-307.195,0,0
194831,837.569,-317.9,0,0
195091,851.677,-330.169,0,0
195351,865.225,-343.093,0,0
195612,878.386,-356.879,0,0
195872,891.535,-372.009,0,0
196132,904.162,-389.028,0,0
196393,915.462,-407.878,0,0
196653,924.526,-428.055,0,0
196913,932.103,-448.598,0,0
197174,938.046,-469.654,0,0
197434,942.643,-490.892,0,0
197694,945.904,-512.426,0,0
197955,947.398,-534.508,0,0
198215,947.122,-556.091,0,0
198475,945.509,-577.543,0,0
198735,942.577,-598.369,0,0
198996,938.334,-618.683,0,0
199256,933.507,-638,0,0
199516,928.333,-657.685,0,0
199777,921.854,-677.905,0,0
200037,913.006,-697.999,0,0
200297,902.21,-716.554,0,0
200558,890.032,-733.471,0,0
200818,877.538,-748.387,0,0
201078,865.188,-761.758,0,0
201339,853.632,-774.583,0,0
201599,841.866,-787.811,0,0
201859,828.945,-801.161,0,0
202120,814.641,-814.098,0,0
202380.025,797.865,-826.083,0,0
202640.35,779.486,-835.457,0,0
202900.675,760.747,-841.172,0,0
203161.0,743.703,-844.224,0,0
203421.325,728.335,-846.111,0,0
203681.65,714.201,-847.091,0,0
203941.975,701.429,-847.749,0,0
204202.3,689.286,-848.456,0,0
204462.625,677.734,-848.827,0,0
204722.95,666.806,-849.259,0,0
204983.275,655.653,-849.569,0,0
205243.6,644.64,-849.597,0,0
205503.925,633.594,-849.261,0,0
205764.25,622.127,-848.18,0,0
206024.575,610.613,-845.995,0,0
206284.9,599.394,-842.115,0,0
206545.225,589.416,-836.513,0,0
206805.55,581.459,-829.805,0,0
207065.875,575.728,-822.962,0,0
207326.2,571.711,-816.829,0,0
207586.525,568.886,-811.674,0,0
207846.85,566.887,-807.326,0,0
208107.175,565.579,-804.043,0,0
208367.5,564.656,-801.991,0,0
208627.825,563.28,-800.992,0,0
208888.15,561.259,-800.419,0,0
209148.475,558.894,-799.764,0,0
209408.8,556.185,-798.844,0,0
209669.125,553.78,-797.46,0,0
209929.45,551.8,-795.848,0,0
210189.775,550.816,-794.542,0,0
210450.1,549.98,-793.767,0,0
210710.425,549.302,-793.746,0,0
210970.75,548.512,-794.043,0,0
211231.075,547.493,-794.577,0,0
211491.4,546.488,-795.01,0,0
211751.725,545.695,-795.707,0,0
212012.05,545.069,-796.665,0,0
212272.375,544.364,-798.08,0,0
212532.7,543.509,-799.527,0,0
212793.025,542.931,-801.524,0,0
213053.35,542.034,-803.917,0,0
213313.675,540.778,-806.544,0,0
213574.0,539.339,-809.179,0,0
213834.325,537.727,-812.13,0,0
214094.65,535.773,-815.166,0,0
214354.975,533.622,-818.293,0,0
214615.3,531.206,-821.376,0,0
214875.625,528.604,-824.632,0,0
215135.95,525.785,-828.024,0,0
215396.275,522.48,-831.445,0,0
215656.6,518.987,-834.851,0,0
215916.925,514.959,-838.003,0,0
216177.25,510.707,-840.971,0,0
216437.575,506.186,-843.62,0,0
216697.9,501.541,-845.942,0,0
216958.225,496.972,-847.968,0,0
217218.55,492.489,-849.873,0,0
217478.875,487.957,-851.707,0,0
217739.2,483.372,-853.573,0,0
217999.525,478.718,-855.216,0,0
218259.85,474.011,-856.878,0,0
218520,469.032,-858.412,0,0
218780,463.977,-859.721,0,0
219041,458.74,-860.75,0,0
219301,453.684,-861.441,0,0
219561,448.67,-862.073,0,0
219822,443.628,-862.682,0,0
220082,438.523,-863.13,0,0
220342,433.14,-863.453,0,0
220603,427.712,-863.385,0,0
220863,422.064,-862.984,0,0
221123,416.554,-861.99,0,0
221384,411.268,-860.556,0,0
221644,406.384,-858.709,0,0
221904,401.978,-856.645,0,0
222165,398.116,-854.398,0,0
222425,394.589,-852.311,0,0
222685,391.482,-850.228,0,0
222946,388.485,-848.308,0,0
223206,385.682,-846.323,0,0
223466,383.258,-844.394,0,0
223727,381.21,-842.562,0,0
223987,379.447,-840.947,0,0
224247,377.899,-839.7,0,0
224508,376.624,-838.647,0,0
224768,375.259,-837.797,0,0
225028,374.371,-837.284,0,0
225289,373.439,-837.305,0,0
225549,372.398,-837.727,0,0
225809,371.127,-838.72,0,0
226070,369.525,-839.969,0,0
226330,367.555,-841.344,0,0
226590,365.169,-842.779,0,0
226851,362.463,-844.288,0,0
227111,359.527,-845.734,0,0
227371,356.285,-847.142,0,0
227632,352.715,-848.377,0,0
227892,348.794,-849.428,0,0
228152,344.808,-850.117,0,0
228413,340.874,-850.506,0,0
228673,336.962,-850.813,0,0
228933,333.142,-850.985,0,0
229193,329.332,-851.139,0,0
229454,325.505,-851.326,0,0
229714,321.64,-851.507,0,0
229974,317.843,-851.618,0,0
230235,313.939,-852.056,0,0
230495,309.485,-852.427,0,0
230755,304.757,-852.408,0,0
231016,299.967,-852.109,0,0
231276,295.138,-851.533,0,0
231536,290.316,-850.751,0,0
231797,285.508,-849.728,0,0
232057,280.786,-848.56,0,0
232317,276.182,-847.198,0,0
232578,271.507,-845.721,0,0
232838,266.911,-843.975,0,0
233098,262.484,-842.174,0,0
233359,257.967,-840.242,0,0
233619,253.436,-838.162,0,0
233879,248.987,-835.921,0,0
234140,244.594,-833.411,0,0
234400,240.283,-830.827,0,0
234660.3,236.001,-828.052,0,0
234920.625,231.821,-824.719,0,0
235180.95,227.922,-821.341,0,0
235441.275,224.252,-817.753,0,0
235701.6,220.944,-814.188,0,0
235961.925,217.797,-810.454,0,0
236222.25,214.85,-806.645,0,0
236482.575,212.269,-802.78,0,0
236742.9,209.88,-798.971,0,0
237003.225,207.74,-795.213,0,0
237263.55,205.748,-791.51,0,0
237523.875,203.91,-787.851,0,0
237784.2,202.241,-784.251,0,0
238044.525,200.714,-780.646,0,0
238304.85,199.377,-777.097,0,0
238565.175,198.279,-773.464,0,0
238825.5,197.394,-770.01,0,0
239085.825,196.803,-766.582,0,0
239346.15,196.542,-763.484,0,0
239606.475,196.395,-760.904,0,0
239866.8,196.161,-758.44,0,0
240127.125,195.938,-756.239,0,0
240387.45,195.626,-754.321,0,0
240647.775,195.152,-752.493,0,0
240908.1,194.723,-750.88,0,0
241168.425,194.037,-749.453,0,0
241428.75,193.118,-748.06,0,0
241689.075,191.963,-746.714,0,0
241949.4,190.649,-745.253,0,0
242209.725,189.193,-743.703,0,0
242470.05,187.634,-742.028,0,0
242730.375,185.943,-740.172,0,0
242990.7,184.298,-738.055,0,0
243251.025,182.804,-735.804,0,0
243511.35,181.44,-733.458,0,0
243771.675,180.129,-731.144,0,0
244032.0,178.938,-728.634,0,0
244292.325,177.863,-726.158,0,0
244552.65,177.012,-723.656,0,0
244812.975,176.342,-721.273,0,0
245073.3,175.595,-719.053,0,0
245333.625,174.864,-716.97,0,0
245593.95,174.054,-714.747,0,0
245854.275,173.336,-712.479,0,0
246114.6,172.697,-710.215,0,0
246374.925,172.154,-707.88,0,0
246635.25,171.785,-705.72,0,0
246895.575,171.447,-703.788,0,0
247155.9,171.021,-701.943,0,0
247416.225,170.465,-700.132,0,0
247676.55,169.795,-698.323,0,0
247936.875,169.143,-696.504,0,0
248197.2,168.353,-694.511,0,0
248457.525,167.6,-692.485,0,0
248717.85,166.816,-690.397,0,0
248978.175,166.059,-688.107,0,0
249238.5,165.505,-685.736,0,0
249498.825,165.01,-683.437,0,0
249759.15,164.654,-681.082,0,0
250019.475,164.311,-678.669,0,0
250279.8,164.02,-676.219,0,0
250540,163.869,-673.763,0,0
250800,163.893,-671.254,0,0
251061,164.046,-668.703,0,0
251321,164.452,-666.189,0,0
251581,165.074,-663.742,0,0
251842,165.892,-661.517,0,0
252102,166.858,-659.499,0,0
252362,167.944,-657.698,0,0
252623,169.058,-656.212,0,0
252883,170.134,-655.02,0,0
253143,171.079,-654.066,0,0
253404,171.774,-653.349,0,0
253664,172.215,-652.706,0,0
253924,172.429,-652.092,0,0
254185,172.446,-651.366,0,0
254445,172.372,-650.538,0,0
254705,172.237,-649.615,0,0
254966,172.089,-648.64,0,0
255226,171.844,-647.697,0,0
255486,171.538,-646.629,0,0
255747,171.101,-645.467,0,0
256007,170.721,-644.123,0,0
256267,170.395,-642.726,0,0
256528,170.087,-641.275,0,0
256788,169.772,-639.723,0,0
257048,169.461,-638.026,0,0
257309,169.29,-636.175,0,0
257569,169.299,-634.247,0,0
257829,169.462,-632.313,0,0
258090,169.757,-630.38,0,0
258350,170.201,-628.47,0,0
258610,170.722,-626.612,0,0
258871,171.387,-624.82,0,0
259131,172.099,-623.03,0,0
259391,172.969,-621.299,0,0
259651,174.053,-619.685,0,0
259912,175.149,-618.201,0,0
260172,176.292,-616.922,0,0
260432,177.434,-615.66,0,0
260693,178.481,-614.575,0,0
260953,179.521,-613.518,0,0
261213,180.598,-612.524,0,0
261474,181.708,-611.536,0,0
261734,182.84,-610.599,0,0
261994,184.053,-609.77,0,0
262255,185.298,-609.152,0,0
262515,186.38,-608.717,0,0
262775,187.237,-608.321,0,0
263036,187.972,-607.804,0,0
263296,188.757,-607.225,0,0
263556,189.438,-606.615,0,0
263817,190.051,-606.024,0,0
264077,190.574,-605.337,0,0
264337,191.079,-604.423,0,0
264598,191.701,-603.339,0,0
264858,192.393,-602.092,0,0
265118,193.314,-600.733,0,0
265379,194.485,-599.265,0,0
265639,195.808,-597.83,0,0
265899,197.392,-596.283,0,0
266160,199.244,-594.692,0,0
266420,201.468,-593.163,0,0
266680.25,204.103,-591.781,0,0
266940.575,207.073,-590.615,0,0
267200.9,210.445,-589.733,0,0
267461.225,214.124,-589.27,0,0
267721.55,218.019,-589.241,0,0
267981.875,222.087,-589.711,0,0
268242.2,226.33,-590.803,0,0
268502.525,230.504,-592.471,0,0
268762.85,234.549,-594.721,0,0
269023.175,238.294,-597.499,0,0
269283.5,241.845,-600.726,0,0
269543.825,244.99,-604.398,0,0
269804.15,247.834,-608.438,0,0
270064.475,250.322,-612.77,0,0
270324.8,252.388,-617.509,0,0
270585.125,254.136,-622.483,0,0
270845.45,255.345,-627.922,0,0
271105.775,255.991,-633.51,0,0
271366.1,255.949,-639.233,0,0
271626.425,255.369,-644.916,0,0
271886.75,254.202,-650.646,0,0
272147.075,252.527,-656.309,0,0
272407.4,250.204,-661.831,0,0
272667.725,247.382,-667.237,0,0
272928.05,243.935,-672.391,0,0
273188.375,239.884,-677.321,0,0
273448.7,235.228,-681.692,0,0
273709.025,230.192,-685.511,0,0
273969.35,224.798,-688.837,0,0
274229.675,219.011,-691.532,0,0
274490.0,213.118,-693.466,0,0
274750.325,207.216,-694.76,0,0
275010.65,201.371,-695.416,0,0
275270.975,195.687,-695.436,0,0
275531.3,190.257,-694.963,0,0
275791.625,185.179,-694.066,0,0
276051.95,180.43,-692.846,0,0
276312.275,176.062,-691.407,0,0
276572.6,171.999,-689.816,0,0
276832.925,168.204,-688.064,0,0
277093.25,164.632,-686.242,0,0
277353.575,161.276,-684.302,0,0
277613.9,158.19,-682.284,0,0
277874.225,155.318,-680.313,0,0
278134.55,152.574,-678.314,0,0
278394.875,149.965,-676.292,0,0
278655.2,147.444,-674.234,0,0
278915.525,145.003,-672.052,0,0
279175.85,142.739,-669.777,0,0
279436.175,140.661,-667.325,0,0
279696.5,138.806,-664.855,0,0
279956.825,137.179,-662.329,0,0
280217.15,135.876,-659.878,0,0
280477.475,134.736,-657.4,0,0
280737.8,133.848,-655.069,0,0
280998.125,133.119,-652.872,0,0
281258.45,132.541,-650.811,0,0
281518.775,132.101,-648.858,0,0
281779.1,131.745,-647.091,0,0
282039.425,131.466,-645.476,0,0
282299.75,131.217,-644.006,0,0
282560,130.999,-642.713,0,0
282820,130.763,-641.598,0,0
283081,130.422,-640.619,0,0
283341,129.932,-639.703,0,0
283601,129.322,-638.807,0,0
283862,128.647,-637.819,0,0
284122,127.906,-636.788,0,0
284382,127.203,-635.65,0,0
284643,126.508,-634.432,0,0
284903,125.871,-633.075,0,0
285163,125.373,-631.672,0,0
285424,125.079,-630.202,0,0
285684,125.018,-628.754,0,0
285944,125.187,-627.376,0,0
286205,125.544,-626.168,0,0
286465,126.069,-625.204,0,0
286725,126.697,-624.47,0,0
286986,127.375,-624.011,0,0
287246,128.124,-623.882,0,0
287506,128.825,-624.097,0,0
287767,129.35,-624.699,0,0
288027,129.605,-625.645,0,0
288287,129.453,-626.814,0,0
288548,128.824,-628.064,0,0
288808,127.78,-629.228,0,0
289068,126.499,-630.244,0,0
289329,124.982,-631.162,0,0
289589,123.189,-631.884,0,0
289849,121.183,-632.434,0,0
290109,118.955,-632.711,0,0
290370,116.692,-632.651,0,0
290630,114.472,-632.325,0,0
290890,112.333,-631.794,0,0
291151,110.296,-631.141,0,0
291411,108.295,-630.364,0,0
291671,106.412,-629.532,0,0
291932,104.555,-628.621,0,0
292192,102.688,-627.677,0,0
292452,100.869,-626.642,0,0
292713,99.0919,-625.481,0,0
292973,97.3864,-624.248,0,0
293233,95.7255,-622.927,0,0
293494,94.1717,-621.579,0,0
293754,92.6599,-620.229,0,0
294014,91.193,-618.842,0,0
294275,89.7008,-617.418,0,0
294535,88.2944,-615.92,0,0
294795,86.9373,-614.322,0,0
295056,85.6759,-612.681,0,0
295316,84.4703,-611.018,0,0
295576,83.3988,-609.339,0,0
295837,82.4181,-607.657,0,0
296097,81.4794,-605.98,0,0
296357,80.6298,-604.331,0,0
296618,79.8102,-602.73,0,0
296878,79.0146,-601.169,0,0
297138,78.2279,-599.584,0,0
297399,77.4672,-598.009,0,0
297659,76.7237,-596.418,0,0
297919,75.9971,-594.802,0,0
298180,75.3312,-593.185,0,0
298440,74.7071,-591.523,0,0
298700.2,74.1187,-589.883,0,0
298960.525,73.5872,-588.228,0,0
299220.85,73.0878,-586.607,0,0
299481.175,72.639,-584.952,0,0
299741.5,72.2378,-583.25,0,0
300001.825,71.8735,-581.615,0,0
300262.15,71.5677,-579.902,0,0
300522.475,71.3472,-578.237,0,0
300782.8,71.1897,-576.543,0,0
301043.125,71.1206,-574.882,0,0
301303.45,71.1106,-573.261,0,0
301563.775,71.2048,-571.705,0,0
301824.1,71.3333,-570.22,0,0
302084.425,71.5153,-568.772,0,0
302344.75,71.7267,-567.406,0,0
302605.075,71.9476,-566.088,0,0
302865.4,72.2031,-564.84,0,0
303125.725,72.4637,-563.644,0,0
303386.05,72.7273,-562.492,0,0
303646.375,73.026,-561.395,0,0
303906.7,73.3381,-560.353,0,0
304167.025,73.6341,-559.356,0,0
304427.35,73.9225,-558.427,0,0
304687.675,74.2021,-557.543,0,0
304948.0,74.4884,-556.685,0,0
305208.325,74.7774,-555.866,0,0
305468.65,75.046,-555.058,0,0
305728.975,75.338,-554.322,0,0
305989.3,75.6262,-553.647,0,0
306249.625,75.8875,-553.022,0,0
306509.95,76.1246,-552.451,0,0
306770.275,76.3417,-551.901,0,0
307030.6,76.5117,-551.391,0,0
307290.925,76.6472,-550.899,0,0
307551.25,76.7861,-550.41,0,0
307811.575,76.9099,-549.963,0,0
308071.9,77.0671,-549.562,0,0
308332.225,77.1998,-549.232,0,0
308592.55,77.2696,-548.997,0,0
308852.875,77.2297,-548.834,0,0
309113.2,77.1102,-548.673,0,0
309373.525,76.8489,-548.503,0,0
309633.85,76.5085,-548.273,0,0
309894.175,76.1374,-547.984,0,0
310154.5,75.7283,-547.635,0,0
310414.825,75.3067,-547.22,0,0
310675.15,74.9009,-546.758,0,0
310935.475,74.5154,-546.284,0,0
311195.8,74.1196,-545.819,0,0
311456.125,73.7362,-545.327,0,0
311716.45,73.3562,-544.805,0,0
311976.775,72.9922,-544.308,0,0
312237.1,72.6053,-543.819,0,0
312497.425,72.2197,-543.339,0,0
312757.75,71.7976,-542.866,0,0
313018.075,71.3666,-542.382,0,0
313278.4,70.8927,-541.877,0,0
313538.725,70.4022,-541.375,0,0
313799.05,69.8895,-540.842,0,0
314059.375,69.356,-540.256,0,0
314319.7,68.8017,-539.659,0,0
314580,68.2495,-539.017,0,0
314840,67.7349,-538.311,0,0
315101,67.1464,-537.68,0,0
315361,66.704,-536.915,0,0
315621,66.1698,-536.112,0,0
315882,65.6633,-535.314,0,0
316142,65.2016,-534.53,0,0
316402,64.7675,-533.646,0,0
316663,64.4002,-532.77,0,0
316923,64.0916,-531.89,0,0
317183,63.8202,-531.029,0,0
317444,63.5764,-530.267,0,0
317704,63.28,-529.463,0,0
317964,63.0405,-528.614,0,0
318225,62.779,-527.834,0,0
318485,62.6305,-527.061,0,0
318745,62.3886,-526.272,0,0
319006,62.1924,-525.45,0,0
319266,62.0751,-524.715,0,0
319526,62.0019,-523.986,0,0
319787,61.9218,-523.325,0,0
320047,61.8474,-522.675,0,0
320307,61.7612,-522.11,0,0
320567,61.6777,-521.568,0,0
320828,61.5332,-521.055,0,0
321088,61.3612,-520.68,0,0
321348,61.078,-520.205,0,0
321609,60.8682,-519.739,0,0
321869,60.5419,-519.25,0,0
322129,60.3027,-518.737,0,0
322390,59.928,-518.337,0,0
322650,59.6076,-517.846,0,0
322910,59.2602,-517.338,0,0
323171,58.8289,-516.856,0,0
323431,58.5146,-516.476,0,0
323691,58.0669,-515.97,0,0
323952,57.5545,-515.522,0,0
324212,57.0914,-515.017,0,0
324472,56.5198,-514.473,0,0
324733,55.9883,-513.886,0,0
324993,55.4016,-513.224,0,0
325253,54.8602,-512.539,0,0
325514,54.2653,-511.902,0,0
325774,53.7346,-511.098,0,0
326034,53.218,-510.326,0,0
326295,52.7574,-509.582,0,0
326555,52.2331,-508.742,0,0
326815,51.7791,-507.934,0,0
327076,51.3351,-507.062,0,0
327336,50.8905,-506.227,0,0
327596,50.5486,-505.358,0,0
327857,50.1554,-504.537,0,0
328117,49.761,-503.714,0,0
328377,49.4424,-502.867,0,0
328638,49.0667,-502.042,0,0
328898,48.7215,-501.195,0,0
329158,48.4243,-500.33,0,0
329419,48.0557,-499.503,0,0
329679,47.7411,-498.638,0,0
329939,47.45,-497.792,0,0
330200,47.1636,-496.925,0,0
330460,46.8828,-496.024,0,0
330720.15,46.6243,-495.141,0,0
330980.475,46.381,-494.285,0,0
331240.8,46.1017,-493.402,0,0
331501.125,45.8576,-492.504,0,0
331761.45,45.6623,-491.655,0,0
332021.775,45.3913,-490.754,0,0
332282.1,45.1548,-489.849,0,0
332542.425,44.9995,-488.987,0,0
332802.75,44.837,-488.073,0,0
333063.075,44.6599,-487.224,0,0
333323.4,44.4629,-486.331,0,0
333583.725,44.37,-485.393,0,0
333844.05,44.2878,-484.536,0,0
334104.375,44.1896,-483.698,0,0
334364.7,44.1101,-482.8,0,0
334625.025,44.084,-481.927,0,0
334885.35,44.0371,-481.114,0,0
335145.675,43.9943,-480.343,0,0
335406.0,44.0206,-479.511,0,0
335666.325,44.0307,-478.773,0,0
335926.65,43.9872,-478.043,0,0
336186.975,43.9406,-477.273,0,0
336447.3,43.9681,-476.578,0,0
336707.625,43.9169,-475.884,0,0
336967.95,43.8303,-475.167,0,0
337228.275,43.7885,-474.504,0,0
337488.6,43.8412,-473.797,0,0
337748.925,43.7468,-473.165,0,0
338009.25,43.6674,-472.509,0,0
338269.575,43.6934,-471.892,0,0
338529.9,43.5615,-471.272,0,0
338790.225,43.5113,-470.603,0,0
339050.55,43.3577,-469.967,0,0
339310.875,43.3011,-469.373,0,0
339571.2,43.1854,-468.697,0,0
339831.525,43.0678,-468.101,0,0
340091.85,42.9297,-467.501,0,0
340352.175,42.8303,-466.822,0,0
340612.5,42.6486,-466.213,0,0
340872.825,42.4604,-465.576,0,0
341133.15,42.2532,-464.962,0,0
341393.475,42.0582,-464.258,0,0
341653.8,41.8803,-463.566,0,0
341914.125,41.6652,-462.892,0,0
342174.45,41.5148,-462.174,0,0
342434.775,41.3018,-461.431,0,0
342695.1,41.1281,-460.631,0,0
342955.425,41.0229,-459.939,0,0
343215.75,40.8295,-459.122,0,0
343476.075,40.709,-458.334,0,0
343736.4,40.6005,-457.622,0,0
343996.725,40.4398,-456.823,0,0
344257.05,40.3147,-456.033,0,0
344517.375,40.2199,-455.265,0,0
344777.7,40.1503,-454.449,0,0
345038.025,40.0498,-453.704,0,0
345298.35,39.9666,-452.865,0,0
345558.675,39.9358,-452.074,0,0
345819.0,39.869,-451.312,0,0
346079.325,39.8396,-450.465,0,0
346339.65,39.8012,-449.655,0,0
346599.975,39.8002,-448.844,0,0
346860,39.8568,-448.01,0,0
347121,39.8465,-447.235,0,0
347381,39.8752,-446.428,0,0
347641,39.9221,-445.634,0,0
347902,40.0107,-444.882,0,0
348162,40.1054,-444.095,0,0
348422,40.2089,-443.376,0,0
348683,40.2854,-442.595,0,0
348943,40.4049,-441.892,0,0
349203,40.5043,-441.194,0,0
349464,40.5821,-440.441,0,0
349724,40.6908,-439.713,0,0
349984,40.8336,-439.018,0,0
350245,40.9422,-438.282,0,0
350505,41.1033,-437.648,0,0
350765,41.2745,-436.935,0,0
351025,41.4137,-436.293,0,0
351286,41.6332,-435.637,0,0
351546,41.7586,-435.009,0,0
351806,41.9507,-434.417,0,0
352067,42.1278,-433.802,0,0
352327,42.2654,-433.221,0,0
352587,42.4593,-432.64,0,0
352848,42.5978,-432.087,0,0
353108,42.765,-431.549,0,0
353368,42.93,-430.998,0,0
353629,43.0754,-430.472,0,0
353889,43.2131,-429.985,0,0
354149,43.3371,-429.427,0,0
354410,43.4516,-428.97,0,0
354670,43.5623,-428.466,0,0
354930,43.655,-427.974,0,0
355191,43.738,-427.444,0,0
355451,43.854,-426.978,0,0
355711,43.9686,-426.496,0,0
355972,44.0283,-426.006,0,0
356232,44.1399,-425.515,0,0
356492,44.2316,-425.049,0,0
356753,44.2618,-424.572,0,0
357013,44.3216,-424.093,0,0
357273,44.4059,-423.639,0,0
357534,44.4228,-423.144,0,0
357794,44.4307,-422.662,0,0
358054,44.4918,-422.192,0,0
358315,44.5268,-421.698,0,0
358575,44.5723,-421.166,0,0
358835,44.6081,-420.697,0,0
359096,44.6534,-420.16,0,0
359356,44.687,-419.677,0,0
359616,44.7827,-419.172,0,0
359877,44.8101,-418.689,0,0
360137,44.8598,-418.186,0,0
360397,44.9805,-417.687,0,0
360658,44.9517,-417.22,0,0
360918,45.0342,-416.701,0,0
361178,45.1106,-416.203,0,0
361438,45.1241,-415.74,0,0
361699,45.1977,-415.234,0,0
361959,45.2266,-414.755,0,0
362219,45.2823,-414.271,0,0
362480,45.3217,-413.784,0,0
362740.1,45.3666,-413.306,0,0
363000.425,45.4153,-412.805,0,0
363260.75,45.503,-412.303,0,0
363521.075,45.5358,-411.825,0,0
363781.4,45.6131,-411.367,0,0
364041.725,45.6573,-410.902,0,0
364302.05,45.718,-410.42,0,0
364562.375,45.8039,-409.916,0,0
364822.7,45.8176,-409.396,0,0
365083.025,45.8927,-408.957,0,0
365343.35,45.998,-408.45,0,0
365603.675,46.059,-408.023,0,0
365864.0,46.1786,-407.534,0,0
366124.325,46.2689,-407.058,0,0
366384.65,46.3451,-406.625,0,0
366644.975,46.439,-406.169,0,0
366905.3,46.4586,-405.754,0,0
367165.625,46.5098,-405.297,0,0
367425.95,46.5679,-404.861,0,0
367686.275,46.643,-404.4,0,0
367946.6,46.6887,-403.924,0,0
368206.925,46.7477,-403.423,0,0
368467.25,46.8187,-402.931,0,0
368727.575,46.8938,-402.463,0,0
368987.9,46.9994,-401.938,0,0
369248.225,47.1062,-401.447,0,0
369508.55,47.2131,-400.948,0,0
369768.875,47.4102,-400.435,0,0
370029.2,47.6024,-399.966,0,0
370289.525,47.8188,-399.562,0,0
370549.85,48.0323,-399.14,0,0
370810.175,48.2878,-398.8,0,0
371070.5,48.4961,-398.444,0,0
371330.825,48.6935,-398.133,0,0
371591.15,48.8736,-397.883,0,0
371851.475,48.9972,-397.675,0,0
372111.8,49.1707,-397.459,0,0
372372.125,49.2751,-397.194,0,0
372632.45,49.342,-396.952,0,0
372892.775,49.3774,-396.732,0,0
373153.1,49.3716,-396.561,0,0
373413.425,49.4111,-396.303,0,0
373673.75,49.3656,-396.083,0,0
373934.075,49.3395,-395.84,0,0
374194.4,49.2616,-395.561,0,0
374454.725,49.2229,-395.313,0,0
374715.05,49.1142,-394.975,0,0
374975.375,49.0117,-394.67,0,0
375235.7,48.9353,-394.334,0,0
375496.025,48.813,-393.988,0,0
375756.35,48.731,-393.598,0,0
376016.675,48.7008,-393.133,0,0
376277.0,48.6376,-392.712,0,0
376537.325,48.6191,-392.306,0,0
376797.65,48.6538,-391.903,0,0
377057.975,48.7262,-391.519,0,0
377318.3,48.7975,-391.147,0,0
377578.625,48.8727,-390.866,0,0
377838.95,48.9174,-390.593,0,0
378099.275,48.9365,-390.328,0,0
378359.6,48.8972,-390.114,0,0
378619.925,48.8042,-389.857,0,0
378880,48.7068,-389.626,0,0
379141,48.5416,-389.316,0,0
379401,48.3542,-389.007,0,0
379661,48.1829,-388.624,0,0
379922,48.0623,-388.106,0,0
380182,47.9576,-387.637,0,0
380442,47.8968,-387.138,0,0
380703,47.9515,-386.659,0,0
380963,48.0485,-386.231,0,0
381223,48.1507,-385.822,0,0
381483,48.2699,-385.5,0,0
381744,48.3798,-385.28,0,0
382004,48.4501,-385.048,0,0
382264,48.4491,-384.928,0,0
382525,48.393,-384.794,0,0
382785,48.293,-384.639,0,0
383045,48.1125,-384.474,0,0
383306,47.9019,-384.277,0,0
383566,47.6836,-384.04,0,0
383826,47.4047,-383.788,0,0
384087,47.1234,-383.516,0,0
384347,46.8465,-383.199,0,0
384607,46.5701,-382.837,0,0
384868,46.2527,-382.441,0,0
385128,45.9747,-382.036,0,0
385388,45.6842,-381.587,0,0
385649,45.3966,-381.123,0,0
385909,45.1456,-380.654,0,0
386169,44.8971,-380.133,0,0
386430,44.628,-379.583,0,0
386690,44.3865,-379.046,0,0
386950,44.1617,-378.486,0,0
387211,43.9913,-377.916,0,0
387471,43.79,-377.318,0,0
387731,43.6354,-376.752,0,0
387992,43.4582,-376.108,0,0
388252,43.3525,-375.502,0,0
388512,43.197,-374.862,0,0
388773,43.1252,-374.22,0,0
389033,43.0636,-373.647,0,0
389293,43.0535,-372.982,0,0
389554,43.0278,-372.406,0,0
389814,43.0024,-371.812,0,0
390074,43.0421,-371.251,0,0
390335,43.0645,-370.652,0,0
390595,43.0436,-370.123,0,0
390855,43.0194,-369.621,0,0
391116,43.0458,-369.109,0,0
391376,43.0422,-368.575,0,0
391636,43.013,-368.081,0,0
391896,43.0102,-367.556,0,0
392157,43.0096,-367.073,0,0
392417,42.984,-366.541,0,0
392677,42.9328,-366.045,0,0
392938,42.8865,-365.498,0,0
393198,42.9147,-364.99,0,0
393458,42.8637,-364.462,0,0
393719,42.8173,-363.924,0,0
393979,42.7958,-363.364,0,0
394239,42.765,-362.824,0,0
394500,42.756,-362.24,0,0
394760.05,42.7341,-361.676,0,0
395020.375,42.7574,-361.13,0,0
395280.7,42.7426,-360.549,0,0
395541.025,42.7676,-359.964,0,0
395801.35,42.8077,-359.373,0,0
396061.675,42.8888,-358.828,0,0
396322.0,42.9584,-358.235,0,0
396582.325,43.0022,-357.71,0,0
396842.65,43.1158,-357.178,0,0
397102.975,43.1603,-356.665,0,0
397363.3,43.2641,-356.128,0,0
397623.625,43.3113,-355.593,0,0
397883.95,43.3853,-355.092,0,0
398144.275,43.4636,-354.604,0,0
398404.6,43.5031,-354.088,0,0
398664.925,43.5748,-353.561,0,0
398925.25,43.6726,-353.083,0,0
399185.575,43.7387,-352.577,0,0
399445.9,43.803,-352.085,0,0
399706.225,43.8523,-351.615,0,0
399966.55,43.9266,-351.1,0,0
400006.6,43.8877,-351.002,0,0