File: Accelerated corrosion test data/2025-10-16_06-00-08/sample_3.csv
Frequency (Hz),Impedance (ohms),Phase (Radians),Temperature (C),Humidity (%)
10000.0,251.821,-11881.8,0,0
10260.325,245.474,-11582.4,0,0
10520.65,239.965,-11297.2,0,0
10780.975,235.82,-11024.9,0,0
11041.3,229.899,-10771,0,0
11301.625,224.408,-10524.3,0,0
11561.95,219.208,-10288.6,0,0
11822.275,215.372,-10063.7,0,0
12082.6,212.187,-9848.36,0,0
12342.925,210.696,-9641,0,0
12603.25,203.127,-9445.54,0,0
12863.575,199.673,-9253.69,0,0
13123.9,199.577,-9069.38,0,0
13384.225,193.34,-8899.71,0,0
13644.55,189.985,-8729.62,0,0
13904.875,186.221,-8565,0,0
14165.2,185.592,-8408.1,0,0
14425.525,181.417,-8256.42,0,0
14685.8,179.571,-8111.03,0,0
14946.175,176.25,-7970.83,0,0
15206.5,173.483,-7829.09,0,0
15466.825,182.523,-7687.42,0,0
15727.15,191.389,-7589.99,0,0
15987.5,173.601,-7473.89,0,0
16247.8,168.414,-7343.63,0,0
16508.125,161.983,-7230.34,0,0
16768.45,167.915,-7108.98,0,0
17028.775,157.989,-7010.03,0,0
17289.1,161.898,-6895.43,0,0
17549.425,156.626,-6804.08,0,0
17809.75,157.413,-6697.59,0,0
18070.075,162.932,-6612.33,0,0
18330.4,151.645,-6515.93,0,0
18590.725,148.613,-6423.68,0,0
18851.05,145.538,-6332.92,0,0
19111.375,147.232,-6243.32,0,0
19371.7,145.452,-6159.16,0,0
19632.025,146.59,-6074.08,0,0
19892.35,151.137,-5993.14,0,0
20152.675,147.701,-5917.74,0,0
20413.0,159.867,-5836.89,0,0
20673.3,166.365,-5777.12,0,0
20933.65,165.721,-5717.18,0,0
21193.975,161.203,-5652.17,0,0
21454.3,146.155,-5591.82,0,0
21714.625,138.973,-5515.83,0,0
21974.9,143.608,-5449.35,0,0
22235.275,139.041,-5390.72,0,0
22495.6,136.91,-5327.7,0,0
22755.925,129.438,-5267.45,0,0
23016.25,128.557,-5208.03,0,0
23276.6,128.628,-5145.32,0,0
23536.9,129.654,-5099.37,0,0
23797.225,121.646,-5040.05,0,0
24057.55,119.272,-4982.31,0,0
24317.875,119.489,-4926.41,0,0
24578.2,117.922,-4876.62,0,0
24838.525,118.13,-4822.24,0,0
25098.85,115.896,-4775.78,0,0
25359.175,114.142,-4725.56,0,0
25619.5,114.032,-4677.57,0,0
25879.8,111.1,-4630.33,0,0
26140.1,108.476,-4582.53,0,0
26400.5,107.989,-4534.86,0,0
26660.8,108.401,-4489.66,0,0
26921.1,108.769,-4444.82,0,0
27181.4,109.243,-4404.33,0,0
27441.8,107.629,-4360.39,0,0
27702.1,108.646,-4320.4,0,0
27962.4,105.763,-4279.55,0,0
28222.7,104.009,-4236.73,0,0
28483.1,111.525,-4193.73,0,0
28743.4,113.726,-4158.79,0,0
29003.7,116.105,-4129.55,0,0
29264,109.145,-4095.78,0,0
29524.4,109.118,-4058.34,0,0
29784.7,104.377,-4023.44,0,0
30045,102.424,-3989.17,0,0
30305.3,101.334,-3951.49,0,0
30565.7,102.641,-3917.45,0,0
30826,101.655,-3885.09,0,0
31086.3,102.826,-3851.65,0,0
31346.6,99.6105,-3821.45,0,0
31607,98.1515,-3787.15,0,0
31867.3,98.4999,-3752.71,0,0
32127.6,101.721,-3719.01,0,0
32387.9,110.994,-3690.88,0,0
32648.3,112.717,-3672.68,0,0
32908.6,104.525,-3649.25,0,0
33168.9,101.472,-3621.22,0,0
33429.2,99.48,-3593.91,0,0
33689.6,93.8019,-3566.33,0,0
33949.9,90.9977,-3535.98,0,0
34210.2,91.078,-3508.1,0,0
34470.5,90.2508,-3481.13,0,0
34730.9,88.5795,-3455.28,0,0
34991.2,86.4958,-3428.39,0,0
35251.5,85.9908,-3401.96,0,0
35511.8,85.3544,-3376.67,0,0
35772.2,84.382,-3351.01,0,0
36032.5,83.6825,-3326.13,0,0
36292.8,82.8714,-3301.56,0,0
36553.1,82.5489,-3277.79,0,0
36813.5,81.8094,-3254.14,0,0
37073.8,81.0669,-3230.67,0,0
37334.1,80.4684,-3207.37,0,0
37594.4,79.9105,-3184.61,0,0
37854.8,79.5787,-3162.37,0,0
38115.1,78.9949,-3140.05,0,0
38375.4,78.488,-3118.05,0,0
38635.7,78.28,-3096.79,0,0
38896.1,77.6896,-3075.33,0,0
39156.4,77.5671,-3054.33,0,0
39416.7,77.192,-3033.79,0,0
39677,76.4941,-3013.64,0,0
39937.4,75.9154,-2993.37,0,0
40197.7,75.6326,-2973.25,0,0
40458,75.3273,-2953.76,0,0
40718.3,74.7673,-2934.08,0,0
40978.7,74.3742,-2914.79,0,0
41239,74.3958,-2895.5,0,0
41499.3,74.4189,-2877.11,0,0
41759.6,74.4839,-2858.6,0,0
42020,73.9709,-2841.03,0,0
42280.275,73.6985,-2822.69,0,0
42540.6,73.3244,-2805.17,0,0
42800.925,73.3439,-2787.51,0,0
43061.25,72.8964,-2770.82,0,0
43321.575,72.2319,-2753.38,0,0
43581.9,71.9534,-2735.93,0,0
43842.225,71.9333,-2718.83,0,0
44102.55,72.0848,-2702.36,0,0
44362.875,72.1919,-2686.61,0,0
44623.2,71.648,-2670.59,0,0
44883.525,71.4624,-2654.51,0,0
45143.85,71.3349,-2638.67,0,0
45404.175,70.6916,-2623.27,0,0
45664.5,70.1714,-2607.3,0,0
45924.825,70.9489,-2592.14,0,0
46185.15,70.5976,-2577.87,0,0
46445.475,69.9881,-2562.38,0,0
46705.8,69.7727,-2547.18,0,0
46966.125,70.0066,-2532.82,0,0
47226.45,69.7907,-2518.41,0,0
47486.775,69.7652,-2503.93,0,0
47747.1,70.1277,-2489.1,0,0
48007.425,70.5534,-2476.27,0,0
48267.75,70.5292,-2462.85,0,0
48528.075,69.9545,-2449.77,0,0
48788.4,69.5102,-2436.53,0,0
49048.725,68.7885,-2423.31,0,0
49309.05,68.1046,-2409.93,0,0
49569.375,68.0979,-2396.41,0,0
49829.7,67.9193,-2383.54,0,0
50090.025,67.1958,-2370.86,0,0
50350.35,66.7506,-2357.8,0,0
50610.675,66.4884,-2344.66,0,0
50871.0,66.3614,-2331.8,0,0
51131.325,66.2,-2319.43,0,0
51391.65,66.1924,-2306.78,0,0
51651.975,66.2553,-2294.51,0,0
51912.3,66.3025,-2282.48,0,0
52172.625,66.0487,-2270.48,0,0
52432.95,65.9863,-2258.32,0,0
52693.275,66.1581,-2246.28,0,0
52953.6,66.5096,-2234.36,0,0
53213.925,67.1705,-2222.56,0,0
53474.25,68.0792,-2211.62,0,0
53734.575,68.264,-2200.81,0,0
53994.9,68.2828,-2189.75,0,0
54255.225,69.2893,-2178.87,0,0
54515.55,70.3562,-2169.66,0,0
54775.875,69.4652,-2160.39,0,0
55036.2,68.7789,-2150.41,0,0
55296.525,68.1855,-2140.89,0,0
55556.85,66.839,-2130.94,0,0
55817.175,65.3438,-2120.52,0,0
56077.5,64.3003,-2109.87,0,0
56337.825,63.5403,-2099.2,0,0
56598.15,62.5899,-2088.65,0,0
56858.475,61.8669,-2077.97,0,0
57118.8,61.4079,-2067.05,0,0
57379.125,61.2333,-2056.44,0,0
57639.45,61.0619,-2045.88,0,0
57899.775,61.3502,-2035.53,0,0
58160.1,61.2337,-2025.47,0,0
58420.4,61.0877,-2015.54,0,0
58680.7,61.1088,-2005.48,0,0
58941.1,61.2744,-1995.52,0,0
59201.4,61.376,-1985.61,0,0
59461.7,61.641,-1975.94,0,0
59722,61.9986,-1966.37,0,0
59982.4,62.2704,-1956.91,0,0
60242.7,62.588,-1947.49,0,0
60503,62.7565,-1938.32,0,0
60763.3,63.1213,-1928.94,0,0
61023.7,63.3541,-1919.76,0,0
61284,63.8357,-1910.68,0,0
61544.3,64.2981,-1901.4,0,0
61804.6,64.9011,-1892.91,0,0
62065,64.9414,-1883.82,0,0
62325.3,65.6592,-1874.8,0,0
62585.6,66.1884,-1866.11,0,0
62845.9,66.678,-1856.99,0,0
63106.3,67.7817,-1848.04,0,0
63366.6,69.0182,-1839.85,0,0
63626.9,69.6954,-1830.85,0,0
63887.2,71.3491,-1822.66,0,0
64147.6,72.6093,-1813.81,0,0
64407.9,75.0503,-1805.21,0,0
64668.2,77.7481,-1797.66,0,0
64928.5,80.3655,-1790.15,0,0
65188.9,84.3853,-1784.1,0,0
65449.2,87.0932,-1779.03,0,0
65709.5,89.1561,-1774.98,0,0
65969.8,92.1359,-1771.49,0,0
66230.2,92.0702,-1771.97,0,0
66490.5,86.2762,-1769.99,0,0
66750.8,81.3231,-1763.12,0,0
67011.1,78.4288,-1754.74,0,0
67271.5,75.9889,-1746.49,0,0
67531.8,75.0743,-1738.11,0,0
67792.1,74.9371,-1729.66,0,0
68052.4,75.0899,-1721.74,0,0
68312.8,76.1599,-1714.57,0,0
68573.1,76.4224,-1708.57,0,0
68833.4,76.2722,-1701.82,0,0
69093.7,77.0811,-1695.23,0,0
69354.1,77.7003,-1689.79,0,0
69614.4,77.3434,-1684.63,0,0
69874.7,76.4737,-1679.02,0,0
70135,75.6222,-1673.18,0,0
70395.4,74.8353,-1667.17,0,0
70655.7,73.6292,-1661.39,0,0
70916,72.3834,-1655.11,0,0
71176.3,71.3047,-1648.41,0,0
71436.7,70.5957,-1641.75,0,0
71697,69.7362,-1634.95,0,0
71957.3,69.7746,-1627.84,0,0
72217.6,69.9373,-1621.62,0,0
72478,70.0594,-1615.54,0,0
72738.3,70.1918,-1609.52,0,0
72998.6,69.9094,-1604.24,0,0
73258.9,69.4057,-1598.48,0,0
73519.3,68.9328,-1592.76,0,0
73779.6,68.5444,-1587.09,0,0
74039.9,67.9713,-1581.61,0,0
74300.225,67.1714,-1576.08,0,0
74560.55,66.4867,-1570.37,0,0
74820.875,65.6645,-1564.66,0,0
75081.2,64.9086,-1558.97,0,0
75341.525,64.1815,-1553.08,0,0
75601.85,63.3387,-1547.35,0,0
75862.175,62.5997,-1541.42,0,0
76122.5,61.9023,-1535.53,0,0
76382.825,61.2301,-1529.57,0,0
76643.15,60.6317,-1523.67,0,0
76903.475,60.1144,-1517.87,0,0
77163.8,59.676,-1511.98,0,0
77424.125,59.1454,-1506.22,0,0
77684.45,58.5746,-1500.51,0,0
77944.775,57.9944,-1494.74,0,0
78205.1,57.4866,-1489.02,0,0
78465.425,57.04,-1483.25,0,0
78725.75,56.7045,-1477.48,0,0
78986.075,56.291,-1471.8,0,0
79246.4,55.8395,-1466.13,0,0
79506.725,55.5136,-1460.44,0,0
79767.05,55.1362,-1454.76,0,0
80027.375,54.8845,-1449.15,0,0
80287.7,54.6424,-1443.53,0,0
80548.025,54.3867,-1438.02,0,0
80808.35,54.1308,-1432.53,0,0
81068.675,53.9628,-1427.01,0,0
81329.0,53.7338,-1421.53,0,0
81589.325,53.5686,-1416.05,0,0
81849.65,53.4133,-1410.72,0,0
82109.975,53.2994,-1405.39,0,0
82370.3,53.1898,-1400.05,0,0
82630.625,53.0366,-1394.68,0,0
82890.95,52.9442,-1389.4,0,0
83151.275,52.868,-1384.24,0,0
83411.6,52.8061,-1379.03,0,0
83671.925,52.6501,-1373.8,0,0
83932.25,52.6382,-1368.63,0,0
84192.575,52.6296,-1363.53,0,0
84452.9,52.5901,-1358.49,0,0
84713.225,52.5821,-1353.37,0,0
84973.55,52.5556,-1348.37,0,0
85233.875,52.6214,-1343.39,0,0
85494.2,52.5453,-1338.39,0,0
85754.525,52.5943,-1333.41,0,0
86014.85,52.6192,-1328.55,0,0
86275.175,52.6124,-1323.59,0,0
86535.5,52.6589,-1318.79,0,0
86795.825,52.7135,-1313.86,0,0
87056.15,52.6927,-1309.03,0,0
87316.475,52.8192,-1304.14,0,0
87576.8,52.8445,-1299.31,0,0
87837.125,53.0764,-1294.55,0,0
88097.45,53.2377,-1289.71,0,0
88357.775,53.2816,-1285.06,0,0
88618.1,53.3619,-1280.26,0,0
88878.425,53.7161,-1275.38,0,0
89138.75,53.9644,-1270.52,0,0
89399.075,54.5572,-1265.87,0,0
89659.4,55.0298,-1261.38,0,0
89919.725,55.4959,-1256.93,0,0
90180,55.9695,-1252.51,0,0
90440.4,56.3839,-1248.33,0,0
90700.7,56.689,-1244.05,0,0
90961,57.1615,-1239.69,0,0
91221.3,57.6473,-1235.43,0,0
91481.7,58.0824,-1231.36,0,0
91742,58.5459,-1227.24,0,0
92002.3,58.9244,-1223.12,0,0
92262.6,59.4925,-1219.04,0,0
92523,60.2369,-1215.11,0,0
92783.3,60.8311,-1211.5,0,0
93043.6,61.2335,-1207.75,0,0
93303.9,61.8482,-1203.99,0,0
93564.3,62.5887,-1200.71,0,0
93824.6,63.1881,-1197.62,0,0
94084.9,63.566,-1194.98,0,0
94345.2,63.0988,-1192.47,0,0
94605.6,62.6222,-1189.29,0,0
94865.9,62.1456,-1186.48,0,0
95126.2,60.903,-1183.59,0,0
95386.5,59.425,-1179.84,0,0
95646.9,58.2889,-1175.6,0,0
95907.2,57.588,-1171.38,0,0
96167.5,56.7693,-1167.07,0,0
96427.8,56.3616,-1162.47,0,0
96688.2,56.3771,-1158.14,0,0
96948.5,56.4001,-1154.01,0,0
97208.8,56.3103,-1149.92,0,0
97469.1,56.2778,-1145.95,0,0
97729.5,56.2057,-1142,0,0
97989.8,56.1204,-1138.04,0,0
98250.1,56.0571,-1134.08,0,0
98510.4,56.1076,-1130.15,0,0
98770.8,56.1337,-1126.27,0,0
99031.1,56.0422,-1122.58,0,0
99291.4,55.9128,-1118.79,0,0
99551.7,55.7228,-1114.93,0,0
99812.1,55.609,-1111.02,0,0
100072,55.5464,-1107.14,0,0
100333,55.4538,-1103.18,0,0
100593,55.302,-1099.29,0,0
100853,55.1862,-1095.25,0,0
101114,55.2228,-1091.14,0,0
101374,55.3024,-1087.05,0,0
101634,55.455,-1082.92,0,0
101895,55.7364,-1078.86,0,0
102155,56.0352,-1074.73,0,0
102415,56.5504,-1070.51,0,0
102676,57.4534,-1066.4,0,0
102936,58.4988,-1062.77,0,0
103196,59.3359,-1059.47,0,0
103457,59.9455,-1056.1,0,0
103717,60.5421,-1052.71,0,0
103977,61.1804,-1049.29,0,0
104238,62.2184,-1046.01,0,0
104498,63.1977,-1043.36,0,0
104758,63.6944,-1040.97,0,0
105019,63.7985,-1038.34,0,0
105279,63.7629,-1035.67,0,0
105539,63.7997,-1032.78,0,0
105800,63.7944,-1030.05,0,0
106060,63.6169,-1027.33,0,0
106320.175,63.2415,-1024.52,0,0
106580.5,62.8882,-1021.48,0,0
106840.825,62.5877,-1018.51,0,0
107101.15,62.0527,-1015.45,0,0
107361.475,61.636,-1012.17,0,0
107621.8,61.2329,-1008.9,0,0
107882.125,60.7927,-1005.52,0,0
108142.45,60.4406,-1002.11,0,0
108402.775,60.0577,-998.706,0,0
108663.1,59.6909,-995.161,0,0
108923.425,59.2951,-991.466,0,0
109183.75,59.1234,-987.655,0,0
109444.075,59.1637,-983.856,0,0
109704.4,59.2525,-980.239,0,0
109964.725,59.2533,-976.606,0,0
110225.05,59.2596,-972.809,0,0
110485.375,59.43,-969,0,0
110745.7,59.7796,-965.187,0,0
111006.025,60.4609,-961.553,0,0
111266.35,60.947,-958.222,0,0
111526.675,61.3969,-954.885,0,0
111787.0,61.8753,-951.441,0,0
112047.325,62.4188,-948.206,0,0
112307.65,62.8622,-944.994,0,0
112567.975,63.3069,-941.874,0,0
112828.3,63.6037,-938.724,0,0
113088.625,64.0344,-935.599,0,0
113348.95,64.2894,-932.417,0,0
113609.275,64.4985,-929.264,0,0
113869.6,64.7429,-926.003,0,0
114129.925,65.0475,-922.738,0,0
114390.25,65.3029,-919.541,0,0
114650.575,65.5133,-916.133,0,0
114910.9,65.8957,-912.637,0,0
115171.225,66.319,-909.17,0,0
115431.55,66.9959,-905.747,0,0
115691.875,67.6297,-902.484,0,0
115952.2,68.1675,-899.185,0,0
116212.525,68.743,-895.716,0,0
116472.85,69.5732,-892.182,0,0
116733.175,70.6013,-888.901,0,0
116993.5,71.5716,-885.761,0,0
117253.825,72.4377,-882.621,0,0
117514.15,73.3132,-879.287,0,0
117774.475,74.6102,-875.745,0,0
118034.8,76.4896,-872.619,0,0
118295.125,78.2468,-870.144,0,0
118555.45,79.7531,-867.954,0,0
118815.775,80.7324,-865.87,0,0
119076.1,81.6613,-863.213,0,0
119336.425,83.0909,-860.49,0,0
119596.75,85.0591,-858.268,0,0
119857.075,86.8204,-856.668,0,0
120117.4,88.437,-855.497,0,0
120377.725,89.4718,-855.028,0,0
120638.05,89.5232,-854.233,0,0
120898.375,89.5185,-853.143,0,0
121158.7,89.0886,-852.081,0,0
121419.025,88.2228,-850.542,0,0
121679.35,87.3086,-848.504,0,0
121939.675,86.5036,-845.88,0,0
122200.0,86.1577,-843.002,0,0
122460,86.1464,-840.229,0,0
122721,86.2581,-837.567,0,0
122981,86.4361,-834.803,0,0
123241,86.891,-832.155,0,0
123502,87.358,-829.827,0,0
123762,87.6518,-827.524,0,0
124022,87.9451,-825.16,0,0
124283,88.2944,-822.84,0,0
124543,88.6584,-820.599,0,0
124803,89.0116,-818.398,0,0
125064,89.3614,-816.186,0,0
125324,89.663,-814.085,0,0
125584,89.9894,-811.981,0,0
125845,90.3025,-810.034,0,0
126105,90.5004,-808.198,0,0
126365,90.5178,-806.407,0,0
126626,90.3102,-804.507,0,0
126886,90.1114,-802.375,0,0
127146,89.9167,-800.304,0,0
127406,89.906,-798.243,0,0
127667,89.5975,-796.104,0,0
127927,89.3691,-794.021,0,0
128187,89.0342,-791.87,0,0
128448,88.6147,-789.675,0,0
128708,88.1209,-787.234,0,0
128968,87.7406,-784.644,0,0
129229,87.5278,-782.082,0,0
129489,87.3863,-779.505,0,0
129749,87.1687,-776.954,0,0
130010,86.9372,-774.227,0,0
130270,86.9761,-771.34,0,0
130530,87.3462,-768.656,0,0
130791,87.7768,-766.251,0,0
131051,88.063,-764.065,0,0
131311,88.1453,-761.969,0,0
131572,88.134,-759.906,0,0
131832,87.9278,-757.759,0,0
132092,87.6433,-755.444,0,0
132353,87.4207,-753.054,0,0
132613,87.2016,-750.581,0,0
132873,87.1789,-748.18,0,0
133134,87.0696,-745.882,0,0
133394,86.846,-743.547,0,0
133654,86.6054,-741.219,0,0
133915,86.2025,-738.855,0,0
134175,85.8073,-736.246,0,0
134435,85.622,-733.606,0,0
134696,85.4193,-731.09,0,0
134956,85.0931,-728.575,0,0
135216,84.7853,-725.897,0,0
135477,84.5742,-723.155,0,0
135737,84.4036,-720.539,0,0
135997,84.1272,-717.936,0,0
136258,83.6754,-715.242,0,0
136518,83.2748,-712.275,0,0
136778,83.0154,-709.15,0,0
137039,83.022,-706.013,0,0
137299,83.1039,-703.043,0,0
137559,83.2351,-700.038,0,0
137819,83.4473,-697.12,0,0
138080,83.6613,-694.256,0,0
138340.125,83.9619,-691.45,0,0
138600.45,84.2937,-688.77,0,0
138860.775,84.5371,-686.284,0,0
139121.1,84.6083,-683.829,0,0
139381.425,84.5361,-681.325,0,0
139641.75,84.3373,-678.757,0,0
139902.075,84.0541,-675.979,0,0
140162.4,83.9009,-673.067,0,0
140422.725,83.8926,-670.149,0,0
140683.05,83.8895,-667.38,0,0
140943.375,83.7531,-664.636,0,0
141203.7,83.5483,-661.766,0,0
141464.025,83.3281,-658.832,0,0
141724.35,83.0332,-655.832,0,0
141984.675,82.7927,-652.621,0,0
142245.0,82.6889,-649.371,0,0
142505.325,82.5906,-646.167,0,0
142765.65,82.4646,-642.889,0,0
143025.975,82.4025,-639.499,0,0
143286.3,82.4436,-636.053,0,0
143546.625,82.4659,-632.622,0,0
143806.95,82.5782,-629.16,0,0
144067.275,82.6867,-625.65,0,0
144327.6,82.8397,-622.056,0,0
144587.925,83.0848,-618.401,0,0
144848.25,83.4337,-614.722,0,0
145108.575,83.8641,-611.086,0,0
145368.9,84.3188,-607.5,0,0
145629.225,84.7162,-603.886,0,0
145889.55,85.0898,-600.209,0,0
146149.875,85.5053,-596.368,0,0
146410.2,86.1144,-592.418,0,0
146670.525,86.8538,-588.625,0,0
146930.85,87.5032,-584.795,0,0
147191.175,88.2147,-580.866,0,0
147451.5,89.0183,-576.869,0,0
147711.825,89.9353,-572.763,0,0
147972.15,91.0454,-568.69,0,0
148232.475,92.2136,-564.694,0,0
148492.8,93.4272,-560.665,0,0
148753.125,94.6971,-556.662,0,0
149013.45,96.0017,-552.59,0,0
149273.775,97.4166,-548.393,0,0
149534.1,99.0484,-544.101,0,0
149794.425,100.985,-539.815,0,0
150054.75,103.151,-535.778,0,0
150315.075,105.376,-531.839,0,0
150575.4,107.712,-528.036,0,0
150835.725,110.087,-524.361,0,0
151096.05,112.534,-520.795,0,0
151356.375,115.037,-517.344,0,0
151616.7,117.603,-513.966,0,0
151877.025,120.287,-510.745,0,0
152137.35,122.993,-507.815,0,0
152397.675,125.531,-505.08,0,0
152658.0,127.906,-502.367,0,0
152918.325,130.324,-499.619,0,0
153178.65,132.757,-497.051,0,0
153438.975,134.918,-494.641,0,0
153699.3,136.933,-492.092,0,0
153959.625,138.976,-489.464,0,0
154219.95,141.104,-486.974,0,0
154480,142.941,-484.786,0,0
154741,144.211,-482.363,0,0
155001,145.319,-479.301,0,0
155261,146.73,-475.647,0,0
155522,148.829,-471.826,0,0
155782,151.289,-468.409,0,0
156042,153.71,-465.309,0,0
156303,155.89,-462.301,0,0
156563,157.803,-458.951,0,0
156823,160.019,-455.098,0,0
157084,163.084,-451.102,0,0
157344,166.672,-447.69,0,0
157604,170.46,-444.93,0,0
157864,173.859,-442.824,0,0
158125,177.123,-440.887,0,0
158385,179.915,-439.754,0,0
158645,181.205,-438.578,0,0
158906,182.106,-436.434,0,0
159166,182.783,-433.77,0,0
159426,183.251,-430.215,0,0
159687,183.842,-425.95,0,0
159947,184.795,-420.647,0,0
160207,186.8,-414.457,0,0
160468,190.159,-408.416,0,0
160728,194.271,-402.953,0,0
160988,198.598,-398.374,0,0
161249,202.051,-393.594,0,0
161509,205.891,-387.612,0,0
161769,211.648,-381.468,0,0
162030,218.222,-376.803,0,0
162290,224.056,-372.939,0,0
162550,229.926,-368.505,0,0
162811,236.164,-364.388,0,0
163071,242.339,-360.051,0,0
163331,249.162,-355.235,0,0
163592,257.225,-350.42,0,0
163852,266.184,-346.517,0,0
164112,275.558,-343.4,0,0
164373,285.178,-340.888,0,0
164633,295.269,-338.818,0,0
164893,306.199,-337.471,0,0
165154,317.93,-337.675,0,0
165414,328.949,-339.861,0,0
165674,338.685,-342.632,0,0
165935,348.317,-345.344,0,0
166195,357.869,-348.902,0,0
166455,367.445,-352.844,0,0
166716,376.981,-358.325,0,0
166976,385.124,-364.917,0,0
167236,392.087,-371.649,0,0
167497,398.439,-378.362,0,0
167757,404.097,-385.213,0,0
168017,409.239,-392.13,0,0
168277,413.811,-399.23,0,0
168538,417.999,-406.426,0,0
168798,421.814,-413.937,0,0
169058,425.35,-421.918,0,0
169319,427.9,-431.016,0,0
169579,428.22,-440.551,0,0
169839,426.64,-448.982,0,0
170100,423.58,-455.971,0,0
170360.075,420.362,-461.202,0,0
170620.4,417.184,-465.141,0,0
170880.725,414.526,-468.191,0,0
171141.05,412.082,-470.749,0,0
171401.375,409.555,-472.434,0,0
171661.7,408.034,-473.069,0,0
171922.025,407.554,-473.858,0,0
172182.35,407.191,-474.949,0,0
172442.675,406.79,-475.682,0,0
172703.0,407.062,-475.623,0,0
172963.325,408.927,-475.652,0,0
173223.65,411.846,-477.138,0,0
173483.975,414.176,-480.447,0,0
173744.3,415.068,-484.067,0,0
174004.625,415.307,-486.843,0,0
174264.95,416.077,-488.98,0,0
174525.275,417.833,-491.731,0,0
174785.6,419.169,-496.078,0,0
175045.925,418.925,-500.688,0,0
175306.25,417.73,-504.216,0,0
175566.575,417.107,-506.667,0,0
175826.9,417.699,-509.645,0,0
176087.225,418.035,-513.949,0,0
176347.55,417.288,-518.666,0,0
176607.875,416.048,-523.248,0,0
176868.2,414.476,-528.607,0,0
177128.525,410.88,-534.61,0,0
177388.85,405.321,-539.223,0,0
177649.175,399.339,-541.901,0,0
177909.5,393.671,-543.398,0,0
178169.825,387.786,-544.54,0,0
178430.15,381.484,-544.092,0,0
178690.475,375.938,-541.942,0,0
178950.8,371.803,-538.932,0,0
179211.125,368.906,-536.028,0,0
179471.45,366.436,-533.338,0,0
179731.775,364.254,-530.171,0,0
179992.1,363.296,-526.646,0,0
180252.425,363.47,-523.981,0,0
180512.75,363.59,-522.007,0,0
180773.075,363.974,-520.092,0,0
181033.4,364.732,-518.559,0,0
181293.725,365.994,-517.402,0,0
181554.05,367.65,-517.187,0,0
181814.375,369.163,-518.19,0,0
182074.7,369.732,-520.292,0,0
182335.025,368.736,-522.468,0,0
182595.35,366.941,-523.937,0,0
182855.675,364.974,-524.877,0,0
183116.0,362.987,-525.642,0,0
183376.325,360.666,-526.517,0,0
183636.65,357.708,-527.137,0,0
183896.975,354.133,-527.22,0,0
184157.3,350.355,-526.24,0,0
184417.625,347.247,-524.538,0,0
184677.95,344.377,-523.09,0,0
184938.275,340.936,-521.373,0,0
185198.6,337.48,-518.71,0,0
185458.925,334.514,-515.276,0,0
185719.25,332.107,-511.638,0,0
185979.575,329.939,-507.847,0,0
186239.9,328.083,-503.699,0,0
186500,326.578,-499.175,0,0
186761,325.823,-494.204,0,0
187021,326.05,-489.461,0,0
187281,326.646,-485.211,0,0
187542,327.429,-481.155,0,0
187802,328.629,-477.446,0,0
188062,329.823,-474.107,0,0
188322,331.082,-470.924,0,0
188583,332.466,-468.142,0,0
188843,333.457,-465.83,0,0
189103,333.668,-463.359,0,0
189364,333.906,-459.767,0,0
189624,334.881,-455.676,0,0
189884,336.693,-451.8,0,0
190145,338.956,-448.512,0,0
190405,341.017,-445.717,0,0
190665,342.937,-443.048,0,0
190926,344.802,-440.396,0,0
191186,346.657,-437.834,0,0
191446,348.347,-435.293,0,0
191707,349.887,-432.601,0,0
191967,351.533,-429.637,0,0
192227,353.376,-426.722,0,0
192488,355.064,-423.858,0,0
192748,356.526,-420.546,0,0
193008,358.213,-416.514,0,0
193269,360.652,-411.969,0,0
193529,364.06,-407.421,0,0
193789,368.159,-403.396,0,0
194050,372.445,-399.779,0,0
194310,377.048,-396.337,0,0
194570,382.041,-393.167,0,0
194831,387.352,-390.376,0,0
195091,392.785,-387.831,0,0
195351,398.712,-385.543,0,0
195612,405.097,-383.808,0,0
195872,411.914,-382.951,0,0
196132,418.617,-383.158,0,0
196393,425.194,-384.256,0,0
196653,431.143,-386.146,0,0
196913,436.219,-388.934,0,0
197174,439.587,-392.036,0,0
197434,441.878,-393.937,0,0
197694,444.414,-395.01,0,0
197955,447.231,-395.904,0,0
198215,450.026,-396.835,0,0
198475,452.877,-397.572,0,0
198735,455.871,-398.684,0,0
198996,458.269,-400.022,0,0
199256,460.283,-400.873,0,0
199516,462.442,-401.384,0,0
199777,464.993,-401.998,0,0
200037,467.007,-403.205,0,0
200297,468.15,-404.117,0,0
200558,468.642,-404.077,0,0
200818,469.247,-402.721,0,0
201078,470.957,-400.458,0,0
201339,473.66,-398.243,0,0
201599,476.887,-396.213,0,0
201859,480.479,-394.336,0,0
202120,484.438,-392.493,0,0
202380.025,488.847,-390.633,0,0
202640.35,494.067,-388.961,0,0
202900.675,499.743,-387.982,0,0
203161.0,505.56,-387.519,0,0
203421.325,511.546,-387.418,0,0
203681.65,517.679,-387.863,0,0
203941.975,523.868,-388.829,0,0
204202.3,530.084,-390.238,0,0
204462.625,536.321,-392.428,0,0
204722.95,542.148,-395.273,0,0
204983.275,547.383,-398.43,0,0
205243.6,552.112,-402.032,0,0
205503.925,556.082,-405.757,0,0
205764.25,559.407,-409.252,0,0
206024.575,562.096,-412.901,0,0
206284.9,563.541,-415.894,0,0
206545.225,564.72,-417.228,0,0
206805.55,566.494,-417.387,0,0
207065.875,569.269,-416.754,0,0
207326.2,573.439,-415.855,0,0
207586.525,578.636,-415.518,0,0
207846.85,584.213,-415.945,0,0
208107.175,590.029,-416.501,0,0
208367.5,596.486,-417.351,0,0
208627.825,603.353,-418.962,0,0
208888.15,610.253,-421.216,0,0
209148.475,617.242,-423.924,0,0
209408.8,624.355,-427.311,0,0
209669.125,631.362,-431.282,0,0
209929.45,638.287,-435.756,0,0
210189.775,644.889,-440.712,0,0
210450.1,651.213,-446.083,0,0
210710.425,657.468,-451.682,0,0
210970.75,663.554,-457.74,0,0
211231.075,669.203,-464.321,0,0
211491.4,674.451,-471.178,0,0
211751.725,679.136,-478.239,0,0
212012.05,683.346,-484.931,0,0
212272.375,687.744,-491.665,0,0
212532.7,692.125,-498.564,0,0
212793.025,696.574,-505.648,0,0
213053.35,701.1,-513.217,0,0
213313.675,705.477,-521.436,0,0
213574.0,709.274,-530.274,0,0
213834.325,712.166,-539.326,0,0
214094.65,714.523,-548.194,0,0
214354.975,716.635,-556.819,0,0
214615.3,718.626,-565.621,0,0
214875.625,720.502,-574.442,0,0
215135.95,722.144,-583.666,0,0
215396.275,723.417,-593.332,0,0
215656.6,723.792,-603.036,0,0
215916.925,723.511,-612.522,0,0
216177.25,722.896,-621.675,0,0
216437.575,722.344,-630.636,0,0
216697.9,721.738,-639.633,0,0
216958.225,720.691,-649.146,0,0
217218.55,718.72,-658.365,0,0
217478.875,716.452,-667.228,0,0
217739.2,714.12,-675.822,0,0
217999.525,711.661,-684.433,0,0
218259.85,708.801,-693.1,0,0
218520,705.497,-701.58,0,0
218780,701.648,-709.512,0,0
219041,697.78,-716.75,0,0
219301,694.313,-723.736,0,0
219561,691.035,-730.725,0,0
219822,687.887,-737.966,0,0
220082,684.685,-745.59,0,0
220342,680.981,-753.713,0,0
220603,676.627,-761.65,0,0
220863,672.103,-769.578,0,0
221123,667.129,-777.286,0,0
221384,661.91,-784.947,0,0
221644,656.512,-792.772,0,0
221904,650.388,-800.984,0,0
222165,643.051,-809.104,0,0
222425,634.848,-816.267,0,0
222685,626.103,-822.75,0,0
222946,616.772,-828.466,0,0
223206,607.101,-833.277,0,0
223466,596.931,-836.912,0,0
223727,587.085,-838.888,0,0
223987,578.035,-840.043,0,0
224247,569.553,-840.697,0,0
224508,561.635,-840.614,0,0
224768,554.596,-839.865,0,0
225028,548.511,-838.856,0,0
225289,543.442,-838.007,0,0
225549,539.164,-837.65,0,0
225809,535.471,-837.747,0,0
226070,532.132,-838.411,0,0
226330,528.645,-839.883,0,0
226590,524.616,-841.574,0,0
226851,520.528,-843.015,0,0
227111,516.856,-844.64,0,0
227371,513.325,-846.953,0,0
227632,509.12,-849.759,0,0
227892,504.122,-852.504,0,0
228152,498.789,-854.901,0,0
228413,493.289,-856.878,0,0
228673,487.69,-858.657,0,0
228933,481.871,-860.062,0,0
229193,476.387,-860.995,0,0
229454,470.965,-861.986,0,0
229714,465.815,-863.026,0,0
229974,460.575,-863.991,0,0
230235,455.142,-864.892,0,0
230495,449.72,-865.839,0,0
230755,444.254,-866.634,0,0
231016,438.512,-867.176,0,0
231276,432.86,-867.505,0,0
231536,427.261,-867.569,0,0
231797,421.763,-867.474,0,0
232057,416.276,-867.192,0,0
232317,410.973,-866.832,0,0
232578,405.724,-866.28,0,0
232838,400.684,-865.691,0,0
233098,395.671,-865.083,0,0
233359,390.769,-864.341,0,0
233619,385.957,-863.588,0,0
233879,381.225,-862.833,0,0
234140,376.366,-862.075,0,0
234400,371.633,-861.094,0,0
234660.3,367.118,-860.008,0,0
234920.625,362.637,-859.173,0,0
235180.95,358.453,-858.27,0,0
235441.275,353.989,-857.675,0,0
235701.6,349.325,-857.052,0,0
235961.925,344.501,-856.349,0,0
236222.25,339.566,-855.409,0,0
236482.575,334.502,-854.19,0,0
236742.9,329.543,-852.697,0,0
237003.225,324.758,-851.18,0,0
237263.55,319.997,-849.646,0,0
237523.875,315.117,-848.118,0,0
237784.2,310.097,-846.395,0,0
238044.525,304.934,-844.368,0,0
238304.85,299.819,-841.891,0,0
238565.175,294.872,-839.137,0,0
238825.5,290.132,-836.068,0,0
239085.825,285.737,-832.678,0,0
239346.15,281.639,-829.314,0,0
239606.475,278.005,-825.848,0,0
239866.8,274.45,-822.578,0,0
240127.125,271.207,-819.314,0,0
240387.45,267.851,-816.021,0,0
240647.775,264.569,-812.757,0,0
240908.1,261.4,-809.479,0,0
241168.425,258.237,-806.017,0,0
241428.75,255.344,-802.471,0,0
241689.075,252.544,-798.775,0,0
241949.4,250.06,-794.816,0,0
242209.725,248.022,-790.916,0,0
242470.05,246.222,-787.212,0,0
242730.375,244.589,-783.674,0,0
242990.7,242.984,-780.205,0,0
243251.025,241.613,-776.71,0,0
243511.35,240.524,-773.401,0,0
243771.675,239.672,-770.352,0,0
244032.0,238.806,-767.566,0,0
244292.325,237.86,-765.098,0,0
244552.65,236.815,-762.628,0,0
244812.975,235.707,-760.329,0,0
245073.3,234.438,-757.982,0,0
245333.625,233.23,-755.712,0,0
245593.95,231.883,-753.307,0,0
245854.275,230.607,-750.814,0,0
246114.6,229.432,-748.341,0,0
246374.925,228.212,-745.828,0,0
246635.25,227.145,-743.247,0,0
246895.575,226.18,-740.719,0,0
247155.9,225.316,-738.261,0,0
247416.225,224.498,-735.913,0,0
247676.55,223.569,-733.52,0,0
247936.875,222.669,-731.128,0,0
248197.2,221.839,-728.504,0,0
248457.525,221.271,-725.886,0,0
248717.85,220.893,-723.23,0,0
248978.175,220.845,-720.666,0,0
249238.5,221.103,-718.657,0,0
249498.825,221.222,-716.875,0,0
249759.15,221.34,-715.295,0,0
250019.475,221.291,-714.034,0,0
250279.8,221.119,-712.875,0,0
250540,220.71,-711.881,0,0
250800,220.042,-710.98,0,0
251061,219.109,-710.034,0,0
251321,217.895,-709,0,0
251581,216.652,-707.79,0,0
251842,215.306,-706.464,0,0
252102,213.827,-705.027,0,0
252362,212.239,-703.504,0,0
252623,210.477,-701.72,0,0
252883,208.701,-699.651,0,0
253143,207.113,-697.237,0,0
253404,205.611,-694.739,0,0
253664,204.215,-692.054,0,0
253924,202.992,-689.279,0,0
254185,201.879,-686.235,0,0
254445,200.994,-683.05,0,0
254705,200.325,-679.829,0,0
254966,199.979,-676.561,0,0
255226,199.774,-673.301,0,0
255486,199.695,-669.965,0,0
255747,199.808,-666.51,0,0
256007,200.367,-663.046,0,0
256267,201.267,-659.608,0,0
256528,202.632,-656.357,0,0
256788,204.248,-653.503,0,0
257048,205.899,-651.041,0,0
257309,207.587,-648.758,0,0
257569,209.326,-646.746,0,0
257829,210.952,-644.924,0,0
258090,212.405,-643.212,0,0
258350,213.799,-641.464,0,0
258610,215.241,-639.595,0,0
258871,216.831,-637.586,0,0
259131,218.712,-635.551,0,0
259391,220.982,-633.535,0,0
259651,223.655,-631.814,0,0
259912,226.676,-630.459,0,0
260172,229.86,-629.62,0,0
260432,233.074,-629.105,0,0
260693,236.414,-628.974,0,0
260953,239.813,-629.335,0,0
261213,243.304,-630.388,0,0
261474,246.487,-632.222,0,0
261734,249.194,-634.471,0,0
261994,251.369,-637.058,0,0
262255,253.109,-639.843,0,0
262515,254.367,-642.915,0,0
262775,255.025,-646.127,0,0
263036,255.166,-649.274,0,0
263296,254.852,-652.219,0,0
263556,254.26,-655.069,0,0
263817,253.341,-657.876,0,0
264077,252.084,-660.638,0,0
264337,250.398,-663.221,0,0
264598,248.334,-665.542,0,0
264858,246.005,-667.498,0,0
265118,243.459,-669.255,0,0
265379,240.778,-670.638,0,0
265639,237.948,-671.704,0,0
265899,235.001,-672.556,0,0
266160,232.057,-673.06,0,0
266420,228.994,-673.252,0,0
266680.25,225.905,-673.18,0,0
266940.575,222.831,-672.715,0,0
267200.9,219.913,-671.898,0,0
267461.225,217.106,-670.819,0,0
267721.55,214.484,-669.536,0,0
267981.875,211.966,-668.064,0,0
268242.2,209.728,-666.343,0,0
268502.525,207.739,-664.551,0,0
268762.85,205.991,-662.708,0,0
269023.175,204.45,-660.806,0,0
269283.5,202.99,-658.969,0,0
269543.825,201.654,-657.129,0,0
269804.15,200.357,-655.211,0,0
270064.475,199.261,-653.203,0,0
270324.8,198.292,-651.096,0,0
270585.125,197.544,-649.017,0,0
270845.45,197,-646.999,0,0
271105.775,196.623,-644.998,0,0
271366.1,196.395,-643.107,0,0
271626.425,196.333,-641.332,0,0
271886.75,196.274,-639.755,0,0
272147.075,196.372,-638.289,0,0
272407.4,196.377,-637.042,0,0
272667.725,196.234,-635.975,0,0
272928.05,195.775,-634.818,0,0
273188.375,195.333,-633.415,0,0
273448.7,194.935,-631.806,0,0
273709.025,194.607,-630.073,0,0
273969.35,194.49,-628.193,0,0
274229.675,194.64,-626.209,0,0
274490.0,195.066,-624.317,0,0
274750.325,195.649,-622.554,0,0
275010.65,196.331,-620.846,0,0
275270.975,197.143,-619.294,0,0
275531.3,198.159,-617.738,0,0
275791.625,199.355,-616.33,0,0
276051.95,200.674,-615.088,0,0
276312.275,202.125,-614.02,0,0
276572.6,203.707,-613.172,0,0
276832.925,205.352,-612.556,0,0
277093.25,207.086,-612.271,0,0
277353.575,208.783,-612.22,0,0
277613.9,210.388,-612.432,0,0
277874.225,211.928,-612.888,0,0
278134.55,213.372,-613.551,0,0
278394.875,214.655,-614.43,0,0
278655.2,215.771,-615.516,0,0
278915.525,216.673,-616.741,0,0
279175.85,217.41,-618.122,0,0
279436.175,217.936,-619.545,0,0
279696.5,218.267,-621.118,0,0
279956.825,218.332,-622.806,0,0
280217.15,218.14,-624.528,0,0
280477.475,217.597,-626.222,0,0
280737.8,216.732,-627.786,0,0
280998.125,215.762,-629.123,0,0
281258.45,214.652,-630.302,0,0
281518.775,213.458,-631.417,0,0
281779.1,212.206,-632.466,0,0
282039.425,210.786,-633.45,0,0
282299.75,209.238,-634.221,0,0
282560,207.63,-634.837,0,0
282820,205.995,-635.315,0,0
283081,204.377,-635.755,0,0
283341,202.635,-636.07,0,0
283601,200.835,-636.26,0,0
283862,198.987,-636.303,0,0
284122,197.195,-636.166,0,0
284382,195.432,-635.905,0,0
284643,193.661,-635.541,0,0
284903,191.876,-635.07,0,0
285163,190.14,-634.499,0,0
285424,188.423,-633.77,0,0
285684,186.743,-632.864,0,0
285944,185.216,-631.816,0,0
286205,183.804,-630.689,0,0
286465,182.476,-629.509,0,0
286725,181.308,-628.26,0,0
286986,180.219,-626.879,0,0
287246,179.286,-625.457,0,0
287506,178.55,-624.039,0,0
287767,178.011,-622.621,0,0
288027,177.686,-621.289,0,0
288287,177.469,-620.117,0,0
288548,177.337,-619.087,0,0
288808,177.211,-618.196,0,0
289068,177.134,-617.37,0,0
289329,177.036,-616.722,0,0
289589,176.833,-616.174,0,0
289849,176.616,-615.688,0,0
290109,176.358,-615.229,0,0
290370,176.043,-614.737,0,0
290630,175.713,-614.357,0,0
290890,175.358,-614.016,0,0
291151,174.876,-613.713,0,0
291411,174.281,-613.367,0,0
291671,173.59,-612.966,0,0
291932,172.843,-612.504,0,0
292192,172.048,-611.921,0,0
292452,171.254,-611.191,0,0
292713,170.488,-610.334,0,0
292973,169.822,-609.349,0,0
293233,169.277,-608.251,0,0
293494,168.915,-607.102,0,0
293754,168.731,-605.968,0,0
294014,168.737,-604.869,0,0
294275,168.853,-603.879,0,0
294535,169.064,-602.978,0,0
294795,169.321,-602.219,0,0
295056,169.75,-601.5,0,0
295316,170.187,-600.968,0,0
295576,170.706,-600.602,0,0
295837,171.199,-600.411,0,0
296097,171.643,-600.384,0,0
296357,172.009,-600.5,0,0
296618,172.306,-600.729,0,0
296878,172.497,-601.058,0,0
297138,172.566,-601.532,0,0
297399,172.545,-602.03,0,0
297659,172.322,-602.611,0,0
297919,171.999,-603.188,0,0
298180,171.501,-603.736,0,0
298440,170.9,-604.233,0,0
298700.2,170.231,-604.689,0,0
298960.525,169.508,-605.116,0,0
299220.85,168.699,-605.506,0,0
299481.175,167.852,-605.865,0,0
299741.5,166.93,-606.212,0,0
300001.825,165.976,-606.504,0,0
300262.15,164.876,-606.734,0,0
300522.475,163.78,-606.941,0,0
300782.8,162.603,-607.08,0,0
301043.125,161.412,-607.159,0,0
301303.45,160.15,-607.178,0,0
301563.775,158.833,-607.154,0,0
301824.1,157.508,-606.999,0,0
302084.425,156.104,-606.762,0,0
302344.75,154.74,-606.409,0,0
302605.075,153.39,-605.995,0,0
302865.4,152.097,-605.512,0,0
303125.725,150.811,-604.974,0,0
303386.05,149.565,-604.398,0,0
303646.375,148.342,-603.75,0,0
303906.7,147.155,-603.082,0,0
304167.025,145.946,-602.401,0,0
304427.35,144.776,-601.645,0,0
304687.675,143.613,-600.831,0,0
304948.0,142.463,-599.918,0,0
305208.325,141.387,-598.987,0,0
305468.65,140.396,-597.955,0,0
305728.975,139.471,-596.94,0,0
305989.3,138.624,-595.894,0,0
306249.625,137.856,-594.849,0,0
306509.95,137.112,-593.803,0,0
306770.275,136.445,-592.76,0,0
307030.6,135.833,-591.737,0,0
307290.925,135.32,-590.727,0,0
307551.25,134.872,-589.761,0,0
307811.575,134.445,-588.829,0,0
308071.9,134.062,-587.969,0,0
308332.225,133.7,-587.185,0,0
308592.55,133.338,-586.451,0,0
308852.875,132.965,-585.755,0,0
309113.2,132.569,-585.103,0,0
309373.525,132.171,-584.507,0,0
309633.85,131.75,-583.931,0,0
309894.175,131.27,-583.379,0,0
310154.5,130.813,-582.853,0,0
310414.825,130.328,-582.35,0,0
310675.15,129.758,-581.905,0,0
310935.475,129.151,-581.48,0,0
311195.8,128.446,-581.039,0,0
311456.125,127.693,-580.546,0,0
311716.45,126.857,-580.021,0,0
311976.775,125.999,-579.427,0,0
312237.1,125.097,-578.796,0,0
312497.425,124.188,-578.044,0,0
312757.75,123.27,-577.239,0,0
313018.075,122.378,-576.364,0,0
313278.4,121.496,-575.385,0,0
313538.725,120.632,-574.381,0,0
313799.05,119.805,-573.303,0,0
314059.375,119.046,-572.17,0,0
314319.7,118.332,-570.954,0,0
314580,117.711,-569.623,0,0
314840,117.076,-568.34,0,0
315101,116.697,-567.02,0,0
315361,116.416,-565.563,0,0
315621,116.179,-564.278,0,0
315882,116.05,-562.996,0,0
316142,116.156,-561.713,0,0
316402,116.113,-560.611,0,0
316663,116.343,-559.526,0,0
316923,116.447,-558.608,0,0
317183,116.646,-557.701,0,0
317444,116.713,-556.929,0,0
317704,116.776,-556.173,0,0
317964,116.954,-555.549,0,0
318225,117.01,-554.844,0,0
318485,116.944,-554.152,0,0
318745,116.941,-553.56,0,0
319006,116.984,-552.899,0,0
319266,116.983,-552.222,0,0
319526,116.899,-551.582,0,0
319787,116.948,-550.923,0,0
320047,117.01,-550.377,0,0
320307,116.922,-549.59,0,0
320567,117.027,-549.027,0,0
320828,117.155,-548.461,0,0
321088,117.291,-547.86,0,0
321348,117.505,-547.274,0,0
321609,117.665,-546.809,0,0
321869,118.01,-546.384,0,0
322129,118.238,-546.02,0,0
322390,118.477,-545.728,0,0
322650,118.799,-545.584,0,0
322910,118.906,-545.497,0,0
323171,119.112,-545.508,0,0
323431,119.25,-545.623,0,0
323691,119.275,-545.695,0,0
323952,119.294,-545.848,0,0
324212,119.133,-546.024,0,0
324472,119.052,-546.335,0,0
324733,118.68,-546.652,0,0
324993,118.329,-546.955,0,0
325253,117.786,-547.169,0,0
325514,117.17,-547.39,0,0
325774,116.567,-547.592,0,0
326034,115.798,-547.719,0,0
326295,115.056,-547.775,0,0
326555,114.213,-547.779,0,0
326815,113.397,-547.675,0,0
327076,112.457,-547.563,0,0
327336,111.534,-547.455,0,0
327596,110.672,-547.195,0,0
327857,109.701,-546.963,0,0
328117,108.777,-546.657,0,0
328377,107.921,-546.352,0,0
328638,107.001,-545.996,0,0
328898,106.065,-545.517,0,0
329158,105.108,-545.019,0,0
329419,104.271,-544.523,0,0
329679,103.416,-543.922,0,0
329939,102.57,-543.442,0,0
330200,101.649,-542.841,0,0
330460,100.934,-542.25,0,0
330720.15,100.003,-541.813,0,0
330980.475,99.2047,-541.167,0,0
331240.8,98.2726,-540.612,0,0
331501.125,97.4205,-539.979,0,0
331761.45,96.5314,-539.306,0,0
332021.775,95.73,-538.645,0,0
332282.1,94.8084,-537.967,0,0
332542.425,93.9515,-537.194,0,0
332802.75,93.0641,-536.401,0,0
333063.075,92.2123,-535.65,0,0
333323.4,91.2349,-534.888,0,0
333583.725,90.3804,-533.905,0,0
333844.05,89.4796,-533.03,0,0
334104.375,88.6576,-532.036,0,0
334364.7,87.7724,-530.98,0,0
334625.025,86.9573,-529.96,0,0
334885.35,86.1219,-528.863,0,0
335145.675,85.4693,-527.783,0,0
335406.0,84.7196,-526.551,0,0
335666.325,84.0153,-525.458,0,0
335926.65,83.4243,-524.243,0,0
336186.975,82.8006,-523.111,0,0
336447.3,82.229,-521.849,0,0
336707.625,81.6747,-520.663,0,0
336967.95,81.2958,-519.435,0,0
337228.275,80.8043,-518.139,0,0
337488.6,80.4115,-516.949,0,0
337748.925,79.9385,-515.661,0,0
338009.25,79.6769,-514.483,0,0
338269.575,79.2677,-513.182,0,0
338529.9,78.8639,-511.918,0,0
338790.225,78.6717,-510.622,0,0
339050.55,78.43,-509.284,0,0
339310.875,78.2082,-507.989,0,0
339571.2,78.0144,-506.556,0,0
339831.525,77.9187,-505.169,0,0
340091.85,77.8653,-503.772,0,0
340352.175,77.9395,-502.471,0,0
340612.5,78.1136,-501.05,0,0
340872.825,78.3362,-499.685,0,0
341133.15,78.6538,-498.424,0,0
341393.475,78.9554,-497.22,0,0
341653.8,79.3705,-496.081,0,0
341914.125,79.8308,-494.942,0,0
342174.45,80.344,-493.952,0,0
342434.775,80.8776,-493.015,0,0
342695.1,81.4413,-492.164,0,0
342955.425,81.9141,-491.441,0,0
343215.75,82.4878,-490.736,0,0
343476.075,83.0266,-490.128,0,0
343736.4,83.4765,-489.657,0,0
343996.725,83.883,-489.211,0,0
344257.05,84.2858,-488.894,0,0
344517.375,84.4976,-488.582,0,0
344777.7,84.7292,-488.25,0,0
345038.025,84.8212,-487.938,0,0
345298.35,84.8951,-487.607,0,0
345558.675,84.9268,-487.265,0,0
345819.0,84.9067,-486.868,0,0
346079.325,84.8691,-486.421,0,0
346339.65,84.7676,-486.024,0,0
346599.975,84.7892,-485.54,0,0
346860,84.7244,-485.058,0,0
347121,84.6686,-484.643,0,0
347381,84.5678,-484.184,0,0
347641,84.4474,-483.671,0,0
347902,84.2902,-483.209,0,0
348162,84.1795,-482.727,0,0
348422,83.9895,-482.14,0,0
348683,83.7427,-481.5,0,0
348943,83.6225,-480.833,0,0
349203,83.4795,-480.128,0,0
349464,83.3823,-479.414,0,0
349724,83.3308,-478.624,0,0
349984,83.4257,-477.84,0,0
350245,83.5431,-477.071,0,0
350505,83.6986,-476.227,0,0
350765,83.9366,-475.556,0,0
351025,84.2549,-474.887,0,0
351286,84.5893,-474.289,0,0
351546,84.9732,-473.829,0,0
351806,85.4076,-473.446,0,0
352067,85.7921,-473.176,0,0
352327,86.0786,-472.982,0,0
352587,86.3095,-472.807,0,0
352848,86.4778,-472.741,0,0
353108,86.4966,-472.68,0,0
353368,86.4859,-472.663,0,0
353629,86.4429,-472.551,0,0
353889,86.1964,-472.484,0,0
354149,85.9451,-472.338,0,0
354410,85.6966,-472.121,0,0
354670,85.3805,-471.919,0,0
354930,85.0467,-471.563,0,0
355191,84.6958,-471.214,0,0
355451,84.3961,-470.863,0,0
355711,84.0403,-470.395,0,0
355972,83.8263,-470.053,0,0
356232,83.4561,-469.6,0,0
356492,83.1107,-469.183,0,0
356753,82.8307,-468.71,0,0
357013,82.4551,-468.217,0,0
357273,82.0404,-467.688,0,0
357534,81.7339,-467.049,0,0
357794,81.4096,-466.405,0,0
358054,81.117,-465.669,0,0
358315,80.8795,-464.938,0,0
358575,80.7471,-464.206,0,0
358835,80.6207,-463.505,0,0
359096,80.5442,-462.827,0,0
359356,80.5086,-462.144,0,0
359616,80.4439,-461.517,0,0
359877,80.4537,-460.811,0,0
360137,80.3942,-460.223,0,0
360397,80.4607,-459.647,0,0
360658,80.4485,-459.106,0,0
360918,80.4546,-458.59,0,0
361178,80.3899,-458.047,0,0
361438,80.3575,-457.5,0,0
361699,80.3221,-456.981,0,0
361959,80.2125,-456.443,0,0
362219,80.0681,-455.882,0,0
362480,80.0129,-455.259,0,0
362740.1,79.9442,-454.633,0,0
363000.425,79.8887,-453.943,0,0
363260.75,79.9249,-453.22,0,0
363521.075,79.9815,-452.517,0,0
363781.4,80.1594,-451.835,0,0
364041.725,80.4442,-451.185,0,0
364302.05,80.6469,-450.618,0,0
364562.375,80.9449,-450.13,0,0
364822.7,81.2738,-449.655,0,0
365083.025,81.5041,-449.343,0,0
365343.35,81.8546,-449.023,0,0
365603.675,82.1478,-448.819,0,0
365864.0,82.3672,-448.671,0,0
366124.325,82.52,-448.645,0,0
366384.65,82.5562,-448.613,0,0
366644.975,82.4448,-448.642,0,0
366905.3,82.3267,-448.591,0,0
367165.625,82.0831,-448.485,0,0
367425.95,81.7581,-448.387,0,0
367686.275,81.4323,-448.186,0,0
367946.6,81.0671,-447.969,0,0
368206.925,80.5714,-447.694,0,0
368467.25,80.0893,-447.371,0,0
368727.575,79.6207,-446.908,0,0
368987.9,79.0797,-446.326,0,0
369248.225,78.5808,-445.639,0,0
369508.55,78.1445,-444.867,0,0
369768.875,77.9093,-443.895,0,0
370029.2,77.7323,-442.958,0,0
370289.525,77.7401,-442.049,0,0
370549.85,77.9062,-441.196,0,0
370810.175,78.1757,-440.427,0,0
371070.5,78.4777,-439.779,0,0
371330.825,78.8583,-439.215,0,0
371591.15,79.2336,-438.794,0,0
371851.475,79.5817,-438.497,0,0
372111.8,79.825,-438.283,0,0
372372.125,80.031,-438.193,0,0
372632.45,80.1634,-438.162,0,0
372892.775,80.1092,-438.147,0,0
373153.1,79.9984,-438.117,0,0
373413.425,79.7509,-438.078,0,0
373673.75,79.4016,-437.941,0,0
373934.075,78.9812,-437.718,0,0
374194.4,78.5775,-437.391,0,0
374454.725,78.1796,-437.004,0,0
374715.05,77.7327,-436.592,0,0
374975.375,77.3902,-436.116,0,0
375235.7,76.9549,-435.535,0,0
375496.025,76.6003,-434.995,0,0
375756.35,76.2445,-434.247,0,0
376016.675,75.9543,-433.564,0,0
376277.0,75.7281,-432.769,0,0
376537.325,75.5369,-432.007,0,0
376797.65,75.4436,-431.213,0,0
377057.975,75.4452,-430.454,0,0
377318.3,75.4398,-429.731,0,0
377578.625,75.4577,-429.01,0,0
377838.95,75.5967,-428.327,0,0
378099.275,75.6996,-427.643,0,0
378359.6,75.8668,-427.046,0,0
378619.925,76.0301,-426.433,0,0
378880,76.1663,-425.892,0,0
379141,76.3649,-425.325,0,0
379401,76.5489,-424.804,0,0
379661,76.7433,-424.317,0,0
379922,76.9942,-423.885,0,0
380182,77.2471,-423.49,0,0
380442,77.4443,-423.286,0,0
380703,77.6117,-422.978,0,0
380963,77.7012,-422.764,0,0
381223,77.7764,-422.531,0,0
381483,77.7883,-422.275,0,0
381744,77.7385,-422.03,0,0
382004,77.7198,-421.752,0,0
382264,77.6477,-421.438,0,0
382525,77.6024,-421.171,0,0
382785,77.564,-420.83,0,0
383045,77.5199,-420.523,0,0
383306,77.5159,-420.274,0,0
383566,77.4023,-419.974,0,0
383826,77.3509,-419.78,0,0
384087,77.2113,-419.538,0,0
384347,77.069,-419.3,0,0
384607,76.8485,-419.056,0,0
384868,76.5551,-418.731,0,0
385128,76.3228,-418.43,0,0
385388,76.0465,-418.02,0,0
385649,75.757,-417.612,0,0
385909,75.5141,-417.183,0,0
386169,75.2514,-416.712,0,0
386430,74.9935,-416.215,0,0
386690,74.7396,-415.763,0,0
386950,74.4894,-415.246,0,0
387211,74.2034,-414.755,0,0
387471,73.9383,-414.169,0,0
387731,73.6608,-413.581,0,0
387992,73.3865,-412.951,0,0
388252,73.1574,-412.272,0,0
388512,72.9291,-411.591,0,0
388773,72.727,-410.845,0,0
389033,72.5641,-410.064,0,0
389293,72.4374,-409.285,0,0
389554,72.3639,-408.462,0,0
389814,72.3255,-407.635,0,0
390074,72.2906,-406.804,0,0
390335,72.3468,-405.959,0,0
390595,72.4482,-405.114,0,0
390855,72.5537,-404.26,0,0
391116,72.7484,-403.407,0,0
391376,72.9817,-402.573,0,0
391636,73.3227,-401.797,0,0
391896,73.6661,-400.981,0,0
392157,74.0816,-400.238,0,0
392417,74.5441,-399.565,0,0
392677,75.0047,-398.941,0,0
392938,75.5082,-398.345,0,0
393198,76.0131,-397.842,0,0
393458,76.535,-397.425,0,0
393719,77.0589,-397.007,0,0
393979,77.5834,-396.658,0,0
394239,78.0126,-396.368,0,0
394500,78.4553,-396.092,0,0
394760.05,78.9418,-395.866,0,0
395020.375,79.3935,-395.648,0,0
395280.7,79.8239,-395.478,0,0
395541.025,80.2182,-395.31,0,0
395801.35,80.5849,-395.203,0,0
396061.675,80.9476,-395.12,0,0
396322.0,81.2995,-395.057,0,0
396582.325,81.6229,-395.033,0,0
396842.65,81.9375,-395.017,0,0
397102.975,82.1985,-395.057,0,0
397363.3,82.4086,-395.136,0,0
397623.625,82.6195,-395.237,0,0
397883.95,82.7414,-395.366,0,0
398144.275,82.8097,-395.491,0,0
398404.6,82.8434,-395.581,0,0
398664.925,82.7696,-395.661,0,0
398925.25,82.7157,-395.727,0,0
399185.575,82.6294,-395.787,0,0
399445.9,82.5282,-395.818,0,0
399706.225,82.4269,-395.859,0,0
399966.55,82.2817,-395.865,0,0
400006.6,82.2708,-395.865,0,0