File: Accelerated corrosion test data/2025-10-16_06-00-08/sample_7.csv
Frequency (Hz),Impedance (ohms),Phase (Radians),Temperature (C),Humidity (%)
10000.0,273.954,-12102.1,0,0
10260.325,270.688,-11811.2,0,0
10520.65,258.582,-11511.4,0,0
10780.975,252.513,-11230.1,0,0
11041.3,250.076,-10962.4,0,0
11301.625,247.385,-10706.1,0,0
11561.95,249.986,-10456.8,0,0
11822.275,260.31,-10224.7,0,0
12082.6,269.041,-10001,0,0
12342.925,321.588,-9846.79,0,0
12603.25,258.037,-9654.79,0,0
12863.575,269.122,-9470.55,0,0
13123.9,236.851,-9283.44,0,0
13384.225,228.069,-9108.34,0,0
13644.55,226.783,-8927.22,0,0
13904.875,209.447,-8759.45,0,0
14165.2,209.031,-8586.61,0,0
14425.525,205.284,-8449.24,0,0
14685.8,204.006,-8297.95,0,0
14946.175,199.038,-8150.71,0,0
15206.5,195.765,-8021.65,0,0
15466.825,186.365,-7878.32,0,0
15727.15,183.404,-7750.89,0,0
15987.5,179.983,-7621.03,0,0
16247.8,177.931,-7502.44,0,0
16508.125,171.95,-7379.78,0,0
16768.45,171.387,-7261.04,0,0
17028.775,170.42,-7149.98,0,0
17289.1,166.521,-7042.31,0,0
17549.425,166.202,-6933.61,0,0
17809.75,169.889,-6823.86,0,0
18070.075,169.506,-6727.39,0,0
18330.4,179.726,-6621.25,0,0
18590.725,200.274,-6537.23,0,0
18851.05,190.611,-6464.95,0,0
19111.375,181.327,-6383.11,0,0
19371.7,205.058,-6312.39,0,0
19632.025,169.546,-6240.57,0,0
19892.35,158.707,-6140.38,0,0
20152.675,169.311,-6061.38,0,0
20413.0,169.764,-5987.17,0,0
20673.3,171.327,-5906.67,0,0
20933.65,181.414,-5848.96,0,0
21193.975,162.025,-5786.72,0,0
21454.3,153.228,-5712.11,0,0
21714.625,157.902,-5646.45,0,0
21974.9,146.732,-5582.99,0,0
22235.275,141.591,-5513.94,0,0
22495.6,139.953,-5450.6,0,0
22755.925,133.999,-5386.85,0,0
23016.25,130.633,-5323.17,0,0
23276.6,128.907,-5260.23,0,0
23536.9,129.6,-5199.92,0,0
23797.225,128.072,-5144.69,0,0
24057.55,124.746,-5087.11,0,0
24317.875,122.839,-5029.72,0,0
24578.2,123.944,-4975.02,0,0
24838.525,122.342,-4921.59,0,0
25098.85,121.275,-4869.84,0,0
25359.175,120.343,-4817.43,0,0
25619.5,118.654,-4765.33,0,0
25879.8,119.459,-4715.54,0,0
26140.1,120.058,-4663.98,0,0
26400.5,124.144,-4616.68,0,0
26660.8,121.577,-4570.59,0,0
26921.1,122.771,-4520.53,0,0
27181.4,127.943,-4472.51,0,0
27441.8,131.636,-4426.14,0,0
27702.1,142.34,-4379.25,0,0
27962.4,156.088,-4335.07,0,0
28222.7,178.163,-4306.5,0,0
28483.1,183.879,-4287.23,0,0
28743.4,185.603,-4274.07,0,0
29003.7,168.828,-4252.06,0,0
29264,149.936,-4217.77,0,0
29524.4,140.215,-4178.47,0,0
29784.7,132.925,-4140.16,0,0
30045,129.181,-4096.49,0,0
30305.3,130.522,-4059.61,0,0
30565.7,131.94,-4025.79,0,0
30826,132.634,-3993.17,0,0
31086.3,134.162,-3962.79,0,0
31346.6,131.678,-3933.86,0,0
31607,129.511,-3908.33,0,0
31867.3,121.343,-3877.52,0,0
32127.6,117.511,-3845.25,0,0
32387.9,115.25,-3814.66,0,0
32648.3,111.219,-3784.77,0,0
32908.6,108.235,-3754.51,0,0
33168.9,104.545,-3724.18,0,0
33429.2,101.497,-3694.67,0,0
33689.6,99.3697,-3664.39,0,0
33949.9,97.7081,-3635.5,0,0
34210.2,95.2707,-3606.65,0,0
34470.5,93.9402,-3578.05,0,0
34730.9,92.5259,-3549.38,0,0
34991.2,91.5902,-3521.85,0,0
35251.5,90.3707,-3495.09,0,0
35511.8,89.3228,-3467.82,0,0
35772.2,89.0288,-3441.49,0,0
36032.5,88.6857,-3415.64,0,0
36292.8,88.2416,-3390.69,0,0
36553.1,86.8464,-3365.52,0,0
36813.5,86.3139,-3340.34,0,0
37073.8,86.3869,-3315.82,0,0
37334.1,86.3627,-3291.86,0,0
37594.4,86.2131,-3268.15,0,0
37854.8,85.6007,-3244.83,0,0
38115.1,85.4034,-3220.69,0,0
38375.4,85.7058,-3197.4,0,0
38635.7,87.1269,-3174.35,0,0
38896.1,88.4949,-3151.54,0,0
39156.4,90.609,-3130.34,0,0
39416.7,93.6003,-3108.9,0,0
39677,97.4503,-3090.65,0,0
39937.4,98.9848,-3074.9,0,0
40197.7,99.0674,-3059.2,0,0
40458,96.0469,-3043.62,0,0
40718.3,93.0711,-3025.64,0,0
40978.7,89.5952,-3006.98,0,0
41239,87.0706,-2987.72,0,0
41499.3,85.2658,-2968.04,0,0
41759.6,84.1637,-2949.04,0,0
42020,82.1262,-2930.52,0,0
42280.275,80.6618,-2911.29,0,0
42540.6,80.1218,-2891.51,0,0
42800.925,80.7722,-2873.29,0,0
43061.25,80.2881,-2855.06,0,0
43321.575,80.7124,-2838.3,0,0
43581.9,79.2686,-2820.84,0,0
43842.225,78.9874,-2802.64,0,0
44102.55,80.0326,-2784.96,0,0
44362.875,82.0597,-2768.98,0,0
44623.2,82.332,-2754,0,0
44883.525,81.784,-2740.08,0,0
45143.85,80.6714,-2724.7,0,0
45404.175,79.1412,-2708.77,0,0
45664.5,79.6304,-2692.02,0,0
45924.825,80.9883,-2678.31,0,0
46185.15,79.8506,-2665.76,0,0
46445.475,77.4971,-2652.14,0,0
46705.8,74.8501,-2637.66,0,0
46966.125,72.9944,-2621.74,0,0
47226.45,71.5457,-2605.75,0,0
47486.775,71.2328,-2590.69,0,0
47747.1,70.8565,-2575.78,0,0
48007.425,70.324,-2561.5,0,0
48267.75,70.015,-2547.34,0,0
48528.075,69.1187,-2533.7,0,0
48788.4,68.5824,-2519.39,0,0
49048.725,68.1397,-2505.43,0,0
49309.05,67.6154,-2491.71,0,0
49569.375,67.2571,-2478.26,0,0
49829.7,66.8728,-2464.68,0,0
50090.025,66.594,-2451.38,0,0
50350.35,66.2144,-2438.16,0,0
50610.675,65.9134,-2425.26,0,0
50871.0,65.6521,-2412.47,0,0
51131.325,65.2203,-2399.67,0,0
51391.65,64.8425,-2387.1,0,0
51651.975,64.6014,-2374.57,0,0
51912.3,64.3034,-2362.2,0,0
52172.625,64.0869,-2349.88,0,0
52432.95,63.9817,-2337.83,0,0
52693.275,63.7503,-2325.85,0,0
52953.6,63.7971,-2313.97,0,0
53213.925,63.7574,-2302.55,0,0
53474.25,63.4721,-2291.29,0,0
53734.575,63.0743,-2279.85,0,0
53994.9,62.7344,-2268.68,0,0
54255.225,62.382,-2257.28,0,0
54515.55,62.1167,-2246.19,0,0
54775.875,61.8476,-2235.15,0,0
55036.2,61.5387,-2224.21,0,0
55296.525,61.2281,-2213.33,0,0
55556.85,61.0632,-2202.46,0,0
55817.175,60.7651,-2191.76,0,0
56077.5,60.5616,-2181.07,0,0
56337.825,60.6508,-2170.5,0,0
56598.15,60.4612,-2160.31,0,0
56858.475,60.2504,-2149.96,0,0
57118.8,60.1155,-2139.98,0,0
57379.125,59.8787,-2129.8,0,0
57639.45,59.5365,-2119.84,0,0
57899.775,59.3871,-2109.67,0,0
58160.1,59.3874,-2099.59,0,0
58420.4,59.5708,-2089.82,0,0
58680.7,59.8472,-2080.41,0,0
58941.1,59.6647,-2071.16,0,0
59201.4,59.4849,-2061.61,0,0
59461.7,59.6496,-2052.04,0,0
59722,59.8279,-2043.09,0,0
59982.4,59.5559,-2034.19,0,0
60242.7,59.7698,-2025.24,0,0
60503,59.5687,-2016.74,0,0
60763.3,59.0105,-2008.12,0,0
61023.7,58.6633,-1999.36,0,0
61284,58.2945,-1990.65,0,0
61544.3,57.945,-1981.95,0,0
61804.6,57.5383,-1973.41,0,0
62065,56.9857,-1964.69,0,0
62325.3,56.6027,-1956.12,0,0
62585.6,56.485,-1947.45,0,0
62845.9,56.1127,-1939.03,0,0
63106.3,55.9326,-1930.44,0,0
63366.6,55.7398,-1921.92,0,0
63626.9,55.7694,-1913.66,0,0
63887.2,55.6674,-1905.67,0,0
64147.6,55.422,-1897.51,0,0
64407.9,55.2934,-1889.47,0,0
64668.2,55.0699,-1881.29,0,0
64928.5,55.0303,-1873.2,0,0
65188.9,55.1198,-1865.3,0,0
65449.2,55.3137,-1857.72,0,0
65709.5,55.1881,-1850.23,0,0
65969.8,55.0163,-1842.74,0,0
66230.2,54.8941,-1835.52,0,0
66490.5,54.5494,-1828.25,0,0
66750.8,54.2006,-1820.9,0,0
67011.1,53.597,-1813.55,0,0
67271.5,53.2566,-1805.96,0,0
67531.8,53.0926,-1798.5,0,0
67792.1,52.7877,-1791.09,0,0
68052.4,52.5195,-1783.76,0,0
68312.8,52.1651,-1776.38,0,0
68573.1,52.0906,-1769.23,0,0
68833.4,51.9736,-1762,0,0
69093.7,51.8196,-1754.87,0,0
69354.1,51.7364,-1747.85,0,0
69614.4,51.6499,-1740.85,0,0
69874.7,51.4634,-1733.72,0,0
70135,51.5007,-1727.01,0,0
70395.4,51.3273,-1720.08,0,0
70655.7,51.3829,-1713.25,0,0
70916,51.3765,-1706.67,0,0
71176.3,51.3417,-1700.17,0,0
71436.7,51.3077,-1693.67,0,0
71697,51.0517,-1687.27,0,0
71957.3,50.8462,-1680.75,0,0
72217.6,50.5231,-1674.35,0,0
72478,50.2884,-1667.9,0,0
72738.3,50.1047,-1661.39,0,0
72998.6,49.9285,-1655.02,0,0
73258.9,49.7817,-1648.66,0,0
73519.3,49.6298,-1642.28,0,0
73779.6,49.476,-1636.06,0,0
74039.9,49.3378,-1629.84,0,0
74300.225,49.2592,-1623.58,0,0
74560.55,49.1325,-1617.45,0,0
74820.875,49.0391,-1611.28,0,0
75081.2,48.9541,-1605.19,0,0
75341.525,48.7885,-1599.25,0,0
75601.85,48.7424,-1593.2,0,0
75862.175,48.5914,-1587.28,0,0
76122.5,48.4959,-1581.37,0,0
76382.825,48.4257,-1575.46,0,0
76643.15,48.2941,-1569.55,0,0
76903.475,48.2325,-1563.74,0,0
77163.8,48.2184,-1557.97,0,0
77424.125,48.1475,-1552.2,0,0
77684.45,48.1158,-1546.55,0,0
77944.775,48.058,-1540.93,0,0
78205.1,47.9707,-1535.26,0,0
78465.425,47.8775,-1529.68,0,0
78725.75,47.8892,-1524.1,0,0
78986.075,47.8132,-1518.59,0,0
79246.4,47.736,-1513.1,0,0
79506.725,47.7298,-1507.64,0,0
79767.05,47.631,-1502.22,0,0
80027.375,47.7349,-1496.85,0,0
80287.7,47.6487,-1491.48,0,0
80548.025,47.5899,-1486.23,0,0
80808.35,47.4877,-1481,0,0
81068.675,47.3494,-1475.67,0,0
81329.0,47.3164,-1470.45,0,0
81589.325,47.2341,-1465.21,0,0
81849.65,47.2638,-1460.05,0,0
82109.975,47.1372,-1454.9,0,0
82370.3,47.0972,-1449.72,0,0
82630.625,47.0937,-1444.57,0,0
82890.95,47.0533,-1439.57,0,0
83151.275,46.9577,-1434.54,0,0
83411.6,46.8673,-1429.4,0,0
83671.925,46.882,-1424.31,0,0
83932.25,46.971,-1419.34,0,0
84192.575,46.9705,-1414.39,0,0
84452.9,47.0603,-1409.44,0,0
84713.225,47.1861,-1404.62,0,0
84973.55,47.1667,-1399.77,0,0
85233.875,47.2131,-1394.98,0,0
85494.2,47.2457,-1390.3,0,0
85754.525,47.2178,-1385.6,0,0
86014.85,47.2003,-1380.8,0,0
86275.175,47.2987,-1376.01,0,0
86535.5,47.3353,-1371.5,0,0
86795.825,47.358,-1366.86,0,0
87056.15,47.2846,-1362.23,0,0
87316.475,47.4936,-1357.56,0,0
87576.8,47.4497,-1353.18,0,0
87837.125,47.5139,-1348.73,0,0
88097.45,47.4046,-1344.23,0,0
88357.775,47.3927,-1339.7,0,0
88618.1,47.3414,-1335.36,0,0
88878.425,47.178,-1330.91,0,0
89138.75,47.0701,-1326.45,0,0
89399.075,46.9803,-1321.97,0,0
89659.4,46.981,-1317.42,0,0
89919.725,46.9486,-1312.91,0,0
90180,46.8719,-1308.43,0,0
90440.4,46.931,-1304,0,0
90700.7,47.1581,-1299.61,0,0
90961,47.1574,-1295.27,0,0
91221.3,47.1677,-1290.9,0,0
91481.7,47.276,-1286.55,0,0
91742,47.3766,-1282.25,0,0
92002.3,47.5502,-1277.94,0,0
92262.6,47.7087,-1273.68,0,0
92523,47.8306,-1269.61,0,0
92783.3,47.9112,-1265.39,0,0
93043.6,47.9239,-1261.15,0,0
93303.9,48.1294,-1256.81,0,0
93564.3,48.4184,-1252.62,0,0
93824.6,48.7578,-1248.32,0,0
94084.9,49.3721,-1244.4,0,0
94345.2,49.7432,-1240.64,0,0
94605.6,50.0573,-1236.94,0,0
94865.9,50.2864,-1233.2,0,0
95126.2,50.6124,-1229.55,0,0
95386.5,50.6934,-1226.29,0,0
95646.9,50.3956,-1222.8,0,0
95907.2,49.9998,-1219.03,0,0
96167.5,49.8056,-1215.19,0,0
96427.8,49.6477,-1211.23,0,0
96688.2,49.5652,-1207.26,0,0
96948.5,49.5409,-1203.35,0,0
97208.8,49.4511,-1199.46,0,0
97469.1,49.3103,-1195.48,0,0
97729.5,49.4115,-1191.34,0,0
97989.8,49.7749,-1187.47,0,0
98250.1,49.9612,-1183.76,0,0
98510.4,50.2394,-1180.07,0,0
98770.8,50.3315,-1176.53,0,0
99031.1,50.3132,-1172.98,0,0
99291.4,50.1204,-1169.35,0,0
99551.7,49.9004,-1165.54,0,0
99812.1,49.7593,-1161.46,0,0
100072,49.9513,-1157.36,0,0
100333,50.4145,-1153.46,0,0
100593,50.7276,-1149.77,0,0
100853,50.9539,-1146.02,0,0
101114,51.3505,-1142.33,0,0
101374,51.6773,-1138.83,0,0
101634,51.7726,-1135.24,0,0
101895,52.0886,-1131.44,0,0
102155,52.4805,-1127.8,0,0
102415,52.9782,-1124.16,0,0
102676,53.4349,-1120.75,0,0
102936,53.8972,-1117.2,0,0
103196,54.5199,-1113.84,0,0
103457,55.0496,-1110.57,0,0
103717,55.7074,-1107.47,0,0
103977,56.0505,-1104.78,0,0
104238,55.9813,-1101.73,0,0
104498,56.0781,-1098.46,0,0
104758,56.4756,-1095.24,0,0
105019,56.7277,-1092.43,0,0
105279,56.6682,-1089.47,0,0
105539,56.4675,-1086.4,0,0
105800,56.3241,-1083.12,0,0
106060,56.204,-1079.87,0,0
106320.175,56.106,-1076.3,0,0
106580.5,56.2972,-1072.77,0,0
106840.825,56.6533,-1069.44,0,0
107101.15,57.0088,-1066.27,0,0
107361.475,57.1066,-1063.19,0,0
107621.8,57.1406,-1059.92,0,0
107882.125,57.2392,-1056.6,0,0
108142.45,57.4966,-1053.28,0,0
108402.775,57.7242,-1050.03,0,0
108663.1,57.9835,-1046.78,0,0
108923.425,58.2013,-1043.64,0,0
109183.75,58.391,-1040.45,0,0
109444.075,58.5435,-1037.3,0,0
109704.4,58.521,-1033.99,0,0
109964.725,58.7057,-1030.59,0,0
110225.05,58.8371,-1027,0,0
110485.375,59.2012,-1023.27,0,0
110745.7,59.8026,-1019.67,0,0
111006.025,60.6974,-1016.33,0,0
111266.35,61.4571,-1013.15,0,0
111526.675,61.8821,-1010.12,0,0
111787.0,62.5304,-1006.67,0,0
112047.325,63.425,-1003.21,0,0
112307.65,64.3398,-999.991,0,0
112567.975,65.2833,-996.826,0,0
112828.3,66.3758,-993.759,0,0
113088.625,67.5441,-990.81,0,0
113348.95,68.7221,-988.088,0,0
113609.275,69.5944,-985.439,0,0
113869.6,70.5629,-982.542,0,0
114129.925,71.7367,-979.738,0,0
114390.25,72.949,-977.002,0,0
114650.575,74.2783,-974.576,0,0
114910.9,75.3234,-972.15,0,0
115171.225,76.5463,-969.574,0,0
115431.55,77.8981,-967.145,0,0
115691.875,79.3786,-964.737,0,0
115952.2,81.1388,-962.685,0,0
116212.525,82.8384,-960.912,0,0
116472.85,84.4976,-959.444,0,0
116733.175,86.0349,-958.439,0,0
116993.5,86.9552,-957.546,0,0
117253.825,87.8176,-956.319,0,0
117514.15,88.7887,-955.344,0,0
117774.475,89.4385,-954.538,0,0
118034.8,89.8201,-953.533,0,0
118295.125,90.4629,-952.278,0,0
118555.45,91.4529,-951.448,0,0
118815.775,92.2233,-951.169,0,0
119076.1,92.5611,-951.129,0,0
119336.425,92.5984,-951.216,0,0
119596.75,92.2585,-951.41,0,0
119857.075,91.4505,-951.774,0,0
120117.4,89.8318,-951.929,0,0
120377.725,88.0671,-951.772,0,0
120638.05,85.6418,-951.286,0,0
120898.375,83.1808,-949.997,0,0
121158.7,80.5708,-948.466,0,0
121419.025,77.9932,-945.986,0,0
121679.35,76.3389,-943.224,0,0
121939.675,74.8774,-940.744,0,0
122200.0,73.4595,-938.356,0,0
122460,71.9533,-935.921,0,0
122721,70.5084,-933.323,0,0
122981,69.0942,-930.72,0,0
123241,67.6488,-928.012,0,0
123502,66.2964,-924.932,0,0
123762,65.2031,-921.796,0,0
124022,64.5213,-918.801,0,0
124283,63.757,-915.953,0,0
124543,63.0479,-913.118,0,0
124803,62.4395,-910.39,0,0
125064,61.7216,-907.805,0,0
125324,60.7927,-905.202,0,0
125584,59.8178,-902.303,0,0
125845,59.0902,-899.316,0,0
126105,58.4604,-896.46,0,0
126365,57.662,-893.68,0,0
126626,56.8788,-890.613,0,0
126886,56.3279,-887.548,0,0
127146,55.6703,-884.56,0,0
127406,55.1287,-881.378,0,0
127667,54.7956,-878.23,0,0
127927,54.62,-875.22,0,0
128187,54.4011,-872.424,0,0
128448,53.952,-869.627,0,0
128708,53.5538,-866.71,0,0
128968,53.2144,-863.721,0,0
129229,52.9679,-860.774,0,0
129489,52.7988,-857.893,0,0
129749,52.4447,-855.116,0,0
130010,52.071,-852.134,0,0
130270,51.8915,-849.111,0,0
130530,51.8211,-846.279,0,0
130791,51.5809,-843.536,0,0
131051,51.2136,-840.679,0,0
131311,50.823,-837.641,0,0
131572,50.5912,-834.466,0,0
131832,50.5512,-831.33,0,0
132092,50.544,-828.328,0,0
132353,50.4048,-825.337,0,0
132613,50.3659,-822.217,0,0
132873,50.408,-819.109,0,0
133134,50.4692,-816.018,0,0
133394,50.6557,-812.897,0,0
133654,50.8383,-809.733,0,0
133915,51.1653,-806.582,0,0
134175,51.6275,-803.406,0,0
134435,52.3556,-800.354,0,0
134696,53.0027,-797.62,0,0
134956,53.5416,-794.942,0,0
135216,54.0383,-792.106,0,0
135477,54.7455,-789.214,0,0
135737,55.6521,-786.441,0,0
135997,56.8138,-783.885,0,0
136258,57.9826,-781.857,0,0
136518,58.9512,-780.137,0,0
136778,59.7159,-778.745,0,0
137039,59.8302,-777.635,0,0
137299,59.3635,-776.199,0,0
137559,58.6921,-774.263,0,0
137819,58.1287,-772.033,0,0
138080,57.7061,-769.685,0,0
138340.125,57.2025,-767.323,0,0
138600.45,56.6715,-764.739,0,0
138860.775,56.2539,-761.974,0,0
139121.1,55.9634,-759.015,0,0
139381.425,55.9657,-756.11,0,0
139641.75,56.075,-753.277,0,0
139902.075,56.1847,-750.553,0,0
140162.4,56.376,-747.892,0,0
140422.725,56.4398,-745.391,0,0
140683.05,56.395,-742.77,0,0
140943.375,56.3635,-740.06,0,0
141203.7,56.3544,-737.333,0,0
141464.025,56.3156,-734.519,0,0
141724.35,56.3357,-731.597,0,0
141984.675,56.5414,-728.632,0,0
142245.0,56.79,-725.732,0,0
142505.325,57.0928,-722.865,0,0
142765.65,57.4499,-719.989,0,0
143025.975,57.834,-717.071,0,0
143286.3,58.4069,-714.227,0,0
143546.625,59.0521,-711.523,0,0
143806.95,59.6523,-708.93,0,0
144067.275,60.2359,-706.486,0,0
144327.6,60.6803,-704.118,0,0
144587.925,61.0356,-701.683,0,0
144848.25,61.3156,-699.275,0,0
145108.575,61.5722,-696.73,0,0
145368.9,61.9041,-694.257,0,0
145629.225,62.1299,-691.783,0,0
145889.55,62.265,-689.256,0,0
146149.875,62.4181,-686.608,0,0
146410.2,62.6741,-683.857,0,0
146670.525,63.0297,-681.174,0,0
146930.85,63.3446,-678.549,0,0
147191.175,63.6688,-675.908,0,0
147451.5,63.9386,-673.339,0,0
147711.825,64.1402,-670.627,0,0
147972.15,64.5134,-667.838,0,0
148232.475,64.9593,-665.271,0,0
148492.8,65.232,-662.791,0,0
148753.125,65.3809,-660.292,0,0
149013.45,65.3452,-657.689,0,0
149273.775,65.2709,-654.868,0,0
149534.1,65.2649,-651.92,0,0
149794.425,65.2942,-648.91,0,0
150054.75,65.318,-645.8,0,0
150315.075,65.4277,-642.558,0,0
150575.4,65.5947,-639.245,0,0
150835.725,65.8424,-635.885,0,0
151096.05,66.1646,-632.445,0,0
151356.375,66.5774,-628.946,0,0
151616.7,67.0805,-625.411,0,0
151877.025,67.6585,-621.838,0,0
152137.35,68.3475,-618.261,0,0
152397.675,69.1054,-614.624,0,0
152658.0,69.9917,-610.979,0,0
152918.325,70.9658,-607.366,0,0
153178.65,71.987,-603.794,0,0
153438.975,73.0847,-600.19,0,0
153699.3,74.1814,-596.623,0,0
153959.625,75.3094,-592.969,0,0
154219.95,76.5839,-589.25,0,0
154480,78.001,-585.544,0,0
154741,79.4637,-581.859,0,0
155001,81.0585,-578.152,0,0
155261,82.7791,-574.465,0,0
155522,84.5969,-570.864,0,0
155782,86.4948,-567.248,0,0
156042,88.4906,-563.654,0,0
156303,90.5992,-560.11,0,0
156563,92.8392,-556.618,0,0
156823,95.1814,-553.232,0,0
157084,97.5875,-549.879,0,0
157344,100.229,-546.613,0,0
157604,103.01,-543.596,0,0
157864,105.747,-540.853,0,0
158125,108.422,-538.175,0,0
158385,111.219,-535.653,0,0
158645,114.041,-533.495,0,0
158906,116.556,-531.718,0,0
159166,118.659,-530.047,0,0
159426,120.378,-528.301,0,0
159687,121.854,-526.38,0,0
159947,123.1,-524.413,0,0
160207,123.946,-522.111,0,0
160468,124.674,-519.385,0,0
160728,125.462,-516.292,0,0
160988,126.15,-512.897,0,0
161249,126.765,-508.845,0,0
161509,127.885,-504.185,0,0
161769,129.515,-499.265,0,0
162030,131.677,-494.163,0,0
162290,134.352,-489.052,0,0
162550,137.458,-484.139,0,0
162811,140.63,-479.315,0,0
163071,144.052,-474.229,0,0
163331,147.915,-468.988,0,0
163592,152.428,-463.862,0,0
163852,157.575,-458.959,0,0
164112,162.904,-454.735,0,0
164373,168.191,-450.744,0,0
164633,173.612,-446.72,0,0
164893,179.204,-443.038,0,0
165154,184.642,-439.469,0,0
165414,189.881,-435.6,0,0
165674,195.455,-431.275,0,0
165935,201.733,-426.544,0,0
166195,208.835,-421.762,0,0
166455,216.986,-417.117,0,0
166716,225.884,-413.1,0,0
166976,235.318,-409.724,0,0
167236,245.289,-406.64,0,0
167497,256.187,-404.24,0,0
167757,267.624,-402.887,0,0
168017,279.168,-402.389,0,0
168277,291.261,-402.493,0,0
168538,303.984,-403.784,0,0
168798,316.837,-406.646,0,0
169058,329.532,-410.759,0,0
169319,342.066,-416.527,0,0
169579,353.328,-423.533,0,0
169839,363.773,-431.073,0,0
170100,373.887,-438.865,0,0
170360.075,384.064,-447.75,0,0
170620.4,393.495,-458.25,0,0
170880.725,401.235,-469.854,0,0
171141.05,407.492,-481.449,0,0
171401.375,413.029,-493.146,0,0
171661.7,417.741,-505.295,0,0
171922.025,421.471,-517.485,0,0
172182.35,425.118,-530.075,0,0
172442.675,427.867,-544.376,0,0
172703.0,427.891,-559.548,0,0
172963.325,425.972,-574.141,0,0
173223.65,422.042,-588.496,0,0
173483.975,416.397,-601.949,0,0
173744.3,408.654,-614.699,0,0
174004.625,398.673,-625.339,0,0
174264.95,387.818,-633.104,0,0
174525.275,377.132,-638.795,0,0
174785.6,366.26,-642.635,0,0
175045.925,355.612,-643.684,0,0
175306.25,347.334,-642.756,0,0
175566.575,340.571,-642.187,0,0
175826.9,333.702,-640.679,0,0
176087.225,328.467,-637.46,0,0
176347.55,325.386,-634.231,0,0
176607.875,323.574,-631.495,0,0
176868.2,323.171,-628.953,0,0
177128.525,324.155,-627.318,0,0
177388.85,325.821,-627.178,0,0
177649.175,327.5,-627.776,0,0
177909.5,330.167,-628.932,0,0
178169.825,333.83,-631.955,0,0
178430.15,337.46,-637.712,0,0
178690.475,339.216,-646.175,0,0
178950.8,337.949,-655.777,0,0
179211.125,333.619,-665.082,0,0
179471.45,326.94,-672.586,0,0
179731.775,319.715,-677.649,0,0
179992.1,313.126,-681.529,0,0
180252.425,306.806,-684.88,0,0
180512.75,300.812,-687.872,0,0
180773.075,294.943,-691.178,0,0
181033.4,288.509,-694.829,0,0
181293.725,280.967,-698.608,0,0
181554.05,271.973,-701.224,0,0
181814.375,263.069,-702.085,0,0
182074.7,254.598,-702.742,0,0
182335.025,245.363,-702.821,0,0
182595.35,235.716,-701.406,0,0
182855.675,226.686,-698.451,0,0
183116.0,218.571,-694.55,0,0
183376.325,211.691,-690.193,0,0
183636.65,205.595,-686.095,0,0
183896.975,199.503,-682.078,0,0
184157.3,193.582,-677.536,0,0
184417.625,188.27,-672.465,0,0
184677.95,183.844,-667.231,0,0
184938.275,180.16,-662.421,0,0
185198.6,176.45,-658.161,0,0
185458.925,172.585,-653.977,0,0
185719.25,168.479,-649.6,0,0
185979.575,164.332,-644.586,0,0
186239.9,160.803,-638.993,0,0
186500,157.964,-633.397,0,0
186761,155.53,-627.912,0,0
187021,153.303,-622.488,0,0
187281,151.457,-616.843,0,0
187542,150.215,-611.246,0,0
187802,149.541,-605.952,0,0
188062,149.281,-601.193,0,0
188322,149.096,-597.022,0,0
188583,148.856,-593.401,0,0
188843,148.048,-590.288,0,0
189103,146.653,-587.029,0,0
189364,144.976,-583.337,0,0
189624,143.436,-579.282,0,0
189884,141.992,-575.19,0,0
190145,140.413,-570.739,0,0
190405,139.313,-566.034,0,0
190665,138.301,-561.552,0,0
190926,137.168,-556.847,0,0
191186,136.293,-551.668,0,0
191446,136.097,-546.469,0,0
191707,136.245,-541.674,0,0
191967,136.312,-537.205,0,0
192227,136.042,-532.743,0,0
192488,135.798,-527.916,0,0
192748,135.874,-522.839,0,0
193008,136.271,-517.756,0,0
193269,136.925,-512.763,0,0
193529,137.802,-507.892,0,0
193789,138.714,-503.189,0,0
194050,139.563,-498.449,0,0
194310,140.534,-493.529,0,0
194570,141.786,-488.505,0,0
194831,143.445,-483.465,0,0
195091,145.492,-478.628,0,0
195351,147.698,-474.212,0,0
195612,149.84,-470.014,0,0
195872,152.039,-465.935,0,0
196132,154.344,-461.992,0,0
196393,156.486,-458.196,0,0
196653,158.684,-454.317,0,0
196913,161.031,-450.484,0,0
197174,163.601,-446.925,0,0
197434,166.123,-443.714,0,0
197694,168.388,-440.823,0,0
197955,170.202,-437.886,0,0
198215,171.785,-434.729,0,0
198475,173.361,-431.202,0,0
198735,175.129,-427.482,0,0
198996,176.922,-423.776,0,0
199256,178.705,-420.076,0,0
199516,180.386,-416.151,0,0
199777,182.21,-411.855,0,0
200037,184.317,-407.358,0,0
200297,186.708,-402.727,0,0
200558,189.389,-398.115,0,0
200818,192.291,-393.509,0,0
201078,195.269,-389.088,0,0
201339,198.221,-384.465,0,0
201599,201.427,-379.482,0,0
201859,205.064,-374.427,0,0
202120,209.088,-369.316,0,0
202380.025,213.581,-364.248,0,0
202640.35,218.552,-359.389,0,0
202900.675,223.756,-354.854,0,0
203161.0,229.063,-350.494,0,0
203421.325,234.554,-346.182,0,0
203681.65,240.358,-342.018,0,0
203941.975,246.317,-338.028,0,0
204202.3,252.515,-334.105,0,0
204462.625,258.96,-330.196,0,0
204722.95,265.755,-326.467,0,0
204983.275,272.825,-322.77,0,0
205243.6,280.564,-319.008,0,0
205503.925,289.291,-315.751,0,0
205764.25,298.505,-313.413,0,0
206024.575,307.871,-312.254,0,0
206284.9,317.021,-311.963,0,0
206545.225,325.673,-312.392,0,0
206805.55,333.986,-313.241,0,0
207065.875,341.654,-314.594,0,0
207326.2,348.675,-315.968,0,0
207586.525,355.197,-317.259,0,0
207846.85,361.274,-318.107,0,0
208107.175,367.188,-318.216,0,0
208367.5,373.527,-317.705,0,0
208627.825,380.517,-316.737,0,0
208888.15,388.412,-315.394,0,0
209148.475,397.794,-314.227,0,0
209408.8,408.182,-314.117,0,0
209669.125,419.228,-314.879,0,0
209929.45,430.918,-316.617,0,0
210189.775,443.297,-319.522,0,0
210450.1,456.292,-324.295,0,0
210710.425,468.93,-331.541,0,0
210970.75,479.668,-340.909,0,0
211231.075,488.541,-350.405,0,0
211491.4,496.549,-359.915,0,0
211751.725,503.847,-369.842,0,0
212012.05,510.128,-380.268,0,0
212272.375,515.117,-390.757,0,0
212532.7,519.308,-400.692,0,0
212793.025,523.495,-410.548,0,0
213053.35,527.068,-421.319,0,0
213313.675,528.752,-432.158,0,0
213574.0,529.326,-441.57,0,0
213834.325,530.282,-449.935,0,0
214094.65,531.708,-458.364,0,0
214354.975,533.051,-467.356,0,0
214615.3,533.423,-476.658,0,0
214875.625,533.059,-485.493,0,0
215135.95,532.471,-494.099,0,0
215396.275,531.185,-502.39,0,0
215656.6,529.561,-509.902,0,0
215916.925,528.177,-516.633,0,0
216177.25,527.571,-523.181,0,0
216437.575,527.704,-530.464,0,0
216697.9,527.627,-539.031,0,0
216958.225,526.347,-548.643,0,0
217218.55,523.354,-558.395,0,0
217478.875,518.822,-567.281,0,0
217739.2,513.807,-574.888,0,0
217999.525,508.954,-581.854,0,0
218259.85,503.951,-588.802,0,0
218520,498.332,-595.514,0,0
218780,492.167,-601.947,0,0
219041,485.189,-607.832,0,0
219301,477.371,-612.787,0,0
219561,469.165,-616.47,0,0
219822,460.944,-618.809,0,0
220082,453.055,-620.057,0,0
220342,445.679,-620.213,0,0
220603,439.12,-619.621,0,0
220863,433.245,-618.752,0,0
221123,427.729,-617.436,0,0
221384,422.828,-615.615,0,0
221644,418.553,-613.473,0,0
221904,415.082,-611.109,0,0
222165,412.253,-608.679,0,0
222425,410.159,-606.256,0,0
222685,408.799,-604.157,0,0
222946,407.878,-602.66,0,0
223206,406.877,-601.396,0,0
223466,406.034,-600.213,0,0
223727,405.511,-599.305,0,0
223987,405.071,-598.696,0,0
224247,404.417,-598.294,0,0
224508,403.576,-597.888,0,0
224768,402.624,-597.235,0,0
225028,401.627,-596.087,0,0
225289,401.16,-594.483,0,0
225549,401.435,-592.52,0,0
225809,402.633,-590.744,0,0
226070,404.654,-589.59,0,0
226330,407.055,-589.104,0,0
226590,409.618,-589.425,0,0
226851,411.85,-590.417,0,0
227111,413.834,-591.61,0,0
227371,415.738,-592.769,0,0
227632,417.886,-594.036,0,0
227892,420.362,-595.648,0,0
228152,423.128,-597.883,0,0
228413,425.845,-600.861,0,0
228673,428.277,-604.481,0,0
228933,430.271,-608.643,0,0
229193,431.705,-613.336,0,0
229454,432.251,-618.033,0,0
229714,432.451,-622.202,0,0
229974,433.109,-626.1,0,0
230235,434.298,-630.566,0,0
230495,435.314,-636.284,0,0
230755,435.187,-642.796,0,0
231016,433.907,-649.286,0,0
231276,431.794,-655.287,0,0
231536,429.405,-660.682,0,0
231797,427.143,-665.854,0,0
232057,424.971,-671.217,0,0
232317,422.545,-676.922,0,0
232578,419.701,-683.173,0,0
232838,415.911,-689.617,0,0
233098,411.293,-695.807,0,0
233359,406.094,-701.916,0,0
233619,400.121,-707.935,0,0
233879,392.955,-713.606,0,0
234140,384.778,-718.318,0,0
234400,376.191,-721.753,0,0
234660.3,367.423,-724.169,0,0
234920.625,358.549,-725.761,0,0
235180.95,349.592,-726.245,0,0
235441.275,340.795,-725.524,0,0
235701.6,332.76,-723.744,0,0
235961.925,325.615,-721.274,0,0
236222.25,319.39,-718.476,0,0
236482.575,314.084,-715.644,0,0
236742.9,309.573,-713.259,0,0
237003.225,305.207,-711.561,0,0
237263.55,300.394,-710.098,0,0
237523.875,295.302,-708.366,0,0
237784.2,290.13,-706.26,0,0
238044.525,284.984,-703.843,0,0
238304.85,279.868,-701.013,0,0
238565.175,274.788,-697.625,0,0
238825.5,269.982,-693.326,0,0
239085.825,266.045,-688.524,0,0
239346.15,263.227,-683.2,0,0
239606.475,261.641,-678.023,0,0
239866.8,261.173,-673.609,0,0
240127.125,261.328,-670.18,0,0
240387.45,261.63,-667.895,0,0
240647.775,261.588,-666.628,0,0
240908.1,260.718,-665.876,0,0
241168.425,259.111,-665.156,0,0
241428.75,257.189,-664.284,0,0
241689.075,254.944,-663.282,0,0
241949.4,252.422,-662.138,0,0
242209.725,249.491,-660.858,0,0
242470.05,246.17,-658.939,0,0
242730.375,242.878,-656.224,0,0
242990.7,240.062,-652.965,0,0
243251.025,237.807,-649.488,0,0
243511.35,235.838,-646.063,0,0
243771.675,233.99,-642.398,0,0
244032.0,232.453,-638.337,0,0
244292.325,231.663,-634.08,0,0
244552.65,231.757,-629.9,0,0
244812.975,232.54,-626.272,0,0
245073.3,233.662,-623.49,0,0
245333.625,234.528,-621.466,0,0
245593.95,235.118,-619.801,0,0
245854.275,235.447,-618.258,0,0
246114.6,235.494,-616.913,0,0
246374.925,235.252,-615.539,0,0
246635.25,234.869,-614.052,0,0
246895.575,234.386,-612.487,0,0
247155.9,233.79,-610.833,0,0
247416.225,233.136,-608.876,0,0
247676.55,232.559,-606.746,0,0
247936.875,232.191,-604.494,0,0
248197.2,231.928,-602.21,0,0
248457.525,231.77,-599.836,0,0
248717.85,231.808,-597.434,0,0
248978.175,232.006,-594.983,0,0
249238.5,232.387,-592.555,0,0
249498.825,232.852,-590.179,0,0
249759.15,233.433,-587.793,0,0
250019.475,234.12,-585.317,0,0
250279.8,235.171,-582.865,0,0
250540,236.475,-580.442,0,0
250800,237.986,-578.21,0,0
251061,239.742,-576.154,0,0
251321,241.558,-574.309,0,0
251581,243.482,-572.671,0,0
251842,245.506,-570.991,0,0
252102,247.777,-569.386,0,0
252362,250.473,-568.039,0,0
252623,253.409,-567.147,0,0
252883,256.462,-566.707,0,0
253143,259.598,-566.758,0,0
253404,262.645,-567.359,0,0
253664,265.481,-568.486,0,0
253924,268.023,-570.074,0,0
254185,270.121,-571.996,0,0
254445,271.759,-574.118,0,0
254705,273.004,-576.272,0,0
254966,273.875,-578.524,0,0
255226,274.461,-580.797,0,0
255486,274.687,-583.068,0,0
255747,274.497,-585.367,0,0
256007,273.893,-587.447,0,0
256267,273.099,-589.249,0,0
256528,272.148,-590.806,0,0
256788,271.065,-592.271,0,0
257048,269.795,-593.556,0,0
257309,268.302,-594.58,0,0
257569,266.804,-595.278,0,0
257829,265.345,-595.7,0,0
258090,263.922,-595.882,0,0
258350,262.632,-595.832,0,0
258610,261.598,-595.627,0,0
258871,260.829,-595.431,0,0
259131,260.172,-595.45,0,0
259391,259.483,-595.623,0,0
259651,258.645,-595.97,0,0
259912,257.525,-596.204,0,0
260172,256.158,-596.269,0,0
260432,254.731,-595.921,0,0
260693,253.43,-595.347,0,0
260953,252.301,-594.518,0,0
261213,251.301,-593.556,0,0
261474,250.453,-592.454,0,0
261734,249.804,-591.198,0,0
261994,249.4,-589.757,0,0
262255,249.364,-588.158,0,0
262515,249.835,-586.585,0,0
262775,250.727,-585.271,0,0
263036,251.963,-584.292,0,0
263296,253.441,-583.705,0,0
263556,254.988,-583.667,0,0
263817,256.403,-584.028,0,0
264077,257.696,-584.729,0,0
264337,258.787,-585.738,0,0
264598,259.567,-587.061,0,0
264858,260.004,-588.499,0,0
265118,260.007,-589.96,0,0
265379,259.623,-591.297,0,0
265639,259.039,-592.295,0,0
265899,258.4,-593,0,0
266160,257.877,-593.608,0,0
266420,257.503,-594.02,0,0
266680.25,257.283,-594.436,0,0
266940.575,257.25,-595.042,0,0
267200.9,257.192,-595.819,0,0
267461.225,256.938,-596.783,0,0
267721.55,256.539,-597.783,0,0
267981.875,255.925,-598.822,0,0
268242.2,255.049,-599.711,0,0
268502.525,254.066,-600.34,0,0
268762.85,253.09,-600.725,0,0
269023.175,252.171,-600.941,0,0
269283.5,251.336,-600.893,0,0
269543.825,250.72,-600.615,0,0
269804.15,250.445,-600.225,0,0
270064.475,250.494,-599.831,0,0
270324.8,250.927,-599.549,0,0
270585.125,251.707,-599.397,0,0
270845.45,252.748,-599.527,0,0
271105.775,254.083,-599.932,0,0
271366.1,255.723,-600.615,0,0
271626.425,257.743,-601.792,0,0
271886.75,260.118,-603.745,0,0
272147.075,262.482,-606.7,0,0
272407.4,264.543,-610.72,0,0
272667.725,265.863,-615.698,0,0
272928.05,266.227,-621.352,0,0
273188.375,265.463,-627.367,0,0
273448.7,263.627,-633.521,0,0
273709.025,260.728,-639.598,0,0
273969.35,256.709,-645.315,0,0
274229.675,251.807,-650.466,0,0
274490.0,246.297,-654.911,0,0
274750.325,240.303,-658.737,0,0
275010.65,233.834,-662.145,0,0
275270.975,226.696,-664.941,0,0
275531.3,219.064,-666.712,0,0
275791.625,211.221,-667.447,0,0
276051.95,203.415,-667.129,0,0
276312.275,195.863,-665.932,0,0
276572.6,188.702,-663.997,0,0
276832.925,181.895,-661.459,0,0
277093.25,175.423,-658.349,0,0
277353.575,169.372,-654.633,0,0
277613.9,163.93,-650.375,0,0
277874.225,159.176,-645.75,0,0
278134.55,155.06,-640.922,0,0
278394.875,151.567,-636.024,0,0
278655.2,148.672,-631.13,0,0
278915.525,146.259,-626.331,0,0
279175.85,144.287,-621.708,0,0
279436.175,142.664,-617.24,0,0
279696.5,141.236,-612.933,0,0
279956.825,140.168,-608.648,0,0
280217.15,139.308,-604.477,0,0
280477.475,138.825,-600.467,0,0
280737.8,138.742,-596.707,0,0
280998.125,138.865,-593.382,0,0
281258.45,138.996,-590.48,0,0
281518.775,138.981,-587.947,0,0
281779.1,138.724,-585.553,0,0
282039.425,138.29,-583.18,0,0
282299.75,137.741,-580.771,0,0
282560,137.073,-578.313,0,0
282820,136.299,-575.704,0,0
283081,135.525,-572.835,0,0
283341,134.909,-569.752,0,0
283601,134.516,-566.512,0,0
283862,134.367,-563.183,0,0
284122,134.489,-559.823,0,0
284382,134.941,-556.515,0,0
284643,135.67,-553.325,0,0
284903,136.617,-550.368,0,0
285163,137.721,-547.584,0,0
285424,138.94,-544.94,0,0
285684,140.28,-542.543,0,0
285944,141.68,-540.389,0,0
286205,143.107,-538.461,0,0
286465,144.512,-536.734,0,0
286725,145.881,-535.214,0,0
286986,147.137,-533.865,0,0
287246,148.3,-532.69,0,0
287506,149.262,-531.662,0,0
287767,150.006,-530.683,0,0
288027,150.542,-529.628,0,0
288287,150.928,-528.451,0,0
288548,151.259,-527.13,0,0
288808,151.609,-525.642,0,0
289068,152.04,-524.023,0,0
289329,152.546,-522.347,0,0
289589,153.147,-520.64,0,0
289849,153.8,-518.919,0,0
290109,154.566,-517.135,0,0
290370,155.357,-515.248,0,0
290630,156.391,-513.301,0,0
290890,157.664,-511.446,0,0
291151,159.128,-509.734,0,0
291411,160.652,-508.231,0,0
291671,162.137,-506.917,0,0
291932,163.567,-505.688,0,0
292192,164.932,-504.454,0,0
292452,166.302,-503.176,0,0
292713,167.77,-501.884,0,0
292973,169.338,-500.65,0,0
293233,170.976,-499.504,0,0
293494,172.642,-498.439,0,0
293754,174.325,-497.45,0,0
294014,176.024,-496.52,0,0
294275,177.727,-495.642,0,0
294535,179.42,-494.74,0,0
294795,181.148,-493.839,0,0
295056,183.022,-492.878,0,0
295316,184.983,-492.043,0,0
295576,187.048,-491.292,0,0
295837,189.182,-490.644,0,0
296097,191.331,-490.038,0,0
296357,193.558,-489.489,0,0
296618,195.893,-489.017,0,0
296878,198.358,-488.621,0,0
297138,200.936,-488.384,0,0
297399,203.62,-488.309,0,0
297659,206.383,-488.436,0,0
297919,209.171,-488.801,0,0
298180,211.918,-489.375,0,0
298440,214.568,-490.094,0,0
298700.2,217.174,-490.973,0,0
298960.525,219.792,-491.794,0,0
299220.85,222.464,-492.786,0,0
299481.175,225.064,-493.862,0,0
299741.5,227.848,-495.032,0,0
300001.825,230.65,-496.444,0,0
300262.15,233.522,-498.157,0,0
300522.475,236.389,-499.975,0,0
300782.8,239.258,-502.023,0,0
301043.125,242.271,-504.208,0,0
301303.45,245.267,-506.886,0,0
301563.775,248.33,-509.734,0,0
301824.1,251.448,-513.224,0,0
302084.425,254.47,-517.161,0,0
302344.75,257.253,-521.811,0,0
302605.075,259.578,-526.972,0,0
302865.4,261.284,-532.812,0,0
303125.725,262.137,-538.97,0,0
303386.05,262.08,-545.262,0,0
303646.375,261.179,-551.399,0,0
303906.7,259.533,-557.225,0,0
304167.025,257.353,-562.626,0,0
304427.35,254.79,-567.583,0,0
304687.675,251.917,-572.174,0,0
304948.0,248.866,-576.388,0,0
305208.325,245.599,-580.276,0,0
305468.65,242.225,-583.93,0,0
305728.975,238.644,-587.364,0,0
305989.3,234.834,-590.52,0,0
306249.625,230.828,-593.365,0,0
306509.95,226.662,-595.838,0,0
306770.275,222.41,-597.959,0,0
307030.6,218.147,-599.719,0,0
307290.925,213.889,-601.169,0,0
307551.25,209.663,-602.359,0,0
307811.575,205.446,-603.27,0,0
308071.9,201.275,-603.936,0,0
308332.225,197.121,-604.373,0,0
308592.55,192.987,-604.53,0,0
308852.875,188.955,-604.419,0,0
309113.2,184.999,-604.039,0,0
309373.525,181.179,-603.396,0,0
309633.85,177.521,-602.497,0,0
309894.175,174.124,-601.388,0,0
310154.5,171.014,-600.165,0,0
310414.825,168.131,-598.874,0,0
310675.15,165.471,-597.609,0,0
310935.475,162.926,-596.326,0,0
311195.8,160.54,-595.09,0,0
311456.125,158.252,-593.876,0,0
311716.45,156.013,-592.647,0,0
311976.775,153.861,-591.462,0,0
312237.1,151.738,-590.242,0,0
312497.425,149.682,-589.054,0,0
312757.75,147.641,-587.832,0,0
313018.075,145.629,-586.585,0,0
313278.4,143.64,-585.291,0,0
313538.725,141.633,-583.962,0,0
313799.05,139.695,-582.549,0,0
314059.375,137.771,-581.021,0,0
314319.7,135.965,-579.39,0,0
314580,134.219,-577.657,0,0
314840,132.658,-575.813,0,0
315101,131.268,-573.975,0,0
315361,130.059,-572.102,0,0
315621,128.998,-570.274,0,0
315882,128.072,-568.519,0,0
316142,127.287,-566.805,0,0
316402,126.595,-565.206,0,0
316663,125.966,-563.715,0,0
316923,125.389,-562.315,0,0
317183,124.786,-560.978,0,0
317444,124.221,-559.71,0,0
317704,123.659,-558.458,0,0
317964,123.129,-557.255,0,0
318225,122.611,-556.101,0,0
318485,122.104,-554.976,0,0
318745,121.589,-553.902,0,0
319006,121.079,-552.809,0,0
319266,120.635,-551.702,0,0
319526,120.211,-550.664,0,0
319787,119.839,-549.688,0,0
320047,119.48,-548.764,0,0
320307,119.123,-547.916,0,0
320567,118.739,-547.093,0,0
320828,118.326,-546.333,0,0
321088,117.874,-545.584,0,0
321348,117.399,-544.843,0,0
321609,116.92,-544.099,0,0
321869,116.413,-543.346,0,0
322129,115.927,-542.619,0,0
322390,115.447,-541.883,0,0
322650,114.975,-541.169,0,0
322910,114.507,-540.47,0,0
323171,114.01,-539.801,0,0
323431,113.503,-539.161,0,0
323691,112.961,-538.496,0,0
323952,112.397,-537.837,0,0
324212,111.816,-537.145,0,0
324472,111.233,-536.433,0,0
324733,110.664,-535.675,0,0
324993,110.122,-534.889,0,0
325253,109.631,-534.102,0,0
325514,109.221,-533.294,0,0
325774,108.879,-532.547,0,0
326034,108.563,-531.892,0,0
326295,108.235,-531.318,0,0
326555,107.861,-530.777,0,0
326815,107.473,-530.285,0,0
327076,107.053,-529.824,0,0
327336,106.592,-529.397,0,0
327596,106.069,-528.986,0,0
327857,105.508,-528.546,0,0
328117,104.918,-528.118,0,0
328377,104.298,-527.669,0,0
328638,103.64,-527.194,0,0
328898,102.985,-526.707,0,0
329158,102.303,-526.206,0,0
329419,101.635,-525.707,0,0
329679,100.94,-525.162,0,0
329939,100.253,-524.614,0,0
330200,99.5786,-524.086,0,0
330460,98.9018,-523.53,0,0
330720.15,98.1944,-523.053,0,0
330980.475,97.4767,-522.511,0,0
331240.8,96.8174,-522.027,0,0
331501.125,96.0247,-521.552,0,0
331761.45,95.2802,-521.067,0,0
332021.775,94.385,-520.598,0,0
332282.1,93.5145,-520.043,0,0
332542.425,92.6251,-519.57,0,0
332802.75,91.6171,-518.981,0,0
333063.075,90.638,-518.32,0,0
333323.4,89.62,-517.6,0,0
333583.725,88.5856,-516.955,0,0
333844.05,87.5952,-516.209,0,0
334104.375,86.5113,-515.375,0,0
334364.7,85.5318,-514.433,0,0
334625.025,84.5116,-513.522,0,0
334885.35,83.5201,-512.588,0,0
335145.675,82.6068,-511.556,0,0
335406.0,81.7234,-510.553,0,0
335666.325,80.7781,-509.508,0,0
335926.65,79.8784,-508.53,0,0
336186.975,78.9499,-507.4,0,0
336447.3,78.031,-506.275,0,0
336707.625,77.1517,-505.089,0,0
336967.95,76.2789,-503.874,0,0
337228.275,75.5529,-502.557,0,0
337488.6,74.765,-501.29,0,0
337748.925,74.0882,-500.026,0,0
338009.25,73.3938,-498.669,0,0
338269.575,72.7499,-497.312,0,0
338529.9,72.1426,-496.047,0,0
338790.225,71.5749,-494.761,0,0
339050.55,71.0076,-493.49,0,0
339310.875,70.43,-492.106,0,0
339571.2,70.0021,-490.744,0,0
339831.525,69.4428,-489.426,0,0
340091.85,69.0378,-488.063,0,0
340352.175,68.5929,-486.744,0,0
340612.5,68.1902,-485.374,0,0
340872.825,67.7714,-483.954,0,0
341133.15,67.4524,-482.543,0,0
341393.475,67.1538,-481.124,0,0
341653.8,66.8458,-479.708,0,0
341914.125,66.6852,-478.276,0,0
342174.45,66.4762,-476.879,0,0
342434.775,66.373,-475.51,0,0
342695.1,66.2654,-474.141,0,0
342955.425,66.2199,-472.739,0,0
343215.75,66.278,-471.4,0,0
343476.075,66.2783,-470.068,0,0
343736.4,66.3164,-468.72,0,0
343996.725,66.4827,-467.439,0,0
344257.05,66.6294,-466.242,0,0
344517.375,66.8039,-465.103,0,0
344777.7,66.9743,-464.002,0,0
345038.025,67.17,-462.964,0,0
345298.35,67.3895,-461.885,0,0
345558.675,67.5944,-460.905,0,0
345819.0,67.7793,-459.997,0,0
346079.325,67.9497,-459.134,0,0
346339.65,68.0869,-458.266,0,0
346599.975,68.2084,-457.494,0,0
346860,68.2779,-456.72,0,0
347121,68.236,-455.965,0,0
347381,68.2482,-455.209,0,0
347641,68.1845,-454.408,0,0
347902,68.0297,-453.626,0,0
348162,67.8781,-452.841,0,0
348422,67.7011,-451.996,0,0
348683,67.4616,-451.101,0,0
348943,67.2854,-450.172,0,0
349203,67.0536,-449.134,0,0
349464,66.8689,-448.091,0,0
349724,66.7112,-447.017,0,0
349984,66.5647,-445.96,0,0
350245,66.4231,-444.882,0,0
350505,66.351,-443.801,0,0
350765,66.2319,-442.653,0,0
351025,66.1545,-441.424,0,0
351286,66.0723,-440.204,0,0
351546,66.1617,-438.909,0,0
351806,66.2026,-437.579,0,0
352067,66.4303,-436.309,0,0
352327,66.6966,-434.997,0,0
352587,67.0299,-433.817,0,0
352848,67.4253,-432.642,0,0
353108,67.7896,-431.523,0,0
353368,68.2855,-430.382,0,0
353629,68.7935,-429.382,0,0
353889,69.3006,-428.402,0,0
354149,69.8261,-427.472,0,0
354410,70.3717,-426.654,0,0
354670,70.8596,-425.86,0,0
354930,71.3755,-425.047,0,0
355191,71.9083,-424.348,0,0
355451,72.4616,-423.644,0,0
355711,72.9948,-423.147,0,0
355972,73.4165,-422.624,0,0
356232,73.8378,-422.251,0,0
356492,74.1065,-421.903,0,0
356753,74.3413,-421.537,0,0
357013,74.4421,-421.133,0,0
357273,74.4825,-420.731,0,0
357534,74.445,-420.306,0,0
357794,74.3513,-419.834,0,0
358054,74.1629,-419.252,0,0
358315,73.952,-418.635,0,0
358575,73.7632,-417.892,0,0
358835,73.5703,-417.081,0,0
359096,73.4068,-416.218,0,0
359356,73.2919,-415.205,0,0
359616,73.2092,-414.205,0,0
359877,73.1917,-413.124,0,0
360137,73.2188,-412.056,0,0
360397,73.3842,-410.939,0,0
360658,73.5266,-409.841,0,0
360918,73.747,-408.765,0,0
361178,74.0512,-407.607,0,0
361438,74.3363,-406.525,0,0
361699,74.7978,-405.444,0,0
361959,75.205,-404.4,0,0
362219,75.6484,-403.366,0,0
362480,76.1985,-402.42,0,0
362740.1,76.7473,-401.508,0,0
363000.425,77.2887,-400.634,0,0
363260.75,77.8173,-399.724,0,0
363521.075,78.4003,-398.877,0,0
363781.4,78.9966,-398.028,0,0
364041.725,79.5994,-397.184,0,0
364302.05,80.2072,-396.394,0,0
364562.375,80.8885,-395.583,0,0
364822.7,81.5645,-394.84,0,0
365083.025,82.3138,-394.125,0,0
365343.35,83.0681,-393.548,0,0
365603.675,83.8705,-392.972,0,0
365864.0,84.6784,-392.512,0,0
366124.325,85.3464,-392.129,0,0
366384.65,86.0069,-391.738,0,0
366644.975,86.6363,-391.421,0,0
366905.3,87.1709,-391.06,0,0
367165.625,87.7474,-390.705,0,0
367425.95,88.2829,-390.344,0,0
367686.275,88.8518,-390.012,0,0
367946.6,89.3876,-389.711,0,0
368206.925,89.9381,-389.428,0,0
368467.25,90.425,-389.172,0,0
368727.575,90.9735,-388.913,0,0
368987.9,91.4877,-388.71,0,0
369248.225,91.9404,-388.527,0,0
369508.55,92.4521,-388.369,0,0
369768.875,92.9107,-388.298,0,0
370029.2,93.3276,-388.3,0,0
370289.525,93.6213,-388.316,0,0
370549.85,93.8341,-388.399,0,0
370810.175,93.9068,-388.408,0,0
371070.5,93.9335,-388.418,0,0
371330.825,93.83,-388.382,0,0
371591.15,93.6609,-388.242,0,0
371851.475,93.4509,-387.963,0,0
372111.8,93.2038,-387.613,0,0
372372.125,92.967,-387.116,0,0
372632.45,92.8613,-386.559,0,0
372892.775,92.7405,-385.976,0,0
373153.1,92.7303,-385.309,0,0
373413.425,92.7287,-384.612,0,0
373673.75,92.8096,-383.884,0,0
373934.075,92.9382,-383.204,0,0
374194.4,93.133,-382.457,0,0
374454.725,93.3725,-381.812,0,0
374715.05,93.6337,-381.146,0,0
374975.375,93.9363,-380.513,0,0
375235.7,94.2216,-379.926,0,0
375496.025,94.5277,-379.329,0,0
375756.35,94.8525,-378.785,0,0
376016.675,95.2079,-378.283,0,0
376277.0,95.4566,-377.823,0,0
376537.325,95.7348,-377.334,0,0
376797.65,95.9184,-376.907,0,0
377057.975,96.0801,-376.373,0,0
377318.3,96.2289,-375.83,0,0
377578.625,96.3654,-375.241,0,0
377838.95,96.5316,-374.559,0,0
378099.275,96.7902,-373.889,0,0
378359.6,97.0099,-373.138,0,0
378619.925,97.3241,-372.43,0,0
378880,97.6732,-371.673,0,0
379141,98.0789,-370.963,0,0
379401,98.5283,-370.292,0,0
379661,98.9924,-369.619,0,0
379922,99.4747,-368.978,0,0
380182,100.012,-368.407,0,0
380442,100.5,-367.832,0,0
380703,100.991,-367.3,0,0
380963,101.487,-366.76,0,0
381223,101.97,-366.217,0,0
381483,102.464,-365.663,0,0
381744,102.927,-365.136,0,0
382004,103.375,-364.601,0,0
382264,103.863,-364.037,0,0
382525,104.383,-363.454,0,0
382785,104.976,-362.916,0,0
383045,105.499,-362.375,0,0
383306,106.081,-361.89,0,0
383566,106.676,-361.374,0,0
383826,107.277,-360.922,0,0
384087,107.858,-360.431,0,0
384347,108.498,-359.953,0,0
384607,109.136,-359.545,0,0
384868,109.731,-359.128,0,0
385128,110.372,-358.793,0,0
385388,110.969,-358.447,0,0
385649,111.502,-358.119,0,0
385909,112.001,-357.735,0,0
386169,112.499,-357.375,0,0
386430,113.041,-356.931,0,0
386690,113.551,-356.492,0,0
386950,114.163,-356.098,0,0
387211,114.724,-355.689,0,0
387471,115.238,-355.29,0,0
387731,115.741,-354.827,0,0
387992,116.289,-354.364,0,0
388252,116.843,-353.825,0,0
388512,117.419,-353.221,0,0
388773,118.078,-352.605,0,0
389033,118.873,-351.957,0,0
389293,119.798,-351.326,0,0
389554,120.749,-350.772,0,0
389814,121.757,-350.33,0,0
390074,122.857,-349.906,0,0
390335,123.927,-349.654,0,0
390595,124.974,-349.46,0,0
390855,125.99,-349.304,0,0
391116,127.011,-349.201,0,0
391376,127.954,-349.117,0,0
391636,128.884,-349.036,0,0
391896,129.786,-349.005,0,0
392157,130.668,-348.966,0,0
392417,131.528,-348.913,0,0
392677,132.391,-348.894,0,0
392938,133.259,-348.859,0,0
393198,134.081,-348.845,0,0
393458,134.926,-348.824,0,0
393719,135.686,-348.781,0,0
393979,136.502,-348.687,0,0
394239,137.329,-348.6,0,0
394500,138.125,-348.399,0,0
394760.05,139.043,-348.216,0,0
395020.375,140.004,-347.961,0,0
395280.7,141.064,-347.789,0,0
395541.025,142.173,-347.568,0,0
395801.35,143.377,-347.396,0,0
396061.675,144.626,-347.21,0,0
396322.0,146.019,-347.087,0,0
396582.325,147.538,-347.039,0,0
396842.65,149.133,-347.084,0,0
397102.975,150.81,-347.285,0,0
397363.3,152.543,-347.582,0,0
397623.625,154.327,-348.047,0,0
397883.95,156.175,-348.622,0,0
398144.275,158.015,-349.354,0,0
398404.6,159.867,-350.284,0,0
398664.925,161.686,-351.41,0,0
398925.25,163.551,-352.72,0,0
399185.575,165.294,-354.199,0,0
399445.9,167.028,-355.91,0,0
399706.225,168.544,-357.879,0,0
399966.55,169.926,-360.04,0,0
400006.6,170.112,-360.35,0,0