File: Accelerated corrosion test data/2025-10-16_06-00-08/sample_4.csv
Frequency (Hz),Impedance (ohms),Phase (Radians),Temperature (C),Humidity (%)
10000.0,263.58,-11920.3,0,0
10260.325,260.562,-11621.1,0,0
10520.65,250.705,-11336,0,0
10780.975,244.636,-11064.1,0,0
11041.3,239.788,-10804.6,0,0
11301.625,234.004,-10560.5,0,0
11561.95,228.903,-10323.5,0,0
11822.275,224.883,-10098,0,0
12082.6,219.568,-9882.06,0,0
12342.925,215.062,-9674.66,0,0
12603.25,213.497,-9474.62,0,0
12863.575,208.288,-9286.79,0,0
13123.9,207.372,-9107.06,0,0
13384.225,199.939,-8927.96,0,0
13644.55,196.156,-8755.55,0,0
13904.875,193.356,-8590.25,0,0
14165.2,194.537,-8426.06,0,0
14425.525,197.802,-8280.98,0,0
14685.8,201.969,-8163.72,0,0
14946.175,181.945,-8007.89,0,0
15206.5,181.492,-7861.62,0,0
15466.825,188.719,-7717.73,0,0
15727.15,188.154,-7620.86,0,0
15987.5,186.127,-7502.71,0,0
16247.8,170.946,-7372.79,0,0
16508.125,190.516,-7244.45,0,0
16768.45,178.382,-7144.68,0,0
17028.775,171.176,-7056.39,0,0
17289.1,160.252,-6942.2,0,0
17549.425,158.628,-6837.46,0,0
17809.75,156.114,-6736.63,0,0
18070.075,152.376,-6637.18,0,0
18330.4,153.594,-6540.39,0,0
18590.725,152.959,-6451.13,0,0
18851.05,149.773,-6367.22,0,0
19111.375,145.418,-6277.8,0,0
19371.7,142.884,-6192.03,0,0
19632.025,141.716,-6107.51,0,0
19892.35,144.12,-6026.44,0,0
20152.675,143.541,-5949.37,0,0
20413.0,140.802,-5875.43,0,0
20673.3,141.217,-5800.44,0,0
20933.65,137.159,-5726.63,0,0
21193.975,140.49,-5651.75,0,0
21454.3,151.619,-5585.71,0,0
21714.625,146.827,-5529.05,0,0
21974.9,148.905,-5457.5,0,0
22235.275,149.367,-5412.67,0,0
22495.6,135.575,-5355.67,0,0
22755.925,128.593,-5290.55,0,0
23016.25,125.135,-5228.35,0,0
23276.6,122.579,-5167.77,0,0
23536.9,120.827,-5109.92,0,0
23797.225,118.822,-5052.99,0,0
24057.55,117.299,-4996.82,0,0
24317.875,116.181,-4942.45,0,0
24578.2,114.482,-4888.54,0,0
24838.525,113.864,-4836.4,0,0
25098.85,114.051,-4784.54,0,0
25359.175,113.605,-4737.45,0,0
25619.5,112.232,-4688.22,0,0
25879.8,110.633,-4643.77,0,0
26140.1,108.172,-4595.23,0,0
26400.5,107.404,-4548.62,0,0
26660.8,106.092,-4501.78,0,0
26921.1,106.728,-4457.74,0,0
27181.4,105.356,-4412.67,0,0
27441.8,105.858,-4367.1,0,0
27702.1,109.284,-4323.49,0,0
27962.4,115.801,-4282.04,0,0
28222.7,120.78,-4254.56,0,0
28483.1,114.083,-4219.27,0,0
28743.4,109.84,-4178.23,0,0
29003.7,112.183,-4136.91,0,0
29264,117.448,-4104.2,0,0
29524.4,112.454,-4074.07,0,0
29784.7,109.664,-4041.71,0,0
30045,107.142,-4007.11,0,0
30305.3,101.385,-3972.09,0,0
30565.7,99.6996,-3935.71,0,0
30826,99.093,-3901.51,0,0
31086.3,98.0036,-3867.1,0,0
31346.6,99.029,-3833.44,0,0
31607,97.6069,-3803.03,0,0
31867.3,97.359,-3770.94,0,0
32127.6,99.8877,-3739.94,0,0
32387.9,99.1197,-3714.25,0,0
32648.3,97.2717,-3684.66,0,0
32908.6,94.975,-3656.78,0,0
33168.9,92.3628,-3627.66,0,0
33429.2,90.0302,-3598.93,0,0
33689.6,88.5794,-3570.1,0,0
33949.9,87.4727,-3541.07,0,0
34210.2,87.4135,-3513.26,0,0
34470.5,86.1275,-3487.21,0,0
34730.9,84.9246,-3459.96,0,0
34991.2,84.5289,-3433.17,0,0
35251.5,84.0869,-3407.3,0,0
35511.8,83.5679,-3381.79,0,0
35772.2,82.6204,-3356.71,0,0
36032.5,81.7338,-3331.84,0,0
36292.8,80.9524,-3307.38,0,0
36553.1,80.6474,-3282.41,0,0
36813.5,80.6291,-3258.49,0,0
37073.8,80.9565,-3235.11,0,0
37334.1,79.6796,-3212.47,0,0
37594.4,78.9876,-3189.42,0,0
37854.8,78.8917,-3166.87,0,0
38115.1,78.277,-3145.12,0,0
38375.4,77.2218,-3122.62,0,0
38635.7,76.9881,-3100.35,0,0
38896.1,77.3425,-3078.75,0,0
39156.4,76.8083,-3057.82,0,0
39416.7,76.3749,-3036.66,0,0
39677,76.2341,-3015.2,0,0
39937.4,76.9386,-2993.86,0,0
40197.7,78.6038,-2973.53,0,0
40458,80.1034,-2954.99,0,0
40718.3,79.6711,-2937.84,0,0
40978.7,78.7006,-2917.83,0,0
41239,80.39,-2899.2,0,0
41499.3,82.2053,-2882.08,0,0
41759.6,78.9018,-2866.73,0,0
42020,77.5703,-2848.06,0,0
42280.275,76.3043,-2828.82,0,0
42540.6,78.5107,-2810.6,0,0
42800.925,78.3601,-2796.09,0,0
43061.25,75.6677,-2778.82,0,0
43321.575,75.6315,-2761.18,0,0
43581.9,74.6121,-2744.7,0,0
43842.225,73.7617,-2727.3,0,0
44102.55,73.6931,-2711.32,0,0
44362.875,72.3484,-2694.38,0,0
44623.2,72.4552,-2677.4,0,0
44883.525,72.2266,-2662.08,0,0
45143.85,71.2973,-2645.89,0,0
45404.175,70.3151,-2629.37,0,0
45664.5,71.2402,-2612.57,0,0
45924.825,72.7721,-2598.05,0,0
46185.15,71.4614,-2584.89,0,0
46445.475,70.4361,-2568.43,0,0
46705.8,71.2787,-2552.97,0,0
46966.125,71.717,-2539.38,0,0
47226.45,71.539,-2524.95,0,0
47486.775,71.4325,-2512.01,0,0
47747.1,70.142,-2498.38,0,0
48007.425,69.3212,-2484.15,0,0
48267.75,68.5553,-2470.82,0,0
48528.075,67.755,-2456.62,0,0
48788.4,66.994,-2442.69,0,0
49048.725,66.1015,-2428.81,0,0
49309.05,66.1318,-2414.68,0,0
49569.375,65.4264,-2401.8,0,0
49829.7,64.8824,-2387.88,0,0
50090.025,64.8028,-2374.6,0,0
50350.35,64.3093,-2361.13,0,0
50610.675,64.2784,-2348.06,0,0
50871.0,64.0577,-2335.08,0,0
51131.325,63.8692,-2322.06,0,0
51391.65,63.6923,-2309.31,0,0
51651.975,63.8311,-2296.27,0,0
51912.3,63.7282,-2283.69,0,0
52172.625,64.0056,-2270.81,0,0
52432.95,64.3775,-2258.68,0,0
52693.275,64.417,-2245.85,0,0
52953.6,65.2166,-2233.26,0,0
53213.925,66.3176,-2221.1,0,0
53474.25,67.5752,-2209.16,0,0
53734.575,68.9452,-2197.55,0,0
53994.9,71.3185,-2186.14,0,0
54255.225,73.7514,-2176.41,0,0
54515.55,75.7971,-2167.92,0,0
54775.875,75.8922,-2160.27,0,0
55036.2,74.2838,-2151.81,0,0
55296.525,73.687,-2142,0,0
55556.85,72.0012,-2133.36,0,0
55817.175,69.9118,-2122.97,0,0
56077.5,68.344,-2112.51,0,0
56337.825,67.2075,-2101.69,0,0
56598.15,65.9279,-2090.41,0,0
56858.475,65.5698,-2079.07,0,0
57118.8,65.8305,-2068.05,0,0
57379.125,66.0796,-2057.56,0,0
57639.45,66.1928,-2047.39,0,0
57899.775,66.3363,-2037.06,0,0
58160.1,66.5154,-2026.49,0,0
58420.4,67.416,-2016.14,0,0
58680.7,68.3461,-2007.64,0,0
58941.1,67.562,-1997.12,0,0
59201.4,68.642,-1986.38,0,0
59461.7,70.3809,-1976.1,0,0
59722,72.9847,-1967.36,0,0
59982.4,75.2245,-1959.24,0,0
60242.7,76.5407,-1952.2,0,0
60503,77.2874,-1944.77,0,0
60763.3,79.5538,-1937.14,0,0
61023.7,80.7542,-1933.45,0,0
61284,78.4991,-1928.6,0,0
61544.3,74.8046,-1922.63,0,0
61804.6,71.3427,-1913.21,0,0
62065,69.9137,-1904.19,0,0
62325.3,68.8645,-1896.06,0,0
62585.6,66.079,-1887.59,0,0
62845.9,64.8977,-1877.01,0,0
63106.3,64.6435,-1868.05,0,0
63366.6,64.1705,-1858.79,0,0
63626.9,64.3103,-1849.6,0,0
63887.2,64.6827,-1841.68,0,0
64147.6,63.2869,-1833.02,0,0
64407.9,63.6397,-1823.47,0,0
64668.2,64.5406,-1815.09,0,0
64928.5,64.9066,-1807.17,0,0
65188.9,65.0447,-1799.26,0,0
65449.2,65.092,-1791.26,0,0
65709.5,65.0801,-1782.93,0,0
65969.8,66.1921,-1774.18,0,0
66230.2,67.3853,-1767.12,0,0
66490.5,67.8832,-1759.86,0,0
66750.8,68.5647,-1752.68,0,0
67011.1,68.9582,-1745.27,0,0
67271.5,70.0887,-1737.92,0,0
67531.8,71.3612,-1731.45,0,0
67792.1,72.3134,-1725.13,0,0
68052.4,73.1927,-1719.39,0,0
68312.8,73.6079,-1713.9,0,0
68573.1,73.8693,-1708.66,0,0
68833.4,73.4068,-1704.07,0,0
69093.7,71.7296,-1699.14,0,0
69354.1,69.6993,-1693.31,0,0
69614.4,67.3974,-1686.31,0,0
69874.7,66.4879,-1678.8,0,0
70135,65.691,-1672.15,0,0
70395.4,64.2807,-1665.03,0,0
70655.7,63.9068,-1656.76,0,0
70916,65.1365,-1650.24,0,0
71176.3,64.802,-1644.56,0,0
71436.7,64.2505,-1638.4,0,0
71697,63.8186,-1632.75,0,0
71957.3,62.1758,-1626.91,0,0
72217.6,60.4478,-1620.11,0,0
72478,59.3599,-1612.92,0,0
72738.3,58.4074,-1605.75,0,0
72998.6,57.6411,-1598.42,0,0
73258.9,57.1232,-1590.83,0,0
73519.3,57.4239,-1583.39,0,0
73779.6,57.7154,-1576.49,0,0
74039.9,58.1557,-1569.62,0,0
74300.225,58.2845,-1563.27,0,0
74560.55,58.5388,-1556.41,0,0
74820.875,59.0598,-1549.82,0,0
75081.2,59.631,-1543.41,0,0
75341.525,60.5379,-1537.39,0,0
75601.85,60.8924,-1531.68,0,0
75862.175,61.1287,-1525.76,0,0
76122.5,61.5938,-1519.83,0,0
76382.825,62.2614,-1514.25,0,0
76643.15,62.319,-1508.84,0,0
76903.475,62.2522,-1502.92,0,0
77163.8,62.9896,-1496.56,0,0
77424.125,64.2104,-1491.39,0,0
77684.45,65.1091,-1486.45,0,0
77944.775,65.695,-1482.09,0,0
78205.1,65.6818,-1477.72,0,0
78465.425,65.4668,-1473.23,0,0
78725.75,64.9141,-1468.82,0,0
78986.075,64.0697,-1464.03,0,0
79246.4,63.1971,-1458.94,0,0
79506.725,62.4639,-1453.57,0,0
79767.05,61.8039,-1448.12,0,0
80027.375,61.3049,-1442.59,0,0
80287.7,61.0272,-1437.13,0,0
80548.025,60.874,-1431.67,0,0
80808.35,60.7604,-1426.32,0,0
81068.675,60.787,-1421.08,0,0
81329.0,60.6976,-1416.02,0,0
81589.325,60.5543,-1410.99,0,0
81849.65,60.3571,-1406.12,0,0
82109.975,59.9884,-1401.05,0,0
82370.3,59.7915,-1396,0,0
82630.625,59.5588,-1391.03,0,0
82890.95,59.3138,-1386.06,0,0
83151.275,58.9783,-1381.05,0,0
83411.6,58.6962,-1376.14,0,0
83671.925,58.422,-1371.07,0,0
83932.25,58.253,-1366.1,0,0
84192.575,58.0252,-1361.14,0,0
84452.9,57.8249,-1356.16,0,0
84713.225,57.6436,-1351.33,0,0
84973.55,57.534,-1346.4,0,0
85233.875,57.3156,-1341.61,0,0
85494.2,57.115,-1336.76,0,0
85754.525,56.9312,-1332.03,0,0
86014.85,56.6595,-1327.22,0,0
86275.175,56.5565,-1322.38,0,0
86535.5,56.5051,-1317.59,0,0
86795.825,56.336,-1313,0,0
87056.15,56.1403,-1308.49,0,0
87316.475,55.9259,-1303.78,0,0
87576.8,55.7969,-1299.29,0,0
87837.125,55.3745,-1294.78,0,0
88097.45,54.9228,-1290.26,0,0
88357.775,54.3003,-1285.49,0,0
88618.1,53.9116,-1280.51,0,0
88878.425,53.8178,-1275.54,0,0
89138.75,53.7006,-1270.77,0,0
89399.075,53.4948,-1265.95,0,0
89659.4,53.4764,-1261.19,0,0
89919.725,53.5627,-1256.5,0,0
90180,53.5738,-1251.91,0,0
90440.4,53.5088,-1247.27,0,0
90700.7,53.4456,-1242.66,0,0
90961,53.3965,-1238.13,0,0
91221.3,53.3328,-1233.43,0,0
91481.7,53.3012,-1228.7,0,0
91742,53.4644,-1224.13,0,0
92002.3,53.6919,-1219.49,0,0
92262.6,54.0249,-1215.02,0,0
92523,54.3835,-1210.75,0,0
92783.3,54.7178,-1206.56,0,0
93043.6,54.9104,-1202.55,0,0
93303.9,55.0484,-1198.56,0,0
93564.3,55.0418,-1194.66,0,0
93824.6,54.8442,-1190.7,0,0
94084.9,54.5956,-1186.73,0,0
94345.2,54.1673,-1182.69,0,0
94605.6,53.7029,-1178.39,0,0
94865.9,53.3023,-1173.91,0,0
95126.2,53.175,-1169.39,0,0
95386.5,52.9132,-1164.94,0,0
95646.9,52.8985,-1160.35,0,0
95907.2,52.9575,-1155.84,0,0
96167.5,53.0631,-1151.37,0,0
96427.8,53.2712,-1146.98,0,0
96688.2,53.4484,-1142.69,0,0
96948.5,53.586,-1138.36,0,0
97208.8,53.7119,-1134.02,0,0
97469.1,53.9179,-1129.76,0,0
97729.5,54.0353,-1125.46,0,0
97989.8,54.2409,-1121.06,0,0
98250.1,54.6103,-1116.66,0,0
98510.4,54.9876,-1112.47,0,0
98770.8,55.297,-1108.2,0,0
99031.1,55.7817,-1103.91,0,0
99291.4,56.3882,-1099.68,0,0
99551.7,57,-1095.63,0,0
99812.1,57.4481,-1091.65,0,0
100072,57.9579,-1087.47,0,0
100333,58.7604,-1083.29,0,0
100593,59.8822,-1079.42,0,0
100853,60.9633,-1076.09,0,0
101114,61.5571,-1072.97,0,0
101374,62.1526,-1069.68,0,0
101634,62.7461,-1066.85,0,0
101895,62.7902,-1064.32,0,0
102155,62.0871,-1061.59,0,0
102415,60.9886,-1058.28,0,0
102676,59.8979,-1054.34,0,0
102936,59.0574,-1050,0,0
103196,58.4494,-1045.43,0,0
103457,58.0809,-1040.62,0,0
103717,58.056,-1035.65,0,0
103977,58.4727,-1030.72,0,0
104238,58.9905,-1025.99,0,0
104498,59.6111,-1021.22,0,0
104758,60.5289,-1016.5,0,0
105019,61.6002,-1011.97,0,0
105279,62.8188,-1007.62,0,0
105539,64.0491,-1003.4,0,0
105800,65.3007,-999.266,0,0
106060,66.6513,-995.217,0,0
106320.175,68.0397,-991.337,0,0
106580.5,69.5102,-987.486,0,0
106840.825,70.9562,-983.868,0,0
107101.15,72.3329,-980.361,0,0
107361.475,73.6072,-976.843,0,0
107621.8,74.8596,-973.235,0,0
107882.125,76.2817,-969.56,0,0
108142.45,77.8872,-965.999,0,0
108402.775,79.5958,-962.552,0,0
108663.1,81.4014,-959.327,0,0
108923.425,83.2013,-956.258,0,0
109183.75,85.0769,-953.34,0,0
109444.075,86.9372,-950.668,0,0
109704.4,88.6364,-948.253,0,0
109964.725,90.1173,-945.871,0,0
110225.05,91.5617,-943.437,0,0
110485.375,92.9964,-941.125,0,0
110745.7,94.3083,-938.953,0,0
111006.025,95.6292,-936.84,0,0
111266.35,96.8011,-934.713,0,0
111526.675,97.7727,-932.645,0,0
111787.0,98.8781,-930.411,0,0
112047.325,100.005,-928.27,0,0
112307.65,101.109,-926.298,0,0
112567.975,102.091,-924.403,0,0
112828.3,103.038,-922.528,0,0
113088.625,103.924,-920.707,0,0
113348.95,104.741,-918.905,0,0
113609.275,105.395,-917.193,0,0
113869.6,106.043,-915.456,0,0
114129.925,106.533,-913.737,0,0
114390.25,107.069,-911.974,0,0
114650.575,107.567,-910.219,0,0
114910.9,108.042,-908.528,0,0
115171.225,108.436,-906.99,0,0
115431.55,108.676,-905.358,0,0
115691.875,108.742,-903.772,0,0
115952.2,108.819,-902.056,0,0
116212.525,108.814,-900.369,0,0
116472.85,108.745,-898.665,0,0
116733.175,108.523,-896.939,0,0
116993.5,108.19,-895.099,0,0
117253.825,107.896,-893.13,0,0
117514.15,107.466,-891.039,0,0
117774.475,107.019,-888.766,0,0
118034.8,106.697,-886.289,0,0
118295.125,106.57,-883.693,0,0
118555.45,106.556,-881.151,0,0
118815.775,106.562,-878.449,0,0
119076.1,106.869,-875.502,0,0
119336.425,107.799,-872.552,0,0
119596.75,109.387,-870.129,0,0
119857.075,111.024,-868.73,0,0
120117.4,112.322,-867.94,0,0
120377.725,112.908,-867.655,0,0
120638.05,113.005,-867.529,0,0
120898.375,112.133,-867.447,0,0
121158.7,110.653,-866.78,0,0
121419.025,109.006,-865.412,0,0
121679.35,107.497,-863.604,0,0
121939.675,106.077,-861.569,0,0
122200.0,104.788,-859.271,0,0
122460,103.648,-856.859,0,0
122721,102.672,-854.263,0,0
122981,101.927,-851.713,0,0
123241,101.185,-849.256,0,0
123502,100.491,-846.742,0,0
123762,99.7996,-844.224,0,0
124022,99.1864,-841.647,0,0
124283,98.6134,-839.086,0,0
124543,98.0868,-836.503,0,0
124803,97.6606,-833.931,0,0
125064,97.3023,-831.337,0,0
125324,97.0892,-828.928,0,0
125584,96.7743,-826.624,0,0
125845,96.4728,-824.363,0,0
126105,96.1431,-822.225,0,0
126365,95.582,-820.236,0,0
126626,94.9008,-818.183,0,0
126886,94.0472,-816.025,0,0
127146,93.2451,-813.676,0,0
127406,92.4647,-811.424,0,0
127667,91.6565,-809.128,0,0
127927,90.806,-807.035,0,0
128187,89.6766,-804.91,0,0
128448,88.284,-802.622,0,0
128708,86.9227,-800.052,0,0
128968,85.4911,-797.352,0,0
129229,84.0005,-794.482,0,0
129489,82.5427,-791.424,0,0
129749,81.1867,-788.177,0,0
130010,79.8739,-784.818,0,0
130270,78.7205,-781.213,0,0
130530,77.7486,-777.642,0,0
130791,76.8209,-774.065,0,0
131051,75.9222,-770.391,0,0
131311,75.185,-766.65,0,0
131572,74.5599,-762.84,0,0
131832,74.0276,-759.09,0,0
132092,73.5025,-755.352,0,0
132353,73.0539,-751.488,0,0
132613,72.753,-747.652,0,0
132873,72.5092,-743.829,0,0
133134,72.3913,-740.023,0,0
133394,72.2435,-736.261,0,0
133654,72.1501,-732.47,0,0
133915,72.1202,-728.66,0,0
134175,72.1722,-724.813,0,0
134435,72.2844,-721.04,0,0
134696,72.4185,-717.285,0,0
134956,72.6069,-713.502,0,0
135216,72.8339,-709.68,0,0
135477,73.2035,-705.927,0,0
135737,73.6256,-702.195,0,0
135997,74.0875,-698.551,0,0
136258,74.5285,-694.875,0,0
136518,75.0215,-691.236,0,0
136778,75.6417,-687.658,0,0
137039,76.2451,-684.21,0,0
137299,76.7643,-680.887,0,0
137559,77.0963,-677.522,0,0
137819,77.4356,-674.048,0,0
138080,77.7293,-670.491,0,0
138340.125,78.0532,-666.817,0,0
138600.45,78.4824,-663.106,0,0
138860.775,78.9548,-659.408,0,0
139121.1,79.4307,-655.636,0,0
139381.425,80.0132,-651.733,0,0
139641.75,80.754,-647.917,0,0
139902.075,81.5085,-644.118,0,0
140162.4,82.2705,-640.341,0,0
140422.725,83.1064,-636.5,0,0
140683.05,84.0093,-632.619,0,0
140943.375,85.0339,-628.775,0,0
141203.7,86.1272,-624.962,0,0
141464.025,87.2982,-621.242,0,0
141724.35,88.436,-617.549,0,0
141984.675,89.6338,-613.84,0,0
142245.0,90.8437,-610.202,0,0
142505.325,92.0901,-606.572,0,0
142765.65,93.3158,-602.969,0,0
143025.975,94.5633,-599.324,0,0
143286.3,95.8712,-595.665,0,0
143546.625,97.2488,-592.068,0,0
143806.95,98.5464,-588.479,0,0
144067.275,99.8573,-584.84,0,0
144327.6,101.239,-581.127,0,0
144587.925,102.673,-577.449,0,0
144848.25,104.139,-573.737,0,0
145108.575,105.629,-569.972,0,0
145368.9,107.239,-566.179,0,0
145629.225,109.008,-562.375,0,0
145889.55,110.776,-558.642,0,0
146149.875,112.605,-554.884,0,0
146410.2,114.553,-551.115,0,0
146670.525,116.565,-547.403,0,0
146930.85,118.632,-543.756,0,0
147191.175,120.71,-540.141,0,0
147451.5,122.826,-536.523,0,0
147711.825,124.988,-532.893,0,0
147972.15,127.211,-529.26,0,0
148232.475,129.489,-525.609,0,0
148492.8,131.901,-521.958,0,0
148753.125,134.384,-518.352,0,0
149013.45,136.945,-514.752,0,0
149273.775,139.558,-511.234,0,0
149534.1,142.108,-507.693,0,0
149794.425,144.757,-503.972,0,0
150054.75,147.694,-500.235,0,0
150315.075,150.767,-496.61,0,0
150575.4,153.974,-493.055,0,0
150835.725,157.256,-489.497,0,0
151096.05,160.743,-485.906,0,0
151356.375,164.497,-482.489,0,0
151616.7,168.408,-479.236,0,0
151877.025,172.397,-476.187,0,0
152137.35,176.39,-473.156,0,0
152397.675,180.772,-470.142,0,0
152658.0,185.506,-467.574,0,0
152918.325,190.117,-465.519,0,0
153178.65,194.6,-463.564,0,0
153438.975,199.202,-461.838,0,0
153699.3,203.782,-460.478,0,0
153959.625,208.196,-459.403,0,0
154219.95,212.426,-458.5,0,0
154480,216.517,-457.894,0,0
154741,220.256,-457.542,0,0
155001,223.432,-457.037,0,0
155261,226.59,-456.002,0,0
155522,230.054,-454.869,0,0
155782,233.887,-454.04,0,0
156042,237.59,-453.568,0,0
156303,240.879,-453.344,0,0
156563,243.908,-453.121,0,0
156823,246.666,-452.687,0,0
157084,249.402,-451.97,0,0
157344,252.168,-451.195,0,0
157604,254.98,-450.385,0,0
157864,257.816,-449.288,0,0
158125,260.887,-448.082,0,0
158385,264.377,-446.971,0,0
158645,267.801,-446.006,0,0
158906,271.428,-444.935,0,0
159166,275.589,-443.765,0,0
159426,280.471,-443.506,0,0
159687,284.985,-444.238,0,0
159947,288.976,-445.166,0,0
160207,292.711,-446.393,0,0
160468,296.131,-447.762,0,0
160728,299.22,-449.54,0,0
160988,301.713,-451.428,0,0
161249,303.559,-453.206,0,0
161509,304.821,-454.443,0,0
161769,306.207,-455.232,0,0
162030,307.794,-455.947,0,0
162290,309.067,-456.623,0,0
162550,310.314,-457.243,0,0
162811,311.324,-457.69,0,0
163071,312.107,-457.675,0,0
163331,313.062,-457.253,0,0
163592,314.144,-456.806,0,0
163852,315.213,-456.112,0,0
164112,316.399,-455.099,0,0
164373,317.708,-453.76,0,0
164633,319.53,-452.146,0,0
164893,321.879,-450.64,0,0
165154,324.2,-449.448,0,0
165414,326.487,-447.983,0,0
165674,329.108,-446.195,0,0
165935,332.407,-444.189,0,0
166195,336.298,-442.333,0,0
166455,340.591,-440.94,0,0
166716,345.506,-439.673,0,0
166976,350.983,-438.955,0,0
167236,356.882,-438.893,0,0
167497,362.89,-439.756,0,0
167757,368.858,-441.285,0,0
168017,374.738,-443.711,0,0
168277,380.277,-446.633,0,0
168538,385.363,-450.011,0,0
168798,390.241,-453.632,0,0
169058,395.289,-457.672,0,0
169319,400.24,-462.778,0,0
169579,404.176,-468.786,0,0
169839,407.356,-474.699,0,0
170100,410.569,-481.143,0,0
170360.075,412.991,-488.434,0,0
170620.4,414.345,-496.372,0,0
170880.725,414.371,-504.617,0,0
171141.05,412.868,-512.732,0,0
171401.375,410.085,-520.004,0,0
171661.7,406.931,-526.45,0,0
171922.025,403.337,-532.857,0,0
172182.35,398.641,-538.9,0,0
172442.675,393.213,-543.983,0,0
172703.0,387.325,-548.331,0,0
172963.325,380.85,-551.956,0,0
173223.65,374.023,-554.404,0,0
173483.975,367.215,-555.956,0,0
173744.3,360.295,-556.663,0,0
174004.625,353.663,-556.33,0,0
174264.95,347.43,-555.511,0,0
174525.275,341.322,-554.098,0,0
174785.6,335.637,-552.006,0,0
175045.925,330.237,-549.691,0,0
175306.25,324.941,-546.949,0,0
175566.575,319.834,-543.458,0,0
175826.9,315.403,-539.368,0,0
176087.225,311.532,-535.067,0,0
176347.55,308.113,-530.515,0,0
176607.875,305.257,-525.727,0,0
176868.2,302.915,-520.932,0,0
177128.525,301.031,-516.118,0,0
177388.85,299.542,-511.361,0,0
177649.175,298.38,-506.64,0,0
177909.5,297.635,-502.012,0,0
178169.825,297.125,-497.59,0,0
178430.15,296.722,-493.315,0,0
178690.475,296.458,-489.029,0,0
178950.8,296.318,-484.754,0,0
179211.125,296.43,-480.443,0,0
179471.45,296.862,-476.177,0,0
179731.775,297.537,-472.113,0,0
179992.1,298.375,-468.274,0,0
180252.425,299.231,-464.635,0,0
180512.75,300.115,-461.112,0,0
180773.075,300.976,-457.714,0,0
181033.4,301.868,-454.403,0,0
181293.725,302.694,-451.112,0,0
181554.05,303.564,-447.922,0,0
181814.375,304.353,-444.717,0,0
182074.7,305.109,-441.521,0,0
182335.025,305.801,-438.335,0,0
182595.35,306.411,-435.07,0,0
182855.675,306.953,-431.682,0,0
183116.0,307.482,-428.163,0,0
183376.325,308.04,-424.44,0,0
183636.65,308.665,-420.583,0,0
183896.975,309.345,-416.547,0,0
184157.3,310.172,-412.344,0,0
184417.625,311.136,-407.99,0,0
184677.95,312.299,-403.579,0,0
184938.275,313.544,-399.04,0,0
185198.6,314.978,-394.341,0,0
185458.925,316.663,-389.598,0,0
185719.25,318.53,-384.868,0,0
185979.575,320.483,-380.13,0,0
186239.9,322.507,-375.26,0,0
186500,324.686,-370.261,0,0
186761,327.078,-365.177,0,0
187021,329.618,-360.055,0,0
187281,332.404,-354.801,0,0
187542,335.359,-349.455,0,0
187802,338.571,-344.05,0,0
188062,341.966,-338.473,0,0
188322,345.733,-332.909,0,0
188583,349.706,-327.253,0,0
188843,353.946,-321.633,0,0
189103,358.546,-315.915,0,0
189364,363.346,-310.169,0,0
189624,368.473,-304.357,0,0
189884,373.976,-298.609,0,0
190145,379.934,-292.854,0,0
190405,386.247,-287.251,0,0
190665,392.954,-281.659,0,0
190926,399.917,-276.287,0,0
191186,407.163,-271,0,0
191446,414.854,-265.745,0,0
191707,423.003,-260.677,0,0
191967,431.458,-255.832,0,0
192227,440.437,-251.229,0,0
192488,449.691,-246.896,0,0
192748,459.246,-242.903,0,0
193008,469.279,-239.19,0,0
193269,479.546,-235.851,0,0
193529,489.906,-232.996,0,0
193789,500.646,-230.201,0,0
194050,511.582,-227.866,0,0
194310,522.824,-225.949,0,0
194570,534.169,-224.385,0,0
194831,545.698,-223.089,0,0
195091,557.331,-222.207,0,0
195351,569.148,-221.535,0,0
195612,581.206,-221.042,0,0
195872,593.608,-220.803,0,0
196132,606.384,-220.862,0,0
196393,619.601,-221.32,0,0
196653,633.157,-222.28,0,0
196913,647.072,-223.666,0,0
197174,661.475,-225.586,0,0
197434,676.368,-228.238,0,0
197694,691.543,-231.676,0,0
197955,707.059,-235.932,0,0
198215,722.752,-241.079,0,0
198475,738.673,-247.098,0,0
198735,754.845,-254.019,0,0
198996,771.303,-262.087,0,0
199256,787.754,-271.522,0,0
199516,803.958,-282.494,0,0
199777,819.774,-294.917,0,0
200037,834.824,-308.486,0,0
200297,849.059,-323.323,0,0
200558,862.543,-339.252,0,0
200818,874.711,-356.408,0,0
201078,885.562,-374.271,0,0
201339,895.304,-392.648,0,0
201599,903.792,-411.712,0,0
201859,910.809,-431.301,0,0
202120,916.135,-450.914,0,0
202380.025,920.614,-470.047,0,0
202640.35,923.859,-489.32,0,0
202900.675,925.779,-508.263,0,0
203161.0,927.189,-526.46,0,0
203421.325,928.545,-544.597,0,0
203681.65,929.35,-563.556,0,0
203941.975,928.738,-582.95,0,0
204202.3,926.34,-602.208,0,0
204462.625,922.505,-620.43,0,0
204722.95,918.202,-637.638,0,0
204983.275,913.535,-654.262,0,0
205243.6,908.353,-670.733,0,0
205503.925,902.296,-686.71,0,0
205764.25,895.906,-701.659,0,0
206024.575,889.25,-716.144,0,0
206284.9,882.401,-730.524,0,0
206545.225,875.309,-744.41,0,0
206805.55,868.184,-758.327,0,0
207065.875,860.585,-772.45,0,0
207326.2,851.968,-787.025,0,0
207586.525,841.857,-801.331,0,0
207846.85,830.483,-814.764,0,0
208107.175,818.12,-826.856,0,0
208367.5,805.173,-837.762,0,0
208627.825,792.028,-847.621,0,0
208888.15,778.467,-856.392,0,0
209148.475,764.459,-863.919,0,0
209408.8,750.747,-869.946,0,0
209669.125,737.565,-874.984,0,0
209929.45,724.757,-879.308,0,0
210189.775,712.125,-882.843,0,0
210450.1,699.897,-885.731,0,0
210710.425,688.035,-887.992,0,0
210970.75,676.512,-889.641,0,0
211231.075,665.531,-890.618,0,0
211491.4,655.05,-891.153,0,0
211751.725,644.985,-891.287,0,0
212012.05,635.48,-890.917,0,0
212272.375,626.55,-890.263,0,0
212532.7,618.25,-889.41,0,0
212793.025,610.635,-888.722,0,0
213053.35,603.114,-888.243,0,0
213313.675,595.481,-887.307,0,0
213574.0,588.38,-886.046,0,0
213834.325,581.776,-884.224,0,0
214094.65,575.85,-882.241,0,0
214354.975,570.915,-880.366,0,0
214615.3,566.801,-878.8,0,0
214875.625,563.044,-877.882,0,0
215135.95,559.742,-877.641,0,0
215396.275,556.258,-878.032,0,0
215656.6,552.788,-878.888,0,0
215916.925,549.001,-880.275,0,0
216177.25,544.6,-881.89,0,0
216437.575,539.717,-883.409,0,0
216697.9,534.416,-884.514,0,0
216958.225,529.143,-885.044,0,0
217218.55,524.134,-885.331,0,0
217478.875,519.498,-885.602,0,0
217739.2,514.978,-886.051,0,0
217999.525,510.346,-886.521,0,0
218259.85,505.838,-886.945,0,0
218520,501.282,-887.407,0,0
218780,496.805,-887.752,0,0
219041,492.438,-888.156,0,0
219301,488.177,-888.688,0,0
219561,483.793,-889.277,0,0
219822,479.297,-889.93,0,0
220082,474.743,-890.561,0,0
220342,469.945,-891.17,0,0
220603,465.077,-891.662,0,0
220863,460.145,-891.944,0,0
221123,455.171,-891.883,0,0
221384,450.477,-891.712,0,0
221644,445.927,-891.557,0,0
221904,441.359,-891.467,0,0
222165,436.86,-891.302,0,0
222425,432.257,-891.068,0,0
222685,427.839,-890.712,0,0
222946,423.517,-890.179,0,0
223206,419.332,-889.756,0,0
223466,415.254,-889.432,0,0
223727,411.304,-889.109,0,0
223987,407.397,-888.896,0,0
224247,403.41,-888.889,0,0
224508,399.429,-888.998,0,0
224768,395.37,-889.28,0,0
225028,390.885,-889.619,0,0
225289,386.339,-889.816,0,0
225549,381.576,-889.906,0,0
225809,376.699,-890.095,0,0
226070,371.595,-890.074,0,0
226330,366.366,-889.839,0,0
226590,361.021,-889.398,0,0
226851,355.749,-888.718,0,0
227111,350.32,-887.977,0,0
227371,344.771,-887.021,0,0
227632,339.255,-885.864,0,0
227892,333.669,-884.45,0,0
228152,327.928,-882.832,0,0
228413,322.274,-880.744,0,0
228673,316.7,-878.29,0,0
228933,311.375,-875.598,0,0
229193,306.343,-872.64,0,0
229454,301.572,-869.59,0,0
229714,297.074,-866.332,0,0
229974,292.703,-863.06,0,0
230235,288.447,-859.828,0,0
230495,284.414,-856.435,0,0
230755,280.625,-852.958,0,0
231016,276.995,-849.455,0,0
231276,273.562,-845.885,0,0
231536,270.321,-842.362,0,0
231797,267.192,-838.828,0,0
232057,264.239,-835.332,0,0
232317,261.404,-831.796,0,0
232578,258.718,-828.415,0,0
232838,256.123,-824.834,0,0
233098,253.738,-821.306,0,0
233359,251.506,-817.899,0,0
233619,249.347,-814.545,0,0
233879,247.278,-811.213,0,0
234140,245.22,-807.893,0,0
234400,243.375,-804.646,0,0
234660.3,241.589,-801.319,0,0
234920.625,239.925,-798.146,0,0
235180.95,238.391,-795.036,0,0
235441.275,236.935,-792.067,0,0
235701.6,235.39,-789.148,0,0
235961.925,233.822,-786.276,0,0
236222.25,232.279,-783.351,0,0
236482.575,230.749,-780.325,0,0
236742.9,229.308,-777.267,0,0
237003.225,227.967,-774.228,0,0
237263.55,226.751,-771.068,0,0
237523.875,225.646,-767.935,0,0
237784.2,224.77,-764.734,0,0
238044.525,224.055,-761.594,0,0
238304.85,223.586,-758.629,0,0
238565.175,223.162,-755.843,0,0
238825.5,222.853,-753.181,0,0
239085.825,222.492,-750.653,0,0
239346.15,222.289,-748.227,0,0
239606.475,222.089,-745.981,0,0
239866.8,221.843,-743.783,0,0
240127.125,221.58,-741.714,0,0
240387.45,221.345,-739.711,0,0
240647.775,221.085,-737.808,0,0
240908.1,220.88,-735.965,0,0
241168.425,220.633,-734.263,0,0
241428.75,220.312,-732.61,0,0
241689.075,220.021,-731.006,0,0
241949.4,219.637,-729.555,0,0
242209.725,219.247,-728.145,0,0
242470.05,218.783,-726.814,0,0
242730.375,218.223,-725.526,0,0
242990.7,217.599,-724.294,0,0
243251.025,216.876,-723.031,0,0
243511.35,216.13,-721.816,0,0
243771.675,215.242,-720.593,0,0
244032.0,214.257,-719.405,0,0
244292.325,213.109,-718.16,0,0
244552.65,211.879,-716.847,0,0
244812.975,210.611,-715.371,0,0
245073.3,209.304,-713.742,0,0
245333.625,208.001,-712.042,0,0
245593.95,206.747,-710.254,0,0
245854.275,205.589,-708.327,0,0
246114.6,204.493,-706.318,0,0
246374.925,203.408,-704.36,0,0
246635.25,202.401,-702.307,0,0
246895.575,201.411,-700.174,0,0
247155.9,200.535,-697.952,0,0
247416.225,199.895,-695.668,0,0
247676.55,199.368,-693.497,0,0
247936.875,198.884,-691.441,0,0
248197.2,198.491,-689.471,0,0
248457.525,197.992,-687.549,0,0
248717.85,197.463,-685.685,0,0
248978.175,196.946,-683.756,0,0
249238.5,196.555,-681.764,0,0
249498.825,196.135,-679.84,0,0
249759.15,195.83,-677.866,0,0
250019.475,195.538,-676.173,0,0
250279.8,195.257,-674.468,0,0
250540,194.979,-672.741,0,0
250800,194.6,-671.149,0,0
251061,194.175,-669.578,0,0
251321,193.701,-668.176,0,0
251581,193.124,-666.697,0,0
251842,192.383,-665.192,0,0
252102,191.519,-663.656,0,0
252362,190.554,-661.991,0,0
252623,189.519,-660.231,0,0
252883,188.386,-658.247,0,0
253143,187.285,-656.027,0,0
253404,186.242,-653.648,0,0
253664,185.385,-651.106,0,0
253924,184.656,-648.508,0,0
254185,183.986,-645.941,0,0
254445,183.381,-643.36,0,0
254705,182.746,-640.659,0,0
254966,182.095,-637.787,0,0
255226,181.552,-634.832,0,0
255486,181.057,-631.72,0,0
255747,180.709,-628.398,0,0
256007,180.623,-624.878,0,0
256267,180.763,-621.276,0,0
256528,181.134,-617.632,0,0
256788,181.713,-613.999,0,0
257048,182.509,-610.341,0,0
257309,183.473,-606.641,0,0
257569,184.728,-602.919,0,0
257829,186.253,-599.284,0,0
258090,187.98,-595.746,0,0
258350,189.901,-592.3,0,0
258610,191.974,-588.808,0,0
258871,194.382,-585.334,0,0
259131,197.167,-581.946,0,0
259391,200.321,-578.956,0,0
259651,203.576,-576.279,0,0
259912,206.846,-573.915,0,0
260172,210.149,-571.713,0,0
260432,213.515,-569.578,0,0
260693,216.979,-567.498,0,0
260953,220.726,-565.561,0,0
261213,224.753,-563.91,0,0
261474,228.936,-562.623,0,0
261734,233.134,-561.734,0,0
261994,237.248,-561.149,0,0
262255,241.261,-560.736,0,0
262515,245.293,-560.407,0,0
262775,249.489,-560.205,0,0
263036,253.918,-560.305,0,0
263296,258.422,-560.781,0,0
263556,262.964,-561.747,0,0
263817,267.343,-563.182,0,0
264077,271.554,-564.95,0,0
264337,275.52,-567.015,0,0
264598,279.377,-569.301,0,0
264858,283.004,-571.954,0,0
265118,286.271,-574.932,0,0
265379,289.192,-578.027,0,0
265639,291.898,-581.075,0,0
265899,294.457,-584.192,0,0
266160,296.908,-587.488,0,0
266420,299.206,-591.028,0,0
266680.25,301.244,-594.691,0,0
266940.575,303.037,-598.419,0,0
267200.9,304.758,-602.259,0,0
267461.225,306.358,-606.363,0,0
267721.55,307.645,-610.851,0,0
267981.875,308.496,-615.541,0,0
268242.2,308.896,-620.317,0,0
268502.525,308.926,-625.29,0,0
268762.85,308.31,-630.373,0,0
269023.175,307.088,-635.389,0,0
269283.5,305.146,-640.214,0,0
269543.825,302.576,-644.563,0,0
269804.15,299.516,-648.237,0,0
270064.475,296.412,-651.038,0,0
270324.8,293.639,-653.313,0,0
270585.125,291.004,-655.352,0,0
270845.45,288.581,-657.17,0,0
271105.775,286.377,-658.895,0,0
271366.1,284.287,-660.598,0,0
271626.425,282.258,-662.298,0,0
271886.75,280.215,-663.987,0,0
272147.075,278.316,-665.636,0,0
272407.4,276.447,-667.466,0,0
272667.725,274.491,-669.381,0,0
272928.05,272.364,-671.367,0,0
273188.375,270.063,-673.294,0,0
273448.7,267.654,-675.184,0,0
273709.025,265.137,-677.094,0,0
273969.35,262.43,-678.951,0,0
274229.675,259.501,-680.794,0,0
274490.0,256.44,-682.544,0,0
274750.325,253.13,-684.297,0,0
275010.65,249.433,-685.837,0,0
275270.975,245.499,-686.998,0,0
275531.3,241.362,-687.893,0,0
275791.625,237.202,-688.33,0,0
276051.95,233.125,-688.478,0,0
276312.275,229.005,-688.414,0,0
276572.6,224.866,-688.179,0,0
276832.925,220.618,-687.659,0,0
277093.25,216.278,-686.735,0,0
277353.575,211.985,-685.36,0,0
277613.9,207.834,-683.509,0,0
277874.225,203.965,-681.249,0,0
278134.55,200.357,-678.646,0,0
278394.875,197.141,-675.676,0,0
278655.2,194.374,-672.473,0,0
278915.525,192.127,-669.058,0,0
279175.85,190.423,-665.672,0,0
279436.175,189.274,-662.314,0,0
279696.5,188.573,-659.217,0,0
279956.825,188.22,-656.388,0,0
280217.15,188.17,-654.035,0,0
280477.475,188.236,-652.09,0,0
280737.8,188.177,-650.463,0,0
280998.125,187.971,-649.062,0,0
281258.45,187.668,-647.804,0,0
281518.775,187.201,-646.606,0,0
281779.1,186.572,-645.36,0,0
282039.425,185.938,-643.968,0,0
282299.75,185.386,-642.394,0,0
282560,185.072,-640.747,0,0
282820,185.017,-639.156,0,0
283081,185.244,-637.781,0,0
283341,185.564,-636.663,0,0
283601,185.921,-635.919,0,0
283862,186.122,-635.522,0,0
284122,186.131,-635.291,0,0
284382,185.832,-635.175,0,0
284643,185.351,-634.962,0,0
284903,184.754,-634.78,0,0
285163,184.077,-634.637,0,0
285424,183.175,-634.466,0,0
285684,182.139,-634.248,0,0
285944,180.874,-633.938,0,0
286205,179.414,-633.509,0,0
286465,177.822,-632.754,0,0
286725,176.222,-631.686,0,0
286986,174.765,-630.383,0,0
287246,173.446,-629.022,0,0
287506,172.13,-627.554,0,0
287767,170.813,-625.967,0,0
288027,169.518,-624.163,0,0
288287,168.287,-622.115,0,0
288548,167.208,-619.753,0,0
288808,166.441,-617.102,0,0
289068,165.988,-614.28,0,0
289329,166.025,-611.314,0,0
289589,166.516,-608.361,0,0
289849,167.45,-605.579,0,0
290109,168.78,-602.995,0,0
290370,170.413,-600.732,0,0
290630,172.285,-598.729,0,0
290890,174.359,-597.052,0,0
291151,176.594,-595.688,0,0
291411,178.933,-594.643,0,0
291671,181.394,-593.978,0,0
291932,183.915,-593.666,0,0
292192,186.434,-593.753,0,0
292452,188.891,-594.212,0,0
292713,191.269,-595.056,0,0
292973,193.477,-596.346,0,0
293233,195.406,-597.944,0,0
293494,197,-599.852,0,0
293754,198.254,-601.918,0,0
294014,199.19,-604.113,0,0
294275,199.89,-606.416,0,0
294535,200.278,-608.861,0,0
294795,200.296,-611.374,0,0
295056,199.995,-613.978,0,0
295316,199.255,-616.49,0,0
295576,198.201,-618.934,0,0
295837,196.772,-621.211,0,0
296097,195.018,-623.294,0,0
296357,193.024,-625.129,0,0
296618,190.819,-626.616,0,0
296878,188.537,-627.799,0,0
297138,186.194,-628.663,0,0
297399,183.918,-629.267,0,0
297659,181.699,-629.671,0,0
297919,179.516,-629.929,0,0
298180,177.427,-630.004,0,0
298440,175.389,-629.951,0,0
298700.2,173.481,-629.796,0,0
298960.525,171.671,-629.599,0,0
299220.85,169.914,-629.386,0,0
299481.175,168.213,-629.153,0,0
299741.5,166.513,-628.882,0,0
300001.825,164.812,-628.603,0,0
300262.15,163.145,-628.255,0,0
300522.475,161.462,-627.898,0,0
300782.8,159.749,-627.498,0,0
301043.125,158.079,-627.013,0,0
301303.45,156.371,-626.445,0,0
301563.775,154.703,-625.797,0,0
301824.1,153.09,-625.095,0,0
302084.425,151.547,-624.295,0,0
302344.75,150.097,-623.5,0,0
302605.075,148.682,-622.715,0,0
302865.4,147.282,-621.925,0,0
303125.725,145.856,-621.127,0,0
303386.05,144.415,-620.306,0,0
303646.375,142.979,-619.394,0,0
303906.7,141.576,-618.406,0,0
304167.025,140.215,-617.374,0,0
304427.35,138.939,-616.313,0,0
304687.675,137.696,-615.177,0,0
304948.0,136.482,-614.023,0,0
305208.325,135.364,-612.758,0,0
305468.65,134.341,-611.572,0,0
305728.975,133.375,-610.36,0,0
305989.3,132.423,-609.149,0,0
306249.625,131.541,-607.948,0,0
306509.95,130.706,-606.687,0,0
306770.275,129.951,-605.435,0,0
307030.6,129.299,-604.164,0,0
307290.925,128.711,-602.937,0,0
307551.25,128.206,-601.768,0,0
307811.575,127.733,-600.669,0,0
308071.9,127.3,-599.605,0,0
308332.225,126.916,-598.609,0,0
308592.55,126.56,-597.659,0,0
308852.875,126.258,-596.803,0,0
309113.2,125.899,-596.068,0,0
309373.525,125.521,-595.392,0,0
309633.85,125.062,-594.75,0,0
309894.175,124.537,-594.138,0,0
310154.5,123.957,-593.557,0,0
310414.825,123.304,-592.889,0,0
310675.15,122.596,-592.25,0,0
310935.475,121.838,-591.539,0,0
311195.8,121.084,-590.749,0,0
311456.125,120.353,-589.93,0,0
311716.45,119.634,-589.036,0,0
311976.775,118.939,-588.1,0,0
312237.1,118.336,-587.186,0,0
312497.425,117.74,-586.251,0,0
312757.75,117.156,-585.319,0,0
313018.075,116.584,-584.374,0,0
313278.4,116.06,-583.395,0,0
313538.725,115.592,-582.368,0,0
313799.05,115.183,-581.395,0,0
314059.375,114.82,-580.418,0,0
314319.7,114.526,-579.463,0,0
314580,114.308,-578.584,0,0
314840,114.001,-577.81,0,0
315101,113.715,-576.97,0,0
315361,113.487,-576.159,0,0
315621,113.33,-575.44,0,0
315882,113.071,-574.674,0,0
316142,112.871,-574.001,0,0
316402,112.733,-573.361,0,0
316663,112.412,-572.787,0,0
316923,112.38,-572.211,0,0
317183,112.116,-571.616,0,0
317444,111.996,-571.166,0,0
317704,111.6,-570.797,0,0
317964,111.45,-570.258,0,0
318225,111.147,-569.94,0,0
318485,110.865,-569.616,0,0
318745,110.51,-569.316,0,0
319006,110.26,-569.037,0,0
319266,109.908,-568.867,0,0
319526,109.411,-568.697,0,0
319787,108.985,-568.588,0,0
320047,108.294,-568.533,0,0
320307,107.707,-568.437,0,0
320567,106.885,-568.416,0,0
320828,106.074,-568.251,0,0
321088,105.116,-568.184,0,0
321348,104.02,-568.004,0,0
321609,102.915,-567.844,0,0
321869,101.748,-567.561,0,0
322129,100.406,-567.249,0,0
322390,98.9446,-566.842,0,0
322650,97.477,-566.125,0,0
322910,95.9918,-565.366,0,0
323171,94.5177,-564.43,0,0
323431,93.14,-563.241,0,0
323691,91.8475,-562.063,0,0
323952,90.6467,-560.7,0,0
324212,89.5574,-559.354,0,0
324472,88.6201,-557.916,0,0
324733,87.7908,-556.523,0,0
324993,86.9995,-555.131,0,0
325253,86.3127,-553.81,0,0
325514,85.7115,-552.455,0,0
325774,85.0767,-551.179,0,0
326034,84.5159,-549.884,0,0
326295,83.8553,-548.654,0,0
326555,83.3248,-547.365,0,0
326815,82.6673,-546.116,0,0
327076,82.0197,-544.812,0,0
327336,81.5016,-543.541,0,0
327596,80.9696,-542.095,0,0
327857,80.4366,-540.703,0,0
328117,79.9768,-539.247,0,0
328377,79.6569,-537.858,0,0
328638,79.2873,-536.335,0,0
328898,79.0137,-534.927,0,0
329158,78.8145,-533.483,0,0
329419,78.5845,-532.026,0,0
329679,78.5086,-530.595,0,0
329939,78.511,-529.175,0,0
330200,78.5783,-527.81,0,0
330460,78.6188,-526.407,0,0
330720.15,78.7779,-525.116,0,0
330980.475,79.0352,-523.896,0,0
331240.8,79.3068,-522.761,0,0
331501.125,79.6224,-521.702,0,0
331761.45,79.886,-520.719,0,0
332021.775,80.1645,-519.786,0,0
332282.1,80.4628,-518.93,0,0
332542.425,80.7317,-518.233,0,0
332802.75,80.9504,-517.504,0,0
333063.075,81.1187,-516.858,0,0
333323.4,81.1949,-516.26,0,0
333583.725,81.294,-515.712,0,0
333844.05,81.3106,-515.16,0,0
334104.375,81.1228,-514.705,0,0
334364.7,80.9903,-514.162,0,0
334625.025,80.7046,-513.535,0,0
334885.35,80.5318,-512.981,0,0
335145.675,80.1284,-512.309,0,0
335406.0,79.8357,-511.71,0,0
335666.325,79.4114,-511.062,0,0
335926.65,79.0267,-510.203,0,0
336186.975,78.5789,-509.44,0,0
336447.3,78.1205,-508.55,0,0
336707.625,77.6292,-507.494,0,0
336967.95,77.1989,-506.545,0,0
337228.275,76.831,-505.373,0,0
337488.6,76.5171,-504.192,0,0
337748.925,76.3075,-503.049,0,0
338009.25,76.0294,-501.858,0,0
338269.575,75.8602,-500.693,0,0
338529.9,75.7542,-499.448,0,0
338790.225,75.6634,-498.243,0,0
339050.55,75.5665,-496.978,0,0
339310.875,75.5627,-495.707,0,0
339571.2,75.5798,-494.382,0,0
339831.525,75.7005,-493.081,0,0
340091.85,75.9174,-491.779,0,0
340352.175,76.1714,-490.44,0,0
340612.5,76.4338,-489.223,0,0
340872.825,76.8517,-487.914,0,0
341133.15,77.3124,-486.582,0,0
341393.475,77.8592,-485.407,0,0
341653.8,78.4828,-484.236,0,0
341914.125,79.2038,-483.097,0,0
342174.45,80.0175,-482.118,0,0
342434.775,80.851,-481.199,0,0
342695.1,81.7373,-480.371,0,0
342955.425,82.6614,-479.717,0,0
343215.75,83.5578,-479.169,0,0
343476.075,84.4042,-478.757,0,0
343736.4,85.2648,-478.375,0,0
343996.725,86.007,-478.116,0,0
344257.05,86.7573,-477.933,0,0
344517.375,87.4151,-477.846,0,0
344777.7,88.0071,-477.853,0,0
345038.025,88.506,-477.834,0,0
345298.35,88.9569,-477.906,0,0
345558.675,89.2401,-477.947,0,0
345819.0,89.5327,-478.036,0,0
346079.325,89.7538,-478.136,0,0
346339.65,89.9023,-478.217,0,0
346599.975,89.9808,-478.283,0,0
346860,89.9886,-478.456,0,0
347121,89.8955,-478.48,0,0
347381,89.804,-478.52,0,0
347641,89.683,-478.483,0,0
347902,89.4353,-478.464,0,0
348162,89.17,-478.426,0,0
348422,88.8513,-478.376,0,0
348683,88.4645,-478.258,0,0
348943,88.1555,-478.062,0,0
349203,87.7079,-477.766,0,0
349464,87.3353,-477.571,0,0
349724,86.9645,-477.187,0,0
349984,86.5856,-476.832,0,0
350245,86.1773,-476.476,0,0
350505,85.7444,-476.044,0,0
350765,85.4322,-475.592,0,0
351025,85.0877,-475.172,0,0
351286,84.645,-474.722,0,0
351546,84.2033,-474.207,0,0
351806,83.814,-473.582,0,0
352067,83.3538,-472.894,0,0
352327,83.0185,-472.316,0,0
352587,82.7142,-471.584,0,0
352848,82.4318,-470.816,0,0
353108,82.1686,-470.049,0,0
353368,82.0005,-469.238,0,0
353629,81.8758,-468.494,0,0
353889,81.8127,-467.711,0,0
354149,81.8645,-466.967,0,0
354410,81.8593,-466.297,0,0
354670,81.9003,-465.713,0,0
354930,81.908,-465.147,0,0
355191,81.9298,-464.598,0,0
355451,81.9186,-464.097,0,0
355711,81.8175,-463.571,0,0
355972,81.7277,-463.053,0,0
356232,81.69,-462.542,0,0
356492,81.6341,-462.05,0,0
356753,81.5437,-461.588,0,0
357013,81.4186,-461.043,0,0
357273,81.2773,-460.584,0,0
357534,81.1666,-460.097,0,0
357794,81.0205,-459.57,0,0
358054,80.7666,-459.052,0,0
358315,80.5713,-458.514,0,0
358575,80.3363,-457.932,0,0
358835,80.1084,-457.324,0,0
359096,79.8696,-456.701,0,0
359356,79.6604,-456,0,0
359616,79.4559,-455.326,0,0
359877,79.233,-454.626,0,0
360137,79.0723,-453.927,0,0
360397,78.8591,-453.134,0,0
360658,78.7205,-452.325,0,0
360918,78.6415,-451.45,0,0
361178,78.532,-450.58,0,0
361438,78.4602,-449.746,0,0
361699,78.5864,-448.879,0,0
361959,78.6626,-448.052,0,0
362219,78.7655,-447.296,0,0
362480,78.9402,-446.535,0,0
362740.1,79.0268,-445.809,0,0
363000.425,79.2354,-445.1,0,0
363260.75,79.3553,-444.515,0,0
363521.075,79.4895,-443.863,0,0
363781.4,79.583,-443.18,0,0
364041.725,79.6804,-442.566,0,0
364302.05,79.7166,-441.968,0,0
364562.375,79.7987,-441.343,0,0
364822.7,79.8168,-440.714,0,0
365083.025,79.7722,-440.038,0,0
365343.35,79.7086,-439.34,0,0
365603.675,79.6886,-438.647,0,0
365864.0,79.6601,-437.788,0,0
366124.325,79.641,-436.885,0,0
366384.65,79.6787,-435.994,0,0
366644.975,79.7802,-435.016,0,0
366905.3,79.9639,-434.031,0,0
367165.625,80.2182,-433.01,0,0
367425.95,80.5762,-432.077,0,0
367686.275,80.8982,-431.065,0,0
367946.6,81.3183,-430.081,0,0
368206.925,81.7811,-429.14,0,0
368467.25,82.3457,-428.156,0,0
368727.575,82.9515,-427.225,0,0
368987.9,83.6441,-426.333,0,0
369248.225,84.3644,-425.547,0,0
369508.55,85.1977,-424.771,0,0
369768.875,86.0103,-424.062,0,0
370029.2,86.8038,-423.378,0,0
370289.525,87.6689,-422.769,0,0
370549.85,88.6292,-422.181,0,0
370810.175,89.5452,-421.565,0,0
371070.5,90.617,-421.062,0,0
371330.825,91.7296,-420.752,0,0
371591.15,92.851,-420.503,0,0
371851.475,94.0448,-420.388,0,0
372111.8,95.1839,-420.397,0,0
372372.125,96.3076,-420.53,0,0
372632.45,97.3722,-420.809,0,0
372892.775,98.3419,-421.126,0,0
373153.1,99.2548,-421.635,0,0
373413.425,100.106,-422.139,0,0
373673.75,100.823,-422.78,0,0
373934.075,101.417,-423.52,0,0
374194.4,101.894,-424.268,0,0
374454.725,102.125,-425.011,0,0
374715.05,102.335,-425.767,0,0
374975.375,102.361,-426.464,0,0
375235.7,102.281,-427.04,0,0
375496.025,102.134,-427.529,0,0
375756.35,101.99,-427.952,0,0
376016.675,101.836,-428.268,0,0
376277.0,101.67,-428.57,0,0
376537.325,101.523,-428.869,0,0
376797.65,101.381,-429.101,0,0
377057.975,101.253,-429.33,0,0
377318.3,101.05,-429.559,0,0
377578.625,100.905,-429.741,0,0
377838.95,100.766,-429.985,0,0
378099.275,100.547,-430.132,0,0
378359.6,100.366,-430.342,0,0
378619.925,100.169,-430.487,0,0
378880,99.9525,-430.699,0,0
379141,99.659,-430.846,0,0
379401,99.4183,-430.993,0,0
379661,99.0781,-431.078,0,0
379922,98.7552,-431.114,0,0
380182,98.4398,-431.208,0,0
380442,98.1633,-431.201,0,0
380703,97.8045,-431.225,0,0
380963,97.4512,-431.161,0,0
381223,97.1029,-431.025,0,0
381483,96.7596,-430.813,0,0
381744,96.5618,-430.537,0,0
382004,96.4936,-430.278,0,0
382264,96.4593,-429.983,0,0
382525,96.651,-429.792,0,0
382785,96.907,-429.791,0,0
383045,97.154,-429.94,0,0
383306,97.414,-430.206,0,0
383566,97.5275,-430.661,0,0
383826,97.5708,-431.278,0,0
384087,97.3735,-431.881,0,0
384347,97.0774,-432.664,0,0
384607,96.6186,-433.263,0,0
384868,96.0369,-433.963,0,0
385128,95.3025,-434.498,0,0
385388,94.4888,-435.019,0,0
385649,93.4789,-435.495,0,0
385909,92.352,-435.798,0,0
386169,91.2296,-435.931,0,0
386430,90.0482,-436.036,0,0
386690,88.8135,-435.945,0,0
386950,87.5992,-435.645,0,0
387211,86.3686,-435.244,0,0
387471,85.2424,-434.723,0,0
387731,84.1669,-434.098,0,0
387992,83.1999,-433.261,0,0
388252,82.3003,-432.458,0,0
388512,81.5611,-431.544,0,0
388773,80.9515,-430.562,0,0
389033,80.4529,-429.559,0,0
389293,80.1152,-428.618,0,0
389554,79.9276,-427.637,0,0
389814,79.8487,-426.75,0,0
390074,79.8683,-425.967,0,0
390335,80.0642,-425.237,0,0
390595,80.2958,-424.804,0,0
390855,80.5189,-424.439,0,0
391116,80.6777,-424.217,0,0
391376,80.8321,-424.183,0,0
391636,80.9144,-424.265,0,0
391896,80.829,-424.465,0,0
392157,80.5868,-424.713,0,0
392417,80.1971,-424.996,0,0
392677,79.6068,-425.269,0,0
392938,78.8926,-425.482,0,0
393198,78.0853,-425.499,0,0
393458,77.1369,-425.521,0,0
393719,76.2132,-425.348,0,0
393979,75.2421,-425.112,0,0
394239,74.2517,-424.767,0,0
394500,73.2487,-424.294,0,0
394760.05,72.1992,-423.719,0,0
395020.375,71.2842,-423.091,0,0
395280.7,70.4117,-422.353,0,0
395541.025,69.5601,-421.564,0,0
395801.35,68.7567,-420.695,0,0
396061.675,68.0739,-419.822,0,0
396322.0,67.3665,-418.974,0,0
396582.325,66.7819,-418.044,0,0
396842.65,66.2409,-417.121,0,0
397102.975,65.689,-416.249,0,0
397363.3,65.1857,-415.354,0,0
397623.625,64.7335,-414.448,0,0
397883.95,64.2344,-413.537,0,0
398144.275,63.8035,-412.592,0,0
398404.6,63.416,-411.652,0,0
398664.925,62.9709,-410.653,0,0
398925.25,62.584,-409.694,0,0
399185.575,62.2617,-408.692,0,0
399445.9,61.9451,-407.66,0,0
399706.225,61.6566,-406.668,0,0
399966.55,61.4013,-405.602,0,0
400006.6,61.3655,-405.434,0,0