File: Accelerated corrosion test data/2025-10-15_12-55-04/sample_8.csv
Frequency (Hz),Impedance (ohms),Phase (Radians),Temperature (C),Humidity (%)
10000.0,312.532,-10937.7,0,0
10260.325,304.257,-10663.6,0,0
10520.65,297.188,-10402.9,0,0
10780.975,289.707,-10154.8,0,0
11041.3,283.082,-9918.17,0,0
11301.625,276.516,-9693.47,0,0
11561.95,270.926,-9477.17,0,0
11822.275,264.597,-9270.61,0,0
12082.6,263.492,-9071.95,0,0
12342.925,258.872,-8885.87,0,0
12603.25,254.193,-8705.34,0,0
12863.575,250.466,-8535.23,0,0
13123.9,242.35,-8370.72,0,0
13384.225,236.106,-8209.09,0,0
13644.55,233.463,-8055.05,0,0
13904.875,225.842,-7906,0,0
14165.2,221.278,-7761.64,0,0
14425.525,216.311,-7624.18,0,0
14685.8,212.763,-7488.93,0,0
14946.175,208.673,-7359.77,0,0
15206.5,205.479,-7235.05,0,0
15466.825,202.254,-7114.77,0,0
15727.15,198.821,-6998.11,0,0
15987.5,195.639,-6885.63,0,0
16247.8,192.611,-6776.45,0,0
16508.125,189.505,-6670.24,0,0
16768.45,186.368,-6567.53,0,0
17028.775,183.418,-6467.69,0,0
17289.1,180.441,-6371.01,0,0
17549.425,178.276,-6276.74,0,0
17809.75,175.911,-6184.7,0,0
18070.075,173.317,-6097.93,0,0
18330.4,170.809,-6011.04,0,0
18590.725,168.946,-5925.67,0,0
18851.05,169.771,-5843.07,0,0
19111.375,168.176,-5763.85,0,0
19371.7,169.399,-5688.07,0,0
19632.025,167.221,-5615.97,0,0
19892.35,163.28,-5545.24,0,0
20152.675,161.012,-5472.74,0,0
20413.0,160.908,-5403.41,0,0
20673.3,161.604,-5336.76,0,0
20933.65,157.554,-5274.07,0,0
21193.975,153.981,-5210.41,0,0
21454.3,151.858,-5146.52,0,0
21714.625,150.343,-5084.37,0,0
21974.9,149.411,-5024.71,0,0
22235.275,149.424,-4966.85,0,0
22495.6,148.392,-4910.27,0,0
22755.925,146.408,-4856.75,0,0
23016.25,144.561,-4802.49,0,0
23276.6,139.853,-4750.36,0,0
23536.9,138.175,-4697.16,0,0
23797.225,136.616,-4645.74,0,0
24057.55,134.093,-4595.28,0,0
24317.875,133.065,-4546.49,0,0
24578.2,130.601,-4498.27,0,0
24838.525,129.148,-4450.5,0,0
25098.85,128.182,-4404.38,0,0
25359.175,126.716,-4358.79,0,0
25619.5,126.097,-4314.31,0,0
25879.8,124.542,-4270.13,0,0
26140.1,123.911,-4228.35,0,0
26400.5,122.048,-4186.49,0,0
26660.8,120.696,-4145.29,0,0
26921.1,120.575,-4103.8,0,0
27181.4,120.938,-4065.42,0,0
27441.8,119.898,-4026.3,0,0
27702.1,118.918,-3989.11,0,0
27962.4,116.927,-3951.53,0,0
28222.7,117.459,-3914.85,0,0
28483.1,116.136,-3878.83,0,0
28743.4,116.048,-3843.4,0,0
29003.7,115.04,-3809.87,0,0
29264,115.001,-3776.02,0,0
29524.4,113.868,-3742.6,0,0
29784.7,113.404,-3709.67,0,0
30045,113.033,-3677.95,0,0
30305.3,112.62,-3647.16,0,0
30565.7,111.078,-3616.32,0,0
30826,109.727,-3585.29,0,0
31086.3,108.35,-3555.07,0,0
31346.6,107.562,-3524.72,0,0
31607,107.226,-3495.33,0,0
31867.3,106.227,-3466.56,0,0
32127.6,105.658,-3437.9,0,0
32387.9,105.28,-3409.47,0,0
32648.3,105.133,-3381.77,0,0
32908.6,105.36,-3354.41,0,0
33168.9,105.048,-3327.66,0,0
33429.2,105.2,-3301.46,0,0
33689.6,105.727,-3275.77,0,0
33949.9,105.549,-3250.76,0,0
34210.2,105.655,-3225.71,0,0
34470.5,105.791,-3201.53,0,0
34730.9,106.206,-3176.93,0,0
34991.2,107.059,-3153.55,0,0
35251.5,107.661,-3130.86,0,0
35511.8,108.385,-3108.35,0,0
35772.2,108.604,-3087.01,0,0
36032.5,108.849,-3066.32,0,0
36292.8,108.921,-3045.4,0,0
36553.1,108.404,-3025.31,0,0
36813.5,107.44,-3005.35,0,0
37073.8,107.233,-2985.59,0,0
37334.1,106.203,-2966.74,0,0
37594.4,104.405,-2947.47,0,0
37854.8,102.438,-2928.32,0,0
38115.1,100.451,-2909.33,0,0
38375.4,98.2879,-2889.95,0,0
38635.7,96.4788,-2870.67,0,0
38896.1,94.3987,-2851.42,0,0
39156.4,92.5585,-2831.87,0,0
39416.7,91.2218,-2812.33,0,0
39677,89.7805,-2793.23,0,0
39937.4,88.5104,-2774.53,0,0
40197.7,87.638,-2755.19,0,0
40458,87.8125,-2736.69,0,0
40718.3,87.4297,-2719.26,0,0
40978.7,86.3969,-2701.66,0,0
41239,85.7015,-2684.06,0,0
41499.3,85.1055,-2666.79,0,0
41759.6,84.4413,-2649.9,0,0
42020,83.8056,-2632.81,0,0
42280.275,82.9317,-2616.23,0,0
42540.6,82.5501,-2599.45,0,0
42800.925,82.3338,-2582.77,0,0
43061.25,82.6188,-2566.82,0,0
43321.575,82.5329,-2551.54,0,0
43581.9,82.5073,-2536.45,0,0
43842.225,81.7415,-2521.97,0,0
44102.55,80.5201,-2506.95,0,0
44362.875,79.9205,-2491.79,0,0
44623.2,79.028,-2477.05,0,0
44883.525,78.4563,-2462.13,0,0
45143.85,77.7933,-2447.64,0,0
45404.175,77.0372,-2433.13,0,0
45664.5,76.6053,-2418.76,0,0
45924.825,76.0704,-2405,0,0
46185.15,75.6169,-2390.83,0,0
46445.475,75.0228,-2376.68,0,0
46705.8,74.5584,-2362.99,0,0
46966.125,74.1927,-2349.26,0,0
47226.45,73.7508,-2335.93,0,0
47486.775,73.5338,-2322.64,0,0
47747.1,73.3606,-2309.67,0,0
48007.425,72.8128,-2296.84,0,0
48267.75,72.534,-2283.94,0,0
48528.075,72.2251,-2271.46,0,0
48788.4,71.5903,-2259,0,0
49048.725,71.0163,-2246.46,0,0
49309.05,70.595,-2234.08,0,0
49569.375,70.198,-2221.82,0,0
49829.7,69.7821,-2209.6,0,0
50090.025,69.6205,-2197.64,0,0
50350.35,69.1488,-2185.69,0,0
50610.675,68.8395,-2174,0,0
50871.0,68.6883,-2162.23,0,0
51131.325,68.3615,-2150.57,0,0
51391.65,68.3237,-2139.16,0,0
51651.975,68.2259,-2127.72,0,0
51912.3,68.154,-2116.77,0,0
52172.625,67.9645,-2105.66,0,0
52432.95,67.6996,-2094.82,0,0
52693.275,67.7941,-2083.91,0,0
52953.6,67.7507,-2073.36,0,0
53213.925,67.6239,-2062.77,0,0
53474.25,67.7758,-2052.58,0,0
53734.575,68.03,-2042.92,0,0
53994.9,67.3638,-2033.27,0,0
54255.225,66.6517,-2023.46,0,0
54515.55,66.1352,-2013.48,0,0
54775.875,65.6682,-2003.44,0,0
55036.2,65.0254,-1993.89,0,0
55296.525,64.1915,-1984.01,0,0
55556.85,63.6534,-1974.1,0,0
55817.175,63.1971,-1964.38,0,0
56077.5,62.4755,-1954.57,0,0
56337.825,62.1269,-1944.73,0,0
56598.15,61.678,-1935.03,0,0
56858.475,61.4989,-1925.36,0,0
57118.8,61.2366,-1915.92,0,0
57379.125,61.1395,-1906.54,0,0
57639.45,60.9352,-1897.26,0,0
57899.775,60.657,-1888.09,0,0
58160.1,60.5126,-1878.96,0,0
58420.4,60.3418,-1870.02,0,0
58680.7,60.3033,-1861.1,0,0
58941.1,60.2917,-1852.31,0,0
59201.4,60.1623,-1843.76,0,0
59461.7,59.8398,-1835.24,0,0
59722,59.5592,-1826.81,0,0
59982.4,59.3016,-1818.22,0,0
60242.7,58.9861,-1809.79,0,0
60503,58.6053,-1801.19,0,0
60763.3,58.5167,-1792.68,0,0
61023.7,58.3723,-1784.32,0,0
61284,58.331,-1775.94,0,0
61544.3,58.3223,-1767.75,0,0
61804.6,58.3988,-1759.92,0,0
62065,58.0978,-1751.94,0,0
62325.3,57.8901,-1743.87,0,0
62585.6,57.9312,-1735.81,0,0
62845.9,57.9888,-1727.79,0,0
63106.3,58.0549,-1719.98,0,0
63366.6,58.2287,-1712.39,0,0
63626.9,58.3898,-1704.91,0,0
63887.2,58.5392,-1697.34,0,0
64147.6,58.7944,-1689.92,0,0
64407.9,59.0299,-1682.82,0,0
64668.2,59.1268,-1675.83,0,0
64928.5,58.9721,-1668.96,0,0
65188.9,58.8337,-1662.04,0,0
65449.2,58.3962,-1655.25,0,0
65709.5,58.2373,-1648.1,0,0
65969.8,58.1572,-1641.33,0,0
66230.2,57.8436,-1634.64,0,0
66490.5,57.443,-1627.98,0,0
66750.8,56.7402,-1620.99,0,0
67011.1,56.3526,-1613.81,0,0
67271.5,56.1771,-1606.88,0,0
67531.8,55.9456,-1599.87,0,0
67792.1,55.8896,-1593.1,0,0
68052.4,55.6556,-1586.39,0,0
68312.8,55.3943,-1579.55,0,0
68573.1,55.2387,-1572.92,0,0
68833.4,55.0796,-1566.19,0,0
69093.7,54.9196,-1559.52,0,0
69354.1,54.996,-1552.86,0,0
69614.4,54.9846,-1546.33,0,0
69874.7,54.9703,-1539.85,0,0
70135,55.0771,-1533.62,0,0
70395.4,55.0046,-1527.29,0,0
70655.7,54.946,-1520.97,0,0
70916,54.8943,-1514.71,0,0
71176.3,54.9232,-1508.44,0,0
71436.7,55.0236,-1502.25,0,0
71697,55.2325,-1496.24,0,0
71957.3,55.2943,-1490.51,0,0
72217.6,55.2363,-1484.68,0,0
72478,55.112,-1478.82,0,0
72738.3,55.0437,-1473.07,0,0
72998.6,54.7658,-1467.36,0,0
73258.9,54.4949,-1461.39,0,0
73519.3,54.437,-1455.51,0,0
73779.6,54.4208,-1449.86,0,0
74039.9,54.2958,-1444.13,0,0
74300.225,54.1017,-1438.54,0,0
74560.55,53.8879,-1432.87,0,0
74820.875,53.6826,-1427.12,0,0
75081.2,53.5338,-1421.35,0,0
75341.525,53.4833,-1415.71,0,0
75601.85,53.4275,-1410.09,0,0
75862.175,53.4132,-1404.56,0,0
76122.5,53.3344,-1398.99,0,0
76382.825,53.2837,-1393.49,0,0
76643.15,53.3091,-1388.13,0,0
76903.475,53.279,-1382.82,0,0
77163.8,53.141,-1377.46,0,0
77424.125,53.0236,-1372.11,0,0
77684.45,52.9655,-1366.87,0,0
77944.775,52.8856,-1361.57,0,0
78205.1,52.7057,-1356.3,0,0
78465.425,52.6093,-1351.09,0,0
78725.75,52.3566,-1345.82,0,0
78986.075,52.3532,-1340.54,0,0
79246.4,52.1851,-1335.32,0,0
79506.725,52.0604,-1330.09,0,0
79767.05,51.949,-1324.82,0,0
80027.375,51.9268,-1319.7,0,0
80287.7,51.9319,-1314.5,0,0
80548.025,51.8566,-1309.34,0,0
80808.35,51.7695,-1304.17,0,0
81068.675,51.831,-1299.03,0,0
81329.0,51.8548,-1293.86,0,0
81589.325,51.9195,-1288.83,0,0
81849.65,52.0675,-1283.71,0,0
82109.975,52.2775,-1278.62,0,0
82370.3,52.4805,-1273.71,0,0
82630.625,52.6155,-1268.79,0,0
82890.95,52.8691,-1263.86,0,0
83151.275,53.0377,-1259.14,0,0
83411.6,53.1455,-1254.32,0,0
83671.925,53.4495,-1249.42,0,0
83932.25,53.7921,-1244.69,0,0
84192.575,54.1136,-1240.13,0,0
84452.9,54.3781,-1235.45,0,0
84713.225,54.9094,-1230.96,0,0
84973.55,55.3331,-1226.72,0,0
85233.875,55.3407,-1222.82,0,0
85494.2,55.0062,-1218.52,0,0
85754.525,54.8331,-1214.15,0,0
86014.85,54.5318,-1209.55,0,0
86275.175,54.4318,-1204.94,0,0
86535.5,54.3667,-1200.2,0,0
86795.825,54.47,-1195.46,0,0
87056.15,54.7185,-1190.82,0,0
87316.475,55.0211,-1186.4,0,0
87576.8,55.051,-1181.98,0,0
87837.125,55.1468,-1177.56,0,0
88097.45,55.2839,-1172.97,0,0
88357.775,55.4568,-1168.58,0,0
88618.1,55.6165,-1164.14,0,0
88878.425,55.7832,-1159.7,0,0
89138.75,55.9261,-1155.25,0,0
89399.075,56.0864,-1150.72,0,0
89659.4,56.3154,-1146.18,0,0
89919.725,56.72,-1141.56,0,0
90180,57.1463,-1137.14,0,0
90440.4,57.629,-1132.74,0,0
90700.7,58.0019,-1128.24,0,0
90961,58.5444,-1123.67,0,0
91221.3,59.4421,-1119.19,0,0
91481.7,60.5435,-1114.98,0,0
91742,61.455,-1111.05,0,0
92002.3,62.2986,-1107.3,0,0
92262.6,63.0386,-1103.49,0,0
92523,63.8419,-1099.78,0,0
92783.3,64.5232,-1096.1,0,0
93043.6,65.4202,-1092.63,0,0
93303.9,66.0929,-1089.5,0,0
93564.3,66.4582,-1086.45,0,0
93824.6,66.2273,-1083.37,0,0
94084.9,65.9315,-1079.64,0,0
94345.2,66.0012,-1075.81,0,0
94605.6,65.9166,-1071.76,0,0
94865.9,66.3794,-1067.71,0,0
95126.2,66.591,-1063.96,0,0
95386.5,66.9167,-1059.91,0,0
95646.9,67.4024,-1056.04,0,0
95907.2,67.777,-1052.08,0,0
96167.5,68.4109,-1048.21,0,0
96427.8,68.9557,-1044.2,0,0
96688.2,69.8712,-1040.3,0,0
96948.5,70.6734,-1036.63,0,0
97208.8,71.595,-1032.95,0,0
97469.1,72.4697,-1029.4,0,0
97729.5,73.3876,-1025.89,0,0
97989.8,74.3767,-1022.46,0,0
98250.1,75.3248,-1019.07,0,0
98510.4,76.4175,-1015.72,0,0
98770.8,77.6784,-1012.53,0,0
99031.1,78.8762,-1009.7,0,0
99291.4,79.8519,-1007.1,0,0
99551.7,80.4558,-1004.51,0,0
99812.1,81.1373,-1001.61,0,0
100072,81.9092,-998.809,0,0
100333,82.7402,-996.085,0,0
100593,83.5121,-993.497,0,0
100853,84.2463,-990.997,0,0
101114,84.906,-988.63,0,0
101374,85.3919,-986.299,0,0
101634,85.9134,-983.958,0,0
101895,86.231,-981.736,0,0
102155,86.4635,-979.482,0,0
102415,86.6055,-977.21,0,0
102676,86.7072,-974.986,0,0
102936,86.6673,-972.778,0,0
103196,86.4185,-970.516,0,0
103457,86.0328,-968.079,0,0
103717,85.6756,-965.348,0,0
103977,85.448,-962.469,0,0
104238,85.4872,-959.728,0,0
104498,85.4676,-957.134,0,0
104758,85.3744,-954.6,0,0
105019,85.0204,-951.949,0,0
105279,84.6941,-949.137,0,0
105539,84.5696,-946.195,0,0
105800,84.4324,-943.308,0,0
106060,84.4027,-940.442,0,0
106320.175,84.3987,-937.591,0,0
106580.5,84.45,-934.743,0,0
106840.825,84.4891,-931.974,0,0
107101.15,84.6053,-929.183,0,0
107361.475,84.6829,-926.548,0,0
107621.8,84.6067,-924.013,0,0
107882.125,84.374,-921.307,0,0
108142.45,84.1696,-918.477,0,0
108402.775,84.0561,-915.618,0,0
108663.1,84.006,-912.706,0,0
108923.425,83.999,-909.782,0,0
109183.75,84.0415,-906.856,0,0
109444.075,84.2439,-903.931,0,0
109704.4,84.5191,-901.1,0,0
109964.725,84.7898,-898.31,0,0
110225.05,85.1357,-895.698,0,0
110485.375,85.2925,-893.159,0,0
110745.7,85.4927,-890.654,0,0
111006.025,85.5903,-888.134,0,0
111266.35,85.6508,-885.485,0,0
111526.675,85.7313,-882.925,0,0
111787.0,85.95,-880.386,0,0
112047.325,86.1209,-878.029,0,0
112307.65,86.1521,-875.569,0,0
112567.975,86.2066,-873.038,0,0
112828.3,86.2442,-870.658,0,0
113088.625,86.3163,-868.243,0,0
113348.95,86.3536,-865.842,0,0
113609.275,86.3482,-863.556,0,0
113869.6,86.2436,-861.238,0,0
114129.925,86.039,-858.868,0,0
114390.25,85.8956,-856.377,0,0
114650.575,85.7539,-853.952,0,0
114910.9,85.656,-851.431,0,0
115171.225,85.6615,-849.019,0,0
115431.55,85.5377,-846.753,0,0
115691.875,85.2631,-844.48,0,0
115952.2,84.8695,-842.075,0,0
116212.525,84.5355,-839.608,0,0
116472.85,84.103,-837.116,0,0
116733.175,83.6943,-834.389,0,0
116993.5,83.3756,-831.615,0,0
117253.825,83.2462,-828.78,0,0
117514.15,83.2653,-826.073,0,0
117774.475,83.2195,-823.516,0,0
118034.8,83.1572,-820.991,0,0
118295.125,83.0419,-818.476,0,0
118555.45,82.8567,-815.926,0,0
118815.775,82.7164,-813.334,0,0
119076.1,82.6551,-810.748,0,0
119336.425,82.5176,-808.341,0,0
119596.75,82.2358,-805.81,0,0
119857.075,81.9775,-803.291,0,0
120117.4,81.6841,-800.662,0,0
120377.725,81.408,-797.984,0,0
120638.05,81.1357,-795.23,0,0
120898.375,81.0022,-792.461,0,0
121158.7,80.9099,-789.794,0,0
121419.025,80.7738,-787.151,0,0
121679.35,80.6045,-784.444,0,0
121939.675,80.4359,-781.705,0,0
122200.0,80.3301,-778.93,0,0
122460,80.3256,-776.207,0,0
122721,80.2695,-773.585,0,0
122981,80.1549,-770.927,0,0
123241,80.0033,-768.237,0,0
123502,79.8599,-765.486,0,0
123762,79.7042,-762.716,0,0
124022,79.5677,-759.878,0,0
124283,79.5403,-756.97,0,0
124543,79.6048,-754.132,0,0
124803,79.6507,-751.348,0,0
125064,79.7563,-748.558,0,0
125324,79.8064,-745.778,0,0
125584,79.8526,-743.046,0,0
125845,79.9165,-740.256,0,0
126105,79.9798,-737.393,0,0
126365,80.1389,-734.54,0,0
126626,80.3438,-731.712,0,0
126886,80.614,-728.971,0,0
127146,80.8645,-726.262,0,0
127406,81.0732,-723.563,0,0
127667,81.2575,-720.883,0,0
127927,81.4582,-718.17,0,0
128187,81.7511,-715.479,0,0
128448,81.9891,-712.888,0,0
128708,82.1391,-710.279,0,0
128968,82.3422,-707.496,0,0
129229,82.6606,-704.823,0,0
129489,82.9493,-702.286,0,0
129749,83.1074,-699.776,0,0
130010,83.1796,-697.159,0,0
130270,83.2553,-694.422,0,0
130530,83.4615,-691.618,0,0
130791,83.7662,-688.831,0,0
131051,84.1169,-686.118,0,0
131311,84.527,-683.448,0,0
131572,84.9037,-680.933,0,0
131832,85.1429,-678.385,0,0
132092,85.3986,-675.785,0,0
132353,85.7148,-673.273,0,0
132613,85.9272,-670.773,0,0
132873,86.0612,-668.233,0,0
133134,86.2078,-665.634,0,0
133394,86.3223,-662.942,0,0
133654,86.4257,-660.166,0,0
133915,86.6738,-657.357,0,0
134175,86.9963,-654.559,0,0
134435,87.2947,-651.843,0,0
134696,87.54,-649.07,0,0
134956,87.8933,-646.151,0,0
135216,88.425,-643.318,0,0
135477,88.933,-640.568,0,0
135737,89.5527,-637.837,0,0
135997,90.2748,-635.286,0,0
136258,90.9518,-633.002,0,0
136518,91.4012,-630.758,0,0
136778,91.7196,-628.654,0,0
137039,91.7291,-626.502,0,0
137299,91.5926,-624.099,0,0
137559,91.4039,-621.628,0,0
137819,91.1521,-618.965,0,0
138080,90.8257,-616.111,0,0
138340.125,90.5539,-613,0,0
138600.45,90.5375,-609.702,0,0
138860.775,90.6833,-606.382,0,0
139121.1,91.0178,-603.076,0,0
139381.425,91.4534,-599.921,0,0
139641.75,91.7901,-596.798,0,0
139902.075,92.1545,-593.543,0,0
140162.4,92.6627,-590.304,0,0
140422.725,93.1795,-587.158,0,0
140683.05,93.6558,-583.956,0,0
140943.375,94.2222,-580.671,0,0
141203.7,94.8932,-577.456,0,0
141464.025,95.5114,-574.337,0,0
141724.35,96.0022,-571.167,0,0
141984.675,96.5287,-567.843,0,0
142245.0,97.1594,-564.431,0,0
142505.325,97.8496,-561.026,0,0
142765.65,98.6187,-557.6,0,0
143025.975,99.353,-554.114,0,0
143286.3,100.201,-550.472,0,0
143546.625,101.306,-546.865,0,0
143806.95,102.375,-543.434,0,0
144067.275,103.387,-539.933,0,0
144327.6,104.453,-536.321,0,0
144587.925,105.592,-532.584,0,0
144848.25,106.961,-528.766,0,0
145108.575,108.57,-525.026,0,0
145368.9,110.215,-521.366,0,0
145629.225,112.077,-517.706,0,0
145889.55,113.98,-514.262,0,0
146149.875,115.834,-510.874,0,0
146410.2,117.737,-507.396,0,0
146670.525,119.841,-503.95,0,0
146930.85,122.037,-500.698,0,0
147191.175,124.172,-497.589,0,0
147451.5,126.317,-494.562,0,0
147711.825,128.24,-491.63,0,0
147972.15,129.965,-488.439,0,0
148232.475,131.774,-484.954,0,0
148492.8,133.841,-481.186,0,0
148753.125,136.325,-477.346,0,0
149013.45,139.045,-473.545,0,0
149273.775,142.063,-469.896,0,0
149534.1,145.336,-466.25,0,0
149794.425,148.864,-462.848,0,0
150054.75,152.611,-459.567,0,0
150315.075,156.571,-456.496,0,0
150575.4,160.761,-453.473,0,0
150835.725,165.31,-450.739,0,0
151096.05,170.404,-448.429,0,0
151356.375,175.722,-446.99,0,0
151616.7,180.868,-446.448,0,0
151877.025,185.489,-446.452,0,0
152137.35,189.781,-446.948,0,0
152397.675,193.438,-447.83,0,0
152658.0,196.194,-448.766,0,0
152918.325,198.926,-448.955,0,0
153178.65,201.518,-449.627,0,0
153438.975,203.588,-450.407,0,0
153699.3,205.098,-451.054,0,0
153959.625,206.403,-451.17,0,0
154219.95,207.672,-451.335,0,0
154480,208.248,-451.303,0,0
154741,208.682,-450.075,0,0
155001,210.076,-447.932,0,0
155261,212.618,-446.122,0,0
155522,215.777,-444.966,0,0
155782,219.265,-444.777,0,0
156042,222.47,-445.936,0,0
156303,224.915,-447.672,0,0
156563,226.107,-450.16,0,0
156823,225.545,-452.192,0,0
157084,224.13,-453.209,0,0
157344,222.366,-452.75,0,0
157604,221.008,-451.111,0,0
157864,220.074,-448.848,0,0
158125,219.944,-446.01,0,0
158385,220.811,-442.92,0,0
158645,222.35,-440.067,0,0
158906,224.685,-437.562,0,0
159166,227.608,-435.808,0,0
159426,230.615,-435.207,0,0
159687,232.932,-435.564,0,0
159947,234.227,-436.282,0,0
160207,234.512,-436.772,0,0
160468,234.275,-436.932,0,0
160728,233.162,-436.086,0,0
160988,232.289,-433.978,0,0
161249,232.057,-431.031,0,0
161509,232.774,-427.809,0,0
161769,234.27,-424.687,0,0
162030,236.395,-421.879,0,0
162290,238.927,-419.448,0,0
162550,241.766,-417.456,0,0
162811,244.751,-416.212,0,0
163071,247.48,-415.357,0,0
163331,250.181,-414.866,0,0
163592,252.43,-414.856,0,0
163852,254.344,-414.751,0,0
164112,256.003,-414.703,0,0
164373,257.598,-414.536,0,0
164633,259.223,-414.555,0,0
164893,260.96,-414.807,0,0
165154,262.489,-415.334,0,0
165414,263.826,-416.446,0,0
165674,264.372,-418.111,0,0
165935,263.745,-419.64,0,0
166195,262.441,-420.447,0,0
166455,260.834,-420.874,0,0
166716,258.557,-420.853,0,0
166976,255.747,-419.764,0,0
167236,253.412,-417.391,0,0
167497,251.861,-414.506,0,0
167757,250.782,-411.636,0,0
168017,249.983,-408.65,0,0
168277,249.532,-405.769,0,0
168538,248.963,-403.143,0,0
168798,248.031,-400.129,0,0
169058,247.338,-396.385,0,0
169319,247.236,-392.353,0,0
169579,247.711,-388.359,0,0
169839,248.496,-384.793,0,0
170100,249.09,-381.42,0,0
170360.075,249.644,-377.946,0,0
170620.4,250.402,-374.351,0,0
170880.725,251.056,-370.877,0,0
171141.05,251.386,-367.277,0,0
171401.375,251.475,-363.011,0,0
171661.7,252.066,-357.741,0,0
171922.025,253.869,-352.289,0,0
172182.35,256.475,-347.175,0,0
172442.675,259.445,-342.773,0,0
172703.0,262.53,-338.88,0,0
172963.325,265.406,-335.101,0,0
173223.65,268.602,-331.448,0,0
173483.975,271.937,-328.076,0,0
173744.3,275.314,-325.196,0,0
174004.625,278.569,-322.945,0,0
174264.95,281.325,-321.125,0,0
174525.275,283.089,-319.421,0,0
174785.6,283.946,-317.044,0,0
175045.925,284.707,-313.911,0,0
175306.25,285.46,-310.027,0,0
175566.575,286.258,-305.459,0,0
175826.9,287.462,-299.924,0,0
176087.225,289.69,-293.813,0,0
176347.55,292.968,-287.806,0,0
176607.875,296.688,-282.147,0,0
176868.2,300.957,-276.829,0,0
177128.525,305.373,-271.955,0,0
177388.85,309.469,-267.205,0,0
177649.175,313.643,-262.092,0,0
177909.5,318.293,-256.606,0,0
178169.825,323.588,-251.169,0,0
178430.15,329.215,-245.993,0,0
178690.475,334.98,-240.82,0,0
178950.8,341.247,-235.544,0,0
179211.125,348.121,-230.298,0,0
179471.45,355.612,-225.438,0,0
179731.775,363.614,-220.917,0,0
179992.1,372.131,-216.633,0,0
180252.425,381.476,-213.159,0,0
180512.75,390.723,-210.665,0,0
180773.075,399.982,-208.53,0,0
181033.4,409.478,-207.196,0,0
181293.725,418.484,-206.412,0,0
181554.05,427.432,-205.679,0,0
181814.375,436.677,-205.358,0,0
182074.7,445.859,-205.833,0,0
182335.025,454.939,-207.045,0,0
182595.35,463.526,-208.801,0,0
182855.675,471.543,-211.079,0,0
183116.0,479.11,-213.467,0,0
183376.325,485.945,-216.353,0,0
183636.65,492.003,-219.074,0,0
183896.975,497.476,-221.574,0,0
184157.3,502.258,-223.45,0,0
184417.625,507.218,-224.609,0,0
184677.95,512.291,-225.394,0,0
184938.275,517.362,-225.806,0,0
185198.6,523.122,-225.754,0,0
185458.925,529.473,-225.928,0,0
185719.25,535.82,-226.522,0,0
185979.575,542.24,-226.659,0,0
186239.9,549.557,-226.947,0,0
186500,557.012,-228.4,0,0
186761,563.724,-230.129,0,0
187021,570.275,-231.462,0,0
187281,576.907,-232.781,0,0
187542,583.532,-233.94,0,0
187802,590.443,-234.796,0,0
188062,598.197,-235.524,0,0
188322,606.662,-237.056,0,0
188583,615.354,-239.56,0,0
188843,623.528,-243.148,0,0
189103,630.548,-247.31,0,0
189364,636.681,-250.904,0,0
189624,642.516,-253.746,0,0
189884,648.578,-255.993,0,0
190145,654.808,-258.114,0,0
190405,661.327,-259.584,0,0
190665,668.41,-260.436,0,0
190926,677.009,-261.156,0,0
191186,686.981,-263.011,0,0
191446,696.921,-266.423,0,0
191707,706.236,-269.534,0,0
191967,715.351,-273.666,0,0
192227,724.39,-277.992,0,0
192488,733.01,-282.548,0,0
192748,740.907,-286.283,0,0
193008,749.825,-288.214,0,0
193269,761.378,-290.362,0,0
193529,774.08,-293.778,0,0
193789,788.215,-298.401,0,0
194050,803.204,-304.956,0,0
194310,818.272,-313.751,0,0
194570,833.225,-324.371,0,0
194831,847.196,-337.288,0,0
195091,859.28,-351.253,0,0
195351,870.456,-364.907,0,0
195612,881.765,-378.899,0,0
195872,893.54,-394.119,0,0
196132,904.661,-411.467,0,0
196393,914.458,-430.591,0,0
196653,922.234,-450.6,0,0
196913,928.528,-471.644,0,0
197174,932.63,-493.035,0,0
197434,935.233,-514.365,0,0
197694,936.08,-535.93,0,0
197955,934.948,-556.729,0,0
198215,932.72,-576.983,0,0
198475,929.534,-596.572,0,0
198735,925.379,-615.414,0,0
198996,920.706,-633.596,0,0
199256,915.886,-651.766,0,0
199516,910.572,-670.617,0,0
199777,903.125,-689.973,0,0
200037,893.457,-708.587,0,0
200297,882.049,-725.467,0,0
200558,870.029,-740.229,0,0
200818,857.764,-753.686,0,0
201078,846.262,-765.789,0,0
201339,835.31,-777.957,0,0
201599,823.607,-790.864,0,0
201859,810.612,-803.602,0,0
202120,795.616,-815.968,0,0
202380.025,778.589,-826.222,0,0
202640.35,760.238,-833.647,0,0
202900.675,742.66,-837.701,0,0
203161.0,726.877,-839.769,0,0
203421.325,712.701,-840.833,0,0
203681.65,699.91,-841.468,0,0
203941.975,688.012,-842.271,0,0
204202.3,676.562,-843.094,0,0
204462.625,665.523,-843.459,0,0
204722.95,654.806,-843.603,0,0
204983.275,644.162,-843.819,0,0
205243.6,633.347,-843.908,0,0
205503.925,622.198,-843.31,0,0
205764.25,610.89,-841.712,0,0
206024.575,599.524,-838.545,0,0
206284.9,588.98,-833.885,0,0
206545.225,579.817,-827.742,0,0
206805.55,572.903,-820.777,0,0
207065.875,568.197,-814.065,0,0
207326.2,565.105,-808.294,0,0
207586.525,562.92,-803.597,0,0
207846.85,561.36,-799.734,0,0
208107.175,560.315,-796.906,0,0
208367.5,559.386,-795.246,0,0
208627.825,557.91,-794.408,0,0
208888.15,555.934,-793.797,0,0
209148.475,553.529,-793.077,0,0
209408.8,551.027,-791.99,0,0
209669.125,548.921,-790.645,0,0
209929.45,547.244,-789.222,0,0
210189.775,546.179,-787.95,0,0
210450.1,545.309,-787.34,0,0
210710.425,544.471,-787.116,0,0
210970.75,543.693,-786.999,0,0
211231.075,542.853,-787.086,0,0
211491.4,542.225,-787.229,0,0
211751.725,541.89,-787.667,0,0
212012.05,541.703,-788.66,0,0
212272.375,541.475,-789.908,0,0
212532.7,541.289,-791.6,0,0
212793.025,540.874,-793.682,0,0
213053.35,540.123,-796.241,0,0
213313.675,539.186,-798.827,0,0
213574.0,538.105,-801.52,0,0
213834.325,536.81,-804.516,0,0
214094.65,535.331,-807.727,0,0
214354.975,533.48,-811.02,0,0
214615.3,531.465,-814.373,0,0
214875.625,529.258,-818.083,0,0
215135.95,526.464,-821.811,0,0
215396.275,523.419,-825.638,0,0
215656.6,519.863,-829.439,0,0
215916.925,515.83,-833.009,0,0
216177.25,511.369,-836.231,0,0
216437.575,506.684,-839.138,0,0
216697.9,501.916,-841.596,0,0
216958.225,497.234,-843.697,0,0
217218.55,492.549,-845.817,0,0
217478.875,487.794,-847.746,0,0
217739.2,482.869,-849.433,0,0
217999.525,477.968,-850.9,0,0
218259.85,473.036,-852.198,0,0
218520,468.186,-853.321,0,0
218780,463.282,-854.277,0,0
219041,458.465,-854.93,0,0
219301,453.721,-855.6,0,0
219561,448.912,-856.238,0,0
219822,444.09,-856.803,0,0
220082,439.266,-857.196,0,0
220342,434.056,-857.351,0,0
220603,428.889,-857.194,0,0
220863,423.676,-856.578,0,0
221123,418.641,-855.476,0,0
221384,413.867,-853.903,0,0
221644,409.754,-852.156,0,0
221904,406.131,-850.277,0,0
222165,402.895,-848.592,0,0
222425,399.976,-847.066,0,0
222685,397.148,-845.609,0,0
222946,394.514,-844.421,0,0
223206,391.991,-843.166,0,0
223466,389.752,-841.816,0,0
223727,387.725,-840.774,0,0
223987,385.85,-839.873,0,0
224247,384.256,-839.311,0,0
224508,382.721,-838.847,0,0
224768,381.366,-838.574,0,0
225028,380.141,-838.711,0,0
225289,378.878,-839.44,0,0
225549,377.376,-840.632,0,0
225809,375.49,-842.169,0,0
226070,373.131,-843.805,0,0
226330,370.337,-845.437,0,0
226590,367.206,-846.994,0,0
226851,363.891,-848.506,0,0
227111,360.327,-849.917,0,0
227371,356.449,-851.2,0,0
227632,352.281,-852.192,0,0
227892,347.995,-853.034,0,0
228152,343.599,-853.492,0,0
228413,339.314,-853.593,0,0
228673,335.118,-853.621,0,0
228933,331.155,-853.533,0,0
229193,327.189,-853.47,0,0
229454,323.213,-853.53,0,0
229714,319.172,-853.463,0,0
229974,315.072,-853.579,0,0
230235,310.861,-853.652,0,0
230495,306.209,-853.741,0,0
230755,301.361,-853.405,0,0
231016,296.525,-852.663,0,0
231276,291.746,-851.856,0,0
231536,286.993,-850.814,0,0
231797,282.222,-849.554,0,0
232057,277.479,-848.171,0,0
232317,272.834,-846.7,0,0
232578,268.219,-844.995,0,0
232838,263.674,-843.171,0,0
233098,259.199,-841.209,0,0
233359,254.697,-839.218,0,0
233619,250.121,-836.961,0,0
233879,245.664,-834.471,0,0
234140,241.316,-831.795,0,0
234400,236.977,-828.924,0,0
234660.3,232.742,-825.811,0,0
234920.625,228.763,-822.346,0,0
235180.95,225.057,-818.702,0,0
235441.275,221.689,-815.047,0,0
235701.6,218.519,-811.416,0,0
235961.925,215.557,-807.639,0,0
236222.25,212.804,-803.792,0,0
236482.575,210.342,-799.927,0,0
236742.9,208.078,-796.072,0,0
237003.225,206.03,-792.372,0,0
237263.55,204.161,-788.72,0,0
237523.875,202.397,-785.065,0,0
237784.2,200.752,-781.361,0,0
238044.525,199.38,-777.733,0,0
238304.85,198.164,-774.083,0,0
238565.175,197.151,-770.522,0,0
238825.5,196.489,-767.026,0,0
239085.825,196.157,-763.803,0,0
239346.15,195.941,-760.867,0,0
239606.475,195.8,-758.226,0,0
239866.8,195.605,-755.942,0,0
240127.125,195.413,-753.954,0,0
240387.45,194.963,-752.083,0,0
240647.775,194.486,-750.362,0,0
240908.1,193.741,-748.866,0,0
241168.425,192.944,-747.408,0,0
241428.75,191.944,-745.972,0,0
241689.075,190.71,-744.485,0,0
241949.4,189.341,-742.923,0,0
242209.725,187.859,-741.261,0,0
242470.05,186.232,-739.443,0,0
242730.375,184.643,-737.343,0,0
242990.7,183.138,-735.059,0,0
243251.025,181.774,-732.698,0,0
243511.35,180.553,-730.364,0,0
243771.675,179.345,-727.898,0,0
244032.0,178.352,-725.428,0,0
244292.325,177.412,-722.895,0,0
244552.65,176.731,-720.463,0,0
244812.975,176.202,-718.111,0,0
245073.3,175.645,-715.984,0,0
245333.625,174.931,-713.915,0,0
245593.95,174.194,-711.765,0,0
245854.275,173.493,-709.632,0,0
246114.6,172.942,-707.35,0,0
246374.925,172.463,-705.186,0,0
246635.25,172.119,-703.106,0,0
246895.575,171.776,-701.22,0,0
247155.9,171.29,-699.394,0,0
247416.225,170.744,-697.583,0,0
247676.55,170.167,-695.757,0,0
247936.875,169.559,-693.95,0,0
248197.2,168.854,-692.122,0,0
248457.525,168.051,-690.088,0,0
248717.85,167.346,-688.043,0,0
248978.175,166.622,-685.852,0,0
249238.5,166.032,-683.581,0,0
249498.825,165.431,-681.259,0,0
249759.15,165.006,-678.874,0,0
250019.475,164.656,-676.444,0,0
250279.8,164.444,-674.038,0,0
250540,164.244,-671.519,0,0
250800,164.331,-668.912,0,0
251061,164.598,-666.369,0,0
251321,165.131,-663.884,0,0
251581,165.785,-661.54,0,0
251842,166.653,-659.397,0,0
252102,167.63,-657.448,0,0
252362,168.722,-655.707,0,0
252623,169.854,-654.285,0,0
252883,170.909,-653.207,0,0
253143,171.768,-652.359,0,0
253404,172.355,-651.681,0,0
253664,172.686,-651.022,0,0
253924,172.831,-650.362,0,0
254185,172.797,-649.533,0,0
254445,172.658,-648.69,0,0
254705,172.458,-647.701,0,0
254966,172.287,-646.646,0,0
255226,172.084,-645.582,0,0
255486,171.736,-644.433,0,0
255747,171.403,-643.121,0,0
256007,171.108,-641.649,0,0
256267,170.912,-640.179,0,0
256528,170.713,-638.681,0,0
256788,170.542,-637.054,0,0
257048,170.4,-635.289,0,0
257309,170.442,-633.435,0,0
257569,170.602,-631.598,0,0
257829,170.831,-629.707,0,0
258090,171.242,-627.839,0,0
258350,171.783,-625.973,0,0
258610,172.405,-624.164,0,0
258871,173.143,-622.347,0,0
259131,174.054,-620.594,0,0
259391,175.06,-618.93,0,0
259651,176.31,-617.404,0,0
259912,177.539,-616.059,0,0
260172,178.828,-614.875,0,0
260432,180,-613.847,0,0
260693,181.093,-612.912,0,0
260953,182.221,-611.953,0,0
261213,183.377,-611.056,0,0
261474,184.529,-610.245,0,0
261734,185.709,-609.468,0,0
261994,186.943,-608.822,0,0
262255,188.15,-608.377,0,0
262515,189.144,-608.099,0,0
262775,189.902,-607.754,0,0
263036,190.615,-607.291,0,0
263296,191.335,-606.778,0,0
263556,191.99,-606.275,0,0
263817,192.584,-605.61,0,0
264077,193.109,-604.845,0,0
264337,193.659,-603.952,0,0
264598,194.351,-602.832,0,0
264858,195.184,-601.499,0,0
265118,196.264,-600.203,0,0
265379,197.637,-598.817,0,0
265639,199.087,-597.436,0,0
265899,200.884,-595.967,0,0
266160,203.044,-594.502,0,0
266420,205.589,-593.218,0,0
266680.25,208.468,-592.169,0,0
266940.575,211.712,-591.341,0,0
267200.9,215.26,-590.893,0,0
267461.225,219.071,-590.905,0,0
267721.55,223.081,-591.413,0,0
267981.875,227.225,-592.453,0,0
268242.2,231.41,-594.17,0,0
268502.525,235.447,-596.514,0,0
268762.85,239.223,-599.433,0,0
269023.175,242.716,-602.803,0,0
269283.5,245.782,-606.712,0,0
269543.825,248.375,-610.893,0,0
269804.15,250.597,-615.334,0,0
270064.475,252.421,-620.025,0,0
270324.8,253.844,-625.062,0,0
270585.125,254.904,-630.36,0,0
270845.45,255.272,-635.848,0,0
271105.775,255.069,-641.52,0,0
271366.1,254.25,-647.135,0,0
271626.425,252.812,-652.715,0,0
271886.75,250.86,-658.157,0,0
272147.075,248.376,-663.457,0,0
272407.4,245.374,-668.47,0,0
272667.725,241.963,-673.282,0,0
272928.05,238.053,-677.823,0,0
273188.375,233.585,-682.017,0,0
273448.7,228.675,-685.732,0,0
273709.025,223.45,-688.945,0,0
273969.35,217.853,-691.521,0,0
274229.675,212.143,-693.429,0,0
274490.0,206.395,-694.693,0,0
274750.325,200.66,-695.461,0,0
275010.65,195.14,-695.563,0,0
275270.975,189.773,-695.191,0,0
275531.3,184.594,-694.388,0,0
275791.625,179.866,-693.233,0,0
276051.95,175.491,-691.799,0,0
276312.275,171.352,-690.216,0,0
276572.6,167.568,-688.474,0,0
276832.925,163.978,-686.676,0,0
277093.25,160.641,-684.77,0,0
277353.575,157.487,-682.833,0,0
277613.9,154.567,-680.811,0,0
277874.225,151.807,-678.794,0,0
278134.55,149.184,-676.789,0,0
278394.875,146.634,-674.709,0,0
278655.2,144.19,-672.567,0,0
278915.525,141.873,-670.329,0,0
279175.85,139.741,-667.898,0,0
279436.175,137.809,-665.437,0,0
279696.5,136.095,-662.891,0,0
279956.825,134.751,-660.427,0,0
280217.15,133.567,-657.968,0,0
280477.475,132.596,-655.577,0,0
280737.8,131.814,-653.343,0,0
280998.125,131.189,-651.19,0,0
281258.45,130.692,-649.207,0,0
281518.775,130.287,-647.36,0,0
281779.1,129.955,-645.668,0,0
282039.425,129.667,-644.09,0,0
282299.75,129.455,-642.668,0,0
282560,129.277,-641.467,0,0
282820,129.006,-640.397,0,0
283081,128.602,-639.449,0,0
283341,128.092,-638.562,0,0
283601,127.463,-637.627,0,0
283862,126.788,-636.646,0,0
284122,126.1,-635.597,0,0
284382,125.395,-634.45,0,0
284643,124.715,-633.256,0,0
284903,124.06,-631.924,0,0
285163,123.589,-630.525,0,0
285424,123.34,-629.041,0,0
285684,123.297,-627.641,0,0
285944,123.465,-626.294,0,0
286205,123.8,-625.154,0,0
286465,124.298,-624.235,0,0
286725,124.923,-623.566,0,0
286986,125.591,-623.172,0,0
287246,126.256,-623.159,0,0
287506,126.836,-623.477,0,0
287767,127.166,-624.145,0,0
288027,127.174,-625.104,0,0
288287,126.755,-626.181,0,0
288548,125.922,-627.248,0,0
288808,124.785,-628.175,0,0
289068,123.375,-628.954,0,0
289329,121.8,-629.58,0,0
289589,120.016,-630.077,0,0
289849,118.005,-630.387,0,0
290109,115.95,-630.35,0,0
290370,113.832,-630.1,0,0
290630,111.798,-629.619,0,0
290890,109.855,-628.983,0,0
291151,108.002,-628.291,0,0
291411,106.191,-627.466,0,0
291671,104.451,-626.61,0,0
291932,102.723,-625.739,0,0
292192,100.973,-624.779,0,0
292452,99.2445,-623.711,0,0
292713,97.5533,-622.558,0,0
292973,95.949,-621.31,0,0
293233,94.4283,-620.01,0,0
293494,92.961,-618.7,0,0
293754,91.5425,-617.373,0,0
294014,90.1394,-616.003,0,0
294275,88.752,-614.578,0,0
294535,87.4158,-613.118,0,0
294795,86.0958,-611.55,0,0
295056,84.9083,-609.961,0,0
295316,83.8222,-608.303,0,0
295576,82.7918,-606.658,0,0
295837,81.858,-604.997,0,0
296097,81.0163,-603.355,0,0
296357,80.2281,-601.778,0,0
296618,79.4753,-600.236,0,0
296878,78.7343,-598.698,0,0
297138,78.0053,-597.175,0,0
297399,77.2808,-595.655,0,0
297659,76.5726,-594.109,0,0
297919,75.8994,-592.557,0,0
298180,75.2753,-591.001,0,0
298440,74.7001,-589.417,0,0
298700.2,74.1218,-587.813,0,0
298960.525,73.6113,-586.213,0,0
299220.85,73.1412,-584.618,0,0
299481.175,72.6955,-583.001,0,0
299741.5,72.3194,-581.373,0,0
300001.825,71.9878,-579.74,0,0
300262.15,71.7324,-578.125,0,0
300522.475,71.5238,-576.489,0,0
300782.8,71.405,-574.868,0,0
301043.125,71.367,-573.279,0,0
301303.45,71.384,-571.759,0,0
301563.775,71.466,-570.255,0,0
301824.1,71.5981,-568.847,0,0
302084.425,71.7594,-567.466,0,0
302344.75,71.9619,-566.165,0,0
302605.075,72.1726,-564.918,0,0
302865.4,72.3955,-563.738,0,0
303125.725,72.6498,-562.605,0,0
303386.05,72.9039,-561.507,0,0
303646.375,73.1641,-560.48,0,0
303906.7,73.4441,-559.51,0,0
304167.025,73.6997,-558.588,0,0
304427.35,73.9266,-557.699,0,0
304687.675,74.142,-556.839,0,0
304948.0,74.3858,-556.024,0,0
305208.325,74.6129,-555.229,0,0
305468.65,74.8401,-554.494,0,0
305728.975,75.0671,-553.79,0,0
305989.3,75.2817,-553.138,0,0
306249.625,75.469,-552.525,0,0
306509.95,75.6359,-551.937,0,0
306770.275,75.7937,-551.404,0,0
307030.6,75.8948,-550.889,0,0
307290.925,75.9849,-550.35,0,0
307551.25,76.0843,-549.857,0,0
307811.575,76.1978,-549.398,0,0
308071.9,76.309,-549.003,0,0
308332.225,76.3784,-548.699,0,0
308592.55,76.3896,-548.455,0,0
308852.875,76.2887,-548.26,0,0
309113.2,76.0844,-548.077,0,0
309373.525,75.7763,-547.847,0,0
309633.85,75.3931,-547.541,0,0
309894.175,75.0062,-547.187,0,0
310154.5,74.5973,-546.786,0,0
310414.825,74.1933,-546.33,0,0
310675.15,73.7988,-545.868,0,0
310935.475,73.4004,-545.37,0,0
311195.8,73.0024,-544.858,0,0
311456.125,72.6344,-544.339,0,0
311716.45,72.2539,-543.819,0,0
311976.775,71.8643,-543.33,0,0
312237.1,71.4826,-542.83,0,0
312497.425,71.0663,-542.329,0,0
312757.75,70.6342,-541.815,0,0
313018.075,70.1718,-541.303,0,0
313278.4,69.6945,-540.784,0,0
313538.725,69.2041,-540.234,0,0
313799.05,68.6818,-539.641,0,0
314059.375,68.1407,-539.055,0,0
314319.7,67.6107,-538.394,0,0
314580,67.0675,-537.727,0,0
314840,66.6176,-537.007,0,0
315101,66.068,-536.272,0,0
315361,65.5857,-535.542,0,0
315621,65.1364,-534.745,0,0
315882,64.6804,-533.964,0,0
316142,64.269,-533.069,0,0
316402,63.8206,-532.251,0,0
316663,63.493,-531.409,0,0
316923,63.1648,-530.608,0,0
317183,62.8262,-529.698,0,0
317444,62.6334,-528.934,0,0
317704,62.3965,-528.04,0,0
317964,62.1261,-527.314,0,0
318225,61.8785,-526.486,0,0
318485,61.6834,-525.693,0,0
318745,61.5123,-524.971,0,0
319006,61.3548,-524.116,0,0
319266,61.1804,-523.459,0,0
319526,61.0589,-522.792,0,0
319787,61.0367,-522.149,0,0
320047,60.9447,-521.507,0,0
320307,60.7825,-520.966,0,0
320567,60.5565,-520.446,0,0
320828,60.4353,-519.926,0,0
321088,60.1427,-519.447,0,0
321348,59.9083,-518.991,0,0
321609,59.698,-518.525,0,0
321869,59.428,-517.967,0,0
322129,59.0691,-517.479,0,0
322390,58.7355,-516.957,0,0
322650,58.3859,-516.423,0,0
322910,57.9695,-515.915,0,0
323171,57.5731,-515.419,0,0
323431,57.205,-514.907,0,0
323691,56.7804,-514.388,0,0
323952,56.3325,-513.874,0,0
324212,55.8192,-513.292,0,0
324472,55.3521,-512.744,0,0
324733,54.7884,-512.117,0,0
324993,54.2528,-511.405,0,0
325253,53.6906,-510.77,0,0
325514,53.1993,-510.087,0,0
325774,52.6074,-509.295,0,0
326034,52.1582,-508.445,0,0
326295,51.6613,-507.703,0,0
326555,51.2282,-506.813,0,0
326815,50.79,-506.026,0,0
327076,50.4526,-505.151,0,0
327336,50.0358,-504.363,0,0
327596,49.5825,-503.474,0,0
327857,49.289,-502.64,0,0
328117,48.9282,-501.783,0,0
328377,48.638,-500.939,0,0
328638,48.2994,-500.059,0,0
328898,47.9614,-499.265,0,0
329158,47.6551,-498.42,0,0
329419,47.3505,-497.53,0,0
329679,47.1247,-496.655,0,0
329939,46.8072,-495.786,0,0
330200,46.5164,-494.906,0,0
330460,46.3324,-494.073,0,0
330720.15,46.0355,-493.199,0,0
330980.475,45.8059,-492.327,0,0
331240.8,45.5703,-491.523,0,0
331501.125,45.3486,-490.664,0,0
331761.45,45.1444,-489.766,0,0
332021.775,44.9452,-488.849,0,0
332282.1,44.7339,-488.017,0,0
332542.425,44.5366,-487.127,0,0
332802.75,44.3525,-486.239,0,0
333063.075,44.191,-485.349,0,0
333323.4,44.1119,-484.514,0,0
333583.725,43.953,-483.588,0,0
333844.05,43.8901,-482.747,0,0
334104.375,43.853,-481.836,0,0
334364.7,43.7687,-481.011,0,0
334625.025,43.7577,-480.151,0,0
334885.35,43.7156,-479.379,0,0
335145.675,43.7251,-478.587,0,0
335406.0,43.6812,-477.821,0,0
335666.325,43.6622,-477.052,0,0
335926.65,43.638,-476.339,0,0
336186.975,43.6151,-475.604,0,0
336447.3,43.6446,-474.91,0,0
336707.625,43.6078,-474.211,0,0
336967.95,43.5576,-473.49,0,0
337228.275,43.5826,-472.85,0,0
337488.6,43.5015,-472.218,0,0
337748.925,43.4718,-471.558,0,0
338009.25,43.4285,-470.915,0,0
338269.575,43.3452,-470.268,0,0
338529.9,43.2612,-469.655,0,0
338790.225,43.2306,-468.979,0,0
339050.55,43.1506,-468.347,0,0
339310.875,43.0224,-467.751,0,0
339571.2,42.9382,-467.107,0,0
339831.525,42.8078,-466.466,0,0
340091.85,42.6322,-465.86,0,0
340352.175,42.5205,-465.265,0,0
340612.5,42.3281,-464.665,0,0
340872.825,42.1916,-464.032,0,0
341133.15,41.9798,-463.313,0,0
341393.475,41.7765,-462.681,0,0
341653.8,41.6008,-461.945,0,0
341914.125,41.375,-461.255,0,0
342174.45,41.2204,-460.536,0,0
342434.775,41.0828,-459.818,0,0
342695.1,40.9188,-459.065,0,0
342955.425,40.7545,-458.291,0,0
343215.75,40.6531,-457.558,0,0
343476.075,40.579,-456.807,0,0
343736.4,40.3797,-456.016,0,0
343996.725,40.2854,-455.283,0,0
344257.05,40.218,-454.49,0,0
344517.375,40.0883,-453.704,0,0
344777.7,40.0273,-452.914,0,0
345038.025,39.9592,-452.183,0,0
345298.35,39.8668,-451.391,0,0
345558.675,39.8376,-450.554,0,0
345819.0,39.7639,-449.782,0,0
346079.325,39.6867,-448.962,0,0
346339.65,39.7176,-448.157,0,0
346599.975,39.7349,-447.311,0,0
346860,39.7963,-446.577,0,0
347121,39.8161,-445.796,0,0
347381,39.8111,-444.994,0,0
347641,39.9324,-444.182,0,0
347902,39.9936,-443.481,0,0
348162,40.0893,-442.772,0,0
348422,40.1373,-442.001,0,0
348683,40.229,-441.242,0,0
348943,40.3604,-440.546,0,0
349203,40.4032,-439.816,0,0
349464,40.5553,-439.136,0,0
349724,40.6529,-438.43,0,0
349984,40.7964,-437.74,0,0
350245,40.9137,-437.008,0,0
350505,41.1012,-436.37,0,0
350765,41.204,-435.691,0,0
351025,41.4006,-435.03,0,0
351286,41.5338,-434.386,0,0
351546,41.7221,-433.787,0,0
351806,41.8659,-433.227,0,0
352067,42.0119,-432.624,0,0
352327,42.2157,-431.999,0,0
352587,42.3114,-431.518,0,0
352848,42.471,-430.883,0,0
353108,42.638,-430.387,0,0
353368,42.7596,-429.884,0,0
353629,42.8712,-429.33,0,0
353889,42.9974,-428.807,0,0
354149,43.108,-428.298,0,0
354410,43.2686,-427.783,0,0
354670,43.323,-427.259,0,0
354930,43.4507,-426.772,0,0
355191,43.5334,-426.263,0,0
355451,43.6137,-425.761,0,0
355711,43.7333,-425.257,0,0
355972,43.805,-424.799,0,0
356232,43.9153,-424.336,0,0
356492,43.9744,-423.808,0,0
356753,44.0325,-423.374,0,0
357013,44.0993,-422.867,0,0
357273,44.1398,-422.371,0,0
357534,44.1891,-421.899,0,0
357794,44.2204,-421.422,0,0
358054,44.2476,-420.928,0,0
358315,44.3342,-420.415,0,0
358575,44.3716,-419.897,0,0
358835,44.4423,-419.405,0,0
359096,44.4477,-418.949,0,0
359356,44.5408,-418.413,0,0
359616,44.5845,-417.97,0,0
359877,44.678,-417.47,0,0
360137,44.7131,-416.966,0,0
360397,44.7567,-416.467,0,0
360658,44.8287,-415.964,0,0
360918,44.8914,-415.519,0,0
361178,44.9198,-415.056,0,0
361438,44.9678,-414.519,0,0
361699,45.0587,-414.091,0,0
361959,45.0338,-413.574,0,0
362219,45.095,-413.092,0,0
362480,45.1545,-412.655,0,0
362740.1,45.2078,-412.164,0,0
363000.425,45.2562,-411.697,0,0
363260.75,45.3299,-411.185,0,0
363521.075,45.3905,-410.698,0,0
363781.4,45.4075,-410.22,0,0
364041.725,45.4348,-409.765,0,0
364302.05,45.477,-409.287,0,0
364562.375,45.5565,-408.796,0,0
364822.7,45.6414,-408.307,0,0
365083.025,45.6777,-407.756,0,0
365343.35,45.7993,-407.29,0,0
365603.675,45.888,-406.788,0,0
365864.0,45.9932,-406.319,0,0
366124.325,46.0715,-405.903,0,0
366384.65,46.1618,-405.476,0,0
366644.975,46.2071,-405.014,0,0
366905.3,46.2926,-404.568,0,0
367165.625,46.4,-404.099,0,0
367425.95,46.4267,-403.664,0,0
367686.275,46.4977,-403.228,0,0
367946.6,46.5585,-402.752,0,0
368206.925,46.6605,-402.248,0,0
368467.25,46.6856,-401.756,0,0
368727.575,46.8198,-401.332,0,0
368987.9,46.8995,-400.783,0,0
369248.225,47.0206,-400.326,0,0
369508.55,47.1498,-399.851,0,0
369768.875,47.3847,-399.368,0,0
370029.2,47.5976,-398.933,0,0
370289.525,47.82,-398.517,0,0
370549.85,48.0233,-398.166,0,0
370810.175,48.2021,-397.826,0,0
371070.5,48.4102,-397.558,0,0
371330.825,48.6332,-397.285,0,0
371591.15,48.782,-397.05,0,0
371851.475,48.8728,-396.795,0,0
372111.8,48.9911,-396.573,0,0
372372.125,49.0531,-396.31,0,0
372632.45,49.1049,-396.114,0,0
372892.775,49.119,-395.907,0,0
373153.1,49.1273,-395.659,0,0
373413.425,49.1044,-395.442,0,0
373673.75,49.0829,-395.219,0,0
373934.075,49.0207,-394.982,0,0
374194.4,48.9317,-394.693,0,0
374454.725,48.8528,-394.437,0,0
374715.05,48.75,-394.133,0,0
374975.375,48.5931,-393.77,0,0
375235.7,48.492,-393.42,0,0
375496.025,48.3684,-393.038,0,0
375756.35,48.3068,-392.632,0,0
376016.675,48.2658,-392.21,0,0
376277.0,48.2009,-391.753,0,0
376537.325,48.2207,-391.347,0,0
376797.65,48.2724,-390.91,0,0
377057.975,48.342,-390.521,0,0
377318.3,48.3847,-390.142,0,0
377578.625,48.4506,-389.877,0,0
377838.95,48.4909,-389.582,0,0
378099.275,48.4749,-389.374,0,0
378359.6,48.4299,-389.146,0,0
378619.925,48.338,-388.889,0,0
378880,48.2029,-388.594,0,0
379141,47.9831,-388.3,0,0
379401,47.8316,-387.902,0,0
379661,47.6473,-387.507,0,0
379922,47.5146,-387.041,0,0
380182,47.3964,-386.541,0,0
380442,47.4247,-386.001,0,0
380703,47.4602,-385.502,0,0
380963,47.5272,-385.056,0,0
381223,47.6711,-384.641,0,0
381483,47.7913,-384.339,0,0
381744,47.9332,-384.111,0,0
382004,47.9908,-383.943,0,0
382264,47.9762,-383.762,0,0
382525,47.9507,-383.612,0,0
382785,47.8132,-383.471,0,0
383045,47.6078,-383.303,0,0
383306,47.4382,-383.091,0,0
383566,47.1958,-382.892,0,0
383826,46.9014,-382.61,0,0
384087,46.6658,-382.294,0,0
384347,46.3461,-381.97,0,0
384607,46.0453,-381.618,0,0
384868,45.7664,-381.22,0,0
385128,45.4564,-380.77,0,0
385388,45.2072,-380.301,0,0
385649,44.9085,-379.816,0,0
385909,44.6877,-379.336,0,0
386169,44.4079,-378.781,0,0
386430,44.1531,-378.253,0,0
386690,43.9667,-377.718,0,0
386950,43.7115,-377.144,0,0
387211,43.5373,-376.561,0,0
387471,43.3818,-375.923,0,0
387731,43.2063,-375.348,0,0
387992,43.0838,-374.702,0,0
388252,42.9454,-374.08,0,0
388512,42.8606,-373.442,0,0
388773,42.81,-372.821,0,0
389033,42.7785,-372.211,0,0
389293,42.7561,-371.583,0,0
389554,42.76,-370.984,0,0
389814,42.8155,-370.428,0,0
390074,42.8309,-369.851,0,0
390335,42.8147,-369.34,0,0
390595,42.8386,-368.79,0,0
390855,42.8787,-368.269,0,0
391116,42.8729,-367.762,0,0
391376,42.8715,-367.24,0,0
391636,42.8729,-366.745,0,0
391896,42.8509,-366.24,0,0
392157,42.8185,-365.766,0,0
392417,42.8058,-365.286,0,0
392677,42.7955,-364.753,0,0
392938,42.7726,-364.239,0,0
393198,42.7133,-363.715,0,0
393458,42.6858,-363.208,0,0
393719,42.6608,-362.666,0,0
393979,42.6479,-362.124,0,0
394239,42.6053,-361.582,0,0
394500,42.5809,-361.053,0,0
394760.05,42.5657,-360.442,0,0
395020.375,42.595,-359.917,0,0
395280.7,42.586,-359.315,0,0
395541.025,42.628,-358.751,0,0
395801.35,42.6657,-358.169,0,0
396061.675,42.6894,-357.614,0,0
396322.0,42.7617,-357.038,0,0
396582.325,42.8304,-356.485,0,0
396842.65,42.9264,-355.936,0,0
397102.975,42.9867,-355.42,0,0
397363.3,43.0691,-354.927,0,0
397623.625,43.1432,-354.406,0,0
397883.95,43.1959,-353.874,0,0
398144.275,43.2683,-353.372,0,0
398404.6,43.3288,-352.854,0,0
398664.925,43.4279,-352.349,0,0
398925.25,43.5027,-351.828,0,0
399185.575,43.5594,-351.382,0,0
399445.9,43.6124,-350.874,0,0
399706.225,43.6692,-350.345,0,0
399966.55,43.7467,-349.849,0,0
400006.6,43.7425,-349.777,0,0