File: Accelerated corrosion test data/2025-10-15_12-55-04/sample_7.csv
Frequency (Hz),Impedance (ohms),Phase (Radians),Temperature (C),Humidity (%)
10000.0,274.992,-12058.8,0,0
10260.325,270.589,-11768.6,0,0
10520.65,259.277,-11470.5,0,0
10780.975,253.704,-11190.5,0,0
11041.3,251.452,-10923.7,0,0
11301.625,248.039,-10668.1,0,0
11561.95,251.65,-10420,0,0
11822.275,261.358,-10188.3,0,0
12082.6,270.832,-9964.5,0,0
12342.925,317.946,-9817.16,0,0
12603.25,256.521,-9619.13,0,0
12863.575,266.91,-9437.73,0,0
13123.9,237.327,-9249.6,0,0
13384.225,228.076,-9075.52,0,0
13644.55,227.808,-8896.22,0,0
13904.875,210.004,-8728.18,0,0
14165.2,211.28,-8555.8,0,0
14425.525,204.153,-8418.6,0,0
14685.8,203.08,-8270.04,0,0
14946.175,200.186,-8122.35,0,0
15206.5,196.064,-7993.26,0,0
15466.825,186.748,-7850,0,0
15727.15,184.103,-7723.59,0,0
15987.5,180.835,-7594.19,0,0
16247.8,178.194,-7475.69,0,0
16508.125,172.307,-7353.71,0,0
16768.45,172.178,-7235.82,0,0
17028.775,171.061,-7125.24,0,0
17289.1,167.051,-7017.47,0,0
17549.425,166.375,-6909.06,0,0
17809.75,171.261,-6800.94,0,0
18070.075,170.229,-6703.77,0,0
18330.4,181.856,-6598.41,0,0
18590.725,201.184,-6516.18,0,0
18851.05,191.397,-6443.05,0,0
19111.375,180.78,-6358.84,0,0
19371.7,202.53,-6293.12,0,0
19632.025,168.599,-6217.43,0,0
19892.35,159.769,-6117.75,0,0
20152.675,169.424,-6040.11,0,0
20413.0,168.898,-5966.92,0,0
20673.3,171.734,-5886.38,0,0
20933.65,180.093,-5829.7,0,0
21193.975,161.543,-5765.35,0,0
21454.3,153.97,-5690.82,0,0
21714.625,157.994,-5626.13,0,0
21974.9,147.016,-5563.05,0,0
22235.275,142.355,-5494.32,0,0
22495.6,140.442,-5431.61,0,0
22755.925,134.393,-5368.07,0,0
23016.25,131.021,-5304.33,0,0
23276.6,129.24,-5241.9,0,0
23536.9,130.202,-5181.97,0,0
23797.225,128.548,-5126.8,0,0
24057.55,125.005,-5069.62,0,0
24317.875,123.416,-5012.07,0,0
24578.2,124.255,-4957.78,0,0
24838.525,123.391,-4904.49,0,0
25098.85,121.648,-4852.67,0,0
25359.175,120.086,-4800.9,0,0
25619.5,119.383,-4749.21,0,0
25879.8,119.286,-4699.02,0,0
26140.1,120.447,-4647.69,0,0
26400.5,124.666,-4600.95,0,0
26660.8,122.113,-4554.79,0,0
26921.1,122.953,-4505.08,0,0
27181.4,128.426,-4457.2,0,0
27441.8,131.94,-4411.06,0,0
27702.1,142.945,-4365.14,0,0
27962.4,157.438,-4321.26,0,0
28222.7,177.745,-4294.71,0,0
28483.1,181.959,-4274.23,0,0
28743.4,181.73,-4259.15,0,0
29003.7,166.22,-4235.62,0,0
29264,149.478,-4201.6,0,0
29524.4,140.197,-4161.67,0,0
29784.7,133.1,-4124.62,0,0
30045,130.314,-4081.12,0,0
30305.3,131.805,-4044.91,0,0
30565.7,133.158,-4011.43,0,0
30826,132.58,-3979.83,0,0
31086.3,134.024,-3949.24,0,0
31346.6,131.436,-3919.78,0,0
31607,128.707,-3895.14,0,0
31867.3,121.542,-3863.1,0,0
32127.6,118.11,-3831.71,0,0
32387.9,114.938,-3801.11,0,0
32648.3,111.12,-3771.56,0,0
32908.6,108.37,-3741.31,0,0
33168.9,104.834,-3711.49,0,0
33429.2,101.956,-3681.56,0,0
33689.6,99.6115,-3651.73,0,0
33949.9,97.9626,-3622.59,0,0
34210.2,95.8409,-3593.64,0,0
34470.5,94.1241,-3565.41,0,0
34730.9,92.9147,-3537.17,0,0
34991.2,91.8681,-3509.77,0,0
35251.5,90.7887,-3482.66,0,0
35511.8,89.944,-3455.6,0,0
35772.2,89.3547,-3429.32,0,0
36032.5,89.1788,-3403.86,0,0
36292.8,88.3302,-3378.72,0,0
36553.1,87.2439,-3353.77,0,0
36813.5,86.8573,-3328.76,0,0
37073.8,86.5095,-3304.29,0,0
37334.1,86.6663,-3280.44,0,0
37594.4,86.2074,-3256.95,0,0
37854.8,85.7458,-3233.5,0,0
38115.1,85.6113,-3209.49,0,0
38375.4,86.1792,-3186.41,0,0
38635.7,87.2769,-3163.41,0,0
38896.1,88.6535,-3140.82,0,0
39156.4,90.5181,-3119.49,0,0
39416.7,93.5881,-3097.92,0,0
39677,97.478,-3080.04,0,0
39937.4,98.9922,-3064.02,0,0
40197.7,99.0794,-3048.71,0,0
40458,95.9243,-3033.17,0,0
40718.3,92.9825,-3015.13,0,0
40978.7,89.6369,-2996.29,0,0
41239,87.1741,-2977.11,0,0
41499.3,85.4873,-2957.41,0,0
41759.6,84.4872,-2938.73,0,0
42020,82.3304,-2920.35,0,0
42280.275,81.0274,-2900.82,0,0
42540.6,80.5928,-2881.2,0,0
42800.925,80.9433,-2863.28,0,0
43061.25,80.8948,-2844.82,0,0
43321.575,81.0561,-2828.59,0,0
43581.9,79.3113,-2811.14,0,0
43842.225,79.6049,-2792.62,0,0
44102.55,80.5028,-2775.35,0,0
44362.875,82.1276,-2759.55,0,0
44623.2,82.5002,-2744.72,0,0
44883.525,81.6809,-2730.32,0,0
45143.85,80.7469,-2715.26,0,0
45404.175,79.1814,-2699.27,0,0
45664.5,79.9815,-2682.75,0,0
45924.825,81.15,-2669.1,0,0
46185.15,79.8931,-2656.69,0,0
46445.475,77.4036,-2642.78,0,0
46705.8,74.6405,-2628.28,0,0
46966.125,72.9116,-2612.57,0,0
47226.45,71.9916,-2596.48,0,0
47486.775,71.6789,-2581.48,0,0
47747.1,71.1832,-2566.79,0,0
48007.425,70.7844,-2552.36,0,0
48267.75,70.4304,-2538.56,0,0
48528.075,69.4514,-2524.55,0,0
48788.4,68.8539,-2510.73,0,0
49048.725,68.4678,-2496.56,0,0
49309.05,67.9528,-2482.98,0,0
49569.375,67.6271,-2469.5,0,0
49829.7,67.0112,-2456.06,0,0
50090.025,66.7698,-2442.78,0,0
50350.35,66.3953,-2429.71,0,0
50610.675,66.1971,-2416.8,0,0
50871.0,65.7465,-2404.16,0,0
51131.325,65.4384,-2391.38,0,0
51391.65,65.0226,-2378.83,0,0
51651.975,64.8673,-2366.35,0,0
51912.3,64.4404,-2354.11,0,0
52172.625,64.2322,-2341.83,0,0
52432.95,64.2125,-2329.78,0,0
52693.275,63.8706,-2317.79,0,0
52953.6,63.9369,-2305.97,0,0
53213.925,63.8739,-2294.56,0,0
53474.25,63.7066,-2283.31,0,0
53734.575,63.2102,-2271.96,0,0
53994.9,62.9586,-2260.7,0,0
54255.225,62.5284,-2249.46,0,0
54515.55,62.3398,-2238.34,0,0
54775.875,62.014,-2227.31,0,0
55036.2,61.7327,-2216.35,0,0
55296.525,61.5113,-2205.49,0,0
55556.85,61.2819,-2194.77,0,0
55817.175,61.0809,-2184.2,0,0
56077.5,60.7308,-2173.47,0,0
56337.825,60.8153,-2162.99,0,0
56598.15,60.6945,-2152.72,0,0
56858.475,60.4801,-2142.62,0,0
57118.8,60.2987,-2132.61,0,0
57379.125,60.0491,-2122.5,0,0
57639.45,59.7708,-2112.48,0,0
57899.775,59.519,-2102.3,0,0
58160.1,59.5035,-2092.25,0,0
58420.4,59.9213,-2082.44,0,0
58680.7,60.0574,-2073.26,0,0
58941.1,59.8284,-2063.92,0,0
59201.4,59.5508,-2054.38,0,0
59461.7,59.8175,-2044.8,0,0
59722,59.9832,-2036.08,0,0
59982.4,59.8248,-2027,0,0
60242.7,59.9862,-2018.19,0,0
60503,59.7466,-2009.74,0,0
60763.3,59.4254,-2001.03,0,0
61023.7,58.7903,-1992.41,0,0
61284,58.5258,-1983.75,0,0
61544.3,58.1386,-1975.16,0,0
61804.6,57.6196,-1966.6,0,0
62065,57.1493,-1957.91,0,0
62325.3,56.8573,-1949.18,0,0
62585.6,56.619,-1940.69,0,0
62845.9,56.3216,-1932.15,0,0
63106.3,56.0742,-1923.7,0,0
63366.6,55.9739,-1915.16,0,0
63626.9,56.0194,-1906.93,0,0
63887.2,55.9245,-1899.04,0,0
64147.6,55.624,-1890.83,0,0
64407.9,55.479,-1882.81,0,0
64668.2,55.3316,-1874.76,0,0
64928.5,55.2688,-1866.58,0,0
65188.9,55.3365,-1858.88,0,0
65449.2,55.4947,-1851.23,0,0
65709.5,55.4111,-1843.82,0,0
65969.8,55.2632,-1836.32,0,0
66230.2,55.1082,-1829.02,0,0
66490.5,54.732,-1821.82,0,0
66750.8,54.3547,-1814.5,0,0
67011.1,53.9078,-1807.16,0,0
67271.5,53.4959,-1799.6,0,0
67531.8,53.2147,-1792.27,0,0
67792.1,52.9645,-1784.91,0,0
68052.4,52.7052,-1777.68,0,0
68312.8,52.4512,-1770.23,0,0
68573.1,52.32,-1762.98,0,0
68833.4,52.1536,-1755.82,0,0
69093.7,52.0022,-1748.82,0,0
69354.1,51.9366,-1741.64,0,0
69614.4,51.8136,-1734.68,0,0
69874.7,51.7722,-1727.74,0,0
70135,51.6682,-1720.95,0,0
70395.4,51.552,-1714.21,0,0
70655.7,51.5034,-1707.23,0,0
70916,51.5695,-1700.72,0,0
71176.3,51.5004,-1694.2,0,0
71436.7,51.4133,-1687.76,0,0
71697,51.1853,-1681.34,0,0
71957.3,50.9686,-1674.9,0,0
72217.6,50.7227,-1668.46,0,0
72478,50.5411,-1662.01,0,0
72738.3,50.3389,-1655.63,0,0
72998.6,50.143,-1649.16,0,0
73258.9,50.0181,-1642.85,0,0
73519.3,49.8289,-1636.55,0,0
73779.6,49.7042,-1630.27,0,0
74039.9,49.5843,-1624.09,0,0
74300.225,49.4763,-1617.88,0,0
74560.55,49.3349,-1611.74,0,0
74820.875,49.2321,-1605.73,0,0
75081.2,49.2346,-1599.59,0,0
75341.525,49.1002,-1593.64,0,0
75601.85,48.9517,-1587.64,0,0
75862.175,48.8484,-1581.71,0,0
76122.5,48.7169,-1575.79,0,0
76382.825,48.6325,-1569.91,0,0
76643.15,48.5206,-1564.06,0,0
76903.475,48.4778,-1558.23,0,0
77163.8,48.4634,-1552.45,0,0
77424.125,48.4023,-1546.78,0,0
77684.45,48.2991,-1541.18,0,0
77944.775,48.2826,-1535.55,0,0
78205.1,48.1578,-1529.94,0,0
78465.425,48.115,-1524.27,0,0
78725.75,48.0656,-1518.7,0,0
78986.075,48.0156,-1513.23,0,0
79246.4,47.9972,-1507.79,0,0
79506.725,47.9724,-1502.33,0,0
79767.05,47.9186,-1496.89,0,0
80027.375,47.9021,-1491.58,0,0
80287.7,47.8188,-1486.28,0,0
80548.025,47.8016,-1481,0,0
80808.35,47.6762,-1475.79,0,0
81068.675,47.5675,-1470.51,0,0
81329.0,47.4518,-1465.23,0,0
81589.325,47.5172,-1460.05,0,0
81849.65,47.3925,-1454.9,0,0
82109.975,47.324,-1449.78,0,0
82370.3,47.3431,-1444.61,0,0
82630.625,47.3014,-1439.52,0,0
82890.95,47.2008,-1434.5,0,0
83151.275,47.1136,-1429.44,0,0
83411.6,47.1468,-1424.35,0,0
83671.925,47.0817,-1419.29,0,0
83932.25,47.1558,-1414.32,0,0
84192.575,47.1528,-1409.4,0,0
84452.9,47.3064,-1404.44,0,0
84713.225,47.2795,-1399.67,0,0
84973.55,47.352,-1394.84,0,0
85233.875,47.4618,-1390.1,0,0
85494.2,47.429,-1385.41,0,0
85754.525,47.4135,-1380.67,0,0
86014.85,47.392,-1375.86,0,0
86275.175,47.5358,-1371.18,0,0
86535.5,47.6261,-1366.68,0,0
86795.825,47.4962,-1362.04,0,0
87056.15,47.5067,-1357.35,0,0
87316.475,47.6843,-1352.84,0,0
87576.8,47.6696,-1348.36,0,0
87837.125,47.7593,-1343.95,0,0
88097.45,47.6803,-1339.51,0,0
88357.775,47.5314,-1335.05,0,0
88618.1,47.4853,-1330.68,0,0
88878.425,47.3694,-1326.21,0,0
89138.75,47.2429,-1321.67,0,0
89399.075,47.1539,-1317.25,0,0
89659.4,47.1788,-1312.76,0,0
89919.725,47.1981,-1308.32,0,0
90180,47.2089,-1303.93,0,0
90440.4,47.2385,-1299.39,0,0
90700.7,47.3632,-1295.03,0,0
90961,47.4081,-1290.78,0,0
91221.3,47.3774,-1286.42,0,0
91481.7,47.5874,-1281.96,0,0
91742,47.6537,-1277.7,0,0
92002.3,47.7859,-1273.42,0,0
92262.6,47.989,-1269.24,0,0
92523,48.1102,-1265.14,0,0
92783.3,48.1432,-1261.01,0,0
93043.6,48.118,-1256.7,0,0
93303.9,48.3625,-1252.4,0,0
93564.3,48.6613,-1248.16,0,0
93824.6,49.0484,-1243.95,0,0
94084.9,49.6029,-1240.04,0,0
94345.2,49.8743,-1236.32,0,0
94605.6,50.1676,-1232.57,0,0
94865.9,50.4512,-1228.77,0,0
95126.2,50.8638,-1225.22,0,0
95386.5,50.7901,-1222.03,0,0
95646.9,50.4183,-1218.47,0,0
95907.2,50.125,-1214.66,0,0
96167.5,50.0077,-1210.74,0,0
96427.8,49.7939,-1206.9,0,0
96688.2,49.7704,-1202.98,0,0
96948.5,49.7285,-1199.1,0,0
97208.8,49.6096,-1195.25,0,0
97469.1,49.4785,-1191.18,0,0
97729.5,49.7031,-1187.07,0,0
97989.8,50.0141,-1183.26,0,0
98250.1,50.1583,-1179.56,0,0
98510.4,50.4138,-1175.88,0,0
98770.8,50.5472,-1172.33,0,0
99031.1,50.4717,-1168.82,0,0
99291.4,50.2802,-1165.1,0,0
99551.7,50.0351,-1161.3,0,0
99812.1,49.9947,-1157.2,0,0
100072,50.2024,-1153.15,0,0
100333,50.6675,-1149.23,0,0
100593,51.0164,-1145.62,0,0
100853,51.241,-1141.93,0,0
101114,51.6239,-1138.25,0,0
101374,51.9235,-1134.72,0,0
101634,52.0315,-1131.09,0,0
101895,52.3814,-1127.38,0,0
102155,52.7928,-1123.75,0,0
102415,53.2519,-1120.15,0,0
102676,53.7618,-1116.74,0,0
102936,54.19,-1113.17,0,0
103196,54.8409,-1109.91,0,0
103457,55.3038,-1106.71,0,0
103717,55.9349,-1103.64,0,0
103977,56.1817,-1100.92,0,0
104238,56.114,-1097.76,0,0
104498,56.2828,-1094.46,0,0
104758,56.7249,-1091.34,0,0
105019,56.9249,-1088.51,0,0
105279,56.8642,-1085.67,0,0
105539,56.5978,-1082.55,0,0
105800,56.4729,-1079.26,0,0
106060,56.318,-1075.87,0,0
106320.175,56.3167,-1072.37,0,0
106580.5,56.5599,-1068.83,0,0
106840.825,56.9844,-1065.5,0,0
107101.15,57.376,-1062.47,0,0
107361.475,57.4169,-1059.42,0,0
107621.8,57.4889,-1056.2,0,0
107882.125,57.6117,-1052.82,0,0
108142.45,57.8627,-1049.55,0,0
108402.775,58.0812,-1046.31,0,0
108663.1,58.3401,-1043.09,0,0
108923.425,58.5624,-1039.96,0,0
109183.75,58.7928,-1036.84,0,0
109444.075,58.8253,-1033.72,0,0
109704.4,58.8266,-1030.29,0,0
109964.725,58.9835,-1026.94,0,0
110225.05,59.0993,-1023.31,0,0
110485.375,59.6021,-1019.62,0,0
110745.7,60.3354,-1016.03,0,0
111006.025,61.2119,-1012.72,0,0
111266.35,61.9119,-1009.77,0,0
111526.675,62.4052,-1006.49,0,0
111787.0,62.9805,-1003.09,0,0
112047.325,63.9499,-999.726,0,0
112307.65,64.8608,-996.596,0,0
112567.975,65.8338,-993.516,0,0
112828.3,66.9364,-990.474,0,0
113088.625,68.1374,-987.506,0,0
113348.95,69.3062,-984.99,0,0
113609.275,70.1092,-982.378,0,0
113869.6,71.1067,-979.512,0,0
114129.925,72.2167,-976.732,0,0
114390.25,73.5383,-974.097,0,0
114650.575,74.7958,-971.723,0,0
114910.9,75.7936,-969.343,0,0
115171.225,77.001,-966.881,0,0
115431.55,78.2935,-964.543,0,0
115691.875,79.7522,-962.187,0,0
115952.2,81.3999,-960.167,0,0
116212.525,83.1006,-958.46,0,0
116472.85,84.7749,-957.212,0,0
116733.175,85.9893,-956.33,0,0
116993.5,86.6843,-955.363,0,0
117253.825,87.4842,-954.15,0,0
117514.15,88.2849,-953.174,0,0
117774.475,88.8144,-952.325,0,0
118034.8,89.0601,-951.21,0,0
118295.125,89.7131,-949.889,0,0
118555.45,90.6021,-949.119,0,0
118815.775,91.2519,-948.791,0,0
119076.1,91.4421,-948.737,0,0
119336.425,91.2525,-948.68,0,0
119596.75,90.7454,-948.662,0,0
119857.075,89.8998,-948.849,0,0
120117.4,88.4002,-948.777,0,0
120377.725,86.6023,-948.611,0,0
120638.05,84.153,-947.779,0,0
120898.375,81.8466,-946.451,0,0
121158.7,79.2561,-944.824,0,0
121419.025,76.8312,-942.206,0,0
121679.35,75.2825,-939.49,0,0
121939.675,73.8693,-937.009,0,0
122200.0,72.5014,-934.627,0,0
122460,70.9408,-932.182,0,0
122721,69.5051,-929.549,0,0
122981,68.1577,-926.84,0,0
123241,66.7502,-924.048,0,0
123502,65.4967,-921.029,0,0
123762,64.5543,-917.847,0,0
124022,63.8371,-914.857,0,0
124283,63.095,-912.042,0,0
124543,62.3868,-909.167,0,0
124803,61.8663,-906.423,0,0
125064,61.1632,-903.861,0,0
125324,60.2078,-901.244,0,0
125584,59.3007,-898.264,0,0
125845,58.6283,-895.316,0,0
126105,58.0394,-892.5,0,0
126365,57.2273,-889.63,0,0
126626,56.5359,-886.596,0,0
126886,56.0231,-883.565,0,0
127146,55.3805,-880.491,0,0
127406,54.9439,-877.332,0,0
127667,54.6554,-874.329,0,0
127927,54.4631,-871.348,0,0
128187,54.1923,-868.614,0,0
128448,53.7554,-865.774,0,0
128708,53.3915,-862.813,0,0
128968,53.0856,-859.841,0,0
129229,52.8972,-856.862,0,0
129489,52.7085,-854.093,0,0
129749,52.3126,-851.301,0,0
130010,51.989,-848.27,0,0
130270,51.8703,-845.295,0,0
130530,51.791,-842.496,0,0
130791,51.4695,-839.728,0,0
131051,51.1776,-836.841,0,0
131311,50.7734,-833.807,0,0
131572,50.6154,-830.635,0,0
131832,50.6091,-827.539,0,0
132092,50.5766,-824.599,0,0
132353,50.4876,-821.583,0,0
132613,50.4397,-818.468,0,0
132873,50.5278,-815.362,0,0
133134,50.6111,-812.306,0,0
133394,50.7765,-809.2,0,0
133654,50.9768,-806.009,0,0
133915,51.2829,-802.856,0,0
134175,51.8892,-799.675,0,0
134435,52.5587,-796.73,0,0
134696,53.2131,-793.989,0,0
134956,53.7108,-791.309,0,0
135216,54.1889,-788.413,0,0
135477,54.9725,-785.497,0,0
135737,55.9725,-782.7,0,0
135997,57.2409,-780.31,0,0
136258,58.3717,-778.381,0,0
136518,59.3625,-776.674,0,0
136778,60.0275,-775.364,0,0
137039,60.083,-774.274,0,0
137299,59.5402,-772.794,0,0
137559,58.9109,-770.794,0,0
137819,58.3993,-768.556,0,0
138080,58.0149,-766.261,0,0
138340.125,57.4865,-763.877,0,0
138600.45,56.9794,-761.292,0,0
138860.775,56.6057,-758.524,0,0
139121.1,56.3566,-755.614,0,0
139381.425,56.3659,-752.742,0,0
139641.75,56.4855,-749.974,0,0
139902.075,56.5897,-747.302,0,0
140162.4,56.7342,-744.706,0,0
140422.725,56.7455,-742.172,0,0
140683.05,56.7009,-739.543,0,0
140943.375,56.677,-736.846,0,0
141203.7,56.6783,-734.136,0,0
141464.025,56.6323,-731.358,0,0
141724.35,56.6472,-728.446,0,0
141984.675,56.831,-725.523,0,0
142245.0,57.0623,-722.632,0,0
142505.325,57.3509,-719.741,0,0
142765.65,57.7066,-716.873,0,0
143025.975,58.1238,-713.954,0,0
143286.3,58.7057,-711.185,0,0
143546.625,59.3051,-708.529,0,0
143806.95,59.8638,-706.002,0,0
144067.275,60.3458,-703.556,0,0
144327.6,60.6913,-701.15,0,0
144587.925,61.026,-698.705,0,0
144848.25,61.2274,-696.194,0,0
145108.575,61.5243,-693.637,0,0
145368.9,61.8376,-691.121,0,0
145629.225,62.0508,-688.617,0,0
145889.55,62.1889,-686.025,0,0
146149.875,62.3226,-683.297,0,0
146410.2,62.6137,-680.482,0,0
146670.525,63.0065,-677.763,0,0
146930.85,63.3665,-675.104,0,0
147191.175,63.7649,-672.475,0,0
147451.5,64.0264,-669.88,0,0
147711.825,64.2744,-667.107,0,0
147972.15,64.7746,-664.368,0,0
148232.475,65.2161,-661.846,0,0
148492.8,65.4674,-659.375,0,0
148753.125,65.5726,-656.838,0,0
149013.45,65.5611,-654.183,0,0
149273.775,65.5565,-651.327,0,0
149534.1,65.5956,-648.357,0,0
149794.425,65.6553,-645.345,0,0
150054.75,65.7445,-642.206,0,0
150315.075,65.9091,-638.943,0,0
150575.4,66.148,-635.65,0,0
150835.725,66.4609,-632.285,0,0
151096.05,66.8446,-628.857,0,0
151356.375,67.3111,-625.391,0,0
151616.7,67.8624,-621.876,0,0
151877.025,68.5012,-618.322,0,0
152137.35,69.2335,-614.77,0,0
152397.675,70.0512,-611.143,0,0
152658.0,71.0005,-607.545,0,0
152918.325,72.0398,-604.014,0,0
153178.65,73.0931,-600.477,0,0
153438.975,74.2075,-596.943,0,0
153699.3,75.3283,-593.399,0,0
153959.625,76.5302,-589.772,0,0
154219.95,77.8788,-586.096,0,0
154480,79.3357,-582.502,0,0
154741,80.9167,-578.814,0,0
155001,82.4564,-575.18,0,0
155261,84.2563,-571.654,0,0
155522,86.1586,-568.183,0,0
155782,88.0258,-564.712,0,0
156042,90.0771,-561.172,0,0
156303,92.1376,-557.706,0,0
156563,94.3414,-554.372,0,0
156823,96.7571,-551.046,0,0
157084,99.1636,-547.843,0,0
157344,101.74,-544.842,0,0
157604,104.463,-542.012,0,0
157864,107.032,-539.335,0,0
158125,109.562,-536.879,0,0
158385,112.264,-534.419,0,0
158645,114.734,-532.521,0,0
158906,116.905,-530.772,0,0
159166,118.686,-529.051,0,0
159426,120.077,-527.088,0,0
159687,121.417,-524.948,0,0
159947,122.437,-522.792,0,0
160207,123.182,-520.194,0,0
160468,123.867,-517.161,0,0
160728,124.681,-513.879,0,0
160988,125.429,-510.185,0,0
161249,126.252,-505.905,0,0
161509,127.59,-501.059,0,0
161769,129.407,-496.102,0,0
162030,131.737,-490.943,0,0
162290,134.538,-485.908,0,0
162550,137.659,-481.073,0,0
162811,140.862,-476.106,0,0
163071,144.369,-470.901,0,0
163331,148.442,-465.609,0,0
163592,153.233,-460.504,0,0
163852,158.505,-455.806,0,0
164112,163.911,-451.585,0,0
164373,169.184,-447.605,0,0
164633,174.663,-443.64,0,0
164893,180.238,-439.994,0,0
165154,185.628,-436.376,0,0
165414,191.02,-432.218,0,0
165674,196.903,-427.663,0,0
165935,203.559,-422.897,0,0
166195,211.063,-418.132,0,0
166455,219.599,-413.7,0,0
166716,228.77,-409.95,0,0
166976,238.509,-406.734,0,0
167236,248.879,-403.808,0,0
167497,260.118,-401.935,0,0
167757,271.642,-401.067,0,0
168017,283.434,-400.908,0,0
168277,295.791,-401.477,0,0
168538,308.557,-403.551,0,0
168798,321.468,-406.945,0,0
169058,334.241,-411.748,0,0
169319,346.426,-418.299,0,0
169579,357.212,-425.895,0,0
169839,367.299,-433.572,0,0
170100,377.352,-441.789,0,0
170360.075,387.254,-451.404,0,0
170620.4,396.052,-462.618,0,0
170880.725,403.033,-474.578,0,0
171141.05,408.691,-486.509,0,0
171401.375,413.58,-498.522,0,0
171661.7,417.571,-510.855,0,0
171922.025,420.894,-523.33,0,0
172182.35,423.673,-536.612,0,0
172442.675,424.953,-551.274,0,0
172703.0,423.583,-566.061,0,0
172963.325,420.464,-580.297,0,0
173223.65,415.396,-593.9,0,0
173483.975,408.64,-606.714,0,0
173744.3,399.599,-618.176,0,0
174004.625,389.061,-627.034,0,0
174264.95,378.307,-633.235,0,0
174525.275,367.842,-637.623,0,0
174785.6,357.366,-640.162,0,0
175045.925,347.765,-640.092,0,0
175306.25,340.592,-638.868,0,0
175566.575,334.109,-638.229,0,0
175826.9,327.672,-636.047,0,0
176087.225,323.333,-632.575,0,0
176347.55,320.929,-629.286,0,0
176607.875,319.943,-626.365,0,0
176868.2,320.49,-624.21,0,0
177128.525,321.955,-623.338,0,0
177388.85,323.651,-623.74,0,0
177649.175,325.527,-624.595,0,0
177909.5,328.554,-626.391,0,0
178169.825,332.218,-630.434,0,0
178430.15,335.182,-637.226,0,0
178690.475,335.595,-646.221,0,0
178950.8,333.046,-655.511,0,0
179211.125,327.912,-664.146,0,0
179471.45,320.812,-670.663,0,0
179731.775,313.754,-675.143,0,0
179992.1,307.006,-678.712,0,0
180252.425,300.492,-681.532,0,0
180512.75,294.796,-684.126,0,0
180773.075,288.888,-687.426,0,0
181033.4,282.23,-690.941,0,0
181293.725,274.142,-694.273,0,0
181554.05,265.007,-695.826,0,0
181814.375,256.653,-696.05,0,0
182074.7,248.29,-696.331,0,0
182335.025,239.214,-695.861,0,0
182595.35,229.962,-693.889,0,0
182855.675,221.348,-690.389,0,0
183116.0,214.051,-686.071,0,0
183376.325,207.943,-681.793,0,0
183636.65,202.134,-678.059,0,0
183896.975,196.073,-673.992,0,0
184157.3,190.362,-669.213,0,0
184417.625,185.463,-663.95,0,0
184677.95,181.541,-658.752,0,0
184938.275,178.116,-654.202,0,0
185198.6,174.528,-650.077,0,0
185458.925,170.684,-645.84,0,0
185719.25,166.683,-641.314,0,0
185979.575,162.879,-636.13,0,0
186239.9,159.711,-630.628,0,0
186500,156.984,-625.136,0,0
186761,154.707,-619.604,0,0
187021,152.777,-614.075,0,0
187281,151.346,-608.553,0,0
187542,150.339,-603.254,0,0
187802,149.711,-598.206,0,0
188062,149.433,-593.554,0,0
188322,149.292,-589.411,0,0
188583,149.118,-585.976,0,0
188843,148.212,-582.897,0,0
189103,146.757,-579.528,0,0
189364,145.141,-575.648,0,0
189624,143.812,-571.515,0,0
189884,142.454,-567.372,0,0
190145,141.21,-562.854,0,0
190405,140.302,-558.332,0,0
190665,139.34,-553.898,0,0
190926,138.286,-549.094,0,0
191186,137.69,-543.907,0,0
191446,137.734,-538.868,0,0
191707,137.908,-534.289,0,0
191967,137.918,-529.896,0,0
192227,137.713,-525.333,0,0
192488,137.636,-520.45,0,0
192748,137.895,-515.475,0,0
193008,138.409,-510.5,0,0
193269,139.131,-505.573,0,0
193529,140.035,-500.772,0,0
193789,140.993,-496.057,0,0
194050,141.972,-491.325,0,0
194310,143.105,-486.453,0,0
194570,144.492,-481.5,0,0
194831,146.229,-476.534,0,0
195091,148.392,-471.835,0,0
195351,150.631,-467.511,0,0
195612,152.796,-463.391,0,0
195872,155.019,-459.346,0,0
196132,157.324,-455.524,0,0
196393,159.454,-451.754,0,0
196653,161.653,-447.884,0,0
196913,164.164,-444.131,0,0
197174,166.734,-440.726,0,0
197434,169.11,-437.578,0,0
197694,171.198,-434.649,0,0
197955,172.858,-431.584,0,0
198215,174.37,-428.177,0,0
198475,175.995,-424.403,0,0
198735,177.852,-420.521,0,0
198996,179.818,-416.648,0,0
199256,181.681,-412.713,0,0
199516,183.548,-408.56,0,0
199777,185.593,-404.019,0,0
200037,188.039,-399.352,0,0
200297,190.75,-394.663,0,0
200558,193.762,-390.01,0,0
200818,197.018,-385.421,0,0
201078,200.252,-380.985,0,0
201339,203.526,-376.293,0,0
201599,207.115,-371.32,0,0
201859,211.042,-366.389,0,0
202120,215.404,-361.302,0,0
202380.025,220.243,-356.265,0,0
202640.35,225.499,-351.546,0,0
202900.675,230.998,-347.121,0,0
203161.0,236.647,-342.781,0,0
203421.325,242.562,-338.589,0,0
203681.65,248.743,-334.595,0,0
203941.975,255.071,-330.82,0,0
204202.3,261.596,-327.025,0,0
204462.625,268.498,-323.266,0,0
204722.95,275.752,-319.733,0,0
204983.275,283.358,-316.21,0,0
205243.6,291.742,-312.878,0,0
205503.925,301.007,-310.246,0,0
205764.25,310.666,-308.731,0,0
206024.575,320.254,-308.322,0,0
206284.9,329.54,-308.802,0,0
206545.225,338.199,-309.903,0,0
206805.55,346.446,-311.491,0,0
207065.875,353.859,-313.451,0,0
207326.2,360.624,-315.273,0,0
207586.525,366.818,-316.925,0,0
207846.85,372.548,-317.977,0,0
208107.175,378.374,-318.016,0,0
208367.5,384.663,-317.503,0,0
208627.825,391.803,-316.391,0,0
208888.15,400.368,-314.967,0,0
209148.475,410.455,-314.294,0,0
209408.8,421.534,-314.77,0,0
209669.125,433.186,-316.431,0,0
209929.45,445.16,-319.24,0,0
210189.775,457.864,-323.403,0,0
210450.1,470.882,-329.653,0,0
210710.425,483.008,-338.616,0,0
210970.75,492.734,-348.887,0,0
211231.075,500.916,-359.135,0,0
211491.4,508.204,-369.552,0,0
211751.725,514.509,-380.346,0,0
212012.05,519.636,-391.282,0,0
212272.375,523.721,-401.865,0,0
212532.7,527.409,-412.025,0,0
212793.025,531.049,-422.639,0,0
213053.35,533.329,-434.081,0,0
213313.675,533.652,-444.86,0,0
213574.0,533.574,-453.995,0,0
213834.325,534.013,-462.59,0,0
214094.65,534.65,-471.487,0,0
214354.975,534.616,-480.863,0,0
214615.3,533.498,-489.826,0,0
214875.625,532.147,-498.126,0,0
215135.95,530.551,-506.333,0,0
215396.275,528.375,-513.919,0,0
215656.6,526.118,-520.711,0,0
215916.925,524.435,-526.814,0,0
216177.25,523.68,-533.054,0,0
216437.575,523.344,-540.412,0,0
216697.9,522.361,-548.996,0,0
216958.225,519.902,-558.232,0,0
217218.55,515.819,-567.13,0,0
217478.875,510.546,-574.872,0,0
217739.2,505.19,-581.361,0,0
217999.525,500.055,-587.531,0,0
218259.85,494.636,-593.619,0,0
218520,488.659,-599.411,0,0
218780,482.23,-604.715,0,0
219041,475.125,-609.44,0,0
219301,467.384,-613.158,0,0
219561,459.523,-615.561,0,0
219822,451.937,-616.871,0,0
220082,444.743,-617.243,0,0
220342,438.135,-616.836,0,0
220603,432.15,-615.826,0,0
220863,426.72,-614.384,0,0
221123,421.841,-612.457,0,0
221384,417.687,-610.163,0,0
221644,414.352,-607.727,0,0
221904,411.713,-605.274,0,0
222165,409.575,-602.897,0,0
222425,408.207,-600.55,0,0
222685,407.435,-598.704,0,0
222946,406.685,-597.373,0,0
223206,406.045,-596.145,0,0
223466,405.727,-595.096,0,0
223727,405.508,-594.363,0,0
223987,405.145,-593.939,0,0
224247,404.652,-593.589,0,0
224508,404.01,-593.002,0,0
224768,403.299,-592.077,0,0
225028,402.944,-590.743,0,0
225289,403.202,-589.015,0,0
225549,404.321,-587.242,0,0
225809,406.292,-585.95,0,0
226070,408.778,-585.405,0,0
226330,411.481,-585.657,0,0
226590,414.05,-586.584,0,0
226851,416.266,-587.931,0,0
227111,418.383,-589.343,0,0
227371,420.495,-590.865,0,0
227632,422.917,-592.473,0,0
227892,425.714,-594.559,0,0
228152,428.632,-597.465,0,0
228413,431.241,-601.054,0,0
228673,433.505,-605.274,0,0
228933,435.251,-609.95,0,0
229193,436.371,-614.856,0,0
229454,436.88,-619.727,0,0
229714,437.316,-624.187,0,0
229974,438.092,-628.879,0,0
230235,439.053,-634.248,0,0
230495,439.303,-640.774,0,0
230755,438.32,-647.593,0,0
231016,436.356,-654.046,0,0
231276,433.869,-659.981,0,0
231536,431.244,-665.526,0,0
231797,428.69,-670.951,0,0
232057,426.107,-676.608,0,0
232317,423.212,-682.779,0,0
232578,419.467,-689.277,0,0
232838,414.732,-695.571,0,0
233098,409.522,-701.529,0,0
233359,403.736,-707.407,0,0
233619,397.052,-713.24,0,0
233879,389.048,-718.44,0,0
234140,380.36,-722.305,0,0
234400,371.545,-725.129,0,0
234660.3,362.591,-727.109,0,0
234920.625,353.362,-728.043,0,0
235180.95,344.274,-727.841,0,0
235441.275,335.654,-726.385,0,0
235701.6,327.868,-723.959,0,0
235961.925,321.061,-721.105,0,0
236222.25,315.218,-718.097,0,0
236482.575,310.299,-715.274,0,0
236742.9,305.889,-713.015,0,0
237003.225,301.312,-711.343,0,0
237263.55,296.295,-709.674,0,0
237523.875,291.142,-707.605,0,0
237784.2,286.059,-705.258,0,0
238044.525,280.907,-702.588,0,0
238304.85,275.75,-699.539,0,0
238565.175,270.603,-695.684,0,0
238825.5,265.989,-690.974,0,0
239085.825,262.418,-685.707,0,0
239346.15,260.076,-680.222,0,0
239606.475,258.838,-675.05,0,0
239866.8,258.597,-670.818,0,0
240127.125,258.868,-667.526,0,0
240387.45,259.127,-665.299,0,0
240647.775,258.899,-663.916,0,0
240908.1,257.971,-663.031,0,0
241168.425,256.519,-662.1,0,0
241428.75,254.631,-661.069,0,0
241689.075,252.399,-659.815,0,0
241949.4,249.934,-658.502,0,0
242209.725,247.086,-656.889,0,0
242470.05,243.938,-654.591,0,0
242730.375,241.072,-651.665,0,0
242990.7,238.605,-648.299,0,0
243251.025,236.639,-644.819,0,0
243511.35,234.808,-641.328,0,0
243771.675,233.084,-637.453,0,0
244032.0,232.019,-633.201,0,0
244292.325,231.651,-628.849,0,0
244552.65,232.172,-624.886,0,0
244812.975,233.204,-621.569,0,0
245073.3,234.343,-618.977,0,0
245333.625,235.17,-616.972,0,0
245593.95,235.865,-615.13,0,0
245854.275,236.317,-613.573,0,0
246114.6,236.461,-612.104,0,0
246374.925,236.488,-610.596,0,0
246635.25,236.367,-608.963,0,0
246895.575,236.228,-607.34,0,0
247155.9,235.94,-605.579,0,0
247416.225,235.705,-603.653,0,0
247676.55,235.577,-601.566,0,0
247936.875,235.666,-599.437,0,0
248197.2,235.814,-597.358,0,0
248457.525,236.049,-595.245,0,0
248717.85,236.38,-593.091,0,0
248978.175,236.864,-590.915,0,0
249238.5,237.557,-588.732,0,0
249498.825,238.318,-586.676,0,0
249759.15,239.171,-584.531,0,0
250019.475,240.268,-582.392,0,0
250279.8,241.611,-580.38,0,0
250540,243.118,-578.521,0,0
250800,244.828,-576.75,0,0
251061,246.696,-575.214,0,0
251321,248.607,-573.904,0,0
251581,250.58,-572.665,0,0
251842,252.744,-571.477,0,0
252102,255.247,-570.481,0,0
252362,257.996,-569.924,0,0
252623,260.778,-569.835,0,0
252883,263.583,-570.181,0,0
253143,266.31,-570.995,0,0
253404,268.871,-572.262,0,0
253664,271.094,-573.955,0,0
253924,272.968,-575.985,0,0
254185,274.359,-578.276,0,0
254445,275.291,-580.676,0,0
254705,275.849,-583.023,0,0
254966,276.087,-585.316,0,0
255226,275.877,-587.714,0,0
255486,275.4,-589.959,0,0
255747,274.539,-592.009,0,0
256007,273.38,-593.794,0,0
256267,272.091,-595.331,0,0
256528,270.708,-596.689,0,0
256788,269.145,-597.856,0,0
257048,267.434,-598.767,0,0
257309,265.642,-599.375,0,0
257569,263.913,-599.666,0,0
257829,262.268,-599.722,0,0
258090,260.72,-599.592,0,0
258350,259.373,-599.212,0,0
258610,258.261,-598.817,0,0
258871,257.362,-598.468,0,0
259131,256.537,-598.334,0,0
259391,255.566,-598.299,0,0
259651,254.467,-598.317,0,0
259912,253.012,-598.204,0,0
260172,251.486,-597.731,0,0
260432,249.999,-596.867,0,0
260693,248.775,-595.77,0,0
260953,247.683,-594.528,0,0
261213,246.821,-593.141,0,0
261474,246.128,-591.586,0,0
261734,245.705,-589.888,0,0
261994,245.614,-588.085,0,0
262255,246.001,-586.217,0,0
262515,246.849,-584.503,0,0
262775,248.031,-583.068,0,0
263036,249.592,-582.004,0,0
263296,251.354,-581.422,0,0
263556,253.111,-581.336,0,0
263817,254.803,-581.646,0,0
264077,256.365,-582.28,0,0
264337,257.71,-583.325,0,0
264598,258.728,-584.7,0,0
264858,259.375,-586.136,0,0
265118,259.627,-587.722,0,0
265379,259.437,-589.129,0,0
265639,259.064,-590.226,0,0
265899,258.673,-591.074,0,0
266160,258.397,-591.84,0,0
266420,258.192,-592.457,0,0
266680.25,258.12,-593.184,0,0
266940.575,258.163,-594.092,0,0
267200.9,257.976,-595.203,0,0
267461.225,257.625,-596.358,0,0
267721.55,257.038,-597.473,0,0
267981.875,256.319,-598.552,0,0
268242.2,255.321,-599.407,0,0
268502.525,254.296,-600.006,0,0
268762.85,253.288,-600.385,0,0
269023.175,252.348,-600.5,0,0
269283.5,251.591,-600.365,0,0
269543.825,251.086,-600.073,0,0
269804.15,250.95,-599.641,0,0
270064.475,251.282,-599.331,0,0
270324.8,251.985,-599.136,0,0
270585.125,252.969,-599.263,0,0
270845.45,254.145,-599.684,0,0
271105.775,255.588,-600.391,0,0
271366.1,257.299,-601.499,0,0
271626.425,259.368,-603.147,0,0
271886.75,261.611,-605.602,0,0
272147.075,263.756,-609.12,0,0
272407.4,265.379,-613.67,0,0
272667.725,266.123,-619.066,0,0
272928.05,265.697,-624.948,0,0
273188.375,264.271,-630.914,0,0
273448.7,261.799,-636.915,0,0
273709.025,258.354,-642.755,0,0
273969.35,253.891,-648.239,0,0
274229.675,248.61,-653.124,0,0
274490.0,242.712,-657.21,0,0
274750.325,236.395,-660.766,0,0
275010.65,229.463,-663.725,0,0
275270.975,222.032,-665.869,0,0
275531.3,214.212,-666.957,0,0
275791.625,206.383,-666.975,0,0
276051.95,198.858,-666.128,0,0
276312.275,191.517,-664.429,0,0
276572.6,184.607,-662.147,0,0
276832.925,178.101,-659.27,0,0
277093.25,171.936,-655.841,0,0
277353.575,166.261,-651.878,0,0
277613.9,161.162,-647.448,0,0
277874.225,156.734,-642.691,0,0
278134.55,152.973,-637.805,0,0
278394.875,149.833,-632.86,0,0
278655.2,147.23,-627.935,0,0
278915.525,145.13,-623.201,0,0
279175.85,143.43,-618.657,0,0
279436.175,141.969,-614.274,0,0
279696.5,140.793,-610.02,0,0
279956.825,139.792,-605.792,0,0
280217.15,139.244,-601.624,0,0
280477.475,139.056,-597.742,0,0
280737.8,139.165,-594.173,0,0
280998.125,139.433,-591.098,0,0
281258.45,139.647,-588.441,0,0
281518.775,139.647,-586.053,0,0
281779.1,139.406,-583.789,0,0
282039.425,139.031,-581.529,0,0
282299.75,138.492,-579.255,0,0
282560,137.81,-576.899,0,0
282820,137.054,-574.326,0,0
283081,136.345,-571.511,0,0
283341,135.826,-568.522,0,0
283601,135.503,-565.39,0,0
283862,135.432,-562.209,0,0
284122,135.639,-559.006,0,0
284382,136.144,-555.889,0,0
284643,136.893,-552.932,0,0
284903,137.791,-550.156,0,0
285163,138.824,-547.567,0,0
285424,139.939,-545.184,0,0
285684,141.105,-542.981,0,0
285944,142.307,-540.98,0,0
286205,143.509,-539.128,0,0
286465,144.708,-537.463,0,0
286725,145.854,-535.959,0,0
286986,146.886,-534.626,0,0
287246,147.786,-533.424,0,0
287506,148.481,-532.274,0,0
287767,148.992,-531.076,0,0
288027,149.378,-529.771,0,0
288287,149.727,-528.3,0,0
288548,150.115,-526.678,0,0
288808,150.544,-524.979,0,0
289068,151.09,-523.212,0,0
289329,151.749,-521.383,0,0
289589,152.506,-519.578,0,0
289849,153.302,-517.759,0,0
290109,154.196,-515.89,0,0
290370,155.25,-513.938,0,0
290630,156.532,-512,0,0
290890,158.022,-510.245,0,0
291151,159.62,-508.686,0,0
291411,161.224,-507.329,0,0
291671,162.782,-506.088,0,0
291932,164.269,-504.946,0,0
292192,165.709,-503.774,0,0
292452,167.168,-502.584,0,0
292713,168.746,-501.437,0,0
292973,170.383,-500.356,0,0
293233,172.047,-499.377,0,0
293494,173.702,-498.452,0,0
293754,175.347,-497.586,0,0
294014,177.003,-496.737,0,0
294275,178.639,-495.925,0,0
294535,180.316,-495.081,0,0
294795,182.077,-494.204,0,0
295056,183.983,-493.35,0,0
295316,185.99,-492.607,0,0
295576,188.069,-491.949,0,0
295837,190.194,-491.392,0,0
296097,192.358,-490.932,0,0
296357,194.596,-490.493,0,0
296618,196.928,-490.14,0,0
296878,199.368,-489.897,0,0
297138,201.941,-489.755,0,0
297399,204.614,-489.837,0,0
297659,207.332,-490.124,0,0
297919,210.054,-490.633,0,0
298180,212.699,-491.367,0,0
298440,215.25,-492.191,0,0
298700.2,217.77,-493.117,0,0
298960.525,220.322,-494.054,0,0
299220.85,222.931,-495.127,0,0
299481.175,225.576,-496.347,0,0
299741.5,228.335,-497.702,0,0
300001.825,231.122,-499.4,0,0
300262.15,233.869,-501.208,0,0
300522.475,236.651,-503.207,0,0
300782.8,239.397,-505.53,0,0
301043.125,242.229,-508.108,0,0
301303.45,245.051,-510.934,0,0
301563.775,247.895,-514.194,0,0
301824.1,250.714,-517.845,0,0
302084.425,253.398,-522.146,0,0
302344.75,255.662,-527.039,0,0
302605.075,257.342,-532.512,0,0
302865.4,258.349,-538.365,0,0
303125.725,258.467,-544.407,0,0
303386.05,257.766,-550.406,0,0
303646.375,256.306,-556.14,0,0
303906.7,254.271,-561.518,0,0
304167.025,251.818,-566.464,0,0
304427.35,249.027,-571.065,0,0
304687.675,245.954,-575.266,0,0
304948.0,242.714,-579.14,0,0
305208.325,239.309,-582.731,0,0
305468.65,235.785,-586.048,0,0
305728.975,232.011,-589.152,0,0
305989.3,228.027,-591.928,0,0
306249.625,223.875,-594.374,0,0
306509.95,219.626,-596.402,0,0
306770.275,215.366,-598.046,0,0
307030.6,211.15,-599.369,0,0
307290.925,206.982,-600.424,0,0
307551.25,202.873,-601.232,0,0
307811.575,198.805,-601.814,0,0
308071.9,194.796,-602.163,0,0
308332.225,190.799,-602.272,0,0
308592.55,186.879,-602.149,0,0
308852.875,183.026,-601.76,0,0
309113.2,179.302,-601.089,0,0
309373.525,175.758,-600.207,0,0
309633.85,172.433,-599.106,0,0
309894.175,169.315,-597.854,0,0
310154.5,166.519,-596.552,0,0
310414.825,163.893,-595.24,0,0
310675.15,161.475,-593.935,0,0
310935.475,159.166,-592.654,0,0
311195.8,156.95,-591.409,0,0
311456.125,154.855,-590.206,0,0
311716.45,152.802,-589.011,0,0
311976.775,150.807,-587.819,0,0
312237.1,148.858,-586.654,0,0
312497.425,146.904,-585.487,0,0
312757.75,144.975,-584.283,0,0
313018.075,143.06,-583.065,0,0
313278.4,141.17,-581.769,0,0
313538.725,139.296,-580.411,0,0
313799.05,137.486,-578.965,0,0
314059.375,135.709,-577.439,0,0
314319.7,134.03,-575.817,0,0
314580,132.443,-574.115,0,0
314840,131.042,-572.337,0,0
315101,129.805,-570.564,0,0
315361,128.788,-568.804,0,0
315621,127.834,-567.066,0,0
315882,127.003,-565.42,0,0
316142,126.357,-563.826,0,0
316402,125.632,-562.36,0,0
316663,125.049,-561.063,0,0
316923,124.459,-559.771,0,0
317183,123.817,-558.461,0,0
317444,123.352,-557.314,0,0
317704,122.738,-556.137,0,0
317964,122.187,-554.99,0,0
318225,121.557,-553.972,0,0
318485,121.078,-552.815,0,0
318745,120.575,-551.78,0,0
319006,120.024,-550.663,0,0
319266,119.603,-549.614,0,0
319526,119.172,-548.641,0,0
319787,118.733,-547.718,0,0
320047,118.441,-546.795,0,0
320307,118.032,-545.985,0,0
320567,117.622,-545.104,0,0
320828,117.132,-544.375,0,0
321088,116.68,-543.633,0,0
321348,116.243,-542.869,0,0
321609,115.733,-542.142,0,0
321869,115.204,-541.467,0,0
322129,114.844,-540.782,0,0
322390,114.31,-540,0,0
322650,113.796,-539.324,0,0
322910,113.311,-538.621,0,0
323171,112.825,-538.048,0,0
323431,112.23,-537.415,0,0
323691,111.642,-536.692,0,0
323952,111.024,-536.106,0,0
324212,110.457,-535.285,0,0
324472,109.79,-534.596,0,0
324733,109.266,-533.769,0,0
324993,108.738,-532.896,0,0
325253,108.287,-532.021,0,0
325514,107.933,-531.269,0,0
325774,107.611,-530.603,0,0
326034,107.297,-529.906,0,0
326295,106.894,-529.411,0,0
326555,106.547,-528.846,0,0
326815,106.169,-528.384,0,0
327076,105.711,-527.863,0,0
327336,105.22,-527.47,0,0
327596,104.712,-527.051,0,0
327857,104.155,-526.565,0,0
328117,103.518,-526.133,0,0
328377,102.919,-525.697,0,0
328638,102.226,-525.236,0,0
328898,101.554,-524.695,0,0
329158,100.906,-524.15,0,0
329419,100.173,-523.66,0,0
329679,99.5006,-523.128,0,0
329939,98.8743,-522.541,0,0
330200,98.1063,-521.984,0,0
330460,97.415,-521.469,0,0
330720.15,96.7439,-520.928,0,0
330980.475,95.9986,-520.33,0,0
331240.8,95.326,-519.878,0,0
331501.125,94.5569,-519.352,0,0
331761.45,93.7553,-518.829,0,0
332021.775,92.9115,-518.263,0,0
332282.1,92.0547,-517.728,0,0
332542.425,91.0814,-517.129,0,0
332802.75,90.2123,-516.529,0,0
333063.075,89.2126,-515.894,0,0
333323.4,88.1904,-515.218,0,0
333583.725,87.1871,-514.448,0,0
333844.05,86.1717,-513.651,0,0
334104.375,85.1386,-512.703,0,0
334364.7,84.1969,-511.782,0,0
334625.025,83.2215,-510.823,0,0
334885.35,82.2747,-509.853,0,0
335145.675,81.3304,-508.857,0,0
335406.0,80.3734,-507.758,0,0
335666.325,79.4883,-506.716,0,0
335926.65,78.5821,-505.61,0,0
336186.975,77.6963,-504.456,0,0
336447.3,76.9013,-503.276,0,0
336707.625,76.068,-502.012,0,0
336967.95,75.2858,-500.801,0,0
337228.275,74.549,-499.46,0,0
337488.6,73.8302,-498.159,0,0
337748.925,73.2034,-496.853,0,0
338009.25,72.5755,-495.527,0,0
338269.575,71.9853,-494.226,0,0
338529.9,71.4473,-492.917,0,0
338790.225,70.9386,-491.617,0,0
339050.55,70.4023,-490.31,0,0
339310.875,69.8786,-488.974,0,0
339571.2,69.4127,-487.619,0,0
339831.525,69.0248,-486.233,0,0
340091.85,68.6026,-484.896,0,0
340352.175,68.181,-483.579,0,0
340612.5,67.8316,-482.098,0,0
340872.825,67.5093,-480.739,0,0
341133.15,67.2204,-479.313,0,0
341393.475,66.994,-477.899,0,0
341653.8,66.7684,-476.476,0,0
341914.125,66.6006,-475.13,0,0
342174.45,66.4998,-473.674,0,0
342434.775,66.468,-472.309,0,0
342695.1,66.359,-470.927,0,0
342955.425,66.3876,-469.638,0,0
343215.75,66.4294,-468.27,0,0
343476.075,66.518,-466.999,0,0
343736.4,66.6009,-465.7,0,0
343996.725,66.7966,-464.444,0,0
344257.05,66.9682,-463.257,0,0
344517.375,67.1495,-462.135,0,0
344777.7,67.3776,-461.05,0,0
345038.025,67.6198,-460.017,0,0
345298.35,67.8207,-458.921,0,0
345558.675,68.0326,-458.007,0,0
345819.0,68.2528,-457.015,0,0
346079.325,68.479,-456.207,0,0
346339.65,68.6687,-455.363,0,0
346599.975,68.782,-454.545,0,0
346860,68.9173,-453.815,0,0
347121,68.9259,-453.089,0,0
347381,69.0154,-452.328,0,0
347641,68.9447,-451.571,0,0
347902,68.8647,-450.762,0,0
348162,68.7448,-450.004,0,0
348422,68.6134,-449.172,0,0
348683,68.4147,-448.288,0,0
348943,68.2758,-447.354,0,0
349203,68.1465,-446.386,0,0
349464,67.9926,-445.362,0,0
349724,67.8843,-444.359,0,0
349984,67.8224,-443.355,0,0
350245,67.7208,-442.307,0,0
350505,67.6496,-441.242,0,0
350765,67.5717,-440.141,0,0
351025,67.4855,-438.966,0,0
351286,67.5188,-437.746,0,0
351546,67.601,-436.504,0,0
351806,67.7954,-435.273,0,0
352067,68.0354,-434.033,0,0
352327,68.3308,-432.845,0,0
352587,68.6848,-431.726,0,0
352848,69.0813,-430.578,0,0
353108,69.4764,-429.509,0,0
353368,69.9849,-428.524,0,0
353629,70.4607,-427.568,0,0
353889,71.0137,-426.649,0,0
354149,71.5087,-425.815,0,0
354410,71.9696,-425,0,0
354670,72.5123,-424.246,0,0
354930,73.0491,-423.495,0,0
355191,73.5845,-422.848,0,0
355451,74.1165,-422.232,0,0
355711,74.6106,-421.719,0,0
355972,75.0265,-421.321,0,0
356232,75.4147,-420.983,0,0
356492,75.6816,-420.652,0,0
356753,75.824,-420.313,0,0
357013,75.9033,-419.979,0,0
357273,75.9691,-419.546,0,0
357534,75.8984,-419.152,0,0
357794,75.785,-418.602,0,0
358054,75.5984,-418.115,0,0
358315,75.4358,-417.473,0,0
358575,75.2785,-416.766,0,0
358835,75.0684,-415.978,0,0
359096,74.9366,-415.093,0,0
359356,74.768,-414.207,0,0
359616,74.7328,-413.252,0,0
359877,74.7668,-412.213,0,0
360137,74.7478,-411.21,0,0
360397,74.8924,-410.109,0,0
360658,75.0247,-409.014,0,0
360918,75.2418,-407.964,0,0
361178,75.5106,-406.917,0,0
361438,75.8593,-405.873,0,0
361699,76.227,-404.845,0,0
361959,76.6697,-403.877,0,0
362219,77.1065,-402.948,0,0
362480,77.5579,-401.999,0,0
362740.1,78.0361,-401.087,0,0
363000.425,78.5494,-400.236,0,0
363260.75,79.0659,-399.404,0,0
363521.075,79.553,-398.578,0,0
363781.4,80.0515,-397.719,0,0
364041.725,80.6072,-396.907,0,0
364302.05,81.2144,-396.046,0,0
364562.375,81.8633,-395.258,0,0
364822.7,82.5563,-394.514,0,0
365083.025,83.306,-393.813,0,0
365343.35,84.0709,-393.144,0,0
365603.675,84.8403,-392.611,0,0
365864.0,85.6301,-392.159,0,0
366124.325,86.3346,-391.788,0,0
366384.65,86.9994,-391.391,0,0
366644.975,87.618,-391.065,0,0
366905.3,88.1784,-390.725,0,0
367165.625,88.7559,-390.397,0,0
367425.95,89.3278,-390.077,0,0
367686.275,89.8576,-389.775,0,0
367946.6,90.4313,-389.517,0,0
368206.925,90.935,-389.27,0,0
368467.25,91.4709,-389.005,0,0
368727.575,91.9266,-388.833,0,0
368987.9,92.5029,-388.672,0,0
369248.225,92.9816,-388.583,0,0
369508.55,93.4139,-388.522,0,0
369768.875,93.8358,-388.498,0,0
370029.2,94.2077,-388.583,0,0
370289.525,94.4295,-388.7,0,0
370549.85,94.5126,-388.782,0,0
370810.175,94.4645,-388.86,0,0
371070.5,94.2997,-388.89,0,0
371330.825,94.1258,-388.805,0,0
371591.15,93.8919,-388.61,0,0
371851.475,93.5447,-388.292,0,0
372111.8,93.2662,-387.881,0,0
372372.125,93.0006,-387.337,0,0
372632.45,92.8017,-386.723,0,0
372892.775,92.6681,-386.002,0,0
373153.1,92.6376,-385.299,0,0
373413.425,92.6597,-384.528,0,0
373673.75,92.7158,-383.73,0,0
373934.075,92.8586,-382.993,0,0
374194.4,93.0549,-382.263,0,0
374454.725,93.2686,-381.566,0,0
374715.05,93.5627,-380.913,0,0
374975.375,93.8097,-380.245,0,0
375235.7,94.1104,-379.621,0,0
375496.025,94.4528,-378.968,0,0
375756.35,94.7127,-378.393,0,0
376016.675,95.078,-377.851,0,0
376277.0,95.3116,-377.382,0,0
376537.325,95.5847,-376.877,0,0
376797.65,95.7493,-376.346,0,0
377057.975,95.9061,-375.815,0,0
377318.3,96.0754,-375.154,0,0
377578.625,96.2334,-374.469,0,0
377838.95,96.455,-373.749,0,0
378099.275,96.6948,-373.006,0,0
378359.6,97.0403,-372.198,0,0
378619.925,97.4228,-371.457,0,0
378880,97.8495,-370.698,0,0
379141,98.3187,-369.971,0,0
379401,98.8329,-369.291,0,0
379661,99.3301,-368.647,0,0
379922,99.8898,-368.004,0,0
380182,100.399,-367.408,0,0
380442,100.95,-366.833,0,0
380703,101.49,-366.283,0,0
380963,102.013,-365.772,0,0
381223,102.514,-365.232,0,0
381483,103.025,-364.697,0,0
381744,103.51,-364.175,0,0
382004,104.021,-363.64,0,0
382264,104.582,-363.046,0,0
382525,105.183,-362.461,0,0
382785,105.741,-361.904,0,0
383045,106.381,-361.377,0,0
383306,107.033,-360.867,0,0
383566,107.672,-360.369,0,0
383826,108.365,-359.89,0,0
384087,109.06,-359.453,0,0
384347,109.756,-359.057,0,0
384607,110.457,-358.694,0,0
384868,111.139,-358.341,0,0
385128,111.791,-358.047,0,0
385388,112.395,-357.766,0,0
385649,112.986,-357.483,0,0
385909,113.573,-357.129,0,0
386169,114.099,-356.756,0,0
386430,114.702,-356.402,0,0
386690,115.323,-356.006,0,0
386950,115.939,-355.66,0,0
387211,116.534,-355.342,0,0
387471,117.15,-354.998,0,0
387731,117.673,-354.65,0,0
387992,118.284,-354.238,0,0
388252,118.863,-353.759,0,0
388512,119.461,-353.218,0,0
388773,120.254,-352.707,0,0
389033,121.074,-352.173,0,0
389293,121.973,-351.716,0,0
389554,122.988,-351.293,0,0
389814,123.963,-350.948,0,0
390074,125.039,-350.651,0,0
390335,126.07,-350.549,0,0
390595,127.077,-350.445,0,0
390855,128.051,-350.348,0,0
391116,129.005,-350.341,0,0
391376,129.892,-350.336,0,0
391636,130.769,-350.339,0,0
391896,131.622,-350.342,0,0
392157,132.476,-350.332,0,0
392417,133.337,-350.309,0,0
392677,134.188,-350.323,0,0
392938,135.034,-350.339,0,0
393198,135.828,-350.374,0,0
393458,136.628,-350.401,0,0
393719,137.407,-350.402,0,0
393979,138.25,-350.343,0,0
394239,139.062,-350.264,0,0
394500,139.927,-350.133,0,0
394760.05,140.85,-349.991,0,0
395020.375,141.858,-349.868,0,0
395280.7,142.971,-349.733,0,0
395541.025,144.148,-349.642,0,0
395801.35,145.406,-349.608,0,0
396061.675,146.769,-349.571,0,0
396322.0,148.22,-349.69,0,0
396582.325,149.787,-349.824,0,0
396842.65,151.371,-350.136,0,0
397102.975,153.028,-350.567,0,0
397363.3,154.671,-351.184,0,0
397623.625,156.376,-351.928,0,0
397883.95,158.076,-352.786,0,0
398144.275,159.761,-353.807,0,0
398404.6,161.369,-355,0,0
398664.925,162.982,-356.409,0,0
398925.25,164.529,-357.941,0,0
399185.575,165.999,-359.648,0,0
399445.9,167.33,-361.593,0,0
399706.225,168.428,-363.709,0,0
399966.55,169.387,-365.946,0,0
400006.6,169.506,-366.293,0,0