File: Accelerated corrosion test data/2025-10-15_12-55-04/sample_1.csv
Frequency (Hz),Impedance (ohms),Phase (Radians),Temperature (C),Humidity (%)
10000.0,246.342,-12195.3,0,0
10260.325,246.594,-11881.6,0,0
10520.65,244.772,-11603.3,0,0
10780.975,233.644,-11318.4,0,0
11041.3,232.984,-11059.8,0,0
11301.625,215.692,-10801.5,0,0
11561.95,214.473,-10557.9,0,0
11822.275,213.259,-10319.5,0,0
12082.6,235.982,-10089.7,0,0
12342.925,218.457,-9915.96,0,0
12603.25,198.554,-9702.59,0,0
12863.575,191.683,-9499.72,0,0
13123.9,201.384,-9307.58,0,0
13384.225,189.555,-9138.83,0,0
13644.55,186.142,-8957.65,0,0
13904.875,185.701,-8780.05,0,0
14165.2,193.858,-8645.11,0,0
14425.525,213.864,-8475.92,0,0
14685.8,207.237,-8311.08,0,0
14946.175,178.802,-8209.5,0,0
15206.5,188.214,-8046.75,0,0
15466.825,175.292,-7933.15,0,0
15727.15,174.777,-7799.33,0,0
15987.5,164.013,-7671.9,0,0
16247.8,161.952,-7545.98,0,0
16508.125,157.637,-7422.98,0,0
16768.45,161.293,-7305.59,0,0
17028.775,164.764,-7198.5,0,0
17289.1,159.263,-7095.21,0,0
17549.425,154.641,-6992.74,0,0
17809.75,147.895,-6889.08,0,0
18070.075,152.935,-6787.56,0,0
18330.4,144.221,-6691.71,0,0
18590.725,140.443,-6598.18,0,0
18851.05,144.267,-6500.66,0,0
19111.375,134.928,-6418.99,0,0
19371.7,136.037,-6327.06,0,0
19632.025,133.397,-6238.36,0,0
19892.35,140.962,-6151.96,0,0
20152.675,140.82,-6065.59,0,0
20413.0,158.08,-5976.66,0,0
20673.3,174.678,-5935.66,0,0
20933.65,152.104,-5866.27,0,0
21193.975,164.865,-5805.05,0,0
21454.3,145.398,-5731.13,0,0
21714.625,138.781,-5659.24,0,0
21974.9,142.669,-5578.23,0,0
22235.275,176.639,-5535.58,0,0
22495.6,141.374,-5493.09,0,0
22755.925,129.309,-5424.16,0,0
23016.25,125.817,-5357.29,0,0
23276.6,123.483,-5297.09,0,0
23536.9,115.483,-5235.18,0,0
23797.225,113.806,-5174.22,0,0
24057.55,119.601,-5114.08,0,0
24317.875,114.88,-5065.49,0,0
24578.2,110.98,-5005.44,0,0
24838.525,112.556,-4955.16,0,0
25098.85,112.01,-4901.63,0,0
25359.175,109.721,-4852.75,0,0
25619.5,105.354,-4800.82,0,0
25879.8,105.084,-4749.95,0,0
26140.1,104.4,-4700.45,0,0
26400.5,103.589,-4651.03,0,0
26660.8,106.42,-4600.55,0,0
26921.1,115.226,-4552.67,0,0
27181.4,122.639,-4520.34,0,0
27441.8,111.65,-4486.03,0,0
27702.1,104.489,-4437.1,0,0
27962.4,112.78,-4387.11,0,0
28222.7,111.014,-4349.17,0,0
28483.1,121.881,-4306.43,0,0
28743.4,130.888,-4287.64,0,0
29003.7,118.259,-4249.95,0,0
29264,118.033,-4216.85,0,0
29524.4,107.781,-4183.05,0,0
29784.7,105.602,-4140.16,0,0
30045,101.942,-4109.31,0,0
30305.3,99.8786,-4070.06,0,0
30565.7,97.2832,-4031.38,0,0
30826,101.139,-3995.73,0,0
31086.3,103.513,-3967.69,0,0
31346.6,101.124,-3938.81,0,0
31607,94.3071,-3901.36,0,0
31867.3,99.2586,-3868.82,0,0
32127.6,98.0833,-3838.25,0,0
32387.9,97.4057,-3811.37,0,0
32648.3,93.9693,-3779.97,0,0
32908.6,95.9839,-3751.65,0,0
33168.9,91.0737,-3723.33,0,0
33429.2,88.4827,-3694.54,0,0
33689.6,86.1137,-3664.95,0,0
33949.9,85.6532,-3633.87,0,0
34210.2,86.304,-3607.79,0,0
34470.5,84.0928,-3580.98,0,0
34730.9,82.5422,-3552.71,0,0
34991.2,80.9346,-3525.59,0,0
35251.5,80.57,-3499.04,0,0
35511.8,79.335,-3472.58,0,0
35772.2,79.1096,-3447.19,0,0
36032.5,77.8878,-3421.95,0,0
36292.8,77.418,-3396.38,0,0
36553.1,77.0129,-3371.45,0,0
36813.5,76.0572,-3346.97,0,0
37073.8,76.5505,-3323.23,0,0
37334.1,75.5981,-3299.58,0,0
37594.4,75.1064,-3276.3,0,0
37854.8,74.1144,-3253.6,0,0
38115.1,73.8239,-3230.83,0,0
38375.4,73.71,-3207.92,0,0
38635.7,73.4235,-3186.33,0,0
38896.1,72.5245,-3164.12,0,0
39156.4,72.1244,-3142.05,0,0
39416.7,72.4437,-3121.87,0,0
39677,70.9558,-3100.62,0,0
39937.4,70.7377,-3079.55,0,0
40197.7,71.0222,-3058.93,0,0
40458,70.5047,-3038.55,0,0
40718.3,71.0161,-3018.14,0,0
40978.7,72.0133,-2998.82,0,0
41239,71.7878,-2980.98,0,0
41499.3,72.2709,-2962.45,0,0
41759.6,70.595,-2943.79,0,0
42020,70.1522,-2924.59,0,0
42280.275,69.984,-2906.58,0,0
42540.6,70.8661,-2888.38,0,0
42800.925,69.845,-2871.57,0,0
43061.25,69.1916,-2853.54,0,0
43321.575,69.0717,-2836.71,0,0
43581.9,68.5352,-2819.34,0,0
43842.225,67.8504,-2801.95,0,0
44102.55,67.5955,-2784.25,0,0
44362.875,68.3147,-2767.28,0,0
44623.2,68.791,-2751.94,0,0
44883.525,68.2391,-2736.04,0,0
45143.85,68.1656,-2720.24,0,0
45404.175,68.3036,-2704.24,0,0
45664.5,67.4357,-2690.02,0,0
45924.825,66.5644,-2674.41,0,0
46185.15,66.2855,-2658.91,0,0
46445.475,65.2462,-2643.65,0,0
46705.8,65.0534,-2628.24,0,0
46966.125,64.7162,-2614.01,0,0
47226.45,64.231,-2598.81,0,0
47486.775,64.4655,-2584.38,0,0
47747.1,63.8247,-2570.28,0,0
48007.425,63.3696,-2555.93,0,0
48267.75,63.5199,-2542.02,0,0
48528.075,62.2936,-2528.64,0,0
48788.4,61.4083,-2514.2,0,0
49048.725,61.4453,-2500.2,0,0
49309.05,61.4031,-2486.19,0,0
49569.375,61.3395,-2473.37,0,0
49829.7,60.7664,-2460.39,0,0
50090.025,59.9428,-2446.94,0,0
50350.35,59.4722,-2433.72,0,0
50610.675,59.1327,-2420.39,0,0
50871.0,59.0937,-2407.54,0,0
51131.325,59.1266,-2394.87,0,0
51391.65,59.2265,-2382.39,0,0
51651.975,58.5678,-2370.19,0,0
51912.3,58.4044,-2357.86,0,0
52172.625,57.9115,-2345.36,0,0
52432.95,58.2551,-2333.23,0,0
52693.275,58.0943,-2321.27,0,0
52953.6,57.809,-2309.33,0,0
53213.925,57.7109,-2297.67,0,0
53474.25,57.4862,-2286.23,0,0
53734.575,57.2136,-2274.6,0,0
53994.9,57.1332,-2263.34,0,0
54255.225,56.6797,-2252.42,0,0
54515.55,56.1764,-2241.09,0,0
54775.875,55.9446,-2229.74,0,0
55036.2,55.6875,-2218.43,0,0
55296.525,55.6918,-2207.64,0,0
55556.85,55.6294,-2196.98,0,0
55817.175,55.3693,-2186.48,0,0
56077.5,54.8622,-2175.59,0,0
56337.825,54.6725,-2164.8,0,0
56598.15,54.8039,-2154.33,0,0
56858.475,54.7988,-2144.02,0,0
57118.8,54.5749,-2133.73,0,0
57379.125,54.4207,-2123.31,0,0
57639.45,54.6331,-2113.25,0,0
57899.775,54.4119,-2103.42,0,0
58160.1,54.4514,-2093.45,0,0
58420.4,54.4669,-2083.7,0,0
58680.7,54.2028,-2074.19,0,0
58941.1,54.2014,-2064.16,0,0
59201.4,54.3998,-2054.56,0,0
59461.7,54.2681,-2045.54,0,0
59722,54.0948,-2036.01,0,0
59982.4,54.1348,-2026.72,0,0
60242.7,53.9917,-2017.46,0,0
60503,54.1892,-2008.13,0,0
60763.3,54.3883,-1999.6,0,0
61023.7,54.0129,-1991.08,0,0
61284,53.4528,-1982.11,0,0
61544.3,53.1896,-1973.03,0,0
61804.6,53.391,-1964.11,0,0
62065,53.0633,-1955.7,0,0
62325.3,52.6227,-1946.86,0,0
62585.6,52.5603,-1938.14,0,0
62845.9,52.4462,-1929.27,0,0
63106.3,52.5107,-1920.69,0,0
63366.6,52.4363,-1912.18,0,0
63626.9,52.4603,-1903.67,0,0
63887.2,52.4185,-1895.01,0,0
64147.6,52.4004,-1886.79,0,0
64407.9,52.5839,-1878.46,0,0
64668.2,52.9393,-1870.03,0,0
64928.5,53.3985,-1861.83,0,0
65188.9,53.9078,-1854.09,0,0
65449.2,54.6686,-1846.47,0,0
65709.5,55.1331,-1839.41,0,0
65969.8,54.9305,-1832.4,0,0
66230.2,54.8316,-1825.11,0,0
66490.5,54.7668,-1817.81,0,0
66750.8,54.6006,-1810.6,0,0
67011.1,54.2316,-1803.63,0,0
67271.5,53.9662,-1795.86,0,0
67531.8,54.1107,-1788.4,0,0
67792.1,54.4132,-1781.12,0,0
68052.4,54.3367,-1774.87,0,0
68312.8,53.6725,-1767.66,0,0
68573.1,53.2485,-1760.16,0,0
68833.4,53.5975,-1753.21,0,0
69093.7,53.2537,-1746.69,0,0
69354.1,52.8726,-1739.76,0,0
69614.4,52.8073,-1733.12,0,0
69874.7,52.0826,-1726.42,0,0
70135,51.7519,-1719.67,0,0
70395.4,51.2814,-1712.74,0,0
70655.7,50.8994,-1705.59,0,0
70916,50.4837,-1698.68,0,0
71176.3,50.6374,-1691.89,0,0
71436.7,50.2753,-1685.15,0,0
71697,49.9899,-1678.81,0,0
71957.3,49.2804,-1672.03,0,0
72217.6,48.6401,-1665.25,0,0
72478,48.478,-1658.25,0,0
72738.3,48.2063,-1651.24,0,0
72998.6,48.249,-1644.44,0,0
73258.9,48.3153,-1637.9,0,0
73519.3,48.1666,-1631.4,0,0
73779.6,48.1046,-1624.72,0,0
74039.9,48.0521,-1618.16,0,0
74300.225,48.0888,-1611.65,0,0
74560.55,48.1477,-1605.22,0,0
74820.875,48.3739,-1598.7,0,0
75081.2,48.458,-1592.49,0,0
75341.525,48.5805,-1586.36,0,0
75601.85,48.5069,-1580.09,0,0
75862.175,48.6871,-1573.76,0,0
76122.5,48.9263,-1567.61,0,0
76382.825,49.2215,-1561.5,0,0
76643.15,49.4785,-1555.57,0,0
76903.475,49.6001,-1549.6,0,0
77163.8,49.7929,-1543.71,0,0
77424.125,50.1148,-1537.89,0,0
77684.45,50.3579,-1532.16,0,0
77944.775,50.4759,-1526.34,0,0
78205.1,50.8325,-1520.47,0,0
78465.425,51.3999,-1514.94,0,0
78725.75,51.8068,-1509.81,0,0
78986.075,51.8445,-1504.67,0,0
79246.4,51.8883,-1499.56,0,0
79506.725,51.6779,-1494.41,0,0
79767.05,51.2691,-1489,0,0
80027.375,51.3335,-1483.43,0,0
80287.7,51.1562,-1478.17,0,0
80548.025,50.7364,-1472.78,0,0
80808.35,50.5499,-1467.19,0,0
81068.675,50.3738,-1461.57,0,0
81329.0,50.4359,-1455.86,0,0
81589.325,50.5607,-1450.33,0,0
81849.65,50.798,-1444.83,0,0
82109.975,50.9586,-1439.52,0,0
82370.3,51.1257,-1434.21,0,0
82630.625,51.1556,-1428.9,0,0
82890.95,51.2331,-1423.5,0,0
83151.275,51.5748,-1418.11,0,0
83411.6,51.9356,-1412.9,0,0
83671.925,52.1597,-1407.84,0,0
83932.25,52.4139,-1402.63,0,0
84192.575,52.9671,-1397.47,0,0
84452.9,53.039,-1392.33,0,0
84713.225,53.4531,-1387.38,0,0
84973.55,53.7325,-1382.26,0,0
85233.875,54.4552,-1377.34,0,0
85494.2,54.9717,-1372.74,0,0
85754.525,55.3135,-1368.22,0,0
86014.85,55.5529,-1363.64,0,0
86275.175,55.7498,-1359.04,0,0
86535.5,55.8254,-1354.29,0,0
86795.825,55.8903,-1349.8,0,0
87056.15,56.0021,-1345,0,0
87316.475,56.3665,-1340.23,0,0
87576.8,56.4844,-1335.96,0,0
87837.125,56.346,-1331.35,0,0
88097.45,56.2624,-1326.43,0,0
88357.775,56.2679,-1321.46,0,0
88618.1,56.8069,-1316.35,0,0
88878.425,57.2142,-1311.47,0,0
89138.75,57.6288,-1306.67,0,0
89399.075,58.1009,-1301.84,0,0
89659.4,58.7184,-1296.91,0,0
89919.725,59.6657,-1292.32,0,0
90180,60.4578,-1287.99,0,0
90440.4,60.8052,-1283.44,0,0
90700.7,61.3531,-1278.69,0,0
90961,62.4314,-1273.68,0,0
91221.3,63.9998,-1269.14,0,0
91481.7,65.4081,-1264.95,0,0
91742,66.7409,-1261.13,0,0
92002.3,67.7494,-1257.54,0,0
92262.6,68.9475,-1253.62,0,0
92523,70.2768,-1249.77,0,0
92783.3,72.1488,-1246.27,0,0
93043.6,73.914,-1243.4,0,0
93303.9,75.1416,-1240.74,0,0
93564.3,76.7258,-1238.26,0,0
93824.6,78.9128,-1236.95,0,0
94084.9,78.8976,-1237.66,0,0
94345.2,76.4118,-1236.96,0,0
94605.6,73.6956,-1233.79,0,0
94865.9,72.4447,-1230.43,0,0
95126.2,70.6358,-1227.09,0,0
95386.5,69.3705,-1223.31,0,0
95646.9,67.9055,-1219.35,0,0
95907.2,66.6933,-1214.98,0,0
96167.5,66.0402,-1210.19,0,0
96427.8,66.2264,-1205.9,0,0
96688.2,65.9308,-1202.37,0,0
96948.5,65.179,-1198.48,0,0
97208.8,64.6232,-1194.28,0,0
97469.1,64.2456,-1190.1,0,0
97729.5,64.0086,-1185.78,0,0
97989.8,63.9796,-1181.58,0,0
98250.1,64.0054,-1177.46,0,0
98510.4,64.1853,-1173.57,0,0
98770.8,64.109,-1169.87,0,0
99031.1,63.845,-1166.11,0,0
99291.4,63.6571,-1162.1,0,0
99551.7,63.4344,-1158.2,0,0
99812.1,63.3027,-1154.1,0,0
100072,63.2989,-1150.05,0,0
100333,63.2712,-1146.13,0,0
100593,63.203,-1142.06,0,0
100853,63.3425,-1138.07,0,0
101114,63.2923,-1134.01,0,0
101374,63.2953,-1130.07,0,0
101634,63.2273,-1125.92,0,0
101895,63.1241,-1121.71,0,0
102155,63.0926,-1117.16,0,0
102415,63.4194,-1112.48,0,0
102676,64.1205,-1107.74,0,0
102936,65.2389,-1103.39,0,0
103196,66.2425,-1099.25,0,0
103457,67.2285,-1095.25,0,0
103717,68.2144,-1091.18,0,0
103977,69.349,-1086.98,0,0
104238,71.0746,-1082.9,0,0
104498,72.9792,-1079.7,0,0
104758,74.3164,-1076.78,0,0
105019,75.2473,-1073.9,0,0
105279,76.009,-1070.48,0,0
105539,77.1102,-1066.96,0,0
105800,78.5632,-1063.65,0,0
106060,80.0192,-1060.49,0,0
106320.175,81.5949,-1057.62,0,0
106580.5,83.0853,-1054.98,0,0
106840.825,84.3623,-1052.57,0,0
107101.15,85.5306,-1050.02,0,0
107361.475,86.835,-1047.59,0,0
107621.8,88.0914,-1045.53,0,0
107882.125,88.9646,-1043.55,0,0
108142.45,89.7117,-1041.34,0,0
108402.775,90.5377,-1039.13,0,0
108663.1,91.4521,-1036.97,0,0
108923.425,92.1988,-1035.02,0,0
109183.75,93.0096,-1032.95,0,0
109444.075,93.8831,-1031.4,0,0
109704.4,94.1003,-1029.94,0,0
109964.725,94.2206,-1028.43,0,0
110225.05,93.8917,-1026.72,0,0
110485.375,93.3221,-1024.72,0,0
110745.7,92.8635,-1022.1,0,0
111006.025,93.1296,-1019.31,0,0
111266.35,93.0545,-1016.46,0,0
111526.675,93.8613,-1014.04,0,0
111787.0,94.3517,-1011.86,0,0
112047.325,94.9899,-1009.96,0,0
112307.65,95.32,-1008,0,0
112567.975,95.663,-1006.2,0,0
112828.3,95.7952,-1004.61,0,0
113088.625,95.8458,-1003.01,0,0
113348.95,95.9114,-1001.23,0,0
113609.275,95.6623,-999.724,0,0
113869.6,95.1575,-998.182,0,0
114129.925,94.4325,-996.43,0,0
114390.25,93.8117,-994.416,0,0
114650.575,93.2093,-992.331,0,0
114910.9,92.6957,-990.478,0,0
115171.225,91.9297,-988.596,0,0
115431.55,91.0728,-986.535,0,0
115691.875,89.9959,-984.479,0,0
115952.2,88.8933,-982.05,0,0
116212.525,88.0062,-979.418,0,0
116472.85,87.2168,-976.788,0,0
116733.175,86.4534,-974.224,0,0
116993.5,85.5607,-971.673,0,0
117253.825,84.59,-968.879,0,0
117514.15,83.7547,-965.938,0,0
117774.475,82.97,-962.852,0,0
118034.8,82.3417,-959.715,0,0
118295.125,81.9624,-956.564,0,0
118555.45,81.5357,-953.525,0,0
118815.775,81.1847,-950.388,0,0
119076.1,80.9138,-947.216,0,0
119336.425,80.8904,-944.078,0,0
119596.75,80.7863,-941.043,0,0
119857.075,80.8999,-937.952,0,0
120117.4,81.0755,-935.067,0,0
120377.725,81.2102,-932.368,0,0
120638.05,81.388,-929.715,0,0
120898.375,81.5603,-927.26,0,0
121158.7,81.4268,-924.895,0,0
121419.025,81.1262,-922.378,0,0
121679.35,80.848,-919.836,0,0
121939.675,80.4393,-917.228,0,0
122200.0,80.0148,-914.434,0,0
122460,79.7401,-911.503,0,0
122721,79.4997,-908.6,0,0
122981,79.3461,-905.749,0,0
123241,79.0749,-902.87,0,0
123502,78.9135,-899.834,0,0
123762,78.8334,-896.833,0,0
124022,78.7701,-893.811,0,0
124283,78.8446,-890.775,0,0
124543,78.9292,-887.835,0,0
124803,79.0506,-884.846,0,0
125064,79.2016,-882.024,0,0
125324,79.2489,-879.035,0,0
125584,79.4494,-876.025,0,0
125845,79.7514,-873.094,0,0
126105,79.9725,-870.269,0,0
126365,80.1982,-867.349,0,0
126626,80.5355,-864.562,0,0
126886,80.805,-861.71,0,0
127146,81.1031,-858.841,0,0
127406,81.4317,-855.94,0,0
127667,81.7538,-853.066,0,0
127927,82.109,-850.149,0,0
128187,82.6011,-847.233,0,0
128448,83.1705,-844.302,0,0
128708,83.808,-841.62,0,0
128968,84.3118,-838.998,0,0
129229,84.689,-836.261,0,0
129489,85.1687,-833.368,0,0
129749,85.706,-830.437,0,0
130010,86.5703,-827.413,0,0
130270,87.6099,-824.588,0,0
130530,88.7204,-822.011,0,0
130791,89.7507,-819.583,0,0
131051,90.7643,-817.23,0,0
131311,91.7872,-814.974,0,0
131572,92.7787,-812.951,0,0
131832,93.6011,-810.965,0,0
132092,94.3527,-808.95,0,0
132353,94.9506,-807.015,0,0
132613,95.4074,-805.026,0,0
132873,95.9942,-802.846,0,0
133134,96.6017,-800.768,0,0
133394,97.1865,-798.751,0,0
133654,97.5932,-796.689,0,0
133915,98.0593,-794.524,0,0
134175,98.6309,-792.349,0,0
134435,99.2729,-790.276,0,0
134696,99.8141,-788.262,0,0
134956,100.24,-786.138,0,0
135216,100.767,-784.016,0,0
135477,101.251,-781.947,0,0
135737,101.85,-779.851,0,0
135997,102.318,-777.699,0,0
136258,102.95,-775.477,0,0
136518,103.68,-773.171,0,0
136778,104.607,-771.053,0,0
137039,105.623,-769.088,0,0
137299,106.567,-767.252,0,0
137559,107.656,-765.621,0,0
137819,108.636,-764.315,0,0
138080,109.248,-763.191,0,0
138340.125,109.529,-762.007,0,0
138600.45,109.749,-760.637,0,0
138860.775,109.816,-759.355,0,0
139121.1,109.639,-757.837,0,0
139381.425,109.508,-756.055,0,0
139641.75,109.552,-754.246,0,0
139902.075,109.587,-752.554,0,0
140162.4,109.49,-750.745,0,0
140422.725,109.367,-748.901,0,0
140683.05,109.225,-746.892,0,0
140943.375,109.133,-744.79,0,0
141203.7,109.159,-742.598,0,0
141464.025,109.293,-740.445,0,0
141724.35,109.447,-738.419,0,0
141984.675,109.32,-736.361,0,0
142245.0,109.365,-733.945,0,0
142505.325,109.734,-731.598,0,0
142765.65,109.985,-729.499,0,0
143025.975,110.192,-727.316,0,0
143286.3,110.337,-725.034,0,0
143546.625,110.599,-722.736,0,0
143806.95,110.976,-720.372,0,0
144067.275,111.519,-718.08,0,0
144327.6,111.987,-715.974,0,0
144587.925,112.244,-713.84,0,0
144848.25,112.723,-711.384,0,0
145108.575,113.422,-709.166,0,0
145368.9,114.036,-707.075,0,0
145629.225,114.635,-705.051,0,0
145889.55,115.185,-702.995,0,0
146149.875,115.827,-700.992,0,0
146410.2,116.328,-699.118,0,0
146670.525,116.763,-697.082,0,0
146930.85,117.384,-695.026,0,0
147191.175,118.067,-693.231,0,0
147451.5,118.583,-691.525,0,0
147711.825,118.887,-689.839,0,0
147972.15,119.024,-688.104,0,0
148232.475,119.039,-686.07,0,0
148492.8,119.218,-683.824,0,0
148753.125,119.584,-681.574,0,0
149013.45,119.989,-679.259,0,0
149273.775,120.689,-676.977,0,0
149534.1,121.631,-674.988,0,0
149794.425,122.392,-673.452,0,0
150054.75,122.79,-672.01,0,0
150315.075,122.87,-670.499,0,0
150575.4,122.798,-668.882,0,0
150835.725,122.51,-667.146,0,0
151096.05,121.991,-665.109,0,0
151356.375,121.503,-662.607,0,0
151616.7,121.331,-659.899,0,0
151877.025,121.343,-657.272,0,0
152137.35,121.31,-654.681,0,0
152397.675,121.109,-651.883,0,0
152658.0,121.01,-648.805,0,0
152918.325,121.144,-645.454,0,0
153178.65,121.618,-642.033,0,0
153438.975,122.328,-638.737,0,0
153699.3,123.089,-635.478,0,0
153959.625,123.883,-632.231,0,0
154219.95,124.85,-628.826,0,0
154480,125.987,-625.435,0,0
154741,127.359,-622.094,0,0
155001,128.841,-618.874,0,0
155261,130.279,-615.73,0,0
155522,131.768,-612.329,0,0
155782,133.604,-608.898,0,0
156042,135.843,-605.531,0,0
156303,138.356,-602.506,0,0
156563,140.854,-599.787,0,0
156823,143.263,-597.119,0,0
157084,145.906,-594.5,0,0
157344,148.84,-592.154,0,0
157604,151.687,-590.331,0,0
157864,154.168,-588.844,0,0
158125,156.228,-587.179,0,0
158385,158.457,-585.316,0,0
158645,160.657,-583.742,0,0
158906,162.35,-582.123,0,0
159166,163.965,-579.937,0,0
159426,165.793,-577.301,0,0
159687,168.226,-574.336,0,0
159947,171.248,-571.421,0,0
160207,174.956,-568.919,0,0
160468,178.719,-567.001,0,0
160728,182.629,-565.295,0,0
160988,186.754,-563.988,0,0
161249,190.986,-563.154,0,0
161509,195.082,-562.821,0,0
161769,198.997,-562.89,0,0
162030,202.744,-563.37,0,0
162290,206.011,-564.273,0,0
162550,208.755,-565.231,0,0
162811,211.187,-566.087,0,0
163071,213.271,-566.806,0,0
163331,215.203,-567.255,0,0
163592,217.214,-567.383,0,0
163852,219.547,-567.545,0,0
164112,221.875,-567.868,0,0
164373,224.323,-568.352,0,0
164633,226.637,-569.028,0,0
164893,228.845,-569.599,0,0
165154,231.409,-570.281,0,0
165414,233.941,-571.315,0,0
165674,236.398,-572.559,0,0
165935,238.962,-574.215,0,0
166195,241.15,-576.451,0,0
166455,242.703,-578.834,0,0
166716,243.809,-581.147,0,0
166976,244.714,-583.255,0,0
167236,245.641,-585.351,0,0
167497,246.378,-587.751,0,0
167757,246.663,-590.218,0,0
168017,246.626,-592.7,0,0
168277,246.153,-595.149,0,0
168538,245.301,-597.401,0,0
168798,244.15,-599.386,0,0
169058,242.813,-601.255,0,0
169319,241.106,-602.875,0,0
169579,239.057,-604.169,0,0
169839,236.734,-604.94,0,0
170100,234.431,-605.172,0,0
170360.075,232.298,-604.849,0,0
170620.4,230.622,-604.187,0,0
170880.725,229.188,-603.683,0,0
171141.05,227.517,-603.085,0,0
171401.375,225.953,-601.995,0,0
171661.7,224.888,-600.681,0,0
171922.025,224.099,-599.551,0,0
172182.35,223.45,-598.372,0,0
172442.675,223.082,-597.322,0,0
172703.0,222.778,-596.597,0,0
172963.325,222.227,-596.055,0,0
173223.65,221.461,-595.404,0,0
173483.975,220.608,-594.558,0,0
173744.3,219.819,-593.485,0,0
174004.625,219.1,-592.304,0,0
174264.95,218.594,-590.951,0,0
174525.275,218.366,-589.682,0,0
174785.6,218.145,-588.54,0,0
175045.925,217.964,-587.508,0,0
175306.25,217.764,-586.229,0,0
175566.575,217.992,-585.024,0,0
175826.9,218.359,-584.235,0,0
176087.225,218.52,-583.824,0,0
176347.55,218.274,-583.432,0,0
176607.875,217.923,-582.852,0,0
176868.2,217.585,-582.158,0,0
177128.525,217.317,-581.41,0,0
177388.85,217.122,-580.676,0,0
177649.175,217.047,-580.058,0,0
177909.5,216.998,-579.753,0,0
178169.825,216.614,-579.664,0,0
178430.15,215.838,-579.53,0,0
178690.475,214.955,-579.146,0,0
178950.8,213.985,-578.76,0,0
179211.125,212.837,-578.215,0,0
179471.45,211.716,-577.488,0,0
179731.775,210.644,-576.792,0,0
179992.1,209.303,-576.305,0,0
180252.425,207.536,-575.455,0,0
180512.75,205.78,-574.189,0,0
180773.075,204.246,-572.601,0,0
181033.4,202.812,-571.051,0,0
181293.725,201.349,-569.262,0,0
181554.05,200.05,-567.342,0,0
181814.375,198.894,-565.432,0,0
182074.7,197.633,-563.59,0,0
182335.025,196.32,-561.544,0,0
182595.35,195.073,-559.327,0,0
182855.675,193.956,-557.018,0,0
183116.0,192.893,-554.728,0,0
183376.325,191.785,-552.354,0,0
183636.65,190.668,-549.765,0,0
183896.975,189.64,-547.063,0,0
184157.3,188.653,-544.212,0,0
184417.625,187.815,-541.231,0,0
184677.95,187.079,-538.13,0,0
184938.275,186.379,-534.73,0,0
185198.6,186.114,-531.127,0,0
185458.925,186.354,-527.676,0,0
185719.25,186.671,-524.58,0,0
185979.575,186.95,-521.582,0,0
186239.9,187.275,-518.553,0,0
186500,187.609,-515.674,0,0
186761,187.899,-512.637,0,0
187021,188.252,-509.654,0,0
187281,188.654,-506.492,0,0
187542,189.316,-503.356,0,0
187802,190.093,-500.33,0,0
188062,190.924,-497.523,0,0
188322,191.573,-494.721,0,0
188583,192.236,-491.853,0,0
188843,193.012,-488.854,0,0
189103,193.789,-485.913,0,0
189364,194.692,-482.992,0,0
189624,195.533,-480.13,0,0
189884,196.38,-477.231,0,0
190145,197.165,-474.172,0,0
190405,198.108,-471.138,0,0
190665,199.108,-468.105,0,0
190926,200.211,-464.986,0,0
191186,201.206,-461.909,0,0
191446,202.245,-458.807,0,0
191707,203.194,-455.506,0,0
191967,204.426,-451.984,0,0
192227,205.829,-448.437,0,0
192488,207.447,-444.95,0,0
192748,209.102,-441.531,0,0
193008,210.88,-438.117,0,0
193269,212.748,-434.658,0,0
193529,214.728,-431.291,0,0
193789,216.789,-427.977,0,0
194050,218.819,-424.606,0,0
194310,220.883,-421.264,0,0
194570,222.963,-417.901,0,0
194831,225.21,-414.352,0,0
195091,227.59,-410.779,0,0
195351,230.099,-407.118,0,0
195612,232.864,-403.542,0,0
195872,235.793,-400.09,0,0
196132,238.626,-396.778,0,0
196393,241.43,-393.268,0,0
196653,244.537,-389.631,0,0
196913,247.837,-385.967,0,0
197174,251.295,-382.424,0,0
197434,254.829,-378.886,0,0
197694,258.655,-375.357,0,0
197955,262.658,-371.89,0,0
198215,266.912,-368.615,0,0
198475,271.201,-365.473,0,0
198735,275.564,-362.419,0,0
198996,279.964,-359.663,0,0
199256,284.281,-356.837,0,0
199516,288.471,-353.953,0,0
199777,292.792,-350.753,0,0
200037,297.471,-347.425,0,0
200297,302.517,-344.121,0,0
200558,307.655,-340.881,0,0
200818,313.158,-337.736,0,0
201078,318.953,-334.565,0,0
201339,324.891,-331.492,0,0
201599,331.123,-328.344,0,0
201859,337.776,-325.315,0,0
202120,344.97,-322.347,0,0
202380.025,352.621,-319.548,0,0
202640.35,360.943,-317.367,0,0
202900.675,369.504,-315.756,0,0
203161.0,378.003,-314.726,0,0
203421.325,386.417,-313.865,0,0
203681.65,395.282,-313.043,0,0
203941.975,404.537,-312.427,0,0
204202.3,414.536,-312.539,0,0
204462.625,424.976,-313.55,0,0
204722.95,435.497,-315.528,0,0
204983.275,445.834,-318.447,0,0
205243.6,456.224,-322.438,0,0
205503.925,465.886,-327.125,0,0
205764.25,475.097,-332.562,0,0
206024.575,483.663,-338.58,0,0
206284.9,491.698,-345.065,0,0
206545.225,499.278,-351.885,0,0
206805.55,506.39,-359.272,0,0
207065.875,512.558,-367.199,0,0
207326.2,517.902,-375.094,0,0
207586.525,522.602,-382.952,0,0
207846.85,526.961,-390.813,0,0
208107.175,530.763,-398.913,0,0
208367.5,533.741,-407.191,0,0
208627.825,536.01,-415.043,0,0
208888.15,538.087,-422.77,0,0
209148.475,539.555,-430.54,0,0
209408.8,540.423,-438.103,0,0
209669.125,540.768,-445.647,0,0
209929.45,540.464,-453.077,0,0
210189.775,539.047,-460.178,0,0
210450.1,536.802,-466.147,0,0
210710.425,534.332,-471.05,0,0
210970.75,531.955,-475.04,0,0
211231.075,529.783,-478.201,0,0
211491.4,527.978,-480.881,0,0
211751.725,526.35,-483.093,0,0
212012.05,524.833,-484.891,0,0
212272.375,523.479,-485.904,0,0
212532.7,522.839,-486.15,0,0
212793.025,523.202,-486.045,0,0
213053.35,524.591,-485.992,0,0
213313.675,526.591,-486.459,0,0
213574.0,529.182,-487.287,0,0
213834.325,532.115,-488.74,0,0
214094.65,534.955,-490.848,0,0
214354.975,537.553,-493.227,0,0
214615.3,540.104,-495.659,0,0
214875.625,542.674,-498.208,0,0
215135.95,545.182,-501.003,0,0
215396.275,547.677,-503.792,0,0
215656.6,550.414,-506.724,0,0
215916.925,552.985,-510.15,0,0
216177.25,555.178,-513.726,0,0
216437.575,557.04,-517.013,0,0
216697.9,559.039,-520.029,0,0
216958.225,561.168,-522.978,0,0
217218.55,563.396,-525.908,0,0
217478.875,565.892,-528.921,0,0
217739.2,568.532,-532.109,0,0
217999.525,571.155,-535.508,0,0
218259.85,573.775,-538.863,0,0
218520,576.418,-542.362,0,0
218780,579.2,-545.637,0,0
219041,582.398,-548.991,0,0
219301,585.978,-552.51,0,0
219561,589.854,-556.495,0,0
219822,593.904,-560.844,0,0
220082,598.206,-565.889,0,0
220342,602.292,-571.436,0,0
220603,606.113,-577.311,0,0
220863,610.034,-583.439,0,0
221123,614.131,-590.071,0,0
221384,618.242,-597.373,0,0
221644,622.042,-605.435,0,0
221904,625.41,-614.1,0,0
222165,628.201,-623.398,0,0
222425,630.369,-633.165,0,0
222685,631.802,-643.233,0,0
222946,632.611,-653.61,0,0
223206,632.55,-664.09,0,0
223466,631.728,-674.42,0,0
223727,630.484,-684.512,0,0
223987,628.627,-694.68,0,0
224247,626.345,-704.629,0,0
224508,623.737,-714.383,0,0
224768,620.639,-724.032,0,0
225028,617.188,-733.926,0,0
225289,613.243,-743.319,0,0
225549,608.7,-752.738,0,0
225809,603.859,-761.878,0,0
226070,598.45,-770.891,0,0
226330,592.808,-779.445,0,0
226590,586.856,-787.939,0,0
226851,580.398,-796.121,0,0
227111,573.901,-804.185,0,0
227371,566.611,-812.092,0,0
227632,558.977,-819.852,0,0
227892,550.629,-827.125,0,0
228152,541.704,-833.861,0,0
228413,532.368,-839.717,0,0
228673,522.716,-844.914,0,0
228933,513.25,-849.611,0,0
229193,503.533,-853.341,0,0
229454,494.033,-856.469,0,0
229714,484.586,-859.33,0,0
229974,475.093,-861.535,0,0
230235,465.827,-863.115,0,0
230495,456.758,-864.155,0,0
230755,447.834,-864.805,0,0
231016,439.374,-864.909,0,0
231276,431.056,-864.645,0,0
231536,423.284,-864.28,0,0
231797,415.839,-863.551,0,0
232057,408.585,-862.641,0,0
232317,401.777,-861.492,0,0
232578,395.339,-860.275,0,0
232838,389.205,-858.996,0,0
233098,383.399,-857.663,0,0
233359,377.786,-856.534,0,0
233619,372.343,-855.391,0,0
233879,366.974,-854.269,0,0
234140,361.761,-853.134,0,0
234400,356.9,-852.016,0,0
234660.3,352.167,-850.926,0,0
234920.625,347.442,-850.195,0,0
235180.95,342.712,-849.537,0,0
235441.275,337.797,-848.792,0,0
235701.6,332.743,-848.023,0,0
235961.925,327.636,-847.014,0,0
236222.25,322.579,-845.986,0,0
236482.575,317.534,-844.769,0,0
236742.9,312.662,-843.36,0,0
237003.225,307.865,-841.985,0,0
237263.55,303.05,-840.535,0,0
237523.875,298.277,-838.856,0,0
237784.2,293.622,-837.132,0,0
238044.525,289.145,-835.326,0,0
238304.85,284.661,-833.437,0,0
238565.175,280.125,-831.586,0,0
238825.5,275.833,-829.43,0,0
239085.825,271.674,-827.241,0,0
239346.15,267.649,-825.091,0,0
239606.475,263.462,-822.776,0,0
239866.8,259.767,-820.46,0,0
240127.125,256.023,-818.064,0,0
240387.45,252.452,-815.463,0,0
240647.775,249.055,-813.149,0,0
240908.1,245.805,-810.734,0,0
241168.425,242.499,-808.518,0,0
241428.75,239.239,-806.053,0,0
241689.075,236.031,-803.625,0,0
241949.4,232.914,-801.199,0,0
242209.725,229.975,-798.705,0,0
242470.05,227.153,-796.14,0,0
242730.375,224.421,-793.663,0,0
242990.7,221.827,-791.204,0,0
243251.025,219.312,-788.812,0,0
243511.35,216.923,-786.426,0,0
243771.675,214.528,-784.23,0,0
244032.0,212.133,-781.972,0,0
244292.325,209.646,-779.808,0,0
244552.65,207.358,-777.581,0,0
244812.975,204.915,-775.484,0,0
245073.3,202.656,-773.332,0,0
245333.625,200.248,-771.168,0,0
245593.95,197.811,-768.954,0,0
245854.275,195.521,-766.728,0,0
246114.6,193.072,-764.547,0,0
246374.925,190.893,-762.261,0,0
246635.25,188.489,-759.889,0,0
246895.575,186.17,-757.446,0,0
247155.9,183.962,-754.844,0,0
247416.225,181.917,-752.282,0,0
247676.55,179.896,-749.764,0,0
247936.875,177.978,-747.175,0,0
248197.2,176.103,-744.526,0,0
248457.525,174.442,-741.917,0,0
248717.85,172.733,-739.392,0,0
248978.175,171.12,-736.909,0,0
249238.5,169.514,-734.374,0,0
249498.825,168.048,-731.883,0,0
249759.15,166.505,-729.387,0,0
250019.475,165.032,-726.951,0,0
250279.8,163.657,-724.465,0,0
250540,162.309,-722.035,0,0
250800,160.992,-719.544,0,0
251061,159.631,-717.122,0,0
251321,158.342,-714.673,0,0
251581,157.173,-712.165,0,0
251842,156.014,-709.731,0,0
252102,154.846,-707.334,0,0
252362,153.701,-704.854,0,0
252623,152.627,-702.451,0,0
252883,151.457,-699.984,0,0
253143,150.392,-697.458,0,0
253404,149.383,-694.887,0,0
253664,148.493,-692.347,0,0
253924,147.672,-689.7,0,0
254185,146.857,-687.112,0,0
254445,146.217,-684.55,0,0
254705,145.547,-681.993,0,0
254966,145.152,-679.462,0,0
255226,144.684,-676.98,0,0
255486,144.341,-674.439,0,0
255747,143.978,-672.074,0,0
256007,143.693,-669.785,0,0
256267,143.333,-667.562,0,0
256528,142.969,-665.21,0,0
256788,142.697,-662.855,0,0
257048,142.487,-660.525,0,0
257309,142.329,-658.219,0,0
257569,142.138,-656.005,0,0
257829,142.016,-653.719,0,0
258090,141.86,-651.399,0,0
258350,141.809,-649.084,0,0
258610,141.818,-646.663,0,0
258871,141.92,-644.332,0,0
259131,142.134,-641.867,0,0
259391,142.489,-639.48,0,0
259651,143.045,-637.15,0,0
259912,143.681,-634.861,0,0
260172,144.402,-632.664,0,0
260432,145.203,-630.611,0,0
260693,146.061,-628.681,0,0
260953,147.096,-626.82,0,0
261213,148.044,-625.105,0,0
261474,149.028,-623.446,0,0
261734,150.09,-621.961,0,0
261994,151.128,-620.489,0,0
262255,152.2,-619.11,0,0
262515,153.253,-617.812,0,0
262775,154.396,-616.685,0,0
263036,155.474,-615.608,0,0
263296,156.574,-614.596,0,0
263556,157.72,-613.677,0,0
263817,158.812,-612.8,0,0
264077,159.954,-612.047,0,0
264337,161.118,-611.331,0,0
264598,162.318,-610.735,0,0
264858,163.513,-610.201,0,0
265118,164.733,-609.853,0,0
265379,166.107,-609.607,0,0
265639,167.489,-609.614,0,0
265899,168.806,-609.784,0,0
266160,170.08,-610.258,0,0
266420,171.196,-610.967,0,0
266680.25,172.168,-611.947,0,0
266940.575,172.856,-613.11,0,0
267200.9,173.245,-614.468,0,0
267461.225,173.316,-615.859,0,0
267721.55,173.093,-617.276,0,0
267981.875,172.595,-618.597,0,0
268242.2,171.848,-619.892,0,0
268502.525,170.843,-621.151,0,0
268762.85,169.552,-622.336,0,0
269023.175,167.999,-623.301,0,0
269283.5,166.199,-624.035,0,0
269543.825,164.175,-624.487,0,0
269804.15,162.143,-624.674,0,0
270064.475,159.896,-624.636,0,0
270324.8,157.729,-624.255,0,0
270585.125,155.557,-623.652,0,0
270845.45,153.464,-622.775,0,0
271105.775,151.436,-621.548,0,0
271366.1,149.586,-620.254,0,0
271626.425,147.876,-618.704,0,0
271886.75,146.308,-617.119,0,0
272147.075,144.938,-615.294,0,0
272407.4,143.744,-613.458,0,0
272667.725,142.782,-611.579,0,0
272928.05,141.958,-609.653,0,0
273188.375,141.292,-607.741,0,0
273448.7,140.832,-605.843,0,0
273709.025,140.498,-604.051,0,0
273969.35,140.27,-602.313,0,0
274229.675,140.096,-600.615,0,0
274490.0,140.056,-599.006,0,0
274750.325,140.057,-597.489,0,0
275010.65,140.079,-596.021,0,0
275270.975,140.214,-594.612,0,0
275531.3,140.359,-593.256,0,0
275791.625,140.456,-591.995,0,0
276051.95,140.616,-590.714,0,0
276312.275,140.799,-589.469,0,0
276572.6,141.02,-588.24,0,0
276832.925,141.341,-587.078,0,0
277093.25,141.714,-585.935,0,0
277353.575,142.123,-584.889,0,0
277613.9,142.593,-583.938,0,0
277874.225,143.099,-583.132,0,0
278134.55,143.543,-582.376,0,0
278394.875,144.042,-581.724,0,0
278655.2,144.514,-581.16,0,0
278915.525,144.924,-580.74,0,0
279175.85,145.259,-580.368,0,0
279436.175,145.53,-580.057,0,0
279696.5,145.707,-579.791,0,0
279956.825,145.813,-579.573,0,0
280217.15,145.921,-579.344,0,0
280477.475,145.918,-579.14,0,0
280737.8,145.894,-578.966,0,0
280998.125,145.827,-578.815,0,0
281258.45,145.689,-578.714,0,0
281518.775,145.46,-578.661,0,0
281779.1,145.08,-578.602,0,0
282039.425,144.638,-578.506,0,0
282299.75,144.055,-578.345,0,0
282560,143.384,-578.092,0,0
282820,142.712,-577.785,0,0
283081,141.943,-577.377,0,0
283341,141.152,-576.818,0,0
283601,140.381,-576.164,0,0
283862,139.638,-575.503,0,0
284122,139.007,-574.689,0,0
284382,138.416,-573.879,0,0
284643,137.881,-573.008,0,0
284903,137.388,-572.155,0,0
285163,136.935,-571.389,0,0
285424,136.521,-570.624,0,0
285684,136.046,-569.949,0,0
285944,135.534,-569.297,0,0
286205,134.894,-568.661,0,0
286465,134.065,-567.967,0,0
286725,133.18,-567.106,0,0
286986,132.18,-566.097,0,0
287246,131.218,-564.826,0,0
287506,130.38,-563.366,0,0
287767,129.622,-561.768,0,0
288027,129.035,-559.974,0,0
288287,128.674,-558.11,0,0
288548,128.564,-556.159,0,0
288808,128.747,-554.299,0,0
289068,129.108,-552.577,0,0
289329,129.626,-550.961,0,0
289589,130.264,-549.471,0,0
289849,130.946,-548.259,0,0
290109,131.721,-547.144,0,0
290370,132.46,-546.276,0,0
290630,133.1,-545.527,0,0
290890,133.636,-544.859,0,0
291151,134.086,-544.25,0,0
291411,134.507,-543.626,0,0
291671,134.906,-543.028,0,0
291932,135.247,-542.543,0,0
292192,135.513,-542.181,0,0
292452,135.632,-541.805,0,0
292713,135.557,-541.4,0,0
292973,135.42,-540.93,0,0
293233,135.161,-540.323,0,0
293494,134.892,-539.649,0,0
293754,134.589,-538.848,0,0
294014,134.222,-537.896,0,0
294275,133.927,-536.776,0,0
294535,133.673,-535.535,0,0
294795,133.514,-534.179,0,0
295056,133.505,-532.64,0,0
295316,133.689,-531.069,0,0
295576,134.106,-529.497,0,0
295837,134.709,-527.935,0,0
296097,135.454,-526.471,0,0
296357,136.369,-525.068,0,0
296618,137.395,-523.864,0,0
296878,138.506,-522.824,0,0
297138,139.562,-521.982,0,0
297399,140.567,-521.217,0,0
297659,141.486,-520.511,0,0
297919,142.375,-519.769,0,0
298180,143.278,-519.045,0,0
298440,144.273,-518.276,0,0
298700.2,145.272,-517.572,0,0
298960.525,146.372,-516.956,0,0
299220.85,147.4,-516.447,0,0
299481.175,148.507,-515.966,0,0
299741.5,149.502,-515.527,0,0
300001.825,150.57,-515.027,0,0
300262.15,151.708,-514.601,0,0
300522.475,152.835,-514.256,0,0
300782.8,154.012,-513.852,0,0
301043.125,155.241,-513.478,0,0
301303.45,156.555,-513.127,0,0
301563.775,158.031,-512.91,0,0
301824.1,159.579,-512.892,0,0
302084.425,161.151,-513.047,0,0
302344.75,162.635,-513.403,0,0
302605.075,164.028,-513.92,0,0
302865.4,165.336,-514.597,0,0
303125.725,166.555,-515.247,0,0
303386.05,167.558,-515.967,0,0
303646.375,168.544,-516.685,0,0
303906.7,169.49,-517.445,0,0
304167.025,170.332,-518.231,0,0
304427.35,171.287,-519.044,0,0
304687.675,172.133,-519.832,0,0
304948.0,172.858,-520.699,0,0
305208.325,173.663,-521.647,0,0
305468.65,174.482,-522.588,0,0
305728.975,175.142,-523.57,0,0
305989.3,175.831,-524.543,0,0
306249.625,176.549,-525.695,0,0
306509.95,177.135,-526.936,0,0
306770.275,177.769,-528.319,0,0
307030.6,178.198,-529.689,0,0
307290.925,178.606,-531.315,0,0
307551.25,178.708,-532.792,0,0
307811.575,178.733,-534.39,0,0
308071.9,178.598,-535.933,0,0
308332.225,178.206,-537.513,0,0
308592.55,177.773,-538.742,0,0
308852.875,177.288,-540.024,0,0
309113.2,176.977,-541.147,0,0
309373.525,176.458,-542.264,0,0
309633.85,176.083,-543.37,0,0
309894.175,175.633,-544.404,0,0
310154.5,175.347,-545.575,0,0
310414.825,175.02,-546.831,0,0
310675.15,174.494,-548.164,0,0
310935.475,173.946,-549.523,0,0
311195.8,173.307,-550.938,0,0
311456.125,172.569,-552.341,0,0
311716.45,171.652,-553.732,0,0
311976.775,170.566,-555.215,0,0
312237.1,169.443,-556.642,0,0
312497.425,168.088,-557.998,0,0
312757.75,166.632,-559.291,0,0
313018.075,164.996,-560.312,0,0
313278.4,163.248,-561.257,0,0
313538.725,161.506,-562.049,0,0
313799.05,159.89,-562.733,0,0
314059.375,158.05,-563.204,0,0
314319.7,156.374,-563.592,0,0
314580,154.843,-563.874,0,0
314840,153.232,-564.205,0,0
315101,151.746,-564.38,0,0
315361,150.367,-564.661,0,0
315621,148.871,-564.908,0,0
315882,147.306,-565.265,0,0
316142,145.647,-565.439,0,0
316402,144.037,-565.666,0,0
316663,142.327,-565.735,0,0
316923,140.701,-565.644,0,0
317183,138.972,-565.519,0,0
317444,137.29,-565.356,0,0
317704,135.745,-565.076,0,0
317964,134.146,-564.761,0,0
318225,132.51,-564.456,0,0
318485,131.006,-564.119,0,0
318745,129.463,-563.69,0,0
319006,127.953,-563.239,0,0
319266,126.507,-562.754,0,0
319526,124.989,-562.236,0,0
319787,123.524,-561.619,0,0
320047,121.943,-561.019,0,0
320307,120.558,-560.299,0,0
320567,119.118,-559.565,0,0
320828,117.728,-558.808,0,0
321088,116.405,-557.892,0,0
321348,115.147,-557.093,0,0
321609,113.979,-556.206,0,0
321869,112.794,-555.327,0,0
322129,111.497,-554.308,0,0
322390,110.385,-553.281,0,0
322650,109.271,-552.228,0,0
322910,108.239,-551.05,0,0
323171,107.274,-549.893,0,0
323431,106.47,-548.729,0,0
323691,105.736,-547.575,0,0
323952,105.007,-546.427,0,0
324212,104.353,-545.343,0,0
324472,103.825,-544.246,0,0
324733,103.336,-543.218,0,0
324993,102.763,-542.183,0,0
325253,102.388,-541.138,0,0
325514,102.026,-540.114,0,0
325774,101.642,-539.225,0,0
326034,101.244,-538.278,0,0
326295,101.071,-537.463,0,0
326555,100.804,-536.646,0,0
326815,100.502,-535.865,0,0
327076,100.313,-535.163,0,0
327336,100.06,-534.456,0,0
327596,99.7492,-533.788,0,0
327857,99.564,-533.242,0,0
328117,99.3566,-532.713,0,0
328377,99.0794,-532.159,0,0
328638,98.8515,-531.693,0,0
328898,98.5333,-531.178,0,0
329158,98.2373,-530.765,0,0
329419,97.9073,-530.382,0,0
329679,97.5774,-530.078,0,0
329939,97.2014,-529.725,0,0
330200,96.8524,-529.376,0,0
330460,96.3711,-529.064,0,0
330720.15,95.9634,-528.711,0,0
330980.475,95.3883,-528.383,0,0
331240.8,94.9552,-528.093,0,0
331501.125,94.3678,-527.827,0,0
331761.45,93.8478,-527.467,0,0
332021.775,93.1913,-527.166,0,0
332282.1,92.5241,-526.884,0,0
332542.425,91.8402,-526.46,0,0
332802.75,91.1079,-526.08,0,0
333063.075,90.4161,-525.674,0,0
333323.4,89.7094,-525.262,0,0
333583.725,88.9929,-524.804,0,0
333844.05,88.2152,-524.367,0,0
334104.375,87.4978,-523.857,0,0
334364.7,86.759,-523.293,0,0
334625.025,85.9538,-522.745,0,0
334885.35,85.1915,-522.211,0,0
335145.675,84.4212,-521.506,0,0
335406.0,83.6925,-520.924,0,0
335666.325,82.9388,-520.262,0,0
335926.65,82.2082,-519.548,0,0
336186.975,81.4887,-518.825,0,0
336447.3,80.8068,-518.24,0,0
336707.625,80.1105,-517.405,0,0
336967.95,79.416,-516.658,0,0
337228.275,78.7959,-515.912,0,0
337488.6,78.0811,-515.142,0,0
337748.925,77.4885,-514.395,0,0
338009.25,76.8677,-513.599,0,0
338269.575,76.209,-512.791,0,0
338529.9,75.5206,-511.964,0,0
338790.225,75.0123,-511.192,0,0
339050.55,74.4134,-510.324,0,0
339310.875,73.8557,-509.47,0,0
339571.2,73.3508,-508.643,0,0
339831.525,72.7938,-507.763,0,0
340091.85,72.3264,-506.951,0,0
340352.175,71.8336,-506.125,0,0
340612.5,71.3635,-505.242,0,0
340872.825,70.9016,-504.425,0,0
341133.15,70.4909,-503.585,0,0
341393.475,70.0507,-502.809,0,0
341653.8,69.6394,-502.039,0,0
341914.125,69.1908,-501.181,0,0
342174.45,68.7692,-500.363,0,0
342434.775,68.2795,-499.645,0,0
342695.1,67.8856,-498.814,0,0
342955.425,67.4945,-498.051,0,0
343215.75,67.0142,-497.24,0,0
343476.075,66.6349,-496.468,0,0
343736.4,66.1305,-495.585,0,0
343996.725,65.7548,-494.799,0,0
344257.05,65.2914,-493.987,0,0
344517.375,64.8267,-493.141,0,0
344777.7,64.4543,-492.312,0,0
345038.025,64.018,-491.407,0,0
345298.35,63.556,-490.626,0,0
345558.675,63.201,-489.682,0,0
345819.0,62.8156,-488.807,0,0
346079.325,62.3994,-487.975,0,0
346339.65,62.0587,-487.048,0,0
346599.975,61.6821,-486.125,0,0
346860,61.3502,-485.274,0,0
347121,60.9204,-484.289,0,0
347381,60.6225,-483.318,0,0
347641,60.2955,-482.4,0,0
347902,60.087,-481.362,0,0
348162,59.7687,-480.409,0,0
348422,59.5144,-479.515,0,0
348683,59.3218,-478.531,0,0
348943,59.1878,-477.633,0,0
349203,58.9738,-476.687,0,0
349464,58.8404,-475.791,0,0
349724,58.6227,-474.82,0,0
349984,58.4866,-473.925,0,0
350245,58.3135,-473.065,0,0
350505,58.1744,-472.179,0,0
350765,58.0267,-471.289,0,0
351025,57.9213,-470.397,0,0
351286,57.7977,-469.488,0,0
351546,57.7058,-468.633,0,0
351806,57.595,-467.758,0,0
352067,57.5297,-466.926,0,0
352327,57.4502,-465.987,0,0
352587,57.4479,-465.199,0,0
352848,57.3352,-464.347,0,0
353108,57.3085,-463.528,0,0
353368,57.2189,-462.723,0,0
353629,57.2041,-461.871,0,0
353889,57.1762,-461.091,0,0
354149,57.0567,-460.253,0,0
354410,57.0558,-459.455,0,0
354670,57.0383,-458.678,0,0
354930,56.9332,-457.836,0,0
355191,56.9116,-457.005,0,0
355451,56.9252,-456.223,0,0
355711,56.909,-455.449,0,0
355972,56.8652,-454.664,0,0
356232,56.8972,-453.858,0,0
356492,56.8918,-453.097,0,0
356753,56.9346,-452.295,0,0
357013,56.9171,-451.548,0,0
357273,56.9133,-450.802,0,0
357534,57.0048,-450.03,0,0
357794,56.995,-449.274,0,0
358054,57.0178,-448.563,0,0
358315,57.0107,-447.82,0,0
358575,57.0188,-447.054,0,0
358835,57.0344,-446.341,0,0
359096,57.04,-445.564,0,0
359356,57.1063,-444.875,0,0
359616,57.1066,-444.049,0,0
359877,57.2132,-443.324,0,0
360137,57.2436,-442.608,0,0
360397,57.3328,-441.83,0,0
360658,57.3967,-441.124,0,0
360918,57.4733,-440.425,0,0
361178,57.5689,-439.711,0,0
361438,57.6389,-439.054,0,0
361699,57.7492,-438.356,0,0
361959,57.7641,-437.736,0,0
362219,57.8539,-437.05,0,0
362480,57.8885,-436.333,0,0
362740.1,57.9557,-435.678,0,0
363000.425,58.008,-434.916,0,0
363260.75,58.041,-434.256,0,0
363521.075,58.164,-433.56,0,0
363781.4,58.2028,-432.81,0,0
364041.725,58.3327,-432.094,0,0
364302.05,58.3942,-431.412,0,0
364562.375,58.5697,-430.758,0,0
364822.7,58.6444,-430.027,0,0
365083.025,58.765,-429.36,0,0
365343.35,58.8849,-428.694,0,0
365603.675,58.9997,-428.008,0,0
365864.0,59.1321,-427.375,0,0
366124.325,59.3093,-426.747,0,0
366384.65,59.3739,-426.119,0,0
366644.975,59.4219,-425.512,0,0
366905.3,59.4766,-424.854,0,0
367165.625,59.5012,-424.177,0,0
367425.95,59.5129,-423.484,0,0
367686.275,59.5248,-422.746,0,0
367946.6,59.5803,-421.958,0,0
368206.925,59.6308,-421.147,0,0
368467.25,59.7213,-420.2,0,0
368727.575,59.8047,-419.371,0,0
368987.9,60.0068,-418.426,0,0
369248.225,60.2494,-417.521,0,0
369508.55,60.58,-416.624,0,0
369768.875,60.8921,-415.692,0,0
370029.2,61.3207,-414.786,0,0
370289.525,61.7143,-413.943,0,0
370549.85,62.2361,-413.097,0,0
370810.175,62.824,-412.24,0,0
371070.5,63.4076,-411.444,0,0
371330.825,63.9632,-410.71,0,0
371591.15,64.6593,-410.028,0,0
371851.475,65.3132,-409.348,0,0
372111.8,65.9774,-408.777,0,0
372372.125,66.747,-408.224,0,0
372632.45,67.478,-407.772,0,0
372892.775,68.1701,-407.304,0,0
373153.1,68.8711,-406.913,0,0
373413.425,69.6166,-406.625,0,0
373673.75,70.3501,-406.337,0,0
373934.075,71.0386,-406.092,0,0
374194.4,71.7129,-405.969,0,0
374454.725,72.3229,-405.833,0,0
374715.05,72.964,-405.766,0,0
374975.375,73.447,-405.694,0,0
375235.7,73.9388,-405.672,0,0
375496.025,74.4399,-405.628,0,0
375756.35,74.8566,-405.571,0,0
376016.675,75.2678,-405.549,0,0
376277.0,75.6418,-405.531,0,0
376537.325,75.991,-405.432,0,0
376797.65,76.3786,-405.398,0,0
377057.975,76.7321,-405.368,0,0
377318.3,77.117,-405.285,0,0
377578.625,77.4834,-405.255,0,0
377838.95,77.8617,-405.245,0,0
378099.275,78.2507,-405.316,0,0
378359.6,78.5271,-405.361,0,0
378619.925,78.8455,-405.452,0,0
378880,79.0806,-405.55,0,0
379141,79.3331,-405.622,0,0
379401,79.4934,-405.703,0,0
379661,79.6908,-405.714,0,0
379922,79.8716,-405.719,0,0
380182,80.0877,-405.689,0,0
380442,80.3016,-405.645,0,0
380703,80.6514,-405.634,0,0
380963,80.9589,-405.711,0,0
381223,81.3198,-405.817,0,0
381483,81.6933,-406.04,0,0
381744,82.0423,-406.327,0,0
382004,82.2477,-406.769,0,0
382264,82.4128,-407.155,0,0
382525,82.5258,-407.636,0,0
382785,82.537,-408.031,0,0
383045,82.4689,-408.523,0,0
383306,82.3089,-408.976,0,0
383566,82.1355,-409.392,0,0
383826,81.8505,-409.8,0,0
384087,81.5063,-410.218,0,0
384347,81.1576,-410.524,0,0
384607,80.7323,-410.83,0,0
384868,80.2455,-411.059,0,0
385128,79.7478,-411.274,0,0
385388,79.228,-411.442,0,0
385649,78.6783,-411.619,0,0
385909,78.0884,-411.712,0,0
386169,77.4866,-411.744,0,0
386430,76.8451,-411.712,0,0
386690,76.2376,-411.661,0,0
386950,75.6009,-411.518,0,0
387211,74.9483,-411.321,0,0
387471,74.3044,-411.039,0,0
387731,73.7461,-410.747,0,0
387992,73.1603,-410.438,0,0
388252,72.6422,-410.046,0,0
388512,72.1292,-409.677,0,0
388773,71.6469,-409.237,0,0
389033,71.2614,-408.76,0,0
389293,70.891,-408.327,0,0
389554,70.5724,-407.893,0,0
389814,70.2825,-407.468,0,0
390074,69.9501,-407.06,0,0
390335,69.7301,-406.606,0,0
390595,69.4332,-406.264,0,0
390855,69.1442,-405.885,0,0
391116,68.9647,-405.543,0,0
391376,68.7388,-405.197,0,0
391636,68.47,-404.872,0,0
391896,68.2495,-404.575,0,0
392157,67.9718,-404.303,0,0
392417,67.7197,-404.036,0,0
392677,67.3815,-403.821,0,0
392938,67.0261,-403.593,0,0
393198,66.6704,-403.302,0,0
393458,66.2326,-403.007,0,0
393719,65.7495,-402.682,0,0
393979,65.3313,-402.349,0,0
394239,64.8186,-401.947,0,0
394500,64.3398,-401.561,0,0
394760.05,63.8597,-401.109,0,0
395020.375,63.3877,-400.63,0,0
395280.7,62.9401,-400.076,0,0
395541.025,62.4707,-399.529,0,0
395801.35,62.0227,-398.929,0,0
396061.675,61.6081,-398.308,0,0
396322.0,61.1986,-397.648,0,0
396582.325,60.8817,-397.056,0,0
396842.65,60.5329,-396.367,0,0
397102.975,60.2071,-395.686,0,0
397363.3,59.9061,-395.022,0,0
397623.625,59.6373,-394.339,0,0
397883.95,59.3654,-393.658,0,0
398144.275,59.0836,-392.969,0,0
398404.6,58.8995,-392.259,0,0
398664.925,58.6579,-391.586,0,0
398925.25,58.4398,-390.86,0,0
399185.575,58.2622,-390.156,0,0
399445.9,58.0759,-389.425,0,0
399706.225,57.9589,-388.712,0,0
399966.55,57.7913,-387.963,0,0
400006.6,57.744,-387.847,0,0