File: Accelerated corrosion test data/2025-10-15_12-55-04/sample_3.csv
Frequency (Hz),Impedance (ohms),Phase (Radians),Temperature (C),Humidity (%)
10000.0,251.219,-11855.9,0,0
10260.325,244.8,-11557.7,0,0
10520.65,239.96,-11273,0,0
10780.975,235.454,-11001.6,0,0
11041.3,229.617,-10748.2,0,0
11301.625,223.975,-10501.9,0,0
11561.95,219.132,-10266.4,0,0
11822.275,214.723,-10041.4,0,0
12082.6,211.402,-9827.04,0,0
12342.925,210.317,-9620.24,0,0
12603.25,202.513,-9424.69,0,0
12863.575,199.231,-9234.21,0,0
13123.9,199.39,-9049.51,0,0
13384.225,192.555,-8880.53,0,0
13644.55,189.628,-8710.95,0,0
13904.875,185.368,-8546.61,0,0
14165.2,185.895,-8390.74,0,0
14425.525,180.123,-8240.15,0,0
14685.8,179.605,-8092.99,0,0
14946.175,176.725,-7953.81,0,0
15206.5,173.42,-7812.15,0,0
15466.825,183.172,-7672.48,0,0
15727.15,190.945,-7571.62,0,0
15987.5,172.833,-7457.52,0,0
16247.8,168.183,-7328.28,0,0
16508.125,161.527,-7214.46,0,0
16768.45,167.877,-7093.54,0,0
17028.775,157.443,-6994.76,0,0
17289.1,162.603,-6880.55,0,0
17549.425,155.858,-6788.17,0,0
17809.75,157.002,-6683.62,0,0
18070.075,161.883,-6597.56,0,0
18330.4,151.734,-6501.84,0,0
18590.725,148.636,-6409.61,0,0
18851.05,145.242,-6319.11,0,0
19111.375,146.695,-6230.58,0,0
19371.7,144.759,-6145.61,0,0
19632.025,145.886,-6060.37,0,0
19892.35,151.219,-5983.67,0,0
20152.675,147.859,-5903.54,0,0
20413.0,162.092,-5826.17,0,0
20673.3,164.196,-5760.73,0,0
20933.65,163.303,-5707.43,0,0
21193.975,160.292,-5639.74,0,0
21454.3,145.032,-5579.25,0,0
21714.625,138.722,-5503.44,0,0
21974.9,142.895,-5437.87,0,0
22235.275,139.379,-5378.45,0,0
22495.6,136.777,-5317.02,0,0
22755.925,129.706,-5256.24,0,0
23016.25,128.543,-5196.02,0,0
23276.6,128.227,-5134.23,0,0
23536.9,128.893,-5088.04,0,0
23797.225,121.183,-5029,0,0
24057.55,119.383,-4971.64,0,0
24317.875,119.286,-4915.36,0,0
24578.2,116.663,-4865.74,0,0
24838.525,117.72,-4812.74,0,0
25098.85,115.697,-4764.85,0,0
25359.175,113.934,-4714.86,0,0
25619.5,113.895,-4667.12,0,0
25879.8,111.088,-4620.31,0,0
26140.1,108.728,-4572.47,0,0
26400.5,107.883,-4524.8,0,0
26660.8,108.05,-4479.48,0,0
26921.1,108.626,-4435.31,0,0
27181.4,108.692,-4394.7,0,0
27441.8,107.623,-4351.43,0,0
27702.1,108.239,-4310.8,0,0
27962.4,105.417,-4270.59,0,0
28222.7,103.7,-4227.34,0,0
28483.1,111.18,-4184.88,0,0
28743.4,113.901,-4149.88,0,0
29003.7,115.672,-4120.17,0,0
29264,107.801,-4087.16,0,0
29524.4,109.303,-4049.78,0,0
29784.7,104.412,-4014.7,0,0
30045,102.043,-3980.27,0,0
30305.3,100.637,-3942.75,0,0
30565.7,102.665,-3909.5,0,0
30826,101.191,-3876.59,0,0
31086.3,102.635,-3843.4,0,0
31346.6,99.1866,-3813.2,0,0
31607,98.0256,-3779.11,0,0
31867.3,98.0001,-3744.49,0,0
32127.6,101.566,-3710.76,0,0
32387.9,110.261,-3683.11,0,0
32648.3,112.679,-3664.39,0,0
32908.6,104.157,-3640.7,0,0
33168.9,100.974,-3613.07,0,0
33429.2,99.0458,-3586.29,0,0
33689.6,93.369,-3558.21,0,0
33949.9,90.6998,-3528.14,0,0
34210.2,90.5714,-3500.51,0,0
34470.5,90.1967,-3473.43,0,0
34730.9,88.097,-3447.44,0,0
34991.2,86.555,-3420.52,0,0
35251.5,85.9246,-3394.56,0,0
35511.8,84.8472,-3368.97,0,0
35772.2,84.3055,-3343.78,0,0
36032.5,83.68,-3318.54,0,0
36292.8,82.8951,-3294.09,0,0
36553.1,82.4057,-3270.47,0,0
36813.5,81.6089,-3247.12,0,0
37073.8,80.9812,-3223.57,0,0
37334.1,80.2911,-3200.42,0,0
37594.4,79.8169,-3177.36,0,0
37854.8,79.4729,-3155.32,0,0
38115.1,78.8811,-3132.99,0,0
38375.4,78.1725,-3111.27,0,0
38635.7,77.9618,-3089.86,0,0
38896.1,77.6523,-3068.42,0,0
39156.4,77.3859,-3047.62,0,0
39416.7,77.1295,-3027.17,0,0
39677,76.5264,-3007.04,0,0
39937.4,75.8423,-2986.62,0,0
40197.7,75.5092,-2966.72,0,0
40458,74.8904,-2947.01,0,0
40718.3,74.8843,-2927.59,0,0
40978.7,74.4096,-2908.27,0,0
41239,74.259,-2889.15,0,0
41499.3,74.2904,-2870.66,0,0
41759.6,74.5549,-2852.18,0,0
42020,73.8308,-2834.72,0,0
42280.275,73.7313,-2816.58,0,0
42540.6,73.0823,-2798.76,0,0
42800.925,73.2211,-2781.22,0,0
43061.25,72.4791,-2764.62,0,0
43321.575,72.389,-2747.11,0,0
43581.9,71.8248,-2730.09,0,0
43842.225,71.7632,-2712.77,0,0
44102.55,72.0155,-2696.38,0,0
44362.875,71.953,-2680.56,0,0
44623.2,71.4463,-2664.37,0,0
44883.525,71.1736,-2648.37,0,0
45143.85,70.9972,-2632.86,0,0
45404.175,70.5376,-2617.54,0,0
45664.5,70.1593,-2601.63,0,0
45924.825,71.3071,-2585.93,0,0
46185.15,70.3747,-2572.08,0,0
46445.475,69.8226,-2556.71,0,0
46705.8,69.7384,-2541.47,0,0
46966.125,69.829,-2526.96,0,0
47226.45,69.795,-2512.7,0,0
47486.775,69.6305,-2498.17,0,0
47747.1,70.3541,-2483.65,0,0
48007.425,70.4884,-2470.62,0,0
48267.75,70.4734,-2457.44,0,0
48528.075,69.5645,-2444.16,0,0
48788.4,69.3268,-2431.07,0,0
49048.725,68.6679,-2417.79,0,0
49309.05,67.9819,-2404.24,0,0
49569.375,68.0523,-2390.96,0,0
49829.7,67.7607,-2378.08,0,0
50090.025,67.0988,-2365.33,0,0
50350.35,66.6008,-2352.45,0,0
50610.675,66.2783,-2339.22,0,0
50871.0,66.4257,-2326.76,0,0
51131.325,66.2596,-2314.2,0,0
51391.65,66.1743,-2301.56,0,0
51651.975,66.2117,-2289.22,0,0
51912.3,66.2,-2277.38,0,0
52172.625,66.0282,-2265.31,0,0
52432.95,65.9371,-2253.2,0,0
52693.275,66.1861,-2241.16,0,0
52953.6,66.4899,-2229.14,0,0
53213.925,67.1682,-2217.55,0,0
53474.25,67.873,-2206.61,0,0
53734.575,68.2905,-2195.7,0,0
53994.9,68.3868,-2184.74,0,0
54255.225,69.541,-2173.99,0,0
54515.55,70.2918,-2164.86,0,0
54775.875,69.6115,-2155.56,0,0
55036.2,68.757,-2145.67,0,0
55296.525,68.2009,-2136.12,0,0
55556.85,66.7992,-2126.42,0,0
55817.175,65.2356,-2115.71,0,0
56077.5,64.2422,-2105.17,0,0
56337.825,63.6182,-2094.48,0,0
56598.15,62.6186,-2083.9,0,0
56858.475,61.8851,-2073.21,0,0
57118.8,61.2917,-2062.42,0,0
57379.125,61.1931,-2051.64,0,0
57639.45,61.1077,-2041.19,0,0
57899.775,61.2849,-2031.02,0,0
58160.1,61.2113,-2020.86,0,0
58420.4,61.0868,-2010.99,0,0
58680.7,61.1182,-2000.87,0,0
58941.1,61.1941,-1991.03,0,0
59201.4,61.3964,-1981.03,0,0
59461.7,61.8169,-1971.41,0,0
59722,61.9776,-1961.86,0,0
59982.4,62.2904,-1952.32,0,0
60242.7,62.6218,-1943.07,0,0
60503,62.7733,-1933.8,0,0
60763.3,63.0955,-1924.53,0,0
61023.7,63.3938,-1915.31,0,0
61284,63.8037,-1906.28,0,0
61544.3,64.4614,-1897.11,0,0
61804.6,64.9121,-1888.58,0,0
62065,65.1112,-1879.45,0,0
62325.3,65.7634,-1870.45,0,0
62585.6,66.2771,-1861.91,0,0
62845.9,66.8768,-1852.75,0,0
63106.3,67.9777,-1843.8,0,0
63366.6,69.1372,-1835.62,0,0
63626.9,69.8776,-1826.65,0,0
63887.2,71.5509,-1818.44,0,0
64147.6,72.8266,-1809.62,0,0
64407.9,75.416,-1801.1,0,0
64668.2,78.0585,-1793.67,0,0
64928.5,80.8233,-1786.02,0,0
65188.9,84.768,-1780.5,0,0
65449.2,87.2819,-1775.21,0,0
65709.5,89.4288,-1771.24,0,0
65969.8,92.4933,-1768.35,0,0
66230.2,91.9405,-1768.79,0,0
66490.5,85.9389,-1766.29,0,0
66750.8,81.1999,-1759.37,0,0
67011.1,78.4144,-1751.04,0,0
67271.5,76.0318,-1742.93,0,0
67531.8,74.8465,-1734.45,0,0
67792.1,75.0134,-1725.84,0,0
68052.4,75.1798,-1718.07,0,0
68312.8,76.3264,-1711.06,0,0
68573.1,76.3574,-1705.08,0,0
68833.4,76.2963,-1698.32,0,0
69093.7,77.0432,-1691.77,0,0
69354.1,77.5889,-1686.51,0,0
69614.4,77.18,-1681.16,0,0
69874.7,76.2212,-1675.68,0,0
70135,75.3128,-1669.86,0,0
70395.4,74.4324,-1663.74,0,0
70655.7,73.2519,-1657.92,0,0
70916,71.9266,-1651.49,0,0
71176.3,70.9137,-1644.9,0,0
71436.7,70.2189,-1638.27,0,0
71697,69.3583,-1631.24,0,0
71957.3,69.5653,-1624.35,0,0
72217.6,69.8338,-1618.05,0,0
72478,69.7176,-1612,0,0
72738.3,69.7597,-1606.2,0,0
72998.6,69.5487,-1600.79,0,0
73258.9,68.8932,-1595.08,0,0
73519.3,68.4791,-1589.26,0,0
73779.6,68.0631,-1583.62,0,0
74039.9,67.4838,-1578.12,0,0
74300.225,66.6703,-1572.53,0,0
74560.55,65.911,-1566.75,0,0
74820.875,65.2104,-1560.98,0,0
75081.2,64.4404,-1555.28,0,0
75341.525,63.6362,-1549.42,0,0
75601.85,62.922,-1543.53,0,0
75862.175,62.1918,-1537.65,0,0
76122.5,61.482,-1531.79,0,0
76382.825,60.8097,-1525.84,0,0
76643.15,60.3113,-1519.95,0,0
76903.475,59.7544,-1514.11,0,0
77163.8,59.28,-1508.28,0,0
77424.125,58.8259,-1502.53,0,0
77684.45,58.2976,-1496.78,0,0
77944.775,57.7939,-1491.04,0,0
78205.1,57.3082,-1485.28,0,0
78465.425,56.8354,-1479.56,0,0
78725.75,56.4572,-1473.79,0,0
78986.075,56.0648,-1468.1,0,0
79246.4,55.7268,-1462.43,0,0
79506.725,55.2696,-1456.83,0,0
79767.05,55.0592,-1451.07,0,0
80027.375,54.8084,-1445.5,0,0
80287.7,54.5114,-1439.9,0,0
80548.025,54.3406,-1434.36,0,0
80808.35,54.1386,-1428.95,0,0
81068.675,53.8782,-1423.42,0,0
81329.0,53.6977,-1417.98,0,0
81589.325,53.4447,-1412.56,0,0
81849.65,53.3931,-1407.18,0,0
82109.975,53.2097,-1401.78,0,0
82370.3,53.095,-1396.46,0,0
82630.625,52.9853,-1391.2,0,0
82890.95,52.9425,-1385.94,0,0
83151.275,52.8609,-1380.76,0,0
83411.6,52.7881,-1375.54,0,0
83671.925,52.7352,-1370.32,0,0
83932.25,52.6804,-1365.26,0,0
84192.575,52.6823,-1360.19,0,0
84452.9,52.6233,-1355.08,0,0
84713.225,52.5848,-1349.97,0,0
84973.55,52.5666,-1344.97,0,0
85233.875,52.6235,-1340,0,0
85494.2,52.6662,-1335.03,0,0
85754.525,52.6692,-1330.1,0,0
86014.85,52.6501,-1325.23,0,0
86275.175,52.7134,-1320.32,0,0
86535.5,52.6921,-1315.51,0,0
86795.825,52.8085,-1310.6,0,0
87056.15,52.7791,-1305.71,0,0
87316.475,52.8482,-1300.89,0,0
87576.8,52.9802,-1296.03,0,0
87837.125,53.1967,-1291.27,0,0
88097.45,53.3591,-1286.52,0,0
88357.775,53.4173,-1281.83,0,0
88618.1,53.4838,-1277.05,0,0
88878.425,53.7326,-1272.2,0,0
89138.75,54.1187,-1267.46,0,0
89399.075,54.6197,-1262.6,0,0
89659.4,55.1331,-1258.07,0,0
89919.725,55.7048,-1253.71,0,0
90180,56.2176,-1249.48,0,0
90440.4,56.6445,-1245.2,0,0
90700.7,56.9896,-1240.77,0,0
90961,57.4003,-1236.67,0,0
91221.3,57.7912,-1232.42,0,0
91481.7,58.2702,-1228.2,0,0
91742,58.7505,-1224.17,0,0
92002.3,59.1723,-1220.15,0,0
92262.6,59.765,-1216,0,0
92523,60.4858,-1212.18,0,0
92783.3,61.0816,-1208.62,0,0
93043.6,61.3727,-1204.82,0,0
93303.9,62.0713,-1201.2,0,0
93564.3,62.7586,-1197.86,0,0
93824.6,63.3719,-1194.84,0,0
94084.9,63.7136,-1192.32,0,0
94345.2,63.1734,-1189.7,0,0
94605.6,62.6621,-1186.6,0,0
94865.9,62.1897,-1183.68,0,0
95126.2,61.0046,-1180.8,0,0
95386.5,59.3903,-1177.15,0,0
95646.9,58.3187,-1172.82,0,0
95907.2,57.6009,-1168.59,0,0
96167.5,56.8604,-1164.31,0,0
96427.8,56.5072,-1159.68,0,0
96688.2,56.4451,-1155.34,0,0
96948.5,56.448,-1151.25,0,0
97208.8,56.3687,-1147.26,0,0
97469.1,56.2836,-1143.22,0,0
97729.5,56.2608,-1139.3,0,0
97989.8,56.1562,-1135.33,0,0
98250.1,56.0962,-1131.44,0,0
98510.4,56.0586,-1127.42,0,0
98770.8,56.1548,-1123.64,0,0
99031.1,56.0802,-1119.94,0,0
99291.4,55.8802,-1116.14,0,0
99551.7,55.6718,-1112.26,0,0
99812.1,55.5637,-1108.34,0,0
100072,55.461,-1104.46,0,0
100333,55.3898,-1100.51,0,0
100593,55.2737,-1096.59,0,0
100853,55.1267,-1092.57,0,0
101114,55.1625,-1088.41,0,0
101374,55.3033,-1084.35,0,0
101634,55.4713,-1080.24,0,0
101895,55.7696,-1076.14,0,0
102155,56.0901,-1072.05,0,0
102415,56.6119,-1067.84,0,0
102676,57.5456,-1063.78,0,0
102936,58.5778,-1060.18,0,0
103196,59.3674,-1056.86,0,0
103457,59.9596,-1053.57,0,0
103717,60.5433,-1050.21,0,0
103977,61.2354,-1046.71,0,0
104238,62.2173,-1043.49,0,0
104498,63.2195,-1040.86,0,0
104758,63.6014,-1038.48,0,0
105019,63.6968,-1035.9,0,0
105279,63.5964,-1033.12,0,0
105539,63.7002,-1030.21,0,0
105800,63.638,-1027.53,0,0
106060,63.4177,-1024.78,0,0
106320.175,63.0986,-1021.9,0,0
106580.5,62.7352,-1018.9,0,0
106840.825,62.4003,-1015.91,0,0
107101.15,61.8761,-1012.79,0,0
107361.475,61.4742,-1009.51,0,0
107621.8,61.0569,-1006.25,0,0
107882.125,60.6448,-1002.86,0,0
108142.45,60.283,-999.439,0,0
108402.775,59.9396,-995.961,0,0
108663.1,59.5312,-992.453,0,0
108923.425,59.2611,-988.725,0,0
109183.75,59.0432,-984.921,0,0
109444.075,59.1274,-981.146,0,0
109704.4,59.2169,-977.537,0,0
109964.725,59.2479,-973.788,0,0
110225.05,59.3099,-970.114,0,0
110485.375,59.5,-966.243,0,0
110745.7,60.0126,-962.466,0,0
111006.025,60.6385,-958.863,0,0
111266.35,61.1886,-955.466,0,0
111526.675,61.5888,-952.147,0,0
111787.0,62.0252,-948.804,0,0
112047.325,62.5234,-945.556,0,0
112307.65,63.0145,-942.335,0,0
112567.975,63.4654,-939.197,0,0
112828.3,63.7202,-936.056,0,0
113088.625,64.0908,-932.876,0,0
113348.95,64.4426,-929.678,0,0
113609.275,64.7029,-926.548,0,0
113869.6,65.0073,-923.337,0,0
114129.925,65.2596,-920.097,0,0
114390.25,65.5731,-916.806,0,0
114650.575,65.8537,-913.374,0,0
114910.9,66.253,-909.978,0,0
115171.225,66.7244,-906.51,0,0
115431.55,67.4245,-903.104,0,0
115691.875,68.0706,-899.956,0,0
115952.2,68.5969,-896.61,0,0
116212.525,69.2153,-893.182,0,0
116472.85,70.0726,-889.711,0,0
116733.175,71.1145,-886.435,0,0
116993.5,72.0857,-883.313,0,0
117253.825,72.9652,-880.23,0,0
117514.15,73.8616,-876.89,0,0
117774.475,75.2031,-873.336,0,0
118034.8,77.0985,-870.384,0,0
118295.125,78.7725,-867.994,0,0
118555.45,80.2402,-865.788,0,0
118815.775,81.2228,-863.663,0,0
119076.1,82.1828,-861.092,0,0
119336.425,83.6229,-858.327,0,0
119596.75,85.569,-856.2,0,0
119857.075,87.3552,-854.657,0,0
120117.4,88.9699,-853.555,0,0
120377.725,89.8917,-853.132,0,0
120638.05,89.9371,-852.36,0,0
120898.375,89.8293,-851.297,0,0
121158.7,89.3339,-850.118,0,0
121419.025,88.4913,-848.571,0,0
121679.35,87.5739,-846.453,0,0
121939.675,86.8458,-843.849,0,0
122200.0,86.5672,-840.988,0,0
122460,86.6037,-838.289,0,0
122721,86.6701,-835.676,0,0
122981,86.8454,-832.95,0,0
123241,87.2725,-830.352,0,0
123502,87.7276,-828.036,0,0
123762,87.9987,-825.809,0,0
124022,88.2522,-823.469,0,0
124283,88.5814,-821.192,0,0
124543,88.9072,-818.931,0,0
124803,89.2114,-816.757,0,0
125064,89.5193,-814.585,0,0
125324,89.8265,-812.512,0,0
125584,90.0638,-810.452,0,0
125845,90.3329,-808.514,0,0
126105,90.4977,-806.666,0,0
126365,90.4165,-804.9,0,0
126626,90.1551,-802.986,0,0
126886,89.9175,-800.859,0,0
127146,89.6896,-798.777,0,0
127406,89.5,-796.672,0,0
127667,89.3402,-794.509,0,0
127927,89.002,-792.418,0,0
128187,88.6332,-790.213,0,0
128448,88.1952,-787.949,0,0
128708,87.696,-785.497,0,0
128968,87.3027,-782.873,0,0
129229,87.0298,-780.209,0,0
129489,86.8938,-777.614,0,0
129749,86.6847,-774.989,0,0
130010,86.4795,-772.161,0,0
130270,86.644,-769.193,0,0
130530,87.0368,-766.581,0,0
130791,87.5029,-764.191,0,0
131051,87.7708,-762.021,0,0
131311,87.9075,-759.929,0,0
131572,87.876,-757.854,0,0
131832,87.6863,-755.744,0,0
132092,87.4065,-753.431,0,0
132353,87.1355,-751.041,0,0
132613,87.0024,-748.558,0,0
132873,86.9385,-746.17,0,0
133134,86.7961,-743.878,0,0
133394,86.5863,-741.548,0,0
133654,86.2895,-739.263,0,0
133915,85.8923,-736.86,0,0
134175,85.5493,-734.293,0,0
134435,85.3362,-731.65,0,0
134696,85.0721,-729.139,0,0
134956,84.672,-726.592,0,0
135216,84.3839,-723.828,0,0
135477,84.2236,-721.122,0,0
135737,84.0429,-718.527,0,0
135997,83.7076,-715.894,0,0
136258,83.23,-713.177,0,0
136518,82.8255,-710.157,0,0
136778,82.6206,-706.963,0,0
137039,82.6562,-703.875,0,0
137299,82.7126,-700.863,0,0
137559,82.854,-697.871,0,0
137819,83.0632,-694.975,0,0
138080,83.2552,-692.062,0,0
138340.125,83.5567,-689.208,0,0
138600.45,83.9281,-686.552,0,0
138860.775,84.157,-684.087,0,0
139121.1,84.1739,-681.593,0,0
139381.425,84.0544,-679.066,0,0
139641.75,83.8394,-676.425,0,0
139902.075,83.5989,-673.587,0,0
140162.4,83.4865,-670.64,0,0
140422.725,83.5303,-667.719,0,0
140683.05,83.5415,-664.947,0,0
140943.375,83.3832,-662.177,0,0
141203.7,83.2081,-659.286,0,0
141464.025,83.0016,-656.346,0,0
141724.35,82.7158,-653.304,0,0
141984.675,82.5041,-650.073,0,0
142245.0,82.4437,-646.809,0,0
142505.325,82.3851,-643.583,0,0
142765.65,82.2582,-640.286,0,0
143025.975,82.2437,-636.881,0,0
143286.3,82.2671,-633.449,0,0
143546.625,82.3864,-629.999,0,0
143806.95,82.4931,-626.525,0,0
144067.275,82.6126,-623.01,0,0
144327.6,82.7834,-619.388,0,0
144587.925,83.0641,-615.722,0,0
144848.25,83.4532,-612.067,0,0
145108.575,83.8737,-608.449,0,0
145368.9,84.3387,-604.822,0,0
145629.225,84.7558,-601.234,0,0
145889.55,85.1483,-597.516,0,0
146149.875,85.613,-593.661,0,0
146410.2,86.2793,-589.746,0,0
146670.525,86.991,-585.967,0,0
146930.85,87.6308,-582.105,0,0
147191.175,88.3682,-578.12,0,0
147451.5,89.2027,-574.091,0,0
147711.825,90.197,-569.966,0,0
147972.15,91.3487,-565.902,0,0
148232.475,92.5592,-561.896,0,0
148492.8,93.8008,-557.892,0,0
148753.125,95.1281,-553.862,0,0
149013.45,96.4509,-549.776,0,0
149273.775,97.9205,-545.551,0,0
149534.1,99.6264,-541.229,0,0
149794.425,101.659,-536.966,0,0
150054.75,103.885,-532.953,0,0
150315.075,106.184,-529.079,0,0
150575.4,108.572,-525.311,0,0
150835.725,110.996,-521.702,0,0
151096.05,113.495,-518.189,0,0
151356.375,116.04,-514.795,0,0
151616.7,118.642,-511.509,0,0
151877.025,121.34,-508.388,0,0
152137.35,124.01,-505.516,0,0
152397.675,126.52,-502.833,0,0
152658.0,128.88,-500.136,0,0
152918.325,131.269,-497.43,0,0
153178.65,133.678,-494.902,0,0
153438.975,135.859,-492.503,0,0
153699.3,137.874,-490.003,0,0
153959.625,139.903,-487.436,0,0
154219.95,141.99,-485.025,0,0
154480,143.746,-482.817,0,0
154741,144.922,-480.304,0,0
155001,145.984,-477.183,0,0
155261,147.459,-473.437,0,0
155522,149.657,-469.731,0,0
155782,152.031,-466.344,0,0
156042,154.394,-463.178,0,0
156303,156.595,-460.098,0,0
156563,158.555,-456.715,0,0
156823,160.851,-452.798,0,0
157084,163.942,-448.811,0,0
157344,167.566,-445.481,0,0
157604,171.4,-442.754,0,0
157864,174.743,-440.648,0,0
158125,177.901,-438.942,0,0
158385,180.381,-437.802,0,0
158645,181.679,-436.239,0,0
158906,182.653,-433.994,0,0
159166,183.355,-431.077,0,0
159426,184.037,-427.433,0,0
159687,184.697,-423.064,0,0
159947,185.771,-417.583,0,0
160207,188.117,-411.431,0,0
160468,191.649,-405.43,0,0
160728,196.067,-399.827,0,0
160988,200.401,-395.472,0,0
161249,203.885,-390.671,0,0
161509,208.019,-384.68,0,0
161769,213.802,-378.687,0,0
162030,220.397,-374.084,0,0
162290,226.227,-369.948,0,0
162550,232.461,-365.315,0,0
162811,239.066,-361.123,0,0
163071,245.896,-356.962,0,0
163331,253.106,-352.484,0,0
163592,261.471,-348.15,0,0
163852,270.524,-344.732,0,0
164112,279.936,-341.919,0,0
164373,289.72,-339.748,0,0
164633,299.825,-338.044,0,0
164893,310.736,-336.942,0,0
165154,322.497,-337.613,0,0
165414,333.327,-340.241,0,0
165674,343.008,-343.065,0,0
165935,352.734,-346.087,0,0
166195,362.384,-349.779,0,0
166455,372.116,-354.351,0,0
166716,381.315,-360.421,0,0
166976,389.204,-367.274,0,0
167236,396.007,-374.32,0,0
167497,402.072,-381.484,0,0
167757,407.527,-388.528,0,0
168017,412.504,-395.896,0,0
168277,416.75,-403.683,0,0
168538,420.339,-411.172,0,0
168798,423.61,-418.727,0,0
169058,426.555,-427.047,0,0
169319,428.376,-436.382,0,0
169579,427.978,-445.898,0,0
169839,425.449,-454.363,0,0
170100,421.867,-460.826,0,0
170360.075,418.334,-465.673,0,0
170620.4,414.94,-469.355,0,0
170880.725,411.804,-472.237,0,0
171141.05,408.843,-474.441,0,0
171401.375,406.042,-475.57,0,0
171661.7,404.414,-475.803,0,0
171922.025,403.813,-476.417,0,0
172182.35,403,-477.098,0,0
172442.675,402.485,-477.177,0,0
172703.0,403.041,-476.6,0,0
172963.325,405.189,-476.446,0,0
173223.65,408.294,-477.997,0,0
173483.975,410.618,-481.241,0,0
173744.3,411.484,-484.825,0,0
174004.625,411.514,-487.511,0,0
174264.95,412.279,-489.458,0,0
174525.275,414.044,-492.319,0,0
174785.6,415.034,-496.734,0,0
175045.925,414.372,-500.934,0,0
175306.25,413.027,-504.052,0,0
175566.575,412.587,-506.159,0,0
175826.9,413.18,-509.051,0,0
176087.225,413.384,-513.202,0,0
176347.55,412.389,-517.748,0,0
176607.875,410.972,-522.018,0,0
176868.2,409.092,-526.944,0,0
177128.525,405.44,-532.295,0,0
177388.85,399.988,-536.139,0,0
177649.175,394.439,-538.192,0,0
177909.5,389.276,-539.5,0,0
178169.825,383.651,-540.413,0,0
178430.15,377.809,-539.574,0,0
178690.475,372.842,-537.338,0,0
178950.8,369.182,-534.467,0,0
179211.125,366.545,-531.692,0,0
179471.45,364.238,-529.028,0,0
179731.775,362.392,-525.899,0,0
179992.1,361.867,-522.661,0,0
180252.425,362.166,-520.345,0,0
180512.75,362.258,-518.753,0,0
180773.075,362.489,-517.019,0,0
181033.4,363.144,-515.517,0,0
181293.725,364.37,-514.471,0,0
181554.05,365.894,-514.421,0,0
181814.375,367.197,-515.54,0,0
182074.7,367.339,-517.564,0,0
182335.025,365.94,-519.623,0,0
182595.35,363.917,-520.629,0,0
182855.675,361.917,-521.119,0,0
183116.0,360.077,-521.564,0,0
183376.325,357.835,-522.192,0,0
183636.65,354.942,-522.57,0,0
183896.975,351.402,-522.312,0,0
184157.3,347.917,-520.924,0,0
184417.625,345.128,-519.076,0,0
184677.95,342.382,-517.503,0,0
184938.275,339.166,-515.535,0,0
185198.6,336.001,-512.768,0,0
185458.925,333.165,-509.327,0,0
185719.25,330.844,-505.504,0,0
185979.575,328.95,-501.445,0,0
186239.9,327.464,-497.163,0,0
186500,326.34,-492.524,0,0
186761,325.983,-487.487,0,0
187021,326.52,-482.786,0,0
187281,327.476,-478.527,0,0
187542,328.723,-474.56,0,0
187802,330.294,-471.017,0,0
188062,331.8,-467.972,0,0
188322,333.299,-465.07,0,0
188583,334.792,-462.567,0,0
188843,335.734,-460.404,0,0
189103,336.06,-457.694,0,0
189364,336.568,-454.212,0,0
189624,337.831,-450.344,0,0
189884,339.848,-446.714,0,0
190145,342.178,-443.791,0,0
190405,344.203,-441.24,0,0
190665,346.061,-438.75,0,0
190926,347.915,-436.209,0,0
191186,349.738,-433.757,0,0
191446,351.373,-431.298,0,0
191707,352.87,-428.623,0,0
191967,354.629,-425.665,0,0
192227,356.5,-422.857,0,0
192488,358.073,-419.977,0,0
192748,359.599,-416.508,0,0
193008,361.531,-412.508,0,0
193269,364.161,-408.069,0,0
193529,367.634,-403.701,0,0
193789,371.709,-399.735,0,0
194050,376.048,-396.08,0,0
194310,380.691,-392.555,0,0
194570,385.89,-389.327,0,0
194831,391.422,-386.507,0,0
195091,397.302,-384.028,0,0
195351,403.748,-381.875,0,0
195612,410.364,-380.506,0,0
195872,417.331,-380.014,0,0
196132,424.152,-380.582,0,0
196393,430.601,-381.893,0,0
196653,436.599,-384.051,0,0
196913,441.619,-387.24,0,0
197174,444.974,-390.396,0,0
197434,447.348,-392.513,0,0
197694,449.91,-393.866,0,0
197955,452.691,-395.076,0,0
198215,455.432,-396.271,0,0
198475,458.256,-397.312,0,0
198735,461.09,-398.803,0,0
198996,463.197,-400.306,0,0
199256,465.173,-401.235,0,0
199516,467.384,-402.033,0,0
199777,469.611,-403.192,0,0
200037,471.086,-404.665,0,0
200297,471.595,-405.461,0,0
200558,471.68,-405.159,0,0
200818,472.213,-403.415,0,0
201078,473.983,-400.997,0,0
201339,476.659,-398.726,0,0
201599,479.826,-396.667,0,0
201859,483.447,-394.677,0,0
202120,487.471,-392.684,0,0
202380.025,492.035,-390.703,0,0
202640.35,497.419,-389.15,0,0
202900.675,503.19,-388.211,0,0
203161.0,509.061,-387.926,0,0
203421.325,515.068,-387.998,0,0
203681.65,521.137,-388.521,0,0
203941.975,527.306,-389.498,0,0
204202.3,533.579,-391.027,0,0
204462.625,539.826,-393.293,0,0
204722.95,545.535,-396.162,0,0
204983.275,550.882,-399.393,0,0
205243.6,555.593,-402.994,0,0
205503.925,559.671,-406.82,0,0
205764.25,563.105,-410.678,0,0
206024.575,565.511,-414.556,0,0
206284.9,566.744,-417.395,0,0
206545.225,567.992,-418.638,0,0
206805.55,569.917,-418.778,0,0
207065.875,572.868,-418.199,0,0
207326.2,577.211,-417.507,0,0
207586.525,582.518,-417.551,0,0
207846.85,588.038,-418.164,0,0
208107.175,593.89,-418.919,0,0
208367.5,600.311,-420.144,0,0
208627.825,607.038,-422.167,0,0
208888.15,613.759,-424.674,0,0
209148.475,620.571,-427.734,0,0
209408.8,627.357,-431.351,0,0
209669.125,634.089,-435.408,0,0
209929.45,640.713,-440.001,0,0
210189.775,647.092,-445.07,0,0
210450.1,653.237,-450.422,0,0
210710.425,659.286,-456.248,0,0
210970.75,664.992,-462.457,0,0
211231.075,670.356,-469.073,0,0
211491.4,675.216,-475.865,0,0
211751.725,679.656,-482.776,0,0
212012.05,683.755,-489.545,0,0
212272.375,687.825,-496.247,0,0
212532.7,692.018,-503.014,0,0
212793.025,696.221,-510.079,0,0
213053.35,700.55,-517.673,0,0
213313.675,704.64,-525.793,0,0
213574.0,708.139,-534.541,0,0
213834.325,710.771,-543.4,0,0
214094.65,712.941,-551.955,0,0
214354.975,715.025,-560.298,0,0
214615.3,717.019,-568.78,0,0
214875.625,719.024,-577.569,0,0
215135.95,720.661,-586.856,0,0
215396.275,721.798,-596.35,0,0
215656.6,722.029,-606.026,0,0
215916.925,721.976,-615.394,0,0
216177.25,721.392,-624.54,0,0
216437.575,720.809,-633.488,0,0
216697.9,720.072,-642.72,0,0
216958.225,718.727,-652.175,0,0
217218.55,716.709,-661.374,0,0
217478.875,714.391,-670.158,0,0
217739.2,712.013,-678.751,0,0
217999.525,709.286,-687.697,0,0
218259.85,706.119,-696.257,0,0
218520,702.505,-704.618,0,0
218780,698.364,-712.378,0,0
219041,694.313,-719.398,0,0
219301,690.565,-726.144,0,0
219561,687.316,-732.886,0,0
219822,684.122,-739.973,0,0
220082,680.829,-747.468,0,0
220342,676.896,-755.248,0,0
220603,672.686,-762.862,0,0
220863,668.049,-770.527,0,0
221123,663.077,-778.113,0,0
221384,657.824,-785.595,0,0
221644,652.395,-793.253,0,0
221904,646.315,-801.26,0,0
222165,638.901,-809.076,0,0
222425,630.823,-816.219,0,0
222685,621.892,-822.564,0,0
222946,612.615,-827.922,0,0
223206,602.857,-832.547,0,0
223466,592.751,-835.629,0,0
223727,583.086,-837.496,0,0
223987,574.235,-838.253,0,0
224247,565.905,-838.565,0,0
224508,558.307,-838.18,0,0
224768,551.545,-837.341,0,0
225028,545.914,-836.226,0,0
225289,541.316,-835.191,0,0
225549,537.174,-834.872,0,0
225809,533.735,-834.806,0,0
226070,530.791,-835.58,0,0
226330,527.44,-837.27,0,0
226590,523.826,-839.165,0,0
226851,519.97,-840.718,0,0
227111,516.626,-842.576,0,0
227371,513.102,-845.307,0,0
227632,508.877,-848.209,0,0
227892,503.96,-851.221,0,0
228152,498.496,-853.676,0,0
228413,492.958,-855.866,0,0
228673,487.287,-857.736,0,0
228933,481.67,-859.035,0,0
229193,476.196,-860.258,0,0
229454,470.921,-861.397,0,0
229714,465.583,-862.64,0,0
229974,460.253,-863.89,0,0
230235,454.729,-864.92,0,0
230495,449.067,-865.852,0,0
230755,443.399,-866.589,0,0
231016,437.67,-867.033,0,0
231276,432.012,-867.318,0,0
231536,426.376,-867.408,0,0
231797,420.879,-867.323,0,0
232057,415.431,-867.146,0,0
232317,410.017,-866.824,0,0
232578,404.734,-866.318,0,0
232838,399.597,-865.744,0,0
233098,394.587,-865.164,0,0
233359,389.525,-864.519,0,0
233619,384.69,-863.772,0,0
233879,379.81,-863.077,0,0
234140,374.909,-862.363,0,0
234400,369.999,-861.323,0,0
234660.3,365.342,-860.315,0,0
234920.625,360.923,-859.254,0,0
235180.95,356.449,-858.497,0,0
235441.275,351.868,-857.866,0,0
235701.6,347.085,-857.176,0,0
235961.925,342.085,-856.302,0,0
236222.25,336.948,-855.229,0,0
236482.575,331.767,-853.874,0,0
236742.9,326.807,-852.288,0,0
237003.225,321.904,-850.624,0,0
237263.55,317.067,-848.926,0,0
237523.875,312.136,-847.172,0,0
237784.2,307.049,-845.288,0,0
238044.525,301.876,-843.014,0,0
238304.85,296.768,-840.346,0,0
238565.175,291.935,-837.329,0,0
238825.5,287.283,-834.161,0,0
239085.825,283.016,-830.647,0,0
239346.15,278.982,-827.139,0,0
239606.475,275.347,-823.558,0,0
239866.8,271.958,-820.04,0,0
240127.125,268.749,-816.553,0,0
240387.45,265.656,-813.287,0,0
240647.775,262.487,-809.93,0,0
240908.1,259.453,-806.528,0,0
241168.425,256.477,-802.957,0,0
241428.75,253.651,-799.319,0,0
241689.075,251.041,-795.445,0,0
241949.4,248.792,-791.523,0,0
242209.725,246.915,-787.608,0,0
242470.05,245.238,-783.896,0,0
242730.375,243.809,-780.412,0,0
242990.7,242.41,-776.857,0,0
243251.025,241.26,-773.508,0,0
243511.35,240.323,-770.28,0,0
243771.675,239.509,-767.299,0,0
244032.0,238.748,-764.66,0,0
244292.325,237.949,-762.168,0,0
244552.65,236.878,-759.728,0,0
244812.975,235.854,-757.386,0,0
245073.3,234.839,-755.221,0,0
245333.625,233.723,-752.977,0,0
245593.95,232.386,-750.717,0,0
245854.275,231.204,-748.371,0,0
246114.6,230.121,-745.932,0,0
246374.925,228.976,-743.445,0,0
246635.25,227.981,-740.951,0,0
246895.575,227.115,-738.576,0,0
247155.9,226.333,-736.126,0,0
247416.225,225.565,-733.92,0,0
247676.55,224.662,-731.693,0,0
247936.875,223.836,-729.272,0,0
248197.2,223.094,-726.896,0,0
248457.525,222.521,-724.413,0,0
248717.85,222.2,-721.936,0,0
248978.175,222.209,-719.699,0,0
249238.5,222.313,-717.682,0,0
249498.825,222.421,-716.183,0,0
249759.15,222.355,-714.75,0,0
250019.475,222.143,-713.639,0,0
250279.8,221.695,-712.686,0,0
250540,221.084,-711.671,0,0
250800,220.192,-710.707,0,0
251061,219.054,-709.726,0,0
251321,217.796,-708.565,0,0
251581,216.424,-707.214,0,0
251842,214.924,-705.784,0,0
252102,213.425,-704.282,0,0
252362,211.765,-702.622,0,0
252623,209.964,-700.644,0,0
252883,208.28,-698.346,0,0
253143,206.727,-695.816,0,0
253404,205.372,-693.185,0,0
253664,204.118,-690.432,0,0
253924,202.962,-687.539,0,0
254185,201.978,-684.499,0,0
254445,201.219,-681.297,0,0
254705,200.755,-678.128,0,0
254966,200.421,-674.866,0,0
255226,200.384,-671.626,0,0
255486,200.366,-668.244,0,0
255747,200.731,-664.853,0,0
256007,201.445,-661.424,0,0
256267,202.532,-658.097,0,0
256528,203.98,-655.039,0,0
256788,205.646,-652.388,0,0
257048,207.375,-650.018,0,0
257309,209.072,-648.004,0,0
257569,210.729,-646.187,0,0
257829,212.276,-644.503,0,0
258090,213.671,-642.87,0,0
258350,214.984,-641.138,0,0
258610,216.375,-639.26,0,0
258871,218.006,-637.289,0,0
259131,220.003,-635.3,0,0
259391,222.329,-633.43,0,0
259651,225.085,-631.893,0,0
259912,228.14,-630.746,0,0
260172,231.166,-630.113,0,0
260432,234.341,-629.801,0,0
260693,237.599,-629.839,0,0
260953,240.908,-630.416,0,0
261213,244.242,-631.698,0,0
261474,247.139,-633.661,0,0
261734,249.579,-636.002,0,0
261994,251.539,-638.654,0,0
262255,253.066,-641.568,0,0
262515,254.068,-644.668,0,0
262775,254.434,-647.84,0,0
263036,254.279,-650.903,0,0
263296,253.768,-653.806,0,0
263556,252.911,-656.583,0,0
263817,251.772,-659.284,0,0
264077,250.225,-661.849,0,0
264337,248.286,-664.28,0,0
264598,246.04,-666.291,0,0
264858,243.579,-667.993,0,0
265118,240.966,-669.435,0,0
265379,238.186,-670.572,0,0
265639,235.423,-671.432,0,0
265899,232.459,-671.914,0,0
266160,229.555,-672.253,0,0
266420,226.481,-672.239,0,0
266680.25,223.511,-671.867,0,0
266940.575,220.538,-671.214,0,0
267200.9,217.752,-670.179,0,0
267461.225,215.067,-668.951,0,0
267721.55,212.613,-667.463,0,0
267981.875,210.361,-665.819,0,0
268242.2,208.353,-664.044,0,0
268502.525,206.56,-662.156,0,0
268762.85,205.016,-660.28,0,0
269023.175,203.631,-658.422,0,0
269283.5,202.317,-656.654,0,0
269543.825,201.117,-654.782,0,0
269804.15,199.981,-652.886,0,0
270064.475,198.993,-650.809,0,0
270324.8,198.102,-648.765,0,0
270585.125,197.493,-646.669,0,0
270845.45,197.058,-644.584,0,0
271105.775,196.847,-642.609,0,0
271366.1,196.761,-640.788,0,0
271626.425,196.826,-639.097,0,0
271886.75,196.945,-637.549,0,0
272147.075,197.164,-636.205,0,0
272407.4,197.196,-635.086,0,0
272667.725,197.136,-633.978,0,0
272928.05,196.808,-632.746,0,0
273188.375,196.48,-631.413,0,0
273448.7,196.16,-629.915,0,0
273709.025,195.979,-628.214,0,0
273969.35,196.031,-626.446,0,0
274229.675,196.314,-624.628,0,0
274490.0,196.848,-622.879,0,0
274750.325,197.537,-621.258,0,0
275010.65,198.232,-619.766,0,0
275270.975,199.318,-618.304,0,0
275531.3,200.37,-616.926,0,0
275791.625,201.616,-615.765,0,0
276051.95,202.966,-614.716,0,0
276312.275,204.483,-613.845,0,0
276572.6,206.099,-613.253,0,0
276832.925,207.775,-612.903,0,0
277093.25,209.471,-612.857,0,0
277353.575,211.091,-613.097,0,0
277613.9,212.614,-613.544,0,0
277874.225,214.026,-614.238,0,0
278134.55,215.308,-615.132,0,0
278394.875,216.452,-616.268,0,0
278655.2,217.337,-617.531,0,0
278915.525,218.051,-619.026,0,0
279175.85,218.514,-620.559,0,0
279436.175,218.731,-622.138,0,0
279696.5,218.774,-623.785,0,0
279956.825,218.541,-625.481,0,0
280217.15,218.071,-627.22,0,0
280477.475,217.272,-628.963,0,0
280737.8,216.141,-630.426,0,0
280998.125,214.929,-631.78,0,0
281258.45,213.606,-632.919,0,0
281518.775,212.218,-633.984,0,0
281779.1,210.689,-634.959,0,0
282039.425,209.008,-635.819,0,0
282299.75,207.21,-636.467,0,0
282560,205.428,-636.895,0,0
282820,203.652,-637.226,0,0
283081,201.826,-637.473,0,0
283341,199.954,-637.619,0,0
283601,198.002,-637.589,0,0
283862,196.067,-637.396,0,0
284122,194.203,-637.041,0,0
284382,192.408,-636.566,0,0
284643,190.598,-635.973,0,0
284903,188.793,-635.344,0,0
285163,187.093,-634.566,0,0
285424,185.397,-633.613,0,0
285684,183.791,-632.569,0,0
285944,182.27,-631.363,0,0
286205,180.897,-630.156,0,0
286465,179.647,-628.848,0,0
286725,178.435,-627.46,0,0
286986,177.399,-625.976,0,0
287246,176.503,-624.447,0,0
287506,175.812,-622.871,0,0
287767,175.347,-621.343,0,0
288027,175.086,-619.911,0,0
288287,174.908,-618.652,0,0
288548,174.808,-617.536,0,0
288808,174.713,-616.514,0,0
289068,174.684,-615.616,0,0
289329,174.611,-614.831,0,0
289589,174.537,-614.109,0,0
289849,174.375,-613.505,0,0
290109,174.181,-612.884,0,0
290370,173.959,-612.287,0,0
290630,173.779,-611.769,0,0
290890,173.575,-611.375,0,0
291151,173.205,-610.997,0,0
291411,172.715,-610.547,0,0
291671,172.152,-610.059,0,0
291932,171.564,-609.467,0,0
292192,170.969,-608.791,0,0
292452,170.329,-607.993,0,0
292713,169.778,-607.105,0,0
292973,169.36,-606.041,0,0
293233,169.039,-604.959,0,0
293494,168.911,-603.814,0,0
293754,168.939,-602.737,0,0
294014,169.135,-601.727,0,0
294275,169.444,-600.823,0,0
294535,169.843,-600.054,0,0
294795,170.349,-599.378,0,0
295056,170.904,-598.849,0,0
295316,171.552,-598.474,0,0
295576,172.15,-598.298,0,0
295837,172.736,-598.307,0,0
296097,173.279,-598.459,0,0
296357,173.692,-598.745,0,0
296618,174.017,-599.19,0,0
296878,174.271,-599.724,0,0
297138,174.35,-600.357,0,0
297399,174.277,-601.062,0,0
297659,174.049,-601.804,0,0
297919,173.66,-602.545,0,0
298180,173.129,-603.269,0,0
298440,172.463,-603.925,0,0
298700.2,171.712,-604.507,0,0
298960.525,170.896,-605.047,0,0
299220.85,169.974,-605.558,0,0
299481.175,169.024,-606.017,0,0
299741.5,167.977,-606.438,0,0
300001.825,166.881,-606.78,0,0
300262.15,165.702,-607.084,0,0
300522.475,164.481,-607.283,0,0
300782.8,163.239,-607.482,0,0
301043.125,161.894,-607.56,0,0
301303.45,160.547,-607.587,0,0
301563.775,159.143,-607.544,0,0
301824.1,157.73,-607.382,0,0
302084.425,156.268,-607.092,0,0
302344.75,154.815,-606.761,0,0
302605.075,153.46,-606.287,0,0
302865.4,152.146,-605.779,0,0
303125.725,150.813,-605.196,0,0
303386.05,149.548,-604.592,0,0
303646.375,148.305,-603.95,0,0
303906.7,147.067,-603.286,0,0
304167.025,145.832,-602.562,0,0
304427.35,144.678,-601.768,0,0
304687.675,143.499,-600.93,0,0
304948.0,142.33,-600.039,0,0
305208.325,141.298,-599.1,0,0
305468.65,140.305,-598.057,0,0
305728.975,139.394,-597.044,0,0
305989.3,138.517,-596.024,0,0
306249.625,137.756,-594.973,0,0
306509.95,137.039,-593.965,0,0
306770.275,136.371,-592.96,0,0
307030.6,135.781,-591.94,0,0
307290.925,135.204,-590.984,0,0
307551.25,134.721,-590.027,0,0
307811.575,134.3,-589.14,0,0
308071.9,133.897,-588.32,0,0
308332.225,133.486,-587.577,0,0
308592.55,133.087,-586.868,0,0
308852.875,132.682,-586.228,0,0
309113.2,132.205,-585.618,0,0
309373.525,131.751,-585.058,0,0
309633.85,131.246,-584.475,0,0
309894.175,130.716,-583.931,0,0
310154.5,130.188,-583.449,0,0
310414.825,129.595,-582.962,0,0
310675.15,128.956,-582.485,0,0
310935.475,128.234,-582.013,0,0
311195.8,127.455,-581.503,0,0
311456.125,126.638,-580.966,0,0
311716.45,125.743,-580.385,0,0
311976.775,124.808,-579.732,0,0
312237.1,123.861,-579,0,0
312497.425,122.921,-578.209,0,0
312757.75,121.989,-577.317,0,0
313018.075,121.073,-576.345,0,0
313278.4,120.165,-575.303,0,0
313538.725,119.311,-574.219,0,0
313799.05,118.503,-573.054,0,0
314059.375,117.753,-571.839,0,0
314319.7,117.076,-570.54,0,0
314580,116.405,-569.132,0,0
314840,115.945,-567.846,0,0
315101,115.588,-566.368,0,0
315361,115.345,-564.998,0,0
315621,115.187,-563.615,0,0
315882,115.198,-562.258,0,0
316142,115.285,-561.132,0,0
316402,115.41,-559.974,0,0
316663,115.621,-558.918,0,0
316923,115.82,-558.013,0,0
317183,115.998,-557.072,0,0
317444,116.109,-556.312,0,0
317704,116.304,-555.667,0,0
317964,116.38,-554.969,0,0
318225,116.41,-554.396,0,0
318485,116.49,-553.784,0,0
318745,116.457,-553.185,0,0
319006,116.499,-552.585,0,0
319266,116.433,-551.984,0,0
319526,116.387,-551.27,0,0
319787,116.501,-550.74,0,0
320047,116.478,-550.14,0,0
320307,116.473,-549.602,0,0
320567,116.505,-548.962,0,0
320828,116.567,-548.346,0,0
321088,116.683,-547.869,0,0
321348,116.811,-547.346,0,0
321609,117.049,-546.796,0,0
321869,117.324,-546.409,0,0
322129,117.55,-546.123,0,0
322390,117.725,-545.899,0,0
322650,117.942,-545.714,0,0
322910,118.063,-545.628,0,0
323171,118.204,-545.595,0,0
323431,118.281,-545.702,0,0
323691,118.25,-545.866,0,0
323952,118.184,-545.992,0,0
324212,117.98,-546.21,0,0
324472,117.691,-546.448,0,0
324733,117.453,-546.691,0,0
324993,116.93,-546.917,0,0
325253,116.385,-547.056,0,0
325514,115.796,-547.377,0,0
325774,115.046,-547.416,0,0
326034,114.343,-547.508,0,0
326295,113.53,-547.54,0,0
326555,112.706,-547.472,0,0
326815,111.83,-547.404,0,0
327076,110.927,-547.215,0,0
327336,110.032,-547.085,0,0
327596,109.114,-546.731,0,0
327857,108.235,-546.41,0,0
328117,107.366,-546.073,0,0
328377,106.442,-545.702,0,0
328638,105.489,-545.271,0,0
328898,104.609,-544.78,0,0
329158,103.711,-544.258,0,0
329419,102.892,-543.705,0,0
329679,102.027,-543.18,0,0
329939,101.19,-542.607,0,0
330200,100.326,-542.066,0,0
330460,99.5208,-541.541,0,0
330720.15,98.7574,-540.889,0,0
330980.475,97.8328,-540.348,0,0
331240.8,97.0413,-539.766,0,0
331501.125,96.1624,-539.141,0,0
331761.45,95.2435,-538.349,0,0
332021.775,94.3427,-537.7,0,0
332282.1,93.438,-536.932,0,0
332542.425,92.646,-536.249,0,0
332802.75,91.7137,-535.439,0,0
333063.075,90.8872,-534.625,0,0
333323.4,89.9362,-533.769,0,0
333583.725,89.0851,-532.904,0,0
333844.05,88.2375,-531.867,0,0
334104.375,87.4059,-530.925,0,0
334364.7,86.641,-529.921,0,0
334625.025,85.8146,-528.871,0,0
334885.35,85.0528,-527.756,0,0
335145.675,84.3046,-526.597,0,0
335406.0,83.592,-525.428,0,0
335666.325,83.0184,-524.265,0,0
335926.65,82.3581,-523.06,0,0
336186.975,81.7862,-521.798,0,0
336447.3,81.2643,-520.541,0,0
336707.625,80.788,-519.3,0,0
336967.95,80.2799,-518.1,0,0
337228.275,79.9207,-516.789,0,0
337488.6,79.5158,-515.552,0,0
337748.925,79.1385,-514.293,0,0
338009.25,78.8103,-513.029,0,0
338269.575,78.4331,-511.773,0,0
338529.9,78.2013,-510.493,0,0
338790.225,77.9416,-509.146,0,0
339050.55,77.6984,-507.832,0,0
339310.875,77.5243,-506.491,0,0
339571.2,77.4512,-505.126,0,0
339831.525,77.377,-503.735,0,0
340091.85,77.4339,-502.287,0,0
340352.175,77.56,-500.951,0,0
340612.5,77.7587,-499.632,0,0
340872.825,78.0115,-498.328,0,0
341133.15,78.4034,-497.097,0,0
341393.475,78.7437,-495.882,0,0
341653.8,79.2414,-494.742,0,0
341914.125,79.6851,-493.716,0,0
342174.45,80.2276,-492.772,0,0
342434.775,80.7824,-491.932,0,0
342695.1,81.3614,-491.156,0,0
342955.425,81.9295,-490.433,0,0
343215.75,82.4176,-489.85,0,0
343476.075,82.9626,-489.367,0,0
343736.4,83.3697,-488.931,0,0
343996.725,83.7771,-488.534,0,0
344257.05,84.0818,-488.248,0,0
344517.375,84.3021,-487.987,0,0
344777.7,84.4575,-487.678,0,0
345038.025,84.5135,-487.366,0,0
345298.35,84.5231,-487.023,0,0
345558.675,84.531,-486.642,0,0
345819.0,84.4972,-486.248,0,0
346079.325,84.4,-485.803,0,0
346339.65,84.3702,-485.355,0,0
346599.975,84.3188,-484.977,0,0
346860,84.2911,-484.47,0,0
347121,84.2025,-484.035,0,0
347381,84.1251,-483.58,0,0
347641,83.9839,-483.074,0,0
347902,83.8651,-482.639,0,0
348162,83.6796,-482.087,0,0
348422,83.3956,-481.559,0,0
348683,83.2238,-480.918,0,0
348943,83.1035,-480.204,0,0
349203,83.0002,-479.448,0,0
349464,82.889,-478.747,0,0
349724,82.8687,-477.913,0,0
349984,82.9581,-477.17,0,0
350245,83.0508,-476.369,0,0
350505,83.257,-475.627,0,0
350765,83.5157,-474.9,0,0
351025,83.7923,-474.22,0,0
351286,84.2292,-473.687,0,0
351546,84.6293,-473.198,0,0
351806,85.0141,-472.849,0,0
352067,85.3567,-472.62,0,0
352327,85.662,-472.518,0,0
352587,85.8469,-472.37,0,0
352848,85.9698,-472.28,0,0
353108,86.0332,-472.253,0,0
353368,85.952,-472.241,0,0
353629,85.8584,-472.158,0,0
353889,85.565,-472.049,0,0
354149,85.3185,-471.858,0,0
354410,85.0205,-471.702,0,0
354670,84.697,-471.486,0,0
354930,84.3576,-471.152,0,0
355191,84.0473,-470.807,0,0
355451,83.6545,-470.455,0,0
355711,83.3285,-470.034,0,0
355972,82.992,-469.628,0,0
356232,82.5975,-469.169,0,0
356492,82.2831,-468.676,0,0
356753,81.947,-468.182,0,0
357013,81.5577,-467.639,0,0
357273,81.1781,-467.049,0,0
357534,80.8438,-466.438,0,0
357794,80.5212,-465.759,0,0
358054,80.2563,-465.05,0,0
358315,80.0163,-464.264,0,0
358575,79.889,-463.562,0,0
358835,79.7528,-462.797,0,0
359096,79.6436,-462.116,0,0
359356,79.6173,-461.34,0,0
359616,79.6232,-460.749,0,0
359877,79.6427,-460.052,0,0
360137,79.6307,-459.426,0,0
360397,79.6222,-458.896,0,0
360658,79.6447,-458.321,0,0
360918,79.6416,-457.691,0,0
361178,79.6241,-457.199,0,0
361438,79.563,-456.639,0,0
361699,79.4931,-456.12,0,0
361959,79.4294,-455.531,0,0
362219,79.3409,-454.937,0,0
362480,79.2985,-454.298,0,0
362740.1,79.2816,-453.646,0,0
363000.425,79.2245,-452.919,0,0
363260.75,79.3174,-452.247,0,0
363521.075,79.4367,-451.531,0,0
363781.4,79.6481,-450.855,0,0
364041.725,79.9369,-450.297,0,0
364302.05,80.1892,-449.76,0,0
364562.375,80.5077,-449.291,0,0
364822.7,80.8104,-448.896,0,0
365083.025,81.1364,-448.53,0,0
365343.35,81.4644,-448.329,0,0
365603.675,81.7088,-448.192,0,0
365864.0,81.8984,-448.133,0,0
366124.325,82.0327,-448.048,0,0
366384.65,81.9983,-448.114,0,0
366644.975,81.9105,-448.099,0,0
366905.3,81.6965,-448.107,0,0
367165.625,81.4116,-448.012,0,0
367425.95,81.098,-447.913,0,0
367686.275,80.7098,-447.734,0,0
367946.6,80.2344,-447.509,0,0
368206.925,79.7674,-447.241,0,0
368467.25,79.2618,-446.797,0,0
368727.575,78.6978,-446.336,0,0
368987.9,78.1489,-445.69,0,0
369248.225,77.6919,-444.982,0,0
369508.55,77.2763,-444.115,0,0
369768.875,77.0632,-443.16,0,0
370029.2,76.9563,-442.235,0,0
370289.525,77.004,-441.289,0,0
370549.85,77.1789,-440.406,0,0
370810.175,77.472,-439.68,0,0
371070.5,77.807,-439.026,0,0
371330.825,78.2341,-438.516,0,0
371591.15,78.5826,-438.109,0,0
371851.475,78.8948,-437.809,0,0
372111.8,79.191,-437.692,0,0
372372.125,79.3853,-437.575,0,0
372632.45,79.4105,-437.57,0,0
372892.775,79.3691,-437.577,0,0
373153.1,79.1522,-437.545,0,0
373413.425,78.8593,-437.413,0,0
373673.75,78.528,-437.283,0,0
373934.075,78.1295,-437.066,0,0
374194.4,77.7378,-436.787,0,0
374454.725,77.303,-436.332,0,0
374715.05,76.9146,-435.905,0,0
374975.375,76.4775,-435.366,0,0
375235.7,76.1087,-434.869,0,0
375496.025,75.6785,-434.223,0,0
375756.35,75.3698,-433.52,0,0
376016.675,75.087,-432.74,0,0
376277.0,74.8967,-432.007,0,0
376537.325,74.763,-431.248,0,0
376797.65,74.6471,-430.474,0,0
377057.975,74.6351,-429.696,0,0
377318.3,74.6368,-428.969,0,0
377578.625,74.6935,-428.258,0,0
377838.95,74.7555,-427.585,0,0
378099.275,74.8775,-426.921,0,0
378359.6,75.0415,-426.257,0,0
378619.925,75.1703,-425.657,0,0
378880,75.3406,-425.14,0,0
379141,75.514,-424.576,0,0
379401,75.7024,-424.055,0,0
379661,75.9251,-423.61,0,0
379922,76.2093,-423.134,0,0
380182,76.3859,-422.827,0,0
380442,76.5456,-422.49,0,0
380703,76.6913,-422.263,0,0
380963,76.7246,-421.986,0,0
381223,76.7916,-421.687,0,0
381483,76.7966,-421.432,0,0
381744,76.766,-421.131,0,0
382004,76.7387,-420.835,0,0
382264,76.7171,-420.523,0,0
382525,76.7365,-420.189,0,0
382785,76.767,-419.861,0,0
383045,76.7329,-419.526,0,0
383306,76.6867,-419.276,0,0
383566,76.6427,-419.001,0,0
383826,76.5506,-418.843,0,0
384087,76.4545,-418.605,0,0
384347,76.2851,-418.324,0,0
384607,76.0466,-418.092,0,0
384868,75.776,-417.774,0,0
385128,75.541,-417.396,0,0
385388,75.3151,-417.049,0,0
385649,75.0431,-416.681,0,0
385909,74.7939,-416.243,0,0
386169,74.55,-415.816,0,0
386430,74.3088,-415.361,0,0
386690,74.0054,-414.894,0,0
386950,73.7678,-414.409,0,0
387211,73.5003,-413.86,0,0
387471,73.2238,-413.279,0,0
387731,72.939,-412.722,0,0
387992,72.6585,-412.102,0,0
388252,72.4159,-411.425,0,0
388512,72.2268,-410.746,0,0
388773,71.9683,-410.006,0,0
389033,71.7955,-409.225,0,0
389293,71.656,-408.49,0,0
389554,71.5702,-407.65,0,0
389814,71.4873,-406.816,0,0
390074,71.5029,-405.942,0,0
390335,71.497,-405.105,0,0
390595,71.6269,-404.249,0,0
390855,71.7587,-403.402,0,0
391116,71.9322,-402.547,0,0
391376,72.1843,-401.704,0,0
391636,72.5031,-400.834,0,0
391896,72.8404,-400.091,0,0
392157,73.2521,-399.361,0,0
392417,73.6841,-398.685,0,0
392677,74.2242,-398.039,0,0
392938,74.6372,-397.446,0,0
393198,75.1837,-396.933,0,0
393458,75.7473,-396.5,0,0
393719,76.2392,-396.102,0,0
393979,76.6922,-395.72,0,0
394239,77.137,-395.374,0,0
394500,77.6819,-395.062,0,0
394760.05,78.1097,-394.89,0,0
395020.375,78.5861,-394.647,0,0
395280.7,79.024,-394.438,0,0
395541.025,79.4262,-394.303,0,0
395801.35,79.8131,-394.226,0,0
396061.675,80.1825,-394.109,0,0
396322.0,80.5321,-394.055,0,0
396582.325,80.8652,-394.054,0,0
396842.65,81.1721,-394.052,0,0
397102.975,81.4215,-394.105,0,0
397363.3,81.6617,-394.215,0,0
397623.625,81.8201,-394.284,0,0
397883.95,81.9518,-394.395,0,0
398144.275,81.9964,-394.526,0,0
398404.6,82.002,-394.632,0,0
398664.925,82.0127,-394.722,0,0
398925.25,81.9199,-394.771,0,0
399185.575,81.8145,-394.843,0,0
399445.9,81.7278,-394.859,0,0
399706.225,81.579,-394.907,0,0
399966.55,81.447,-394.947,0,0
400006.6,81.3999,-394.91,0,0