File: Accelerated corrosion test data/2025-10-15_12-55-04/sample_4.csv
Frequency (Hz),Impedance (ohms),Phase (Radians),Temperature (C),Humidity (%)
10000.0,263.823,-11890.5,0,0
10260.325,260.841,-11592.2,0,0
10520.65,250.551,-11307.9,0,0
10780.975,245.175,-11036.2,0,0
11041.3,240.032,-10777.5,0,0
11301.625,234.273,-10533.9,0,0
11561.95,229.335,-10298,0,0
11822.275,224.048,-10072.3,0,0
12082.6,219.606,-9857.14,0,0
12342.925,215.434,-9650.16,0,0
12603.25,213.831,-9450.69,0,0
12863.575,208.343,-9263.27,0,0
13123.9,206.48,-9084.27,0,0
13384.225,199.45,-8905.2,0,0
13644.55,195.781,-8733.56,0,0
13904.875,193.499,-8568.61,0,0
14165.2,195.043,-8405.5,0,0
14425.525,199.325,-8259.43,0,0
14685.8,199.462,-8143.24,0,0
14946.175,181.866,-7987.32,0,0
15206.5,181.456,-7842.28,0,0
15466.825,189.889,-7697.5,0,0
15727.15,187.279,-7600.53,0,0
15987.5,185.932,-7482.87,0,0
16247.8,170.855,-7353.62,0,0
16508.125,193.189,-7228.04,0,0
16768.45,179.08,-7126.11,0,0
17028.775,170.368,-7037.75,0,0
17289.1,160.336,-6924.26,0,0
17549.425,158.584,-6819.86,0,0
17809.75,155.596,-6719.88,0,0
18070.075,152.015,-6620.18,0,0
18330.4,153.538,-6524.05,0,0
18590.725,152.54,-6435.17,0,0
18851.05,149.482,-6351.4,0,0
19111.375,145.301,-6261.7,0,0
19371.7,142.747,-6176.23,0,0
19632.025,141.844,-6092.16,0,0
19892.35,144.129,-6011.78,0,0
20152.675,143.58,-5934.55,0,0
20413.0,140.738,-5860.65,0,0
20673.3,140.902,-5785.92,0,0
20933.65,137.265,-5712.51,0,0
21193.975,140.21,-5637.48,0,0
21454.3,152.158,-5572.11,0,0
21714.625,146.55,-5515.22,0,0
21974.9,148.821,-5443.81,0,0
22235.275,148.762,-5399.09,0,0
22495.6,135.343,-5342.04,0,0
22755.925,128.414,-5276.47,0,0
23016.25,125.431,-5214.57,0,0
23276.6,122.845,-5154.46,0,0
23536.9,120.94,-5097.03,0,0
23797.225,118.864,-5040.12,0,0
24057.55,117.116,-4984.17,0,0
24317.875,116.046,-4929.58,0,0
24578.2,114.67,-4876.24,0,0
24838.525,114.121,-4824.35,0,0
25098.85,114.701,-4772.88,0,0
25359.175,113.187,-4725.47,0,0
25619.5,111.926,-4675.89,0,0
25879.8,110.82,-4632.22,0,0
26140.1,108.181,-4583.48,0,0
26400.5,107.112,-4536.78,0,0
26660.8,106.35,-4491.01,0,0
26921.1,106.297,-4446.35,0,0
27181.4,105.915,-4401.07,0,0
27441.8,106.223,-4356.31,0,0
27702.1,109.96,-4312.17,0,0
27962.4,115.93,-4272.22,0,0
28222.7,118.861,-4243.67,0,0
28483.1,113.126,-4208.11,0,0
28743.4,109.796,-4168.08,0,0
29003.7,110.78,-4124.98,0,0
29264,117.707,-4095.65,0,0
29524.4,112.038,-4063.29,0,0
29784.7,110.556,-4033.05,0,0
30045,105.368,-3996.93,0,0
30305.3,100.957,-3961.49,0,0
30565.7,99.8846,-3925.78,0,0
30826,99.0714,-3891.1,0,0
31086.3,97.7948,-3857.12,0,0
31346.6,98.8003,-3824.07,0,0
31607,97.4173,-3792.76,0,0
31867.3,97.8344,-3761.09,0,0
32127.6,99.8906,-3730.87,0,0
32387.9,98.4258,-3704.79,0,0
32648.3,96.4429,-3674.65,0,0
32908.6,94.5893,-3647.62,0,0
33168.9,92.5186,-3618.32,0,0
33429.2,90.2351,-3589.76,0,0
33689.6,88.2889,-3560.52,0,0
33949.9,87.3109,-3532.03,0,0
34210.2,87.4824,-3504.1,0,0
34470.5,86.0979,-3478.2,0,0
34730.9,84.6306,-3451.34,0,0
34991.2,84.5664,-3424.13,0,0
35251.5,83.8418,-3398.46,0,0
35511.8,83.3429,-3373.32,0,0
35772.2,82.8333,-3348.16,0,0
36032.5,81.6562,-3323.56,0,0
36292.8,81.0302,-3298.71,0,0
36553.1,80.7029,-3274.04,0,0
36813.5,80.3505,-3250.19,0,0
37073.8,80.6193,-3227.04,0,0
37334.1,79.5699,-3204.46,0,0
37594.4,79.2502,-3181.25,0,0
37854.8,79.2667,-3158.76,0,0
38115.1,78.5115,-3137.1,0,0
38375.4,77.3693,-3114.53,0,0
38635.7,77.1776,-3092.41,0,0
38896.1,77.3275,-3070.8,0,0
39156.4,76.8626,-3050.03,0,0
39416.7,76.4671,-3028.84,0,0
39677,76.2004,-3007.28,0,0
39937.4,76.9259,-2986.25,0,0
40197.7,78.8121,-2966.24,0,0
40458,80.2309,-2947.62,0,0
40718.3,79.2245,-2930.49,0,0
40978.7,78.9603,-2909.99,0,0
41239,80.1723,-2891.85,0,0
41499.3,81.8293,-2875.17,0,0
41759.6,78.9876,-2859.32,0,0
42020,77.5779,-2840.77,0,0
42280.275,76.4587,-2821.2,0,0
42540.6,78.8608,-2803.48,0,0
42800.925,78.4331,-2789.27,0,0
43061.25,75.5815,-2771.56,0,0
43321.575,75.566,-2754.19,0,0
43581.9,74.2958,-2737.61,0,0
43842.225,73.651,-2720.38,0,0
44102.55,73.6776,-2704.24,0,0
44362.875,72.3026,-2687.41,0,0
44623.2,72.558,-2670.33,0,0
44883.525,72.2035,-2655.34,0,0
45143.85,71.3032,-2639.39,0,0
45404.175,70.4648,-2622.54,0,0
45664.5,71.2362,-2605.76,0,0
45924.825,72.7839,-2591.65,0,0
46185.15,71.3847,-2578.2,0,0
46445.475,70.4027,-2561.76,0,0
46705.8,71.0923,-2546.72,0,0
46966.125,71.627,-2532.73,0,0
47226.45,71.5958,-2518.41,0,0
47486.775,71.4312,-2505.45,0,0
47747.1,69.9624,-2491.94,0,0
48007.425,69.4596,-2477.61,0,0
48267.75,68.4391,-2464.47,0,0
48528.075,67.8187,-2450.04,0,0
48788.4,66.9701,-2436.46,0,0
49048.725,66.1586,-2422.45,0,0
49309.05,66.1023,-2408.46,0,0
49569.375,65.6339,-2395.59,0,0
49829.7,64.9433,-2381.54,0,0
50090.025,64.8068,-2368.4,0,0
50350.35,64.4341,-2355.06,0,0
50610.675,64.2384,-2341.83,0,0
50871.0,64.0844,-2328.86,0,0
51131.325,64.0331,-2316.08,0,0
51391.65,63.8814,-2303.24,0,0
51651.975,63.7679,-2290.37,0,0
51912.3,63.7627,-2277.62,0,0
52172.625,64.3266,-2264.77,0,0
52432.95,64.436,-2252.78,0,0
52693.275,64.4965,-2239.91,0,0
52953.6,65.4386,-2227.24,0,0
53213.925,66.5108,-2215.33,0,0
53474.25,67.8492,-2203.31,0,0
53734.575,69.2528,-2191.75,0,0
53994.9,71.6071,-2180.4,0,0
54255.225,73.8175,-2170.93,0,0
54515.55,75.8005,-2162.24,0,0
54775.875,75.8006,-2154.65,0,0
55036.2,74.52,-2146.13,0,0
55296.525,73.6422,-2136.58,0,0
55556.85,71.9267,-2127.67,0,0
55817.175,69.8933,-2117.16,0,0
56077.5,68.5837,-2106.9,0,0
56337.825,67.2794,-2096.09,0,0
56598.15,66.0028,-2084.82,0,0
56858.475,65.6889,-2073.45,0,0
57118.8,66.0056,-2062.53,0,0
57379.125,66.2455,-2051.99,0,0
57639.45,66.3034,-2041.76,0,0
57899.775,66.4072,-2031.63,0,0
58160.1,66.7401,-2021.14,0,0
58420.4,67.8244,-2010.88,0,0
58680.7,68.296,-2002.29,0,0
58941.1,67.6322,-1991.66,0,0
59201.4,68.938,-1980.98,0,0
59461.7,70.9552,-1970.8,0,0
59722,73.3782,-1961.88,0,0
59982.4,75.7167,-1954.38,0,0
60242.7,76.768,-1946.94,0,0
60503,77.7454,-1939.39,0,0
60763.3,80.1479,-1932.22,0,0
61023.7,80.8344,-1928.8,0,0
61284,78.7088,-1923.97,0,0
61544.3,74.6303,-1917.74,0,0
61804.6,71.6732,-1908.19,0,0
62065,70.138,-1899.39,0,0
62325.3,68.8592,-1891.25,0,0
62585.6,66.211,-1882.47,0,0
62845.9,65.162,-1872.03,0,0
63106.3,64.8115,-1863.27,0,0
63366.6,64.3001,-1853.91,0,0
63626.9,64.4494,-1844.88,0,0
63887.2,64.7065,-1836.9,0,0
64147.6,63.5032,-1828.08,0,0
64407.9,63.9912,-1818.79,0,0
64668.2,64.5826,-1810.39,0,0
64928.5,65.1674,-1802.29,0,0
65188.9,65.3296,-1794.69,0,0
65449.2,65.2962,-1786.63,0,0
65709.5,65.2513,-1778.25,0,0
65969.8,66.5855,-1769.61,0,0
66230.2,67.731,-1762.55,0,0
66490.5,68.3177,-1755.2,0,0
66750.8,68.8888,-1748.08,0,0
67011.1,69.4652,-1740.75,0,0
67271.5,70.6902,-1733.65,0,0
67531.8,71.7943,-1727.32,0,0
67792.1,72.6842,-1721.11,0,0
68052.4,73.3471,-1715.57,0,0
68312.8,73.6194,-1709.94,0,0
68573.1,73.944,-1704.79,0,0
68833.4,73.3503,-1700.15,0,0
69093.7,71.3917,-1695.03,0,0
69354.1,69.4058,-1689.18,0,0
69614.4,67.2624,-1681.96,0,0
69874.7,66.3618,-1674.55,0,0
70135,65.4656,-1667.77,0,0
70395.4,64.1867,-1660.44,0,0
70655.7,64.1963,-1652.35,0,0
70916,65.2803,-1645.98,0,0
71176.3,64.9266,-1640.26,0,0
71436.7,64.4783,-1634.17,0,0
71697,63.842,-1628.67,0,0
71957.3,62.1171,-1622.62,0,0
72217.6,60.5419,-1615.87,0,0
72478,59.5189,-1608.77,0,0
72738.3,58.4635,-1601.58,0,0
72998.6,57.6958,-1594.23,0,0
73258.9,57.3002,-1586.6,0,0
73519.3,57.6806,-1579.28,0,0
73779.6,57.7731,-1572.4,0,0
74039.9,58.3024,-1565.48,0,0
74300.225,58.5013,-1559.14,0,0
74560.55,58.7426,-1552.36,0,0
74820.875,59.2773,-1545.93,0,0
75081.2,59.9413,-1539.41,0,0
75341.525,60.7433,-1533.62,0,0
75601.85,61.1015,-1527.87,0,0
75862.175,61.3477,-1521.94,0,0
76122.5,61.8263,-1516.03,0,0
76382.825,62.3535,-1510.51,0,0
76643.15,62.4157,-1505.09,0,0
76903.475,62.3007,-1499.17,0,0
77163.8,63.1678,-1492.9,0,0
77424.125,64.3493,-1487.7,0,0
77684.45,65.1843,-1482.9,0,0
77944.775,65.6516,-1478.6,0,0
78205.1,65.5642,-1474.23,0,0
78465.425,65.3039,-1469.7,0,0
78725.75,64.6627,-1465.19,0,0
78986.075,63.7848,-1460.33,0,0
79246.4,62.9855,-1455.2,0,0
79506.725,62.2347,-1449.87,0,0
79767.05,61.6525,-1444.43,0,0
80027.375,61.1906,-1438.87,0,0
80287.7,60.9165,-1433.37,0,0
80548.025,60.7193,-1427.92,0,0
80808.35,60.6349,-1422.61,0,0
81068.675,60.5579,-1417.43,0,0
81329.0,60.478,-1412.4,0,0
81589.325,60.2839,-1407.34,0,0
81849.65,60.0494,-1402.3,0,0
82109.975,59.8055,-1397.3,0,0
82370.3,59.5798,-1392.24,0,0
82630.625,59.3214,-1387.22,0,0
82890.95,59.0807,-1382.19,0,0
83151.275,58.8159,-1377.26,0,0
83411.6,58.5225,-1372.28,0,0
83671.925,58.2758,-1367.23,0,0
83932.25,58.1113,-1362.25,0,0
84192.575,57.8916,-1357.31,0,0
84452.9,57.7311,-1352.38,0,0
84713.225,57.5291,-1347.45,0,0
84973.55,57.3755,-1342.58,0,0
85233.875,57.2648,-1337.82,0,0
85494.2,57.1277,-1332.92,0,0
85754.525,56.9494,-1328.19,0,0
86014.85,56.6658,-1323.42,0,0
86275.175,56.6288,-1318.59,0,0
86535.5,56.5921,-1313.87,0,0
86795.825,56.4203,-1309.35,0,0
87056.15,56.1591,-1304.72,0,0
87316.475,56.0277,-1300.09,0,0
87576.8,55.8676,-1295.66,0,0
87837.125,55.5444,-1291.14,0,0
88097.45,54.9749,-1286.75,0,0
88357.775,54.3712,-1281.88,0,0
88618.1,53.9888,-1276.93,0,0
88878.425,53.8963,-1271.95,0,0
89138.75,53.7421,-1267.28,0,0
89399.075,53.6049,-1262.46,0,0
89659.4,53.6268,-1257.7,0,0
89919.725,53.5827,-1253.05,0,0
90180,53.572,-1248.55,0,0
90440.4,53.5635,-1243.87,0,0
90700.7,53.4657,-1239.18,0,0
90961,53.28,-1234.57,0,0
91221.3,53.231,-1229.88,0,0
91481.7,53.3392,-1225.23,0,0
91742,53.4821,-1220.66,0,0
92002.3,53.7556,-1216.02,0,0
92262.6,54.0452,-1211.58,0,0
92523,54.3607,-1207.36,0,0
92783.3,54.6942,-1203.08,0,0
93043.6,54.9143,-1199.1,0,0
93303.9,54.9502,-1195.16,0,0
93564.3,54.9128,-1191.18,0,0
93824.6,54.7439,-1187.17,0,0
94084.9,54.4133,-1183.14,0,0
94345.2,54.0381,-1179.07,0,0
94605.6,53.6403,-1174.75,0,0
94865.9,53.2721,-1170.2,0,0
95126.2,53.146,-1165.67,0,0
95386.5,53.0696,-1161.21,0,0
95646.9,53.0323,-1156.65,0,0
95907.2,53.1179,-1152.14,0,0
96167.5,53.2535,-1147.66,0,0
96427.8,53.4779,-1143.3,0,0
96688.2,53.6518,-1139,0,0
96948.5,53.7809,-1134.76,0,0
97208.8,53.9735,-1130.42,0,0
97469.1,54.1831,-1126.12,0,0
97729.5,54.2935,-1121.81,0,0
97989.8,54.6068,-1117.41,0,0
98250.1,54.952,-1113.06,0,0
98510.4,55.3658,-1108.82,0,0
98770.8,55.7058,-1104.53,0,0
99031.1,56.2471,-1100.27,0,0
99291.4,56.8521,-1096.03,0,0
99551.7,57.5281,-1092.01,0,0
99812.1,58.0241,-1087.98,0,0
100072,58.5949,-1083.85,0,0
100333,59.5353,-1079.71,0,0
100593,60.7385,-1075.9,0,0
100853,61.8646,-1072.76,0,0
101114,62.3809,-1069.68,0,0
101374,63.0068,-1066.43,0,0
101634,63.6282,-1063.73,0,0
101895,63.4882,-1061.29,0,0
102155,62.6833,-1058.65,0,0
102415,61.4983,-1055.23,0,0
102676,60.3751,-1051.23,0,0
102936,59.5785,-1046.84,0,0
103196,58.9825,-1042.21,0,0
103457,58.6183,-1037.39,0,0
103717,58.6415,-1032.35,0,0
103977,59.1036,-1027.42,0,0
104238,59.6937,-1022.66,0,0
104498,60.397,-1017.86,0,0
104758,61.3848,-1013.21,0,0
105019,62.5678,-1008.67,0,0
105279,63.8251,-1004.43,0,0
105539,65.0601,-1000.21,0,0
105800,66.4327,-996.067,0,0
106060,67.7952,-992.118,0,0
106320.175,69.2497,-988.264,0,0
106580.5,70.7513,-984.505,0,0
106840.825,72.2611,-980.966,0,0
107101.15,73.6199,-977.508,0,0
107361.475,74.9632,-974.005,0,0
107621.8,76.2434,-970.448,0,0
107882.125,77.7587,-966.853,0,0
108142.45,79.4179,-963.401,0,0
108402.775,81.2129,-960.076,0,0
108663.1,82.9933,-957.005,0,0
108923.425,84.8021,-953.988,0,0
109183.75,86.6335,-951.208,0,0
109444.075,88.5062,-948.689,0,0
109704.4,90.1135,-946.356,0,0
109964.725,91.5235,-944.029,0,0
110225.05,93.0283,-941.663,0,0
110485.375,94.4,-939.495,0,0
110745.7,95.7959,-937.469,0,0
111006.025,97.0314,-935.343,0,0
111266.35,98.0446,-933.366,0,0
111526.675,99.1327,-931.285,0,0
111787.0,100.067,-929.247,0,0
112047.325,101.152,-927.275,0,0
112307.65,102.152,-925.333,0,0
112567.975,103.025,-923.505,0,0
112828.3,103.804,-921.734,0,0
113088.625,104.596,-919.939,0,0
113348.95,105.313,-918.209,0,0
113609.275,105.896,-916.523,0,0
113869.6,106.397,-914.838,0,0
114129.925,106.899,-913.129,0,0
114390.25,107.224,-911.309,0,0
114650.575,107.665,-909.662,0,0
114910.9,108.017,-907.966,0,0
115171.225,108.284,-906.416,0,0
115431.55,108.44,-904.857,0,0
115691.875,108.41,-903.219,0,0
115952.2,108.379,-901.544,0,0
116212.525,108.263,-899.819,0,0
116472.85,108.032,-898.137,0,0
116733.175,107.706,-896.37,0,0
116993.5,107.272,-894.445,0,0
117253.825,106.793,-892.439,0,0
117514.15,106.288,-890.297,0,0
117774.475,105.75,-887.988,0,0
118034.8,105.339,-885.417,0,0
118295.125,105.063,-882.732,0,0
118555.45,104.96,-880.066,0,0
118815.775,104.891,-877.229,0,0
119076.1,105.197,-874.156,0,0
119336.425,106.13,-871.1,0,0
119596.75,107.777,-868.579,0,0
119857.075,109.425,-867.081,0,0
120117.4,110.679,-866.306,0,0
120377.725,111.309,-865.898,0,0
120638.05,111.393,-865.814,0,0
120898.375,110.41,-865.69,0,0
121158.7,108.827,-864.894,0,0
121419.025,107.163,-863.417,0,0
121679.35,105.705,-861.472,0,0
121939.675,104.291,-859.339,0,0
122200.0,103.063,-856.969,0,0
122460,101.963,-854.506,0,0
122721,101.053,-851.876,0,0
122981,100.33,-849.341,0,0
123241,99.6012,-846.873,0,0
123502,98.9247,-844.333,0,0
123762,98.2188,-841.839,0,0
124022,97.58,-839.228,0,0
124283,97.0242,-836.652,0,0
124543,96.4926,-834.056,0,0
124803,96.0029,-831.465,0,0
125064,95.6311,-828.874,0,0
125324,95.3355,-826.48,0,0
125584,94.9153,-824.118,0,0
125845,94.5156,-821.76,0,0
126105,94.1157,-819.589,0,0
126365,93.5018,-817.459,0,0
126626,92.7384,-815.276,0,0
126886,91.9061,-812.961,0,0
127146,91.1038,-810.477,0,0
127406,90.3672,-808.108,0,0
127667,89.5217,-805.664,0,0
127927,88.6957,-803.437,0,0
128187,87.6363,-801.12,0,0
128448,86.3107,-798.643,0,0
128708,85.0624,-795.974,0,0
128968,83.7571,-793.186,0,0
129229,82.3853,-790.217,0,0
129489,81.0738,-787.056,0,0
129749,79.8657,-783.745,0,0
130010,78.6583,-780.315,0,0
130270,77.6757,-776.708,0,0
130530,76.8566,-773.123,0,0
130791,76.0191,-769.548,0,0
131051,75.2368,-765.884,0,0
131311,74.5844,-762.109,0,0
131572,74.1098,-758.348,0,0
131832,73.6696,-754.649,0,0
132092,73.2295,-750.952,0,0
132353,72.8509,-747.12,0,0
132613,72.6136,-743.295,0,0
132873,72.4594,-739.497,0,0
133134,72.3845,-735.763,0,0
133394,72.2991,-732.05,0,0
133654,72.2343,-728.273,0,0
133915,72.2472,-724.451,0,0
134175,72.3751,-720.675,0,0
134435,72.5306,-716.926,0,0
134696,72.6999,-713.185,0,0
134956,72.9366,-709.458,0,0
135216,73.2373,-705.712,0,0
135477,73.6332,-701.938,0,0
135737,74.0861,-698.232,0,0
135997,74.5888,-694.584,0,0
136258,75.0782,-691.013,0,0
136518,75.6203,-687.416,0,0
136778,76.2153,-683.883,0,0
137039,76.8284,-680.49,0,0
137299,77.2991,-677.17,0,0
137559,77.6615,-673.742,0,0
137819,78.0312,-670.286,0,0
138080,78.3536,-666.791,0,0
138340.125,78.6913,-663.166,0,0
138600.45,79.1544,-659.452,0,0
138860.775,79.6265,-655.773,0,0
139121.1,80.1316,-651.98,0,0
139381.425,80.7428,-648.125,0,0
139641.75,81.512,-644.355,0,0
139902.075,82.2491,-640.598,0,0
140162.4,83.0303,-636.82,0,0
140422.725,83.8596,-632.961,0,0
140683.05,84.7853,-629.129,0,0
140943.375,85.8054,-625.301,0,0
141203.7,86.9119,-621.532,0,0
141464.025,88.0406,-617.815,0,0
141724.35,89.1609,-614.126,0,0
141984.675,90.3326,-610.405,0,0
142245.0,91.533,-606.747,0,0
142505.325,92.7592,-603.073,0,0
142765.65,93.9708,-599.427,0,0
143025.975,95.2217,-595.72,0,0
143286.3,96.5597,-592.069,0,0
143546.625,97.9229,-588.399,0,0
143806.95,99.2689,-584.728,0,0
144067.275,100.65,-581.038,0,0
144327.6,102.099,-577.253,0,0
144587.925,103.636,-573.529,0,0
144848.25,105.19,-569.798,0,0
145108.575,106.779,-566.028,0,0
145368.9,108.497,-562.195,0,0
145629.225,110.308,-558.42,0,0
145889.55,112.208,-554.676,0,0
146149.875,114.139,-550.94,0,0
146410.2,116.155,-547.245,0,0
146670.525,118.252,-543.592,0,0
146930.85,120.362,-540.005,0,0
147191.175,122.487,-536.42,0,0
147451.5,124.661,-532.825,0,0
147711.825,126.88,-529.223,0,0
147972.15,129.153,-525.64,0,0
148232.475,131.506,-521.989,0,0
148492.8,133.957,-518.388,0,0
148753.125,136.482,-514.811,0,0
149013.45,139.094,-511.245,0,0
149273.775,141.726,-507.767,0,0
149534.1,144.292,-504.2,0,0
149794.425,147.055,-500.448,0,0
150054.75,150.122,-496.724,0,0
150315.075,153.344,-493.149,0,0
150575.4,156.624,-489.669,0,0
150835.725,159.996,-486.187,0,0
151096.05,163.621,-482.693,0,0
151356.375,167.488,-479.397,0,0
151616.7,171.461,-476.301,0,0
151877.025,175.483,-473.378,0,0
152137.35,179.59,-470.432,0,0
152397.675,184.083,-467.619,0,0
152658.0,188.804,-465.283,0,0
152918.325,193.369,-463.374,0,0
153178.65,197.841,-461.584,0,0
153438.975,202.403,-460.02,0,0
153699.3,206.915,-458.802,0,0
153959.625,211.263,-457.879,0,0
154219.95,215.4,-457.147,0,0
154480,219.346,-456.729,0,0
154741,222.804,-456.425,0,0
155001,225.874,-455.737,0,0
155261,229.113,-454.703,0,0
155522,232.585,-453.718,0,0
155782,236.207,-453.04,0,0
156042,239.602,-452.711,0,0
156303,242.7,-452.358,0,0
156563,245.539,-452.037,0,0
156823,248.175,-451.378,0,0
157084,250.84,-450.457,0,0
157344,253.674,-449.47,0,0
157604,256.559,-448.415,0,0
157864,259.468,-447.258,0,0
158125,262.702,-445.801,0,0
158385,266.402,-444.558,0,0
158645,270.169,-443.615,0,0
158906,273.985,-442.55,0,0
159166,278.528,-441.54,0,0
159426,283.436,-441.686,0,0
159687,287.906,-442.503,0,0
159947,292.028,-443.517,0,0
160207,295.85,-444.997,0,0
160468,299.177,-446.59,0,0
160728,302.239,-448.529,0,0
160988,304.469,-450.497,0,0
161249,306.249,-452.235,0,0
161509,307.583,-453.562,0,0
161769,308.921,-454.412,0,0
162030,310.287,-455.132,0,0
162290,311.554,-455.786,0,0
162550,312.771,-456.236,0,0
162811,313.741,-456.537,0,0
163071,314.597,-456.403,0,0
163331,315.628,-455.993,0,0
163592,316.73,-455.392,0,0
163852,318.018,-454.617,0,0
164112,319.382,-453.656,0,0
164373,320.905,-452.305,0,0
164633,322.996,-450.796,0,0
164893,325.515,-449.371,0,0
165154,328.079,-448.128,0,0
165414,330.665,-446.831,0,0
165674,333.58,-445.194,0,0
165935,337.036,-443.5,0,0
166195,341.184,-442.056,0,0
166455,345.791,-440.927,0,0
166716,350.869,-440.168,0,0
166976,356.43,-439.914,0,0
167236,362.423,-440.494,0,0
167497,368.32,-441.947,0,0
167757,374.034,-444.13,0,0
168017,379.682,-446.914,0,0
168277,384.847,-450.422,0,0
168538,389.674,-454.184,0,0
168798,394.245,-458.265,0,0
169058,398.861,-462.825,0,0
169319,403.125,-468.475,0,0
169579,406.289,-474.618,0,0
169839,409.014,-480.629,0,0
170100,411.591,-487.345,0,0
170360.075,413.239,-494.876,0,0
170620.4,413.678,-502.841,0,0
170880.725,412.752,-510.93,0,0
171141.05,410.379,-518.558,0,0
171401.375,407.061,-525.28,0,0
171661.7,403.44,-531.355,0,0
171922.025,399.188,-537.3,0,0
172182.35,393.983,-542.58,0,0
172442.675,388.219,-547.014,0,0
172703.0,382.056,-550.674,0,0
172963.325,375.449,-553.473,0,0
173223.65,368.67,-555.251,0,0
173483.975,361.924,-556.234,0,0
173744.3,355.117,-556.29,0,0
174004.625,348.733,-555.476,0,0
174264.95,342.623,-554.202,0,0
174525.275,336.745,-552.29,0,0
174785.6,331.327,-549.825,0,0
175045.925,326.229,-547.113,0,0
175306.25,321.124,-543.92,0,0
175566.575,316.487,-540.03,0,0
175826.9,312.508,-535.72,0,0
176087.225,309.033,-531.237,0,0
176347.55,306.054,-526.564,0,0
176607.875,303.64,-521.75,0,0
176868.2,301.665,-516.944,0,0
177128.525,300.118,-512.183,0,0
177388.85,298.936,-507.486,0,0
177649.175,298.088,-502.845,0,0
177909.5,297.562,-498.38,0,0
178169.825,297.225,-494.113,0,0
178430.15,296.939,-489.952,0,0
178690.475,296.778,-485.753,0,0
178950.8,296.799,-481.514,0,0
179211.125,297.074,-477.299,0,0
179471.45,297.63,-473.197,0,0
179731.775,298.374,-469.272,0,0
179992.1,299.196,-465.595,0,0
180252.425,300.041,-462.063,0,0
180512.75,300.841,-458.6,0,0
180773.075,301.664,-455.252,0,0
181033.4,302.479,-451.902,0,0
181293.725,303.255,-448.577,0,0
181554.05,304.044,-445.293,0,0
181814.375,304.816,-442.015,0,0
182074.7,305.51,-438.717,0,0
182335.025,306.157,-435.379,0,0
182595.35,306.756,-431.917,0,0
182855.675,307.346,-428.309,0,0
183116.0,307.95,-424.548,0,0
183376.325,308.636,-420.608,0,0
183636.65,309.398,-416.509,0,0
183896.975,310.287,-412.238,0,0
184157.3,311.335,-407.836,0,0
184417.625,312.587,-403.321,0,0
184677.95,313.964,-398.708,0,0
184938.275,315.519,-393.988,0,0
185198.6,317.288,-389.151,0,0
185458.925,319.303,-384.302,0,0
185719.25,321.491,-379.45,0,0
185979.575,323.765,-374.587,0,0
186239.9,326.168,-369.597,0,0
186500,328.785,-364.546,0,0
186761,331.602,-359.355,0,0
187021,334.656,-354.15,0,0
187281,337.815,-348.866,0,0
187542,341.341,-343.477,0,0
187802,345.086,-338.107,0,0
188062,349.082,-332.613,0,0
188322,353.387,-327.134,0,0
188583,357.999,-321.705,0,0
188843,362.949,-316.162,0,0
189103,368.102,-310.728,0,0
189364,373.619,-305.294,0,0
189624,379.406,-299.824,0,0
189884,385.652,-294.491,0,0
190145,392.281,-289.171,0,0
190405,399.276,-284.087,0,0
190665,406.545,-279.204,0,0
190926,414.117,-274.473,0,0
191186,422.055,-269.926,0,0
191446,430.31,-265.394,0,0
191707,438.98,-261.204,0,0
191967,448.037,-257.199,0,0
192227,457.461,-253.628,0,0
192488,467.147,-250.374,0,0
192748,477.141,-247.459,0,0
193008,487.331,-244.927,0,0
193269,497.767,-242.797,0,0
193529,508.368,-241.114,0,0
193789,519.105,-239.75,0,0
194050,530.082,-238.683,0,0
194310,541.175,-238.116,0,0
194570,552.359,-237.956,0,0
194831,563.582,-238.082,0,0
195091,574.899,-238.52,0,0
195351,586.342,-239.18,0,0
195612,597.887,-240.077,0,0
195872,609.769,-241.231,0,0
196132,621.924,-242.754,0,0
196393,634.352,-244.678,0,0
196653,647.052,-247.088,0,0
196913,660.061,-249.923,0,0
197174,673.459,-253.377,0,0
197434,687.097,-257.553,0,0
197694,700.92,-262.492,0,0
197955,714.865,-268.26,0,0
198215,728.834,-274.863,0,0
198475,742.815,-282.154,0,0
198735,756.982,-290.359,0,0
198996,771.143,-299.596,0,0
199256,785.142,-310.152,0,0
199516,798.745,-321.967,0,0
199777,811.612,-334.945,0,0
200037,823.526,-348.824,0,0
200297,834.706,-363.587,0,0
200558,844.967,-379.234,0,0
200818,854.015,-395.661,0,0
201078,861.765,-412.496,0,0
201339,868.504,-429.583,0,0
201599,874.126,-447.168,0,0
201859,878.203,-464.803,0,0
202120,881.14,-482.054,0,0
202380.025,883.381,-498.972,0,0
202640.35,884.513,-515.75,0,0
202900.675,884.756,-531.891,0,0
203161.0,884.855,-547.406,0,0
203421.325,884.973,-562.989,0,0
203681.65,884.537,-579.216,0,0
203941.975,882.704,-595.635,0,0
204202.3,879.635,-611.552,0,0
204462.625,875.641,-626.578,0,0
204722.95,871.568,-640.652,0,0
204983.275,867.16,-654.553,0,0
205243.6,862.313,-668.229,0,0
205503.925,856.788,-681.236,0,0
205764.25,851.318,-693.567,0,0
206024.575,845.926,-705.606,0,0
206284.9,840.454,-717.566,0,0
206545.225,834.807,-729.457,0,0
206805.55,829.06,-741.519,0,0
207065.875,822.816,-754.139,0,0
207326.2,815.664,-766.976,0,0
207586.525,807.032,-779.566,0,0
207846.85,797.31,-791.442,0,0
208107.175,786.687,-802.196,0,0
208367.5,775.754,-811.887,0,0
208627.825,764.473,-820.784,0,0
208888.15,752.737,-828.724,0,0
209148.475,740.741,-835.553,0,0
209408.8,728.876,-841.127,0,0
209669.125,717.535,-845.953,0,0
209929.45,706.451,-850.135,0,0
210189.775,695.424,-853.712,0,0
210450.1,684.704,-856.7,0,0
210710.425,674.224,-859.058,0,0
210970.75,664.098,-860.707,0,0
211231.075,654.371,-861.905,0,0
211491.4,645.103,-862.755,0,0
211751.725,636.174,-863.143,0,0
212012.05,627.715,-863.061,0,0
212272.375,619.813,-862.673,0,0
212532.7,612.624,-862.209,0,0
212793.025,605.863,-861.848,0,0
213053.35,599.036,-861.457,0,0
213313.675,592.349,-860.83,0,0
213574.0,586.123,-859.695,0,0
213834.325,580.44,-858.237,0,0
214094.65,575.459,-856.597,0,0
214354.975,571.433,-854.985,0,0
214615.3,568.117,-853.939,0,0
214875.625,565.251,-853.504,0,0
215135.95,562.685,-853.811,0,0
215396.275,559.936,-854.672,0,0
215656.6,556.959,-855.989,0,0
215916.925,553.831,-857.895,0,0
216177.25,550.141,-859.821,0,0
216437.575,545.946,-861.792,0,0
216697.9,541.336,-863.34,0,0
216958.225,536.769,-864.505,0,0
217218.55,532.417,-865.435,0,0
217478.875,528.411,-866.403,0,0
217739.2,524.335,-867.586,0,0
217999.525,520.151,-868.706,0,0
218259.85,516.064,-869.833,0,0
218520,511.91,-870.875,0,0
218780,507.86,-871.933,0,0
219041,503.898,-873.063,0,0
219301,499.94,-874.29,0,0
219561,495.991,-875.697,0,0
219822,491.816,-877.339,0,0
220082,487.358,-878.824,0,0
220342,482.697,-880.109,0,0
220603,477.822,-881.537,0,0
220863,472.923,-882.607,0,0
221123,468.005,-883.344,0,0
221384,463.2,-883.975,0,0
221644,458.438,-884.685,0,0
221904,453.669,-885.401,0,0
222165,448.824,-885.908,0,0
222425,443.987,-886.317,0,0
222685,439.125,-886.568,0,0
222946,434.42,-886.742,0,0
223206,429.795,-886.918,0,0
223466,425.264,-887.034,0,0
223727,420.669,-887.261,0,0
223987,416.257,-887.411,0,0
224247,411.66,-887.641,0,0
224508,407.143,-888.119,0,0
224768,402.463,-888.504,0,0
225028,397.428,-888.928,0,0
225289,392.308,-889.301,0,0
225549,387.027,-889.599,0,0
225809,381.561,-889.609,0,0
226070,375.923,-889.482,0,0
226330,370.224,-889.15,0,0
226590,364.541,-888.535,0,0
226851,358.75,-887.708,0,0
227111,352.955,-886.699,0,0
227371,347.148,-885.41,0,0
227632,341.335,-883.923,0,0
227892,335.467,-882.238,0,0
228152,329.636,-880.159,0,0
228413,323.885,-877.732,0,0
228673,318.325,-875.036,0,0
228933,312.989,-872.037,0,0
229193,307.934,-868.725,0,0
229454,303.329,-865.493,0,0
229714,298.76,-862.036,0,0
229974,294.534,-858.608,0,0
230235,290.378,-854.994,0,0
230495,286.616,-851.504,0,0
230755,282.849,-847.953,0,0
231016,279.365,-844.301,0,0
231276,276.034,-840.66,0,0
231536,272.915,-837.051,0,0
231797,269.949,-833.428,0,0
232057,267.087,-829.813,0,0
232317,264.431,-826.234,0,0
232578,261.872,-822.639,0,0
232838,259.464,-819.089,0,0
233098,257.227,-815.504,0,0
233359,255.174,-811.999,0,0
233619,253.155,-808.591,0,0
233879,251.23,-805.217,0,0
234140,249.526,-801.835,0,0
234400,247.891,-798.58,0,0
234660.3,246.301,-795.235,0,0
234920.625,244.847,-792.065,0,0
235180.95,243.62,-789.007,0,0
235441.275,242.369,-786.121,0,0
235701.6,241.071,-783.313,0,0
235961.925,239.774,-780.492,0,0
236222.25,238.391,-777.69,0,0
236482.575,237.174,-774.759,0,0
236742.9,236.041,-771.866,0,0
237003.225,234.947,-768.959,0,0
237263.55,233.916,-766.036,0,0
237523.875,233.031,-763.075,0,0
237784.2,232.404,-760.101,0,0
238044.525,231.907,-757.297,0,0
238304.85,231.59,-754.639,0,0
238565.175,231.34,-752.165,0,0
238825.5,231.119,-749.87,0,0
239085.825,230.889,-747.577,0,0
239346.15,230.678,-745.518,0,0
239606.475,230.468,-743.532,0,0
239866.8,230.286,-741.698,0,0
240127.125,230.027,-739.914,0,0
240387.45,229.74,-738.294,0,0
240647.775,229.485,-736.692,0,0
240908.1,229.164,-735.185,0,0
241168.425,228.761,-733.731,0,0
241428.75,228.372,-732.353,0,0
241689.075,227.913,-731.06,0,0
241949.4,227.365,-729.835,0,0
242209.725,226.795,-728.657,0,0
242470.05,226.142,-727.493,0,0
242730.375,225.365,-726.343,0,0
242990.7,224.494,-725.273,0,0
243251.025,223.551,-724.124,0,0
243511.35,222.611,-722.984,0,0
243771.675,221.53,-721.807,0,0
244032.0,220.369,-720.57,0,0
244292.325,219.124,-719.407,0,0
244552.65,217.829,-718.026,0,0
244812.975,216.44,-716.549,0,0
245073.3,215.007,-714.92,0,0
245333.625,213.747,-713.211,0,0
245593.95,212.426,-711.355,0,0
245854.275,211.26,-709.506,0,0
246114.6,210.132,-707.552,0,0
246374.925,209.072,-705.581,0,0
246635.25,208.087,-703.625,0,0
246895.575,207.152,-701.497,0,0
247155.9,206.339,-699.346,0,0
247416.225,205.685,-697.225,0,0
247676.55,205.258,-695.243,0,0
247936.875,204.76,-693.426,0,0
248197.2,204.264,-691.65,0,0
248457.525,203.689,-689.9,0,0
248717.85,203.095,-688.14,0,0
248978.175,202.486,-686.365,0,0
249238.5,202,-684.592,0,0
249498.825,201.524,-682.825,0,0
249759.15,201.06,-681.164,0,0
250019.475,200.615,-679.508,0,0
250279.8,200.179,-677.968,0,0
250540,199.733,-676.412,0,0
250800,199.17,-674.987,0,0
251061,198.522,-673.61,0,0
251321,197.79,-672.236,0,0
251581,196.869,-670.85,0,0
251842,195.863,-669.409,0,0
252102,194.66,-667.846,0,0
252362,193.401,-666.125,0,0
252623,192.105,-664.225,0,0
252883,190.783,-662.111,0,0
253143,189.483,-659.735,0,0
253404,188.335,-657.21,0,0
253664,187.366,-654.525,0,0
253924,186.513,-651.839,0,0
254185,185.78,-649.184,0,0
254445,184.968,-646.464,0,0
254705,184.172,-643.583,0,0
254966,183.499,-640.549,0,0
255226,182.911,-637.351,0,0
255486,182.414,-634.002,0,0
255747,182.127,-630.462,0,0
256007,182.121,-626.765,0,0
256267,182.396,-623.005,0,0
256528,182.842,-619.275,0,0
256788,183.576,-615.534,0,0
257048,184.493,-611.776,0,0
257309,185.648,-608.024,0,0
257569,187.067,-604.329,0,0
257829,188.759,-600.656,0,0
258090,190.629,-597.162,0,0
258350,192.663,-593.691,0,0
258610,194.94,-590.203,0,0
258871,197.568,-586.794,0,0
259131,200.577,-583.599,0,0
259391,203.849,-580.794,0,0
259651,207.247,-578.373,0,0
259912,210.551,-576.204,0,0
260172,213.84,-574.103,0,0
260432,217.291,-572.078,0,0
260693,220.93,-570.165,0,0
260953,224.823,-568.497,0,0
261213,228.879,-567.12,0,0
261474,233.048,-566.111,0,0
261734,237.151,-565.46,0,0
261994,241.19,-565.062,0,0
262255,245.155,-564.78,0,0
262515,249.223,-564.589,0,0
262775,253.539,-564.606,0,0
263036,257.984,-565.026,0,0
263296,262.469,-565.933,0,0
263556,266.884,-567.241,0,0
263817,271.099,-569.062,0,0
264077,275.058,-571.187,0,0
264337,278.801,-573.448,0,0
264598,282.419,-576.127,0,0
264858,285.698,-579.001,0,0
265118,288.685,-582.237,0,0
265379,291.352,-585.437,0,0
265639,293.759,-588.697,0,0
265899,296.058,-592.088,0,0
266160,298.173,-595.56,0,0
266420,300.112,-599.31,0,0
266680.25,301.73,-603.193,0,0
266940.575,303.132,-607.089,0,0
267200.9,304.357,-611.114,0,0
267461.225,305.361,-615.416,0,0
267721.55,306.052,-619.914,0,0
267981.875,306.236,-624.512,0,0
268242.2,306.14,-629.205,0,0
268502.525,305.517,-634.026,0,0
268762.85,304.247,-638.921,0,0
269023.175,302.333,-643.596,0,0
269283.5,299.761,-647.904,0,0
269543.825,296.673,-651.558,0,0
269804.15,293.406,-654.37,0,0
270064.475,290.382,-656.62,0,0
270324.8,287.555,-658.451,0,0
270585.125,284.985,-660.112,0,0
270845.45,282.547,-661.603,0,0
271105.775,280.341,-662.986,0,0
271366.1,278.31,-664.357,0,0
271626.425,276.308,-665.786,0,0
271886.75,274.374,-667.254,0,0
272147.075,272.503,-668.696,0,0
272407.4,270.683,-670.301,0,0
272667.725,268.742,-672.04,0,0
272928.05,266.583,-673.796,0,0
273188.375,264.298,-675.491,0,0
273448.7,261.96,-677.197,0,0
273709.025,259.446,-678.89,0,0
273969.35,256.839,-680.616,0,0
274229.675,253.945,-682.315,0,0
274490.0,250.924,-683.962,0,0
274750.325,247.529,-685.48,0,0
275010.65,243.814,-686.928,0,0
275270.975,239.936,-687.906,0,0
275531.3,235.869,-688.502,0,0
275791.625,231.821,-688.777,0,0
276051.95,227.787,-688.82,0,0
276312.275,223.719,-688.635,0,0
276572.6,219.571,-688.259,0,0
276832.925,215.286,-687.525,0,0
277093.25,210.998,-686.329,0,0
277353.575,206.827,-684.67,0,0
277613.9,202.851,-682.585,0,0
277874.225,199.134,-680.154,0,0
278134.55,195.775,-677.374,0,0
278394.875,192.79,-674.255,0,0
278655.2,190.292,-670.96,0,0
278915.525,188.313,-667.568,0,0
279175.85,186.866,-664.152,0,0
279436.175,185.876,-660.985,0,0
279696.5,185.258,-658.006,0,0
279956.825,185.018,-655.257,0,0
280217.15,184.979,-653.01,0,0
280477.475,185.006,-651.12,0,0
280737.8,184.931,-649.605,0,0
280998.125,184.662,-648.184,0,0
281258.45,184.254,-646.9,0,0
281518.775,183.717,-645.605,0,0
281779.1,183.079,-644.259,0,0
282039.425,182.426,-642.687,0,0
282299.75,181.963,-641.027,0,0
282560,181.719,-639.315,0,0
282820,181.753,-637.709,0,0
283081,182.007,-636.326,0,0
283341,182.342,-635.26,0,0
283601,182.632,-634.523,0,0
283862,182.738,-634.018,0,0
284122,182.631,-633.635,0,0
284382,182.303,-633.28,0,0
284643,181.87,-632.872,0,0
284903,181.372,-632.475,0,0
285163,180.705,-632.181,0,0
285424,179.959,-631.823,0,0
285684,179.012,-631.448,0,0
285944,177.908,-630.97,0,0
286205,176.629,-630.309,0,0
286465,175.246,-629.406,0,0
286725,173.868,-628.175,0,0
286986,172.704,-626.853,0,0
287246,171.609,-625.457,0,0
287506,170.463,-624.017,0,0
287767,169.317,-622.351,0,0
288027,168.199,-620.485,0,0
288287,167.19,-618.366,0,0
288548,166.397,-615.922,0,0
288808,165.906,-613.213,0,0
289068,165.879,-610.358,0,0
289329,166.273,-607.55,0,0
289589,167.127,-604.757,0,0
289849,168.388,-602.162,0,0
290109,169.961,-599.86,0,0
290370,171.847,-597.872,0,0
290630,173.917,-596.153,0,0
290890,176.16,-594.773,0,0
291151,178.549,-593.744,0,0
291411,181.011,-593.051,0,0
291671,183.55,-592.72,0,0
291932,186.087,-592.783,0,0
292192,188.595,-593.224,0,0
292452,190.998,-594.036,0,0
292713,193.302,-595.242,0,0
292973,195.32,-596.85,0,0
293233,197.045,-598.755,0,0
293494,198.419,-600.904,0,0
293754,199.443,-603.165,0,0
294014,200.162,-605.571,0,0
294275,200.625,-608.045,0,0
294535,200.723,-610.653,0,0
294795,200.444,-613.314,0,0
295056,199.802,-615.967,0,0
295316,198.737,-618.534,0,0
295576,197.309,-620.958,0,0
295837,195.572,-623.161,0,0
296097,193.578,-625.079,0,0
296357,191.312,-626.713,0,0
296618,188.932,-628.034,0,0
296878,186.491,-628.978,0,0
297138,184.079,-629.675,0,0
297399,181.746,-630.089,0,0
297659,179.475,-630.354,0,0
297919,177.279,-630.443,0,0
298180,175.163,-630.388,0,0
298440,173.173,-630.213,0,0
298700.2,171.278,-629.962,0,0
298960.525,169.493,-629.717,0,0
299220.85,167.765,-629.432,0,0
299481.175,166.035,-629.148,0,0
299741.5,164.328,-628.853,0,0
300001.825,162.623,-628.494,0,0
300262.15,160.921,-628.116,0,0
300522.475,159.187,-627.668,0,0
300782.8,157.483,-627.18,0,0
301043.125,155.758,-626.592,0,0
301303.45,154.088,-625.961,0,0
301563.775,152.419,-625.224,0,0
301824.1,150.834,-624.411,0,0
302084.425,149.325,-623.581,0,0
302344.75,147.867,-622.728,0,0
302605.075,146.434,-621.876,0,0
302865.4,145.017,-621.028,0,0
303125.725,143.592,-620.153,0,0
303386.05,142.147,-619.208,0,0
303646.375,140.749,-618.142,0,0
303906.7,139.42,-617.063,0,0
304167.025,138.142,-615.945,0,0
304427.35,136.928,-614.769,0,0
304687.675,135.765,-613.546,0,0
304948.0,134.699,-612.298,0,0
305208.325,133.711,-611.037,0,0
305468.65,132.802,-609.812,0,0
305728.975,131.923,-608.612,0,0
305989.3,131.098,-607.377,0,0
306249.625,130.282,-606.146,0,0
306509.95,129.554,-604.894,0,0
306770.275,128.932,-603.638,0,0
307030.6,128.387,-602.433,0,0
307290.925,127.913,-601.279,0,0
307551.25,127.489,-600.179,0,0
307811.575,127.114,-599.125,0,0
308071.9,126.77,-598.173,0,0
308332.225,126.422,-597.227,0,0
308592.55,126.114,-596.404,0,0
308852.875,125.78,-595.645,0,0
309113.2,125.437,-594.983,0,0
309373.525,125.042,-594.363,0,0
309633.85,124.555,-593.797,0,0
309894.175,124.036,-593.233,0,0
310154.5,123.397,-592.65,0,0
310414.825,122.735,-592.068,0,0
310675.15,121.999,-591.463,0,0
310935.475,121.255,-590.739,0,0
311195.8,120.502,-589.98,0,0
311456.125,119.762,-589.194,0,0
311716.45,119.061,-588.327,0,0
311976.775,118.4,-587.44,0,0
312237.1,117.763,-586.547,0,0
312497.425,117.165,-585.682,0,0
312757.75,116.551,-584.768,0,0
313018.075,115.969,-583.814,0,0
313278.4,115.454,-582.883,0,0
313538.725,114.998,-581.896,0,0
313799.05,114.594,-580.955,0,0
314059.375,114.214,-580.028,0,0
314319.7,113.882,-579.167,0,0
314580,113.489,-578.327,0,0
314840,113.273,-577.585,0,0
315101,112.956,-576.804,0,0
315361,112.686,-575.982,0,0
315621,112.479,-575.305,0,0
315882,112.197,-574.65,0,0
316142,111.938,-573.987,0,0
316402,111.657,-573.352,0,0
316663,111.472,-572.782,0,0
316923,111.201,-572.128,0,0
317183,110.953,-571.669,0,0
317444,110.669,-571.278,0,0
317704,110.31,-570.806,0,0
317964,110.064,-570.331,0,0
318225,109.669,-569.971,0,0
318485,109.32,-569.682,0,0
318745,108.838,-569.36,0,0
319006,108.522,-568.984,0,0
319266,108.001,-568.83,0,0
319526,107.519,-568.605,0,0
319787,106.914,-568.471,0,0
320047,106.338,-568.35,0,0
320307,105.573,-568.193,0,0
320567,104.693,-567.997,0,0
320828,103.794,-567.832,0,0
321088,102.853,-567.649,0,0
321348,101.753,-567.443,0,0
321609,100.603,-567.104,0,0
321869,99.2933,-566.862,0,0
322129,97.9711,-566.335,0,0
322390,96.4934,-565.716,0,0
322650,95.0155,-565.006,0,0
322910,93.533,-564.025,0,0
323171,92.1362,-562.983,0,0
323431,90.8458,-561.838,0,0
323691,89.4878,-560.488,0,0
323952,88.4515,-559.109,0,0
324212,87.3932,-557.637,0,0
324472,86.6031,-556.218,0,0
324733,85.8305,-554.708,0,0
324993,85.0021,-553.344,0,0
325253,84.3945,-551.921,0,0
325514,83.888,-550.583,0,0
325774,83.2999,-549.332,0,0
326034,82.7004,-548.003,0,0
326295,82.177,-546.69,0,0
326555,81.5797,-545.399,0,0
326815,81.0513,-544.077,0,0
327076,80.5192,-542.692,0,0
327336,80.0259,-541.346,0,0
327596,79.4893,-539.917,0,0
327857,79.0922,-538.574,0,0
328117,78.7547,-537.076,0,0
328377,78.3371,-535.744,0,0
328638,78.1217,-534.196,0,0
328898,77.8807,-532.79,0,0
329158,77.7083,-531.359,0,0
329419,77.6308,-529.891,0,0
329679,77.5746,-528.42,0,0
329939,77.572,-527.004,0,0
330200,77.6915,-525.68,0,0
330460,77.869,-524.332,0,0
330720.15,78.1088,-523.028,0,0
330980.475,78.3439,-521.774,0,0
331240.8,78.692,-520.681,0,0
331501.125,78.9803,-519.686,0,0
331761.45,79.3338,-518.681,0,0
332021.775,79.6435,-517.802,0,0
332282.1,79.948,-516.952,0,0
332542.425,80.293,-516.29,0,0
332802.75,80.4975,-515.659,0,0
333063.075,80.6683,-515,0,0
333323.4,80.8559,-514.475,0,0
333583.725,80.8268,-513.93,0,0
333844.05,80.8368,-513.508,0,0
334104.375,80.7115,-512.99,0,0
334364.7,80.531,-512.46,0,0
334625.025,80.2682,-511.864,0,0
334885.35,80.0431,-511.235,0,0
335145.675,79.7341,-510.636,0,0
335406.0,79.4452,-509.928,0,0
335666.325,78.9589,-509.282,0,0
335926.65,78.5351,-508.566,0,0
336186.975,78.106,-507.698,0,0
336447.3,77.6762,-506.763,0,0
336707.625,77.2884,-505.731,0,0
336967.95,76.8568,-504.687,0,0
337228.275,76.5107,-503.57,0,0
337488.6,76.2081,-502.455,0,0
337748.925,76.0107,-501.224,0,0
338009.25,75.8155,-500.096,0,0
338269.575,75.6776,-498.838,0,0
338529.9,75.5529,-497.655,0,0
338790.225,75.5449,-496.384,0,0
339050.55,75.4713,-495.204,0,0
339310.875,75.5088,-493.909,0,0
339571.2,75.5818,-492.544,0,0
339831.525,75.7723,-491.23,0,0
340091.85,75.9908,-489.99,0,0
340352.175,76.305,-488.669,0,0
340612.5,76.6862,-487.382,0,0
340872.825,77.1192,-486.093,0,0
341133.15,77.7313,-484.877,0,0
341393.475,78.3573,-483.713,0,0
341653.8,79.0733,-482.586,0,0
341914.125,79.8623,-481.519,0,0
342174.45,80.7354,-480.587,0,0
342434.775,81.6843,-479.801,0,0
342695.1,82.6238,-479.118,0,0
342955.425,83.5413,-478.638,0,0
343215.75,84.4514,-478.161,0,0
343476.075,85.3119,-477.874,0,0
343736.4,86.1347,-477.694,0,0
343996.725,86.9132,-477.514,0,0
344257.05,87.5975,-477.453,0,0
344517.375,88.1371,-477.465,0,0
344777.7,88.6543,-477.536,0,0
345038.025,89.0807,-477.662,0,0
345298.35,89.363,-477.761,0,0
345558.675,89.7435,-477.871,0,0
345819.0,89.8102,-478.026,0,0
346079.325,89.9645,-478.162,0,0
346339.65,89.9793,-478.282,0,0
346599.975,89.9061,-478.365,0,0
346860,89.8481,-478.432,0,0
347121,89.6668,-478.454,0,0
347381,89.4312,-478.486,0,0
347641,89.2699,-478.462,0,0
347902,88.9487,-478.456,0,0
348162,88.5851,-478.329,0,0
348422,88.2061,-478.256,0,0
348683,87.8489,-478.039,0,0
348943,87.4549,-477.833,0,0
349203,87.0114,-477.489,0,0
349464,86.5514,-477.2,0,0
349724,86.1938,-476.857,0,0
349984,85.7785,-476.404,0,0
350245,85.3428,-475.989,0,0
350505,84.9325,-475.507,0,0
350765,84.5367,-475.069,0,0
351025,84.1301,-474.56,0,0
351286,83.7032,-473.987,0,0
351546,83.3046,-473.378,0,0
351806,82.9089,-472.822,0,0
352067,82.5382,-472.079,0,0
352327,82.1763,-471.381,0,0
352587,81.8562,-470.609,0,0
352848,81.6649,-469.799,0,0
353108,81.3977,-468.959,0,0
353368,81.3101,-468.152,0,0
353629,81.2669,-467.364,0,0
353889,81.252,-466.578,0,0
354149,81.3128,-465.868,0,0
354410,81.4171,-465.286,0,0
354670,81.4772,-464.685,0,0
354930,81.4772,-464.118,0,0
355191,81.4748,-463.594,0,0
355451,81.5016,-462.998,0,0
355711,81.5051,-462.531,0,0
355972,81.4942,-462.041,0,0
356232,81.3967,-461.551,0,0
356492,81.3842,-461.142,0,0
356753,81.3033,-460.635,0,0
357013,81.1363,-460.234,0,0
357273,81.0043,-459.73,0,0
357534,80.8832,-459.262,0,0
357794,80.6569,-458.792,0,0
358054,80.455,-458.245,0,0
358315,80.2282,-457.688,0,0
358575,79.9476,-457.148,0,0
358835,79.7405,-456.501,0,0
359096,79.4877,-455.835,0,0
359356,79.255,-455.16,0,0
359616,79.023,-454.442,0,0
359877,78.8274,-453.752,0,0
360137,78.5972,-452.952,0,0
360397,78.5294,-452.126,0,0
360658,78.3219,-451.328,0,0
360918,78.2584,-450.461,0,0
361178,78.2075,-449.559,0,0
361438,78.2377,-448.71,0,0
361699,78.3501,-447.842,0,0
361959,78.482,-447.031,0,0
362219,78.6127,-446.244,0,0
362480,78.8243,-445.49,0,0
362740.1,79.0228,-444.824,0,0
363000.425,79.1745,-444.151,0,0
363260.75,79.3539,-443.518,0,0
363521.075,79.4685,-442.886,0,0
363781.4,79.6039,-442.31,0,0
364041.725,79.685,-441.727,0,0
364302.05,79.767,-441.116,0,0
364562.375,79.7733,-440.545,0,0
364822.7,79.8248,-439.958,0,0
365083.025,79.83,-439.244,0,0
365343.35,79.7642,-438.592,0,0
365603.675,79.7581,-437.774,0,0
365864.0,79.7312,-436.987,0,0
366124.325,79.8374,-436.128,0,0
366384.65,79.9279,-435.226,0,0
366644.975,80.0728,-434.246,0,0
366905.3,80.2359,-433.312,0,0
367165.625,80.5409,-432.329,0,0
367425.95,80.9056,-431.405,0,0
367686.275,81.3245,-430.469,0,0
367946.6,81.7795,-429.603,0,0
368206.925,82.29,-428.668,0,0
368467.25,82.8781,-427.803,0,0
368727.575,83.4349,-426.929,0,0
368987.9,84.1449,-426.12,0,0
369248.225,84.8891,-425.38,0,0
369508.55,85.6421,-424.67,0,0
369768.875,86.4518,-424.036,0,0
370029.2,87.2719,-423.339,0,0
370289.525,88.1706,-422.766,0,0
370549.85,89.1074,-422.227,0,0
370810.175,90.1415,-421.757,0,0
371070.5,91.2091,-421.34,0,0
371330.825,92.2975,-421.093,0,0
371591.15,93.4548,-420.982,0,0
371851.475,94.5941,-420.992,0,0
372111.8,95.6972,-421.108,0,0
372372.125,96.7137,-421.395,0,0
372632.45,97.7049,-421.697,0,0
372892.775,98.6103,-422.214,0,0
373153.1,99.4722,-422.732,0,0
373413.425,100.133,-423.373,0,0
373673.75,100.78,-424.134,0,0
373934.075,101.187,-424.991,0,0
374194.4,101.457,-425.772,0,0
374454.725,101.619,-426.556,0,0
374715.05,101.603,-427.301,0,0
374975.375,101.463,-427.893,0,0
375235.7,101.244,-428.42,0,0
375496.025,100.997,-428.897,0,0
375756.35,100.743,-429.241,0,0
376016.675,100.518,-429.502,0,0
376277.0,100.294,-429.748,0,0
376537.325,100.054,-429.968,0,0
376797.65,99.8215,-430.183,0,0
377057.975,99.6204,-430.354,0,0
377318.3,99.4241,-430.492,0,0
377578.625,99.2261,-430.637,0,0
377838.95,99.0142,-430.807,0,0
378099.275,98.7946,-430.918,0,0
378359.6,98.5659,-431.095,0,0
378619.925,98.2574,-431.229,0,0
378880,98.0016,-431.348,0,0
379141,97.6715,-431.413,0,0
379401,97.3685,-431.498,0,0
379661,97.07,-431.55,0,0
379922,96.762,-431.595,0,0
380182,96.3658,-431.593,0,0
380442,96.0635,-431.564,0,0
380703,95.721,-431.495,0,0
380963,95.3034,-431.386,0,0
381223,94.9102,-431.231,0,0
381483,94.6376,-430.945,0,0
381744,94.4644,-430.634,0,0
382004,94.3732,-430.353,0,0
382264,94.4603,-430.116,0,0
382525,94.6201,-430.024,0,0
382785,94.8019,-429.998,0,0
383045,95.0036,-430.189,0,0
383306,95.1643,-430.504,0,0
383566,95.1995,-431.038,0,0
383826,95.0814,-431.628,0,0
384087,94.7975,-432.232,0,0
384347,94.3328,-432.804,0,0
384607,93.7425,-433.369,0,0
384868,93.0563,-433.882,0,0
385128,92.3096,-434.362,0,0
385388,91.321,-434.711,0,0
385649,90.3592,-434.971,0,0
385909,89.2223,-435.116,0,0
386169,88.0668,-435.22,0,0
386430,86.8872,-435.028,0,0
386690,85.7214,-434.839,0,0
386950,84.5857,-434.455,0,0
387211,83.4431,-434,0,0
387471,82.3441,-433.309,0,0
387731,81.3682,-432.575,0,0
387992,80.4272,-431.747,0,0
388252,79.6635,-430.771,0,0
388512,79.0203,-429.831,0,0
388773,78.5116,-428.803,0,0
389033,78.102,-427.787,0,0
389293,77.8954,-426.807,0,0
389554,77.7305,-425.839,0,0
389814,77.7442,-425.051,0,0
390074,77.8417,-424.225,0,0
390335,78.0846,-423.65,0,0
390595,78.2911,-423.141,0,0
390855,78.5175,-422.792,0,0
391116,78.7277,-422.623,0,0
391376,78.8523,-422.602,0,0
391636,78.875,-422.657,0,0
391896,78.7921,-422.894,0,0
392157,78.4909,-423.089,0,0
392417,78.0385,-423.274,0,0
392677,77.4895,-423.466,0,0
392938,76.7593,-423.581,0,0
393198,76.0077,-423.557,0,0
393458,75.093,-423.436,0,0
393719,74.2054,-423.234,0,0
393979,73.2623,-422.977,0,0
394239,72.3072,-422.594,0,0
394500,71.4301,-422.016,0,0
394760.05,70.5046,-421.475,0,0
395020.375,69.6353,-420.772,0,0
395280.7,68.8,-420.042,0,0
395541.025,68.0084,-419.229,0,0
395801.35,67.3403,-418.426,0,0
396061.675,66.6449,-417.562,0,0
396322.0,66.071,-416.689,0,0
396582.325,65.5584,-415.853,0,0
396842.65,65.0541,-414.949,0,0
397102.975,64.5478,-414.117,0,0
397363.3,64.0656,-413.221,0,0
397623.625,63.6056,-412.329,0,0
397883.95,63.1234,-411.426,0,0
398144.275,62.7415,-410.498,0,0
398404.6,62.2704,-409.577,0,0
398664.925,61.9111,-408.561,0,0
398925.25,61.5642,-407.632,0,0
399185.575,61.2604,-406.635,0,0
399445.9,60.9526,-405.636,0,0
399706.225,60.6865,-404.619,0,0
399966.55,60.5135,-403.605,0,0
400006.6,60.4583,-403.441,0,0