File: Accelerated corrosion test data/2025-10-15_12-55-04/sample_2.csv
Frequency (Hz),Impedance (ohms),Phase (Radians),Temperature (C),Humidity (%)
10000.0,229.79,-11428.4,0,0
10260.325,224.274,-11140.6,0,0
10520.65,218.724,-10867.2,0,0
10780.975,214.089,-10606.7,0,0
11041.3,208.698,-10359.2,0,0
11301.625,204.076,-10121.8,0,0
11561.95,200.754,-9894.02,0,0
11822.275,198.847,-9685.9,0,0
12082.6,192.966,-9474.97,0,0
12342.925,188.08,-9278.56,0,0
12603.25,183.923,-9087.03,0,0
12863.575,180.688,-8903.46,0,0
13123.9,177.795,-8730.15,0,0
13384.225,173.645,-8559.77,0,0
13644.55,171.933,-8394.18,0,0
13904.875,186.487,-8240.53,0,0
14165.2,165.475,-8095.75,0,0
14425.525,163.266,-7947.27,0,0
14685.8,164.915,-7800.15,0,0
14946.175,159.834,-7671.66,0,0
15206.5,164.076,-7550.55,0,0
15466.825,160.662,-7415,0,0
15727.15,151.828,-7302.27,0,0
15987.5,148.654,-7180.8,0,0
16247.8,148.597,-7066.64,0,0
16508.125,143.378,-6956.51,0,0
16768.45,141.146,-6848.34,0,0
17028.775,139.537,-6743.97,0,0
17289.1,138.45,-6643.76,0,0
17549.425,135.134,-6544.37,0,0
17809.75,132.766,-6448.23,0,0
18070.075,130.874,-6356.38,0,0
18330.4,129.498,-6265.6,0,0
18590.725,128.472,-6177.12,0,0
18851.05,127.297,-6091.3,0,0
19111.375,128.52,-6009.39,0,0
19371.7,128.305,-5931.8,0,0
19632.025,123.071,-5853.77,0,0
19892.35,120.692,-5776.08,0,0
20152.675,118.969,-5700.41,0,0
20413.0,118.418,-5626.14,0,0
20673.3,117.463,-5553.63,0,0
20933.65,118.141,-5482.15,0,0
21193.975,123.474,-5414.8,0,0
21454.3,130.101,-5353.02,0,0
21714.625,127.283,-5297.06,0,0
21974.9,121.25,-5232.28,0,0
22235.275,118.742,-5177.96,0,0
22495.6,114.727,-5117.39,0,0
22755.925,111.362,-5056.18,0,0
23016.25,112.341,-5001.03,0,0
23276.6,112.896,-4946.36,0,0
23536.9,108.011,-4891.62,0,0
23797.225,106.517,-4837.21,0,0
24057.55,106.404,-4786.23,0,0
24317.875,102.796,-4735.09,0,0
24578.2,101.127,-4684.25,0,0
24838.525,99.9621,-4634.6,0,0
25098.85,99.5119,-4585.49,0,0
25359.175,97.6403,-4538.31,0,0
25619.5,97.2719,-4491.4,0,0
25879.8,95.924,-4445.65,0,0
26140.1,96.4888,-4400.92,0,0
26400.5,95.3895,-4357.22,0,0
26660.8,96.0448,-4315.44,0,0
26921.1,94.9666,-4273.23,0,0
27181.4,93.4824,-4233.55,0,0
27441.8,92.262,-4193.26,0,0
27702.1,90.3111,-4153.11,0,0
27962.4,89.8855,-4112.68,0,0
28222.7,89.973,-4074.2,0,0
28483.1,89.8335,-4036.39,0,0
28743.4,88.9211,-3998.81,0,0
29003.7,90.4334,-3961.97,0,0
29264,90.2438,-3925.95,0,0
29524.4,93.244,-3890.21,0,0
29784.7,96.3899,-3861.17,0,0
30045,92.4358,-3829.77,0,0
30305.3,93.6122,-3796.5,0,0
30565.7,90.5074,-3768.67,0,0
30826,87.4973,-3736,0,0
31086.3,86.6754,-3704.03,0,0
31346.6,84.8354,-3672.75,0,0
31607,85.3133,-3641.96,0,0
31867.3,82.9122,-3612.76,0,0
32127.6,81.735,-3582.01,0,0
32387.9,82.462,-3551.9,0,0
32648.3,83.3252,-3523.9,0,0
32908.6,82.7319,-3497.71,0,0
33168.9,82.0293,-3471,0,0
33429.2,79.8677,-3443.65,0,0
33689.6,79.2656,-3416.75,0,0
33949.9,78.3179,-3390.73,0,0
34210.2,77.0333,-3364.72,0,0
34470.5,76.169,-3338.4,0,0
34730.9,75.4533,-3312.74,0,0
34991.2,75.0706,-3287.69,0,0
35251.5,74.5736,-3263.16,0,0
35511.8,73.9073,-3238.82,0,0
35772.2,73.6863,-3215.09,0,0
36032.5,73.0034,-3191.68,0,0
36292.8,72.3052,-3168.28,0,0
36553.1,71.7159,-3145.27,0,0
36813.5,71.5242,-3122.3,0,0
37073.8,71.0901,-3099.94,0,0
37334.1,70.8179,-3078.08,0,0
37594.4,70.6795,-3056.53,0,0
37854.8,70.0019,-3034.91,0,0
38115.1,69.8648,-3014.53,0,0
38375.4,69.0447,-2993.67,0,0
38635.7,68.6972,-2972.86,0,0
38896.1,68.4956,-2952.65,0,0
39156.4,67.8641,-2932.77,0,0
39416.7,67.4591,-2912.91,0,0
39677,67.1245,-2893.41,0,0
39937.4,66.9112,-2873.93,0,0
40197.7,66.4699,-2855.1,0,0
40458,66.2438,-2836.15,0,0
40718.3,66.0737,-2817.35,0,0
40978.7,65.9563,-2799.49,0,0
41239,65.2867,-2781.25,0,0
41499.3,65.4758,-2763.29,0,0
41759.6,65.0144,-2745.97,0,0
42020,64.9025,-2728.56,0,0
42280.275,64.9785,-2711.53,0,0
42540.6,64.3077,-2694.74,0,0
42800.925,63.8412,-2678.06,0,0
43061.25,63.851,-2661.27,0,0
43321.575,63.4028,-2644.7,0,0
43581.9,63.1875,-2628.77,0,0
43842.225,62.9077,-2612.58,0,0
44102.55,62.9588,-2596.37,0,0
44362.875,62.5168,-2581.17,0,0
44623.2,62.4419,-2565.74,0,0
44883.525,61.7682,-2550.37,0,0
45143.85,61.8394,-2535.04,0,0
45404.175,61.7296,-2520.22,0,0
45664.5,61.5619,-2505.66,0,0
45924.825,61.4497,-2490.6,0,0
46185.15,61.7153,-2476.72,0,0
46445.475,60.8441,-2462.63,0,0
46705.8,60.6823,-2448.05,0,0
46966.125,60.9463,-2434.12,0,0
47226.45,60.7299,-2420,0,0
47486.775,60.8966,-2406.77,0,0
47747.1,60.2365,-2393.33,0,0
48007.425,60.4066,-2379.58,0,0
48267.75,60.8703,-2365.98,0,0
48528.075,61.3507,-2354.01,0,0
48788.4,60.9127,-2341.51,0,0
49048.725,60.4925,-2329.01,0,0
49309.05,60.0363,-2316.96,0,0
49569.375,59.0565,-2304.48,0,0
49829.7,58.5501,-2291.79,0,0
50090.025,58.3507,-2279.45,0,0
50350.35,57.7344,-2267.31,0,0
50610.675,57.5001,-2254.91,0,0
50871.0,57.7102,-2242.73,0,0
51131.325,57.4092,-2231.24,0,0
51391.65,57.1294,-2219.62,0,0
51651.975,56.564,-2208.02,0,0
51912.3,56.1606,-2196.58,0,0
52172.625,55.7554,-2184.99,0,0
52432.95,55.4811,-2173.29,0,0
52693.275,55.242,-2162.18,0,0
52953.6,54.9799,-2150.79,0,0
53213.925,54.8267,-2139.64,0,0
53474.25,54.6278,-2128.65,0,0
53734.575,54.4829,-2117.7,0,0
53994.9,54.2846,-2106.82,0,0
54255.225,54.2234,-2096.13,0,0
54515.55,54.2849,-2085.5,0,0
54775.875,54.1638,-2075.14,0,0
55036.2,54.0453,-2064.74,0,0
55296.525,53.8986,-2054.37,0,0
55556.85,53.8271,-2044.16,0,0
55817.175,53.8024,-2033.99,0,0
56077.5,53.7311,-2023.92,0,0
56337.825,53.7112,-2014.11,0,0
56598.15,53.6897,-2004.1,0,0
56858.475,53.7467,-1994.3,0,0
57118.8,53.7959,-1984.66,0,0
57379.125,53.8538,-1975.2,0,0
57639.45,53.8515,-1965.58,0,0
57899.775,54.0047,-1956.14,0,0
58160.1,54.0064,-1946.99,0,0
58420.4,53.9507,-1937.8,0,0
58680.7,53.8747,-1928.36,0,0
58941.1,54.1151,-1919.16,0,0
59201.4,54.1766,-1910.14,0,0
59461.7,54.5092,-1901.05,0,0
59722,54.8343,-1892.03,0,0
59982.4,55.4324,-1883.31,0,0
60242.7,56.1483,-1875.1,0,0
60503,56.223,-1866.93,0,0
60763.3,56.421,-1858.66,0,0
61023.7,56.4485,-1850.17,0,0
61284,57.193,-1841.71,0,0
61544.3,57.9382,-1834.11,0,0
61804.6,58.7715,-1826.74,0,0
62065,58.7652,-1820.3,0,0
62325.3,58.1126,-1812.9,0,0
62585.6,57.7046,-1805.59,0,0
62845.9,57.5907,-1798.21,0,0
63106.3,56.5804,-1791.62,0,0
63366.6,55.3708,-1783.57,0,0
63626.9,54.9775,-1775.92,0,0
63887.2,54.2466,-1768.06,0,0
64147.6,53.9363,-1760.47,0,0
64407.9,53.2837,-1752.94,0,0
64668.2,52.8924,-1745.32,0,0
64928.5,52.3226,-1738.1,0,0
65188.9,51.1641,-1730.37,0,0
65449.2,50.5752,-1722,0,0
65709.5,50.6575,-1713.87,0,0
65969.8,50.7145,-1706.22,0,0
66230.2,50.7534,-1698.69,0,0
66490.5,50.9924,-1691.06,0,0
66750.8,51.0775,-1683.97,0,0
67011.1,50.9572,-1676.29,0,0
67271.5,51.2969,-1668.92,0,0
67531.8,51.8974,-1661.54,0,0
67792.1,52.4699,-1654.7,0,0
68052.4,53.0576,-1647.88,0,0
68312.8,53.3527,-1641.65,0,0
68573.1,53.3209,-1634.97,0,0
68833.4,53.9216,-1628.22,0,0
69093.7,54.8601,-1621.99,0,0
69354.1,55.1747,-1616.27,0,0
69614.4,55.3891,-1610.14,0,0
69874.7,55.82,-1604.76,0,0
70135,55.4169,-1599.33,0,0
70395.4,55.3848,-1594.13,0,0
70655.7,54.2586,-1588.81,0,0
70916,53.057,-1582.64,0,0
71176.3,52.3403,-1576.52,0,0
71436.7,51.7395,-1570.43,0,0
71697,51.143,-1564.55,0,0
71957.3,50.1244,-1558.85,0,0
72217.6,48.8333,-1552.67,0,0
72478,47.7203,-1545.94,0,0
72738.3,47.0723,-1539.29,0,0
72998.6,46.4861,-1532.62,0,0
73258.9,46.1512,-1526.21,0,0
73519.3,45.6205,-1519.74,0,0
73779.6,45.1548,-1513.09,0,0
74039.9,44.9258,-1506.33,0,0
74300.225,45.0587,-1499.82,0,0
74560.55,45.0823,-1493.49,0,0
74820.875,45.0592,-1487.07,0,0
75081.2,45.1902,-1480.75,0,0
75341.525,45.452,-1474.46,0,0
75601.85,45.7102,-1468.4,0,0
75862.175,45.9438,-1462.25,0,0
76122.5,46.5208,-1456.19,0,0
76382.825,46.9315,-1450.33,0,0
76643.15,47.3725,-1444.59,0,0
76903.475,47.7769,-1438.84,0,0
77163.8,48.3564,-1433.1,0,0
77424.125,49.074,-1427.5,0,0
77684.45,49.7749,-1422.14,0,0
77944.775,50.5147,-1416.92,0,0
78205.1,51.2307,-1411.8,0,0
78465.425,52.0201,-1407.04,0,0
78725.75,52.4777,-1402.48,0,0
78986.075,52.9594,-1397.94,0,0
79246.4,53.2678,-1393.61,0,0
79506.725,53.339,-1389.35,0,0
79767.05,53.0778,-1385.21,0,0
80027.375,52.4853,-1380.95,0,0
80287.7,51.7518,-1376.37,0,0
80548.025,51.071,-1371.43,0,0
80808.35,50.452,-1366.49,0,0
81068.675,50.0055,-1361.42,0,0
81329.0,49.481,-1356.39,0,0
81589.325,49.1709,-1351.31,0,0
81849.65,48.7765,-1346.24,0,0
82109.975,48.5334,-1341.07,0,0
82370.3,48.3277,-1335.98,0,0
82630.625,48.1391,-1330.81,0,0
82890.95,48.0562,-1325.6,0,0
83151.275,48.086,-1320.49,0,0
83411.6,48.2584,-1315.41,0,0
83671.925,48.3607,-1310.46,0,0
83932.25,48.5593,-1305.6,0,0
84192.575,48.7856,-1300.83,0,0
84452.9,49.0016,-1296.15,0,0
84713.225,49.0259,-1291.44,0,0
84973.55,49.1339,-1286.74,0,0
85233.875,49.2309,-1282.04,0,0
85494.2,49.5128,-1277.33,0,0
85754.525,49.8447,-1272.75,0,0
86014.85,50.1497,-1268.32,0,0
86275.175,50.3144,-1263.97,0,0
86535.5,50.5558,-1259.68,0,0
86795.825,50.4906,-1255.26,0,0
87056.15,50.7633,-1250.81,0,0
87316.475,51.0199,-1246.59,0,0
87576.8,51.1636,-1242.6,0,0
87837.125,51.1767,-1238.28,0,0
88097.45,51.0514,-1234.07,0,0
88357.775,51.1513,-1229.64,0,0
88618.1,51.3272,-1225.72,0,0
88878.425,50.9282,-1221.52,0,0
89138.75,51.0525,-1216.78,0,0
89399.075,51.3461,-1212.5,0,0
89659.4,51.4389,-1208.35,0,0
89919.725,51.9509,-1204.04,0,0
90180,52.2009,-1200.4,0,0
90440.4,51.8753,-1196.82,0,0
90700.7,51.5066,-1192.43,0,0
90961,51.382,-1187.64,0,0
91221.3,52.0507,-1183.14,0,0
91481.7,52.5825,-1179.43,0,0
91742,52.6772,-1175.31,0,0
92002.3,52.9656,-1171.2,0,0
92262.6,53.4169,-1167.04,0,0
92523,54.1955,-1163.25,0,0
92783.3,54.5748,-1159.67,0,0
93043.6,54.8835,-1155.98,0,0
93303.9,55.3469,-1152.28,0,0
93564.3,55.8253,-1148.95,0,0
93824.6,56.1743,-1145.71,0,0
94084.9,56.266,-1142.68,0,0
94345.2,55.8272,-1139.64,0,0
94605.6,55.235,-1135.76,0,0
94865.9,55.4873,-1132.01,0,0
95126.2,55.2962,-1128.82,0,0
95386.5,54.6261,-1125.17,0,0
95646.9,54.1653,-1120.9,0,0
95907.2,54.4036,-1116.33,0,0
96167.5,55.2059,-1112.25,0,0
96427.8,56.1111,-1108.68,0,0
96688.2,56.7767,-1105.45,0,0
96948.5,57.3754,-1102.26,0,0
97208.8,57.9759,-1099.3,0,0
97469.1,58.406,-1096.74,0,0
97729.5,58.2029,-1094.2,0,0
97989.8,57.9552,-1091.31,0,0
98250.1,57.7752,-1088.41,0,0
98510.4,57.5946,-1085.64,0,0
98770.8,57.161,-1082.94,0,0
99031.1,56.5416,-1080.14,0,0
99291.4,55.8194,-1077.46,0,0
99551.7,54.5676,-1074.41,0,0
99812.1,53.284,-1070.81,0,0
100072,52.6064,-1066.81,0,0
100333,52.3507,-1063.02,0,0
100593,52.0738,-1059.8,0,0
100853,51.3098,-1056.63,0,0
101114,50.5359,-1053.22,0,0
101374,49.5965,-1049.76,0,0
101634,48.4059,-1045.9,0,0
101895,47.4574,-1041.64,0,0
102155,47.0246,-1037.23,0,0
102415,46.8837,-1033.06,0,0
102676,46.6113,-1029.15,0,0
102936,46.1219,-1025.02,0,0
103196,45.8617,-1020.7,0,0
103457,45.8659,-1016.29,0,0
103717,46.0531,-1011.91,0,0
103977,46.3986,-1007.67,0,0
104238,46.8502,-1003.45,0,0
104498,47.6044,-999.238,0,0
104758,48.4357,-995.325,0,0
105019,49.3131,-991.673,0,0
105279,50.0565,-988.164,0,0
105539,50.8272,-984.492,0,0
105800,51.8777,-980.925,0,0
106060,52.9762,-977.753,0,0
106320.175,54.0311,-974.647,0,0
106580.5,55.1227,-971.822,0,0
106840.825,56.1412,-969.298,0,0
107101.15,56.8916,-966.991,0,0
107361.475,57.4273,-964.81,0,0
107621.8,57.641,-962.792,0,0
107882.125,57.5366,-960.515,0,0
108142.45,57.3659,-958.318,0,0
108402.775,56.8296,-955.891,0,0
108663.1,56.3756,-953.248,0,0
108923.425,55.9301,-950.63,0,0
109183.75,55.2919,-947.843,0,0
109444.075,54.6307,-944.857,0,0
109704.4,54.0537,-941.796,0,0
109964.725,53.3686,-938.638,0,0
110225.05,52.7323,-935.294,0,0
110485.375,52.2286,-931.754,0,0
110745.7,51.8001,-928.107,0,0
111006.025,51.6602,-924.368,0,0
111266.35,51.7233,-921.005,0,0
111526.675,51.5997,-917.451,0,0
111787.0,51.5309,-913.865,0,0
112047.325,51.6895,-910.342,0,0
112307.65,51.8319,-906.922,0,0
112567.975,51.9373,-903.422,0,0
112828.3,52.0383,-899.881,0,0
113088.625,52.2941,-896.466,0,0
113348.95,52.6013,-892.92,0,0
113609.275,53.0234,-889.466,0,0
113869.6,53.417,-886.203,0,0
114129.925,53.7651,-882.766,0,0
114390.25,54.2748,-879.423,0,0
114650.575,54.718,-876.05,0,0
114910.9,55.2433,-872.774,0,0
115171.225,55.9334,-869.421,0,0
115431.55,56.6019,-866.259,0,0
115691.875,57.2639,-863.18,0,0
115952.2,57.9276,-860.058,0,0
116212.525,58.5711,-856.961,0,0
116472.85,59.3269,-853.893,0,0
116733.175,60.1342,-850.978,0,0
116993.5,60.8871,-848.143,0,0
117253.825,61.5818,-845.26,0,0
117514.15,62.3428,-842.383,0,0
117774.475,63.2447,-839.593,0,0
118034.8,64.194,-836.984,0,0
118295.125,64.9649,-834.589,0,0
118555.45,65.6465,-832.101,0,0
118815.775,66.3828,-829.587,0,0
119076.1,67.1634,-827.296,0,0
119336.425,67.7431,-825.105,0,0
119596.75,68.286,-822.774,0,0
119857.075,68.8982,-820.661,0,0
120117.4,69.3197,-818.618,0,0
120377.725,69.6174,-816.543,0,0
120638.05,69.8407,-814.532,0,0
120898.375,69.9159,-812.549,0,0
121158.7,69.7403,-810.451,0,0
121419.025,69.5532,-808.141,0,0
121679.35,69.4376,-805.747,0,0
121939.675,69.3345,-803.375,0,0
122200.0,69.102,-800.949,0,0
122460,68.8683,-798.37,0,0
122721,68.6975,-795.716,0,0
122981,68.6172,-793.057,0,0
123241,68.4837,-790.39,0,0
123502,68.4345,-787.707,0,0
123762,68.312,-785.034,0,0
124022,68.1425,-782.291,0,0
124283,68.0267,-779.452,0,0
124543,67.969,-776.618,0,0
124803,67.9129,-773.717,0,0
125064,67.8714,-770.712,0,0
125324,67.9243,-767.704,0,0
125584,68.0421,-764.702,0,0
125845,68.1957,-761.67,0,0
126105,68.4319,-758.646,0,0
126365,68.6792,-755.643,0,0
126626,68.968,-752.618,0,0
126886,69.325,-749.605,0,0
127146,69.6564,-746.578,0,0
127406,70.2154,-743.45,0,0
127667,70.89,-740.535,0,0
127927,71.4955,-737.737,0,0
128187,72.0996,-734.985,0,0
128448,72.7079,-732.245,0,0
128708,73.289,-729.529,0,0
128968,73.9164,-726.881,0,0
129229,74.5318,-724.344,0,0
129489,75.0253,-721.859,0,0
129749,75.4076,-719.318,0,0
130010,75.8088,-716.647,0,0
130270,76.3301,-713.979,0,0
130530,76.8688,-711.386,0,0
130791,77.4234,-708.838,0,0
131051,77.9746,-706.382,0,0
131311,78.4244,-704.018,0,0
131572,78.7336,-701.628,0,0
131832,79.0203,-699.187,0,0
132092,79.2367,-696.713,0,0
132353,79.3345,-694.207,0,0
132613,79.4469,-691.511,0,0
132873,79.6493,-688.736,0,0
133134,79.9369,-685.955,0,0
133394,80.24,-683.191,0,0
133654,80.5752,-680.384,0,0
133915,80.9257,-677.674,0,0
134175,81.201,-674.996,0,0
134435,81.3918,-672.193,0,0
134696,81.6114,-669.238,0,0
134956,81.92,-666.275,0,0
135216,82.2728,-663.279,0,0
135477,82.6614,-660.228,0,0
135737,83.1703,-657.198,0,0
135997,83.7036,-654.197,0,0
136258,84.274,-651.181,0,0
136518,84.8739,-648.181,0,0
136778,85.4172,-645.237,0,0
137039,85.9868,-642.275,0,0
137299,86.5735,-639.15,0,0
137559,87.2678,-636.102,0,0
137819,88.0332,-633.069,0,0
138080,88.7753,-630.16,0,0
138340.125,89.3868,-627.272,0,0
138600.45,89.9385,-624.234,0,0
138860.775,90.5196,-621.112,0,0
139121.1,91.1709,-617.932,0,0
139381.425,91.8917,-614.76,0,0
139641.75,92.5573,-611.629,0,0
139902.075,93.106,-608.367,0,0
140162.4,93.667,-604.878,0,0
140422.725,94.4247,-601.146,0,0
140683.05,95.4069,-597.359,0,0
140943.375,96.5903,-593.603,0,0
141203.7,97.8536,-589.785,0,0
141464.025,99.4269,-585.936,0,0
141724.35,101.137,-582.284,0,0
141984.675,102.945,-578.672,0,0
142245.0,104.895,-575.164,0,0
142505.325,106.951,-571.778,0,0
142765.65,109.054,-568.549,0,0
143025.975,111.147,-565.397,0,0
143286.3,113.192,-562.373,0,0
143546.625,115.187,-559.287,0,0
143806.95,117.259,-556.15,0,0
144067.275,119.419,-553.089,0,0
144327.6,121.622,-550.109,0,0
144587.925,123.736,-547.142,0,0
144848.25,125.887,-543.995,0,0
145108.575,128.295,-540.795,0,0
145368.9,130.899,-537.753,0,0
145629.225,133.54,-534.806,0,0
145889.55,136.231,-532,0,0
146149.875,138.875,-529.231,0,0
146410.2,141.587,-526.385,0,0
146670.525,144.425,-523.549,0,0
146930.85,147.357,-520.822,0,0
147191.175,150.301,-518.06,0,0
147451.5,153.446,-515.218,0,0
147711.825,156.852,-512.479,0,0
147972.15,160.346,-509.932,0,0
148232.475,163.885,-507.33,0,0
148492.8,167.716,-504.715,0,0
148753.125,171.84,-502.246,0,0
149013.45,176.249,-499.851,0,0
149273.775,181.179,-497.718,0,0
149534.1,186.442,-496.178,0,0
149794.425,191.759,-495.21,0,0
150054.75,197.053,-494.7,0,0
150315.075,202.46,-494.502,0,0
150575.4,208.168,-495.025,0,0
150835.725,213.601,-496.591,0,0
151096.05,218.236,-498.818,0,0
151356.375,222.197,-501.143,0,0
151616.7,225.895,-503.581,0,0
151877.025,229.312,-506.475,0,0
152137.35,231.96,-509.717,0,0
152397.675,233.937,-512.939,0,0
152658.0,235.313,-516.033,0,0
152918.325,236.166,-518.855,0,0
153178.65,236.812,-521.381,0,0
153438.975,237.321,-523.912,0,0
153699.3,237.299,-526.545,0,0
153959.625,236.669,-528.834,0,0
154219.95,235.646,-530.621,0,0
154480,234.491,-531.831,0,0
154741,233.509,-532.526,0,0
155001,232.517,-533.173,0,0
155261,231.617,-533.561,0,0
155522,230.836,-533.768,0,0
155782,230.137,-534.066,0,0
156042,229.236,-534.468,0,0
156303,228.001,-534.441,0,0
156563,226.782,-534.055,0,0
156823,225.801,-533.684,0,0
157084,224.391,-533.163,0,0
157344,222.978,-532.073,0,0
157604,221.827,-530.352,0,0
157864,221.243,-528.599,0,0
158125,221.008,-526.994,0,0
158385,220.709,-525.364,0,0
158645,220.815,-523.578,0,0
158906,221.296,-522.158,0,0
159166,221.657,-520.909,0,0
159426,222.005,-519.784,0,0
159687,222.152,-518.665,0,0
159947,222.57,-517.51,0,0
160207,222.809,-516.44,0,0
160468,223.038,-515.456,0,0
160728,222.996,-514.281,0,0
160988,223.094,-512.71,0,0
161249,223.796,-510.796,0,0
161509,225.244,-509.172,0,0
161769,226.877,-508.28,0,0
162030,228.872,-507.97,0,0
162290,230.849,-508.865,0,0
162550,231.633,-510.621,0,0
162811,231.387,-512.3,0,0
163071,230.466,-513.814,0,0
163331,228.747,-515.107,0,0
163592,226.58,-515.641,0,0
163852,224.346,-515.805,0,0
164112,221.918,-515.869,0,0
164373,218.935,-515.257,0,0
164633,216.061,-514.086,0,0
164893,213.249,-512.453,0,0
165154,210.372,-510.552,0,0
165414,207.473,-508.311,0,0
165674,204.558,-505.588,0,0
165935,202.201,-502.075,0,0
166195,200.141,-498.536,0,0
166455,198.365,-495.04,0,0
166716,196.613,-491.225,0,0
166976,195.14,-487.17,0,0
167236,194.139,-483.13,0,0
167497,193.141,-479.215,0,0
167757,192.155,-475.012,0,0
168017,191.346,-470.689,0,0
168277,190.824,-466.034,0,0
168538,190.773,-461.384,0,0
168798,190.986,-456.869,0,0
169058,191.346,-452.666,0,0
169319,191.497,-448.516,0,0
169579,191.61,-444.043,0,0
169839,192.075,-439.199,0,0
170100,193.009,-434.452,0,0
170360.075,194.243,-430.128,0,0
170620.4,195.163,-426.102,0,0
170880.725,195.751,-421.778,0,0
171141.05,196.488,-417.018,0,0
171401.375,197.694,-412.005,0,0
171661.7,199.256,-407.161,0,0
171922.025,200.989,-402.307,0,0
172182.35,202.908,-397.622,0,0
172442.675,204.816,-392.962,0,0
172703.0,206.871,-388.17,0,0
172963.325,209.193,-383.406,0,0
173223.65,211.611,-378.843,0,0
173483.975,213.97,-374.169,0,0
173744.3,216.461,-369.249,0,0
174004.625,219.35,-364.141,0,0
174264.95,222.501,-359.112,0,0
174525.275,226.06,-354.028,0,0
174785.6,230.068,-348.976,0,0
175045.925,234.493,-344.301,0,0
175306.25,239.034,-339.778,0,0
175566.575,243.997,-335.446,0,0
175826.9,249.366,-331.55,0,0
176087.225,254.871,-328.339,0,0
176347.55,260.174,-325.508,0,0
176607.875,265.32,-323,0,0
176868.2,270.171,-320.529,0,0
177128.525,275.209,-317.749,0,0
177388.85,280.856,-315.2,0,0
177649.175,286.936,-313.282,0,0
177909.5,293.03,-312.425,0,0
178169.825,298.459,-312.304,0,0
178430.15,303.185,-312.347,0,0
178690.475,307.7,-312.388,0,0
178950.8,311.968,-312.882,0,0
179211.125,315.445,-313.72,0,0
179471.45,318.192,-313.034,0,0
179731.775,320.845,-313.991,0,0
179992.1,322.374,-314.465,0,0
180252.425,323.329,-314.08,0,0
180512.75,324.028,-312.852,0,0
180773.075,324.892,-310.998,0,0
181033.4,325.589,-308.717,0,0
181293.725,326.332,-305.494,0,0
181554.05,327.677,-301.346,0,0
181814.375,329.881,-296.868,0,0
182074.7,332.89,-292.344,0,0
182335.025,336.571,-288.285,0,0
182595.35,340.081,-284.757,0,0
182855.675,343.163,-280.937,0,0
183116.0,346.52,-276.484,0,0
183376.325,350.401,-271.549,0,0
183636.65,355.188,-266.634,0,0
183896.975,360.387,-262.083,0,0
184157.3,365.682,-257.696,0,0
184417.625,371.361,-253.032,0,0
184677.95,377.73,-248.337,0,0
184938.275,384.806,-244.12,0,0
185198.6,392.123,-240.682,0,0
185458.925,399.426,-237.567,0,0
185719.25,406.654,-234.658,0,0
185979.575,414.023,-231.869,0,0
186239.9,421.684,-229.148,0,0
186500,429.629,-226.886,0,0
186761,437.419,-225.307,0,0
187021,444.619,-223.331,0,0
187281,452.402,-220.85,0,0
187542,461.061,-218.706,0,0
187802,469.925,-217.18,0,0
188062,478.679,-216.287,0,0
188322,487.363,-215.579,0,0
188583,496.253,-215.1,0,0
188843,504.958,-215.408,0,0
189103,512.866,-215.823,0,0
189364,520.314,-215.462,0,0
189624,528.282,-214.653,0,0
189884,536.436,-213.657,0,0
190145,545.526,-212.523,0,0
190405,554.806,-211.645,0,0
190665,564.447,-211.017,0,0
190926,574.239,-210.319,0,0
191186,584.651,-209.342,0,0
191446,596.172,-208.485,0,0
191707,608.485,-208.53,0,0
191967,621.151,-209.173,0,0
192227,634.364,-210.394,0,0
192488,647.936,-212.33,0,0
192748,662.01,-214.86,0,0
193008,676.753,-218.189,0,0
193269,692.167,-222.823,0,0
193529,707.707,-229.089,0,0
193789,722.908,-236.862,0,0
194050,737.565,-246.124,0,0
194310,751.035,-256.467,0,0
194570,763.477,-267.129,0,0
194831,775.488,-278.152,0,0
195091,786.987,-290.028,0,0
195351,797.678,-302.46,0,0
195612,807.332,-315.159,0,0
195872,816.405,-327.825,0,0
196132,825.167,-340.507,0,0
196393,833.556,-353.623,0,0
196653,841.322,-367.003,0,0
196913,848.582,-380.332,0,0
197174,855.728,-393.619,0,0
197434,863.028,-407.263,0,0
197694,870.233,-421.548,0,0
197955,877.218,-436.678,0,0
198215,883.685,-452.835,0,0
198475,889.077,-470.119,0,0
198735,892.842,-488.028,0,0
198996,895.221,-505.75,0,0
199256,896.379,-522.931,0,0
199516,896.653,-539.509,0,0
199777,896.959,-555.505,0,0
200037,897.227,-571.759,0,0
200297,897.164,-588.536,0,0
200558,896.381,-605.911,0,0
200818,894.506,-623.626,0,0
201078,891.58,-641.585,0,0
201339,886.961,-659.83,0,0
201599,880.472,-677.388,0,0
201859,872.88,-693.237,0,0
202120,865.215,-707.988,0,0
202380.025,857.668,-722.476,0,0
202640.35,849.432,-737.052,0,0
202900.675,840.048,-751.189,0,0
203161.0,829.508,-764.284,0,0
203421.325,818.578,-775.894,0,0
203681.65,807.723,-786.451,0,0
203941.975,797.14,-796.265,0,0
204202.3,786.741,-805.693,0,0
204462.625,776.188,-814.678,0,0
204722.95,765.789,-823.341,0,0
204983.275,755.173,-832.249,0,0
205243.6,743.875,-841.23,0,0
205503.925,730.802,-849.28,0,0
205764.25,717.238,-855.268,0,0
206024.575,704.133,-859.696,0,0
206284.9,692.065,-863.094,0,0
206545.225,680.34,-866.058,0,0
206805.55,669.114,-868.45,0,0
207065.875,658.293,-870.243,0,0
207326.2,647.921,-871.468,0,0
207586.525,638.243,-872.072,0,0
207846.85,629.398,-872.5,0,0
208107.175,621.225,-872.77,0,0
208367.5,613.751,-873.286,0,0
208627.825,606.717,-874.182,0,0
208888.15,600.029,-875.102,0,0
209148.475,593.84,-876.712,0,0
209408.8,587.46,-879.063,0,0
209669.125,580.587,-881.949,0,0
209929.45,572.874,-884.878,0,0
210189.775,564.317,-887.372,0,0
210450.1,555.728,-889.179,0,0
210710.425,547.013,-890.657,0,0
210970.75,538.141,-891.741,0,0
211231.075,528.905,-892.519,0,0
211491.4,519.489,-892.562,0,0
211751.725,510.089,-891.579,0,0
212012.05,501.149,-889.861,0,0
212272.375,493.032,-887.526,0,0
212532.7,485.68,-885.166,0,0
212793.025,478.658,-882.945,0,0
213053.35,471.781,-880.562,0,0
213313.675,465.158,-878.031,0,0
213574.0,458.805,-875.35,0,0
213834.325,452.834,-872.44,0,0
214094.65,447.187,-869.628,0,0
214354.975,441.83,-866.83,0,0
214615.3,436.732,-863.924,0,0
214875.625,431.852,-861.06,0,0
215135.95,427.226,-858.316,0,0
215396.275,422.484,-855.51,0,0
215656.6,417.82,-852.684,0,0
215916.925,413.471,-849.506,0,0
216177.25,409.452,-846.364,0,0
216437.575,405.717,-843.248,0,0
216697.9,402.18,-840.187,0,0
216958.225,398.8,-837.121,0,0
217218.55,395.646,-834.026,0,0
217478.875,392.791,-830.939,0,0
217739.2,390.129,-827.979,0,0
217999.525,387.627,-825.244,0,0
218259.85,385.053,-822.51,0,0
218520,382.592,-819.751,0,0
218780,380.36,-816.879,0,0
219041,378.43,-814.036,0,0
219301,376.719,-811.326,0,0
219561,375.244,-808.715,0,0
219822,373.887,-806.31,0,0
220082,372.665,-803.939,0,0
220342,371.503,-801.979,0,0
220603,370.238,-800.06,0,0
220863,368.944,-797.979,0,0
221123,367.937,-795.838,0,0
221384,367.167,-793.804,0,0
221644,366.645,-791.897,0,0
221904,366.208,-790.286,0,0
222165,365.903,-788.737,0,0
222425,365.881,-787.464,0,0
222685,365.799,-786.545,0,0
222946,365.83,-785.946,0,0
223206,365.701,-785.714,0,0
223466,365.218,-785.574,0,0
223727,364.497,-785.523,0,0
223987,363.715,-785.193,0,0
224247,363.088,-785.012,0,0
224508,362.44,-785.062,0,0
224768,361.675,-785.221,0,0
225028,360.522,-785.385,0,0
225289,359.346,-785.345,0,0
225549,358.184,-785.097,0,0
225809,357.215,-784.8,0,0
226070,356.542,-784.52,0,0
226330,355.859,-784.331,0,0
226590,355.34,-784.24,0,0
226851,354.977,-784.324,0,0
227111,354.757,-784.628,0,0
227371,354.51,-785.289,0,0
227632,354.188,-786.114,0,0
227892,353.777,-787.129,0,0
228152,353.366,-788.404,0,0
228413,352.749,-789.992,0,0
228673,351.963,-791.696,0,0
228933,350.865,-793.728,0,0
229193,349.468,-795.918,0,0
229454,347.658,-798.062,0,0
229714,345.548,-800.242,0,0
229974,343.158,-802.263,0,0
230235,340.569,-804.261,0,0
230495,337.632,-805.987,0,0
230755,334.57,-807.531,0,0
231016,331.361,-808.944,0,0
231276,328.096,-810.217,0,0
231536,324.721,-811.208,0,0
231797,321.412,-812.096,0,0
232057,318.062,-812.965,0,0
232317,314.614,-813.779,0,0
232578,311.001,-814.426,0,0
232838,307.341,-814.903,0,0
233098,303.638,-815.236,0,0
233359,299.911,-815.36,0,0
233619,296.263,-815.4,0,0
233879,292.56,-815.251,0,0
234140,288.947,-815.112,0,0
234400,285.237,-814.796,0,0
234660.3,281.62,-814.278,0,0
234920.625,278.001,-813.659,0,0
235180.95,274.559,-813.069,0,0
235441.275,271.143,-812.412,0,0
235701.6,267.655,-811.656,0,0
235961.925,264.255,-810.812,0,0
236222.25,260.798,-809.984,0,0
236482.575,257.364,-809.099,0,0
236742.9,253.985,-808.107,0,0
237003.225,250.543,-807.026,0,0
237263.55,247.084,-805.821,0,0
237523.875,243.659,-804.465,0,0
237784.2,240.282,-803.089,0,0
238044.525,236.967,-801.505,0,0
238304.85,233.807,-799.906,0,0
238565.175,230.696,-798.208,0,0
238825.5,227.66,-796.375,0,0
239085.825,224.713,-794.644,0,0
239346.15,221.749,-792.802,0,0
239606.475,219.065,-790.784,0,0
239866.8,216.173,-788.79,0,0
240127.125,213.502,-786.859,0,0
240387.45,211.011,-784.754,0,0
240647.775,208.57,-782.664,0,0
240908.1,206.247,-780.575,0,0
241168.425,203.964,-778.572,0,0
241428.75,201.717,-776.583,0,0
241689.075,199.54,-774.608,0,0
241949.4,197.297,-772.512,0,0
242209.725,195.207,-770.359,0,0
242470.05,193.234,-768.18,0,0
242730.375,191.47,-766.112,0,0
242990.7,189.725,-764.114,0,0
243251.025,188.08,-762.199,0,0
243511.35,186.396,-760.377,0,0
243771.675,184.685,-758.677,0,0
244032.0,183.046,-757.035,0,0
244292.325,181.292,-755.241,0,0
244552.65,179.598,-753.651,0,0
244812.975,177.761,-752.058,0,0
245073.3,176.125,-750.556,0,0
245333.625,174.35,-749.008,0,0
245593.95,172.606,-747.503,0,0
245854.275,170.7,-746.152,0,0
246114.6,168.637,-744.785,0,0
246374.925,166.477,-743.41,0,0
246635.25,164.107,-741.932,0,0
246895.575,161.48,-740.369,0,0
247155.9,158.944,-738.561,0,0
247416.225,156.322,-736.521,0,0
247676.55,153.743,-734.275,0,0
247936.875,151.232,-731.834,0,0
248197.2,148.874,-729.317,0,0
248457.525,146.582,-726.666,0,0
248717.85,144.437,-723.971,0,0
248978.175,142.338,-721.161,0,0
249238.5,140.279,-718.248,0,0
249498.825,138.367,-715.341,0,0
249759.15,136.568,-712.312,0,0
250019.475,134.802,-709.357,0,0
250279.8,133.099,-706.237,0,0
250540,131.496,-703.007,0,0
250800,129.996,-699.715,0,0
251061,128.667,-696.319,0,0
251321,127.462,-692.945,0,0
251581,126.427,-689.478,0,0
251842,125.616,-686.025,0,0
252102,124.944,-682.619,0,0
252362,124.387,-679.307,0,0
252623,123.93,-676.044,0,0
252883,123.551,-672.86,0,0
253143,123.259,-669.734,0,0
253404,122.979,-666.621,0,0
253664,122.752,-663.568,0,0
253924,122.577,-660.499,0,0
254185,122.465,-657.44,0,0
254445,122.413,-654.389,0,0
254705,122.365,-651.315,0,0
254966,122.421,-648.332,0,0
255226,122.545,-645.194,0,0
255486,122.828,-642,0,0
255747,123.22,-638.852,0,0
256007,123.793,-635.703,0,0
256267,124.541,-632.694,0,0
256528,125.418,-629.711,0,0
256788,126.412,-626.886,0,0
257048,127.497,-624.18,0,0
257309,128.609,-621.637,0,0
257569,129.791,-619.145,0,0
257829,130.988,-616.778,0,0
258090,132.18,-614.442,0,0
258350,133.42,-612.221,0,0
258610,134.691,-610.024,0,0
258871,135.971,-607.922,0,0
259131,137.27,-605.806,0,0
259391,138.655,-603.703,0,0
259651,140.199,-601.693,0,0
259912,141.803,-599.719,0,0
260172,143.461,-597.927,0,0
260432,145.199,-596.228,0,0
260693,146.968,-594.686,0,0
260953,148.782,-593.254,0,0
261213,150.604,-591.968,0,0
261474,152.431,-590.799,0,0
261734,154.246,-589.753,0,0
261994,156.029,-588.792,0,0
262255,157.82,-587.948,0,0
262515,159.6,-587.225,0,0
262775,161.391,-586.591,0,0
263036,163.149,-586.118,0,0
263296,164.837,-585.791,0,0
263556,166.471,-585.554,0,0
263817,168.002,-585.376,0,0
264077,169.462,-585.331,0,0
264337,170.882,-585.345,0,0
264598,172.204,-585.42,0,0
264858,173.46,-585.627,0,0
265118,174.535,-585.935,0,0
265379,175.557,-586.237,0,0
265639,176.43,-586.601,0,0
265899,177.182,-586.939,0,0
266160,177.8,-587.209,0,0
266420,178.37,-587.466,0,0
266680.25,178.935,-587.686,0,0
266940.575,179.402,-587.937,0,0
267200.9,179.82,-588.168,0,0
267461.225,180.165,-588.377,0,0
267721.55,180.456,-588.583,0,0
267981.875,180.655,-588.767,0,0
268242.2,180.773,-588.933,0,0
268502.525,180.831,-589.001,0,0
268762.85,180.758,-589.003,0,0
269023.175,180.679,-588.941,0,0
269283.5,180.482,-588.698,0,0
269543.825,180.375,-588.275,0,0
269804.15,180.244,-587.769,0,0
270064.475,180.234,-587.087,0,0
270324.8,180.324,-586.266,0,0
270585.125,180.513,-585.407,0,0
270845.45,180.923,-584.427,0,0
271105.775,181.504,-583.412,0,0
271366.1,182.311,-582.494,0,0
271626.425,183.215,-581.666,0,0
271886.75,184.26,-580.836,0,0
272147.075,185.366,-580.076,0,0
272407.4,186.63,-579.319,0,0
272667.725,188.025,-578.623,0,0
272928.05,189.67,-578.006,0,0
273188.375,191.522,-577.587,0,0
273448.7,193.484,-577.329,0,0
273709.025,195.621,-577.279,0,0
273969.35,197.837,-577.51,0,0
274229.675,200.227,-577.867,0,0
274490.0,202.728,-578.635,0,0
274750.325,205.431,-579.787,0,0
275010.65,208.049,-581.46,0,0
275270.975,210.538,-583.586,0,0
275531.3,212.805,-586.26,0,0
275791.625,214.726,-589.351,0,0
276051.95,216.149,-592.834,0,0
276312.275,217.048,-596.53,0,0
276572.6,217.348,-600.359,0,0
276832.925,217.037,-604.179,0,0
277093.25,216.238,-607.791,0,0
277353.575,215.054,-611.205,0,0
277613.9,213.548,-614.299,0,0
277874.225,211.809,-617.17,0,0
278134.55,209.886,-619.805,0,0
278394.875,207.848,-622.196,0,0
278655.2,205.648,-624.384,0,0
278915.525,203.372,-626.383,0,0
279175.85,200.998,-628.222,0,0
279436.175,198.511,-629.87,0,0
279696.5,195.996,-631.322,0,0
279956.825,193.434,-632.629,0,0
280217.15,190.765,-633.799,0,0
280477.475,188.037,-634.718,0,0
280737.8,185.326,-635.407,0,0
280998.125,182.746,-635.953,0,0
281258.45,180.199,-636.399,0,0
281518.775,177.701,-636.856,0,0
281779.1,175.197,-637.33,0,0
282039.425,172.486,-637.735,0,0
282299.75,169.665,-638.037,0,0
282560,166.72,-638.165,0,0
282820,163.623,-638.012,0,0
283081,160.539,-637.529,0,0
283341,157.535,-636.721,0,0
283601,154.779,-635.565,0,0
283862,152.336,-634.299,0,0
284122,150.265,-633.053,0,0
284382,148.361,-632.032,0,0
284643,146.481,-631.209,0,0
284903,144.461,-630.628,0,0
285163,142.186,-630.034,0,0
285424,139.629,-629.268,0,0
285684,136.893,-628.331,0,0
285944,134.026,-627.081,0,0
286205,131.092,-625.539,0,0
286465,128.153,-623.605,0,0
286725,125.36,-621.257,0,0
286986,122.836,-618.572,0,0
287246,120.538,-615.645,0,0
287506,118.524,-612.518,0,0
287767,116.797,-609.206,0,0
288027,115.397,-605.763,0,0
288287,114.27,-602.227,0,0
288548,113.429,-598.527,0,0
288808,112.942,-594.687,0,0
289068,112.934,-590.797,0,0
289329,113.401,-586.877,0,0
289589,114.423,-583.089,0,0
289849,115.896,-579.603,0,0
290109,117.732,-576.4,0,0
290370,119.835,-573.5,0,0
290630,122.254,-570.978,0,0
290890,124.983,-568.78,0,0
291151,127.924,-567.055,0,0
291411,131.049,-565.836,0,0
291671,134.271,-565.195,0,0
291932,137.479,-565.15,0,0
292192,140.494,-565.715,0,0
292452,143.264,-566.86,0,0
292713,145.572,-568.534,0,0
292973,147.268,-570.584,0,0
293233,148.276,-572.742,0,0
293494,148.725,-574.867,0,0
293754,148.632,-576.823,0,0
294014,148.115,-578.489,0,0
294275,147.285,-579.704,0,0
294535,146.348,-580.484,0,0
294795,145.501,-580.873,0,0
295056,144.796,-580.958,0,0
295316,144.4,-580.8,0,0
295576,144.284,-580.587,0,0
295837,144.552,-580.378,0,0
296097,145.226,-580.371,0,0
296357,146.274,-580.812,0,0
296618,147.29,-581.982,0,0
296878,147.937,-583.766,0,0
297138,148.049,-585.892,0,0
297399,147.515,-588.095,0,0
297659,146.44,-590.178,0,0
297919,144.929,-591.991,0,0
298180,143.161,-593.483,0,0
298440,141.208,-594.683,0,0
298700.2,139.211,-595.48,0,0
298960.525,137.212,-596.081,0,0
299220.85,135.25,-596.5,0,0
299481.175,133.341,-596.752,0,0
299741.5,131.421,-596.905,0,0
300001.825,129.468,-596.933,0,0
300262.15,127.507,-596.727,0,0
300522.475,125.574,-596.371,0,0
300782.8,123.738,-595.83,0,0
301043.125,122.034,-595.116,0,0
301303.45,120.532,-594.251,0,0
301563.775,119.263,-593.308,0,0
301824.1,118.184,-592.42,0,0
302084.425,117.284,-591.597,0,0
302344.75,116.552,-590.902,0,0
302605.075,115.902,-590.363,0,0
302865.4,115.28,-590.01,0,0
303125.725,114.623,-589.799,0,0
303386.05,113.864,-589.724,0,0
303646.375,113.002,-589.713,0,0
303906.7,112.038,-589.772,0,0
304167.025,110.926,-589.888,0,0
304427.35,109.729,-589.962,0,0
304687.675,108.352,-590.007,0,0
304948.0,106.863,-590.036,0,0
305208.325,105.275,-589.93,0,0
305468.65,103.591,-589.691,0,0
305728.975,101.879,-589.35,0,0
305989.3,100.143,-588.875,0,0
306249.625,98.405,-588.301,0,0
306509.95,96.7012,-587.599,0,0
306770.275,94.9947,-586.793,0,0
307030.6,93.3411,-585.947,0,0
307290.925,91.707,-584.966,0,0
307551.25,90.1325,-583.895,0,0
307811.575,88.6456,-582.758,0,0
308071.9,87.2085,-581.57,0,0
308332.225,85.8217,-580.335,0,0
308592.55,84.5547,-579.079,0,0
308852.875,83.3146,-577.791,0,0
309113.2,82.1691,-576.481,0,0
309373.525,81.1038,-575.147,0,0
309633.85,80.0759,-573.859,0,0
309894.175,79.1378,-572.611,0,0
310154.5,78.1794,-571.327,0,0
310414.825,77.2312,-570.082,0,0
310675.15,76.3269,-568.817,0,0
310935.475,75.4464,-567.56,0,0
311195.8,74.5747,-566.289,0,0
311456.125,73.7197,-565.004,0,0
311716.45,72.9037,-563.717,0,0
311976.775,72.1124,-562.443,0,0
312237.1,71.328,-561.134,0,0
312497.425,70.5826,-559.8,0,0
312757.75,69.8744,-558.441,0,0
313018.075,69.2358,-557.078,0,0
313278.4,68.6274,-555.746,0,0
313538.725,68.0501,-554.421,0,0
313799.05,67.5138,-553.145,0,0
314059.375,66.9911,-551.866,0,0
314319.7,66.4779,-550.603,0,0
314580,66.0147,-549.342,0,0
314840,65.5023,-548.093,0,0
315101,65.0509,-546.776,0,0
315361,64.6312,-545.606,0,0
315621,64.1294,-544.371,0,0
315882,63.707,-543.071,0,0
316142,63.297,-541.856,0,0
316402,62.9037,-540.616,0,0
316663,62.5766,-539.283,0,0
316923,62.2602,-538.054,0,0
317183,61.8998,-536.788,0,0
317444,61.6896,-535.61,0,0
317704,61.4243,-534.408,0,0
317964,61.2343,-533.193,0,0
318225,61.0051,-531.987,0,0
318485,60.8376,-530.856,0,0
318745,60.7174,-529.792,0,0
319006,60.4574,-528.599,0,0
319266,60.3542,-527.597,0,0
319526,60.1078,-526.535,0,0
319787,59.9589,-525.514,0,0
320047,59.7249,-524.479,0,0
320307,59.5153,-523.459,0,0
320567,59.3237,-522.433,0,0
320828,59.127,-521.349,0,0
321088,58.9324,-520.318,0,0
321348,58.7041,-519.219,0,0
321609,58.4078,-518.272,0,0
321869,58.253,-517.18,0,0
322129,58.0673,-516.059,0,0
322390,57.8895,-514.954,0,0
322650,57.6566,-513.93,0,0
322910,57.4792,-512.797,0,0
323171,57.2133,-511.631,0,0
323431,57.0303,-510.454,0,0
323691,56.8463,-509.269,0,0
323952,56.7044,-508.067,0,0
324212,56.5962,-506.744,0,0
324472,56.5812,-505.404,0,0
324733,56.6294,-504.066,0,0
324993,56.7238,-502.705,0,0
325253,56.9384,-501.325,0,0
325514,57.2805,-499.985,0,0
325774,57.7095,-498.606,0,0
326034,58.2319,-497.41,0,0
326295,58.82,-496.303,0,0
326555,59.4867,-495.285,0,0
326815,60.1632,-494.383,0,0
327076,60.8833,-493.65,0,0
327336,61.5563,-493.028,0,0
327596,62.1428,-492.486,0,0
327857,62.662,-491.969,0,0
328117,63.0953,-491.555,0,0
328377,63.4903,-491.145,0,0
328638,63.8492,-490.753,0,0
328898,64.1901,-490.358,0,0
329158,64.4873,-489.991,0,0
329419,64.7583,-489.604,0,0
329679,65.0463,-489.214,0,0
329939,65.3476,-488.916,0,0
330200,65.5915,-488.65,0,0
330460,65.812,-488.339,0,0
330720.15,66.0599,-488.169,0,0
330980.475,66.1061,-487.965,0,0
331240.8,66.2976,-487.86,0,0
331501.125,66.2948,-487.792,0,0
331761.45,66.2941,-487.681,0,0
332021.775,66.2341,-487.651,0,0
332282.1,66.0083,-487.568,0,0
332542.425,65.7649,-487.527,0,0
332802.75,65.4551,-487.371,0,0
333063.075,65.1115,-487.241,0,0
333323.4,64.685,-487.043,0,0
333583.725,64.1571,-486.77,0,0
333844.05,63.5415,-486.492,0,0
334104.375,63.0657,-486.035,0,0
334364.7,62.5182,-485.551,0,0
334625.025,62.0468,-485.014,0,0
334885.35,61.5236,-484.408,0,0
335145.675,61.0617,-483.825,0,0
335406.0,60.649,-483.205,0,0
335666.325,60.1999,-482.514,0,0
335926.65,59.7801,-481.793,0,0
336186.975,59.3886,-481.152,0,0
336447.3,59.0408,-480.395,0,0
336707.625,58.6067,-479.757,0,0
336967.95,58.3008,-478.966,0,0
337228.275,57.9257,-478.2,0,0
337488.6,57.5656,-477.419,0,0
337748.925,57.2694,-476.59,0,0
338009.25,57.0024,-475.765,0,0
338269.575,56.757,-474.987,0,0
338529.9,56.4822,-474.147,0,0
338790.225,56.2059,-473.312,0,0
339050.55,56.0008,-472.483,0,0
339310.875,55.7651,-471.68,0,0
339571.2,55.5741,-470.795,0,0
339831.525,55.4075,-469.924,0,0
340091.85,55.2259,-468.995,0,0
340352.175,55.0956,-468.147,0,0
340612.5,54.9171,-467.239,0,0
340872.825,54.8578,-466.384,0,0
341133.15,54.7758,-465.483,0,0
341393.475,54.7568,-464.554,0,0
341653.8,54.6987,-463.737,0,0
341914.125,54.6873,-462.878,0,0
342174.45,54.6569,-461.995,0,0
342434.775,54.6642,-461.169,0,0
342695.1,54.6874,-460.299,0,0
342955.425,54.7084,-459.419,0,0
343215.75,54.725,-458.574,0,0
343476.075,54.7688,-457.684,0,0
343736.4,54.8658,-456.833,0,0
343996.725,54.9579,-456.012,0,0
344257.05,55.103,-455.176,0,0
344517.375,55.2031,-454.275,0,0
344777.7,55.3577,-453.454,0,0
345038.025,55.5308,-452.638,0,0
345298.35,55.7062,-451.813,0,0
345558.675,55.9257,-451.011,0,0
345819.0,56.0959,-450.247,0,0
346079.325,56.3953,-449.506,0,0
346339.65,56.6096,-448.755,0,0
346599.975,56.8162,-448.04,0,0
346860,57.1279,-447.351,0,0
347121,57.3756,-446.633,0,0
347381,57.6274,-445.948,0,0
347641,57.927,-445.307,0,0
347902,58.1817,-444.617,0,0
348162,58.4442,-444.003,0,0
348422,58.7884,-443.363,0,0
348683,59.0739,-442.75,0,0
348943,59.4057,-442.167,0,0
349203,59.7111,-441.563,0,0
349464,60.0232,-441.004,0,0
349724,60.3919,-440.482,0,0
349984,60.7167,-439.975,0,0
350245,61.0221,-439.44,0,0
350505,61.4079,-438.985,0,0
350765,61.7074,-438.525,0,0
351025,62.0668,-438.101,0,0
351286,62.3555,-437.65,0,0
351546,62.6706,-437.314,0,0
351806,62.9339,-436.955,0,0
352067,63.2544,-436.57,0,0
352327,63.4741,-436.259,0,0
352587,63.6821,-435.911,0,0
352848,63.8937,-435.588,0,0
353108,64.0818,-435.182,0,0
353368,64.22,-434.801,0,0
353629,64.3951,-434.459,0,0
353889,64.6014,-434.036,0,0
354149,64.7874,-433.66,0,0
354410,65.0169,-433.236,0,0
354670,65.1863,-432.83,0,0
354930,65.4482,-432.533,0,0
355191,65.7044,-432.134,0,0
355451,65.9017,-431.79,0,0
355711,66.1513,-431.409,0,0
355972,66.3726,-431.098,0,0
356232,66.5918,-430.688,0,0
356492,66.859,-430.368,0,0
356753,67.0974,-430.011,0,0
357013,67.4205,-429.697,0,0
357273,67.7062,-429.394,0,0
357534,68.0706,-429.08,0,0
357794,68.3686,-428.858,0,0
358054,68.7287,-428.621,0,0
358315,69.0728,-428.452,0,0
358575,69.4163,-428.282,0,0
358835,69.7011,-428.158,0,0
359096,70.0447,-428.104,0,0
359356,70.3169,-428.081,0,0
359616,70.5486,-428.1,0,0
359877,70.733,-428.095,0,0
360137,70.9398,-428.147,0,0
360397,71.0834,-428.199,0,0
360658,71.2047,-428.242,0,0
360918,71.2745,-428.277,0,0
361178,71.2942,-428.371,0,0
361438,71.3737,-428.427,0,0
361699,71.2939,-428.487,0,0
361959,71.2522,-428.551,0,0
362219,71.1948,-428.614,0,0
362480,71.0242,-428.669,0,0
362740.1,70.9037,-428.649,0,0
363000.425,70.7405,-428.681,0,0
363260.75,70.5887,-428.656,0,0
363521.075,70.3401,-428.627,0,0
363781.4,70.1409,-428.577,0,0
364041.725,69.955,-428.462,0,0
364302.05,69.7286,-428.376,0,0
364562.375,69.4905,-428.314,0,0
364822.7,69.2678,-428.177,0,0
365083.025,68.9619,-428.077,0,0
365343.35,68.6992,-427.913,0,0
365603.675,68.4242,-427.737,0,0
365864.0,68.0922,-427.578,0,0
366124.325,67.8117,-427.324,0,0
366384.65,67.4828,-427.036,0,0
366644.975,67.2138,-426.73,0,0
366905.3,66.9682,-426.378,0,0
367165.625,66.6739,-426.034,0,0
367425.95,66.4756,-425.629,0,0
367686.275,66.3059,-425.243,0,0
367946.6,66.2364,-424.856,0,0
368206.925,66.2003,-424.464,0,0
368467.25,66.1655,-424.15,0,0
368727.575,66.16,-423.83,0,0
368987.9,66.215,-423.656,0,0
369248.225,66.1918,-423.447,0,0
369508.55,66.1643,-423.314,0,0
369768.875,66.0523,-423.22,0,0
370029.2,66.0019,-423.132,0,0
370289.525,65.8303,-423.09,0,0
370549.85,65.5939,-423.015,0,0
370810.175,65.3364,-422.896,0,0
371070.5,65.0796,-422.783,0,0
371330.825,64.7903,-422.584,0,0
371591.15,64.4657,-422.341,0,0
371851.475,64.2085,-422.126,0,0
372111.8,63.8942,-421.9,0,0
372372.125,63.632,-421.653,0,0
372632.45,63.4218,-421.366,0,0
372892.775,63.1349,-421.081,0,0
373153.1,62.8758,-420.787,0,0
373413.425,62.652,-420.614,0,0
373673.75,62.4334,-420.297,0,0
373934.075,62.2308,-420.047,0,0
374194.4,61.9973,-419.824,0,0
374454.725,61.7443,-419.631,0,0
374715.05,61.5033,-419.387,0,0
374975.375,61.2055,-419.18,0,0
375235.7,60.8823,-418.947,0,0
375496.025,60.5606,-418.753,0,0
375756.35,60.2641,-418.448,0,0
376016.675,59.9303,-418.171,0,0
376277.0,59.5689,-417.862,0,0
376537.325,59.2683,-417.588,0,0
376797.65,58.9425,-417.193,0,0
377057.975,58.6158,-416.88,0,0
377318.3,58.4019,-416.573,0,0
377578.625,58.0804,-416.276,0,0
377838.95,57.8272,-416.043,0,0
378099.275,57.5462,-415.767,0,0
378359.6,57.2162,-415.561,0,0
378619.925,56.8754,-415.459,0,0
378880,56.3351,-415.227,0,0
379141,55.7957,-415,0,0
379401,55.1621,-414.679,0,0
379661,54.5071,-414.25,0,0
379922,53.8594,-413.669,0,0
380182,53.2374,-412.983,0,0
380442,52.763,-412.207,0,0
380703,52.3466,-411.335,0,0
380963,52.0963,-410.479,0,0
381223,52.0373,-409.647,0,0
381483,52.0418,-408.942,0,0
381744,52.1428,-408.398,0,0
382004,52.1828,-407.953,0,0
382264,52.224,-407.604,0,0
382525,52.1706,-407.283,0,0
382785,52.0223,-407.062,0,0
383045,51.8092,-406.831,0,0
383306,51.5358,-406.519,0,0
383566,51.2617,-406.195,0,0
383826,50.8882,-405.883,0,0
384087,50.5392,-405.564,0,0
384347,50.1353,-405.163,0,0
384607,49.737,-404.745,0,0
384868,49.3456,-404.286,0,0
385128,48.9207,-403.77,0,0
385388,48.4995,-403.269,0,0
385649,48.1062,-402.689,0,0
385909,47.7278,-402.105,0,0
386169,47.3676,-401.537,0,0
386430,46.9857,-400.816,0,0
386690,46.6782,-400.181,0,0
386950,46.4162,-399.482,0,0
387211,46.1512,-398.815,0,0
387471,45.8537,-398.108,0,0
387731,45.6538,-397.454,0,0
387992,45.4478,-396.752,0,0
388252,45.243,-396.076,0,0
388512,45.1129,-395.379,0,0
388773,44.9184,-394.687,0,0
389033,44.7944,-393.95,0,0
389293,44.7151,-393.273,0,0
389554,44.6164,-392.556,0,0
389814,44.6,-391.88,0,0
390074,44.6176,-391.183,0,0
390335,44.6509,-390.584,0,0
390595,44.6837,-389.945,0,0
390855,44.7542,-389.377,0,0
391116,44.7895,-388.878,0,0
391376,44.8301,-388.421,0,0
391636,44.8739,-388.032,0,0
391896,44.8617,-387.667,0,0
392157,44.8105,-387.33,0,0
392417,44.6576,-386.972,0,0
392677,44.4805,-386.621,0,0
392938,44.2171,-386.25,0,0
393198,43.9451,-385.87,0,0
393458,43.6253,-385.402,0,0
393719,43.3142,-384.897,0,0
393979,42.9279,-384.348,0,0
394239,42.6407,-383.77,0,0
394500,42.2995,-383.117,0,0
394760.05,41.9703,-382.443,0,0
395020.375,41.6751,-381.7,0,0
395280.7,41.4276,-380.949,0,0
395541.025,41.1995,-380.177,0,0
395801.35,41.0627,-379.385,0,0
396061.675,40.9121,-378.557,0,0
396322.0,40.7957,-377.77,0,0
396582.325,40.6985,-376.967,0,0
396842.65,40.6597,-376.145,0,0
397102.975,40.6217,-375.339,0,0
397363.3,40.5867,-374.529,0,0
397623.625,40.6223,-373.742,0,0
397883.95,40.6705,-372.95,0,0
398144.275,40.747,-372.21,0,0
398404.6,40.7937,-371.437,0,0
398664.925,40.8926,-370.723,0,0
398925.25,41.0388,-370.014,0,0
399185.575,41.1668,-369.302,0,0
399445.9,41.2771,-368.603,0,0
399706.225,41.3971,-367.94,0,0
399966.55,41.5343,-367.275,0,0
400006.6,41.543,-367.163,0,0