File: Accelerated corrosion test data/2025-10-22_06-00-04/sample_1.csv
Frequency (Hz),Impedance (ohms),Phase (Radians),Temperature (C),Humidity (%)
10000.0,242.046,-12214.3,0,0
10260.325,242.735,-11898.9,0,0
10520.65,231.253,-11619.6,0,0
10780.975,228.432,-11334.8,0,0
11041.3,220.966,-11075.3,0,0
11301.625,215.631,-10818.5,0,0
11561.95,211.672,-10574.5,0,0
11822.275,208.813,-10334.2,0,0
12082.6,232.432,-10106.7,0,0
12342.925,210.895,-9932.86,0,0
12603.25,195.774,-9717.12,0,0
12863.575,192.033,-9515.35,0,0
13123.9,200.542,-9321.82,0,0
13384.225,187.02,-9154.42,0,0
13644.55,182.51,-8971.51,0,0
13904.875,183.015,-8792.37,0,0
14165.2,203.443,-8664.36,0,0
14425.525,214.19,-8491.35,0,0
14685.8,200.531,-8329.11,0,0
14946.175,177.912,-8223.04,0,0
15206.5,190.542,-8058.92,0,0
15466.825,174.359,-7949.23,0,0
15727.15,169.492,-7810.63,0,0
15987.5,161.743,-7685.51,0,0
16247.8,157.701,-7559.17,0,0
16508.125,155.553,-7436.15,0,0
16768.45,158.312,-7317.62,0,0
17028.775,163.727,-7208.47,0,0
17289.1,155.706,-7108.52,0,0
17549.425,151.657,-7004.06,0,0
17809.75,146.413,-6899.27,0,0
18070.075,151.226,-6799.1,0,0
18330.4,143.266,-6703.25,0,0
18590.725,137.79,-6608.97,0,0
18851.05,138.551,-6511.08,0,0
19111.375,136.064,-6430.28,0,0
19371.7,133.37,-6337.5,0,0
19632.025,132.485,-6248.5,0,0
19892.35,136.682,-6159.98,0,0
20152.675,135.931,-6075.67,0,0
20413.0,156.427,-5985.66,0,0
20673.3,169.825,-5945.49,0,0
20933.65,148.752,-5878.98,0,0
21193.975,163.523,-5812.48,0,0
21454.3,141.259,-5743.16,0,0
21714.625,136.461,-5668.48,0,0
21974.9,141.05,-5588.45,0,0
22235.275,174.232,-5544.66,0,0
22495.6,141.655,-5503.98,0,0
22755.925,127.168,-5434.36,0,0
23016.25,122.338,-5367.74,0,0
23276.6,119.166,-5305.83,0,0
23536.9,115.79,-5244.43,0,0
23797.225,112.942,-5183.39,0,0
24057.55,114.944,-5122.67,0,0
24317.875,113.285,-5074.45,0,0
24578.2,110.863,-5014.91,0,0
24838.525,110.728,-4964.25,0,0
25098.85,110.176,-4910.87,0,0
25359.175,106.12,-4860.63,0,0
25619.5,105.871,-4809.46,0,0
25879.8,103.665,-4757.77,0,0
26140.1,103.816,-4708.4,0,0
26400.5,102.938,-4658.95,0,0
26660.8,105.446,-4608.3,0,0
26921.1,113.883,-4559.22,0,0
27181.4,122.857,-4528.72,0,0
27441.8,111.035,-4494.46,0,0
27702.1,103.967,-4445.36,0,0
27962.4,110.991,-4395.31,0,0
28222.7,110.77,-4356.57,0,0
28483.1,121.452,-4313.3,0,0
28743.4,131.703,-4295.07,0,0
29003.7,118.746,-4257.9,0,0
29264,118.843,-4224.83,0,0
29524.4,107.808,-4191.2,0,0
29784.7,105.892,-4148.29,0,0
30045,102.059,-4117.02,0,0
30305.3,100.472,-4077.96,0,0
30565.7,97.4216,-4039.54,0,0
30826,101.427,-4003.25,0,0
31086.3,104.747,-3975.92,0,0
31346.6,100.42,-3946.32,0,0
31607,94.2764,-3909.04,0,0
31867.3,98.5433,-3876.15,0,0
32127.6,98.0401,-3845.49,0,0
32387.9,98.6734,-3818.13,0,0
32648.3,94.2565,-3786.95,0,0
32908.6,96.3816,-3759.09,0,0
33168.9,91.8244,-3731.22,0,0
33429.2,89.5632,-3701.76,0,0
33689.6,86.0719,-3672.43,0,0
33949.9,84.8745,-3641.31,0,0
34210.2,86.9088,-3614.11,0,0
34470.5,83.7103,-3588,0,0
34730.9,81.8768,-3559.64,0,0
34991.2,81.3134,-3532.45,0,0
35251.5,80.4861,-3505.82,0,0
35511.8,79.5791,-3479.2,0,0
35772.2,79.3171,-3453.97,0,0
36032.5,78.1312,-3428.41,0,0
36292.8,77.32,-3403.02,0,0
36553.1,76.9353,-3378.17,0,0
36813.5,76.3526,-3353.49,0,0
37073.8,76.1524,-3329.46,0,0
37334.1,75.4497,-3306.14,0,0
37594.4,75.0992,-3282.54,0,0
37854.8,74.0761,-3259.76,0,0
38115.1,73.4896,-3236.93,0,0
38375.4,73.3005,-3214.32,0,0
38635.7,72.8465,-3192.4,0,0
38896.1,72.215,-3170.19,0,0
39156.4,72.5317,-3148.18,0,0
39416.7,72.3452,-3128.03,0,0
39677,71.2992,-3106.72,0,0
39937.4,71.2128,-3085.36,0,0
40197.7,71.1726,-3064.75,0,0
40458,71.1606,-3044.64,0,0
40718.3,71.0169,-3023.95,0,0
40978.7,72.4431,-3004.38,0,0
41239,72.4599,-2986.48,0,0
41499.3,72.1529,-2968.13,0,0
41759.6,71.11,-2949.5,0,0
42020,70.6602,-2930.87,0,0
42280.275,70.3823,-2912.67,0,0
42540.6,70.5943,-2893.96,0,0
42800.925,70.4032,-2877.48,0,0
43061.25,69.0863,-2859.49,0,0
43321.575,69.4726,-2842.2,0,0
43581.9,68.6508,-2825.05,0,0
43842.225,67.9222,-2807.66,0,0
44102.55,68.3261,-2789.79,0,0
44362.875,68.8907,-2772.86,0,0
44623.2,69.4752,-2757.52,0,0
44883.525,68.7398,-2742.45,0,0
45143.85,68.488,-2726.12,0,0
45404.175,68.2529,-2709.95,0,0
45664.5,67.5399,-2695.11,0,0
45924.825,66.4525,-2679.94,0,0
46185.15,66.0559,-2664.22,0,0
46445.475,65.1223,-2649.02,0,0
46705.8,65.3822,-2633.37,0,0
46966.125,65.0535,-2619.3,0,0
47226.45,64.3233,-2604.17,0,0
47486.775,64.4217,-2589.44,0,0
47747.1,64.0493,-2575.54,0,0
48007.425,63.5944,-2561.17,0,0
48267.75,63.4179,-2547.03,0,0
48528.075,62.7601,-2533.63,0,0
48788.4,61.8282,-2519.41,0,0
49048.725,61.5535,-2505.34,0,0
49309.05,61.6092,-2491.42,0,0
49569.375,61.3493,-2478.54,0,0
49829.7,61.0025,-2465.59,0,0
50090.025,60.1469,-2452.23,0,0
50350.35,59.5736,-2438.68,0,0
50610.675,59.3554,-2425.33,0,0
50871.0,59.3918,-2412.52,0,0
51131.325,59.3333,-2399.73,0,0
51391.65,59.2442,-2387.25,0,0
51651.975,58.8505,-2375.17,0,0
51912.3,58.3837,-2362.69,0,0
52172.625,57.9783,-2350.27,0,0
52432.95,58.131,-2338.01,0,0
52693.275,57.7692,-2326.07,0,0
52953.6,57.6988,-2314.13,0,0
53213.925,57.7606,-2302.42,0,0
53474.25,57.4404,-2291.01,0,0
53734.575,57.2724,-2279.41,0,0
53994.9,57.274,-2268.2,0,0
54255.225,56.7179,-2257.15,0,0
54515.55,56.2266,-2245.74,0,0
54775.875,55.8798,-2234.53,0,0
55036.2,55.8405,-2223.17,0,0
55296.525,55.7612,-2212.27,0,0
55556.85,55.7493,-2201.46,0,0
55817.175,55.4449,-2190.96,0,0
56077.5,54.9913,-2180.21,0,0
56337.825,54.7415,-2169.34,0,0
56598.15,54.7319,-2158.8,0,0
56858.475,54.7869,-2148.37,0,0
57118.8,54.773,-2138.19,0,0
57379.125,54.463,-2127.86,0,0
57639.45,54.632,-2117.77,0,0
57899.775,54.5132,-2107.77,0,0
58160.1,54.5516,-2097.76,0,0
58420.4,54.4358,-2088.11,0,0
58680.7,54.2132,-2078.45,0,0
58941.1,54.1319,-2068.6,0,0
59201.4,54.3038,-2058.92,0,0
59461.7,54.2705,-2049.82,0,0
59722,54.0867,-2040.27,0,0
59982.4,54.1312,-2031,0,0
60242.7,54.1005,-2021.71,0,0
60503,54.2766,-2012.56,0,0
60763.3,54.409,-2004,0,0
61023.7,54.0138,-1995.35,0,0
61284,53.4401,-1986.39,0,0
61544.3,53.1367,-1977.21,0,0
61804.6,53.2642,-1968.26,0,0
62065,53.0306,-1959.94,0,0
62325.3,52.5885,-1951.02,0,0
62585.6,52.5644,-1942.12,0,0
62845.9,52.4713,-1933.35,0,0
63106.3,52.5033,-1924.7,0,0
63366.6,52.4428,-1916.37,0,0
63626.9,52.4569,-1907.8,0,0
63887.2,52.2933,-1899.36,0,0
64147.6,52.373,-1890.9,0,0
64407.9,52.4791,-1882.59,0,0
64668.2,52.7709,-1874.09,0,0
64928.5,53.3359,-1865.9,0,0
65188.9,54.0388,-1857.95,0,0
65449.2,54.8072,-1850.52,0,0
65709.5,55.0614,-1843.45,0,0
65969.8,55.0235,-1836.28,0,0
66230.2,54.8341,-1828.95,0,0
66490.5,54.902,-1821.95,0,0
66750.8,54.3898,-1814.88,0,0
67011.1,54.0742,-1807.49,0,0
67271.5,53.6147,-1799.97,0,0
67531.8,53.6151,-1792.19,0,0
67792.1,54.0146,-1785.02,0,0
68052.4,54.061,-1778.58,0,0
68312.8,53.24,-1771.65,0,0
68573.1,53.0611,-1764.04,0,0
68833.4,53.1109,-1757.14,0,0
69093.7,52.8618,-1750.32,0,0
69354.1,52.5953,-1743.39,0,0
69614.4,52.6895,-1736.57,0,0
69874.7,52.1106,-1730.14,0,0
70135,51.7747,-1723.37,0,0
70395.4,50.9846,-1716.67,0,0
70655.7,50.418,-1709.51,0,0
70916,50.0876,-1702.29,0,0
71176.3,50.0145,-1695.33,0,0
71436.7,50.0203,-1688.57,0,0
71697,49.8609,-1682.23,0,0
71957.3,49.2548,-1675.64,0,0
72217.6,48.6809,-1668.93,0,0
72478,48.2197,-1661.82,0,0
72738.3,48.2293,-1654.91,0,0
72998.6,48.1681,-1648.06,0,0
73258.9,48.1676,-1641.41,0,0
73519.3,48.126,-1634.97,0,0
73779.6,47.937,-1628.41,0,0
74039.9,47.9053,-1621.83,0,0
74300.225,48.0163,-1615.27,0,0
74560.55,47.9392,-1608.77,0,0
74820.875,48.1021,-1602.16,0,0
75081.2,48.4021,-1596.04,0,0
75341.525,48.4701,-1589.8,0,0
75601.85,48.5384,-1583.62,0,0
75862.175,48.6822,-1577.45,0,0
76122.5,48.7044,-1571.24,0,0
76382.825,48.8633,-1565.18,0,0
76643.15,49.1447,-1559.04,0,0
76903.475,49.3898,-1553.11,0,0
77163.8,49.6144,-1547.11,0,0
77424.125,49.9543,-1541.39,0,0
77684.45,50.0748,-1535.64,0,0
77944.775,50.291,-1529.81,0,0
78205.1,50.6475,-1524.01,0,0
78465.425,51.1836,-1518.4,0,0
78725.75,51.621,-1513.26,0,0
78986.075,51.7719,-1508.15,0,0
79246.4,51.8307,-1502.97,0,0
79506.725,51.5635,-1497.91,0,0
79767.05,51.0631,-1492.38,0,0
80027.375,50.8906,-1486.9,0,0
80287.7,50.8739,-1481.57,0,0
80548.025,50.6308,-1476.13,0,0
80808.35,50.4704,-1470.58,0,0
81068.675,50.262,-1465.01,0,0
81329.0,50.1958,-1459.32,0,0
81589.325,50.2739,-1453.79,0,0
81849.65,50.4092,-1448.28,0,0
82109.975,50.6602,-1442.89,0,0
82370.3,50.7922,-1437.62,0,0
82630.625,50.8207,-1432.29,0,0
82890.95,50.8727,-1426.98,0,0
83151.275,51.0876,-1421.5,0,0
83411.6,51.4703,-1416.09,0,0
83671.925,51.8961,-1411,0,0
83932.25,52.1375,-1405.95,0,0
84192.575,52.4412,-1400.74,0,0
84452.9,52.8198,-1395.76,0,0
84713.225,53.1171,-1390.76,0,0
84973.55,53.3084,-1385.78,0,0
85233.875,53.7609,-1380.71,0,0
85494.2,54.2889,-1375.94,0,0
85754.525,54.672,-1371.34,0,0
86014.85,54.8628,-1366.6,0,0
86275.175,55.146,-1361.97,0,0
86535.5,55.31,-1357.34,0,0
86795.825,55.4993,-1352.66,0,0
87056.15,55.5484,-1348.02,0,0
87316.475,55.8582,-1343.27,0,0
87576.8,56.0815,-1338.74,0,0
87837.125,55.9042,-1334.17,0,0
88097.45,55.932,-1329.46,0,0
88357.775,55.8234,-1324.37,0,0
88618.1,56.1504,-1319.34,0,0
88878.425,56.628,-1314.35,0,0
89138.75,57.138,-1309.5,0,0
89399.075,57.7385,-1304.54,0,0
89659.4,58.5002,-1299.89,0,0
89919.725,59.2775,-1295.36,0,0
90180,59.9202,-1290.83,0,0
90440.4,60.4753,-1286.46,0,0
90700.7,60.9119,-1281.61,0,0
90961,61.9077,-1276.79,0,0
91221.3,63.1849,-1272.17,0,0
91481.7,64.676,-1267.96,0,0
91742,65.9591,-1263.93,0,0
92002.3,67.2409,-1260.4,0,0
92262.6,68.0194,-1256.46,0,0
92523,69.3679,-1252.46,0,0
92783.3,70.9172,-1248.57,0,0
93043.6,72.8454,-1245.26,0,0
93303.9,74.7339,-1242.51,0,0
93564.3,76.6713,-1240.21,0,0
93824.6,78.6524,-1238.99,0,0
94084.9,79.0924,-1239.61,0,0
94345.2,76.5683,-1239.41,0,0
94605.6,73.3561,-1236.37,0,0
94865.9,71.948,-1232.5,0,0
95126.2,70.6953,-1229.08,0,0
95386.5,69.3484,-1225.47,0,0
95646.9,67.9018,-1221.35,0,0
95907.2,67.1012,-1217.09,0,0
96167.5,66.3282,-1212.57,0,0
96427.8,66.1988,-1208.17,0,0
96688.2,66.2667,-1204.37,0,0
96948.5,65.7763,-1200.68,0,0
97208.8,65.2817,-1196.75,0,0
97469.1,64.8932,-1192.65,0,0
97729.5,64.6359,-1188.61,0,0
97989.8,64.5004,-1184.56,0,0
98250.1,64.3293,-1180.51,0,0
98510.4,64.314,-1176.61,0,0
98770.8,64.1663,-1172.76,0,0
99031.1,63.9171,-1168.91,0,0
99291.4,63.7461,-1165.02,0,0
99551.7,63.5863,-1161.04,0,0
99812.1,63.4686,-1157.11,0,0
100072,63.1698,-1153,0,0
100333,63.1346,-1149.02,0,0
100593,63.0296,-1144.96,0,0
100853,62.9958,-1140.82,0,0
101114,63.0124,-1136.76,0,0
101374,63.0035,-1132.67,0,0
101634,62.909,-1128.51,0,0
101895,62.9208,-1124.16,0,0
102155,63.0049,-1119.62,0,0
102415,63.438,-1114.96,0,0
102676,64.1372,-1110.36,0,0
102936,65.2208,-1105.9,0,0
103196,66.211,-1101.8,0,0
103457,67.3309,-1097.7,0,0
103717,68.541,-1093.81,0,0
103977,69.6825,-1089.95,0,0
104238,71.0538,-1086.07,0,0
104498,72.8158,-1082.61,0,0
104758,74.2537,-1079.65,0,0
105019,75.1459,-1076.86,0,0
105279,75.8668,-1073.61,0,0
105539,76.8027,-1070.2,0,0
105800,78.0218,-1066.83,0,0
106060,79.2737,-1063.66,0,0
106320.175,80.5979,-1060.6,0,0
106580.5,81.9637,-1057.7,0,0
106840.825,83.2592,-1055.02,0,0
107101.15,84.4731,-1052.33,0,0
107361.475,85.8476,-1049.75,0,0
107621.8,87.0506,-1047.57,0,0
107882.125,87.9663,-1045.4,0,0
108142.45,88.8206,-1042.95,0,0
108402.775,89.8892,-1040.73,0,0
108663.1,90.7027,-1038.62,0,0
108923.425,91.5262,-1036.44,0,0
109183.75,92.3805,-1034.43,0,0
109444.075,93.2692,-1032.55,0,0
109704.4,93.873,-1030.95,0,0
109964.725,94.099,-1029.37,0,0
110225.05,94.0065,-1027.64,0,0
110485.375,93.7435,-1025.6,0,0
110745.7,93.3736,-1023.3,0,0
111006.025,93.3105,-1020.81,0,0
111266.35,93.7151,-1018.08,0,0
111526.675,94.1383,-1015.27,0,0
111787.0,94.8127,-1012.93,0,0
112047.325,95.6583,-1010.78,0,0
112307.65,96.3418,-1008.73,0,0
112567.975,96.9558,-1007.09,0,0
112828.3,97.5037,-1005.63,0,0
113088.625,97.7509,-1004.2,0,0
113348.95,97.7454,-1002.9,0,0
113609.275,97.551,-1001.47,0,0
113869.6,97.0846,-1000.17,0,0
114129.925,96.3895,-998.633,0,0
114390.25,95.7526,-996.755,0,0
114650.575,95.1232,-994.695,0,0
114910.9,94.6911,-992.962,0,0
115171.225,93.9166,-991.254,0,0
115431.55,92.9395,-989.245,0,0
115691.875,91.9992,-987.065,0,0
115952.2,90.9986,-984.921,0,0
116212.525,90.0457,-982.522,0,0
116472.85,89.166,-979.989,0,0
116733.175,88.476,-977.595,0,0
116993.5,87.5233,-975.288,0,0
117253.825,86.3906,-972.701,0,0
117514.15,85.3195,-969.792,0,0
117774.475,84.492,-966.809,0,0
118034.8,83.7192,-963.709,0,0
118295.125,83.1926,-960.62,0,0
118555.45,82.7323,-957.509,0,0
118815.775,82.2657,-954.572,0,0
119076.1,81.8545,-951.448,0,0
119336.425,81.5688,-948.256,0,0
119596.75,81.4967,-945.175,0,0
119857.075,81.4695,-942.118,0,0
120117.4,81.638,-939.228,0,0
120377.725,81.641,-936.57,0,0
120638.05,81.5651,-933.845,0,0
120898.375,81.6585,-931.22,0,0
121158.7,81.6229,-928.878,0,0
121419.025,81.2643,-926.516,0,0
121679.35,80.7548,-923.968,0,0
121939.675,80.2341,-921.207,0,0
122200.0,79.7543,-918.347,0,0
122460,79.3786,-915.354,0,0
122721,79.0561,-912.325,0,0
122981,78.9145,-909.284,0,0
123241,78.8114,-906.299,0,0
123502,78.6638,-903.301,0,0
123762,78.687,-900.262,0,0
124022,78.7129,-897.28,0,0
124283,78.8002,-894.385,0,0
124543,78.8266,-891.46,0,0
124803,78.8427,-888.583,0,0
125064,78.8481,-885.683,0,0
125324,78.9181,-882.723,0,0
125584,79.0579,-879.681,0,0
125845,79.281,-876.755,0,0
126105,79.5214,-873.971,0,0
126365,79.6108,-871.05,0,0
126626,79.8972,-868.085,0,0
126886,80.113,-865.215,0,0
127146,80.3501,-862.267,0,0
127406,80.6271,-859.375,0,0
127667,80.9556,-856.483,0,0
127927,81.2789,-853.584,0,0
128187,81.6783,-850.525,0,0
128448,82.1745,-847.584,0,0
128708,82.8049,-844.653,0,0
128968,83.454,-841.922,0,0
129229,83.9788,-839.236,0,0
129489,84.49,-836.383,0,0
129749,85.0704,-833.476,0,0
130010,85.8664,-830.474,0,0
130270,86.8572,-827.739,0,0
130530,87.8392,-825.182,0,0
130791,88.725,-822.752,0,0
131051,89.6388,-820.339,0,0
131311,90.5496,-817.933,0,0
131572,91.4759,-815.708,0,0
131832,92.2785,-813.503,0,0
132092,93.1288,-811.359,0,0
132353,93.8602,-809.336,0,0
132613,94.4477,-807.319,0,0
132873,94.978,-805.165,0,0
133134,95.5985,-802.99,0,0
133394,96.1783,-800.822,0,0
133654,96.7424,-798.663,0,0
133915,97.3068,-796.511,0,0
134175,97.8128,-794.213,0,0
134435,98.5895,-791.956,0,0
134696,99.3094,-789.829,0,0
134956,99.9179,-787.853,0,0
135216,100.588,-785.728,0,0
135477,101.161,-783.628,0,0
135737,101.788,-781.479,0,0
135997,102.454,-779.329,0,0
136258,103.202,-777.122,0,0
136518,104.026,-774.963,0,0
136778,105.067,-772.835,0,0
137039,106.189,-771,0,0
137299,107.297,-769.178,0,0
137559,108.449,-767.726,0,0
137819,109.514,-766.639,0,0
138080,110.043,-765.715,0,0
138340.125,110.252,-764.541,0,0
138600.45,110.527,-763.26,0,0
138860.775,110.641,-762.058,0,0
139121.1,110.43,-760.713,0,0
139381.425,110.222,-759.157,0,0
139641.75,110.033,-757.446,0,0
139902.075,109.872,-755.609,0,0
140162.4,109.811,-753.626,0,0
140422.725,109.812,-751.672,0,0
140683.05,109.826,-749.749,0,0
140943.375,109.794,-747.851,0,0
141203.7,109.725,-745.788,0,0
141464.025,109.777,-743.696,0,0
141724.35,109.818,-741.667,0,0
141984.675,109.755,-739.587,0,0
142245.0,109.744,-737.285,0,0
142505.325,109.93,-734.99,0,0
142765.65,110.184,-732.86,0,0
143025.975,110.256,-730.712,0,0
143286.3,110.329,-728.349,0,0
143546.625,110.582,-725.854,0,0
143806.95,111.084,-723.476,0,0
144067.275,111.62,-721.27,0,0
144327.6,112.056,-719.187,0,0
144587.925,112.333,-716.988,0,0
144848.25,112.7,-714.618,0,0
145108.575,113.246,-712.108,0,0
145368.9,114.159,-709.836,0,0
145629.225,115.052,-707.865,0,0
145889.55,115.674,-705.967,0,0
146149.875,116.287,-704.006,0,0
146410.2,117.04,-702.069,0,0
146670.525,117.772,-700.241,0,0
146930.85,118.583,-698.548,0,0
147191.175,119.177,-697.216,0,0
147451.5,119.283,-695.858,0,0
147711.825,119.252,-694.107,0,0
147972.15,119.313,-692.184,0,0
148232.475,119.34,-690.182,0,0
148492.8,119.571,-687.934,0,0
148753.125,119.965,-685.909,0,0
149013.45,120.257,-683.905,0,0
149273.775,120.661,-681.762,0,0
149534.1,121.22,-679.801,0,0
149794.425,121.745,-678.097,0,0
150054.75,121.923,-676.483,0,0
150315.075,121.952,-674.662,0,0
150575.4,121.979,-672.789,0,0
150835.725,121.922,-670.907,0,0
151096.05,121.625,-668.924,0,0
151356.375,121.319,-666.644,0,0
151616.7,121.123,-664.163,0,0
151877.025,120.998,-661.688,0,0
152137.35,120.821,-659.077,0,0
152397.675,120.657,-656.316,0,0
152658.0,120.561,-653.417,0,0
152918.325,120.534,-650.232,0,0
153178.65,120.846,-646.924,0,0
153438.975,121.331,-643.583,0,0
153699.3,122.033,-640.282,0,0
153959.625,122.857,-637.106,0,0
154219.95,123.683,-633.941,0,0
154480,124.509,-630.711,0,0
154741,125.567,-627.304,0,0
155001,126.76,-623.937,0,0
155261,128.084,-620.655,0,0
155522,129.521,-617.223,0,0
155782,131.253,-613.872,0,0
156042,133.032,-610.547,0,0
156303,135.085,-607.133,0,0
156563,137.468,-603.855,0,0
156823,140.17,-600.78,0,0
157084,143.11,-598.112,0,0
157344,146.144,-595.906,0,0
157604,148.901,-594.189,0,0
157864,151.42,-592.732,0,0
158125,153.386,-591.229,0,0
158385,155.269,-589.429,0,0
158645,157.209,-587.69,0,0
158906,158.808,-585.906,0,0
159166,160.112,-583.676,0,0
159426,161.759,-580.729,0,0
159687,164.067,-577.622,0,0
159947,166.872,-574.593,0,0
160207,170.259,-571.602,0,0
160468,174.104,-569.253,0,0
160728,178.008,-567.231,0,0
160988,182.252,-565.472,0,0
161249,186.764,-564.4,0,0
161509,191.146,-564.075,0,0
161769,195.114,-564.26,0,0
162030,198.733,-564.749,0,0
162290,201.879,-565.577,0,0
162550,204.429,-566.318,0,0
162811,206.708,-566.839,0,0
163071,208.747,-567.258,0,0
163331,210.647,-567.406,0,0
163592,212.538,-567.314,0,0
163852,214.516,-566.831,0,0
164112,217.026,-566.153,0,0
164373,220.156,-565.795,0,0
164633,223.482,-566.144,0,0
164893,226.375,-566.932,0,0
165154,229.075,-567.612,0,0
165414,232.063,-568.582,0,0
165674,234.835,-570.052,0,0
165935,237.36,-571.687,0,0
166195,239.718,-573.51,0,0
166455,241.733,-575.683,0,0
166716,243.226,-577.771,0,0
166976,244.687,-579.7,0,0
167236,246.175,-581.761,0,0
167497,247.594,-584.138,0,0
167757,248.564,-586.957,0,0
168017,248.867,-589.827,0,0
168277,248.678,-592.484,0,0
168538,248.167,-594.911,0,0
168798,247.334,-597.147,0,0
169058,246.392,-599.097,0,0
169319,245.313,-601.081,0,0
169579,243.68,-603.06,0,0
169839,241.424,-604.511,0,0
170100,239.156,-605.158,0,0
170360.075,237.126,-605.249,0,0
170620.4,235.306,-605.105,0,0
170880.725,233.729,-604.821,0,0
171141.05,232.183,-604.5,0,0
171401.375,230.549,-603.888,0,0
171661.7,229.306,-602.81,0,0
171922.025,228.476,-601.907,0,0
172182.35,227.604,-601.124,0,0
172442.675,226.775,-600.143,0,0
172703.0,226.261,-599.155,0,0
172963.325,225.879,-598.339,0,0
173223.65,225.5,-597.665,0,0
173483.975,225.017,-597.118,0,0
173744.3,224.364,-596.428,0,0
174004.625,223.81,-595.633,0,0
174264.95,223.326,-594.73,0,0
174525.275,222.936,-593.888,0,0
174785.6,222.651,-592.992,0,0
175045.925,222.399,-592.214,0,0
175306.25,222.149,-591.444,0,0
175566.575,221.982,-590.75,0,0
175826.9,221.903,-590.205,0,0
176087.225,221.607,-589.746,0,0
176347.55,221.293,-589.273,0,0
176607.875,220.782,-588.984,0,0
176868.2,219.972,-588.456,0,0
177128.525,219.265,-587.548,0,0
177388.85,218.835,-586.616,0,0
177649.175,218.622,-585.702,0,0
177909.5,218.611,-585.043,0,0
178169.825,218.518,-584.779,0,0
178430.15,218.068,-584.66,0,0
178690.475,217.422,-584.459,0,0
178950.8,216.752,-584.315,0,0
179211.125,215.809,-584.33,0,0
179471.45,214.557,-584.21,0,0
179731.775,213.158,-583.916,0,0
179992.1,211.545,-583.636,0,0
180252.425,209.446,-583.091,0,0
180512.75,207.112,-581.938,0,0
180773.075,205.163,-580.288,0,0
181033.4,203.405,-578.581,0,0
181293.725,201.746,-576.715,0,0
181554.05,200.324,-574.736,0,0
181814.375,199.018,-572.855,0,0
182074.7,197.502,-570.988,0,0
182335.025,195.897,-568.799,0,0
182595.35,194.589,-566.301,0,0
182855.675,193.516,-563.931,0,0
183116.0,192.333,-561.59,0,0
183376.325,191.103,-559.095,0,0
183636.65,189.928,-556.357,0,0
183896.975,188.928,-553.42,0,0
184157.3,188.176,-550.399,0,0
184417.625,187.585,-547.436,0,0
184677.95,187.013,-544.448,0,0
184938.275,186.536,-541.374,0,0
185198.6,186.277,-538.165,0,0
185458.925,186.279,-535.02,0,0
185719.25,186.322,-532.022,0,0
185979.575,186.413,-528.989,0,0
186239.9,186.616,-525.985,0,0
186500,186.813,-523.167,0,0
186761,187.003,-520.258,0,0
187021,187.044,-517.248,0,0
187281,187.196,-514.022,0,0
187542,187.716,-510.647,0,0
187802,188.658,-507.354,0,0
188062,189.685,-504.487,0,0
188322,190.666,-501.897,0,0
188583,191.313,-499.313,0,0
188843,191.968,-496.606,0,0
189103,192.669,-493.72,0,0
189364,193.522,-491.052,0,0
189624,194.223,-488.485,0,0
189884,194.596,-485.807,0,0
190145,195.057,-482.913,0,0
190405,195.59,-479.892,0,0
190665,196.256,-476.712,0,0
190926,196.885,-473.39,0,0
191186,197.862,-469.98,0,0
191446,198.879,-466.591,0,0
191707,200.024,-463.162,0,0
191967,201.262,-459.772,0,0
192227,202.566,-456.363,0,0
192488,203.959,-452.887,0,0
192748,205.473,-449.413,0,0
193008,207.046,-445.784,0,0
193269,208.841,-442.206,0,0
193529,210.859,-438.589,0,0
193789,212.954,-435.052,0,0
194050,215.186,-431.682,0,0
194310,217.44,-428.307,0,0
194570,219.704,-425.087,0,0
194831,221.855,-421.774,0,0
195091,224.248,-418.269,0,0
195351,226.912,-414.738,0,0
195612,229.744,-411.299,0,0
195872,232.635,-408.038,0,0
196132,235.441,-404.783,0,0
196393,238.491,-401.429,0,0
196653,241.764,-398.199,0,0
196913,245.086,-395.166,0,0
197174,248.371,-392.124,0,0
197434,251.692,-389.109,0,0
197694,255.125,-386.145,0,0
197955,258.647,-383.149,0,0
198215,262.204,-380.297,0,0
198475,265.828,-377.41,0,0
198735,269.55,-374.57,0,0
198996,273.21,-371.887,0,0
199256,276.76,-368.912,0,0
199516,280.402,-365.879,0,0
199777,284.32,-362.502,0,0
200037,288.587,-359.088,0,0
200297,293.164,-355.864,0,0
200558,297.991,-352.773,0,0
200818,302.765,-349.848,0,0
201078,307.495,-346.821,0,0
201339,312.335,-343.481,0,0
201599,317.697,-339.86,0,0
201859,323.569,-336.363,0,0
202120,329.822,-332.805,0,0
202380.025,336.643,-329.316,0,0
202640.35,344.05,-326.2,0,0
202900.675,351.866,-323.517,0,0
203161.0,360.023,-321.073,0,0
203421.325,368.461,-319.015,0,0
203681.65,377.473,-317.201,0,0
203941.975,387.027,-315.974,0,0
204202.3,397.022,-315.417,0,0
204462.625,407.327,-315.646,0,0
204722.95,417.817,-316.862,0,0
204983.275,428.139,-318.978,0,0
205243.6,438.468,-321.874,0,0
205503.925,448.368,-325.639,0,0
205764.25,457.877,-330.199,0,0
206024.575,466.961,-335.33,0,0
206284.9,475.702,-340.773,0,0
206545.225,484.087,-347.016,0,0
206805.55,491.633,-354.032,0,0
207065.875,498.255,-361.351,0,0
207326.2,504.161,-368.401,0,0
207586.525,509.77,-375.439,0,0
207846.85,515.121,-382.713,0,0
208107.175,520.047,-390.261,0,0
208367.5,524.436,-398.115,0,0
208627.825,528.195,-406.163,0,0
208888.15,531.323,-414.299,0,0
209148.475,533.706,-422.526,0,0
209408.8,535.631,-430.535,0,0
209669.125,537.129,-438.829,0,0
209929.45,537.401,-447.288,0,0
210189.775,536.382,-455.432,0,0
210450.1,534.333,-462.688,0,0
210710.425,531.49,-468.56,0,0
210970.75,528.673,-473.157,0,0
211231.075,526.137,-476.925,0,0
211491.4,523.598,-480.062,0,0
211751.725,521.097,-482.186,0,0
212012.05,519.223,-483.31,0,0
212272.375,518.005,-483.719,0,0
212532.7,517.964,-483.526,0,0
212793.025,519.169,-483.389,0,0
213053.35,521.197,-483.89,0,0
213313.675,523.719,-485.072,0,0
213574.0,526.326,-486.824,0,0
213834.325,528.882,-489.142,0,0
214094.65,531.514,-491.525,0,0
214354.975,533.565,-494.543,0,0
214615.3,535.938,-497.501,0,0
214875.625,538.222,-500.63,0,0
215135.95,539.967,-503.748,0,0
215396.275,541.646,-506.589,0,0
215656.6,543.534,-509.443,0,0
215916.925,545.568,-512.463,0,0
216177.25,547.516,-515.383,0,0
216437.575,549.631,-518.313,0,0
216697.9,551.794,-521.531,0,0
216958.225,553.841,-524.808,0,0
217218.55,555.917,-528.024,0,0
217478.875,558.068,-531.451,0,0
217739.2,560.026,-535.012,0,0
217999.525,561.704,-538.52,0,0
218259.85,563.363,-541.737,0,0
218520,565.235,-544.556,0,0
218780,567.479,-547.292,0,0
219041,570.264,-550.045,0,0
219301,573.458,-553.203,0,0
219561,576.934,-556.667,0,0
219822,580.65,-560.682,0,0
220082,584.133,-564.861,0,0
220342,587.926,-569.45,0,0
220603,591.89,-574.544,0,0
220863,595.638,-580.09,0,0
221123,599.58,-585.959,0,0
221384,603.59,-592.565,0,0
221644,607.253,-599.838,0,0
221904,610.506,-607.656,0,0
222165,613.4,-615.824,0,0
222425,615.811,-624.479,0,0
222685,617.845,-633.462,0,0
222946,619.401,-642.788,0,0
223206,620.384,-652.494,0,0
223466,620.618,-662.499,0,0
223727,620.152,-672.727,0,0
223987,618.772,-682.724,0,0
224247,617.052,-692.463,0,0
224508,614.578,-702.069,0,0
224768,611.951,-711.466,0,0
225028,608.83,-720.559,0,0
225289,605.372,-729.453,0,0
225549,601.897,-738.275,0,0
225809,598.398,-747.32,0,0
226070,594.368,-756.34,0,0
226330,589.54,-765.867,0,0
226590,583.917,-774.957,0,0
226851,577.652,-783.525,0,0
227111,570.85,-791.654,0,0
227371,563.944,-799.258,0,0
227632,556.87,-806.617,0,0
227892,549.396,-813.761,0,0
228152,541.31,-820.669,0,0
228413,532.65,-827.062,0,0
228673,523.672,-832.83,0,0
228933,514.569,-837.869,0,0
229193,505.164,-842.225,0,0
229454,495.671,-845.975,0,0
229714,486.275,-848.881,0,0
229974,477.119,-851.296,0,0
230235,468.077,-852.916,0,0
230495,459.342,-854.309,0,0
230755,450.856,-855.435,0,0
231016,442.562,-856.007,0,0
231276,434.534,-856.277,0,0
231536,426.772,-856.216,0,0
231797,419.319,-855.936,0,0
232057,412.095,-855.418,0,0
232317,405.096,-854.741,0,0
232578,398.329,-853.8,0,0
232838,391.791,-852.738,0,0
233098,385.737,-851.397,0,0
233359,379.919,-850.005,0,0
233619,374.511,-848.542,0,0
233879,369.28,-847.178,0,0
234140,364.577,-845.76,0,0
234400,359.963,-844.569,0,0
234660.3,355.598,-843.604,0,0
234920.625,351.44,-842.972,0,0
235180.95,346.965,-842.581,0,0
235441.275,342.196,-842.1,0,0
235701.6,337.366,-841.644,0,0
235961.925,332.533,-841.014,0,0
236222.25,327.631,-840.161,0,0
236482.575,322.878,-839.29,0,0
236742.9,318.151,-838.309,0,0
237003.225,313.434,-837.274,0,0
237263.55,308.589,-836.224,0,0
237523.875,303.898,-835.06,0,0
237784.2,299.144,-833.662,0,0
238044.525,294.486,-832.234,0,0
238304.85,289.848,-830.65,0,0
238565.175,285.174,-829.002,0,0
238825.5,280.807,-826.959,0,0
239085.825,276.568,-825.034,0,0
239346.15,272.39,-822.977,0,0
239606.475,268.389,-820.884,0,0
239866.8,264.51,-818.658,0,0
240127.125,260.679,-816.617,0,0
240387.45,256.845,-814.279,0,0
240647.775,253.289,-812.07,0,0
240908.1,249.819,-809.89,0,0
241168.425,246.314,-807.67,0,0
241428.75,242.982,-805.082,0,0
241689.075,239.707,-802.994,0,0
241949.4,236.553,-800.539,0,0
242209.725,233.404,-798.19,0,0
242470.05,230.315,-795.715,0,0
242730.375,227.35,-793.181,0,0
242990.7,224.626,-790.662,0,0
243251.025,222.122,-788.078,0,0
243511.35,219.69,-785.602,0,0
243771.675,217.338,-783.421,0,0
244032.0,214.978,-781.196,0,0
244292.325,212.546,-779.051,0,0
244552.65,210.324,-776.911,0,0
244812.975,208.045,-774.881,0,0
245073.3,205.63,-772.871,0,0
245333.625,203.257,-770.776,0,0
245593.95,200.803,-768.61,0,0
245854.275,198.403,-766.508,0,0
246114.6,196.051,-764.426,0,0
246374.925,193.653,-762.226,0,0
246635.25,191.208,-760.056,0,0
246895.575,188.817,-757.684,0,0
247155.9,186.473,-755.129,0,0
247416.225,184.315,-752.62,0,0
247676.55,182.257,-750.075,0,0
247936.875,180.331,-747.57,0,0
248197.2,178.46,-745.003,0,0
248457.525,176.581,-742.526,0,0
248717.85,174.815,-740.052,0,0
248978.175,173.062,-737.534,0,0
249238.5,171.318,-735.057,0,0
249498.825,169.576,-732.427,0,0
249759.15,167.994,-729.895,0,0
250019.475,166.459,-727.316,0,0
250279.8,165.011,-724.683,0,0
250540,163.847,-722.212,0,0
250800,162.56,-719.677,0,0
251061,161.417,-717.188,0,0
251321,160.285,-714.8,0,0
251581,159.15,-712.508,0,0
251842,157.954,-710.264,0,0
252102,156.695,-707.956,0,0
252362,155.462,-705.619,0,0
252623,154.218,-703.211,0,0
252883,153.01,-700.751,0,0
253143,151.864,-698.268,0,0
253404,150.772,-695.667,0,0
253664,149.776,-693.044,0,0
253924,148.908,-690.393,0,0
254185,148.206,-687.764,0,0
254445,147.596,-685.121,0,0
254705,147.076,-682.622,0,0
254966,146.632,-680.02,0,0
255226,146.259,-677.761,0,0
255486,145.828,-675.461,0,0
255747,145.459,-673.175,0,0
256007,145.051,-670.994,0,0
256267,144.647,-668.787,0,0
256528,144.233,-666.525,0,0
256788,143.862,-664.26,0,0
257048,143.53,-661.951,0,0
257309,143.264,-659.723,0,0
257569,142.988,-657.448,0,0
257829,142.713,-655.16,0,0
258090,142.559,-652.832,0,0
258350,142.453,-650.43,0,0
258610,142.435,-648.053,0,0
258871,142.543,-645.675,0,0
259131,142.78,-643.3,0,0
259391,143.069,-640.946,0,0
259651,143.532,-638.541,0,0
259912,144.173,-636.301,0,0
260172,144.836,-634.148,0,0
260432,145.52,-632.182,0,0
260693,146.359,-630.29,0,0
260953,147.207,-628.538,0,0
261213,148.041,-626.809,0,0
261474,148.898,-625.279,0,0
261734,149.794,-623.694,0,0
261994,150.68,-622.225,0,0
262255,151.569,-620.811,0,0
262515,152.507,-619.485,0,0
262775,153.467,-618.218,0,0
263036,154.391,-617.02,0,0
263296,155.401,-615.882,0,0
263556,156.356,-614.799,0,0
263817,157.358,-613.776,0,0
264077,158.417,-612.754,0,0
264337,159.546,-611.803,0,0
264598,160.694,-610.975,0,0
264858,161.945,-610.195,0,0
265118,163.296,-609.629,0,0
265379,164.681,-609.185,0,0
265639,166.106,-608.976,0,0
265899,167.486,-608.967,0,0
266160,168.877,-609.14,0,0
266420,170.211,-609.593,0,0
266680.25,171.403,-610.274,0,0
266940.575,172.481,-611.216,0,0
267200.9,173.328,-612.375,0,0
267461.225,173.925,-613.696,0,0
267721.55,174.239,-615.205,0,0
267981.875,174.201,-616.762,0,0
268242.2,173.826,-618.397,0,0
268502.525,173.117,-619.989,0,0
268762.85,172.022,-621.492,0,0
269023.175,170.66,-622.793,0,0
269283.5,168.998,-623.932,0,0
269543.825,167.155,-624.672,0,0
269804.15,165.215,-625.377,0,0
270064.475,163.123,-625.7,0,0
270324.8,160.834,-625.809,0,0
270585.125,158.583,-625.708,0,0
270845.45,156.254,-625.216,0,0
271105.775,153.905,-624.446,0,0
271366.1,151.713,-623.346,0,0
271626.425,149.687,-622.086,0,0
271886.75,147.79,-620.58,0,0
272147.075,146.116,-618.914,0,0
272407.4,144.624,-617.168,0,0
272667.725,143.386,-615.35,0,0
272928.05,142.273,-613.492,0,0
273188.375,141.345,-611.621,0,0
273448.7,140.609,-609.8,0,0
273709.025,139.987,-608.015,0,0
273969.35,139.434,-606.289,0,0
274229.675,138.975,-604.64,0,0
274490.0,138.579,-602.985,0,0
274750.325,138.182,-601.311,0,0
275010.65,137.957,-599.715,0,0
275270.975,137.694,-598.03,0,0
275531.3,137.635,-596.462,0,0
275791.625,137.6,-594.872,0,0
276051.95,137.678,-593.34,0,0
276312.275,137.833,-591.886,0,0
276572.6,138.068,-590.495,0,0
276832.925,138.348,-589.2,0,0
277093.25,138.673,-588.002,0,0
277353.575,139.031,-586.881,0,0
277613.9,139.449,-585.848,0,0
277874.225,139.886,-584.939,0,0
278134.55,140.223,-584.153,0,0
278394.875,140.589,-583.457,0,0
278655.2,140.872,-582.882,0,0
278915.525,141.066,-582.332,0,0
279175.85,141.146,-581.825,0,0
279436.175,141.159,-581.284,0,0
279696.5,141.114,-580.712,0,0
279956.825,140.979,-580.189,0,0
280217.15,140.881,-579.581,0,0
280477.475,140.722,-578.941,0,0
280737.8,140.659,-578.193,0,0
280998.125,140.608,-577.525,0,0
281258.45,140.693,-576.876,0,0
281518.775,140.773,-576.33,0,0
281779.1,140.8,-575.894,0,0
282039.425,140.738,-575.58,0,0
282299.75,140.512,-575.275,0,0
282560,140.124,-574.907,0,0
282820,139.671,-574.487,0,0
283081,139.174,-573.873,0,0
283341,138.7,-573.3,0,0
283601,138.353,-572.519,0,0
283862,137.984,-571.747,0,0
284122,137.756,-570.937,0,0
284382,137.53,-570.17,0,0
284643,137.271,-569.576,0,0
284903,137.143,-568.901,0,0
285163,136.831,-568.247,0,0
285424,136.572,-567.785,0,0
285684,136.167,-567.229,0,0
285944,135.71,-566.756,0,0
286205,135.054,-566.205,0,0
286465,134.318,-565.564,0,0
286725,133.523,-564.768,0,0
286986,132.66,-563.819,0,0
287246,131.932,-562.666,0,0
287506,131.134,-561.356,0,0
287767,130.48,-559.893,0,0
288027,130.047,-558.259,0,0
288287,129.688,-556.62,0,0
288548,129.677,-554.955,0,0
288808,129.735,-553.274,0,0
289068,130.025,-551.669,0,0
289329,130.463,-550.07,0,0
289589,131.014,-548.699,0,0
289849,131.705,-547.535,0,0
290109,132.466,-546.512,0,0
290370,133.249,-545.649,0,0
290630,133.906,-544.994,0,0
290890,134.426,-544.519,0,0
291151,134.746,-544.129,0,0
291411,134.966,-543.583,0,0
291671,135.128,-543.179,0,0
291932,135.273,-542.646,0,0
292192,135.353,-542.124,0,0
292452,135.278,-541.56,0,0
292713,135.25,-540.959,0,0
292973,135.129,-540.191,0,0
293233,135.046,-539.362,0,0
293494,134.868,-538.592,0,0
293754,134.879,-537.743,0,0
294014,134.726,-536.836,0,0
294275,134.677,-535.829,0,0
294535,134.613,-534.78,0,0
294795,134.671,-533.654,0,0
295056,134.827,-532.423,0,0
295316,134.998,-531.236,0,0
295576,135.142,-529.989,0,0
295837,135.641,-528.634,0,0
296097,136.071,-527.388,0,0
296357,136.677,-526.058,0,0
296618,137.438,-524.846,0,0
296878,138.222,-523.747,0,0
297138,139.129,-522.668,0,0
297399,140.048,-521.792,0,0
297659,140.981,-520.868,0,0
297919,141.93,-520.05,0,0
298180,142.941,-519.238,0,0
298440,143.935,-518.558,0,0
298700.2,144.917,-518.073,0,0
298960.525,145.874,-517.402,0,0
299220.85,146.884,-516.894,0,0
299481.175,147.801,-516.409,0,0
299741.5,148.77,-515.837,0,0
300001.825,149.802,-515.292,0,0
300262.15,150.919,-514.786,0,0
300522.475,152.027,-514.379,0,0
300782.8,153.228,-513.936,0,0
301043.125,154.445,-513.559,0,0
301303.45,155.842,-513.389,0,0
301563.775,157.273,-513.144,0,0
301824.1,158.757,-513.277,0,0
302084.425,160.144,-513.437,0,0
302344.75,161.412,-513.81,0,0
302605.075,162.703,-514.346,0,0
302865.4,163.793,-514.889,0,0
303125.725,164.755,-515.411,0,0
303386.05,165.633,-515.875,0,0
303646.375,166.588,-516.354,0,0
303906.7,167.518,-516.809,0,0
304167.025,168.545,-517.497,0,0
304427.35,169.449,-518.199,0,0
304687.675,170.26,-518.953,0,0
304948.0,171.05,-519.74,0,0
305208.325,171.839,-520.521,0,0
305468.65,172.56,-521.34,0,0
305728.975,173.351,-522.115,0,0
305989.3,174.119,-522.976,0,0
306249.625,174.896,-523.908,0,0
306509.95,175.669,-524.983,0,0
306770.275,176.386,-526.177,0,0
307030.6,177.003,-527.538,0,0
307290.925,177.521,-528.937,0,0
307551.25,177.881,-530.425,0,0
307811.575,178.097,-532.087,0,0
308071.9,178.016,-533.532,0,0
308332.225,178.065,-535.085,0,0
308592.55,177.831,-536.565,0,0
308852.875,177.454,-537.992,0,0
309113.2,177.117,-539.339,0,0
309373.525,176.647,-540.655,0,0
309633.85,176.16,-541.83,0,0
309894.175,175.614,-543.116,0,0
310154.5,175.11,-544.298,0,0
310414.825,174.594,-545.571,0,0
310675.15,174.017,-546.824,0,0
310935.475,173.172,-548.083,0,0
311195.8,172.376,-549.336,0,0
311456.125,171.374,-550.566,0,0
311716.45,170.387,-551.669,0,0
311976.775,169.221,-552.676,0,0
312237.1,168.151,-553.691,0,0
312497.425,167.085,-554.584,0,0
312757.75,165.841,-555.487,0,0
313018.075,164.589,-556.26,0,0
313278.4,163.325,-557.013,0,0
313538.725,162.127,-557.552,0,0
313799.05,160.776,-558.085,0,0
314059.375,159.657,-558.643,0,0
314319.7,158.54,-559.174,0,0
314580,157.374,-559.724,0,0
314840,156.195,-560.232,0,0
315101,154.92,-560.873,0,0
315361,153.65,-561.393,0,0
315621,152.299,-561.939,0,0
315882,151.019,-562.468,0,0
316142,149.536,-562.973,0,0
316402,148.043,-563.454,0,0
316663,146.397,-563.86,0,0
316923,144.802,-564.098,0,0
317183,143.199,-564.371,0,0
317444,141.565,-564.423,0,0
317704,139.912,-564.54,0,0
317964,138.213,-564.622,0,0
318225,136.592,-564.497,0,0
318485,134.899,-564.386,0,0
318745,133.156,-564.242,0,0
319006,131.471,-563.978,0,0
319266,129.814,-563.587,0,0
319526,128.089,-563.207,0,0
319787,126.558,-562.687,0,0
320047,124.99,-562.155,0,0
320307,123.327,-561.586,0,0
320567,121.82,-560.999,0,0
320828,120.252,-560.331,0,0
321088,118.75,-559.637,0,0
321348,117.178,-558.802,0,0
321609,115.723,-557.892,0,0
321869,114.299,-556.895,0,0
322129,112.966,-555.82,0,0
322390,111.58,-554.723,0,0
322650,110.384,-553.472,0,0
322910,109.243,-552.241,0,0
323171,108.288,-550.969,0,0
323431,107.374,-549.636,0,0
323691,106.669,-548.404,0,0
323952,106.002,-547.164,0,0
324212,105.417,-545.975,0,0
324472,104.834,-544.828,0,0
324733,104.404,-543.658,0,0
324993,103.946,-542.645,0,0
325253,103.585,-541.635,0,0
325514,103.253,-540.598,0,0
325774,102.983,-539.654,0,0
326034,102.757,-538.825,0,0
326295,102.585,-537.951,0,0
326555,102.448,-537.293,0,0
326815,102.186,-536.551,0,0
327076,101.985,-535.965,0,0
327336,101.806,-535.377,0,0
327596,101.582,-534.886,0,0
327857,101.285,-534.475,0,0
328117,100.992,-533.996,0,0
328377,100.713,-533.514,0,0
328638,100.286,-533.114,0,0
328898,99.9955,-532.717,0,0
329158,99.6121,-532.429,0,0
329419,99.1431,-532.035,0,0
329679,98.7069,-531.682,0,0
329939,98.2907,-531.321,0,0
330200,97.7809,-531.035,0,0
330460,97.3689,-530.641,0,0
330720.15,96.7613,-530.34,0,0
330980.475,96.1392,-530.046,0,0
331240.8,95.5735,-529.737,0,0
331501.125,95.0153,-529.422,0,0
331761.45,94.3549,-529.021,0,0
332021.775,93.7027,-528.616,0,0
332282.1,93.0611,-528.285,0,0
332542.425,92.3657,-527.931,0,0
332802.75,91.6248,-527.549,0,0
333063.075,90.9114,-527.098,0,0
333323.4,90.1455,-526.71,0,0
333583.725,89.4409,-526.235,0,0
333844.05,88.5785,-525.793,0,0
334104.375,87.7865,-525.29,0,0
334364.7,86.9543,-524.772,0,0
334625.025,86.1507,-524.151,0,0
334885.35,85.2979,-523.506,0,0
335145.675,84.4885,-522.916,0,0
335406.0,83.6656,-522.161,0,0
335666.325,82.8769,-521.474,0,0
335926.65,82.1753,-520.732,0,0
336186.975,81.3987,-519.985,0,0
336447.3,80.7414,-519.132,0,0
336707.625,80.1044,-518.354,0,0
336967.95,79.3926,-517.613,0,0
337228.275,78.7237,-516.787,0,0
337488.6,78.1829,-515.974,0,0
337748.925,77.5248,-515.184,0,0
338009.25,76.9042,-514.392,0,0
338269.575,76.2875,-513.484,0,0
338529.9,75.7514,-512.795,0,0
338790.225,75.2591,-511.904,0,0
339050.55,74.6729,-511.093,0,0
339310.875,74.1851,-510.243,0,0
339571.2,73.6257,-509.447,0,0
339831.525,73.1741,-508.512,0,0
340091.85,72.6864,-507.741,0,0
340352.175,72.2433,-506.873,0,0
340612.5,71.7113,-506.065,0,0
340872.825,71.3137,-505.318,0,0
341133.15,70.874,-504.497,0,0
341393.475,70.4266,-503.665,0,0
341653.8,69.9681,-502.909,0,0
341914.125,69.5487,-502.105,0,0
342174.45,69.1447,-501.313,0,0
342434.775,68.6967,-500.51,0,0
342695.1,68.2721,-499.73,0,0
342955.425,67.8273,-498.941,0,0
343215.75,67.4658,-498.179,0,0
343476.075,66.9878,-497.343,0,0
343736.4,66.5546,-496.545,0,0
343996.725,66.1902,-495.759,0,0
344257.05,65.7438,-494.976,0,0
344517.375,65.3305,-494.178,0,0
344777.7,64.9381,-493.348,0,0
345038.025,64.4559,-492.566,0,0
345298.35,64.0611,-491.673,0,0
345558.675,63.6288,-490.888,0,0
345819.0,63.1699,-490.028,0,0
346079.325,62.7773,-489.137,0,0
346339.65,62.359,-488.254,0,0
346599.975,61.9136,-487.356,0,0
346860,61.5721,-486.44,0,0
347121,61.1563,-485.518,0,0
347381,60.8912,-484.559,0,0
347641,60.5191,-483.62,0,0
347902,60.272,-482.642,0,0
348162,59.9962,-481.633,0,0
348422,59.7231,-480.755,0,0
348683,59.5248,-479.796,0,0
348943,59.3268,-478.797,0,0
349203,59.0684,-477.951,0,0
349464,58.9846,-476.977,0,0
349724,58.8148,-476.101,0,0
349984,58.6296,-475.176,0,0
350245,58.4784,-474.361,0,0
350505,58.3277,-473.443,0,0
350765,58.2337,-472.607,0,0
351025,58.0703,-471.722,0,0
351286,57.9246,-470.868,0,0
351546,57.8352,-469.973,0,0
351806,57.6888,-469.119,0,0
352067,57.6293,-468.274,0,0
352327,57.5631,-467.467,0,0
352587,57.4629,-466.639,0,0
352848,57.4266,-465.824,0,0
353108,57.3089,-464.965,0,0
353368,57.2214,-464.19,0,0
353629,57.1716,-463.435,0,0
353889,57.1097,-462.643,0,0
354149,56.9701,-461.817,0,0
354410,56.8695,-461.062,0,0
354670,56.7862,-460.265,0,0
354930,56.7438,-459.459,0,0
355191,56.6718,-458.673,0,0
355451,56.608,-457.812,0,0
355711,56.5272,-457.051,0,0
355972,56.5208,-456.334,0,0
356232,56.4453,-455.542,0,0
356492,56.4034,-454.757,0,0
356753,56.3758,-453.961,0,0
357013,56.3568,-453.197,0,0
357273,56.3243,-452.439,0,0
357534,56.3012,-451.667,0,0
357794,56.2492,-450.931,0,0
358054,56.1689,-450.18,0,0
358315,56.1557,-449.408,0,0
358575,56.1604,-448.589,0,0
358835,56.1168,-447.787,0,0
359096,56.0958,-447.016,0,0
359356,56.1221,-446.241,0,0
359616,56.171,-445.435,0,0
359877,56.1772,-444.659,0,0
360137,56.2584,-443.943,0,0
360397,56.3488,-443.174,0,0
360658,56.3872,-442.421,0,0
360918,56.465,-441.769,0,0
361178,56.4889,-441.047,0,0
361438,56.5406,-440.309,0,0
361699,56.5525,-439.713,0,0
361959,56.5789,-438.95,0,0
362219,56.6016,-438.234,0,0
362480,56.5845,-437.503,0,0
362740.1,56.6107,-436.799,0,0
363000.425,56.6312,-436.025,0,0
363260.75,56.6801,-435.271,0,0
363521.075,56.7529,-434.514,0,0
363781.4,56.806,-433.753,0,0
364041.725,56.844,-433.007,0,0
364302.05,57.0094,-432.223,0,0
364562.375,57.107,-431.509,0,0
364822.7,57.23,-430.757,0,0
365083.025,57.3567,-430.082,0,0
365343.35,57.5279,-429.362,0,0
365603.675,57.631,-428.664,0,0
365864.0,57.7883,-427.965,0,0
366124.325,57.8984,-427.329,0,0
366384.65,57.9432,-426.659,0,0
366644.975,58.0351,-425.992,0,0
366905.3,58.0546,-425.303,0,0
367165.625,58.0907,-424.594,0,0
367425.95,58.1512,-423.889,0,0
367686.275,58.1811,-423.055,0,0
367946.6,58.2444,-422.25,0,0
368206.925,58.3595,-421.393,0,0
368467.25,58.5048,-420.536,0,0
368727.575,58.6641,-419.611,0,0
368987.9,58.9367,-418.742,0,0
369248.225,59.1559,-417.9,0,0
369508.55,59.4739,-417.027,0,0
369768.875,59.7774,-416.186,0,0
370029.2,60.1414,-415.344,0,0
370289.525,60.5184,-414.51,0,0
370549.85,60.9623,-413.659,0,0
370810.175,61.3956,-412.867,0,0
371070.5,61.9185,-412.084,0,0
371330.825,62.4472,-411.271,0,0
371591.15,63.0342,-410.544,0,0
371851.475,63.6204,-409.855,0,0
372111.8,64.3159,-409.21,0,0
372372.125,64.9001,-408.601,0,0
372632.45,65.6076,-408.079,0,0
372892.775,66.2418,-407.59,0,0
373153.1,66.9539,-407.149,0,0
373413.425,67.6291,-406.721,0,0
373673.75,68.2009,-406.404,0,0
373934.075,68.8422,-406.054,0,0
374194.4,69.4886,-405.724,0,0
374454.725,70.0425,-405.478,0,0
374715.05,70.6233,-405.258,0,0
374975.375,71.2359,-404.994,0,0
375235.7,71.752,-404.843,0,0
375496.025,72.2363,-404.624,0,0
375756.35,72.788,-404.443,0,0
376016.675,73.2996,-404.259,0,0
376277.0,73.7642,-404.088,0,0
376537.325,74.2856,-404.018,0,0
376797.65,74.791,-403.872,0,0
377057.975,75.2694,-403.822,0,0
377318.3,75.7318,-403.786,0,0
377578.625,76.1934,-403.782,0,0
377838.95,76.5847,-403.817,0,0
378099.275,76.968,-403.826,0,0
378359.6,77.3569,-403.872,0,0
378619.925,77.6502,-403.922,0,0
378880,77.921,-403.938,0,0
379141,78.1632,-403.982,0,0
379401,78.3688,-403.935,0,0
379661,78.6168,-403.945,0,0
379922,78.8341,-403.856,0,0
380182,79.019,-403.821,0,0
380442,79.3346,-403.666,0,0
380703,79.6912,-403.582,0,0
380963,80.1118,-403.556,0,0
381223,80.5599,-403.596,0,0
381483,80.9828,-403.668,0,0
381744,81.4202,-403.822,0,0
382004,81.7969,-404.087,0,0
382264,82.146,-404.378,0,0
382525,82.5045,-404.767,0,0
382785,82.7134,-405.198,0,0
383045,82.8566,-405.653,0,0
383306,82.9711,-406.155,0,0
383566,82.9926,-406.655,0,0
383826,82.8659,-407.139,0,0
384087,82.6381,-407.646,0,0
384347,82.4223,-408.081,0,0
384607,82.1294,-408.44,0,0
384868,81.787,-408.764,0,0
385128,81.4262,-409.021,0,0
385388,81.0457,-409.364,0,0
385649,80.6405,-409.548,0,0
385909,80.1591,-409.751,0,0
386169,79.7172,-409.864,0,0
386430,79.1858,-410.024,0,0
386690,78.728,-410.123,0,0
386950,78.1802,-410.119,0,0
387211,77.5877,-410.162,0,0
387471,77.0526,-410.102,0,0
387731,76.4785,-410.071,0,0
387992,75.8809,-409.929,0,0
388252,75.3342,-409.684,0,0
388512,74.7696,-409.46,0,0
388773,74.3136,-409.172,0,0
389033,73.8025,-408.852,0,0
389293,73.3867,-408.543,0,0
389554,72.9711,-408.214,0,0
389814,72.6543,-407.87,0,0
390074,72.2435,-407.527,0,0
390335,71.9501,-407.246,0,0
390595,71.644,-406.947,0,0
390855,71.345,-406.666,0,0
391116,71.0071,-406.475,0,0
391376,70.714,-406.204,0,0
391636,70.3633,-405.914,0,0
391896,70.0173,-405.739,0,0
392157,69.6169,-405.493,0,0
392417,69.1836,-405.254,0,0
392677,68.7667,-405.009,0,0
392938,68.3435,-404.688,0,0
393198,67.8328,-404.422,0,0
393458,67.3783,-404.089,0,0
393719,66.9034,-403.778,0,0
393979,66.3587,-403.375,0,0
394239,65.8891,-402.959,0,0
394500,65.3839,-402.521,0,0
394760.05,64.9172,-402.088,0,0
395020.375,64.453,-401.597,0,0
395280.7,63.9792,-401.079,0,0
395541.025,63.4948,-400.551,0,0
395801.35,63.0799,-399.983,0,0
396061.675,62.6181,-399.428,0,0
396322.0,62.2113,-398.81,0,0
396582.325,61.7775,-398.221,0,0
396842.65,61.3803,-397.553,0,0
397102.975,61.0319,-396.851,0,0
397363.3,60.6815,-396.173,0,0
397623.625,60.3845,-395.454,0,0
397883.95,60.0631,-394.783,0,0
398144.275,59.8312,-394.043,0,0
398404.6,59.5511,-393.277,0,0
398664.925,59.3535,-392.576,0,0
398925.25,59.2258,-391.849,0,0
399185.575,59.0277,-391.127,0,0
399445.9,58.8844,-390.432,0,0
399706.225,58.7724,-389.748,0,0
399966.55,58.6706,-389.027,0,0
400006.6,58.6583,-388.938,0,0