File: Accelerated corrosion test data/2025-10-22_06-00-04/sample_4.csv
Frequency (Hz),Impedance (ohms),Phase (Radians),Temperature (C),Humidity (%)
10000.0,262.921,-11933.1,0,0
10260.325,260.465,-11634.2,0,0
10520.65,249.926,-11348.1,0,0
10780.975,244.317,-11075.5,0,0
11041.3,239.592,-10815.9,0,0
11301.625,233.446,-10571.4,0,0
11561.95,228.395,-10334.3,0,0
11822.275,224.098,-10108.2,0,0
12082.6,219.278,-9892.14,0,0
12342.925,215.222,-9684.08,0,0
12603.25,213.605,-9483.44,0,0
12863.575,207.555,-9296.03,0,0
13123.9,205.389,-9116.56,0,0
13384.225,198.615,-8936.65,0,0
13644.55,195.337,-8765.4,0,0
13904.875,193.351,-8597.93,0,0
14165.2,195.366,-8432.69,0,0
14425.525,199.921,-8288.88,0,0
14685.8,196.052,-8173.61,0,0
14946.175,181.078,-8015.45,0,0
15206.5,180.298,-7868.9,0,0
15466.825,199.075,-7722.83,0,0
15727.15,184.893,-7625.33,0,0
15987.5,186.693,-7511.13,0,0
16247.8,170.473,-7379.05,0,0
16508.125,188.506,-7259.09,0,0
16768.45,180.98,-7152.98,0,0
17028.775,167.189,-7061.63,0,0
17289.1,159.768,-6947.88,0,0
17549.425,157.958,-6843.53,0,0
17809.75,155.348,-6743.64,0,0
18070.075,151.043,-6643.11,0,0
18330.4,152.784,-6547.8,0,0
18590.725,152.072,-6457.88,0,0
18851.05,150.109,-6373.45,0,0
19111.375,144.871,-6283.99,0,0
19371.7,142.045,-6197.95,0,0
19632.025,141.282,-6113.27,0,0
19892.35,143.946,-6032.92,0,0
20152.675,142.829,-5955.41,0,0
20413.0,140.171,-5880.56,0,0
20673.3,140.805,-5806.32,0,0
20933.65,136.988,-5731.73,0,0
21193.975,140.94,-5656.73,0,0
21454.3,152.703,-5591.03,0,0
21714.625,147.719,-5535.28,0,0
21974.9,148.969,-5464.08,0,0
22235.275,147.03,-5420.31,0,0
22495.6,134.676,-5360.67,0,0
22755.925,127.129,-5295.38,0,0
23016.25,124.946,-5233.06,0,0
23276.6,122.158,-5172.99,0,0
23536.9,119.984,-5115.17,0,0
23797.225,118.122,-5057.87,0,0
24057.55,116.682,-5001.75,0,0
24317.875,115.35,-4947.44,0,0
24578.2,113.861,-4893.71,0,0
24838.525,113.239,-4840.7,0,0
25098.85,114.864,-4789.1,0,0
25359.175,112.43,-4741.77,0,0
25619.5,111.466,-4692.82,0,0
25879.8,109.863,-4647.92,0,0
26140.1,107.687,-4599.03,0,0
26400.5,106.894,-4552.63,0,0
26660.8,106.14,-4506.09,0,0
26921.1,106.035,-4461.63,0,0
27181.4,105.256,-4416.71,0,0
27441.8,105.723,-4372.27,0,0
27702.1,109.67,-4327.1,0,0
27962.4,116.089,-4286.38,0,0
28222.7,120.807,-4258.38,0,0
28483.1,112.785,-4222.99,0,0
28743.4,108.926,-4182.49,0,0
29003.7,112.527,-4138.33,0,0
29264,118.654,-4109.99,0,0
29524.4,112.527,-4078.95,0,0
29784.7,108.731,-4047.62,0,0
30045,105.609,-4009.49,0,0
30305.3,101.848,-3975.79,0,0
30565.7,99.3308,-3940.33,0,0
30826,98.0051,-3905.08,0,0
31086.3,97.2627,-3870.61,0,0
31346.6,98.7216,-3837.86,0,0
31607,96.6444,-3806.46,0,0
31867.3,97.6983,-3774.43,0,0
32127.6,99.9915,-3743.65,0,0
32387.9,98.1605,-3718.38,0,0
32648.3,96.1325,-3687.85,0,0
32908.6,94.2084,-3660.59,0,0
33168.9,91.8396,-3631.16,0,0
33429.2,89.0235,-3602.68,0,0
33689.6,87.8765,-3573.47,0,0
33949.9,86.7924,-3544.76,0,0
34210.2,87.0432,-3516.95,0,0
34470.5,85.6037,-3490.9,0,0
34730.9,84.1547,-3463.31,0,0
34991.2,83.8058,-3436.51,0,0
35251.5,83.6578,-3410.46,0,0
35511.8,83.0133,-3385.25,0,0
35772.2,82.0782,-3360.19,0,0
36032.5,81.2017,-3335.29,0,0
36292.8,80.4625,-3310.38,0,0
36553.1,80.2145,-3285.57,0,0
36813.5,79.978,-3261.51,0,0
37073.8,80.0949,-3238.62,0,0
37334.1,79.0473,-3215.8,0,0
37594.4,78.5695,-3192.4,0,0
37854.8,78.4789,-3169.79,0,0
38115.1,77.5975,-3148.08,0,0
38375.4,76.8018,-3125.72,0,0
38635.7,76.4231,-3103.63,0,0
38896.1,76.6415,-3081.87,0,0
39156.4,76.3381,-3060.67,0,0
39416.7,75.8215,-3039.28,0,0
39677,75.7164,-3017.88,0,0
39937.4,76.8619,-2996.55,0,0
40197.7,78.8463,-2976.29,0,0
40458,80.2358,-2958.19,0,0
40718.3,79.1731,-2941.34,0,0
40978.7,78.7224,-2921.14,0,0
41239,79.4713,-2902.72,0,0
41499.3,80.7479,-2885.38,0,0
41759.6,78.4522,-2868.51,0,0
42020,77.1514,-2850.76,0,0
42280.275,76.2328,-2831.43,0,0
42540.6,78.4136,-2813.99,0,0
42800.925,77.577,-2799.22,0,0
43061.25,75.0083,-2781.32,0,0
43321.575,75.1466,-2763.86,0,0
43581.9,73.9185,-2747.8,0,0
43842.225,72.8944,-2729.96,0,0
44102.55,73.4308,-2713.84,0,0
44362.875,71.8267,-2696.96,0,0
44623.2,72.1598,-2679.99,0,0
44883.525,71.7225,-2665,0,0
45143.85,70.8082,-2648.68,0,0
45404.175,70.0143,-2632.06,0,0
45664.5,70.6576,-2615.56,0,0
45924.825,71.7778,-2600.8,0,0
46185.15,71.5793,-2586.31,0,0
46445.475,70.3015,-2571.15,0,0
46705.8,70.7074,-2556.52,0,0
46966.125,71.1543,-2541.8,0,0
47226.45,70.9024,-2527.84,0,0
47486.775,70.6076,-2514.62,0,0
47747.1,69.6671,-2500.66,0,0
48007.425,69.0682,-2486.38,0,0
48267.75,68.3758,-2473.51,0,0
48528.075,67.4768,-2459.44,0,0
48788.4,66.3089,-2445.36,0,0
49048.725,65.8159,-2431.39,0,0
49309.05,65.4623,-2417.57,0,0
49569.375,64.7424,-2404.25,0,0
49829.7,64.4443,-2390.25,0,0
50090.025,64.2839,-2376.99,0,0
50350.35,63.9332,-2363.65,0,0
50610.675,63.7112,-2350.4,0,0
50871.0,63.6348,-2337.37,0,0
51131.325,63.5452,-2324.57,0,0
51391.65,63.2519,-2311.56,0,0
51651.975,63.1799,-2298.8,0,0
51912.3,63.1627,-2285.97,0,0
52172.625,63.6097,-2273.02,0,0
52432.95,63.8562,-2261.17,0,0
52693.275,63.802,-2248.28,0,0
52953.6,64.8142,-2235.55,0,0
53213.925,65.8765,-2223.41,0,0
53474.25,67.2691,-2211.37,0,0
53734.575,68.6362,-2199.96,0,0
53994.9,70.8455,-2188.41,0,0
54255.225,72.97,-2178.71,0,0
54515.55,75.2666,-2170.03,0,0
54775.875,75.2891,-2162.51,0,0
55036.2,74.1181,-2154.17,0,0
55296.525,72.7531,-2144.53,0,0
55556.85,71.4494,-2135.43,0,0
55817.175,69.3718,-2125.2,0,0
56077.5,67.9196,-2114.54,0,0
56337.825,66.4778,-2103.87,0,0
56598.15,65.4519,-2092.44,0,0
56858.475,65.0833,-2081.19,0,0
57118.8,65.3494,-2070.02,0,0
57379.125,65.6104,-2059.54,0,0
57639.45,65.6506,-2049.52,0,0
57899.775,65.8185,-2038.96,0,0
58160.1,66.1847,-2028.69,0,0
58420.4,67.0502,-2018.5,0,0
58680.7,67.5802,-2009.46,0,0
58941.1,66.8297,-1999.17,0,0
59201.4,67.9172,-1988.24,0,0
59461.7,70.1706,-1977.85,0,0
59722,72.721,-1969.5,0,0
59982.4,74.5623,-1961.56,0,0
60242.7,75.4064,-1953.98,0,0
60503,77.1047,-1945.71,0,0
60763.3,80.056,-1939.34,0,0
61023.7,80.1449,-1936,0,0
61284,78.0227,-1931.15,0,0
61544.3,73.4278,-1924.57,0,0
61804.6,71.2162,-1914.82,0,0
62065,69.6099,-1906.73,0,0
62325.3,67.8904,-1898.42,0,0
62585.6,65.1578,-1889.34,0,0
62845.9,64.2937,-1878.67,0,0
63106.3,64.2687,-1870.15,0,0
63366.6,63.1169,-1860.8,0,0
63626.9,63.5699,-1851.29,0,0
63887.2,63.818,-1843.41,0,0
64147.6,62.9066,-1834.55,0,0
64407.9,63.1957,-1825.45,0,0
64668.2,63.7154,-1817.06,0,0
64928.5,64.0265,-1808.82,0,0
65188.9,64.1451,-1800.86,0,0
65449.2,64.3919,-1792.72,0,0
65709.5,64.5543,-1784.3,0,0
65969.8,65.8844,-1775.79,0,0
66230.2,66.9954,-1768.86,0,0
66490.5,67.302,-1761.59,0,0
66750.8,67.7907,-1754.27,0,0
67011.1,68.4444,-1746.59,0,0
67271.5,69.8198,-1739.3,0,0
67531.8,71.0357,-1732.98,0,0
67792.1,71.8744,-1726.89,0,0
68052.4,72.7597,-1721.1,0,0
68312.8,73.2509,-1715.52,0,0
68573.1,73.4012,-1710.23,0,0
68833.4,73.2935,-1705.69,0,0
69093.7,71.4896,-1700.99,0,0
69354.1,69.1475,-1695.11,0,0
69614.4,67.0012,-1687.8,0,0
69874.7,66.2232,-1680.55,0,0
70135,65.3858,-1673.71,0,0
70395.4,63.985,-1666.66,0,0
70655.7,63.7963,-1658.6,0,0
70916,64.7731,-1652.22,0,0
71176.3,64.3363,-1646.24,0,0
71436.7,64.0242,-1640.5,0,0
71697,62.9488,-1634.89,0,0
71957.3,61.2459,-1628.68,0,0
72217.6,59.6923,-1621.55,0,0
72478,58.6817,-1614.25,0,0
72738.3,58.0913,-1607.38,0,0
72998.6,56.9719,-1600.04,0,0
73258.9,56.6675,-1592.18,0,0
73519.3,57.1179,-1584.98,0,0
73779.6,57.2847,-1578.25,0,0
74039.9,57.3292,-1571.18,0,0
74300.225,57.6576,-1564.51,0,0
74560.55,58.0529,-1557.7,0,0
74820.875,58.5689,-1551.28,0,0
75081.2,59.2229,-1544.71,0,0
75341.525,60.0857,-1538.99,0,0
75601.85,60.3208,-1533.08,0,0
75862.175,60.6467,-1527.1,0,0
76122.5,61.186,-1521.14,0,0
76382.825,61.7422,-1515.6,0,0
76643.15,61.788,-1509.96,0,0
76903.475,61.9522,-1504.09,0,0
77163.8,62.8321,-1497.9,0,0
77424.125,63.9487,-1492.76,0,0
77684.45,64.8874,-1487.83,0,0
77944.775,65.3685,-1483.48,0,0
78205.1,65.3589,-1479.23,0,0
78465.425,65.1012,-1474.66,0,0
78725.75,64.5402,-1470.17,0,0
78986.075,63.7086,-1465.33,0,0
79246.4,62.9504,-1460.17,0,0
79506.725,62.1619,-1454.91,0,0
79767.05,61.5805,-1449.4,0,0
80027.375,61.2283,-1443.9,0,0
80287.7,60.9352,-1438.45,0,0
80548.025,60.684,-1433.05,0,0
80808.35,60.6469,-1427.66,0,0
81068.675,60.6486,-1422.46,0,0
81329.0,60.5865,-1417.45,0,0
81589.325,60.4345,-1412.45,0,0
81849.65,60.2204,-1407.53,0,0
82109.975,59.8976,-1402.52,0,0
82370.3,59.6664,-1397.5,0,0
82630.625,59.3722,-1392.57,0,0
82890.95,59.1405,-1387.56,0,0
83151.275,58.8941,-1382.63,0,0
83411.6,58.5223,-1377.67,0,0
83671.925,58.2373,-1372.61,0,0
83932.25,58.0041,-1367.6,0,0
84192.575,57.8138,-1362.7,0,0
84452.9,57.6329,-1357.82,0,0
84713.225,57.3859,-1352.93,0,0
84973.55,57.2689,-1348,0,0
85233.875,57.0805,-1343.18,0,0
85494.2,56.8444,-1338.36,0,0
85754.525,56.6086,-1333.55,0,0
86014.85,56.3808,-1328.76,0,0
86275.175,56.2339,-1323.92,0,0
86535.5,56.1535,-1319.19,0,0
86795.825,55.9341,-1314.66,0,0
87056.15,55.6924,-1309.96,0,0
87316.475,55.5451,-1305.3,0,0
87576.8,55.3101,-1300.79,0,0
87837.125,54.9779,-1296.22,0,0
88097.45,54.4118,-1291.66,0,0
88357.775,53.7869,-1286.87,0,0
88618.1,53.5438,-1281.74,0,0
88878.425,53.6164,-1276.89,0,0
89138.75,53.5016,-1272.23,0,0
89399.075,53.2953,-1267.46,0,0
89659.4,53.2487,-1262.46,0,0
89919.725,53.279,-1257.96,0,0
90180,53.2695,-1253.35,0,0
90440.4,53.2907,-1248.72,0,0
90700.7,53.1518,-1244.13,0,0
90961,52.9946,-1239.61,0,0
91221.3,52.9272,-1234.87,0,0
91481.7,53.0774,-1230.17,0,0
91742,53.2119,-1225.54,0,0
92002.3,53.572,-1221,0,0
92262.6,53.822,-1216.51,0,0
92523,54.0292,-1212.22,0,0
92783.3,54.395,-1207.98,0,0
93043.6,54.7505,-1203.95,0,0
93303.9,54.8173,-1200,0,0
93564.3,54.8618,-1196.1,0,0
93824.6,54.7999,-1192.24,0,0
94084.9,54.4412,-1188.41,0,0
94345.2,53.8959,-1184.35,0,0
94605.6,53.4356,-1179.99,0,0
94865.9,53.081,-1175.52,0,0
95126.2,52.8425,-1171.06,0,0
95386.5,52.6352,-1166.58,0,0
95646.9,52.5708,-1162.01,0,0
95907.2,52.5886,-1157.47,0,0
96167.5,52.769,-1152.97,0,0
96427.8,52.92,-1148.63,0,0
96688.2,53.0477,-1144.38,0,0
96948.5,53.076,-1140.07,0,0
97208.8,53.2151,-1135.73,0,0
97469.1,53.3868,-1131.39,0,0
97729.5,53.5193,-1127.08,0,0
97989.8,53.7869,-1122.63,0,0
98250.1,54.1222,-1118.32,0,0
98510.4,54.4629,-1114.13,0,0
98770.8,54.7844,-1109.83,0,0
99031.1,55.2132,-1105.6,0,0
99291.4,55.6928,-1101.42,0,0
99551.7,56.2055,-1097.23,0,0
99812.1,56.791,-1093.14,0,0
100072,57.431,-1089.05,0,0
100333,58.2105,-1084.94,0,0
100593,59.2837,-1081.2,0,0
100853,60.1749,-1077.91,0,0
101114,60.7132,-1074.67,0,0
101374,61.2354,-1071.31,0,0
101634,61.8375,-1068.41,0,0
101895,61.8455,-1065.85,0,0
102155,61.0825,-1063.11,0,0
102415,59.87,-1059.66,0,0
102676,58.8375,-1055.52,0,0
102936,58.1588,-1051.13,0,0
103196,57.6693,-1046.57,0,0
103457,57.3357,-1041.8,0,0
103717,57.4086,-1036.97,0,0
103977,57.6676,-1032.11,0,0
104238,58.123,-1027.3,0,0
104498,58.792,-1022.59,0,0
104758,59.6366,-1017.89,0,0
105019,60.7271,-1013.33,0,0
105279,61.9022,-1008.99,0,0
105539,63.0281,-1004.66,0,0
105800,64.3545,-1000.45,0,0
106060,65.7036,-996.389,0,0
106320.175,67.0844,-992.467,0,0
106580.5,68.5174,-988.641,0,0
106840.825,70.0036,-984.977,0,0
107101.15,71.3408,-981.503,0,0
107361.475,72.5131,-977.991,0,0
107621.8,73.7138,-974.28,0,0
107882.125,75.1749,-970.494,0,0
108142.45,76.8621,-966.887,0,0
108402.775,78.5617,-963.534,0,0
108663.1,80.2563,-960.251,0,0
108923.425,82.0268,-957.04,0,0
109183.75,83.9539,-953.98,0,0
109444.075,85.8772,-951.346,0,0
109704.4,87.4999,-948.85,0,0
109964.725,89.0349,-946.375,0,0
110225.05,90.5748,-943.789,0,0
110485.375,92.154,-941.515,0,0
110745.7,93.5917,-939.369,0,0
111006.025,94.7305,-937.158,0,0
111266.35,95.8963,-935.021,0,0
111526.675,96.9631,-932.832,0,0
111787.0,98.1925,-930.502,0,0
112047.325,99.395,-928.424,0,0
112307.65,100.56,-926.44,0,0
112567.975,101.602,-924.513,0,0
112828.3,102.56,-922.614,0,0
113088.625,103.587,-920.878,0,0
113348.95,104.442,-919.009,0,0
113609.275,105.183,-917.283,0,0
113869.6,105.851,-915.551,0,0
114129.925,106.475,-913.79,0,0
114390.25,107.116,-912.011,0,0
114650.575,107.777,-910.386,0,0
114910.9,108.203,-908.915,0,0
115171.225,108.539,-907.263,0,0
115431.55,108.833,-905.697,0,0
115691.875,109.02,-903.996,0,0
115952.2,109.117,-902.376,0,0
116212.525,109.176,-900.704,0,0
116472.85,109.106,-899.016,0,0
116733.175,109.038,-897.315,0,0
116993.5,108.769,-895.524,0,0
117253.825,108.462,-893.62,0,0
117514.15,108.101,-891.552,0,0
117774.475,107.749,-889.402,0,0
118034.8,107.435,-887.007,0,0
118295.125,107.282,-884.529,0,0
118555.45,107.192,-881.991,0,0
118815.775,107.314,-879.194,0,0
119076.1,107.828,-876.458,0,0
119336.425,108.698,-873.766,0,0
119596.75,110.088,-871.482,0,0
119857.075,111.645,-869.988,0,0
120117.4,112.902,-869.242,0,0
120377.725,113.593,-868.848,0,0
120638.05,113.742,-868.938,0,0
120898.375,112.678,-868.976,0,0
121158.7,111.071,-868.261,0,0
121419.025,109.434,-866.825,0,0
121679.35,107.884,-865.062,0,0
121939.675,106.393,-863.002,0,0
122200.0,105.102,-860.662,0,0
122460,103.995,-858.204,0,0
122721,103.07,-855.662,0,0
122981,102.253,-853.197,0,0
123241,101.459,-850.688,0,0
123502,100.716,-848.19,0,0
123762,99.9735,-845.586,0,0
124022,99.3321,-842.912,0,0
124283,98.8306,-840.235,0,0
124543,98.4497,-837.595,0,0
124803,98.2087,-835.019,0,0
125064,97.9873,-832.496,0,0
125324,97.8253,-830.197,0,0
125584,97.5798,-827.974,0,0
125845,97.269,-825.775,0,0
126105,96.9463,-823.759,0,0
126365,96.419,-821.767,0,0
126626,95.7878,-819.682,0,0
126886,95.0897,-817.667,0,0
127146,94.3164,-815.525,0,0
127406,93.7597,-813.517,0,0
127667,92.9145,-811.537,0,0
127927,91.9123,-809.609,0,0
128187,90.6137,-807.686,0,0
128448,88.9805,-805.51,0,0
128708,87.338,-802.991,0,0
128968,85.7581,-800.219,0,0
129229,84.1414,-797.325,0,0
129489,82.6138,-794.154,0,0
129749,81.2153,-790.853,0,0
130010,79.9621,-787.458,0,0
130270,78.7714,-783.994,0,0
130530,77.6647,-780.465,0,0
130791,76.6126,-776.833,0,0
131051,75.7085,-773.063,0,0
131311,75.003,-769.331,0,0
131572,74.3186,-765.622,0,0
131832,73.6916,-761.836,0,0
132092,73.1209,-758.001,0,0
132353,72.7286,-754.196,0,0
132613,72.369,-750.378,0,0
132873,72.0998,-746.618,0,0
133134,71.8987,-742.847,0,0
133394,71.6677,-739.106,0,0
133654,71.4659,-735.257,0,0
133915,71.4149,-731.37,0,0
134175,71.474,-727.591,0,0
134435,71.5508,-723.83,0,0
134696,71.6199,-720.098,0,0
134956,71.7713,-716.298,0,0
135216,71.9525,-712.481,0,0
135477,72.2733,-708.699,0,0
135737,72.622,-704.993,0,0
135997,73.0208,-701.301,0,0
136258,73.4225,-697.736,0,0
136518,73.8292,-694.12,0,0
136778,74.2764,-690.502,0,0
137039,74.8294,-687.009,0,0
137299,75.1266,-683.669,0,0
137559,75.3645,-680.142,0,0
137819,75.6415,-676.488,0,0
138080,75.9873,-672.803,0,0
138340.125,76.3942,-669.049,0,0
138600.45,76.849,-665.333,0,0
138860.775,77.2916,-661.539,0,0
139121.1,77.8508,-657.653,0,0
139381.425,78.5563,-653.817,0,0
139641.75,79.3097,-650.059,0,0
139902.075,79.9992,-646.297,0,0
140162.4,80.759,-642.464,0,0
140422.725,81.573,-638.571,0,0
140683.05,82.5162,-634.704,0,0
140943.375,83.5192,-630.866,0,0
141203.7,84.6314,-627.038,0,0
141464.025,85.8167,-623.334,0,0
141724.35,86.971,-619.682,0,0
141984.675,88.1203,-616.038,0,0
142245.0,89.2961,-612.386,0,0
142505.325,90.5014,-608.766,0,0
142765.65,91.6732,-605.144,0,0
143025.975,92.91,-601.481,0,0
143286.3,94.2593,-597.872,0,0
143546.625,95.5039,-594.272,0,0
143806.95,96.8313,-590.621,0,0
144067.275,98.1641,-586.97,0,0
144327.6,99.5595,-583.316,0,0
144587.925,100.968,-579.689,0,0
144848.25,102.37,-575.997,0,0
145108.575,103.877,-572.271,0,0
145368.9,105.476,-568.513,0,0
145629.225,107.112,-564.777,0,0
145889.55,108.815,-561.054,0,0
146149.875,110.58,-557.296,0,0
146410.2,112.435,-553.566,0,0
146670.525,114.371,-549.879,0,0
146930.85,116.332,-546.259,0,0
147191.175,118.249,-542.644,0,0
147451.5,120.259,-538.927,0,0
147711.825,122.38,-535.208,0,0
147972.15,124.616,-531.541,0,0
148232.475,126.847,-527.939,0,0
148492.8,129.094,-524.307,0,0
148753.125,131.437,-520.644,0,0
149013.45,133.886,-517.015,0,0
149273.775,136.276,-513.443,0,0
149534.1,138.623,-509.684,0,0
149794.425,141.261,-505.672,0,0
150054.75,144.321,-501.791,0,0
150315.075,147.451,-498.156,0,0
150575.4,150.602,-494.587,0,0
150835.725,153.816,-490.981,0,0
151096.05,157.194,-487.35,0,0
151356.375,160.78,-483.753,0,0
151616.7,164.658,-480.26,0,0
151877.025,168.679,-476.986,0,0
152137.35,172.85,-473.793,0,0
152397.675,177.351,-470.776,0,0
152658.0,182,-468.207,0,0
152918.325,186.607,-465.911,0,0
153178.65,191.279,-463.82,0,0
153438.975,196.025,-462.12,0,0
153699.3,200.623,-460.81,0,0
153959.625,204.984,-459.706,0,0
154219.95,209.27,-458.786,0,0
154480,213.299,-458.142,0,0
154741,216.986,-457.639,0,0
155001,220.31,-456.817,0,0
155261,223.726,-455.825,0,0
155522,227.349,-454.85,0,0
155782,231.022,-454.208,0,0
156042,234.326,-453.908,0,0
156303,237.383,-453.192,0,0
156563,240.662,-452.468,0,0
156823,243.801,-451.728,0,0
157084,246.949,-451.035,0,0
157344,250.195,-450.525,0,0
157604,253.131,-450.12,0,0
157864,255.764,-449.384,0,0
158125,258.66,-448.156,0,0
158385,262.071,-446.868,0,0
158645,265.585,-445.95,0,0
158906,269.36,-444.908,0,0
159166,273.944,-444.214,0,0
159426,278.619,-444.718,0,0
159687,282.267,-445.85,0,0
159947,285.568,-446.608,0,0
160207,288.548,-447.344,0,0
160468,291.824,-448.233,0,0
160728,294.582,-449.459,0,0
160988,296.854,-450.34,0,0
161249,299.331,-451.317,0,0
161509,301.589,-452.403,0,0
161769,303.595,-453.324,0,0
162030,305.342,-454.207,0,0
162290,307.075,-455.217,0,0
162550,308.402,-456.203,0,0
162811,309.231,-457.027,0,0
163071,309.937,-457.164,0,0
163331,310.67,-457.109,0,0
163592,311.284,-456.939,0,0
163852,311.684,-456.188,0,0
164112,312.284,-454.732,0,0
164373,313.54,-452.746,0,0
164633,315.319,-450.946,0,0
164893,317.342,-449.223,0,0
165154,319.383,-447.383,0,0
165414,321.672,-445.09,0,0
165674,324.689,-442.444,0,0
165935,328.545,-439.888,0,0
166195,333.099,-437.904,0,0
166455,338.058,-436.306,0,0
166716,343.407,-435.017,0,0
166976,349.483,-434.465,0,0
167236,355.728,-434.94,0,0
167497,361.507,-436.119,0,0
167757,367.185,-437.538,0,0
168017,372.915,-439.406,0,0
168277,378.511,-441.706,0,0
168538,384.167,-444.412,0,0
168798,390.09,-447.679,0,0
169058,396.036,-452.019,0,0
169319,401.292,-457.462,0,0
169579,405.688,-463.268,0,0
169839,409.907,-469.384,0,0
170100,413.754,-476.629,0,0
170360.075,416.381,-484.702,0,0
170620.4,417.522,-493.187,0,0
170880.725,417.26,-501.449,0,0
171141.05,416.031,-509.202,0,0
171401.375,414.205,-516.477,0,0
171661.7,411.882,-523.785,0,0
171922.025,408.397,-531.153,0,0
172182.35,403.625,-537.816,0,0
172442.675,398.021,-543.557,0,0
172703.0,391.86,-548.224,0,0
172963.325,385.508,-551.962,0,0
173223.65,378.844,-555.038,0,0
173483.975,371.795,-557.178,0,0
173744.3,364.742,-558.195,0,0
174004.625,358.079,-558.392,0,0
174264.95,351.578,-558.072,0,0
174525.275,345.193,-557.09,0,0
174785.6,339.103,-555.606,0,0
175045.925,333.073,-553.581,0,0
175306.25,327.195,-550.823,0,0
175566.575,321.819,-547.279,0,0
175826.9,317.176,-543.336,0,0
176087.225,312.942,-539.18,0,0
176347.55,309.221,-534.69,0,0
176607.875,306.044,-530.013,0,0
176868.2,303.348,-525.226,0,0
177128.525,301.162,-520.444,0,0
177388.85,299.348,-515.77,0,0
177649.175,297.757,-511.03,0,0
177909.5,296.482,-506.33,0,0
178169.825,295.475,-501.55,0,0
178430.15,294.862,-496.723,0,0
178690.475,294.63,-492.03,0,0
178950.8,294.649,-487.475,0,0
179211.125,294.941,-483.023,0,0
179471.45,295.507,-478.739,0,0
179731.775,296.252,-474.778,0,0
179992.1,297.012,-470.978,0,0
180252.425,297.853,-467.353,0,0
180512.75,298.694,-463.876,0,0
180773.075,299.518,-460.459,0,0
181033.4,300.396,-457.135,0,0
181293.725,301.26,-453.958,0,0
181554.05,302.055,-450.83,0,0
181814.375,302.774,-447.71,0,0
182074.7,303.476,-444.609,0,0
182335.025,304.065,-441.516,0,0
182595.35,304.512,-438.366,0,0
182855.675,304.849,-435.033,0,0
183116.0,305.194,-431.485,0,0
183376.325,305.609,-427.707,0,0
183636.65,306.179,-423.781,0,0
183896.975,306.83,-419.738,0,0
184157.3,307.629,-415.531,0,0
184417.625,308.634,-411.215,0,0
184677.95,309.822,-406.867,0,0
184938.275,311.187,-402.513,0,0
185198.6,312.659,-398.213,0,0
185458.925,314.194,-393.927,0,0
185719.25,315.679,-389.64,0,0
185979.575,317.146,-385.159,0,0
186239.9,318.675,-380.452,0,0
186500,320.395,-375.602,0,0
186761,322.319,-370.504,0,0
187021,324.373,-365.371,0,0
187281,326.68,-360.067,0,0
187542,329.256,-354.61,0,0
187802,332.011,-349.136,0,0
188062,335.074,-343.598,0,0
188322,338.39,-338.038,0,0
188583,341.83,-332.355,0,0
188843,345.55,-326.587,0,0
189103,349.441,-320.741,0,0
189364,353.673,-314.845,0,0
189624,358.233,-308.816,0,0
189884,363.159,-302.713,0,0
190145,368.481,-296.644,0,0
190405,374.147,-290.612,0,0
190665,380.168,-284.666,0,0
190926,386.468,-278.686,0,0
191186,393.168,-272.687,0,0
191446,400.327,-266.777,0,0
191707,407.969,-260.944,0,0
191967,416.047,-255.317,0,0
192227,424.633,-249.914,0,0
192488,433.576,-244.794,0,0
192748,442.807,-239.942,0,0
193008,452.487,-235.448,0,0
193269,462.442,-231.245,0,0
193529,472.648,-227.296,0,0
193789,483.241,-223.707,0,0
194050,494.183,-220.506,0,0
194310,504.982,-217.647,0,0
194570,516.023,-214.887,0,0
194831,527.468,-212.288,0,0
195091,539.264,-210.055,0,0
195351,551.292,-208.026,0,0
195612,563.613,-206.275,0,0
195872,576.359,-204.724,0,0
196132,589.616,-203.528,0,0
196393,603.361,-202.759,0,0
196653,617.453,-202.45,0,0
196913,632.032,-202.571,0,0
197174,647.136,-203.288,0,0
197434,662.681,-204.74,0,0
197694,678.567,-206.859,0,0
197955,694.775,-209.629,0,0
198215,711.403,-212.999,0,0
198475,728.707,-217.072,0,0
198735,746.887,-222.332,0,0
198996,765.59,-229.195,0,0
199256,784.253,-237.903,0,0
199516,802.581,-248.168,0,0
199777,820.359,-259.829,0,0
200037,837.568,-272.822,0,0
200297,854.038,-287.246,0,0
200558,869.909,-302.836,0,0
200818,884.661,-319.684,0,0
201078,898.358,-337.585,0,0
201339,910.733,-356.642,0,0
201599,921.506,-376.466,0,0
201859,930.932,-396.481,0,0
202120,939.116,-416.535,0,0
202380.025,946.582,-436.87,0,0
202640.35,952.88,-457.741,0,0
202900.675,957.905,-478.712,0,0
203161.0,962.228,-500.161,0,0
203421.325,964.953,-522.219,0,0
203681.65,965.8,-544.286,0,0
203941.975,964.798,-565.65,0,0
204202.3,963.032,-585.874,0,0
204462.625,960.862,-605.338,0,0
204722.95,958.467,-625.236,0,0
204983.275,954.675,-645.02,0,0
205243.6,949.714,-664.55,0,0
205503.925,944.096,-682.919,0,0
205764.25,938.218,-700.877,0,0
206024.575,931.9,-718.961,0,0
206284.9,924.529,-737.001,0,0
206545.225,915.988,-754.909,0,0
206805.55,906.457,-771.992,0,0
207065.875,895.899,-788.651,0,0
207326.2,884.095,-804.547,0,0
207586.525,871.466,-819.155,0,0
207846.85,858.291,-832.602,0,0
208107.175,844.912,-845.116,0,0
208367.5,830.779,-856.95,0,0
208627.825,816.018,-867.659,0,0
208888.15,800.659,-876.573,0,0
209148.475,785.496,-884.379,0,0
209408.8,770.622,-890.544,0,0
209669.125,756.209,-895.759,0,0
209929.45,742.213,-900.359,0,0
210189.775,728.726,-904.298,0,0
210450.1,715.433,-907.35,0,0
210710.425,702.603,-909.589,0,0
210970.75,690.273,-911.318,0,0
211231.075,678.651,-912.464,0,0
211491.4,667.477,-913.406,0,0
211751.725,656.66,-914.149,0,0
212012.05,646.063,-914.415,0,0
212272.375,635.913,-914.254,0,0
212532.7,626.192,-913.938,0,0
212793.025,616.479,-913.365,0,0
213053.35,606.976,-912.092,0,0
213313.675,598.203,-909.973,0,0
213574.0,590.448,-907.523,0,0
213834.325,583.579,-905.059,0,0
214094.65,577.706,-902.839,0,0
214354.975,572.313,-900.969,0,0
214615.3,567.617,-899.745,0,0
214875.625,563.279,-899.008,0,0
215135.95,558.84,-898.727,0,0
215396.275,554.11,-898.826,0,0
215656.6,549.304,-899.479,0,0
215916.925,544.082,-900.011,0,0
216177.25,538.836,-900.378,0,0
216437.575,533.326,-900.582,0,0
216697.9,527.92,-900.41,0,0
216958.225,522.934,-900.119,0,0
217218.55,518.241,-899.954,0,0
217478.875,513.578,-900.045,0,0
217739.2,508.789,-900.116,0,0
217999.525,504.029,-900.166,0,0
218259.85,499.511,-900.213,0,0
218520,494.951,-900.571,0,0
218780,490.462,-900.939,0,0
219041,485.73,-901.447,0,0
219301,480.727,-901.904,0,0
219561,475.802,-902.288,0,0
219822,470.699,-902.648,0,0
220082,465.411,-902.776,0,0
220342,459.8,-902.521,0,0
220603,454.575,-902.071,0,0
220863,449.413,-901.36,0,0
221123,444.65,-900.515,0,0
221384,439.999,-899.696,0,0
221644,435.421,-898.913,0,0
221904,430.772,-898.211,0,0
222165,426.188,-897.417,0,0
222425,421.595,-896.229,0,0
222685,417.456,-894.857,0,0
222946,413.737,-893.732,0,0
223206,410.166,-892.846,0,0
223466,406.693,-892.046,0,0
223727,403.247,-891.636,0,0
223987,399.75,-891.499,0,0
224247,395.997,-891.444,0,0
224508,392.067,-891.463,0,0
224768,388.044,-891.229,0,0
225028,384.04,-891.232,0,0
225289,379.869,-891.324,0,0
225549,375.255,-891.336,0,0
225809,370.801,-891.243,0,0
226070,366.149,-891.184,0,0
226330,361.29,-890.805,0,0
226590,356.37,-890.497,0,0
226851,351.263,-890.028,0,0
227111,346.022,-889.372,0,0
227371,340.616,-888.4,0,0
227632,335.2,-887.191,0,0
227892,329.748,-885.746,0,0
228152,324.302,-884.006,0,0
228413,319.009,-881.931,0,0
228673,313.844,-879.64,0,0
228933,308.898,-877.139,0,0
229193,304.003,-874.509,0,0
229454,299.402,-871.663,0,0
229714,294.942,-868.741,0,0
229974,290.729,-865.747,0,0
230235,286.502,-862.834,0,0
230495,282.516,-859.722,0,0
230755,278.516,-856.562,0,0
231016,274.637,-853.294,0,0
231276,271.028,-849.807,0,0
231536,267.688,-846.376,0,0
231797,264.535,-842.994,0,0
232057,261.537,-839.654,0,0
232317,258.508,-836.353,0,0
232578,255.634,-833.051,0,0
232838,252.787,-829.724,0,0
233098,250.022,-826.389,0,0
233359,247.356,-822.965,0,0
233619,244.83,-819.343,0,0
233879,242.613,-815.74,0,0
234140,240.633,-812.303,0,0
234400,238.68,-808.938,0,0
234660.3,236.8,-805.731,0,0
234920.625,235.11,-802.479,0,0
235180.95,233.371,-799.374,0,0
235441.275,231.667,-796.472,0,0
235701.6,229.877,-793.509,0,0
235961.925,228.118,-790.42,0,0
236222.25,226.376,-787.262,0,0
236482.575,224.754,-784.064,0,0
236742.9,223.281,-780.782,0,0
237003.225,221.959,-777.523,0,0
237263.55,220.801,-774.277,0,0
237523.875,219.781,-771.106,0,0
237784.2,218.881,-768.038,0,0
238044.525,218.051,-764.994,0,0
238304.85,217.326,-762.062,0,0
238565.175,216.664,-759.212,0,0
238825.5,216.06,-756.457,0,0
239085.825,215.605,-753.713,0,0
239346.15,215.17,-751.173,0,0
239606.475,214.609,-748.66,0,0
239866.8,214.369,-746.247,0,0
240127.125,213.903,-743.912,0,0
240387.45,213.606,-741.486,0,0
240647.775,213.393,-739.268,0,0
240908.1,213.157,-737.182,0,0
241168.425,212.968,-735.214,0,0
241428.75,212.715,-733.326,0,0
241689.075,212.492,-731.549,0,0
241949.4,212.181,-729.911,0,0
242209.725,211.83,-728.359,0,0
242470.05,211.458,-726.851,0,0
242730.375,211.002,-725.296,0,0
242990.7,210.447,-723.916,0,0
243251.025,209.866,-722.571,0,0
243511.35,209.137,-721.244,0,0
243771.675,208.351,-719.951,0,0
244032.0,207.465,-718.641,0,0
244292.325,206.488,-717.212,0,0
244552.65,205.28,-715.74,0,0
244812.975,204.219,-714.19,0,0
245073.3,203.067,-712.631,0,0
245333.625,202.025,-710.931,0,0
245593.95,200.779,-709.21,0,0
245854.275,199.656,-707.275,0,0
246114.6,198.517,-705.404,0,0
246374.925,197.384,-703.447,0,0
246635.25,196.322,-701.352,0,0
246895.575,195.301,-699.185,0,0
247155.9,194.363,-697.001,0,0
247416.225,193.444,-694.759,0,0
247676.55,192.701,-692.47,0,0
247936.875,191.975,-690.162,0,0
248197.2,191.414,-687.856,0,0
248457.525,190.844,-685.548,0,0
248717.85,190.441,-683.238,0,0
248978.175,190.126,-680.959,0,0
249238.5,189.901,-678.818,0,0
249498.825,189.764,-676.703,0,0
249759.15,189.682,-674.759,0,0
250019.475,189.582,-672.754,0,0
250279.8,189.416,-671.057,0,0
250540,189.231,-669.367,0,0
250800,188.908,-667.778,0,0
251061,188.505,-666.187,0,0
251321,188.024,-664.536,0,0
251581,187.412,-662.843,0,0
251842,186.76,-661.068,0,0
252102,186.068,-659.208,0,0
252362,185.376,-657.243,0,0
252623,184.724,-655.209,0,0
252883,184.105,-653.057,0,0
253143,183.591,-650.863,0,0
253404,183.128,-648.735,0,0
253664,182.568,-646.612,0,0
253924,181.957,-644.496,0,0
254185,181.2,-642.212,0,0
254445,180.455,-639.815,0,0
254705,179.742,-637.178,0,0
254966,179.077,-634.37,0,0
255226,178.513,-631.332,0,0
255486,178.183,-628.163,0,0
255747,177.966,-624.986,0,0
256007,177.888,-621.647,0,0
256267,177.943,-618.2,0,0
256528,178.235,-614.678,0,0
256788,178.698,-611.048,0,0
257048,179.439,-607.394,0,0
257309,180.381,-603.681,0,0
257569,181.574,-600.005,0,0
257829,182.977,-596.376,0,0
258090,184.602,-592.754,0,0
258350,186.469,-589.129,0,0
258610,188.64,-585.534,0,0
258871,191.153,-582.096,0,0
259131,193.863,-578.876,0,0
259391,196.853,-575.905,0,0
259651,199.909,-573.125,0,0
259912,203.118,-570.507,0,0
260172,206.443,-568.16,0,0
260432,209.766,-565.959,0,0
260693,213.281,-563.773,0,0
260953,216.938,-561.798,0,0
261213,220.787,-560.031,0,0
261474,224.762,-558.438,0,0
261734,228.908,-557.043,0,0
261994,233.286,-555.895,0,0
262255,237.63,-555.16,0,0
262515,242.404,-554.673,0,0
262775,247.263,-554.773,0,0
263036,252.033,-555.453,0,0
263296,256.489,-556.609,0,0
263556,260.614,-558.124,0,0
263817,264.4,-559.818,0,0
264077,267.871,-561.549,0,0
264337,271.083,-563.281,0,0
264598,274.248,-565.002,0,0
264858,277.354,-566.789,0,0
265118,280.498,-568.501,0,0
265379,283.713,-570.481,0,0
265639,286.978,-572.552,0,0
265899,290.383,-574.87,0,0
266160,293.797,-577.508,0,0
266420,297.195,-580.592,0,0
266680.25,300.391,-584.174,0,0
266940.575,303.221,-588.093,0,0
267200.9,305.894,-592.435,0,0
267461.225,308.137,-597.21,0,0
267721.55,309.778,-602.268,0,0
267981.875,310.84,-607.5,0,0
268242.2,311.372,-612.684,0,0
268502.525,311.496,-618.028,0,0
268762.85,310.882,-623.295,0,0
269023.175,309.645,-628.338,0,0
269283.5,307.935,-633.043,0,0
269543.825,305.788,-637.293,0,0
269804.15,303.442,-640.949,0,0
270064.475,301.036,-644.347,0,0
270324.8,298.585,-647.235,0,0
270585.125,296.229,-649.919,0,0
270845.45,293.981,-652.324,0,0
271105.775,291.873,-654.719,0,0
271366.1,289.882,-657.281,0,0
271626.425,287.571,-659.889,0,0
271886.75,285.022,-662.375,0,0
272147.075,282.279,-664.578,0,0
272407.4,279.334,-666.514,0,0
272667.725,276.505,-668.056,0,0
272928.05,273.857,-669.399,0,0
273188.375,271.412,-670.68,0,0
273448.7,269.086,-672.074,0,0
273709.025,266.808,-673.481,0,0
273969.35,264.521,-675.137,0,0
274229.675,262.024,-676.946,0,0
274490.0,259.143,-678.724,0,0
274750.325,256.102,-680.447,0,0
275010.65,252.806,-681.985,0,0
275270.975,249.287,-683.518,0,0
275531.3,245.442,-684.814,0,0
275791.625,241.401,-685.82,0,0
276051.95,237.062,-686.485,0,0
276312.275,232.584,-686.755,0,0
276572.6,228.049,-686.485,0,0
276832.925,223.532,-685.816,0,0
277093.25,219.165,-684.698,0,0
277353.575,214.854,-683.157,0,0
277613.9,210.725,-681.11,0,0
277874.225,206.993,-678.596,0,0
278134.55,203.737,-675.718,0,0
278394.875,201.041,-672.653,0,0
278655.2,198.882,-669.559,0,0
278915.525,197.196,-666.491,0,0
279175.85,195.956,-663.577,0,0
279436.175,195.264,-660.982,0,0
279696.5,194.703,-658.883,0,0
279956.825,194.164,-657.093,0,0
280217.15,193.468,-655.59,0,0
280477.475,192.525,-654.164,0,0
280737.8,191.582,-652.54,0,0
280998.125,190.658,-650.843,0,0
281258.45,189.871,-649.07,0,0
281518.775,189.283,-647.333,0,0
281779.1,188.857,-645.623,0,0
282039.425,188.594,-644.036,0,0
282299.75,188.398,-642.547,0,0
282560,188.346,-641.161,0,0
282820,188.412,-639.932,0,0
283081,188.539,-638.983,0,0
283341,188.635,-638.203,0,0
283601,188.715,-637.633,0,0
283862,188.683,-637.277,0,0
284122,188.507,-637.065,0,0
284382,188.123,-636.956,0,0
284643,187.564,-636.943,0,0
284903,186.895,-637.044,0,0
285163,185.9,-637.108,0,0
285424,184.641,-637.092,0,0
285684,183.027,-636.946,0,0
285944,181.184,-636.515,0,0
286205,179.289,-635.588,0,0
286465,177.601,-634.312,0,0
286725,176.166,-632.852,0,0
286986,174.944,-631.489,0,0
287246,173.683,-630.175,0,0
287506,172.263,-628.743,0,0
287767,170.818,-627.042,0,0
288027,169.466,-625.038,0,0
288287,168.324,-622.767,0,0
288548,167.443,-620.301,0,0
288808,166.839,-617.719,0,0
289068,166.571,-615.049,0,0
289329,166.627,-612.4,0,0
289589,166.991,-609.684,0,0
289849,167.681,-607.061,0,0
290109,168.671,-604.535,0,0
290370,170.063,-602.138,0,0
290630,171.762,-600.016,0,0
290890,173.705,-598.162,0,0
291151,175.863,-596.731,0,0
291411,178.146,-595.62,0,0
291671,180.507,-594.903,0,0
291932,182.866,-594.551,0,0
292192,185.209,-594.526,0,0
292452,187.497,-594.818,0,0
292713,189.685,-595.489,0,0
292973,191.727,-596.449,0,0
293233,193.588,-597.683,0,0
293494,195.283,-599.201,0,0
293754,196.769,-600.935,0,0
294014,197.994,-602.941,0,0
294275,198.908,-605.163,0,0
294535,199.49,-607.625,0,0
294795,199.661,-610.127,0,0
295056,199.366,-612.774,0,0
295316,198.655,-615.26,0,0
295576,197.596,-617.612,0,0
295837,196.183,-619.713,0,0
296097,194.582,-621.578,0,0
296357,192.799,-623.23,0,0
296618,190.902,-624.657,0,0
296878,188.87,-625.827,0,0
297138,186.752,-626.736,0,0
297399,184.707,-627.406,0,0
297659,182.714,-627.912,0,0
297919,180.781,-628.281,0,0
298180,178.891,-628.592,0,0
298440,177.019,-628.805,0,0
298700.2,175.12,-628.96,0,0
298960.525,173.25,-629.027,0,0
299220.85,171.411,-628.983,0,0
299481.175,169.582,-628.905,0,0
299741.5,167.714,-628.777,0,0
300001.825,165.883,-628.508,0,0
300262.15,164.104,-628.172,0,0
300522.475,162.311,-627.8,0,0
300782.8,160.612,-627.304,0,0
301043.125,158.902,-626.744,0,0
301303.45,157.306,-626.166,0,0
301563.775,155.751,-625.544,0,0
301824.1,154.223,-624.935,0,0
302084.425,152.727,-624.291,0,0
302344.75,151.224,-623.668,0,0
302605.075,149.732,-622.987,0,0
302865.4,148.197,-622.321,0,0
303125.725,146.657,-621.546,0,0
303386.05,145.133,-620.703,0,0
303646.375,143.622,-619.777,0,0
303906.7,142.187,-618.787,0,0
304167.025,140.834,-617.73,0,0
304427.35,139.505,-616.652,0,0
304687.675,138.277,-615.542,0,0
304948.0,137.058,-614.455,0,0
305208.325,135.881,-613.352,0,0
305468.65,134.725,-612.194,0,0
305728.975,133.608,-610.971,0,0
305989.3,132.552,-609.721,0,0
306249.625,131.611,-608.43,0,0
306509.95,130.739,-607.132,0,0
306770.275,129.941,-605.844,0,0
307030.6,129.237,-604.558,0,0
307290.925,128.613,-603.298,0,0
307551.25,128.073,-602.091,0,0
307811.575,127.625,-600.93,0,0
308071.9,127.221,-599.877,0,0
308332.225,126.827,-598.937,0,0
308592.55,126.424,-598.071,0,0
308852.875,125.974,-597.269,0,0
309113.2,125.474,-596.54,0,0
309373.525,124.91,-595.794,0,0
309633.85,124.295,-595.064,0,0
309894.175,123.584,-594.316,0,0
310154.5,122.913,-593.493,0,0
310414.825,122.233,-592.617,0,0
310675.15,121.563,-591.735,0,0
310935.475,120.9,-590.831,0,0
311195.8,120.228,-589.904,0,0
311456.125,119.644,-588.949,0,0
311716.45,119.048,-587.958,0,0
311976.775,118.502,-586.98,0,0
312237.1,117.989,-585.969,0,0
312497.425,117.504,-584.958,0,0
312757.75,117.084,-583.944,0,0
313018.075,116.725,-582.954,0,0
313278.4,116.423,-581.995,0,0
313538.725,116.174,-581.112,0,0
313799.05,115.912,-580.285,0,0
314059.375,115.627,-579.507,0,0
314319.7,115.334,-578.753,0,0
314580,115.048,-578.048,0,0
314840,114.61,-577.326,0,0
315101,114.34,-576.558,0,0
315361,114.064,-575.802,0,0
315621,113.765,-574.978,0,0
315882,113.435,-574.312,0,0
316142,113.201,-573.628,0,0
316402,113.004,-572.968,0,0
316663,112.748,-572.308,0,0
316923,112.422,-571.767,0,0
317183,112.207,-571.172,0,0
317444,112.002,-570.608,0,0
317704,111.79,-570.107,0,0
317964,111.582,-569.559,0,0
318225,111.405,-569.126,0,0
318485,111.216,-568.784,0,0
318745,110.967,-568.43,0,0
319006,110.743,-568.18,0,0
319266,110.367,-568.042,0,0
319526,109.986,-567.813,0,0
319787,109.563,-567.789,0,0
320047,108.967,-567.679,0,0
320307,108.356,-567.579,0,0
320567,107.638,-567.38,0,0
320828,106.816,-567.413,0,0
321088,105.924,-567.26,0,0
321348,104.965,-567.078,0,0
321609,103.878,-566.831,0,0
321869,102.801,-566.65,0,0
322129,101.655,-566.312,0,0
322390,100.384,-565.844,0,0
322650,99.0286,-565.362,0,0
322910,97.6642,-564.719,0,0
323171,96.2647,-563.774,0,0
323431,94.9952,-562.928,0,0
323691,93.7721,-561.825,0,0
323952,92.5754,-560.713,0,0
324212,91.5696,-559.626,0,0
324472,90.4911,-558.466,0,0
324733,89.5413,-557.17,0,0
324993,88.5635,-555.956,0,0
325253,87.7083,-554.698,0,0
325514,86.8841,-553.345,0,0
325774,86.1353,-552.023,0,0
326034,85.3887,-550.718,0,0
326295,84.7192,-549.426,0,0
326555,84.1202,-548.065,0,0
326815,83.4912,-546.803,0,0
327076,82.942,-545.501,0,0
327336,82.3419,-544.224,0,0
327596,81.8123,-542.924,0,0
327857,81.2976,-541.577,0,0
328117,80.726,-540.23,0,0
328377,80.1394,-538.797,0,0
328638,79.7104,-537.352,0,0
328898,79.3436,-535.9,0,0
329158,79.0437,-534.383,0,0
329419,78.7738,-532.88,0,0
329679,78.6563,-531.372,0,0
329939,78.627,-529.8,0,0
330200,78.5917,-528.357,0,0
330460,78.7142,-526.992,0,0
330720.15,78.8693,-525.561,0,0
330980.475,79.0521,-524.236,0,0
331240.8,79.4389,-523.04,0,0
331501.125,79.7454,-521.896,0,0
331761.45,80.2053,-520.908,0,0
332021.775,80.5849,-519.997,0,0
332282.1,80.9684,-519.23,0,0
332542.425,81.2391,-518.586,0,0
332802.75,81.4896,-517.95,0,0
333063.075,81.6435,-517.317,0,0
333323.4,81.6502,-516.817,0,0
333583.725,81.6514,-516.308,0,0
333844.05,81.572,-515.838,0,0
334104.375,81.4713,-515.313,0,0
334364.7,81.1519,-514.76,0,0
334625.025,80.959,-514.131,0,0
334885.35,80.6182,-513.544,0,0
335145.675,80.3004,-512.835,0,0
335406.0,79.9013,-512.111,0,0
335666.325,79.5968,-511.415,0,0
335926.65,79.2255,-510.541,0,0
336186.975,78.8578,-509.727,0,0
336447.3,78.4585,-508.902,0,0
336707.625,78.0878,-507.944,0,0
336967.95,77.7452,-507.034,0,0
337228.275,77.3898,-506.05,0,0
337488.6,77.0073,-505.08,0,0
337748.925,76.7153,-503.994,0,0
338009.25,76.3536,-502.92,0,0
338269.575,76.0255,-501.816,0,0
338529.9,75.7234,-500.522,0,0
338790.225,75.4653,-499.213,0,0
339050.55,75.4093,-497.921,0,0
339310.875,75.2939,-496.549,0,0
339571.2,75.2773,-495.22,0,0
339831.525,75.3511,-493.859,0,0
340091.85,75.5553,-492.516,0,0
340352.175,75.7442,-491.141,0,0
340612.5,76.0143,-489.835,0,0
340872.825,76.47,-488.538,0,0
341133.15,76.8943,-487.205,0,0
341393.475,77.4585,-486.013,0,0
341653.8,78.057,-484.857,0,0
341914.125,78.7646,-483.762,0,0
342174.45,79.5179,-482.776,0,0
342434.775,80.3157,-481.817,0,0
342695.1,81.1564,-480.961,0,0
342955.425,82.003,-480.304,0,0
343215.75,82.7844,-479.73,0,0
343476.075,83.5794,-479.154,0,0
343736.4,84.3344,-478.741,0,0
343996.725,85.1787,-478.359,0,0
344257.05,85.8422,-478.145,0,0
344517.375,86.5109,-477.959,0,0
344777.7,87.0667,-477.804,0,0
345038.025,87.5941,-477.713,0,0
345298.35,88.079,-477.658,0,0
345558.675,88.4479,-477.691,0,0
345819.0,88.785,-477.681,0,0
346079.325,89.0995,-477.738,0,0
346339.65,89.3084,-477.777,0,0
346599.975,89.401,-477.795,0,0
346860,89.4312,-477.884,0,0
347121,89.4676,-477.941,0,0
347381,89.3648,-477.942,0,0
347641,89.2767,-477.825,0,0
347902,89.0972,-477.823,0,0
348162,88.9872,-477.688,0,0
348422,88.7717,-477.551,0,0
348683,88.5284,-477.473,0,0
348943,88.3065,-477.363,0,0
349203,88.071,-477.169,0,0
349464,87.8089,-476.999,0,0
349724,87.4402,-476.814,0,0
349984,87.127,-476.609,0,0
350245,86.6709,-476.381,0,0
350505,86.2697,-476.09,0,0
350765,85.7795,-475.667,0,0
351025,85.3145,-475.26,0,0
351286,84.8998,-474.779,0,0
351546,84.4264,-474.19,0,0
351806,84.0411,-473.637,0,0
352067,83.6443,-473.01,0,0
352327,83.2834,-472.338,0,0
352587,83.0351,-471.605,0,0
352848,82.8321,-470.939,0,0
353108,82.6531,-470.216,0,0
353368,82.4553,-469.57,0,0
353629,82.3381,-468.988,0,0
353889,82.192,-468.393,0,0
354149,82.0202,-467.773,0,0
354410,81.9034,-467.169,0,0
354670,81.7111,-466.658,0,0
354930,81.4727,-465.964,0,0
355191,81.3728,-465.326,0,0
355451,81.196,-464.679,0,0
355711,81.0713,-463.997,0,0
355972,80.9307,-463.266,0,0
356232,80.9064,-462.608,0,0
356492,80.8365,-461.957,0,0
356753,80.8671,-461.327,0,0
357013,80.8743,-460.741,0,0
357273,80.8405,-460.13,0,0
357534,80.8644,-459.612,0,0
357794,80.7889,-459.177,0,0
358054,80.745,-458.64,0,0
358315,80.632,-458.164,0,0
358575,80.4833,-457.671,0,0
358835,80.3014,-457.159,0,0
359096,80.1057,-456.614,0,0
359356,79.8946,-456.014,0,0
359616,79.6678,-455.514,0,0
359877,79.4286,-454.804,0,0
360137,79.1905,-454.174,0,0
360397,78.9062,-453.371,0,0
360658,78.7507,-452.604,0,0
360918,78.6987,-451.801,0,0
361178,78.565,-451.035,0,0
361438,78.5179,-450.233,0,0
361699,78.4974,-449.457,0,0
361959,78.4721,-448.693,0,0
362219,78.4423,-447.97,0,0
362480,78.4472,-447.229,0,0
362740.1,78.4414,-446.458,0,0
363000.425,78.4066,-445.711,0,0
363260.75,78.4604,-444.95,0,0
363521.075,78.5251,-444.215,0,0
363781.4,78.5512,-443.463,0,0
364041.725,78.6026,-442.666,0,0
364302.05,78.6173,-441.944,0,0
364562.375,78.7195,-441.174,0,0
364822.7,78.7847,-440.444,0,0
365083.025,78.8622,-439.677,0,0
365343.35,78.9062,-438.898,0,0
365603.675,78.9517,-438.134,0,0
365864.0,79.0398,-437.344,0,0
366124.325,79.1188,-436.469,0,0
366384.65,79.1889,-435.649,0,0
366644.975,79.3517,-434.759,0,0
366905.3,79.46,-433.804,0,0
367165.625,79.6807,-432.872,0,0
367425.95,79.9212,-431.907,0,0
367686.275,80.2521,-430.884,0,0
367946.6,80.6558,-429.914,0,0
368206.925,81.071,-428.928,0,0
368467.25,81.5822,-427.971,0,0
368727.575,82.1278,-427.101,0,0
368987.9,82.6174,-426.181,0,0
369248.225,83.249,-425.252,0,0
369508.55,83.9519,-424.374,0,0
369768.875,84.6985,-423.441,0,0
370029.2,85.5384,-422.543,0,0
370289.525,86.4847,-421.712,0,0
370549.85,87.5198,-420.986,0,0
370810.175,88.6319,-420.347,0,0
371070.5,89.8035,-419.776,0,0
371330.825,91.0465,-419.359,0,0
371591.15,92.3283,-419.116,0,0
371851.475,93.6012,-419.004,0,0
372111.8,94.801,-419.026,0,0
372372.125,95.9856,-419.18,0,0
372632.45,97.1541,-419.431,0,0
372892.775,98.1599,-419.885,0,0
373153.1,99.1445,-420.351,0,0
373413.425,99.9432,-420.962,0,0
373673.75,100.612,-421.636,0,0
373934.075,101.19,-422.314,0,0
374194.4,101.596,-423.011,0,0
374454.725,101.888,-423.677,0,0
374715.05,102.138,-424.272,0,0
374975.375,102.274,-424.9,0,0
375235.7,102.335,-425.474,0,0
375496.025,102.323,-425.982,0,0
375756.35,102.34,-426.391,0,0
376016.675,102.283,-426.879,0,0
376277.0,102.163,-427.292,0,0
376537.325,101.946,-427.685,0,0
376797.65,101.751,-427.983,0,0
377057.975,101.499,-428.181,0,0
377318.3,101.284,-428.337,0,0
377578.625,101.058,-428.4,0,0
377838.95,100.944,-428.507,0,0
378099.275,100.838,-428.559,0,0
378359.6,100.802,-428.69,0,0
378619.925,100.762,-428.801,0,0
378880,100.702,-428.966,0,0
379141,100.581,-429.17,0,0
379401,100.434,-429.343,0,0
379661,100.296,-429.541,0,0
379922,100.035,-429.707,0,0
380182,99.7547,-429.964,0,0
380442,99.4653,-430.002,0,0
380703,99.1463,-430.092,0,0
380963,98.8242,-429.96,0,0
381223,98.6564,-429.911,0,0
381483,98.5234,-429.805,0,0
381744,98.3942,-429.783,0,0
382004,98.3579,-429.783,0,0
382264,98.3407,-429.836,0,0
382525,98.2716,-429.916,0,0
382785,98.2225,-429.996,0,0
383045,98.2166,-430.127,0,0
383306,98.1107,-430.334,0,0
383566,98.0851,-430.614,0,0
383826,98.0517,-430.919,0,0
384087,97.9445,-431.356,0,0
384347,97.6563,-431.881,0,0
384607,97.3747,-432.505,0,0
384868,96.8662,-433.089,0,0
385128,96.1939,-433.563,0,0
385388,95.4978,-434.111,0,0
385649,94.6406,-434.517,0,0
385909,93.6607,-434.852,0,0
386169,92.6085,-435.059,0,0
386430,91.583,-435.138,0,0
386690,90.4271,-435.088,0,0
386950,89.2863,-434.913,0,0
387211,88.159,-434.606,0,0
387471,87.1295,-434.163,0,0
387731,86.1282,-433.617,0,0
387992,85.2233,-432.961,0,0
388252,84.4444,-432.281,0,0
388512,83.7111,-431.484,0,0
388773,83.1643,-430.649,0,0
389033,82.6644,-429.866,0,0
389293,82.2968,-429.082,0,0
389554,82.0767,-428.338,0,0
389814,81.9352,-427.694,0,0
390074,81.8704,-427.089,0,0
390335,81.8033,-426.617,0,0
390595,81.7633,-426.283,0,0
390855,81.7527,-426.018,0,0
391116,81.6564,-425.824,0,0
391376,81.4521,-425.739,0,0
391636,81.2075,-425.696,0,0
391896,80.8993,-425.641,0,0
392157,80.507,-425.647,0,0
392417,80.0297,-425.582,0,0
392677,79.5223,-425.54,0,0
392938,78.9395,-425.43,0,0
393198,78.3516,-425.331,0,0
393458,77.5673,-425.186,0,0
393719,76.8642,-425.004,0,0
393979,76.0694,-424.755,0,0
394239,75.2613,-424.392,0,0
394500,74.4812,-424.037,0,0
394760.05,73.6704,-423.576,0,0
395020.375,72.8599,-423.07,0,0
395280.7,71.9983,-422.577,0,0
395541.025,71.2514,-421.966,0,0
395801.35,70.5188,-421.326,0,0
396061.675,69.7341,-420.654,0,0
396322.0,68.9594,-419.942,0,0
396582.325,68.2815,-419.187,0,0
396842.65,67.511,-418.406,0,0
397102.975,66.8995,-417.533,0,0
397363.3,66.2572,-416.713,0,0
397623.625,65.6196,-415.805,0,0
397883.95,65.0461,-414.909,0,0
398144.275,64.4845,-413.925,0,0
398404.6,63.9485,-412.986,0,0
398664.925,63.403,-411.958,0,0
398925.25,63.0008,-410.936,0,0
399185.575,62.5871,-409.88,0,0
399445.9,62.2175,-408.802,0,0
399706.225,61.8978,-407.764,0,0
399966.55,61.6356,-406.634,0,0
400006.6,61.5935,-406.499,0,0