File: Accelerated corrosion test data/2025-10-22_06-00-04/sample_3.csv
Frequency (Hz),Impedance (ohms),Phase (Radians),Temperature (C),Humidity (%)
10000.0,251.944,-11901.5,0,0
10260.325,245.756,-11601.4,0,0
10520.65,239.646,-11316.1,0,0
10780.975,236.763,-11043.6,0,0
11041.3,230.022,-10789.3,0,0
11301.625,224.452,-10541.8,0,0
11561.95,220.048,-10306.2,0,0
11822.275,215.448,-10080.5,0,0
12082.6,212.482,-9864.97,0,0
12342.925,211.455,-9657.15,0,0
12603.25,203.442,-9460.88,0,0
12863.575,200.171,-9269.02,0,0
13123.9,200.464,-9084.1,0,0
13384.225,193.357,-8914.79,0,0
13644.55,190.013,-8743.94,0,0
13904.875,186.266,-8579.54,0,0
14165.2,185.812,-8423.31,0,0
14425.525,181.364,-8269.84,0,0
14685.8,179.711,-8123.17,0,0
14946.175,176.959,-7983.47,0,0
15206.5,175.275,-7840.4,0,0
15466.825,186.937,-7702.43,0,0
15727.15,191.85,-7601.19,0,0
15987.5,171.728,-7485.88,0,0
16247.8,168.361,-7356.54,0,0
16508.125,161.992,-7241.79,0,0
16768.45,170.736,-7121.77,0,0
17028.775,157.78,-7021.67,0,0
17289.1,164.157,-6907.88,0,0
17549.425,155.948,-6814.35,0,0
17809.75,157.137,-6709.98,0,0
18070.075,161.75,-6623.71,0,0
18330.4,152.363,-6525.79,0,0
18590.725,148.975,-6434.93,0,0
18851.05,146.01,-6342.94,0,0
19111.375,146.185,-6254.71,0,0
19371.7,145.366,-6168.26,0,0
19632.025,148.215,-6083.11,0,0
19892.35,148.953,-6009.26,0,0
20152.675,148.637,-5923.76,0,0
20413.0,166.481,-5850.45,0,0
20673.3,162.207,-5786.19,0,0
20933.65,164.348,-5727.29,0,0
21193.975,161.98,-5662.85,0,0
21454.3,145.527,-5601.35,0,0
21714.625,139.866,-5525.17,0,0
21974.9,145.201,-5459.52,0,0
22235.275,138.881,-5399.72,0,0
22495.6,136.937,-5337.66,0,0
22755.925,129.78,-5277.24,0,0
23016.25,128.307,-5216.93,0,0
23276.6,128.778,-5154.02,0,0
23536.9,129.745,-5108.38,0,0
23797.225,121.491,-5048.83,0,0
24057.55,119.433,-4990.85,0,0
24317.875,120.182,-4935.06,0,0
24578.2,118.145,-4885.74,0,0
24838.525,117.937,-4830.9,0,0
25098.85,115.863,-4783.5,0,0
25359.175,114.028,-4733.04,0,0
25619.5,114.418,-4685.18,0,0
25879.8,110.726,-4637.69,0,0
26140.1,108.916,-4590.1,0,0
26400.5,108.001,-4543.02,0,0
26660.8,108.002,-4497.01,0,0
26921.1,109.215,-4452.43,0,0
27181.4,109.219,-4412.03,0,0
27441.8,108.176,-4367.91,0,0
27702.1,108.711,-4328.27,0,0
27962.4,105.75,-4286.84,0,0
28222.7,104.532,-4243.33,0,0
28483.1,112.091,-4201.12,0,0
28743.4,115.546,-4166.33,0,0
29003.7,116.537,-4138.26,0,0
29264,108.344,-4102.95,0,0
29524.4,108.617,-4065.37,0,0
29784.7,104.751,-4029.81,0,0
30045,102.698,-3996.13,0,0
30305.3,101.838,-3958.03,0,0
30565.7,102.355,-3924.55,0,0
30826,102.079,-3892.21,0,0
31086.3,103.053,-3858.14,0,0
31346.6,100.027,-3828.34,0,0
31607,98.4329,-3793.91,0,0
31867.3,98.9358,-3759.31,0,0
32127.6,102.476,-3725.47,0,0
32387.9,112.032,-3697.39,0,0
32648.3,114.43,-3680.68,0,0
32908.6,104.257,-3655.93,0,0
33168.9,101.527,-3628.24,0,0
33429.2,99.5109,-3601.35,0,0
33689.6,93.0793,-3572.95,0,0
33949.9,90.9113,-3542.06,0,0
34210.2,91.178,-3513.75,0,0
34470.5,90.3254,-3488.09,0,0
34730.9,88.0927,-3461.43,0,0
34991.2,86.5724,-3434.51,0,0
35251.5,85.8019,-3407.73,0,0
35511.8,85.1944,-3382.41,0,0
35772.2,84.168,-3357.1,0,0
36032.5,83.6025,-3332.05,0,0
36292.8,82.8767,-3307.54,0,0
36553.1,82.459,-3283.66,0,0
36813.5,81.6468,-3260.12,0,0
37073.8,80.9354,-3236.4,0,0
37334.1,80.4171,-3213.18,0,0
37594.4,80.0959,-3190.37,0,0
37854.8,79.5585,-3167.97,0,0
38115.1,78.9938,-3145.86,0,0
38375.4,78.4116,-3123.81,0,0
38635.7,77.9448,-3102.03,0,0
38896.1,77.7226,-3080.8,0,0
39156.4,77.2778,-3059.87,0,0
39416.7,77.1387,-3039.53,0,0
39677,76.4076,-3018.89,0,0
39937.4,75.8208,-2998.71,0,0
40197.7,75.5344,-2978.55,0,0
40458,75.1187,-2958.93,0,0
40718.3,74.6151,-2939.41,0,0
40978.7,74.4168,-2919.81,0,0
41239,74.5864,-2900.61,0,0
41499.3,74.6355,-2882.04,0,0
41759.6,74.5769,-2863.74,0,0
42020,74.014,-2846.22,0,0
42280.275,73.5397,-2827.79,0,0
42540.6,73.2828,-2810.35,0,0
42800.925,73.2927,-2792.7,0,0
43061.25,72.6849,-2775.62,0,0
43321.575,72.1548,-2758.22,0,0
43581.9,71.9552,-2740.97,0,0
43842.225,71.9447,-2723.77,0,0
44102.55,72.2313,-2707.25,0,0
44362.875,72.2195,-2691.57,0,0
44623.2,71.6452,-2675.3,0,0
44883.525,71.3053,-2659.06,0,0
45143.85,71.2616,-2643.52,0,0
45404.175,70.865,-2627.84,0,0
45664.5,70.3429,-2612.28,0,0
45924.825,71.2372,-2596.65,0,0
46185.15,70.439,-2582.6,0,0
46445.475,69.9075,-2567.28,0,0
46705.8,69.605,-2551.67,0,0
46966.125,70.3641,-2537.31,0,0
47226.45,69.7101,-2522.95,0,0
47486.775,69.7731,-2508.39,0,0
47747.1,70.246,-2494.12,0,0
48007.425,70.477,-2481.12,0,0
48267.75,70.5601,-2467.56,0,0
48528.075,69.8228,-2454.39,0,0
48788.4,69.3137,-2441.14,0,0
49048.725,68.5934,-2427.81,0,0
49309.05,67.9917,-2414.31,0,0
49569.375,67.9684,-2400.71,0,0
49829.7,67.7459,-2388.13,0,0
50090.025,67.0437,-2375.36,0,0
50350.35,66.5197,-2362.21,0,0
50610.675,66.2833,-2349.06,0,0
50871.0,66.2415,-2336.2,0,0
51131.325,66.0767,-2323.66,0,0
51391.65,66.0203,-2311.22,0,0
51651.975,66.2123,-2298.81,0,0
51912.3,66.1229,-2286.67,0,0
52172.625,65.8834,-2274.51,0,0
52432.95,65.922,-2262.43,0,0
52693.275,66.0386,-2250.32,0,0
52953.6,66.3646,-2238.55,0,0
53213.925,66.8653,-2226.73,0,0
53474.25,67.7141,-2215.7,0,0
53734.575,67.9966,-2204.95,0,0
53994.9,68.079,-2193.86,0,0
54255.225,68.9279,-2182.97,0,0
54515.55,69.989,-2173.57,0,0
54775.875,69.2159,-2164.43,0,0
55036.2,68.4707,-2154.03,0,0
55296.525,68.0659,-2144.65,0,0
55556.85,66.7307,-2134.84,0,0
55817.175,65.1654,-2124.26,0,0
56077.5,64.1553,-2113.73,0,0
56337.825,63.3031,-2102.93,0,0
56598.15,62.4751,-2092.47,0,0
56858.475,61.7523,-2081.81,0,0
57118.8,61.2004,-2070.81,0,0
57379.125,61.0437,-2060.26,0,0
57639.45,61.0029,-2049.55,0,0
57899.775,61.0644,-2039.25,0,0
58160.1,61.0637,-2029.39,0,0
58420.4,60.912,-2019.22,0,0
58680.7,60.9326,-2009.12,0,0
58941.1,61.0775,-1999.29,0,0
59201.4,61.1789,-1989.25,0,0
59461.7,61.644,-1979.63,0,0
59722,61.7991,-1969.92,0,0
59982.4,62.0513,-1960.53,0,0
60242.7,62.3851,-1951.13,0,0
60503,62.5865,-1941.87,0,0
60763.3,62.9308,-1932.64,0,0
61023.7,63.1378,-1923.36,0,0
61284,63.5416,-1914.25,0,0
61544.3,64.0307,-1904.89,0,0
61804.6,64.5051,-1896.41,0,0
62065,64.6943,-1887.28,0,0
62325.3,65.4864,-1878.29,0,0
62585.6,66.0554,-1869.71,0,0
62845.9,66.4287,-1860.78,0,0
63106.3,67.1349,-1851.44,0,0
63366.6,68.7427,-1842.81,0,0
63626.9,69.6568,-1834.18,0,0
63887.2,70.8125,-1825.94,0,0
64147.6,72.1647,-1817.03,0,0
64407.9,74.7325,-1808.29,0,0
64668.2,77.4604,-1800.77,0,0
64928.5,80.2784,-1793.2,0,0
65188.9,84.1245,-1787.18,0,0
65449.2,87.0647,-1782.23,0,0
65709.5,89.2599,-1778.63,0,0
65969.8,91.5198,-1775.28,0,0
66230.2,91.4319,-1774.97,0,0
66490.5,85.624,-1773.66,0,0
66750.8,80.3964,-1766,0,0
67011.1,77.8841,-1757.29,0,0
67271.5,75.6476,-1749.2,0,0
67531.8,75.0015,-1740.67,0,0
67792.1,74.6894,-1732.21,0,0
68052.4,75.0568,-1724.48,0,0
68312.8,76.125,-1717.37,0,0
68573.1,76.0758,-1711.26,0,0
68833.4,76.3041,-1704.34,0,0
69093.7,77.1596,-1697.78,0,0
69354.1,77.545,-1692.45,0,0
69614.4,77.3457,-1686.96,0,0
69874.7,76.7562,-1681.56,0,0
70135,75.775,-1675.9,0,0
70395.4,75.0111,-1669.83,0,0
70655.7,73.9961,-1664.13,0,0
70916,72.7844,-1657.93,0,0
71176.3,71.5658,-1651.36,0,0
71436.7,70.6198,-1644.54,0,0
71697,70.0271,-1637.52,0,0
71957.3,69.913,-1630.58,0,0
72217.6,70.299,-1624.22,0,0
72478,70.4932,-1618.23,0,0
72738.3,70.5939,-1612.46,0,0
72998.6,70.3376,-1606.91,0,0
73258.9,69.8576,-1601.34,0,0
73519.3,69.4367,-1595.62,0,0
73779.6,69.0509,-1589.95,0,0
74039.9,68.6102,-1584.54,0,0
74300.225,67.786,-1579.02,0,0
74560.55,66.9584,-1573.3,0,0
74820.875,66.2387,-1567.62,0,0
75081.2,65.4505,-1561.97,0,0
75341.525,64.6527,-1556.2,0,0
75601.85,63.8554,-1550.43,0,0
75862.175,63.0229,-1544.58,0,0
76122.5,62.3734,-1538.67,0,0
76382.825,61.6225,-1532.79,0,0
76643.15,61.0301,-1526.92,0,0
76903.475,60.5031,-1521.06,0,0
77163.8,59.936,-1515.29,0,0
77424.125,59.384,-1509.56,0,0
77684.45,58.8123,-1503.81,0,0
77944.775,58.2372,-1498.02,0,0
78205.1,57.7375,-1492.25,0,0
78465.425,57.2651,-1486.53,0,0
78725.75,56.802,-1480.79,0,0
78986.075,56.3582,-1475.11,0,0
79246.4,55.9546,-1469.37,0,0
79506.725,55.5419,-1463.67,0,0
79767.05,55.2062,-1458,0,0
80027.375,54.9172,-1452.36,0,0
80287.7,54.6383,-1446.73,0,0
80548.025,54.4656,-1441.16,0,0
80808.35,54.1605,-1435.67,0,0
81068.675,53.972,-1430.19,0,0
81329.0,53.7366,-1424.71,0,0
81589.325,53.5687,-1419.24,0,0
81849.65,53.4445,-1413.85,0,0
82109.975,53.2902,-1408.49,0,0
82370.3,53.1675,-1403.17,0,0
82630.625,53.0234,-1397.9,0,0
82890.95,52.9339,-1392.56,0,0
83151.275,52.7904,-1387.37,0,0
83411.6,52.7511,-1382.21,0,0
83671.925,52.6401,-1377.01,0,0
83932.25,52.6245,-1371.79,0,0
84192.575,52.5911,-1366.66,0,0
84452.9,52.497,-1361.65,0,0
84713.225,52.4516,-1356.61,0,0
84973.55,52.4027,-1351.51,0,0
85233.875,52.3289,-1346.5,0,0
85494.2,52.4261,-1341.5,0,0
85754.525,52.425,-1336.62,0,0
86014.85,52.4197,-1331.71,0,0
86275.175,52.4043,-1326.8,0,0
86535.5,52.4458,-1321.92,0,0
86795.825,52.455,-1317.03,0,0
87056.15,52.5136,-1312.15,0,0
87316.475,52.4897,-1307.31,0,0
87576.8,52.7335,-1302.42,0,0
87837.125,52.8434,-1297.72,0,0
88097.45,52.8783,-1293.02,0,0
88357.775,53.0783,-1288.17,0,0
88618.1,53.1139,-1283.4,0,0
88878.425,53.368,-1278.51,0,0
89138.75,53.7466,-1273.73,0,0
89399.075,54.2282,-1269.05,0,0
89659.4,54.6843,-1264.66,0,0
89919.725,55.1293,-1260.28,0,0
90180,55.573,-1255.93,0,0
90440.4,55.9953,-1251.62,0,0
90700.7,56.2396,-1247.3,0,0
90961,56.5738,-1243.04,0,0
91221.3,57.0087,-1238.92,0,0
91481.7,57.293,-1234.62,0,0
91742,57.7285,-1230.48,0,0
92002.3,58.1019,-1226.38,0,0
92262.6,58.5291,-1222.28,0,0
92523,59.1658,-1218.3,0,0
92783.3,59.7002,-1214.6,0,0
93043.6,60.0588,-1210.77,0,0
93303.9,60.6195,-1206.88,0,0
93564.3,61.5664,-1203.56,0,0
93824.6,62.127,-1200.44,0,0
94084.9,62.3676,-1197.76,0,0
94345.2,61.9261,-1195.08,0,0
94605.6,61.2765,-1192,0,0
94865.9,60.7783,-1188.81,0,0
95126.2,59.7907,-1185.79,0,0
95386.5,58.4194,-1182.24,0,0
95646.9,57.219,-1178.09,0,0
95907.2,56.3756,-1173.69,0,0
96167.5,55.8212,-1169.24,0,0
96427.8,55.4901,-1164.78,0,0
96688.2,55.3622,-1160.49,0,0
96948.5,55.2745,-1156.23,0,0
97208.8,55.2572,-1152.2,0,0
97469.1,55.1456,-1148.1,0,0
97729.5,55.1178,-1144.12,0,0
97989.8,55.0657,-1140.09,0,0
98250.1,55.0305,-1136.08,0,0
98510.4,55.0357,-1132.08,0,0
98770.8,55.0969,-1128.18,0,0
99031.1,55.0637,-1124.4,0,0
99291.4,54.9477,-1120.48,0,0
99551.7,54.8928,-1116.61,0,0
99812.1,54.8763,-1112.74,0,0
100072,54.8409,-1108.81,0,0
100333,54.7786,-1104.89,0,0
100593,54.7134,-1101.01,0,0
100853,54.6023,-1097,0,0
101114,54.6494,-1092.84,0,0
101374,54.8108,-1088.79,0,0
101634,54.9539,-1084.67,0,0
101895,55.2923,-1080.5,0,0
102155,55.6789,-1076.44,0,0
102415,56.2123,-1072.29,0,0
102676,57.099,-1068.38,0,0
102936,57.8989,-1064.7,0,0
103196,58.7165,-1061.27,0,0
103457,59.3402,-1057.9,0,0
103717,59.9498,-1054.37,0,0
103977,60.764,-1050.9,0,0
104238,61.7852,-1047.91,0,0
104498,62.6102,-1045.07,0,0
104758,63.1122,-1042.56,0,0
105019,63.1366,-1039.95,0,0
105279,63.2629,-1037.02,0,0
105539,63.4414,-1034.07,0,0
105800,63.5488,-1031.36,0,0
106060,63.4479,-1028.63,0,0
106320.175,63.1991,-1025.85,0,0
106580.5,62.869,-1022.85,0,0
106840.825,62.6598,-1019.83,0,0
107101.15,62.286,-1016.87,0,0
107361.475,61.8971,-1013.71,0,0
107621.8,61.5266,-1010.46,0,0
107882.125,61.1565,-1007.18,0,0
108142.45,60.8028,-1003.95,0,0
108402.775,60.3656,-1000.55,0,0
108663.1,59.9264,-997.068,0,0
108923.425,59.6027,-993.345,0,0
109183.75,59.433,-989.645,0,0
109444.075,59.469,-985.942,0,0
109704.4,59.4609,-982.354,0,0
109964.725,59.4777,-978.698,0,0
110225.05,59.4578,-975.071,0,0
110485.375,59.5776,-971.298,0,0
110745.7,59.91,-967.45,0,0
111006.025,60.3661,-963.791,0,0
111266.35,60.8772,-960.32,0,0
111526.675,61.5742,-956.93,0,0
111787.0,61.9938,-953.713,0,0
112047.325,62.4613,-950.457,0,0
112307.65,62.8349,-947.31,0,0
112567.975,63.2967,-944.105,0,0
112828.3,63.5712,-940.963,0,0
113088.625,63.9268,-937.907,0,0
113348.95,64.176,-934.725,0,0
113609.275,64.4735,-931.555,0,0
113869.6,64.608,-928.398,0,0
114129.925,64.8899,-925.081,0,0
114390.25,65.0777,-921.931,0,0
114650.575,65.2167,-918.557,0,0
114910.9,65.5935,-915.055,0,0
115171.225,65.8622,-911.653,0,0
115431.55,66.466,-908.062,0,0
115691.875,67.1706,-904.781,0,0
115952.2,67.6808,-901.481,0,0
116212.525,68.2329,-898.067,0,0
116472.85,68.9399,-894.547,0,0
116733.175,69.8007,-891.211,0,0
116993.5,70.7012,-887.885,0,0
117253.825,71.5734,-884.583,0,0
117514.15,72.5476,-881.134,0,0
117774.475,73.9262,-877.604,0,0
118034.8,75.7593,-874.496,0,0
118295.125,77.5178,-871.914,0,0
118555.45,78.9557,-869.73,0,0
118815.775,79.9282,-867.519,0,0
119076.1,80.9286,-864.746,0,0
119336.425,82.3662,-862.017,0,0
119596.75,84.3304,-859.413,0,0
119857.075,86.3338,-857.699,0,0
120117.4,88.2864,-856.602,0,0
120377.725,89.6069,-856.24,0,0
120638.05,89.9124,-855.895,0,0
120898.375,89.6783,-855.309,0,0
121158.7,88.8411,-854.314,0,0
121419.025,87.6147,-852.717,0,0
121679.35,86.509,-850.343,0,0
121939.675,85.7929,-847.517,0,0
122200.0,85.5161,-844.611,0,0
122460,85.3736,-841.789,0,0
122721,85.4993,-838.839,0,0
122981,85.9238,-836.065,0,0
123241,86.3247,-833.494,0,0
123502,86.7474,-831.021,0,0
123762,87.088,-828.623,0,0
124022,87.4935,-826.15,0,0
124283,87.951,-823.814,0,0
124543,88.343,-821.507,0,0
124803,88.7431,-819.29,0,0
125064,89.0721,-817.003,0,0
125324,89.5262,-814.811,0,0
125584,89.9913,-812.659,0,0
125845,90.4404,-810.683,0,0
126105,90.7404,-808.86,0,0
126365,90.8347,-807.076,0,0
126626,90.8382,-805.117,0,0
126886,90.7888,-803.129,0,0
127146,90.6349,-801.028,0,0
127406,90.6903,-798.896,0,0
127667,90.5944,-797.024,0,0
127927,90.4718,-794.958,0,0
128187,90.1949,-792.896,0,0
128448,89.8653,-790.761,0,0
128708,89.4998,-788.433,0,0
128968,89.1943,-786.002,0,0
129229,89.0193,-783.509,0,0
129489,88.9102,-781.087,0,0
129749,88.6743,-778.566,0,0
130010,88.6364,-775.903,0,0
130270,88.8486,-773.317,0,0
130530,89.1272,-770.914,0,0
130791,89.3711,-768.658,0,0
131051,89.5504,-766.605,0,0
131311,89.5411,-764.612,0,0
131572,89.4262,-762.557,0,0
131832,89.1064,-760.459,0,0
132092,88.7928,-758.129,0,0
132353,88.5566,-755.792,0,0
132613,88.4,-753.412,0,0
132873,88.2219,-751.167,0,0
133134,87.9456,-748.882,0,0
133394,87.6338,-746.551,0,0
133654,87.2919,-744.19,0,0
133915,86.8708,-741.728,0,0
134175,86.5281,-739.083,0,0
134435,86.3607,-736.477,0,0
134696,86.1461,-734.034,0,0
134956,85.8217,-731.535,0,0
135216,85.4784,-728.879,0,0
135477,85.2376,-726.234,0,0
135737,84.9405,-723.616,0,0
135997,84.6872,-720.969,0,0
136258,84.2499,-718.319,0,0
136518,83.7916,-715.436,0,0
136778,83.5019,-712.371,0,0
137039,83.3526,-709.287,0,0
137299,83.36,-706.174,0,0
137559,83.5212,-703.093,0,0
137819,83.8003,-700.168,0,0
138080,84.1125,-697.373,0,0
138340.125,84.3232,-694.665,0,0
138600.45,84.6729,-691.981,0,0
138860.775,84.8912,-689.543,0,0
139121.1,84.9393,-687.086,0,0
139381.425,84.8876,-684.651,0,0
139641.75,84.6147,-682.139,0,0
139902.075,84.3278,-679.326,0,0
140162.4,84.2855,-676.484,0,0
140422.725,84.2833,-673.813,0,0
140683.05,84.1295,-671.174,0,0
140943.375,83.8265,-668.466,0,0
141203.7,83.4395,-665.627,0,0
141464.025,83.0617,-662.649,0,0
141724.35,82.7512,-659.514,0,0
141984.675,82.5068,-656.286,0,0
142245.0,82.3296,-653.06,0,0
142505.325,82.2024,-649.783,0,0
142765.65,82.062,-646.509,0,0
143025.975,81.9761,-643.13,0,0
143286.3,81.9862,-639.708,0,0
143546.625,82.0383,-636.262,0,0
143806.95,82.0556,-632.808,0,0
144067.275,82.1358,-629.265,0,0
144327.6,82.2919,-625.671,0,0
144587.925,82.5034,-622.041,0,0
144848.25,82.7947,-618.424,0,0
145108.575,83.2086,-614.76,0,0
145368.9,83.6725,-611.163,0,0
145629.225,84.0304,-607.632,0,0
145889.55,84.3299,-603.927,0,0
146149.875,84.7177,-600.077,0,0
146410.2,85.3582,-596.157,0,0
146670.525,86.0239,-592.387,0,0
146930.85,86.6334,-588.559,0,0
147191.175,87.3497,-584.632,0,0
147451.5,88.1148,-580.67,0,0
147711.825,89.0003,-576.625,0,0
147972.15,90.047,-572.606,0,0
148232.475,91.1631,-568.656,0,0
148492.8,92.2771,-564.707,0,0
148753.125,93.3818,-560.66,0,0
149013.45,94.6285,-556.49,0,0
149273.775,96.0476,-552.23,0,0
149534.1,97.6941,-547.956,0,0
149794.425,99.6095,-543.712,0,0
150054.75,101.732,-539.696,0,0
150315.075,103.864,-535.844,0,0
150575.4,106.071,-532.05,0,0
150835.725,108.401,-528.35,0,0
151096.05,110.769,-524.773,0,0
151356.375,113.204,-521.282,0,0
151616.7,115.784,-517.897,0,0
151877.025,118.453,-514.758,0,0
152137.35,121.029,-511.906,0,0
152397.675,123.446,-509.168,0,0
152658.0,125.693,-506.487,0,0
152918.325,127.84,-503.735,0,0
153178.65,130.04,-500.997,0,0
153438.975,132.151,-498.398,0,0
153699.3,134.085,-495.726,0,0
153959.625,136.035,-492.945,0,0
154219.95,138.05,-490.174,0,0
154480,139.997,-487.555,0,0
154741,141.566,-484.769,0,0
155001,143.265,-481.508,0,0
155261,145.259,-478.205,0,0
155522,147.5,-475.041,0,0
155782,149.703,-472.022,0,0
156042,151.78,-469.021,0,0
156303,153.913,-465.92,0,0
156563,155.801,-462.56,0,0
156823,158.1,-458.746,0,0
157084,161.248,-454.94,0,0
157344,164.792,-451.866,0,0
157604,168.241,-449.346,0,0
157864,171.582,-447.35,0,0
158125,174.359,-445.886,0,0
158385,176.398,-444.481,0,0
158645,177.741,-442.639,0,0
158906,178.816,-440.335,0,0
159166,179.48,-437.684,0,0
159426,180.03,-433.858,0,0
159687,181.268,-429.519,0,0
159947,182.577,-424.963,0,0
160207,184.498,-419.471,0,0
160468,187.648,-414.213,0,0
160728,190.986,-409.629,0,0
160988,193.816,-405.112,0,0
161249,196.674,-399.703,0,0
161509,200.64,-393.708,0,0
161769,205.641,-388.209,0,0
162030,210.803,-383.461,0,0
162290,215.674,-378.802,0,0
162550,220.709,-373.567,0,0
162811,226.497,-368.244,0,0
163071,232.84,-362.97,0,0
163331,239.841,-357.736,0,0
163592,247.549,-352.494,0,0
163852,256.52,-347.664,0,0
164112,266.284,-343.914,0,0
164373,276.37,-341.152,0,0
164633,286.439,-339.206,0,0
164893,296.834,-337.73,0,0
165154,307.616,-337.046,0,0
165414,318.571,-337.352,0,0
165674,329.662,-338.81,0,0
165935,340.472,-341.242,0,0
166195,351.122,-344.332,0,0
166455,362.025,-348.665,0,0
166716,372.051,-355.014,0,0
166976,380.451,-362.145,0,0
167236,387.311,-369.403,0,0
167497,393.632,-376.281,0,0
167757,399.265,-383.72,0,0
168017,403.975,-391.108,0,0
168277,408.137,-398.554,0,0
168538,411.402,-406.256,0,0
168798,413.572,-413.323,0,0
169058,415.965,-419.979,0,0
169319,417.912,-427.519,0,0
169579,418.408,-435.171,0,0
169839,417.555,-442.463,0,0
170100,415.639,-448.322,0,0
170360.075,413.141,-452.794,0,0
170620.4,411.102,-455.82,0,0
170880.725,409.959,-458.43,0,0
171141.05,408.71,-461.082,0,0
171401.375,407.487,-462.714,0,0
171661.7,407.244,-464.067,0,0
171922.025,407.047,-465.714,0,0
172182.35,406.818,-466.81,0,0
172442.675,407.417,-467.23,0,0
172703.0,409.307,-467.999,0,0
172963.325,411.829,-469.994,0,0
173223.65,413.858,-473.201,0,0
173483.975,414.69,-476.845,0,0
173744.3,414.612,-479.677,0,0
174004.625,414.742,-481.541,0,0
174264.95,415.845,-482.913,0,0
174525.275,418.226,-485.103,0,0
174785.6,420.374,-489.148,0,0
175045.925,420.726,-493.339,0,0
175306.25,421.134,-496.075,0,0
175566.575,423.03,-499.269,0,0
175826.9,424.905,-504.254,0,0
176087.225,425.653,-510.452,0,0
176347.55,425.107,-517.111,0,0
176607.875,423.149,-524.219,0,0
176868.2,419.236,-531.182,0,0
177128.525,413.388,-537.063,0,0
177388.85,406.411,-540.77,0,0
177649.175,399.854,-542.42,0,0
177909.5,394.056,-543.326,0,0
178169.825,387.967,-543.869,0,0
178430.15,381.558,-543.048,0,0
178690.475,375.923,-540.303,0,0
178950.8,372.024,-536.701,0,0
179211.125,369.483,-533.154,0,0
179471.45,367.985,-530.176,0,0
179731.775,366.64,-527.52,0,0
179992.1,365.745,-524.665,0,0
180252.425,365.698,-522.207,0,0
180512.75,365.773,-520.251,0,0
180773.075,366.022,-518.387,0,0
181033.4,366.835,-516.757,0,0
181293.725,368.072,-515.586,0,0
181554.05,369.627,-515.289,0,0
181814.375,370.81,-515.81,0,0
182074.7,371.417,-516.84,0,0
182335.025,371.576,-517.836,0,0
182595.35,371.697,-519.079,0,0
182855.675,371.308,-520.897,0,0
183116.0,370.282,-522.721,0,0
183376.325,368.685,-524.846,0,0
183636.65,365.754,-526.82,0,0
183896.975,362.054,-527.574,0,0
184157.3,358.503,-527.24,0,0
184417.625,355.603,-526.558,0,0
184677.95,352.608,-526.193,0,0
184938.275,348.832,-525.386,0,0
185198.6,344.946,-523.729,0,0
185458.925,341.299,-521.297,0,0
185719.25,337.888,-518.433,0,0
185979.575,334.502,-514.871,0,0
186239.9,331.847,-510.402,0,0
186500,330.225,-505.543,0,0
186761,329.669,-500.858,0,0
187021,329.708,-496.831,0,0
187281,329.716,-493.307,0,0
187542,329.624,-489.78,0,0
187802,329.747,-486.24,0,0
188062,330.066,-482.923,0,0
188322,330.307,-479.803,0,0
188583,330.259,-476.603,0,0
188843,330.099,-473.048,0,0
189103,330.227,-468.912,0,0
189364,331.063,-464.524,0,0
189624,332.57,-460.289,0,0
189884,334.537,-456.433,0,0
190145,336.719,-453.029,0,0
190405,339.003,-450.107,0,0
190665,341.013,-447.599,0,0
190926,342.608,-445.243,0,0
191186,343.934,-442.483,0,0
191446,345.568,-439.532,0,0
191707,347.239,-436.791,0,0
191967,348.775,-433.977,0,0
192227,350.236,-430.964,0,0
192488,351.693,-427.577,0,0
192748,353.474,-423.755,0,0
193008,355.768,-419.748,0,0
193269,358.599,-415.737,0,0
193529,361.883,-411.965,0,0
193789,365.344,-408.373,0,0
194050,369.109,-404.899,0,0
194310,373.149,-401.476,0,0
194570,377.595,-398.335,0,0
194831,382.032,-395.519,0,0
195091,386.568,-392.399,0,0
195351,391.833,-389.314,0,0
195612,397.974,-386.481,0,0
195872,404.999,-384.513,0,0
196132,412.328,-384.083,0,0
196393,419.06,-384.835,0,0
196653,425.219,-386.255,0,0
196913,430.573,-388.496,0,0
197174,435.143,-390.846,0,0
197434,439.04,-393.299,0,0
197694,442.111,-395.754,0,0
197955,444.611,-397.779,0,0
198215,446.78,-399.446,0,0
198475,448.735,-400.784,0,0
198735,450.391,-401.924,0,0
198996,451.9,-402.478,0,0
199256,453.651,-402.719,0,0
199516,455.497,-402.838,0,0
199777,457.227,-402.966,0,0
200037,458.774,-402.943,0,0
200297,460.012,-402.434,0,0
200558,461.156,-401.446,0,0
200818,462.581,-399.441,0,0
201078,464.902,-396.841,0,0
201339,468.076,-394.354,0,0
201599,471.753,-391.831,0,0
201859,476.152,-389.305,0,0
202120,481.37,-387.142,0,0
202380.025,487.389,-385.519,0,0
202640.35,493.863,-385.242,0,0
202900.675,499.6,-385.955,0,0
203161.0,504.525,-386.49,0,0
203421.325,509.707,-386.464,0,0
203681.65,515.656,-386.651,0,0
203941.975,522.061,-387.629,0,0
204202.3,528.557,-389.562,0,0
204462.625,534.694,-392.554,0,0
204722.95,539.461,-396.045,0,0
204983.275,543.58,-399.354,0,0
205243.6,547.264,-402.662,0,0
205503.925,550.714,-406.073,0,0
205764.25,553.144,-408.853,0,0
206024.575,555.026,-411.264,0,0
206284.9,556.23,-412.659,0,0
206545.225,557.656,-412.193,0,0
206805.55,560.776,-410.631,0,0
207065.875,565.361,-409.42,0,0
207326.2,570.841,-408.848,0,0
207586.525,576.636,-408.782,0,0
207846.85,582.87,-408.873,0,0
208107.175,589.978,-409.418,0,0
208367.5,597.762,-410.977,0,0
208627.825,605.574,-413.809,0,0
208888.15,612.734,-417.408,0,0
209148.475,619.494,-421.254,0,0
209408.8,626.027,-425.316,0,0
209669.125,632.48,-429.46,0,0
209929.45,638.979,-434.214,0,0
210189.775,645.401,-439.279,0,0
210450.1,651.403,-444.814,0,0
210710.425,657.222,-450.579,0,0
210970.75,662.979,-456.441,0,0
211231.075,668.58,-462.681,0,0
211491.4,673.822,-469.304,0,0
211751.725,678.658,-476.054,0,0
212012.05,683.388,-482.888,0,0
212272.375,687.895,-489.763,0,0
212532.7,692.545,-496.84,0,0
212793.025,697.251,-504.411,0,0
213053.35,701.842,-512.632,0,0
213313.675,705.845,-521.673,0,0
213574.0,708.86,-531.053,0,0
213834.325,710.999,-540.248,0,0
214094.65,712.531,-549.144,0,0
214354.975,713.8,-557.599,0,0
214615.3,715.049,-565.779,0,0
214875.625,716.445,-573.962,0,0
215135.95,717.95,-582.242,0,0
215396.275,719.117,-591.106,0,0
215656.6,719.776,-600.201,0,0
215916.925,719.968,-609.303,0,0
216177.25,719.705,-618.373,0,0
216437.575,719.076,-627.453,0,0
216697.9,717.992,-636.163,0,0
216958.225,716.761,-644.769,0,0
217218.55,715.315,-653.285,0,0
217478.875,713.774,-661.712,0,0
217739.2,712.004,-670.236,0,0
217999.525,709.838,-678.834,0,0
218259.85,707.172,-687.347,0,0
218520,704.195,-695.531,0,0
218780,700.786,-703.285,0,0
219041,697.554,-710.786,0,0
219301,694.192,-718.021,0,0
219561,690.777,-725.28,0,0
219822,687.502,-732.135,0,0
220082,684.613,-739.133,0,0
220342,681.433,-746.52,0,0
220603,678.411,-754.322,0,0
220863,674.782,-762.446,0,0
221123,670.744,-770.744,0,0
221384,666.037,-779.38,0,0
221644,660.77,-788.21,0,0
221904,654.377,-796.974,0,0
222165,646.663,-805.474,0,0
222425,638.21,-812.935,0,0
222685,629.278,-819.541,0,0
222946,619.676,-825.477,0,0
223206,609.583,-829.941,0,0
223466,599.701,-833.035,0,0
223727,590.401,-835.039,0,0
223987,581.591,-836.462,0,0
224247,573.397,-837.289,0,0
224508,565.767,-837.51,0,0
224768,558.728,-837.466,0,0
225028,552.534,-836.818,0,0
225289,547.431,-836.238,0,0
225549,542.786,-836.051,0,0
225809,538.67,-836.258,0,0
226070,534.756,-836.706,0,0
226330,531.194,-837.532,0,0
226590,527.814,-838.743,0,0
226851,524.498,-840.472,0,0
227111,521.177,-842.794,0,0
227371,517.343,-845.82,0,0
227632,512.596,-848.876,0,0
227892,506.947,-851.46,0,0
228152,501.438,-853.338,0,0
228413,496.055,-854.921,0,0
228673,490.839,-856.426,0,0
228933,485.597,-857.688,0,0
229193,480.449,-858.931,0,0
229454,475.453,-860.086,0,0
229714,470.628,-861.518,0,0
229974,465.437,-863.096,0,0
230235,459.834,-864.571,0,0
230495,454.124,-865.724,0,0
230755,448.194,-866.621,0,0
231016,442.287,-867.181,0,0
231276,436.453,-867.423,0,0
231536,430.727,-867.375,0,0
231797,425.184,-867.156,0,0
232057,419.791,-866.753,0,0
232317,414.619,-866.296,0,0
232578,409.622,-865.788,0,0
232838,404.682,-865.401,0,0
233098,399.737,-864.917,0,0
233359,394.761,-864.33,0,0
233619,389.98,-863.61,0,0
233879,385.337,-862.895,0,0
234140,380.7,-862.183,0,0
234400,376.215,-861.352,0,0
234660.3,371.821,-860.745,0,0
234920.625,367.264,-860.203,0,0
235180.95,362.791,-859.751,0,0
235441.275,358.087,-859.18,0,0
235701.6,353.135,-858.747,0,0
235961.925,348.107,-857.971,0,0
236222.25,342.935,-856.949,0,0
236482.575,337.853,-855.582,0,0
236742.9,332.961,-854.14,0,0
237003.225,328.154,-852.671,0,0
237263.55,323.244,-851.161,0,0
237523.875,318.364,-849.396,0,0
237784.2,313.339,-847.537,0,0
238044.525,308.525,-845.289,0,0
238304.85,303.809,-842.861,0,0
238565.175,299.302,-840.436,0,0
238825.5,294.867,-837.885,0,0
239085.825,290.45,-835.199,0,0
239346.15,286.15,-832.311,0,0
239606.475,282.231,-829.276,0,0
239866.8,278.315,-826.139,0,0
240127.125,274.537,-823.071,0,0
240387.45,270.933,-820.065,0,0
240647.775,267.336,-816.933,0,0
240908.1,263.722,-813.458,0,0
241168.425,260.15,-809.789,0,0
241428.75,257.005,-805.974,0,0
241689.075,254.081,-801.953,0,0
241949.4,251.632,-797.905,0,0
242209.725,249.548,-793.827,0,0
242470.05,247.773,-789.879,0,0
242730.375,246.331,-786.16,0,0
242990.7,245.268,-782.639,0,0
243251.025,244.345,-779.551,0,0
243511.35,243.325,-776.91,0,0
243771.675,242.071,-774.463,0,0
244032.0,240.725,-772.109,0,0
244292.325,239.154,-769.727,0,0
244552.65,237.496,-767.317,0,0
244812.975,235.742,-764.72,0,0
245073.3,234.217,-761.98,0,0
245333.625,232.932,-759.302,0,0
245593.95,231.481,-756.55,0,0
245854.275,230.257,-753.794,0,0
246114.6,229.087,-750.941,0,0
246374.925,228.007,-748.326,0,0
246635.25,227.103,-745.718,0,0
246895.575,226.213,-743.223,0,0
247155.9,225.196,-740.797,0,0
247416.225,224.175,-738.355,0,0
247676.55,223.249,-735.779,0,0
247936.875,222.352,-733.057,0,0
248197.2,221.677,-730.333,0,0
248457.525,221.323,-727.54,0,0
248717.85,221.102,-724.957,0,0
248978.175,221.262,-722.629,0,0
249238.5,221.416,-720.657,0,0
249498.825,221.525,-719.044,0,0
249759.15,221.393,-717.426,0,0
250019.475,221.106,-715.995,0,0
250279.8,220.64,-714.655,0,0
250540,220.324,-713.373,0,0
250800,219.721,-712.183,0,0
251061,218.974,-710.932,0,0
251321,218.123,-709.705,0,0
251581,217.187,-708.437,0,0
251842,216.066,-707.102,0,0
252102,214.899,-705.749,0,0
252362,213.597,-704.285,0,0
252623,212.18,-702.596,0,0
252883,210.765,-700.734,0,0
253143,209.419,-698.796,0,0
253404,207.982,-696.739,0,0
253664,206.542,-694.467,0,0
253924,205.192,-691.896,0,0
254185,203.993,-689.189,0,0
254445,203.008,-686.34,0,0
254705,202.136,-683.351,0,0
254966,201.47,-680.346,0,0
255226,200.975,-677.294,0,0
255486,200.758,-674.129,0,0
255747,200.545,-670.773,0,0
256007,200.786,-667.389,0,0
256267,201.434,-663.978,0,0
256528,202.397,-660.885,0,0
256788,203.537,-658.024,0,0
257048,204.69,-655.363,0,0
257309,205.907,-652.75,0,0
257569,207.218,-650.235,0,0
257829,208.687,-647.732,0,0
258090,210.261,-645.358,0,0
258350,212.068,-643.127,0,0
258610,213.93,-641.005,0,0
258871,215.953,-638.952,0,0
259131,218.187,-636.98,0,0
259391,220.652,-635.123,0,0
259651,223.441,-633.531,0,0
259912,226.545,-632.312,0,0
260172,229.812,-631.397,0,0
260432,233.272,-630.883,0,0
260693,236.893,-630.982,0,0
260953,240.663,-631.756,0,0
261213,244.244,-633.393,0,0
261474,247.268,-635.723,0,0
261734,249.588,-638.437,0,0
261994,251.311,-641.269,0,0
262255,252.583,-644.228,0,0
262515,253.356,-647.301,0,0
262775,253.608,-650.336,0,0
263036,253.379,-653.217,0,0
263296,252.816,-656.003,0,0
263556,251.916,-658.621,0,0
263817,250.728,-661.068,0,0
264077,249.289,-663.314,0,0
264337,247.686,-665.285,0,0
264598,245.949,-667.089,0,0
264858,244.148,-668.865,0,0
265118,242.053,-670.504,0,0
265379,239.821,-672.204,0,0
265639,237.294,-673.588,0,0
265899,234.42,-674.716,0,0
266160,231.392,-675.546,0,0
266420,228.277,-675.952,0,0
266680.25,225.088,-676.037,0,0
266940.575,221.879,-675.737,0,0
267200.9,218.824,-675.005,0,0
267461.225,215.917,-674.03,0,0
267721.55,213.206,-672.908,0,0
267981.875,210.662,-671.61,0,0
268242.2,208.141,-670.152,0,0
268502.525,205.773,-668.46,0,0
268762.85,203.641,-666.613,0,0
269023.175,201.676,-664.643,0,0
269283.5,199.973,-662.583,0,0
269543.825,198.445,-660.428,0,0
269804.15,197.091,-658.293,0,0
270064.475,195.994,-656.188,0,0
270324.8,194.958,-653.98,0,0
270585.125,194.294,-651.804,0,0
270845.45,193.729,-649.774,0,0
271105.775,193.361,-647.898,0,0
271366.1,193.012,-646.134,0,0
271626.425,192.688,-644.438,0,0
271886.75,192.351,-642.783,0,0
272147.075,192.049,-641.338,0,0
272407.4,191.604,-639.859,0,0
272667.725,191.093,-638.376,0,0
272928.05,190.612,-636.693,0,0
273188.375,190.158,-634.973,0,0
273448.7,189.827,-633.13,0,0
273709.025,189.683,-631.158,0,0
273969.35,189.749,-629.303,0,0
274229.675,189.853,-627.48,0,0
274490.0,190.024,-625.619,0,0
274750.325,190.273,-623.7,0,0
275010.65,190.714,-621.792,0,0
275270.975,191.482,-619.852,0,0
275531.3,192.417,-618.014,0,0
275791.625,193.49,-616.398,0,0
276051.95,194.69,-614.865,0,0
276312.275,196.065,-613.514,0,0
276572.6,197.582,-612.33,0,0
276832.925,199.183,-611.439,0,0
277093.25,200.793,-610.786,0,0
277353.575,202.393,-610.308,0,0
277613.9,203.961,-609.994,0,0
277874.225,205.597,-609.867,0,0
278134.55,207.237,-609.962,0,0
278394.875,208.856,-610.284,0,0
278655.2,210.426,-610.928,0,0
278915.525,211.805,-611.779,0,0
279175.85,212.993,-612.874,0,0
279436.175,214.001,-614.077,0,0
279696.5,214.883,-615.514,0,0
279956.825,215.398,-617.084,0,0
280217.15,215.724,-618.713,0,0
280477.475,215.645,-620.412,0,0
280737.8,215.343,-621.955,0,0
280998.125,214.871,-623.486,0,0
281258.45,214.23,-624.956,0,0
281518.775,213.385,-626.381,0,0
281779.1,212.281,-627.706,0,0
282039.425,211.036,-628.843,0,0
282299.75,209.666,-629.789,0,0
282560,208.246,-630.586,0,0
282820,206.766,-631.265,0,0
283081,205.234,-631.831,0,0
283341,203.623,-632.205,0,0
283601,202.04,-632.473,0,0
283862,200.444,-632.554,0,0
284122,198.847,-632.644,0,0
284382,197.251,-632.605,0,0
284643,195.576,-632.387,0,0
284903,193.956,-632.003,0,0
285163,192.531,-631.535,0,0
285424,191.051,-631.014,0,0
285684,189.654,-630.4,0,0
285944,188.31,-629.773,0,0
286205,186.986,-629.023,0,0
286465,185.795,-628.173,0,0
286725,184.641,-627.317,0,0
286986,183.581,-626.415,0,0
287246,182.606,-625.492,0,0
287506,181.694,-624.534,0,0
287767,180.854,-623.595,0,0
288027,180.073,-622.619,0,0
288287,179.335,-621.573,0,0
288548,178.733,-620.49,0,0
288808,178.34,-619.432,0,0
289068,178.074,-618.465,0,0
289329,177.916,-617.666,0,0
289589,177.761,-616.986,0,0
289849,177.665,-616.455,0,0
290109,177.45,-616.048,0,0
290370,177.167,-615.72,0,0
290630,176.839,-615.462,0,0
290890,176.355,-615.279,0,0
291151,175.834,-615.126,0,0
291411,175.158,-614.952,0,0
291671,174.366,-614.761,0,0
291932,173.44,-614.441,0,0
292192,172.429,-614.023,0,0
292452,171.41,-613.412,0,0
292713,170.431,-612.653,0,0
292973,169.538,-611.755,0,0
293233,168.699,-610.706,0,0
293494,168.029,-609.668,0,0
293754,167.444,-608.525,0,0
294014,166.977,-607.314,0,0
294275,166.75,-606.08,0,0
294535,166.676,-604.863,0,0
294795,166.841,-603.721,0,0
295056,167.142,-602.854,0,0
295316,167.493,-602.071,0,0
295576,167.953,-601.486,0,0
295837,168.381,-601.097,0,0
296097,168.804,-600.816,0,0
296357,169.129,-600.746,0,0
296618,169.406,-600.77,0,0
296878,169.575,-600.908,0,0
297138,169.652,-601.115,0,0
297399,169.608,-601.388,0,0
297659,169.493,-601.702,0,0
297919,169.264,-602.021,0,0
298180,168.936,-602.362,0,0
298440,168.542,-602.698,0,0
298700.2,168.081,-603.056,0,0
298960.525,167.559,-603.422,0,0
299220.85,166.921,-603.818,0,0
299481.175,166.148,-604.196,0,0
299741.5,165.341,-604.51,0,0
300001.825,164.426,-604.81,0,0
300262.15,163.476,-605.034,0,0
300522.475,162.406,-605.201,0,0
300782.8,161.314,-605.331,0,0
301043.125,160.148,-605.408,0,0
301303.45,158.93,-605.44,0,0
301563.775,157.663,-605.347,0,0
301824.1,156.36,-605.177,0,0
302084.425,155.063,-604.87,0,0
302344.75,153.725,-604.504,0,0
302605.075,152.47,-604.032,0,0
302865.4,151.229,-603.516,0,0
303125.725,150.051,-602.944,0,0
303386.05,148.901,-602.349,0,0
303646.375,147.751,-601.71,0,0
303906.7,146.627,-601.036,0,0
304167.025,145.514,-600.314,0,0
304427.35,144.405,-599.549,0,0
304687.675,143.367,-598.709,0,0
304948.0,142.354,-597.835,0,0
305208.325,141.434,-596.939,0,0
305468.65,140.561,-596.035,0,0
305728.975,139.712,-595.131,0,0
305989.3,138.889,-594.225,0,0
306249.625,138.1,-593.288,0,0
306509.95,137.342,-592.332,0,0
306770.275,136.599,-591.348,0,0
307030.6,135.953,-590.365,0,0
307290.925,135.361,-589.369,0,0
307551.25,134.812,-588.413,0,0
307811.575,134.272,-587.451,0,0
308071.9,133.828,-586.479,0,0
308332.225,133.436,-585.545,0,0
308592.55,133.096,-584.649,0,0
308852.875,132.789,-583.811,0,0
309113.2,132.524,-583.039,0,0
309373.525,132.286,-582.339,0,0
309633.85,132.039,-581.685,0,0
309894.175,131.749,-581.118,0,0
310154.5,131.469,-580.642,0,0
310414.825,131.161,-580.227,0,0
310675.15,130.785,-579.843,0,0
310935.475,130.306,-579.507,0,0
311195.8,129.705,-579.198,0,0
311456.125,129.04,-578.848,0,0
311716.45,128.332,-578.482,0,0
311976.775,127.523,-578.063,0,0
312237.1,126.655,-577.574,0,0
312497.425,125.731,-577.037,0,0
312757.75,124.746,-576.411,0,0
313018.075,123.762,-575.648,0,0
313278.4,122.772,-574.793,0,0
313538.725,121.829,-573.838,0,0
313799.05,120.944,-572.8,0,0
314059.375,120.104,-571.679,0,0
314319.7,119.35,-570.505,0,0
314580,118.654,-569.277,0,0
314840,118.061,-567.953,0,0
315101,117.615,-566.622,0,0
315361,117.22,-565.381,0,0
315621,116.99,-564.004,0,0
315882,116.856,-562.815,0,0
316142,116.644,-561.532,0,0
316402,116.723,-560.459,0,0
316663,116.635,-559.368,0,0
316923,116.685,-558.361,0,0
317183,116.769,-557.387,0,0
317444,116.836,-556.472,0,0
317704,116.968,-555.623,0,0
317964,117.037,-554.899,0,0
318225,117.114,-554.067,0,0
318485,117.242,-553.291,0,0
318745,117.332,-552.66,0,0
319006,117.404,-552.046,0,0
319266,117.465,-551.469,0,0
319526,117.502,-550.876,0,0
319787,117.477,-550.339,0,0
320047,117.392,-549.712,0,0
320307,117.335,-549.113,0,0
320567,117.283,-548.356,0,0
320828,117.403,-547.75,0,0
321088,117.437,-547.025,0,0
321348,117.6,-546.372,0,0
321609,117.836,-545.739,0,0
321869,118.131,-545.229,0,0
322129,118.476,-544.694,0,0
322390,118.853,-544.368,0,0
322650,119.27,-544.18,0,0
322910,119.646,-543.998,0,0
323171,119.974,-544.026,0,0
323431,120.175,-544.059,0,0
323691,120.388,-544.295,0,0
323952,120.426,-544.552,0,0
324212,120.397,-544.812,0,0
324472,120.229,-545.215,0,0
324733,119.967,-545.459,0,0
324993,119.583,-545.813,0,0
325253,119.184,-546.166,0,0
325514,118.565,-546.382,0,0
325774,118.093,-546.635,0,0
326034,117.339,-546.95,0,0
326295,116.599,-547.077,0,0
326555,115.794,-547.216,0,0
326815,114.893,-547.197,0,0
327076,113.948,-547.227,0,0
327336,113.044,-547.12,0,0
327596,112.093,-546.95,0,0
327857,111.104,-546.746,0,0
328117,110.101,-546.381,0,0
328377,109.153,-546.05,0,0
328638,108.196,-545.616,0,0
328898,107.257,-545.168,0,0
329158,106.463,-544.695,0,0
329419,105.532,-544.255,0,0
329679,104.735,-543.788,0,0
329939,103.887,-543.254,0,0
330200,103.079,-542.713,0,0
330460,102.252,-542.147,0,0
330720.15,101.43,-541.681,0,0
330980.475,100.544,-541.099,0,0
331240.8,99.5988,-540.538,0,0
331501.125,98.7436,-539.994,0,0
331761.45,97.8178,-539.397,0,0
332021.775,96.9449,-538.681,0,0
332282.1,96.0748,-538.006,0,0
332542.425,95.1733,-537.175,0,0
332802.75,94.2571,-536.493,0,0
333063.075,93.4049,-535.666,0,0
333323.4,92.474,-534.87,0,0
333583.725,91.5815,-534.047,0,0
333844.05,90.7622,-533.108,0,0
334104.375,89.9127,-532.211,0,0
334364.7,89.0929,-531.319,0,0
334625.025,88.2057,-530.23,0,0
334885.35,87.4046,-529.297,0,0
335145.675,86.6014,-528.148,0,0
335406.0,85.8788,-527.015,0,0
335666.325,85.0886,-525.868,0,0
335926.65,84.4451,-524.634,0,0
336186.975,83.8699,-523.509,0,0
336447.3,83.2855,-522.236,0,0
336707.625,82.7224,-521.02,0,0
336967.95,82.2886,-519.697,0,0
337228.275,81.8308,-518.467,0,0
337488.6,81.4476,-517.222,0,0
337748.925,81.0576,-516.088,0,0
338009.25,80.7473,-514.908,0,0
338269.575,80.5171,-513.69,0,0
338529.9,80.093,-512.495,0,0
338790.225,79.7067,-511.319,0,0
339050.55,79.395,-510.065,0,0
339310.875,79.112,-508.776,0,0
339571.2,78.8306,-507.424,0,0
339831.525,78.6509,-506.069,0,0
340091.85,78.51,-504.651,0,0
340352.175,78.4927,-503.24,0,0
340612.5,78.5138,-501.843,0,0
340872.825,78.6948,-500.534,0,0
341133.15,78.9036,-499.083,0,0
341393.475,79.1676,-497.834,0,0
341653.8,79.5591,-496.551,0,0
341914.125,80.0426,-495.261,0,0
342174.45,80.5413,-494.248,0,0
342434.775,81.1494,-493.256,0,0
342695.1,81.7364,-492.346,0,0
342955.425,82.3474,-491.567,0,0
343215.75,82.9006,-490.87,0,0
343476.075,83.451,-490.292,0,0
343736.4,83.9529,-489.775,0,0
343996.725,84.4665,-489.347,0,0
344257.05,84.8874,-488.972,0,0
344517.375,85.2271,-488.636,0,0
344777.7,85.5423,-488.402,0,0
345038.025,85.7073,-488.104,0,0
345298.35,85.8489,-487.898,0,0
345558.675,85.9315,-487.622,0,0
345819.0,85.873,-487.392,0,0
346079.325,85.9025,-487.083,0,0
346339.65,85.7251,-486.832,0,0
346599.975,85.6499,-486.557,0,0
346860,85.4456,-486.152,0,0
347121,85.1525,-485.846,0,0
347381,84.8785,-485.365,0,0
347641,84.667,-484.891,0,0
347902,84.3389,-484.364,0,0
348162,83.99,-483.773,0,0
348422,83.7223,-483.09,0,0
348683,83.5029,-482.313,0,0
348943,83.2586,-481.602,0,0
349203,83.1408,-480.732,0,0
349464,83.0093,-479.899,0,0
349724,82.9695,-479.054,0,0
349984,83.1076,-478.12,0,0
350245,83.2637,-477.324,0,0
350505,83.4301,-476.454,0,0
350765,83.7075,-475.75,0,0
351025,84.1216,-475.078,0,0
351286,84.4261,-474.545,0,0
351546,84.8053,-474.053,0,0
351806,85.0104,-473.654,0,0
352067,85.4179,-473.271,0,0
352327,85.7012,-472.995,0,0
352587,85.8844,-472.764,0,0
352848,86.0868,-472.529,0,0
353108,86.2016,-472.472,0,0
353368,86.2467,-472.313,0,0
353629,86.1988,-472.231,0,0
353889,86.0355,-472.048,0,0
354149,85.8962,-471.905,0,0
354410,85.6992,-471.683,0,0
354670,85.4256,-471.453,0,0
354930,85.1393,-471.165,0,0
355191,84.9259,-470.854,0,0
355451,84.5831,-470.504,0,0
355711,84.3019,-470.166,0,0
355972,83.9873,-469.796,0,0
356232,83.5967,-469.365,0,0
356492,83.235,-468.886,0,0
356753,82.8049,-468.344,0,0
357013,82.489,-467.737,0,0
357273,82.154,-467.148,0,0
357534,81.8652,-466.485,0,0
357794,81.6023,-465.719,0,0
358054,81.4618,-465.045,0,0
358315,81.3308,-464.269,0,0
358575,81.2477,-463.564,0,0
358835,81.2526,-462.889,0,0
359096,81.2568,-462.194,0,0
359356,81.2608,-461.537,0,0
359616,81.2922,-461.009,0,0
359877,81.3553,-460.464,0,0
360137,81.3562,-459.93,0,0
360397,81.2953,-459.46,0,0
360658,81.2603,-459.065,0,0
360918,81.1648,-458.518,0,0
361178,81.0753,-458.061,0,0
361438,80.971,-457.62,0,0
361699,80.7598,-457.05,0,0
361959,80.5617,-456.502,0,0
362219,80.4052,-455.867,0,0
362480,80.2619,-455.132,0,0
362740.1,80.1577,-454.43,0,0
363000.425,80.1673,-453.655,0,0
363260.75,80.2842,-452.863,0,0
363521.075,80.3666,-452.098,0,0
363781.4,80.5998,-451.402,0,0
364041.725,80.7876,-450.765,0,0
364302.05,81.1216,-450.117,0,0
364562.375,81.3789,-449.612,0,0
364822.7,81.7318,-449.139,0,0
365083.025,82.1072,-448.715,0,0
365343.35,82.4622,-448.467,0,0
365603.675,82.7781,-448.2,0,0
365864.0,83.104,-448.09,0,0
366124.325,83.2701,-447.962,0,0
366384.65,83.4463,-447.93,0,0
366644.975,83.5074,-447.932,0,0
366905.3,83.517,-447.988,0,0
367165.625,83.3457,-448.096,0,0
367425.95,83.078,-448.135,0,0
367686.275,82.7309,-448.098,0,0
367946.6,82.2744,-448.013,0,0
368206.925,81.7022,-447.786,0,0
368467.25,81.1275,-447.465,0,0
368727.575,80.5443,-446.929,0,0
368987.9,80.0591,-446.347,0,0
369248.225,79.5316,-445.6,0,0
369508.55,79.2222,-444.811,0,0
369768.875,78.9687,-443.947,0,0
370029.2,78.8434,-443.085,0,0
370289.525,78.9046,-442.213,0,0
370549.85,79.0549,-441.398,0,0
370810.175,79.24,-440.726,0,0
371070.5,79.581,-440.103,0,0
371330.825,79.8748,-439.647,0,0
371591.15,80.1914,-439.284,0,0
371851.475,80.4233,-438.988,0,0
372111.8,80.6402,-438.769,0,0
372372.125,80.7578,-438.635,0,0
372632.45,80.7885,-438.511,0,0
372892.775,80.6994,-438.496,0,0
373153.1,80.5881,-438.389,0,0
373413.425,80.2998,-438.33,0,0
373673.75,79.9753,-438.133,0,0
373934.075,79.595,-437.821,0,0
374194.4,79.2477,-437.49,0,0
374454.725,78.84,-437.074,0,0
374715.05,78.4512,-436.615,0,0
374975.375,78.1127,-436.121,0,0
375235.7,77.7952,-435.553,0,0
375496.025,77.4584,-434.936,0,0
375756.35,77.1869,-434.329,0,0
376016.675,76.9561,-433.695,0,0
376277.0,76.7872,-432.964,0,0
376537.325,76.5754,-432.293,0,0
376797.65,76.4314,-431.587,0,0
377057.975,76.3361,-430.892,0,0
377318.3,76.2445,-430.203,0,0
377578.625,76.2766,-429.416,0,0
377838.95,76.3009,-428.688,0,0
378099.275,76.3738,-428.018,0,0
378359.6,76.5235,-427.293,0,0
378619.925,76.6972,-426.663,0,0
378880,76.996,-425.997,0,0
379141,77.2799,-425.495,0,0
379401,77.5739,-425.057,0,0
379661,77.873,-424.68,0,0
379922,78.0716,-424.387,0,0
380182,78.2425,-424.092,0,0
380442,78.3967,-423.847,0,0
380703,78.3997,-423.661,0,0
380963,78.4815,-423.437,0,0
381223,78.4474,-423.193,0,0
381483,78.4532,-422.889,0,0
381744,78.3872,-422.622,0,0
382004,78.3323,-422.338,0,0
382264,78.3035,-422.037,0,0
382525,78.299,-421.718,0,0
382785,78.2353,-421.456,0,0
383045,78.2194,-421.256,0,0
383306,78.1014,-421.056,0,0
383566,77.95,-420.824,0,0
383826,77.7365,-420.593,0,0
384087,77.5291,-420.306,0,0
384347,77.3548,-420.034,0,0
384607,77.0419,-419.708,0,0
384868,76.7538,-419.4,0,0
385128,76.4738,-419.012,0,0
385388,76.1853,-418.565,0,0
385649,75.8867,-418.176,0,0
385909,75.6157,-417.687,0,0
386169,75.2791,-417.22,0,0
386430,74.9652,-416.693,0,0
386690,74.6619,-416.143,0,0
386950,74.3905,-415.608,0,0
387211,74.0568,-415.033,0,0
387471,73.7597,-414.369,0,0
387731,73.4758,-413.7,0,0
387992,73.2467,-412.955,0,0
388252,73.0251,-412.217,0,0
388512,72.8339,-411.39,0,0
388773,72.6833,-410.59,0,0
389033,72.5896,-409.776,0,0
389293,72.5257,-408.949,0,0
389554,72.4733,-408.068,0,0
389814,72.4638,-407.173,0,0
390074,72.5703,-406.282,0,0
390335,72.7134,-405.34,0,0
390595,72.9135,-404.45,0,0
390855,73.1345,-403.613,0,0
391116,73.4694,-402.811,0,0
391376,73.8737,-402.004,0,0
391636,74.2839,-401.239,0,0
391896,74.7045,-400.605,0,0
392157,75.184,-399.975,0,0
392417,75.6635,-399.443,0,0
392677,76.1203,-398.905,0,0
392938,76.5872,-398.443,0,0
393198,77.0105,-398.016,0,0
393458,77.4316,-397.571,0,0
393719,77.8681,-397.192,0,0
393979,78.3233,-396.794,0,0
394239,78.7004,-396.483,0,0
394500,79.1554,-396.157,0,0
394760.05,79.5978,-395.843,0,0
395020.375,80.0214,-395.579,0,0
395280.7,80.4901,-395.371,0,0
395541.025,80.9389,-395.178,0,0
395801.35,81.3667,-395.057,0,0
396061.675,81.7635,-394.93,0,0
396322.0,82.1409,-394.898,0,0
396582.325,82.518,-394.859,0,0
396842.65,82.8023,-394.87,0,0
397102.975,83.0612,-394.897,0,0
397363.3,83.3067,-394.898,0,0
397623.625,83.5187,-394.962,0,0
397883.95,83.7606,-395.064,0,0
398144.275,83.9068,-395.132,0,0
398404.6,83.9979,-395.223,0,0
398664.925,84.1005,-395.338,0,0
398925.25,84.1324,-395.487,0,0
399185.575,84.1916,-395.62,0,0
399445.9,84.1566,-395.741,0,0
399706.225,84.0396,-395.883,0,0
399966.55,83.885,-395.976,0,0
400006.6,83.8469,-396.014,0,0