File: Accelerated corrosion test data/2025-10-22_06-00-04/sample_5.csv
Frequency (Hz),Impedance (ohms),Phase (Radians),Temperature (C),Humidity (%)
10000.0,3078.03,-2405.17,0,0
10260.325,3015.13,-2380.04,0,0
10520.65,2968.5,-2368.07,0,0
10780.975,2924.09,-2358.61,0,0
11041.3,2883.36,-2350.57,0,0
11301.625,2844.48,-2343.47,0,0
11561.95,2807.06,-2336.06,0,0
11822.275,2769.39,-2329,0,0
12082.6,2733.5,-2322.73,0,0
12342.925,2697.22,-2314.61,0,0
12603.25,2664.59,-2309.3,0,0
12863.575,3125.94,-3053.27,0,0
13123.9,3074.34,-3065.3,0,0
13384.225,3027.78,-3060.51,0,0
13644.55,2985,-3063.27,0,0
13904.875,2939.26,-3039.29,0,0
14165.2,2893.86,-3031.44,0,0
14425.525,2424.19,-2245.53,0,0
14685.8,2394.96,-2238.31,0,0
14946.175,2349.62,-2203.69,0,0
15206.5,2272.72,-2132.77,0,0
15466.825,2241.15,-2125.72,0,0
15727.15,2223.81,-2122.57,0,0
15987.5,2201.51,-2118.94,0,0
16247.8,2178.1,-2112.93,0,0
16508.125,2154.6,-2107.12,0,0
16768.45,2131.62,-2101.15,0,0
17028.775,35.9537,0.232352,0,0
17289.1,439.492,-51.0109,0,0
17549.425,566.279,-79.5979,0,0
17809.75,610.645,-93.726,0,0
18070.075,807.612,-169.164,0,0
18330.4,981.294,-258.495,0,0
18590.725,1037.77,-294.563,0,0
18851.05,1076.99,-322.596,0,0
19111.375,1157.37,-383.232,0,0
19371.7,1267.47,-477.444,0,0
19632.025,1394.94,-607.081,0,0
19892.35,1519.42,-764.562,0,0
20152.675,1678.77,-1038.9,0,0
20413.0,1708.4,-1125.94,0,0
20673.3,1840.28,-2017.62,0,0
20933.65,1822.57,-2012.94,0,0
21193.975,1804.1,-2007.85,0,0
21454.3,1786.39,-1998.33,0,0
21714.625,1769.42,-1991.18,0,0
21974.9,1750.94,-1987.73,0,0
22235.275,1734.43,-1983.95,0,0
22495.6,1717.56,-1976.92,0,0
22755.925,1701.11,-1970.51,0,0
23016.25,1684.6,-1962.66,0,0
23276.6,1668.79,-1957.32,0,0
23536.9,35.0681,0.414338,0,0
23797.225,1813.47,-1340.95,0,0
24057.55,1865.67,-1736.93,0,0
24317.875,1818.6,-2092.35,0,0
24578.2,1680.76,-2600.08,0,0
24838.525,1658.58,-2591.59,0,0
25098.85,1637.72,-2582.07,0,0
25359.175,1618.48,-2569.19,0,0
25619.5,1599.8,-2556.09,0,0
25879.8,1586.05,-2533.32,0,0
26140.1,1567.52,-2526.44,0,0
26400.5,1549.24,-2514.7,0,0
26660.8,1531.62,-2501.91,0,0
26921.1,1514.34,-2489.58,0,0
27181.4,1497.46,-2477.32,0,0
27441.8,1480.48,-2465.53,0,0
27702.1,1463.95,-2453.28,0,0
27962.4,1447.55,-2441.49,0,0
28222.7,1431.55,-2429.35,0,0
28483.1,1413.93,-2420.97,0,0
28743.4,1397.55,-2410.48,0,0
29003.7,1383.52,-2396.18,0,0
29264,1366.92,-2387.1,0,0
29524.4,1352.06,-2375.61,0,0
29784.7,1337.19,-2364.07,0,0
30045,1322.96,-2352.74,0,0
30305.3,1309.43,-2340.45,0,0
30565.7,1295.32,-2329.21,0,0
30826,1281.53,-2318.21,0,0
31086.3,1268.33,-2306.64,0,0
31346.6,1255.16,-2295.59,0,0
31607,1242.15,-2284.59,0,0
31867.3,1228.99,-2274.1,0,0
32127.6,1216.35,-2263.19,0,0
32387.9,1204.31,-2251.67,0,0
32648.3,1192.88,-2239.9,0,0
32908.6,1182.03,-2227.4,0,0
33168.9,1172.89,-2212.92,0,0
33429.2,1163.03,-2199.9,0,0
33689.6,1156.37,-2182.09,0,0
33949.9,1138.72,-2180.99,0,0
34210.2,1124.8,-2174.52,0,0
34470.5,1123.13,-2151.12,0,0
34730.9,1107.37,-2147.65,0,0
34991.2,1098.72,-2135.3,0,0
35251.5,1089.26,-2123.29,0,0
35511.8,1072.46,-2122.32,0,0
35772.2,1060.44,-2114.87,0,0
36032.5,1050.62,-2105,0,0
36292.8,1040.91,-2094.96,0,0
36553.1,1032.58,-2083.2,0,0
36813.5,1022.29,-2074.42,0,0
37073.8,1012.93,-2064.61,0,0
37334.1,1005.35,-2052.65,0,0
37594.4,1002.75,-2034.93,0,0
37854.8,991.085,-2028.78,0,0
38115.1,980.092,-2021.9,0,0
38375.4,971.401,-2012.57,0,0
38635.7,965.954,-1999.03,0,0
38896.1,963.296,-1982.53,0,0
39156.4,950.863,-1978.44,0,0
39416.7,947.187,-1963.91,0,0
39677,955.083,-1935.53,0,0
39937.4,949.314,-1922.8,0,0
40197.7,925.187,-1934.49,0,0
40458,919.745,-1922.61,0,0
40718.3,920.283,-1903.16,0,0
40978.7,913.658,-1893.72,0,0
41239,884.235,-1912.45,0,0
41499.3,888.686,-1889.73,0,0
41759.6,870.17,-1894.19,0,0
42020,861.728,-1887.2,0,0
42280.275,853.018,-1882.63,0,0
42540.6,846.797,-1873.42,0,0
42800.925,838.448,-1866.33,0,0
43061.25,831.275,-1858.48,0,0
43321.575,824.259,-1850.56,0,0
43581.9,817.806,-1842.09,0,0
43842.225,811.99,-1833.26,0,0
44102.55,806.669,-1823.89,0,0
44362.875,800.761,-1815.09,0,0
44623.2,796.676,-1804.63,0,0
44883.525,790.66,-1796.87,0,0
45143.85,783.019,-1790.1,0,0
45404.175,777.018,-1782.24,0,0
45664.5,770.739,-1774.83,0,0
45924.825,764.058,-1767.98,0,0
46185.15,758.557,-1760.16,0,0
46445.475,753.392,-1751.85,0,0
46705.8,748.209,-1743.92,0,0
46966.125,742.683,-1736.49,0,0
47226.45,738.628,-1727.55,0,0
47486.775,730.684,-1722.86,0,0
47747.1,725.834,-1715.13,0,0
48007.425,720.013,-1708.44,0,0
48267.75,715.327,-1700.62,0,0
48528.075,710.832,-1692.85,0,0
48788.4,705.891,-1685.6,0,0
49048.725,700.15,-1679.45,0,0
49309.05,695.579,-1672.18,0,0
49569.375,690.697,-1665.51,0,0
49829.7,685.864,-1658.96,0,0
50090.025,681.075,-1652.49,0,0
50350.35,677.066,-1645.1,0,0
50610.675,673.417,-1637.75,0,0
50871.0,668.99,-1631.05,0,0
51131.325,666.028,-1622.81,0,0
51391.65,661.921,-1615.93,0,0
51651.975,659.418,-1607.68,0,0
51912.3,654.596,-1601.73,0,0
52172.625,649.981,-1595.55,0,0
52432.95,646.216,-1588.56,0,0
52693.275,640.152,-1583.94,0,0
52953.6,639.826,-1573.69,0,0
53213.925,634.988,-1567.98,0,0
53474.25,635.09,-1557.64,0,0
53734.575,630.999,-1551.45,0,0
53994.9,631.906,-1540.24,0,0
54255.225,636.576,-1525.44,0,0
54515.55,647.528,-1504.26,0,0
54775.875,643.24,-1498.68,0,0
55036.2,639.169,-1492.71,0,0
55296.525,639.685,-1482.16,0,0
55556.85,637.812,-1474.79,0,0
55817.175,622.837,-1480.9,0,0
56077.5,629.814,-1464.31,0,0
56337.825,622.413,-1462.92,0,0
56598.15,615.201,-1460.95,0,0
56858.475,616.672,-1450.61,0,0
57118.8,612.149,-1446.19,0,0
57379.125,600.515,-1448.71,0,0
57639.45,595.965,-1444.39,0,0
57899.775,590.715,-1440.79,0,0
58160.1,592.315,-1430.92,0,0
58420.4,596.477,-1417.98,0,0
58680.7,606.018,-1399.19,0,0
58941.1,588.2,-1408.86,0,0
59201.4,585.841,-1402.36,0,0
59461.7,571.227,-1407.8,0,0
59722,558.029,-1411.79,0,0
59982.4,561.339,-1400.33,0,0
60242.7,554.41,-1398.47,0,0
60503,547.8,-1396.09,0,0
60763.3,544.079,-1391.18,0,0
61023.7,538.267,-1388.25,0,0
61284,535.695,-1382.28,0,0
61544.3,530.531,-1379.04,0,0
61804.6,525.938,-1375.17,0,0
62065,522.53,-1370.22,0,0
62325.3,515.21,-1368.94,0,0
62585.6,509.672,-1366.04,0,0
62845.9,506.66,-1361.41,0,0
63106.3,503.578,-1356.69,0,0
63366.6,489.654,-1361.25,0,0
63626.9,492.21,-1351.92,0,0
63887.2,492.501,-1344.68,0,0
64147.6,493.439,-1336.86,0,0
64407.9,494.807,-1328.53,0,0
64668.2,494.487,-1321.69,0,0
64928.5,491.033,-1317.71,0,0
65188.9,491.826,-1309.94,0,0
65449.2,487.345,-1306.69,0,0
65709.5,483.313,-1303.15,0,0
65969.8,480.307,-1298.56,0,0
66230.2,477.194,-1294.01,0,0
66490.5,473.495,-1290.41,0,0
66750.8,472.611,-1284.24,0,0
67011.1,468.683,-1281.06,0,0
67271.5,465.936,-1276.85,0,0
67531.8,462.837,-1272.76,0,0
67792.1,460.194,-1268.57,0,0
68052.4,461.59,-1261.23,0,0
68312.8,458.659,-1257.28,0,0
68573.1,452.719,-1255.79,0,0
68833.4,448.625,-1252.67,0,0
69093.7,446.208,-1248.67,0,0
69354.1,444.022,-1244.25,0,0
69614.4,441.741,-1239.89,0,0
69874.7,440.174,-1235.07,0,0
70135,438.267,-1230.7,0,0
70395.4,434.671,-1228.04,0,0
70655.7,433.994,-1222.83,0,0
70916,429.943,-1220.16,0,0
71176.3,427.61,-1216.37,0,0
71436.7,425.601,-1212.14,0,0
71697,421.387,-1209.87,0,0
71957.3,421.071,-1204.37,0,0
72217.6,419.033,-1200.26,0,0
72478,415.599,-1197.25,0,0
72738.3,414.185,-1193,0,0
72998.6,411.983,-1189.22,0,0
73258.9,409.969,-1185.43,0,0
73519.3,407.367,-1182.04,0,0
73779.6,405.578,-1178.13,0,0
74039.9,409.154,-1170.14,0,0
74300.225,402.209,-1170.97,0,0
74560.55,401.078,-1166.83,0,0
74820.875,399.311,-1163.08,0,0
75081.2,395.97,-1160.65,0,0
75341.525,394.248,-1156.84,0,0
75601.85,391.495,-1153.75,0,0
75862.175,388.95,-1150.42,0,0
76122.5,386.132,-1147.3,0,0
76382.825,384.628,-1143.26,0,0
76643.15,382.664,-1139.48,0,0
76903.475,379.895,-1136.37,0,0
77163.8,377.517,-1132.97,0,0
77424.125,375.56,-1129.2,0,0
77684.45,374.317,-1124.94,0,0
77944.775,371.122,-1122.25,0,0
78205.1,368.572,-1119.12,0,0
78465.425,366.839,-1115.46,0,0
78725.75,365.159,-1111.84,0,0
78986.075,362.722,-1108.64,0,0
79246.4,360.522,-1105.51,0,0
79506.725,358.982,-1101.84,0,0
79767.05,356.451,-1099.04,0,0
80027.375,354.491,-1095.87,0,0
80287.7,352.979,-1092.25,0,0
80548.025,351.485,-1088.48,0,0
80808.35,349.476,-1085.2,0,0
81068.675,347.901,-1081.69,0,0
81329.0,345.295,-1078.85,0,0
81589.325,343.679,-1075.13,0,0
81849.65,342.234,-1071.41,0,0
82109.975,339.838,-1068.35,0,0
82370.3,338.03,-1064.88,0,0
82630.625,337.001,-1060.89,0,0
82890.95,334.231,-1057.99,0,0
83151.275,332.751,-1054.29,0,0
83411.6,332.192,-1050.05,0,0
83671.925,329.424,-1047.37,0,0
83932.25,327.662,-1043.95,0,0
84192.575,325.657,-1040.76,0,0
84452.9,324.447,-1037.08,0,0
84713.225,322.924,-1033.6,0,0
84973.55,322.06,-1029.78,0,0
85233.875,320.04,-1027.01,0,0
85494.2,317.962,-1024.1,0,0
85754.525,315.999,-1021.12,0,0
86014.85,314.913,-1017.53,0,0
86275.175,313.502,-1014.14,0,0
86535.5,312.21,-1010.82,0,0
86795.825,310.123,-1007.82,0,0
87056.15,308.015,-1004.93,0,0
87316.475,305.94,-1001.8,0,0
87576.8,305.228,-997.785,0,0
87837.125,304.155,-994.129,0,0
88097.45,302.789,-990.518,0,0
88357.775,301.195,-987.048,0,0
88618.1,298.817,-984.412,0,0
88878.425,297.455,-980.854,0,0
89138.75,296.604,-977.299,0,0
89399.075,295.568,-973.944,0,0
89659.4,294.442,-970.757,0,0
89919.725,293.381,-967.575,0,0
90180,292.681,-964.396,0,0
90440.4,290.868,-961.804,0,0
90700.7,290.36,-958.567,0,0
90961,289.55,-955.517,0,0
91221.3,288.664,-952.507,0,0
91481.7,287.148,-949.87,0,0
91742,286.695,-946.726,0,0
92002.3,285.955,-943.633,0,0
92262.6,284.667,-941.124,0,0
92523,282.77,-938.765,0,0
92783.3,282.467,-935.358,0,0
93043.6,280.886,-932.703,0,0
93303.9,278.988,-930.369,0,0
93564.3,278.571,-926.898,0,0
93824.6,275.662,-925.051,0,0
94084.9,275.009,-921.764,0,0
94345.2,273.611,-918.704,0,0
94605.6,273.05,-915.29,0,0
94865.9,271.805,-912.473,0,0
95126.2,270.556,-909.567,0,0
95386.5,269.528,-906.738,0,0
95646.9,268.444,-903.8,0,0
95907.2,267.163,-900.978,0,0
96167.5,266.021,-898.068,0,0
96427.8,265.569,-894.891,0,0
96688.2,263.898,-892.304,0,0
96948.5,262.795,-889.365,0,0
97208.8,261.748,-886.35,0,0
97469.1,260.413,-883.563,0,0
97729.5,259.281,-880.609,0,0
97989.8,258.398,-877.528,0,0
98250.1,257.568,-874.45,0,0
98510.4,256.249,-871.664,0,0
98770.8,255.101,-868.821,0,0
99031.1,254.126,-865.865,0,0
99291.4,252.971,-863.088,0,0
99551.7,252.031,-860.221,0,0
99812.1,251.341,-857.164,0,0
100072,250.73,-854.183,0,0
100333,249.752,-851.389,0,0
100593,249.445,-848.331,0,0
100853,248.4,-845.97,0,0
101114,249.297,-842.33,0,0
101374,248.069,-839.977,0,0
101634,247.932,-836.939,0,0
101895,246.658,-834.672,0,0
102155,244.909,-832.68,0,0
102415,243.532,-830.385,0,0
102676,242.016,-828.186,0,0
102936,240.851,-825.573,0,0
103196,238.874,-823.62,0,0
103457,237.085,-821.579,0,0
103717,235.945,-819.039,0,0
103977,234.818,-816.519,0,0
104238,233.754,-814.014,0,0
104498,234.352,-810.402,0,0
104758,233.26,-808.122,0,0
105019,231.905,-805.811,0,0
105279,230.836,-803.238,0,0
105539,230.348,-800.249,0,0
105800,228.659,-798.009,0,0
106060,227.906,-795.058,0,0
106320.175,226.972,-792.38,0,0
106580.5,225.659,-789.719,0,0
106840.825,224.655,-787.01,0,0
107101.15,224.045,-784.147,0,0
107361.475,223.007,-781.491,0,0
107621.8,222.035,-778.769,0,0
107882.125,220.993,-776.202,0,0
108142.45,220.342,-773.241,0,0
108402.775,219.443,-770.65,0,0
108663.1,218.703,-767.89,0,0
108923.425,218.098,-765.062,0,0
109183.75,216.486,-762.825,0,0
109444.075,215.781,-760.209,0,0
109704.4,215.688,-757.087,0,0
109964.725,215.033,-754.397,0,0
110225.05,214.132,-751.632,0,0
110485.375,213.286,-749.085,0,0
110745.7,212.423,-746.362,0,0
111006.025,211.57,-743.658,0,0
111266.35,211.046,-740.756,0,0
111526.675,210.736,-737.682,0,0
111787.0,210.159,-735.039,0,0
112047.325,209.787,-732.044,0,0
112307.65,209.598,-729.004,0,0
112567.975,208.098,-726.7,0,0
112828.3,207.249,-724.137,0,0
113088.625,206.775,-721.387,0,0
113348.95,205.912,-718.932,0,0
113609.275,205.336,-716.298,0,0
113869.6,205.161,-713.501,0,0
114129.925,204.883,-710.654,0,0
114390.25,203.985,-708.301,0,0
114650.575,204.076,-705.559,0,0
114910.9,203.486,-703.04,0,0
115171.225,202.625,-700.372,0,0
115431.55,201.153,-698.192,0,0
115691.875,200.861,-695.277,0,0
115952.2,200.812,-692.489,0,0
116212.525,200.206,-690.081,0,0
116472.85,199.954,-687.292,0,0
116733.175,199.61,-684.429,0,0
116993.5,199.161,-681.705,0,0
117253.825,199.193,-678.787,0,0
117514.15,198.79,-676.324,0,0
117774.475,198.724,-673.629,0,0
118034.8,199.154,-670.612,0,0
118295.125,198.369,-668.481,0,0
118555.45,198.468,-665.86,0,0
118815.775,198.174,-663.518,0,0
119076.1,197.882,-661.138,0,0
119336.425,197.822,-658.622,0,0
119596.75,197.248,-656.435,0,0
119857.075,196.907,-654.264,0,0
120117.4,196.242,-652.165,0,0
120377.725,195.446,-650.12,0,0
120638.05,195.145,-647.802,0,0
120898.375,195.279,-645.162,0,0
121158.7,194.53,-643.048,0,0
121419.025,194.22,-640.736,0,0
121679.35,194.186,-638.2,0,0
121939.675,193.39,-636.148,0,0
122200.0,193.343,-633.53,0,0
122460,192.808,-631.393,0,0
122721,192.578,-628.882,0,0
122981,191.818,-626.613,0,0
123241,191.251,-624.071,0,0
123502,190.795,-621.437,0,0
123762,190.214,-618.914,0,0
124022,189.835,-616.285,0,0
124283,189.078,-613.94,0,0
124543,188.997,-611.149,0,0
124803,188.966,-608.324,0,0
125064,188.553,-605.88,0,0
125324,188.448,-603.365,0,0
125584,185.664,-602.727,0,0
125845,188.465,-598.393,0,0
126105,189.638,-595.057,0,0
126365,188.44,-593.331,0,0
126626,187.848,-591.2,0,0
126886,187.394,-589.047,0,0
127146,187.815,-586.155,0,0
127406,187.269,-584.002,0,0
127667,186.934,-581.842,0,0
127927,186.891,-579.259,0,0
128187,186.543,-576.857,0,0
128448,185.962,-574.667,0,0
128708,185.969,-572.008,0,0
128968,185.73,-569.529,0,0
129229,185.384,-567.111,0,0
129489,185.191,-564.488,0,0
129749,184.485,-562.246,0,0
130010,183.991,-559.755,0,0
130270,183.868,-556.99,0,0
130530,183.878,-554.1,0,0
130791,183.525,-551.421,0,0
131051,182.855,-548.884,0,0
131311,181.821,-546.539,0,0
131572,181.501,-543.685,0,0
131832,181.341,-540.682,0,0
132092,180.633,-538.076,0,0
132353,180.573,-535.074,0,0
132613,180.229,-532.26,0,0
132873,180.018,-529.386,0,0
133134,179.913,-526.513,0,0
133394,179.833,-523.549,0,0
133654,179.343,-520.908,0,0
133915,179.748,-517.676,0,0
134175,179.684,-514.824,0,0
134435,179.937,-511.851,0,0
134696,180.022,-508.863,0,0
134956,180.181,-505.916,0,0
135216,180.401,-502.896,0,0
135477,180.947,-499.549,0,0
135737,181.269,-496.51,0,0
135997,181.385,-493.693,0,0
136258,181.537,-490.873,0,0
136518,181.937,-487.895,0,0
136778,182.371,-484.946,0,0
137039,182.799,-482.119,0,0
137299,183.393,-479.241,0,0
137559,183.702,-476.641,0,0
137819,184.055,-473.982,0,0
138080,184.787,-471.011,0,0
138340.125,185.211,-468.485,0,0
138600.45,186.1,-465.482,0,0
138860.775,186.409,-463.205,0,0
139121.1,186.967,-460.489,0,0
139381.425,187.412,-457.934,0,0
139641.75,188.005,-455.154,0,0
139902.075,188.343,-452.737,0,0
140162.4,188.929,-449.932,0,0
140422.725,189.582,-447.244,0,0
140683.05,190.116,-444.572,0,0
140943.375,190.544,-442.039,0,0
141203.7,191.116,-439.351,0,0
141464.025,191.632,-436.655,0,0
141724.35,191.978,-434.053,0,0
141984.675,192.264,-431.539,0,0
142245.0,192.892,-428.766,0,0
142505.325,193.292,-426.207,0,0
142765.65,193.885,-423.43,0,0
143025.975,194.295,-420.777,0,0
143286.3,194.781,-418.058,0,0
143546.625,195.277,-415.373,0,0
143806.95,195.726,-412.74,0,0
144067.275,196.221,-409.898,0,0
144327.6,196.523,-407.068,0,0
144587.925,197.104,-404.092,0,0
144848.25,197.629,-401.161,0,0
145108.575,198.166,-398.259,0,0
145368.9,198.68,-395.221,0,0
145629.225,199.222,-392.253,0,0
145889.55,199.826,-389.183,0,0
146149.875,200.482,-386.112,0,0
146410.2,201.144,-382.941,0,0
146670.525,201.777,-379.78,0,0
146930.85,202.4,-376.593,0,0
147191.175,203.277,-373.347,0,0
147451.5,204.214,-369.989,0,0
147711.825,205.076,-366.906,0,0
147972.15,206.067,-363.602,0,0
148232.475,207.088,-360.435,0,0
148492.8,208.018,-357.313,0,0
148753.125,208.949,-354.125,0,0
149013.45,209.861,-350.882,0,0
149273.775,210.854,-347.463,0,0
149534.1,211.939,-343.999,0,0
149794.425,213.021,-340.569,0,0
150054.75,214.105,-337.095,0,0
150315.075,215.194,-333.396,0,0
150575.4,216.56,-329.552,0,0
150835.725,218.1,-325.627,0,0
151096.05,219.775,-321.883,0,0
151356.375,221.475,-318.1,0,0
151616.7,223.286,-314.37,0,0
151877.025,225.133,-310.857,0,0
152137.35,227.069,-307.166,0,0
152397.675,229.066,-303.493,0,0
152658.0,231.155,-299.853,0,0
152918.325,233.361,-296.095,0,0
153178.65,235.715,-292.326,0,0
153438.975,238.3,-288.655,0,0
153699.3,240.903,-285.145,0,0
153959.625,243.465,-281.557,0,0
154219.95,246.187,-277.983,0,0
154480,249.121,-274.391,0,0
154741,252.135,-270.917,0,0
155001,255.249,-267.454,0,0
155261,258.639,-264.143,0,0
155522,262.007,-261.015,0,0
155782,265.452,-257.96,0,0
156042,268.949,-255.087,0,0
156303,272.467,-252.239,0,0
156563,276.056,-249.564,0,0
156823,279.614,-247.035,0,0
157084,283.138,-244.768,0,0
157344,286.499,-242.524,0,0
157604,289.795,-240.32,0,0
157864,292.988,-238.062,0,0
158125,296.138,-235.587,0,0
158385,299.419,-233.069,0,0
158645,302.765,-230.502,0,0
158906,306.259,-228.039,0,0
159166,309.856,-225.481,0,0
159426,313.675,-222.965,0,0
159687,317.637,-220.6,0,0
159947,321.656,-218.322,0,0
160207,325.712,-216.154,0,0
160468,329.808,-214.082,0,0
160728,333.961,-212.002,0,0
160988,338.243,-209.986,0,0
161249,342.701,-208.198,0,0
161509,347.25,-206.76,0,0
161769,351.634,-205.219,0,0
162030,356.224,-203.89,0,0
162290,360.744,-202.595,0,0
162550,365.315,-201.596,0,0
162811,369.782,-200.628,0,0
163071,374.332,-199.865,0,0
163331,378.905,-199.172,0,0
163592,383.471,-198.842,0,0
163852,387.873,-198.707,0,0
164112,392.015,-198.594,0,0
164373,396.13,-198.536,0,0
164633,400.029,-198.512,0,0
164893,403.898,-198.506,0,0
165154,407.725,-198.64,0,0
165414,411.422,-198.627,0,0
165674,415.147,-198.505,0,0
165935,418.875,-198.545,0,0
166195,422.492,-198.671,0,0
166455,426.116,-198.796,0,0
166716,429.485,-198.685,0,0
166976,433.073,-198.82,0,0
167236,436.714,-198.93,0,0
167497,440.401,-199.163,0,0
167757,443.877,-199.448,0,0
168017,447.386,-199.764,0,0
168277,450.7,-200.065,0,0
168538,453.976,-200.116,0,0
168798,457.527,-200.541,0,0
169058,460.805,-200.909,0,0
169319,464.063,-201.204,0,0
169579,467.424,-201.476,0,0
169839,470.913,-201.661,0,0
170100,474.375,-201.973,0,0
170360.075,478.053,-202.452,0,0
170620.4,481.483,-202.908,0,0
170880.725,485.114,-203.548,0,0
171141.05,488.614,-204.277,0,0
171401.375,491.853,-205.088,0,0
171661.7,494.992,-205.952,0,0
171922.025,498.107,-206.677,0,0
172182.35,501.299,-207.559,0,0
172442.675,504.336,-208.243,0,0
172703.0,507.542,-209.173,0,0
172963.325,510.477,-210.011,0,0
173223.65,513.403,-211.062,0,0
173483.975,516.213,-211.957,0,0
173744.3,518.966,-212.819,0,0
174004.625,521.64,-213.614,0,0
174264.95,525.883,-215.798,0,0
174525.275,527.1,-214.894,0,0
174785.6,529.886,-215.533,0,0
175045.925,532.735,-216.161,0,0
175306.25,535.648,-216.642,0,0
175566.575,538.54,-217.067,0,0
175826.9,541.374,-217.435,0,0
176087.225,544.135,-217.524,0,0
176347.55,547.022,-218.009,0,0
176607.875,549.766,-218.175,0,0
176868.2,553.809,-219.586,0,0
177128.525,556.829,-220.094,0,0
177388.85,560.158,-220.814,0,0
177649.175,563.453,-221.759,0,0
177909.5,566.571,-222.606,0,0
178169.825,569.799,-223.662,0,0
178430.15,572.83,-224.587,0,0
178690.475,575.853,-225.629,0,0
178950.8,578.825,-226.74,0,0
179211.125,581.911,-227.933,0,0
179471.45,584.747,-228.932,0,0
179731.775,587.575,-229.946,0,0
179992.1,591.102,-231.483,0,0
180252.425,593.006,-231.691,0,0
180512.75,595.728,-232.381,0,0
180773.075,598.584,-233.159,0,0
181033.4,601.987,-234.389,0,0
181293.725,604.57,-234.68,0,0
181554.05,608.081,-235.558,0,0
181814.375,611.648,-236.465,0,0
182074.7,615.159,-237.222,0,0
182335.025,619.635,-238.846,0,0
182595.35,623.256,-239.7,0,0
182855.675,626.941,-240.773,0,0
183116.0,630.584,-241.976,0,0
183376.325,634.325,-243.239,0,0
183636.65,637.893,-244.621,0,0
183896.975,641.567,-246.234,0,0
184157.3,645.129,-247.8,0,0
184417.625,648.797,-249.597,0,0
184677.95,652.224,-251.455,0,0
184938.275,655.529,-253.018,0,0
185198.6,659.019,-254.87,0,0
185458.925,662.158,-256.553,0,0
185719.25,665.65,-258.339,0,0
185979.575,668.818,-259.825,0,0
186239.9,672.216,-261.472,0,0
186500,675.438,-262.702,0,0
186761,678.739,-264.109,0,0
187021,682.278,-265.74,0,0
187281,686.199,-267.49,0,0
187542,689.864,-268.897,0,0
187802,693.544,-270.139,0,0
188062,697.327,-271.236,0,0
188322,701.522,-272.589,0,0
188583,705.914,-273.996,0,0
188843,710.394,-275.477,0,0
189103,715.055,-277.023,0,0
189364,719.849,-278.791,0,0
189624,724.634,-280.576,0,0
189884,729.937,-282.858,0,0
190145,735.011,-285.068,0,0
190405,740.246,-287.241,0,0
190665,746.234,-290.336,0,0
190926,751.75,-293.219,0,0
191186,757.599,-296.399,0,0
191446,763.659,-299.995,0,0
191707,769.459,-303.581,0,0
191967,775.491,-307.757,0,0
192227,781.34,-311.941,0,0
192488,787.259,-316.44,0,0
192748,793.499,-321.533,0,0
193008,798.968,-326.266,0,0
193269,805.12,-332.034,0,0
193529,810.375,-337.351,0,0
193789,815.979,-343.417,0,0
194050,823.481,-351.994,0,0
194310,828.629,-358.542,0,0
194570,833.962,-365.708,0,0
194831,839.08,-373.073,0,0
195091,843.606,-380.307,0,0
195351,848.454,-388.492,0,0
195612,852.751,-396.223,0,0
195872,856.906,-404.51,0,0
196132,860.931,-413.219,0,0
196393,864.439,-421.695,0,0
196653,867.91,-431.069,0,0
196913,871.201,-440.673,0,0
197174,874.005,-450.477,0,0
197434,876.686,-460.705,0,0
197694,878.345,-470.068,0,0
197955,879.773,-479.499,0,0
198215,880.532,-488.79,0,0
198475,881.918,-499.542,0,0
198735,882.528,-509.758,0,0
198996,882.446,-519.405,0,0
199256,882.023,-529.255,0,0
199516,880.251,-536.68,0,0
199777,881.152,-550.188,0,0
200037,877.565,-555.082,0,0
200297,877.425,-568.507,0,0
200558,876.358,-579.972,0,0
200818,873.82,-589.463,0,0
201078,871.426,-598.818,0,0
201339,869.16,-610.697,0,0
201599,866.124,-620.765,0,0
201859,862.254,-629.203,0,0
202120,858.95,-640.337,0,0
202380.025,854.719,-647.83,0,0
202640.35,850.229,-656.697,0,0
202900.675,845.966,-666.678,0,0
203161.0,841.027,-675.337,0,0
203421.325,835.96,-684.182,0,0
203681.65,830.688,-692.851,0,0
203941.975,825.016,-700.92,0,0
204202.3,819.183,-708.781,0,0
204462.625,813.215,-717.241,0,0
204722.95,806.908,-724.858,0,0
204983.275,800.397,-733.437,0,0
205243.6,793.64,-740.081,0,0
205503.925,786.833,-747.555,0,0
205764.25,779.874,-754.277,0,0
206024.575,772.7,-760.926,0,0
206284.9,765.344,-769.214,0,0
206545.225,757.838,-771.709,0,0
206805.55,750.093,-778.025,0,0
207065.875,742.574,-782.548,0,0
207326.2,734.717,-787.552,0,0
207586.525,726.879,-792.253,0,0
207846.85,719.109,-796.747,0,0
208107.175,711.434,-799.759,0,0
208367.5,703.482,-803.536,0,0
208627.825,695.68,-805.256,0,0
208888.15,687.75,-810,0,0
209148.475,679.95,-812.497,0,0
209408.8,672.112,-815.894,0,0
209669.125,663.628,-820.078,0,0
209929.45,656.442,-820.993,0,0
210189.775,648.692,-822.469,0,0
210450.1,640.886,-823.866,0,0
210710.425,632.549,-827.739,0,0
210970.75,624.902,-829.248,0,0
211231.075,617.285,-830.417,0,0
211491.4,609.876,-831.001,0,0
211751.725,602.524,-831.529,0,0
212012.05,595.316,-831.942,0,0
212272.375,587.6,-833.484,0,0
212532.7,580.34,-834.06,0,0
212793.025,573.567,-833.45,0,0
213053.35,566.462,-833.921,0,0
213313.675,559.458,-834.1,0,0
213574.0,552.78,-833.51,0,0
213834.325,546.449,-832.153,0,0
214094.65,540.105,-831.012,0,0
214354.975,533.313,-830.941,0,0
214615.3,526.835,-830.529,0,0
214875.625,520.82,-829.058,0,0
215135.95,514.853,-827.634,0,0
215396.275,508.692,-826.952,0,0
215656.6,502.466,-826.016,0,0
215916.925,496.791,-824.14,0,0
216177.25,490.976,-823.057,0,0
216437.575,485.302,-821.533,0,0
216697.9,479.804,-819.828,0,0
216958.225,474.393,-818.014,0,0
217218.55,469.453,-815.66,0,0
217478.875,464.315,-813.863,0,0
217739.2,459.258,-811.784,0,0
217999.525,454.325,-809.457,0,0
218259.85,449.242,-807.425,0,0
218520,443.87,-806.439,0,0
218780,439.076,-804.079,0,0
219041,434.422,-801.936,0,0
219301,429.812,-799.508,0,0
219561,425.464,-796.738,0,0
219822,421.602,-793.946,0,0
220082,416.86,-791.894,0,0
220342,412.542,-788.91,0,0
220603,409.009,-785.897,0,0
220863,404.994,-783.213,0,0
221123,401.103,-780.491,0,0
221384,397.468,-777.457,0,0
221644,394.067,-774.552,0,0
221904,390.616,-771.64,0,0
222165,387.351,-768.767,0,0
222425,384.409,-765.711,0,0
222685,381.355,-762.861,0,0
222946,378.489,-759.568,0,0
223206,375.755,-756.663,0,0
223466,373.149,-753.644,0,0
223727,370.78,-750.462,0,0
223987,368.296,-747.552,0,0
224247,365.686,-744.782,0,0
224508,363.644,-741.549,0,0
224768,361.384,-738.737,0,0
225028,359.677,-735.529,0,0
225289,357.431,-733.002,0,0
225549,355.354,-730.185,0,0
225809,353.833,-727.396,0,0
226070,352.124,-724.695,0,0
226330,350.86,-721.655,0,0
226590,349.471,-718.878,0,0
226851,348.422,-715.725,0,0
227111,346.711,-713.41,0,0
227371,345.402,-711.019,0,0
227632,344.539,-708.129,0,0
227892,343.444,-705.521,0,0
228152,342.32,-703.07,0,0
228413,341.245,-700.639,0,0
228673,340.407,-698.134,0,0
228933,339.379,-695.936,0,0
229193,338.551,-693.655,0,0
229454,337.71,-691.362,0,0
229714,337.1,-689.193,0,0
229974,336.419,-686.92,0,0
230235,335.696,-684.931,0,0
230495,335.159,-682.66,0,0
230755,334.809,-680.234,0,0
231016,334.273,-678.277,0,0
231276,333.899,-676.208,0,0
231536,333.465,-674.255,0,0
231797,332.927,-672.471,0,0
232057,332.704,-670.362,0,0
232317,332.53,-668.444,0,0
232578,332.23,-666.657,0,0
232838,332.148,-664.686,0,0
233098,332.203,-662.61,0,0
233359,331.98,-661.039,0,0
233619,331.887,-659.329,0,0
233879,332.141,-657.359,0,0
234140,332.015,-655.929,0,0
234400,332.152,-654.296,0,0
234660.3,332.099,-652.943,0,0
234920.625,332.165,-651.619,0,0
235180.95,332.536,-649.877,0,0
235441.275,332.805,-648.487,0,0
235701.6,332.971,-647.171,0,0
235961.925,333.537,-645.544,0,0
236222.25,333.882,-644.357,0,0
236482.575,334.155,-643.277,0,0
236742.9,334.649,-642.009,0,0
237003.225,335.066,-641.025,0,0
237263.55,335.406,-640.195,0,0
237523.875,335.604,-639.67,0,0
237784.2,335.963,-639.047,0,0
238044.525,336.582,-638.155,0,0
238304.85,337.054,-637.503,0,0
238565.175,337.413,-637.037,0,0
238825.5,338,-636.385,0,0
239085.825,338.553,-635.909,0,0
239346.15,339.056,-635.579,0,0
239606.475,339.527,-635.265,0,0
239866.8,339.849,-635.288,0,0
240127.125,340.148,-635.224,0,0
240387.45,340.589,-635.037,0,0
240647.775,340.896,-635.015,0,0
240908.1,341.251,-634.94,0,0
241168.425,341.697,-634.69,0,0
241428.75,341.911,-635.173,0,0
241689.075,342.07,-635.158,0,0
241949.4,342.179,-635.542,0,0
242209.725,342.133,-635.995,0,0
242470.05,342.36,-636.116,0,0
242730.375,342.357,-636.564,0,0
242990.7,342.359,-636.805,0,0
243251.025,342.142,-637.243,0,0
243511.35,341.814,-637.928,0,0
243771.675,341.604,-638.231,0,0
244032.0,341.324,-638.565,0,0
244292.325,340.99,-638.99,0,0
244552.65,340.45,-639.47,0,0
244812.975,339.982,-639.86,0,0
245073.3,339.332,-640.403,0,0
245333.625,338.62,-640.83,0,0
245593.95,337.714,-641.453,0,0
245854.275,336.995,-641.559,0,0
246114.6,336.003,-641.979,0,0
246374.925,335.242,-642.047,0,0
246635.25,334.41,-642.133,0,0
246895.575,333.523,-642.128,0,0
247155.9,332.499,-642.027,0,0
247416.225,331.518,-641.937,0,0
247676.55,330.578,-641.562,0,0
247936.875,329.428,-641.242,0,0
248197.2,328.499,-640.781,0,0
248457.525,327.645,-640.014,0,0
248717.85,326.784,-639.132,0,0
248978.175,326.045,-638.287,0,0
249238.5,325.652,-637.217,0,0
249498.825,325.516,-635.936,0,0
249759.15,325.718,-634.698,0,0
250019.475,326.048,-633.602,0,0
250279.8,326.765,-632.295,0,0
250540,327.893,-631.309,0,0
250800,329.201,-630.52,0,0
251061,330.827,-630.086,0,0
251321,332.519,-630.147,0,0
251581,334.433,-630.349,0,0
251842,336.033,-631.386,0,0
252102,337.816,-632.606,0,0
252362,339.411,-634.222,0,0
252623,340.828,-636.142,0,0
252883,341.935,-638.281,0,0
253143,342.795,-640.798,0,0
253404,343.194,-643.506,0,0
253664,343.425,-646.295,0,0
253924,343.17,-649.27,0,0
254185,342.998,-651.87,0,0
254445,342.319,-654.894,0,0
254705,341.386,-657.625,0,0
254966,339.939,-660.488,0,0
255226,338.474,-663.269,0,0
255486,336.87,-665.907,0,0
255747,334.959,-668.512,0,0
256007,332.992,-670.827,0,0
256267,330.516,-673.303,0,0
256528,328.12,-675.39,0,0
256788,325.692,-677.143,0,0
257048,323.092,-678.843,0,0
257309,320.093,-680.77,0,0
257569,317.449,-681.971,0,0
257829,314.452,-683.413,0,0
258090,311.566,-684.418,0,0
258350,308.506,-685.487,0,0
258610,305.602,-686.256,0,0
258871,302.696,-686.829,0,0
259131,299.639,-687.467,0,0
259391,296.542,-687.781,0,0
259651,293.427,-688.208,0,0
259912,290.56,-688.313,0,0
260172,287.759,-688.194,0,0
260432,284.592,-688.544,0,0
260693,281.859,-688.378,0,0
260953,279.339,-688.08,0,0
261213,276.448,-687.791,0,0
261474,273.755,-687.417,0,0
261734,271.52,-686.623,0,0
261994,269.052,-685.985,0,0
262255,266.469,-685.497,0,0
262515,264.132,-684.755,0,0
262775,261.051,-684.658,0,0
263036,258.719,-683.882,0,0
263296,256.215,-683.288,0,0
263556,254.072,-682.334,0,0
263817,251.744,-681.556,0,0
264077,249.447,-680.774,0,0
264337,247.25,-679.978,0,0
264598,245.117,-678.975,0,0
264858,243.333,-677.757,0,0
265118,241.457,-676.762,0,0
265379,239.297,-675.766,0,0
265639,238.255,-674.166,0,0
265899,236.458,-673.154,0,0
266160,234.616,-672.145,0,0
266420,233.226,-670.895,0,0
266680.25,231.481,-669.994,0,0
266940.575,229.505,-669.153,0,0
267200.9,227.88,-668.137,0,0
267461.225,226.21,-667.186,0,0
267721.55,224.969,-665.965,0,0
267981.875,223.875,-664.542,0,0
268242.2,222.535,-663.509,0,0
268502.525,220.878,-662.694,0,0
268762.85,220.793,-660.672,0,0
269023.175,218.561,-660.412,0,0
269283.5,217.025,-659.388,0,0
269543.825,216.097,-658.166,0,0
269804.15,213.823,-657.797,0,0
270064.475,211.556,-657.45,0,0
270324.8,210.236,-656.464,0,0
270585.125,208.125,-656.007,0,0
270845.45,206.877,-654.846,0,0
271105.775,205.18,-653.996,0,0
271366.1,203.737,-652.983,0,0
271626.425,202.141,-652.067,0,0
271886.75,200.462,-651.152,0,0
272147.075,198.718,-650.237,0,0
272407.4,196.855,-649.442,0,0
272667.725,195.22,-648.404,0,0
272928.05,194.275,-646.924,0,0
273188.375,192.364,-646.123,0,0
273448.7,190.556,-645.097,0,0
273709.025,188.895,-644.099,0,0
273969.35,187.434,-642.909,0,0
274229.675,185.701,-641.888,0,0
274490.0,184.214,-640.648,0,0
274750.325,183.041,-639.284,0,0
275010.65,181.675,-638.026,0,0
275270.975,180.333,-636.708,0,0
275531.3,179.109,-635.203,0,0
275791.625,177.183,-634.268,0,0
276051.95,175.87,-632.841,0,0
276312.275,174.375,-631.516,0,0
276572.6,173.042,-630.118,0,0
276832.925,171.882,-628.633,0,0
277093.25,170.681,-627.121,0,0
277353.575,169.271,-625.718,0,0
277613.9,167.734,-624.422,0,0
277874.225,166.902,-622.699,0,0
278134.55,165.872,-621.072,0,0
278394.875,164.615,-619.579,0,0
278655.2,163.623,-618.01,0,0
278915.525,162.54,-616.4,0,0
279175.85,161.429,-614.909,0,0
279436.175,160.069,-613.525,0,0
279696.5,159.343,-611.907,0,0
279956.825,158.404,-610.324,0,0
280217.15,158.692,-608.189,0,0
280477.475,157.123,-607.127,0,0
280737.8,156.429,-605.642,0,0
280998.125,156.361,-603.855,0,0
281258.45,156.155,-602.288,0,0
281518.775,155.806,-600.771,0,0
281779.1,154.512,-599.881,0,0
282039.425,154.147,-598.517,0,0
282299.75,154.715,-596.727,0,0
282560,154.213,-595.629,0,0
282820,153.847,-594.433,0,0
283081,153.678,-593.165,0,0
283341,153.546,-591.904,0,0
283601,152.852,-590.979,0,0
283862,153.211,-589.438,0,0
284122,152.305,-588.714,0,0
284382,152.037,-587.669,0,0
284643,151.482,-586.68,0,0
284903,151.33,-585.5,0,0
285163,150.992,-584.523,0,0
285424,150.757,-583.443,0,0
285684,150.26,-582.501,0,0
285944,149.798,-581.596,0,0
286205,149.31,-580.681,0,0
286465,148.921,-579.726,0,0
286725,148.064,-579.069,0,0
286986,148.185,-577.869,0,0
287246,147.641,-577.071,0,0
287506,147.614,-575.992,0,0
287767,146.676,-575.471,0,0
288027,146.74,-574.393,0,0
288287,146.275,-573.657,0,0
288548,146.125,-572.762,0,0
288808,145.936,-571.975,0,0
289068,145.714,-571.18,0,0
289329,145.42,-570.376,0,0
289589,144.886,-569.746,0,0
289849,144.784,-568.979,0,0
290109,144.493,-568.258,0,0
290370,144.237,-567.52,0,0
290630,143.81,-566.869,0,0
290890,143.481,-566.107,0,0
291151,142.716,-565.564,0,0
291411,142.182,-564.871,0,0
291671,141.579,-564.198,0,0
291932,141.025,-563.451,0,0
292192,140.523,-562.707,0,0
292452,139.684,-562.103,0,0
292713,139.22,-561.266,0,0
292973,138.511,-560.547,0,0
293233,138.081,-559.714,0,0
293494,137.53,-558.906,0,0
293754,136.807,-558.168,0,0
294014,136.231,-557.324,0,0
294275,135.597,-556.518,0,0
294535,135.187,-555.585,0,0
294795,134.452,-554.768,0,0
295056,133.609,-553.964,0,0
295316,133.681,-552.706,0,0
295576,133.282,-551.687,0,0
295837,132.673,-550.798,0,0
296097,132.3,-549.759,0,0
296357,131.523,-548.893,0,0
296618,131.271,-547.744,0,0
296878,130.973,-546.661,0,0
297138,130.473,-545.703,0,0
297399,130.096,-544.699,0,0
297659,129.829,-543.688,0,0
297919,129.744,-542.61,0,0
298180,129.515,-541.636,0,0
298440,129.378,-540.666,0,0
298700.2,129.321,-539.786,0,0
298960.525,129.532,-538.77,0,0
299220.85,128.784,-538.274,0,0
299481.175,129.206,-537.224,0,0
299741.5,128.748,-536.596,0,0
300001.825,128.932,-535.803,0,0
300262.15,128.466,-535.308,0,0
300522.475,128.249,-534.696,0,0
300782.8,128.018,-534.165,0,0
301043.125,128.036,-533.467,0,0
301303.45,127.942,-532.815,0,0
301563.775,127.473,-532.349,0,0
301824.1,126.996,-531.912,0,0
302084.425,127.048,-531.222,0,0
302344.75,126.903,-530.65,0,0
302605.075,126.318,-530.241,0,0
302865.4,123.592,-530.932,0,0
303125.725,125.214,-529.336,0,0
303386.05,125.095,-528.787,0,0
303646.375,124.744,-528.224,0,0
303906.7,124.332,-527.665,0,0
304167.025,124.019,-527.083,0,0
304427.35,123.172,-526.673,0,0
304687.675,122.715,-526.125,0,0
304948.0,122.522,-525.397,0,0
305208.325,122.115,-524.83,0,0
305468.65,121.649,-524.32,0,0
305728.975,121.192,-523.545,0,0
305989.3,120.687,-522.984,0,0
306249.625,120.624,-522.259,0,0
306509.95,120.115,-521.614,0,0
306770.275,119.923,-520.807,0,0
307030.6,119.572,-520.144,0,0
307290.925,119.113,-519.493,0,0
307551.25,118.387,-518.986,0,0
307811.575,118.513,-518.091,0,0
308071.9,118.371,-517.207,0,0
308332.225,117.598,-516.664,0,0
308592.55,116.891,-516.178,0,0
308852.875,116.522,-515.46,0,0
309113.2,116.082,-514.777,0,0
309373.525,115.521,-514.179,0,0
309633.85,115.005,-513.443,0,0
309894.175,114.689,-512.768,0,0
310154.5,114.601,-511.901,0,0
310414.825,113.658,-511.53,0,0
310675.15,113.629,-510.697,0,0
310935.475,112.791,-510.116,0,0
311195.8,112.356,-509.526,0,0
311456.125,112.029,-508.766,0,0
311716.45,111.703,-508.058,0,0
311976.775,111.479,-507.317,0,0
312237.1,110.943,-506.704,0,0
312497.425,110.6,-505.897,0,0
312757.75,110.343,-505.229,0,0
313018.075,110.104,-504.397,0,0
313278.4,109.864,-503.618,0,0
313538.725,109.362,-502.985,0,0
313799.05,108.924,-502.357,0,0
314059.375,108.565,-501.722,0,0
314319.7,108.242,-500.881,0,0
314580,107.724,-500.278,0,0
314840,107.506,-499.542,0,0
315101,107.196,-498.848,0,0
315361,106.734,-498.205,0,0
315621,106.638,-497.367,0,0
315882,106.291,-496.703,0,0
316142,105.492,-496.198,0,0
316402,105.462,-495.426,0,0
316663,105.265,-494.636,0,0
316923,104.847,-494.066,0,0
317183,104.525,-493.449,0,0
317444,104.349,-492.656,0,0
317704,104.137,-491.92,0,0
317964,103.786,-491.288,0,0
318225,103.418,-490.656,0,0
318485,103.369,-489.912,0,0
318745,103.038,-489.257,0,0
319006,102.889,-488.561,0,0
319266,102.553,-487.994,0,0
319526,102.242,-487.296,0,0
319787,102.017,-486.601,0,0
320047,101.711,-486.033,0,0
320307,101.653,-485.327,0,0
320567,101.3,-484.713,0,0
320828,101.158,-484.075,0,0
321088,100.989,-483.467,0,0
321348,100.689,-482.884,0,0
321609,100.619,-482.208,0,0
321869,100.629,-481.488,0,0
322129,100.077,-481.049,0,0
322390,99.9129,-480.428,0,0
322650,99.8375,-479.744,0,0
322910,98.9343,-479.423,0,0
323171,98.7252,-478.898,0,0
323431,98.5369,-478.261,0,0
323691,98.3425,-477.641,0,0
323952,98.0841,-477.107,0,0
324212,98.0851,-476.435,0,0
324472,97.6477,-475.865,0,0
324733,97.5023,-475.272,0,0
324993,97.182,-474.686,0,0
325253,96.8012,-474.103,0,0
325514,96.7235,-473.493,0,0
325774,96.3915,-472.817,0,0
326034,95.8019,-472.392,0,0
326295,95.6304,-471.76,0,0
326555,95.0562,-471.29,0,0
326815,94.4951,-470.693,0,0
327076,94.121,-470.114,0,0
327336,94.0902,-469.393,0,0
327596,93.8267,-468.776,0,0
327857,93.5165,-468.151,0,0
328117,93.291,-467.472,0,0
328377,93.0905,-466.813,0,0
328638,92.8064,-466.19,0,0
328898,92.5354,-465.553,0,0
329158,92.382,-464.822,0,0
329419,92.222,-464.147,0,0
329679,91.8611,-463.535,0,0
329939,91.5482,-462.891,0,0
330200,91.4011,-462.146,0,0
330460,91.1484,-461.562,0,0
330720.15,90.999,-460.876,0,0
330980.475,90.7757,-460.276,0,0
331240.8,90.4604,-459.602,0,0
331501.125,90.295,-458.937,0,0
331761.45,90.1832,-458.274,0,0
332021.775,89.9064,-457.613,0,0
332282.1,89.711,-456.973,0,0
332542.425,89.4999,-456.336,0,0
332802.75,89.2972,-455.677,0,0
333063.075,89.1354,-455.011,0,0
333323.4,88.8085,-454.394,0,0
333583.725,88.7364,-453.786,0,0
333844.05,88.5526,-453.132,0,0
334104.375,88.2723,-452.581,0,0
334364.7,88.1654,-451.92,0,0
334625.025,88.0029,-451.287,0,0
334885.35,87.7627,-450.688,0,0
335145.675,87.7902,-450,0,0
335406.0,87.413,-449.427,0,0
335666.325,87.2433,-448.801,0,0
335926.65,87.0484,-448.138,0,0
336186.975,86.8461,-447.596,0,0
336447.3,86.6725,-446.998,0,0
336707.625,86.5123,-446.392,0,0
336967.95,86.1016,-445.861,0,0
337228.275,85.0462,-445.63,0,0
337488.6,84.9315,-444.991,0,0
337748.925,84.7919,-444.375,0,0
338009.25,84.5766,-443.769,0,0
338269.575,85.3175,-442.803,0,0
338529.9,85.2862,-442.122,0,0
338790.225,85.1387,-441.542,0,0
339050.55,85.1064,-440.928,0,0
339310.875,84.4343,-440.479,0,0
339571.2,84.4598,-439.83,0,0
339831.525,84.351,-439.243,0,0
340091.85,84.0894,-438.662,0,0
340352.175,83.9963,-437.986,0,0
340612.5,83.8421,-437.402,0,0
340872.825,83.7498,-436.775,0,0
341133.15,83.583,-436.196,0,0
341393.475,83.5198,-435.628,0,0
341653.8,83.3628,-435.04,0,0
341914.125,83.1972,-434.457,0,0
342174.45,83.084,-433.84,0,0
342434.775,82.9363,-433.241,0,0
342695.1,81.76,-433.039,0,0
342955.425,82.8535,-432.02,0,0
343215.75,82.82,-431.362,0,0
343476.075,82.4865,-430.896,0,0
343736.4,82.2485,-430.347,0,0
343996.725,81.8163,-429.871,0,0
344257.05,81.6334,-429.33,0,0
344517.375,81.5539,-428.697,0,0
344777.7,81.6028,-428.087,0,0
345038.025,81.5702,-427.505,0,0
345298.35,81.4002,-426.93,0,0
345558.675,81.0984,-426.402,0,0
345819.0,81.0415,-425.809,0,0
346079.325,80.9006,-425.31,0,0
346339.65,80.8404,-424.693,0,0
346599.975,80.6407,-424.199,0,0
346860,79.7107,-423.944,0,0
347121,79.5151,-423.433,0,0
347381,79.4281,-422.85,0,0
347641,80.1598,-421.946,0,0
347902,79.7241,-421.518,0,0
348162,78.992,-421.194,0,0
348422,78.8249,-420.654,0,0
348683,78.6794,-420.108,0,0
348943,78.7757,-419.449,0,0
349203,79.2045,-418.692,0,0
349464,79.0535,-418.155,0,0
349724,78.8493,-417.557,0,0
349984,78.6712,-417.058,0,0
350245,78.5766,-416.485,0,0
350505,78.408,-415.929,0,0
350765,78.3018,-415.383,0,0
351025,78.0878,-414.764,0,0
351286,78.5705,-414.034,0,0
351546,78.0775,-413.559,0,0
351806,77.8232,-413.103,0,0
352067,77.8653,-412.506,0,0
352327,77.5169,-411.958,0,0
352587,77.4234,-411.427,0,0
352848,76.9164,-410.999,0,0
353108,76.764,-410.406,0,0
353368,76.6119,-409.859,0,0
353629,76.4772,-409.304,0,0
353889,76.5156,-408.688,0,0
354149,75.5465,-408.412,0,0
354410,75.7384,-407.689,0,0
354670,75.6811,-407.174,0,0
354930,75.5878,-406.566,0,0
355191,75.4567,-405.954,0,0
355451,75.3527,-405.411,0,0
355711,75.2723,-404.841,0,0
355972,75.0712,-404.294,0,0
356232,75.0338,-403.704,0,0
356492,74.9209,-403.094,0,0
356753,74.7603,-402.502,0,0
357013,74.6658,-401.98,0,0
357273,74.5302,-401.362,0,0
357534,74.442,-400.819,0,0
357794,74.4098,-400.222,0,0
358054,74.2885,-399.615,0,0
358315,74.1389,-399.088,0,0
358575,74.0058,-398.536,0,0
358835,73.8999,-397.945,0,0
359096,73.7665,-397.383,0,0
359356,73.6494,-396.788,0,0
359616,73.4823,-396.264,0,0
359877,73.5119,-395.596,0,0
360137,73.4437,-395.039,0,0
360397,73.3857,-394.425,0,0
360658,73.2617,-393.847,0,0
360918,73.1021,-393.257,0,0
361178,73.1218,-392.68,0,0
361438,72.9465,-392.066,0,0
361699,72.8587,-391.513,0,0
361959,72.7535,-390.936,0,0
362219,72.7101,-390.346,0,0
362480,72.6054,-389.761,0,0
362740.1,72.5211,-389.165,0,0
363000.425,71.6445,-388.849,0,0
363260.75,71.6023,-388.271,0,0
363521.075,71.5809,-387.672,0,0
363781.4,71.5157,-387.049,0,0
364041.725,71.466,-386.45,0,0
364302.05,71.3847,-385.846,0,0
364562.375,71.3078,-385.279,0,0
364822.7,71.3008,-384.651,0,0
365083.025,71.1867,-384.069,0,0
365343.35,71.1231,-383.524,0,0
365603.675,71.0855,-382.928,0,0
365864.0,71.0507,-382.269,0,0
366124.325,70.9788,-381.677,0,0
366384.65,70.9516,-381.11,0,0
366644.975,70.9444,-380.534,0,0
366905.3,70.9052,-379.91,0,0
367165.625,70.9528,-379.301,0,0
367425.95,70.9235,-378.726,0,0
367686.275,70.9276,-378.126,0,0
367946.6,70.9323,-377.526,0,0
368206.925,70.9497,-376.937,0,0
368467.25,70.9902,-376.307,0,0
368727.575,70.99,-375.782,0,0
368987.9,71.0222,-375.126,0,0
369248.225,71.0458,-374.585,0,0
369508.55,71.1578,-373.944,0,0
369768.875,71.1844,-373.376,0,0
370029.2,71.1712,-372.845,0,0
370289.525,71.1801,-372.237,0,0
370549.85,71.2163,-371.708,0,0
370810.175,71.3018,-371.125,0,0
371070.5,71.3017,-370.624,0,0
371330.825,71.2196,-370.114,0,0
371591.15,71.3278,-369.513,0,0
371851.475,71.2914,-369.009,0,0
372111.8,71.3212,-368.493,0,0
372372.125,71.3846,-367.993,0,0
372632.45,71.3797,-367.435,0,0
372892.775,71.4832,-366.914,0,0
373153.1,71.5342,-366.425,0,0
373413.425,71.5985,-365.909,0,0
373673.75,71.6291,-365.454,0,0
373934.075,71.794,-364.941,0,0
374194.4,71.8701,-364.446,0,0
374454.725,71.9092,-364.006,0,0
374715.05,71.9931,-363.593,0,0
374975.375,72.1389,-363.127,0,0
375235.7,72.2097,-362.666,0,0
375496.025,72.2192,-362.234,0,0
375756.35,72.2322,-361.844,0,0
376016.675,72.2503,-361.437,0,0
376277.0,72.2409,-361.004,0,0
376537.325,72.234,-360.658,0,0
376797.65,72.2137,-360.196,0,0
377057.975,72.1235,-359.848,0,0
377318.3,72.0508,-359.425,0,0
377578.625,72.0575,-359.027,0,0
377838.95,71.9704,-358.596,0,0
378099.275,71.917,-358.195,0,0
378359.6,71.8205,-357.745,0,0
378619.925,71.7504,-357.292,0,0
378880,71.5813,-356.888,0,0
379141,71.5168,-356.403,0,0
379401,71.4026,-355.954,0,0
379661,71.3395,-355.428,0,0
379922,71.2287,-354.923,0,0
380182,71.1704,-354.398,0,0
380442,71.0986,-353.886,0,0
380703,71.0062,-353.342,0,0
380963,70.9974,-352.836,0,0
381223,70.9562,-352.322,0,0
381483,70.8976,-351.784,0,0
381744,70.9789,-351.263,0,0
382004,70.9279,-350.765,0,0
382264,70.9036,-350.275,0,0
382525,70.8867,-349.832,0,0
382785,70.8925,-349.393,0,0
383045,70.8449,-348.873,0,0
383306,70.7763,-348.413,0,0
383566,70.7683,-347.944,0,0
383826,70.674,-347.47,0,0
384087,70.5927,-346.958,0,0
384347,70.5189,-346.479,0,0
384607,70.4045,-346.011,0,0
384868,70.3651,-345.515,0,0
385128,70.2862,-344.991,0,0
385388,70.2051,-344.474,0,0
385649,70.1783,-343.951,0,0
385909,70.0604,-343.432,0,0
386169,70.0009,-342.939,0,0
386430,69.8239,-342.394,0,0
386690,69.7693,-341.853,0,0
386950,69.7723,-341.318,0,0
387211,69.6414,-340.766,0,0
387471,69.4655,-340.267,0,0
387731,69.493,-339.704,0,0
387992,69.4769,-339.145,0,0
388252,69.4698,-338.546,0,0
388512,69.4157,-338.024,0,0
388773,69.3323,-337.452,0,0
389033,69.3664,-336.865,0,0
389293,69.3083,-336.313,0,0
389554,69.1225,-335.802,0,0
389814,69.1433,-335.248,0,0
390074,69.1246,-334.651,0,0
390335,69.1239,-334.042,0,0
390595,69.152,-333.476,0,0
390855,69.1424,-332.9,0,0
391116,69.1277,-332.353,0,0
391376,69.1493,-331.737,0,0
391636,69.0713,-331.213,0,0
391896,69.1308,-330.634,0,0
392157,69.1179,-330.079,0,0
392417,69.1434,-329.483,0,0
392677,69.1057,-328.947,0,0
392938,69.111,-328.375,0,0
393198,68.9736,-327.862,0,0
393458,69.1332,-327.239,0,0
393719,69.1936,-326.633,0,0
393979,69.1935,-326.067,0,0
394239,69.2123,-325.491,0,0
394500,69.2476,-324.915,0,0
394760.05,69.272,-324.362,0,0
395020.375,69.332,-323.793,0,0
395280.7,69.3458,-323.18,0,0
395541.025,69.3955,-322.614,0,0
395801.35,69.4599,-322.043,0,0
396061.675,69.446,-321.465,0,0
396322.0,69.5227,-320.899,0,0
396582.325,69.5826,-320.29,0,0
396842.65,69.631,-319.709,0,0
397102.975,69.683,-319.121,0,0
397363.3,69.719,-318.562,0,0
397623.625,69.7966,-317.977,0,0
397883.95,69.8656,-317.371,0,0
398144.275,69.917,-316.76,0,0
398404.6,70.0032,-316.185,0,0
398664.925,70.0915,-315.595,0,0
398925.25,70.1586,-315.034,0,0
399185.575,70.236,-314.456,0,0
399445.9,70.3106,-313.863,0,0
399706.225,70.4302,-313.277,0,0
399966.55,70.5062,-312.726,0,0
400006.6,70.541,-312.585,0,0