File: Accelerated corrosion test data/2025-10-22_06-00-04/sample_8.csv
Frequency (Hz),Impedance (ohms),Phase (Radians),Temperature (C),Humidity (%)
10000.0,303.08,-10985.8,0,0
10260.325,294.975,-10710.4,0,0
10520.65,288.019,-10448.6,0,0
10780.975,281.167,-10199.2,0,0
11041.3,275.097,-9961.35,0,0
11301.625,268.774,-9735.8,0,0
11561.95,263.094,-9518.01,0,0
11822.275,257.654,-9310.48,0,0
12082.6,255.922,-9110.56,0,0
12342.925,252.489,-8924.72,0,0
12603.25,247.955,-8742.61,0,0
12863.575,244.629,-8572.28,0,0
13123.9,236.102,-8406.57,0,0
13384.225,230.348,-8244.43,0,0
13644.55,227.463,-8090.05,0,0
13904.875,220.123,-7940.38,0,0
14165.2,214.196,-7795.23,0,0
14425.525,210.55,-7655.22,0,0
14685.8,207.067,-7521.25,0,0
14946.175,203.355,-7390.99,0,0
15206.5,200.161,-7265.6,0,0
15466.825,197.072,-7144.92,0,0
15727.15,193.724,-7027.79,0,0
15987.5,190.703,-6914.66,0,0
16247.8,187.855,-6804.98,0,0
16508.125,184.817,-6698.4,0,0
16768.45,181.667,-6595.19,0,0
17028.775,178.879,-6495.14,0,0
17289.1,176.296,-6397.85,0,0
17549.425,173.585,-6302.85,0,0
17809.75,171.584,-6211.04,0,0
18070.075,169.648,-6124.05,0,0
18330.4,167.234,-6036.02,0,0
18590.725,165.152,-5950.41,0,0
18851.05,166.402,-5867.28,0,0
19111.375,164.346,-5787.79,0,0
19371.7,166.226,-5712.86,0,0
19632.025,163.704,-5639.4,0,0
19892.35,160.084,-5568.57,0,0
20152.675,158.213,-5495.56,0,0
20413.0,158.209,-5426.09,0,0
20673.3,158.626,-5359.39,0,0
20933.65,154.587,-5296.99,0,0
21193.975,150.53,-5232.57,0,0
21454.3,148.412,-5168.59,0,0
21714.625,146.501,-5105.77,0,0
21974.9,145.797,-5045.47,0,0
22235.275,145.926,-4987.11,0,0
22495.6,144.801,-4930.51,0,0
22755.925,143.133,-4876.56,0,0
23016.25,141.452,-4822.14,0,0
23276.6,136.687,-4769.94,0,0
23536.9,135.474,-4716.9,0,0
23797.225,133.073,-4665.03,0,0
24057.55,131.472,-4614.22,0,0
24317.875,129.973,-4564.55,0,0
24578.2,127.668,-4516.34,0,0
24838.525,126.627,-4468.63,0,0
25098.85,125.513,-4422.14,0,0
25359.175,123.888,-4377.02,0,0
25619.5,123.15,-4331.62,0,0
25879.8,122.151,-4287.42,0,0
26140.1,121.413,-4245.64,0,0
26400.5,119.85,-4203.29,0,0
26660.8,118.301,-4162.19,0,0
26921.1,118.164,-4120.69,0,0
27181.4,118.434,-4081.47,0,0
27441.8,117.613,-4042.35,0,0
27702.1,116.575,-4005.48,0,0
27962.4,114.267,-3968.36,0,0
28222.7,115.667,-3930.21,0,0
28483.1,113.77,-3894.83,0,0
28743.4,113.658,-3859.26,0,0
29003.7,112.883,-3825.41,0,0
29264,113.185,-3791.27,0,0
29524.4,111.937,-3757.77,0,0
29784.7,111.849,-3724.48,0,0
30045,110.707,-3693.01,0,0
30305.3,110.299,-3662.01,0,0
30565.7,109.041,-3631.07,0,0
30826,107.771,-3599.74,0,0
31086.3,106.509,-3569.52,0,0
31346.6,105.464,-3538.94,0,0
31607,105.339,-3509.48,0,0
31867.3,104.724,-3480.24,0,0
32127.6,104.038,-3451.62,0,0
32387.9,103.739,-3423.01,0,0
32648.3,103.278,-3395.18,0,0
32908.6,103.681,-3368,0,0
33168.9,103.465,-3340.93,0,0
33429.2,104.133,-3314.42,0,0
33689.6,104.464,-3288.73,0,0
33949.9,104.539,-3263.63,0,0
34210.2,104.865,-3238.77,0,0
34470.5,104.934,-3214.13,0,0
34730.9,105.615,-3189.98,0,0
34991.2,106.673,-3166.21,0,0
35251.5,107.311,-3143.58,0,0
35511.8,107.988,-3121.51,0,0
35772.2,108.412,-3100.22,0,0
36032.5,108.729,-3079.7,0,0
36292.8,108.471,-3059.16,0,0
36553.1,107.98,-3039.62,0,0
36813.5,106.575,-3019.44,0,0
37073.8,106.145,-2999.7,0,0
37334.1,104.818,-2980.74,0,0
37594.4,102.503,-2961.49,0,0
37854.8,100.617,-2941.76,0,0
38115.1,98.5099,-2922.46,0,0
38375.4,96.2016,-2902.86,0,0
38635.7,94.1005,-2883.55,0,0
38896.1,92.1085,-2863.73,0,0
39156.4,90.4895,-2843.88,0,0
39416.7,89.1355,-2824.31,0,0
39677,88.0621,-2805.26,0,0
39937.4,86.371,-2786.03,0,0
40197.7,85.8916,-2766.53,0,0
40458,86.1737,-2748.12,0,0
40718.3,85.7524,-2730.76,0,0
40978.7,84.7271,-2713.06,0,0
41239,83.9498,-2695.56,0,0
41499.3,83.356,-2677.98,0,0
41759.6,83.2474,-2661.24,0,0
42020,82.1024,-2644.43,0,0
42280.275,81.3435,-2627.28,0,0
42540.6,81.1483,-2610.3,0,0
42800.925,80.8582,-2593.78,0,0
43061.25,81.2666,-2577.73,0,0
43321.575,81.2897,-2562.56,0,0
43581.9,81.2278,-2547.88,0,0
43842.225,79.9944,-2533.03,0,0
44102.55,78.9565,-2517.94,0,0
44362.875,78.0809,-2502.81,0,0
44623.2,77.3757,-2487.72,0,0
44883.525,76.7019,-2472.86,0,0
45143.85,76.2385,-2458.32,0,0
45404.175,75.4798,-2443.64,0,0
45664.5,74.9526,-2429.2,0,0
45924.825,74.4083,-2415.19,0,0
46185.15,73.8344,-2400.97,0,0
46445.475,73.2713,-2386.96,0,0
46705.8,72.9665,-2373.08,0,0
46966.125,72.4412,-2359.42,0,0
47226.45,72.3437,-2346,0,0
47486.775,71.6599,-2332.73,0,0
47747.1,71.4271,-2319.48,0,0
48007.425,70.9888,-2306.63,0,0
48267.75,70.6482,-2293.7,0,0
48528.075,70.3434,-2281.1,0,0
48788.4,69.8826,-2268.48,0,0
49048.725,69.3115,-2255.92,0,0
49309.05,68.8308,-2243.57,0,0
49569.375,68.6622,-2231.13,0,0
49829.7,68.3075,-2219.15,0,0
50090.025,67.8233,-2206.94,0,0
50350.35,67.7307,-2194.95,0,0
50610.675,67.3437,-2183.05,0,0
50871.0,67.0818,-2171.4,0,0
51131.325,66.8659,-2159.74,0,0
51391.65,66.5575,-2148.27,0,0
51651.975,66.4859,-2136.74,0,0
51912.3,66.4258,-2125.65,0,0
52172.625,66.263,-2114.54,0,0
52432.95,66.1911,-2103.54,0,0
52693.275,66.1363,-2092.59,0,0
52953.6,66.2799,-2081.87,0,0
53213.925,66.3872,-2071.58,0,0
53474.25,66.624,-2061.22,0,0
53734.575,66.694,-2051.85,0,0
53994.9,65.6616,-2042.11,0,0
54255.225,65.0959,-2031.86,0,0
54515.55,64.6647,-2021.9,0,0
54775.875,64.0834,-2011.93,0,0
55036.2,63.5364,-2002.23,0,0
55296.525,62.8378,-1992.5,0,0
55556.85,62.2004,-1982.51,0,0
55817.175,61.5802,-1972.59,0,0
56077.5,61.0968,-1962.79,0,0
56337.825,60.7786,-1952.86,0,0
56598.15,60.4383,-1943.19,0,0
56858.475,60.1701,-1933.52,0,0
57118.8,59.9883,-1924.07,0,0
57379.125,59.8154,-1914.61,0,0
57639.45,59.7077,-1905.47,0,0
57899.775,59.4457,-1896.24,0,0
58160.1,59.4027,-1887.13,0,0
58420.4,59.1871,-1878.17,0,0
58680.7,58.9814,-1869.34,0,0
58941.1,58.9444,-1860.47,0,0
59201.4,58.8006,-1851.84,0,0
59461.7,58.416,-1843.24,0,0
59722,58.1003,-1834.66,0,0
59982.4,57.7652,-1825.94,0,0
60242.7,57.576,-1817.34,0,0
60503,57.3206,-1808.8,0,0
60763.3,57.2807,-1800.37,0,0
61023.7,57.318,-1791.96,0,0
61284,57.2737,-1783.8,0,0
61544.3,57.2585,-1775.71,0,0
61804.6,57.0317,-1767.68,0,0
62065,56.79,-1759.45,0,0
62325.3,56.8277,-1751.32,0,0
62585.6,57.0385,-1743.32,0,0
62845.9,57.0105,-1735.45,0,0
63106.3,57.3311,-1727.7,0,0
63366.6,57.5714,-1720.28,0,0
63626.9,57.5843,-1712.94,0,0
63887.2,57.5319,-1705.66,0,0
64147.6,57.4202,-1698.41,0,0
64407.9,57.2694,-1691.13,0,0
64668.2,57.147,-1683.9,0,0
64928.5,56.966,-1676.62,0,0
65188.9,56.9061,-1669.65,0,0
65449.2,56.6839,-1662.62,0,0
65709.5,56.5607,-1655.42,0,0
65969.8,56.4179,-1648.58,0,0
66230.2,56.1371,-1641.86,0,0
66490.5,55.7358,-1635.01,0,0
66750.8,55.195,-1627.96,0,0
67011.1,54.8967,-1620.89,0,0
67271.5,54.8539,-1613.95,0,0
67531.8,54.6544,-1607.15,0,0
67792.1,54.4129,-1600.36,0,0
68052.4,54.1767,-1593.61,0,0
68312.8,53.8494,-1586.89,0,0
68573.1,53.7254,-1580.13,0,0
68833.4,53.5784,-1573.33,0,0
69093.7,53.567,-1566.56,0,0
69354.1,53.5561,-1559.94,0,0
69614.4,53.5603,-1553.32,0,0
69874.7,53.8175,-1546.93,0,0
70135,53.8044,-1540.75,0,0
70395.4,53.7632,-1534.41,0,0
70655.7,53.6233,-1528.2,0,0
70916,53.5942,-1521.94,0,0
71176.3,53.7056,-1515.74,0,0
71436.7,53.6527,-1509.55,0,0
71697,53.7957,-1503.8,0,0
71957.3,53.5759,-1497.94,0,0
72217.6,53.4804,-1491.99,0,0
72478,53.2883,-1486.11,0,0
72738.3,52.959,-1480.29,0,0
72998.6,52.7131,-1474.3,0,0
73258.9,52.5338,-1468.2,0,0
73519.3,52.5954,-1462.35,0,0
73779.6,52.4961,-1456.68,0,0
74039.9,52.3159,-1450.87,0,0
74300.225,52.0758,-1445.2,0,0
74560.55,51.8531,-1439.4,0,0
74820.875,51.7581,-1433.66,0,0
75081.2,51.7607,-1427.98,0,0
75341.525,51.6576,-1422.31,0,0
75601.85,51.5372,-1416.73,0,0
75862.175,51.4547,-1411.1,0,0
76122.5,51.4695,-1405.52,0,0
76382.825,51.5029,-1400.02,0,0
76643.15,51.5313,-1394.68,0,0
76903.475,51.3446,-1389.35,0,0
77163.8,51.2628,-1383.95,0,0
77424.125,51.1121,-1378.63,0,0
77684.45,51.0278,-1373.25,0,0
77944.775,50.9184,-1367.97,0,0
78205.1,50.8129,-1362.74,0,0
78465.425,50.5743,-1357.47,0,0
78725.75,50.3986,-1352.15,0,0
78986.075,50.33,-1346.89,0,0
79246.4,50.1738,-1341.67,0,0
79506.725,50.0129,-1336.41,0,0
79767.05,49.9021,-1331.21,0,0
80027.375,49.8547,-1325.89,0,0
80287.7,49.8497,-1320.66,0,0
80548.025,49.7759,-1315.43,0,0
80808.35,49.7407,-1310.26,0,0
81068.675,49.8309,-1305.09,0,0
81329.0,49.9226,-1299.86,0,0
81589.325,50.0575,-1294.84,0,0
81849.65,50.202,-1289.85,0,0
82109.975,50.3233,-1284.84,0,0
82370.3,50.4182,-1279.9,0,0
82630.625,50.5766,-1274.83,0,0
82890.95,50.961,-1269.89,0,0
83151.275,51.2555,-1265.25,0,0
83411.6,51.2862,-1260.52,0,0
83671.925,51.6399,-1255.61,0,0
83932.25,52.1117,-1251.12,0,0
84192.575,52.3661,-1246.83,0,0
84452.9,52.4853,-1242.51,0,0
84713.225,52.3521,-1238.5,0,0
84973.55,51.8501,-1234.03,0,0
85233.875,51.4615,-1229.31,0,0
85494.2,51.2778,-1224.5,0,0
85754.525,51.2475,-1219.68,0,0
86014.85,51.1855,-1214.89,0,0
86275.175,51.353,-1210.17,0,0
86535.5,51.403,-1205.47,0,0
86795.825,51.5836,-1200.81,0,0
87056.15,51.8287,-1196.26,0,0
87316.475,51.9385,-1191.75,0,0
87576.8,51.9644,-1187.2,0,0
87837.125,52.0581,-1182.68,0,0
88097.45,52.3068,-1178.11,0,0
88357.775,52.3155,-1173.63,0,0
88618.1,52.5064,-1169.17,0,0
88878.425,52.5991,-1164.64,0,0
89138.75,52.6824,-1160,0,0
89399.075,52.9813,-1155.4,0,0
89659.4,53.2945,-1150.69,0,0
89919.725,53.7172,-1146.03,0,0
90180,54.2891,-1141.46,0,0
90440.4,55.0077,-1136.93,0,0
90700.7,55.7014,-1132.42,0,0
90961,56.759,-1128.13,0,0
91221.3,57.7045,-1124.18,0,0
91481.7,58.5135,-1120.61,0,0
91742,58.8843,-1117.09,0,0
92002.3,59.0739,-1113.28,0,0
92262.6,59.2531,-1109.35,0,0
92523,59.41,-1105.33,0,0
92783.3,59.7916,-1101.01,0,0
93043.6,60.4817,-1096.91,0,0
93303.9,61.0939,-1093.07,0,0
93564.3,61.7347,-1089.21,0,0
93824.6,62.3159,-1085.45,0,0
94084.9,62.9524,-1081.77,0,0
94345.2,63.4407,-1078.37,0,0
94605.6,63.5241,-1074.77,0,0
94865.9,63.8016,-1070.96,0,0
95126.2,64.0175,-1067.19,0,0
95386.5,64.3012,-1063.18,0,0
95646.9,64.8018,-1059.42,0,0
95907.2,65.0226,-1055.43,0,0
96167.5,65.5603,-1051.43,0,0
96427.8,66.1191,-1047.39,0,0
96688.2,67.0452,-1043.45,0,0
96948.5,67.8046,-1039.76,0,0
97208.8,68.5125,-1036.02,0,0
97469.1,69.353,-1032.23,0,0
97729.5,70.2616,-1028.46,0,0
97989.8,71.3384,-1024.73,0,0
98250.1,72.5203,-1021.27,0,0
98510.4,73.7679,-1017.89,0,0
98770.8,75.021,-1014.87,0,0
99031.1,76.0191,-1012,0,0
99291.4,76.7931,-1009.08,0,0
99551.7,77.4709,-1005.98,0,0
99812.1,78.3552,-1002.8,0,0
100072,79.3969,-999.681,0,0
100333,80.5855,-996.823,0,0
100593,81.6507,-994.11,0,0
100853,82.7139,-991.572,0,0
101114,83.7152,-989.174,0,0
101374,84.4889,-986.93,0,0
101634,85.259,-984.657,0,0
101895,85.8177,-982.664,0,0
102155,86.1409,-980.502,0,0
102415,86.3621,-978.351,0,0
102676,86.4651,-976.061,0,0
102936,86.531,-973.734,0,0
103196,86.6305,-971.247,0,0
103457,86.816,-968.879,0,0
103717,86.9506,-966.554,0,0
103977,87.0192,-964.356,0,0
104238,86.831,-962.154,0,0
104498,86.446,-959.888,0,0
104758,85.9464,-957.382,0,0
105019,85.4798,-954.675,0,0
105279,85.1542,-951.748,0,0
105539,85.0017,-948.817,0,0
105800,84.8959,-945.905,0,0
106060,84.9141,-943.011,0,0
106320.175,84.9753,-940.174,0,0
106580.5,85.0894,-937.442,0,0
106840.825,85.0591,-934.85,0,0
107101.15,84.9597,-932.111,0,0
107361.475,84.9937,-929.434,0,0
107621.8,84.7886,-926.841,0,0
107882.125,84.4241,-923.924,0,0
108142.45,84.3113,-920.84,0,0
108402.775,84.3653,-917.746,0,0
108663.1,84.5541,-914.706,0,0
108923.425,84.9176,-911.696,0,0
109183.75,85.3245,-908.858,0,0
109444.075,85.7692,-906.165,0,0
109704.4,86.1031,-903.617,0,0
109964.725,86.4149,-901.128,0,0
110225.05,86.5778,-898.635,0,0
110485.375,86.7495,-896.149,0,0
110745.7,86.9461,-893.681,0,0
111006.025,87.0134,-891.234,0,0
111266.35,87.1689,-888.643,0,0
111526.675,87.3563,-886.025,0,0
111787.0,87.5119,-883.565,0,0
112047.325,87.6595,-881.191,0,0
112307.65,87.7567,-878.692,0,0
112567.975,87.9343,-876.344,0,0
112828.3,88.0601,-873.988,0,0
113088.625,88.0837,-871.729,0,0
113348.95,88.0513,-869.41,0,0
113609.275,87.954,-867.023,0,0
113869.6,87.8957,-864.595,0,0
114129.925,87.8927,-862.234,0,0
114390.25,87.8681,-859.845,0,0
114650.575,87.7861,-857.549,0,0
114910.9,87.7134,-855.164,0,0
115171.225,87.6874,-852.807,0,0
115431.55,87.5815,-850.627,0,0
115691.875,87.3092,-848.344,0,0
115952.2,86.9682,-845.926,0,0
116212.525,86.6521,-843.477,0,0
116472.85,86.3421,-840.938,0,0
116733.175,86.0429,-838.248,0,0
116993.5,85.8989,-835.523,0,0
117253.825,85.9581,-832.884,0,0
117514.15,85.9829,-830.355,0,0
117774.475,86.0247,-827.866,0,0
118034.8,85.9608,-825.472,0,0
118295.125,85.9115,-823.064,0,0
118555.45,85.795,-820.58,0,0
118815.775,85.7471,-818.178,0,0
119076.1,85.6739,-815.816,0,0
119336.425,85.4947,-813.451,0,0
119596.75,85.2507,-810.99,0,0
119857.075,85.0425,-808.516,0,0
120117.4,84.8519,-806.062,0,0
120377.725,84.6105,-803.488,0,0
120638.05,84.4211,-800.833,0,0
120898.375,84.3915,-798.131,0,0
121158.7,84.5193,-795.637,0,0
121419.025,84.5171,-793.252,0,0
121679.35,84.4017,-790.878,0,0
121939.675,84.2675,-788.434,0,0
122200.0,84.1603,-785.956,0,0
122460,84.1049,-783.534,0,0
122721,84.017,-781.152,0,0
122981,83.8196,-778.841,0,0
123241,83.583,-776.401,0,0
123502,83.3403,-773.95,0,0
123762,83.0952,-771.479,0,0
124022,82.8634,-768.932,0,0
124283,82.6433,-766.449,0,0
124543,82.4038,-763.929,0,0
124803,82.1457,-761.43,0,0
125064,81.8631,-758.826,0,0
125324,81.5658,-756.211,0,0
125584,81.3,-753.579,0,0
125845,81.0113,-750.906,0,0
126105,80.7705,-748.177,0,0
126365,80.5564,-745.386,0,0
126626,80.3991,-742.607,0,0
126886,80.2751,-739.825,0,0
127146,80.1456,-737.103,0,0
127406,80.0495,-734.373,0,0
127667,79.9447,-731.505,0,0
127927,79.9427,-728.637,0,0
128187,79.9852,-725.825,0,0
128448,80.0318,-723.098,0,0
128708,80.0391,-720.389,0,0
128968,80.0202,-717.626,0,0
129229,79.9805,-714.884,0,0
129489,79.9665,-712.12,0,0
129749,79.8736,-709.253,0,0
130010,79.8848,-706.296,0,0
130270,80.0231,-703.222,0,0
130530,80.3601,-700.199,0,0
130791,80.8079,-697.406,0,0
131051,81.1802,-694.688,0,0
131311,81.5845,-692.055,0,0
131572,81.9044,-689.563,0,0
131832,82.0334,-687.004,0,0
132092,82.1847,-684.352,0,0
132353,82.3758,-681.684,0,0
132613,82.605,-679.081,0,0
132873,82.7949,-676.511,0,0
133134,82.8332,-673.94,0,0
133394,82.8288,-671.251,0,0
133654,82.918,-668.462,0,0
133915,83.0039,-665.553,0,0
134175,83.248,-662.615,0,0
134435,83.6075,-659.762,0,0
134696,83.9395,-656.979,0,0
134956,84.3284,-654.147,0,0
135216,84.7761,-651.417,0,0
135477,85.2508,-648.719,0,0
135737,85.7684,-646.115,0,0
135997,86.2722,-643.722,0,0
136258,86.491,-641.429,0,0
136518,86.583,-638.992,0,0
136778,86.6563,-636.511,0,0
137039,86.5769,-634.028,0,0
137299,86.433,-631.365,0,0
137559,86.2481,-628.612,0,0
137819,86.0684,-625.687,0,0
138080,85.8846,-622.639,0,0
138340.125,85.827,-619.329,0,0
138600.45,86.0586,-615.938,0,0
138860.775,86.4726,-612.692,0,0
139121.1,86.9139,-609.55,0,0
139381.425,87.3245,-606.47,0,0
139641.75,87.693,-603.37,0,0
139902.075,88.1317,-600.179,0,0
140162.4,88.7006,-597.138,0,0
140422.725,89.0327,-594.136,0,0
140683.05,89.3624,-590.925,0,0
140943.375,89.8674,-587.597,0,0
141203.7,90.4785,-584.401,0,0
141464.025,91.0273,-581.335,0,0
141724.35,91.3403,-578.187,0,0
141984.675,91.6579,-574.697,0,0
142245.0,92.242,-571.082,0,0
142505.325,92.9629,-567.553,0,0
142765.65,93.847,-563.984,0,0
143025.975,94.7227,-560.473,0,0
143286.3,95.6913,-556.904,0,0
143546.625,96.8329,-553.432,0,0
143806.95,97.7976,-550.117,0,0
144067.275,98.6974,-546.645,0,0
144327.6,99.6732,-543.022,0,0
144587.925,100.775,-539.238,0,0
144848.25,102.179,-535.423,0,0
145108.575,103.74,-531.737,0,0
145368.9,105.327,-528.148,0,0
145629.225,107.016,-524.662,0,0
145889.55,108.668,-521.22,0,0
146149.875,110.297,-517.592,0,0
146410.2,112.264,-513.942,0,0
146670.525,114.454,-510.475,0,0
146930.85,116.688,-507.367,0,0
147191.175,118.68,-504.478,0,0
147451.5,120.388,-501.507,0,0
147711.825,121.978,-498.327,0,0
147972.15,123.654,-494.867,0,0
148232.475,125.367,-491.22,0,0
148492.8,127.37,-487.364,0,0
148753.125,129.685,-483.471,0,0
149013.45,132.189,-479.634,0,0
149273.775,134.776,-475.723,0,0
149534.1,137.63,-471.618,0,0
149794.425,141.016,-467.384,0,0
150054.75,144.997,-463.28,0,0
150315.075,149.436,-459.538,0,0
150575.4,154.264,-456.32,0,0
150835.725,159.509,-453.378,0,0
151096.05,165.006,-451.181,0,0
151356.375,170.633,-449.774,0,0
151616.7,176.074,-449.167,0,0
151877.025,181.085,-449.092,0,0
152137.35,185.549,-449.547,0,0
152397.675,189.449,-450.352,0,0
152658.0,192.749,-450.908,0,0
152918.325,195.932,-451.599,0,0
153178.65,198.729,-452.386,0,0
153438.975,200.961,-453.077,0,0
153699.3,202.755,-453.323,0,0
153959.625,204.889,-452.775,0,0
154219.95,207.824,-452.908,0,0
154480,209.81,-453.517,0,0
154741,211.503,-453.097,0,0
155001,214.402,-452.32,0,0
155261,217.828,-452.65,0,0
155522,221.138,-453.953,0,0
155782,224.047,-456.257,0,0
156042,225.652,-459.431,0,0
156303,225.953,-462.285,0,0
156563,225.061,-464.658,0,0
156823,223.146,-466.064,0,0
157084,220.863,-466.084,0,0
157344,218.995,-464.677,0,0
157604,218.082,-462.262,0,0
157864,218.543,-459.649,0,0
158125,219.898,-457.853,0,0
158385,221.313,-456.611,0,0
158645,222.746,-455.786,0,0
158906,223.929,-455.198,0,0
159166,225.502,-454.575,0,0
159426,227.154,-455.196,0,0
159687,227.424,-456.513,0,0
159947,226.524,-457.235,0,0
160207,225.07,-457.25,0,0
160468,223.16,-456.644,0,0
160728,220.974,-454.825,0,0
160988,219.232,-451.671,0,0
161249,218.55,-447.666,0,0
161509,219.059,-443.325,0,0
161769,220.995,-439.728,0,0
162030,223.257,-436.745,0,0
162290,225.922,-434.301,0,0
162550,228.952,-432.835,0,0
162811,231.419,-432.169,0,0
163071,233.383,-431.555,0,0
163331,235.508,-431.112,0,0
163592,237.145,-431.392,0,0
163852,237.985,-431.316,0,0
164112,238.737,-430.668,0,0
164373,240.15,-429.912,0,0
164633,241.558,-430.039,0,0
164893,242.642,-430.552,0,0
165154,243.253,-431.318,0,0
165414,243.18,-432.07,0,0
165674,242.747,-432.614,0,0
165935,241.867,-433.111,0,0
166195,240.665,-433.296,0,0
166455,239.166,-433.554,0,0
166716,236.823,-433.603,0,0
166976,233.638,-432.543,0,0
167236,230.913,-430.23,0,0
167497,228.989,-427.457,0,0
167757,227.389,-424.998,0,0
168017,225.555,-422.42,0,0
168277,223.843,-419.615,0,0
168538,221.846,-416.655,0,0
168798,219.699,-412.986,0,0
169058,217.941,-408.625,0,0
169319,216.951,-403.967,0,0
169579,216.219,-399.545,0,0
169839,215.507,-395.132,0,0
170100,215.005,-390.412,0,0
170360.075,214.784,-385.612,0,0
170620.4,214.701,-380.619,0,0
170880.725,214.916,-375.588,0,0
171141.05,215.196,-370.605,0,0
171401.375,215.256,-365.207,0,0
171661.7,216.009,-359.231,0,0
171922.025,217.618,-353.223,0,0
172182.35,219.664,-347.643,0,0
172442.675,221.997,-342.53,0,0
172703.0,224.08,-337.486,0,0
172963.325,226.618,-332.484,0,0
173223.65,229.204,-327.682,0,0
173483.975,231.845,-323.14,0,0
173744.3,234.436,-318.778,0,0
174004.625,236.861,-314.484,0,0
174264.95,239.254,-310.135,0,0
174525.275,241.572,-305.979,0,0
174785.6,243.456,-301.608,0,0
175045.925,245.244,-296.783,0,0
175306.25,247.185,-291.362,0,0
175566.575,249.557,-285.512,0,0
175826.9,252.51,-279.53,0,0
176087.225,255.953,-273.652,0,0
176347.55,259.709,-268.009,0,0
176607.875,263.622,-262.561,0,0
176868.2,267.462,-257.309,0,0
177128.525,271.088,-252.004,0,0
177388.85,274.483,-246.313,0,0
177649.175,278.133,-239.806,0,0
177909.5,282.648,-232.719,0,0
178169.825,288.099,-225.641,0,0
178430.15,294.262,-218.94,0,0
178690.475,300.5,-212.212,0,0
178950.8,307.63,-205.704,0,0
179211.125,315.331,-199.66,0,0
179471.45,323.336,-193.89,0,0
179731.775,331.248,-188.478,0,0
179992.1,340.078,-183.129,0,0
180252.425,349.192,-178.834,0,0
180512.75,357.893,-174.933,0,0
180773.075,366.568,-170.814,0,0
181033.4,375.684,-166.705,0,0
181293.725,385.213,-162.721,0,0
181554.05,395.365,-158.687,0,0
181814.375,406.605,-155.269,0,0
182074.7,418.424,-152.926,0,0
182335.025,430.659,-151.654,0,0
182595.35,442.776,-152.015,0,0
182855.675,453.981,-153.574,0,0
183116.0,464.306,-155.543,0,0
183376.325,473.678,-158.181,0,0
183636.65,481.557,-160.698,0,0
183896.975,488.484,-162.349,0,0
184157.3,495.247,-162.271,0,0
184417.625,503.243,-161.097,0,0
184677.95,512.885,-160.139,0,0
184938.275,523.315,-160.194,0,0
185198.6,534.158,-161.46,0,0
185458.925,544.678,-163.942,0,0
185719.25,554.401,-166.926,0,0
185979.575,563.409,-169.6,0,0
186239.9,573.025,-172.316,0,0
186500,582.538,-176.064,0,0
186761,591.254,-179.964,0,0
187021,599.798,-183.879,0,0
187281,607.946,-188.017,0,0
187542,615.908,-191.953,0,0
187802,623.692,-195.662,0,0
188062,631.847,-199.482,0,0
188322,640.048,-203.911,0,0
188583,647.663,-208.896,0,0
188843,654.451,-213.734,0,0
189103,660.828,-218.163,0,0
189364,667.056,-221.978,0,0
189624,673.58,-225.307,0,0
189884,680.461,-228.52,0,0
190145,687.377,-231.533,0,0
190405,694.87,-234.051,0,0
190665,703.277,-236.617,0,0
190926,712.747,-239.692,0,0
191186,722.952,-244.293,0,0
191446,732.308,-250.577,0,0
191707,740.149,-257.279,0,0
191967,746.561,-263.452,0,0
192227,752.466,-268.006,0,0
192488,759.052,-271.378,0,0
192748,766.331,-273.749,0,0
193008,775.472,-275.208,0,0
193269,786.764,-277.4,0,0
193529,799.015,-280.57,0,0
193789,812.729,-284.376,0,0
194050,827.853,-290.059,0,0
194310,843.379,-297.597,0,0
194570,859.222,-306.95,0,0
194831,874.808,-318.208,0,0
195091,889.906,-331.019,0,0
195351,904.658,-345.002,0,0
195612,919.408,-360.469,0,0
195872,934.035,-378.177,0,0
196132,947.03,-398.378,0,0
196393,957.796,-419.88,0,0
196653,967.077,-441.898,0,0
196913,975.409,-464.848,0,0
197174,982.06,-489.042,0,0
197434,987.214,-514.402,0,0
197694,989.747,-540.949,0,0
197955,989.825,-567.798,0,0
198215,987.423,-594.627,0,0
198475,982.638,-621.107,0,0
198735,975.249,-646.957,0,0
198996,965.744,-671.448,0,0
199256,954.399,-694.971,0,0
199516,940.891,-717.085,0,0
199777,925.39,-737.126,0,0
200037,908.839,-754.266,0,0
200297,892.479,-769.053,0,0
200558,876.377,-781.855,0,0
200818,860.847,-793.367,0,0
201078,846.168,-804.012,0,0
201339,831.773,-814.937,0,0
201599,817.029,-825.954,0,0
201859,801.054,-837.276,0,0
202120,782.597,-847.736,0,0
202380.025,762.013,-855.239,0,0
202640.35,741.274,-859.168,0,0
202900.675,721.92,-859.836,0,0
203161.0,704.8,-858.571,0,0
203421.325,689.413,-856.588,0,0
203681.65,676.015,-854.224,0,0
203941.975,664.095,-852.221,0,0
204202.3,652.065,-850.757,0,0
204462.625,639.91,-848.986,0,0
204722.95,628.254,-846.508,0,0
204983.275,616.874,-843.606,0,0
205243.6,605.344,-839.708,0,0
205503.925,594.246,-834.509,0,0
205764.25,584.471,-828.272,0,0
206024.575,576.26,-821.267,0,0
206284.9,569.533,-813.985,0,0
206545.225,564.35,-806.721,0,0
206805.55,560.778,-799.913,0,0
207065.875,558.083,-794.223,0,0
207326.2,555.732,-789.214,0,0
207586.525,553.643,-784.468,0,0
207846.85,552.349,-780.124,0,0
208107.175,551.645,-776.509,0,0
208367.5,551.001,-773.717,0,0
208627.825,550.151,-771.43,0,0
208888.15,549.193,-769.229,0,0
209148.475,548.163,-767.284,0,0
209408.8,547.079,-765.112,0,0
209669.125,546.275,-762.646,0,0
209929.45,546.187,-759.947,0,0
210189.775,546.908,-757.69,0,0
210450.1,548.151,-756.019,0,0
210710.425,549.64,-754.913,0,0
210970.75,551.203,-754.377,0,0
211231.075,553.061,-754.162,0,0
211491.4,555.119,-754.494,0,0
211751.725,557.361,-755.601,0,0
212012.05,559.39,-757.608,0,0
212272.375,560.915,-760.048,0,0
212532.7,562.261,-762.851,0,0
212793.025,563.298,-766.024,0,0
213053.35,564.039,-769.563,0,0
213313.675,564.368,-773.304,0,0
213574.0,564.324,-777.184,0,0
213834.325,564.004,-781.17,0,0
214094.65,563.335,-785.291,0,0
214354.975,562.567,-789.365,0,0
214615.3,561.602,-793.633,0,0
214875.625,560.402,-798.168,0,0
215135.95,558.832,-802.705,0,0
215396.275,557.067,-807.374,0,0
215656.6,554.947,-812.181,0,0
215916.925,552.512,-817.083,0,0
216177.25,548.752,-821.966,0,0
216437.575,545.462,-826.052,0,0
216697.9,541.924,-830.426,0,0
216958.225,538.203,-834.558,0,0
217218.55,534.392,-838.675,0,0
217478.875,530.396,-842.71,0,0
217739.2,526.267,-846.824,0,0
217999.525,521.825,-850.965,0,0
218259.85,516.92,-855.133,0,0
218520,511.666,-859.058,0,0
218780,505.794,-862.613,0,0
219041,499.805,-865.752,0,0
219301,493.596,-868.544,0,0
219561,487.339,-870.968,0,0
219822,481.061,-873.087,0,0
220082,474.337,-874.71,0,0
220342,467.64,-876.034,0,0
220603,460.825,-876.765,0,0
220863,454.18,-877.035,0,0
221123,447.705,-876.638,0,0
221384,441.644,-875.8,0,0
221644,435.981,-874.749,0,0
221904,430.739,-873.588,0,0
222165,425.619,-872.31,0,0
222425,420.6,-870.782,0,0
222685,416.151,-869.127,0,0
222946,412.034,-867.155,0,0
223206,408.539,-865.256,0,0
223466,405.523,-863.467,0,0
223727,402.627,-862.139,0,0
223987,400.052,-860.965,0,0
224247,397.386,-860.106,0,0
224508,394.929,-859.152,0,0
224768,392.789,-858.392,0,0
225028,390.803,-857.886,0,0
225289,388.819,-857.828,0,0
225549,386.935,-858.222,0,0
225809,384.914,-858.949,0,0
226070,382.59,-859.819,0,0
226330,379.784,-861.155,0,0
226590,376.764,-862.307,0,0
226851,373.515,-863.49,0,0
227111,369.871,-864.524,0,0
227371,366.018,-865.548,0,0
227632,361.8,-866.159,0,0
227892,357.641,-866.229,0,0
228152,353.755,-866.137,0,0
228413,350.175,-865.916,0,0
228673,346.961,-865.801,0,0
228933,343.914,-866.063,0,0
229193,340.675,-866.748,0,0
229454,337.244,-867.551,0,0
229714,333.42,-868.527,0,0
229974,329.266,-869.511,0,0
230235,324.84,-870.421,0,0
230495,320.134,-871.165,0,0
230755,315.087,-871.656,0,0
231016,309.991,-871.934,0,0
231276,304.8,-871.993,0,0
231536,299.32,-871.818,0,0
231797,293.858,-871.298,0,0
232057,288.442,-870.517,0,0
232317,283.061,-869.731,0,0
232578,277.473,-868.741,0,0
232838,271.814,-867.463,0,0
233098,265.978,-865.924,0,0
233359,260.157,-863.993,0,0
233619,254.397,-861.679,0,0
233879,248.758,-859.037,0,0
234140,243.274,-855.994,0,0
234400,237.961,-852.711,0,0
234660.3,232.889,-849.089,0,0
234920.625,228.103,-844.988,0,0
235180.95,223.609,-841.015,0,0
235441.275,219.497,-836.877,0,0
235701.6,215.791,-832.46,0,0
235961.925,212.244,-828.055,0,0
236222.25,209.082,-823.684,0,0
236482.575,206.149,-819.292,0,0
236742.9,203.468,-814.93,0,0
237003.225,201.057,-810.667,0,0
237263.55,198.709,-806.442,0,0
237523.875,196.581,-802.137,0,0
237784.2,194.61,-797.891,0,0
238044.525,192.822,-793.556,0,0
238304.85,191.32,-789.212,0,0
238565.175,190.147,-784.784,0,0
238825.5,189.456,-780.63,0,0
239085.825,189.05,-776.653,0,0
239346.15,188.885,-772.989,0,0
239606.475,188.877,-769.645,0,0
239866.8,188.779,-766.638,0,0
240127.125,188.901,-763.825,0,0
240387.45,188.9,-761.287,0,0
240647.775,188.945,-758.989,0,0
240908.1,188.918,-756.988,0,0
241168.425,188.762,-755.309,0,0
241428.75,188.28,-753.707,0,0
241689.075,187.556,-752.34,0,0
241949.4,186.622,-750.858,0,0
242209.725,185.518,-749.258,0,0
242470.05,184.18,-747.493,0,0
242730.375,182.861,-745.607,0,0
242990.7,181.627,-743.532,0,0
243251.025,180.37,-741.556,0,0
243511.35,179.063,-739.52,0,0
243771.675,177.698,-737.194,0,0
244032.0,176.402,-734.8,0,0
244292.325,175.361,-732.203,0,0
244552.65,174.48,-729.777,0,0
244812.975,173.742,-727.326,0,0
245073.3,172.979,-724.94,0,0
245333.625,172.031,-722.437,0,0
245593.95,171.46,-719.797,0,0
245854.275,171.042,-717.188,0,0
246114.6,170.911,-714.762,0,0
246374.925,170.905,-712.448,0,0
246635.25,170.861,-710.488,0,0
246895.575,170.741,-708.588,0,0
247155.9,170.442,-706.864,0,0
247416.225,170.041,-705.062,0,0
247676.55,169.651,-703.242,0,0
247936.875,169.277,-701.337,0,0
248197.2,168.909,-699.53,0,0
248457.525,168.534,-697.646,0,0
248717.85,168.124,-695.729,0,0
248978.175,167.778,-693.861,0,0
249238.5,167.395,-691.825,0,0
249498.825,167.157,-689.891,0,0
249759.15,166.967,-687.96,0,0
250019.475,166.738,-685.941,0,0
250279.8,166.598,-683.962,0,0
250540,166.574,-681.987,0,0
250800,166.639,-679.992,0,0
251061,166.823,-677.955,0,0
251321,167.165,-676.043,0,0
251581,167.637,-674.208,0,0
251842,168.173,-672.511,0,0
252102,168.835,-671.044,0,0
252362,169.481,-669.679,0,0
252623,170.218,-668.549,0,0
252883,170.889,-667.658,0,0
253143,171.419,-666.989,0,0
253404,171.716,-666.543,0,0
253664,171.845,-666.095,0,0
253924,171.735,-665.699,0,0
254185,171.462,-665.339,0,0
254445,171.046,-664.851,0,0
254705,170.355,-664.366,0,0
254966,169.702,-663.781,0,0
255226,168.647,-663.154,0,0
255486,167.606,-662.262,0,0
255747,166.487,-661.129,0,0
256007,165.366,-659.811,0,0
256267,164.313,-658.392,0,0
256528,163.253,-656.822,0,0
256788,162.248,-655.066,0,0
257048,161.296,-653.132,0,0
257309,160.505,-651.058,0,0
257569,159.892,-648.84,0,0
257829,159.439,-646.557,0,0
258090,159.155,-644.226,0,0
258350,159.033,-641.852,0,0
258610,159.107,-639.49,0,0
258871,159.377,-637.089,0,0
259131,159.851,-634.77,0,0
259391,160.603,-632.562,0,0
259651,161.547,-630.593,0,0
259912,162.388,-628.856,0,0
260172,163.271,-627.36,0,0
260432,164.058,-625.836,0,0
260693,164.823,-624.39,0,0
260953,165.627,-622.983,0,0
261213,166.483,-621.678,0,0
261474,167.278,-620.473,0,0
261734,168.03,-619.335,0,0
261994,168.674,-618.267,0,0
262255,169.233,-617.237,0,0
262515,169.63,-616.071,0,0
262775,169.949,-614.745,0,0
263036,170.426,-613.185,0,0
263296,171.053,-611.697,0,0
263556,171.746,-610.225,0,0
263817,172.475,-608.755,0,0
264077,173.182,-607.229,0,0
264337,173.977,-605.596,0,0
264598,174.846,-603.888,0,0
264858,175.795,-602.042,0,0
265118,177.035,-600.152,0,0
265379,178.35,-598.099,0,0
265639,179.96,-596.131,0,0
265899,181.883,-594.064,0,0
266160,184.2,-592.043,0,0
266420,186.816,-590.246,0,0
266680.25,189.754,-588.619,0,0
266940.575,192.944,-587.203,0,0
267200.9,196.482,-586.135,0,0
267461.225,200.248,-585.453,0,0
267721.55,204.152,-585.252,0,0
267981.875,208.113,-585.453,0,0
268242.2,212.093,-586.165,0,0
268502.525,215.941,-587.211,0,0
268762.85,219.702,-588.61,0,0
269023.175,223.342,-590.35,0,0
269283.5,226.937,-592.331,0,0
269543.825,230.465,-594.552,0,0
269804.15,234.033,-597.178,0,0
270064.475,237.563,-600.356,0,0
270324.8,240.891,-604.052,0,0
270585.125,243.838,-608.219,0,0
270845.45,246.418,-612.81,0,0
271105.775,248.381,-617.794,0,0
271366.1,249.85,-622.939,0,0
271626.425,250.922,-628.201,0,0
271886.75,251.596,-633.665,0,0
272147.075,251.874,-639.304,0,0
272407.4,251.589,-645.186,0,0
272667.725,250.707,-651.222,0,0
272928.05,249.158,-657.348,0,0
273188.375,246.8,-663.496,0,0
273448.7,243.66,-669.417,0,0
273709.025,239.653,-674.991,0,0
273969.35,235.053,-679.91,0,0
274229.675,230.009,-684.229,0,0
274490.0,224.605,-687.854,0,0
274750.325,219.054,-690.861,0,0
275010.65,213.405,-693.211,0,0
275270.975,207.586,-695.111,0,0
275531.3,201.922,-696.362,0,0
275791.625,196.344,-697.119,0,0
276051.95,190.87,-697.525,0,0
276312.275,185.512,-697.464,0,0
276572.6,180.359,-697.019,0,0
276832.925,175.372,-696.229,0,0
277093.25,170.623,-695.219,0,0
277353.575,166.07,-693.918,0,0
277613.9,161.77,-692.421,0,0
277874.225,157.632,-690.711,0,0
278134.55,153.708,-688.892,0,0
278394.875,149.878,-686.866,0,0
278655.2,146.252,-684.637,0,0
278915.525,142.823,-682.113,0,0
279175.85,139.727,-679.485,0,0
279436.175,136.947,-676.674,0,0
279696.5,134.401,-673.854,0,0
279956.825,132.199,-670.934,0,0
280217.15,130.372,-668.062,0,0
280477.475,128.72,-665.243,0,0
280737.8,127.405,-662.452,0,0
280998.125,126.298,-659.819,0,0
281258.45,125.378,-657.333,0,0
281518.775,124.586,-654.995,0,0
281779.1,123.907,-652.791,0,0
282039.425,123.328,-650.669,0,0
282299.75,122.881,-648.698,0,0
282560,122.503,-646.965,0,0
282820,122.103,-645.369,0,0
283081,121.62,-643.902,0,0
283341,121.019,-642.447,0,0
283601,120.382,-640.935,0,0
283862,119.851,-639.334,0,0
284122,119.428,-637.795,0,0
284382,118.963,-636.227,0,0
284643,118.689,-634.694,0,0
284903,118.431,-633.193,0,0
285163,118.315,-631.596,0,0
285424,118.389,-630.118,0,0
285684,118.581,-628.721,0,0
285944,118.86,-627.444,0,0
286205,119.271,-626.359,0,0
286465,119.783,-625.34,0,0
286725,120.479,-624.562,0,0
286986,121.243,-624.044,0,0
287246,122.062,-623.87,0,0
287506,122.812,-624.078,0,0
287767,123.37,-624.625,0,0
288027,123.672,-625.466,0,0
288287,123.673,-626.509,0,0
288548,123.274,-627.692,0,0
288808,122.494,-628.926,0,0
289068,121.348,-630.125,0,0
289329,119.871,-631.202,0,0
289589,118.071,-632.161,0,0
289849,116.012,-632.773,0,0
290109,113.813,-633.06,0,0
290370,111.498,-633.088,0,0
290630,109.282,-632.862,0,0
290890,107.142,-632.473,0,0
291151,104.99,-631.93,0,0
291411,102.955,-631.318,0,0
291671,100.866,-630.615,0,0
291932,98.8177,-629.811,0,0
292192,96.7349,-628.857,0,0
292452,94.7352,-627.8,0,0
292713,92.7492,-626.646,0,0
292973,90.8307,-625.395,0,0
293233,88.9659,-624.064,0,0
293494,87.1246,-622.616,0,0
293754,85.3632,-621.153,0,0
294014,83.6612,-619.532,0,0
294275,81.9909,-617.843,0,0
294535,80.4738,-616.058,0,0
294795,79.0522,-614.227,0,0
295056,77.8078,-612.353,0,0
295316,76.6287,-610.475,0,0
295576,75.584,-608.619,0,0
295837,74.648,-606.797,0,0
296097,73.6973,-605.037,0,0
296357,72.8233,-603.29,0,0
296618,71.9859,-601.54,0,0
296878,71.1894,-599.827,0,0
297138,70.3902,-598.124,0,0
297399,69.6327,-596.406,0,0
297659,68.8883,-594.66,0,0
297919,68.1776,-592.942,0,0
298180,67.5143,-591.203,0,0
298440,66.8689,-589.423,0,0
298700.2,66.2923,-587.661,0,0
298960.525,65.74,-585.877,0,0
299220.85,65.2441,-584.109,0,0
299481.175,64.7786,-582.286,0,0
299741.5,64.3886,-580.464,0,0
300001.825,64.0869,-578.63,0,0
300262.15,63.8314,-576.815,0,0
300522.475,63.6358,-575.039,0,0
300782.8,63.5246,-573.249,0,0
301043.125,63.4723,-571.485,0,0
301303.45,63.4931,-569.743,0,0
301563.775,63.5858,-568.036,0,0
301824.1,63.7473,-566.418,0,0
302084.425,63.9274,-564.852,0,0
302344.75,64.1526,-563.344,0,0
302605.075,64.401,-561.873,0,0
302865.4,64.685,-560.463,0,0
303125.725,65.0043,-559.088,0,0
303386.05,65.3171,-557.777,0,0
303646.375,65.691,-556.523,0,0
303906.7,66.0588,-555.313,0,0
304167.025,66.4147,-554.152,0,0
304427.35,66.8311,-553.038,0,0
304687.675,67.2326,-551.973,0,0
304948.0,67.6813,-550.99,0,0
305208.325,68.0867,-550.027,0,0
305468.65,68.5224,-549.172,0,0
305728.975,68.9162,-548.382,0,0
305989.3,69.2797,-547.616,0,0
306249.625,69.6082,-546.898,0,0
306509.95,69.9061,-546.208,0,0
306770.275,70.2087,-545.521,0,0
307030.6,70.4555,-544.859,0,0
307290.925,70.7603,-544.188,0,0
307551.25,71.0851,-543.599,0,0
307811.575,71.4126,-543.063,0,0
308071.9,71.7266,-542.616,0,0
308332.225,71.9647,-542.293,0,0
308592.55,72.1375,-542.009,0,0
308852.875,72.1929,-541.782,0,0
309113.2,72.089,-541.55,0,0
309373.525,71.9158,-541.243,0,0
309633.85,71.6698,-540.849,0,0
309894.175,71.4379,-540.415,0,0
310154.5,71.1919,-539.904,0,0
310414.825,70.9998,-539.358,0,0
310675.15,70.816,-538.826,0,0
310935.475,70.658,-538.244,0,0
311195.8,70.5232,-537.696,0,0
311456.125,70.4107,-537.201,0,0
311716.45,70.2719,-536.738,0,0
311976.775,70.0889,-536.281,0,0
312237.1,69.8882,-535.848,0,0
312497.425,69.6271,-535.405,0,0
312757.75,69.3594,-534.952,0,0
313018.075,69.0663,-534.501,0,0
313278.4,68.7342,-534.007,0,0
313538.725,68.3906,-533.473,0,0
313799.05,68.047,-532.969,0,0
314059.375,67.6873,-532.394,0,0
314319.7,67.3457,-531.832,0,0
314580,67.0577,-531.245,0,0
314840,66.6204,-530.692,0,0
315101,66.268,-530.1,0,0
315361,65.8506,-529.442,0,0
315621,65.4408,-528.805,0,0
315882,65.0974,-528.092,0,0
316142,64.7515,-527.382,0,0
316402,64.4004,-526.597,0,0
316663,64.1409,-525.81,0,0
316923,63.8908,-525.103,0,0
317183,63.6392,-524.421,0,0
317444,63.3737,-523.733,0,0
317704,63.1848,-522.976,0,0
317964,62.8345,-522.314,0,0
318225,62.6579,-521.556,0,0
318485,62.3568,-520.823,0,0
318745,62.1159,-519.991,0,0
319006,61.9509,-519.28,0,0
319266,61.8441,-518.534,0,0
319526,61.8011,-517.784,0,0
319787,61.7164,-517.059,0,0
320047,61.5652,-516.456,0,0
320307,61.559,-515.843,0,0
320567,61.4313,-515.264,0,0
320828,61.4433,-514.713,0,0
321088,61.3255,-514.121,0,0
321348,61.1978,-513.643,0,0
321609,61.0821,-513.1,0,0
321869,60.9358,-512.66,0,0
322129,60.7567,-512.189,0,0
322390,60.5834,-511.747,0,0
322650,60.4078,-511.314,0,0
322910,60.2119,-510.911,0,0
323171,59.9759,-510.524,0,0
323431,59.6087,-510.078,0,0
323691,59.3273,-509.685,0,0
323952,58.9273,-509.213,0,0
324212,58.4926,-508.804,0,0
324472,58.0444,-508.325,0,0
324733,57.6164,-507.79,0,0
324993,57.1364,-507.238,0,0
325253,56.6838,-506.682,0,0
325514,56.1677,-506.079,0,0
325774,55.7061,-505.371,0,0
326034,55.262,-504.749,0,0
326295,54.8492,-504.011,0,0
326555,54.3964,-503.319,0,0
326815,54.0544,-502.606,0,0
327076,53.617,-501.86,0,0
327336,53.3127,-501.139,0,0
327596,52.9786,-500.393,0,0
327857,52.6834,-499.674,0,0
328117,52.3002,-498.982,0,0
328377,51.9161,-498.28,0,0
328638,51.6048,-497.552,0,0
328898,51.2521,-496.81,0,0
329158,50.8532,-496.053,0,0
329419,50.5286,-495.35,0,0
329679,50.1874,-494.564,0,0
329939,49.7904,-493.791,0,0
330200,49.4581,-492.945,0,0
330460,49.1824,-492.206,0,0
330720.15,48.8971,-491.365,0,0
330980.475,48.5431,-490.551,0,0
331240.8,48.2355,-489.762,0,0
331501.125,47.9564,-488.884,0,0
331761.45,47.6609,-488.051,0,0
332021.775,47.3826,-487.163,0,0
332282.1,47.1306,-486.268,0,0
332542.425,46.9153,-485.377,0,0
332802.75,46.7193,-484.478,0,0
333063.075,46.5486,-483.537,0,0
333323.4,46.3857,-482.598,0,0
333583.725,46.2328,-481.666,0,0
333844.05,46.1511,-480.776,0,0
334104.375,46.072,-479.852,0,0
334364.7,46.0852,-478.978,0,0
334625.025,46.0968,-478.068,0,0
334885.35,46.1452,-477.232,0,0
335145.675,46.2249,-476.402,0,0
335406.0,46.2603,-475.668,0,0
335666.325,46.4236,-474.981,0,0
335926.65,46.4856,-474.344,0,0
336186.975,46.5218,-473.642,0,0
336447.3,46.5714,-473.035,0,0
336707.625,46.6026,-472.386,0,0
336967.95,46.6118,-471.817,0,0
337228.275,46.5615,-471.252,0,0
337488.6,46.5155,-470.757,0,0
337748.925,46.4603,-470.218,0,0
338009.25,46.4175,-469.621,0,0
338269.575,46.2924,-469.127,0,0
338529.9,46.1636,-468.561,0,0
338790.225,46.0147,-468.014,0,0
339050.55,45.8526,-467.434,0,0
339310.875,45.6784,-466.859,0,0
339571.2,45.5086,-466.304,0,0
339831.525,45.267,-465.69,0,0
340091.85,45.0514,-465.075,0,0
340352.175,44.8745,-464.442,0,0
340612.5,44.6733,-463.815,0,0
340872.825,44.4408,-463.182,0,0
341133.15,44.1586,-462.523,0,0
341393.475,43.9781,-461.808,0,0
341653.8,43.7278,-461.147,0,0
341914.125,43.5139,-460.433,0,0
342174.45,43.3114,-459.656,0,0
342434.775,43.0928,-458.958,0,0
342695.1,42.8713,-458.209,0,0
342955.425,42.6942,-457.414,0,0
343215.75,42.563,-456.63,0,0
343476.075,42.347,-455.846,0,0
343736.4,42.2166,-455.024,0,0
343996.725,42.0884,-454.252,0,0
344257.05,41.9186,-453.405,0,0
344517.375,41.8235,-452.535,0,0
344777.7,41.7256,-451.732,0,0
345038.025,41.6727,-450.865,0,0
345298.35,41.6246,-450.001,0,0
345558.675,41.5842,-449.198,0,0
345819.0,41.5284,-448.341,0,0
346079.325,41.5364,-447.504,0,0
346339.65,41.5551,-446.67,0,0
346599.975,41.6197,-445.858,0,0
346860,41.6117,-445.026,0,0
347121,41.7038,-444.251,0,0
347381,41.7599,-443.427,0,0
347641,41.8348,-442.646,0,0
347902,41.8857,-441.861,0,0
348162,41.9884,-441.071,0,0
348422,42.0676,-440.306,0,0
348683,42.1946,-439.481,0,0
348943,42.3093,-438.771,0,0
349203,42.4629,-437.983,0,0
349464,42.555,-437.221,0,0
349724,42.6771,-436.468,0,0
349984,42.8956,-435.69,0,0
350245,43.0719,-434.949,0,0
350505,43.3064,-434.231,0,0
350765,43.5416,-433.484,0,0
351025,43.7899,-432.839,0,0
351286,44.0227,-432.16,0,0
351546,44.2599,-431.568,0,0
351806,44.51,-430.962,0,0
352067,44.766,-430.328,0,0
352327,44.9946,-429.756,0,0
352587,45.2331,-429.204,0,0
352848,45.4608,-428.635,0,0
353108,45.6941,-428.116,0,0
353368,45.9119,-427.618,0,0
353629,46.1176,-427.05,0,0
353889,46.3343,-426.599,0,0
354149,46.5186,-426.081,0,0
354410,46.7029,-425.59,0,0
354670,46.9023,-425.113,0,0
354930,47.0674,-424.625,0,0
355191,47.2615,-424.133,0,0
355451,47.4656,-423.694,0,0
355711,47.6695,-423.265,0,0
355972,47.8565,-422.813,0,0
356232,47.973,-422.371,0,0
356492,48.1201,-421.943,0,0
356753,48.2722,-421.539,0,0
357013,48.3794,-421.112,0,0
357273,48.5034,-420.702,0,0
357534,48.6428,-420.262,0,0
357794,48.7407,-419.854,0,0
358054,48.8559,-419.449,0,0
358315,48.9903,-419.018,0,0
358575,49.057,-418.592,0,0
358835,49.1978,-418.172,0,0
359096,49.3016,-417.775,0,0
359356,49.4098,-417.347,0,0
359616,49.5049,-416.915,0,0
359877,49.6047,-416.529,0,0
360137,49.7189,-416.085,0,0
360397,49.8154,-415.719,0,0
360658,49.9184,-415.288,0,0
360918,50.029,-414.872,0,0
361178,50.1193,-414.496,0,0
361438,50.2101,-414.084,0,0
361699,50.3409,-413.741,0,0
361959,50.3865,-413.362,0,0
362219,50.486,-412.997,0,0
362480,50.5789,-412.584,0,0
362740.1,50.6453,-412.24,0,0
363000.425,50.7097,-411.871,0,0
363260.75,50.7531,-411.508,0,0
363521.075,50.8145,-411.157,0,0
363781.4,50.8873,-410.758,0,0
364041.725,50.9295,-410.43,0,0
364302.05,50.9428,-410.099,0,0
364562.375,51.0091,-409.703,0,0
364822.7,51.0767,-409.357,0,0
365083.025,51.1181,-408.988,0,0
365343.35,51.1116,-408.649,0,0
365603.675,51.1261,-408.254,0,0
365864.0,51.0877,-407.882,0,0
366124.325,51.1178,-407.5,0,0
366384.65,51.1104,-407.088,0,0
366644.975,51.1341,-406.656,0,0
366905.3,51.1368,-406.301,0,0
367165.625,51.1893,-405.901,0,0
367425.95,51.1922,-405.48,0,0
367686.275,51.2544,-405.055,0,0
367946.6,51.2434,-404.67,0,0
368206.925,51.2529,-404.253,0,0
368467.25,51.2786,-403.773,0,0
368727.575,51.2975,-403.314,0,0
368987.9,51.3823,-402.894,0,0
369248.225,51.438,-402.387,0,0
369508.55,51.5667,-401.92,0,0
369768.875,51.7103,-401.494,0,0
370029.2,51.9317,-401.049,0,0
370289.525,52.134,-400.663,0,0
370549.85,52.3417,-400.298,0,0
370810.175,52.5908,-399.988,0,0
371070.5,52.7814,-399.715,0,0
371330.825,53.0229,-399.488,0,0
371591.15,53.1586,-399.301,0,0
371851.475,53.3054,-399.106,0,0
372111.8,53.3877,-398.978,0,0
372372.125,53.4841,-398.824,0,0
372632.45,53.5744,-398.671,0,0
372892.775,53.5833,-398.58,0,0
373153.1,53.5761,-398.458,0,0
373413.425,53.5335,-398.362,0,0
373673.75,53.5035,-398.265,0,0
373934.075,53.344,-398.177,0,0
374194.4,53.2127,-397.979,0,0
374454.725,53.0275,-397.864,0,0
374715.05,52.8157,-397.658,0,0
374975.375,52.555,-397.435,0,0
375235.7,52.3083,-397.115,0,0
375496.025,52.0901,-396.833,0,0
375756.35,51.8518,-396.432,0,0
376016.675,51.6272,-396.057,0,0
376277.0,51.4943,-395.662,0,0
376537.325,51.3458,-395.26,0,0
376797.65,51.2852,-394.797,0,0
377057.975,51.2467,-394.438,0,0
377318.3,51.155,-394.094,0,0
377578.625,51.092,-393.778,0,0
377838.95,50.9968,-393.497,0,0
378099.275,50.8726,-393.225,0,0
378359.6,50.6902,-392.933,0,0
378619.925,50.4717,-392.633,0,0
378880,50.2237,-392.282,0,0
379141,49.9756,-391.838,0,0
379401,49.7179,-391.411,0,0
379661,49.4965,-390.855,0,0
379922,49.2985,-390.28,0,0
380182,49.1739,-389.66,0,0
380442,49.1779,-389.07,0,0
380703,49.2009,-388.467,0,0
380963,49.3463,-387.876,0,0
381223,49.519,-387.413,0,0
381483,49.6647,-387.034,0,0
381744,49.8449,-386.704,0,0
382004,50.0167,-386.498,0,0
382264,50.0818,-386.318,0,0
382525,50.1261,-386.197,0,0
382785,50.1132,-386.054,0,0
383045,50.0293,-385.917,0,0
383306,49.939,-385.79,0,0
383566,49.7101,-385.607,0,0
383826,49.5061,-385.429,0,0
384087,49.2227,-385.233,0,0
384347,48.939,-385.02,0,0
384607,48.6734,-384.749,0,0
384868,48.3099,-384.467,0,0
385128,48.0036,-384.097,0,0
385388,47.6451,-383.772,0,0
385649,47.2975,-383.346,0,0
385909,46.9414,-382.925,0,0
386169,46.5922,-382.452,0,0
386430,46.3031,-381.959,0,0
386690,45.9731,-381.46,0,0
386950,45.6475,-380.889,0,0
387211,45.3452,-380.295,0,0
387471,45.0756,-379.727,0,0
387731,44.8266,-379.074,0,0
387992,44.5881,-378.454,0,0
388252,44.3606,-377.805,0,0
388512,44.2284,-377.158,0,0
388773,44.0693,-376.466,0,0
389033,43.9732,-375.793,0,0
389293,43.9033,-375.155,0,0
389554,43.8216,-374.536,0,0
389814,43.7699,-373.903,0,0
390074,43.7279,-373.311,0,0
390335,43.7142,-372.729,0,0
390595,43.6419,-372.115,0,0
390855,43.6679,-371.518,0,0
391116,43.6119,-370.945,0,0
391376,43.621,-370.377,0,0
391636,43.588,-369.816,0,0
391896,43.5639,-369.266,0,0
392157,43.5284,-368.716,0,0
392417,43.5113,-368.185,0,0
392677,43.5,-367.632,0,0
392938,43.4345,-367.065,0,0
393198,43.4137,-366.516,0,0
393458,43.3879,-365.93,0,0
393719,43.3596,-365.356,0,0
393979,43.3231,-364.746,0,0
394239,43.2706,-364.184,0,0
394500,43.2829,-363.586,0,0
394760.05,43.3426,-362.987,0,0
395020.375,43.3175,-362.382,0,0
395280.7,43.372,-361.785,0,0
395541.025,43.417,-361.186,0,0
395801.35,43.4733,-360.6,0,0
396061.675,43.5615,-359.989,0,0
396322.0,43.628,-359.435,0,0
396582.325,43.7229,-358.848,0,0
396842.65,43.813,-358.328,0,0
397102.975,43.9005,-357.819,0,0
397363.3,43.9384,-357.257,0,0
397623.625,44.0384,-356.705,0,0
397883.95,44.1066,-356.199,0,0
398144.275,44.1823,-355.666,0,0
398404.6,44.2536,-355.168,0,0
398664.925,44.3239,-354.625,0,0
398925.25,44.4123,-354.148,0,0
399185.575,44.4985,-353.601,0,0
399445.9,44.5911,-353.089,0,0
399706.225,44.6474,-352.608,0,0
399966.55,44.7178,-352.083,0,0
400006.6,44.7047,-351.979,0,0