File: Accelerated corrosion test data/2025-10-22_06-00-04/sample_7.csv
Frequency (Hz),Impedance (ohms),Phase (Radians),Temperature (C),Humidity (%)
10000.0,272.514,-12104.2,0,0
10260.325,269.781,-11813.1,0,0
10520.65,256.828,-11513,0,0
10780.975,251.302,-11231.2,0,0
11041.3,248.995,-10963.5,0,0
11301.625,245.821,-10707,0,0
11561.95,248.029,-10458,0,0
11822.275,258.509,-10226.5,0,0
12082.6,266.801,-10011.6,0,0
12342.925,323.818,-9834.49,0,0
12603.25,257.682,-9663.28,0,0
12863.575,270.529,-9456.68,0,0
13123.9,237.232,-9287.76,0,0
13384.225,229.591,-9108.71,0,0
13644.55,222.503,-8923.94,0,0
13904.875,207.836,-8763.52,0,0
14165.2,203.644,-8591.99,0,0
14425.525,204.904,-8453.02,0,0
14685.8,201.804,-8298.16,0,0
14946.175,197.414,-8151.66,0,0
15206.5,195.393,-8021.41,0,0
15466.825,183.143,-7879.52,0,0
15727.15,183.71,-7751.11,0,0
15987.5,179.412,-7622.23,0,0
16247.8,177.94,-7502.67,0,0
16508.125,170.631,-7380.94,0,0
16768.45,169.542,-7262.19,0,0
17028.775,168.591,-7151.54,0,0
17289.1,166.525,-7044.48,0,0
17549.425,165.561,-6934.32,0,0
17809.75,165.99,-6825.1,0,0
18070.075,168.233,-6729.61,0,0
18330.4,173.899,-6622.5,0,0
18590.725,195.228,-6530.19,0,0
18851.05,190.238,-6467.56,0,0
19111.375,186.466,-6386.79,0,0
19371.7,209.601,-6299.35,0,0
19632.025,174.374,-6246.29,0,0
19892.35,157.34,-6146.72,0,0
20152.675,166.436,-6062.1,0,0
20413.0,166.811,-5981.32,0,0
20673.3,172.231,-5905.36,0,0
20933.65,183.723,-5849.19,0,0
21193.975,162.711,-5792.87,0,0
21454.3,152.569,-5717.35,0,0
21714.625,155.434,-5646.07,0,0
21974.9,145.184,-5585.39,0,0
22235.275,138.779,-5515.74,0,0
22495.6,137.32,-5449.74,0,0
22755.925,132.724,-5387.82,0,0
23016.25,129.095,-5323.81,0,0
23276.6,126.924,-5261.12,0,0
23536.9,126.982,-5200.45,0,0
23797.225,126.826,-5144.13,0,0
24057.55,123.349,-5087.69,0,0
24317.875,121.554,-5030.88,0,0
24578.2,121.95,-4974.73,0,0
24838.525,120.791,-4922.02,0,0
25098.85,120.322,-4869.48,0,0
25359.175,118.768,-4817.71,0,0
25619.5,117.284,-4766.73,0,0
25879.8,117.792,-4715.57,0,0
26140.1,117.43,-4663.76,0,0
26400.5,121.211,-4615.22,0,0
26660.8,120.461,-4569.98,0,0
26921.1,120.654,-4521.16,0,0
27181.4,124.833,-4471.49,0,0
27441.8,130.519,-4425.3,0,0
27702.1,138.087,-4377.38,0,0
27962.4,150.939,-4331.23,0,0
28222.7,177.941,-4295.81,0,0
28483.1,191.028,-4283.46,0,0
28743.4,197.378,-4270.34,0,0
29003.7,175.559,-4257.94,0,0
29264,153.238,-4225.8,0,0
29524.4,139.909,-4184.2,0,0
29784.7,132.565,-4143.53,0,0
30045,127.008,-4101.36,0,0
30305.3,127.133,-4062.32,0,0
30565.7,128.875,-4025.57,0,0
30826,131.331,-3994.07,0,0
31086.3,131.361,-3963.63,0,0
31346.6,128.247,-3934.33,0,0
31607,129.905,-3905.63,0,0
31867.3,121.164,-3877.8,0,0
32127.6,117.217,-3845.95,0,0
32387.9,113.94,-3814.95,0,0
32648.3,111.327,-3784.87,0,0
32908.6,107.462,-3755.48,0,0
33168.9,103.946,-3725.59,0,0
33429.2,100.748,-3695.49,0,0
33689.6,98.1862,-3665.32,0,0
33949.9,96.1756,-3635.62,0,0
34210.2,94.1439,-3607.08,0,0
34470.5,92.5994,-3578.31,0,0
34730.9,91.2428,-3549.58,0,0
34991.2,90.3917,-3522.2,0,0
35251.5,89.495,-3495.12,0,0
35511.8,88.3858,-3468.23,0,0
35772.2,88.0614,-3441.57,0,0
36032.5,87.5697,-3415.75,0,0
36292.8,87.2589,-3390.67,0,0
36553.1,86.1988,-3365.71,0,0
36813.5,85.5714,-3340.76,0,0
37073.8,85.0492,-3315.96,0,0
37334.1,85.2797,-3291.84,0,0
37594.4,85.1336,-3268.56,0,0
37854.8,84.4608,-3244.94,0,0
38115.1,84.2712,-3220.96,0,0
38375.4,84.8755,-3197.6,0,0
38635.7,85.9043,-3174.08,0,0
38896.1,87.3914,-3151.47,0,0
39156.4,89.77,-3129.55,0,0
39416.7,92.9313,-3108.62,0,0
39677,96.8577,-3089.78,0,0
39937.4,99.5615,-3074.4,0,0
40197.7,99.4629,-3059.38,0,0
40458,96.7027,-3044.21,0,0
40718.3,92.6238,-3026.4,0,0
40978.7,89.5602,-3008.39,0,0
41239,86.6473,-2988.51,0,0
41499.3,84.4263,-2969.1,0,0
41759.6,82.9626,-2949.68,0,0
42020,81.8731,-2931.07,0,0
42280.275,79.932,-2912.15,0,0
42540.6,79.1494,-2892.18,0,0
42800.925,79.5998,-2873.26,0,0
43061.25,79.6949,-2855.73,0,0
43321.575,79.894,-2838.52,0,0
43581.9,78.6566,-2821.42,0,0
43842.225,78.2751,-2803.51,0,0
44102.55,78.9503,-2785.74,0,0
44362.875,80.8527,-2768.92,0,0
44623.2,81.6773,-2755.06,0,0
44883.525,81.0137,-2740.45,0,0
45143.85,80.0356,-2725.2,0,0
45404.175,77.9819,-2709.47,0,0
45664.5,78.7899,-2692.65,0,0
45924.825,79.7397,-2679.11,0,0
46185.15,78.4511,-2666.31,0,0
46445.475,76.5833,-2651.71,0,0
46705.8,74.3825,-2637.96,0,0
46966.125,72.1074,-2622.37,0,0
47226.45,70.7016,-2606.45,0,0
47486.775,69.9538,-2591.01,0,0
47747.1,69.9567,-2576.32,0,0
48007.425,69.5089,-2561.9,0,0
48267.75,69.0385,-2547.73,0,0
48528.075,68.3721,-2533.85,0,0
48788.4,67.8011,-2519.79,0,0
49048.725,67.2066,-2505.65,0,0
49309.05,66.7856,-2491.86,0,0
49569.375,66.4326,-2478.27,0,0
49829.7,66.0171,-2465.11,0,0
50090.025,65.5373,-2451.61,0,0
50350.35,65.3438,-2438.63,0,0
50610.675,64.9814,-2425.57,0,0
50871.0,64.7574,-2412.68,0,0
51131.325,64.2609,-2399.92,0,0
51391.65,64.1491,-2387.36,0,0
51651.975,63.7968,-2374.8,0,0
51912.3,63.6461,-2362.57,0,0
52172.625,63.2845,-2350.18,0,0
52432.95,63.2505,-2338.17,0,0
52693.275,63.2055,-2326.25,0,0
52953.6,63.1244,-2314.2,0,0
53213.925,63.0501,-2302.91,0,0
53474.25,62.8962,-2291.58,0,0
53734.575,62.4246,-2280.3,0,0
53994.9,61.9366,-2268.92,0,0
54255.225,61.7447,-2257.76,0,0
54515.55,61.4622,-2246.68,0,0
54775.875,61.0599,-2235.53,0,0
55036.2,60.7989,-2224.71,0,0
55296.525,60.3475,-2213.69,0,0
55556.85,60.2553,-2202.76,0,0
55817.175,60.017,-2192.13,0,0
56077.5,59.7612,-2181.56,0,0
56337.825,59.6929,-2170.97,0,0
56598.15,59.6191,-2160.71,0,0
56858.475,59.4355,-2150.36,0,0
57118.8,59.3178,-2140.3,0,0
57379.125,59.052,-2130.23,0,0
57639.45,58.8302,-2120.2,0,0
57899.775,58.5965,-2110.22,0,0
58160.1,58.4966,-2100.1,0,0
58420.4,58.6442,-2090.29,0,0
58680.7,58.8683,-2080.65,0,0
58941.1,58.8956,-2071.47,0,0
59201.4,58.6397,-2062.13,0,0
59461.7,58.5522,-2052.55,0,0
59722,58.9766,-2043.48,0,0
59982.4,58.6975,-2034.69,0,0
60242.7,58.8013,-2025.84,0,0
60503,58.6451,-2017.05,0,0
60763.3,58.186,-2008.56,0,0
61023.7,57.8428,-1999.79,0,0
61284,57.2809,-1991.02,0,0
61544.3,57.0556,-1982.44,0,0
61804.6,56.5263,-1973.83,0,0
62065,56.0801,-1965.05,0,0
62325.3,55.7735,-1956.35,0,0
62585.6,55.5213,-1947.75,0,0
62845.9,55.3604,-1939.23,0,0
63106.3,55.2656,-1930.78,0,0
63366.6,55.0355,-1922.33,0,0
63626.9,55.0862,-1914.08,0,0
63887.2,54.7542,-1906.08,0,0
64147.6,54.4762,-1897.94,0,0
64407.9,54.2941,-1889.79,0,0
64668.2,54.1315,-1881.71,0,0
64928.5,54.1476,-1873.52,0,0
65188.9,54.1985,-1865.64,0,0
65449.2,54.4326,-1857.91,0,0
65709.5,54.461,-1850.6,0,0
65969.8,54.3479,-1843.22,0,0
66230.2,54.1258,-1835.82,0,0
66490.5,53.7692,-1828.6,0,0
66750.8,53.4045,-1821.18,0,0
67011.1,52.9169,-1813.76,0,0
67271.5,52.5313,-1806.31,0,0
67531.8,52.2652,-1798.81,0,0
67792.1,52.0404,-1791.54,0,0
68052.4,51.7514,-1784.13,0,0
68312.8,51.5053,-1776.89,0,0
68573.1,51.2775,-1769.5,0,0
68833.4,51.2758,-1762.27,0,0
69093.7,51.1563,-1755.21,0,0
69354.1,51.182,-1748.17,0,0
69614.4,50.8613,-1741.33,0,0
69874.7,50.7411,-1734.27,0,0
70135,50.774,-1727.35,0,0
70395.4,50.6041,-1720.62,0,0
70655.7,50.6303,-1713.79,0,0
70916,50.7583,-1707.13,0,0
71176.3,50.6118,-1700.63,0,0
71436.7,50.4681,-1694.17,0,0
71697,50.166,-1687.64,0,0
71957.3,49.9345,-1681.22,0,0
72217.6,49.6996,-1674.81,0,0
72478,49.4543,-1668.32,0,0
72738.3,49.2689,-1661.8,0,0
72998.6,49.1553,-1655.44,0,0
73258.9,48.936,-1649.11,0,0
73519.3,48.8645,-1642.74,0,0
73779.6,48.6856,-1636.44,0,0
74039.9,48.5995,-1630.17,0,0
74300.225,48.462,-1624.08,0,0
74560.55,48.3374,-1617.87,0,0
74820.875,48.2174,-1611.77,0,0
75081.2,48.1378,-1605.6,0,0
75341.525,48.0294,-1599.65,0,0
75601.85,47.8958,-1593.67,0,0
75862.175,47.8265,-1587.75,0,0
76122.5,47.6874,-1581.84,0,0
76382.825,47.5997,-1575.91,0,0
76643.15,47.4988,-1570.02,0,0
76903.475,47.5336,-1564.2,0,0
77163.8,47.4555,-1558.43,0,0
77424.125,47.3883,-1552.67,0,0
77684.45,47.3504,-1547.03,0,0
77944.775,47.3113,-1541.4,0,0
78205.1,47.2321,-1535.75,0,0
78465.425,47.1751,-1530.18,0,0
78725.75,47.1285,-1524.57,0,0
78986.075,47.0547,-1519.04,0,0
79246.4,47.091,-1513.61,0,0
79506.725,47.0252,-1508.11,0,0
79767.05,46.8998,-1502.85,0,0
80027.375,46.8474,-1497.4,0,0
80287.7,46.9061,-1492.08,0,0
80548.025,46.828,-1486.82,0,0
80808.35,46.7461,-1481.55,0,0
81068.675,46.6224,-1476.3,0,0
81329.0,46.5229,-1471.1,0,0
81589.325,46.4171,-1465.81,0,0
81849.65,46.3753,-1460.64,0,0
82109.975,46.2376,-1455.41,0,0
82370.3,46.2448,-1450.15,0,0
82630.625,46.2571,-1445.04,0,0
82890.95,46.3456,-1439.99,0,0
83151.275,46.2457,-1435.01,0,0
83411.6,46.2176,-1430.01,0,0
83671.925,46.1864,-1424.98,0,0
83932.25,46.2153,-1420,0,0
84192.575,46.2699,-1415.05,0,0
84452.9,46.3254,-1410.05,0,0
84713.225,46.5064,-1405.31,0,0
84973.55,46.4614,-1400.61,0,0
85233.875,46.4725,-1395.85,0,0
85494.2,46.3645,-1391.08,0,0
85754.525,46.4171,-1386.3,0,0
86014.85,46.3001,-1381.59,0,0
86275.175,46.3312,-1376.88,0,0
86535.5,46.4131,-1372.25,0,0
86795.825,46.3163,-1367.61,0,0
87056.15,46.2834,-1362.9,0,0
87316.475,46.4903,-1358.24,0,0
87576.8,46.5808,-1353.98,0,0
87837.125,46.4746,-1349.41,0,0
88097.45,46.4965,-1344.94,0,0
88357.775,46.2967,-1340.4,0,0
88618.1,46.2674,-1336.07,0,0
88878.425,46.1505,-1331.63,0,0
89138.75,45.9786,-1327.1,0,0
89399.075,45.8541,-1322.67,0,0
89659.4,45.8866,-1318.15,0,0
89919.725,45.9062,-1313.6,0,0
90180,45.8984,-1309.21,0,0
90440.4,45.8649,-1304.64,0,0
90700.7,45.9323,-1300.25,0,0
90961,46.0063,-1295.94,0,0
91221.3,45.9358,-1291.6,0,0
91481.7,46.0968,-1287.23,0,0
91742,46.2063,-1282.87,0,0
92002.3,46.1589,-1278.55,0,0
92262.6,46.2744,-1274.16,0,0
92523,46.374,-1269.87,0,0
92783.3,46.5496,-1265.58,0,0
93043.6,46.6528,-1261.13,0,0
93303.9,46.9144,-1256.68,0,0
93564.3,47.5093,-1252.17,0,0
93824.6,48.2774,-1247.86,0,0
94084.9,49.261,-1244.01,0,0
94345.2,50.231,-1240.71,0,0
94605.6,50.657,-1237.82,0,0
94865.9,50.3341,-1234.66,0,0
95126.2,50.061,-1231.06,0,0
95386.5,49.9348,-1227.57,0,0
95646.9,49.5026,-1224.14,0,0
95907.2,48.8847,-1220.27,0,0
96167.5,48.6127,-1216.18,0,0
96427.8,48.4362,-1212.2,0,0
96688.2,48.2463,-1208.05,0,0
96948.5,48.2888,-1204.01,0,0
97208.8,48.4453,-1200.05,0,0
97469.1,48.5106,-1196.21,0,0
97729.5,48.4849,-1192.31,0,0
97989.8,48.6613,-1188.39,0,0
98250.1,48.8501,-1184.68,0,0
98510.4,49.0054,-1180.85,0,0
98770.8,49.1501,-1177.31,0,0
99031.1,49.1022,-1173.78,0,0
99291.4,48.8985,-1170.11,0,0
99551.7,48.655,-1166.27,0,0
99812.1,48.5723,-1162.25,0,0
100072,48.5308,-1158.05,0,0
100333,48.9728,-1153.96,0,0
100593,49.5229,-1150.24,0,0
100853,49.7827,-1146.59,0,0
101114,50.1293,-1142.86,0,0
101374,50.4096,-1139.34,0,0
101634,50.5376,-1135.62,0,0
101895,50.891,-1131.76,0,0
102155,51.4589,-1128.01,0,0
102415,52.0713,-1124.45,0,0
102676,52.8164,-1121.03,0,0
102936,53.2838,-1118.02,0,0
103196,53.5415,-1114.71,0,0
103457,53.9113,-1111.29,0,0
103717,54.5795,-1107.88,0,0
103977,55.2775,-1105.2,0,0
104238,55.2656,-1102.5,0,0
104498,55.2508,-1099.34,0,0
104758,55.3963,-1096.13,0,0
105019,55.6908,-1093.23,0,0
105279,55.5413,-1090.31,0,0
105539,55.2755,-1087.13,0,0
105800,55.2749,-1083.76,0,0
106060,55.3053,-1080.57,0,0
106320.175,55.1522,-1077.23,0,0
106580.5,55.215,-1073.82,0,0
106840.825,55.3311,-1070.38,0,0
107101.15,55.5768,-1067.11,0,0
107361.475,55.6834,-1063.98,0,0
107621.8,55.7253,-1060.61,0,0
107882.125,55.8639,-1057.27,0,0
108142.45,56.0809,-1053.94,0,0
108402.775,56.2444,-1050.65,0,0
108663.1,56.556,-1047.31,0,0
108923.425,56.8765,-1044.2,0,0
109183.75,56.9356,-1041.01,0,0
109444.075,56.9594,-1037.59,0,0
109704.4,57.1029,-1034.24,0,0
109964.725,57.3518,-1030.85,0,0
110225.05,57.4813,-1027.36,0,0
110485.375,57.807,-1023.66,0,0
110745.7,58.5438,-1019.87,0,0
111006.025,59.4566,-1016.72,0,0
111266.35,60.1798,-1013.37,0,0
111526.675,60.8054,-1010.19,0,0
111787.0,61.2512,-1006.9,0,0
112047.325,62.0181,-1003.37,0,0
112307.65,63.0969,-999.919,0,0
112567.975,64.1906,-996.853,0,0
112828.3,65.2447,-993.752,0,0
113088.625,66.3772,-990.659,0,0
113348.95,67.6664,-987.843,0,0
113609.275,68.723,-985.27,0,0
113869.6,69.6402,-982.375,0,0
114129.925,70.7342,-979.391,0,0
114390.25,72.1101,-976.555,0,0
114650.575,73.5727,-973.936,0,0
114910.9,74.9745,-971.578,0,0
115171.225,76.3261,-969.127,0,0
115431.55,77.757,-966.625,0,0
115691.875,79.4837,-964.338,0,0
115952.2,81.4021,-962.334,0,0
116212.525,83.2418,-960.701,0,0
116472.85,85.0003,-959.311,0,0
116733.175,86.7342,-958.476,0,0
116993.5,87.8039,-957.939,0,0
117253.825,88.3301,-956.918,0,0
117514.15,89.2788,-955.73,0,0
117774.475,90.2838,-954.839,0,0
118034.8,91.0797,-954.258,0,0
118295.125,91.4715,-953.439,0,0
118555.45,92.37,-952.528,0,0
118815.775,93.4691,-952.383,0,0
119076.1,93.9484,-952.96,0,0
119336.425,93.568,-953.753,0,0
119596.75,92.4202,-954.082,0,0
119857.075,91.0713,-953.892,0,0
120117.4,89.9193,-953.688,0,0
120377.725,88.2918,-953.669,0,0
120638.05,85.8179,-953.476,0,0
120898.375,83.0421,-952.131,0,0
121158.7,80.6563,-950.533,0,0
121419.025,77.9853,-948.521,0,0
121679.35,75.8459,-945.733,0,0
121939.675,74.2845,-943.084,0,0
122200.0,72.8149,-940.565,0,0
122460,71.3468,-938.091,0,0
122721,69.8059,-935.484,0,0
122981,68.4799,-932.651,0,0
123241,67.4026,-929.954,0,0
123502,66.1449,-927.39,0,0
123762,64.7335,-924.5,0,0
124022,63.7983,-921.375,0,0
124283,63.1414,-918.625,0,0
124543,62.1869,-916.037,0,0
124803,61.2298,-913.179,0,0
125064,60.4631,-910.33,0,0
125324,59.6394,-907.748,0,0
125584,58.5614,-905.049,0,0
125845,57.5996,-902.004,0,0
126105,56.8113,-899.086,0,0
126365,55.9277,-896.129,0,0
126626,55.1298,-893.01,0,0
126886,54.4487,-889.892,0,0
127146,53.7704,-886.751,0,0
127406,53.1675,-883.466,0,0
127667,52.9089,-880.188,0,0
127927,52.7498,-877.076,0,0
128187,52.7231,-874.199,0,0
128448,52.4442,-871.493,0,0
128708,52.0564,-868.592,0,0
128968,51.7641,-865.724,0,0
129229,51.5068,-862.814,0,0
129489,51.2417,-859.974,0,0
129749,50.9854,-857.232,0,0
130010,50.5011,-854.406,0,0
130270,50.1573,-851.348,0,0
130530,50.0228,-848.446,0,0
130791,49.7326,-845.644,0,0
131051,49.346,-842.718,0,0
131311,49.0679,-839.642,0,0
131572,48.825,-836.526,0,0
131832,48.752,-833.484,0,0
132092,48.5915,-830.54,0,0
132353,48.4003,-827.427,0,0
132613,48.3327,-824.229,0,0
132873,48.3812,-820.975,0,0
133134,48.5986,-817.843,0,0
133394,48.755,-814.713,0,0
133654,48.9877,-811.523,0,0
133915,49.4078,-808.344,0,0
134175,49.9404,-805.223,0,0
134435,50.6156,-802.179,0,0
134696,51.5066,-799.343,0,0
134956,52.3499,-796.898,0,0
135216,52.8391,-794.371,0,0
135477,53.4147,-791.706,0,0
135737,54.2179,-789.036,0,0
135997,55.3117,-786.651,0,0
136258,56.5857,-784.744,0,0
136518,57.3266,-783.443,0,0
136778,57.5674,-782.186,0,0
137039,57.2929,-780.88,0,0
137299,56.6591,-779.266,0,0
137559,55.9073,-777.266,0,0
137819,55.2075,-774.861,0,0
138080,54.6813,-772.359,0,0
138340.125,54.1934,-769.705,0,0
138600.45,53.8739,-767.03,0,0
138860.775,53.5802,-764.349,0,0
139121.1,53.2463,-761.626,0,0
139381.425,52.9589,-758.626,0,0
139641.75,53.0124,-755.665,0,0
139902.075,53.1421,-752.846,0,0
140162.4,53.2508,-750.159,0,0
140422.725,53.3746,-747.526,0,0
140683.05,53.3723,-744.968,0,0
140943.375,53.2663,-742.238,0,0
141203.7,53.229,-739.465,0,0
141464.025,53.1388,-736.635,0,0
141724.35,53.1465,-733.624,0,0
141984.675,53.3044,-730.546,0,0
142245.0,53.6515,-727.528,0,0
142505.325,54.0236,-724.562,0,0
142765.65,54.537,-721.678,0,0
143025.975,55.0404,-718.869,0,0
143286.3,55.5573,-716.148,0,0
143546.625,56.1915,-713.337,0,0
143806.95,56.9053,-710.803,0,0
144067.275,57.4978,-708.457,0,0
144327.6,57.9381,-706.157,0,0
144587.925,58.1975,-703.797,0,0
144848.25,58.4952,-701.332,0,0
145108.575,58.7824,-698.928,0,0
145368.9,58.9823,-696.451,0,0
145629.225,59.162,-693.867,0,0
145889.55,59.4333,-691.285,0,0
146149.875,59.6578,-688.672,0,0
146410.2,59.9636,-685.95,0,0
146670.525,60.4313,-683.279,0,0
146930.85,60.9775,-680.823,0,0
147191.175,61.3649,-678.521,0,0
147451.5,61.5372,-676.231,0,0
147711.825,61.5473,-673.783,0,0
147972.15,61.6444,-671.147,0,0
148232.475,61.873,-668.633,0,0
148492.8,61.917,-666.169,0,0
148753.125,61.863,-663.565,0,0
149013.45,61.7761,-660.852,0,0
149273.775,61.6487,-658.084,0,0
149534.1,61.5845,-655.148,0,0
149794.425,61.549,-652.197,0,0
150054.75,61.4809,-649.124,0,0
150315.075,61.4278,-645.969,0,0
150575.4,61.4593,-642.684,0,0
150835.725,61.5508,-639.262,0,0
151096.05,61.7679,-635.804,0,0
151356.375,62.0534,-632.283,0,0
151616.7,62.446,-628.67,0,0
151877.025,63.0342,-625.042,0,0
152137.35,63.6884,-621.503,0,0
152397.675,64.357,-617.968,0,0
152658.0,65.0718,-614.337,0,0
152918.325,65.9246,-610.718,0,0
153178.65,66.8133,-607.113,0,0
153438.975,67.7708,-603.503,0,0
153699.3,68.7964,-599.894,0,0
153959.625,69.8251,-596.241,0,0
154219.95,70.9673,-592.528,0,0
154480,72.2104,-588.821,0,0
154741,73.5351,-585.111,0,0
155001,74.9554,-581.339,0,0
155261,76.5341,-577.532,0,0
155522,78.2505,-573.774,0,0
155782,80.0912,-570.076,0,0
156042,82.0491,-566.433,0,0
156303,84.121,-562.867,0,0
156563,86.2649,-559.335,0,0
156823,88.531,-555.92,0,0
157084,90.8795,-552.512,0,0
157344,93.4377,-549.183,0,0
157604,96.1843,-546.116,0,0
157864,98.9601,-543.353,0,0
158125,101.646,-540.844,0,0
158385,104.244,-538.494,0,0
158645,106.796,-536.307,0,0
158906,109.225,-534.442,0,0
159166,111.265,-532.822,0,0
159426,112.803,-531.166,0,0
159687,113.989,-529.263,0,0
159947,115.066,-527.153,0,0
160207,115.847,-524.887,0,0
160468,116.407,-522.181,0,0
160728,116.961,-519.04,0,0
160988,117.558,-515.607,0,0
161249,118.15,-511.736,0,0
161509,118.924,-507.268,0,0
161769,120.242,-502.318,0,0
162030,122.241,-497.332,0,0
162290,124.536,-492.478,0,0
162550,127.059,-487.605,0,0
162811,129.811,-482.691,0,0
163071,132.805,-477.648,0,0
163331,136.233,-472.42,0,0
163592,140.159,-467.35,0,0
163852,144.54,-462.584,0,0
164112,149.044,-458.147,0,0
164373,153.596,-454.05,0,0
164633,157.863,-449.89,0,0
164893,162.215,-445.487,0,0
165154,166.748,-440.995,0,0
165414,171.369,-436.161,0,0
165674,176.265,-430.748,0,0
165935,182.182,-424.964,0,0
166195,189.091,-419.337,0,0
166455,196.777,-414.089,0,0
166716,205.012,-409.222,0,0
166976,213.633,-404.759,0,0
167236,222.8,-400.323,0,0
167497,233.03,-396.079,0,0
167757,244.38,-392.769,0,0
168017,256.152,-390.579,0,0
168277,268.322,-389.124,0,0
168538,280.945,-388.68,0,0
168798,294.112,-389.329,0,0
169058,307.357,-391.3,0,0
169319,320.641,-394.504,0,0
169579,333.68,-399.285,0,0
169839,345.671,-404.99,0,0
170100,357.429,-410.865,0,0
170360.075,369.368,-417.541,0,0
170620.4,381.85,-425.716,0,0
170880.725,393.622,-435.893,0,0
171141.05,403.482,-447.778,0,0
171401.375,411.831,-459.54,0,0
171661.7,419.891,-471.656,0,0
171922.025,427.32,-484.931,0,0
172182.35,433.713,-499.255,0,0
172442.675,438.957,-514.893,0,0
172703.0,441.953,-532.056,0,0
172963.325,441.923,-549.101,0,0
173223.65,440.465,-565.625,0,0
173483.975,436.795,-582.728,0,0
173744.3,429.895,-599.185,0,0
174004.625,420.098,-613.762,0,0
174264.95,407.952,-625.344,0,0
174525.275,395.145,-633.349,0,0
174785.6,382.534,-638.82,0,0
175045.925,370.297,-641.194,0,0
175306.25,360.185,-641.164,0,0
175566.575,351.993,-640.668,0,0
175826.9,344.302,-639.677,0,0
176087.225,337.771,-637.006,0,0
176347.55,333.53,-633.685,0,0
176607.875,331.239,-630.739,0,0
176868.2,330.439,-628.851,0,0
177128.525,329.856,-628.259,0,0
177388.85,329.139,-627.342,0,0
177649.175,329.903,-625.943,0,0
177909.5,332.891,-625.489,0,0
178169.825,337.538,-627.532,0,0
178430.15,342.265,-633.317,0,0
178690.475,344.451,-642.414,0,0
178950.8,342.985,-652.316,0,0
179211.125,338.498,-661.388,0,0
179471.45,332.043,-668.164,0,0
179731.775,326.017,-672.89,0,0
179992.1,320.859,-677.474,0,0
180252.425,315.233,-682.44,0,0
180512.75,309.029,-687.175,0,0
180773.075,301.994,-691.833,0,0
181033.4,293.945,-695.731,0,0
181293.725,285.376,-698.422,0,0
181554.05,276.929,-699.703,0,0
181814.375,269.714,-700.815,0,0
182074.7,261.924,-703.068,0,0
182335.025,252.327,-704.771,0,0
182595.35,241.558,-704.767,0,0
182855.675,230.649,-702.396,0,0
183116.0,221.024,-697.9,0,0
183376.325,213.257,-692.537,0,0
183636.65,207.091,-687.547,0,0
183896.975,201.236,-683.146,0,0
184157.3,195.203,-678.385,0,0
184417.625,190.081,-672.872,0,0
184677.95,186.119,-667.707,0,0
184938.275,182.607,-663.388,0,0
185198.6,178.561,-659.665,0,0
185458.925,173.886,-655.471,0,0
185719.25,169.358,-650.527,0,0
185979.575,165.202,-645.067,0,0
186239.9,161.824,-639.129,0,0
186500,159.353,-633.318,0,0
186761,157.163,-627.937,0,0
187021,155.15,-622.481,0,0
187281,153.648,-616.985,0,0
187542,152.737,-611.795,0,0
187802,152.17,-607.091,0,0
188062,151.745,-602.931,0,0
188322,151.19,-599.309,0,0
188583,150.433,-596.077,0,0
188843,149.058,-593.251,0,0
189103,146.861,-590.033,0,0
189364,144.481,-586.127,0,0
189624,142.417,-581.668,0,0
189884,140.741,-577.054,0,0
190145,139.115,-572.42,0,0
190405,137.653,-567.513,0,0
190665,136.426,-562.507,0,0
190926,135.321,-557.326,0,0
191186,134.595,-551.845,0,0
191446,134.534,-546.377,0,0
191707,134.841,-541.434,0,0
191967,135.007,-536.936,0,0
192227,134.814,-532.405,0,0
192488,134.536,-527.545,0,0
192748,134.476,-522.288,0,0
193008,134.87,-516.856,0,0
193269,135.729,-511.513,0,0
193529,136.913,-506.418,0,0
193789,138.215,-501.568,0,0
194050,139.511,-496.887,0,0
194310,140.767,-492.185,0,0
194570,142.237,-487.311,0,0
194831,144.075,-482.517,0,0
195091,146.163,-478.058,0,0
195351,148.226,-473.873,0,0
195612,150.207,-469.739,0,0
195872,152.389,-465.582,0,0
196132,154.638,-461.71,0,0
196393,156.773,-457.906,0,0
196653,158.929,-454.143,0,0
196913,161.327,-450.33,0,0
197174,163.822,-446.718,0,0
197434,166.4,-443.455,0,0
197694,168.843,-440.417,0,0
197955,170.937,-437.596,0,0
198215,172.673,-434.725,0,0
198475,174.26,-431.507,0,0
198735,175.848,-427.95,0,0
198996,177.582,-424.287,0,0
199256,179.487,-420.644,0,0
199516,181.281,-416.837,0,0
199777,183.023,-412.832,0,0
200037,185.119,-408.541,0,0
200297,187.468,-404.096,0,0
200558,190.071,-399.752,0,0
200818,192.788,-395.414,0,0
201078,195.665,-391.01,0,0
201339,198.615,-386.562,0,0
201599,201.802,-381.844,0,0
201859,205.375,-377.142,0,0
202120,209.142,-372.423,0,0
202380.025,213.214,-367.683,0,0
202640.35,217.711,-363.032,0,0
202900.675,222.551,-358.506,0,0
203161.0,227.49,-354.156,0,0
203421.325,232.737,-349.907,0,0
203681.65,238.124,-345.772,0,0
203941.975,243.754,-341.691,0,0
204202.3,249.726,-337.705,0,0
204462.625,255.917,-333.844,0,0
204722.95,262.436,-329.954,0,0
204983.275,269.518,-326.211,0,0
205243.6,277.143,-322.735,0,0
205503.925,285.48,-319.828,0,0
205764.25,294.249,-317.923,0,0
206024.575,303.005,-317.067,0,0
206284.9,311.302,-317.146,0,0
206545.225,318.882,-317.788,0,0
206805.55,325.556,-318.53,0,0
207065.875,331.687,-319.06,0,0
207326.2,337.484,-319.063,0,0
207586.525,343.396,-318.623,0,0
207846.85,349.419,-317.97,0,0
208107.175,355.572,-316.963,0,0
208367.5,362.158,-315.565,0,0
208627.825,369.346,-313.818,0,0
208888.15,377.484,-311.872,0,0
209148.475,386.833,-310.265,0,0
209408.8,396.963,-309.323,0,0
209669.125,407.94,-309.069,0,0
209929.45,419.59,-309.651,0,0
210189.775,432.174,-311.267,0,0
210450.1,445.631,-314.548,0,0
210710.425,459.379,-320.38,0,0
210970.75,471.631,-328.687,0,0
211231.075,481.994,-337.624,0,0
211491.4,491.6,-346.754,0,0
211751.725,500.724,-357.066,0,0
212012.05,508.009,-368.7,0,0
212272.375,512.993,-380.153,0,0
212532.7,516.569,-390.379,0,0
212793.025,520.014,-399.505,0,0
213053.35,523.807,-408.584,0,0
213313.675,526.998,-418.027,0,0
213574.0,529.564,-427.126,0,0
213834.325,532.022,-435.938,0,0
214094.65,534.42,-444.737,0,0
214354.975,536.781,-453.826,0,0
214615.3,538.643,-463.461,0,0
214875.625,539.379,-473.14,0,0
215135.95,539.521,-482.386,0,0
215396.275,539.327,-491.283,0,0
215656.6,538.77,-499.738,0,0
215916.925,538.402,-507.787,0,0
216177.25,538.419,-515.947,0,0
216437.575,538.52,-524.835,0,0
216697.9,537.832,-534.617,0,0
216958.225,535.945,-544.651,0,0
217218.55,532.991,-554.38,0,0
217478.875,529.218,-563.532,0,0
217739.2,525.286,-572.121,0,0
217999.525,521.277,-580.878,0,0
218259.85,516.213,-590.32,0,0
218520,509.301,-599.472,0,0
218780,500.872,-607.292,0,0
219041,491.604,-613.381,0,0
219301,482.297,-617.784,0,0
219561,473.244,-620.833,0,0
219822,464.417,-622.875,0,0
220082,455.96,-623.713,0,0
220342,448.343,-623.505,0,0
220603,441.346,-622.623,0,0
220863,435.275,-621.291,0,0
221123,429.751,-619.676,0,0
221384,424.73,-617.651,0,0
221644,420.625,-615.306,0,0
221904,417.347,-612.957,0,0
222165,414.667,-610.733,0,0
222425,412.499,-608.644,0,0
222685,411.023,-606.723,0,0
222946,409.788,-605.475,0,0
223206,408.55,-604.469,0,0
223466,407.32,-603.536,0,0
223727,406.296,-602.611,0,0
223987,405.375,-602.025,0,0
224247,404.216,-601.407,0,0
224508,403.054,-600.623,0,0
224768,401.875,-599.443,0,0
225028,401.134,-597.999,0,0
225289,400.809,-596.433,0,0
225549,401.151,-594.64,0,0
225809,402.082,-593.218,0,0
226070,403.585,-592.018,0,0
226330,405.534,-591.347,0,0
226590,407.739,-591.342,0,0
226851,409.815,-591.897,0,0
227111,411.81,-592.657,0,0
227371,413.826,-593.522,0,0
227632,416.17,-594.593,0,0
227892,418.953,-596.151,0,0
228152,421.762,-598.649,0,0
228413,424.29,-601.723,0,0
228673,426.44,-605.337,0,0
228933,428.223,-609.375,0,0
229193,429.481,-613.856,0,0
229454,429.981,-618.391,0,0
229714,430.157,-622.613,0,0
229974,430.421,-626.519,0,0
230235,431.016,-630.77,0,0
230495,431.628,-635.897,0,0
230755,431.368,-641.711,0,0
231016,430.002,-647.467,0,0
231276,428.062,-652.681,0,0
231536,426.113,-657.399,0,0
231797,424.342,-662.063,0,0
232057,422.571,-667.032,0,0
232317,420.594,-672.261,0,0
232578,418.423,-677.937,0,0
232838,415.595,-684.03,0,0
233098,412.116,-690.216,0,0
233359,407.998,-696.651,0,0
233619,402.794,-703.391,0,0
233879,395.954,-709.748,0,0
234140,387.88,-714.85,0,0
234400,379.563,-718.613,0,0
234660.3,371.087,-721.393,0,0
234920.625,362.755,-723.25,0,0
235180.95,354.397,-724.321,0,0
235441.275,346.098,-724.582,0,0
235701.6,338.419,-723.907,0,0
235961.925,331.075,-722.918,0,0
236222.25,324.069,-721.554,0,0
236482.575,317.317,-719.811,0,0
236742.9,311.102,-717.685,0,0
237003.225,305.158,-715.767,0,0
237263.55,298.794,-713.731,0,0
237523.875,292.133,-710.731,0,0
237784.2,286.068,-706.482,0,0
238044.525,281.14,-701.642,0,0
238304.85,277.261,-696.711,0,0
238565.175,274.189,-691.828,0,0
238825.5,271.914,-687.21,0,0
239085.825,270.408,-682.939,0,0
239346.15,269.387,-679.169,0,0
239606.475,268.785,-675.78,0,0
239866.8,268.666,-673.175,0,0
240127.125,268.838,-671.367,0,0
240387.45,268.558,-670.649,0,0
240647.775,267.475,-670.613,0,0
240908.1,265.59,-670.48,0,0
241168.425,263.266,-670.229,0,0
241428.75,260.439,-669.854,0,0
241689.075,257.05,-669.242,0,0
241949.4,253.139,-667.941,0,0
242209.725,249.18,-665.849,0,0
242470.05,245.384,-662.985,0,0
242730.375,242.033,-659.541,0,0
242990.7,239.33,-655.711,0,0
243251.025,237.171,-651.758,0,0
243511.35,235.429,-647.85,0,0
243771.675,233.982,-643.844,0,0
244032.0,233.065,-639.508,0,0
244292.325,233.039,-635.092,0,0
244552.65,233.964,-631.289,0,0
244812.975,235.366,-628.476,0,0
245073.3,236.711,-626.642,0,0
245333.625,237.599,-625.549,0,0
245593.95,237.854,-624.731,0,0
245854.275,237.707,-623.922,0,0
246114.6,237.236,-623.109,0,0
246374.925,236.314,-622.302,0,0
246635.25,235.12,-621.142,0,0
246895.575,233.76,-619.622,0,0
247155.9,232.599,-617.782,0,0
247416.225,231.486,-615.791,0,0
247676.55,230.457,-613.734,0,0
247936.875,229.534,-611.572,0,0
248197.2,228.605,-609.261,0,0
248457.525,227.71,-606.726,0,0
248717.85,227.065,-603.965,0,0
248978.175,226.729,-601.073,0,0
249238.5,226.607,-598.233,0,0
249498.825,226.761,-595.297,0,0
249759.15,227.16,-592.307,0,0
250019.475,227.818,-589.448,0,0
250279.8,228.7,-586.714,0,0
250540,229.691,-584.032,0,0
250800,231.015,-581.316,0,0
251061,232.68,-578.839,0,0
251321,234.414,-576.638,0,0
251581,236.227,-574.606,0,0
251842,238.142,-572.528,0,0
252102,240.442,-570.523,0,0
252362,243.156,-568.809,0,0
252623,246.105,-567.584,0,0
252883,249.149,-566.833,0,0
253143,252.21,-566.57,0,0
253404,255.156,-566.775,0,0
253664,257.936,-567.393,0,0
253924,260.509,-568.339,0,0
254185,262.854,-569.705,0,0
254445,264.842,-571.329,0,0
254705,266.41,-573.198,0,0
254966,267.653,-574.977,0,0
255226,268.601,-576.894,0,0
255486,269.382,-578.842,0,0
255747,269.807,-580.966,0,0
256007,269.716,-583.082,0,0
256267,269.295,-584.948,0,0
256528,268.7,-586.598,0,0
256788,267.903,-588.121,0,0
257048,266.904,-589.492,0,0
257309,265.663,-590.661,0,0
257569,264.275,-591.424,0,0
257829,262.901,-591.794,0,0
258090,261.752,-591.905,0,0
258350,260.837,-591.838,0,0
258610,260.151,-591.758,0,0
258871,259.599,-591.855,0,0
259131,259.009,-592.018,0,0
259391,258.471,-592.254,0,0
259651,257.823,-592.535,0,0
259912,256.985,-592.848,0,0
260172,255.985,-593.164,0,0
260432,254.729,-593.075,0,0
260693,253.53,-592.798,0,0
260953,252.451,-592.194,0,0
261213,251.538,-591.457,0,0
261474,250.764,-590.561,0,0
261734,250.231,-589.532,0,0
261994,249.845,-588.419,0,0
262255,249.726,-587.197,0,0
262515,249.994,-585.908,0,0
262775,250.666,-584.801,0,0
263036,251.599,-583.937,0,0
263296,252.751,-583.395,0,0
263556,254.068,-583.244,0,0
263817,255.325,-583.465,0,0
264077,256.457,-583.948,0,0
264337,257.429,-584.699,0,0
264598,258.349,-585.665,0,0
264858,258.903,-586.773,0,0
265118,259.251,-587.937,0,0
265379,259.421,-589.025,0,0
265639,259.497,-589.999,0,0
265899,259.554,-591.02,0,0
266160,259.675,-592.004,0,0
266420,259.819,-593.069,0,0
266680.25,259.973,-594.371,0,0
266940.575,260.03,-595.793,0,0
267200.9,259.871,-597.498,0,0
267461.225,259.415,-599.354,0,0
267721.55,258.561,-601.173,0,0
267981.875,257.327,-602.904,0,0
268242.2,255.753,-604.381,0,0
268502.525,253.992,-605.45,0,0
268762.85,252.23,-606.138,0,0
269023.175,250.519,-606.579,0,0
269283.5,248.836,-606.798,0,0
269543.825,247.181,-606.742,0,0
269804.15,245.771,-606.222,0,0
270064.475,244.8,-605.405,0,0
270324.8,244.292,-604.427,0,0
270585.125,244.353,-603.581,0,0
270845.45,244.823,-602.907,0,0
271105.775,245.628,-602.559,0,0
271366.1,246.838,-602.423,0,0
271626.425,248.526,-602.66,0,0
271886.75,250.747,-603.526,0,0
272147.075,253.238,-605.556,0,0
272407.4,255.544,-608.75,0,0
272667.725,257.09,-613.076,0,0
272928.05,257.596,-618.018,0,0
273188.375,257.119,-623.166,0,0
273448.7,255.807,-628.397,0,0
273709.025,253.664,-633.724,0,0
273969.35,250.604,-639.012,0,0
274229.675,246.646,-643.944,0,0
274490.0,241.93,-648.418,0,0
274750.325,236.656,-652.439,0,0
275010.65,230.698,-656.012,0,0
275270.975,224.119,-658.912,0,0
275531.3,216.988,-660.959,0,0
275791.625,209.612,-662.028,0,0
276051.95,202.12,-662.181,0,0
276312.275,194.744,-661.501,0,0
276572.6,187.506,-660.001,0,0
276832.925,180.529,-657.653,0,0
277093.25,174.025,-654.589,0,0
277353.575,168.068,-650.869,0,0
277613.9,162.754,-646.763,0,0
277874.225,158.014,-642.37,0,0
278134.55,153.837,-637.752,0,0
278394.875,150.186,-632.958,0,0
278655.2,147.173,-628,0,0
278915.525,144.787,-623.081,0,0
279175.85,142.944,-618.403,0,0
279436.175,141.419,-613.957,0,0
279696.5,140.181,-609.78,0,0
279956.825,139.073,-605.694,0,0
280217.15,138.235,-601.673,0,0
280477.475,137.697,-597.712,0,0
280737.8,137.531,-594.032,0,0
280998.125,137.594,-590.803,0,0
281258.45,137.597,-587.995,0,0
281518.775,137.36,-585.439,0,0
281779.1,136.96,-582.929,0,0
282039.425,136.435,-580.385,0,0
282299.75,135.853,-577.773,0,0
282560,135.251,-575.153,0,0
282820,134.527,-572.371,0,0
283081,133.779,-569.492,0,0
283341,133.27,-566.246,0,0
283601,132.876,-562.704,0,0
283862,133.011,-559.18,0,0
284122,133.283,-555.787,0,0
284382,133.985,-552.395,0,0
284643,134.914,-549.154,0,0
284903,136.176,-546.138,0,0
285163,137.632,-543.365,0,0
285424,139.153,-540.869,0,0
285684,140.773,-538.708,0,0
285944,142.422,-536.8,0,0
286205,143.968,-535.139,0,0
286465,145.45,-533.584,0,0
286725,146.874,-532.331,0,0
286986,148.206,-531.184,0,0
287246,149.417,-530.315,0,0
287506,150.433,-529.532,0,0
287767,151.231,-528.794,0,0
288027,151.66,-528.063,0,0
288287,152.111,-527.286,0,0
288548,152.179,-526.292,0,0
288808,152.346,-525.12,0,0
289068,152.41,-523.756,0,0
289329,152.531,-522.304,0,0
289589,152.75,-520.699,0,0
289849,152.967,-519.017,0,0
290109,153.305,-517.238,0,0
290370,153.783,-515.201,0,0
290630,154.407,-513.092,0,0
290890,155.385,-510.948,0,0
291151,156.701,-509.027,0,0
291411,157.999,-507.293,0,0
291671,159.32,-505.655,0,0
291932,160.612,-504.045,0,0
292192,162.022,-502.581,0,0
292452,163.329,-501.102,0,0
292713,164.81,-499.628,0,0
292973,166.293,-498.175,0,0
293233,167.888,-496.854,0,0
293494,169.545,-495.497,0,0
293754,171.237,-494.195,0,0
294014,172.942,-493.045,0,0
294275,174.729,-491.936,0,0
294535,176.483,-490.819,0,0
294795,178.312,-489.625,0,0
295056,180.335,-488.508,0,0
295316,182.416,-487.39,0,0
295576,184.599,-486.473,0,0
295837,186.873,-485.624,0,0
296097,189.155,-484.881,0,0
296357,191.491,-484.197,0,0
296618,193.902,-483.489,0,0
296878,196.514,-482.98,0,0
297138,199.143,-482.406,0,0
297399,201.952,-482.088,0,0
297659,204.875,-481.895,0,0
297919,207.856,-481.904,0,0
298180,210.928,-482.27,0,0
298440,213.915,-482.668,0,0
298700.2,216.876,-483.183,0,0
298960.525,219.898,-483.787,0,0
299220.85,222.899,-484.456,0,0
299481.175,226.167,-485.196,0,0
299741.5,229.507,-486.212,0,0
300001.825,232.982,-487.562,0,0
300262.15,236.634,-489,0,0
300522.475,240.371,-490.894,0,0
300782.8,244.088,-493.006,0,0
301043.125,247.885,-495.594,0,0
301303.45,251.772,-498.614,0,0
301563.775,255.674,-502.187,0,0
301824.1,259.389,-506.288,0,0
302084.425,262.792,-511.082,0,0
302344.75,265.859,-516.549,0,0
302605.075,268.199,-522.558,0,0
302865.4,269.877,-528.893,0,0
303125.725,270.766,-535.493,0,0
303386.05,270.815,-542.133,0,0
303646.375,270.11,-548.682,0,0
303906.7,268.686,-555.003,0,0
304167.025,266.675,-560.894,0,0
304427.35,264.271,-566.463,0,0
304687.675,261.589,-571.665,0,0
304948.0,258.621,-576.636,0,0
305208.325,255.434,-581.288,0,0
305468.65,251.911,-585.822,0,0
305728.975,248.027,-590.062,0,0
305989.3,243.808,-593.943,0,0
306249.625,239.339,-597.379,0,0
306509.95,234.672,-600.356,0,0
306770.275,229.935,-602.904,0,0
307030.6,225.18,-605.034,0,0
307290.925,220.455,-606.817,0,0
307551.25,215.776,-608.33,0,0
307811.575,211.109,-609.521,0,0
308071.9,206.457,-610.493,0,0
308332.225,201.79,-611.181,0,0
308592.55,197.11,-611.556,0,0
308852.875,192.501,-611.603,0,0
309113.2,187.949,-611.324,0,0
309373.525,183.58,-610.682,0,0
309633.85,179.418,-609.717,0,0
309894.175,175.548,-608.529,0,0
310154.5,171.956,-607.156,0,0
310414.825,168.705,-605.727,0,0
310675.15,165.695,-604.303,0,0
310935.475,162.885,-602.912,0,0
311195.8,160.198,-601.565,0,0
311456.125,157.627,-600.204,0,0
311716.45,155.146,-598.902,0,0
311976.775,152.743,-597.628,0,0
312237.1,150.408,-596.361,0,0
312497.425,148.062,-595.129,0,0
312757.75,145.696,-593.844,0,0
313018.075,143.321,-592.5,0,0
313278.4,140.978,-591.031,0,0
313538.725,138.681,-589.466,0,0
313799.05,136.48,-587.813,0,0
314059.375,134.366,-586.1,0,0
314319.7,132.367,-584.253,0,0
314580,130.447,-582.352,0,0
314840,128.665,-580.306,0,0
315101,127.128,-578.284,0,0
315361,125.673,-576.238,0,0
315621,124.418,-574.217,0,0
315882,123.286,-572.21,0,0
316142,122.316,-570.245,0,0
316402,121.474,-568.352,0,0
316663,120.724,-566.593,0,0
316923,120.038,-564.95,0,0
317183,119.344,-563.386,0,0
317444,118.632,-561.826,0,0
317704,117.95,-560.289,0,0
317964,117.345,-558.747,0,0
318225,116.801,-557.251,0,0
318485,116.285,-555.819,0,0
318745,115.813,-554.432,0,0
319006,115.368,-553.065,0,0
319266,114.984,-551.744,0,0
319526,114.626,-550.461,0,0
319787,114.301,-549.245,0,0
320047,114.011,-548.098,0,0
320307,113.698,-546.966,0,0
320567,113.378,-545.912,0,0
320828,113.085,-544.911,0,0
321088,112.781,-543.921,0,0
321348,112.476,-542.985,0,0
321609,112.158,-542.056,0,0
321869,111.827,-541.139,0,0
322129,111.509,-540.257,0,0
322390,111.196,-539.386,0,0
322650,110.88,-538.548,0,0
322910,110.573,-537.734,0,0
323171,110.258,-536.96,0,0
323431,109.911,-536.226,0,0
323691,109.517,-535.466,0,0
323952,109.124,-534.703,0,0
324212,108.726,-533.934,0,0
324472,108.331,-533.165,0,0
324733,107.952,-532.385,0,0
324993,107.571,-531.554,0,0
325253,107.243,-530.726,0,0
325514,106.975,-529.892,0,0
325774,106.778,-529.102,0,0
326034,106.616,-528.379,0,0
326295,106.482,-527.705,0,0
326555,106.354,-527.111,0,0
326815,106.236,-526.611,0,0
327076,106.085,-526.172,0,0
327336,105.897,-525.814,0,0
327596,105.646,-525.52,0,0
327857,105.301,-525.248,0,0
328117,104.903,-524.988,0,0
328377,104.438,-524.729,0,0
328638,103.915,-524.451,0,0
328898,103.354,-524.145,0,0
329158,102.78,-523.844,0,0
329419,102.166,-523.519,0,0
329679,101.542,-523.185,0,0
329939,100.88,-522.848,0,0
330200,100.225,-522.501,0,0
330460,99.5438,-522.158,0,0
330720.15,98.8411,-521.829,0,0
330980.475,98.11,-521.447,0,0
331240.8,97.344,-521.169,0,0
331501.125,96.4763,-520.871,0,0
331761.45,95.5821,-520.458,0,0
332021.775,94.6543,-520.101,0,0
332282.1,93.6007,-519.724,0,0
332542.425,92.5414,-519.267,0,0
332802.75,91.486,-518.736,0,0
333063.075,90.4327,-518.091,0,0
333323.4,89.3126,-517.438,0,0
333583.725,88.1812,-516.63,0,0
333844.05,87.0508,-515.912,0,0
334104.375,86.0068,-515.08,0,0
334364.7,85.0102,-514.24,0,0
334625.025,83.9599,-513.312,0,0
334885.35,82.9578,-512.387,0,0
335145.675,81.9849,-511.413,0,0
335406.0,80.9895,-510.43,0,0
335666.325,79.9875,-509.389,0,0
335926.65,79.0117,-508.344,0,0
336186.975,78.0949,-507.181,0,0
336447.3,77.1914,-506.013,0,0
336707.625,76.2908,-504.902,0,0
336967.95,75.4588,-503.709,0,0
337228.275,74.593,-502.411,0,0
337488.6,73.7852,-501.18,0,0
337748.925,73.0283,-499.836,0,0
338009.25,72.3392,-498.572,0,0
338269.575,71.7111,-497.238,0,0
338529.9,71.0925,-495.918,0,0
338790.225,70.4621,-494.662,0,0
339050.55,69.9075,-493.291,0,0
339310.875,69.3639,-492.001,0,0
339571.2,68.8056,-490.734,0,0
339831.525,68.2676,-489.398,0,0
340091.85,67.7737,-488.107,0,0
340352.175,67.3296,-486.716,0,0
340612.5,66.8204,-485.33,0,0
340872.825,66.4431,-484.01,0,0
341133.15,65.9755,-482.59,0,0
341393.475,65.601,-481.211,0,0
341653.8,65.319,-479.766,0,0
341914.125,65.0218,-478.381,0,0
342174.45,64.7467,-476.957,0,0
342434.775,64.5628,-475.54,0,0
342695.1,64.3895,-474.06,0,0
342955.425,64.2851,-472.701,0,0
343215.75,64.2646,-471.316,0,0
343476.075,64.2148,-469.895,0,0
343736.4,64.254,-468.555,0,0
343996.725,64.3467,-467.177,0,0
344257.05,64.4502,-465.91,0,0
344517.375,64.6773,-464.652,0,0
344777.7,64.8896,-463.484,0,0
345038.025,65.0771,-462.313,0,0
345298.35,65.3509,-461.255,0,0
345558.675,65.5639,-460.227,0,0
345819.0,65.8023,-459.311,0,0
346079.325,66.0939,-458.458,0,0
346339.65,66.2771,-457.631,0,0
346599.975,66.3648,-456.899,0,0
346860,66.4354,-456.19,0,0
347121,66.4311,-455.475,0,0
347381,66.3335,-454.778,0,0
347641,66.1823,-454.036,0,0
347902,66.0354,-453.24,0,0
348162,65.7827,-452.486,0,0
348422,65.5303,-451.607,0,0
348683,65.2514,-450.683,0,0
348943,65.0064,-449.711,0,0
349203,64.7491,-448.707,0,0
349464,64.5681,-447.582,0,0
349724,64.3878,-446.503,0,0
349984,64.2319,-445.437,0,0
350245,64.1141,-444.333,0,0
350505,63.9561,-443.232,0,0
350765,63.7625,-442.014,0,0
351025,63.6431,-440.816,0,0
351286,63.5401,-439.505,0,0
351546,63.5215,-438.236,0,0
351806,63.6512,-436.899,0,0
352067,63.7834,-435.544,0,0
352327,64.0456,-434.262,0,0
352587,64.346,-433.042,0,0
352848,64.7348,-431.802,0,0
353108,65.089,-430.615,0,0
353368,65.5481,-429.524,0,0
353629,65.9783,-428.481,0,0
353889,66.4965,-427.419,0,0
354149,66.9902,-426.452,0,0
354410,67.4855,-425.589,0,0
354670,68.0325,-424.742,0,0
354930,68.5089,-423.919,0,0
355191,69.0497,-423.157,0,0
355451,69.5685,-422.513,0,0
355711,70.1017,-421.872,0,0
355972,70.5415,-421.404,0,0
356232,70.9153,-420.937,0,0
356492,71.2206,-420.557,0,0
356753,71.4402,-420.173,0,0
357013,71.533,-419.767,0,0
357273,71.5708,-419.381,0,0
357534,71.526,-419.033,0,0
357794,71.3854,-418.525,0,0
358054,71.1889,-417.984,0,0
358315,70.8935,-417.353,0,0
358575,70.6331,-416.638,0,0
358835,70.3335,-415.797,0,0
359096,70.1205,-414.821,0,0
359356,69.9456,-413.837,0,0
359616,69.7565,-412.764,0,0
359877,69.6921,-411.694,0,0
360137,69.7,-410.53,0,0
360397,69.6697,-409.406,0,0
360658,69.785,-408.2,0,0
360918,69.8813,-406.985,0,0
361178,70.0686,-405.82,0,0
361438,70.3652,-404.589,0,0
361699,70.7112,-403.416,0,0
361959,71.1341,-402.293,0,0
362219,71.5571,-401.095,0,0
362480,72.0079,-400.043,0,0
362740.1,72.5095,-398.975,0,0
363000.425,73.0263,-398.012,0,0
363260.75,73.5192,-396.957,0,0
363521.075,74.1089,-395.924,0,0
363781.4,74.6854,-394.902,0,0
364041.725,75.3495,-393.947,0,0
364302.05,75.9883,-393.002,0,0
364562.375,76.698,-392.081,0,0
364822.7,77.4684,-391.221,0,0
365083.025,78.2296,-390.426,0,0
365343.35,78.9951,-389.712,0,0
365603.675,79.8006,-389.013,0,0
365864.0,80.6244,-388.412,0,0
366124.325,81.3867,-387.908,0,0
366384.65,82.0958,-387.394,0,0
366644.975,82.7463,-386.922,0,0
366905.3,83.3623,-386.419,0,0
367165.625,84.0101,-385.87,0,0
367425.95,84.676,-385.418,0,0
367686.275,85.3382,-384.947,0,0
367946.6,86.0436,-384.524,0,0
368206.925,86.7253,-384.128,0,0
368467.25,87.3766,-383.736,0,0
368727.575,88.032,-383.455,0,0
368987.9,88.6894,-383.162,0,0
369248.225,89.3373,-382.976,0,0
369508.55,89.9603,-382.804,0,0
369768.875,90.53,-382.64,0,0
370029.2,91.0481,-382.62,0,0
370289.525,91.542,-382.611,0,0
370549.85,91.8591,-382.637,0,0
370810.175,92.0905,-382.676,0,0
371070.5,92.2216,-382.655,0,0
371330.825,92.2351,-382.603,0,0
371591.15,92.1843,-382.464,0,0
371851.475,92.0771,-382.227,0,0
372111.8,91.9696,-381.857,0,0
372372.125,91.8779,-381.361,0,0
372632.45,91.874,-380.803,0,0
372892.775,91.9044,-380.23,0,0
373153.1,91.9481,-379.62,0,0
373413.425,92.081,-378.958,0,0
373673.75,92.2584,-378.233,0,0
373934.075,92.4807,-377.586,0,0
374194.4,92.7975,-376.894,0,0
374454.725,93.1345,-376.29,0,0
374715.05,93.5294,-375.648,0,0
374975.375,93.9302,-375.067,0,0
375235.7,94.3459,-374.563,0,0
375496.025,94.7583,-374.099,0,0
375756.35,95.1249,-373.679,0,0
376016.675,95.5188,-373.238,0,0
376277.0,95.8556,-372.864,0,0
376537.325,96.1787,-372.507,0,0
376797.65,96.3989,-372.131,0,0
377057.975,96.6018,-371.669,0,0
377318.3,96.7538,-371.263,0,0
377578.625,96.9381,-370.738,0,0
377838.95,97.1104,-370.157,0,0
378099.275,97.2834,-369.585,0,0
378359.6,97.52,-368.975,0,0
378619.925,97.7854,-368.284,0,0
378880,98.0945,-367.603,0,0
379141,98.4747,-366.932,0,0
379401,98.8684,-366.293,0,0
379661,99.3576,-365.651,0,0
379922,99.8074,-365.11,0,0
380182,100.216,-364.542,0,0
380442,100.641,-364.038,0,0
380703,101.047,-363.464,0,0
380963,101.455,-362.886,0,0
381223,101.866,-362.287,0,0
381483,102.337,-361.696,0,0
381744,102.808,-361.115,0,0
382004,103.302,-360.552,0,0
382264,103.791,-359.935,0,0
382525,104.379,-359.398,0,0
382785,104.915,-358.847,0,0
383045,105.489,-358.311,0,0
383306,106.034,-357.842,0,0
383566,106.643,-357.357,0,0
383826,107.156,-356.912,0,0
384087,107.664,-356.431,0,0
384347,108.203,-356.011,0,0
384607,108.755,-355.472,0,0
384868,109.36,-355.001,0,0
385128,109.924,-354.538,0,0
385388,110.534,-354.098,0,0
385649,111.057,-353.672,0,0
385909,111.647,-353.289,0,0
386169,112.224,-352.875,0,0
386430,112.737,-352.459,0,0
386690,113.255,-352.051,0,0
386950,113.781,-351.658,0,0
387211,114.214,-351.198,0,0
387471,114.675,-350.727,0,0
387731,115.059,-350.155,0,0
387992,115.497,-349.443,0,0
388252,116.06,-348.743,0,0
388512,116.701,-347.938,0,0
388773,117.465,-347.127,0,0
389033,118.345,-346.339,0,0
389293,119.335,-345.642,0,0
389554,120.36,-345.008,0,0
389814,121.486,-344.474,0,0
390074,122.562,-344.007,0,0
390335,123.617,-343.64,0,0
390595,124.662,-343.264,0,0
390855,125.743,-342.927,0,0
391116,126.882,-342.566,0,0
391376,128.014,-342.29,0,0
391636,129.179,-342.099,0,0
391896,130.33,-341.944,0,0
392157,131.434,-341.884,0,0
392417,132.482,-341.816,0,0
392677,133.517,-341.832,0,0
392938,134.499,-341.909,0,0
393198,135.433,-341.849,0,0
393458,136.338,-341.887,0,0
393719,137.191,-341.837,0,0
393979,138.038,-341.731,0,0
394239,138.844,-341.57,0,0
394500,139.728,-341.301,0,0
394760.05,140.684,-341.021,0,0
395020.375,141.713,-340.706,0,0
395280.7,142.821,-340.335,0,0
395541.025,144.042,-340.037,0,0
395801.35,145.288,-339.721,0,0
396061.675,146.677,-339.399,0,0
396322.0,148.146,-339.127,0,0
396582.325,149.711,-338.833,0,0
396842.65,151.429,-338.655,0,0
397102.975,153.23,-338.492,0,0
397363.3,155.227,-338.464,0,0
397623.625,157.31,-338.532,0,0
397883.95,159.529,-338.744,0,0
398144.275,161.87,-339.175,0,0
398404.6,164.312,-339.768,0,0
398664.925,166.867,-340.631,0,0
398925.25,169.482,-341.747,0,0
399185.575,172.08,-343.25,0,0
399445.9,174.598,-345.042,0,0
399706.225,177.037,-347.169,0,0
399966.55,179.266,-349.602,0,0
400006.6,179.608,-350.003,0,0