File: Accelerated corrosion test data/2025-10-22_06-00-04/sample_2.csv
Frequency (Hz),Impedance (ohms),Phase (Radians),Temperature (C),Humidity (%)
10000.0,233.294,-11465.4,0,0
10260.325,227.021,-11177,0,0
10520.65,221.47,-10902.8,0,0
10780.975,216.482,-10641.5,0,0
11041.3,211.484,-10392.9,0,0
11301.625,206.367,-10154.9,0,0
11561.95,202.509,-9926.7,0,0
11822.275,202.065,-9717.19,0,0
12082.6,195.659,-9505.96,0,0
12342.925,190.541,-9309.38,0,0
12603.25,185.969,-9116.85,0,0
12863.575,182.748,-8932.76,0,0
13123.9,179.399,-8758.92,0,0
13384.225,175.046,-8587.2,0,0
13644.55,173.639,-8422.05,0,0
13904.875,186.627,-8261.7,0,0
14165.2,167.263,-8121.86,0,0
14425.525,163.685,-7974.11,0,0
14685.8,165.954,-7826.29,0,0
14946.175,161.45,-7698.05,0,0
15206.5,169.683,-7572.43,0,0
15466.825,159.621,-7440.64,0,0
15727.15,153.854,-7326.87,0,0
15987.5,150.44,-7204.94,0,0
16247.8,149.74,-7089.98,0,0
16508.125,144.738,-6979.65,0,0
16768.45,142.558,-6871.4,0,0
17028.775,141.807,-6766.43,0,0
17289.1,140.248,-6665.04,0,0
17549.425,136.004,-6566.66,0,0
17809.75,134.851,-6470.4,0,0
18070.075,132.569,-6377.44,0,0
18330.4,130.714,-6285.88,0,0
18590.725,129.593,-6197.35,0,0
18851.05,128.338,-6111.55,0,0
19111.375,129.776,-6029.37,0,0
19371.7,129.825,-5951.75,0,0
19632.025,124.168,-5873.3,0,0
19892.35,121.715,-5795.22,0,0
20152.675,120.094,-5719.21,0,0
20413.0,119.272,-5644.48,0,0
20673.3,118.529,-5571.64,0,0
20933.65,119.158,-5499.73,0,0
21193.975,126.77,-5430.74,0,0
21454.3,131.172,-5369.73,0,0
21714.625,129.716,-5314.38,0,0
21974.9,121.096,-5251.28,0,0
22235.275,120.619,-5195.88,0,0
22495.6,115.949,-5135.07,0,0
22755.925,112.16,-5073.9,0,0
23016.25,113.664,-5017.96,0,0
23276.6,114.525,-4962.77,0,0
23536.9,109.095,-4907.99,0,0
23797.225,107.943,-4853.37,0,0
24057.55,107.857,-4802.61,0,0
24317.875,103.5,-4752.33,0,0
24578.2,102.392,-4700.6,0,0
24838.525,100.805,-4649.84,0,0
25098.85,99.6649,-4600.79,0,0
25359.175,98.9966,-4553.92,0,0
25619.5,98.6511,-4506.78,0,0
25879.8,96.9708,-4460.54,0,0
26140.1,97.6403,-4415.09,0,0
26400.5,96.489,-4372.67,0,0
26660.8,96.9625,-4329.92,0,0
26921.1,95.4623,-4287.92,0,0
27181.4,94.1028,-4247.82,0,0
27441.8,92.7056,-4207.14,0,0
27702.1,91.324,-4167.1,0,0
27962.4,90.3565,-4126.39,0,0
28222.7,90.7083,-4088,0,0
28483.1,90.8147,-4049.98,0,0
28743.4,90.0088,-4012.53,0,0
29003.7,91.2023,-3974.94,0,0
29264,91.7499,-3939.93,0,0
29524.4,93.3479,-3903.13,0,0
29784.7,97.5013,-3873.23,0,0
30045,94.3402,-3843.32,0,0
30305.3,94.2025,-3809.82,0,0
30565.7,91.7685,-3782.14,0,0
30826,88.5225,-3749.01,0,0
31086.3,86.9225,-3716.63,0,0
31346.6,85.2106,-3686.23,0,0
31607,85.3852,-3654.01,0,0
31867.3,84.03,-3625.57,0,0
32127.6,82.8294,-3594.74,0,0
32387.9,82.6645,-3563.92,0,0
32648.3,83.8693,-3536.2,0,0
32908.6,84.3419,-3509.93,0,0
33168.9,82.2311,-3483.38,0,0
33429.2,80.1037,-3455.81,0,0
33689.6,80.1391,-3428.59,0,0
33949.9,78.9658,-3402.19,0,0
34210.2,77.3699,-3376.46,0,0
34470.5,76.541,-3349.93,0,0
34730.9,76.0853,-3324.23,0,0
34991.2,75.4545,-3299.29,0,0
35251.5,75.0573,-3274.52,0,0
35511.8,74.4531,-3250.01,0,0
35772.2,73.9398,-3226.06,0,0
36032.5,73.4774,-3202.42,0,0
36292.8,72.6491,-3179.21,0,0
36553.1,72.351,-3156.21,0,0
36813.5,71.5893,-3133.3,0,0
37073.8,71.3641,-3110.81,0,0
37334.1,71.3019,-3088.82,0,0
37594.4,70.9866,-3067.18,0,0
37854.8,70.3923,-3045.85,0,0
38115.1,70.3305,-3024.82,0,0
38375.4,69.4311,-3004.06,0,0
38635.7,69.1624,-2983.35,0,0
38896.1,68.6841,-2962.86,0,0
39156.4,68.2922,-2942.97,0,0
39416.7,67.7951,-2923.09,0,0
39677,67.4774,-2903.38,0,0
39937.4,66.9947,-2884.03,0,0
40197.7,66.8197,-2864.94,0,0
40458,66.5558,-2845.82,0,0
40718.3,66.4342,-2827.24,0,0
40978.7,66.1795,-2809.11,0,0
41239,65.7971,-2790.69,0,0
41499.3,65.9457,-2772.93,0,0
41759.6,65.5179,-2755.47,0,0
42020,65.1252,-2738.07,0,0
42280.275,65.2586,-2720.75,0,0
42540.6,64.7292,-2704.22,0,0
42800.925,64.4329,-2687.41,0,0
43061.25,64.0975,-2670.81,0,0
43321.575,63.6755,-2654.25,0,0
43581.9,63.474,-2637.93,0,0
43842.225,63.2983,-2621.5,0,0
44102.55,62.9762,-2605.76,0,0
44362.875,62.8708,-2590.07,0,0
44623.2,62.6535,-2574.52,0,0
44883.525,62.1778,-2559.28,0,0
45143.85,61.9137,-2543.76,0,0
45404.175,62.0576,-2529.1,0,0
45664.5,62.0614,-2514.19,0,0
45924.825,61.6453,-2499.47,0,0
46185.15,62.1189,-2485.17,0,0
46445.475,61.65,-2471.3,0,0
46705.8,60.9461,-2457.12,0,0
46966.125,60.8005,-2442.65,0,0
47226.45,60.8821,-2428.5,0,0
47486.775,61.3905,-2414.98,0,0
47747.1,60.518,-2401.87,0,0
48007.425,60.479,-2387.94,0,0
48267.75,60.936,-2374.43,0,0
48528.075,62.0963,-2361.92,0,0
48788.4,61.4364,-2350.22,0,0
49048.725,60.6942,-2338,0,0
49309.05,59.9885,-2325.2,0,0
49569.375,59.326,-2312.54,0,0
49829.7,58.9374,-2300.06,0,0
50090.025,58.5555,-2287.65,0,0
50350.35,57.9253,-2275.46,0,0
50610.675,57.7107,-2262.98,0,0
50871.0,57.6317,-2250.87,0,0
51131.325,57.643,-2239.29,0,0
51391.65,57.0451,-2227.56,0,0
51651.975,56.6632,-2216.05,0,0
51912.3,56.206,-2204.18,0,0
52172.625,55.7767,-2192.71,0,0
52432.95,55.6272,-2181.11,0,0
52693.275,55.3567,-2169.71,0,0
52953.6,55.107,-2158.52,0,0
53213.925,54.9855,-2147.3,0,0
53474.25,54.8761,-2136.24,0,0
53734.575,54.5562,-2125.27,0,0
53994.9,54.4149,-2114.45,0,0
54255.225,54.3251,-2103.62,0,0
54515.55,54.3256,-2092.98,0,0
54775.875,54.3343,-2082.58,0,0
55036.2,54.2609,-2072.03,0,0
55296.525,54.0849,-2061.82,0,0
55556.85,53.9246,-2051.51,0,0
55817.175,53.9659,-2041.24,0,0
56077.5,53.8717,-2031.16,0,0
56337.825,53.8963,-2021.26,0,0
56598.15,53.895,-2011.33,0,0
56858.475,53.9019,-2001.57,0,0
57118.8,53.917,-1991.97,0,0
57379.125,53.9343,-1982.27,0,0
57639.45,53.9504,-1972.62,0,0
57899.775,54.1261,-1963.27,0,0
58160.1,54.0725,-1954,0,0
58420.4,54.0104,-1944.75,0,0
58680.7,53.8419,-1935.43,0,0
58941.1,54.1031,-1926.27,0,0
59201.4,54.258,-1916.95,0,0
59461.7,54.5584,-1907.97,0,0
59722,54.9824,-1898.97,0,0
59982.4,55.3017,-1889.9,0,0
60242.7,56.2803,-1881.48,0,0
60503,56.5206,-1873.75,0,0
60763.3,56.6274,-1865.34,0,0
61023.7,56.8933,-1856.93,0,0
61284,57.2668,-1848.72,0,0
61544.3,58.0856,-1840.75,0,0
61804.6,58.6896,-1833.48,0,0
62065,58.944,-1826.95,0,0
62325.3,57.8372,-1819.72,0,0
62585.6,57.3725,-1811.83,0,0
62845.9,57.6792,-1804.52,0,0
63106.3,56.8667,-1797.95,0,0
63366.6,55.6578,-1790.08,0,0
63626.9,55.0619,-1782.3,0,0
63887.2,54.5812,-1774.8,0,0
64147.6,53.7162,-1767.05,0,0
64407.9,53.412,-1759.29,0,0
64668.2,52.6689,-1751.87,0,0
64928.5,51.9933,-1744.02,0,0
65188.9,51.6274,-1736.2,0,0
65449.2,50.9031,-1728.37,0,0
65709.5,50.5563,-1720.23,0,0
65969.8,50.8393,-1712.52,0,0
66230.2,50.8029,-1704.85,0,0
66490.5,50.9507,-1697.38,0,0
66750.8,51.1984,-1690.06,0,0
67011.1,50.9388,-1682.52,0,0
67271.5,51.2178,-1675.17,0,0
67531.8,51.7261,-1667.53,0,0
67792.1,52.5137,-1660.46,0,0
68052.4,53.269,-1653.73,0,0
68312.8,53.8535,-1647.5,0,0
68573.1,53.78,-1641.06,0,0
68833.4,54.3404,-1634.52,0,0
69093.7,54.64,-1628.22,0,0
69354.1,55.4768,-1622.16,0,0
69614.4,55.561,-1616.6,0,0
69874.7,55.5663,-1610.4,0,0
70135,55.8071,-1605.26,0,0
70395.4,55.2642,-1599.94,0,0
70655.7,54.4512,-1594.66,0,0
70916,53.1455,-1588.75,0,0
71176.3,52.3457,-1582.56,0,0
71436.7,51.4753,-1576.4,0,0
71697,50.9164,-1570.05,0,0
71957.3,50.4307,-1564.42,0,0
72217.6,49.1144,-1558.44,0,0
72478,47.8167,-1552.06,0,0
72738.3,46.8402,-1545.14,0,0
72998.6,46.4401,-1538.18,0,0
73258.9,46.3229,-1531.7,0,0
73519.3,45.6905,-1525.39,0,0
73779.6,45.1859,-1518.68,0,0
74039.9,44.9474,-1512.05,0,0
74300.225,45.0551,-1505.37,0,0
74560.55,45.0407,-1498.98,0,0
74820.875,45.0436,-1492.65,0,0
75081.2,45.1746,-1486.31,0,0
75341.525,45.4592,-1479.99,0,0
75601.85,45.8142,-1473.89,0,0
75862.175,46.0348,-1467.78,0,0
76122.5,46.4357,-1461.69,0,0
76382.825,46.961,-1455.8,0,0
76643.15,47.418,-1450.03,0,0
76903.475,47.8316,-1444.33,0,0
77163.8,48.2832,-1438.56,0,0
77424.125,48.9607,-1432.81,0,0
77684.45,49.8159,-1427.41,0,0
77944.775,50.57,-1422.14,0,0
78205.1,51.3401,-1417.21,0,0
78465.425,52.1034,-1412.39,0,0
78725.75,52.667,-1407.93,0,0
78986.075,52.901,-1403.41,0,0
79246.4,53.1761,-1398.8,0,0
79506.725,53.4289,-1394.61,0,0
79767.05,53.2188,-1390.56,0,0
80027.375,52.6297,-1386.21,0,0
80287.7,51.8618,-1381.72,0,0
80548.025,51.1268,-1376.86,0,0
80808.35,50.4752,-1371.88,0,0
81068.675,49.8433,-1366.85,0,0
81329.0,49.4237,-1361.66,0,0
81589.325,49.057,-1356.51,0,0
81849.65,48.7617,-1351.37,0,0
82109.975,48.4492,-1346.26,0,0
82370.3,48.2313,-1341.11,0,0
82630.625,48.1162,-1335.96,0,0
82890.95,47.9792,-1330.74,0,0
83151.275,48.0805,-1325.57,0,0
83411.6,48.2189,-1320.51,0,0
83671.925,48.3785,-1315.62,0,0
83932.25,48.5488,-1310.69,0,0
84192.575,48.6715,-1305.94,0,0
84452.9,48.8364,-1301.22,0,0
84713.225,48.9972,-1296.49,0,0
84973.55,49.1143,-1291.81,0,0
85233.875,49.1738,-1287.17,0,0
85494.2,49.2617,-1282.47,0,0
85754.525,49.6133,-1277.78,0,0
86014.85,49.8008,-1273.27,0,0
86275.175,50.0057,-1268.76,0,0
86535.5,50.2828,-1264.38,0,0
86795.825,50.4332,-1260.07,0,0
87056.15,50.6148,-1255.7,0,0
87316.475,50.8284,-1251.46,0,0
87576.8,50.9244,-1247.3,0,0
87837.125,50.9389,-1243.11,0,0
88097.45,51.025,-1238.81,0,0
88357.775,50.9055,-1234.58,0,0
88618.1,51.0685,-1230.14,0,0
88878.425,51.0488,-1226.06,0,0
89138.75,51.0508,-1221.75,0,0
89399.075,51.3119,-1217.42,0,0
89659.4,51.3292,-1213.25,0,0
89919.725,51.6345,-1208.85,0,0
90180,52.0153,-1205.12,0,0
90440.4,51.7492,-1201.42,0,0
90700.7,51.1945,-1197.2,0,0
90961,51.0798,-1192.42,0,0
91221.3,51.5749,-1187.77,0,0
91481.7,52.2132,-1183.66,0,0
91742,52.5388,-1179.72,0,0
92002.3,52.9265,-1175.72,0,0
92262.6,53.437,-1171.62,0,0
92523,54.0563,-1167.94,0,0
92783.3,54.2822,-1164.17,0,0
93043.6,54.664,-1160.66,0,0
93303.9,54.8055,-1156.87,0,0
93564.3,55.4135,-1153.07,0,0
93824.6,56.1499,-1149.83,0,0
94084.9,56.2946,-1147.07,0,0
94345.2,55.8693,-1143.96,0,0
94605.6,55.3618,-1140.52,0,0
94865.9,54.9162,-1136.69,0,0
95126.2,54.8645,-1132.93,0,0
95386.5,54.5114,-1129.19,0,0
95646.9,54.186,-1125.1,0,0
95907.2,54.4077,-1120.69,0,0
96167.5,55.0599,-1116.68,0,0
96427.8,55.8991,-1113.02,0,0
96688.2,56.5881,-1109.71,0,0
96948.5,57.1346,-1106.49,0,0
97208.8,57.7782,-1103.46,0,0
97469.1,58.3608,-1100.73,0,0
97729.5,58.4295,-1098.65,0,0
97989.8,57.5848,-1095.96,0,0
98250.1,57.2107,-1092.6,0,0
98510.4,57.2526,-1089.6,0,0
98770.8,56.974,-1087.01,0,0
99031.1,56.155,-1084.23,0,0
99291.4,55.4168,-1081.19,0,0
99551.7,54.4228,-1078.13,0,0
99812.1,53.4106,-1074.45,0,0
100072,52.8825,-1070.68,0,0
100333,52.5655,-1067.27,0,0
100593,52.001,-1063.98,0,0
100853,51.3136,-1060.61,0,0
101114,50.4336,-1057.2,0,0
101374,49.5567,-1053.53,0,0
101634,48.7024,-1049.82,0,0
101895,47.7288,-1045.77,0,0
102155,47.0856,-1041.43,0,0
102415,46.8725,-1037.18,0,0
102676,46.5961,-1033.26,0,0
102936,46.0737,-1029.05,0,0
103196,45.8836,-1024.65,0,0
103457,45.8753,-1020.28,0,0
103717,46.057,-1015.96,0,0
103977,46.314,-1011.63,0,0
104238,46.8804,-1007.3,0,0
104498,47.6354,-1003.08,0,0
104758,48.6147,-999.189,0,0
105019,49.5217,-995.682,0,0
105279,50.2102,-992.252,0,0
105539,50.6869,-988.587,0,0
105800,51.6348,-984.76,0,0
106060,52.904,-981.414,0,0
106320.175,54.088,-978.307,0,0
106580.5,55.2582,-975.496,0,0
106840.825,56.2785,-973.036,0,0
107101.15,57.0118,-970.676,0,0
107361.475,57.6612,-968.397,0,0
107621.8,58.0604,-966.477,0,0
107882.125,57.9225,-964.314,0,0
108142.45,57.8391,-961.929,0,0
108402.775,57.5058,-959.774,0,0
108663.1,56.9288,-957.344,0,0
108923.425,56.2816,-954.744,0,0
109183.75,55.5964,-951.903,0,0
109444.075,54.9262,-948.925,0,0
109704.4,54.3572,-945.816,0,0
109964.725,53.7601,-942.673,0,0
110225.05,53.0283,-939.459,0,0
110485.375,52.4378,-935.977,0,0
110745.7,52.0625,-932.266,0,0
111006.025,51.8838,-928.674,0,0
111266.35,51.5717,-925.096,0,0
111526.675,51.6175,-921.42,0,0
111787.0,51.8095,-918.021,0,0
112047.325,51.7732,-914.563,0,0
112307.65,51.8468,-911.007,0,0
112567.975,51.9839,-907.484,0,0
112828.3,52.1111,-904.026,0,0
113088.625,52.3327,-900.52,0,0
113348.95,52.5817,-896.982,0,0
113609.275,52.9747,-893.448,0,0
113869.6,53.4248,-890.188,0,0
114129.925,53.7618,-886.847,0,0
114390.25,54.1325,-883.382,0,0
114650.575,54.6457,-880.058,0,0
114910.9,55.1411,-876.707,0,0
115171.225,55.7303,-873.391,0,0
115431.55,56.3795,-870.16,0,0
115691.875,57.0178,-867.01,0,0
115952.2,57.6235,-863.826,0,0
116212.525,58.3049,-860.719,0,0
116472.85,59.0938,-857.623,0,0
116733.175,59.8789,-854.616,0,0
116993.5,60.6479,-851.771,0,0
117253.825,61.301,-848.892,0,0
117514.15,62.0046,-845.941,0,0
117774.475,62.8745,-843.048,0,0
118034.8,63.7842,-840.205,0,0
118295.125,64.7646,-837.58,0,0
118555.45,65.6395,-835.046,0,0
118815.775,66.5132,-832.567,0,0
119076.1,67.4407,-830.222,0,0
119336.425,68.1871,-828.009,0,0
119596.75,68.8476,-825.792,0,0
119857.075,69.525,-823.696,0,0
120117.4,70.052,-821.707,0,0
120377.725,70.53,-819.701,0,0
120638.05,70.769,-817.811,0,0
120898.375,70.8687,-815.844,0,0
121158.7,70.8422,-813.852,0,0
121419.025,70.6945,-811.67,0,0
121679.35,70.6182,-809.437,0,0
121939.675,70.4539,-807.188,0,0
122200.0,70.2124,-804.865,0,0
122460,69.9151,-802.391,0,0
122721,69.7181,-799.784,0,0
122981,69.6073,-797.17,0,0
123241,69.4757,-794.599,0,0
123502,69.3546,-791.959,0,0
123762,69.2588,-789.271,0,0
124022,69.1704,-786.649,0,0
124283,69.0508,-783.931,0,0
124543,68.8929,-781.257,0,0
124803,68.7468,-778.442,0,0
125064,68.5281,-775.639,0,0
125324,68.3969,-772.665,0,0
125584,68.3087,-769.618,0,0
125845,68.362,-766.553,0,0
126105,68.4747,-763.504,0,0
126365,68.5886,-760.431,0,0
126626,68.7749,-757.316,0,0
126886,69.1353,-754.175,0,0
127146,69.5963,-751.091,0,0
127406,70.1119,-748.059,0,0
127667,70.5742,-745.142,0,0
127927,71.1197,-742.219,0,0
128187,71.6396,-739.358,0,0
128448,72.2003,-736.522,0,0
128708,72.7587,-733.735,0,0
128968,73.3251,-730.943,0,0
129229,73.9653,-728.213,0,0
129489,74.5654,-725.573,0,0
129749,75.0909,-722.934,0,0
130010,75.6369,-720.279,0,0
130270,76.2193,-717.587,0,0
130530,76.9118,-715.022,0,0
130791,77.5308,-712.585,0,0
131051,78.0767,-710.206,0,0
131311,78.5152,-707.823,0,0
131572,78.8949,-705.424,0,0
131832,79.1727,-703.065,0,0
132092,79.3384,-700.578,0,0
132353,79.486,-698.003,0,0
132613,79.6695,-695.299,0,0
132873,80.0112,-692.555,0,0
133134,80.3129,-689.911,0,0
133394,80.6319,-687.202,0,0
133654,80.9835,-684.478,0,0
133915,81.3623,-681.809,0,0
134175,81.6542,-679.267,0,0
134435,81.7739,-676.593,0,0
134696,81.8638,-673.777,0,0
134956,82.0591,-670.775,0,0
135216,82.409,-667.701,0,0
135477,82.8285,-664.73,0,0
135737,83.2512,-661.727,0,0
135997,83.7057,-658.724,0,0
136258,84.2069,-655.681,0,0
136518,84.7791,-652.655,0,0
136778,85.3701,-649.688,0,0
137039,85.8642,-646.671,0,0
137299,86.4696,-643.565,0,0
137559,87.2104,-640.524,0,0
137819,87.975,-637.521,0,0
138080,88.7591,-634.593,0,0
138340.125,89.4327,-631.789,0,0
138600.45,89.9306,-628.893,0,0
138860.775,90.4364,-625.787,0,0
139121.1,91.1023,-622.649,0,0
139381.425,91.7855,-619.536,0,0
139641.75,92.3777,-616.474,0,0
139902.075,92.8625,-613.221,0,0
140162.4,93.3942,-609.712,0,0
140422.725,94.0821,-606.024,0,0
140683.05,95.0317,-602.191,0,0
140943.375,96.3042,-598.402,0,0
141203.7,97.67,-594.808,0,0
141464.025,99.0396,-591.144,0,0
141724.35,100.59,-587.42,0,0
141984.675,102.421,-583.753,0,0
142245.0,104.44,-580.335,0,0
142505.325,106.478,-577.159,0,0
142765.65,108.432,-574.125,0,0
143025.975,110.259,-571.154,0,0
143286.3,112.01,-568.087,0,0
143546.625,113.813,-564.897,0,0
143806.95,115.815,-561.713,0,0
144067.275,117.917,-558.616,0,0
144327.6,120.043,-555.674,0,0
144587.925,122.061,-552.702,0,0
144848.25,124.174,-549.662,0,0
145108.575,126.393,-546.61,0,0
145368.9,128.759,-543.656,0,0
145629.225,131.076,-540.838,0,0
145889.55,133.341,-537.984,0,0
146149.875,135.673,-535.023,0,0
146410.2,138.167,-532.044,0,0
146670.525,140.728,-529.145,0,0
146930.85,143.332,-526.226,0,0
147191.175,146.028,-523.297,0,0
147451.5,148.812,-520.32,0,0
147711.825,151.776,-517.325,0,0
147972.15,154.847,-514.319,0,0
148232.475,158.119,-511.189,0,0
148492.8,161.794,-508.064,0,0
148753.125,165.767,-505.11,0,0
149013.45,169.981,-502.194,0,0
149273.775,174.777,-499.335,0,0
149534.1,180.217,-497.053,0,0
149794.425,185.728,-495.585,0,0
150054.75,191.107,-494.445,0,0
150315.075,196.831,-493.553,0,0
150575.4,202.878,-493.536,0,0
150835.725,208.668,-494.487,0,0
151096.05,213.938,-496.027,0,0
151356.375,218.679,-498.043,0,0
151616.7,222.943,-500.274,0,0
151877.025,226.944,-502.7,0,0
152137.35,230.652,-505.752,0,0
152397.675,233.341,-509.23,0,0
152658.0,235.301,-512.363,0,0
152918.325,236.91,-515.465,0,0
153178.65,237.947,-518.464,0,0
153438.975,238.573,-521.165,0,0
153699.3,238.871,-523.71,0,0
153959.625,238.83,-526.028,0,0
154219.95,238.344,-528.106,0,0
154480,237.545,-529.55,0,0
154741,236.848,-530.642,0,0
155001,236.438,-531.329,0,0
155261,235.947,-532.049,0,0
155522,235.458,-532.553,0,0
155782,235.314,-533.08,0,0
156042,234.991,-533.973,0,0
156303,234.196,-534.97,0,0
156563,232.816,-535.548,0,0
156823,231.391,-535.342,0,0
157084,230.223,-534.814,0,0
157344,229.188,-534.123,0,0
157604,228.239,-533.138,0,0
157864,228.052,-532.043,0,0
158125,227.753,-531.445,0,0
158385,227.077,-530.661,0,0
158645,226.758,-529.773,0,0
158906,226.292,-528.977,0,0
159166,225.618,-527.914,0,0
159426,225.103,-526.546,0,0
159687,224.927,-525.274,0,0
159947,224.899,-523.911,0,0
160207,224.869,-522.593,0,0
160468,224.661,-521.255,0,0
160728,224.762,-519.472,0,0
160988,225.223,-517.912,0,0
161249,225.8,-515.942,0,0
161509,227.486,-513.921,0,0
161769,230.055,-513.3,0,0
162030,232.169,-513.901,0,0
162290,233.406,-515.286,0,0
162550,233.839,-516.963,0,0
162811,233.274,-518.602,0,0
163071,232.11,-519.856,0,0
163331,230.634,-520.704,0,0
163592,228.89,-521.493,0,0
163852,226.537,-522.003,0,0
164112,223.867,-521.965,0,0
164373,220.904,-521.372,0,0
164633,218.084,-520.123,0,0
164893,215.506,-518.716,0,0
165154,212.587,-517.023,0,0
165414,209.733,-514.742,0,0
165674,207.177,-511.975,0,0
165935,205.017,-508.911,0,0
166195,202.97,-505.818,0,0
166455,201.141,-502.661,0,0
166716,199.284,-499.265,0,0
166976,197.645,-495.376,0,0
167236,196.677,-491.594,0,0
167497,195.773,-488.293,0,0
167757,194.255,-484.749,0,0
168017,192.911,-480.665,0,0
168277,191.92,-476.349,0,0
168538,191.246,-471.925,0,0
168798,190.833,-467.447,0,0
169058,190.643,-462.915,0,0
169319,190.64,-458.501,0,0
169579,190.488,-453.84,0,0
169839,190.793,-448.897,0,0
170100,191.603,-444.099,0,0
170360.075,192.626,-439.581,0,0
170620.4,193.578,-435.327,0,0
170880.725,194.273,-431.119,0,0
171141.05,194.973,-426.564,0,0
171401.375,196.069,-421.718,0,0
171661.7,197.402,-416.909,0,0
171922.025,198.882,-412.229,0,0
172182.35,200.517,-407.551,0,0
172442.675,202.185,-402.86,0,0
172703.0,204.021,-397.981,0,0
172963.325,206.199,-393.179,0,0
173223.65,208.545,-388.494,0,0
173483.975,210.87,-383.965,0,0
173744.3,213.185,-379.289,0,0
174004.625,215.689,-374.267,0,0
174264.95,218.739,-369.182,0,0
174525.275,222.186,-364.309,0,0
174785.6,225.89,-359.601,0,0
175045.925,229.796,-355.14,0,0
175306.25,233.615,-350.811,0,0
175566.575,237.755,-346.406,0,0
175826.9,242.363,-342.01,0,0
176087.225,247.379,-338.201,0,0
176347.55,252.303,-334.699,0,0
176607.875,257.385,-331.346,0,0
176868.2,262.667,-328.306,0,0
177128.525,268.119,-325.511,0,0
177388.85,273.775,-323.23,0,0
177649.175,279.48,-321.478,0,0
177909.5,285.021,-320.356,0,0
178169.825,290.06,-319.684,0,0
178430.15,294.812,-319.004,0,0
178690.475,299.553,-318.664,0,0
178950.8,303.944,-318.834,0,0
179211.125,307.837,-319.349,0,0
179471.45,310.493,-318.289,0,0
179731.775,313.726,-318.745,0,0
179992.1,316.061,-319.457,0,0
180252.425,317.302,-319.767,0,0
180512.75,317.737,-319.308,0,0
180773.075,317.84,-317.531,0,0
181033.4,318.222,-314.64,0,0
181293.725,319.345,-310.94,0,0
181554.05,321.165,-306.973,0,0
181814.375,323.57,-302.979,0,0
182074.7,326.28,-298.799,0,0
182335.025,329.757,-294.584,0,0
182595.35,333.587,-291.067,0,0
182855.675,336.896,-287.858,0,0
183116.0,339.734,-284.118,0,0
183376.325,343.091,-279.434,0,0
183636.65,347.244,-274.559,0,0
183896.975,352.112,-269.906,0,0
184157.3,357.095,-265.378,0,0
184417.625,362.6,-260.785,0,0
184677.95,368.744,-256.431,0,0
184938.275,375.281,-252.568,0,0
185198.6,381.828,-249.161,0,0
185458.925,388.222,-245.896,0,0
185719.25,394.719,-242.579,0,0
185979.575,401.442,-239.387,0,0
186239.9,408.297,-236.079,0,0
186500,415.843,-232.749,0,0
186761,423.909,-229.975,0,0
187021,431.728,-227.722,0,0
187281,439.797,-225.388,0,0
187542,448.247,-223.4,0,0
187802,456.693,-221.869,0,0
188062,465.348,-220.746,0,0
188322,473.838,-220.108,0,0
188583,482.158,-219.734,0,0
188843,490.163,-219.557,0,0
189103,497.898,-219.421,0,0
189364,505.109,-219.112,0,0
189624,512.44,-218.011,0,0
189884,520.288,-216.626,0,0
190145,528.616,-215.161,0,0
190405,537.346,-213.622,0,0
190665,546.525,-211.974,0,0
190926,556.308,-210.442,0,0
191186,566.825,-208.814,0,0
191446,578.334,-207.684,0,0
191707,590.399,-207.39,0,0
191967,602.658,-207.59,0,0
192227,615.526,-208.245,0,0
192488,628.755,-209.758,0,0
192748,642.148,-211.726,0,0
193008,656.209,-214.087,0,0
193269,671.181,-217.509,0,0
193529,686.453,-222.468,0,0
193789,701.648,-229.018,0,0
194050,716.158,-236.994,0,0
194310,729.635,-245.855,0,0
194570,742.5,-254.983,0,0
194831,755.153,-264.619,0,0
195091,767.566,-275.076,0,0
195351,779.243,-286.477,0,0
195612,789.955,-298.49,0,0
195872,799.624,-310.459,0,0
196132,809.05,-322.241,0,0
196393,818.47,-334.393,0,0
196653,827.32,-347.185,0,0
196913,835.408,-359.975,0,0
197174,843.401,-372.513,0,0
197434,851.742,-385.343,0,0
197694,860.334,-399.149,0,0
197955,868.712,-414.304,0,0
198215,875.7,-430.745,0,0
198475,881.154,-447.473,0,0
198735,885.835,-464.116,0,0
198996,889.525,-480.878,0,0
199256,892.339,-497.721,0,0
199516,894.501,-514.232,0,0
199777,896.36,-530.601,0,0
200037,897.745,-547.416,0,0
200297,898.458,-564.509,0,0
200558,898.341,-581.883,0,0
200818,897.504,-599.462,0,0
201078,895.612,-617.406,0,0
201339,892.153,-635.526,0,0
201599,887.009,-653.223,0,0
201859,880.466,-669.831,0,0
202120,873.143,-684.801,0,0
202380.025,866.069,-698.84,0,0
202640.35,859.295,-712.343,0,0
202900.675,852.28,-725.931,0,0
203161.0,844.678,-739.532,0,0
203421.325,836.286,-752.57,0,0
203681.65,827.575,-765.199,0,0
203941.975,818.164,-777.144,0,0
204202.3,808.592,-788.153,0,0
204462.625,799.169,-798.807,0,0
204722.95,789.826,-809.599,0,0
204983.275,779.757,-820.679,0,0
205243.6,768.231,-831.592,0,0
205503.925,755.63,-841.291,0,0
205764.25,742.074,-849.664,0,0
206024.575,728.212,-856.259,0,0
206284.9,715.093,-860.806,0,0
206545.225,703.239,-864.664,0,0
206805.55,691.643,-868.606,0,0
207065.875,680.205,-871.985,0,0
207326.2,668.741,-874.671,0,0
207586.525,657.582,-876.467,0,0
207846.85,647.266,-877.056,0,0
208107.175,638.48,-877.305,0,0
208367.5,630.708,-878.057,0,0
208627.825,623.281,-879.372,0,0
208888.15,616.211,-880.865,0,0
209148.475,609.548,-882.862,0,0
209408.8,602.857,-885.527,0,0
209669.125,595.504,-888.888,0,0
209929.45,587.593,-892.273,0,0
210189.775,578.804,-895.091,0,0
210450.1,569.878,-897.549,0,0
210710.425,561.068,-899.681,0,0
210970.75,551.84,-901.726,0,0
211231.075,542.061,-903.456,0,0
211491.4,531.863,-904.319,0,0
211751.725,521.449,-904.088,0,0
212012.05,511.572,-902.826,0,0
212272.375,502.302,-900.845,0,0
212532.7,494.031,-898.669,0,0
212793.025,486.093,-896.551,0,0
213053.35,478.42,-894.268,0,0
213313.675,471.063,-891.834,0,0
213574.0,463.912,-889.191,0,0
213834.325,457.177,-886.557,0,0
214094.65,450.72,-883.648,0,0
214354.975,444.426,-880.798,0,0
214615.3,438.556,-877.845,0,0
214875.625,432.845,-874.933,0,0
215135.95,427.36,-871.943,0,0
215396.275,421.895,-868.813,0,0
215656.6,416.523,-865.638,0,0
215916.925,411.468,-862.171,0,0
216177.25,406.821,-858.52,0,0
216437.575,402.532,-854.884,0,0
216697.9,398.525,-851.24,0,0
216958.225,394.843,-847.69,0,0
217218.55,391.368,-844.123,0,0
217478.875,388.208,-840.649,0,0
217739.2,385.311,-837.413,0,0
217999.525,382.417,-834.24,0,0
218259.85,379.685,-831.144,0,0
218520,377.077,-827.998,0,0
218780,374.749,-824.839,0,0
219041,372.525,-821.777,0,0
219301,370.441,-818.802,0,0
219561,368.601,-815.909,0,0
219822,366.917,-813.283,0,0
220082,365.426,-810.451,0,0
220342,363.976,-808.024,0,0
220603,362.436,-805.58,0,0
220863,361.12,-803.039,0,0
221123,360.039,-800.446,0,0
221384,359.304,-798.119,0,0
221644,358.728,-795.972,0,0
221904,358.19,-794.137,0,0
222165,357.659,-792.469,0,0
222425,357.089,-790.962,0,0
222685,356.645,-789.72,0,0
222946,356.103,-788.509,0,0
223206,355.488,-787.465,0,0
223466,354.711,-786.503,0,0
223727,353.91,-785.356,0,0
223987,353.33,-784.233,0,0
224247,353.04,-783.142,0,0
224508,352.856,-782.439,0,0
224768,352.333,-781.972,0,0
225028,351.79,-781.571,0,0
225289,351.001,-781.038,0,0
225549,350.478,-780.513,0,0
225809,349.926,-780.084,0,0
226070,349.492,-779.613,0,0
226330,349.075,-779.232,0,0
226590,348.696,-778.888,0,0
226851,348.607,-778.625,0,0
227111,348.577,-778.654,0,0
227371,348.509,-778.86,0,0
227632,348.486,-779.244,0,0
227892,348.495,-779.839,0,0
228152,348.505,-780.743,0,0
228413,348.443,-782.013,0,0
228673,348.095,-783.491,0,0
228933,347.462,-785.291,0,0
229193,346.54,-787.176,0,0
229454,345.327,-789.215,0,0
229714,343.729,-791.178,0,0
229974,341.845,-793.234,0,0
230235,339.597,-794.886,0,0
230495,337.223,-796.475,0,0
230755,334.797,-797.742,0,0
231016,332.456,-799.037,0,0
231276,330.129,-800.333,0,0
231536,327.651,-801.64,0,0
231797,325.052,-802.982,0,0
232057,322.258,-804.292,0,0
232317,319.312,-805.584,0,0
232578,316.148,-806.709,0,0
232838,312.806,-807.709,0,0
233098,309.38,-808.545,0,0
233359,305.822,-809.144,0,0
233619,302.357,-809.559,0,0
233879,298.871,-809.801,0,0
234140,295.386,-809.939,0,0
234400,291.836,-810.037,0,0
234660.3,288.259,-809.997,0,0
234920.625,284.671,-809.664,0,0
235180.95,281.277,-809.416,0,0
235441.275,277.962,-809.029,0,0
235701.6,274.671,-808.524,0,0
235961.925,271.3,-808.096,0,0
236222.25,267.867,-807.543,0,0
236482.575,264.519,-806.904,0,0
236742.9,261.137,-806.292,0,0
237003.225,257.637,-805.57,0,0
237263.55,254.054,-804.663,0,0
237523.875,250.549,-803.598,0,0
237784.2,247.129,-802.295,0,0
238044.525,243.839,-800.844,0,0
238304.85,240.68,-799.355,0,0
238565.175,237.609,-797.872,0,0
238825.5,234.729,-796.35,0,0
239085.825,231.78,-794.966,0,0
239346.15,228.876,-793.471,0,0
239606.475,225.879,-791.916,0,0
239866.8,222.915,-790.304,0,0
240127.125,220.051,-788.566,0,0
240387.45,217.234,-786.672,0,0
240647.775,214.454,-784.724,0,0
240908.1,211.908,-782.806,0,0
241168.425,209.36,-780.764,0,0
241428.75,206.942,-778.763,0,0
241689.075,204.56,-776.687,0,0
241949.4,202.293,-774.545,0,0
242209.725,200.142,-772.323,0,0
242470.05,198.157,-770.175,0,0
242730.375,196.318,-768.018,0,0
242990.7,194.626,-765.992,0,0
243251.025,193.026,-764.012,0,0
243511.35,191.427,-762.12,0,0
243771.675,189.926,-760.323,0,0
244032.0,188.5,-758.632,0,0
244292.325,187.069,-757.093,0,0
244552.65,185.667,-755.594,0,0
244812.975,184.156,-754.31,0,0
245073.3,182.751,-753.111,0,0
245333.625,181.041,-751.978,0,0
245593.95,179.294,-751.008,0,0
245854.275,177.273,-750.159,0,0
246114.6,175.17,-749.2,0,0
246374.925,172.724,-748.201,0,0
246635.25,170.209,-747.069,0,0
246895.575,167.491,-745.69,0,0
247155.9,164.712,-744.149,0,0
247416.225,161.995,-742.369,0,0
247676.55,159.136,-740.483,0,0
247936.875,156.461,-738.31,0,0
248197.2,153.877,-736.09,0,0
248457.525,151.327,-733.791,0,0
248717.85,148.774,-731.383,0,0
248978.175,146.356,-728.836,0,0
249238.5,143.92,-726.093,0,0
249498.825,141.548,-723.358,0,0
249759.15,139.28,-720.434,0,0
250019.475,137.108,-717.402,0,0
250279.8,135.004,-714.33,0,0
250540,133.014,-711.119,0,0
250800,131.14,-707.731,0,0
251061,129.499,-704.285,0,0
251321,128.074,-700.747,0,0
251581,126.812,-697.204,0,0
251842,125.764,-693.717,0,0
252102,124.853,-690.254,0,0
252362,124.069,-686.891,0,0
252623,123.401,-683.578,0,0
252883,122.81,-680.348,0,0
253143,122.242,-677.115,0,0
253404,121.749,-673.943,0,0
253664,121.305,-670.795,0,0
253924,120.884,-667.654,0,0
254185,120.56,-664.531,0,0
254445,120.182,-661.347,0,0
254705,120.024,-658.235,0,0
254966,119.759,-654.891,0,0
255226,119.797,-651.715,0,0
255486,119.905,-648.332,0,0
255747,120.208,-645.076,0,0
256007,120.634,-641.848,0,0
256267,121.255,-638.722,0,0
256528,121.965,-635.731,0,0
256788,122.737,-632.892,0,0
257048,123.5,-630.111,0,0
257309,124.316,-627.382,0,0
257569,125.175,-624.674,0,0
257829,126.117,-622.003,0,0
258090,127.166,-619.382,0,0
258350,128.276,-616.834,0,0
258610,129.435,-614.359,0,0
258871,130.655,-611.976,0,0
259131,131.935,-609.601,0,0
259391,133.353,-607.309,0,0
259651,134.827,-605.14,0,0
259912,136.275,-603.123,0,0
260172,137.968,-601.08,0,0
260432,139.538,-599.179,0,0
260693,141.255,-597.445,0,0
260953,142.941,-595.815,0,0
261213,144.69,-594.303,0,0
261474,146.444,-592.93,0,0
261734,148.18,-591.65,0,0
261994,149.898,-590.504,0,0
262255,151.606,-589.41,0,0
262515,153.31,-588.489,0,0
262775,154.949,-587.645,0,0
263036,156.543,-586.872,0,0
263296,158.077,-586.189,0,0
263556,159.577,-585.529,0,0
263817,161.086,-584.87,0,0
264077,162.539,-584.342,0,0
264337,164.046,-583.875,0,0
264598,165.559,-583.444,0,0
264858,166.997,-583.164,0,0
265118,168.448,-582.952,0,0
265379,169.809,-582.874,0,0
265639,170.999,-582.87,0,0
265899,172.18,-582.909,0,0
266160,173.212,-582.939,0,0
266420,174.242,-582.981,0,0
266680.25,175.187,-583.049,0,0
266940.575,176.117,-583.161,0,0
267200.9,176.943,-583.274,0,0
267461.225,177.773,-583.387,0,0
267721.55,178.546,-583.518,0,0
267981.875,179.324,-583.72,0,0
268242.2,180.011,-583.98,0,0
268502.525,180.595,-584.313,0,0
268762.85,180.993,-584.616,0,0
269023.175,181.268,-584.843,0,0
269283.5,181.492,-585.008,0,0
269543.825,181.651,-585.017,0,0
269804.15,181.802,-585.067,0,0
270064.475,181.86,-584.968,0,0
270324.8,181.954,-584.665,0,0
270585.125,182.069,-584.31,0,0
270845.45,182.214,-583.742,0,0
271105.775,182.564,-583.179,0,0
271366.1,183.012,-582.563,0,0
271626.425,183.551,-581.941,0,0
271886.75,184.172,-581.285,0,0
272147.075,184.92,-580.59,0,0
272407.4,185.81,-579.907,0,0
272667.725,186.843,-579.217,0,0
272928.05,188.058,-578.609,0,0
273188.375,189.421,-578.077,0,0
273448.7,190.905,-577.591,0,0
273709.025,192.54,-577.195,0,0
273969.35,194.423,-576.868,0,0
274229.675,196.602,-576.763,0,0
274490.0,199.017,-576.959,0,0
274750.325,201.558,-577.599,0,0
275010.65,204.165,-578.74,0,0
275270.975,206.727,-580.187,0,0
275531.3,209.115,-582.224,0,0
275791.625,211.335,-584.69,0,0
276051.95,213.174,-587.538,0,0
276312.275,214.616,-590.774,0,0
276572.6,215.525,-594.201,0,0
276832.925,215.888,-597.707,0,0
277093.25,215.799,-601.073,0,0
277353.575,215.417,-604.412,0,0
277613.9,214.606,-607.603,0,0
277874.225,213.576,-610.737,0,0
278134.55,212.202,-613.703,0,0
278394.875,210.539,-616.497,0,0
278655.2,208.666,-619.011,0,0
278915.525,206.655,-621.3,0,0
279175.85,204.574,-623.456,0,0
279436.175,202.371,-625.448,0,0
279696.5,199.982,-627.217,0,0
279956.825,197.488,-628.788,0,0
280217.15,195.058,-630.147,0,0
280477.475,192.5,-631.322,0,0
280737.8,189.984,-632.319,0,0
280998.125,187.53,-633.18,0,0
281258.45,185.11,-633.966,0,0
281518.775,182.662,-634.785,0,0
281779.1,180.157,-635.537,0,0
282039.425,177.514,-636.262,0,0
282299.75,174.733,-636.852,0,0
282560,171.768,-637.274,0,0
282820,168.651,-637.507,0,0
283081,165.456,-637.415,0,0
283341,162.26,-636.925,0,0
283601,159.236,-636.104,0,0
283862,156.517,-634.97,0,0
284122,154.173,-633.794,0,0
284382,152.065,-632.759,0,0
284643,150.017,-631.919,0,0
284903,147.917,-631.246,0,0
285163,145.624,-630.554,0,0
285424,143.141,-629.865,0,0
285684,140.458,-628.989,0,0
285944,137.734,-627.87,0,0
286205,134.917,-626.532,0,0
286465,132.063,-624.938,0,0
286725,129.26,-622.981,0,0
286986,126.489,-620.732,0,0
287246,123.881,-618.169,0,0
287506,121.454,-615.297,0,0
287767,119.255,-612.135,0,0
288027,117.35,-608.694,0,0
288287,115.827,-605.024,0,0
288548,114.7,-601.153,0,0
288808,114.063,-597.149,0,0
289068,113.919,-593.12,0,0
289329,114.214,-589.205,0,0
289589,114.994,-585.454,0,0
289849,116.146,-581.887,0,0
290109,117.688,-578.549,0,0
290370,119.54,-575.503,0,0
290630,121.663,-572.747,0,0
290890,124.058,-570.286,0,0
291151,126.728,-568.209,0,0
291411,129.639,-566.505,0,0
291671,132.8,-565.32,0,0
291932,136.037,-564.762,0,0
292192,139.215,-564.832,0,0
292452,142.177,-565.495,0,0
292713,144.767,-566.743,0,0
292973,146.885,-568.413,0,0
293233,148.394,-570.347,0,0
293494,149.363,-572.38,0,0
293754,149.75,-574.398,0,0
294014,149.578,-576.195,0,0
294275,149.04,-577.664,0,0
294535,148.236,-578.753,0,0
294795,147.385,-579.362,0,0
295056,146.511,-579.602,0,0
295316,145.848,-579.38,0,0
295576,145.6,-578.863,0,0
295837,145.854,-578.207,0,0
296097,146.721,-577.781,0,0
296357,148.09,-577.841,0,0
296618,149.671,-578.64,0,0
296878,151.122,-580.207,0,0
297138,152.045,-582.431,0,0
297399,152.3,-585.045,0,0
297659,151.807,-587.691,0,0
297919,150.702,-590.186,0,0
298180,149.095,-592.365,0,0
298440,147.16,-594.159,0,0
298700.2,145.046,-595.58,0,0
298960.525,142.876,-596.623,0,0
299220.85,140.666,-597.409,0,0
299481.175,138.414,-597.979,0,0
299741.5,136.209,-598.299,0,0
300001.825,133.979,-598.361,0,0
300262.15,131.866,-598.198,0,0
300522.475,129.881,-597.811,0,0
300782.8,128.028,-597.279,0,0
301043.125,126.362,-596.657,0,0
301303.45,124.866,-595.975,0,0
301563.775,123.529,-595.272,0,0
301824.1,122.315,-594.569,0,0
302084.425,121.246,-593.918,0,0
302344.75,120.31,-593.288,0,0
302605.075,119.439,-592.768,0,0
302865.4,118.66,-592.347,0,0
303125.725,117.887,-592.101,0,0
303386.05,117.08,-591.956,0,0
303646.375,116.187,-591.918,0,0
303906.7,115.204,-591.961,0,0
304167.025,114.078,-592.048,0,0
304427.35,112.864,-592.115,0,0
304687.675,111.537,-592.177,0,0
304948.0,110.103,-592.169,0,0
305208.325,108.543,-592.153,0,0
305468.65,106.865,-592.016,0,0
305728.975,105.134,-591.718,0,0
305989.3,103.374,-591.28,0,0
306249.625,101.654,-590.737,0,0
306509.95,99.9594,-590.097,0,0
306770.275,98.308,-589.365,0,0
307030.6,96.6747,-588.559,0,0
307290.925,95.1302,-587.682,0,0
307551.25,93.5822,-586.773,0,0
307811.575,92.0913,-585.826,0,0
308071.9,90.6345,-584.824,0,0
308332.225,89.185,-583.787,0,0
308592.55,87.8136,-582.694,0,0
308852.875,86.4598,-581.565,0,0
309113.2,85.1929,-580.391,0,0
309373.525,83.9677,-579.246,0,0
309633.85,82.7749,-578.034,0,0
309894.175,81.5747,-576.837,0,0
310154.5,80.4622,-575.624,0,0
310414.825,79.3565,-574.398,0,0
310675.15,78.2568,-573.163,0,0
310935.475,77.2183,-571.873,0,0
311195.8,76.2117,-570.576,0,0
311456.125,75.244,-569.272,0,0
311716.45,74.309,-567.959,0,0
311976.775,73.4073,-566.638,0,0
312237.1,72.5551,-565.29,0,0
312497.425,71.7383,-563.951,0,0
312757.75,70.956,-562.604,0,0
313018.075,70.2239,-561.266,0,0
313278.4,69.5103,-559.951,0,0
313538.725,68.8112,-558.638,0,0
313799.05,68.1309,-557.311,0,0
314059.375,67.4819,-556.008,0,0
314319.7,66.8934,-554.656,0,0
314580,66.2891,-553.363,0,0
314840,65.729,-552.049,0,0
315101,65.2322,-550.768,0,0
315361,64.7417,-549.496,0,0
315621,64.1466,-548.215,0,0
315882,63.6689,-546.984,0,0
316142,63.2202,-545.711,0,0
316402,62.7224,-544.447,0,0
316663,62.2559,-543.069,0,0
316923,61.8299,-541.751,0,0
317183,61.3963,-540.494,0,0
317444,60.9813,-539.211,0,0
317704,60.722,-537.893,0,0
317964,60.2998,-536.664,0,0
318225,60.1131,-535.344,0,0
318485,59.8257,-534.138,0,0
318745,59.5781,-532.963,0,0
319006,59.291,-531.767,0,0
319266,59.1593,-530.606,0,0
319526,58.8673,-529.38,0,0
319787,58.6685,-528.218,0,0
320047,58.4736,-527.13,0,0
320307,58.2276,-525.997,0,0
320567,57.9401,-524.839,0,0
320828,57.7901,-523.677,0,0
321088,57.522,-522.502,0,0
321348,57.2761,-521.315,0,0
321609,57.1247,-520.186,0,0
321869,56.894,-519.028,0,0
322129,56.717,-517.873,0,0
322390,56.5824,-516.675,0,0
322650,56.3715,-515.454,0,0
322910,56.261,-514.249,0,0
323171,56.1475,-513.064,0,0
323431,55.9811,-511.843,0,0
323691,55.8626,-510.579,0,0
323952,55.7867,-509.291,0,0
324212,55.7477,-508.003,0,0
324472,55.6975,-506.641,0,0
324733,55.8144,-505.323,0,0
324993,55.8936,-503.899,0,0
325253,56.1318,-502.528,0,0
325514,56.4587,-501.115,0,0
325774,56.8548,-499.803,0,0
326034,57.3975,-498.494,0,0
326295,58.0033,-497.323,0,0
326555,58.6332,-496.241,0,0
326815,59.4234,-495.28,0,0
327076,60.1326,-494.41,0,0
327336,60.81,-493.767,0,0
327596,61.4411,-493.151,0,0
327857,62.0103,-492.637,0,0
328117,62.4695,-492.169,0,0
328377,62.869,-491.598,0,0
328638,63.2833,-491.102,0,0
328898,63.6897,-490.61,0,0
329158,64.1097,-490.148,0,0
329419,64.5332,-489.706,0,0
329679,64.9514,-489.259,0,0
329939,65.4172,-488.966,0,0
330200,65.7688,-488.708,0,0
330460,66.1213,-488.498,0,0
330720.15,66.5017,-488.359,0,0
330980.475,66.7477,-488.181,0,0
331240.8,66.9176,-488.127,0,0
331501.125,67.085,-488.017,0,0
331761.45,67.1342,-488.065,0,0
332021.775,67.1576,-488.019,0,0
332282.1,67.0768,-488.133,0,0
332542.425,66.9241,-488.101,0,0
332802.75,66.6608,-488.182,0,0
333063.075,66.2713,-488.14,0,0
333323.4,65.8644,-488.028,0,0
333583.725,65.3614,-487.873,0,0
333844.05,64.8185,-487.64,0,0
334104.375,64.2424,-487.287,0,0
334364.7,63.7724,-486.861,0,0
334625.025,63.2477,-486.405,0,0
334885.35,62.7435,-485.907,0,0
335145.675,62.2771,-485.345,0,0
335406.0,61.7627,-484.791,0,0
335666.325,61.3724,-484.151,0,0
335926.65,60.9407,-483.613,0,0
336186.975,60.4957,-482.976,0,0
336447.3,60.0457,-482.348,0,0
336707.625,59.6474,-481.644,0,0
336967.95,59.3052,-480.945,0,0
337228.275,58.8766,-480.292,0,0
337488.6,58.5525,-479.545,0,0
337748.925,58.1691,-478.828,0,0
338009.25,57.8543,-478.07,0,0
338269.575,57.4973,-477.347,0,0
338529.9,57.1927,-476.607,0,0
338790.225,56.9058,-475.862,0,0
339050.55,56.5335,-475.041,0,0
339310.875,56.2693,-474.23,0,0
339571.2,55.9821,-473.44,0,0
339831.525,55.6747,-472.596,0,0
340091.85,55.4258,-471.781,0,0
340352.175,55.2036,-470.926,0,0
340612.5,54.9604,-470.057,0,0
340872.825,54.7425,-469.188,0,0
341133.15,54.6047,-468.306,0,0
341393.475,54.4153,-467.45,0,0
341653.8,54.2547,-466.584,0,0
341914.125,54.0905,-465.66,0,0
342174.45,53.954,-464.771,0,0
342434.775,53.833,-463.883,0,0
342695.1,53.795,-462.964,0,0
342955.425,53.7095,-462.08,0,0
343215.75,53.6561,-461.133,0,0
343476.075,53.5996,-460.22,0,0
343736.4,53.5805,-459.29,0,0
343996.725,53.657,-458.321,0,0
344257.05,53.681,-457.409,0,0
344517.375,53.7462,-456.54,0,0
344777.7,53.8029,-455.68,0,0
345038.025,53.951,-454.713,0,0
345298.35,54.0656,-453.872,0,0
345558.675,54.2097,-452.992,0,0
345819.0,54.3427,-452.159,0,0
346079.325,54.5145,-451.282,0,0
346339.65,54.7095,-450.425,0,0
346599.975,54.9341,-449.634,0,0
346860,55.1181,-448.825,0,0
347121,55.3826,-448.067,0,0
347381,55.6099,-447.266,0,0
347641,55.8427,-446.494,0,0
347902,56.1316,-445.657,0,0
348162,56.3928,-444.922,0,0
348422,56.6992,-444.199,0,0
348683,57.03,-443.448,0,0
348943,57.3579,-442.786,0,0
349203,57.7305,-442.081,0,0
349464,58.0734,-441.42,0,0
349724,58.465,-440.757,0,0
349984,58.8145,-440.171,0,0
350245,59.232,-439.603,0,0
350505,59.631,-439.073,0,0
350765,60.0092,-438.546,0,0
351025,60.4003,-438.081,0,0
351286,60.756,-437.605,0,0
351546,61.0794,-437.2,0,0
351806,61.4037,-436.807,0,0
352067,61.7191,-436.401,0,0
352327,61.9347,-436.029,0,0
352587,62.1689,-435.652,0,0
352848,62.373,-435.276,0,0
353108,62.5866,-434.859,0,0
353368,62.7513,-434.371,0,0
353629,63.0469,-433.939,0,0
353889,63.2297,-433.499,0,0
354149,63.5178,-433.075,0,0
354410,63.7734,-432.591,0,0
354670,64.0142,-432.238,0,0
354930,64.2757,-431.794,0,0
355191,64.5073,-431.458,0,0
355451,64.7268,-431.007,0,0
355711,64.991,-430.579,0,0
355972,65.2403,-430.119,0,0
356232,65.5516,-429.72,0,0
356492,65.7957,-429.297,0,0
356753,66.1491,-428.885,0,0
357013,66.4851,-428.465,0,0
357273,66.9037,-428.138,0,0
357534,67.302,-427.833,0,0
357794,67.6622,-427.503,0,0
358054,68.0586,-427.25,0,0
358315,68.4267,-427.061,0,0
358575,68.7991,-426.856,0,0
358835,69.2425,-426.674,0,0
359096,69.5679,-426.567,0,0
359356,69.897,-426.519,0,0
359616,70.2042,-426.483,0,0
359877,70.4492,-426.46,0,0
360137,70.7382,-426.428,0,0
360397,70.9264,-426.425,0,0
360658,71.1156,-426.415,0,0
360918,71.2629,-426.485,0,0
361178,71.3714,-426.504,0,0
361438,71.4543,-426.494,0,0
361699,71.5588,-426.529,0,0
361959,71.5952,-426.506,0,0
362219,71.6061,-426.568,0,0
362480,71.6493,-426.534,0,0
362740.1,71.5951,-426.591,0,0
363000.425,71.5985,-426.574,0,0
363260.75,71.5046,-426.613,0,0
363521.075,71.4624,-426.599,0,0
363781.4,71.3412,-426.566,0,0
364041.725,71.1677,-426.548,0,0
364302.05,70.9945,-426.478,0,0
364562.375,70.8573,-426.383,0,0
364822.7,70.6667,-426.269,0,0
365083.025,70.4863,-426.136,0,0
365343.35,70.2766,-425.955,0,0
365603.675,70.0868,-425.82,0,0
365864.0,69.9352,-425.578,0,0
366124.325,69.7751,-425.402,0,0
366384.65,69.5375,-425.218,0,0
366644.975,69.4592,-424.929,0,0
366905.3,69.2933,-424.694,0,0
367165.625,69.1741,-424.416,0,0
367425.95,69.0678,-424.105,0,0
367686.275,69.0525,-423.831,0,0
367946.6,69.018,-423.565,0,0
368206.925,68.9435,-423.277,0,0
368467.25,69.0057,-423.122,0,0
368727.575,69.008,-422.897,0,0
368987.9,69.0187,-422.788,0,0
369248.225,69.0622,-422.703,0,0
369508.55,68.9958,-422.682,0,0
369768.875,68.8853,-422.693,0,0
370029.2,68.7988,-422.625,0,0
370289.525,68.6442,-422.646,0,0
370549.85,68.3933,-422.53,0,0
370810.175,68.1632,-422.446,0,0
371070.5,67.8889,-422.294,0,0
371330.825,67.6601,-422.157,0,0
371591.15,67.3766,-421.949,0,0
371851.475,67.1481,-421.775,0,0
372111.8,66.9421,-421.56,0,0
372372.125,66.7844,-421.325,0,0
372632.45,66.635,-421.153,0,0
372892.775,66.4416,-421.008,0,0
373153.1,66.2762,-420.897,0,0
373413.425,66.0651,-420.75,0,0
373673.75,65.8347,-420.635,0,0
373934.075,65.6105,-420.526,0,0
374194.4,65.2932,-420.37,0,0
374454.725,65.0597,-420.246,0,0
374715.05,64.7798,-420.08,0,0
374975.375,64.3734,-419.929,0,0
375235.7,64.0306,-419.752,0,0
375496.025,63.7773,-419.557,0,0
375756.35,63.4133,-419.303,0,0
376016.675,63.0532,-419.084,0,0
376277.0,62.7573,-418.816,0,0
376537.325,62.4061,-418.568,0,0
376797.65,62.1337,-418.294,0,0
377057.975,61.8683,-418.02,0,0
377318.3,61.5905,-417.774,0,0
377578.625,61.2914,-417.555,0,0
377838.95,61.0359,-417.404,0,0
378099.275,60.6538,-417.247,0,0
378359.6,60.3314,-417.115,0,0
378619.925,59.918,-416.968,0,0
378880,59.3917,-416.851,0,0
379141,58.8465,-416.619,0,0
379401,58.1807,-416.379,0,0
379661,57.4759,-416.022,0,0
379922,56.7985,-415.546,0,0
380182,56.1425,-414.893,0,0
380442,55.5401,-414.15,0,0
380703,55.1319,-413.359,0,0
380963,54.8822,-412.493,0,0
381223,54.7419,-411.701,0,0
381483,54.7075,-411.062,0,0
381744,54.77,-410.514,0,0
382004,54.8382,-410.072,0,0
382264,54.8485,-409.798,0,0
382525,54.7526,-409.525,0,0
382785,54.5617,-409.352,0,0
383045,54.3334,-409.137,0,0
383306,54.0354,-408.953,0,0
383566,53.6471,-408.668,0,0
383826,53.2107,-408.378,0,0
384087,52.8331,-408.034,0,0
384347,52.3829,-407.647,0,0
384607,51.9523,-407.248,0,0
384868,51.4813,-406.827,0,0
385128,51.0632,-406.345,0,0
385388,50.6104,-405.828,0,0
385649,50.1694,-405.315,0,0
385909,49.7527,-404.763,0,0
386169,49.3465,-404.197,0,0
386430,48.9658,-403.58,0,0
386690,48.6175,-402.923,0,0
386950,48.249,-402.307,0,0
387211,47.9009,-401.644,0,0
387471,47.5978,-400.999,0,0
387731,47.2228,-400.364,0,0
387992,46.9708,-399.619,0,0
388252,46.6508,-398.937,0,0
388512,46.4054,-398.21,0,0
388773,46.18,-397.486,0,0
389033,45.9897,-396.686,0,0
389293,45.9001,-395.904,0,0
389554,45.7573,-395.185,0,0
389814,45.7653,-394.418,0,0
390074,45.763,-393.737,0,0
390335,45.7933,-393.124,0,0
390595,45.8814,-392.486,0,0
390855,45.9325,-391.906,0,0
391116,45.9769,-391.458,0,0
391376,46.0072,-390.993,0,0
391636,46.0496,-390.634,0,0
391896,45.9886,-390.233,0,0
392157,45.8498,-389.967,0,0
392417,45.7172,-389.592,0,0
392677,45.4568,-389.267,0,0
392938,45.208,-388.912,0,0
393198,44.9064,-388.503,0,0
393458,44.5029,-388.078,0,0
393719,44.1605,-387.577,0,0
393979,43.771,-387.019,0,0
394239,43.3611,-386.415,0,0
394500,43.0015,-385.793,0,0
394760.05,42.5973,-385.067,0,0
395020.375,42.206,-384.328,0,0
395280.7,41.9517,-383.53,0,0
395541.025,41.6642,-382.672,0,0
395801.35,41.4537,-381.868,0,0
396061.675,41.2906,-380.984,0,0
396322.0,41.1295,-380.177,0,0
396582.325,41.0403,-379.291,0,0
396842.65,40.9612,-378.425,0,0
397102.975,40.8856,-377.562,0,0
397363.3,40.8982,-376.734,0,0
397623.625,40.9084,-375.894,0,0
397883.95,40.9439,-375.036,0,0
398144.275,41.0289,-374.259,0,0
398404.6,41.1445,-373.448,0,0
398664.925,41.2439,-372.655,0,0
398925.25,41.3689,-371.894,0,0
399185.575,41.5201,-371.17,0,0
399445.9,41.6919,-370.469,0,0
399706.225,41.827,-369.779,0,0
399966.55,41.9958,-369.064,0,0
400006.6,42.0085,-368.945,0,0