File: Accelerated corrosion test data/2025-10-22_06-00-04/sample_6.csv
Frequency (Hz),Impedance (ohms),Phase (Radians),Temperature (C),Humidity (%)
10000.0,4117.05,-6727.88,0,0
10260.325,3979.89,-6642.97,0,0
10520.65,3848.49,-6558.48,0,0
10780.975,3723.28,-6475.01,0,0
11041.3,3604.31,-6392.2,0,0
11301.625,3490.64,-6310.58,0,0
11561.95,3382.25,-6230.02,0,0
11822.275,3278.95,-6150.9,0,0
12082.6,3179.17,-6072.73,0,0
12342.925,3084.84,-5995.45,0,0
12603.25,2995.04,-5917.42,0,0
12863.575,2908.89,-5844.18,0,0
13123.9,2827.6,-5771.57,0,0
13384.225,2748.25,-5702.06,0,0
13644.55,2670.86,-5631.86,0,0
13904.875,2597.39,-5562.26,0,0
14165.2,2527.26,-5494.1,0,0
14425.525,2458.62,-5427.56,0,0
14685.8,2394.65,-5361.1,0,0
14946.175,2332.81,-5296.95,0,0
15206.5,2273.01,-5234.29,0,0
15466.825,2215.78,-5172.23,0,0
15727.15,2160.42,-5111.5,0,0
15987.5,2107.43,-5052.04,0,0
16247.8,2055.89,-4993.38,0,0
16508.125,2006.42,-4936.21,0,0
16768.45,1959.09,-4879.69,0,0
17028.775,1913.57,-4824.93,0,0
17289.1,1869.41,-4770.96,0,0
17549.425,1826.68,-4717.96,0,0
17809.75,1784.84,-4665.35,0,0
18070.075,1745.58,-4614.53,0,0
18330.4,1707.08,-4563.78,0,0
18590.725,1669.12,-4514.41,0,0
18851.05,1634.23,-4465.71,0,0
19111.375,1599.9,-4419.09,0,0
19371.7,1566.44,-4372.01,0,0
19632.025,1533.92,-4327.36,0,0
19892.35,1502.15,-4282.73,0,0
20152.675,1471.89,-4238.12,0,0
20413.0,1442.13,-4195.35,0,0
20673.3,1413.16,-4153.33,0,0
20933.65,1385.45,-4110.91,0,0
21193.975,1358.55,-4069.66,0,0
21454.3,1332.19,-4029.62,0,0
21714.625,1306.85,-3990.29,0,0
21974.9,1282.44,-3950.88,0,0
22235.275,1258.34,-3912.97,0,0
22495.6,1234.77,-3874.86,0,0
22755.925,1212.63,-3836.98,0,0
23016.25,1191.7,-3799.47,0,0
23276.6,1173.24,-3764.42,0,0
23536.9,1153.21,-3730.9,0,0
23797.225,1132.86,-3697.36,0,0
24057.55,1113.34,-3664.39,0,0
24317.875,1093.58,-3631.12,0,0
24578.2,1075.25,-3598.44,0,0
24838.525,1056.97,-3565.65,0,0
25098.85,1040.17,-3534.39,0,0
25359.175,1023.08,-3503.84,0,0
25619.5,1006.75,-3473.76,0,0
25879.8,989.752,-3443.7,0,0
26140.1,974.147,-3413.93,0,0
26400.5,958.844,-3384.6,0,0
26660.8,944.243,-3355.25,0,0
26921.1,930.36,-3327.11,0,0
27181.4,916.118,-3299.82,0,0
27441.8,902.523,-3272.46,0,0
27702.1,889.708,-3246.16,0,0
27962.4,876.513,-3220.75,0,0
28222.7,862.405,-3195.07,0,0
28483.1,849.387,-3169.56,0,0
28743.4,835.922,-3143.69,0,0
29003.7,823.352,-3118.1,0,0
29264,811.367,-3092.62,0,0
29524.4,800.248,-3066.88,0,0
29784.7,790.102,-3041.33,0,0
30045,780.641,-3018.25,0,0
30305.3,770.406,-2994.48,0,0
30565.7,762.76,-2971.99,0,0
30826,752.919,-2952.18,0,0
31086.3,741.732,-2931.08,0,0
31346.6,731.027,-2909.1,0,0
31607,720.91,-2887.43,0,0
31867.3,712.032,-2865.09,0,0
32127.6,702.831,-2844.54,0,0
32387.9,693.666,-2822.69,0,0
32648.3,686.556,-2801.8,0,0
32908.6,679.397,-2782.57,0,0
33168.9,671.425,-2764.47,0,0
33429.2,663.282,-2746.15,0,0
33689.6,654.742,-2727.83,0,0
33949.9,645.244,-2710.03,0,0
34210.2,635.919,-2691.27,0,0
34470.5,627.373,-2671.61,0,0
34730.9,619.878,-2652.94,0,0
34991.2,612.576,-2634.54,0,0
35251.5,605.209,-2616.73,0,0
35511.8,597.985,-2599.3,0,0
35772.2,590.276,-2581.89,0,0
36032.5,582.923,-2564.15,0,0
36292.8,575.675,-2546.46,0,0
36553.1,569.206,-2528.99,0,0
36813.5,562.603,-2511.87,0,0
37073.8,556.153,-2494.69,0,0
37334.1,550.253,-2477.75,0,0
37594.4,544.511,-2461.38,0,0
37854.8,538.695,-2444.98,0,0
38115.1,533.034,-2428.74,0,0
38375.4,527.644,-2412.4,0,0
38635.7,522.331,-2396.44,0,0
38896.1,517.523,-2380.72,0,0
39156.4,512.939,-2364.92,0,0
39416.7,508.729,-2349.93,0,0
39677,504.68,-2335.3,0,0
39937.4,500.875,-2321.1,0,0
40197.7,496.658,-2307.35,0,0
40458,492.894,-2293.37,0,0
40718.3,488.99,-2280.86,0,0
40978.7,484.22,-2268,0,0
41239,479.073,-2255.15,0,0
41499.3,474.983,-2241.76,0,0
41759.6,470.701,-2229.46,0,0
42020,465.613,-2217.47,0,0
42280.275,460.128,-2204.94,0,0
42540.6,454.836,-2192.03,0,0
42800.925,449.995,-2178.74,0,0
43061.25,445.032,-2165.24,0,0
43321.575,440.671,-2150.88,0,0
43581.9,437.863,-2137.56,0,0
43842.225,434.982,-2124.66,0,0
44102.55,432.064,-2112.26,0,0
44362.875,429.293,-2100.08,0,0
44623.2,426.509,-2088.09,0,0
44883.525,423.788,-2076.72,0,0
45143.85,420.975,-2065.45,0,0
45404.175,418.153,-2053.97,0,0
45664.5,415.84,-2042.93,0,0
45924.825,413.316,-2032.05,0,0
46185.15,411.2,-2021.96,0,0
46445.475,408.38,-2012.4,0,0
46705.8,405.029,-2001.96,0,0
46966.125,402.383,-1991.55,0,0
47226.45,400.061,-1982.19,0,0
47486.775,396.856,-1972.4,0,0
47747.1,394.597,-1962.36,0,0
48007.425,392.399,-1953.33,0,0
48267.75,389.632,-1944.48,0,0
48528.075,386.66,-1935.35,0,0
48788.4,384.289,-1926.23,0,0
49048.725,381.92,-1918.07,0,0
49309.05,378.956,-1910.62,0,0
49569.375,374.793,-1902.79,0,0
49829.7,370.759,-1894,0,0
50090.025,367.282,-1885.82,0,0
50350.35,362.689,-1877.77,0,0
50610.675,358.109,-1868.72,0,0
50871.0,353.949,-1859.64,0,0
51131.325,349.782,-1850.07,0,0
51391.65,345.851,-1840.52,0,0
51651.975,342.505,-1830.71,0,0
51912.3,339.53,-1821.42,0,0
52172.625,336.067,-1812.21,0,0
52432.95,333.177,-1802.27,0,0
52693.275,330.732,-1793,0,0
52953.6,328.54,-1783.99,0,0
53213.925,326.28,-1775.67,0,0
53474.25,323.274,-1767.34,0,0
53734.575,320.292,-1758.67,0,0
53994.9,317.401,-1749.67,0,0
54255.225,314.902,-1740.39,0,0
54515.55,313.05,-1731.33,0,0
54775.875,311.314,-1722.96,0,0
55036.2,309.437,-1714.82,0,0
55296.525,307.584,-1706.68,0,0
55556.85,305.48,-1698.98,0,0
55817.175,303.012,-1691.06,0,0
56077.5,300.629,-1682.78,0,0
56337.825,298.486,-1674.34,0,0
56598.15,296.811,-1665.75,0,0
56858.475,295.832,-1657.39,0,0
57118.8,295.016,-1649.54,0,0
57379.125,294.277,-1642.33,0,0
57639.45,293.314,-1635.52,0,0
57899.775,292.304,-1628.84,0,0
58160.1,291.133,-1622.77,0,0
58420.4,289.453,-1616.75,0,0
58680.7,287.531,-1610.78,0,0
58941.1,285.299,-1604.69,0,0
59201.4,282.884,-1598.54,0,0
59461.7,280.519,-1592.15,0,0
59722,278.074,-1585.85,0,0
59982.4,275.458,-1579.38,0,0
60242.7,272.901,-1572.69,0,0
60503,270.342,-1566.15,0,0
60763.3,267.754,-1559.48,0,0
61023.7,265.222,-1552.72,0,0
61284,262.407,-1545.89,0,0
61544.3,259.737,-1538.9,0,0
61804.6,256.944,-1531.41,0,0
62065,254.693,-1523.55,0,0
62325.3,252.704,-1515.46,0,0
62585.6,251.726,-1507.27,0,0
62845.9,251.237,-1499.57,0,0
63106.3,251.258,-1492.48,0,0
63366.6,251.366,-1486.36,0,0
63626.9,251.122,-1480.83,0,0
63887.2,250.53,-1475.55,0,0
64147.6,249.249,-1470.76,0,0
64407.9,247.227,-1465.59,0,0
64668.2,245.097,-1459.92,0,0
64928.5,242.897,-1453.85,0,0
65188.9,241.22,-1447.55,0,0
65449.2,239.829,-1441.2,0,0
65709.5,238.732,-1434.97,0,0
65969.8,237.852,-1429.18,0,0
66230.2,236.824,-1423.67,0,0
66490.5,235.579,-1418.15,0,0
66750.8,234.373,-1412.89,0,0
67011.1,233.028,-1407.65,0,0
67271.5,231.495,-1402.44,0,0
67531.8,230.015,-1397,0,0
67792.1,228.542,-1391.61,0,0
68052.4,227.01,-1386.27,0,0
68312.8,225.446,-1380.96,0,0
68573.1,224.087,-1375.48,0,0
68833.4,222.793,-1370.1,0,0
69093.7,221.354,-1364.81,0,0
69354.1,219.865,-1359.77,0,0
69614.4,218.446,-1354.49,0,0
69874.7,216.897,-1349.22,0,0
70135,215.577,-1344.01,0,0
70395.4,213.997,-1338.83,0,0
70655.7,212.394,-1333.74,0,0
70916,210.938,-1328.45,0,0
71176.3,209.478,-1323.16,0,0
71436.7,207.991,-1317.87,0,0
71697,206.596,-1312.56,0,0
71957.3,205.346,-1307.32,0,0
72217.6,204.243,-1302.11,0,0
72478,202.966,-1296.97,0,0
72738.3,201.885,-1291.84,0,0
72998.6,200.646,-1286.85,0,0
73258.9,199.463,-1281.82,0,0
73519.3,198.285,-1276.82,0,0
73779.6,197.117,-1271.83,0,0
74039.9,195.991,-1266.79,0,0
74300.225,194.933,-1261.91,0,0
74560.55,193.954,-1257.04,0,0
74820.875,192.853,-1252.3,0,0
75081.2,191.654,-1247.53,0,0
75341.525,190.481,-1242.79,0,0
75601.85,189.289,-1238.05,0,0
75862.175,188.159,-1233.27,0,0
76122.5,186.99,-1228.52,0,0
76382.825,185.849,-1223.77,0,0
76643.15,184.684,-1218.94,0,0
76903.475,183.611,-1214.26,0,0
77163.8,182.502,-1209.51,0,0
77424.125,181.428,-1204.79,0,0
77684.45,180.339,-1200.04,0,0
77944.775,179.336,-1195.32,0,0
78205.1,178.301,-1190.61,0,0
78465.425,177.234,-1185.88,0,0
78725.75,176.235,-1181.16,0,0
78986.075,175.295,-1176.53,0,0
79246.4,174.345,-1171.84,0,0
79506.725,173.454,-1167.16,0,0
79767.05,172.484,-1162.49,0,0
80027.375,171.574,-1157.85,0,0
80287.7,170.641,-1153.16,0,0
80548.025,169.852,-1148.39,0,0
80808.35,169.095,-1143.78,0,0
81068.675,168.381,-1139.08,0,0
81329.0,167.708,-1134.42,0,0
81589.325,167.084,-1129.76,0,0
81849.65,166.6,-1125.26,0,0
82109.975,165.968,-1120.71,0,0
82370.3,165.42,-1116.26,0,0
82630.625,164.887,-1111.85,0,0
82890.95,164.29,-1107.42,0,0
83151.275,163.725,-1102.96,0,0
83411.6,163.269,-1098.44,0,0
83671.925,162.759,-1093.99,0,0
83932.25,162.343,-1089.53,0,0
84192.575,161.982,-1085.13,0,0
84452.9,161.753,-1080.59,0,0
84713.225,161.508,-1076.24,0,0
84973.55,161.307,-1071.89,0,0
85233.875,161.289,-1067.5,0,0
85494.2,161.28,-1063.3,0,0
85754.525,161.314,-1059.31,0,0
86014.85,161.288,-1055.29,0,0
86275.175,161.343,-1051.3,0,0
86535.5,161.259,-1047.35,0,0
86795.825,161.196,-1043.46,0,0
87056.15,161.237,-1039.57,0,0
87316.475,161.208,-1035.74,0,0
87576.8,161.324,-1032,0,0
87837.125,161.202,-1028.2,0,0
88097.45,161.203,-1024.69,0,0
88357.775,161.309,-1020.78,0,0
88618.1,161.419,-1017.04,0,0
88878.425,161.634,-1013.36,0,0
89138.75,161.999,-1009.74,0,0
89399.075,162.542,-1006.27,0,0
89659.4,163.085,-1003.2,0,0
89919.725,163.492,-1000.36,0,0
90180,163.601,-997.682,0,0
90440.4,163.542,-994.997,0,0
90700.7,163.285,-992.367,0,0
90961,162.865,-989.82,0,0
91221.3,162.03,-986.943,0,0
91481.7,161.089,-983.91,0,0
91742,160.429,-980.246,0,0
92002.3,160.284,-976.725,0,0
92262.6,160.25,-973.518,0,0
92523,160.031,-970.546,0,0
92783.3,159.648,-967.558,0,0
93043.6,159.15,-964.43,0,0
93303.9,158.575,-961.167,0,0
93564.3,158.194,-957.814,0,0
93824.6,157.926,-954.473,0,0
94084.9,157.906,-950.995,0,0
94345.2,157.835,-947.932,0,0
94605.6,157.69,-944.82,0,0
94865.9,157.544,-941.753,0,0
95126.2,157.466,-938.492,0,0
95386.5,157.466,-935.299,0,0
95646.9,157.633,-932.36,0,0
95907.2,157.822,-929.639,0,0
96167.5,157.947,-927.06,0,0
96427.8,157.751,-924.524,0,0
96688.2,157.534,-922.014,0,0
96948.5,157.26,-919.44,0,0
97208.8,156.819,-916.956,0,0
97469.1,156.21,-914.384,0,0
97729.5,155.492,-911.561,0,0
97989.8,154.942,-908.404,0,0
98250.1,154.631,-905.351,0,0
98510.4,154.396,-902.485,0,0
98770.8,154.1,-899.473,0,0
99031.1,154.008,-896.482,0,0
99291.4,154.003,-893.598,0,0
99551.7,154.044,-890.913,0,0
99812.1,154.013,-888.319,0,0
100072,153.958,-885.731,0,0
100333,153.921,-883.308,0,0
100593,153.841,-880.909,0,0
100853,153.679,-878.677,0,0
101114,153.447,-876.5,0,0
101374,152.992,-874.318,0,0
101634,152.397,-872.048,0,0
101895,151.798,-869.725,0,0
102155,151.199,-867.261,0,0
102415,150.718,-864.841,0,0
102676,150.333,-862.496,0,0
102936,149.8,-860.386,0,0
103196,149.027,-858.249,0,0
103457,148.16,-855.989,0,0
103717,147.258,-853.649,0,0
103977,146.54,-851.263,0,0
104238,145.693,-849.219,0,0
104498,144.488,-847.041,0,0
104758,143.145,-844.794,0,0
105019,141.555,-842.378,0,0
105279,140.032,-839.764,0,0
105539,138.238,-836.977,0,0
105800,136.407,-833.89,0,0
106060,134.558,-830.505,0,0
106320.175,132.747,-826.633,0,0
106580.5,131.33,-822.413,0,0
106840.825,130.308,-818.047,0,0
107101.15,129.62,-813.616,0,0
107361.475,129.335,-809.395,0,0
107621.8,129.112,-805.183,0,0
107882.125,129.083,-801.033,0,0
108142.45,129.28,-796.936,0,0
108402.775,129.642,-792.994,0,0
108663.1,130.232,-789.228,0,0
108923.425,130.826,-785.542,0,0
109183.75,131.375,-782.068,0,0
109444.075,132.051,-778.614,0,0
109704.4,132.799,-775.202,0,0
109964.725,133.565,-771.992,0,0
110225.05,134.364,-768.674,0,0
110485.375,135.26,-765.408,0,0
110745.7,136.425,-762.251,0,0
111006.025,137.687,-759.298,0,0
111266.35,138.968,-756.659,0,0
111526.675,140.588,-754.093,0,0
111787.0,141.938,-751.829,0,0
112047.325,143.435,-749.985,0,0
112307.65,144.744,-748.5,0,0
112567.975,145.618,-747.339,0,0
112828.3,146.051,-746.165,0,0
113088.625,146.252,-744.91,0,0
113348.95,146.214,-743.447,0,0
113609.275,146.122,-741.893,0,0
113869.6,145.925,-740.187,0,0
114129.925,145.851,-738.318,0,0
114390.25,145.765,-736.554,0,0
114650.575,145.528,-734.817,0,0
114910.9,145.072,-732.917,0,0
115171.225,144.889,-730.559,0,0
115431.55,145.095,-728.303,0,0
115691.875,145.657,-726.384,0,0
115952.2,146.187,-725.17,0,0
116212.525,146.079,-724.187,0,0
116472.85,145.611,-723.089,0,0
116733.175,144.939,-721.994,0,0
116993.5,143.922,-720.836,0,0
117253.825,142.468,-719.407,0,0
117514.15,140.834,-717.701,0,0
117774.475,139.074,-715.453,0,0
118034.8,137.554,-712.785,0,0
118295.125,136.188,-709.861,0,0
118555.45,135.104,-706.818,0,0
118815.775,134.142,-703.744,0,0
119076.1,133.331,-700.47,0,0
119336.425,132.744,-697.114,0,0
119596.75,132.367,-693.778,0,0
119857.075,132.241,-690.426,0,0
120117.4,132.251,-687.119,0,0
120377.725,132.486,-683.91,0,0
120638.05,132.93,-680.769,0,0
120898.375,133.468,-677.847,0,0
121158.7,134.305,-675.102,0,0
121419.025,135.187,-672.903,0,0
121679.35,135.68,-671.106,0,0
121939.675,135.743,-669.258,0,0
122200.0,135.637,-667.288,0,0
122460,135.434,-665.214,0,0
122721,135.131,-663.014,0,0
122981,134.838,-660.633,0,0
123241,134.658,-658.218,0,0
123502,134.474,-655.749,0,0
123762,134.366,-653.292,0,0
124022,134.318,-650.845,0,0
124283,134.216,-648.431,0,0
124543,134.153,-645.977,0,0
124803,134.076,-643.577,0,0
125064,133.999,-641.176,0,0
125324,133.797,-638.769,0,0
125584,133.576,-636.277,0,0
125845,133.435,-633.716,0,0
126105,133.295,-631.148,0,0
126365,133.23,-628.498,0,0
126626,133.058,-625.899,0,0
126886,132.998,-623.151,0,0
127146,132.941,-620.413,0,0
127406,132.918,-617.626,0,0
127667,132.975,-614.716,0,0
127927,133.156,-611.825,0,0
128187,133.448,-608.884,0,0
128448,133.887,-606.025,0,0
128708,134.367,-603.215,0,0
128968,134.959,-600.472,0,0
129229,135.545,-597.85,0,0
129489,136.163,-595.293,0,0
129749,136.742,-592.783,0,0
130010,137.325,-590.259,0,0
130270,137.928,-587.801,0,0
130530,138.523,-585.404,0,0
130791,139.095,-582.989,0,0
131051,139.631,-580.572,0,0
131311,140.244,-578.15,0,0
131572,140.815,-575.726,0,0
131832,141.48,-573.332,0,0
132092,142.151,-570.957,0,0
132353,142.897,-568.594,0,0
132613,143.603,-566.285,0,0
132873,144.391,-564.047,0,0
133134,145.147,-561.793,0,0
133394,145.918,-559.628,0,0
133654,146.711,-557.501,0,0
133915,147.465,-555.426,0,0
134175,148.132,-553.36,0,0
134435,148.819,-551.217,0,0
134696,149.521,-549.083,0,0
134956,150.351,-546.969,0,0
135216,151.162,-544.946,0,0
135477,151.976,-542.968,0,0
135737,152.769,-540.987,0,0
135997,153.687,-539.077,0,0
136258,154.566,-537.214,0,0
136518,155.465,-535.474,0,0
136778,156.332,-533.838,0,0
137039,157.098,-532.27,0,0
137299,157.809,-530.719,0,0
137559,158.446,-529.18,0,0
137819,159.003,-527.679,0,0
138080,159.461,-526.175,0,0
138340.125,160.016,-524.633,0,0
138600.45,160.41,-523.149,0,0
138860.775,160.801,-521.525,0,0
139121.1,161.053,-520.082,0,0
139381.425,161.295,-518.591,0,0
139641.75,161.472,-517.026,0,0
139902.075,161.534,-515.364,0,0
140162.4,161.723,-513.568,0,0
140422.725,161.863,-511.821,0,0
140683.05,162.123,-509.938,0,0
140943.375,162.352,-508.147,0,0
141203.7,162.674,-506.276,0,0
141464.025,163.008,-504.631,0,0
141724.35,163.152,-503,0,0
141984.675,163.369,-501.436,0,0
142245.0,163.325,-499.83,0,0
142505.325,163.139,-498.046,0,0
142765.65,162.899,-496.195,0,0
143025.975,162.662,-494.076,0,0
143286.3,162.593,-491.771,0,0
143546.625,162.65,-489.469,0,0
143806.95,162.817,-486.984,0,0
144067.275,163.241,-484.61,0,0
144327.6,163.702,-482.307,0,0
144587.925,164.229,-480.137,0,0
144848.25,164.803,-478.109,0,0
145108.575,165.373,-476.128,0,0
145368.9,165.9,-474.321,0,0
145629.225,166.23,-472.527,0,0
145889.55,166.535,-470.724,0,0
146149.875,166.8,-468.948,0,0
146410.2,167.005,-467.112,0,0
146670.525,167.128,-465.212,0,0
146930.85,167.191,-463.446,0,0
147191.175,167.138,-461.516,0,0
147451.5,167.051,-459.595,0,0
147711.825,166.814,-457.462,0,0
147972.15,166.572,-455.154,0,0
148232.475,166.43,-452.809,0,0
148492.8,166.331,-450.239,0,0
148753.125,166.341,-447.642,0,0
149013.45,166.358,-444.989,0,0
149273.775,166.533,-442.25,0,0
149534.1,166.687,-439.423,0,0
149794.425,167.093,-436.584,0,0
150054.75,167.602,-433.85,0,0
150315.075,167.994,-431.086,0,0
150575.4,168.454,-428.258,0,0
150835.725,169.025,-425.452,0,0
151096.05,169.756,-422.681,0,0
151356.375,170.375,-419.819,0,0
151616.7,171.06,-416.922,0,0
151877.025,171.911,-413.958,0,0
152137.35,172.973,-410.944,0,0
152397.675,174.171,-408.051,0,0
152658.0,175.627,-405.288,0,0
152918.325,177.131,-402.766,0,0
153178.65,178.52,-400.486,0,0
153438.975,179.861,-398.427,0,0
153699.3,180.969,-396.445,0,0
153959.625,181.905,-394.344,0,0
154219.95,182.678,-392.194,0,0
154480,183.505,-389.944,0,0
154741,184.228,-387.569,0,0
155001,184.985,-385.008,0,0
155261,185.932,-382.274,0,0
155522,187.021,-379.55,0,0
155782,188.381,-376.739,0,0
156042,189.916,-374.188,0,0
156303,191.553,-371.774,0,0
156563,193.169,-369.549,0,0
156823,194.767,-367.515,0,0
157084,196.301,-365.56,0,0
157344,197.697,-363.777,0,0
157604,198.999,-362.079,0,0
157864,200.131,-360.428,0,0
158125,200.987,-358.716,0,0
158385,201.71,-356.868,0,0
158645,202.467,-354.745,0,0
158906,203.225,-352.596,0,0
159166,204.12,-350.336,0,0
159426,205.021,-348.192,0,0
159687,205.943,-345.917,0,0
159947,206.849,-343.708,0,0
160207,207.776,-341.433,0,0
160468,208.581,-339.13,0,0
160728,209.488,-336.832,0,0
160988,210.4,-334.43,0,0
161249,211.247,-331.923,0,0
161509,212.206,-329.431,0,0
161769,213.184,-326.923,0,0
162030,214.206,-324.31,0,0
162290,215.324,-321.695,0,0
162550,216.407,-319.122,0,0
162811,217.609,-316.546,0,0
163071,218.813,-313.957,0,0
163331,220.063,-311.467,0,0
163592,221.316,-308.952,0,0
163852,222.541,-306.46,0,0
164112,223.719,-304.102,0,0
164373,224.815,-301.695,0,0
164633,225.799,-299.279,0,0
164893,226.707,-296.678,0,0
165154,227.546,-294.034,0,0
165414,228.441,-291.206,0,0
165674,229.278,-288.268,0,0
165935,230.243,-285.243,0,0
166195,231.231,-282.068,0,0
166455,232.291,-278.817,0,0
166716,233.435,-275.482,0,0
166976,234.671,-272.084,0,0
167236,235.986,-268.59,0,0
167497,237.42,-265.048,0,0
167757,239.005,-261.437,0,0
168017,240.674,-257.828,0,0
168277,242.532,-254.243,0,0
168538,244.407,-250.679,0,0
168798,246.402,-247.15,0,0
169058,248.405,-243.711,0,0
169319,250.437,-240.205,0,0
169579,252.471,-236.732,0,0
169839,254.5,-233.21,0,0
170100,256.582,-229.648,0,0
170360.075,258.748,-226.071,0,0
170620.4,260.934,-222.46,0,0
170880.725,263.151,-218.854,0,0
171141.05,265.385,-215.27,0,0
171401.375,267.554,-211.6,0,0
171661.7,269.767,-207.788,0,0
171922.025,272.041,-203.855,0,0
172182.35,274.443,-199.85,0,0
172442.675,276.873,-195.752,0,0
172703.0,279.438,-191.641,0,0
172963.325,282.018,-187.452,0,0
173223.65,284.688,-183.123,0,0
173483.975,287.522,-178.709,0,0
173744.3,290.428,-174.167,0,0
174004.625,293.461,-169.569,0,0
174264.95,296.694,-164.874,0,0
174525.275,300.059,-160.115,0,0
174785.6,303.678,-155.301,0,0
175045.925,307.379,-150.49,0,0
175306.25,311.261,-145.62,0,0
175566.575,315.261,-140.71,0,0
175826.9,319.464,-135.713,0,0
176087.225,323.785,-130.735,0,0
176347.55,328.436,-125.684,0,0
176607.875,333.206,-120.635,0,0
176868.2,338.172,-115.554,0,0
177128.525,343.351,-110.439,0,0
177388.85,348.786,-105.324,0,0
177649.175,354.442,-100.352,0,0
177909.5,360.213,-95.3113,0,0
178169.825,366.27,-90.3071,0,0
178430.15,372.54,-85.3481,0,0
178690.475,379.02,-80.3887,0,0
178950.8,385.729,-75.4486,0,0
179211.125,392.758,-70.6405,0,0
179471.45,400.105,-65.9215,0,0
179731.775,407.641,-61.4809,0,0
179992.1,415.384,-57.1719,0,0
180252.425,423.182,-53.0547,0,0
180512.75,431.004,-49.0187,0,0
180773.075,439.023,-45.0211,0,0
181033.4,447.088,-41.083,0,0
181293.725,455.294,-37.2078,0,0
181554.05,463.757,-33.3204,0,0
181814.375,472.416,-29.4258,0,0
182074.7,481.243,-25.6581,0,0
182335.025,490.202,-22.0646,0,0
182595.35,499.307,-18.364,0,0
182855.675,508.596,-14.7105,0,0
183116.0,518.155,-10.9562,0,0
183376.325,527.952,-7.26149,0,0
183636.65,538.137,-3.42676,0,0
183896.975,548.609,0.285195,0,0
184157.3,559.45,3.93775,0,0
184417.625,570.721,7.63423,0,0
184677.95,582.377,11.1031,0,0
184938.275,594.393,14.5433,0,0
185198.6,606.873,17.978,0,0
185458.925,619.934,21.2864,0,0
185719.25,633.557,24.4411,0,0
185979.575,647.717,27.3554,0,0
186239.9,662.525,30.0245,0,0
186500,677.865,32.3033,0,0
186761,693.954,34.2579,0,0
187021,710.69,35.6983,0,0
187281,728.055,36.6101,0,0
187542,746.091,36.9105,0,0
187802,764.771,36.5749,0,0
188062,784.028,35.4738,0,0
188322,803.929,33.5747,0,0
188583,824.505,30.7648,0,0
188843,845.67,26.7996,0,0
189103,867.302,21.6421,0,0
189364,889.23,15.2642,0,0
189624,911.382,7.54192,0,0
189884,933.661,-1.61216,0,0
190145,955.72,-12.0239,0,0
190405,977.813,-23.8002,0,0
190665,999.493,-36.9834,0,0
190926,1021.19,-51.4664,0,0
191186,1042.18,-67.2716,0,0
191446,1062.81,-84.4201,0,0
191707,1082.68,-102.978,0,0
191967,1101.93,-122.686,0,0
192227,1120.35,-143.818,0,0
192488,1137.9,-166.075,0,0
192748,1154.39,-189.496,0,0
193008,1169.66,-214.106,0,0
193269,1183.74,-239.561,0,0
193529,1196.55,-266.003,0,0
193789,1208.07,-293.224,0,0
194050,1218.06,-321.192,0,0
194310,1226.64,-349.824,0,0
194570,1233.62,-378.973,0,0
194831,1239.35,-408.444,0,0
195091,1243.01,-438.308,0,0
195351,1245.27,-468.465,0,0
195612,1246.06,-498.779,0,0
195872,1244.98,-528.709,0,0
196132,1242.08,-558.542,0,0
196393,1237.72,-588.01,0,0
196653,1231.82,-617.096,0,0
196913,1224.33,-645.638,0,0
197174,1215.62,-673.358,0,0
197434,1205.33,-700.151,0,0
197694,1193.99,-726.173,0,0
197955,1181.37,-751.451,0,0
198215,1167.65,-775.428,0,0
198475,1153.1,-798.329,0,0
198735,1137.88,-820.235,0,0
198996,1121.7,-840.959,0,0
199256,1105.03,-860.671,0,0
199516,1087.97,-879.468,0,0
199777,1069.91,-896.98,0,0
200037,1051.87,-913.155,0,0
200297,1033.23,-929.022,0,0
200558,1014.5,-943.255,0,0
200818,995.273,-956.641,0,0
201078,975.823,-969.077,0,0
201339,956.598,-980.392,0,0
201599,936.858,-990.497,0,0
201859,917.402,-999.633,0,0
202120,897.851,-1007.74,0,0
202380.025,878.708,-1015.18,0,0
202640.35,859.636,-1021.19,0,0
202900.675,840.646,-1026.51,0,0
203161.0,822.379,-1031.01,0,0
203421.325,804.304,-1034.61,0,0
203681.65,786.46,-1037.77,0,0
203941.975,768.932,-1040.41,0,0
204202.3,752.486,-1042.18,0,0
204462.625,735.868,-1043.64,0,0
204722.95,719.735,-1044.53,0,0
204983.275,703.731,-1044.85,0,0
205243.6,688.481,-1044.68,0,0
205503.925,673.779,-1044.29,0,0
205764.25,659.176,-1043.69,0,0
206024.575,644.879,-1042.68,0,0
206284.9,631.222,-1041.18,0,0
206545.225,617.674,-1039.5,0,0
206805.55,604.357,-1037.51,0,0
207065.875,591.801,-1035.27,0,0
207326.2,579.31,-1032.88,0,0
207586.525,567.299,-1030.13,0,0
207846.85,555.703,-1027.28,0,0
208107.175,544.263,-1024.18,0,0
208367.5,533.314,-1021.16,0,0
208627.825,522.689,-1017.87,0,0
208888.15,512.258,-1014.25,0,0
209148.475,502.196,-1010.74,0,0
209408.8,492.557,-1007.08,0,0
209669.125,483.098,-1003.62,0,0
209929.45,473.721,-999.544,0,0
210189.775,464.653,-995.82,0,0
210450.1,455.987,-992.416,0,0
210710.425,447.356,-988.55,0,0
210970.75,438.867,-984.683,0,0
211231.075,430.468,-980.795,0,0
211491.4,422.305,-976.576,0,0
211751.725,414.309,-972.39,0,0
212012.05,406.498,-967.851,0,0
212272.375,398.989,-963.494,0,0
212532.7,391.881,-958.941,0,0
212793.025,384.879,-954.369,0,0
213053.35,378.074,-949.748,0,0
213313.675,371.602,-945.218,0,0
213574.0,365.298,-940.641,0,0
213834.325,359.064,-936.04,0,0
214094.65,353.149,-931.591,0,0
214354.975,347.207,-927.018,0,0
214615.3,341.295,-922.28,0,0
214875.625,335.815,-917.673,0,0
215135.95,330.5,-913.162,0,0
215396.275,325.266,-908.134,0,0
215656.6,320.344,-903.391,0,0
215916.925,315.553,-898.786,0,0
216177.25,310.812,-894.036,0,0
216437.575,306.371,-889.478,0,0
216697.9,302.09,-884.797,0,0
216958.225,297.791,-880.272,0,0
217218.55,293.648,-875.848,0,0
217478.875,289.674,-871.295,0,0
217739.2,285.803,-866.824,0,0
217999.525,281.977,-862.421,0,0
218259.85,278.352,-857.9,0,0
218520,274.739,-853.529,0,0
218780,271.203,-849.074,0,0
219041,267.843,-844.846,0,0
219301,264.58,-840.491,0,0
219561,261.381,-836.11,0,0
219822,258.322,-831.841,0,0
220082,255.256,-827.452,0,0
220342,252.363,-823.051,0,0
220603,249.68,-818.732,0,0
220863,246.854,-814.492,0,0
221123,244.256,-810.23,0,0
221384,241.625,-805.987,0,0
221644,239.124,-801.72,0,0
221904,236.76,-797.534,0,0
222165,234.357,-793.282,0,0
222425,232.153,-789.08,0,0
222685,230.116,-784.8,0,0
222946,227.937,-780.479,0,0
223206,226.09,-776.265,0,0
223466,224.141,-772.027,0,0
223727,222.403,-767.864,0,0
223987,220.803,-763.585,0,0
224247,219.232,-759.417,0,0
224508,217.828,-755.178,0,0
224768,216.567,-751.045,0,0
225028,215.525,-747.003,0,0
225289,214.276,-742.868,0,0
225549,213.327,-738.893,0,0
225809,212.624,-735.005,0,0
226070,211.778,-731.063,0,0
226330,211.206,-727.389,0,0
226590,210.63,-723.655,0,0
226851,210.007,-720.119,0,0
227111,209.492,-716.665,0,0
227371,209.05,-713.126,0,0
227632,208.647,-709.774,0,0
227892,208.065,-706.572,0,0
228152,207.658,-703.24,0,0
228413,207.218,-700.017,0,0
228673,206.731,-696.765,0,0
228933,206.382,-693.533,0,0
229193,206.037,-690.244,0,0
229454,205.759,-687.124,0,0
229714,205.392,-683.786,0,0
229974,205.285,-680.597,0,0
230235,204.989,-677.322,0,0
230495,204.944,-674.172,0,0
230755,204.938,-670.947,0,0
231016,204.909,-667.804,0,0
231276,204.982,-664.576,0,0
231536,205.176,-661.459,0,0
231797,205.345,-658.347,0,0
232057,205.699,-655.281,0,0
232317,206.051,-652.18,0,0
232578,206.451,-649.107,0,0
232838,206.994,-646.064,0,0
233098,207.559,-643.1,0,0
233359,208.232,-640.13,0,0
233619,208.978,-637.179,0,0
233879,209.812,-634.336,0,0
234140,210.686,-631.467,0,0
234400,211.717,-628.665,0,0
234660.3,212.709,-625.907,0,0
234920.625,213.786,-623.295,0,0
235180.95,215.151,-620.714,0,0
235441.275,216.477,-618.078,0,0
235701.6,217.751,-615.71,0,0
235961.925,219.111,-613.223,0,0
236222.25,220.66,-610.863,0,0
236482.575,222.205,-608.533,0,0
236742.9,223.874,-606.339,0,0
237003.225,225.628,-604.198,0,0
237263.55,227.322,-602.154,0,0
237523.875,229.174,-600.221,0,0
237784.2,231.114,-598.37,0,0
238044.525,233.04,-596.575,0,0
238304.85,235.041,-594.877,0,0
238565.175,237.117,-593.333,0,0
238825.5,239.294,-591.835,0,0
239085.825,241.435,-590.511,0,0
239346.15,243.762,-589.305,0,0
239606.475,245.919,-588.115,0,0
239866.8,248.239,-587.177,0,0
240127.125,250.572,-586.258,0,0
240387.45,252.99,-585.52,0,0
240647.775,255.354,-584.933,0,0
240908.1,257.711,-584.44,0,0
241168.425,260.113,-584.1,0,0
241428.75,262.501,-583.916,0,0
241689.075,264.866,-583.785,0,0
241949.4,267.267,-583.821,0,0
242209.725,269.561,-584.013,0,0
242470.05,271.914,-584.366,0,0
242730.375,274.261,-584.784,0,0
242990.7,276.485,-585.337,0,0
243251.025,278.808,-586.039,0,0
243511.35,281.011,-586.856,0,0
243771.675,283.281,-587.895,0,0
244032.0,285.351,-589.185,0,0
244292.325,287.43,-590.522,0,0
244552.65,289.411,-592.054,0,0
244812.975,291.101,-593.747,0,0
245073.3,292.718,-595.676,0,0
245333.625,294.255,-597.626,0,0
245593.95,295.543,-599.651,0,0
245854.275,296.728,-601.783,0,0
246114.6,297.513,-603.893,0,0
246374.925,298.211,-606.015,0,0
246635.25,298.815,-608.06,0,0
246895.575,299.275,-610.121,0,0
247155.9,299.639,-612.138,0,0
247416.225,299.907,-614.113,0,0
247676.55,300.088,-616.111,0,0
247936.875,300.196,-618.134,0,0
248197.2,300.161,-620.123,0,0
248457.525,300.064,-622.022,0,0
248717.85,299.913,-623.881,0,0
248978.175,299.567,-625.686,0,0
249238.5,299.399,-627.343,0,0
249498.825,299.2,-628.993,0,0
249759.15,298.855,-630.633,0,0
250019.475,298.787,-632.205,0,0
250279.8,298.996,-633.931,0,0
250540,299.049,-635.795,0,0
250800,299.097,-637.902,0,0
251061,299.034,-640.054,0,0
251321,298.945,-642.481,0,0
251581,298.514,-645.065,0,0
251842,297.974,-647.635,0,0
252102,297.263,-650.302,0,0
252362,296.294,-652.951,0,0
252623,295.28,-655.663,0,0
252883,293.99,-658.377,0,0
253143,292.544,-661.089,0,0
253404,290.946,-663.829,0,0
253664,289.141,-666.53,0,0
253924,287.116,-669.108,0,0
254185,284.914,-671.672,0,0
254445,282.509,-674.166,0,0
254705,279.758,-676.347,0,0
254966,277.051,-678.735,0,0
255226,274.093,-680.473,0,0
255486,271.072,-682.467,0,0
255747,267.953,-684.087,0,0
256007,264.785,-685.481,0,0
256267,261.582,-686.803,0,0
256528,258.286,-687.947,0,0
256788,255.042,-688.811,0,0
257048,251.728,-689.672,0,0
257309,248.385,-690.263,0,0
257569,245.13,-690.793,0,0
257829,241.851,-691.16,0,0
258090,238.674,-691.398,0,0
258350,235.497,-691.517,0,0
258610,232.356,-691.488,0,0
258871,229.232,-691.46,0,0
259131,226.133,-691.289,0,0
259391,223.162,-691.066,0,0
259651,220.159,-690.759,0,0
259912,217.263,-690.243,0,0
260172,214.318,-689.892,0,0
260432,211.527,-689.102,0,0
260693,208.608,-688.568,0,0
260953,205.94,-687.749,0,0
261213,203.215,-687.02,0,0
261474,200.555,-686.116,0,0
261734,197.965,-685.201,0,0
261994,195.414,-684.333,0,0
262255,192.939,-683.282,0,0
262515,190.513,-682.267,0,0
262775,188.173,-681.161,0,0
263036,185.868,-680.077,0,0
263296,183.596,-678.966,0,0
263556,181.39,-677.836,0,0
263817,179.28,-676.623,0,0
264077,177.121,-675.393,0,0
264337,175.098,-674.311,0,0
264598,173.094,-672.927,0,0
264858,171.02,-671.713,0,0
265118,169.178,-670.459,0,0
265379,167.294,-669.14,0,0
265639,165.429,-667.814,0,0
265899,163.679,-666.565,0,0
266160,161.928,-665.245,0,0
266420,160.189,-663.871,0,0
266680.25,158.449,-662.588,0,0
266940.575,156.872,-661.286,0,0
267200.9,155.251,-659.954,0,0
267461.225,153.674,-658.605,0,0
267721.55,152.113,-657.27,0,0
267981.875,150.623,-655.961,0,0
268242.2,149.065,-654.611,0,0
268502.525,147.59,-653.246,0,0
268762.85,146.157,-651.933,0,0
269023.175,144.74,-650.597,0,0
269283.5,143.334,-649.172,0,0
269543.825,142.003,-647.895,0,0
269804.15,140.623,-646.519,0,0
270064.475,139.321,-645.143,0,0
270324.8,138.041,-643.801,0,0
270585.125,136.764,-642.484,0,0
270845.45,135.483,-641.163,0,0
271105.775,134.215,-639.807,0,0
271366.1,133.054,-638.464,0,0
271626.425,131.849,-637.047,0,0
271886.75,130.711,-635.701,0,0
272147.075,129.506,-634.365,0,0
272407.4,128.417,-633.042,0,0
272667.725,127.306,-631.688,0,0
272928.05,126.258,-630.333,0,0
273188.375,125.15,-628.992,0,0
273448.7,124.108,-627.643,0,0
273709.025,123.075,-626.294,0,0
273969.35,122.04,-624.959,0,0
274229.675,121.055,-623.637,0,0
274490.0,120.014,-622.281,0,0
274750.325,119.072,-621.003,0,0
275010.65,118.199,-619.521,0,0
275270.975,117.191,-618.318,0,0
275531.3,116.289,-616.936,0,0
275791.625,115.433,-615.563,0,0
276051.95,114.503,-614.234,0,0
276312.275,113.631,-612.921,0,0
276572.6,112.766,-611.566,0,0
276832.925,111.916,-610.225,0,0
277093.25,111.074,-608.891,0,0
277353.575,110.266,-607.529,0,0
277613.9,109.476,-606.203,0,0
277874.225,108.697,-604.839,0,0
278134.55,107.929,-603.508,0,0
278394.875,107.174,-602.13,0,0
278655.2,106.464,-600.772,0,0
278915.525,105.704,-599.347,0,0
279175.85,105.099,-597.986,0,0
279436.175,104.421,-596.645,0,0
279696.5,103.832,-595.219,0,0
279956.825,103.238,-593.864,0,0
280217.15,102.76,-592.414,0,0
280477.475,102.293,-591.084,0,0
280737.8,101.861,-589.708,0,0
280998.125,101.531,-588.52,0,0
281258.45,101.167,-587.287,0,0
281518.775,100.801,-586.129,0,0
281779.1,100.415,-584.976,0,0
282039.425,99.9951,-583.896,0,0
282299.75,99.6136,-582.822,0,0
282560,99.1635,-581.756,0,0
282820,98.6844,-580.634,0,0
283081,98.211,-579.658,0,0
283341,97.7536,-578.514,0,0
283601,97.3119,-577.414,0,0
283862,96.7953,-576.36,0,0
284122,96.4167,-575.307,0,0
284382,95.953,-574.064,0,0
284643,95.5627,-573.016,0,0
284903,95.2601,-571.875,0,0
285163,94.7947,-570.784,0,0
285424,94.5758,-569.777,0,0
285684,94.1806,-568.725,0,0
285944,93.9499,-567.671,0,0
286205,93.6128,-566.804,0,0
286465,93.3837,-565.791,0,0
286725,93.1182,-564.963,0,0
286986,92.8022,-564.098,0,0
287246,92.5001,-563.257,0,0
287506,92.0706,-562.439,0,0
287767,91.6752,-561.665,0,0
288027,91.2255,-560.806,0,0
288287,90.732,-559.919,0,0
288548,90.2918,-559.097,0,0
288808,89.8146,-558.131,0,0
289068,89.4117,-557.275,0,0
289329,88.9275,-556.371,0,0
289589,88.5285,-555.473,0,0
289849,88.0613,-554.604,0,0
290109,87.6009,-553.574,0,0
290370,87.1977,-552.772,0,0
290630,86.7473,-551.769,0,0
290890,86.4569,-550.808,0,0
291151,86.0607,-549.928,0,0
291411,85.6933,-549.075,0,0
291671,85.27,-548.195,0,0
291932,84.8747,-547.301,0,0
292192,84.4782,-546.375,0,0
292452,84.1727,-545.627,0,0
292713,83.7906,-544.782,0,0
292973,83.3779,-543.975,0,0
293233,82.9658,-543.071,0,0
293494,82.5322,-542.313,0,0
293754,82.0341,-541.487,0,0
294014,81.6342,-540.622,0,0
294275,81.1836,-539.795,0,0
294535,80.6696,-538.911,0,0
294795,80.2006,-538.018,0,0
295056,79.8541,-537.126,0,0
295316,79.2238,-536.146,0,0
295576,78.8503,-535.214,0,0
295837,78.3492,-534.243,0,0
296097,77.9831,-533.269,0,0
296357,77.5396,-532.278,0,0
296618,77.1644,-531.301,0,0
296878,76.727,-530.331,0,0
297138,76.4599,-529.296,0,0
297399,76.1628,-528.272,0,0
297659,75.8842,-527.226,0,0
297919,75.6411,-526.305,0,0
298180,75.4653,-525.248,0,0
298440,75.2477,-524.313,0,0
298700.2,75.0809,-523.452,0,0
298960.525,74.9673,-522.569,0,0
299220.85,74.7578,-521.726,0,0
299481.175,74.5923,-520.976,0,0
299741.5,74.3164,-520.116,0,0
300001.825,74.1129,-519.377,0,0
300262.15,73.9039,-518.645,0,0
300522.475,73.6381,-517.817,0,0
300782.8,73.3284,-517.043,0,0
301043.125,73.018,-516.231,0,0
301303.45,72.739,-515.486,0,0
301563.775,72.4997,-514.663,0,0
301824.1,72.1774,-513.825,0,0
302084.425,71.8529,-513.097,0,0
302344.75,71.5622,-512.283,0,0
302605.075,71.3013,-511.424,0,0
302865.4,71.0572,-510.623,0,0
303125.725,70.7313,-509.755,0,0
303386.05,70.4663,-508.904,0,0
303646.375,70.1732,-508.117,0,0
303906.7,69.9824,-507.21,0,0
304167.025,69.7688,-506.36,0,0
304427.35,69.5549,-505.557,0,0
304687.675,69.2942,-504.754,0,0
304948.0,69.1487,-503.893,0,0
305208.325,68.9607,-503.128,0,0
305468.65,68.7667,-502.332,0,0
305728.975,68.5985,-501.584,0,0
305989.3,68.3894,-500.817,0,0
306249.625,68.1702,-500.079,0,0
306509.95,67.968,-499.32,0,0
306770.275,67.7779,-498.595,0,0
307030.6,67.5901,-497.842,0,0
307290.925,67.3536,-497.149,0,0
307551.25,67.0346,-496.358,0,0
307811.575,66.851,-495.629,0,0
308071.9,66.6152,-494.854,0,0
308332.225,66.3482,-494.112,0,0
308592.55,66.1979,-493.388,0,0
308852.875,65.9408,-492.657,0,0
309113.2,65.7413,-491.91,0,0
309373.525,65.5154,-491.102,0,0
309633.85,65.3002,-490.311,0,0
309894.175,65.1139,-489.6,0,0
310154.5,64.9381,-488.864,0,0
310414.825,64.6577,-488.078,0,0
310675.15,64.4646,-487.375,0,0
310935.475,64.3291,-486.636,0,0
311195.8,64.188,-485.958,0,0
311456.125,63.8711,-485.236,0,0
311716.45,63.7055,-484.476,0,0
311976.775,63.521,-483.787,0,0
312237.1,63.3162,-483.09,0,0
312497.425,63.1343,-482.342,0,0
312757.75,62.9223,-481.673,0,0
313018.075,62.6951,-480.873,0,0
313278.4,62.5261,-480.182,0,0
313538.725,62.3383,-479.484,0,0
313799.05,62.0802,-478.747,0,0
314059.375,61.9163,-478.016,0,0
314319.7,61.725,-477.288,0,0
314580,61.5308,-476.595,0,0
314840,61.3258,-475.865,0,0
315101,61.1265,-475.147,0,0
315361,60.9454,-474.48,0,0
315621,60.8114,-473.76,0,0
315882,60.5413,-473.014,0,0
316142,60.4712,-472.27,0,0
316402,60.2242,-471.615,0,0
316663,60.0848,-470.89,0,0
316923,59.875,-470.167,0,0
317183,59.7386,-469.473,0,0
317444,59.5528,-468.743,0,0
317704,59.3678,-468.139,0,0
317964,59.1944,-467.361,0,0
318225,59.0459,-466.663,0,0
318485,58.8207,-466.001,0,0
318745,58.7114,-465.259,0,0
319006,58.5359,-464.55,0,0
319266,58.3843,-463.853,0,0
319526,58.2308,-463.152,0,0
319787,58.0541,-462.429,0,0
320047,57.8921,-461.716,0,0
320307,57.7675,-461.045,0,0
320567,57.6097,-460.313,0,0
320828,57.486,-459.654,0,0
321088,57.3075,-459.016,0,0
321348,57.1923,-458.307,0,0
321609,57.0171,-457.598,0,0
321869,56.9129,-456.923,0,0
322129,56.7894,-456.247,0,0
322390,56.6527,-455.555,0,0
322650,56.5137,-454.871,0,0
322910,56.4255,-454.253,0,0
323171,56.2536,-453.604,0,0
323431,56.1788,-452.929,0,0
323691,55.9956,-452.265,0,0
323952,55.8265,-451.606,0,0
324212,55.7446,-450.964,0,0
324472,55.6522,-450.311,0,0
324733,55.4915,-449.635,0,0
324993,55.3205,-449.041,0,0
325253,55.21,-448.362,0,0
325514,55.067,-447.741,0,0
325774,54.9152,-447.054,0,0
326034,54.7518,-446.397,0,0
326295,54.6346,-445.737,0,0
326555,54.5027,-445.108,0,0
326815,54.3397,-444.424,0,0
327076,54.1845,-443.804,0,0
327336,54.0543,-443.098,0,0
327596,53.9306,-442.448,0,0
327857,53.8371,-441.81,0,0
328117,53.7149,-441.152,0,0
328377,53.5787,-440.457,0,0
328638,53.437,-439.798,0,0
328898,53.3089,-439.101,0,0
329158,53.2191,-438.451,0,0
329419,53.1189,-437.808,0,0
329679,52.976,-437.145,0,0
329939,52.9205,-436.429,0,0
330200,52.8202,-435.823,0,0
330460,52.7449,-435.11,0,0
330720.15,52.6507,-434.459,0,0
330980.475,52.5389,-433.843,0,0
331240.8,52.5066,-433.188,0,0
331501.125,52.3981,-432.545,0,0
331761.45,52.322,-431.905,0,0
332021.775,52.2367,-431.266,0,0
332282.1,52.1779,-430.631,0,0
332542.425,52.1244,-430,0,0
332802.75,52.0079,-429.434,0,0
333063.075,51.9368,-428.718,0,0
333323.4,51.8431,-428.156,0,0
333583.725,51.787,-427.551,0,0
333844.05,51.692,-426.902,0,0
334104.375,51.5867,-426.303,0,0
334364.7,51.5444,-425.607,0,0
334625.025,51.4536,-425.011,0,0
334885.35,51.398,-424.379,0,0
335145.675,51.2736,-423.728,0,0
335406.0,51.2289,-423.157,0,0
335666.325,51.1657,-422.54,0,0
335926.65,51.0983,-421.945,0,0
336186.975,51.05,-421.344,0,0
336447.3,51.01,-420.722,0,0
336707.625,50.9009,-420.127,0,0
336967.95,50.8013,-419.493,0,0
337228.275,50.7703,-418.902,0,0
337488.6,50.7238,-418.296,0,0
337748.925,50.6442,-417.689,0,0
338009.25,50.601,-417.043,0,0
338269.575,50.5151,-416.471,0,0
338529.9,50.4598,-415.853,0,0
338790.225,50.41,-415.268,0,0
339050.55,50.301,-414.69,0,0
339310.875,50.2301,-414.077,0,0
339571.2,50.2148,-413.483,0,0
339831.525,50.1187,-412.807,0,0
340091.85,50.0577,-412.251,0,0
340352.175,50.057,-411.617,0,0
340612.5,49.9831,-411.012,0,0
340872.825,49.9222,-410.406,0,0
341133.15,49.9018,-409.781,0,0
341393.475,49.8632,-409.152,0,0
341653.8,49.8394,-408.564,0,0
341914.125,49.7817,-407.951,0,0
342174.45,49.7689,-407.357,0,0
342434.775,49.7975,-406.772,0,0
342695.1,49.7689,-406.192,0,0
342955.425,49.7642,-405.577,0,0
343215.75,49.7715,-405.028,0,0
343476.075,49.7625,-404.444,0,0
343736.4,49.7503,-403.893,0,0
343996.725,49.709,-403.349,0,0
344257.05,49.696,-402.756,0,0
344517.375,49.6595,-402.229,0,0
344777.7,49.6361,-401.637,0,0
345038.025,49.6037,-401.096,0,0
345298.35,49.5596,-400.532,0,0
345558.675,49.5297,-399.955,0,0
345819.0,49.5102,-399.387,0,0
346079.325,49.4947,-398.775,0,0
346339.65,49.4645,-398.22,0,0
346599.975,49.4596,-397.652,0,0
346860,49.4268,-397.05,0,0
347121,49.4433,-396.483,0,0
347381,49.4297,-395.924,0,0
347641,49.4579,-395.335,0,0
347902,49.4748,-394.76,0,0
348162,49.4461,-394.214,0,0
348422,49.4934,-393.67,0,0
348683,49.5012,-393.076,0,0
348943,49.5295,-392.57,0,0
349203,49.521,-392.016,0,0
349464,49.5743,-391.47,0,0
349724,49.6488,-390.976,0,0
349984,49.6362,-390.394,0,0
350245,49.6593,-389.881,0,0
350505,49.7102,-389.353,0,0
350765,49.7637,-388.84,0,0
351025,49.8002,-388.346,0,0
351286,49.7999,-387.839,0,0
351546,49.8277,-387.351,0,0
351806,49.871,-386.847,0,0
352067,49.8918,-386.324,0,0
352327,49.9003,-385.864,0,0
352587,49.9486,-385.336,0,0
352848,50.0014,-384.877,0,0
353108,49.9721,-384.414,0,0
353368,50.0163,-383.931,0,0
353629,50.0299,-383.478,0,0
353889,50.0645,-383.031,0,0
354149,50.0736,-382.553,0,0
354410,50.0954,-382.106,0,0
354670,50.0925,-381.669,0,0
354930,50.0857,-381.211,0,0
355191,50.0743,-380.793,0,0
355451,50.0737,-380.306,0,0
355711,50.0901,-379.84,0,0
355972,50.038,-379.39,0,0
356232,50.0344,-378.989,0,0
356492,49.984,-378.516,0,0
356753,49.9348,-378.08,0,0
357013,49.9371,-377.608,0,0
357273,49.8856,-377.176,0,0
357534,49.8549,-376.722,0,0
357794,49.8372,-376.256,0,0
358054,49.762,-375.778,0,0
358315,49.7456,-375.296,0,0
358575,49.6825,-374.842,0,0
358835,49.7014,-374.365,0,0
359096,49.6327,-373.887,0,0
359356,49.5793,-373.421,0,0
359616,49.5425,-372.956,0,0
359877,49.5211,-372.508,0,0
360137,49.5022,-372.01,0,0
360397,49.4533,-371.574,0,0
360658,49.4217,-371.108,0,0
360918,49.4013,-370.643,0,0
361178,49.3343,-370.145,0,0
361438,49.2773,-369.703,0,0
361699,49.2583,-369.18,0,0
361959,49.2536,-368.729,0,0
362219,49.1484,-368.217,0,0
362480,49.1747,-367.721,0,0
362740.1,49.1052,-367.264,0,0
363000.425,49.1164,-366.776,0,0
363260.75,49.0756,-366.278,0,0
363521.075,49.0581,-365.794,0,0
363781.4,49.016,-365.293,0,0
364041.725,48.9892,-364.799,0,0
364302.05,48.9788,-364.32,0,0
364562.375,48.9772,-363.844,0,0
364822.7,48.9459,-363.355,0,0
365083.025,48.927,-362.896,0,0
365343.35,48.9005,-362.38,0,0
365603.675,48.8991,-361.91,0,0
365864.0,48.8714,-361.434,0,0
366124.325,48.8785,-360.913,0,0
366384.65,48.889,-360.418,0,0
366644.975,48.8935,-359.934,0,0
366905.3,48.9144,-359.491,0,0
367165.625,48.8889,-359.014,0,0
367425.95,48.8902,-358.544,0,0
367686.275,48.8857,-358.06,0,0
367946.6,48.8614,-357.66,0,0
368206.925,48.8894,-357.162,0,0
368467.25,48.879,-356.715,0,0
368727.575,48.8661,-356.265,0,0
368987.9,48.8592,-355.784,0,0
369248.225,48.833,-355.321,0,0
369508.55,48.8189,-354.86,0,0
369768.875,48.8339,-354.381,0,0
370029.2,48.8255,-353.885,0,0
370289.525,48.8128,-353.407,0,0
370549.85,48.8229,-352.934,0,0
370810.175,48.8382,-352.446,0,0
371070.5,48.8302,-351.99,0,0
371330.825,48.8602,-351.488,0,0
371591.15,48.9054,-351.042,0,0
371851.475,48.9142,-350.609,0,0
372111.8,48.9443,-350.139,0,0
372372.125,48.9637,-349.688,0,0
372632.45,48.9964,-349.269,0,0
372892.775,49.0243,-348.829,0,0
373153.1,49.0578,-348.402,0,0
373413.425,49.0513,-348.006,0,0
373673.75,49.0618,-347.582,0,0
373934.075,49.1063,-347.201,0,0
374194.4,49.1043,-346.809,0,0
374454.725,49.061,-346.423,0,0
374715.05,49.0492,-346.038,0,0
374975.375,48.9881,-345.672,0,0
375235.7,48.9505,-345.233,0,0
375496.025,48.9041,-344.809,0,0
375756.35,48.8305,-344.406,0,0
376016.675,48.7822,-344.002,0,0
376277.0,48.6713,-343.558,0,0
376537.325,48.6085,-343.091,0,0
376797.65,48.5348,-342.655,0,0
377057.975,48.4534,-342.177,0,0
377318.3,48.434,-341.713,0,0
377578.625,48.3813,-341.244,0,0
377838.95,48.308,-340.77,0,0
378099.275,48.258,-340.299,0,0
378359.6,48.2161,-339.818,0,0
378619.925,48.1482,-339.351,0,0
378880,48.1097,-338.847,0,0
379141,48.0655,-338.375,0,0
379401,47.9912,-337.88,0,0
379661,47.9449,-337.428,0,0
379922,47.8964,-336.909,0,0
380182,47.8796,-336.402,0,0
380442,47.8211,-335.897,0,0
380703,47.8197,-335.403,0,0
380963,47.7751,-334.87,0,0
381223,47.7451,-334.338,0,0
381483,47.7543,-333.829,0,0
381744,47.7415,-333.32,0,0
382004,47.6855,-332.779,0,0
382264,47.7657,-332.247,0,0
382525,47.7934,-331.714,0,0
382785,47.8436,-331.236,0,0
383045,47.8994,-330.755,0,0
383306,47.9815,-330.236,0,0
383566,47.9984,-329.801,0,0
383826,48.0136,-329.388,0,0
384087,48.0248,-328.964,0,0
384347,48.0461,-328.493,0,0
384607,48.001,-328.087,0,0
384868,47.9844,-327.615,0,0
385128,47.9951,-327.115,0,0
385388,47.9431,-326.656,0,0
385649,47.9391,-326.143,0,0
385909,47.9001,-325.706,0,0
386169,47.9214,-325.233,0,0
386430,47.9183,-324.724,0,0
386690,47.8977,-324.247,0,0
386950,47.8705,-323.773,0,0
387211,47.8778,-323.261,0,0
387471,47.8749,-322.782,0,0
387731,47.8666,-322.284,0,0
387992,47.8774,-321.773,0,0
388252,47.8554,-321.274,0,0
388512,47.8589,-320.808,0,0
388773,47.8286,-320.288,0,0
389033,47.8453,-319.77,0,0
389293,47.8489,-319.286,0,0
389554,47.8735,-318.812,0,0
389814,47.8665,-318.269,0,0
390074,47.8715,-317.76,0,0
390335,47.9043,-317.245,0,0
390595,47.8865,-316.739,0,0
390855,47.8916,-316.242,0,0
391116,47.9302,-315.719,0,0
391376,47.9569,-315.228,0,0
391636,47.968,-314.728,0,0
391896,47.9763,-314.203,0,0
392157,47.9864,-313.693,0,0
392417,48.0329,-313.197,0,0
392677,48.0402,-312.678,0,0
392938,48.0516,-312.165,0,0
393198,48.0845,-311.64,0,0
393458,48.101,-311.126,0,0
393719,48.1323,-310.6,0,0
393979,48.1612,-310.108,0,0
394239,48.179,-309.564,0,0
394500,48.1984,-309.031,0,0
394760.05,48.2527,-308.521,0,0
395020.375,48.2895,-307.969,0,0
395280.7,48.3166,-307.478,0,0
395541.025,48.357,-306.954,0,0
395801.35,48.3638,-306.419,0,0
396061.675,48.4257,-305.91,0,0
396322.0,48.4608,-305.367,0,0
396582.325,48.52,-304.856,0,0
396842.65,48.5403,-304.314,0,0
397102.975,48.611,-303.776,0,0
397363.3,48.6435,-303.244,0,0
397623.625,48.6899,-302.712,0,0
397883.95,48.749,-302.168,0,0
398144.275,48.7722,-301.637,0,0
398404.6,48.8374,-301.111,0,0
398664.925,48.9017,-300.558,0,0
398925.25,48.9611,-300.029,0,0
399185.575,49.014,-299.513,0,0
399445.9,49.0804,-298.936,0,0
399706.225,49.1313,-298.384,0,0
399966.55,49.1972,-297.848,0,0
400006.6,49.2222,-297.769,0,0