File: Accelerated corrosion test data/2025-10-20_09-18-15/sample_7.csv
Frequency (Hz),Impedance (ohms),Phase (Radians),Temperature (C),Humidity (%)
10000.0,276.488,-12111.3,0,0
10260.325,277.303,-11820.6,0,0
10520.65,260.277,-11519.6,0,0
10780.975,254.291,-11237.8,0,0
11041.3,251.188,-10969.7,0,0
11301.625,248.595,-10713.1,0,0
11561.95,251.097,-10464.1,0,0
11822.275,259.514,-10235.5,0,0
12082.6,265.682,-10008.5,0,0
12342.925,329.43,-9831.53,0,0
12603.25,263.908,-9668.14,0,0
12863.575,272.295,-9466.56,0,0
13123.9,239.819,-9290.22,0,0
13384.225,234.162,-9115.96,0,0
13644.55,224.189,-8929.78,0,0
13904.875,209.583,-8767.71,0,0
14165.2,205.718,-8596.08,0,0
14425.525,207.987,-8456.75,0,0
14685.8,205.011,-8303.25,0,0
14946.175,199.707,-8155.7,0,0
15206.5,199.164,-8026.09,0,0
15466.825,185.531,-7884.43,0,0
15727.15,186.844,-7756,0,0
15987.5,181.293,-7627.75,0,0
16247.8,179.576,-7506.84,0,0
16508.125,172.256,-7385.47,0,0
16768.45,171.341,-7266.55,0,0
17028.775,170.983,-7155.9,0,0
17289.1,167.818,-7048.56,0,0
17549.425,167.261,-6939.02,0,0
17809.75,167.772,-6829.08,0,0
18070.075,169.687,-6732.25,0,0
18330.4,176.698,-6625.28,0,0
18590.725,195.659,-6535.64,0,0
18851.05,194.578,-6474.39,0,0
19111.375,182.868,-6389.56,0,0
19371.7,212.945,-6309.34,0,0
19632.025,173.819,-6248.25,0,0
19892.35,158.117,-6148.12,0,0
20152.675,170.804,-6064.15,0,0
20413.0,174.516,-5989.59,0,0
20673.3,172.074,-5911.48,0,0
20933.65,183.482,-5851.76,0,0
21193.975,163.575,-5794.05,0,0
21454.3,154.951,-5716.95,0,0
21714.625,158.618,-5652.87,0,0
21974.9,146.34,-5589.23,0,0
22235.275,140.643,-5519.21,0,0
22495.6,139.012,-5454.06,0,0
22755.925,133.793,-5390.66,0,0
23016.25,130.69,-5327.55,0,0
23276.6,128.261,-5264.52,0,0
23536.9,128.466,-5203.76,0,0
23797.225,127.61,-5148.2,0,0
24057.55,124.781,-5091.39,0,0
24317.875,122.545,-5033.78,0,0
24578.2,123.962,-4978.49,0,0
24838.525,122.432,-4924.79,0,0
25098.85,121.025,-4873.33,0,0
25359.175,119.595,-4820.59,0,0
25619.5,118.176,-4769.09,0,0
25879.8,119.487,-4718.81,0,0
26140.1,118.293,-4667.24,0,0
26400.5,124.32,-4619.85,0,0
26660.8,121.015,-4574.03,0,0
26921.1,120.657,-4523.6,0,0
27181.4,125.671,-4474.13,0,0
27441.8,129.717,-4428.95,0,0
27702.1,139.007,-4379.69,0,0
27962.4,151.941,-4333.23,0,0
28222.7,178.661,-4297.01,0,0
28483.1,195.832,-4283.36,0,0
28743.4,194.983,-4273.47,0,0
29003.7,178.347,-4261.06,0,0
29264,154.671,-4227.71,0,0
29524.4,141.915,-4188.16,0,0
29784.7,134.409,-4147.5,0,0
30045,127.596,-4104.94,0,0
30305.3,128.399,-4065.49,0,0
30565.7,129.565,-4029.31,0,0
30826,132.274,-3996.85,0,0
31086.3,132.121,-3965.75,0,0
31346.6,130.012,-3936.31,0,0
31607,131.58,-3910.05,0,0
31867.3,120.639,-3880.37,0,0
32127.6,119.016,-3847.54,0,0
32387.9,115.967,-3818.03,0,0
32648.3,111.66,-3788.53,0,0
32908.6,108.493,-3757.74,0,0
33168.9,105.173,-3727.96,0,0
33429.2,101.747,-3698.08,0,0
33689.6,98.905,-3667.85,0,0
33949.9,97.1842,-3638.31,0,0
34210.2,95.3218,-3609.41,0,0
34470.5,93.7448,-3580.66,0,0
34730.9,92.2952,-3552.58,0,0
34991.2,91.6892,-3525,0,0
35251.5,90.3435,-3498,0,0
35511.8,89.3328,-3470.72,0,0
35772.2,88.6975,-3443.98,0,0
36032.5,88.5773,-3418.08,0,0
36292.8,88.2057,-3393.28,0,0
36553.1,86.949,-3368.05,0,0
36813.5,86.3188,-3342.93,0,0
37073.8,86.2872,-3318.33,0,0
37334.1,86.1198,-3294.44,0,0
37594.4,85.991,-3271.01,0,0
37854.8,85.1333,-3247.19,0,0
38115.1,85.0767,-3223.05,0,0
38375.4,85.8231,-3199.89,0,0
38635.7,86.5668,-3176.7,0,0
38896.1,88.0492,-3153.58,0,0
39156.4,90.2067,-3132.12,0,0
39416.7,93.6463,-3110.16,0,0
39677,98.3601,-3091.75,0,0
39937.4,100.76,-3076.9,0,0
40197.7,99.9887,-3061.42,0,0
40458,97.716,-3046.74,0,0
40718.3,93.8771,-3029.22,0,0
40978.7,90.3132,-3010.08,0,0
41239,87.5241,-2991.16,0,0
41499.3,85.0777,-2971.44,0,0
41759.6,84.0264,-2951.99,0,0
42020,82.4624,-2933.53,0,0
42280.275,80.5812,-2914.21,0,0
42540.6,79.5652,-2894.47,0,0
42800.925,80.1757,-2875.76,0,0
43061.25,79.8517,-2857.6,0,0
43321.575,80.7256,-2840.7,0,0
43581.9,79.1421,-2823.33,0,0
43842.225,78.5592,-2804.91,0,0
44102.55,80.0448,-2786.86,0,0
44362.875,82.0046,-2770.75,0,0
44623.2,83.2454,-2755.96,0,0
44883.525,82.6439,-2743.13,0,0
45143.85,80.3254,-2727.52,0,0
45404.175,79.1563,-2711.82,0,0
45664.5,79.0588,-2694.7,0,0
45924.825,80.635,-2680.88,0,0
46185.15,79.8591,-2668.42,0,0
46445.475,77.5734,-2654.79,0,0
46705.8,74.6577,-2639.79,0,0
46966.125,72.4999,-2624.18,0,0
47226.45,71.3228,-2608.23,0,0
47486.775,70.7053,-2592.92,0,0
47747.1,70.1162,-2578.17,0,0
48007.425,70.1172,-2563.7,0,0
48267.75,69.9029,-2549.24,0,0
48528.075,69.1847,-2535.47,0,0
48788.4,68.6123,-2521.64,0,0
49048.725,67.8359,-2507.66,0,0
49309.05,67.464,-2494.04,0,0
49569.375,67.1115,-2480.28,0,0
49829.7,66.4168,-2466.85,0,0
50090.025,66.1811,-2453.39,0,0
50350.35,65.9337,-2440.44,0,0
50610.675,65.7722,-2427.32,0,0
50871.0,65.419,-2414.43,0,0
51131.325,64.9876,-2401.8,0,0
51391.65,64.6235,-2389.24,0,0
51651.975,64.3828,-2376.71,0,0
51912.3,64.0891,-2364.19,0,0
52172.625,63.9643,-2351.95,0,0
52432.95,63.8402,-2339.78,0,0
52693.275,63.6876,-2327.91,0,0
52953.6,63.651,-2315.97,0,0
53213.925,63.6058,-2304.64,0,0
53474.25,63.3179,-2293.24,0,0
53734.575,63.1177,-2282.05,0,0
53994.9,62.6989,-2270.83,0,0
54255.225,62.199,-2259.56,0,0
54515.55,61.8561,-2248.42,0,0
54775.875,61.5751,-2237.31,0,0
55036.2,61.4052,-2226.31,0,0
55296.525,61.1275,-2215.4,0,0
55556.85,60.802,-2204.62,0,0
55817.175,60.4952,-2193.99,0,0
56077.5,60.3385,-2183.2,0,0
56337.825,60.2082,-2172.49,0,0
56598.15,60.273,-2162.25,0,0
56858.475,59.9313,-2152,0,0
57118.8,59.8887,-2141.78,0,0
57379.125,59.7491,-2131.75,0,0
57639.45,59.5132,-2121.79,0,0
57899.775,59.2049,-2111.81,0,0
58160.1,59.1576,-2101.71,0,0
58420.4,59.44,-2091.77,0,0
58680.7,59.6977,-2082.36,0,0
58941.1,59.4863,-2073.19,0,0
59201.4,59.1363,-2063.79,0,0
59461.7,59.1344,-2054.15,0,0
59722,59.4469,-2045.02,0,0
59982.4,59.2423,-2036.32,0,0
60242.7,59.3763,-2027.19,0,0
60503,59.3533,-2018.82,0,0
60763.3,58.6978,-2010.16,0,0
61023.7,58.3286,-2001.47,0,0
61284,57.7999,-1992.49,0,0
61544.3,57.4829,-1983.92,0,0
61804.6,57.155,-1975.32,0,0
62065,56.6796,-1966.58,0,0
62325.3,56.3257,-1957.9,0,0
62585.6,56.1092,-1949.29,0,0
62845.9,55.8528,-1940.79,0,0
63106.3,55.7455,-1932.33,0,0
63366.6,55.3991,-1923.81,0,0
63626.9,55.4395,-1915.4,0,0
63887.2,55.2192,-1907.48,0,0
64147.6,54.9857,-1899.2,0,0
64407.9,54.957,-1891.12,0,0
64668.2,54.8021,-1883.06,0,0
64928.5,54.7529,-1875.12,0,0
65188.9,54.76,-1867.09,0,0
65449.2,54.8471,-1859.3,0,0
65709.5,54.8845,-1851.99,0,0
65969.8,54.7514,-1844.69,0,0
66230.2,54.5831,-1837.09,0,0
66490.5,54.3335,-1829.82,0,0
66750.8,53.9335,-1822.55,0,0
67011.1,53.5681,-1815.32,0,0
67271.5,52.9225,-1807.85,0,0
67531.8,52.7922,-1800.28,0,0
67792.1,52.5444,-1792.75,0,0
68052.4,52.2557,-1785.54,0,0
68312.8,51.9593,-1778.18,0,0
68573.1,51.947,-1770.89,0,0
68833.4,51.6877,-1763.84,0,0
69093.7,51.6147,-1756.66,0,0
69354.1,51.3999,-1749.63,0,0
69614.4,51.4004,-1742.59,0,0
69874.7,51.1715,-1735.75,0,0
70135,51.1822,-1728.92,0,0
70395.4,51.0824,-1721.84,0,0
70655.7,50.927,-1715.06,0,0
70916,51.0745,-1708.4,0,0
71176.3,51.019,-1701.88,0,0
71436.7,50.9543,-1695.57,0,0
71697,50.6921,-1688.93,0,0
71957.3,50.5026,-1682.43,0,0
72217.6,50.3535,-1676.08,0,0
72478,49.9794,-1669.55,0,0
72738.3,49.8365,-1663.27,0,0
72998.6,49.6248,-1656.83,0,0
73258.9,49.4874,-1650.37,0,0
73519.3,49.3766,-1644.12,0,0
73779.6,49.1698,-1637.79,0,0
74039.9,49.0392,-1631.6,0,0
74300.225,48.8922,-1625.33,0,0
74560.55,48.8616,-1619.13,0,0
74820.875,48.6935,-1613.04,0,0
75081.2,48.5961,-1606.92,0,0
75341.525,48.4951,-1600.93,0,0
75601.85,48.4135,-1594.93,0,0
75862.175,48.3218,-1588.93,0,0
76122.5,48.187,-1583.06,0,0
76382.825,48.0213,-1577.15,0,0
76643.15,47.9649,-1571.21,0,0
76903.475,47.8883,-1565.4,0,0
77163.8,47.8767,-1559.63,0,0
77424.125,47.7903,-1553.92,0,0
77684.45,47.7385,-1548.21,0,0
77944.775,47.7247,-1542.57,0,0
78205.1,47.6294,-1536.95,0,0
78465.425,47.5448,-1531.36,0,0
78725.75,47.4991,-1525.8,0,0
78986.075,47.4504,-1520.28,0,0
79246.4,47.3958,-1514.7,0,0
79506.725,47.4019,-1509.25,0,0
79767.05,47.4076,-1503.83,0,0
80027.375,47.402,-1498.51,0,0
80287.7,47.2981,-1493.2,0,0
80548.025,47.2002,-1487.9,0,0
80808.35,47.1844,-1482.67,0,0
81068.675,47.0502,-1477.47,0,0
81329.0,46.9494,-1472.13,0,0
81589.325,46.9183,-1466.97,0,0
81849.65,46.8468,-1461.78,0,0
82109.975,46.7212,-1456.57,0,0
82370.3,46.6695,-1451.43,0,0
82630.625,46.6609,-1446.25,0,0
82890.95,46.607,-1441.21,0,0
83151.275,46.5897,-1436.1,0,0
83411.6,46.5755,-1431.16,0,0
83671.925,46.5775,-1426.04,0,0
83932.25,46.5501,-1421.05,0,0
84192.575,46.6307,-1416.1,0,0
84452.9,46.6041,-1411.15,0,0
84713.225,46.7273,-1406.25,0,0
84973.55,46.7959,-1401.46,0,0
85233.875,46.8798,-1396.66,0,0
85494.2,46.8857,-1391.99,0,0
85754.525,46.8158,-1387.36,0,0
86014.85,46.806,-1382.53,0,0
86275.175,46.7993,-1377.8,0,0
86535.5,46.9043,-1373.18,0,0
86795.825,46.8596,-1368.66,0,0
87056.15,46.764,-1364,0,0
87316.475,46.9279,-1359.52,0,0
87576.8,46.9157,-1354.87,0,0
87837.125,46.9695,-1350.38,0,0
88097.45,46.9453,-1345.96,0,0
88357.775,46.8789,-1341.56,0,0
88618.1,46.7412,-1337.21,0,0
88878.425,46.6554,-1332.67,0,0
89138.75,46.456,-1328.27,0,0
89399.075,46.3227,-1323.66,0,0
89659.4,46.2864,-1319.13,0,0
89919.725,46.2474,-1314.7,0,0
90180,46.2467,-1310.25,0,0
90440.4,46.189,-1305.73,0,0
90700.7,46.3956,-1301.38,0,0
90961,46.4323,-1297.04,0,0
91221.3,46.4309,-1292.6,0,0
91481.7,46.426,-1288.26,0,0
91742,46.5189,-1283.91,0,0
92002.3,46.5548,-1279.67,0,0
92262.6,46.6492,-1275.33,0,0
92523,46.6736,-1271.02,0,0
92783.3,46.7107,-1266.63,0,0
93043.6,46.7327,-1262.28,0,0
93303.9,46.9581,-1257.68,0,0
93564.3,47.5035,-1253.14,0,0
93824.6,48.2897,-1248.8,0,0
94084.9,49.1639,-1244.81,0,0
94345.2,50.119,-1241.15,0,0
94605.6,50.9671,-1237.9,0,0
94865.9,51.1135,-1235.07,0,0
95126.2,50.8282,-1231.89,0,0
95386.5,50.5133,-1228.55,0,0
95646.9,49.9548,-1224.97,0,0
95907.2,49.4017,-1221.17,0,0
96167.5,49.0734,-1217.13,0,0
96427.8,48.8219,-1213.1,0,0
96688.2,48.6173,-1209.04,0,0
96948.5,48.591,-1204.88,0,0
97208.8,48.662,-1200.84,0,0
97469.1,48.7331,-1196.95,0,0
97729.5,48.8136,-1192.88,0,0
97989.8,49.1312,-1188.95,0,0
98250.1,49.4151,-1185.33,0,0
98510.4,49.5374,-1181.62,0,0
98770.8,49.5861,-1178.08,0,0
99031.1,49.6062,-1174.37,0,0
99291.4,49.5925,-1170.75,0,0
99551.7,49.4578,-1167.1,0,0
99812.1,49.2128,-1163.15,0,0
100072,49.2948,-1159.08,0,0
100333,49.5852,-1155.07,0,0
100593,49.9862,-1151.43,0,0
100853,50.1452,-1147.63,0,0
101114,50.4366,-1143.75,0,0
101374,50.9633,-1140.1,0,0
101634,51.2128,-1136.62,0,0
101895,51.4018,-1132.85,0,0
102155,51.9487,-1129.22,0,0
102415,52.3312,-1125.7,0,0
102676,52.8073,-1122.18,0,0
102936,53.2348,-1118.75,0,0
103196,53.7711,-1115.25,0,0
103457,54.4561,-1111.96,0,0
103717,55.1102,-1108.92,0,0
103977,55.5665,-1106.31,0,0
104238,55.2575,-1103.4,0,0
104498,55.3333,-1099.91,0,0
104758,55.7908,-1096.7,0,0
105019,56.1309,-1093.89,0,0
105279,56.0296,-1091.06,0,0
105539,55.822,-1088.02,0,0
105800,55.5899,-1084.8,0,0
106060,55.4299,-1081.51,0,0
106320.175,55.3807,-1077.99,0,0
106580.5,55.4432,-1074.62,0,0
106840.825,55.501,-1071.11,0,0
107101.15,55.8855,-1067.75,0,0
107361.475,56.0435,-1064.6,0,0
107621.8,56.1374,-1061.29,0,0
107882.125,56.301,-1058.05,0,0
108142.45,56.3434,-1054.63,0,0
108402.775,56.5751,-1051.25,0,0
108663.1,57.0261,-1047.94,0,0
108923.425,57.3029,-1044.88,0,0
109183.75,57.4081,-1041.7,0,0
109444.075,57.4966,-1038.4,0,0
109704.4,57.5546,-1035.1,0,0
109964.725,57.6749,-1031.61,0,0
110225.05,57.8652,-1028.05,0,0
110485.375,58.2709,-1024.42,0,0
110745.7,58.9328,-1020.73,0,0
111006.025,59.6544,-1017.33,0,0
111266.35,60.397,-1014.09,0,0
111526.675,60.9674,-1010.87,0,0
111787.0,61.5056,-1007.5,0,0
112047.325,62.3283,-1003.88,0,0
112307.65,63.3502,-1000.42,0,0
112567.975,64.6087,-997.218,0,0
112828.3,65.7907,-994.183,0,0
113088.625,67.1152,-991.23,0,0
113348.95,68.376,-988.568,0,0
113609.275,69.4214,-986.035,0,0
113869.6,70.2599,-983.278,0,0
114129.925,71.3376,-980.384,0,0
114390.25,72.5179,-977.59,0,0
114650.575,74.0007,-974.912,0,0
114910.9,75.4547,-972.522,0,0
115171.225,76.6792,-970.139,0,0
115431.55,78.023,-967.781,0,0
115691.875,79.5263,-965.254,0,0
115952.2,81.4492,-963.162,0,0
116212.525,83.206,-961.435,0,0
116472.85,84.9476,-959.953,0,0
116733.175,86.6582,-958.807,0,0
116993.5,88.0912,-957.982,0,0
117253.825,89.1353,-957.275,0,0
117514.15,89.948,-956.5,0,0
117774.475,90.8339,-955.792,0,0
118034.8,91.2731,-955.258,0,0
118295.125,91.5075,-954.251,0,0
118555.45,92.3524,-953.295,0,0
118815.775,93.2324,-953,0,0
119076.1,93.6143,-953.069,0,0
119336.425,93.7253,-953.28,0,0
119596.75,93.3676,-953.836,0,0
119857.075,92.2899,-954.31,0,0
120117.4,90.6093,-954.411,0,0
120377.725,88.9333,-954.118,0,0
120638.05,86.7768,-953.936,0,0
120898.375,84.0533,-953.17,0,0
121158.7,81.0984,-951.606,0,0
121419.025,78.5059,-949.219,0,0
121679.35,76.5633,-946.555,0,0
121939.675,74.9623,-944.117,0,0
122200.0,73.3475,-941.774,0,0
122460,71.5235,-939.242,0,0
122721,70.0038,-936.416,0,0
122981,68.6136,-933.754,0,0
123241,67.1409,-930.953,0,0
123502,65.8023,-927.971,0,0
123762,64.6853,-924.864,0,0
124022,63.8282,-921.75,0,0
124283,63.1989,-918.797,0,0
124543,62.5604,-916.131,0,0
124803,61.7377,-913.429,0,0
125064,61.0329,-910.776,0,0
125324,60.1352,-908.203,0,0
125584,59.0697,-905.459,0,0
125845,58.1625,-902.445,0,0
126105,57.4003,-899.53,0,0
126365,56.6416,-896.655,0,0
126626,55.777,-893.656,0,0
126886,55.1468,-890.623,0,0
127146,54.4237,-887.551,0,0
127406,53.7561,-884.429,0,0
127667,53.3206,-881.132,0,0
127927,53.0834,-877.992,0,0
128187,52.9335,-875.028,0,0
128448,52.6915,-872.22,0,0
128708,52.2763,-869.404,0,0
128968,51.8207,-866.445,0,0
129229,51.5228,-863.415,0,0
129489,51.3387,-860.485,0,0
129749,51.0541,-857.659,0,0
130010,50.6952,-854.705,0,0
130270,50.5364,-851.645,0,0
130530,50.5246,-848.709,0,0
130791,50.3873,-846.08,0,0
131051,49.9926,-843.356,0,0
131311,49.5266,-840.453,0,0
131572,49.1357,-837.333,0,0
131832,48.9508,-834.137,0,0
132092,48.8483,-831.019,0,0
132353,48.7851,-827.941,0,0
132613,48.727,-824.857,0,0
132873,48.737,-821.649,0,0
133134,48.8353,-818.463,0,0
133394,49.0299,-815.29,0,0
133654,49.3006,-812.132,0,0
133915,49.6563,-808.939,0,0
134175,50.2005,-805.786,0,0
134435,50.9459,-802.846,0,0
134696,51.685,-800.022,0,0
134956,52.3325,-797.352,0,0
135216,53.0142,-794.639,0,0
135477,53.8101,-792,0,0
135737,54.7429,-789.524,0,0
135997,55.7562,-787.331,0,0
136258,56.5958,-785.569,0,0
136518,57.1515,-783.913,0,0
136778,57.5271,-782.361,0,0
137039,57.4927,-781.009,0,0
137299,56.989,-779.431,0,0
137559,56.2949,-777.383,0,0
137819,55.7266,-775.073,0,0
138080,55.2491,-772.694,0,0
138340.125,54.6924,-770.209,0,0
138600.45,54.2329,-767.541,0,0
138860.775,53.8319,-764.763,0,0
139121.1,53.5583,-761.831,0,0
139381.425,53.5239,-758.984,0,0
139641.75,53.4412,-756.172,0,0
139902.075,53.4965,-753.303,0,0
140162.4,53.6653,-750.5,0,0
140422.725,53.7687,-747.911,0,0
140683.05,53.8031,-745.265,0,0
140943.375,53.796,-742.589,0,0
141203.7,53.7603,-739.861,0,0
141464.025,53.7034,-737.035,0,0
141724.35,53.7199,-734.108,0,0
141984.675,53.9079,-731.097,0,0
142245.0,54.2573,-728.235,0,0
142505.325,54.4786,-725.41,0,0
142765.65,54.7006,-722.488,0,0
143025.975,55.1204,-719.528,0,0
143286.3,55.7047,-716.644,0,0
143546.625,56.2913,-713.956,0,0
143806.95,56.8579,-711.253,0,0
144067.275,57.4885,-708.66,0,0
144327.6,58.0858,-706.229,0,0
144587.925,58.605,-703.828,0,0
144848.25,59.0383,-701.499,0,0
145108.575,59.4132,-699.2,0,0
145368.9,59.6097,-696.973,0,0
145629.225,59.5972,-694.556,0,0
145889.55,59.6614,-691.927,0,0
146149.875,59.7991,-689.24,0,0
146410.2,60.0505,-686.469,0,0
146670.525,60.4583,-683.775,0,0
146930.85,60.8258,-681.178,0,0
147191.175,61.2453,-678.6,0,0
147451.5,61.6074,-676.213,0,0
147711.825,61.7074,-673.713,0,0
147972.15,61.941,-671.035,0,0
148232.475,62.2967,-668.541,0,0
148492.8,62.4322,-666.114,0,0
148753.125,62.4512,-663.613,0,0
149013.45,62.3917,-660.982,0,0
149273.775,62.2926,-658.268,0,0
149534.1,62.1789,-655.401,0,0
149794.425,62.1689,-652.437,0,0
150054.75,62.0974,-649.415,0,0
150315.075,62.0386,-646.281,0,0
150575.4,62.0762,-643.037,0,0
150835.725,62.1483,-639.677,0,0
151096.05,62.2822,-636.265,0,0
151356.375,62.5611,-632.713,0,0
151616.7,62.9839,-629.173,0,0
151877.025,63.4487,-625.611,0,0
152137.35,64.0006,-622.005,0,0
152397.675,64.6225,-618.392,0,0
152658.0,65.3301,-614.732,0,0
152918.325,66.1368,-611.07,0,0
153178.65,67.0503,-607.372,0,0
153438.975,68.063,-603.719,0,0
153699.3,69.1221,-600.163,0,0
153959.625,70.1479,-596.525,0,0
154219.95,71.2579,-592.785,0,0
154480,72.4972,-589.032,0,0
154741,73.8433,-585.279,0,0
155001,75.2783,-581.475,0,0
155261,76.8837,-577.667,0,0
155522,78.6379,-573.935,0,0
155782,80.5019,-570.262,0,0
156042,82.4939,-566.638,0,0
156303,84.558,-563.136,0,0
156563,86.6544,-559.657,0,0
156823,88.853,-556.212,0,0
157084,91.1545,-552.817,0,0
157344,93.6356,-549.475,0,0
157604,96.3184,-546.264,0,0
157864,99.1275,-543.377,0,0
158125,101.909,-540.817,0,0
158385,104.561,-538.46,0,0
158645,107.127,-536.292,0,0
158906,109.541,-534.34,0,0
159166,111.671,-532.596,0,0
159426,113.467,-531.013,0,0
159687,114.706,-529.375,0,0
159947,115.608,-527.407,0,0
160207,116.217,-525.056,0,0
160468,116.744,-522.248,0,0
160728,117.334,-518.961,0,0
160988,118.193,-515.568,0,0
161249,118.769,-511.883,0,0
161509,119.462,-507.545,0,0
161769,120.581,-502.592,0,0
162030,122.415,-497.452,0,0
162290,124.772,-492.342,0,0
162550,127.583,-487.417,0,0
162811,130.432,-482.771,0,0
163071,133.202,-477.879,0,0
163331,136.344,-472.569,0,0
163592,140.239,-467.224,0,0
163852,144.747,-462.222,0,0
164112,149.356,-457.705,0,0
164373,153.951,-453.305,0,0
164633,158.711,-448.91,0,0
164893,163.667,-444.808,0,0
165154,168.346,-440.912,0,0
165414,172.676,-436.441,0,0
165674,177.5,-431.24,0,0
165935,183.1,-425.777,0,0
166195,189.44,-420.152,0,0
166455,196.781,-414.444,0,0
166716,205.018,-409.238,0,0
166976,213.869,-404.54,0,0
167236,223.148,-400.044,0,0
167497,233.499,-395.743,0,0
167757,244.838,-392.386,0,0
168017,256.788,-390.198,0,0
168277,269.033,-388.839,0,0
168538,281.752,-388.318,0,0
168798,294.812,-389.025,0,0
169058,308.178,-390.826,0,0
169319,321.793,-394.204,0,0
169579,334.817,-399.296,0,0
169839,346.633,-404.982,0,0
170100,358.342,-410.897,0,0
170360.075,370.344,-417.453,0,0
170620.4,382.799,-425.442,0,0
170880.725,394.649,-435.809,0,0
171141.05,404.848,-447.473,0,0
171401.375,413.697,-459.883,0,0
171661.7,421.245,-472.929,0,0
171922.025,427.723,-486.241,0,0
172182.35,433.544,-500.335,0,0
172442.675,438.181,-515.678,0,0
172703.0,440.563,-532.027,0,0
172963.325,440.757,-548.3,0,0
173223.65,438.918,-564.273,0,0
173483.975,435.535,-579.638,0,0
173744.3,430.246,-595.263,0,0
174004.625,421.546,-609.898,0,0
174264.95,410.599,-621.394,0,0
174525.275,399.113,-629.972,0,0
174785.6,387.925,-636.297,0,0
175045.925,376.36,-640.695,0,0
175306.25,365.754,-642.295,0,0
175566.575,356.819,-643.049,0,0
175826.9,347.598,-642.682,0,0
176087.225,340.07,-639.366,0,0
176347.55,336.037,-635.707,0,0
176607.875,333.652,-633.588,0,0
176868.2,331.481,-631.851,0,0
177128.525,330.506,-629.866,0,0
177388.85,331.121,-628.886,0,0
177649.175,331.708,-629.325,0,0
177909.5,332.427,-629.405,0,0
178169.825,335.175,-629.844,0,0
178430.15,339.837,-633.037,0,0
178690.475,343.884,-640.37,0,0
178950.8,344.561,-650.345,0,0
179211.125,341.579,-660.528,0,0
179471.45,335.943,-669.372,0,0
179731.775,328.902,-676.221,0,0
179992.1,321.589,-681.724,0,0
180252.425,313.865,-685.995,0,0
180512.75,306.303,-688.9,0,0
180773.075,299.596,-691.21,0,0
181033.4,293.366,-694.007,0,0
181293.725,286.366,-697.462,0,0
181554.05,277.737,-700.229,0,0
181814.375,268.921,-701.125,0,0
182074.7,260.987,-701.443,0,0
182335.025,253.028,-702.095,0,0
182595.35,243.899,-702.325,0,0
182855.675,234.235,-700.989,0,0
183116.0,224.85,-698.009,0,0
183376.325,216.649,-693.675,0,0
183636.65,209.751,-689.101,0,0
183896.975,203.514,-684.677,0,0
184157.3,197.617,-680.232,0,0
184417.625,191.887,-675.471,0,0
184677.95,186.746,-670.156,0,0
184938.275,182.672,-664.794,0,0
185198.6,179.23,-660.146,0,0
185458.925,175.678,-656.047,0,0
185719.25,171.553,-652.191,0,0
185979.575,166.921,-647.474,0,0
186239.9,162.934,-641.797,0,0
186500,159.887,-636.073,0,0
186761,157.276,-630.622,0,0
187021,154.759,-625.235,0,0
187281,152.441,-619.502,0,0
187542,150.972,-613.506,0,0
187802,150.382,-607.998,0,0
188062,150.139,-603.26,0,0
188322,149.741,-599.231,0,0
188583,149.092,-595.421,0,0
188843,148.304,-591.993,0,0
189103,146.863,-588.664,0,0
189364,145.082,-584.816,0,0
189624,143.543,-580.625,0,0
189884,142.138,-576.418,0,0
190145,140.628,-572.081,0,0
190405,139.346,-567.472,0,0
190665,138.176,-562.916,0,0
190926,136.885,-558.151,0,0
191186,135.779,-552.877,0,0
191446,135.354,-547.344,0,0
191707,135.526,-542.168,0,0
191967,135.756,-537.462,0,0
192227,135.732,-532.894,0,0
192488,135.604,-528.064,0,0
192748,135.688,-523.026,0,0
193008,136.01,-517.872,0,0
193269,136.679,-512.689,0,0
193529,137.615,-507.721,0,0
193789,138.559,-502.769,0,0
194050,139.776,-497.817,0,0
194310,141.137,-492.981,0,0
194570,142.611,-488.191,0,0
194831,144.298,-483.408,0,0
195091,146.282,-478.735,0,0
195351,148.457,-474.336,0,0
195612,150.644,-470.245,0,0
195872,152.697,-466.189,0,0
196132,154.869,-462.068,0,0
196393,157.336,-458.191,0,0
196653,159.742,-454.608,0,0
196913,162.102,-450.942,0,0
197174,164.558,-447.469,0,0
197434,167.078,-444.28,0,0
197694,169.332,-441.394,0,0
197955,171.283,-438.533,0,0
198215,172.925,-435.44,0,0
198475,174.617,-432.063,0,0
198735,176.414,-428.672,0,0
198996,178.179,-425.221,0,0
199256,179.893,-421.729,0,0
199516,181.567,-418.03,0,0
199777,183.054,-414.019,0,0
200037,184.901,-409.595,0,0
200297,187.17,-405.058,0,0
200558,189.652,-400.536,0,0
200818,192.412,-396,0,0
201078,195.308,-391.591,0,0
201339,198.152,-387.041,0,0
201599,201.166,-382.2,0,0
201859,204.585,-377.21,0,0
202120,208.556,-372.104,0,0
202380.025,212.969,-367.144,0,0
202640.35,217.828,-362.493,0,0
202900.675,222.76,-358.108,0,0
203161.0,227.85,-353.781,0,0
203421.325,233.194,-349.7,0,0
203681.65,238.687,-345.712,0,0
203941.975,244.296,-341.8,0,0
204202.3,250.239,-337.93,0,0
204462.625,256.465,-334.236,0,0
204722.95,262.911,-330.76,0,0
204983.275,269.377,-327.366,0,0
205243.6,276.26,-323.752,0,0
205503.925,284.077,-320.129,0,0
205764.25,292.717,-317.48,0,0
206024.575,301.438,-315.949,0,0
206284.9,309.972,-315.042,0,0
206545.225,318.396,-314.782,0,0
206805.55,326.513,-315.241,0,0
207065.875,333.925,-316.255,0,0
207326.2,340.5,-317.149,0,0
207586.525,346.838,-317.808,0,0
207846.85,352.654,-318.36,0,0
208107.175,358.022,-318.088,0,0
208367.5,363.898,-316.699,0,0
208627.825,370.84,-314.908,0,0
208888.15,378.683,-313.062,0,0
209148.475,387.512,-311.312,0,0
209408.8,397.629,-309.884,0,0
209669.125,408.823,-309.427,0,0
209929.45,420.998,-310.127,0,0
210189.775,433.879,-312.361,0,0
210450.1,447.026,-316.406,0,0
210710.425,459.937,-322.6,0,0
210970.75,471.62,-330.661,0,0
211231.075,481.616,-339.575,0,0
211491.4,490.473,-349.136,0,0
211751.725,498.039,-358.786,0,0
212012.05,504.842,-368.465,0,0
212272.375,510.861,-378.483,0,0
212532.7,515.625,-388.548,0,0
212793.025,519.595,-398.078,0,0
213053.35,523.235,-407.279,0,0
213313.675,526.361,-416.236,0,0
213574.0,529.273,-424.807,0,0
213834.325,532.351,-433.191,0,0
214094.65,535.718,-441.85,0,0
214354.975,538.953,-451.32,0,0
214615.3,541.273,-461.735,0,0
214875.625,542.149,-472.105,0,0
215135.95,542.1,-481.802,0,0
215396.275,541.826,-490.979,0,0
215656.6,541.266,-499.717,0,0
215916.925,540.652,-508.18,0,0
216177.25,540.204,-516.477,0,0
216437.575,540.057,-525.116,0,0
216697.9,539.625,-534.621,0,0
216958.225,538.194,-544.922,0,0
217218.55,535.321,-555.359,0,0
217478.875,531.178,-565.269,0,0
217739.2,526.088,-574.342,0,0
217999.525,520.698,-582.593,0,0
218259.85,515.093,-590.431,0,0
218520,509.031,-598.178,0,0
218780,502.124,-605.697,0,0
219041,494.034,-612.603,0,0
219301,484.768,-618.172,0,0
219561,475.069,-621.968,0,0
219822,465.715,-624.016,0,0
220082,456.808,-624.799,0,0
220342,448.639,-624.315,0,0
220603,441.637,-623.012,0,0
220863,435.651,-621.353,0,0
221123,430.404,-619.715,0,0
221384,425.722,-617.763,0,0
221644,421.589,-615.665,0,0
221904,418.039,-613.429,0,0
222165,415.065,-611.091,0,0
222425,412.827,-608.755,0,0
222685,411.279,-606.552,0,0
222946,410.215,-605.04,0,0
223206,409.266,-603.91,0,0
223466,408.281,-602.869,0,0
223727,407.341,-602.005,0,0
223987,406.582,-601.209,0,0
224247,405.831,-600.602,0,0
224508,405.07,-600.029,0,0
224768,404.222,-599.386,0,0
225028,403.345,-598.517,0,0
225289,402.713,-597.29,0,0
225549,402.554,-595.536,0,0
225809,403.376,-593.828,0,0
226070,404.891,-592.634,0,0
226330,406.805,-591.984,0,0
226590,408.966,-591.906,0,0
226851,411.105,-592.494,0,0
227111,413.178,-593.39,0,0
227371,415.256,-594.497,0,0
227632,417.358,-596.011,0,0
227892,419.437,-597.759,0,0
228152,421.672,-599.87,0,0
228413,423.74,-602.396,0,0
228673,425.849,-605.317,0,0
228933,427.913,-608.723,0,0
229193,429.696,-612.806,0,0
229454,430.784,-617.378,0,0
229714,431.12,-621.755,0,0
229974,431.366,-625.724,0,0
230235,432.083,-629.73,0,0
230495,433.076,-634.512,0,0
230755,433.555,-640.43,0,0
231016,432.633,-646.686,0,0
231276,430.761,-652.402,0,0
231536,428.845,-657.538,0,0
231797,426.776,-662.574,0,0
232057,424.705,-667.586,0,0
232317,422.773,-672.573,0,0
232578,420.814,-678.261,0,0
232838,418.195,-684.676,0,0
233098,414.612,-691.208,0,0
233359,410.223,-697.768,0,0
233619,405.064,-704.429,0,0
233879,398.58,-711.099,0,0
234140,390.443,-716.939,0,0
234400,381.467,-721.234,0,0
234660.3,372.366,-724.073,0,0
234920.625,363.356,-725.924,0,0
235180.95,354.236,-726.823,0,0
235441.275,345.237,-726.514,0,0
235701.6,336.977,-724.932,0,0
235961.925,329.646,-722.716,0,0
236222.25,323.231,-720.223,0,0
236482.575,317.453,-717.797,0,0
236742.9,312.189,-715.203,0,0
237003.225,307.635,-712.874,0,0
237263.55,303.202,-711.276,0,0
237523.875,298.189,-709.839,0,0
237784.2,292.779,-707.939,0,0
238044.525,287.274,-705.421,0,0
238304.85,281.921,-702.155,0,0
238565.175,277.015,-698.261,0,0
238825.5,272.735,-693.717,0,0
239085.825,269.577,-688.839,0,0
239346.15,267.383,-684.027,0,0
239606.475,266.061,-679.604,0,0
239866.8,265.423,-675.767,0,0
240127.125,265.383,-672.686,0,0
240387.45,265.663,-670.691,0,0
240647.775,265.626,-669.861,0,0
240908.1,264.546,-669.76,0,0
241168.425,262.445,-669.395,0,0
241428.75,260.025,-668.674,0,0
241689.075,257.477,-667.688,0,0
241949.4,254.72,-666.721,0,0
242209.725,251.434,-665.747,0,0
242470.05,247.371,-664.032,0,0
242730.375,243.319,-661.004,0,0
242990.7,240.038,-657.071,0,0
243251.025,237.772,-652.932,0,0
243511.35,236.042,-649.059,0,0
243771.675,234.547,-645.155,0,0
244032.0,233.353,-641.097,0,0
244292.325,232.866,-636.822,0,0
244552.65,233.172,-632.707,0,0
244812.975,234.162,-629.313,0,0
245073.3,235.513,-626.694,0,0
245333.625,236.76,-624.906,0,0
245593.95,237.72,-623.789,0,0
245854.275,238.032,-623.127,0,0
246114.6,237.728,-622.442,0,0
246374.925,237.03,-621.572,0,0
246635.25,236.2,-620.429,0,0
246895.575,235.313,-619.194,0,0
247155.9,234.195,-617.848,0,0
247416.225,232.902,-616.184,0,0
247676.55,231.668,-614.186,0,0
247936.875,230.623,-611.912,0,0
248197.2,229.831,-609.522,0,0
248457.525,229.179,-607.015,0,0
248717.85,228.726,-604.509,0,0
248978.175,228.363,-601.945,0,0
249238.5,228.166,-599.359,0,0
249498.825,228.078,-596.613,0,0
249759.15,228.303,-593.846,0,0
250019.475,228.744,-591.026,0,0
250279.8,229.384,-588.308,0,0
250540,230.261,-585.587,0,0
250800,231.336,-582.989,0,0
251061,232.618,-580.403,0,0
251321,234.195,-577.834,0,0
251581,236.003,-575.511,0,0
251842,238.112,-573.353,0,0
252102,240.441,-571.389,0,0
252362,243.017,-569.716,0,0
252623,245.788,-568.373,0,0
252883,248.672,-567.386,0,0
253143,251.747,-566.806,0,0
253404,254.883,-566.751,0,0
253664,257.892,-567.264,0,0
253924,260.66,-568.166,0,0
254185,263.202,-569.505,0,0
254445,265.32,-571.164,0,0
254705,267.064,-572.989,0,0
254966,268.399,-574.981,0,0
255226,269.457,-577.026,0,0
255486,270.164,-579.132,0,0
255747,270.466,-581.297,0,0
256007,270.421,-583.414,0,0
256267,269.988,-585.314,0,0
256528,269.361,-587.009,0,0
256788,268.575,-588.532,0,0
257048,267.583,-589.962,0,0
257309,266.296,-591.138,0,0
257569,264.864,-591.938,0,0
257829,263.511,-592.398,0,0
258090,262.27,-592.597,0,0
258350,261.106,-592.608,0,0
258610,260.139,-592.383,0,0
258871,259.642,-592.098,0,0
259131,259.328,-592.078,0,0
259391,258.917,-592.419,0,0
259651,258.269,-592.873,0,0
259912,257.301,-593.303,0,0
260172,256.104,-593.417,0,0
260432,254.932,-593.217,0,0
260693,253.822,-592.801,0,0
260953,252.859,-592.228,0,0
261213,251.982,-591.543,0,0
261474,251.183,-590.703,0,0
261734,250.569,-589.708,0,0
261994,250.091,-588.62,0,0
262255,249.846,-587.307,0,0
262515,249.967,-585.876,0,0
262775,250.566,-584.444,0,0
263036,251.658,-583.25,0,0
263296,253.104,-582.437,0,0
263556,254.76,-582.183,0,0
263817,256.408,-582.415,0,0
264077,257.946,-583.06,0,0
264337,259.245,-584.133,0,0
264598,260.202,-585.522,0,0
264858,260.65,-587.033,0,0
265118,260.739,-588.423,0,0
265379,260.741,-589.542,0,0
265639,260.731,-590.569,0,0
265899,260.738,-591.62,0,0
266160,260.656,-592.702,0,0
266420,260.637,-593.81,0,0
266680.25,260.599,-594.991,0,0
266940.575,260.459,-596.316,0,0
267200.9,260.22,-597.733,0,0
267461.225,259.836,-599.277,0,0
267721.55,259.21,-600.886,0,0
267981.875,258.298,-602.573,0,0
268242.2,256.958,-604.197,0,0
268502.525,255.282,-605.499,0,0
268762.85,253.391,-606.378,0,0
269023.175,251.539,-606.776,0,0
269283.5,249.885,-606.8,0,0
269543.825,248.463,-606.6,0,0
269804.15,247.277,-606.211,0,0
270064.475,246.374,-605.651,0,0
270324.8,245.811,-604.981,0,0
270585.125,245.6,-604.208,0,0
270845.45,245.985,-603.546,0,0
271105.775,246.823,-603.155,0,0
271366.1,248.076,-603.126,0,0
271626.425,249.605,-603.537,0,0
271886.75,251.498,-604.545,0,0
272147.075,253.633,-606.291,0,0
272407.4,255.82,-609.027,0,0
272667.725,257.619,-612.83,0,0
272928.05,258.627,-617.543,0,0
273188.375,258.689,-622.867,0,0
273448.7,257.667,-628.588,0,0
273709.025,255.49,-634.358,0,0
273969.35,252.259,-639.849,0,0
274229.675,248.022,-644.976,0,0
274490.0,243.023,-649.479,0,0
274750.325,237.575,-653.25,0,0
275010.65,231.759,-656.593,0,0
275270.975,225.31,-659.605,0,0
275531.3,218.209,-661.774,0,0
275791.625,210.707,-662.94,0,0
276051.95,203.171,-663.082,0,0
276312.275,195.736,-662.265,0,0
276572.6,188.636,-660.688,0,0
276832.925,181.835,-658.504,0,0
277093.25,175.325,-655.674,0,0
277353.575,169.176,-652.21,0,0
277613.9,163.59,-648.142,0,0
277874.225,158.652,-643.606,0,0
278134.55,154.399,-638.848,0,0
278394.875,150.788,-633.992,0,0
278655.2,147.776,-629.094,0,0
278915.525,145.291,-624.236,0,0
279175.85,143.249,-619.561,0,0
279436.175,141.559,-615.02,0,0
279696.5,140.139,-610.582,0,0
279956.825,139.102,-606.278,0,0
280217.15,138.369,-602.099,0,0
280477.475,137.889,-598.088,0,0
280737.8,137.784,-594.344,0,0
280998.125,137.894,-590.944,0,0
281258.45,138.053,-587.99,0,0
281518.775,138.126,-585.424,0,0
281779.1,137.903,-583.04,0,0
282039.425,137.425,-580.679,0,0
282299.75,136.825,-578.216,0,0
282560,136.138,-575.642,0,0
282820,135.441,-572.885,0,0
283081,134.752,-569.95,0,0
283341,134.235,-566.784,0,0
283601,133.919,-563.479,0,0
283862,133.886,-560.109,0,0
284122,134.183,-556.68,0,0
284382,134.756,-553.342,0,0
284643,135.637,-550.155,0,0
284903,136.679,-547.104,0,0
285163,137.939,-544.229,0,0
285424,139.431,-541.603,0,0
285684,141.047,-539.309,0,0
285944,142.688,-537.316,0,0
286205,144.284,-535.563,0,0
286465,145.822,-533.981,0,0
286725,147.359,-532.617,0,0
286986,148.807,-531.501,0,0
287246,150.107,-530.616,0,0
287506,151.174,-529.905,0,0
287767,151.977,-529.302,0,0
288027,152.463,-528.659,0,0
288287,152.72,-527.911,0,0
288548,152.808,-526.931,0,0
288808,152.85,-525.78,0,0
289068,152.86,-524.408,0,0
289329,152.921,-522.878,0,0
289589,153.088,-521.168,0,0
289849,153.378,-519.377,0,0
290109,153.746,-517.494,0,0
290370,154.285,-515.466,0,0
290630,155.007,-513.379,0,0
290890,156.006,-511.298,0,0
291151,157.214,-509.315,0,0
291411,158.564,-507.503,0,0
291671,159.994,-505.882,0,0
291932,161.407,-504.395,0,0
292192,162.763,-502.987,0,0
292452,164.092,-501.572,0,0
292713,165.491,-500.092,0,0
292973,166.996,-498.613,0,0
293233,168.626,-497.255,0,0
293494,170.286,-495.997,0,0
293754,171.968,-494.805,0,0
294014,173.631,-493.659,0,0
294275,175.343,-492.548,0,0
294535,177.055,-491.457,0,0
294795,178.784,-490.343,0,0
295056,180.594,-489.17,0,0
295316,182.578,-488.015,0,0
295576,184.7,-486.911,0,0
295837,186.983,-485.916,0,0
296097,189.34,-485.035,0,0
296357,191.775,-484.274,0,0
296618,194.293,-483.561,0,0
296878,196.92,-482.979,0,0
297138,199.632,-482.519,0,0
297399,202.467,-482.174,0,0
297659,205.367,-481.998,0,0
297919,208.352,-481.997,0,0
298180,211.373,-482.171,0,0
298440,214.443,-482.508,0,0
298700.2,217.44,-482.947,0,0
298960.525,220.623,-483.645,0,0
299220.85,223.781,-484.383,0,0
299481.175,226.978,-485.269,0,0
299741.5,230.378,-486.367,0,0
300001.825,233.864,-487.603,0,0
300262.15,237.491,-489.299,0,0
300522.475,240.979,-491.17,0,0
300782.8,244.65,-493.33,0,0
301043.125,248.299,-495.843,0,0
301303.45,252.02,-498.681,0,0
301563.775,255.817,-501.958,0,0
301824.1,259.536,-505.822,0,0
302084.425,263.143,-510.312,0,0
302344.75,266.562,-515.493,0,0
302605.075,269.375,-521.318,0,0
302865.4,271.556,-527.794,0,0
303125.725,272.81,-534.739,0,0
303386.05,273.08,-541.836,0,0
303646.375,272.377,-548.825,0,0
303906.7,270.853,-555.505,0,0
304167.025,268.636,-561.784,0,0
304427.35,265.919,-567.545,0,0
304687.675,262.815,-572.793,0,0
304948.0,259.49,-577.573,0,0
305208.325,256.088,-581.997,0,0
305468.65,252.526,-586.144,0,0
305728.975,248.813,-590.169,0,0
305989.3,244.771,-593.928,0,0
306249.625,240.494,-597.361,0,0
306509.95,236.006,-600.434,0,0
306770.275,231.34,-603.093,0,0
307030.6,226.597,-605.321,0,0
307290.925,221.848,-607.159,0,0
307551.25,217.121,-608.669,0,0
307811.575,212.463,-609.896,0,0
308071.9,207.817,-610.847,0,0
308332.225,203.198,-611.506,0,0
308592.55,198.572,-611.939,0,0
308852.875,194.005,-612.022,0,0
309113.2,189.497,-611.767,0,0
309373.525,185.156,-611.164,0,0
309633.85,181.062,-610.288,0,0
309894.175,177.223,-609.192,0,0
310154.5,173.627,-607.946,0,0
310414.825,170.323,-606.636,0,0
310675.15,167.273,-605.319,0,0
310935.475,164.344,-603.999,0,0
311195.8,161.542,-602.666,0,0
311456.125,158.907,-601.332,0,0
311716.45,156.316,-599.992,0,0
311976.775,153.854,-598.631,0,0
312237.1,151.471,-597.293,0,0
312497.425,149.138,-595.96,0,0
312757.75,146.854,-594.667,0,0
313018.075,144.593,-593.314,0,0
313278.4,142.313,-591.932,0,0
313538.725,140.054,-590.465,0,0
313799.05,137.844,-588.919,0,0
314059.375,135.687,-587.24,0,0
314319.7,133.625,-585.494,0,0
314580,131.653,-583.626,0,0
314840,129.837,-581.707,0,0
315101,128.146,-579.709,0,0
315361,126.624,-577.669,0,0
315621,125.275,-575.64,0,0
315882,124.071,-573.617,0,0
316142,122.982,-571.635,0,0
316402,122.043,-569.703,0,0
316663,121.222,-567.836,0,0
316923,120.504,-566.074,0,0
317183,119.835,-564.402,0,0
317444,119.195,-562.808,0,0
317704,118.555,-561.285,0,0
317964,117.955,-559.797,0,0
318225,117.358,-558.34,0,0
318485,116.81,-556.875,0,0
318745,116.266,-555.441,0,0
319006,115.788,-553.996,0,0
319266,115.389,-552.603,0,0
319526,115.049,-551.256,0,0
319787,114.773,-549.992,0,0
320047,114.522,-548.781,0,0
320307,114.263,-547.697,0,0
320567,114.026,-546.652,0,0
320828,113.775,-545.662,0,0
321088,113.487,-544.694,0,0
321348,113.182,-543.797,0,0
321609,112.844,-542.916,0,0
321869,112.489,-542.009,0,0
322129,112.134,-541.126,0,0
322390,111.803,-540.264,0,0
322650,111.477,-539.423,0,0
322910,111.134,-538.61,0,0
323171,110.783,-537.786,0,0
323431,110.422,-536.991,0,0
323691,110.08,-536.207,0,0
323952,109.742,-535.438,0,0
324212,109.373,-534.672,0,0
324472,109.005,-533.914,0,0
324733,108.631,-533.168,0,0
324993,108.247,-532.382,0,0
325253,107.902,-531.564,0,0
325514,107.597,-530.758,0,0
325774,107.36,-529.965,0,0
326034,107.203,-529.215,0,0
326295,107.067,-528.53,0,0
326555,106.942,-527.944,0,0
326815,106.805,-527.418,0,0
327076,106.652,-526.975,0,0
327336,106.485,-526.608,0,0
327596,106.246,-526.295,0,0
327857,105.908,-526.065,0,0
328117,105.503,-525.828,0,0
328377,105.009,-525.574,0,0
328638,104.456,-525.291,0,0
328898,103.885,-524.983,0,0
329158,103.294,-524.653,0,0
329419,102.696,-524.289,0,0
329679,102.077,-523.959,0,0
329939,101.45,-523.632,0,0
330200,100.804,-523.271,0,0
330460,100.1,-522.933,0,0
330720.15,99.3586,-522.574,0,0
330980.475,98.6548,-522.256,0,0
331240.8,97.8826,-521.87,0,0
331501.125,97.0626,-521.584,0,0
331761.45,96.1823,-521.25,0,0
332021.775,95.2212,-520.854,0,0
332282.1,94.2413,-520.49,0,0
332542.425,93.1703,-520.01,0,0
332802.75,92.1321,-519.517,0,0
333063.075,91.0673,-518.943,0,0
333323.4,89.9778,-518.314,0,0
333583.725,88.8443,-517.584,0,0
333844.05,87.6683,-516.785,0,0
334104.375,86.6037,-515.937,0,0
334364.7,85.5045,-515.147,0,0
334625.025,84.4703,-514.17,0,0
334885.35,83.473,-513.26,0,0
335145.675,82.4921,-512.229,0,0
335406.0,81.514,-511.214,0,0
335666.325,80.5578,-510.178,0,0
335926.65,79.6125,-509.164,0,0
336186.975,78.6695,-508.138,0,0
336447.3,77.6638,-506.981,0,0
336707.625,76.7441,-505.866,0,0
336967.95,75.8647,-504.596,0,0
337228.275,75.0045,-503.311,0,0
337488.6,74.2008,-502.09,0,0
337748.925,73.3673,-500.762,0,0
338009.25,72.6846,-499.423,0,0
338269.575,72.0016,-498.108,0,0
338529.9,71.4388,-496.716,0,0
338790.225,70.7809,-495.36,0,0
339050.55,70.2252,-494.11,0,0
339310.875,69.7208,-492.809,0,0
339571.2,69.1613,-491.434,0,0
339831.525,68.6445,-490.105,0,0
340091.85,68.1265,-488.738,0,0
340352.175,67.711,-487.58,0,0
340612.5,67.2706,-486.186,0,0
340872.825,66.8108,-484.762,0,0
341133.15,66.3722,-483.35,0,0
341393.475,65.9569,-481.991,0,0
341653.8,65.6437,-480.55,0,0
341914.125,65.3816,-479.105,0,0
342174.45,65.1588,-477.66,0,0
342434.775,64.947,-476.23,0,0
342695.1,64.804,-474.883,0,0
342955.425,64.7452,-473.423,0,0
343215.75,64.6244,-472.042,0,0
343476.075,64.5575,-470.669,0,0
343736.4,64.5991,-469.267,0,0
343996.725,64.6847,-467.899,0,0
344257.05,64.842,-466.647,0,0
344517.375,64.9486,-465.403,0,0
344777.7,65.1391,-464.135,0,0
345038.025,65.3886,-462.963,0,0
345298.35,65.6143,-461.895,0,0
345558.675,65.8587,-460.94,0,0
345819.0,66.0773,-459.98,0,0
346079.325,66.3691,-459.114,0,0
346339.65,66.5505,-458.245,0,0
346599.975,66.6807,-457.496,0,0
346860,66.742,-456.796,0,0
347121,66.7462,-456.058,0,0
347381,66.7781,-455.34,0,0
347641,66.6827,-454.586,0,0
347902,66.4778,-453.888,0,0
348162,66.2916,-453.069,0,0
348422,66.0185,-452.27,0,0
348683,65.7488,-451.403,0,0
348943,65.4189,-450.446,0,0
349203,65.1899,-449.391,0,0
349464,64.9456,-448.317,0,0
349724,64.7458,-447.246,0,0
349984,64.5967,-446.188,0,0
350245,64.4337,-445.079,0,0
350505,64.2505,-443.952,0,0
350765,64.11,-442.781,0,0
351025,63.9534,-441.592,0,0
351286,63.8939,-440.307,0,0
351546,63.8874,-438.98,0,0
351806,63.9314,-437.723,0,0
352067,64.0545,-436.315,0,0
352327,64.2712,-435.043,0,0
352587,64.5083,-433.751,0,0
352848,64.864,-432.492,0,0
353108,65.2761,-431.286,0,0
353368,65.7057,-430.148,0,0
353629,66.125,-429.037,0,0
353889,66.6694,-427.996,0,0
354149,67.188,-427.008,0,0
354410,67.7223,-426.13,0,0
354670,68.2562,-425.308,0,0
354930,68.7847,-424.458,0,0
355191,69.311,-423.729,0,0
355451,69.8276,-423.068,0,0
355711,70.2887,-422.452,0,0
355972,70.7806,-421.971,0,0
356232,71.2015,-421.521,0,0
356492,71.4183,-421.086,0,0
356753,71.6664,-420.711,0,0
357013,71.7856,-420.303,0,0
357273,71.8694,-419.914,0,0
357534,71.8348,-419.448,0,0
357794,71.7322,-419.013,0,0
358054,71.4993,-418.486,0,0
358315,71.2112,-417.847,0,0
358575,70.977,-417.144,0,0
358835,70.6612,-416.301,0,0
359096,70.442,-415.419,0,0
359356,70.2674,-414.438,0,0
359616,70.1122,-413.336,0,0
359877,70.015,-412.262,0,0
360137,69.9596,-411.086,0,0
360397,69.9795,-409.936,0,0
360658,70.0247,-408.765,0,0
360918,70.1738,-407.583,0,0
361178,70.365,-406.358,0,0
361438,70.6669,-405.191,0,0
361699,70.9661,-403.964,0,0
361959,71.3125,-402.756,0,0
362219,71.7427,-401.641,0,0
362480,72.2179,-400.513,0,0
362740.1,72.7453,-399.425,0,0
363000.425,73.277,-398.355,0,0
363260.75,73.8357,-397.349,0,0
363521.075,74.4478,-396.323,0,0
363781.4,75.027,-395.358,0,0
364041.725,75.6719,-394.392,0,0
364302.05,76.3436,-393.463,0,0
364562.375,77.0707,-392.571,0,0
364822.7,77.7958,-391.73,0,0
365083.025,78.5735,-390.947,0,0
365343.35,79.3791,-390.174,0,0
365603.675,80.141,-389.514,0,0
365864.0,80.9455,-388.906,0,0
366124.325,81.6935,-388.419,0,0
366384.65,82.4197,-387.91,0,0
366644.975,83.0801,-387.433,0,0
366905.3,83.7236,-386.997,0,0
367165.625,84.3256,-386.519,0,0
367425.95,84.9491,-386.022,0,0
367686.275,85.5419,-385.509,0,0
367946.6,86.1738,-385.061,0,0
368206.925,86.8457,-384.618,0,0
368467.25,87.4908,-384.211,0,0
368727.575,88.162,-383.867,0,0
368987.9,88.8273,-383.571,0,0
369248.225,89.4762,-383.306,0,0
369508.55,90.1059,-383.123,0,0
369768.875,90.7139,-382.959,0,0
370029.2,91.2414,-382.893,0,0
370289.525,91.7358,-382.823,0,0
370549.85,92.0768,-382.849,0,0
370810.175,92.4019,-382.871,0,0
371070.5,92.611,-382.87,0,0
371330.825,92.6774,-382.815,0,0
371591.15,92.678,-382.704,0,0
371851.475,92.6358,-382.487,0,0
372111.8,92.5213,-382.186,0,0
372372.125,92.4278,-381.808,0,0
372632.45,92.3555,-381.295,0,0
372892.775,92.3823,-380.72,0,0
373153.1,92.4183,-380.096,0,0
373413.425,92.4713,-379.44,0,0
373673.75,92.6769,-378.806,0,0
373934.075,92.8925,-378.119,0,0
374194.4,93.1738,-377.468,0,0
374454.725,93.4902,-376.807,0,0
374715.05,93.7909,-376.213,0,0
374975.375,94.178,-375.613,0,0
375235.7,94.6156,-375.07,0,0
375496.025,94.9946,-374.576,0,0
375756.35,95.3666,-374.082,0,0
376016.675,95.7443,-373.628,0,0
376277.0,96.086,-373.255,0,0
376537.325,96.4398,-372.844,0,0
376797.65,96.6727,-372.459,0,0
377057.975,96.8851,-372.087,0,0
377318.3,97.0767,-371.637,0,0
377578.625,97.2253,-371.127,0,0
377838.95,97.3482,-370.553,0,0
378099.275,97.5715,-369.962,0,0
378359.6,97.7879,-369.362,0,0
378619.925,98.0421,-368.641,0,0
378880,98.3102,-367.959,0,0
379141,98.6847,-367.227,0,0
379401,99.0803,-366.59,0,0
379661,99.5278,-365.923,0,0
379922,99.99,-365.297,0,0
380182,100.485,-364.691,0,0
380442,100.948,-364.15,0,0
380703,101.396,-363.561,0,0
380963,101.838,-363.017,0,0
381223,102.329,-362.436,0,0
381483,102.782,-361.867,0,0
381744,103.282,-361.299,0,0
382004,103.795,-360.768,0,0
382264,104.313,-360.169,0,0
382525,104.902,-359.641,0,0
382785,105.452,-359.101,0,0
383045,106.011,-358.634,0,0
383306,106.59,-358.153,0,0
383566,107.136,-357.764,0,0
383826,107.664,-357.264,0,0
384087,108.183,-356.812,0,0
384347,108.736,-356.34,0,0
384607,109.26,-355.876,0,0
384868,109.836,-355.447,0,0
385128,110.436,-354.988,0,0
385388,110.995,-354.594,0,0
385649,111.507,-354.189,0,0
385909,111.994,-353.796,0,0
386169,112.476,-353.314,0,0
386430,112.974,-352.799,0,0
386690,113.555,-352.262,0,0
386950,114.158,-351.782,0,0
387211,114.729,-351.3,0,0
387471,115.312,-350.91,0,0
387731,115.838,-350.44,0,0
387992,116.35,-349.932,0,0
388252,116.861,-349.343,0,0
388512,117.408,-348.666,0,0
388773,118.037,-347.988,0,0
389033,118.805,-347.216,0,0
389293,119.629,-346.502,0,0
389554,120.586,-345.846,0,0
389814,121.62,-345.219,0,0
390074,122.66,-344.707,0,0
390335,123.754,-344.236,0,0
390595,124.82,-343.857,0,0
390855,125.851,-343.56,0,0
391116,126.913,-343.282,0,0
391376,127.95,-343.015,0,0
391636,128.978,-342.741,0,0
391896,130.006,-342.503,0,0
392157,131.061,-342.283,0,0
392417,132.104,-342.104,0,0
392677,133.169,-341.943,0,0
392938,134.208,-341.818,0,0
393198,135.243,-341.75,0,0
393458,136.272,-341.663,0,0
393719,137.201,-341.603,0,0
393979,138.119,-341.482,0,0
394239,139.034,-341.277,0,0
394500,139.978,-341.099,0,0
394760.05,140.956,-340.803,0,0
395020.375,142.01,-340.477,0,0
395280.7,143.176,-340.17,0,0
395541.025,144.448,-339.838,0,0
395801.35,145.77,-339.544,0,0
396061.675,147.168,-339.245,0,0
396322.0,148.656,-338.968,0,0
396582.325,150.264,-338.732,0,0
396842.65,152.018,-338.565,0,0
397102.975,153.91,-338.466,0,0
397363.3,155.897,-338.475,0,0
397623.625,157.991,-338.623,0,0
397883.95,160.214,-338.919,0,0
398144.275,162.491,-339.424,0,0
398404.6,164.866,-340.062,0,0
398664.925,167.342,-340.948,0,0
398925.25,169.826,-342.061,0,0
399185.575,172.299,-343.457,0,0
399445.9,174.827,-345.109,0,0
399706.225,177.3,-347.146,0,0
399966.55,179.58,-349.533,0,0
400006.6,179.873,-349.931,0,0