File: Accelerated corrosion test data/2025-10-20_09-18-15/sample_8.csv
Frequency (Hz),Impedance (ohms),Phase (Radians),Temperature (C),Humidity (%)
10000.0,307.114,-11001.4,0,0
10260.325,299.575,-10725.2,0,0
10520.65,292.436,-10462.6,0,0
10780.975,285.098,-10213.2,0,0
11041.3,278.707,-9975.06,0,0
11301.625,272.446,-9749.19,0,0
11561.95,266.698,-9530.87,0,0
11822.275,260.961,-9323.45,0,0
12082.6,259.296,-9123.27,0,0
12342.925,255.891,-8936.71,0,0
12603.25,251.098,-8754.77,0,0
12863.575,247.853,-8583.91,0,0
13123.9,238.955,-8418.32,0,0
13384.225,233.716,-8256.05,0,0
13644.55,231.172,-8100.6,0,0
13904.875,222.463,-7952.11,0,0
14165.2,218.545,-7806.05,0,0
14425.525,213.374,-7666.2,0,0
14685.8,210.145,-7531.92,0,0
14946.175,206.215,-7401.47,0,0
15206.5,202.898,-7276.18,0,0
15466.825,199.6,-7154.96,0,0
15727.15,196.059,-7037.8,0,0
15987.5,193.207,-6924.68,0,0
16247.8,190.489,-6814.68,0,0
16508.125,187.308,-6707.97,0,0
16768.45,184.131,-6604.76,0,0
17028.775,181.184,-6504.45,0,0
17289.1,178.671,-6407.12,0,0
17549.425,175.914,-6312.43,0,0
17809.75,174.046,-6219.84,0,0
18070.075,172.32,-6132.31,0,0
18330.4,169.385,-6044.61,0,0
18590.725,166.975,-5959.23,0,0
18851.05,168.217,-5875.44,0,0
19111.375,166.13,-5796.29,0,0
19371.7,168.32,-5720.88,0,0
19632.025,165.334,-5647.87,0,0
19892.35,162.103,-5577.01,0,0
20152.675,160.001,-5503.62,0,0
20413.0,160.192,-5434.22,0,0
20673.3,160.082,-5367.28,0,0
20933.65,156.295,-5304.78,0,0
21193.975,152.407,-5240.49,0,0
21454.3,149.986,-5175.99,0,0
21714.625,148.468,-5113.28,0,0
21974.9,147.766,-5053.21,0,0
22235.275,147.955,-4994.54,0,0
22495.6,146.776,-4938.27,0,0
22755.925,145.072,-4884.31,0,0
23016.25,143.429,-4829.24,0,0
23276.6,138.647,-4777.24,0,0
23536.9,136.287,-4723.76,0,0
23797.225,134.768,-4672.25,0,0
24057.55,133.279,-4621.36,0,0
24317.875,131.416,-4572.03,0,0
24578.2,129.459,-4523.52,0,0
24838.525,127.899,-4475.64,0,0
25098.85,126.878,-4428.77,0,0
25359.175,125.493,-4383.51,0,0
25619.5,124.508,-4338.29,0,0
25879.8,123.209,-4293.88,0,0
26140.1,123.196,-4252.28,0,0
26400.5,120.838,-4210.23,0,0
26660.8,119.775,-4168.34,0,0
26921.1,119.678,-4126.73,0,0
27181.4,119.823,-4087.83,0,0
27441.8,119.035,-4048.83,0,0
27702.1,117.984,-4011.61,0,0
27962.4,115.588,-3974,0,0
28222.7,117.211,-3936.76,0,0
28483.1,115.437,-3900.26,0,0
28743.4,115.433,-3865.42,0,0
29003.7,114.008,-3830.93,0,0
29264,114.707,-3796.72,0,0
29524.4,112.967,-3763.33,0,0
29784.7,112.821,-3730.17,0,0
30045,112.016,-3698.64,0,0
30305.3,111.609,-3667.35,0,0
30565.7,110.165,-3636.5,0,0
30826,108.968,-3605.1,0,0
31086.3,107.766,-3574.95,0,0
31346.6,107.071,-3544.82,0,0
31607,106.448,-3514.9,0,0
31867.3,105.744,-3485.68,0,0
32127.6,105.06,-3457.06,0,0
32387.9,104.883,-3428.33,0,0
32648.3,104.47,-3400.35,0,0
32908.6,104.975,-3373.13,0,0
33168.9,104.532,-3346.06,0,0
33429.2,105.048,-3319.34,0,0
33689.6,105.67,-3293.88,0,0
33949.9,105.428,-3268.59,0,0
34210.2,105.949,-3243.61,0,0
34470.5,105.896,-3219.29,0,0
34730.9,106.427,-3194.85,0,0
34991.2,107.374,-3171.09,0,0
35251.5,108.263,-3148.39,0,0
35511.8,109.039,-3126.36,0,0
35772.2,109.373,-3105.18,0,0
36032.5,109.851,-3084.37,0,0
36292.8,109.299,-3063.68,0,0
36553.1,108.964,-3043.85,0,0
36813.5,107.751,-3024.06,0,0
37073.8,107.355,-3004.03,0,0
37334.1,105.681,-2985.05,0,0
37594.4,103.675,-2965.86,0,0
37854.8,101.573,-2946.18,0,0
38115.1,99.4364,-2926.95,0,0
38375.4,97.4004,-2907.4,0,0
38635.7,95.3275,-2887.61,0,0
38896.1,93.3365,-2868.04,0,0
39156.4,91.4156,-2848.28,0,0
39416.7,90.2477,-2828.6,0,0
39677,88.7963,-2809.64,0,0
39937.4,87.727,-2790.28,0,0
40197.7,87.0408,-2771.01,0,0
40458,87.0494,-2752.46,0,0
40718.3,86.5476,-2734.91,0,0
40978.7,85.7598,-2717.26,0,0
41239,84.9705,-2699.81,0,0
41499.3,84.3062,-2682.25,0,0
41759.6,84.0168,-2665.3,0,0
42020,83.0194,-2648.35,0,0
42280.275,82.1533,-2631.3,0,0
42540.6,82.0709,-2614.39,0,0
42800.925,81.7065,-2597.97,0,0
43061.25,82.0756,-2581.96,0,0
43321.575,82.1489,-2566.56,0,0
43581.9,81.9806,-2551.73,0,0
43842.225,81.0177,-2536.92,0,0
44102.55,79.6017,-2521.97,0,0
44362.875,79.0357,-2506.54,0,0
44623.2,78.2448,-2491.72,0,0
44883.525,77.399,-2476.82,0,0
45143.85,76.91,-2462,0,0
45404.175,76.2283,-2447.59,0,0
45664.5,75.8076,-2433.34,0,0
45924.825,75.2898,-2418.91,0,0
46185.15,74.5788,-2404.67,0,0
46445.475,74.057,-2390.8,0,0
46705.8,73.6541,-2376.95,0,0
46966.125,73.1913,-2363.19,0,0
47226.45,72.7748,-2349.78,0,0
47486.775,72.5967,-2336.22,0,0
47747.1,72.1507,-2323.16,0,0
48007.425,71.7526,-2310.14,0,0
48267.75,71.393,-2297.5,0,0
48528.075,70.9752,-2284.63,0,0
48788.4,70.6502,-2271.95,0,0
49048.725,70.0847,-2259.43,0,0
49309.05,69.6415,-2247.23,0,0
49569.375,69.3791,-2234.78,0,0
49829.7,68.9467,-2222.53,0,0
50090.025,68.7034,-2210.42,0,0
50350.35,68.3316,-2198.42,0,0
50610.675,67.9344,-2186.63,0,0
50871.0,67.65,-2174.85,0,0
51131.325,67.4516,-2163.22,0,0
51391.65,67.2626,-2151.55,0,0
51651.975,67.2294,-2140.14,0,0
51912.3,67.0898,-2129.08,0,0
52172.625,66.9886,-2117.86,0,0
52432.95,66.7118,-2107.03,0,0
52693.275,66.6531,-2095.9,0,0
52953.6,66.6892,-2085.16,0,0
53213.925,66.9357,-2074.61,0,0
53474.25,67.208,-2064.45,0,0
53734.575,67.2859,-2054.75,0,0
53994.9,66.6196,-2045.11,0,0
54255.225,65.9395,-2034.99,0,0
54515.55,65.4916,-2025.03,0,0
54775.875,64.8916,-2015.28,0,0
55036.2,64.2241,-2005.43,0,0
55296.525,63.5642,-1995.61,0,0
55556.85,62.8525,-1985.73,0,0
55817.175,62.2564,-1975.83,0,0
56077.5,61.7845,-1965.85,0,0
56337.825,61.3996,-1956.11,0,0
56598.15,61.0142,-1946.35,0,0
56858.475,60.8025,-1936.68,0,0
57118.8,60.5989,-1927.19,0,0
57379.125,60.3576,-1917.76,0,0
57639.45,60.1843,-1908.34,0,0
57899.775,59.9733,-1899.26,0,0
58160.1,59.8784,-1890.16,0,0
58420.4,59.7728,-1881.14,0,0
58680.7,59.6482,-1872.15,0,0
58941.1,59.4813,-1863.43,0,0
59201.4,59.3609,-1854.74,0,0
59461.7,59.0456,-1846.17,0,0
59722,58.7458,-1837.56,0,0
59982.4,58.3706,-1828.9,0,0
60242.7,58.1053,-1820.31,0,0
60503,57.9505,-1811.72,0,0
60763.3,57.8389,-1803.07,0,0
61023.7,57.8051,-1794.8,0,0
61284,57.7925,-1786.48,0,0
61544.3,57.8378,-1778.41,0,0
61804.6,57.6116,-1770.45,0,0
62065,57.3266,-1762.32,0,0
62325.3,57.3257,-1754.07,0,0
62585.6,57.3441,-1746.04,0,0
62845.9,57.492,-1738.12,0,0
63106.3,57.6796,-1730.51,0,0
63366.6,57.8629,-1722.75,0,0
63626.9,58.0419,-1715.4,0,0
63887.2,58.0508,-1708.13,0,0
64147.6,57.9623,-1700.81,0,0
64407.9,57.9606,-1693.65,0,0
64668.2,57.8443,-1686.54,0,0
64928.5,57.6706,-1679.33,0,0
65188.9,57.4634,-1672.3,0,0
65449.2,57.2793,-1665.3,0,0
65709.5,57.0074,-1658.07,0,0
65969.8,56.8959,-1651.26,0,0
66230.2,56.6356,-1644.43,0,0
66490.5,56.2481,-1637.57,0,0
66750.8,55.7817,-1630.61,0,0
67011.1,55.5036,-1623.4,0,0
67271.5,55.3343,-1616.59,0,0
67531.8,55.1424,-1609.68,0,0
67792.1,54.9079,-1602.79,0,0
68052.4,54.7419,-1596.03,0,0
68312.8,54.4608,-1589.33,0,0
68573.1,54.2537,-1582.55,0,0
68833.4,54.1203,-1575.81,0,0
69093.7,54.0294,-1569.08,0,0
69354.1,54.0346,-1562.24,0,0
69614.4,54.0738,-1555.72,0,0
69874.7,54.2217,-1549.34,0,0
70135,54.1918,-1543.05,0,0
70395.4,54.2591,-1536.67,0,0
70655.7,54.1449,-1530.43,0,0
70916,54.1553,-1524.19,0,0
71176.3,54.0943,-1518.13,0,0
71436.7,54.1333,-1511.97,0,0
71697,54.1843,-1506.02,0,0
71957.3,53.9589,-1500.16,0,0
72217.6,53.8924,-1494.03,0,0
72478,53.851,-1488.28,0,0
72738.3,53.6069,-1482.51,0,0
72998.6,53.2534,-1476.57,0,0
73258.9,53.0669,-1470.5,0,0
73519.3,53.0658,-1464.61,0,0
73779.6,53.0511,-1458.9,0,0
74039.9,52.8395,-1453.2,0,0
74300.225,52.6388,-1447.46,0,0
74560.55,52.3977,-1441.68,0,0
74820.875,52.3016,-1435.93,0,0
75081.2,52.2293,-1430.17,0,0
75341.525,52.0855,-1424.6,0,0
75601.85,52.004,-1418.87,0,0
75862.175,51.9415,-1413.26,0,0
76122.5,51.921,-1407.65,0,0
76382.825,51.9019,-1402.19,0,0
76643.15,51.9388,-1396.75,0,0
76903.475,51.8585,-1391.43,0,0
77163.8,51.6687,-1386.09,0,0
77424.125,51.552,-1380.74,0,0
77684.45,51.4511,-1375.34,0,0
77944.775,51.3773,-1370.03,0,0
78205.1,51.2947,-1364.81,0,0
78465.425,51.1462,-1359.61,0,0
78725.75,50.8806,-1354.24,0,0
78986.075,50.7484,-1348.94,0,0
79246.4,50.6631,-1343.77,0,0
79506.725,50.4206,-1338.53,0,0
79767.05,50.3461,-1333.22,0,0
80027.375,50.3062,-1327.94,0,0
80287.7,50.1988,-1322.68,0,0
80548.025,50.1585,-1317.48,0,0
80808.35,50.1979,-1312.28,0,0
81068.675,50.1473,-1307.15,0,0
81329.0,50.2953,-1301.89,0,0
81589.325,50.418,-1296.81,0,0
81849.65,50.4803,-1291.81,0,0
82109.975,50.6899,-1286.79,0,0
82370.3,50.8404,-1281.85,0,0
82630.625,50.9141,-1276.88,0,0
82890.95,51.16,-1271.84,0,0
83151.275,51.4377,-1267.07,0,0
83411.6,51.5578,-1262.3,0,0
83671.925,51.9418,-1257.4,0,0
83932.25,52.3037,-1252.76,0,0
84192.575,52.6558,-1248.42,0,0
84452.9,52.8904,-1244.02,0,0
84713.225,53.0008,-1239.94,0,0
84973.55,52.6242,-1235.72,0,0
85233.875,52.1795,-1231.16,0,0
85494.2,51.8365,-1226.36,0,0
85754.525,51.7902,-1221.56,0,0
86014.85,51.6725,-1216.81,0,0
86275.175,51.7646,-1212.08,0,0
86535.5,51.769,-1207.35,0,0
86795.825,51.9944,-1202.57,0,0
87056.15,52.199,-1197.95,0,0
87316.475,52.3705,-1193.53,0,0
87576.8,52.4371,-1189,0,0
87837.125,52.4987,-1184.42,0,0
88097.45,52.7191,-1179.87,0,0
88357.775,52.7977,-1175.42,0,0
88618.1,52.9363,-1170.9,0,0
88878.425,53.1154,-1166.42,0,0
89138.75,53.2563,-1161.84,0,0
89399.075,53.4862,-1157.18,0,0
89659.4,53.6851,-1152.58,0,0
89919.725,54.01,-1147.88,0,0
90180,54.5415,-1143.26,0,0
90440.4,55.103,-1138.72,0,0
90700.7,55.7885,-1134.11,0,0
90961,56.6763,-1129.72,0,0
91221.3,57.6539,-1125.57,0,0
91481.7,58.6848,-1121.69,0,0
91742,59.3274,-1118.19,0,0
92002.3,59.7317,-1114.6,0,0
92262.6,59.9542,-1110.78,0,0
92523,60.0908,-1106.89,0,0
92783.3,60.3567,-1102.78,0,0
93043.6,60.9072,-1098.66,0,0
93303.9,61.4656,-1094.71,0,0
93564.3,62.0702,-1090.83,0,0
93824.6,62.7061,-1087,0,0
94084.9,63.2968,-1083.37,0,0
94345.2,63.8004,-1079.91,0,0
94605.6,63.8609,-1076.4,0,0
94865.9,64.0242,-1072.44,0,0
95126.2,64.3203,-1068.59,0,0
95386.5,64.5911,-1064.59,0,0
95646.9,65.1561,-1060.72,0,0
95907.2,65.4968,-1056.86,0,0
96167.5,65.9899,-1052.87,0,0
96427.8,66.5187,-1048.84,0,0
96688.2,67.3899,-1044.85,0,0
96948.5,68.1883,-1041.16,0,0
97208.8,68.94,-1037.47,0,0
97469.1,69.6763,-1033.68,0,0
97729.5,70.5915,-1029.91,0,0
97989.8,71.6521,-1026.19,0,0
98250.1,72.7635,-1022.65,0,0
98510.4,73.9794,-1019.21,0,0
98770.8,75.2938,-1015.99,0,0
99031.1,76.4411,-1013.1,0,0
99291.4,77.3307,-1010.27,0,0
99551.7,78.062,-1007.33,0,0
99812.1,78.869,-1004.21,0,0
100072,79.7697,-1001.12,0,0
100333,80.947,-998.164,0,0
100593,82.0437,-995.49,0,0
100853,83.0053,-992.888,0,0
101114,83.9981,-990.423,0,0
101374,84.8569,-988.105,0,0
101634,85.6288,-985.785,0,0
101895,86.2519,-983.696,0,0
102155,86.6808,-981.622,0,0
102415,86.9973,-979.527,0,0
102676,87.0815,-977.433,0,0
102936,87.0388,-975.146,0,0
103196,86.9842,-972.723,0,0
103457,87.0101,-970.222,0,0
103717,87.1051,-967.771,0,0
103977,87.2255,-965.427,0,0
104238,87.1323,-963.148,0,0
104498,86.9536,-960.854,0,0
104758,86.5338,-958.466,0,0
105019,86.0288,-955.854,0,0
105279,85.6277,-952.957,0,0
105539,85.4747,-949.98,0,0
105800,85.3518,-947.083,0,0
106060,85.2961,-944.134,0,0
106320.175,85.3913,-941.216,0,0
106580.5,85.5225,-938.472,0,0
106840.825,85.5781,-935.813,0,0
107101.15,85.5438,-933.123,0,0
107361.475,85.5657,-930.427,0,0
107621.8,85.4635,-927.834,0,0
107882.125,85.1708,-925.094,0,0
108142.45,84.9829,-922.061,0,0
108402.775,84.9232,-919.005,0,0
108663.1,85.087,-915.94,0,0
108923.425,85.2983,-912.929,0,0
109183.75,85.694,-910.031,0,0
109444.075,86.0942,-907.256,0,0
109704.4,86.5028,-904.591,0,0
109964.725,86.9017,-902.024,0,0
110225.05,87.1958,-899.669,0,0
110485.375,87.3121,-897.196,0,0
110745.7,87.5104,-894.676,0,0
111006.025,87.6388,-892.221,0,0
111266.35,87.5699,-889.622,0,0
111526.675,87.7652,-887.076,0,0
111787.0,88.0443,-884.586,0,0
112047.325,88.3044,-882.219,0,0
112307.65,88.368,-879.802,0,0
112567.975,88.5029,-877.461,0,0
112828.3,88.6016,-875.147,0,0
113088.625,88.6584,-872.819,0,0
113348.95,88.5817,-870.505,0,0
113609.275,88.5139,-868.112,0,0
113869.6,88.4486,-865.722,0,0
114129.925,88.3945,-863.294,0,0
114390.25,88.3409,-860.843,0,0
114650.575,88.3723,-858.463,0,0
114910.9,88.3538,-856.053,0,0
115171.225,88.4298,-853.727,0,0
115431.55,88.429,-851.662,0,0
115691.875,88.1182,-849.592,0,0
115952.2,87.5768,-847.246,0,0
116212.525,87.188,-844.68,0,0
116472.85,86.934,-841.988,0,0
116733.175,86.7017,-839.474,0,0
116993.5,86.5471,-836.868,0,0
117253.825,86.4199,-834.218,0,0
117514.15,86.3665,-831.683,0,0
117774.475,86.3044,-829.122,0,0
118034.8,86.253,-826.656,0,0
118295.125,86.1711,-824.133,0,0
118555.45,86.0924,-821.598,0,0
118815.775,86.1313,-819.11,0,0
119076.1,86.1249,-816.753,0,0
119336.425,85.9971,-814.506,0,0
119596.75,85.754,-812.05,0,0
119857.075,85.5054,-809.58,0,0
120117.4,85.3421,-807.105,0,0
120377.725,85.1509,-804.601,0,0
120638.05,84.9468,-802.065,0,0
120898.375,84.7886,-799.454,0,0
121158.7,84.7606,-796.896,0,0
121419.025,84.7131,-794.452,0,0
121679.35,84.5821,-792.005,0,0
121939.675,84.4151,-789.526,0,0
122200.0,84.2733,-787.016,0,0
122460,84.1978,-784.511,0,0
122721,84.0889,-782.087,0,0
122981,83.9038,-779.673,0,0
123241,83.7336,-777.222,0,0
123502,83.5156,-774.75,0,0
123762,83.2984,-772.284,0,0
124022,83.0191,-769.779,0,0
124283,82.7713,-767.239,0,0
124543,82.5016,-764.669,0,0
124803,82.269,-762.065,0,0
125064,82.0301,-759.462,0,0
125324,81.7823,-756.797,0,0
125584,81.5414,-754.172,0,0
125845,81.2722,-751.47,0,0
126105,81.0753,-748.721,0,0
126365,80.9024,-745.95,0,0
126626,80.7486,-743.187,0,0
126886,80.6493,-740.392,0,0
127146,80.5719,-737.633,0,0
127406,80.4855,-734.861,0,0
127667,80.3767,-732.035,0,0
127927,80.3751,-729.177,0,0
128187,80.4525,-726.391,0,0
128448,80.5165,-723.644,0,0
128708,80.5839,-720.992,0,0
128968,80.5356,-718.279,0,0
129229,80.5436,-715.569,0,0
129489,80.5006,-712.83,0,0
129749,80.402,-710.036,0,0
130010,80.3222,-707.096,0,0
130270,80.3468,-704.027,0,0
130530,80.6308,-700.926,0,0
130791,81.1328,-698.045,0,0
131051,81.4771,-695.343,0,0
131311,81.88,-692.661,0,0
131572,82.1985,-690.132,0,0
131832,82.3466,-687.559,0,0
132092,82.5115,-684.912,0,0
132353,82.704,-682.195,0,0
132613,82.955,-679.519,0,0
132873,83.2063,-676.974,0,0
133134,83.2812,-674.413,0,0
133394,83.2707,-671.731,0,0
133654,83.3688,-668.925,0,0
133915,83.4803,-666.141,0,0
134175,83.6242,-663.27,0,0
134435,83.9172,-660.322,0,0
134696,84.2186,-657.48,0,0
134956,84.6322,-654.616,0,0
135216,85.0833,-651.859,0,0
135477,85.519,-649.118,0,0
135737,86.0417,-646.38,0,0
135997,86.6645,-643.879,0,0
136258,87.0853,-641.637,0,0
136518,87.2279,-639.283,0,0
136778,87.2951,-636.882,0,0
137039,87.2416,-634.389,0,0
137299,87.1261,-631.815,0,0
137559,86.9638,-629.116,0,0
137819,86.7509,-626.258,0,0
138080,86.5754,-623.27,0,0
138340.125,86.4356,-620.049,0,0
138600.45,86.531,-616.698,0,0
138860.775,86.8223,-613.384,0,0
139121.1,87.2306,-610.173,0,0
139381.425,87.6422,-607.052,0,0
139641.75,87.9901,-603.915,0,0
139902.075,88.3954,-600.662,0,0
140162.4,88.949,-597.51,0,0
140422.725,89.424,-594.461,0,0
140683.05,89.7997,-591.363,0,0
140943.375,90.1581,-588.071,0,0
141203.7,90.7197,-584.767,0,0
141464.025,91.3297,-581.566,0,0
141724.35,91.8094,-578.433,0,0
141984.675,92.1783,-575.1,0,0
142245.0,92.6992,-571.587,0,0
142505.325,93.344,-568.057,0,0
142765.65,94.0372,-564.514,0,0
143025.975,94.8658,-560.89,0,0
143286.3,95.779,-557.238,0,0
143546.625,96.8877,-553.649,0,0
143806.95,97.9537,-550.225,0,0
144067.275,98.8872,-546.761,0,0
144327.6,99.8949,-543.096,0,0
144587.925,101.014,-539.32,0,0
144848.25,102.424,-535.43,0,0
145108.575,104.039,-531.738,0,0
145368.9,105.688,-528.168,0,0
145629.225,107.382,-524.625,0,0
145889.55,109.117,-521.172,0,0
146149.875,110.781,-517.644,0,0
146410.2,112.617,-514.005,0,0
146670.525,114.733,-510.437,0,0
146930.85,117.027,-507.171,0,0
147191.175,119.23,-504.195,0,0
147451.5,121.158,-501.36,0,0
147711.825,122.803,-498.4,0,0
147972.15,124.297,-495.156,0,0
148232.475,125.844,-491.537,0,0
148492.8,127.682,-487.589,0,0
148753.125,129.942,-483.514,0,0
149013.45,132.57,-479.578,0,0
149273.775,135.33,-475.635,0,0
149534.1,138.307,-471.683,0,0
149794.425,141.657,-467.654,0,0
150054.75,145.45,-463.617,0,0
150315.075,149.805,-459.981,0,0
150575.4,154.38,-456.613,0,0
150835.725,159.341,-453.672,0,0
151096.05,164.589,-451.103,0,0
151356.375,170.372,-449.255,0,0
151616.7,176.022,-448.522,0,0
151877.025,181.135,-448.521,0,0
152137.35,185.534,-448.72,0,0
152397.675,189.853,-449.147,0,0
152658.0,193.554,-450.005,0,0
152918.325,196.824,-450.607,0,0
153178.65,199.996,-451.395,0,0
153438.975,202.682,-452.544,0,0
153699.3,204.683,-453.502,0,0
153959.625,206.23,-453.892,0,0
154219.95,208.258,-453.939,0,0
154480,209.836,-454.197,0,0
154741,211.255,-453.637,0,0
155001,213.786,-452.584,0,0
155261,217.048,-452.326,0,0
155522,220.61,-452.929,0,0
155782,223.749,-454.828,0,0
156042,226.122,-457.466,0,0
156303,227.175,-460.671,0,0
156563,226.661,-463.62,0,0
156823,224.912,-465.514,0,0
157084,222.589,-466.234,0,0
157344,220.109,-465.443,0,0
157604,218.404,-463.221,0,0
157864,217.991,-460.197,0,0
158125,218.982,-457.465,0,0
158385,220.58,-455.477,0,0
158645,222.393,-454.215,0,0
158906,224.031,-453.561,0,0
159166,225.512,-452.844,0,0
159426,227.432,-452.769,0,0
159687,228.506,-453.766,0,0
159947,228.637,-454.937,0,0
160207,227.468,-455.447,0,0
160468,225.788,-455.176,0,0
160728,223.733,-453.9,0,0
160988,222.053,-451.161,0,0
161249,221.35,-447.899,0,0
161509,221.334,-444.227,0,0
161769,222.201,-440.445,0,0
162030,224.261,-436.953,0,0
162290,227.029,-434.214,0,0
162550,230.184,-432.514,0,0
162811,232.922,-431.918,0,0
163071,234.904,-431.645,0,0
163331,236.657,-431.458,0,0
163592,237.816,-431.457,0,0
163852,238.951,-431.146,0,0
164112,239.733,-430.671,0,0
164373,240.704,-430.14,0,0
164633,241.84,-429.721,0,0
164893,242.795,-429.627,0,0
165154,243.782,-429.771,0,0
165414,244.515,-430.386,0,0
165674,244.756,-431.467,0,0
165935,243.833,-432.601,0,0
166195,242.117,-432.907,0,0
166455,240.519,-432.759,0,0
166716,238.503,-432.569,0,0
166976,235.935,-431.827,0,0
167236,233.255,-430.177,0,0
167497,230.926,-427.866,0,0
167757,228.952,-425.426,0,0
168017,226.83,-422.776,0,0
168277,224.895,-419.675,0,0
168538,223.156,-416.477,0,0
168798,221.246,-413.014,0,0
169058,219.429,-408.908,0,0
169319,218.132,-404.394,0,0
169579,217.325,-399.872,0,0
169839,216.606,-395.371,0,0
170100,215.974,-390.59,0,0
170360.075,215.68,-385.73,0,0
170620.4,215.643,-380.7,0,0
170880.725,215.883,-375.723,0,0
171141.05,216.166,-370.773,0,0
171401.375,216.329,-365.644,0,0
171661.7,216.688,-359.823,0,0
171922.025,217.902,-353.758,0,0
172182.35,219.739,-347.928,0,0
172442.675,221.993,-342.561,0,0
172703.0,224.071,-337.562,0,0
172963.325,226.251,-332.358,0,0
173223.65,228.639,-327.118,0,0
173483.975,231.387,-321.924,0,0
173744.3,234.445,-317.228,0,0
174004.625,237.26,-312.841,0,0
174264.95,240.221,-308.543,0,0
174525.275,242.876,-304.709,0,0
174785.6,244.77,-300.852,0,0
175045.925,246.261,-296.178,0,0
175306.25,248.046,-290.852,0,0
175566.575,250.16,-285.036,0,0
175826.9,252.942,-278.918,0,0
176087.225,256.276,-272.884,0,0
176347.55,260.063,-267.02,0,0
176607.875,264.136,-261.377,0,0
176868.2,268.217,-256.092,0,0
177128.525,272.044,-250.847,0,0
177388.85,275.558,-245.367,0,0
177649.175,279.209,-239.318,0,0
177909.5,283.183,-232.467,0,0
178169.825,288.198,-225.294,0,0
178430.15,294.212,-218.236,0,0
178690.475,300.77,-211.748,0,0
178950.8,307.543,-205.409,0,0
179211.125,315.005,-199.267,0,0
179471.45,322.701,-193.941,0,0
179731.775,329.949,-188.637,0,0
179992.1,337.721,-182.049,0,0
180252.425,347.447,-176.626,0,0
180512.75,356.732,-172.584,0,0
180773.075,365.514,-168.535,0,0
181033.4,374.611,-164.401,0,0
181293.725,383.886,-160.422,0,0
181554.05,393.459,-156.182,0,0
181814.375,404.274,-152.033,0,0
182074.7,416.094,-148.8,0,0
182335.025,428.456,-147.017,0,0
182595.35,440.64,-146.629,0,0
182855.675,452.16,-147.481,0,0
183116.0,462.738,-148.596,0,0
183376.325,472.967,-150.126,0,0
183636.65,482.457,-152.13,0,0
183896.975,490.549,-154.205,0,0
184157.3,497.782,-154.877,0,0
184417.625,505.817,-154.017,0,0
184677.95,515.36,-152.883,0,0
184938.275,526.09,-152.589,0,0
185198.6,537.322,-153.193,0,0
185458.925,548.875,-155.167,0,0
185719.25,559.82,-158.316,0,0
185979.575,569.787,-161.421,0,0
186239.9,580.23,-164.596,0,0
186500,590.593,-168.982,0,0
186761,599.784,-173.819,0,0
187021,608.49,-178.456,0,0
187281,616.884,-183.233,0,0
187542,624.786,-187.955,0,0
187802,632.513,-192.555,0,0
188062,640.05,-196.626,0,0
188322,648.027,-200.81,0,0
188583,655.912,-205.553,0,0
188843,663.303,-210.54,0,0
189103,670.268,-215.421,0,0
189364,676.69,-220.054,0,0
189624,683.144,-223.886,0,0
189884,690.309,-227.756,0,0
190145,697.022,-231.858,0,0
190405,703.667,-235.057,0,0
190665,711.168,-237.794,0,0
190926,719.95,-240.363,0,0
191186,729.999,-244.311,0,0
191446,739.707,-249.973,0,0
191707,748.447,-256.404,0,0
191967,755.914,-263.238,0,0
192227,761.9,-268.937,0,0
192488,767.992,-273.012,0,0
192748,775.027,-275.745,0,0
193008,783.739,-277.533,0,0
193269,794.703,-279.594,0,0
193529,807.157,-282.669,0,0
193789,821.4,-286.723,0,0
194050,836.839,-293.227,0,0
194310,852.117,-301.681,0,0
194570,867.512,-311.424,0,0
194831,882.885,-323.346,0,0
195091,897.381,-336.774,0,0
195351,911.196,-351.218,0,0
195612,924.758,-366.525,0,0
195872,938.59,-383.258,0,0
196132,951.954,-402.719,0,0
196393,963.662,-424.382,0,0
196653,972.929,-447.363,0,0
196913,980.459,-470.834,0,0
197174,986.74,-495.061,0,0
197434,991.512,-520.603,0,0
197694,993.701,-547.394,0,0
197955,992.939,-574.627,0,0
198215,989.357,-601.089,0,0
198475,983.687,-626.741,0,0
198735,976.246,-651.423,0,0
198996,967.391,-675.442,0,0
199256,956.734,-699.088,0,0
199516,943.354,-721.777,0,0
199777,927.535,-742.448,0,0
200037,910.107,-760.172,0,0
200297,892.361,-774.817,0,0
200558,875.253,-786.876,0,0
200818,859.06,-797.665,0,0
201078,843.889,-807.205,0,0
201339,829.58,-816.881,0,0
201599,815.065,-826.747,0,0
201859,799.686,-836.806,0,0
202120,782.667,-846.509,0,0
202380.025,763.636,-854.434,0,0
202640.35,743.389,-859.157,0,0
202900.675,724.172,-860.365,0,0
203161.0,707.015,-859.71,0,0
203421.325,691.907,-858.469,0,0
203681.65,677.637,-856.39,0,0
203941.975,664.817,-854.206,0,0
204202.3,652.524,-851.947,0,0
204462.625,641.014,-849.591,0,0
204722.95,629.387,-847.222,0,0
204983.275,617.921,-844.039,0,0
205243.6,606.67,-840.12,0,0
205503.925,596.043,-835.051,0,0
205764.25,586.522,-829.113,0,0
206024.575,578.019,-822.596,0,0
206284.9,570.735,-815.558,0,0
206545.225,564.786,-808.124,0,0
206805.55,560.606,-800.507,0,0
207065.875,557.988,-793.837,0,0
207326.2,556.267,-788.071,0,0
207586.525,554.973,-783.18,0,0
207846.85,554.179,-778.849,0,0
208107.175,553.95,-775.399,0,0
208367.5,553.435,-772.622,0,0
208627.825,552.935,-770.442,0,0
208888.15,552.21,-768.45,0,0
209148.475,551.225,-766.779,0,0
209408.8,550.167,-764.917,0,0
209669.125,549.07,-762.496,0,0
209929.45,548.739,-759.792,0,0
210189.775,549.174,-757.322,0,0
210450.1,550.284,-755.226,0,0
210710.425,552.079,-753.654,0,0
210970.75,554.129,-752.836,0,0
211231.075,556.246,-752.672,0,0
211491.4,558.602,-752.99,0,0
211751.725,561.185,-754.053,0,0
212012.05,563.701,-756.006,0,0
212272.375,565.784,-758.825,0,0
212532.7,567.246,-762.063,0,0
212793.025,568.595,-765.5,0,0
213053.35,569.338,-769.389,0,0
213313.675,569.607,-773.51,0,0
213574.0,569.333,-777.658,0,0
213834.325,568.706,-781.679,0,0
214094.65,567.883,-785.565,0,0
214354.975,567.078,-789.463,0,0
214615.3,566.285,-793.403,0,0
214875.625,565.287,-797.798,0,0
215135.95,564.145,-802.185,0,0
215396.275,562.684,-806.83,0,0
215656.6,561.126,-811.74,0,0
215916.925,559.136,-816.922,0,0
216177.25,556.591,-822.38,0,0
216437.575,553.243,-827.954,0,0
216697.9,548.93,-832.319,0,0
216958.225,545.186,-836.731,0,0
217218.55,541.177,-841.154,0,0
217478.875,536.996,-845.415,0,0
217739.2,532.639,-849.578,0,0
217999.525,528.096,-853.844,0,0
218259.85,523.083,-858.005,0,0
218520,517.815,-862.038,0,0
218780,512.15,-865.832,0,0
219041,506.194,-869.182,0,0
219301,500.054,-872.096,0,0
219561,493.723,-874.951,0,0
219822,487.268,-877.347,0,0
220082,480.712,-879.472,0,0
220342,473.659,-881.174,0,0
220603,466.614,-882.193,0,0
220863,459.7,-882.621,0,0
221123,453.039,-882.432,0,0
221384,446.687,-881.884,0,0
221644,440.771,-881.027,0,0
221904,435.25,-880.094,0,0
222165,429.839,-879.082,0,0
222425,424.582,-877.872,0,0
222685,419.498,-876.41,0,0
222946,414.688,-874.554,0,0
223206,410.455,-872.389,0,0
223466,406.817,-870.349,0,0
223727,403.948,-868.728,0,0
223987,401.028,-867.336,0,0
224247,398.221,-866.096,0,0
224508,395.461,-864.941,0,0
224768,393.02,-863.846,0,0
225028,390.966,-862.996,0,0
225289,388.922,-862.567,0,0
225549,387.105,-862.662,0,0
225809,385.099,-863.19,0,0
226070,382.658,-863.936,0,0
226330,380.088,-864.865,0,0
226590,377.191,-865.954,0,0
226851,373.996,-867.106,0,0
227111,370.428,-868.151,0,0
227371,366.51,-869.103,0,0
227632,362.409,-869.821,0,0
227892,358.142,-870.082,0,0
228152,353.988,-870.001,0,0
228413,350.191,-869.705,0,0
228673,346.634,-869.388,0,0
228933,343.375,-869.326,0,0
229193,340.192,-869.598,0,0
229454,336.812,-870.154,0,0
229714,333.188,-870.791,0,0
229974,329.302,-871.555,0,0
230235,325.106,-872.366,0,0
230495,320.574,-873.218,0,0
230755,315.67,-873.863,0,0
231016,310.492,-873.995,0,0
231276,305.288,-874.029,0,0
231536,299.961,-873.785,0,0
231797,294.605,-873.322,0,0
232057,289.128,-872.478,0,0
232317,283.853,-871.662,0,0
232578,278.262,-870.5,0,0
232838,272.769,-869.377,0,0
233098,266.982,-867.761,0,0
233359,261.328,-866.028,0,0
233619,255.523,-863.781,0,0
233879,249.82,-861.159,0,0
234140,244.276,-858.182,0,0
234400,238.996,-854.823,0,0
234660.3,233.867,-851.154,0,0
234920.625,229.006,-847.203,0,0
235180.95,224.559,-842.984,0,0
235441.275,220.532,-838.666,0,0
235701.6,216.784,-834.357,0,0
235961.925,213.352,-829.906,0,0
236222.25,210.218,-825.536,0,0
236482.575,207.351,-821.13,0,0
236742.9,204.707,-816.815,0,0
237003.225,202.291,-812.566,0,0
237263.55,200.056,-808.31,0,0
237523.875,197.993,-804.185,0,0
237784.2,196.033,-799.987,0,0
238044.525,194.214,-795.851,0,0
238304.85,192.578,-791.603,0,0
238565.175,191.217,-787.263,0,0
238825.5,190.276,-782.938,0,0
239085.825,189.847,-778.795,0,0
239346.15,189.615,-775.041,0,0
239606.475,189.579,-771.582,0,0
239866.8,189.609,-768.404,0,0
240127.125,189.664,-765.567,0,0
240387.45,189.768,-762.993,0,0
240647.775,189.851,-760.576,0,0
240908.1,189.979,-758.568,0,0
241168.425,190.046,-756.893,0,0
241428.75,189.747,-755.422,0,0
241689.075,189.041,-754.059,0,0
241949.4,188.088,-752.747,0,0
242209.725,186.868,-751.263,0,0
242470.05,185.531,-749.536,0,0
242730.375,184.119,-747.682,0,0
242990.7,182.726,-745.635,0,0
243251.025,181.425,-743.496,0,0
243511.35,180.174,-741.353,0,0
243771.675,178.91,-739.087,0,0
244032.0,177.66,-736.67,0,0
244292.325,176.577,-734.167,0,0
244552.65,175.727,-731.67,0,0
244812.975,174.975,-729.225,0,0
245073.3,174.169,-726.948,0,0
245333.625,173.322,-724.531,0,0
245593.95,172.483,-722.008,0,0
245854.275,171.931,-719.322,0,0
246114.6,171.637,-716.744,0,0
246374.925,171.537,-714.287,0,0
246635.25,171.566,-712.09,0,0
246895.575,171.543,-710.135,0,0
247155.9,171.389,-708.292,0,0
247416.225,171.109,-706.54,0,0
247676.55,170.744,-704.692,0,0
247936.875,170.4,-702.788,0,0
248197.2,170.081,-700.896,0,0
248457.525,169.766,-699.044,0,0
248717.85,169.499,-697.229,0,0
248978.175,169.159,-695.404,0,0
249238.5,168.831,-693.464,0,0
249498.825,168.528,-691.477,0,0
249759.15,168.312,-689.516,0,0
250019.475,168.149,-687.532,0,0
250279.8,168.105,-685.55,0,0
250540,168.074,-683.54,0,0
250800,168.191,-681.543,0,0
251061,168.374,-679.629,0,0
251321,168.731,-677.711,0,0
251581,169.24,-675.958,0,0
251842,169.789,-674.366,0,0
252102,170.343,-672.917,0,0
252362,170.917,-671.574,0,0
252623,171.581,-670.437,0,0
252883,172.189,-669.469,0,0
253143,172.737,-668.749,0,0
253404,173.122,-668.164,0,0
253664,173.343,-667.743,0,0
253924,173.293,-667.402,0,0
254185,173.034,-667.028,0,0
254445,172.62,-666.601,0,0
254705,172.046,-666.155,0,0
254966,171.364,-665.541,0,0
255226,170.515,-664.905,0,0
255486,169.49,-664.157,0,0
255747,168.384,-663.178,0,0
256007,167.273,-661.985,0,0
256267,166.154,-660.707,0,0
256528,165.031,-659.306,0,0
256788,163.88,-657.638,0,0
257048,162.828,-655.77,0,0
257309,161.856,-653.7,0,0
257569,161.106,-651.502,0,0
257829,160.53,-649.186,0,0
258090,160.181,-646.772,0,0
258350,160.044,-644.402,0,0
258610,160.092,-642.017,0,0
258871,160.324,-639.634,0,0
259131,160.713,-637.304,0,0
259391,161.283,-635.102,0,0
259651,162.063,-633.054,0,0
259912,162.932,-631.166,0,0
260172,163.789,-629.537,0,0
260432,164.562,-627.989,0,0
260693,165.335,-626.499,0,0
260953,166.074,-625.01,0,0
261213,166.862,-623.626,0,0
261474,167.672,-622.301,0,0
261734,168.447,-621.014,0,0
261994,169.238,-619.816,0,0
262255,169.98,-618.715,0,0
262515,170.517,-617.702,0,0
262775,170.859,-616.515,0,0
263036,171.248,-615.124,0,0
263296,171.81,-613.628,0,0
263556,172.398,-612.143,0,0
263817,173.025,-610.633,0,0
264077,173.677,-609.041,0,0
264337,174.394,-607.343,0,0
264598,175.275,-605.607,0,0
264858,176.208,-603.747,0,0
265118,177.269,-601.744,0,0
265379,178.608,-599.683,0,0
265639,180.223,-597.575,0,0
265899,182.095,-595.417,0,0
266160,184.316,-593.302,0,0
266420,186.934,-591.333,0,0
266680.25,189.864,-589.544,0,0
266940.575,193.109,-587.988,0,0
267200.9,196.647,-586.72,0,0
267461.225,200.536,-585.824,0,0
267721.55,204.7,-585.416,0,0
267981.875,208.92,-585.555,0,0
268242.2,213.163,-586.215,0,0
268502.525,217.262,-587.35,0,0
268762.85,221.162,-588.846,0,0
269023.175,224.962,-590.708,0,0
269283.5,228.58,-592.774,0,0
269543.825,232.13,-595.153,0,0
269804.15,235.695,-597.67,0,0
270064.475,239.389,-600.756,0,0
270324.8,242.855,-604.448,0,0
270585.125,246.04,-608.707,0,0
270845.45,248.799,-613.47,0,0
271105.775,250.964,-618.661,0,0
271366.1,252.433,-624.032,0,0
271626.425,253.386,-629.534,0,0
271886.75,253.96,-635.052,0,0
272147.075,254.077,-640.737,0,0
272407.4,253.771,-646.481,0,0
272667.725,253.072,-652.435,0,0
272928.05,251.66,-658.602,0,0
273188.375,249.524,-664.933,0,0
273448.7,246.443,-671.041,0,0
273709.025,242.561,-676.839,0,0
273969.35,237.88,-682.011,0,0
274229.675,232.722,-686.527,0,0
274490.0,227.212,-690.396,0,0
274750.325,221.363,-693.547,0,0
275010.65,215.502,-695.974,0,0
275270.975,209.596,-697.776,0,0
275531.3,203.736,-698.973,0,0
275791.625,198.067,-699.69,0,0
276051.95,192.613,-699.954,0,0
276312.275,187.316,-699.923,0,0
276572.6,182.158,-699.523,0,0
276832.925,177.134,-698.855,0,0
277093.25,172.313,-697.83,0,0
277353.575,167.693,-696.579,0,0
277613.9,163.3,-695.05,0,0
277874.225,159.118,-693.364,0,0
278134.55,155.11,-691.495,0,0
278394.875,151.299,-689.458,0,0
278655.2,147.631,-687.182,0,0
278915.525,144.221,-684.754,0,0
279175.85,141.021,-682.102,0,0
279436.175,138.16,-679.304,0,0
279696.5,135.662,-676.421,0,0
279956.825,133.381,-673.498,0,0
280217.15,131.486,-670.57,0,0
280477.475,129.908,-667.67,0,0
280737.8,128.628,-664.865,0,0
280998.125,127.582,-662.301,0,0
281258.45,126.614,-659.911,0,0
281518.775,125.799,-657.65,0,0
281779.1,125.047,-655.472,0,0
282039.425,124.397,-653.402,0,0
282299.75,123.808,-651.445,0,0
282560,123.396,-649.613,0,0
282820,122.958,-647.99,0,0
283081,122.479,-646.5,0,0
283341,121.904,-645.078,0,0
283601,121.221,-643.6,0,0
283862,120.591,-642.044,0,0
284122,119.997,-640.449,0,0
284382,119.532,-638.864,0,0
284643,119.161,-637.236,0,0
284903,118.846,-635.64,0,0
285163,118.704,-634.06,0,0
285424,118.657,-632.474,0,0
285684,118.821,-630.999,0,0
285944,119.081,-629.639,0,0
286205,119.515,-628.401,0,0
286465,120.103,-627.3,0,0
286725,120.831,-626.422,0,0
286986,121.715,-625.857,0,0
287246,122.609,-625.673,0,0
287506,123.426,-625.902,0,0
287767,124.03,-626.496,0,0
288027,124.343,-627.334,0,0
288287,124.341,-628.406,0,0
288548,123.956,-629.616,0,0
288808,123.194,-630.858,0,0
289068,122.057,-632.033,0,0
289329,120.598,-633.103,0,0
289589,118.831,-634.009,0,0
289849,116.801,-634.69,0,0
290109,114.561,-635.084,0,0
290370,112.215,-635.097,0,0
290630,109.984,-634.815,0,0
290890,107.838,-634.373,0,0
291151,105.744,-633.837,0,0
291411,103.726,-633.242,0,0
291671,101.686,-632.552,0,0
291932,99.6296,-631.805,0,0
292192,97.5393,-630.909,0,0
292452,95.4914,-629.901,0,0
292713,93.4538,-628.713,0,0
292973,91.5236,-627.476,0,0
293233,89.6533,-626.112,0,0
293494,87.8247,-624.693,0,0
293754,86.0612,-623.191,0,0
294014,84.372,-621.62,0,0
294275,82.7259,-619.964,0,0
294535,81.1768,-618.216,0,0
294795,79.7408,-616.416,0,0
295056,78.4135,-614.555,0,0
295316,77.1623,-612.716,0,0
295576,76.0417,-610.824,0,0
295837,75.0067,-608.978,0,0
296097,74.0565,-607.142,0,0
296357,73.1816,-605.333,0,0
296618,72.3315,-603.584,0,0
296878,71.5213,-601.858,0,0
297138,70.7267,-600.129,0,0
297399,69.9302,-598.406,0,0
297659,69.1889,-596.648,0,0
297919,68.4727,-594.886,0,0
298180,67.802,-593.102,0,0
298440,67.1635,-591.327,0,0
298700.2,66.5716,-589.52,0,0
298960.525,66.0427,-587.725,0,0
299220.85,65.5584,-585.902,0,0
299481.175,65.1206,-584.093,0,0
299741.5,64.7474,-582.266,0,0
300001.825,64.4567,-580.44,0,0
300262.15,64.184,-578.67,0,0
300522.475,63.9712,-576.873,0,0
300782.8,63.8286,-575.101,0,0
301043.125,63.7149,-573.318,0,0
301303.45,63.6941,-571.553,0,0
301563.775,63.7655,-569.822,0,0
301824.1,63.908,-568.124,0,0
302084.425,64.112,-566.508,0,0
302344.75,64.3581,-564.948,0,0
302605.075,64.629,-563.446,0,0
302865.4,64.9226,-562.016,0,0
303125.725,65.2803,-560.644,0,0
303386.05,65.6363,-559.308,0,0
303646.375,65.9975,-558.042,0,0
303906.7,66.4042,-556.838,0,0
304167.025,66.7942,-555.695,0,0
304427.35,67.1735,-554.589,0,0
304687.675,67.5911,-553.529,0,0
304948.0,68.0037,-552.517,0,0
305208.325,68.3995,-551.549,0,0
305468.65,68.8143,-550.638,0,0
305728.975,69.2489,-549.805,0,0
305989.3,69.65,-549.022,0,0
306249.625,70.038,-548.317,0,0
306509.95,70.3688,-547.619,0,0
306770.275,70.6834,-546.959,0,0
307030.6,70.978,-546.325,0,0
307290.925,71.2686,-545.698,0,0
307551.25,71.5553,-545.128,0,0
307811.575,71.8394,-544.579,0,0
308071.9,72.1265,-544.111,0,0
308332.225,72.3956,-543.717,0,0
308592.55,72.6037,-543.401,0,0
308852.875,72.6887,-543.167,0,0
309113.2,72.6618,-542.944,0,0
309373.525,72.5307,-542.677,0,0
309633.85,72.3078,-542.351,0,0
309894.175,72.0783,-541.943,0,0
310154.5,71.8198,-541.458,0,0
310414.825,71.589,-540.954,0,0
310675.15,71.3554,-540.42,0,0
310935.475,71.1603,-539.87,0,0
311195.8,70.9828,-539.328,0,0
311456.125,70.8027,-538.771,0,0
311716.45,70.6744,-538.263,0,0
311976.775,70.5162,-537.783,0,0
312237.1,70.3293,-537.324,0,0
312497.425,70.1087,-536.886,0,0
312757.75,69.8323,-536.426,0,0
313018.075,69.5623,-535.965,0,0
313278.4,69.257,-535.496,0,0
313538.725,68.9268,-534.98,0,0
313799.05,68.5849,-534.486,0,0
314059.375,68.2312,-533.957,0,0
314319.7,67.8701,-533.387,0,0
314580,67.5292,-532.764,0,0
314840,67.0938,-532.204,0,0
315101,66.7643,-531.637,0,0
315361,66.3449,-530.98,0,0
315621,65.8895,-530.319,0,0
315882,65.5075,-529.594,0,0
316142,65.1859,-528.888,0,0
316402,64.8224,-528.196,0,0
316663,64.5224,-527.334,0,0
316923,64.276,-526.606,0,0
317183,64.0329,-525.856,0,0
317444,63.792,-525.125,0,0
317704,63.6186,-524.455,0,0
317964,63.3469,-523.751,0,0
318225,63.0693,-523.061,0,0
318485,62.8417,-522.304,0,0
318745,62.6378,-521.576,0,0
319006,62.4263,-520.749,0,0
319266,62.3108,-519.995,0,0
319526,62.206,-519.293,0,0
319787,62.1327,-518.501,0,0
320047,61.9897,-517.903,0,0
320307,62.0175,-517.258,0,0
320567,62.0253,-516.603,0,0
320828,61.8996,-516.123,0,0
321088,61.7763,-515.628,0,0
321348,61.7148,-515.058,0,0
321609,61.5501,-514.615,0,0
321869,61.424,-514.113,0,0
322129,61.2654,-513.602,0,0
322390,61.1239,-513.206,0,0
322650,60.9085,-512.764,0,0
322910,60.626,-512.38,0,0
323171,60.4459,-511.945,0,0
323431,60.1388,-511.564,0,0
323691,59.7328,-511.172,0,0
323952,59.4103,-510.763,0,0
324212,58.9948,-510.296,0,0
324472,58.4762,-509.848,0,0
324733,58.007,-509.285,0,0
324993,57.6038,-508.76,0,0
325253,57.105,-508.201,0,0
325514,56.6192,-507.554,0,0
325774,56.1632,-506.866,0,0
326034,55.6787,-506.188,0,0
326295,55.2507,-505.481,0,0
326555,54.8675,-504.737,0,0
326815,54.4846,-504.044,0,0
327076,54.0794,-503.37,0,0
327336,53.7449,-502.631,0,0
327596,53.4263,-501.925,0,0
327857,53.0686,-501.223,0,0
328117,52.7451,-500.465,0,0
328377,52.3731,-499.818,0,0
328638,51.9687,-499.032,0,0
328898,51.6154,-498.341,0,0
329158,51.2363,-497.618,0,0
329419,50.8659,-496.819,0,0
329679,50.4825,-496.044,0,0
329939,50.208,-495.241,0,0
330200,49.8401,-494.441,0,0
330460,49.5099,-493.671,0,0
330720.15,49.1599,-492.855,0,0
330980.475,48.8727,-492.047,0,0
331240.8,48.5577,-491.195,0,0
331501.125,48.2444,-490.273,0,0
331761.45,47.9552,-489.44,0,0
332021.775,47.6912,-488.685,0,0
332282.1,47.4637,-487.741,0,0
332542.425,47.2432,-486.761,0,0
332802.75,46.9786,-485.895,0,0
333063.075,46.802,-484.954,0,0
333323.4,46.6904,-484.024,0,0
333583.725,46.5456,-483.129,0,0
333844.05,46.4078,-482.165,0,0
334104.375,46.3661,-481.259,0,0
334364.7,46.3672,-480.415,0,0
334625.025,46.3634,-479.493,0,0
334885.35,46.3674,-478.601,0,0
335145.675,46.3751,-477.806,0,0
335406.0,46.5106,-477.043,0,0
335666.325,46.5423,-476.362,0,0
335926.65,46.7105,-475.581,0,0
336186.975,46.7332,-474.904,0,0
336447.3,46.7799,-474.265,0,0
336707.625,46.7967,-473.66,0,0
336967.95,46.8251,-473.094,0,0
337228.275,46.8344,-472.509,0,0
337488.6,46.8316,-471.976,0,0
337748.925,46.7745,-471.38,0,0
338009.25,46.6957,-470.896,0,0
338269.575,46.5786,-470.315,0,0
338529.9,46.4516,-469.784,0,0
338790.225,46.3373,-469.238,0,0
339050.55,46.1478,-468.653,0,0
339310.875,45.9976,-468.097,0,0
339571.2,45.7896,-467.503,0,0
339831.525,45.6144,-466.914,0,0
340091.85,45.4289,-466.323,0,0
340352.175,45.1654,-465.699,0,0
340612.5,44.9818,-465.06,0,0
340872.825,44.7754,-464.462,0,0
341133.15,44.5389,-463.751,0,0
341393.475,44.2455,-463.105,0,0
341653.8,44.0679,-462.362,0,0
341914.125,43.8241,-461.704,0,0
342174.45,43.5536,-460.97,0,0
342434.775,43.3222,-460.199,0,0
342695.1,43.2097,-459.391,0,0
342955.425,42.9865,-458.584,0,0
343215.75,42.8438,-457.864,0,0
343476.075,42.6233,-457.047,0,0
343736.4,42.5318,-456.201,0,0
343996.725,42.3153,-455.426,0,0
344257.05,42.2146,-454.572,0,0
344517.375,42.0768,-453.731,0,0
344777.7,41.9802,-452.914,0,0
345038.025,41.9329,-452.037,0,0
345298.35,41.8184,-451.194,0,0
345558.675,41.813,-450.332,0,0
345819.0,41.8346,-449.483,0,0
346079.325,41.8053,-448.615,0,0
346339.65,41.8349,-447.801,0,0
346599.975,41.8653,-446.964,0,0
346860,41.9277,-446.14,0,0
347121,41.9926,-445.353,0,0
347381,42.0245,-444.567,0,0
347641,42.1078,-443.759,0,0
347902,42.158,-442.997,0,0
348162,42.2703,-442.139,0,0
348422,42.3517,-441.41,0,0
348683,42.5037,-440.621,0,0
348943,42.6065,-439.84,0,0
349203,42.7123,-439.07,0,0
349464,42.8163,-438.298,0,0
349724,43.0528,-437.54,0,0
349984,43.1956,-436.797,0,0
350245,43.3597,-436.027,0,0
350505,43.6088,-435.294,0,0
350765,43.8403,-434.611,0,0
351025,44.07,-433.909,0,0
351286,44.33,-433.271,0,0
351546,44.5052,-432.601,0,0
351806,44.7927,-432.013,0,0
352067,45.0615,-431.34,0,0
352327,45.2738,-430.766,0,0
352587,45.5177,-430.192,0,0
352848,45.7815,-429.644,0,0
353108,45.9737,-429.134,0,0
353368,46.2232,-428.568,0,0
353629,46.4039,-428.075,0,0
353889,46.6458,-427.545,0,0
354149,46.8624,-427.057,0,0
354410,47.0788,-426.508,0,0
354670,47.2226,-426.057,0,0
354930,47.4554,-425.561,0,0
355191,47.6403,-425.099,0,0
355451,47.8706,-424.648,0,0
355711,48.0238,-424.2,0,0
355972,48.2073,-423.721,0,0
356232,48.3794,-423.383,0,0
356492,48.5452,-422.919,0,0
356753,48.6949,-422.504,0,0
357013,48.8064,-422.111,0,0
357273,48.9538,-421.669,0,0
357534,49.0835,-421.267,0,0
357794,49.1683,-420.843,0,0
358054,49.2906,-420.427,0,0
358315,49.4403,-420.007,0,0
358575,49.5713,-419.555,0,0
358835,49.6525,-419.179,0,0
359096,49.7645,-418.784,0,0
359356,49.8752,-418.353,0,0
359616,49.9477,-417.914,0,0
359877,50.0443,-417.528,0,0
360137,50.1657,-417.129,0,0
360397,50.2392,-416.657,0,0
360658,50.3583,-416.277,0,0
360918,50.4736,-415.842,0,0
361178,50.5769,-415.481,0,0
361438,50.6951,-415.104,0,0
361699,50.7589,-414.703,0,0
361959,50.9062,-414.34,0,0
362219,50.9551,-413.98,0,0
362480,51.0541,-413.631,0,0
362740.1,51.1377,-413.274,0,0
363000.425,51.1977,-412.903,0,0
363260.75,51.2534,-412.552,0,0
363521.075,51.2833,-412.21,0,0
363781.4,51.3027,-411.844,0,0
364041.725,51.3766,-411.438,0,0
364302.05,51.3613,-411.082,0,0
364562.375,51.4213,-410.681,0,0
364822.7,51.4723,-410.321,0,0
365083.025,51.5197,-409.941,0,0
365343.35,51.569,-409.554,0,0
365603.675,51.5743,-409.213,0,0
365864.0,51.5775,-408.83,0,0
366124.325,51.5942,-408.466,0,0
366384.65,51.6132,-408.071,0,0
366644.975,51.6098,-407.702,0,0
366905.3,51.6566,-407.264,0,0
367165.625,51.6656,-406.926,0,0
367425.95,51.6621,-406.46,0,0
367686.275,51.6938,-406.092,0,0
367946.6,51.6882,-405.654,0,0
368206.925,51.7232,-405.242,0,0
368467.25,51.7492,-404.804,0,0
368727.575,51.7458,-404.391,0,0
368987.9,51.8535,-403.852,0,0
369248.225,51.9368,-403.426,0,0
369508.55,52.042,-402.95,0,0
369768.875,52.1991,-402.455,0,0
370029.2,52.372,-402.039,0,0
370289.525,52.5672,-401.674,0,0
370549.85,52.7931,-401.331,0,0
370810.175,53.013,-400.993,0,0
371070.5,53.2349,-400.719,0,0
371330.825,53.385,-400.487,0,0
371591.15,53.5917,-400.256,0,0
371851.475,53.7442,-400.072,0,0
372111.8,53.8604,-399.916,0,0
372372.125,53.9862,-399.752,0,0
372632.45,54.0344,-399.649,0,0
372892.775,54.0839,-399.512,0,0
373153.1,54.0767,-399.418,0,0
373413.425,54.0381,-399.296,0,0
373673.75,53.9683,-399.212,0,0
373934.075,53.8641,-399.076,0,0
374194.4,53.7254,-398.945,0,0
374454.725,53.5355,-398.798,0,0
374715.05,53.3464,-398.641,0,0
374975.375,53.1226,-398.449,0,0
375235.7,52.89,-398.167,0,0
375496.025,52.6093,-397.865,0,0
375756.35,52.3802,-397.484,0,0
376016.675,52.1918,-397.102,0,0
376277.0,51.9872,-396.715,0,0
376537.325,51.8472,-396.279,0,0
376797.65,51.7314,-395.863,0,0
377057.975,51.6659,-395.492,0,0
377318.3,51.6359,-395.135,0,0
377578.625,51.5698,-394.785,0,0
377838.95,51.4887,-394.516,0,0
378099.275,51.3157,-394.219,0,0
378359.6,51.1763,-393.906,0,0
378619.925,50.9577,-393.614,0,0
378880,50.7465,-393.259,0,0
379141,50.4543,-392.865,0,0
379401,50.152,-392.383,0,0
379661,49.9724,-391.844,0,0
379922,49.7841,-391.253,0,0
380182,49.6868,-390.646,0,0
380442,49.6542,-390.018,0,0
380703,49.7293,-389.431,0,0
380963,49.8512,-388.865,0,0
381223,50.0634,-388.389,0,0
381483,50.2414,-388.008,0,0
381744,50.4261,-387.756,0,0
382004,50.556,-387.517,0,0
382264,50.6184,-387.393,0,0
382525,50.6125,-387.244,0,0
382785,50.5684,-387.118,0,0
383045,50.48,-386.936,0,0
383306,50.3405,-386.812,0,0
383566,50.1416,-386.611,0,0
383826,49.9434,-386.429,0,0
384087,49.6823,-386.225,0,0
384347,49.4348,-385.982,0,0
384607,49.0936,-385.733,0,0
384868,48.775,-385.467,0,0
385128,48.4452,-385.087,0,0
385388,48.1151,-384.759,0,0
385649,47.7707,-384.299,0,0
385909,47.4525,-383.882,0,0
386169,47.1271,-383.401,0,0
386430,46.7784,-382.954,0,0
386690,46.4858,-382.417,0,0
386950,46.1749,-381.895,0,0
387211,45.8789,-381.352,0,0
387471,45.5804,-380.731,0,0
387731,45.3443,-380.129,0,0
387992,45.1176,-379.526,0,0
388252,44.899,-378.86,0,0
388512,44.7174,-378.225,0,0
388773,44.5243,-377.533,0,0
389033,44.4308,-376.89,0,0
389293,44.3048,-376.24,0,0
389554,44.2256,-375.599,0,0
389814,44.1853,-374.934,0,0
390074,44.1043,-374.316,0,0
390335,44.1027,-373.729,0,0
390595,44.1,-373.13,0,0
390855,44.039,-372.532,0,0
391116,44.0418,-371.948,0,0
391376,44.0241,-371.377,0,0
391636,43.9863,-370.821,0,0
391896,43.988,-370.249,0,0
392157,43.9459,-369.707,0,0
392417,43.9299,-369.149,0,0
392677,43.9357,-368.616,0,0
392938,43.8701,-368.06,0,0
393198,43.8381,-367.523,0,0
393458,43.8026,-366.963,0,0
393719,43.7907,-366.391,0,0
393979,43.7504,-365.819,0,0
394239,43.7164,-365.203,0,0
394500,43.6835,-364.615,0,0
394760.05,43.711,-363.984,0,0
395020.375,43.7025,-363.399,0,0
395280.7,43.721,-362.801,0,0
395541.025,43.7563,-362.195,0,0
395801.35,43.82,-361.554,0,0
396061.675,43.8715,-360.993,0,0
396322.0,43.9705,-360.411,0,0
396582.325,44.0601,-359.834,0,0
396842.65,44.1249,-359.285,0,0
397102.975,44.2018,-358.76,0,0
397363.3,44.3141,-358.207,0,0
397623.625,44.3903,-357.658,0,0
397883.95,44.4537,-357.148,0,0
398144.275,44.5213,-356.609,0,0
398404.6,44.6074,-356.082,0,0
398664.925,44.6922,-355.534,0,0
398925.25,44.7559,-355.038,0,0
399185.575,44.8388,-354.513,0,0
399445.9,44.9276,-353.98,0,0
399706.225,45.0014,-353.478,0,0
399966.55,45.0601,-352.946,0,0
400006.6,45.0742,-352.891,0,0