File: Accelerated corrosion test data/2025-10-20_09-18-15/sample_4.csv
Frequency (Hz),Impedance (ohms),Phase (Radians),Temperature (C),Humidity (%)
10000.0,263.323,-11945.4,0,0
10260.325,259.817,-11646.6,0,0
10520.65,250.267,-11359.7,0,0
10780.975,244.422,-11087.3,0,0
11041.3,240.058,-10826.8,0,0
11301.625,233.951,-10582.3,0,0
11561.95,228.265,-10345.5,0,0
11822.275,224.402,-10118.7,0,0
12082.6,219.585,-9902.42,0,0
12342.925,215.098,-9694.32,0,0
12603.25,213.136,-9494.24,0,0
12863.575,208.173,-9306.16,0,0
13123.9,206.234,-9127.54,0,0
13384.225,199.685,-8945.98,0,0
13644.55,195.364,-8773.98,0,0
13904.875,193.636,-8606.94,0,0
14165.2,195.901,-8441.71,0,0
14425.525,203.237,-8289.76,0,0
14685.8,194.84,-8180.56,0,0
14946.175,181.559,-8023.95,0,0
15206.5,180.301,-7876.87,0,0
15466.825,201.167,-7730.19,0,0
15727.15,186.615,-7634.83,0,0
15987.5,183.982,-7517.67,0,0
16247.8,170.646,-7386.95,0,0
16508.125,198,-7268.36,0,0
16768.45,182.323,-7161.9,0,0
17028.775,166.706,-7069.08,0,0
17289.1,159.81,-6955.1,0,0
17549.425,157.725,-6851.1,0,0
17809.75,155.731,-6750.69,0,0
18070.075,152.11,-6650.29,0,0
18330.4,153.675,-6554.9,0,0
18590.725,152.057,-6465.44,0,0
18851.05,148.986,-6379.67,0,0
19111.375,145.178,-6290.27,0,0
19371.7,142.471,-6204.45,0,0
19632.025,141.652,-6119.82,0,0
19892.35,144.395,-6039.41,0,0
20152.675,142.996,-5962.02,0,0
20413.0,140.392,-5887.28,0,0
20673.3,141.273,-5811.92,0,0
20933.65,137.533,-5738.29,0,0
21193.975,140.628,-5663.14,0,0
21454.3,154.623,-5597.15,0,0
21714.625,146.367,-5541.51,0,0
21974.9,152.299,-5472.07,0,0
22235.275,147.223,-5424.57,0,0
22495.6,134.829,-5366.39,0,0
22755.925,127.628,-5301.46,0,0
23016.25,124.576,-5238.59,0,0
23276.6,122.464,-5178.04,0,0
23536.9,120.796,-5120.7,0,0
23797.225,118.301,-5063.22,0,0
24057.55,116.959,-5007.08,0,0
24317.875,115.86,-4952.66,0,0
24578.2,114.488,-4898.81,0,0
24838.525,113.524,-4845.91,0,0
25098.85,115.055,-4795.11,0,0
25359.175,112.89,-4747.14,0,0
25619.5,111.985,-4697.6,0,0
25879.8,110.182,-4653.22,0,0
26140.1,107.749,-4604.13,0,0
26400.5,107.237,-4557.14,0,0
26660.8,107.062,-4510.94,0,0
26921.1,106.08,-4466.32,0,0
27181.4,105.457,-4421.1,0,0
27441.8,105.999,-4375.6,0,0
27702.1,110.87,-4331.57,0,0
27962.4,118.084,-4292.12,0,0
28222.7,119.228,-4263.22,0,0
28483.1,112.925,-4228.58,0,0
28743.4,109.821,-4186.71,0,0
29003.7,110.94,-4144.67,0,0
29264,120.187,-4113.2,0,0
29524.4,113.331,-4085.37,0,0
29784.7,109.301,-4049.61,0,0
30045,106.592,-4015.73,0,0
30305.3,100.66,-3979.78,0,0
30565.7,100.308,-3943.26,0,0
30826,98.7402,-3909.55,0,0
31086.3,97.5829,-3875.11,0,0
31346.6,99.1364,-3841.52,0,0
31607,98.3063,-3810.81,0,0
31867.3,97.4019,-3778.78,0,0
32127.6,100.707,-3747.86,0,0
32387.9,98.4206,-3722.23,0,0
32648.3,96.9902,-3692.31,0,0
32908.6,94.357,-3665.13,0,0
33168.9,91.8775,-3635.35,0,0
33429.2,89.8102,-3606.2,0,0
33689.6,88.685,-3577.53,0,0
33949.9,87.2853,-3548.85,0,0
34210.2,87.2742,-3520.92,0,0
34470.5,85.7887,-3494.47,0,0
34730.9,84.5125,-3467.25,0,0
34991.2,84.491,-3440.47,0,0
35251.5,83.8097,-3414.64,0,0
35511.8,83.0937,-3389.13,0,0
35772.2,82.7404,-3363.94,0,0
36032.5,81.5298,-3338.99,0,0
36292.8,80.7578,-3313.93,0,0
36553.1,80.628,-3289.4,0,0
36813.5,80.52,-3265.03,0,0
37073.8,80.638,-3242.53,0,0
37334.1,79.3098,-3219.52,0,0
37594.4,78.884,-3196.2,0,0
37854.8,78.7528,-3173.37,0,0
38115.1,77.9642,-3151.8,0,0
38375.4,77.135,-3129.19,0,0
38635.7,76.9199,-3106.69,0,0
38896.1,77.2221,-3085.27,0,0
39156.4,76.7509,-3064.11,0,0
39416.7,76.3717,-3043.01,0,0
39677,76.4583,-3021.37,0,0
39937.4,77.0613,-3000.33,0,0
40197.7,78.7973,-2980.07,0,0
40458,80.9394,-2962.04,0,0
40718.3,78.6008,-2944.17,0,0
40978.7,78.7057,-2923.7,0,0
41239,80.2323,-2905.08,0,0
41499.3,81.9492,-2888.85,0,0
41759.6,79.3378,-2872.55,0,0
42020,77.4457,-2854.02,0,0
42280.275,76.5236,-2834.43,0,0
42540.6,78.9131,-2817.53,0,0
42800.925,76.8081,-2802.39,0,0
43061.25,75.6243,-2784.13,0,0
43321.575,75.6327,-2767.27,0,0
43581.9,74.0055,-2750.63,0,0
43842.225,73.5637,-2733.07,0,0
44102.55,73.544,-2717.16,0,0
44362.875,72.1447,-2700.13,0,0
44623.2,72.1478,-2683.1,0,0
44883.525,71.8462,-2667.51,0,0
45143.85,71.102,-2651.52,0,0
45404.175,70.7867,-2634.97,0,0
45664.5,71.5823,-2618.45,0,0
45924.825,72.589,-2604.18,0,0
46185.15,70.7922,-2590.51,0,0
46445.475,70.175,-2573.59,0,0
46705.8,71.2224,-2558.87,0,0
46966.125,71.4516,-2544.88,0,0
47226.45,72.2552,-2530.72,0,0
47486.775,70.8455,-2517.8,0,0
47747.1,69.8617,-2503.79,0,0
48007.425,69.1507,-2489.6,0,0
48267.75,68.3611,-2475.59,0,0
48528.075,67.856,-2461.86,0,0
48788.4,66.8,-2448.11,0,0
49048.725,65.7791,-2433.96,0,0
49309.05,66.0865,-2420.03,0,0
49569.375,65.0746,-2407.1,0,0
49829.7,64.7338,-2392.94,0,0
50090.025,64.4857,-2379.75,0,0
50350.35,64.3609,-2366.21,0,0
50610.675,64.1583,-2353.16,0,0
50871.0,63.8547,-2340.06,0,0
51131.325,63.7379,-2327.11,0,0
51391.65,63.646,-2314.08,0,0
51651.975,63.8073,-2301.33,0,0
51912.3,63.4427,-2288.58,0,0
52172.625,64.0138,-2275.63,0,0
52432.95,64.041,-2263.48,0,0
52693.275,64.4504,-2250.46,0,0
52953.6,65.6801,-2238.02,0,0
53213.925,66.2554,-2226.29,0,0
53474.25,67.2807,-2214.35,0,0
53734.575,68.4265,-2202.13,0,0
53994.9,71.2919,-2190.64,0,0
54255.225,73.5442,-2180.77,0,0
54515.55,76.1569,-2172.4,0,0
54775.875,75.8464,-2165.53,0,0
55036.2,73.9535,-2156.43,0,0
55296.525,73.3172,-2147.12,0,0
55556.85,71.4662,-2137.81,0,0
55817.175,69.5695,-2127.64,0,0
56077.5,68.0324,-2116.91,0,0
56337.825,66.7467,-2106.21,0,0
56598.15,65.7146,-2094.6,0,0
56858.475,65.4293,-2083.26,0,0
57118.8,65.8946,-2072.54,0,0
57379.125,65.6994,-2062.11,0,0
57639.45,65.9534,-2051.56,0,0
57899.775,65.9953,-2041.27,0,0
58160.1,66.2597,-2030.63,0,0
58420.4,67.5389,-2020.36,0,0
58680.7,67.7972,-2011.81,0,0
58941.1,67.3865,-2001.21,0,0
59201.4,68.6008,-1990.48,0,0
59461.7,70.4437,-1980.3,0,0
59722,72.9987,-1970.93,0,0
59982.4,75.733,-1963.97,0,0
60242.7,75.7169,-1956.25,0,0
60503,77.4908,-1947.83,0,0
60763.3,80.7122,-1941.63,0,0
61023.7,80.6774,-1938.21,0,0
61284,78.6827,-1933.67,0,0
61544.3,73.9244,-1927.45,0,0
61804.6,70.8719,-1917.42,0,0
62065,69.6186,-1908.66,0,0
62325.3,68.3088,-1900.6,0,0
62585.6,65.2703,-1891.63,0,0
62845.9,64.5161,-1881.08,0,0
63106.3,63.9368,-1871.69,0,0
63366.6,63.9164,-1862.39,0,0
63626.9,64.0185,-1853.75,0,0
63887.2,63.8945,-1845.67,0,0
64147.6,62.9253,-1836.5,0,0
64407.9,63.4603,-1827.22,0,0
64668.2,64.2222,-1818.87,0,0
64928.5,64.5581,-1811.19,0,0
65188.9,64.2793,-1803.1,0,0
65449.2,64.5434,-1794.56,0,0
65709.5,64.828,-1785.94,0,0
65969.8,66.3419,-1777.69,0,0
66230.2,67.3162,-1770.64,0,0
66490.5,67.9716,-1763.59,0,0
66750.8,68.3812,-1756.56,0,0
67011.1,68.5128,-1748.88,0,0
67271.5,69.6734,-1741.49,0,0
67531.8,70.8227,-1734.74,0,0
67792.1,72.0423,-1728.42,0,0
68052.4,73.0631,-1722.46,0,0
68312.8,73.8687,-1717.15,0,0
68573.1,74.0778,-1712.19,0,0
68833.4,73.4701,-1707.71,0,0
69093.7,71.9251,-1702.94,0,0
69354.1,69.4854,-1696.97,0,0
69614.4,67.6096,-1689.78,0,0
69874.7,66.3909,-1682.81,0,0
70135,65.2005,-1675.57,0,0
70395.4,64.0944,-1668.19,0,0
70655.7,64.2622,-1659.92,0,0
70916,65.2909,-1654.06,0,0
71176.3,64.73,-1648.17,0,0
71436.7,64.4564,-1642.05,0,0
71697,63.7464,-1636.74,0,0
71957.3,61.6356,-1630.8,0,0
72217.6,59.8574,-1623.6,0,0
72478,58.9109,-1616.05,0,0
72738.3,58.3415,-1609.13,0,0
72998.6,57.1975,-1601.91,0,0
73258.9,56.7947,-1594,0,0
73519.3,57.1519,-1586.67,0,0
73779.6,57.4364,-1579.74,0,0
74039.9,57.7999,-1573.1,0,0
74300.225,57.7547,-1566.29,0,0
74560.55,58.2778,-1559.53,0,0
74820.875,58.6579,-1552.89,0,0
75081.2,59.5189,-1546.42,0,0
75341.525,60.2605,-1540.58,0,0
75601.85,60.6041,-1534.64,0,0
75862.175,60.9927,-1528.76,0,0
76122.5,61.5188,-1522.76,0,0
76382.825,61.9652,-1517.38,0,0
76643.15,61.9358,-1511.7,0,0
76903.475,61.8073,-1505.49,0,0
77163.8,63.0752,-1499.11,0,0
77424.125,64.4263,-1494.05,0,0
77684.45,65.3681,-1489.32,0,0
77944.775,65.9133,-1485.08,0,0
78205.1,65.8189,-1480.7,0,0
78465.425,65.6236,-1476.32,0,0
78725.75,64.9439,-1471.8,0,0
78986.075,64.0986,-1467.07,0,0
79246.4,63.193,-1461.88,0,0
79506.725,62.4723,-1456.46,0,0
79767.05,61.9233,-1450.99,0,0
80027.375,61.4196,-1445.52,0,0
80287.7,61.1243,-1440.02,0,0
80548.025,60.8793,-1434.5,0,0
80808.35,60.9859,-1429.1,0,0
81068.675,61.003,-1423.95,0,0
81329.0,60.9018,-1418.95,0,0
81589.325,60.7368,-1413.93,0,0
81849.65,60.5451,-1409.01,0,0
82109.975,60.2397,-1404.06,0,0
82370.3,59.9694,-1399.01,0,0
82630.625,59.7952,-1393.99,0,0
82890.95,59.5118,-1389.1,0,0
83151.275,59.2136,-1384.11,0,0
83411.6,58.8273,-1379.15,0,0
83671.925,58.6031,-1374.16,0,0
83932.25,58.3964,-1369.11,0,0
84192.575,58.1438,-1364.22,0,0
84452.9,57.96,-1359.31,0,0
84713.225,57.7678,-1354.39,0,0
84973.55,57.5492,-1349.56,0,0
85233.875,57.345,-1344.72,0,0
85494.2,57.0721,-1339.91,0,0
85754.525,56.8351,-1335.11,0,0
86014.85,56.6219,-1330.21,0,0
86275.175,56.4985,-1325.36,0,0
86535.5,56.426,-1320.61,0,0
86795.825,56.222,-1316.01,0,0
87056.15,56.0404,-1311.4,0,0
87316.475,55.7537,-1306.73,0,0
87576.8,55.5026,-1302.15,0,0
87837.125,55.3417,-1297.66,0,0
88097.45,54.626,-1293.12,0,0
88357.775,54.1683,-1288.11,0,0
88618.1,54.0568,-1283.1,0,0
88878.425,53.8908,-1278.42,0,0
89138.75,53.6016,-1273.65,0,0
89399.075,53.4127,-1268.68,0,0
89659.4,53.5592,-1263.88,0,0
89919.725,53.5512,-1259.23,0,0
90180,53.6887,-1254.61,0,0
90440.4,53.4123,-1250.06,0,0
90700.7,53.3906,-1245.5,0,0
90961,53.3833,-1240.84,0,0
91221.3,53.2329,-1236.15,0,0
91481.7,53.4032,-1231.42,0,0
91742,53.4932,-1226.82,0,0
92002.3,53.741,-1222.23,0,0
92262.6,54.0729,-1217.79,0,0
92523,54.3153,-1213.46,0,0
92783.3,54.7541,-1209.14,0,0
93043.6,55.0838,-1205.14,0,0
93303.9,55.2228,-1201.21,0,0
93564.3,55.2634,-1197.33,0,0
93824.6,55.1214,-1193.53,0,0
94084.9,54.7493,-1189.65,0,0
94345.2,54.1986,-1185.54,0,0
94605.6,53.7645,-1181.22,0,0
94865.9,53.4069,-1176.77,0,0
95126.2,53.1896,-1172.28,0,0
95386.5,53.0529,-1167.72,0,0
95646.9,52.9718,-1163.24,0,0
95907.2,53.0328,-1158.77,0,0
96167.5,53.0869,-1154.35,0,0
96427.8,53.27,-1149.93,0,0
96688.2,53.3477,-1145.7,0,0
96948.5,53.3714,-1141.37,0,0
97208.8,53.5368,-1136.93,0,0
97469.1,53.7471,-1132.64,0,0
97729.5,53.8255,-1128.35,0,0
97989.8,54.0507,-1123.98,0,0
98250.1,54.3807,-1119.61,0,0
98510.4,54.6954,-1115.31,0,0
98770.8,55.0941,-1110.97,0,0
99031.1,55.5981,-1106.7,0,0
99291.4,56.1472,-1102.6,0,0
99551.7,56.6738,-1098.61,0,0
99812.1,57.0841,-1094.54,0,0
100072,57.6017,-1090.34,0,0
100333,58.4254,-1086.23,0,0
100593,59.5093,-1082.43,0,0
100853,60.3422,-1079.2,0,0
101114,60.7409,-1075.78,0,0
101374,61.4719,-1072.43,0,0
101634,62.1336,-1069.64,0,0
101895,61.9192,-1067.19,0,0
102155,61.033,-1064.21,0,0
102415,59.9603,-1060.61,0,0
102676,59.116,-1056.49,0,0
102936,58.4001,-1052.21,0,0
103196,57.8089,-1047.62,0,0
103457,57.5782,-1042.78,0,0
103717,57.7391,-1037.97,0,0
103977,58.0215,-1033.26,0,0
104238,58.3796,-1028.5,0,0
104498,59.0281,-1023.66,0,0
104758,59.9202,-1018.98,0,0
105019,60.9495,-1014.41,0,0
105279,62.0467,-1010.06,0,0
105539,63.2245,-1005.75,0,0
105800,64.5013,-1001.53,0,0
106060,65.9071,-997.493,0,0
106320.175,67.2998,-993.572,0,0
106580.5,68.7003,-989.8,0,0
106840.825,70.0988,-986.127,0,0
107101.15,71.3819,-982.528,0,0
107361.475,72.6379,-978.989,0,0
107621.8,73.8201,-975.277,0,0
107882.125,75.272,-971.55,0,0
108142.45,76.8885,-967.941,0,0
108402.775,78.5808,-964.489,0,0
108663.1,80.2613,-961.175,0,0
108923.425,82.0566,-957.946,0,0
109183.75,83.9673,-954.942,0,0
109444.075,85.8556,-952.211,0,0
109704.4,87.5097,-949.728,0,0
109964.725,88.9951,-947.204,0,0
110225.05,90.5531,-944.631,0,0
110485.375,92.1021,-942.297,0,0
110745.7,93.4609,-940.082,0,0
111006.025,94.8056,-937.88,0,0
111266.35,95.8326,-935.628,0,0
111526.675,97.0215,-933.439,0,0
111787.0,98.253,-931.196,0,0
112047.325,99.423,-929.048,0,0
112307.65,100.64,-926.992,0,0
112567.975,101.636,-925.036,0,0
112828.3,102.714,-923.096,0,0
113088.625,103.711,-921.25,0,0
113348.95,104.6,-919.482,0,0
113609.275,105.396,-917.704,0,0
113869.6,106.09,-915.983,0,0
114129.925,106.758,-914.155,0,0
114390.25,107.433,-912.436,0,0
114650.575,108.08,-910.681,0,0
114910.9,108.648,-909.149,0,0
115171.225,109.099,-907.642,0,0
115431.55,109.34,-906.135,0,0
115691.875,109.422,-904.518,0,0
115952.2,109.544,-902.797,0,0
116212.525,109.591,-901.104,0,0
116472.85,109.634,-899.388,0,0
116733.175,109.56,-897.688,0,0
116993.5,109.359,-895.921,0,0
117253.825,109.038,-894.067,0,0
117514.15,108.712,-891.991,0,0
117774.475,108.397,-889.776,0,0
118034.8,108.199,-887.419,0,0
118295.125,108.128,-885.066,0,0
118555.45,108.012,-882.677,0,0
118815.775,107.866,-879.921,0,0
119076.1,108.31,-876.988,0,0
119336.425,109.329,-874.2,0,0
119596.75,110.742,-871.985,0,0
119857.075,112.33,-870.215,0,0
120117.4,114.075,-869.572,0,0
120377.725,114.77,-869.701,0,0
120638.05,114.562,-869.893,0,0
120898.375,113.474,-869.835,0,0
121158.7,111.834,-869.099,0,0
121419.025,110.127,-867.725,0,0
121679.35,108.5,-865.949,0,0
121939.675,106.993,-863.784,0,0
122200.0,105.732,-861.456,0,0
122460,104.575,-858.963,0,0
122721,103.704,-856.432,0,0
122981,102.853,-853.988,0,0
123241,102,-851.451,0,0
123502,101.282,-848.851,0,0
123762,100.612,-846.237,0,0
124022,100.055,-843.601,0,0
124283,99.599,-841.013,0,0
124543,99.1241,-838.412,0,0
124803,98.7429,-835.803,0,0
125064,98.5265,-833.208,0,0
125324,98.4199,-830.801,0,0
125584,98.2296,-828.556,0,0
125845,98.0403,-826.446,0,0
126105,97.6957,-824.448,0,0
126365,97.1907,-822.518,0,0
126626,96.5969,-820.528,0,0
126886,95.8858,-818.53,0,0
127146,95.0074,-816.403,0,0
127406,94.2798,-814.269,0,0
127667,93.5485,-812.205,0,0
127927,92.6221,-810.334,0,0
128187,91.2757,-808.395,0,0
128448,89.8453,-806.118,0,0
128708,88.3555,-803.779,0,0
128968,86.661,-801.261,0,0
129229,84.8809,-798.409,0,0
129489,83.2654,-795.2,0,0
129749,81.8282,-791.882,0,0
130010,80.522,-788.438,0,0
130270,79.3287,-784.9,0,0
130530,78.2626,-781.383,0,0
130791,77.1993,-777.778,0,0
131051,76.2415,-774.051,0,0
131311,75.4486,-770.247,0,0
131572,74.7939,-766.463,0,0
131832,74.1833,-762.722,0,0
132092,73.6511,-758.916,0,0
132353,73.2083,-755.096,0,0
132613,72.8562,-751.302,0,0
132873,72.5728,-747.497,0,0
133134,72.3249,-743.735,0,0
133394,72.0861,-739.939,0,0
133654,71.9464,-736.079,0,0
133915,71.9201,-732.231,0,0
134175,71.9467,-728.441,0,0
134435,72.0081,-724.696,0,0
134696,72.0904,-720.933,0,0
134956,72.1798,-717.144,0,0
135216,72.4196,-713.316,0,0
135477,72.7472,-709.561,0,0
135737,73.0326,-705.921,0,0
135997,73.3702,-702.269,0,0
136258,73.6677,-698.505,0,0
136518,74.0898,-694.81,0,0
136778,74.6312,-691.161,0,0
137039,75.187,-687.674,0,0
137299,75.5702,-684.286,0,0
137559,75.8577,-680.789,0,0
137819,76.1379,-677.233,0,0
138080,76.4236,-673.52,0,0
138340.125,76.8262,-669.784,0,0
138600.45,77.2672,-666.033,0,0
138860.775,77.7603,-662.249,0,0
139121.1,78.2945,-658.385,0,0
139381.425,78.97,-654.542,0,0
139641.75,79.6952,-650.756,0,0
139902.075,80.4125,-646.977,0,0
140162.4,81.1194,-643.12,0,0
140422.725,81.9876,-639.207,0,0
140683.05,82.9815,-635.326,0,0
140943.375,84.041,-631.493,0,0
141203.7,85.1472,-627.735,0,0
141464.025,86.2934,-624.005,0,0
141724.35,87.484,-620.35,0,0
141984.675,88.6611,-616.771,0,0
142245.0,89.7626,-613.197,0,0
142505.325,90.8847,-609.538,0,0
142765.65,92.1125,-605.841,0,0
143025.975,93.3726,-602.198,0,0
143286.3,94.6714,-598.596,0,0
143546.625,95.9253,-595.022,0,0
143806.95,97.1909,-591.365,0,0
144067.275,98.506,-587.656,0,0
144327.6,99.9135,-583.998,0,0
144587.925,101.321,-580.342,0,0
144848.25,102.742,-576.656,0,0
145108.575,104.231,-572.948,0,0
145368.9,105.783,-569.197,0,0
145629.225,107.387,-565.43,0,0
145889.55,109.075,-561.654,0,0
146149.875,110.867,-557.891,0,0
146410.2,112.692,-554.166,0,0
146670.525,114.617,-550.458,0,0
146930.85,116.547,-546.775,0,0
147191.175,118.548,-543.095,0,0
147451.5,120.613,-539.348,0,0
147711.825,122.787,-535.672,0,0
147972.15,125.001,-532.037,0,0
148232.475,127.227,-528.422,0,0
148492.8,129.453,-524.786,0,0
148753.125,131.809,-521.132,0,0
149013.45,134.254,-517.523,0,0
149273.775,136.611,-513.933,0,0
149534.1,138.99,-510.166,0,0
149794.425,141.597,-506.214,0,0
150054.75,144.473,-502.285,0,0
150315.075,147.574,-498.473,0,0
150575.4,150.82,-494.764,0,0
150835.725,154.192,-491.142,0,0
151096.05,157.672,-487.615,0,0
151356.375,161.269,-484.095,0,0
151616.7,165.098,-480.658,0,0
151877.025,169.045,-477.345,0,0
152137.35,173.277,-474.099,0,0
152397.675,177.804,-471.157,0,0
152658.0,182.421,-468.639,0,0
152918.325,186.91,-466.307,0,0
153178.65,191.562,-464.17,0,0
153438.975,196.291,-462.377,0,0
153699.3,200.952,-461.008,0,0
153959.625,205.365,-459.887,0,0
154219.95,209.609,-458.95,0,0
154480,213.705,-458.213,0,0
154741,217.368,-457.641,0,0
155001,220.787,-456.883,0,0
155261,224.188,-455.852,0,0
155522,227.953,-454.789,0,0
155782,231.866,-454.262,0,0
156042,235.214,-454.052,0,0
156303,238.222,-453.565,0,0
156563,241.123,-452.795,0,0
156823,244.394,-451.983,0,0
157084,247.614,-451.365,0,0
157344,250.639,-450.937,0,0
157604,253.43,-450.292,0,0
157864,256.166,-449.213,0,0
158125,259.318,-447.926,0,0
158385,262.994,-446.733,0,0
158645,266.993,-445.944,0,0
158906,270.929,-445.492,0,0
159166,275.023,-445.356,0,0
159426,278.858,-445.911,0,0
159687,282.037,-446.48,0,0
159947,285.069,-446.682,0,0
160207,288.654,-446.764,0,0
160468,292.337,-447.577,0,0
160728,295.547,-448.846,0,0
160988,298.369,-450.067,0,0
161249,300.911,-451.405,0,0
161509,303.02,-452.692,0,0
161769,305.115,-454.016,0,0
162030,306.649,-455.227,0,0
162290,307.988,-456.275,0,0
162550,309.163,-457.208,0,0
162811,310.075,-457.996,0,0
163071,310.5,-458.486,0,0
163331,310.739,-458.422,0,0
163592,311.031,-457.717,0,0
163852,311.664,-456.527,0,0
164112,312.476,-455.12,0,0
164373,313.603,-453.218,0,0
164633,315.46,-451.274,0,0
164893,317.44,-449.576,0,0
165154,319.438,-447.553,0,0
165414,321.841,-445.127,0,0
165674,325.021,-442.428,0,0
165935,328.982,-440.042,0,0
166195,333.499,-437.988,0,0
166455,338.443,-436.449,0,0
166716,343.779,-435.173,0,0
166976,349.695,-434.601,0,0
167236,355.828,-434.9,0,0
167497,361.764,-435.804,0,0
167757,367.676,-437.139,0,0
168017,373.698,-439.34,0,0
168277,379.073,-441.964,0,0
168538,384.507,-444.75,0,0
168798,390.176,-447.86,0,0
169058,395.88,-451.946,0,0
169319,401.14,-456.94,0,0
169579,405.995,-462.543,0,0
169839,410.346,-468.925,0,0
170100,413.985,-476.047,0,0
170360.075,416.51,-483.822,0,0
170620.4,417.946,-491.967,0,0
170880.725,418.081,-500.179,0,0
171141.05,417.207,-507.964,0,0
171401.375,415.634,-515.497,0,0
171661.7,413.224,-523.025,0,0
171922.025,409.659,-530.315,0,0
172182.35,405.06,-536.824,0,0
172442.675,399.751,-542.648,0,0
172703.0,393.646,-547.504,0,0
172963.325,387.368,-551.278,0,0
173223.65,380.893,-554.405,0,0
173483.975,373.997,-556.77,0,0
173744.3,366.999,-557.995,0,0
174004.625,360.279,-558.363,0,0
174264.95,353.709,-558.073,0,0
174525.275,347.471,-557.125,0,0
174785.6,341.557,-555.922,0,0
175045.925,335.437,-554.334,0,0
175306.25,329.29,-551.785,0,0
175566.575,323.658,-548.374,0,0
175826.9,318.679,-544.456,0,0
176087.225,314.236,-540.117,0,0
176347.55,310.456,-535.465,0,0
176607.875,307.31,-530.684,0,0
176868.2,304.628,-525.852,0,0
177128.525,302.451,-521.007,0,0
177388.85,300.618,-516.254,0,0
177649.175,299.143,-511.492,0,0
177909.5,297.995,-506.837,0,0
178169.825,297.042,-502.189,0,0
178430.15,296.358,-497.527,0,0
178690.475,295.988,-492.889,0,0
178950.8,295.9,-488.297,0,0
179211.125,296.175,-483.783,0,0
179471.45,296.737,-479.496,0,0
179731.775,297.497,-475.524,0,0
179992.1,298.241,-471.744,0,0
180252.425,299.08,-468.152,0,0
180512.75,299.871,-464.716,0,0
180773.075,300.643,-461.313,0,0
181033.4,301.434,-457.957,0,0
181293.725,302.259,-454.703,0,0
181554.05,303.035,-451.512,0,0
181814.375,303.818,-448.364,0,0
182074.7,304.518,-445.255,0,0
182335.025,305.139,-442.183,0,0
182595.35,305.606,-439.022,0,0
182855.675,305.953,-435.684,0,0
183116.0,306.32,-432.105,0,0
183376.325,306.807,-428.363,0,0
183636.65,307.368,-424.493,0,0
183896.975,308.046,-420.48,0,0
184157.3,308.877,-416.338,0,0
184417.625,309.861,-412.126,0,0
184677.95,310.98,-407.851,0,0
184938.275,312.266,-403.526,0,0
185198.6,313.667,-399.229,0,0
185458.925,315.098,-394.893,0,0
185719.25,316.56,-390.513,0,0
185979.575,318.073,-386.019,0,0
186239.9,319.673,-381.325,0,0
186500,321.422,-376.449,0,0
186761,323.307,-371.581,0,0
187021,325.337,-366.493,0,0
187281,327.512,-361.254,0,0
187542,329.992,-355.763,0,0
187802,332.797,-350.324,0,0
188062,335.729,-344.746,0,0
188322,338.986,-339.186,0,0
188583,342.371,-333.496,0,0
188843,346.051,-327.672,0,0
189103,349.983,-321.887,0,0
189364,354.166,-315.97,0,0
189624,358.69,-309.951,0,0
189884,363.533,-303.88,0,0
190145,368.868,-297.843,0,0
190405,374.429,-291.88,0,0
190665,380.327,-285.795,0,0
190926,386.596,-279.887,0,0
191186,393.229,-273.835,0,0
191446,400.418,-267.902,0,0
191707,407.952,-262.165,0,0
191967,415.968,-256.506,0,0
192227,424.357,-251.239,0,0
192488,433.045,-246.071,0,0
192748,442.17,-241.113,0,0
193008,451.687,-236.442,0,0
193269,461.458,-232.107,0,0
193529,471.614,-228.046,0,0
193789,482.075,-224.157,0,0
194050,492.886,-220.864,0,0
194310,503.75,-217.696,0,0
194570,514.883,-214.826,0,0
194831,526.358,-212.146,0,0
195091,538.112,-209.697,0,0
195351,550.155,-207.542,0,0
195612,562.557,-205.652,0,0
195872,575.417,-204.004,0,0
196132,588.708,-202.764,0,0
196393,602.419,-201.937,0,0
196653,616.544,-201.599,0,0
196913,631.106,-201.705,0,0
197174,646.076,-202.36,0,0
197434,661.453,-203.61,0,0
197694,677.26,-205.407,0,0
197955,693.555,-207.889,0,0
198215,710.298,-211.052,0,0
198475,727.652,-214.928,0,0
198735,745.879,-219.933,0,0
198996,764.706,-226.462,0,0
199256,783.645,-234.884,0,0
199516,802.212,-245.054,0,0
199777,820.147,-256.705,0,0
200037,837.406,-269.421,0,0
200297,854.34,-283.388,0,0
200558,870.575,-298.999,0,0
200818,885.659,-315.841,0,0
201078,899.521,-333.748,0,0
201339,912.296,-352.707,0,0
201599,923.556,-372.651,0,0
201859,933.071,-392.865,0,0
202120,941.418,-413.157,0,0
202380.025,948.796,-433.645,0,0
202640.35,954.697,-454.318,0,0
202900.675,959.835,-474.855,0,0
203161.0,964.449,-495.631,0,0
203421.325,968.183,-517.314,0,0
203681.65,970.221,-539.69,0,0
203941.975,969.974,-561.699,0,0
204202.3,968.397,-582.644,0,0
204462.625,966.388,-602.687,0,0
204722.95,964.021,-622.743,0,0
204983.275,960.692,-642.788,0,0
205243.6,955.96,-662.736,0,0
205503.925,950.542,-681.869,0,0
205764.25,944.212,-700.744,0,0
206024.575,937.139,-718.874,0,0
206284.9,929.763,-736.831,0,0
206545.225,921.496,-754.743,0,0
206805.55,911.637,-772.393,0,0
207065.875,900.858,-788.942,0,0
207326.2,889.154,-804.815,0,0
207586.525,876.72,-819.482,0,0
207846.85,863.423,-833.565,0,0
208107.175,849.953,-845.984,0,0
208367.5,835.816,-858.113,0,0
208627.825,820.844,-868.973,0,0
208888.15,805.44,-878.411,0,0
209148.475,790.07,-886.071,0,0
209408.8,774.98,-892.469,0,0
209669.125,760.496,-897.727,0,0
209929.45,746.642,-902.325,0,0
210189.775,733.072,-906.289,0,0
210450.1,719.708,-909.593,0,0
210710.425,706.77,-912.074,0,0
210970.75,694.214,-913.915,0,0
211231.075,682.505,-915.109,0,0
211491.4,671.301,-916.124,0,0
211751.725,660.419,-917.099,0,0
212012.05,649.692,-917.637,0,0
212272.375,639.178,-917.796,0,0
212532.7,629.02,-917.537,0,0
212793.025,619.027,-917.031,0,0
213053.35,609.074,-915.706,0,0
213313.675,600.105,-913.527,0,0
213574.0,591.864,-911.088,0,0
213834.325,584.539,-908.306,0,0
214094.65,578.316,-905.593,0,0
214354.975,573.042,-903.196,0,0
214615.3,568.448,-901.546,0,0
214875.625,564.147,-900.57,0,0
215135.95,559.722,-899.99,0,0
215396.275,555.552,-899.943,0,0
215656.6,551.171,-900.335,0,0
215916.925,546.313,-901.039,0,0
216177.25,541.282,-901.651,0,0
216437.575,536.028,-902.022,0,0
216697.9,530.886,-902.235,0,0
216958.225,525.932,-902.503,0,0
217218.55,520.913,-902.862,0,0
217478.875,515.733,-903.142,0,0
217739.2,510.62,-903.394,0,0
217999.525,505.512,-903.441,0,0
218259.85,500.46,-903.452,0,0
218520,495.608,-903.402,0,0
218780,490.821,-903.557,0,0
219041,486.048,-903.687,0,0
219301,481.1,-903.895,0,0
219561,476.131,-904.045,0,0
219822,471.181,-904.141,0,0
220082,465.976,-904.187,0,0
220342,460.648,-903.962,0,0
220603,455.353,-903.497,0,0
220863,450.229,-902.806,0,0
221123,445.381,-901.826,0,0
221384,440.715,-901.024,0,0
221644,436.157,-900.184,0,0
221904,431.645,-899.298,0,0
222165,427.154,-898.414,0,0
222425,422.814,-897.283,0,0
222685,418.723,-896.109,0,0
222946,414.871,-895.13,0,0
223206,411.119,-894.204,0,0
223466,407.651,-893.316,0,0
223727,404.215,-892.74,0,0
223987,400.795,-892.481,0,0
224247,397.131,-892.414,0,0
224508,393.283,-892.377,0,0
224768,389.303,-892.431,0,0
225028,385.235,-892.449,0,0
225289,380.905,-892.363,0,0
225549,376.412,-892.32,0,0
225809,371.894,-892.04,0,0
226070,367.297,-891.899,0,0
226330,362.537,-891.577,0,0
226590,357.708,-891.152,0,0
226851,352.811,-890.635,0,0
227111,347.632,-889.995,0,0
227371,342.382,-889.136,0,0
227632,337.173,-888.013,0,0
227892,331.808,-886.747,0,0
228152,326.431,-885.191,0,0
228413,320.975,-883.323,0,0
228673,315.78,-881.134,0,0
228933,310.649,-878.624,0,0
229193,305.791,-876.018,0,0
229454,301.064,-873.222,0,0
229714,296.628,-870.338,0,0
229974,292.417,-867.385,0,0
230235,288.207,-864.542,0,0
230495,284.01,-861.571,0,0
230755,279.828,-858.383,0,0
231016,275.864,-854.964,0,0
231276,272.285,-851.393,0,0
231536,268.981,-847.851,0,0
231797,265.932,-844.438,0,0
232057,262.995,-841.164,0,0
232317,260.047,-838.036,0,0
232578,257.173,-834.831,0,0
232838,254.17,-831.568,0,0
233098,251.253,-828.245,0,0
233359,248.492,-824.801,0,0
233619,245.919,-821.105,0,0
233879,243.672,-817.421,0,0
234140,241.668,-813.963,0,0
234400,239.753,-810.59,0,0
234660.3,237.868,-807.318,0,0
234920.625,236.153,-804.078,0,0
235180.95,234.478,-801.004,0,0
235441.275,232.734,-797.941,0,0
235701.6,231.053,-794.96,0,0
235961.925,229.306,-791.893,0,0
236222.25,227.725,-788.821,0,0
236482.575,226.118,-785.758,0,0
236742.9,224.583,-782.643,0,0
237003.225,223.108,-779.445,0,0
237263.55,221.874,-776.184,0,0
237523.875,220.785,-773.003,0,0
237784.2,219.797,-769.953,0,0
238044.525,218.913,-766.905,0,0
238304.85,218.147,-763.971,0,0
238565.175,217.418,-761.091,0,0
238825.5,216.802,-758.261,0,0
239085.825,216.248,-755.608,0,0
239346.15,215.725,-752.95,0,0
239606.475,215.228,-750.394,0,0
239866.8,214.736,-747.947,0,0
240127.125,214.397,-745.415,0,0
240387.45,214.071,-743.077,0,0
240647.775,213.828,-740.804,0,0
240908.1,213.591,-738.697,0,0
241168.425,213.354,-736.654,0,0
241428.75,213.127,-734.707,0,0
241689.075,212.887,-732.904,0,0
241949.4,212.567,-731.124,0,0
242209.725,212.265,-729.408,0,0
242470.05,211.934,-727.846,0,0
242730.375,211.567,-726.316,0,0
242990.7,211.161,-724.886,0,0
243251.025,210.641,-723.562,0,0
243511.35,210.036,-722.262,0,0
243771.675,209.312,-720.99,0,0
244032.0,208.473,-719.677,0,0
244292.325,207.453,-718.456,0,0
244552.65,206.336,-717.068,0,0
244812.975,205.145,-715.56,0,0
245073.3,204.035,-713.937,0,0
245333.625,202.773,-712.243,0,0
245593.95,201.608,-710.517,0,0
245854.275,200.371,-708.706,0,0
246114.6,199.198,-706.727,0,0
246374.925,198.1,-704.757,0,0
246635.25,196.946,-702.644,0,0
246895.575,195.918,-700.434,0,0
247155.9,195.039,-698.136,0,0
247416.225,194.261,-695.929,0,0
247676.55,193.488,-693.705,0,0
247936.875,192.716,-691.444,0,0
248197.2,192.037,-689.122,0,0
248457.525,191.534,-686.835,0,0
248717.85,191.082,-684.469,0,0
248978.175,190.801,-682.179,0,0
249238.5,190.569,-679.979,0,0
249498.825,190.425,-677.879,0,0
249759.15,190.36,-675.829,0,0
250019.475,190.278,-673.873,0,0
250279.8,190.269,-672.141,0,0
250540,190.172,-670.519,0,0
250800,189.876,-669.06,0,0
251061,189.388,-667.565,0,0
251321,188.788,-665.955,0,0
251581,188.117,-664.313,0,0
251842,187.377,-662.539,0,0
252102,186.598,-660.615,0,0
252362,185.863,-658.538,0,0
252623,185.202,-656.367,0,0
252883,184.672,-654.137,0,0
253143,184.202,-651.923,0,0
253404,183.801,-649.793,0,0
253664,183.336,-647.683,0,0
253924,182.86,-645.619,0,0
254185,182.15,-643.556,0,0
254445,181.343,-641.253,0,0
254705,180.452,-638.698,0,0
254966,179.701,-635.86,0,0
255226,179.057,-632.771,0,0
255486,178.64,-629.618,0,0
255747,178.452,-626.352,0,0
256007,178.326,-622.988,0,0
256267,178.377,-619.552,0,0
256528,178.638,-615.984,0,0
256788,179.067,-612.356,0,0
257048,179.714,-608.654,0,0
257309,180.643,-604.924,0,0
257569,181.874,-601.179,0,0
257829,183.338,-597.491,0,0
258090,184.997,-593.865,0,0
258350,186.956,-590.278,0,0
258610,189.154,-586.798,0,0
258871,191.605,-583.489,0,0
259131,194.246,-580.399,0,0
259391,197,-577.494,0,0
259651,199.836,-574.714,0,0
259912,202.825,-571.946,0,0
260172,206.038,-569.361,0,0
260432,209.437,-566.882,0,0
260693,213.046,-564.655,0,0
260953,216.723,-562.664,0,0
261213,220.507,-560.858,0,0
261474,224.44,-559.103,0,0
261734,228.616,-557.534,0,0
261994,233.143,-556.244,0,0
262255,237.852,-555.406,0,0
262515,242.725,-555.05,0,0
262775,247.647,-555.285,0,0
263036,252.379,-556.149,0,0
263296,256.666,-557.485,0,0
263556,260.545,-558.747,0,0
263817,264.219,-560.297,0,0
264077,267.672,-561.877,0,0
264337,270.954,-563.507,0,0
264598,274.055,-565.081,0,0
264858,277.219,-566.682,0,0
265118,280.468,-568.288,0,0
265379,283.831,-570.117,0,0
265639,287.191,-572.076,0,0
265899,290.634,-574.253,0,0
266160,294.181,-576.841,0,0
266420,297.81,-579.829,0,0
266680.25,301.261,-583.399,0,0
266940.575,304.46,-587.473,0,0
267200.9,307.29,-592.044,0,0
267461.225,309.59,-596.965,0,0
267721.55,311.382,-602.259,0,0
267981.875,312.469,-607.755,0,0
268242.2,312.763,-613.331,0,0
268502.525,312.4,-618.691,0,0
268762.85,311.536,-623.676,0,0
269023.175,310.286,-628.415,0,0
269283.5,308.709,-632.936,0,0
269543.825,306.736,-637.184,0,0
269804.15,304.421,-640.907,0,0
270064.475,301.998,-644.266,0,0
270324.8,299.594,-647.135,0,0
270585.125,297.266,-649.757,0,0
270845.45,295.127,-652.19,0,0
271105.775,293.099,-654.578,0,0
271366.1,291.029,-657.084,0,0
271626.425,288.842,-659.565,0,0
271886.75,286.373,-662.013,0,0
272147.075,283.698,-664.172,0,0
272407.4,280.975,-665.98,0,0
272667.725,278.332,-667.554,0,0
272928.05,275.875,-668.933,0,0
273188.375,273.598,-670.282,0,0
273448.7,271.533,-671.789,0,0
273709.025,269.472,-673.498,0,0
273969.35,267.149,-675.496,0,0
274229.675,264.565,-677.481,0,0
274490.0,261.641,-679.474,0,0
274750.325,258.421,-681.249,0,0
275010.65,255.014,-682.86,0,0
275270.975,251.478,-684.296,0,0
275531.3,247.747,-685.609,0,0
275791.625,243.718,-686.695,0,0
276051.95,239.48,-687.484,0,0
276312.275,235.012,-687.842,0,0
276572.6,230.383,-687.734,0,0
276832.925,225.815,-687.152,0,0
277093.25,221.336,-686.075,0,0
277353.575,216.99,-684.464,0,0
277613.9,212.963,-682.476,0,0
277874.225,209.281,-680.093,0,0
278134.55,206.048,-677.42,0,0
278394.875,203.256,-674.585,0,0
278655.2,200.958,-671.646,0,0
278915.525,199.108,-668.728,0,0
279175.85,197.688,-665.935,0,0
279436.175,196.649,-663.385,0,0
279696.5,195.856,-661.142,0,0
279956.825,195.117,-659.23,0,0
280217.15,194.318,-657.584,0,0
280477.475,193.29,-656.01,0,0
280737.8,192.268,-654.308,0,0
280998.125,191.258,-652.497,0,0
281258.45,190.358,-650.601,0,0
281518.775,189.705,-648.605,0,0
281779.1,189.396,-646.583,0,0
282039.425,189.313,-644.786,0,0
282299.75,189.367,-643.239,0,0
282560,189.56,-641.873,0,0
282820,189.835,-640.752,0,0
283081,190.08,-639.966,0,0
283341,190.218,-639.366,0,0
283601,190.253,-638.915,0,0
283862,190.18,-638.656,0,0
284122,190.021,-638.459,0,0
284382,189.651,-638.498,0,0
284643,189.055,-638.597,0,0
284903,188.235,-638.682,0,0
285163,187.136,-638.748,0,0
285424,185.744,-638.694,0,0
285684,184.144,-638.5,0,0
285944,182.376,-638.025,0,0
286205,180.552,-637.176,0,0
286465,178.851,-636.062,0,0
286725,177.239,-634.779,0,0
286986,175.705,-633.385,0,0
287246,174.196,-631.84,0,0
287506,172.751,-630.101,0,0
287767,171.414,-628.171,0,0
288027,170.261,-625.968,0,0
288287,169.356,-623.676,0,0
288548,168.702,-621.217,0,0
288808,168.361,-618.755,0,0
289068,168.242,-616.306,0,0
289329,168.355,-613.926,0,0
289589,168.649,-611.541,0,0
289849,169.175,-609.148,0,0
290109,169.962,-606.775,0,0
290370,171.067,-604.536,0,0
290630,172.475,-602.424,0,0
290890,174.119,-600.535,0,0
291151,176.03,-598.938,0,0
291411,178.139,-597.605,0,0
291671,180.39,-596.643,0,0
291932,182.731,-596.045,0,0
292192,185.116,-595.844,0,0
292452,187.434,-595.997,0,0
292713,189.624,-596.496,0,0
292973,191.767,-597.269,0,0
293233,193.77,-598.352,0,0
293494,195.634,-599.743,0,0
293754,197.279,-601.474,0,0
294014,198.706,-603.507,0,0
294275,199.759,-605.85,0,0
294535,200.368,-608.403,0,0
294795,200.496,-611.023,0,0
295056,200.18,-613.572,0,0
295316,199.528,-616.03,0,0
295576,198.495,-618.381,0,0
295837,197.173,-620.542,0,0
296097,195.6,-622.459,0,0
296357,193.823,-624.16,0,0
296618,191.884,-625.562,0,0
296878,189.892,-626.705,0,0
297138,187.838,-627.62,0,0
297399,185.817,-628.303,0,0
297659,183.854,-628.812,0,0
297919,181.961,-629.225,0,0
298180,180.121,-629.571,0,0
298440,178.289,-629.845,0,0
298700.2,176.452,-630.041,0,0
298960.525,174.606,-630.183,0,0
299220.85,172.755,-630.258,0,0
299481.175,170.901,-630.25,0,0
299741.5,169.021,-630.127,0,0
300001.825,167.149,-629.939,0,0
300262.15,165.312,-629.647,0,0
300522.475,163.506,-629.276,0,0
300782.8,161.721,-628.805,0,0
301043.125,159.982,-628.302,0,0
301303.45,158.319,-627.692,0,0
301563.775,156.677,-627.059,0,0
301824.1,155.145,-626.4,0,0
302084.425,153.643,-625.712,0,0
302344.75,152.155,-625.048,0,0
302605.075,150.678,-624.371,0,0
302865.4,149.179,-623.675,0,0
303125.725,147.658,-622.968,0,0
303386.05,146.115,-622.15,0,0
303646.375,144.579,-621.24,0,0
303906.7,143.119,-620.228,0,0
304167.025,141.722,-619.182,0,0
304427.35,140.42,-618.087,0,0
304687.675,139.137,-616.98,0,0
304948.0,137.954,-615.879,0,0
305208.325,136.801,-614.727,0,0
305468.65,135.68,-613.567,0,0
305728.975,134.625,-612.362,0,0
305989.3,133.606,-611.179,0,0
306249.625,132.63,-609.975,0,0
306509.95,131.732,-608.743,0,0
306770.275,130.91,-607.447,0,0
307030.6,130.193,-606.208,0,0
307290.925,129.553,-604.976,0,0
307551.25,128.97,-603.804,0,0
307811.575,128.472,-602.689,0,0
308071.9,128.001,-601.666,0,0
308332.225,127.533,-600.717,0,0
308592.55,127.088,-599.843,0,0
308852.875,126.576,-599.053,0,0
309113.2,125.991,-598.265,0,0
309373.525,125.375,-597.508,0,0
309633.85,124.696,-596.718,0,0
309894.175,123.991,-595.896,0,0
310154.5,123.293,-595.009,0,0
310414.825,122.597,-594.054,0,0
310675.15,121.957,-593.135,0,0
310935.475,121.343,-592.179,0,0
311195.8,120.745,-591.226,0,0
311456.125,120.155,-590.283,0,0
311716.45,119.597,-589.335,0,0
311976.775,119.036,-588.356,0,0
312237.1,118.502,-587.371,0,0
312497.425,118.029,-586.358,0,0
312757.75,117.622,-585.34,0,0
313018.075,117.244,-584.341,0,0
313278.4,116.951,-583.377,0,0
313538.725,116.663,-582.498,0,0
313799.05,116.413,-581.647,0,0
314059.375,116.152,-580.848,0,0
314319.7,115.875,-580.1,0,0
314580,115.555,-579.292,0,0
314840,115.229,-578.608,0,0
315101,114.93,-577.957,0,0
315361,114.628,-577.239,0,0
315621,114.222,-576.581,0,0
315882,114,-575.752,0,0
316142,113.659,-575.087,0,0
316402,113.357,-574.367,0,0
316663,113.064,-573.737,0,0
316923,112.885,-573.029,0,0
317183,112.573,-572.482,0,0
317444,112.287,-571.847,0,0
317704,112.15,-571.347,0,0
317964,111.931,-570.753,0,0
318225,111.749,-570.271,0,0
318485,111.573,-569.809,0,0
318745,111.357,-569.455,0,0
319006,111.151,-569.267,0,0
319266,110.916,-569.023,0,0
319526,110.524,-568.884,0,0
319787,110.038,-568.838,0,0
320047,109.484,-568.736,0,0
320307,108.92,-568.685,0,0
320567,108.232,-568.542,0,0
320828,107.383,-568.585,0,0
321088,106.564,-568.478,0,0
321348,105.596,-568.278,0,0
321609,104.592,-568.078,0,0
321869,103.368,-567.824,0,0
322129,102.247,-567.547,0,0
322390,100.976,-567.106,0,0
322650,99.6265,-566.629,0,0
322910,98.2542,-565.965,0,0
323171,96.8776,-565.13,0,0
323431,95.5279,-564.247,0,0
323691,94.2598,-563.173,0,0
323952,93.0995,-562.064,0,0
324212,91.962,-560.872,0,0
324472,90.9124,-559.742,0,0
324733,89.9333,-558.492,0,0
324993,88.9983,-557.193,0,0
325253,88.0617,-555.87,0,0
325514,87.2921,-554.525,0,0
325774,86.5187,-553.204,0,0
326034,85.8273,-551.851,0,0
326295,85.1969,-550.601,0,0
326555,84.5667,-549.211,0,0
326815,84.0239,-547.9,0,0
327076,83.4681,-546.699,0,0
327336,82.8248,-545.43,0,0
327596,82.2918,-544.122,0,0
327857,81.7528,-542.733,0,0
328117,81.2549,-541.45,0,0
328377,80.7212,-540.096,0,0
328638,80.2735,-538.606,0,0
328898,79.8299,-537.16,0,0
329158,79.5587,-535.598,0,0
329419,79.2876,-534.11,0,0
329679,79.1951,-532.571,0,0
329939,79.0816,-531.074,0,0
330200,79.0082,-529.623,0,0
330460,79.1525,-528.189,0,0
330720.15,79.2786,-526.826,0,0
330980.475,79.5523,-525.441,0,0
331240.8,79.8629,-524.216,0,0
331501.125,80.2302,-523.044,0,0
331761.45,80.6598,-522.068,0,0
332021.775,81.0569,-521.17,0,0
332282.1,81.4468,-520.441,0,0
332542.425,81.7513,-519.816,0,0
332802.75,82.0045,-519.186,0,0
333063.075,82.1106,-518.668,0,0
333323.4,82.087,-518.198,0,0
333583.725,82.0161,-517.658,0,0
333844.05,81.868,-517.143,0,0
334104.375,81.7301,-516.619,0,0
334364.7,81.5244,-516.015,0,0
334625.025,81.2203,-515.293,0,0
334885.35,81.0342,-514.683,0,0
335145.675,80.6701,-514.002,0,0
335406.0,80.3199,-513.355,0,0
335666.325,79.9698,-512.532,0,0
335926.65,79.5982,-511.809,0,0
336186.975,79.2082,-510.998,0,0
336447.3,78.7855,-510.083,0,0
336707.625,78.4271,-509.197,0,0
336967.95,78.0826,-508.192,0,0
337228.275,77.7545,-507.262,0,0
337488.6,77.3825,-506.245,0,0
337748.925,77.0185,-505.202,0,0
338009.25,76.6561,-504.134,0,0
338269.575,76.3493,-502.972,0,0
338529.9,76.0922,-501.765,0,0
338790.225,75.786,-500.52,0,0
339050.55,75.6005,-499.193,0,0
339310.875,75.554,-497.781,0,0
339571.2,75.4807,-496.473,0,0
339831.525,75.5599,-495.091,0,0
340091.85,75.7573,-493.68,0,0
340352.175,75.8963,-492.286,0,0
340612.5,76.225,-490.923,0,0
340872.825,76.5644,-489.55,0,0
341133.15,77.0467,-488.263,0,0
341393.475,77.5585,-487.032,0,0
341653.8,78.2847,-485.786,0,0
341914.125,78.956,-484.685,0,0
342174.45,79.7271,-483.656,0,0
342434.775,80.5453,-482.718,0,0
342695.1,81.3731,-481.913,0,0
342955.425,82.2373,-481.211,0,0
343215.75,83.0671,-480.588,0,0
343476.075,83.9114,-480.041,0,0
343736.4,84.6837,-479.63,0,0
343996.725,85.4921,-479.309,0,0
344257.05,86.1557,-479.006,0,0
344517.375,86.8179,-478.852,0,0
344777.7,87.3977,-478.67,0,0
345038.025,87.9311,-478.626,0,0
345298.35,88.4604,-478.604,0,0
345558.675,88.9346,-478.549,0,0
345819.0,89.238,-478.607,0,0
346079.325,89.4926,-478.64,0,0
346339.65,89.741,-478.759,0,0
346599.975,89.8057,-478.811,0,0
346860,89.9348,-478.946,0,0
347121,89.8558,-478.919,0,0
347381,89.7946,-479.013,0,0
347641,89.7265,-478.894,0,0
347902,89.4914,-478.856,0,0
348162,89.344,-478.782,0,0
348422,89.095,-478.65,0,0
348683,88.9342,-478.485,0,0
348943,88.6907,-478.285,0,0
349203,88.4874,-478.162,0,0
349464,88.2278,-478.006,0,0
349724,87.8973,-477.816,0,0
349984,87.5348,-477.658,0,0
350245,87.0821,-477.429,0,0
350505,86.5819,-477.092,0,0
350765,86.1024,-476.706,0,0
351025,85.5938,-476.337,0,0
351286,85.1251,-475.786,0,0
351546,84.6654,-475.141,0,0
351806,84.2453,-474.463,0,0
352067,83.9392,-473.839,0,0
352327,83.5934,-473.137,0,0
352587,83.4132,-472.473,0,0
352848,83.2226,-471.754,0,0
353108,83.076,-471.085,0,0
353368,82.8882,-470.487,0,0
353629,82.7541,-469.882,0,0
353889,82.5457,-469.275,0,0
354149,82.3606,-468.667,0,0
354410,82.2035,-468.08,0,0
354670,82.1315,-467.445,0,0
354930,81.8743,-466.846,0,0
355191,81.7944,-466.223,0,0
355451,81.6613,-465.491,0,0
355711,81.4844,-464.851,0,0
355972,81.4228,-464.159,0,0
356232,81.3534,-463.489,0,0
356492,81.3425,-462.835,0,0
356753,81.3345,-462.233,0,0
357013,81.338,-461.623,0,0
357273,81.3357,-461.082,0,0
357534,81.2906,-460.617,0,0
357794,81.2498,-460.041,0,0
358054,81.1516,-459.524,0,0
358315,81.1023,-459.054,0,0
358575,81.008,-458.557,0,0
358835,80.8243,-458.117,0,0
359096,80.6957,-457.578,0,0
359356,80.4285,-457.063,0,0
359616,80.1567,-456.48,0,0
359877,79.9199,-455.915,0,0
360137,79.6079,-455.188,0,0
360397,79.3082,-454.479,0,0
360658,79.1117,-453.652,0,0
360918,78.9444,-452.815,0,0
361178,78.8839,-451.961,0,0
361438,78.8507,-451.156,0,0
361699,78.8391,-450.342,0,0
361959,78.9138,-449.617,0,0
362219,78.9258,-448.889,0,0
362480,78.9223,-448.152,0,0
362740.1,78.9484,-447.435,0,0
363000.425,79.0207,-446.712,0,0
363260.75,78.9659,-446.002,0,0
363521.075,79.014,-445.33,0,0
363781.4,79.0103,-444.589,0,0
364041.725,78.9833,-443.902,0,0
364302.05,78.9978,-443.167,0,0
364562.375,79.0032,-442.436,0,0
364822.7,78.941,-441.648,0,0
365083.025,78.949,-440.823,0,0
365343.35,79.0297,-440.015,0,0
365603.675,79.0254,-439.143,0,0
365864.0,79.126,-438.286,0,0
366124.325,79.1982,-437.394,0,0
366384.65,79.2776,-436.502,0,0
366644.975,79.4861,-435.544,0,0
366905.3,79.5912,-434.672,0,0
367165.625,79.8505,-433.658,0,0
367425.95,80.0797,-432.668,0,0
367686.275,80.3784,-431.623,0,0
367946.6,80.7964,-430.633,0,0
368206.925,81.2247,-429.63,0,0
368467.25,81.8374,-428.616,0,0
368727.575,82.3557,-427.742,0,0
368987.9,82.9389,-426.797,0,0
369248.225,83.6007,-425.9,0,0
369508.55,84.2853,-425.016,0,0
369768.875,85.056,-424.092,0,0
370029.2,85.9465,-423.269,0,0
370289.525,86.8785,-422.434,0,0
370549.85,87.8654,-421.726,0,0
370810.175,88.9718,-421.077,0,0
371070.5,90.1946,-420.47,0,0
371330.825,91.4136,-420.077,0,0
371591.15,92.6951,-419.821,0,0
371851.475,93.9771,-419.682,0,0
372111.8,95.2142,-419.725,0,0
372372.125,96.4181,-419.87,0,0
372632.45,97.5413,-420.189,0,0
372892.775,98.5631,-420.588,0,0
373153.1,99.5209,-421.065,0,0
373413.425,100.329,-421.686,0,0
373673.75,101.016,-422.326,0,0
373934.075,101.605,-422.96,0,0
374194.4,102.094,-423.63,0,0
374454.725,102.446,-424.299,0,0
374715.05,102.692,-424.967,0,0
374975.375,102.806,-425.596,0,0
375235.7,102.853,-426.19,0,0
375496.025,102.859,-426.735,0,0
375756.35,102.842,-427.224,0,0
376016.675,102.73,-427.672,0,0
376277.0,102.557,-428.08,0,0
376537.325,102.359,-428.433,0,0
376797.65,102.117,-428.646,0,0
377057.975,101.93,-428.819,0,0
377318.3,101.76,-428.919,0,0
377578.625,101.626,-429.04,0,0
377838.95,101.583,-429.141,0,0
378099.275,101.531,-429.187,0,0
378359.6,101.476,-429.334,0,0
378619.925,101.435,-429.52,0,0
378880,101.353,-429.702,0,0
379141,101.304,-430.002,0,0
379401,101.113,-430.228,0,0
379661,100.96,-430.465,0,0
379922,100.68,-430.723,0,0
380182,100.404,-430.891,0,0
380442,100.024,-430.992,0,0
380703,99.6754,-431.035,0,0
380963,99.3718,-431.018,0,0
381223,99.1041,-430.875,0,0
381483,98.8963,-430.81,0,0
381744,98.804,-430.673,0,0
382004,98.6601,-430.572,0,0
382264,98.6666,-430.623,0,0
382525,98.6927,-430.655,0,0
382785,98.6963,-430.776,0,0
383045,98.6975,-430.973,0,0
383306,98.6473,-431.188,0,0
383566,98.5207,-431.519,0,0
383826,98.4196,-431.886,0,0
384087,98.215,-432.247,0,0
384347,97.967,-432.674,0,0
384607,97.6034,-433.091,0,0
384868,97.1668,-433.619,0,0
385128,96.6587,-434.123,0,0
385388,95.9865,-434.592,0,0
385649,95.2053,-435.008,0,0
385909,94.3424,-435.378,0,0
386169,93.3597,-435.589,0,0
386430,92.3156,-435.772,0,0
386690,91.2059,-435.757,0,0
386950,90.0632,-435.593,0,0
387211,88.9689,-435.333,0,0
387471,87.9276,-434.906,0,0
387731,86.9456,-434.422,0,0
387992,86.088,-433.727,0,0
388252,85.262,-433.061,0,0
388512,84.5751,-432.235,0,0
388773,83.9872,-431.477,0,0
389033,83.5504,-430.713,0,0
389293,83.2715,-429.974,0,0
389554,83.0265,-429.281,0,0
389814,82.8516,-428.657,0,0
390074,82.8021,-428.211,0,0
390335,82.6828,-427.795,0,0
390595,82.583,-427.481,0,0
390855,82.5019,-427.227,0,0
391116,82.3225,-427.099,0,0
391376,82.0723,-427.019,0,0
391636,81.7247,-426.87,0,0
391896,81.3419,-426.856,0,0
392157,80.9304,-426.769,0,0
392417,80.4522,-426.628,0,0
392677,79.9,-426.525,0,0
392938,79.3891,-426.417,0,0
393198,78.774,-426.28,0,0
393458,78.1302,-426.154,0,0
393719,77.3487,-425.899,0,0
393979,76.6038,-425.678,0,0
394239,75.8533,-425.344,0,0
394500,75.0376,-424.947,0,0
394760.05,74.2931,-424.497,0,0
395020.375,73.5715,-424.12,0,0
395280.7,72.7517,-423.574,0,0
395541.025,71.9326,-423.048,0,0
395801.35,71.114,-422.485,0,0
396061.675,70.3497,-421.807,0,0
396322.0,69.561,-421.092,0,0
396582.325,68.8044,-420.364,0,0
396842.65,68.0724,-419.576,0,0
397102.975,67.3546,-418.757,0,0
397363.3,66.7122,-417.912,0,0
397623.625,66.0623,-417.001,0,0
397883.95,65.4577,-416.088,0,0
398144.275,64.8457,-415.109,0,0
398404.6,64.2899,-414.16,0,0
398664.925,63.7478,-413.149,0,0
398925.25,63.2881,-412.076,0,0
399185.575,62.8441,-411.031,0,0
399445.9,62.4579,-409.914,0,0
399706.225,62.0974,-408.763,0,0
399966.55,61.8313,-407.645,0,0
400006.6,61.7815,-407.492,0,0