File: Accelerated corrosion test data/2025-10-20_09-18-15/sample_1.csv
Frequency (Hz),Impedance (ohms),Phase (Radians),Temperature (C),Humidity (%)
10000.0,244.333,-12242,0,0
10260.325,249.232,-11926.5,0,0
10520.65,233.073,-11646,0,0
10780.975,229.985,-11361,0,0
11041.3,222.605,-11101.1,0,0
11301.625,217.316,-10843.5,0,0
11561.95,213.822,-10598.9,0,0
11822.275,211.925,-10357.9,0,0
12082.6,240.507,-10129.2,0,0
12342.925,212.375,-9955.69,0,0
12603.25,197.422,-9740.24,0,0
12863.575,193.935,-9537.45,0,0
13123.9,203.868,-9346.61,0,0
13384.225,187.886,-9174.19,0,0
13644.55,183.258,-8992.06,0,0
13904.875,185.866,-8811.98,0,0
14165.2,191.233,-8675.96,0,0
14425.525,214.043,-8522.75,0,0
14685.8,211.113,-8348.71,0,0
14946.175,178.491,-8241.16,0,0
15206.5,194.3,-8081.61,0,0
15466.825,174.593,-7964.54,0,0
15727.15,173.421,-7834.27,0,0
15987.5,162.149,-7702.55,0,0
16247.8,159.139,-7576.51,0,0
16508.125,157.223,-7453.17,0,0
16768.45,159.809,-7334.67,0,0
17028.775,165.878,-7226.57,0,0
17289.1,155.849,-7123.91,0,0
17549.425,152.708,-7019.69,0,0
17809.75,148.125,-6913.89,0,0
18070.075,150.024,-6816.93,0,0
18330.4,144.369,-6718.22,0,0
18590.725,139.315,-6624.12,0,0
18851.05,140.318,-6525.45,0,0
19111.375,136.978,-6444.33,0,0
19371.7,134.594,-6352.01,0,0
19632.025,133.923,-6262.72,0,0
19892.35,138.899,-6176.09,0,0
20152.675,138.013,-6088.44,0,0
20413.0,160.748,-5998.86,0,0
20673.3,171.869,-5960.67,0,0
20933.65,150.102,-5891.03,0,0
21193.975,164.381,-5828.45,0,0
21454.3,143.224,-5755.28,0,0
21714.625,138.463,-5682.24,0,0
21974.9,142.866,-5599.89,0,0
22235.275,178.248,-5560.91,0,0
22495.6,142.192,-5517.45,0,0
22755.925,127.869,-5447.35,0,0
23016.25,123.472,-5379.95,0,0
23276.6,120.514,-5317.78,0,0
23536.9,116.298,-5257.03,0,0
23797.225,113.901,-5195.52,0,0
24057.55,117.02,-5134.14,0,0
24317.875,113.899,-5086.36,0,0
24578.2,112.023,-5026.18,0,0
24838.525,111.961,-4975.9,0,0
25098.85,112.133,-4921.78,0,0
25359.175,107.708,-4871.94,0,0
25619.5,106.026,-4821.5,0,0
25879.8,104.788,-4768.54,0,0
26140.1,104.922,-4719.2,0,0
26400.5,104.047,-4669.54,0,0
26660.8,106.281,-4618.72,0,0
26921.1,116.466,-4570.3,0,0
27181.4,124.235,-4540.1,0,0
27441.8,112.248,-4503.83,0,0
27702.1,104.891,-4455.23,0,0
27962.4,112.92,-4405.54,0,0
28222.7,112.449,-4366.43,0,0
28483.1,122.041,-4322.66,0,0
28743.4,132.439,-4305.78,0,0
29003.7,119.947,-4268.01,0,0
29264,120.607,-4235.51,0,0
29524.4,108.792,-4201.78,0,0
29784.7,107.366,-4158.28,0,0
30045,103.319,-4127.26,0,0
30305.3,100.965,-4088.09,0,0
30565.7,98.6078,-4049.06,0,0
30826,102.348,-4011.88,0,0
31086.3,106.01,-3986.81,0,0
31346.6,100.259,-3956.04,0,0
31607,95.3652,-3918.44,0,0
31867.3,100.202,-3885.93,0,0
32127.6,98.4254,-3855.67,0,0
32387.9,98.8029,-3828.18,0,0
32648.3,94.585,-3796.01,0,0
32908.6,96.6406,-3768.4,0,0
33168.9,91.3669,-3739.17,0,0
33429.2,89.8874,-3710.2,0,0
33689.6,87.0737,-3680.36,0,0
33949.9,86.3496,-3649.23,0,0
34210.2,87.7608,-3623,0,0
34470.5,84.9757,-3596.72,0,0
34730.9,83.1402,-3568.03,0,0
34991.2,82.4366,-3540.97,0,0
35251.5,81.3058,-3514.23,0,0
35511.8,80.6242,-3487.83,0,0
35772.2,80.3132,-3462.27,0,0
36032.5,78.9323,-3436.82,0,0
36292.8,78.2914,-3411.07,0,0
36553.1,77.7051,-3386.22,0,0
36813.5,77.3685,-3361.67,0,0
37073.8,77.1001,-3337.66,0,0
37334.1,76.3096,-3314.03,0,0
37594.4,75.9363,-3290.61,0,0
37854.8,75.1261,-3267.8,0,0
38115.1,74.4506,-3244.53,0,0
38375.4,74.1378,-3221.77,0,0
38635.7,73.9357,-3199.99,0,0
38896.1,73.2332,-3177.61,0,0
39156.4,73.3826,-3155.66,0,0
39416.7,73.0793,-3135.54,0,0
39677,72.1452,-3113.93,0,0
39937.4,71.8072,-3092.82,0,0
40197.7,72.0147,-3071.93,0,0
40458,71.8772,-3052.04,0,0
40718.3,71.8896,-3030.91,0,0
40978.7,73.7075,-3011.6,0,0
41239,73.4622,-2993.75,0,0
41499.3,72.7299,-2975.67,0,0
41759.6,71.7606,-2956.75,0,0
42020,71.6097,-2937.32,0,0
42280.275,71.1608,-2919.14,0,0
42540.6,71.8996,-2901.47,0,0
42800.925,71.0794,-2884.56,0,0
43061.25,69.9118,-2866.05,0,0
43321.575,69.8301,-2849.14,0,0
43581.9,69.3447,-2831.77,0,0
43842.225,68.4584,-2814.05,0,0
44102.55,68.8058,-2796.34,0,0
44362.875,69.3239,-2779.12,0,0
44623.2,69.7243,-2764.13,0,0
44883.525,69.0265,-2748.44,0,0
45143.85,68.9074,-2732.27,0,0
45404.175,69.4902,-2716.84,0,0
45664.5,68.4551,-2701.72,0,0
45924.825,67.5235,-2686.27,0,0
46185.15,66.7753,-2670.85,0,0
46445.475,65.8804,-2654.97,0,0
46705.8,65.8838,-2639.66,0,0
46966.125,65.7684,-2625.54,0,0
47226.45,65.4637,-2609.98,0,0
47486.775,65.3701,-2595.61,0,0
47747.1,65.0596,-2581.69,0,0
48007.425,64.3408,-2567.72,0,0
48267.75,64.2485,-2553.43,0,0
48528.075,63.0736,-2539.74,0,0
48788.4,62.3526,-2525.37,0,0
49048.725,62.4203,-2511.09,0,0
49309.05,62.2122,-2497.5,0,0
49569.375,62.117,-2484.43,0,0
49829.7,61.4034,-2471.42,0,0
50090.025,60.7488,-2458,0,0
50350.35,60.2135,-2444.51,0,0
50610.675,60.2315,-2431.11,0,0
50871.0,60.085,-2418.26,0,0
51131.325,60.0178,-2405.42,0,0
51391.65,59.9527,-2393.02,0,0
51651.975,59.3932,-2380.98,0,0
51912.3,58.9728,-2368.32,0,0
52172.625,58.7865,-2355.78,0,0
52432.95,58.8169,-2343.69,0,0
52693.275,58.458,-2331.71,0,0
52953.6,58.3952,-2319.7,0,0
53213.925,58.3015,-2307.99,0,0
53474.25,57.9693,-2296.5,0,0
53734.575,57.8407,-2284.79,0,0
53994.9,57.8812,-2273.66,0,0
54255.225,57.3091,-2262.43,0,0
54515.55,56.9182,-2251.18,0,0
54775.875,56.5235,-2239.84,0,0
55036.2,56.3588,-2228.66,0,0
55296.525,56.4589,-2217.55,0,0
55556.85,56.1837,-2206.77,0,0
55817.175,56.0514,-2196.12,0,0
56077.5,55.6546,-2185.42,0,0
56337.825,55.4088,-2174.47,0,0
56598.15,55.3903,-2163.98,0,0
56858.475,55.4852,-2153.53,0,0
57118.8,55.158,-2143.28,0,0
57379.125,55.1154,-2132.92,0,0
57639.45,55.1198,-2122.87,0,0
57899.775,55.067,-2112.67,0,0
58160.1,55.0389,-2102.82,0,0
58420.4,54.9498,-2093.12,0,0
58680.7,54.8417,-2083.33,0,0
58941.1,54.7405,-2073.41,0,0
59201.4,55.0312,-2063.94,0,0
59461.7,54.896,-2054.65,0,0
59722,54.6344,-2045.19,0,0
59982.4,54.7365,-2035.83,0,0
60242.7,54.5522,-2026.57,0,0
60503,54.8434,-2017.34,0,0
60763.3,55.0084,-2008.64,0,0
61023.7,54.4573,-2000.05,0,0
61284,54.0455,-1991.06,0,0
61544.3,53.7308,-1981.86,0,0
61804.6,53.9504,-1973.04,0,0
62065,53.4984,-1964.51,0,0
62325.3,53.131,-1955.51,0,0
62585.6,53.0032,-1946.81,0,0
62845.9,52.9243,-1937.89,0,0
63106.3,52.9679,-1929.35,0,0
63366.6,52.9451,-1920.85,0,0
63626.9,52.9783,-1912.3,0,0
63887.2,52.9843,-1903.74,0,0
64147.6,53.0615,-1895.43,0,0
64407.9,53.2505,-1886.86,0,0
64668.2,53.5473,-1878.61,0,0
64928.5,53.9664,-1870.37,0,0
65188.9,54.6023,-1862.43,0,0
65449.2,55.2211,-1854.8,0,0
65709.5,55.8934,-1847.79,0,0
65969.8,55.5763,-1840.75,0,0
66230.2,55.5461,-1833.44,0,0
66490.5,55.484,-1826.19,0,0
66750.8,54.9173,-1819.17,0,0
67011.1,54.4568,-1811.76,0,0
67271.5,54.0267,-1803.96,0,0
67531.8,54.4947,-1796.31,0,0
67792.1,55.1167,-1789.6,0,0
68052.4,54.4364,-1783.15,0,0
68312.8,53.5657,-1775.86,0,0
68573.1,53.5098,-1768.09,0,0
68833.4,53.7329,-1760.96,0,0
69093.7,53.4637,-1754.37,0,0
69354.1,53.2108,-1747.23,0,0
69614.4,53.1577,-1740.77,0,0
69874.7,52.7835,-1733.91,0,0
70135,52.3122,-1727.39,0,0
70395.4,51.6074,-1720.49,0,0
70655.7,51.1511,-1713.45,0,0
70916,50.9965,-1706.37,0,0
71176.3,50.6689,-1699.49,0,0
71436.7,50.6561,-1692.77,0,0
71697,50.2184,-1686.48,0,0
71957.3,49.5884,-1679.6,0,0
72217.6,49.0902,-1672.64,0,0
72478,48.962,-1665.59,0,0
72738.3,48.8033,-1658.68,0,0
72998.6,48.7934,-1651.92,0,0
73258.9,48.8347,-1645.39,0,0
73519.3,48.6351,-1638.88,0,0
73779.6,48.5244,-1632.04,0,0
74039.9,48.5157,-1625.5,0,0
74300.225,48.5204,-1618.94,0,0
74560.55,48.506,-1612.43,0,0
74820.875,48.7695,-1606,0,0
75081.2,48.7926,-1599.86,0,0
75341.525,48.8997,-1593.6,0,0
75601.85,48.8845,-1587.25,0,0
75862.175,49.098,-1580.97,0,0
76122.5,49.4109,-1574.73,0,0
76382.825,49.6056,-1568.69,0,0
76643.15,49.7782,-1562.73,0,0
76903.475,49.9539,-1556.71,0,0
77163.8,50.2404,-1550.75,0,0
77424.125,50.4586,-1544.98,0,0
77684.45,50.6254,-1539.21,0,0
77944.775,50.7422,-1533.26,0,0
78205.1,51.2088,-1527.37,0,0
78465.425,51.8632,-1521.83,0,0
78725.75,52.2285,-1516.8,0,0
78986.075,52.2974,-1511.61,0,0
79246.4,52.3189,-1506.43,0,0
79506.725,52.1084,-1501.28,0,0
79767.05,51.7425,-1495.89,0,0
80027.375,51.6339,-1490.39,0,0
80287.7,51.3488,-1485.04,0,0
80548.025,51.0635,-1479.44,0,0
80808.35,50.9453,-1474.01,0,0
81068.675,50.7489,-1468.39,0,0
81329.0,50.7518,-1462.69,0,0
81589.325,50.8748,-1457.12,0,0
81849.65,51.0687,-1451.7,0,0
82109.975,51.2035,-1446.35,0,0
82370.3,51.371,-1440.94,0,0
82630.625,51.4153,-1435.74,0,0
82890.95,51.3794,-1430.24,0,0
83151.275,51.6616,-1424.8,0,0
83411.6,51.89,-1419.62,0,0
83671.925,52.1738,-1414.26,0,0
83932.25,52.456,-1409.02,0,0
84192.575,52.8841,-1403.84,0,0
84452.9,53.284,-1398.77,0,0
84713.225,53.6281,-1393.84,0,0
84973.55,54.0139,-1388.78,0,0
85233.875,54.5414,-1383.85,0,0
85494.2,55.002,-1379.2,0,0
85754.525,55.2572,-1374.58,0,0
86014.85,55.463,-1369.91,0,0
86275.175,55.5748,-1365.19,0,0
86535.5,55.7626,-1360.48,0,0
86795.825,55.8201,-1355.87,0,0
87056.15,56.0146,-1350.95,0,0
87316.475,56.4561,-1346.3,0,0
87576.8,56.4649,-1341.88,0,0
87837.125,56.4567,-1337.09,0,0
88097.45,56.4632,-1332.16,0,0
88357.775,56.5411,-1327.28,0,0
88618.1,56.7873,-1322.16,0,0
88878.425,57.2593,-1317.4,0,0
89138.75,57.6501,-1312.59,0,0
89399.075,58.1707,-1307.72,0,0
89659.4,59.0005,-1302.85,0,0
89919.725,59.5336,-1298.28,0,0
90180,60.177,-1293.75,0,0
90440.4,60.7951,-1289,0,0
90700.7,61.4068,-1284.35,0,0
90961,62.3043,-1279.39,0,0
91221.3,63.7366,-1274.59,0,0
91481.7,65.1741,-1270.67,0,0
91742,66.4542,-1266.69,0,0
92002.3,67.4037,-1262.75,0,0
92262.6,68.8758,-1258.64,0,0
92523,70.2479,-1255.01,0,0
92783.3,72.1478,-1251.2,0,0
93043.6,73.8824,-1248.48,0,0
93303.9,75.2808,-1245.58,0,0
93564.3,77.2465,-1242.76,0,0
93824.6,79.6877,-1242.09,0,0
94084.9,79.3323,-1242.8,0,0
94345.2,76.6233,-1241.9,0,0
94605.6,74.2878,-1238.39,0,0
94865.9,72.9429,-1235.47,0,0
95126.2,71.3302,-1231.79,0,0
95386.5,70.1275,-1228.01,0,0
95646.9,68.8243,-1224.25,0,0
95907.2,67.5648,-1219.91,0,0
96167.5,67.0926,-1215.14,0,0
96427.8,67.301,-1211,0,0
96688.2,66.9133,-1207.7,0,0
96948.5,66.0393,-1203.74,0,0
97208.8,65.4911,-1199.46,0,0
97469.1,65.1397,-1195.3,0,0
97729.5,64.887,-1191.09,0,0
97989.8,64.7807,-1186.86,0,0
98250.1,64.9854,-1182.7,0,0
98510.4,65.1618,-1179.07,0,0
98770.8,64.8419,-1175.51,0,0
99031.1,64.4751,-1171.5,0,0
99291.4,64.3768,-1167.49,0,0
99551.7,64.2245,-1163.52,0,0
99812.1,64.1329,-1159.56,0,0
100072,64.0394,-1155.65,0,0
100333,63.8137,-1151.65,0,0
100593,63.6748,-1147.56,0,0
100853,63.6957,-1143.42,0,0
101114,63.679,-1139.38,0,0
101374,63.6853,-1135.36,0,0
101634,63.5443,-1131.24,0,0
101895,63.3964,-1126.87,0,0
102155,63.5184,-1122.2,0,0
102415,63.9307,-1117.55,0,0
102676,64.7444,-1112.89,0,0
102936,65.8381,-1108.71,0,0
103196,66.6718,-1104.58,0,0
103457,67.6544,-1100.5,0,0
103717,68.5473,-1096.41,0,0
103977,69.7956,-1092.14,0,0
104238,71.6238,-1088.26,0,0
104498,73.2134,-1085.19,0,0
104758,74.438,-1082.14,0,0
105019,75.291,-1079.07,0,0
105279,76.0231,-1075.79,0,0
105539,77.1852,-1072.12,0,0
105800,78.5419,-1068.86,0,0
106060,79.8679,-1065.65,0,0
106320.175,81.2936,-1062.74,0,0
106580.5,82.6717,-1060.01,0,0
106840.825,83.8197,-1057.43,0,0
107101.15,84.8236,-1054.61,0,0
107361.475,86.3513,-1052,0,0
107621.8,87.5601,-1049.88,0,0
107882.125,88.3357,-1047.69,0,0
108142.45,89.0494,-1045.38,0,0
108402.775,89.8655,-1042.87,0,0
108663.1,90.8774,-1040.51,0,0
108923.425,91.7798,-1038.29,0,0
109183.75,92.7744,-1036.11,0,0
109444.075,93.8674,-1034.37,0,0
109704.4,94.3856,-1032.88,0,0
109964.725,94.6078,-1031.39,0,0
110225.05,94.4389,-1029.69,0,0
110485.375,93.965,-1027.52,0,0
110745.7,93.7828,-1024.91,0,0
111006.025,93.8767,-1022.26,0,0
111266.35,94.2418,-1019.67,0,0
111526.675,94.7228,-1016.92,0,0
111787.0,95.6246,-1014.65,0,0
112047.325,96.3292,-1012.58,0,0
112307.65,96.9313,-1010.69,0,0
112567.975,97.5636,-1008.78,0,0
112828.3,98.084,-1007.2,0,0
113088.625,98.3836,-1005.69,0,0
113348.95,98.5416,-1004.33,0,0
113609.275,98.4826,-1003.03,0,0
113869.6,97.9709,-1001.57,0,0
114129.925,97.4976,-999.856,0,0
114390.25,97.1166,-998.185,0,0
114650.575,96.6445,-996.388,0,0
114910.9,96.0631,-994.797,0,0
115171.225,95.2415,-993.127,0,0
115431.55,94.3767,-991.343,0,0
115691.875,93.277,-989.356,0,0
115952.2,92.2573,-987.072,0,0
116212.525,91.2724,-984.77,0,0
116472.85,90.3277,-982.377,0,0
116733.175,89.3982,-980.096,0,0
116993.5,88.327,-977.686,0,0
117253.825,87.0683,-975.006,0,0
117514.15,86.0647,-972.067,0,0
117774.475,85.1518,-969.123,0,0
118034.8,84.2272,-965.964,0,0
118295.125,83.6848,-962.731,0,0
118555.45,83.2505,-959.594,0,0
118815.775,82.825,-956.533,0,0
119076.1,82.4156,-953.369,0,0
119336.425,82.1839,-950.251,0,0
119596.75,82.0505,-947.054,0,0
119857.075,82.1609,-943.956,0,0
120117.4,82.378,-941.121,0,0
120377.725,82.4591,-938.435,0,0
120638.05,82.5139,-935.928,0,0
120898.375,82.4266,-933.468,0,0
121158.7,82.1527,-931.054,0,0
121419.025,81.7489,-928.492,0,0
121679.35,81.3136,-925.915,0,0
121939.675,80.7534,-923.121,0,0
122200.0,80.3504,-920.221,0,0
122460,79.9522,-917.311,0,0
122721,79.6135,-914.256,0,0
122981,79.4412,-911.266,0,0
123241,79.1548,-908.238,0,0
123502,79.0355,-905.069,0,0
123762,79.0622,-902.001,0,0
124022,79.1471,-898.99,0,0
124283,79.2111,-896.095,0,0
124543,79.1868,-893.134,0,0
124803,79.2857,-890.151,0,0
125064,79.3636,-887.261,0,0
125324,79.4117,-884.195,0,0
125584,79.6179,-881.17,0,0
125845,79.9236,-878.266,0,0
126105,80.1217,-875.425,0,0
126365,80.3292,-872.535,0,0
126626,80.5156,-869.708,0,0
126886,80.7346,-866.774,0,0
127146,80.891,-863.789,0,0
127406,81.2194,-860.929,0,0
127667,81.5378,-857.947,0,0
127927,81.9646,-854.851,0,0
128187,82.5584,-851.93,0,0
128448,83.1064,-849.156,0,0
128708,83.6229,-846.422,0,0
128968,84.0238,-843.704,0,0
129229,84.3719,-840.796,0,0
129489,84.9043,-837.82,0,0
129749,85.5564,-834.816,0,0
130010,86.4513,-831.785,0,0
130270,87.477,-829.117,0,0
130530,88.3716,-826.563,0,0
130791,89.2762,-823.978,0,0
131051,90.2217,-821.46,0,0
131311,91.2517,-819.052,0,0
131572,92.2414,-816.851,0,0
131832,93.1,-814.709,0,0
132092,93.8724,-812.584,0,0
132353,94.5172,-810.519,0,0
132613,95.1422,-808.319,0,0
132873,95.8487,-806.084,0,0
133134,96.5569,-803.95,0,0
133394,97.1342,-801.904,0,0
133654,97.7096,-799.688,0,0
133915,98.3563,-797.453,0,0
134175,99.1029,-795.225,0,0
134435,99.8282,-793.099,0,0
134696,100.553,-791.093,0,0
134956,101.249,-789.102,0,0
135216,101.969,-787.076,0,0
135477,102.454,-785.127,0,0
135737,102.941,-783.017,0,0
135997,103.494,-780.852,0,0
136258,104.184,-778.58,0,0
136518,105.105,-776.312,0,0
136778,106.16,-774.273,0,0
137039,107.109,-772.451,0,0
137299,108.11,-770.545,0,0
137559,109.449,-769,0,0
137819,110.432,-767.898,0,0
138080,110.969,-766.864,0,0
138340.125,111.292,-765.564,0,0
138600.45,111.743,-764.254,0,0
138860.775,111.974,-763.127,0,0
139121.1,111.93,-761.837,0,0
139381.425,111.842,-760.374,0,0
139641.75,111.74,-758.846,0,0
139902.075,111.599,-757.228,0,0
140162.4,111.385,-755.565,0,0
140422.725,111.122,-753.779,0,0
140683.05,110.863,-751.819,0,0
140943.375,110.67,-749.719,0,0
141203.7,110.594,-747.588,0,0
141464.025,110.6,-745.401,0,0
141724.35,110.647,-743.365,0,0
141984.675,110.473,-741.241,0,0
142245.0,110.381,-738.782,0,0
142505.325,110.7,-736.347,0,0
142765.65,111.002,-734.124,0,0
143025.975,111.286,-731.989,0,0
143286.3,111.438,-729.672,0,0
143546.625,111.761,-727.269,0,0
143806.95,112.309,-724.991,0,0
144067.275,112.813,-722.917,0,0
144327.6,113.204,-720.994,0,0
144587.925,113.346,-718.871,0,0
144848.25,113.572,-716.521,0,0
145108.575,114.035,-714.144,0,0
145368.9,114.584,-711.883,0,0
145629.225,115.157,-709.616,0,0
145889.55,115.903,-707.346,0,0
146149.875,116.714,-705.307,0,0
146410.2,117.429,-703.417,0,0
146670.525,118.122,-701.482,0,0
146930.85,118.852,-699.657,0,0
147191.175,119.495,-698.064,0,0
147451.5,119.905,-696.516,0,0
147711.825,120.149,-694.891,0,0
147972.15,120.204,-693.18,0,0
148232.475,120.21,-691.158,0,0
148492.8,120.422,-689.064,0,0
148753.125,120.632,-686.967,0,0
149013.45,120.936,-684.648,0,0
149273.775,121.578,-682.325,0,0
149534.1,122.484,-680.461,0,0
149794.425,123.032,-678.918,0,0
150054.75,123.3,-677.286,0,0
150315.075,123.521,-675.66,0,0
150575.4,123.611,-674.147,0,0
150835.725,123.261,-672.536,0,0
151096.05,122.733,-670.495,0,0
151356.375,122.396,-668.087,0,0
151616.7,122.254,-665.647,0,0
151877.025,122.095,-663.275,0,0
152137.35,121.822,-660.803,0,0
152397.675,121.439,-658.022,0,0
152658.0,121.192,-654.907,0,0
152918.325,121.255,-651.605,0,0
153178.65,121.642,-648.266,0,0
153438.975,122.189,-645.072,0,0
153699.3,122.746,-641.861,0,0
153959.625,123.396,-638.547,0,0
154219.95,124.233,-635.246,0,0
154480,125.153,-631.975,0,0
154741,126.172,-628.576,0,0
155001,127.457,-625.219,0,0
155261,128.746,-621.978,0,0
155522,129.961,-618.54,0,0
155782,131.624,-614.914,0,0
156042,133.701,-611.401,0,0
156303,136.046,-608.219,0,0
156563,138.411,-605.419,0,0
156823,140.697,-602.545,0,0
157084,143.257,-599.699,0,0
157344,146.106,-597.29,0,0
157604,148.848,-595.254,0,0
157864,151.327,-593.563,0,0
158125,153.475,-591.859,0,0
158385,155.692,-590.035,0,0
158645,157.656,-588.537,0,0
158906,158.991,-586.85,0,0
159166,160.166,-584.288,0,0
159426,161.963,-581.182,0,0
159687,164.471,-577.903,0,0
159947,167.581,-574.792,0,0
160207,171.254,-572.109,0,0
160468,175.039,-570.069,0,0
160728,178.914,-568.135,0,0
160988,182.963,-566.733,0,0
161249,187.157,-565.795,0,0
161509,191.037,-565.457,0,0
161769,194.606,-565.201,0,0
162030,198.153,-565.267,0,0
162290,201.366,-565.653,0,0
162550,204.177,-566.115,0,0
162811,206.652,-566.712,0,0
163071,208.622,-567.032,0,0
163331,210.558,-566.891,0,0
163592,212.737,-566.491,0,0
163852,215.198,-566.124,0,0
164112,217.845,-565.841,0,0
164373,220.712,-565.741,0,0
164633,223.575,-565.969,0,0
164893,226.329,-566.221,0,0
165154,229.406,-566.597,0,0
165414,232.426,-567.521,0,0
165674,235.337,-568.612,0,0
165935,238.285,-570.093,0,0
166195,240.937,-572.075,0,0
166455,242.957,-574.271,0,0
166716,244.64,-576.293,0,0
166976,246.283,-578.123,0,0
167236,248.099,-580.119,0,0
167497,249.766,-582.752,0,0
167757,250.75,-585.665,0,0
168017,251.142,-588.542,0,0
168277,251.129,-591.164,0,0
168538,250.804,-593.655,0,0
168798,250.253,-596.022,0,0
169058,249.396,-598.235,0,0
169319,248.303,-600.375,0,0
169579,246.71,-602.365,0,0
169839,244.636,-603.906,0,0
170100,242.371,-604.746,0,0
170360.075,240.264,-604.917,0,0
170620.4,238.585,-604.856,0,0
170880.725,236.881,-604.762,0,0
171141.05,235.207,-604.288,0,0
171401.375,233.767,-603.435,0,0
171661.7,232.785,-602.457,0,0
171922.025,232.095,-601.611,0,0
172182.35,231.502,-600.818,0,0
172442.675,231.178,-600.04,0,0
172703.0,231.014,-599.68,0,0
172963.325,230.469,-599.648,0,0
173223.65,229.551,-599.358,0,0
173483.975,228.547,-598.708,0,0
173744.3,227.79,-597.721,0,0
174004.625,227.549,-596.746,0,0
174264.95,227.304,-596.16,0,0
174525.275,226.842,-595.658,0,0
174785.6,226.373,-595.019,0,0
175045.925,225.926,-594.284,0,0
175306.25,225.705,-593.524,0,0
175566.575,225.666,-592.947,0,0
175826.9,225.626,-592.756,0,0
176087.225,225.141,-592.827,0,0
176347.55,224.328,-592.621,0,0
176607.875,223.515,-592.208,0,0
176868.2,222.656,-591.724,0,0
177128.525,221.755,-591.139,0,0
177388.85,220.829,-590.31,0,0
177649.175,220.236,-589.39,0,0
177909.5,219.796,-588.683,0,0
178169.825,219.271,-588.288,0,0
178430.15,218.42,-587.92,0,0
178690.475,217.327,-587.416,0,0
178950.8,216.195,-586.701,0,0
179211.125,215.203,-585.826,0,0
179471.45,214.338,-585.057,0,0
179731.775,213.27,-584.526,0,0
179992.1,211.736,-584.004,0,0
180252.425,210.009,-582.981,0,0
180512.75,208.471,-581.523,0,0
180773.075,207.228,-580.087,0,0
181033.4,205.905,-578.806,0,0
181293.725,204.457,-577.37,0,0
181554.05,203.007,-575.815,0,0
181814.375,201.431,-574.24,0,0
182074.7,199.783,-572.37,0,0
182335.025,198.164,-570.164,0,0
182595.35,196.812,-567.723,0,0
182855.675,195.668,-565.2,0,0
183116.0,194.763,-562.776,0,0
183376.325,193.855,-560.408,0,0
183636.65,192.904,-558.059,0,0
183896.975,191.904,-555.602,0,0
184157.3,190.87,-553.012,0,0
184417.625,189.936,-550.141,0,0
184677.95,189.183,-547.176,0,0
184938.275,188.638,-544.138,0,0
185198.6,188.23,-541.104,0,0
185458.925,187.897,-538.135,0,0
185719.25,187.573,-535.114,0,0
185979.575,187.37,-531.998,0,0
186239.9,187.327,-528.851,0,0
186500,187.367,-525.824,0,0
186761,187.405,-522.666,0,0
187021,187.474,-519.561,0,0
187281,187.623,-516.073,0,0
187542,188.262,-512.64,0,0
187802,189.139,-509.392,0,0
188062,189.934,-506.529,0,0
188322,190.731,-503.711,0,0
188583,191.39,-500.873,0,0
188843,192.193,-497.933,0,0
189103,193,-495.111,0,0
189364,193.791,-492.421,0,0
189624,194.383,-489.783,0,0
189884,194.983,-486.818,0,0
190145,195.597,-483.895,0,0
190405,196.294,-480.925,0,0
190665,196.889,-477.908,0,0
190926,197.53,-474.456,0,0
191186,198.421,-471.127,0,0
191446,199.374,-467.691,0,0
191707,200.437,-464.197,0,0
191967,201.584,-460.582,0,0
192227,203.097,-456.866,0,0
192488,204.795,-453.357,0,0
192748,206.445,-449.914,0,0
193008,208.244,-446.349,0,0
193269,210.126,-442.902,0,0
193529,212.262,-439.512,0,0
193789,214.349,-436.237,0,0
194050,216.491,-432.976,0,0
194310,218.622,-429.796,0,0
194570,220.668,-426.571,0,0
194831,222.777,-423.103,0,0
195091,225.081,-419.64,0,0
195351,227.597,-416.14,0,0
195612,230.334,-412.552,0,0
195872,233.146,-409.117,0,0
196132,236.163,-405.727,0,0
196393,239.266,-402.494,0,0
196653,242.476,-399.373,0,0
196913,245.758,-396.342,0,0
197174,248.96,-393.294,0,0
197434,252.318,-390.267,0,0
197694,255.802,-387.36,0,0
197955,259.283,-384.557,0,0
198215,262.635,-381.875,0,0
198475,265.87,-379.023,0,0
198735,269.263,-376.003,0,0
198996,272.836,-372.952,0,0
199256,276.366,-369.85,0,0
199516,279.923,-366.511,0,0
199777,283.862,-362.994,0,0
200037,288.166,-359.422,0,0
200297,292.812,-355.976,0,0
200558,297.565,-352.858,0,0
200818,302.338,-349.637,0,0
201078,307.195,-346.377,0,0
201339,312.15,-342.874,0,0
201599,317.596,-339.183,0,0
201859,323.632,-335.36,0,0
202120,330.212,-331.77,0,0
202380.025,337.242,-328.344,0,0
202640.35,344.811,-325.199,0,0
202900.675,352.882,-322.559,0,0
203161.0,361.19,-320.272,0,0
203421.325,369.748,-318.4,0,0
203681.65,378.664,-316.706,0,0
203941.975,388.195,-315.541,0,0
204202.3,398.242,-315.063,0,0
204462.625,408.376,-315.408,0,0
204722.95,418.777,-316.56,0,0
204983.275,429.108,-318.492,0,0
205243.6,439.314,-321.469,0,0
205503.925,449.21,-325.067,0,0
205764.25,458.708,-329.411,0,0
206024.575,467.952,-334.151,0,0
206284.9,476.798,-339.638,0,0
206545.225,485.277,-345.757,0,0
206805.55,493.121,-352.523,0,0
207065.875,500.175,-359.705,0,0
207326.2,506.413,-367.1,0,0
207586.525,512,-374.422,0,0
207846.85,517.162,-381.733,0,0
208107.175,522.248,-389.245,0,0
208367.5,526.693,-397.073,0,0
208627.825,530.639,-405.134,0,0
208888.15,533.952,-413.204,0,0
209148.475,536.743,-421.432,0,0
209408.8,538.939,-429.827,0,0
209669.125,540.42,-438.46,0,0
209929.45,540.783,-447.083,0,0
210189.775,539.942,-455.408,0,0
210450.1,537.853,-463.039,0,0
210710.425,535.023,-469.208,0,0
210970.75,532.092,-474.152,0,0
211231.075,529.382,-478.249,0,0
211491.4,526.688,-481.725,0,0
211751.725,523.79,-484.356,0,0
212012.05,521.15,-485.724,0,0
212272.375,519.359,-485.964,0,0
212532.7,518.777,-485.725,0,0
212793.025,519.2,-485.327,0,0
213053.35,520.652,-485.033,0,0
213313.675,522.991,-485.215,0,0
213574.0,525.912,-485.967,0,0
213834.325,529.375,-487.565,0,0
214094.65,532.592,-490.081,0,0
214354.975,535.596,-492.967,0,0
214615.3,538.333,-496.223,0,0
214875.625,540.245,-499.906,0,0
215135.95,542.203,-503.167,0,0
215396.275,544.074,-506.255,0,0
215656.6,546.006,-509.543,0,0
215916.925,547.745,-512.666,0,0
216177.25,549.378,-515.726,0,0
216437.575,551.18,-518.625,0,0
216697.9,553.081,-521.672,0,0
216958.225,554.946,-524.618,0,0
217218.55,556.978,-527.506,0,0
217478.875,559.235,-530.532,0,0
217739.2,561.527,-533.893,0,0
217999.525,563.509,-537.367,0,0
218259.85,565.363,-540.53,0,0
218520,567.43,-543.398,0,0
218780,569.993,-546.192,0,0
219041,572.966,-549.185,0,0
219301,576.28,-552.469,0,0
219561,579.671,-556.195,0,0
219822,583.316,-560.189,0,0
220082,587.142,-564.441,0,0
220342,591.099,-569.392,0,0
220603,594.841,-574.913,0,0
220863,598.366,-580.588,0,0
221123,601.952,-586.48,0,0
221384,605.566,-592.86,0,0
221644,609.244,-599.815,0,0
221904,612.801,-607.645,0,0
222165,615.768,-616.124,0,0
222425,617.938,-624.974,0,0
222685,619.496,-633.946,0,0
222946,620.363,-643.128,0,0
223206,621.079,-652.328,0,0
223466,621.12,-661.659,0,0
223727,620.919,-670.961,0,0
223987,620.25,-680.496,0,0
224247,619.222,-690.079,0,0
224508,617.599,-699.902,0,0
224768,615.105,-709.644,0,0
225028,612.252,-719.388,0,0
225289,608.839,-728.692,0,0
225549,604.849,-737.811,0,0
225809,600.724,-746.514,0,0
226070,596.495,-755.43,0,0
226330,591.886,-764.234,0,0
226590,586.37,-773.122,0,0
226851,580.521,-781.485,0,0
227111,574.172,-789.567,0,0
227371,567.556,-797.322,0,0
227632,560.34,-804.689,0,0
227892,552.927,-811.845,0,0
228152,545.059,-818.459,0,0
228413,536.866,-824.596,0,0
228673,528.341,-830.231,0,0
228933,519.724,-835.358,0,0
229193,510.933,-839.97,0,0
229454,502.028,-844.059,0,0
229714,493.067,-847.555,0,0
229974,483.938,-850.659,0,0
230235,474.851,-853.042,0,0
230495,465.92,-855.058,0,0
230755,457.057,-856.457,0,0
231016,448.36,-857.343,0,0
231276,440.014,-857.771,0,0
231536,431.91,-857.767,0,0
231797,424.162,-857.459,0,0
232057,416.652,-856.814,0,0
232317,409.371,-855.854,0,0
232578,402.673,-854.68,0,0
232838,396.644,-853.136,0,0
233098,390.766,-852.001,0,0
233359,385.308,-850.689,0,0
233619,380.193,-849.507,0,0
233879,375.219,-848.545,0,0
234140,370.21,-847.563,0,0
234400,365.684,-846.654,0,0
234660.3,361.206,-846.09,0,0
234920.625,356.497,-845.684,0,0
235180.95,351.659,-845.286,0,0
235441.275,346.627,-844.702,0,0
235701.6,341.685,-843.967,0,0
235961.925,336.84,-843.064,0,0
236222.25,332.171,-842.192,0,0
236482.575,327.51,-841.445,0,0
236742.9,322.903,-840.608,0,0
237003.225,318.232,-839.905,0,0
237263.55,313.379,-839.085,0,0
237523.875,308.406,-838.039,0,0
237784.2,303.429,-836.882,0,0
238044.525,298.478,-835.436,0,0
238304.85,293.636,-833.901,0,0
238565.175,288.8,-832.09,0,0
238825.5,284.072,-829.993,0,0
239085.825,279.739,-827.913,0,0
239346.15,275.589,-825.696,0,0
239606.475,271.591,-823.584,0,0
239866.8,267.59,-821.576,0,0
240127.125,263.713,-819.02,0,0
240387.45,259.902,-816.689,0,0
240647.775,256.333,-814.378,0,0
240908.1,252.861,-811.961,0,0
241168.425,249.729,-809.831,0,0
241428.75,246.366,-807.538,0,0
241689.075,243.025,-805.246,0,0
241949.4,239.782,-802.85,0,0
242209.725,236.789,-800.495,0,0
242470.05,233.76,-798.076,0,0
242730.375,230.876,-795.626,0,0
242990.7,228.102,-793.218,0,0
243251.025,225.444,-790.72,0,0
243511.35,222.936,-788.303,0,0
243771.675,220.604,-786.051,0,0
244032.0,218.29,-783.73,0,0
244292.325,216.028,-781.659,0,0
244552.65,213.672,-779.742,0,0
244812.975,211.388,-777.761,0,0
245073.3,208.737,-775.816,0,0
245333.625,206.324,-773.673,0,0
245593.95,203.833,-771.623,0,0
245854.275,201.348,-769.436,0,0
246114.6,199.024,-767.331,0,0
246374.925,196.655,-765.07,0,0
246635.25,194.08,-762.881,0,0
246895.575,191.691,-760.432,0,0
247155.9,189.371,-758.138,0,0
247416.225,187.172,-755.593,0,0
247676.55,185.062,-753.085,0,0
247936.875,182.99,-750.604,0,0
248197.2,181.03,-748.052,0,0
248457.525,179.12,-745.519,0,0
248717.85,177.284,-743.014,0,0
248978.175,175.463,-740.476,0,0
249238.5,173.773,-737.847,0,0
249498.825,172.177,-735.279,0,0
249759.15,170.654,-732.729,0,0
250019.475,169.162,-730.062,0,0
250279.8,167.773,-727.687,0,0
250540,166.327,-725.196,0,0
250800,164.973,-722.713,0,0
251061,163.685,-720.24,0,0
251321,162.527,-717.783,0,0
251581,161.333,-715.474,0,0
251842,160.157,-713.123,0,0
252102,158.941,-710.808,0,0
252362,157.722,-708.48,0,0
252623,156.481,-706.139,0,0
252883,155.291,-703.735,0,0
253143,154.075,-701.263,0,0
253404,152.934,-698.709,0,0
253664,151.961,-696.093,0,0
253924,151.044,-693.511,0,0
254185,150.203,-690.954,0,0
254445,149.494,-688.362,0,0
254705,148.832,-685.777,0,0
254966,148.361,-683.219,0,0
255226,147.782,-680.82,0,0
255486,147.428,-678.476,0,0
255747,146.992,-676.178,0,0
256007,146.483,-673.916,0,0
256267,146.075,-671.603,0,0
256528,145.668,-669.237,0,0
256788,145.257,-666.879,0,0
257048,144.92,-664.71,0,0
257309,144.626,-662.38,0,0
257569,144.354,-660.085,0,0
257829,144.084,-657.73,0,0
258090,143.896,-655.38,0,0
258350,143.781,-652.952,0,0
258610,143.785,-650.527,0,0
258871,143.859,-648.104,0,0
259131,144.011,-645.68,0,0
259391,144.374,-643.251,0,0
259651,144.817,-640.846,0,0
259912,145.428,-638.612,0,0
260172,146.134,-636.514,0,0
260432,146.828,-634.462,0,0
260693,147.622,-632.519,0,0
260953,148.476,-630.706,0,0
261213,149.379,-628.919,0,0
261474,150.289,-627.318,0,0
261734,151.18,-625.741,0,0
261994,152.064,-624.273,0,0
262255,152.958,-622.853,0,0
262515,153.9,-621.472,0,0
262775,154.843,-620.187,0,0
263036,155.842,-618.944,0,0
263296,156.825,-617.789,0,0
263556,157.86,-616.696,0,0
263817,158.876,-615.616,0,0
264077,159.987,-614.659,0,0
264337,161.179,-613.779,0,0
264598,162.4,-612.993,0,0
264858,163.648,-612.287,0,0
265118,164.894,-611.79,0,0
265379,166.289,-611.445,0,0
265639,167.559,-611.191,0,0
265899,168.861,-611.117,0,0
266160,170.216,-611.265,0,0
266420,171.451,-611.605,0,0
266680.25,172.677,-612.204,0,0
266940.575,173.77,-613.014,0,0
267200.9,174.687,-614.103,0,0
267461.225,175.339,-615.388,0,0
267721.55,175.722,-616.899,0,0
267981.875,175.773,-618.456,0,0
268242.2,175.484,-620.054,0,0
268502.525,174.806,-621.645,0,0
268762.85,173.762,-623.163,0,0
269023.175,172.463,-624.553,0,0
269283.5,170.786,-625.74,0,0
269543.825,168.933,-626.626,0,0
269804.15,166.897,-627.267,0,0
270064.475,164.658,-627.6,0,0
270324.8,162.495,-627.686,0,0
270585.125,160.194,-627.444,0,0
270845.45,157.959,-626.92,0,0
271105.775,155.721,-626.151,0,0
271366.1,153.645,-625.17,0,0
271626.425,151.663,-623.934,0,0
271886.75,149.776,-622.519,0,0
272147.075,148.117,-621,0,0
272407.4,146.666,-619.315,0,0
272667.725,145.273,-617.59,0,0
272928.05,144.173,-615.807,0,0
273188.375,143.168,-614.019,0,0
273448.7,142.295,-612.247,0,0
273709.025,141.504,-610.405,0,0
273969.35,140.846,-608.638,0,0
274229.675,140.312,-606.855,0,0
274490.0,139.962,-605.026,0,0
274750.325,139.655,-603.335,0,0
275010.65,139.509,-601.654,0,0
275270.975,139.364,-600.076,0,0
275531.3,139.262,-598.517,0,0
275791.625,139.274,-596.978,0,0
276051.95,139.327,-595.49,0,0
276312.275,139.483,-594.085,0,0
276572.6,139.681,-592.721,0,0
276832.925,139.972,-591.445,0,0
277093.25,140.275,-590.269,0,0
277353.575,140.633,-589.202,0,0
277613.9,140.955,-588.227,0,0
277874.225,141.282,-587.389,0,0
278134.55,141.569,-586.618,0,0
278394.875,141.802,-585.924,0,0
278655.2,142.004,-585.3,0,0
278915.525,142.038,-584.703,0,0
279175.85,142.029,-584.104,0,0
279436.175,142.004,-583.456,0,0
279696.5,141.901,-582.792,0,0
279956.825,141.797,-582.046,0,0
280217.15,141.787,-581.332,0,0
280477.475,141.747,-580.554,0,0
280737.8,141.805,-579.843,0,0
280998.125,141.885,-579.176,0,0
281258.45,141.988,-578.592,0,0
281518.775,142.113,-578.082,0,0
281779.1,142.076,-577.71,0,0
282039.425,141.991,-577.439,0,0
282299.75,141.703,-577.101,0,0
282560,141.296,-576.679,0,0
282820,140.815,-576.091,0,0
283081,140.48,-575.372,0,0
283341,140.171,-574.69,0,0
283601,139.928,-573.992,0,0
283862,139.707,-573.37,0,0
284122,139.475,-572.728,0,0
284382,139.178,-572.164,0,0
284643,138.902,-571.588,0,0
284903,138.51,-571.011,0,0
285163,138.103,-570.471,0,0
285424,137.625,-569.923,0,0
285684,137.091,-569.264,0,0
285944,136.52,-568.543,0,0
286205,135.915,-567.787,0,0
286465,135.29,-566.954,0,0
286725,134.679,-566.023,0,0
286986,134.053,-565.041,0,0
287246,133.423,-563.948,0,0
287506,132.787,-562.724,0,0
287767,132.218,-561.37,0,0
288027,131.762,-559.902,0,0
288287,131.465,-558.327,0,0
288548,131.331,-556.688,0,0
288808,131.39,-554.997,0,0
289068,131.725,-553.367,0,0
289329,132.233,-551.892,0,0
289589,132.892,-550.568,0,0
289849,133.646,-549.489,0,0
290109,134.324,-548.623,0,0
290370,134.988,-547.931,0,0
290630,135.499,-547.4,0,0
290890,135.853,-546.934,0,0
291151,136.102,-546.454,0,0
291411,136.255,-545.955,0,0
291671,136.327,-545.429,0,0
291932,136.378,-544.893,0,0
292192,136.342,-544.259,0,0
292452,136.327,-543.618,0,0
292713,136.259,-542.965,0,0
292973,136.096,-542.241,0,0
293233,135.947,-541.445,0,0
293494,135.8,-540.575,0,0
293754,135.699,-539.623,0,0
294014,135.626,-538.597,0,0
294275,135.589,-537.566,0,0
294535,135.616,-536.469,0,0
294795,135.715,-535.332,0,0
295056,135.778,-534.203,0,0
295316,135.936,-532.962,0,0
295576,136.184,-531.712,0,0
295837,136.543,-530.407,0,0
296097,136.973,-529.135,0,0
296357,137.507,-527.859,0,0
296618,138.155,-526.598,0,0
296878,138.895,-525.375,0,0
297138,139.712,-524.205,0,0
297399,140.64,-523.095,0,0
297659,141.592,-522.074,0,0
297919,142.617,-521.123,0,0
298180,143.692,-520.234,0,0
298440,144.798,-519.431,0,0
298700.2,145.872,-518.606,0,0
298960.525,147.129,-517.986,0,0
299220.85,148.4,-517.392,0,0
299481.175,149.579,-516.972,0,0
299741.5,150.816,-516.625,0,0
300001.825,151.912,-516.323,0,0
300262.15,153.112,-516.126,0,0
300522.475,154.307,-515.988,0,0
300782.8,155.302,-515.827,0,0
301043.125,156.392,-515.61,0,0
301303.45,157.539,-515.542,0,0
301563.775,158.761,-515.324,0,0
301824.1,160.031,-515.336,0,0
302084.425,161.383,-515.391,0,0
302344.75,162.578,-515.685,0,0
302605.075,163.903,-516.104,0,0
302865.4,165.062,-516.623,0,0
303125.725,166.053,-517.241,0,0
303386.05,167.02,-517.831,0,0
303646.375,167.795,-518.399,0,0
303906.7,168.606,-518.838,0,0
304167.025,169.524,-519.449,0,0
304427.35,170.283,-519.948,0,0
304687.675,171.087,-520.608,0,0
304948.0,171.963,-521.204,0,0
305208.325,172.733,-521.889,0,0
305468.65,173.599,-522.625,0,0
305728.975,174.476,-523.403,0,0
305989.3,175.379,-524.384,0,0
306249.625,176.073,-525.399,0,0
306509.95,176.849,-526.365,0,0
306770.275,177.508,-527.692,0,0
307030.6,178.176,-529.067,0,0
307290.925,178.605,-530.485,0,0
307551.25,178.825,-531.935,0,0
307811.575,178.959,-533.345,0,0
308071.9,178.958,-534.766,0,0
308332.225,178.985,-536.093,0,0
308592.55,178.844,-537.508,0,0
308852.875,178.641,-538.959,0,0
309113.2,178.336,-540.336,0,0
309373.525,177.857,-541.627,0,0
309633.85,177.397,-542.771,0,0
309894.175,176.953,-543.975,0,0
310154.5,176.553,-545.171,0,0
310414.825,176.107,-546.365,0,0
310675.15,175.545,-547.603,0,0
310935.475,175,-548.939,0,0
311195.8,174.232,-550.293,0,0
311456.125,173.425,-551.576,0,0
311716.45,172.48,-552.938,0,0
311976.775,171.326,-554.195,0,0
312237.1,170.121,-555.272,0,0
312497.425,168.851,-556.339,0,0
312757.75,167.429,-557.133,0,0
313018.075,166.073,-557.838,0,0
313278.4,164.787,-558.419,0,0
313538.725,163.549,-559.052,0,0
313799.05,162.379,-559.505,0,0
314059.375,161.21,-559.978,0,0
314319.7,160.045,-560.478,0,0
314580,158.924,-561.007,0,0
314840,157.926,-561.562,0,0
315101,156.7,-562.101,0,0
315361,155.538,-562.721,0,0
315621,154.246,-563.353,0,0
315882,152.819,-563.957,0,0
316142,151.429,-564.517,0,0
316402,149.934,-564.974,0,0
316663,148.408,-565.325,0,0
316923,146.91,-565.751,0,0
317183,145.168,-565.99,0,0
317444,143.57,-566.166,0,0
317704,141.869,-566.34,0,0
317964,140.26,-566.368,0,0
318225,138.593,-566.425,0,0
318485,136.84,-566.367,0,0
318745,135.076,-566.134,0,0
319006,133.328,-565.995,0,0
319266,131.636,-565.626,0,0
319526,129.974,-565.31,0,0
319787,128.27,-564.803,0,0
320047,126.696,-564.297,0,0
320307,125.005,-563.784,0,0
320567,123.39,-563.207,0,0
320828,121.783,-562.435,0,0
321088,120.163,-561.748,0,0
321348,118.618,-560.928,0,0
321609,117.113,-559.919,0,0
321869,115.695,-558.91,0,0
322129,114.309,-557.954,0,0
322390,112.99,-556.712,0,0
322650,111.779,-555.538,0,0
322910,110.695,-554.284,0,0
323171,109.612,-553.06,0,0
323431,108.715,-551.737,0,0
323691,107.938,-550.44,0,0
323952,107.269,-549.207,0,0
324212,106.625,-547.988,0,0
324472,106.136,-546.786,0,0
324733,105.543,-545.652,0,0
324993,105.185,-544.651,0,0
325253,104.778,-543.599,0,0
325514,104.448,-542.627,0,0
325774,104.106,-541.532,0,0
326034,103.942,-540.752,0,0
326295,103.72,-539.908,0,0
326555,103.522,-539.064,0,0
326815,103.315,-538.474,0,0
327076,103.137,-537.816,0,0
327336,102.898,-537.183,0,0
327596,102.621,-536.797,0,0
327857,102.34,-536.208,0,0
328117,102.057,-535.679,0,0
328377,101.757,-535.271,0,0
328638,101.576,-534.829,0,0
328898,101.128,-534.457,0,0
329158,100.759,-534.073,0,0
329419,100.34,-533.724,0,0
329679,99.9607,-533.417,0,0
329939,99.489,-533.021,0,0
330200,99.0608,-532.664,0,0
330460,98.5063,-532.332,0,0
330720.15,97.9724,-532.025,0,0
330980.475,97.4269,-531.658,0,0
331240.8,96.8444,-531.311,0,0
331501.125,96.25,-530.951,0,0
331761.45,95.6577,-530.621,0,0
332021.775,95.0308,-530.191,0,0
332282.1,94.3956,-529.933,0,0
332542.425,93.7928,-529.544,0,0
332802.75,93.1104,-529.171,0,0
333063.075,92.4262,-528.875,0,0
333323.4,91.615,-528.485,0,0
333583.725,90.7852,-528.098,0,0
333844.05,89.9918,-527.644,0,0
334104.375,89.1338,-527.21,0,0
334364.7,88.3645,-526.546,0,0
334625.025,87.4799,-525.947,0,0
334885.35,86.6025,-525.398,0,0
335145.675,85.8055,-524.753,0,0
335406.0,84.9911,-524.049,0,0
335666.325,84.2128,-523.29,0,0
335926.65,83.494,-522.574,0,0
336186.975,82.7321,-521.842,0,0
336447.3,82.0158,-521.151,0,0
336707.625,81.3206,-520.342,0,0
336967.95,80.6636,-519.551,0,0
337228.275,79.9859,-518.754,0,0
337488.6,79.3514,-517.951,0,0
337748.925,78.7253,-517.142,0,0
338009.25,78.091,-516.291,0,0
338269.575,77.5162,-515.429,0,0
338529.9,76.9839,-514.588,0,0
338790.225,76.4185,-513.772,0,0
339050.55,75.9022,-512.99,0,0
339310.875,75.3369,-512.188,0,0
339571.2,74.8163,-511.333,0,0
339831.525,74.4033,-510.497,0,0
340091.85,73.8927,-509.703,0,0
340352.175,73.4001,-508.891,0,0
340612.5,72.9589,-508.055,0,0
340872.825,72.465,-507.228,0,0
341133.15,72.0697,-506.509,0,0
341393.475,71.6187,-505.721,0,0
341653.8,71.1296,-504.898,0,0
341914.125,70.6692,-504.188,0,0
342174.45,70.2322,-503.391,0,0
342434.775,69.8043,-502.527,0,0
342695.1,69.2868,-501.786,0,0
342955.425,68.818,-500.969,0,0
343215.75,68.4006,-500.108,0,0
343476.075,67.9427,-499.356,0,0
343736.4,67.53,-498.556,0,0
343996.725,67.0993,-497.726,0,0
344257.05,66.6919,-496.877,0,0
344517.375,66.3112,-496.089,0,0
344777.7,65.8669,-495.275,0,0
345038.025,65.4865,-494.474,0,0
345298.35,65.0552,-493.645,0,0
345558.675,64.6247,-492.814,0,0
345819.0,64.2181,-491.965,0,0
346079.325,63.7301,-491.094,0,0
346339.65,63.3474,-490.245,0,0
346599.975,62.9336,-489.366,0,0
346860,62.5152,-488.448,0,0
347121,62.1061,-487.516,0,0
347381,61.7751,-486.569,0,0
347641,61.4515,-485.609,0,0
347902,61.1228,-484.628,0,0
348162,60.903,-483.66,0,0
348422,60.5933,-482.714,0,0
348683,60.3858,-481.771,0,0
348943,60.1703,-480.894,0,0
349203,59.9755,-479.928,0,0
349464,59.751,-479.032,0,0
349724,59.5842,-478.212,0,0
349984,59.3629,-477.271,0,0
350245,59.1916,-476.37,0,0
350505,58.9267,-475.496,0,0
350765,58.7697,-474.556,0,0
351025,58.6166,-473.646,0,0
351286,58.4735,-472.786,0,0
351546,58.3222,-471.879,0,0
351806,58.2503,-470.948,0,0
352067,58.1838,-470.137,0,0
352327,58.0992,-469.235,0,0
352587,58.0048,-468.406,0,0
352848,57.9295,-467.573,0,0
353108,57.9025,-466.772,0,0
353368,57.8063,-465.955,0,0
353629,57.6717,-465.1,0,0
353889,57.6284,-464.315,0,0
354149,57.5563,-463.511,0,0
354410,57.4316,-462.703,0,0
354670,57.369,-461.874,0,0
354930,57.3514,-461.072,0,0
355191,57.2833,-460.284,0,0
355451,57.2526,-459.556,0,0
355711,57.1815,-458.723,0,0
355972,57.108,-457.997,0,0
356232,57.0807,-457.179,0,0
356492,57.0219,-456.435,0,0
356753,56.9478,-455.624,0,0
357013,56.9242,-454.853,0,0
357273,56.9032,-454.076,0,0
357534,56.8396,-453.28,0,0
357794,56.7527,-452.54,0,0
358054,56.7255,-451.768,0,0
358315,56.6247,-450.933,0,0
358575,56.665,-450.159,0,0
358835,56.6582,-449.328,0,0
359096,56.6289,-448.518,0,0
359356,56.6717,-447.695,0,0
359616,56.6671,-446.964,0,0
359877,56.7656,-446.14,0,0
360137,56.8163,-445.465,0,0
360397,56.8334,-444.691,0,0
360658,56.9266,-443.895,0,0
360918,56.9658,-443.23,0,0
361178,56.9915,-442.481,0,0
361438,57.006,-441.739,0,0
361699,57.0436,-441.009,0,0
361959,57.0956,-440.291,0,0
362219,57.1102,-439.527,0,0
362480,57.1758,-438.796,0,0
362740.1,57.239,-438.089,0,0
363000.425,57.2513,-437.358,0,0
363260.75,57.3353,-436.605,0,0
363521.075,57.3831,-435.854,0,0
363781.4,57.4352,-435.081,0,0
364041.725,57.5292,-434.332,0,0
364302.05,57.6447,-433.597,0,0
364562.375,57.7586,-432.856,0,0
364822.7,57.8598,-432.082,0,0
365083.025,58.02,-431.386,0,0
365343.35,58.1726,-430.601,0,0
365603.675,58.3053,-429.967,0,0
365864.0,58.4708,-429.259,0,0
366124.325,58.6072,-428.62,0,0
366384.65,58.6982,-428,0,0
366644.975,58.7736,-427.312,0,0
366905.3,58.8219,-426.627,0,0
367165.625,58.8568,-425.944,0,0
367425.95,58.9235,-425.24,0,0
367686.275,58.909,-424.415,0,0
367946.6,58.9581,-423.638,0,0
368206.925,59.0423,-422.756,0,0
368467.25,59.1904,-421.88,0,0
368727.575,59.3754,-421.039,0,0
368987.9,59.5596,-420.136,0,0
369248.225,59.8275,-419.262,0,0
369508.55,60.1018,-418.331,0,0
369768.875,60.4152,-417.477,0,0
370029.2,60.8252,-416.593,0,0
370289.525,61.2312,-415.776,0,0
370549.85,61.588,-414.958,0,0
370810.175,62.0724,-414.099,0,0
371070.5,62.5581,-413.287,0,0
371330.825,63.1425,-412.498,0,0
371591.15,63.7517,-411.773,0,0
371851.475,64.3807,-411.079,0,0
372111.8,65.0313,-410.446,0,0
372372.125,65.7017,-409.845,0,0
372632.45,66.4116,-409.307,0,0
372892.775,67.0544,-408.867,0,0
373153.1,67.7375,-408.425,0,0
373413.425,68.3558,-408.025,0,0
373673.75,69.0045,-407.675,0,0
373934.075,69.6508,-407.372,0,0
374194.4,70.2351,-407.037,0,0
374454.725,70.8137,-406.8,0,0
374715.05,71.3791,-406.573,0,0
374975.375,71.9554,-406.367,0,0
375235.7,72.5263,-406.188,0,0
375496.025,73.0187,-406.024,0,0
375756.35,73.5025,-405.846,0,0
376016.675,73.9412,-405.73,0,0
376277.0,74.4357,-405.571,0,0
376537.325,74.8492,-405.407,0,0
376797.65,75.3153,-405.325,0,0
377057.975,75.7069,-405.222,0,0
377318.3,76.185,-405.101,0,0
377578.625,76.6093,-405.03,0,0
377838.95,76.9705,-404.978,0,0
378099.275,77.3692,-404.933,0,0
378359.6,77.7501,-404.9,0,0
378619.925,78.0609,-404.899,0,0
378880,78.3923,-404.91,0,0
379141,78.7145,-404.898,0,0
379401,78.9643,-404.862,0,0
379661,79.2161,-404.812,0,0
379922,79.4291,-404.692,0,0
380182,79.7812,-404.594,0,0
380442,80.0999,-404.458,0,0
380703,80.5375,-404.439,0,0
380963,80.939,-404.412,0,0
381223,81.4134,-404.454,0,0
381483,81.8837,-404.579,0,0
381744,82.3402,-404.818,0,0
382004,82.7078,-405.085,0,0
382264,83.0293,-405.389,0,0
382525,83.3428,-405.751,0,0
382785,83.5889,-406.107,0,0
383045,83.7191,-406.545,0,0
383306,83.8496,-406.971,0,0
383566,83.9264,-407.451,0,0
383826,83.9243,-407.921,0,0
384087,83.8345,-408.459,0,0
384347,83.6892,-408.937,0,0
384607,83.4171,-409.381,0,0
384868,83.1192,-409.828,0,0
385128,82.7689,-410.14,0,0
385388,82.3108,-410.467,0,0
385649,81.8981,-410.749,0,0
385909,81.4081,-410.967,0,0
386169,80.9217,-411.16,0,0
386430,80.3829,-411.328,0,0
386690,79.8696,-411.424,0,0
386950,79.3033,-411.491,0,0
387211,78.7306,-411.545,0,0
387471,78.1366,-411.548,0,0
387731,77.5463,-411.43,0,0
387992,76.9632,-411.296,0,0
388252,76.365,-411.126,0,0
388512,75.7887,-410.889,0,0
388773,75.2258,-410.59,0,0
389033,74.7058,-410.281,0,0
389293,74.2731,-409.973,0,0
389554,73.8245,-409.621,0,0
389814,73.4165,-409.21,0,0
390074,73.0407,-408.838,0,0
390335,72.7575,-408.481,0,0
390595,72.4326,-408.166,0,0
390855,72.1821,-407.863,0,0
391116,71.9417,-407.559,0,0
391376,71.6357,-407.323,0,0
391636,71.3553,-407.126,0,0
391896,71.0482,-406.874,0,0
392157,70.6849,-406.673,0,0
392417,70.241,-406.497,0,0
392677,69.8363,-406.268,0,0
392938,69.4303,-406.036,0,0
393198,68.9302,-405.76,0,0
393458,68.4169,-405.452,0,0
393719,67.9313,-405.136,0,0
393979,67.4169,-404.824,0,0
394239,66.9135,-404.395,0,0
394500,66.4314,-403.981,0,0
394760.05,65.9366,-403.56,0,0
395020.375,65.4028,-403.091,0,0
395280.7,64.9163,-402.603,0,0
395541.025,64.4227,-402.07,0,0
395801.35,63.8931,-401.498,0,0
396061.675,63.4509,-400.914,0,0
396322.0,62.9603,-400.301,0,0
396582.325,62.5145,-399.665,0,0
396842.65,62.1141,-398.937,0,0
397102.975,61.7542,-398.259,0,0
397363.3,61.3983,-397.519,0,0
397623.625,61.1113,-396.803,0,0
397883.95,60.8207,-396.078,0,0
398144.275,60.571,-395.338,0,0
398404.6,60.3565,-394.601,0,0
398664.925,60.1787,-393.901,0,0
398925.25,59.979,-393.154,0,0
399185.575,59.7989,-392.422,0,0
399445.9,59.6742,-391.733,0,0
399706.225,59.5902,-391.029,0,0
399966.55,59.4344,-390.322,0,0
400006.6,59.4715,-390.242,0,0