File: Accelerated corrosion test data/2025-10-20_09-18-15/sample_3.csv
Frequency (Hz),Impedance (ohms),Phase (Radians),Temperature (C),Humidity (%)
10000.0,254.476,-11904,0,0
10260.325,248.655,-11603.9,0,0
10520.65,242.994,-11318.6,0,0
10780.975,239.352,-11046.1,0,0
11041.3,232.229,-10792.1,0,0
11301.625,227.275,-10544.3,0,0
11561.95,221.882,-10308.3,0,0
11822.275,217.912,-10082.6,0,0
12082.6,214.904,-9867.9,0,0
12342.925,213.456,-9659.82,0,0
12603.25,205.852,-9463.48,0,0
12863.575,202.587,-9271.36,0,0
13123.9,203.055,-9086.69,0,0
13384.225,195.523,-8916.71,0,0
13644.55,192.794,-8747,0,0
13904.875,188.31,-8582.02,0,0
14165.2,188.529,-8423.79,0,0
14425.525,183.084,-8274.11,0,0
14685.8,180.959,-8126.88,0,0
14946.175,178.408,-7985.76,0,0
15206.5,176.099,-7843.65,0,0
15466.825,189.931,-7701.86,0,0
15727.15,192.88,-7607.25,0,0
15987.5,173.419,-7487.82,0,0
16247.8,170.338,-7358.52,0,0
16508.125,163.454,-7244.3,0,0
16768.45,170.594,-7123.07,0,0
17028.775,159.852,-7023.05,0,0
17289.1,165.35,-6908.86,0,0
17549.425,158.312,-6817.28,0,0
17809.75,158.625,-6711.14,0,0
18070.075,163.816,-6624.56,0,0
18330.4,153.951,-6528.43,0,0
18590.725,150.442,-6436.89,0,0
18851.05,147.34,-6344.73,0,0
19111.375,148.804,-6256.45,0,0
19371.7,146.795,-6170.85,0,0
19632.025,148.597,-6085.7,0,0
19892.35,154.183,-6006.17,0,0
20152.675,149.022,-5928.34,0,0
20413.0,163.778,-5849.64,0,0
20673.3,168.684,-5790.21,0,0
20933.65,166.088,-5728.35,0,0
21193.975,164.24,-5666.79,0,0
21454.3,146.269,-5603.21,0,0
21714.625,141.749,-5526.74,0,0
21974.9,145.69,-5462.16,0,0
22235.275,140.036,-5402.27,0,0
22495.6,137.542,-5339.35,0,0
22755.925,130.678,-5278.11,0,0
23016.25,129.438,-5218.37,0,0
23276.6,130.014,-5155.98,0,0
23536.9,130.39,-5109.69,0,0
23797.225,122.761,-5050.35,0,0
24057.55,120.964,-4992.28,0,0
24317.875,121.728,-4936.34,0,0
24578.2,118.681,-4886.7,0,0
24838.525,120.278,-4833.03,0,0
25098.85,117.15,-4785.76,0,0
25359.175,115.248,-4734.94,0,0
25619.5,115.184,-4687.08,0,0
25879.8,112.082,-4639.86,0,0
26140.1,109.916,-4591.94,0,0
26400.5,109.205,-4544.52,0,0
26660.8,108.996,-4498.56,0,0
26921.1,110.473,-4453.98,0,0
27181.4,109.989,-4413.93,0,0
27441.8,108.725,-4369.94,0,0
27702.1,109.51,-4329.55,0,0
27962.4,107.268,-4288.69,0,0
28222.7,105.539,-4244.94,0,0
28483.1,113.871,-4202.48,0,0
28743.4,116.142,-4169.02,0,0
29003.7,116.399,-4139.47,0,0
29264,108.595,-4104.85,0,0
29524.4,110.822,-4067.05,0,0
29784.7,105.365,-4031.66,0,0
30045,103.708,-3997.49,0,0
30305.3,102.475,-3959.37,0,0
30565.7,103.7,-3926.19,0,0
30826,103.185,-3893.28,0,0
31086.3,104.324,-3860.26,0,0
31346.6,100.635,-3829.96,0,0
31607,99.0808,-3795.47,0,0
31867.3,99.5171,-3760.77,0,0
32127.6,103.621,-3726.43,0,0
32387.9,112.522,-3699.23,0,0
32648.3,116.058,-3682.69,0,0
32908.6,104.71,-3657.45,0,0
33168.9,102.613,-3628.66,0,0
33429.2,100.253,-3602.68,0,0
33689.6,94.294,-3574.01,0,0
33949.9,92.0573,-3543.62,0,0
34210.2,92.1197,-3515.98,0,0
34470.5,90.8968,-3488.83,0,0
34730.9,88.9291,-3462.94,0,0
34991.2,87.5104,-3435.76,0,0
35251.5,87.0487,-3409.47,0,0
35511.8,85.8638,-3384.19,0,0
35772.2,85.1888,-3358.42,0,0
36032.5,84.4279,-3333.64,0,0
36292.8,83.6391,-3308.66,0,0
36553.1,83.4781,-3284.78,0,0
36813.5,82.413,-3261.33,0,0
37073.8,81.8623,-3237.62,0,0
37334.1,81.274,-3214.57,0,0
37594.4,80.7781,-3191.68,0,0
37854.8,80.2488,-3169.26,0,0
38115.1,79.7246,-3147.21,0,0
38375.4,79.1347,-3125.01,0,0
38635.7,78.7492,-3103.28,0,0
38896.1,78.4883,-3082.08,0,0
39156.4,78.1986,-3061.13,0,0
39416.7,77.752,-3040.63,0,0
39677,76.9979,-3020.37,0,0
39937.4,76.4982,-2999.72,0,0
40197.7,76.3561,-2979.45,0,0
40458,75.9185,-2960.08,0,0
40718.3,75.4076,-2940.48,0,0
40978.7,75.4544,-2920.87,0,0
41239,75.3418,-2901.83,0,0
41499.3,75.085,-2883.34,0,0
41759.6,75.4701,-2865.09,0,0
42020,74.8986,-2847.12,0,0
42280.275,74.6071,-2829.22,0,0
42540.6,73.801,-2811.37,0,0
42800.925,74.4518,-2794.04,0,0
43061.25,73.4125,-2776.81,0,0
43321.575,72.9327,-2759.47,0,0
43581.9,72.6312,-2742.1,0,0
43842.225,72.8411,-2725,0,0
44102.55,72.9027,-2708.26,0,0
44362.875,73.0096,-2692.85,0,0
44623.2,72.0701,-2676.68,0,0
44883.525,71.9659,-2660.68,0,0
45143.85,71.9203,-2644.77,0,0
45404.175,71.2287,-2629.16,0,0
45664.5,71.047,-2613.01,0,0
45924.825,71.7503,-2597.63,0,0
46185.15,70.9193,-2583.6,0,0
46445.475,70.6085,-2567.95,0,0
46705.8,70.7858,-2552.65,0,0
46966.125,70.983,-2538.27,0,0
47226.45,70.5101,-2524.32,0,0
47486.775,70.4526,-2509.33,0,0
47747.1,71.2505,-2495,0,0
48007.425,71.1192,-2482.1,0,0
48267.75,71.2338,-2468.8,0,0
48528.075,70.5285,-2455.68,0,0
48788.4,70.0489,-2442.22,0,0
49048.725,69.1039,-2428.95,0,0
49309.05,68.6182,-2415.39,0,0
49569.375,68.4891,-2402.06,0,0
49829.7,68.2291,-2389.19,0,0
50090.025,67.6009,-2376.26,0,0
50350.35,67.1918,-2363.09,0,0
50610.675,67.0426,-2349.87,0,0
50871.0,66.8759,-2337.37,0,0
51131.325,66.789,-2324.84,0,0
51391.65,66.684,-2312.19,0,0
51651.975,66.8322,-2299.91,0,0
51912.3,66.7399,-2287.9,0,0
52172.625,66.443,-2275.79,0,0
52432.95,66.3853,-2263.5,0,0
52693.275,66.6282,-2251.45,0,0
52953.6,67.0073,-2239.58,0,0
53213.925,67.5502,-2227.87,0,0
53474.25,68.2047,-2216.94,0,0
53734.575,68.5014,-2205.88,0,0
53994.9,68.6043,-2194.63,0,0
54255.225,69.7466,-2183.96,0,0
54515.55,70.4321,-2174.49,0,0
54775.875,69.624,-2165.15,0,0
55036.2,69.2032,-2154.95,0,0
55296.525,68.6075,-2145.66,0,0
55556.85,67.6026,-2135.83,0,0
55817.175,65.8219,-2125.42,0,0
56077.5,64.8297,-2114.71,0,0
56337.825,64.0021,-2104.07,0,0
56598.15,62.9999,-2093.48,0,0
56858.475,62.2116,-2082.83,0,0
57118.8,61.6889,-2071.89,0,0
57379.125,61.5677,-2061.13,0,0
57639.45,61.4676,-2050.56,0,0
57899.775,61.5965,-2040.33,0,0
58160.1,61.6471,-2030.23,0,0
58420.4,61.5039,-2020.23,0,0
58680.7,61.41,-2010.06,0,0
58941.1,61.6469,-2000.1,0,0
59201.4,61.7708,-1990.1,0,0
59461.7,62.2155,-1980.52,0,0
59722,62.2989,-1971.02,0,0
59982.4,62.6274,-1961.46,0,0
60242.7,62.822,-1952.08,0,0
60503,63.045,-1942.78,0,0
60763.3,63.4718,-1933.52,0,0
61023.7,63.6179,-1924.16,0,0
61284,64.0273,-1915.04,0,0
61544.3,64.636,-1905.87,0,0
61804.6,65.0226,-1897.17,0,0
62065,65.3339,-1888.1,0,0
62325.3,65.911,-1879.33,0,0
62585.6,66.385,-1870.41,0,0
62845.9,66.9467,-1861.27,0,0
63106.3,68.1316,-1852.29,0,0
63366.6,69.2017,-1844.05,0,0
63626.9,70.2202,-1835.32,0,0
63887.2,71.1663,-1826.82,0,0
64147.6,72.6952,-1817.57,0,0
64407.9,75.4402,-1809.02,0,0
64668.2,77.8145,-1801.78,0,0
64928.5,80.7258,-1793.87,0,0
65188.9,84.6364,-1788.15,0,0
65449.2,86.9563,-1783.08,0,0
65709.5,89.4885,-1778.21,0,0
65969.8,93.2122,-1775.49,0,0
66230.2,92.4801,-1776.33,0,0
66490.5,86.6531,-1774.49,0,0
66750.8,81.3621,-1767.58,0,0
67011.1,78.158,-1758.94,0,0
67271.5,75.928,-1750.13,0,0
67531.8,74.9651,-1741.53,0,0
67792.1,74.9632,-1733.07,0,0
68052.4,75.4705,-1725.31,0,0
68312.8,76.5582,-1718.54,0,0
68573.1,76.3565,-1712.21,0,0
68833.4,76.506,-1705.2,0,0
69093.7,77.2747,-1698.57,0,0
69354.1,77.8134,-1692.93,0,0
69614.4,78.1061,-1687.6,0,0
69874.7,77.188,-1682.37,0,0
70135,76.3693,-1676.71,0,0
70395.4,75.4794,-1670.84,0,0
70655.7,74.1958,-1664.84,0,0
70916,73.0017,-1658.52,0,0
71176.3,71.938,-1651.84,0,0
71436.7,71.5107,-1645.25,0,0
71697,70.4329,-1638.39,0,0
71957.3,70.4604,-1631.33,0,0
72217.6,70.8497,-1624.95,0,0
72478,71.0605,-1618.97,0,0
72738.3,71.1023,-1613.28,0,0
72998.6,70.8511,-1607.71,0,0
73258.9,70.4499,-1602.08,0,0
73519.3,69.9335,-1596.34,0,0
73779.6,69.6335,-1590.72,0,0
74039.9,69.0831,-1585.43,0,0
74300.225,68.2238,-1579.86,0,0
74560.55,67.5299,-1574.18,0,0
74820.875,66.741,-1568.5,0,0
75081.2,65.9312,-1562.74,0,0
75341.525,65.1584,-1556.99,0,0
75601.85,64.3123,-1551.24,0,0
75862.175,63.5137,-1545.42,0,0
76122.5,62.7197,-1539.52,0,0
76382.825,62.1217,-1533.61,0,0
76643.15,61.4983,-1527.76,0,0
76903.475,60.9296,-1521.82,0,0
77163.8,60.3619,-1516.01,0,0
77424.125,59.8007,-1510.28,0,0
77684.45,59.2441,-1504.6,0,0
77944.775,58.7092,-1498.78,0,0
78205.1,58.1597,-1492.98,0,0
78465.425,57.6805,-1487.28,0,0
78725.75,57.2337,-1481.49,0,0
78986.075,56.7901,-1475.79,0,0
79246.4,56.3736,-1470.08,0,0
79506.725,55.8898,-1464.44,0,0
79767.05,55.657,-1458.72,0,0
80027.375,55.3584,-1453.13,0,0
80287.7,55.0907,-1447.46,0,0
80548.025,54.8294,-1441.91,0,0
80808.35,54.584,-1436.4,0,0
81068.675,54.3414,-1430.94,0,0
81329.0,54.0804,-1425.41,0,0
81589.325,53.9509,-1419.98,0,0
81849.65,53.794,-1414.57,0,0
82109.975,53.6022,-1409.18,0,0
82370.3,53.53,-1403.85,0,0
82630.625,53.4214,-1398.56,0,0
82890.95,53.3628,-1393.29,0,0
83151.275,53.1935,-1388.03,0,0
83411.6,53.1496,-1382.84,0,0
83671.925,53.0353,-1377.61,0,0
83932.25,53.0027,-1372.5,0,0
84192.575,52.9791,-1367.4,0,0
84452.9,52.9127,-1362.31,0,0
84713.225,52.8167,-1357.2,0,0
84973.55,52.7754,-1352.17,0,0
85233.875,52.7783,-1347.13,0,0
85494.2,52.7599,-1342.17,0,0
85754.525,52.7758,-1337.22,0,0
86014.85,52.7835,-1332.33,0,0
86275.175,52.8092,-1327.41,0,0
86535.5,52.8741,-1322.47,0,0
86795.825,52.8553,-1317.76,0,0
87056.15,52.8816,-1312.78,0,0
87316.475,52.9184,-1307.91,0,0
87576.8,52.9897,-1302.96,0,0
87837.125,53.1923,-1298.26,0,0
88097.45,53.2939,-1293.56,0,0
88357.775,53.3075,-1288.85,0,0
88618.1,53.4496,-1283.89,0,0
88878.425,53.7543,-1279.02,0,0
89138.75,54.1145,-1274.12,0,0
89399.075,54.6012,-1269.54,0,0
89659.4,54.9337,-1265.23,0,0
89919.725,55.5059,-1260.67,0,0
90180,55.9918,-1256.47,0,0
90440.4,56.1499,-1252.13,0,0
90700.7,56.4671,-1247.67,0,0
90961,56.962,-1243.43,0,0
91221.3,57.2574,-1239.27,0,0
91481.7,57.7579,-1235.16,0,0
91742,58.1929,-1230.97,0,0
92002.3,58.4378,-1226.84,0,0
92262.6,58.9748,-1222.66,0,0
92523,59.7109,-1218.77,0,0
92783.3,60.1336,-1215.23,0,0
93043.6,60.4832,-1211.31,0,0
93303.9,61.115,-1207.52,0,0
93564.3,61.7901,-1204.09,0,0
93824.6,62.3548,-1200.83,0,0
94084.9,62.8992,-1198.09,0,0
94345.2,62.5643,-1195.48,0,0
94605.6,61.9193,-1192.51,0,0
94865.9,61.2648,-1189.6,0,0
95126.2,60.1043,-1186.42,0,0
95386.5,58.7925,-1182.66,0,0
95646.9,57.7455,-1178.51,0,0
95907.2,56.895,-1174.26,0,0
96167.5,56.2109,-1169.9,0,0
96427.8,55.879,-1165.24,0,0
96688.2,55.769,-1161.01,0,0
96948.5,55.7127,-1156.85,0,0
97208.8,55.6583,-1152.74,0,0
97469.1,55.5859,-1148.68,0,0
97729.5,55.5038,-1144.58,0,0
97989.8,55.4907,-1140.56,0,0
98250.1,55.4347,-1136.6,0,0
98510.4,55.4863,-1132.62,0,0
98770.8,55.5534,-1128.77,0,0
99031.1,55.4726,-1124.93,0,0
99291.4,55.3508,-1121.05,0,0
99551.7,55.3439,-1117.14,0,0
99812.1,55.2859,-1113.22,0,0
100072,55.2275,-1109.32,0,0
100333,55.199,-1105.45,0,0
100593,55.0856,-1101.52,0,0
100853,55.0217,-1097.48,0,0
101114,55.116,-1093.38,0,0
101374,55.1985,-1089.39,0,0
101634,55.2924,-1085.2,0,0
101895,55.6595,-1081.1,0,0
102155,56.0299,-1076.99,0,0
102415,56.6342,-1072.82,0,0
102676,57.4834,-1068.83,0,0
102936,58.4559,-1065.26,0,0
103196,59.1661,-1061.97,0,0
103457,59.5996,-1058.62,0,0
103717,60.2068,-1055.03,0,0
103977,60.9644,-1051.49,0,0
104238,61.9922,-1048.14,0,0
104498,62.9955,-1045.48,0,0
104758,63.4163,-1043.01,0,0
105019,63.5993,-1040.33,0,0
105279,63.6184,-1037.47,0,0
105539,63.8599,-1034.49,0,0
105800,64.0116,-1031.89,0,0
106060,63.9222,-1029.21,0,0
106320.175,63.5767,-1026.4,0,0
106580.5,63.3047,-1023.42,0,0
106840.825,63.0177,-1020.52,0,0
107101.15,62.4669,-1017.39,0,0
107361.475,62.1949,-1014.12,0,0
107621.8,61.8919,-1010.93,0,0
107882.125,61.539,-1007.65,0,0
108142.45,61.2646,-1004.36,0,0
108402.775,60.844,-1001.14,0,0
108663.1,60.3155,-997.661,0,0
108923.425,59.8997,-993.954,0,0
109183.75,59.7494,-990.148,0,0
109444.075,59.8243,-986.466,0,0
109704.4,59.7535,-982.973,0,0
109964.725,59.7253,-979.278,0,0
110225.05,59.7097,-975.548,0,0
110485.375,59.7933,-971.697,0,0
110745.7,60.2809,-967.902,0,0
111006.025,60.7401,-964.33,0,0
111266.35,61.3146,-960.754,0,0
111526.675,61.8076,-957.4,0,0
111787.0,62.422,-954.068,0,0
112047.325,62.805,-950.937,0,0
112307.65,63.1489,-947.747,0,0
112567.975,63.6297,-944.662,0,0
112828.3,64.0582,-941.461,0,0
113088.625,64.3503,-938.391,0,0
113348.95,64.4726,-935.404,0,0
113609.275,64.621,-932.162,0,0
113869.6,64.869,-928.919,0,0
114129.925,65.166,-925.673,0,0
114390.25,65.2511,-922.363,0,0
114650.575,65.4922,-918.968,0,0
114910.9,65.7993,-915.531,0,0
115171.225,66.183,-912.009,0,0
115431.55,66.7866,-908.585,0,0
115691.875,67.353,-905.213,0,0
115952.2,67.9092,-901.851,0,0
116212.525,68.5326,-898.479,0,0
116472.85,69.261,-895.011,0,0
116733.175,70.1467,-891.676,0,0
116993.5,70.9638,-888.457,0,0
117253.825,71.7143,-885.142,0,0
117514.15,72.5439,-881.54,0,0
117774.475,74.1036,-877.791,0,0
118034.8,76.0631,-874.877,0,0
118295.125,77.6103,-872.408,0,0
118555.45,78.9355,-870.019,0,0
118815.775,79.9585,-867.534,0,0
119076.1,81.2332,-864.653,0,0
119336.425,83.0065,-862.006,0,0
119596.75,84.9884,-859.852,0,0
119857.075,86.9417,-858.154,0,0
120117.4,88.9302,-857.218,0,0
120377.725,89.7379,-857.068,0,0
120638.05,89.9444,-856.264,0,0
120898.375,89.8638,-855.659,0,0
121158.7,88.9612,-854.619,0,0
121419.025,87.8713,-852.899,0,0
121679.35,86.8573,-850.634,0,0
121939.675,86.1129,-847.855,0,0
122200.0,85.7936,-845.005,0,0
122460,85.6254,-842.11,0,0
122721,85.7551,-839.14,0,0
122981,86.1817,-836.299,0,0
123241,86.735,-833.765,0,0
123502,87.0804,-831.419,0,0
123762,87.3527,-828.94,0,0
124022,87.7822,-826.437,0,0
124283,88.2281,-824.104,0,0
124543,88.6466,-821.808,0,0
124803,89.047,-819.548,0,0
125064,89.4515,-817.281,0,0
125324,89.9055,-815.118,0,0
125584,90.328,-813.003,0,0
125845,90.7609,-811.067,0,0
126105,91.0106,-809.267,0,0
126365,91.0486,-807.386,0,0
126626,90.9917,-805.383,0,0
126886,90.9792,-803.3,0,0
127146,90.998,-801.172,0,0
127406,91.0672,-799.214,0,0
127667,91.0599,-797.336,0,0
127927,90.7775,-795.395,0,0
128187,90.4677,-793.342,0,0
128448,89.9615,-791.199,0,0
128708,89.4407,-788.708,0,0
128968,89.2751,-786.101,0,0
129229,89.215,-783.587,0,0
129489,89.1596,-781.2,0,0
129749,88.8979,-778.697,0,0
130010,88.8887,-775.893,0,0
130270,89.2149,-773.307,0,0
130530,89.5821,-770.97,0,0
130791,89.8966,-768.844,0,0
131051,90.0268,-766.888,0,0
131311,89.9405,-764.917,0,0
131572,89.7072,-762.893,0,0
131832,89.3462,-760.726,0,0
132092,89.0561,-758.434,0,0
132353,88.742,-756,0,0
132613,88.5704,-753.554,0,0
132873,88.4336,-751.238,0,0
133134,88.2434,-748.928,0,0
133394,87.9905,-746.643,0,0
133654,87.6543,-744.315,0,0
133915,87.2129,-741.826,0,0
134175,86.8807,-739.199,0,0
134435,86.7034,-736.576,0,0
134696,86.5071,-734.165,0,0
134956,86.1326,-731.677,0,0
135216,85.8028,-728.94,0,0
135477,85.6667,-726.292,0,0
135737,85.4054,-723.778,0,0
135997,84.9661,-721.202,0,0
136258,84.5265,-718.435,0,0
136518,84.1869,-715.457,0,0
136778,83.9121,-712.412,0,0
137039,83.8081,-709.382,0,0
137299,83.7386,-706.355,0,0
137559,83.8861,-703.157,0,0
137819,84.2447,-700.172,0,0
138080,84.5881,-697.456,0,0
138340.125,84.8499,-694.77,0,0
138600.45,85.1305,-692.177,0,0
138860.775,85.3687,-689.777,0,0
139121.1,85.2563,-687.332,0,0
139381.425,85.1123,-684.744,0,0
139641.75,84.9525,-682.095,0,0
139902.075,84.7892,-679.347,0,0
140162.4,84.7511,-676.5,0,0
140422.725,84.7672,-673.831,0,0
140683.05,84.6187,-671.205,0,0
140943.375,84.3509,-668.471,0,0
141203.7,84.0766,-665.675,0,0
141464.025,83.6963,-662.81,0,0
141724.35,83.2552,-659.799,0,0
141984.675,82.9482,-656.529,0,0
142245.0,82.798,-653.287,0,0
142505.325,82.6012,-650.032,0,0
142765.65,82.4464,-646.688,0,0
143025.975,82.369,-643.266,0,0
143286.3,82.3793,-639.834,0,0
143546.625,82.4662,-636.348,0,0
143806.95,82.5185,-632.895,0,0
144067.275,82.5979,-629.341,0,0
144327.6,82.7789,-625.752,0,0
144587.925,83.044,-622.166,0,0
144848.25,83.3865,-618.548,0,0
145108.575,83.7332,-614.972,0,0
145368.9,84.1418,-611.404,0,0
145629.225,84.4803,-607.842,0,0
145889.55,84.7417,-604.159,0,0
146149.875,85.1024,-600.273,0,0
146410.2,85.7023,-596.317,0,0
146670.525,86.3844,-592.489,0,0
146930.85,87.0455,-588.619,0,0
147191.175,87.8022,-584.713,0,0
147451.5,88.5979,-580.772,0,0
147711.825,89.5164,-576.819,0,0
147972.15,90.4543,-572.842,0,0
148232.475,91.4689,-568.8,0,0
148492.8,92.6047,-564.714,0,0
148753.125,93.8266,-560.645,0,0
149013.45,95.1412,-556.535,0,0
149273.775,96.5667,-552.345,0,0
149534.1,98.1943,-548.096,0,0
149794.425,100.085,-543.914,0,0
150054.75,102.106,-539.907,0,0
150315.075,104.274,-536.004,0,0
150575.4,106.466,-532.253,0,0
150835.725,108.74,-528.556,0,0
151096.05,111.058,-524.974,0,0
151356.375,113.444,-521.443,0,0
151616.7,115.954,-517.994,0,0
151877.025,118.59,-514.774,0,0
152137.35,121.187,-511.818,0,0
152397.675,123.611,-509.014,0,0
152658.0,125.931,-506.197,0,0
152918.325,128.28,-503.448,0,0
153178.65,130.492,-500.887,0,0
153438.975,132.461,-498.254,0,0
153699.3,134.428,-495.446,0,0
153959.625,136.496,-492.583,0,0
154219.95,138.661,-489.815,0,0
154480,140.667,-487.316,0,0
154741,142.369,-484.668,0,0
155001,143.97,-481.602,0,0
155261,145.884,-478.405,0,0
155522,147.957,-475.328,0,0
155782,149.937,-472.243,0,0
156042,151.933,-469.078,0,0
156303,153.928,-465.752,0,0
156563,156.054,-462.275,0,0
156823,158.518,-458.449,0,0
157084,161.487,-454.842,0,0
157344,164.868,-451.416,0,0
157604,168.733,-448.757,0,0
157864,172.242,-446.906,0,0
158125,174.885,-445.659,0,0
158385,176.649,-444.057,0,0
158645,178.287,-441.992,0,0
158906,179.567,-439.867,0,0
159166,180.226,-437.248,0,0
159426,180.946,-433.656,0,0
159687,181.833,-429.481,0,0
159947,183.042,-424.65,0,0
160207,184.961,-419.17,0,0
160468,188.105,-413.56,0,0
160728,191.765,-408.944,0,0
160988,194.678,-404.769,0,0
161249,197.225,-399.27,0,0
161509,201.231,-393.032,0,0
161769,206.294,-387.442,0,0
162030,211.729,-382.395,0,0
162290,216.945,-377.559,0,0
162550,222.751,-372.608,0,0
162811,228.629,-367.976,0,0
163071,234.514,-362.74,0,0
163331,241.624,-357.112,0,0
163592,250.186,-352.148,0,0
163852,259.347,-348.53,0,0
164112,268.237,-345.32,0,0
164373,277.616,-342.413,0,0
164633,287.573,-339.993,0,0
164893,298.32,-338.304,0,0
165154,309.523,-338.068,0,0
165414,320.608,-339.185,0,0
165674,330.914,-341.454,0,0
165935,340.506,-343.956,0,0
166195,350.463,-346.66,0,0
166455,360.4,-350.73,0,0
166716,369.689,-355.764,0,0
166976,378.462,-361.688,0,0
167236,386.065,-368.234,0,0
167497,392.611,-375.358,0,0
167757,398.372,-382.426,0,0
168017,403.312,-389.534,0,0
168277,407.442,-396.617,0,0
168538,411.277,-403.355,0,0
168798,415.026,-410.218,0,0
169058,418.276,-417.731,0,0
169319,420.4,-425.993,0,0
169579,420.984,-434.179,0,0
169839,419.821,-441.914,0,0
170100,417.275,-447.922,0,0
170360.075,414.706,-452.003,0,0
170620.4,413.113,-454.84,0,0
170880.725,412.058,-457.804,0,0
171141.05,410.643,-460.143,0,0
171401.375,410.014,-461.57,0,0
171661.7,410.459,-463.303,0,0
171922.025,410.616,-465.573,0,0
172182.35,410.433,-467.891,0,0
172442.675,409.896,-469.197,0,0
172703.0,410.628,-469.549,0,0
172963.325,412.927,-470.827,0,0
173223.65,414.859,-473.613,0,0
173483.975,415.939,-476.599,0,0
173744.3,416.598,-479.246,0,0
174004.625,417.365,-481.318,0,0
174264.95,418.871,-483.382,0,0
174525.275,420.917,-486.534,0,0
174785.6,421.886,-490.578,0,0
175045.925,422.274,-493.693,0,0
175306.25,423.602,-496.564,0,0
175566.575,425.685,-500.575,0,0
175826.9,427.039,-506.334,0,0
176087.225,426.665,-512.408,0,0
176347.55,425.686,-518.031,0,0
176607.875,424.62,-524.262,0,0
176868.2,421.712,-531.814,0,0
177128.525,415.853,-538.382,0,0
177388.85,408.692,-542.438,0,0
177649.175,402.025,-544.431,0,0
177909.5,395.914,-546.039,0,0
178169.825,388.77,-546.737,0,0
178430.15,381.862,-545.117,0,0
178690.475,376.501,-542.081,0,0
178950.8,372.482,-538.763,0,0
179211.125,369.316,-535.209,0,0
179471.45,367.22,-531.479,0,0
179731.775,366.081,-527.785,0,0
179992.1,366.012,-524.668,0,0
180252.425,366.314,-522.288,0,0
180512.75,366.717,-520.072,0,0
180773.075,367.767,-518.251,0,0
181033.4,368.945,-517.068,0,0
181293.725,370.466,-516.569,0,0
181554.05,371.79,-516.93,0,0
181814.375,372.803,-517.601,0,0
182074.7,373.427,-519.233,0,0
182335.025,373,-521.006,0,0
182595.35,372.094,-522.582,0,0
182855.675,370.637,-524.07,0,0
183116.0,368.827,-525.115,0,0
183376.325,366.961,-525.988,0,0
183636.65,364.736,-526.943,0,0
183896.975,361.857,-527.551,0,0
184157.3,358.874,-527.516,0,0
184417.625,355.989,-527.412,0,0
184677.95,352.417,-527.153,0,0
184938.275,348.548,-525.793,0,0
185198.6,345.164,-523.728,0,0
185458.925,341.986,-521.494,0,0
185719.25,338.777,-518.927,0,0
185979.575,335.563,-515.625,0,0
186239.9,332.762,-511.632,0,0
186500,330.733,-506.901,0,0
186761,329.903,-502.122,0,0
187021,329.785,-497.889,0,0
187281,329.809,-494.204,0,0
187542,329.762,-490.698,0,0
187802,329.768,-487.11,0,0
188062,330.087,-483.475,0,0
188322,330.672,-480.221,0,0
188583,330.966,-477.3,0,0
188843,330.809,-474.095,0,0
189103,330.765,-470.167,0,0
189364,331.466,-465.884,0,0
189624,332.732,-461.78,0,0
189884,334.345,-457.944,0,0
190145,336.174,-454.407,0,0
190405,338.112,-451.121,0,0
190665,340.116,-448.03,0,0
190926,342.176,-445.215,0,0
191186,344.062,-442.65,0,0
191446,345.662,-440.101,0,0
191707,347.116,-437.267,0,0
191967,348.723,-434.27,0,0
192227,350.271,-431.302,0,0
192488,351.668,-428.001,0,0
192748,353.338,-424.177,0,0
193008,355.45,-419.969,0,0
193269,358.311,-415.571,0,0
193529,361.978,-411.371,0,0
193789,366.055,-407.787,0,0
194050,370.246,-404.651,0,0
194310,374.416,-401.734,0,0
194570,378.683,-398.868,0,0
194831,383.082,-396.135,0,0
195091,387.689,-393.384,0,0
195351,392.742,-390.661,0,0
195612,398.478,-388.053,0,0
195872,405.01,-386.175,0,0
196132,411.798,-385.399,0,0
196393,418.589,-385.873,0,0
196653,424.643,-387.049,0,0
196913,429.879,-388.938,0,0
197174,434.234,-390.753,0,0
197434,438.515,-392.296,0,0
197694,442.683,-394.282,0,0
197955,446.158,-396.821,0,0
198215,448.734,-399.157,0,0
198475,450.925,-401.267,0,0
198735,452.571,-403.231,0,0
198996,453.523,-404.353,0,0
199256,454.727,-404.692,0,0
199516,456.22,-404.958,0,0
199777,457.619,-405.24,0,0
200037,458.659,-405.323,0,0
200297,459.258,-404.834,0,0
200558,459.786,-403.097,0,0
200818,461.303,-400.28,0,0
201078,464.078,-397.491,0,0
201339,467.546,-395,0,0
201599,471.347,-392.825,0,0
201859,475.414,-390.701,0,0
202120,479.997,-388.437,0,0
202380.025,485.453,-386.343,0,0
202640.35,491.705,-385.137,0,0
202900.675,497.942,-384.883,0,0
203161.0,503.942,-385.143,0,0
203421.325,509.771,-385.67,0,0
203681.65,515.726,-386.279,0,0
203941.975,522.069,-387.329,0,0
204202.3,528.674,-389.283,0,0
204462.625,534.673,-392.31,0,0
204722.95,539.515,-395.89,0,0
204983.275,543.69,-399.295,0,0
205243.6,547.133,-402.565,0,0
205503.925,549.917,-405.334,0,0
205764.25,552.627,-407.406,0,0
206024.575,555.319,-409.076,0,0
206284.9,557.733,-410.512,0,0
206545.225,560.28,-411.102,0,0
206805.55,563.413,-410.974,0,0
207065.875,567.546,-410.553,0,0
207326.2,572.554,-410.494,0,0
207586.525,577.839,-410.997,0,0
207846.85,583.276,-411.183,0,0
208107.175,589.499,-411.502,0,0
208367.5,596.934,-412.615,0,0
208627.825,604.533,-414.885,0,0
208888.15,611.911,-418.224,0,0
209148.475,618.6,-422.121,0,0
209408.8,624.876,-426.189,0,0
209669.125,631.02,-430.178,0,0
209929.45,637.462,-434.395,0,0
210189.775,643.657,-439.074,0,0
210450.1,649.866,-444.014,0,0
210710.425,656.212,-449.496,0,0
210970.75,662.26,-455.405,0,0
211231.075,668.223,-461.839,0,0
211491.4,673.503,-468.776,0,0
211751.725,678.164,-475.814,0,0
212012.05,682.525,-482.502,0,0
212272.375,687.061,-489.077,0,0
212532.7,691.71,-495.961,0,0
212793.025,696.481,-503.347,0,0
213053.35,701.135,-511.446,0,0
213313.675,705.269,-520.234,0,0
213574.0,708.499,-529.382,0,0
213834.325,710.99,-538.429,0,0
214094.65,713.013,-547.44,0,0
214354.975,714.44,-556.305,0,0
214615.3,715.644,-564.855,0,0
214875.625,716.697,-573.002,0,0
215135.95,717.831,-581.411,0,0
215396.275,718.799,-589.86,0,0
215656.6,719.549,-598.344,0,0
215916.925,720.177,-607.031,0,0
216177.25,720.602,-615.73,0,0
216437.575,720.858,-624.803,0,0
216697.9,720.607,-634.196,0,0
216958.225,719.742,-643.64,0,0
217218.55,718.338,-653.062,0,0
217478.875,716.404,-662.413,0,0
217739.2,713.745,-671.628,0,0
217999.525,710.646,-680.187,0,0
218259.85,707.378,-688.292,0,0
218520,704.139,-696.151,0,0
218780,700.675,-703.586,0,0
219041,697.278,-710.805,0,0
219301,693.922,-717.942,0,0
219561,690.626,-724.796,0,0
219822,687.33,-731.823,0,0
220082,684.04,-738.79,0,0
220342,680.936,-745.86,0,0
220603,677.657,-753.241,0,0
220863,674.098,-761.112,0,0
221123,669.957,-769.11,0,0
221384,665.546,-777.211,0,0
221644,660.544,-785.591,0,0
221904,654.749,-794.27,0,0
222165,647.599,-802.878,0,0
222425,639.35,-810.579,0,0
222685,630.396,-817.237,0,0
222946,621.326,-822.828,0,0
223206,611.707,-827.578,0,0
223466,602.081,-830.927,0,0
223727,593.083,-833.227,0,0
223987,584.514,-835.077,0,0
224247,576.118,-836.202,0,0
224508,568.435,-836.562,0,0
224768,561.511,-836.435,0,0
225028,555.264,-836.083,0,0
225289,550.246,-835.877,0,0
225549,545.549,-836.185,0,0
225809,541.043,-836.449,0,0
226070,536.977,-837.145,0,0
226330,533.02,-838.226,0,0
226590,529.164,-839.251,0,0
226851,525.583,-840.604,0,0
227111,522.34,-842.466,0,0
227371,518.527,-845.165,0,0
227632,514.016,-848.116,0,0
227892,508.902,-850.643,0,0
228152,503.584,-852.889,0,0
228413,498.086,-854.584,0,0
228673,492.768,-856.009,0,0
228933,487.605,-857.256,0,0
229193,482.775,-858.528,0,0
229454,477.855,-860.005,0,0
229714,472.849,-861.679,0,0
229974,467.499,-863.454,0,0
230235,461.733,-864.738,0,0
230495,455.899,-865.798,0,0
230755,450.186,-866.573,0,0
231016,444.323,-867.041,0,0
231276,438.616,-867.296,0,0
231536,433.046,-867.357,0,0
231797,427.64,-867.271,0,0
232057,422.242,-867.111,0,0
232317,416.988,-866.62,0,0
232578,411.949,-866.229,0,0
232838,406.909,-865.774,0,0
233098,402.075,-865.415,0,0
233359,397.187,-864.899,0,0
233619,392.304,-864.429,0,0
233879,387.463,-863.756,0,0
234140,382.686,-862.969,0,0
234400,378.182,-862.13,0,0
234660.3,373.746,-861.498,0,0
234920.625,369.395,-860.911,0,0
235180.95,364.846,-860.389,0,0
235441.275,360.298,-859.985,0,0
235701.6,355.509,-859.563,0,0
235961.925,350.344,-858.989,0,0
236222.25,345.185,-858.067,0,0
236482.575,340.018,-856.812,0,0
236742.9,335.117,-855.402,0,0
237003.225,330.305,-854.004,0,0
237263.55,325.4,-852.606,0,0
237523.875,320.314,-851.074,0,0
237784.2,315.178,-849.269,0,0
238044.525,310.12,-846.991,0,0
238304.85,305.265,-844.545,0,0
238565.175,300.683,-841.934,0,0
238825.5,296.278,-839.34,0,0
239085.825,291.885,-836.555,0,0
239346.15,287.553,-833.715,0,0
239606.475,283.596,-830.62,0,0
239866.8,279.694,-827.728,0,0
240127.125,275.924,-824.71,0,0
240387.45,272.252,-821.661,0,0
240647.775,268.599,-818.412,0,0
240908.1,264.927,-815.009,0,0
241168.425,261.402,-811.508,0,0
241428.75,258.222,-807.653,0,0
241689.075,255.302,-803.738,0,0
241949.4,252.69,-799.667,0,0
242209.725,250.474,-795.694,0,0
242470.05,248.526,-791.801,0,0
242730.375,246.934,-787.878,0,0
242990.7,245.774,-784.247,0,0
243251.025,244.861,-781.148,0,0
243511.35,243.992,-778.458,0,0
243771.675,242.869,-776.056,0,0
244032.0,241.441,-773.863,0,0
244292.325,239.748,-771.603,0,0
244552.65,237.853,-769.165,0,0
244812.975,235.997,-766.362,0,0
245073.3,234.361,-763.583,0,0
245333.625,232.866,-760.75,0,0
245593.95,231.484,-757.886,0,0
245854.275,230.236,-754.987,0,0
246114.6,229.052,-752.266,0,0
246374.925,228.011,-749.463,0,0
246635.25,227.117,-746.693,0,0
246895.575,226.296,-744.172,0,0
247155.9,225.404,-741.784,0,0
247416.225,224.479,-739.28,0,0
247676.55,223.512,-736.729,0,0
247936.875,222.549,-733.996,0,0
248197.2,221.835,-731.293,0,0
248457.525,221.355,-728.482,0,0
248717.85,221.279,-725.842,0,0
248978.175,221.435,-723.41,0,0
249238.5,221.6,-721.391,0,0
249498.825,221.725,-719.605,0,0
249759.15,221.713,-718.078,0,0
250019.475,221.531,-716.793,0,0
250279.8,221.179,-715.566,0,0
250540,220.711,-714.337,0,0
250800,220.028,-713.13,0,0
251061,219.311,-711.946,0,0
251321,218.387,-710.76,0,0
251581,217.33,-709.521,0,0
251842,216.103,-708.221,0,0
252102,214.743,-706.752,0,0
252362,213.31,-705.069,0,0
252623,211.948,-703.218,0,0
252883,210.651,-701.264,0,0
253143,209.408,-699.294,0,0
253404,208.017,-697.219,0,0
253664,206.543,-694.945,0,0
253924,205.216,-692.382,0,0
254185,204.01,-689.607,0,0
254445,203.034,-686.708,0,0
254705,202.243,-683.723,0,0
254966,201.668,-680.683,0,0
255226,201.128,-677.567,0,0
255486,200.883,-674.34,0,0
255747,200.911,-670.997,0,0
256007,201.177,-667.749,0,0
256267,201.668,-664.47,0,0
256528,202.526,-661.213,0,0
256788,203.61,-658.269,0,0
257048,204.816,-655.447,0,0
257309,206.21,-652.762,0,0
257569,207.745,-650.27,0,0
257829,209.28,-647.994,0,0
258090,210.831,-645.749,0,0
258350,212.54,-643.543,0,0
258610,214.296,-641.371,0,0
258871,216.348,-639.267,0,0
259131,218.601,-637.358,0,0
259391,221.129,-635.598,0,0
259651,223.848,-634.127,0,0
259912,226.687,-632.93,0,0
260172,229.636,-632,0,0
260432,232.866,-631.373,0,0
260693,236.335,-631.096,0,0
260953,240.143,-631.542,0,0
261213,243.859,-632.773,0,0
261474,247.097,-634.794,0,0
261734,249.824,-637.352,0,0
261994,251.878,-640.28,0,0
262255,253.361,-643.373,0,0
262515,254.201,-646.523,0,0
262775,254.53,-649.565,0,0
263036,254.519,-652.457,0,0
263296,254.168,-655.32,0,0
263556,253.505,-658.049,0,0
263817,252.493,-660.744,0,0
264077,251.106,-663.244,0,0
264337,249.42,-665.509,0,0
264598,247.586,-667.434,0,0
264858,245.727,-669.299,0,0
265118,243.613,-671.062,0,0
265379,241.249,-672.781,0,0
265639,238.617,-674.176,0,0
265899,235.803,-675.422,0,0
266160,232.748,-676.307,0,0
266420,229.518,-676.841,0,0
266680.25,226.183,-677.008,0,0
266940.575,222.837,-676.721,0,0
267200.9,219.579,-675.978,0,0
267461.225,216.498,-674.864,0,0
267721.55,213.795,-673.509,0,0
267981.875,211.292,-672.071,0,0
268242.2,208.993,-670.514,0,0
268502.525,206.795,-668.836,0,0
268762.85,204.766,-667.11,0,0
269023.175,202.873,-665.272,0,0
269283.5,201.154,-663.302,0,0
269543.825,199.515,-661.327,0,0
269804.15,198.016,-659.22,0,0
270064.475,196.854,-657.024,0,0
270324.8,195.842,-654.889,0,0
270585.125,195.057,-652.715,0,0
270845.45,194.497,-650.662,0,0
271105.775,193.986,-648.73,0,0
271366.1,193.572,-646.858,0,0
271626.425,193.229,-645.068,0,0
271886.75,192.986,-643.446,0,0
272147.075,192.75,-641.982,0,0
272407.4,192.359,-640.537,0,0
272667.725,191.889,-639.062,0,0
272928.05,191.369,-637.504,0,0
273188.375,190.949,-635.809,0,0
273448.7,190.626,-634.031,0,0
273709.025,190.377,-632.213,0,0
273969.35,190.224,-630.335,0,0
274229.675,190.277,-628.479,0,0
274490.0,190.392,-626.535,0,0
274750.325,190.655,-624.613,0,0
275010.65,191.137,-622.674,0,0
275270.975,191.761,-620.817,0,0
275531.3,192.598,-618.974,0,0
275791.625,193.6,-617.275,0,0
276051.95,194.769,-615.672,0,0
276312.275,196.103,-614.179,0,0
276572.6,197.62,-612.973,0,0
276832.925,199.204,-611.924,0,0
277093.25,200.876,-611.196,0,0
277353.575,202.539,-610.726,0,0
277613.9,204.166,-610.449,0,0
277874.225,205.765,-610.325,0,0
278134.55,207.377,-610.397,0,0
278394.875,208.958,-610.712,0,0
278655.2,210.479,-611.307,0,0
278915.525,211.797,-612.135,0,0
279175.85,212.979,-613.132,0,0
279436.175,213.962,-614.259,0,0
279696.5,214.773,-615.551,0,0
279956.825,215.37,-616.959,0,0
280217.15,215.785,-618.487,0,0
280477.475,215.813,-620.053,0,0
280737.8,215.628,-621.59,0,0
280998.125,215.183,-623.008,0,0
281258.45,214.662,-624.401,0,0
281518.775,213.983,-625.738,0,0
281779.1,213.081,-627.068,0,0
282039.425,211.928,-628.249,0,0
282299.75,210.705,-629.273,0,0
282560,209.421,-630.176,0,0
282820,208.032,-631.015,0,0
283081,206.478,-631.693,0,0
283341,204.844,-632.174,0,0
283601,203.237,-632.441,0,0
283862,201.617,-632.578,0,0
284122,200.085,-632.658,0,0
284382,198.523,-632.614,0,0
284643,196.915,-632.499,0,0
284903,195.312,-632.291,0,0
285163,193.721,-631.834,0,0
285424,192.265,-631.309,0,0
285684,190.818,-630.751,0,0
285944,189.452,-630.066,0,0
286205,188.129,-629.313,0,0
286465,186.894,-628.48,0,0
286725,185.768,-627.573,0,0
286986,184.726,-626.622,0,0
287246,183.817,-625.704,0,0
287506,182.989,-624.754,0,0
287767,182.211,-623.838,0,0
288027,181.457,-622.91,0,0
288287,180.751,-621.972,0,0
288548,180.131,-620.952,0,0
288808,179.634,-619.92,0,0
289068,179.345,-618.859,0,0
289329,179.246,-617.998,0,0
289589,179.238,-617.339,0,0
289849,179.22,-616.888,0,0
290109,179.065,-616.648,0,0
290370,178.823,-616.447,0,0
290630,178.435,-616.335,0,0
290890,177.875,-616.224,0,0
291151,177.26,-616.109,0,0
291411,176.538,-615.904,0,0
291671,175.737,-615.68,0,0
291932,174.828,-615.43,0,0
292192,173.802,-615.054,0,0
292452,172.752,-614.511,0,0
292713,171.703,-613.78,0,0
292973,170.718,-612.871,0,0
293233,169.895,-611.845,0,0
293494,169.207,-610.76,0,0
293754,168.651,-609.613,0,0
294014,168.246,-608.505,0,0
294275,167.973,-607.371,0,0
294535,167.86,-606.25,0,0
294795,167.929,-605.214,0,0
295056,168.126,-604.312,0,0
295316,168.409,-603.558,0,0
295576,168.743,-602.974,0,0
295837,169.077,-602.552,0,0
296097,169.389,-602.296,0,0
296357,169.653,-602.146,0,0
296618,169.865,-602.101,0,0
296878,169.995,-602.165,0,0
297138,170.059,-602.33,0,0
297399,170.043,-602.546,0,0
297659,169.883,-602.839,0,0
297919,169.638,-603.145,0,0
298180,169.276,-603.479,0,0
298440,168.859,-603.759,0,0
298700.2,168.365,-604.081,0,0
298960.525,167.83,-604.391,0,0
299220.85,167.207,-604.727,0,0
299481.175,166.532,-605.029,0,0
299741.5,165.708,-605.332,0,0
300001.825,164.786,-605.607,0,0
300262.15,163.843,-605.831,0,0
300522.475,162.811,-606.007,0,0
300782.8,161.73,-606.121,0,0
301043.125,160.564,-606.167,0,0
301303.45,159.389,-606.169,0,0
301563.775,158.139,-606.088,0,0
301824.1,156.862,-605.906,0,0
302084.425,155.573,-605.65,0,0
302344.75,154.267,-605.3,0,0
302605.075,152.972,-604.842,0,0
302865.4,151.74,-604.298,0,0
303125.725,150.549,-603.734,0,0
303386.05,149.377,-603.146,0,0
303646.375,148.23,-602.509,0,0
303906.7,147.085,-601.839,0,0
304167.025,145.963,-601.099,0,0
304427.35,144.865,-600.311,0,0
304687.675,143.821,-599.463,0,0
304948.0,142.796,-598.589,0,0
305208.325,141.859,-597.664,0,0
305468.65,140.96,-596.711,0,0
305728.975,140.145,-595.778,0,0
305989.3,139.37,-594.856,0,0
306249.625,138.582,-593.913,0,0
306509.95,137.854,-592.966,0,0
306770.275,137.135,-591.986,0,0
307030.6,136.51,-590.986,0,0
307290.925,135.937,-590.007,0,0
307551.25,135.407,-589.05,0,0
307811.575,134.924,-588.094,0,0
308071.9,134.473,-587.169,0,0
308332.225,134.093,-586.284,0,0
308592.55,133.741,-585.441,0,0
308852.875,133.417,-584.642,0,0
309113.2,133.096,-583.873,0,0
309373.525,132.823,-583.185,0,0
309633.85,132.52,-582.539,0,0
309894.175,132.23,-581.939,0,0
310154.5,131.933,-581.402,0,0
310414.825,131.592,-580.934,0,0
310675.15,131.196,-580.547,0,0
310935.475,130.729,-580.184,0,0
311195.8,130.173,-579.832,0,0
311456.125,129.535,-579.468,0,0
311716.45,128.842,-579.089,0,0
311976.775,128.07,-578.665,0,0
312237.1,127.226,-578.206,0,0
312497.425,126.336,-577.669,0,0
312757.75,125.403,-577.068,0,0
313018.075,124.416,-576.348,0,0
313278.4,123.433,-575.543,0,0
313538.725,122.438,-574.598,0,0
313799.05,121.526,-573.575,0,0
314059.375,120.669,-572.454,0,0
314319.7,119.872,-571.262,0,0
314580,119.18,-570.006,0,0
314840,118.618,-568.715,0,0
315101,118.141,-567.353,0,0
315361,117.734,-566.039,0,0
315621,117.551,-564.688,0,0
315882,117.373,-563.518,0,0
316142,117.239,-562.355,0,0
316402,117.242,-561.171,0,0
316663,117.313,-560.047,0,0
316923,117.35,-559.09,0,0
317183,117.387,-558.151,0,0
317444,117.453,-557.329,0,0
317704,117.511,-556.479,0,0
317964,117.607,-555.71,0,0
318225,117.608,-554.931,0,0
318485,117.73,-554.228,0,0
318745,117.749,-553.485,0,0
319006,117.786,-552.879,0,0
319266,117.851,-552.19,0,0
319526,117.91,-551.56,0,0
319787,117.914,-551.018,0,0
320047,117.855,-550.395,0,0
320307,117.852,-549.781,0,0
320567,117.852,-549.12,0,0
320828,117.82,-548.45,0,0
321088,117.996,-547.752,0,0
321348,118.027,-547.132,0,0
321609,118.313,-546.512,0,0
321869,118.569,-545.966,0,0
322129,118.796,-545.486,0,0
322390,119.233,-545.134,0,0
322650,119.57,-544.876,0,0
322910,119.914,-544.655,0,0
323171,120.273,-544.646,0,0
323431,120.564,-544.687,0,0
323691,120.732,-544.82,0,0
323952,120.86,-545.08,0,0
324212,120.793,-545.361,0,0
324472,120.689,-545.704,0,0
324733,120.518,-546.018,0,0
324993,120.168,-546.372,0,0
325253,119.813,-546.751,0,0
325514,119.187,-547.03,0,0
325774,118.606,-547.269,0,0
326034,117.963,-547.487,0,0
326295,117.249,-547.643,0,0
326555,116.466,-547.764,0,0
326815,115.57,-547.823,0,0
327076,114.633,-547.866,0,0
327336,113.715,-547.761,0,0
327596,112.757,-547.611,0,0
327857,111.825,-547.392,0,0
328117,110.863,-547.117,0,0
328377,109.882,-546.748,0,0
328638,108.889,-546.438,0,0
328898,107.963,-545.921,0,0
329158,107.083,-545.567,0,0
329419,106.264,-545.024,0,0
329679,105.338,-544.483,0,0
329939,104.483,-544.003,0,0
330200,103.722,-543.527,0,0
330460,102.847,-542.971,0,0
330720.15,102.06,-542.455,0,0
330980.475,101.142,-541.927,0,0
331240.8,100.235,-541.36,0,0
331501.125,99.3425,-540.868,0,0
331761.45,98.4106,-540.243,0,0
332021.775,97.5173,-539.532,0,0
332282.1,96.5745,-538.808,0,0
332542.425,95.6915,-538.135,0,0
332802.75,94.7789,-537.292,0,0
333063.075,93.9131,-536.568,0,0
333323.4,93.0296,-535.751,0,0
333583.725,92.1282,-534.875,0,0
333844.05,91.3151,-533.98,0,0
334104.375,90.3984,-533.081,0,0
334364.7,89.6427,-532.141,0,0
334625.025,88.8053,-531.165,0,0
334885.35,87.9553,-530.13,0,0
335145.675,87.1528,-529.06,0,0
335406.0,86.4145,-527.972,0,0
335666.325,85.6726,-526.85,0,0
335926.65,84.984,-525.664,0,0
336186.975,84.3678,-524.463,0,0
336447.3,83.8038,-523.299,0,0
336707.625,83.2342,-522.051,0,0
336967.95,82.8048,-520.817,0,0
337228.275,82.2386,-519.614,0,0
337488.6,81.811,-518.362,0,0
337748.925,81.3757,-517.137,0,0
338009.25,81.0989,-515.927,0,0
338269.575,80.6744,-514.732,0,0
338529.9,80.3658,-513.498,0,0
338790.225,79.9848,-512.228,0,0
339050.55,79.6645,-510.976,0,0
339310.875,79.3862,-509.706,0,0
339571.2,79.1432,-508.335,0,0
339831.525,78.9099,-506.979,0,0
340091.85,78.8062,-505.562,0,0
340352.175,78.7579,-504.237,0,0
340612.5,78.8285,-502.789,0,0
340872.825,78.9425,-501.386,0,0
341133.15,79.1574,-500.048,0,0
341393.475,79.3978,-498.72,0,0
341653.8,79.8211,-497.464,0,0
341914.125,80.2114,-496.281,0,0
342174.45,80.7204,-495.191,0,0
342434.775,81.3051,-494.18,0,0
342695.1,81.8133,-493.275,0,0
342955.425,82.4212,-492.529,0,0
343215.75,83.0825,-491.773,0,0
343476.075,83.576,-491.175,0,0
343736.4,84.0787,-490.655,0,0
343996.725,84.5037,-490.143,0,0
344257.05,84.9185,-489.773,0,0
344517.375,85.2546,-489.424,0,0
344777.7,85.5166,-489.143,0,0
345038.025,85.7716,-488.801,0,0
345298.35,85.9413,-488.54,0,0
345558.675,86.0163,-488.258,0,0
345819.0,86.0614,-487.997,0,0
346079.325,86.1066,-487.787,0,0
346339.65,85.9564,-487.487,0,0
346599.975,85.8222,-487.194,0,0
346860,85.6624,-486.865,0,0
347121,85.3844,-486.541,0,0
347381,85.1055,-486.095,0,0
347641,84.8857,-485.578,0,0
347902,84.5319,-485.016,0,0
348162,84.3127,-484.407,0,0
348422,84.0178,-483.794,0,0
348683,83.7334,-483.033,0,0
348943,83.4978,-482.273,0,0
349203,83.3355,-481.434,0,0
349464,83.2483,-480.521,0,0
349724,83.2595,-479.676,0,0
349984,83.3346,-478.843,0,0
350245,83.4574,-477.995,0,0
350505,83.679,-477.169,0,0
350765,83.9955,-476.419,0,0
351025,84.3433,-475.792,0,0
351286,84.676,-475.173,0,0
351546,85.0219,-474.76,0,0
351806,85.3669,-474.383,0,0
352067,85.6481,-474.025,0,0
352327,85.9094,-473.663,0,0
352587,86.0663,-473.423,0,0
352848,86.2541,-473.235,0,0
353108,86.3754,-473.076,0,0
353368,86.3864,-472.916,0,0
353629,86.4014,-472.817,0,0
353889,86.2316,-472.717,0,0
354149,86.131,-472.533,0,0
354410,85.9175,-472.325,0,0
354670,85.6518,-472.032,0,0
354930,85.391,-471.826,0,0
355191,85.1126,-471.515,0,0
355451,84.7839,-471.23,0,0
355711,84.4796,-470.789,0,0
355972,84.1506,-470.449,0,0
356232,83.8417,-470.005,0,0
356492,83.4955,-469.484,0,0
356753,83.0923,-468.985,0,0
357013,82.7716,-468.445,0,0
357273,82.3982,-467.818,0,0
357534,82.0401,-467.161,0,0
357794,81.8077,-466.421,0,0
358054,81.6171,-465.689,0,0
358315,81.4702,-464.98,0,0
358575,81.3422,-464.311,0,0
358835,81.3579,-463.527,0,0
359096,81.3014,-462.928,0,0
359356,81.3591,-462.239,0,0
359616,81.3523,-461.612,0,0
359877,81.3625,-461.102,0,0
360137,81.3441,-460.522,0,0
360397,81.3642,-460,0,0
360658,81.4155,-459.564,0,0
360918,81.3256,-458.984,0,0
361178,81.2719,-458.523,0,0
361438,81.0998,-458.081,0,0
361699,81.0228,-457.55,0,0
361959,80.8139,-457.011,0,0
362219,80.6666,-456.415,0,0
362480,80.5447,-455.687,0,0
362740.1,80.4325,-454.979,0,0
363000.425,80.4426,-454.247,0,0
363260.75,80.5312,-453.456,0,0
363521.075,80.6015,-452.731,0,0
363781.4,80.7857,-452.103,0,0
364041.725,81.0237,-451.485,0,0
364302.05,81.2958,-450.851,0,0
364562.375,81.5903,-450.296,0,0
364822.7,81.8873,-449.855,0,0
365083.025,82.1915,-449.362,0,0
365343.35,82.5539,-449.027,0,0
365603.675,82.8,-448.729,0,0
365864.0,83.1114,-448.562,0,0
366124.325,83.3952,-448.413,0,0
366384.65,83.6225,-448.388,0,0
366644.975,83.6784,-448.441,0,0
366905.3,83.6192,-448.471,0,0
367165.625,83.5013,-448.499,0,0
367425.95,83.2176,-448.522,0,0
367686.275,82.8801,-448.515,0,0
367946.6,82.4518,-448.461,0,0
368206.925,81.9474,-448.18,0,0
368467.25,81.3813,-447.863,0,0
368727.575,80.8686,-447.414,0,0
368987.9,80.2876,-446.903,0,0
369248.225,79.856,-446.141,0,0
369508.55,79.4623,-445.316,0,0
369768.875,79.2041,-444.536,0,0
370029.2,79.0633,-443.655,0,0
370289.525,79.0555,-442.788,0,0
370549.85,79.1383,-441.918,0,0
370810.175,79.3319,-441.198,0,0
371070.5,79.6599,-440.508,0,0
371330.825,79.9789,-439.963,0,0
371591.15,80.3507,-439.574,0,0
371851.475,80.6603,-439.293,0,0
372111.8,80.8885,-439.107,0,0
372372.125,81.029,-439.017,0,0
372632.45,81.0881,-438.943,0,0
372892.775,81.0265,-438.895,0,0
373153.1,80.871,-438.842,0,0
373413.425,80.5945,-438.749,0,0
373673.75,80.2679,-438.532,0,0
373934.075,79.9234,-438.273,0,0
374194.4,79.5297,-437.957,0,0
374454.725,79.1284,-437.551,0,0
374715.05,78.7987,-437.103,0,0
374975.375,78.3987,-436.56,0,0
375235.7,78.083,-436.004,0,0
375496.025,77.7407,-435.443,0,0
375756.35,77.4499,-434.753,0,0
376016.675,77.2424,-434.137,0,0
376277.0,77.0471,-433.442,0,0
376537.325,76.8413,-432.781,0,0
376797.65,76.7627,-432.046,0,0
377057.975,76.6967,-431.344,0,0
377318.3,76.6258,-430.619,0,0
377578.625,76.6304,-429.886,0,0
377838.95,76.6937,-429.173,0,0
378099.275,76.7821,-428.5,0,0
378359.6,76.9555,-427.847,0,0
378619.925,77.0795,-427.209,0,0
378880,77.3835,-426.647,0,0
379141,77.5667,-426.137,0,0
379401,77.8251,-425.672,0,0
379661,78.0092,-425.263,0,0
379922,78.2496,-424.911,0,0
380182,78.4058,-424.568,0,0
380442,78.544,-424.348,0,0
380703,78.6353,-424.071,0,0
380963,78.6801,-423.859,0,0
381223,78.6452,-423.535,0,0
381483,78.6783,-423.281,0,0
381744,78.6547,-422.974,0,0
382004,78.6268,-422.699,0,0
382264,78.6013,-422.457,0,0
382525,78.6366,-422.124,0,0
382785,78.5929,-421.89,0,0
383045,78.5612,-421.602,0,0
383306,78.4457,-421.442,0,0
383566,78.3452,-421.225,0,0
383826,78.154,-420.957,0,0
384087,77.9671,-420.771,0,0
384347,77.7011,-420.486,0,0
384607,77.411,-420.165,0,0
384868,77.1801,-419.874,0,0
385128,76.8988,-419.462,0,0
385388,76.5956,-419.077,0,0
385649,76.3124,-418.646,0,0
385909,75.9779,-418.229,0,0
386169,75.7167,-417.764,0,0
386430,75.3888,-417.245,0,0
386690,75.0747,-416.714,0,0
386950,74.7808,-416.119,0,0
387211,74.4387,-415.526,0,0
387471,74.1864,-414.892,0,0
387731,73.864,-414.234,0,0
387992,73.5951,-413.503,0,0
388252,73.3843,-412.758,0,0
388512,73.1782,-411.987,0,0
388773,73.0521,-411.18,0,0
389033,72.8918,-410.331,0,0
389293,72.8142,-409.467,0,0
389554,72.802,-408.616,0,0
389814,72.7437,-407.717,0,0
390074,72.8291,-406.789,0,0
390335,72.9882,-405.894,0,0
390595,73.2008,-405.016,0,0
390855,73.4878,-404.149,0,0
391116,73.777,-403.334,0,0
391376,74.123,-402.528,0,0
391636,74.5343,-401.767,0,0
391896,74.9735,-401.077,0,0
392157,75.4422,-400.45,0,0
392417,75.9536,-399.885,0,0
392677,76.4341,-399.348,0,0
392938,76.9213,-398.912,0,0
393198,77.3866,-398.476,0,0
393458,77.8025,-398.114,0,0
393719,78.2498,-397.691,0,0
393979,78.6686,-397.392,0,0
394239,79.0966,-397.045,0,0
394500,79.459,-396.709,0,0
394760.05,79.9036,-396.414,0,0
395020.375,80.3256,-396.177,0,0
395280.7,80.7254,-395.94,0,0
395541.025,81.1594,-395.766,0,0
395801.35,81.5529,-395.58,0,0
396061.675,81.9823,-395.457,0,0
396322.0,82.3426,-395.342,0,0
396582.325,82.6603,-395.291,0,0
396842.65,83.0263,-395.281,0,0
397102.975,83.2879,-395.3,0,0
397363.3,83.5855,-395.286,0,0
397623.625,83.7757,-395.342,0,0
397883.95,83.9968,-395.42,0,0
398144.275,84.1767,-395.463,0,0
398404.6,84.3614,-395.585,0,0
398664.925,84.4594,-395.711,0,0
398925.25,84.5889,-395.846,0,0
399185.575,84.5976,-396.017,0,0
399445.9,84.5535,-396.21,0,0
399706.225,84.4736,-396.349,0,0
399966.55,84.3044,-396.463,0,0
400006.6,84.2994,-396.513,0,0