File: Accelerated corrosion test data/2025-10-20_09-18-15/sample_2.csv
Frequency (Hz),Impedance (ohms),Phase (Radians),Temperature (C),Humidity (%)
10000.0,224.767,-11494.6,0,0
10260.325,219.523,-11205.4,0,0
10520.65,214.197,-10930.2,0,0
10780.975,209.317,-10668.1,0,0
11041.3,204.565,-10419.2,0,0
11301.625,200.316,-10180.1,0,0
11561.95,196.713,-9950.38,0,0
11822.275,195.401,-9741.13,0,0
12082.6,189.696,-9529.8,0,0
12342.925,184.77,-9331.78,0,0
12603.25,180.265,-9139.14,0,0
12863.575,177.378,-8953.96,0,0
13123.9,174.779,-8779.86,0,0
13384.225,170.282,-8607.69,0,0
13644.55,168.145,-8441.38,0,0
13904.875,185.695,-8291.69,0,0
14165.2,163.635,-8142.23,0,0
14425.525,159.965,-7992.4,0,0
14685.8,163.757,-7844.4,0,0
14946.175,157.451,-7715.08,0,0
15206.5,160.586,-7595.74,0,0
15466.825,158.257,-7458.72,0,0
15727.15,149.36,-7343.58,0,0
15987.5,146.68,-7221.59,0,0
16247.8,146.702,-7107.3,0,0
16508.125,141.161,-6996.14,0,0
16768.45,138.854,-6887.27,0,0
17028.775,137.634,-6782.36,0,0
17289.1,136.109,-6681.42,0,0
17549.425,133.154,-6581.99,0,0
17809.75,131.626,-6485.29,0,0
18070.075,129.172,-6391.53,0,0
18330.4,127.531,-6300.52,0,0
18590.725,126.991,-6211.76,0,0
18851.05,125.909,-6125.25,0,0
19111.375,127.071,-6043.76,0,0
19371.7,125.973,-5966.36,0,0
19632.025,121.155,-5886.8,0,0
19892.35,118.975,-5808.43,0,0
20152.675,117.448,-5732.27,0,0
20413.0,116.79,-5657.41,0,0
20673.3,116.369,-5584.35,0,0
20933.65,117.084,-5512.15,0,0
21193.975,123.945,-5444.64,0,0
21454.3,130.718,-5384.69,0,0
21714.625,126.594,-5328.22,0,0
21974.9,121.302,-5262.46,0,0
22235.275,117.279,-5207.41,0,0
22495.6,113.233,-5146.63,0,0
22755.925,110.873,-5084.61,0,0
23016.25,111.217,-5029.75,0,0
23276.6,112.038,-4975.22,0,0
23536.9,107.407,-4919.07,0,0
23797.225,105.673,-4864.98,0,0
24057.55,105.13,-4813.67,0,0
24317.875,101.868,-4762.09,0,0
24578.2,100.272,-4711.31,0,0
24838.525,99.2111,-4660.11,0,0
25098.85,98.252,-4611.35,0,0
25359.175,97.0966,-4563.75,0,0
25619.5,96.3226,-4517.19,0,0
25879.8,95.2046,-4470.68,0,0
26140.1,96.0346,-4425.37,0,0
26400.5,94.6702,-4382.14,0,0
26660.8,95.2331,-4339.88,0,0
26921.1,94.3463,-4297.45,0,0
27181.4,92.9541,-4257.4,0,0
27441.8,91.2249,-4216.35,0,0
27702.1,89.7937,-4175.73,0,0
27962.4,89.2504,-4135.14,0,0
28222.7,89.3939,-4096.72,0,0
28483.1,89.2846,-4058.58,0,0
28743.4,88.1584,-4020.63,0,0
29003.7,90.2333,-3984.13,0,0
29264,90.3621,-3947.26,0,0
29524.4,93.3496,-3911.78,0,0
29784.7,97.9395,-3883.56,0,0
30045,92.3375,-3852.79,0,0
30305.3,93.3613,-3818.74,0,0
30565.7,89.7475,-3790.66,0,0
30826,87.4567,-3756.94,0,0
31086.3,86.0619,-3725.07,0,0
31346.6,84.5319,-3693.82,0,0
31607,85.1411,-3662.73,0,0
31867.3,82.5959,-3633.05,0,0
32127.6,81.6287,-3602.17,0,0
32387.9,82.2103,-3571.82,0,0
32648.3,83.3661,-3544.73,0,0
32908.6,82.8364,-3518.37,0,0
33168.9,81.3575,-3491.04,0,0
33429.2,79.0573,-3463.5,0,0
33689.6,78.8393,-3436.57,0,0
33949.9,78.1143,-3410.11,0,0
34210.2,76.3159,-3384,0,0
34470.5,75.5753,-3357.6,0,0
34730.9,75.3616,-3331.81,0,0
34991.2,74.764,-3306.84,0,0
35251.5,74.2108,-3281.96,0,0
35511.8,73.5624,-3257.29,0,0
35772.2,73.2202,-3233.38,0,0
36032.5,72.4881,-3209.92,0,0
36292.8,71.8333,-3186.17,0,0
36553.1,71.3121,-3163.1,0,0
36813.5,71.0072,-3140.43,0,0
37073.8,70.6504,-3117.8,0,0
37334.1,70.3447,-3095.75,0,0
37594.4,70.3714,-3074.05,0,0
37854.8,70.0009,-3052.52,0,0
38115.1,69.4929,-3031.74,0,0
38375.4,68.9767,-3010.58,0,0
38635.7,68.4473,-2989.97,0,0
38896.1,68.1955,-2969.33,0,0
39156.4,67.6136,-2949.31,0,0
39416.7,67.2504,-2929.4,0,0
39677,66.7403,-2909.93,0,0
39937.4,66.5011,-2890.4,0,0
40197.7,66.1912,-2871.04,0,0
40458,65.7485,-2852.37,0,0
40718.3,65.7214,-2833.39,0,0
40978.7,65.6559,-2815.35,0,0
41239,65.3089,-2797.11,0,0
41499.3,65.2732,-2779.15,0,0
41759.6,64.7248,-2761.6,0,0
42020,64.6573,-2744.22,0,0
42280.275,64.7066,-2727.19,0,0
42540.6,64.2025,-2710.13,0,0
42800.925,63.8673,-2693.37,0,0
43061.25,63.3086,-2676.56,0,0
43321.575,63.3248,-2660.2,0,0
43581.9,63.0273,-2643.65,0,0
43842.225,62.7501,-2627.7,0,0
44102.55,62.5876,-2611.68,0,0
44362.875,62.7485,-2596.31,0,0
44623.2,61.9989,-2580.83,0,0
44883.525,61.6807,-2565.11,0,0
45143.85,61.742,-2549.78,0,0
45404.175,61.5656,-2534.9,0,0
45664.5,61.1735,-2519.99,0,0
45924.825,61.4521,-2505.05,0,0
46185.15,61.5014,-2491.11,0,0
46445.475,60.9337,-2477.01,0,0
46705.8,60.3713,-2462.37,0,0
46966.125,60.6265,-2448.01,0,0
47226.45,60.6377,-2433.87,0,0
47486.775,60.6646,-2420.92,0,0
47747.1,60.2359,-2406.84,0,0
48007.425,60.2863,-2393.19,0,0
48267.75,61.2657,-2379.66,0,0
48528.075,61.4906,-2367.94,0,0
48788.4,60.8964,-2355.64,0,0
49048.725,60.1807,-2343.15,0,0
49309.05,59.4998,-2330.63,0,0
49569.375,58.5768,-2317.83,0,0
49829.7,58.2731,-2305.18,0,0
50090.025,58.0624,-2292.67,0,0
50350.35,57.5839,-2280.38,0,0
50610.675,57.3443,-2267.8,0,0
50871.0,57.4285,-2255.82,0,0
51131.325,57.162,-2244.22,0,0
51391.65,56.8671,-2232.64,0,0
51651.975,56.4498,-2221.08,0,0
51912.3,55.8283,-2209.4,0,0
52172.625,55.3093,-2197.59,0,0
52432.95,55.1632,-2186.07,0,0
52693.275,55.035,-2174.66,0,0
52953.6,54.6836,-2163.41,0,0
53213.925,54.6004,-2152.02,0,0
53474.25,54.453,-2141.07,0,0
53734.575,54.2613,-2130.01,0,0
53994.9,54.0225,-2119.15,0,0
54255.225,54.088,-2108.31,0,0
54515.55,53.9761,-2097.54,0,0
54775.875,53.9645,-2087.17,0,0
55036.2,53.8442,-2076.81,0,0
55296.525,53.6522,-2066.25,0,0
55556.85,53.6409,-2055.95,0,0
55817.175,53.6708,-2045.83,0,0
56077.5,53.5462,-2035.7,0,0
56337.825,53.5359,-2025.71,0,0
56598.15,53.5273,-2015.8,0,0
56858.475,53.6451,-2005.97,0,0
57118.8,53.6185,-1996.31,0,0
57379.125,53.6693,-1986.69,0,0
57639.45,53.7672,-1977.07,0,0
57899.775,53.9295,-1967.62,0,0
58160.1,53.8574,-1958.46,0,0
58420.4,53.7766,-1949.16,0,0
58680.7,53.7225,-1939.66,0,0
58941.1,53.912,-1930.46,0,0
59201.4,54.1123,-1921.26,0,0
59461.7,54.3688,-1912.2,0,0
59722,54.7293,-1903.19,0,0
59982.4,55.3923,-1894.26,0,0
60242.7,56.1112,-1886.09,0,0
60503,56.0639,-1878.17,0,0
60763.3,55.9984,-1869.59,0,0
61023.7,56.235,-1860.86,0,0
61284,57.0772,-1852.28,0,0
61544.3,58.2051,-1844.78,0,0
61804.6,58.9284,-1837.55,0,0
62065,58.8583,-1831.39,0,0
62325.3,57.6275,-1823.92,0,0
62585.6,57.2722,-1815.82,0,0
62845.9,57.5731,-1808.71,0,0
63106.3,56.2276,-1801.81,0,0
63366.6,55.6192,-1793.53,0,0
63626.9,55.3336,-1786.33,0,0
63887.2,54.6408,-1778.58,0,0
64147.6,54.1939,-1771.18,0,0
64407.9,53.2431,-1763.73,0,0
64668.2,52.7583,-1755.88,0,0
64928.5,52.0044,-1748.42,0,0
65188.9,51.1282,-1740.56,0,0
65449.2,50.6055,-1732.24,0,0
65709.5,50.5749,-1724.28,0,0
65969.8,50.6179,-1716.64,0,0
66230.2,50.5705,-1708.9,0,0
66490.5,50.8088,-1701.18,0,0
66750.8,50.8828,-1693.97,0,0
67011.1,50.7047,-1686.34,0,0
67271.5,51.1327,-1678.81,0,0
67531.8,51.7387,-1671.38,0,0
67792.1,52.5925,-1664.41,0,0
68052.4,53.0853,-1658.04,0,0
68312.8,53.1503,-1651.67,0,0
68573.1,53.3191,-1644.6,0,0
68833.4,53.9694,-1637.91,0,0
69093.7,54.6042,-1631.91,0,0
69354.1,54.8022,-1625.86,0,0
69614.4,55.1575,-1619.68,0,0
69874.7,55.7411,-1614.09,0,0
70135,55.6032,-1608.92,0,0
70395.4,55.1919,-1603.75,0,0
70655.7,53.9923,-1598.23,0,0
70916,53.2046,-1591.91,0,0
71176.3,52.7645,-1586.16,0,0
71436.7,51.8362,-1580.25,0,0
71697,51.0378,-1574.33,0,0
71957.3,49.8732,-1568.46,0,0
72217.6,48.6984,-1562.12,0,0
72478,47.6833,-1555.53,0,0
72738.3,46.7778,-1548.89,0,0
72998.6,46.2289,-1542,0,0
73258.9,45.8613,-1535.44,0,0
73519.3,45.2426,-1528.9,0,0
73779.6,45.061,-1522.18,0,0
74039.9,44.7667,-1515.44,0,0
74300.225,44.8202,-1508.91,0,0
74560.55,44.8435,-1502.49,0,0
74820.875,44.8747,-1496.11,0,0
75081.2,45.0206,-1489.66,0,0
75341.525,45.3854,-1483.49,0,0
75601.85,45.611,-1477.33,0,0
75862.175,45.8962,-1471.16,0,0
76122.5,46.3835,-1465.1,0,0
76382.825,46.8141,-1459.28,0,0
76643.15,47.2316,-1453.49,0,0
76903.475,47.6878,-1447.72,0,0
77163.8,48.1702,-1441.96,0,0
77424.125,48.943,-1436.33,0,0
77684.45,49.6074,-1430.97,0,0
77944.775,50.3166,-1425.66,0,0
78205.1,51.1108,-1420.48,0,0
78465.425,51.9131,-1415.69,0,0
78725.75,52.3198,-1411.18,0,0
78986.075,52.7222,-1406.62,0,0
79246.4,52.9561,-1402.08,0,0
79506.725,53.1853,-1397.71,0,0
79767.05,53.2253,-1393.65,0,0
80027.375,52.5588,-1389.55,0,0
80287.7,51.7431,-1384.96,0,0
80548.025,51.0865,-1380.11,0,0
80808.35,50.3812,-1375.18,0,0
81068.675,49.825,-1370.06,0,0
81329.0,49.3908,-1364.88,0,0
81589.325,49.06,-1359.87,0,0
81849.65,48.6415,-1354.77,0,0
82109.975,48.3198,-1349.59,0,0
82370.3,48.0453,-1344.4,0,0
82630.625,47.7886,-1339.17,0,0
82890.95,47.8598,-1333.89,0,0
83151.275,47.8563,-1328.75,0,0
83411.6,48.0374,-1323.7,0,0
83671.925,48.1965,-1318.76,0,0
83932.25,48.4356,-1313.9,0,0
84192.575,48.6371,-1309.14,0,0
84452.9,48.7396,-1304.47,0,0
84713.225,48.7445,-1299.84,0,0
84973.55,48.8344,-1295.12,0,0
85233.875,48.8518,-1290.3,0,0
85494.2,49.0957,-1285.52,0,0
85754.525,49.4066,-1280.95,0,0
86014.85,49.6202,-1276.52,0,0
86275.175,49.8242,-1272.07,0,0
86535.5,49.9308,-1267.75,0,0
86795.825,50.0378,-1263.18,0,0
87056.15,50.2878,-1258.74,0,0
87316.475,50.4347,-1254.52,0,0
87576.8,50.488,-1250.25,0,0
87837.125,50.6146,-1246.06,0,0
88097.45,50.42,-1241.68,0,0
88357.775,50.669,-1237.18,0,0
88618.1,50.9828,-1233.22,0,0
88878.425,50.6971,-1228.86,0,0
89138.75,51.1004,-1224.38,0,0
89399.075,51.1644,-1220.68,0,0
89659.4,50.9852,-1216.1,0,0
89919.725,51.4146,-1211.89,0,0
90180,51.5912,-1208.19,0,0
90440.4,51.1681,-1204.22,0,0
90700.7,50.7257,-1199.65,0,0
90961,51.0717,-1194.84,0,0
91221.3,51.7003,-1190.49,0,0
91481.7,52.2344,-1186.6,0,0
91742,52.3576,-1182.62,0,0
92002.3,52.5948,-1178.35,0,0
92262.6,53.321,-1174.16,0,0
92523,54.0339,-1170.38,0,0
92783.3,54.4586,-1166.85,0,0
93043.6,54.945,-1163.34,0,0
93303.9,55.1997,-1159.92,0,0
93564.3,55.5611,-1156.24,0,0
93824.6,56.1419,-1153.11,0,0
94084.9,56.0272,-1150.21,0,0
94345.2,55.5467,-1146.96,0,0
94605.6,55.236,-1143.21,0,0
94865.9,55.0931,-1139.82,0,0
95126.2,54.3957,-1136.32,0,0
95386.5,53.8645,-1132.21,0,0
95646.9,53.6371,-1127.7,0,0
95907.2,54.1992,-1123.27,0,0
96167.5,55.1234,-1119.5,0,0
96427.8,55.9083,-1116.1,0,0
96688.2,56.2755,-1112.88,0,0
96948.5,56.7423,-1109.54,0,0
97208.8,57.432,-1106.46,0,0
97469.1,57.867,-1104.07,0,0
97729.5,57.406,-1101.5,0,0
97989.8,56.939,-1098.37,0,0
98250.1,56.9144,-1095.18,0,0
98510.4,56.7707,-1092.33,0,0
98770.8,56.4067,-1089.54,0,0
99031.1,55.8376,-1086.78,0,0
99291.4,54.8946,-1083.86,0,0
99551.7,53.7748,-1080.59,0,0
99812.1,52.9176,-1076.78,0,0
100072,52.5535,-1072.95,0,0
100333,52.344,-1069.55,0,0
100593,51.9807,-1066.46,0,0
100853,51.1243,-1063.36,0,0
101114,50.1799,-1059.89,0,0
101374,49.0491,-1056.37,0,0
101634,47.8717,-1052.19,0,0
101895,47.3206,-1047.69,0,0
102155,47.2093,-1043.51,0,0
102415,46.9642,-1039.69,0,0
102676,46.5179,-1035.83,0,0
102936,45.9597,-1031.63,0,0
103196,45.6573,-1027.25,0,0
103457,45.6324,-1022.74,0,0
103717,45.8439,-1018.47,0,0
103977,46.1692,-1014.13,0,0
104238,46.8033,-1009.83,0,0
104498,47.5473,-1005.79,0,0
104758,48.3702,-1001.9,0,0
105019,49.1711,-998.331,0,0
105279,49.7625,-994.716,0,0
105539,50.5837,-991.007,0,0
105800,51.5481,-987.517,0,0
106060,52.5008,-984.047,0,0
106320.175,53.7395,-980.823,0,0
106580.5,54.9801,-978.002,0,0
106840.825,55.9839,-975.471,0,0
107101.15,56.9257,-973.067,0,0
107361.475,57.6458,-971.11,0,0
107621.8,57.7353,-969.185,0,0
107882.125,57.6425,-966.98,0,0
108142.45,57.3282,-964.755,0,0
108402.775,56.9366,-962.151,0,0
108663.1,56.7887,-959.688,0,0
108923.425,56.2127,-957.392,0,0
109183.75,55.3171,-954.619,0,0
109444.075,54.6666,-951.578,0,0
109704.4,54.091,-948.647,0,0
109964.725,53.2379,-945.572,0,0
110225.05,52.5063,-942.153,0,0
110485.375,51.9312,-938.566,0,0
110745.7,51.5419,-934.905,0,0
111006.025,51.3531,-931.35,0,0
111266.35,51.3577,-927.811,0,0
111526.675,51.1787,-924.18,0,0
111787.0,51.0272,-920.618,0,0
112047.325,51.232,-917.168,0,0
112307.65,51.2224,-913.812,0,0
112567.975,51.1836,-910.32,0,0
112828.3,51.337,-906.797,0,0
113088.625,51.4614,-903.204,0,0
113348.95,51.6883,-899.653,0,0
113609.275,52.0468,-896.228,0,0
113869.6,52.311,-892.825,0,0
114129.925,52.661,-889.358,0,0
114390.25,53.0005,-885.917,0,0
114650.575,53.4615,-882.556,0,0
114910.9,54.0511,-879.162,0,0
115171.225,54.6496,-875.885,0,0
115431.55,55.2164,-872.773,0,0
115691.875,55.6659,-869.61,0,0
115952.2,56.1647,-866.409,0,0
116212.525,56.7249,-863.151,0,0
116472.85,57.3691,-859.961,0,0
116733.175,58.0905,-856.788,0,0
116993.5,58.8432,-853.767,0,0
117253.825,59.5351,-850.782,0,0
117514.15,60.2724,-847.722,0,0
117774.475,61.1725,-844.791,0,0
118034.8,62.0614,-842.08,0,0
118295.125,62.6876,-839.352,0,0
118555.45,63.4532,-836.49,0,0
118815.775,64.4162,-833.766,0,0
119076.1,65.355,-831.326,0,0
119336.425,66.0785,-828.871,0,0
119596.75,66.8843,-826.368,0,0
119857.075,67.7454,-824.108,0,0
120117.4,68.4899,-822.013,0,0
120377.725,68.9837,-820.025,0,0
120638.05,69.4169,-817.98,0,0
120898.375,69.6513,-816.144,0,0
121158.7,69.5611,-814.008,0,0
121419.025,69.6055,-811.704,0,0
121679.35,69.579,-809.46,0,0
121939.675,69.4826,-807.096,0,0
122200.0,69.3841,-804.652,0,0
122460,69.2312,-802.135,0,0
122721,69.1859,-799.491,0,0
122981,69.1462,-796.819,0,0
123241,69.2153,-794.086,0,0
123502,69.4005,-791.46,0,0
123762,69.5025,-788.929,0,0
124022,69.5218,-786.348,0,0
124283,69.5497,-783.746,0,0
124543,69.5182,-781.105,0,0
124803,69.4507,-778.452,0,0
125064,69.3447,-775.705,0,0
125324,69.2784,-772.872,0,0
125584,69.2663,-769.968,0,0
125845,69.3536,-767.019,0,0
126105,69.4201,-764.104,0,0
126365,69.4752,-761.122,0,0
126626,69.6145,-758.022,0,0
126886,69.8993,-754.894,0,0
127146,70.2431,-751.817,0,0
127406,70.6574,-748.75,0,0
127667,71.1966,-745.76,0,0
127927,71.7741,-742.828,0,0
128187,72.2835,-739.858,0,0
128448,72.9281,-736.913,0,0
128708,73.5841,-734.023,0,0
128968,74.3262,-731.205,0,0
129229,75.045,-728.466,0,0
129489,75.7294,-725.777,0,0
129749,76.422,-723.054,0,0
130010,77.1778,-720.294,0,0
130270,78.1065,-717.673,0,0
130530,79.0127,-715.216,0,0
130791,79.902,-712.927,0,0
131051,80.6141,-710.769,0,0
131311,81.151,-708.626,0,0
131572,81.6046,-706.401,0,0
131832,82.0033,-704.15,0,0
132092,82.415,-701.852,0,0
132353,82.7096,-699.588,0,0
132613,82.9655,-697.231,0,0
132873,83.254,-694.83,0,0
133134,83.5124,-692.39,0,0
133394,83.8396,-689.944,0,0
133654,84.1033,-687.579,0,0
133915,84.3198,-685.184,0,0
134175,84.4125,-682.774,0,0
134435,84.4708,-680.284,0,0
134696,84.4457,-677.632,0,0
134956,84.4843,-674.881,0,0
135216,84.5986,-672.041,0,0
135477,84.808,-669.101,0,0
135737,85.0837,-666.243,0,0
135997,85.3336,-663.334,0,0
136258,85.6642,-660.32,0,0
136518,86.1432,-657.431,0,0
136778,86.4684,-654.56,0,0
137039,86.8419,-651.537,0,0
137299,87.3837,-648.498,0,0
137559,87.9791,-645.573,0,0
137819,88.5575,-642.744,0,0
138080,89.1316,-640.001,0,0
138340.125,89.447,-637.251,0,0
138600.45,89.6816,-634.302,0,0
138860.775,90.0131,-631.254,0,0
139121.1,90.3399,-628.11,0,0
139381.425,90.7418,-624.898,0,0
139641.75,91.1087,-621.689,0,0
139902.075,91.4196,-618.27,0,0
140162.4,91.8893,-614.602,0,0
140422.725,92.601,-610.877,0,0
140683.05,93.4924,-607.176,0,0
140943.375,94.486,-603.457,0,0
141203.7,95.5777,-599.656,0,0
141464.025,96.9526,-595.805,0,0
141724.35,98.6549,-592.117,0,0
141984.675,100.464,-588.709,0,0
142245.0,102.254,-585.585,0,0
142505.325,103.875,-582.577,0,0
142765.65,105.348,-579.565,0,0
143025.975,106.763,-576.431,0,0
143286.3,108.199,-573.217,0,0
143546.625,109.758,-569.921,0,0
143806.95,111.485,-566.636,0,0
144067.275,113.239,-563.472,0,0
144327.6,114.936,-560.318,0,0
144587.925,116.628,-557.036,0,0
144848.25,118.54,-553.685,0,0
145108.575,120.579,-550.473,0,0
145368.9,122.626,-547.324,0,0
145629.225,124.687,-544.224,0,0
145889.55,126.697,-541.117,0,0
146149.875,128.71,-537.884,0,0
146410.2,130.838,-534.576,0,0
146670.525,133.068,-531.201,0,0
146930.85,135.446,-527.77,0,0
147191.175,137.995,-524.3,0,0
147451.5,140.748,-520.847,0,0
147711.825,143.608,-517.435,0,0
147972.15,146.597,-513.932,0,0
148232.475,149.852,-510.346,0,0
148492.8,153.481,-506.797,0,0
148753.125,157.375,-503.334,0,0
149013.45,161.688,-499.898,0,0
149273.775,166.568,-496.832,0,0
149534.1,171.635,-494.3,0,0
149794.425,176.795,-492.142,0,0
150054.75,182.067,-490.212,0,0
150315.075,187.674,-488.584,0,0
150575.4,193.615,-487.616,0,0
150835.725,199.462,-487.499,0,0
151096.05,204.934,-487.861,0,0
151356.375,210.259,-488.56,0,0
151616.7,215.456,-489.719,0,0
151877.025,220.469,-491.455,0,0
152137.35,224.947,-493.873,0,0
152397.675,228.63,-496.541,0,0
152658.0,231.717,-499.19,0,0
152918.325,234.425,-501.742,0,0
153178.65,236.871,-504.342,0,0
153438.975,238.873,-507.184,0,0
153699.3,240.165,-509.89,0,0
153959.625,241.104,-512.29,0,0
154219.95,241.731,-514.375,0,0
154480,242.099,-516.167,0,0
154741,242.442,-517.659,0,0
155001,242.782,-518.855,0,0
155261,243.244,-520.004,0,0
155522,243.83,-521.051,0,0
155782,244.415,-522.533,0,0
156042,244.479,-524.011,0,0
156303,244.28,-525.259,0,0
156563,243.899,-526.307,0,0
156823,243.41,-527.222,0,0
157084,242.972,-528.124,0,0
157344,242.113,-528.8,0,0
157604,241.061,-529.042,0,0
157864,240.305,-528.901,0,0
158125,239.725,-528.956,0,0
158385,238.744,-529.05,0,0
158645,237.596,-528.682,0,0
158906,236.546,-527.884,0,0
159166,235.712,-526.897,0,0
159426,234.928,-525.6,0,0
159687,234.646,-524.02,0,0
159947,234.782,-522.462,0,0
160207,235.381,-521.246,0,0
160468,235.65,-520.386,0,0
160728,235.621,-519.12,0,0
160988,236.166,-517.408,0,0
161249,237.46,-515.763,0,0
161509,239.374,-514.644,0,0
161769,241.64,-514.486,0,0
162030,244.023,-515.402,0,0
162290,245.462,-517.588,0,0
162550,245.559,-519.777,0,0
162811,245.16,-521.615,0,0
163071,243.987,-523.712,0,0
163331,242.067,-525.276,0,0
163592,239.745,-526.124,0,0
163852,237.321,-526.438,0,0
164112,235.157,-526.687,0,0
164373,232.537,-526.747,0,0
164633,229.715,-526.473,0,0
164893,226.51,-525.918,0,0
165154,223.024,-524.642,0,0
165414,219.623,-522.453,0,0
165674,216.872,-519.692,0,0
165935,214.621,-516.875,0,0
166195,212.678,-514.127,0,0
166455,210.755,-511.478,0,0
166716,208.65,-508.77,0,0
166976,206.697,-505.7,0,0
167236,204.84,-502.652,0,0
167497,202.754,-499.535,0,0
167757,200.538,-495.672,0,0
168017,198.633,-491.337,0,0
168277,197.338,-486.531,0,0
168538,196.723,-481.805,0,0
168798,196.538,-477.554,0,0
169058,196.117,-473.377,0,0
169319,195.711,-468.963,0,0
169579,195.609,-464.292,0,0
169839,195.852,-459.71,0,0
170100,196.313,-455.288,0,0
170360.075,196.771,-451.108,0,0
170620.4,197.188,-446.806,0,0
170880.725,197.603,-442.382,0,0
171141.05,198.177,-437.631,0,0
171401.375,199.151,-432.853,0,0
171661.7,200.242,-428.161,0,0
171922.025,201.658,-423.369,0,0
172182.35,203.247,-418.824,0,0
172442.675,204.773,-414.334,0,0
172703.0,206.579,-409.719,0,0
172963.325,208.675,-405.381,0,0
173223.65,210.458,-401.137,0,0
173483.975,212.24,-396.603,0,0
173744.3,214.298,-391.855,0,0
174004.625,216.633,-387.199,0,0
174264.95,219.104,-382.524,0,0
174525.275,221.707,-377.69,0,0
174785.6,224.878,-372.741,0,0
175045.925,228.324,-368.033,0,0
175306.25,232.104,-363.542,0,0
175566.575,236.066,-359.225,0,0
175826.9,240.134,-355.273,0,0
176087.225,244.04,-351.307,0,0
176347.55,248.352,-347.064,0,0
176607.875,253.316,-343.106,0,0
176868.2,258.579,-339.633,0,0
177128.525,264.174,-336.695,0,0
177388.85,269.842,-334.583,0,0
177649.175,275.108,-333.22,0,0
177909.5,279.698,-332.054,0,0
178169.825,283.889,-330.521,0,0
178430.15,288.589,-328.776,0,0
178690.475,293.845,-327.752,0,0
178950.8,298.674,-327.809,0,0
179211.125,301.692,-327.033,0,0
179471.45,305.544,-327.395,0,0
179731.775,308.397,-328.04,0,0
179992.1,310.148,-328.313,0,0
180252.425,311.625,-327.614,0,0
180512.75,313.156,-326.613,0,0
180773.075,314.237,-325.507,0,0
181033.4,314.999,-323.597,0,0
181293.725,315.935,-320.951,0,0
181554.05,317.168,-317.598,0,0
181814.375,318.997,-313.844,0,0
182074.7,321.425,-310.157,0,0
182335.025,324.102,-306.678,0,0
182595.35,326.466,-303.184,0,0
182855.675,328.815,-299.059,0,0
183116.0,331.774,-294.433,0,0
183376.325,335.302,-289.671,0,0
183636.65,339.323,-284.931,0,0
183896.975,343.793,-280.243,0,0
184157.3,348.677,-275.49,0,0
184417.625,354.343,-271.005,0,0
184677.95,360.319,-267.23,0,0
184938.275,366.178,-263.782,0,0
185198.6,371.956,-260.507,0,0
185458.925,377.784,-257.177,0,0
185719.25,383.765,-253.94,0,0
185979.575,389.871,-250.648,0,0
186239.9,396.346,-247.365,0,0
186500,402.856,-244.445,0,0
186761,409.209,-241.493,0,0
187021,416.111,-237.907,0,0
187281,423.945,-234.727,0,0
187542,432.108,-232.286,0,0
187802,440.162,-230.41,0,0
188062,448.313,-228.746,0,0
188322,456.364,-227.576,0,0
188583,464.17,-226.797,0,0
188843,471.48,-226.172,0,0
189103,478.279,-225.1,0,0
189364,485.14,-223.517,0,0
189624,492.475,-221.568,0,0
189884,500.04,-219.207,0,0
190145,508.449,-216.673,0,0
190405,517.609,-214.402,0,0
190665,527.008,-212.48,0,0
190926,536.741,-210.405,0,0
191186,547.365,-208.448,0,0
191446,558.782,-207.101,0,0
191707,570.424,-206.557,0,0
191967,582.187,-206.21,0,0
192227,594.634,-206.131,0,0
192488,607.557,-206.682,0,0
192748,621.012,-207.739,0,0
193008,635.198,-209.544,0,0
193269,649.886,-212.61,0,0
193529,664.577,-216.983,0,0
193789,679.115,-222.543,0,0
194050,693.065,-229.213,0,0
194310,706.324,-236.318,0,0
194570,719.509,-243.695,0,0
194831,732.769,-251.9,0,0
195091,745.769,-261.248,0,0
195351,757.85,-271.528,0,0
195612,768.89,-282.087,0,0
195872,779.468,-292.403,0,0
196132,790.104,-302.835,0,0
196393,800.755,-313.931,0,0
196653,811.06,-325.628,0,0
196913,820.945,-337.764,0,0
197174,830.599,-350.228,0,0
197434,840.29,-363.316,0,0
197694,849.628,-377.61,0,0
197955,857.933,-392.781,0,0
198215,865.24,-408.324,0,0
198475,871.652,-424.145,0,0
198735,877.338,-439.976,0,0
198996,882.614,-456.124,0,0
199256,887.023,-472.727,0,0
199516,890.692,-489.291,0,0
199777,893.781,-506.32,0,0
200037,896.046,-523.689,0,0
200297,897.376,-540.994,0,0
200558,897.855,-558.614,0,0
200818,897.53,-576.209,0,0
201078,896.282,-594.109,0,0
201339,893.584,-612.046,0,0
201599,889.569,-629.462,0,0
201859,884.477,-646.11,0,0
202120,878.732,-661.727,0,0
202380.025,872.66,-676.595,0,0
202640.35,866.543,-691.298,0,0
202900.675,859.645,-705.857,0,0
203161.0,851.71,-719.909,0,0
203421.325,843.073,-733.169,0,0
203681.65,834.088,-744.937,0,0
203941.975,825.414,-755.738,0,0
204202.3,817.407,-766.366,0,0
204462.625,809.763,-777.108,0,0
204722.95,801.723,-788.635,0,0
204983.275,792.399,-800.214,0,0
205243.6,781.64,-811.267,0,0
205503.925,770.238,-821.138,0,0
205764.25,758.356,-829.654,0,0
206024.575,746.632,-836.872,0,0
206284.9,735.476,-843.372,0,0
206545.225,724.403,-849.644,0,0
206805.55,712.892,-855.652,0,0
207065.875,700.868,-860.325,0,0
207326.2,689.341,-863.881,0,0
207586.525,678.469,-866.449,0,0
207846.85,668.446,-868.383,0,0
208107.175,659.84,-869.512,0,0
208367.5,651.715,-871.62,0,0
208627.825,644.01,-873.691,0,0
208888.15,637.012,-875.777,0,0
209148.475,630.465,-878.576,0,0
209408.8,623.904,-882.331,0,0
209669.125,616.335,-886.822,0,0
209929.45,607.763,-890.979,0,0
210189.775,599.066,-894.652,0,0
210450.1,590.073,-897.926,0,0
210710.425,580.922,-901.154,0,0
210970.75,571.159,-904.054,0,0
211231.075,560.861,-906.599,0,0
211491.4,550.065,-908.105,0,0
211751.725,539.306,-908.473,0,0
212012.05,528.871,-907.703,0,0
212272.375,519.338,-906.437,0,0
212532.7,510.503,-904.898,0,0
212793.025,501.97,-903.399,0,0
213053.35,493.629,-901.618,0,0
213313.675,485.482,-899.613,0,0
213574.0,477.742,-897.253,0,0
213834.325,470.424,-894.772,0,0
214094.65,463.478,-892.205,0,0
214354.975,456.691,-889.679,0,0
214615.3,450.203,-886.971,0,0
214875.625,443.83,-884.252,0,0
215135.95,437.706,-881.365,0,0
215396.275,431.623,-878.354,0,0
215656.6,425.829,-875.1,0,0
215916.925,420.367,-871.56,0,0
216177.25,415.364,-868.039,0,0
216437.575,410.622,-864.487,0,0
216697.9,406.211,-860.983,0,0
216958.225,402.075,-857.374,0,0
217218.55,398.274,-853.837,0,0
217478.875,394.723,-850.503,0,0
217739.2,391.428,-847.241,0,0
217999.525,388.214,-844.143,0,0
218259.85,385.034,-841.03,0,0
218520,382.087,-837.815,0,0
218780,379.427,-834.719,0,0
219041,376.939,-831.724,0,0
219301,374.592,-828.906,0,0
219561,372.378,-826.206,0,0
219822,370.129,-823.47,0,0
220082,367.998,-820.856,0,0
220342,365.969,-818.278,0,0
220603,363.896,-815.553,0,0
220863,362.124,-812.609,0,0
221123,360.822,-809.877,0,0
221384,359.803,-807.304,0,0
221644,358.852,-805.143,0,0
221904,357.955,-803.118,0,0
222165,357.201,-801.241,0,0
222425,356.335,-799.632,0,0
222685,355.502,-797.987,0,0
222946,354.717,-796.629,0,0
223206,353.811,-795.463,0,0
223466,352.793,-794.251,0,0
223727,351.685,-792.92,0,0
223987,350.764,-791.588,0,0
224247,350.055,-790.312,0,0
224508,349.269,-789.133,0,0
224768,348.631,-788.079,0,0
225028,347.94,-787.258,0,0
225289,347.226,-786.321,0,0
225549,346.589,-785.376,0,0
225809,345.924,-784.559,0,0
226070,345.556,-783.638,0,0
226330,345.229,-782.954,0,0
226590,344.938,-782.466,0,0
226851,344.799,-782.082,0,0
227111,344.471,-781.741,0,0
227371,344.325,-781.537,0,0
227632,344.489,-781.519,0,0
227892,344.68,-781.884,0,0
228152,344.727,-782.621,0,0
228413,344.589,-783.68,0,0
228673,344.189,-785.009,0,0
228933,343.57,-786.457,0,0
229193,342.672,-787.97,0,0
229454,341.43,-789.656,0,0
229714,339.961,-791.15,0,0
229974,338.33,-792.657,0,0
230235,336.456,-794.069,0,0
230495,334.51,-795.478,0,0
230755,332.45,-796.766,0,0
231016,330.237,-798.002,0,0
231276,327.961,-799.209,0,0
231536,325.716,-800.448,0,0
231797,323.15,-801.618,0,0
232057,320.604,-802.834,0,0
232317,317.621,-804.012,0,0
232578,314.639,-804.791,0,0
232838,311.7,-805.672,0,0
233098,308.578,-806.394,0,0
233359,305.345,-806.9,0,0
233619,302.123,-807.347,0,0
233879,298.795,-807.624,0,0
234140,295.466,-807.755,0,0
234400,292.213,-807.779,0,0
234660.3,288.961,-807.645,0,0
234920.625,285.744,-807.572,0,0
235180.95,282.4,-807.4,0,0
235441.275,279.21,-807.016,0,0
235701.6,275.963,-806.685,0,0
235961.925,272.779,-806.196,0,0
236222.25,269.6,-805.818,0,0
236482.575,266.358,-805.243,0,0
236742.9,263.061,-804.739,0,0
237003.225,259.697,-804.061,0,0
237263.55,256.273,-803.205,0,0
237523.875,252.876,-802.19,0,0
237784.2,249.611,-801.04,0,0
238044.525,246.482,-799.686,0,0
238304.85,243.435,-798.376,0,0
238565.175,240.533,-797.077,0,0
238825.5,237.591,-795.924,0,0
239085.825,234.698,-794.577,0,0
239346.15,231.605,-793.19,0,0
239606.475,228.602,-791.686,0,0
239866.8,225.607,-790.112,0,0
240127.125,222.8,-788.357,0,0
240387.45,219.971,-786.639,0,0
240647.775,217.231,-784.808,0,0
240908.1,214.524,-782.836,0,0
241168.425,211.881,-780.826,0,0
241428.75,209.443,-778.766,0,0
241689.075,207.024,-776.551,0,0
241949.4,204.83,-774.299,0,0
242209.725,202.755,-772.039,0,0
242470.05,200.893,-769.764,0,0
242730.375,199.207,-767.549,0,0
242990.7,197.644,-765.485,0,0
243251.025,196.186,-763.507,0,0
243511.35,194.827,-761.6,0,0
243771.675,193.498,-759.808,0,0
244032.0,192.276,-758.153,0,0
244292.325,191.032,-756.642,0,0
244552.65,189.862,-755.255,0,0
244812.975,188.608,-754.074,0,0
245073.3,187.293,-752.945,0,0
245333.625,186.022,-752.048,0,0
245593.95,184.561,-751.252,0,0
245854.275,182.964,-750.574,0,0
246114.6,181.134,-750.088,0,0
246374.925,178.952,-749.517,0,0
246635.25,176.466,-748.95,0,0
246895.575,173.677,-748.15,0,0
247155.9,170.792,-747.069,0,0
247416.225,167.91,-745.694,0,0
247676.55,164.911,-744.073,0,0
247936.875,162.085,-742.293,0,0
248197.2,159.265,-740.435,0,0
248457.525,156.488,-738.4,0,0
248717.85,153.691,-736.293,0,0
248978.175,150.981,-733.953,0,0
249238.5,148.236,-731.603,0,0
249498.825,145.547,-729.001,0,0
249759.15,142.898,-726.201,0,0
250019.475,140.374,-723.369,0,0
250279.8,137.974,-720.292,0,0
250540,135.681,-717.037,0,0
250800,133.523,-713.727,0,0
251061,131.526,-710.261,0,0
251321,129.718,-706.756,0,0
251581,128.16,-703.036,0,0
251842,126.807,-699.417,0,0
252102,125.653,-695.749,0,0
252362,124.726,-692.187,0,0
252623,123.937,-688.635,0,0
252883,123.278,-685.234,0,0
253143,122.715,-681.893,0,0
253404,122.192,-678.629,0,0
253664,121.714,-675.383,0,0
253924,121.329,-672.18,0,0
254185,120.992,-669.001,0,0
254445,120.64,-665.78,0,0
254705,120.442,-662.609,0,0
254966,120.308,-659.316,0,0
255226,120.211,-656.179,0,0
255486,120.301,-652.908,0,0
255747,120.498,-649.729,0,0
256007,120.819,-646.626,0,0
256267,121.279,-643.521,0,0
256528,121.85,-640.483,0,0
256788,122.474,-637.514,0,0
257048,123.182,-634.667,0,0
257309,124.012,-631.886,0,0
257569,124.794,-629.155,0,0
257829,125.754,-626.496,0,0
258090,126.709,-623.935,0,0
258350,127.749,-621.431,0,0
258610,128.823,-618.956,0,0
258871,129.99,-616.577,0,0
259131,131.152,-614.248,0,0
259391,132.451,-612.01,0,0
259651,133.794,-609.844,0,0
259912,135.205,-607.786,0,0
260172,136.695,-605.859,0,0
260432,138.137,-603.997,0,0
260693,139.63,-602.262,0,0
260953,141.153,-600.564,0,0
261213,142.733,-599.002,0,0
261474,144.313,-597.569,0,0
261734,145.881,-596.237,0,0
261994,147.456,-595.004,0,0
262255,148.95,-593.893,0,0
262515,150.479,-592.853,0,0
262775,151.919,-591.852,0,0
263036,153.363,-590.887,0,0
263296,154.793,-590.015,0,0
263556,156.218,-589.204,0,0
263817,157.586,-588.456,0,0
264077,158.967,-587.737,0,0
264337,160.358,-587.074,0,0
264598,161.758,-586.477,0,0
264858,163.192,-585.943,0,0
265118,164.607,-585.558,0,0
265379,165.961,-585.32,0,0
265639,167.224,-585.145,0,0
265899,168.364,-585.064,0,0
266160,169.446,-584.955,0,0
266420,170.446,-584.886,0,0
266680.25,171.422,-584.777,0,0
266940.575,172.418,-584.715,0,0
267200.9,173.395,-584.7,0,0
267461.225,174.331,-584.76,0,0
267721.55,175.188,-584.899,0,0
267981.875,176.018,-585.089,0,0
268242.2,176.75,-585.364,0,0
268502.525,177.376,-585.776,0,0
268762.85,177.729,-586.19,0,0
269023.175,177.992,-586.527,0,0
269283.5,178.023,-586.718,0,0
269543.825,178.003,-586.8,0,0
269804.15,177.901,-586.691,0,0
270064.475,177.853,-586.439,0,0
270324.8,177.871,-586.011,0,0
270585.125,177.943,-585.573,0,0
270845.45,178.08,-585.078,0,0
271105.775,178.303,-584.57,0,0
271366.1,178.506,-584.003,0,0
271626.425,178.74,-583.398,0,0
271886.75,178.98,-582.656,0,0
272147.075,179.312,-581.753,0,0
272407.4,179.83,-580.76,0,0
272667.725,180.553,-579.702,0,0
272928.05,181.488,-578.595,0,0
273188.375,182.648,-577.561,0,0
273448.7,184.054,-576.572,0,0
273709.025,185.69,-575.658,0,0
273969.35,187.624,-574.958,0,0
274229.675,189.766,-574.471,0,0
274490.0,192.043,-574.269,0,0
274750.325,194.47,-574.382,0,0
275010.65,197.022,-574.793,0,0
275270.975,199.646,-575.586,0,0
275531.3,202.286,-576.739,0,0
275791.625,204.879,-578.471,0,0
276051.95,207.279,-580.617,0,0
276312.275,209.319,-583.204,0,0
276572.6,210.977,-586.118,0,0
276832.925,212.173,-589.254,0,0
277093.25,212.897,-592.481,0,0
277353.575,213.203,-595.704,0,0
277613.9,213.185,-598.909,0,0
277874.225,212.771,-602.062,0,0
278134.55,212.066,-605.108,0,0
278394.875,211.038,-608.011,0,0
278655.2,209.755,-610.728,0,0
278915.525,208.338,-613.287,0,0
279175.85,206.721,-615.658,0,0
279436.175,204.927,-617.92,0,0
279696.5,202.995,-620.032,0,0
279956.825,200.914,-621.94,0,0
280217.15,198.712,-623.587,0,0
280477.475,196.488,-624.997,0,0
280737.8,194.35,-626.27,0,0
280998.125,192.244,-627.499,0,0
281258.45,190.151,-628.694,0,0
281518.775,187.962,-629.945,0,0
281779.1,185.668,-631.138,0,0
282039.425,183.177,-632.33,0,0
282299.75,180.465,-633.408,0,0
282560,177.514,-634.285,0,0
282820,174.376,-634.857,0,0
283081,171.195,-635.096,0,0
283341,167.983,-634.97,0,0
283601,164.946,-634.493,0,0
283862,162.154,-633.741,0,0
284122,159.718,-632.924,0,0
284382,157.455,-632.268,0,0
284643,155.205,-631.729,0,0
284903,152.851,-631.298,0,0
285163,150.328,-630.817,0,0
285424,147.694,-630.234,0,0
285684,144.895,-629.439,0,0
285944,142.016,-628.487,0,0
286205,139.074,-627.29,0,0
286465,136.051,-625.809,0,0
286725,133.039,-624.008,0,0
286986,130.134,-621.871,0,0
287246,127.33,-619.38,0,0
287506,124.713,-616.608,0,0
287767,122.353,-613.512,0,0
288027,120.198,-610.089,0,0
288287,118.43,-606.42,0,0
288548,117.121,-602.51,0,0
288808,116.314,-598.462,0,0
289068,116.017,-594.339,0,0
289329,116.26,-590.308,0,0
289589,116.988,-586.468,0,0
289849,118.124,-582.931,0,0
290109,119.593,-579.682,0,0
290370,121.229,-576.702,0,0
290630,123.158,-573.872,0,0
290890,125.341,-571.334,0,0
291151,127.846,-569.118,0,0
291411,130.579,-567.275,0,0
291671,133.534,-565.873,0,0
291932,136.631,-564.984,0,0
292192,139.827,-564.652,0,0
292452,142.956,-564.974,0,0
292713,145.81,-565.968,0,0
292973,148.192,-567.536,0,0
293233,149.927,-569.457,0,0
293494,151.007,-571.464,0,0
293754,151.49,-573.449,0,0
294014,151.478,-575.162,0,0
294275,151.072,-576.609,0,0
294535,150.422,-577.582,0,0
294795,149.702,-578.124,0,0
295056,149.159,-578.229,0,0
295316,148.849,-578.052,0,0
295576,148.94,-577.657,0,0
295837,149.481,-577.295,0,0
296097,150.563,-577.142,0,0
296357,152.028,-577.493,0,0
296618,153.671,-578.592,0,0
296878,155.065,-580.437,0,0
297138,155.92,-582.861,0,0
297399,156.103,-585.613,0,0
297659,155.55,-588.451,0,0
297919,154.325,-591.071,0,0
298180,152.631,-593.332,0,0
298440,150.653,-595.141,0,0
298700.2,148.564,-596.595,0,0
298960.525,146.385,-597.776,0,0
299220.85,144.167,-598.658,0,0
299481.175,141.878,-599.334,0,0
299741.5,139.572,-599.715,0,0
300001.825,137.325,-599.827,0,0
300262.15,135.192,-599.711,0,0
300522.475,133.171,-599.406,0,0
300782.8,131.328,-598.973,0,0
301043.125,129.643,-598.429,0,0
301303.45,128.109,-597.847,0,0
301563.775,126.695,-597.237,0,0
301824.1,125.407,-596.636,0,0
302084.425,124.278,-596.04,0,0
302344.75,123.271,-595.522,0,0
302605.075,122.353,-595.101,0,0
302865.4,121.461,-594.823,0,0
303125.725,120.529,-594.683,0,0
303386.05,119.527,-594.577,0,0
303646.375,118.432,-594.534,0,0
303906.7,117.298,-594.48,0,0
304167.025,116.102,-594.447,0,0
304427.35,114.858,-594.457,0,0
304687.675,113.493,-594.453,0,0
304948.0,112.062,-594.445,0,0
305208.325,110.462,-594.386,0,0
305468.65,108.799,-594.188,0,0
305728.975,107.07,-593.891,0,0
305989.3,105.316,-593.457,0,0
306249.625,103.646,-592.946,0,0
306509.95,101.939,-592.311,0,0
306770.275,100.281,-591.604,0,0
307030.6,98.6336,-590.835,0,0
307290.925,97.0589,-589.999,0,0
307551.25,95.5171,-589.123,0,0
307811.575,94.029,-588.216,0,0
308071.9,92.5494,-587.293,0,0
308332.225,91.0737,-586.338,0,0
308592.55,89.614,-585.319,0,0
308852.875,88.1772,-584.227,0,0
309113.2,86.8043,-583.077,0,0
309373.525,85.4817,-581.905,0,0
309633.85,84.2228,-580.709,0,0
309894.175,83.0106,-579.528,0,0
310154.5,81.7853,-578.306,0,0
310414.825,80.6313,-577.066,0,0
310675.15,79.4894,-575.806,0,0
310935.475,78.3891,-574.496,0,0
311195.8,77.3531,-573.194,0,0
311456.125,76.3562,-571.872,0,0
311716.45,75.3806,-570.574,0,0
311976.775,74.4561,-569.252,0,0
312237.1,73.5543,-567.93,0,0
312497.425,72.6716,-566.589,0,0
312757.75,71.8411,-565.246,0,0
313018.075,71.0398,-563.901,0,0
313278.4,70.2669,-562.571,0,0
313538.725,69.4946,-561.207,0,0
313799.05,68.7855,-559.851,0,0
314059.375,68.1117,-558.507,0,0
314319.7,67.4832,-557.179,0,0
314580,66.8362,-555.831,0,0
314840,66.2186,-554.539,0,0
315101,65.7278,-553.223,0,0
315361,65.1367,-551.914,0,0
315621,64.6072,-550.613,0,0
315882,64.0414,-549.343,0,0
316142,63.5165,-548.032,0,0
316402,62.9726,-546.752,0,0
316663,62.562,-545.382,0,0
316923,62.1424,-544.083,0,0
317183,61.6785,-542.774,0,0
317444,61.304,-541.486,0,0
317704,60.8657,-540.183,0,0
317964,60.5411,-538.912,0,0
318225,60.2215,-537.603,0,0
318485,59.9462,-536.388,0,0
318745,59.6791,-535.088,0,0
319006,59.3524,-533.903,0,0
319266,59.0958,-532.749,0,0
319526,58.7978,-531.551,0,0
319787,58.5456,-530.365,0,0
320047,58.2713,-529.196,0,0
320307,58.0256,-527.985,0,0
320567,57.7509,-526.781,0,0
320828,57.4652,-525.552,0,0
321088,57.251,-524.393,0,0
321348,57.0112,-523.19,0,0
321609,56.8062,-521.919,0,0
321869,56.5509,-520.762,0,0
322129,56.4031,-519.535,0,0
322390,56.2036,-518.248,0,0
322650,56.036,-517.06,0,0
322910,55.8799,-515.804,0,0
323171,55.7964,-514.571,0,0
323431,55.6186,-513.36,0,0
323691,55.528,-511.981,0,0
323952,55.441,-510.714,0,0
324212,55.4628,-509.315,0,0
324472,55.4526,-507.997,0,0
324733,55.4652,-506.603,0,0
324993,55.6769,-505.19,0,0
325253,55.9095,-503.759,0,0
325514,56.2292,-502.427,0,0
325774,56.6933,-501.058,0,0
326034,57.1884,-499.749,0,0
326295,57.754,-498.54,0,0
326555,58.4409,-497.425,0,0
326815,59.1446,-496.443,0,0
327076,59.8234,-495.608,0,0
327336,60.5635,-494.889,0,0
327596,61.1052,-494.283,0,0
327857,61.7103,-493.64,0,0
328117,62.1857,-493.085,0,0
328377,62.5503,-492.549,0,0
328638,63.0669,-491.953,0,0
328898,63.4291,-491.44,0,0
329158,63.8411,-490.923,0,0
329419,64.3107,-490.447,0,0
329679,64.7918,-489.992,0,0
329939,65.1679,-489.618,0,0
330200,65.6218,-489.329,0,0
330460,66.0071,-489.048,0,0
330720.15,66.3289,-488.842,0,0
330980.475,66.7056,-488.639,0,0
331240.8,67.0277,-488.511,0,0
331501.125,67.1754,-488.52,0,0
331761.45,67.3838,-488.459,0,0
332021.775,67.4627,-488.462,0,0
332282.1,67.4128,-488.544,0,0
332542.425,67.3317,-488.635,0,0
332802.75,67.0593,-488.666,0,0
333063.075,66.779,-488.66,0,0
333323.4,66.3735,-488.61,0,0
333583.725,65.8623,-488.452,0,0
333844.05,65.4374,-488.287,0,0
334104.375,64.9428,-487.918,0,0
334364.7,64.4363,-487.567,0,0
334625.025,63.8658,-487.133,0,0
334885.35,63.4041,-486.695,0,0
335145.675,62.9287,-486.188,0,0
335406.0,62.4489,-485.693,0,0
335666.325,62.0255,-485.129,0,0
335926.65,61.5719,-484.576,0,0
336186.975,61.1118,-483.98,0,0
336447.3,60.6724,-483.398,0,0
336707.625,60.2734,-482.732,0,0
336967.95,59.8472,-482.047,0,0
337228.275,59.4511,-481.334,0,0
337488.6,59.015,-480.618,0,0
337748.925,58.7073,-479.933,0,0
338009.25,58.3477,-479.111,0,0
338269.575,58.0247,-478.428,0,0
338529.9,57.7108,-477.655,0,0
338790.225,57.3456,-476.887,0,0
339050.55,56.9848,-476.145,0,0
339310.875,56.7265,-475.383,0,0
339571.2,56.4618,-474.575,0,0
339831.525,56.2003,-473.713,0,0
340091.85,55.9295,-472.9,0,0
340352.175,55.6256,-472.122,0,0
340612.5,55.4741,-471.263,0,0
340872.825,55.2426,-470.354,0,0
341133.15,55.058,-469.531,0,0
341393.475,54.8009,-468.721,0,0
341653.8,54.636,-467.829,0,0
341914.125,54.4277,-466.97,0,0
342174.45,54.2571,-466.104,0,0
342434.775,54.1283,-465.202,0,0
342695.1,53.9616,-464.236,0,0
342955.425,53.8472,-463.323,0,0
343215.75,53.7862,-462.389,0,0
343476.075,53.6992,-461.45,0,0
343736.4,53.6843,-460.495,0,0
343996.725,53.6636,-459.572,0,0
344257.05,53.6901,-458.65,0,0
344517.375,53.7372,-457.717,0,0
344777.7,53.8063,-456.782,0,0
345038.025,53.8624,-455.81,0,0
345298.35,53.9796,-454.995,0,0
345558.675,54.1128,-454.031,0,0
345819.0,54.2683,-453.149,0,0
346079.325,54.415,-452.294,0,0
346339.65,54.6527,-451.422,0,0
346599.975,54.843,-450.614,0,0
346860,55.0408,-449.769,0,0
347121,55.2318,-448.952,0,0
347381,55.4327,-448.111,0,0
347641,55.7327,-447.314,0,0
347902,56.0147,-446.499,0,0
348162,56.2376,-445.742,0,0
348422,56.5528,-444.98,0,0
348683,56.8773,-444.256,0,0
348943,57.2195,-443.522,0,0
349203,57.5607,-442.796,0,0
349464,57.8739,-442.118,0,0
349724,58.269,-441.473,0,0
349984,58.6719,-440.779,0,0
350245,59.0985,-440.199,0,0
350505,59.4902,-439.605,0,0
350765,59.8665,-439.037,0,0
351025,60.2736,-438.499,0,0
351286,60.6681,-438.121,0,0
351546,61.0943,-437.662,0,0
351806,61.3781,-437.239,0,0
352067,61.7335,-436.836,0,0
352327,61.9942,-436.532,0,0
352587,62.2268,-436.151,0,0
352848,62.4052,-435.714,0,0
353108,62.5964,-435.294,0,0
353368,62.8275,-434.866,0,0
353629,63.0384,-434.412,0,0
353889,63.2199,-433.955,0,0
354149,63.4728,-433.416,0,0
354410,63.7323,-432.988,0,0
354670,63.9771,-432.529,0,0
354930,64.2002,-432.071,0,0
355191,64.4861,-431.632,0,0
355451,64.7739,-431.199,0,0
355711,65.0295,-430.742,0,0
355972,65.3234,-430.282,0,0
356232,65.6473,-429.845,0,0
356492,65.9426,-429.437,0,0
356753,66.3591,-429.026,0,0
357013,66.713,-428.62,0,0
357273,67.0663,-428.26,0,0
357534,67.4662,-427.933,0,0
357794,67.8747,-427.574,0,0
358054,68.317,-427.379,0,0
358315,68.6813,-427.096,0,0
358575,69.1285,-426.877,0,0
358835,69.4316,-426.743,0,0
359096,69.8157,-426.599,0,0
359356,70.1541,-426.488,0,0
359616,70.5295,-426.377,0,0
359877,70.7973,-426.35,0,0
360137,71.1512,-426.277,0,0
360397,71.3704,-426.264,0,0
360658,71.6173,-426.287,0,0
360918,71.7774,-426.339,0,0
361178,71.9622,-426.343,0,0
361438,72.1338,-426.441,0,0
361699,72.2356,-426.464,0,0
361959,72.2623,-426.508,0,0
362219,72.2906,-426.526,0,0
362480,72.312,-426.533,0,0
362740.1,72.2981,-426.565,0,0
363000.425,72.1891,-426.549,0,0
363260.75,72.1553,-426.497,0,0
363521.075,72.0763,-426.496,0,0
363781.4,71.9652,-426.445,0,0
364041.725,71.8935,-426.362,0,0
364302.05,71.7764,-426.304,0,0
364562.375,71.6003,-426.202,0,0
364822.7,71.5292,-426.064,0,0
365083.025,71.401,-425.933,0,0
365343.35,71.2691,-425.774,0,0
365603.675,71.0851,-425.608,0,0
365864.0,70.9777,-425.442,0,0
366124.325,70.862,-425.232,0,0
366384.65,70.6806,-425.03,0,0
366644.975,70.5625,-424.767,0,0
366905.3,70.4607,-424.523,0,0
367165.625,70.3446,-424.28,0,0
367425.95,70.3134,-424.034,0,0
367686.275,70.2624,-423.692,0,0
367946.6,70.2658,-423.418,0,0
368206.925,70.2873,-423.197,0,0
368467.25,70.3969,-422.939,0,0
368727.575,70.4571,-422.782,0,0
368987.9,70.5401,-422.644,0,0
369248.225,70.6285,-422.626,0,0
369508.55,70.7064,-422.605,0,0
369768.875,70.6852,-422.598,0,0
370029.2,70.6192,-422.647,0,0
370289.525,70.4747,-422.724,0,0
370549.85,70.311,-422.757,0,0
370810.175,70.0534,-422.773,0,0
371070.5,69.7988,-422.698,0,0
371330.825,69.5297,-422.591,0,0
371591.15,69.266,-422.464,0,0
371851.475,69.022,-422.321,0,0
372111.8,68.8366,-422.132,0,0
372372.125,68.6627,-421.96,0,0
372632.45,68.4758,-421.881,0,0
372892.775,68.2982,-421.718,0,0
373153.1,68.1416,-421.644,0,0
373413.425,67.8985,-421.574,0,0
373673.75,67.6974,-421.469,0,0
373934.075,67.4454,-421.408,0,0
374194.4,67.1408,-421.35,0,0
374454.725,66.846,-421.263,0,0
374715.05,66.5287,-421.104,0,0
374975.375,66.2297,-421.042,0,0
375235.7,65.8147,-420.857,0,0
375496.025,65.4947,-420.678,0,0
375756.35,65.0811,-420.519,0,0
376016.675,64.7584,-420.32,0,0
376277.0,64.4235,-420.102,0,0
376537.325,64.0285,-419.847,0,0
376797.65,63.7161,-419.625,0,0
377057.975,63.3955,-419.383,0,0
377318.3,63.1167,-419.174,0,0
377578.625,62.7749,-418.979,0,0
377838.95,62.4337,-418.839,0,0
378099.275,62.0137,-418.676,0,0
378359.6,61.6262,-418.556,0,0
378619.925,61.1807,-418.439,0,0
378880,60.6527,-418.247,0,0
379141,60.0864,-418.096,0,0
379401,59.4509,-417.845,0,0
379661,58.6822,-417.409,0,0
379922,57.9858,-416.955,0,0
380182,57.3065,-416.314,0,0
380442,56.742,-415.605,0,0
380703,56.3007,-414.748,0,0
380963,56.0135,-413.909,0,0
381223,55.8489,-413.143,0,0
381483,55.795,-412.462,0,0
381744,55.8881,-411.94,0,0
382004,55.8917,-411.489,0,0
382264,55.8639,-411.142,0,0
382525,55.7993,-410.942,0,0
382785,55.6837,-410.731,0,0
383045,55.3985,-410.533,0,0
383306,55.0948,-410.336,0,0
383566,54.7624,-410.12,0,0
383826,54.3129,-409.857,0,0
384087,53.8767,-409.548,0,0
384347,53.42,-409.211,0,0
384607,52.9535,-408.792,0,0
384868,52.4245,-408.361,0,0
385128,51.9116,-407.893,0,0
385388,51.4757,-407.393,0,0
385649,51.0249,-406.827,0,0
385909,50.5555,-406.258,0,0
386169,50.128,-405.65,0,0
386430,49.7932,-405.011,0,0
386690,49.3685,-404.394,0,0
386950,48.9966,-403.773,0,0
387211,48.6672,-403.123,0,0
387471,48.3434,-402.427,0,0
387731,48.0657,-401.793,0,0
387992,47.7004,-401.078,0,0
388252,47.4242,-400.365,0,0
388512,47.1929,-399.623,0,0
388773,46.9585,-398.871,0,0
389033,46.7613,-398.122,0,0
389293,46.6327,-397.382,0,0
389554,46.5055,-396.595,0,0
389814,46.4698,-395.889,0,0
390074,46.489,-395.128,0,0
390335,46.4954,-394.509,0,0
390595,46.6025,-393.91,0,0
390855,46.6292,-393.349,0,0
391116,46.7117,-392.854,0,0
391376,46.7475,-392.462,0,0
391636,46.7366,-392.077,0,0
391896,46.6676,-391.71,0,0
392157,46.5352,-391.431,0,0
392417,46.354,-391.111,0,0
392677,46.0792,-390.811,0,0
392938,45.7411,-390.412,0,0
393198,45.4294,-389.973,0,0
393458,45.0803,-389.507,0,0
393719,44.686,-389.002,0,0
393979,44.2786,-388.474,0,0
394239,43.8713,-387.816,0,0
394500,43.5006,-387.172,0,0
394760.05,43.1483,-386.472,0,0
395020.375,42.7186,-385.667,0,0
395280.7,42.4514,-384.874,0,0
395541.025,42.1889,-384.051,0,0
395801.35,41.9675,-383.208,0,0
396061.675,41.7572,-382.34,0,0
396322.0,41.6366,-381.46,0,0
396582.325,41.5282,-380.614,0,0
396842.65,41.4156,-379.716,0,0
397102.975,41.3819,-378.879,0,0
397363.3,41.3864,-378.026,0,0
397623.625,41.4304,-377.184,0,0
397883.95,41.4691,-376.337,0,0
398144.275,41.5196,-375.548,0,0
398404.6,41.5942,-374.723,0,0
398664.925,41.7197,-373.993,0,0
398925.25,41.8462,-373.189,0,0
399185.575,41.9829,-372.474,0,0
399445.9,42.1373,-371.714,0,0
399706.225,42.2913,-371.027,0,0
399966.55,42.4325,-370.3,0,0
400006.6,42.4796,-370.203,0,0