File: Accelerated corrosion test data/2025-10-03_06-00-02/sample_3.csv
Frequency (Hz),Impedance (ohms),Phase (Radians),Temperature (C),Humidity (%)
10000.0,253.599,-11767,0,0
10260.325,247.386,-11470.4,0,0
10520.65,241.974,-11188.6,0,0
10780.975,237.128,-10919.1,0,0
11041.3,231.544,-10668,0,0
11301.625,225.666,-10422.9,0,0
11561.95,221.41,-10189.6,0,0
11822.275,216.66,-9966.67,0,0
12082.6,213.708,-9753.19,0,0
12342.925,210.663,-9547.72,0,0
12603.25,204.732,-9353.97,0,0
12863.575,201.048,-9164.91,0,0
13123.9,201.385,-8981.96,0,0
13384.225,194.296,-8813.81,0,0
13644.55,191.265,-8646.54,0,0
13904.875,186.807,-8483.51,0,0
14165.2,186.025,-8326.75,0,0
14425.525,181.808,-8179.38,0,0
14685.8,180.371,-8034.83,0,0
14946.175,177.927,-7894.94,0,0
15206.5,174.556,-7756.23,0,0
15466.825,178.003,-7618.18,0,0
15727.15,199.742,-7509.1,0,0
15987.5,176.639,-7403.02,0,0
16247.8,169.186,-7273.26,0,0
16508.125,163.607,-7162.18,0,0
16768.45,164.515,-7041.33,0,0
17028.775,159.912,-6943.62,0,0
17289.1,161.541,-6829.94,0,0
17549.425,158.397,-6738.63,0,0
17809.75,158.38,-6633.61,0,0
18070.075,165.523,-6543.99,0,0
18330.4,152.934,-6454.65,0,0
18590.725,149.898,-6362.37,0,0
18851.05,146.5,-6272.68,0,0
19111.375,147.13,-6182.76,0,0
19371.7,146.949,-6100.8,0,0
19632.025,147.481,-6018.17,0,0
19892.35,147.968,-5935.83,0,0
20152.675,150.785,-5862.43,0,0
20413.0,158.609,-5781.78,0,0
20673.3,164,-5715.05,0,0
20933.65,164.79,-5664.29,0,0
21193.975,165.398,-5599.27,0,0
21454.3,146.905,-5538.53,0,0
21714.625,139.575,-5463.93,0,0
21974.9,144.179,-5398.48,0,0
22235.275,139.332,-5339.4,0,0
22495.6,138.405,-5276.72,0,0
22755.925,130.089,-5218,0,0
23016.25,129.282,-5158.4,0,0
23276.6,128.82,-5096.16,0,0
23536.9,131.342,-5050.33,0,0
23797.225,122.816,-4992.08,0,0
24057.55,120.157,-4934.87,0,0
24317.875,120.524,-4879.39,0,0
24578.2,118.973,-4830.08,0,0
24838.525,119.649,-4776.43,0,0
25098.85,117.389,-4730.62,0,0
25359.175,115.429,-4681.15,0,0
25619.5,115.142,-4632.82,0,0
25879.8,112.184,-4586.43,0,0
26140.1,109.623,-4539.59,0,0
26400.5,108.471,-4492.55,0,0
26660.8,109.005,-4447.89,0,0
26921.1,109.021,-4403.32,0,0
27181.4,109.455,-4362.62,0,0
27441.8,107.668,-4318.93,0,0
27702.1,110.19,-4278.91,0,0
27962.4,106.376,-4240.36,0,0
28222.7,104.328,-4197.43,0,0
28483.1,110.443,-4154.3,0,0
28743.4,114.18,-4120.25,0,0
29003.7,115.7,-4089.22,0,0
29264,107.846,-4056.32,0,0
29524.4,110.819,-4018.43,0,0
29784.7,105.452,-3986.39,0,0
30045,104.273,-3951.67,0,0
30305.3,101.487,-3914.72,0,0
30565.7,103.559,-3880.87,0,0
30826,102.188,-3847.92,0,0
31086.3,103.416,-3815.68,0,0
31346.6,99.6762,-3785.76,0,0
31607,98.3897,-3751.6,0,0
31867.3,98.9476,-3717.55,0,0
32127.6,102.034,-3684.67,0,0
32387.9,109.037,-3655.72,0,0
32648.3,114.105,-3637.98,0,0
32908.6,104.022,-3614.47,0,0
33168.9,102.292,-3585.7,0,0
33429.2,100.637,-3559.12,0,0
33689.6,95.1325,-3532.35,0,0
33949.9,91.8527,-3502.96,0,0
34210.2,91.7825,-3474.72,0,0
34470.5,90.8116,-3448.81,0,0
34730.9,88.3738,-3422.36,0,0
34991.2,87.4816,-3395.72,0,0
35251.5,86.8565,-3369.78,0,0
35511.8,85.7401,-3344.6,0,0
35772.2,85.041,-3319.51,0,0
36032.5,84.1571,-3294.95,0,0
36292.8,83.4324,-3270.33,0,0
36553.1,83.3639,-3246.41,0,0
36813.5,82.589,-3223.43,0,0
37073.8,81.7327,-3200.21,0,0
37334.1,81.1423,-3177.11,0,0
37594.4,80.8877,-3154.64,0,0
37854.8,80.0263,-3132.48,0,0
38115.1,79.5533,-3110.94,0,0
38375.4,79.1512,-3088.98,0,0
38635.7,78.7064,-3067.6,0,0
38896.1,78.4178,-3046.46,0,0
39156.4,77.8807,-3025.63,0,0
39416.7,77.8806,-3005.39,0,0
39677,77.0977,-2985.38,0,0
39937.4,76.3298,-2965.36,0,0
40197.7,76.3883,-2945.27,0,0
40458,75.8606,-2925.64,0,0
40718.3,75.4641,-2906.53,0,0
40978.7,74.9444,-2887.56,0,0
41239,75.0529,-2868.5,0,0
41499.3,74.8501,-2850.11,0,0
41759.6,75.0124,-2831.76,0,0
42020,74.578,-2814.04,0,0
42280.275,74.6603,-2796.19,0,0
42540.6,74.0485,-2779.18,0,0
42800.925,74.0511,-2761.65,0,0
43061.25,73.3337,-2744.78,0,0
43321.575,72.7423,-2727.53,0,0
43581.9,72.23,-2710.28,0,0
43842.225,72.4573,-2693.43,0,0
44102.55,72.5887,-2677.26,0,0
44362.875,72.7226,-2661.4,0,0
44623.2,72.0554,-2645.52,0,0
44883.525,71.8335,-2629.69,0,0
45143.85,71.4675,-2614.15,0,0
45404.175,71.269,-2598.69,0,0
45664.5,70.8531,-2582.9,0,0
45924.825,71.4384,-2567.87,0,0
46185.15,70.9781,-2553.2,0,0
46445.475,70.7388,-2538.34,0,0
46705.8,70.5418,-2523.46,0,0
46966.125,70.8678,-2508.86,0,0
47226.45,70.1659,-2495.1,0,0
47486.775,70.1425,-2480.49,0,0
47747.1,70.5842,-2465.82,0,0
48007.425,71.4709,-2453.07,0,0
48267.75,71.3307,-2440.08,0,0
48528.075,70.1439,-2426.93,0,0
48788.4,70.0178,-2413.68,0,0
49048.725,69.1718,-2400.77,0,0
49309.05,68.5802,-2387.26,0,0
49569.375,68.61,-2373.98,0,0
49829.7,68.4171,-2361.15,0,0
50090.025,67.7121,-2348.64,0,0
50350.35,67.2859,-2335.73,0,0
50610.675,67.0249,-2322.71,0,0
50871.0,67.0028,-2310.13,0,0
51131.325,66.9044,-2297.77,0,0
51391.65,66.8678,-2285.31,0,0
51651.975,66.9242,-2273.17,0,0
51912.3,66.8917,-2261.12,0,0
52172.625,66.7332,-2249.2,0,0
52432.95,66.7035,-2237.15,0,0
52693.275,66.8978,-2225.27,0,0
52953.6,67.2469,-2213.5,0,0
53213.925,67.9058,-2201.87,0,0
53474.25,68.6685,-2191.15,0,0
53734.575,68.7868,-2180.46,0,0
53994.9,69.1328,-2169.49,0,0
54255.225,69.7729,-2158.94,0,0
54515.55,70.7424,-2149.39,0,0
54775.875,70.2927,-2140.43,0,0
55036.2,69.2837,-2130.44,0,0
55296.525,68.7695,-2120.87,0,0
55556.85,67.5541,-2111.51,0,0
55817.175,65.711,-2100.92,0,0
56077.5,64.9948,-2090.41,0,0
56337.825,64.0261,-2079.98,0,0
56598.15,63.1052,-2069.4,0,0
56858.475,62.3325,-2058.73,0,0
57118.8,61.8647,-2048.01,0,0
57379.125,61.8307,-2037.21,0,0
57639.45,61.7224,-2027.04,0,0
57899.775,61.6992,-2016.77,0,0
58160.1,61.7602,-2006.78,0,0
58420.4,61.6973,-1996.91,0,0
58680.7,61.6953,-1986.85,0,0
58941.1,61.9811,-1977.04,0,0
59201.4,62.0294,-1967.32,0,0
59461.7,62.3038,-1957.69,0,0
59722,62.5315,-1948.19,0,0
59982.4,62.7642,-1938.92,0,0
60242.7,62.9968,-1929.57,0,0
60503,63.2748,-1920.33,0,0
60763.3,63.7708,-1911.04,0,0
61023.7,63.9815,-1902.04,0,0
61284,64.3393,-1892.88,0,0
61544.3,65.1847,-1883.86,0,0
61804.6,65.6144,-1875.51,0,0
62065,65.7532,-1866.59,0,0
62325.3,66.3095,-1857.83,0,0
62585.6,66.8132,-1849.06,0,0
62845.9,67.558,-1840.03,0,0
63106.3,68.5307,-1831.34,0,0
63366.6,69.3888,-1823.04,0,0
63626.9,70.3577,-1814.2,0,0
63887.2,71.8561,-1805.9,0,0
64147.6,73.5624,-1797.44,0,0
64407.9,75.6294,-1789.37,0,0
64668.2,77.7295,-1781.34,0,0
64928.5,80.5171,-1773.88,0,0
65188.9,84.5857,-1767.71,0,0
65449.2,87.6196,-1763.3,0,0
65709.5,89.3666,-1758.7,0,0
65969.8,92.2802,-1755.69,0,0
66230.2,91.9848,-1755.36,0,0
66490.5,87.4633,-1753.73,0,0
66750.8,82.1277,-1748.1,0,0
67011.1,78.1187,-1738.91,0,0
67271.5,77.1822,-1730.8,0,0
67531.8,75.3218,-1723.03,0,0
67792.1,75.0747,-1714.49,0,0
68052.4,75.1997,-1706.59,0,0
68312.8,76.4051,-1699.45,0,0
68573.1,76.8398,-1693.51,0,0
68833.4,76.6481,-1687.39,0,0
69093.7,76.9242,-1680.65,0,0
69354.1,77.2884,-1675.08,0,0
69614.4,76.986,-1669.56,0,0
69874.7,76.351,-1664.09,0,0
70135,75.6736,-1658.5,0,0
70395.4,74.4022,-1652.73,0,0
70655.7,73.3137,-1646.47,0,0
70916,72.0615,-1640.35,0,0
71176.3,71.0259,-1633.69,0,0
71436.7,70.4626,-1627.12,0,0
71697,69.652,-1620.35,0,0
71957.3,69.4419,-1613.52,0,0
72217.6,69.5481,-1607.19,0,0
72478,69.5778,-1601.05,0,0
72738.3,69.7121,-1595.18,0,0
72998.6,69.44,-1589.69,0,0
73258.9,68.9789,-1584.07,0,0
73519.3,68.4668,-1578.41,0,0
73779.6,68.0273,-1572.67,0,0
74039.9,67.4742,-1567.2,0,0
74300.225,66.714,-1561.64,0,0
74560.55,65.9693,-1555.92,0,0
74820.875,65.2558,-1550.2,0,0
75081.2,64.4761,-1544.49,0,0
75341.525,63.7355,-1538.63,0,0
75601.85,63.0092,-1532.87,0,0
75862.175,62.2693,-1527.02,0,0
76122.5,61.6249,-1521.15,0,0
76382.825,60.9912,-1515.23,0,0
76643.15,60.4248,-1509.37,0,0
76903.475,59.8947,-1503.55,0,0
77163.8,59.4621,-1497.71,0,0
77424.125,59.0387,-1492,0,0
77684.45,58.5608,-1486.4,0,0
77944.775,58.023,-1480.61,0,0
78205.1,57.5546,-1474.96,0,0
78465.425,57.104,-1469.21,0,0
78725.75,56.7057,-1463.55,0,0
78986.075,56.3314,-1457.85,0,0
79246.4,55.9959,-1452.19,0,0
79506.725,55.6174,-1446.61,0,0
79767.05,55.3758,-1441.05,0,0
80027.375,55.0254,-1435.43,0,0
80287.7,54.8075,-1429.92,0,0
80548.025,54.6288,-1424.44,0,0
80808.35,54.4438,-1418.96,0,0
81068.675,54.222,-1413.59,0,0
81329.0,53.9377,-1408.16,0,0
81589.325,53.8511,-1402.75,0,0
81849.65,53.6952,-1397.43,0,0
82109.975,53.5378,-1392.14,0,0
82370.3,53.4736,-1386.82,0,0
82630.625,53.3334,-1381.55,0,0
82890.95,53.2661,-1376.31,0,0
83151.275,53.1906,-1371.17,0,0
83411.6,53.0879,-1366.02,0,0
83671.925,53.0841,-1360.88,0,0
83932.25,53.0565,-1355.79,0,0
84192.575,53.0118,-1350.76,0,0
84452.9,52.9211,-1345.7,0,0
84713.225,52.9394,-1340.7,0,0
84973.55,52.9613,-1335.64,0,0
85233.875,52.844,-1330.67,0,0
85494.2,52.8435,-1325.65,0,0
85754.525,52.9648,-1320.76,0,0
86014.85,52.9753,-1315.94,0,0
86275.175,53.0303,-1311.08,0,0
86535.5,53.0466,-1306.27,0,0
86795.825,53.1074,-1301.42,0,0
87056.15,53.1092,-1296.61,0,0
87316.475,53.1322,-1291.84,0,0
87576.8,53.3108,-1286.97,0,0
87837.125,53.4908,-1282.16,0,0
88097.45,53.6175,-1277.5,0,0
88357.775,53.8,-1272.73,0,0
88618.1,53.8616,-1268,0,0
88878.425,54.0814,-1263.17,0,0
89138.75,54.4846,-1258.48,0,0
89399.075,54.8571,-1253.64,0,0
89659.4,55.3625,-1249.07,0,0
89919.725,55.9712,-1244.69,0,0
90180,56.3969,-1240.31,0,0
90440.4,56.8535,-1236.03,0,0
90700.7,57.1059,-1231.71,0,0
90961,57.7306,-1227.48,0,0
91221.3,58.1777,-1223.12,0,0
91481.7,58.7328,-1218.9,0,0
91742,59.343,-1214.84,0,0
92002.3,59.9636,-1210.68,0,0
92262.6,60.5864,-1206.77,0,0
92523,61.3864,-1202.97,0,0
92783.3,62.0943,-1199.36,0,0
93043.6,62.5885,-1195.69,0,0
93303.9,63.3497,-1192.21,0,0
93564.3,64.1068,-1188.9,0,0
93824.6,64.6017,-1185.89,0,0
94084.9,65.0275,-1183.01,0,0
94345.2,65.0569,-1180.36,0,0
94605.6,64.9501,-1177.62,0,0
94865.9,64.5656,-1175.23,0,0
95126.2,63.1391,-1172.81,0,0
95386.5,61.3168,-1169.39,0,0
95646.9,59.9951,-1164.94,0,0
95907.2,59.3524,-1160.53,0,0
96167.5,58.7951,-1156.3,0,0
96427.8,58.3352,-1151.92,0,0
96688.2,58.2861,-1147.59,0,0
96948.5,58.3764,-1143.54,0,0
97208.8,58.2822,-1139.61,0,0
97469.1,58.3409,-1135.65,0,0
97729.5,58.4158,-1131.79,0,0
97989.8,58.4185,-1128.04,0,0
98250.1,58.3192,-1124.34,0,0
98510.4,58.24,-1120.59,0,0
98770.8,58.2719,-1116.93,0,0
99031.1,58.1815,-1113.23,0,0
99291.4,58.0194,-1109.67,0,0
99551.7,57.812,-1105.93,0,0
99812.1,57.51,-1102.18,0,0
100072,57.3427,-1098.37,0,0
100333,57.1636,-1094.59,0,0
100593,56.9115,-1090.68,0,0
100853,56.6986,-1086.72,0,0
101114,56.6171,-1082.66,0,0
101374,56.5442,-1078.62,0,0
101634,56.676,-1074.41,0,0
101895,56.9601,-1070.35,0,0
102155,57.2782,-1066.31,0,0
102415,57.6782,-1062.18,0,0
102676,58.4303,-1058.01,0,0
102936,59.5046,-1054.29,0,0
103196,60.3847,-1051.01,0,0
103457,60.9763,-1047.7,0,0
103717,61.6358,-1044.29,0,0
103977,62.3359,-1040.9,0,0
104238,63.3755,-1037.56,0,0
104498,64.5684,-1034.79,0,0
104758,65.4631,-1032.68,0,0
105019,65.5432,-1030.61,0,0
105279,65.3369,-1028.17,0,0
105539,65.1593,-1025.56,0,0
105800,65.0659,-1022.93,0,0
106060,64.7396,-1020.48,0,0
106320.175,64.0287,-1017.82,0,0
106580.5,63.4227,-1014.83,0,0
106840.825,62.8027,-1011.82,0,0
107101.15,62.1017,-1008.69,0,0
107361.475,61.4311,-1005.43,0,0
107621.8,60.8016,-1001.92,0,0
107882.125,60.33,-998.442,0,0
108142.45,59.8491,-994.793,0,0
108402.775,59.5207,-991.252,0,0
108663.1,59.1636,-987.654,0,0
108923.425,58.8566,-983.965,0,0
109183.75,58.5534,-980.099,0,0
109444.075,58.4799,-976.205,0,0
109704.4,58.6008,-972.462,0,0
109964.725,58.7872,-968.72,0,0
110225.05,58.8064,-965.034,0,0
110485.375,59.0497,-961.113,0,0
110745.7,59.4428,-957.307,0,0
111006.025,60.1527,-953.672,0,0
111266.35,60.6546,-950.297,0,0
111526.675,61.1968,-947.066,0,0
111787.0,61.6799,-943.746,0,0
112047.325,62.029,-940.582,0,0
112307.65,62.4476,-937.167,0,0
112567.975,62.9878,-934.025,0,0
112828.3,63.313,-930.924,0,0
113088.625,63.622,-927.747,0,0
113348.95,63.9223,-924.549,0,0
113609.275,64.2003,-921.347,0,0
113869.6,64.4916,-918.047,0,0
114129.925,64.887,-914.736,0,0
114390.25,65.3087,-911.527,0,0
114650.575,65.56,-908.15,0,0
114910.9,66.0771,-904.733,0,0
115171.225,66.6916,-901.427,0,0
115431.55,67.2731,-898.144,0,0
115691.875,67.8143,-894.818,0,0
115952.2,68.5356,-891.495,0,0
116212.525,69.1798,-888.317,0,0
116472.85,69.9217,-884.859,0,0
116733.175,70.9842,-881.531,0,0
116993.5,72.0572,-878.515,0,0
117253.825,72.9183,-875.52,0,0
117514.15,73.7519,-872.311,0,0
117774.475,74.9704,-868.949,0,0
118034.8,76.6127,-865.937,0,0
118295.125,78.2377,-863.204,0,0
118555.45,79.9313,-860.836,0,0
118815.775,81.2744,-858.832,0,0
119076.1,82.3168,-856.715,0,0
119336.425,83.5209,-854.386,0,0
119596.75,85.1255,-852.121,0,0
119857.075,86.9229,-850.604,0,0
120117.4,88.2134,-849.78,0,0
120377.725,88.6186,-849.133,0,0
120638.05,88.5247,-847.975,0,0
120898.375,88.4453,-846.5,0,0
121158.7,88.3359,-845.081,0,0
121419.025,87.7967,-843.519,0,0
121679.35,87.0426,-841.516,0,0
121939.675,86.4157,-839.048,0,0
122200.0,86.2008,-836.383,0,0
122460,86.1579,-833.778,0,0
122721,86.2261,-831.209,0,0
122981,86.4075,-828.667,0,0
123241,86.7414,-826.048,0,0
123502,87.2118,-823.81,0,0
123762,87.4187,-821.613,0,0
124022,87.6254,-819.334,0,0
124283,87.8578,-817.08,0,0
124543,88.1278,-814.832,0,0
124803,88.4426,-812.708,0,0
125064,88.7058,-810.639,0,0
125324,88.8816,-808.585,0,0
125584,89.0439,-806.583,0,0
125845,89.0913,-804.579,0,0
126105,89.2076,-802.591,0,0
126365,89.2156,-800.71,0,0
126626,89.0236,-798.846,0,0
126886,88.668,-796.827,0,0
127146,88.5052,-794.747,0,0
127406,88.2061,-792.524,0,0
127667,87.8223,-790.451,0,0
127927,87.4484,-788.251,0,0
128187,87.0787,-785.953,0,0
128448,86.6682,-783.688,0,0
128708,86.0196,-781.245,0,0
128968,85.584,-778.529,0,0
129229,85.334,-775.737,0,0
129489,85.1886,-773.113,0,0
129749,85.0073,-770.441,0,0
130010,84.8361,-767.665,0,0
130270,84.8584,-764.739,0,0
130530,85.1543,-761.987,0,0
130791,85.5548,-759.386,0,0
131051,85.9916,-757.117,0,0
131311,86.0882,-755.036,0,0
131572,86.0733,-752.795,0,0
131832,86.0047,-750.6,0,0
132092,85.8671,-748.345,0,0
132353,85.5577,-746.027,0,0
132613,85.3257,-743.465,0,0
132873,85.2773,-740.92,0,0
133134,85.2813,-738.559,0,0
133394,85.0875,-736.192,0,0
133654,84.8989,-733.786,0,0
133915,84.6702,-731.336,0,0
134175,84.3858,-728.824,0,0
134435,84.1799,-726.195,0,0
134696,84.0594,-723.726,0,0
134956,83.7235,-721.196,0,0
135216,83.3468,-718.468,0,0
135477,83.1832,-715.64,0,0
135737,83.0776,-712.944,0,0
135997,82.8114,-710.291,0,0
136258,82.548,-707.474,0,0
136518,82.3143,-704.557,0,0
136778,82.1742,-701.57,0,0
137039,82.181,-698.481,0,0
137299,82.3104,-695.484,0,0
137559,82.5602,-692.546,0,0
137819,82.7837,-689.746,0,0
138080,82.9608,-686.902,0,0
138340.125,83.2671,-684.038,0,0
138600.45,83.7126,-681.399,0,0
138860.775,83.9899,-679.05,0,0
139121.1,83.8982,-676.708,0,0
139381.425,83.7181,-674.059,0,0
139641.75,83.623,-671.412,0,0
139902.075,83.4028,-668.649,0,0
140162.4,83.2054,-665.779,0,0
140422.725,83.1202,-662.76,0,0
140683.05,83.1637,-659.761,0,0
140943.375,83.3015,-656.904,0,0
141203.7,83.2862,-654.1,0,0
141464.025,83.1573,-651.228,0,0
141724.35,83.0092,-648.292,0,0
141984.675,82.7955,-645.24,0,0
142245.0,82.6865,-641.987,0,0
142505.325,82.7043,-638.819,0,0
142765.65,82.6758,-635.655,0,0
143025.975,82.584,-632.347,0,0
143286.3,82.6472,-629.003,0,0
143546.625,82.6449,-625.599,0,0
143806.95,82.7201,-622.134,0,0
144067.275,82.8973,-618.573,0,0
144327.6,83.1759,-615.019,0,0
144587.925,83.4815,-611.497,0,0
144848.25,83.7956,-607.953,0,0
145108.575,84.1688,-604.371,0,0
145368.9,84.5605,-600.751,0,0
145629.225,84.9585,-597.119,0,0
145889.55,85.4088,-593.435,0,0
146149.875,85.866,-589.648,0,0
146410.2,86.4118,-585.807,0,0
146670.525,87.0471,-581.915,0,0
146930.85,87.7907,-577.972,0,0
147191.175,88.6246,-574.04,0,0
147451.5,89.5204,-570.051,0,0
147711.825,90.5396,-566.058,0,0
147972.15,91.6343,-562.097,0,0
148232.475,92.7967,-558.13,0,0
148492.8,93.986,-554.179,0,0
148753.125,95.2356,-550.168,0,0
149013.45,96.5581,-546.071,0,0
149273.775,98.0413,-541.901,0,0
149534.1,99.6644,-537.738,0,0
149794.425,101.491,-533.521,0,0
150054.75,103.507,-529.389,0,0
150315.075,105.709,-525.32,0,0
150575.4,108.089,-521.362,0,0
150835.725,110.634,-517.591,0,0
151096.05,113.234,-514.03,0,0
151356.375,115.887,-510.613,0,0
151616.7,118.56,-507.417,0,0
151877.025,121.143,-504.343,0,0
152137.35,123.663,-501.333,0,0
152397.675,126.226,-498.334,0,0
152658.0,128.832,-495.49,0,0
152918.325,131.424,-492.804,0,0
153178.65,133.969,-490.303,0,0
153438.975,136.257,-487.953,0,0
153699.3,138.325,-485.52,0,0
153959.625,140.337,-482.973,0,0
154219.95,142.356,-480.319,0,0
154480,144.48,-477.794,0,0
154741,146.228,-475.549,0,0
155001,147.507,-472.92,0,0
155261,148.762,-469.596,0,0
155522,150.565,-465.714,0,0
155782,153.285,-462.25,0,0
156042,155.789,-459.334,0,0
156303,157.869,-456.366,0,0
156563,159.929,-453.124,0,0
156823,162.148,-449.548,0,0
157084,164.899,-445.87,0,0
157344,168.047,-442.382,0,0
157604,171.441,-439.375,0,0
157864,174.702,-436.855,0,0
158125,177.743,-434.594,0,0
158385,180.483,-432.569,0,0
158645,182.737,-430.669,0,0
158906,184.184,-428.615,0,0
159166,185.037,-425.594,0,0
159426,186.763,-421.765,0,0
159687,188.359,-418.265,0,0
159947,189.53,-413.834,0,0
160207,191.414,-408.375,0,0
160468,194.287,-402.881,0,0
160728,197.426,-397.237,0,0
160988,201.624,-391.056,0,0
161249,206.743,-385.76,0,0
161509,211.792,-380.976,0,0
161769,216.761,-376.04,0,0
162030,222.189,-370.566,0,0
162290,229.108,-365.227,0,0
162550,236.397,-360.906,0,0
162811,243.67,-357.108,0,0
163071,251.036,-353.42,0,0
163331,258.928,-349.855,0,0
163592,267.104,-346.519,0,0
163852,276.132,-343.49,0,0
164112,285.837,-341.647,0,0
164373,294.964,-340.831,0,0
164633,303.733,-339.678,0,0
164893,313.376,-338.338,0,0
165154,324.448,-337.698,0,0
165414,336.336,-339.355,0,0
165674,347.25,-343.016,0,0
165935,356.715,-347.319,0,0
166195,365.874,-351.401,0,0
166455,375.219,-356.77,0,0
166716,383.174,-363.236,0,0
166976,390.159,-369.445,0,0
167236,396.904,-376.147,0,0
167497,402.344,-383.16,0,0
167757,407.434,-389.719,0,0
168017,412.313,-396.317,0,0
168277,417.413,-403.974,0,0
168538,420.615,-412.734,0,0
168798,422.162,-420.757,0,0
169058,422.94,-427.147,0,0
169319,424.874,-432.63,0,0
169579,427.814,-439.664,0,0
169839,428.966,-448.88,0,0
170100,426.968,-457.752,0,0
170360.075,423.064,-464.278,0,0
170620.4,419.539,-468.538,0,0
170880.725,416.704,-472.142,0,0
171141.05,413.736,-475.306,0,0
171401.375,410.619,-477.474,0,0
171661.7,408.023,-478.262,0,0
171922.025,406.852,-478.563,0,0
172182.35,406.279,-479.194,0,0
172442.675,406.148,-479.937,0,0
172703.0,405.997,-480.837,0,0
172963.325,406.058,-481.281,0,0
173223.65,407.204,-481.544,0,0
173483.975,408.94,-482.74,0,0
173744.3,410.407,-484.417,0,0
174004.625,412.295,-485.886,0,0
174264.95,415.167,-488.031,0,0
174525.275,418.069,-491.998,0,0
174785.6,419.568,-497,0,0
175045.925,419.985,-502.086,0,0
175306.25,419.472,-506.921,0,0
175566.575,418.837,-511.166,0,0
175826.9,418.047,-516.031,0,0
176087.225,416.174,-521.057,0,0
176347.55,413.225,-525.482,0,0
176607.875,410.06,-528.908,0,0
176868.2,407.341,-532.105,0,0
177128.525,404.222,-535.645,0,0
177388.85,400.28,-538.96,0,0
177649.175,395.711,-541.676,0,0
177909.5,390.912,-543.713,0,0
178169.825,385.407,-545.479,0,0
178430.15,379.044,-545.557,0,0
178690.475,373.388,-543.817,0,0
178950.8,368.879,-541.214,0,0
179211.125,365.78,-538.176,0,0
179471.45,363.543,-535.692,0,0
179731.775,361.074,-533.542,0,0
179992.1,358.856,-530.456,0,0
180252.425,357.667,-527.025,0,0
180512.75,357.709,-523.783,0,0
180773.075,358.806,-521.361,0,0
181033.4,359.971,-520.279,0,0
181293.725,360.661,-519.717,0,0
181554.05,361.21,-519.113,0,0
181814.375,362.198,-518.904,0,0
182074.7,363.316,-519.688,0,0
182335.025,363.786,-522.062,0,0
182595.35,362.08,-524.652,0,0
182855.675,359.087,-526.117,0,0
183116.0,356.036,-526.492,0,0
183376.325,353.153,-526.304,0,0
183636.65,350.146,-525.89,0,0
183896.975,347.202,-524.746,0,0
184157.3,344.315,-523.53,0,0
184417.625,341.393,-522.028,0,0
184677.95,338.469,-520.086,0,0
184938.275,335.699,-517.764,0,0
185198.6,332.995,-515.112,0,0
185458.925,330.551,-511.953,0,0
185719.25,328.447,-508.552,0,0
185979.575,326.564,-504.984,0,0
186239.9,324.861,-501.194,0,0
186500,323.384,-496.98,0,0
186761,322.33,-492.321,0,0
187021,322.108,-487.323,0,0
187281,322.861,-482.57,0,0
187542,324.008,-478.498,0,0
187802,325.149,-474.819,0,0
188062,326.318,-471.206,0,0
188322,327.754,-467.642,0,0
188583,329.608,-464.44,0,0
188843,331.379,-461.907,0,0
189103,332.581,-459.648,0,0
189364,333.291,-457.028,0,0
189624,334.028,-453.828,0,0
189884,335.238,-450.229,0,0
190145,337.112,-446.638,0,0
190405,339.375,-443.521,0,0
190665,341.661,-440.92,0,0
190926,343.731,-438.497,0,0
191186,345.593,-436.034,0,0
191446,347.398,-433.565,0,0
191707,349.078,-430.979,0,0
191967,350.84,-428.097,0,0
192227,352.845,-425.155,0,0
192488,354.923,-422.288,0,0
192748,356.957,-419.297,0,0
193008,358.996,-415.986,0,0
193269,361.413,-412.299,0,0
193529,364.362,-408.55,0,0
193789,367.675,-404.901,0,0
194050,371.094,-401.102,0,0
194310,375.15,-396.98,0,0
194570,380.246,-392.799,0,0
194831,386.486,-389.241,0,0
195091,393.4,-386.671,0,0
195351,400.731,-385.457,0,0
195612,407.641,-385.569,0,0
195872,413.721,-386.357,0,0
196132,419.333,-387.336,0,0
196393,424.649,-388.396,0,0
196653,429.916,-389.893,0,0
196913,435.011,-391.844,0,0
197174,439.398,-394.765,0,0
197434,442.628,-398.079,0,0
197694,444.556,-400.398,0,0
197955,446.554,-401.857,0,0
198215,448.842,-403.056,0,0
198475,451.211,-404.584,0,0
198735,452.998,-406.446,0,0
198996,453.613,-407.798,0,0
199256,454.198,-407.576,0,0
199516,455.94,-406.614,0,0
199777,458.668,-406.032,0,0
200037,461.696,-406.334,0,0
200297,464.071,-407.292,0,0
200558,465.323,-408.081,0,0
200818,466.206,-407.8,0,0
201078,467.533,-406.638,0,0
201339,469.612,-405.241,0,0
201599,472.009,-403.977,0,0
201859,474.434,-402.73,0,0
202120,476.833,-401.138,0,0
202380.025,479.719,-398.81,0,0
202640.35,483.684,-396.401,0,0
202900.675,488.491,-394.39,0,0
203161.0,493.539,-392.852,0,0
203421.325,499.038,-391.516,0,0
203681.65,505.174,-390.579,0,0
203941.975,511.615,-390.446,0,0
204202.3,518.163,-391.151,0,0
204462.625,524.642,-392.442,0,0
204722.95,530.86,-394.304,0,0
204983.275,536.957,-396.369,0,0
205243.6,542.998,-399.174,0,0
205503.925,548.763,-402.916,0,0
205764.25,553.349,-407.214,0,0
206024.575,556.779,-411.552,0,0
206284.9,559.175,-415.306,0,0
206545.225,560.916,-417.96,0,0
206805.55,562.847,-419.467,0,0
207065.875,565.484,-420.375,0,0
207326.2,568.535,-420.862,0,0
207586.525,572.281,-421.399,0,0
207846.85,576.576,-421.992,0,0
208107.175,581.229,-422.721,0,0
208367.5,586.242,-423.517,0,0
208627.825,591.836,-424.442,0,0
208888.15,597.815,-425.868,0,0
209148.475,604.097,-427.702,0,0
209408.8,610.752,-429.855,0,0
209669.125,617.754,-432.746,0,0
209929.45,624.852,-436.481,0,0
210189.775,631.806,-441.047,0,0
210450.1,638.257,-446.063,0,0
210710.425,644.311,-451.418,0,0
210970.75,650.169,-456.983,0,0
211231.075,655.787,-462.874,0,0
211491.4,661.158,-468.978,0,0
211751.725,666.437,-475.296,0,0
212012.05,671.271,-481.95,0,0
212272.375,675.932,-488.714,0,0
212532.7,680.306,-495.579,0,0
212793.025,684.644,-502.421,0,0
213053.35,689.106,-509.551,0,0
213313.675,693.448,-517.126,0,0
213574.0,697.484,-525.188,0,0
213834.325,701.223,-533.586,0,0
214094.65,704.538,-542.271,0,0
214354.975,707.31,-551.271,0,0
214615.3,709.439,-560.28,0,0
214875.625,711.295,-569.013,0,0
215135.95,713.317,-577.974,0,0
215396.275,714.898,-587.273,0,0
215656.6,715.794,-596.73,0,0
215916.925,716.231,-605.943,0,0
216177.25,716.824,-615.013,0,0
216437.575,717.264,-624.439,0,0
216697.9,717.287,-634.121,0,0
216958.225,716.885,-644.317,0,0
217218.55,715.47,-654.683,0,0
217478.875,713.168,-664.652,0,0
217739.2,710.543,-674.018,0,0
217999.525,707.9,-683.399,0,0
218259.85,704.756,-692.744,0,0
218520,701.025,-701.936,0,0
218780,696.689,-710.633,0,0
219041,691.897,-718.979,0,0
219301,686.615,-726.406,0,0
219561,681.817,-732.759,0,0
219822,677.574,-738.768,0,0
220082,674.061,-744.888,0,0
220342,671.056,-751.428,0,0
220603,668.305,-759.08,0,0
220863,664.726,-767.644,0,0
221123,659.832,-776.568,0,0
221384,653.85,-785.236,0,0
221644,647.117,-793.15,0,0
221904,639.998,-800.446,0,0
222165,632.587,-807.513,0,0
222425,624.507,-814.108,0,0
222685,616.05,-819.845,0,0
222946,607.553,-825.268,0,0
223206,598.653,-830.037,0,0
223466,589.392,-834.145,0,0
223727,579.733,-837.147,0,0
223987,570.18,-838.995,0,0
224247,560.907,-839.691,0,0
224508,552.958,-839.594,0,0
224768,545.688,-839.257,0,0
225028,539.173,-838.752,0,0
225289,533.087,-837.777,0,0
225549,528.16,-836.927,0,0
225809,523.777,-836.209,0,0
226070,520.135,-835.979,0,0
226330,517.144,-836.378,0,0
226590,514.061,-837.666,0,0
226851,510.789,-839.419,0,0
227111,507.148,-841.595,0,0
227371,503.16,-843.963,0,0
227632,498.912,-846.332,0,0
227892,494.086,-848.83,0,0
228152,489.174,-851.02,0,0
228413,484.205,-852.992,0,0
228673,479.252,-855.223,0,0
228933,473.755,-857.399,0,0
229193,467.952,-859.385,0,0
229454,461.871,-860.963,0,0
229714,455.755,-862.252,0,0
229974,449.856,-863.104,0,0
230235,443.872,-863.803,0,0
230495,437.927,-864.358,0,0
230755,432.038,-864.734,0,0
231016,426.032,-864.936,0,0
231276,420.131,-864.695,0,0
231536,414.408,-864.271,0,0
231797,408.83,-863.691,0,0
232057,403.475,-863.012,0,0
232317,398.286,-862.199,0,0
232578,393.301,-861.393,0,0
232838,388.408,-860.634,0,0
233098,383.49,-859.946,0,0
233359,378.563,-859.169,0,0
233619,373.717,-858.134,0,0
233879,369.122,-857.128,0,0
234140,364.607,-856.216,0,0
234400,360.113,-855.439,0,0
234660.3,355.391,-854.531,0,0
234920.625,350.733,-853.524,0,0
235180.95,346.138,-852.449,0,0
235441.275,341.688,-851.43,0,0
235701.6,337.181,-850.48,0,0
235961.925,332.52,-849.515,0,0
236222.25,327.649,-848.437,0,0
236482.575,322.597,-847.223,0,0
236742.9,317.618,-845.652,0,0
237003.225,312.625,-843.859,0,0
237263.55,307.83,-841.874,0,0
237523.875,303.162,-839.953,0,0
237784.2,298.455,-837.898,0,0
238044.525,293.665,-835.659,0,0
238304.85,288.917,-833.27,0,0
238565.175,284.122,-830.65,0,0
238825.5,279.421,-827.641,0,0
239085.825,275.01,-824.474,0,0
239346.15,270.779,-821.042,0,0
239606.475,266.856,-817.377,0,0
239866.8,263.21,-813.721,0,0
240127.125,259.743,-809.908,0,0
240387.45,256.597,-806.269,0,0
240647.775,253.787,-802.595,0,0
240908.1,250.922,-798.951,0,0
241168.425,248.295,-795.236,0,0
241428.75,245.917,-791.592,0,0
241689.075,243.576,-788.057,0,0
241949.4,241.286,-784.643,0,0
242209.725,239.161,-780.887,0,0
242470.05,237.26,-777.102,0,0
242730.375,235.703,-773.5,0,0
242990.7,234.36,-770.046,0,0
243251.025,233.043,-766.673,0,0
243511.35,231.823,-763.346,0,0
243771.675,230.828,-760.071,0,0
244032.0,230.048,-756.995,0,0
244292.325,229.379,-754.12,0,0
244552.65,228.759,-751.635,0,0
244812.975,227.81,-749.212,0,0
245073.3,226.9,-746.922,0,0
245333.625,225.882,-744.615,0,0
245593.95,224.803,-742.221,0,0
245854.275,223.806,-739.801,0,0
246114.6,222.82,-737.469,0,0
246374.925,221.836,-735.05,0,0
246635.25,220.927,-732.642,0,0
246895.575,220.045,-730.325,0,0
247155.9,219.119,-728.044,0,0
247416.225,218.201,-725.655,0,0
247676.55,217.38,-723.251,0,0
247936.875,216.579,-720.798,0,0
248197.2,215.829,-718.283,0,0
248457.525,215.203,-715.708,0,0
248717.85,214.91,-713.161,0,0
248978.175,214.763,-710.813,0,0
249238.5,214.747,-708.596,0,0
249498.825,214.871,-706.681,0,0
249759.15,214.845,-704.822,0,0
250019.475,214.882,-703.236,0,0
250279.8,214.899,-701.7,0,0
250540,214.749,-700.533,0,0
250800,214.453,-699.519,0,0
251061,213.89,-698.518,0,0
251321,213.14,-697.499,0,0
251581,212.182,-696.484,0,0
251842,211.006,-695.364,0,0
252102,209.684,-694.148,0,0
252362,208.203,-692.696,0,0
252623,206.633,-691.065,0,0
252883,204.953,-689.146,0,0
253143,203.344,-687.062,0,0
253404,201.703,-684.613,0,0
253664,200.248,-681.878,0,0
253924,198.999,-678.945,0,0
254185,198.042,-675.84,0,0
254445,197.308,-672.705,0,0
254705,196.844,-669.56,0,0
254966,196.495,-666.305,0,0
255226,196.318,-663.126,0,0
255486,196.315,-659.785,0,0
255747,196.555,-656.415,0,0
256007,197.136,-652.957,0,0
256267,198.082,-649.515,0,0
256528,199.45,-646.227,0,0
256788,201.072,-643.31,0,0
257048,202.823,-640.611,0,0
257309,204.755,-638.12,0,0
257569,206.84,-635.957,0,0
257829,209.011,-634.102,0,0
258090,211.102,-632.591,0,0
258350,213.026,-631.344,0,0
258610,214.732,-630.143,0,0
258871,216.298,-628.845,0,0
259131,217.955,-627.409,0,0
259391,219.785,-625.834,0,0
259651,222.078,-624.278,0,0
259912,224.696,-622.945,0,0
260172,227.606,-622.098,0,0
260432,230.71,-621.696,0,0
260693,233.646,-621.758,0,0
260953,236.542,-622.09,0,0
261213,239.372,-622.783,0,0
261474,242.304,-623.815,0,0
261734,245.171,-625.436,0,0
261994,247.656,-627.592,0,0
262255,249.716,-630.108,0,0
262515,251.303,-632.884,0,0
262775,252.39,-635.915,0,0
263036,252.916,-639.028,0,0
263296,253.024,-642.025,0,0
263556,252.702,-644.935,0,0
263817,252.085,-647.786,0,0
264077,251.085,-650.543,0,0
264337,249.783,-653.206,0,0
264598,248.191,-655.711,0,0
264858,246.233,-658.076,0,0
265118,243.987,-660.23,0,0
265379,241.441,-661.992,0,0
265639,238.591,-663.629,0,0
265899,235.545,-664.826,0,0
266160,232.349,-665.599,0,0
266420,229.171,-665.916,0,0
266680.25,226.076,-665.923,0,0
266940.575,222.917,-665.623,0,0
267200.9,219.814,-665.001,0,0
267461.225,216.867,-664.03,0,0
267721.55,214.15,-662.731,0,0
267981.875,211.644,-661.244,0,0
268242.2,209.428,-659.659,0,0
268502.525,207.363,-657.966,0,0
268762.85,205.529,-656.211,0,0
269023.175,203.746,-654.384,0,0
269283.5,202.245,-652.495,0,0
269543.825,200.882,-650.459,0,0
269804.15,199.674,-648.415,0,0
270064.475,198.791,-646.378,0,0
270324.8,197.998,-644.538,0,0
270585.125,197.325,-642.658,0,0
270845.45,196.672,-640.833,0,0
271105.775,196.097,-638.924,0,0
271366.1,195.821,-637.064,0,0
271626.425,195.606,-635.321,0,0
271886.75,195.438,-633.602,0,0
272147.075,195.318,-631.917,0,0
272407.4,195.456,-630.306,0,0
272667.725,195.583,-628.917,0,0
272928.05,195.762,-627.664,0,0
273188.375,195.86,-626.476,0,0
273448.7,195.846,-625.393,0,0
273709.025,195.723,-624.254,0,0
273969.35,195.51,-622.885,0,0
274229.675,195.468,-621.421,0,0
274490.0,195.535,-619.888,0,0
274750.325,195.838,-618.272,0,0
275010.65,196.287,-616.683,0,0
275270.975,196.932,-615.139,0,0
275531.3,197.701,-613.746,0,0
275791.625,198.659,-612.379,0,0
276051.95,199.739,-611.129,0,0
276312.275,200.963,-609.969,0,0
276572.6,202.408,-608.995,0,0
276832.925,204.059,-608.236,0,0
277093.25,205.841,-607.79,0,0
277353.575,207.677,-607.724,0,0
277613.9,209.409,-608.033,0,0
277874.225,210.999,-608.651,0,0
278134.55,212.397,-609.47,0,0
278394.875,213.663,-610.503,0,0
278655.2,214.746,-611.712,0,0
278915.525,215.657,-613.18,0,0
279175.85,216.273,-614.807,0,0
279436.175,216.524,-616.597,0,0
279696.5,216.485,-618.393,0,0
279956.825,216.084,-620.154,0,0
280217.15,215.374,-621.93,0,0
280477.475,214.423,-623.434,0,0
280737.8,213.256,-624.769,0,0
280998.125,211.905,-625.856,0,0
281258.45,210.561,-626.688,0,0
281518.775,209.27,-627.389,0,0
281779.1,208.006,-628.024,0,0
282039.425,206.689,-628.72,0,0
282299.75,205.275,-629.313,0,0
282560,203.794,-629.865,0,0
282820,202.143,-630.329,0,0
283081,200.411,-630.623,0,0
283341,198.604,-630.721,0,0
283601,196.841,-630.658,0,0
283862,195.111,-630.47,0,0
284122,193.415,-630.103,0,0
284382,191.773,-629.67,0,0
284643,190.202,-629.148,0,0
284903,188.646,-628.553,0,0
285163,187.124,-628.059,0,0
285424,185.572,-627.329,0,0
285684,184.005,-626.543,0,0
285944,182.489,-625.572,0,0
286205,181.035,-624.546,0,0
286465,179.666,-623.349,0,0
286725,178.363,-622.033,0,0
286986,177.216,-620.615,0,0
287246,176.271,-619.036,0,0
287506,175.512,-617.414,0,0
287767,175.001,-615.816,0,0
288027,174.696,-614.214,0,0
288287,174.631,-612.777,0,0
288548,174.7,-611.49,0,0
288808,174.917,-610.361,0,0
289068,175.158,-609.5,0,0
289329,175.413,-608.799,0,0
289589,175.586,-608.222,0,0
289849,175.705,-607.867,0,0
290109,175.699,-607.639,0,0
290370,175.532,-607.382,0,0
290630,175.306,-607.077,0,0
290890,175.007,-606.821,0,0
291151,174.713,-606.514,0,0
291411,174.315,-606.258,0,0
291671,173.856,-605.999,0,0
291932,173.304,-605.672,0,0
292192,172.691,-605.261,0,0
292452,172.048,-604.706,0,0
292713,171.455,-604.077,0,0
292973,170.939,-603.336,0,0
293233,170.47,-602.548,0,0
293494,170.131,-601.694,0,0
293754,169.889,-600.763,0,0
294014,169.836,-599.865,0,0
294275,169.958,-598.99,0,0
294535,170.147,-598.294,0,0
294795,170.466,-597.636,0,0
295056,170.855,-597.149,0,0
295316,171.29,-596.734,0,0
295576,171.795,-596.549,0,0
295837,172.313,-596.578,0,0
296097,172.741,-596.798,0,0
296357,173.035,-597.177,0,0
296618,173.197,-597.643,0,0
296878,173.235,-598.162,0,0
297138,173.184,-598.749,0,0
297399,173.014,-599.398,0,0
297659,172.703,-600.114,0,0
297919,172.261,-600.852,0,0
298180,171.628,-601.587,0,0
298440,170.847,-602.3,0,0
298700.2,169.914,-602.916,0,0
298960.525,168.897,-603.434,0,0
299220.85,167.798,-603.876,0,0
299481.175,166.637,-604.209,0,0
299741.5,165.485,-604.478,0,0
300001.825,164.25,-604.69,0,0
300262.15,163.062,-604.839,0,0
300522.475,161.808,-604.903,0,0
300782.8,160.54,-604.941,0,0
301043.125,159.201,-604.934,0,0
301303.45,157.853,-604.875,0,0
301563.775,156.484,-604.728,0,0
301824.1,155.078,-604.512,0,0
302084.425,153.648,-604.217,0,0
302344.75,152.242,-603.805,0,0
302605.075,150.809,-603.317,0,0
302865.4,149.446,-602.753,0,0
303125.725,148.13,-602.13,0,0
303386.05,146.866,-601.451,0,0
303646.375,145.604,-600.741,0,0
303906.7,144.392,-600.016,0,0
304167.025,143.169,-599.22,0,0
304427.35,141.986,-598.393,0,0
304687.675,140.871,-597.494,0,0
304948.0,139.781,-596.592,0,0
305208.325,138.787,-595.599,0,0
305468.65,137.797,-594.648,0,0
305728.975,136.892,-593.639,0,0
305989.3,135.999,-592.652,0,0
306249.625,135.167,-591.642,0,0
306509.95,134.35,-590.589,0,0
306770.275,133.602,-589.538,0,0
307030.6,132.921,-588.45,0,0
307290.925,132.309,-587.38,0,0
307551.25,131.77,-586.295,0,0
307811.575,131.333,-585.28,0,0
308071.9,130.954,-584.28,0,0
308332.225,130.65,-583.385,0,0
308592.55,130.364,-582.587,0,0
308852.875,130.08,-581.889,0,0
309113.2,129.755,-581.271,0,0
309373.525,129.385,-580.686,0,0
309633.85,128.952,-580.143,0,0
309894.175,128.435,-579.668,0,0
310154.5,127.943,-579.171,0,0
310414.825,127.316,-578.659,0,0
310675.15,126.683,-578.146,0,0
310935.475,125.973,-577.608,0,0
311195.8,125.244,-577.006,0,0
311456.125,124.511,-576.407,0,0
311716.45,123.749,-575.758,0,0
311976.775,122.994,-575.081,0,0
312237.1,122.221,-574.441,0,0
312497.425,121.371,-573.733,0,0
312757.75,120.491,-572.962,0,0
313018.075,119.559,-572.101,0,0
313278.4,118.65,-571.138,0,0
313538.725,117.77,-570.077,0,0
313799.05,116.946,-568.932,0,0
314059.375,116.198,-567.681,0,0
314319.7,115.533,-566.402,0,0
314580,114.917,-565.087,0,0
314840,114.506,-563.72,0,0
315101,114.048,-562.372,0,0
315361,113.82,-560.915,0,0
315621,113.66,-559.556,0,0
315882,113.675,-558.266,0,0
316142,113.678,-556.983,0,0
316402,113.963,-555.829,0,0
316663,114.088,-554.75,0,0
316923,114.373,-553.759,0,0
317183,114.626,-552.877,0,0
317444,114.852,-552.11,0,0
317704,115.125,-551.408,0,0
317964,115.389,-550.792,0,0
318225,115.465,-550.284,0,0
318485,115.679,-549.794,0,0
318745,115.733,-549.338,0,0
319006,115.744,-548.81,0,0
319266,115.784,-548.42,0,0
319526,115.68,-547.869,0,0
319787,115.573,-547.437,0,0
320047,115.573,-546.965,0,0
320307,115.449,-546.478,0,0
320567,115.368,-545.865,0,0
320828,115.329,-545.409,0,0
321088,115.359,-544.837,0,0
321348,115.407,-544.275,0,0
321609,115.53,-543.841,0,0
321869,115.661,-543.355,0,0
322129,115.718,-543.004,0,0
322390,115.974,-542.673,0,0
322650,116.175,-542.552,0,0
322910,116.253,-542.388,0,0
323171,116.339,-542.32,0,0
323431,116.399,-542.39,0,0
323691,116.415,-542.404,0,0
323952,116.296,-542.569,0,0
324212,116.104,-542.795,0,0
324472,115.763,-542.883,0,0
324733,115.461,-543.118,0,0
324993,115.002,-543.227,0,0
325253,114.508,-543.405,0,0
325514,113.881,-543.466,0,0
325774,113.274,-543.588,0,0
326034,112.543,-543.625,0,0
326295,111.799,-543.584,0,0
326555,110.959,-543.589,0,0
326815,110.206,-543.456,0,0
327076,109.381,-543.274,0,0
327336,108.483,-543.079,0,0
327596,107.598,-542.797,0,0
327857,106.679,-542.419,0,0
328117,105.89,-542.045,0,0
328377,104.981,-541.647,0,0
328638,104.151,-541.183,0,0
328898,103.407,-540.656,0,0
329158,102.612,-540.184,0,0
329419,101.849,-539.756,0,0
329679,101.007,-539.299,0,0
329939,100.264,-538.782,0,0
330200,99.4477,-538.3,0,0
330460,98.6897,-537.795,0,0
330720.15,97.8462,-537.236,0,0
330980.475,96.9773,-536.799,0,0
331240.8,96.1224,-536.219,0,0
331501.125,95.2561,-535.646,0,0
331761.45,94.3942,-535.039,0,0
332021.775,93.4721,-534.355,0,0
332282.1,92.5556,-533.687,0,0
332542.425,91.726,-532.89,0,0
332802.75,90.7323,-532.175,0,0
333063.075,89.8317,-531.329,0,0
333323.4,88.9429,-530.418,0,0
333583.725,88.179,-529.576,0,0
333844.05,87.289,-528.664,0,0
334104.375,86.3635,-527.71,0,0
334364.7,85.5504,-526.642,0,0
334625.025,84.7908,-525.642,0,0
334885.35,83.9577,-524.479,0,0
335145.675,83.261,-523.377,0,0
335406.0,82.5294,-522.241,0,0
335666.325,81.897,-521.025,0,0
335926.65,81.2905,-519.777,0,0
336186.975,80.7304,-518.505,0,0
336447.3,80.2554,-517.323,0,0
336707.625,79.7821,-516.009,0,0
336967.95,79.3703,-514.786,0,0
337228.275,79.002,-513.549,0,0
337488.6,78.672,-512.362,0,0
337748.925,78.3462,-511.153,0,0
338009.25,78.0204,-509.968,0,0
338269.575,77.7266,-508.708,0,0
338529.9,77.4497,-507.52,0,0
338790.225,77.1422,-506.267,0,0
339050.55,76.9274,-504.951,0,0
339310.875,76.7029,-503.643,0,0
339571.2,76.6629,-502.325,0,0
339831.525,76.5802,-500.982,0,0
340091.85,76.5476,-499.607,0,0
340352.175,76.6386,-498.242,0,0
340612.5,76.8089,-496.924,0,0
340872.825,77.0876,-495.654,0,0
341133.15,77.4382,-494.489,0,0
341393.475,77.8326,-493.346,0,0
341653.8,78.2834,-492.174,0,0
341914.125,78.7319,-491.198,0,0
342174.45,79.2339,-490.304,0,0
342434.775,79.8094,-489.474,0,0
342695.1,80.3348,-488.731,0,0
342955.425,80.8376,-488.095,0,0
343215.75,81.2854,-487.536,0,0
343476.075,81.7826,-487.058,0,0
343736.4,82.1112,-486.632,0,0
343996.725,82.3745,-486.238,0,0
344257.05,82.6561,-485.863,0,0
344517.375,82.9344,-485.51,0,0
344777.7,83.019,-485.223,0,0
345038.025,83.1621,-484.939,0,0
345298.35,83.1869,-484.589,0,0
345558.675,83.1594,-484.238,0,0
345819.0,83.0874,-483.848,0,0
346079.325,83.0423,-483.444,0,0
346339.65,82.936,-483.011,0,0
346599.975,82.8606,-482.586,0,0
346860,82.7362,-482.13,0,0
347121,82.5004,-481.621,0,0
347381,82.4273,-481.121,0,0
347641,82.3201,-480.589,0,0
347902,82.1663,-480.006,0,0
348162,81.993,-479.413,0,0
348422,81.8849,-478.827,0,0
348683,81.7202,-478.23,0,0
348943,81.6865,-477.507,0,0
349203,81.6298,-476.823,0,0
349464,81.6007,-476.113,0,0
349724,81.5865,-475.415,0,0
349984,81.7212,-474.673,0,0
350245,81.8764,-474.047,0,0
350505,81.976,-473.398,0,0
350765,82.2312,-472.763,0,0
351025,82.4135,-472.217,0,0
351286,82.7134,-471.701,0,0
351546,83.0077,-471.223,0,0
351806,83.2943,-470.873,0,0
352067,83.5913,-470.658,0,0
352327,83.7584,-470.416,0,0
352587,83.9219,-470.26,0,0
352848,84.0401,-470.135,0,0
353108,84.0831,-470.088,0,0
353368,84.0337,-470.034,0,0
353629,83.9281,-469.968,0,0
353889,83.6272,-469.871,0,0
354149,83.4117,-469.763,0,0
354410,83.0158,-469.616,0,0
354670,82.6331,-469.382,0,0
354930,82.1999,-469.109,0,0
355191,81.7267,-468.73,0,0
355451,81.3452,-468.297,0,0
355711,80.9251,-467.807,0,0
355972,80.5299,-467.28,0,0
356232,80.1516,-466.717,0,0
356492,79.812,-466.154,0,0
356753,79.5376,-465.553,0,0
357013,79.2407,-464.982,0,0
357273,78.9831,-464.353,0,0
357534,78.6565,-463.758,0,0
357794,78.4542,-463.161,0,0
358054,78.1798,-462.526,0,0
358315,77.9466,-461.815,0,0
358575,77.7051,-461.206,0,0
358835,77.5107,-460.5,0,0
359096,77.3009,-459.793,0,0
359356,77.1031,-459.027,0,0
359616,77.0428,-458.361,0,0
359877,76.9481,-457.594,0,0
360137,76.8081,-456.918,0,0
360397,76.8453,-456.217,0,0
360658,76.7996,-455.481,0,0
360918,76.8066,-454.849,0,0
361178,76.7929,-454.2,0,0
361438,76.8183,-453.533,0,0
361699,76.8123,-452.926,0,0
361959,76.8793,-452.297,0,0
362219,76.8964,-451.646,0,0
362480,76.9182,-451.027,0,0
362740.1,76.9796,-450.398,0,0
363000.425,77.062,-449.806,0,0
363260.75,77.1456,-449.17,0,0
363521.075,77.2224,-448.507,0,0
363781.4,77.3706,-447.959,0,0
364041.725,77.6204,-447.36,0,0
364302.05,77.8439,-446.747,0,0
364562.375,78.1416,-446.291,0,0
364822.7,78.4164,-445.798,0,0
365083.025,78.7197,-445.425,0,0
365343.35,79.0673,-445.203,0,0
365603.675,79.332,-444.965,0,0
365864.0,79.5141,-444.85,0,0
366124.325,79.693,-444.857,0,0
366384.65,79.7933,-444.849,0,0
366644.975,79.7568,-444.907,0,0
366905.3,79.5185,-444.964,0,0
367165.625,79.2821,-444.941,0,0
367425.95,78.8722,-444.821,0,0
367686.275,78.4312,-444.706,0,0
367946.6,77.9594,-444.486,0,0
368206.925,77.4286,-444.216,0,0
368467.25,76.8224,-443.765,0,0
368727.575,76.223,-443.254,0,0
368987.9,75.652,-442.605,0,0
369248.225,75.1226,-441.813,0,0
369508.55,74.6958,-440.95,0,0
369768.875,74.434,-439.954,0,0
370029.2,74.2882,-438.945,0,0
370289.525,74.3007,-437.888,0,0
370549.85,74.4791,-436.976,0,0
370810.175,74.8091,-436.114,0,0
371070.5,75.1577,-435.381,0,0
371330.825,75.5476,-434.77,0,0
371591.15,76.0099,-434.307,0,0
371851.475,76.363,-434.025,0,0
372111.8,76.6341,-433.779,0,0
372372.125,76.8255,-433.629,0,0
372632.45,76.9595,-433.542,0,0
372892.775,76.9904,-433.431,0,0
373153.1,76.9375,-433.294,0,0
373413.425,76.8031,-433.153,0,0
373673.75,76.5679,-433.032,0,0
373934.075,76.2843,-432.839,0,0
374194.4,75.9892,-432.564,0,0
374454.725,75.6314,-432.212,0,0
374715.05,75.2618,-431.837,0,0
374975.375,74.9413,-431.431,0,0
375235.7,74.5866,-430.885,0,0
375496.025,74.2016,-430.336,0,0
375756.35,73.8571,-429.716,0,0
376016.675,73.5858,-429.016,0,0
376277.0,73.3276,-428.315,0,0
376537.325,73.1152,-427.574,0,0
376797.65,72.9833,-426.818,0,0
377057.975,72.9543,-426.006,0,0
377318.3,72.9545,-425.213,0,0
377578.625,73.0136,-424.52,0,0
377838.95,73.1139,-423.765,0,0
378099.275,73.2343,-423.144,0,0
378359.6,73.4296,-422.467,0,0
378619.925,73.548,-421.881,0,0
378880,73.7245,-421.31,0,0
379141,73.9318,-420.787,0,0
379401,74.1236,-420.252,0,0
379661,74.3413,-419.765,0,0
379922,74.5417,-419.361,0,0
380182,74.7038,-418.963,0,0
380442,74.8834,-418.599,0,0
380703,74.997,-418.232,0,0
380963,75.174,-417.844,0,0
381223,75.2873,-417.497,0,0
381483,75.3962,-417.158,0,0
381744,75.5483,-416.895,0,0
382004,75.6876,-416.542,0,0
382264,75.827,-416.346,0,0
382525,75.9359,-416.095,0,0
382785,75.9091,-415.934,0,0
383045,75.9288,-415.759,0,0
383306,75.8528,-415.569,0,0
383566,75.7786,-415.391,0,0
383826,75.6898,-415.142,0,0
384087,75.516,-414.962,0,0
384347,75.3589,-414.728,0,0
384607,75.132,-414.421,0,0
384868,74.8884,-414.15,0,0
385128,74.6308,-413.894,0,0
385388,74.3358,-413.497,0,0
385649,74.0687,-413.08,0,0
385909,73.8167,-412.721,0,0
386169,73.5123,-412.239,0,0
386430,73.2145,-411.738,0,0
386690,72.9849,-411.196,0,0
386950,72.7493,-410.63,0,0
387211,72.5138,-410.07,0,0
387471,72.3072,-409.51,0,0
387731,72.1107,-408.89,0,0
387992,71.9349,-408.289,0,0
388252,71.7903,-407.658,0,0
388512,71.6376,-407.016,0,0
388773,71.4541,-406.324,0,0
389033,71.342,-405.604,0,0
389293,71.2684,-404.881,0,0
389554,71.1425,-404.13,0,0
389814,71.1723,-403.386,0,0
390074,71.1474,-402.571,0,0
390335,71.2175,-401.76,0,0
390595,71.3029,-400.995,0,0
390855,71.4497,-400.206,0,0
391116,71.6424,-399.438,0,0
391376,71.8542,-398.695,0,0
391636,72.1005,-397.985,0,0
391896,72.3942,-397.239,0,0
392157,72.7339,-396.518,0,0
392417,73.1057,-395.86,0,0
392677,73.5067,-395.239,0,0
392938,73.9527,-394.628,0,0
393198,74.4083,-394.07,0,0
393458,74.8428,-393.579,0,0
393719,75.3891,-393.132,0,0
393979,75.8958,-392.723,0,0
394239,76.3733,-392.374,0,0
394500,76.9099,-392.058,0,0
394760.05,77.3798,-391.822,0,0
395020.375,77.8561,-391.577,0,0
395280.7,78.3224,-391.396,0,0
395541.025,78.7789,-391.275,0,0
395801.35,79.1918,-391.164,0,0
396061.675,79.5988,-391.108,0,0
396322.0,79.9916,-391.105,0,0
396582.325,80.3069,-391.159,0,0
396842.65,80.5973,-391.218,0,0
397102.975,80.8683,-391.257,0,0
397363.3,81.0737,-391.378,0,0
397623.625,81.2571,-391.484,0,0
397883.95,81.4228,-391.624,0,0
398144.275,81.4495,-391.765,0,0
398404.6,81.5045,-391.933,0,0
398664.925,81.4798,-392.116,0,0
398925.25,81.3782,-392.195,0,0
399185.575,81.1766,-392.33,0,0
399445.9,81.0281,-392.412,0,0
399706.225,80.7693,-392.427,0,0
399966.55,80.5434,-392.399,0,0
400006.6,80.5264,-392.402,0,0