File: Accelerated corrosion test data/2025-10-03_06-00-02/sample_7.csv
Frequency (Hz),Impedance (ohms),Phase (Radians),Temperature (C),Humidity (%)
10000.0,277.039,-12084.7,0,0
10260.325,281.611,-11793.4,0,0
10520.65,260.287,-11494.7,0,0
10780.975,254.584,-11213.4,0,0
11041.3,251.315,-10945.8,0,0
11301.625,248.544,-10690.1,0,0
11561.95,249.514,-10442.5,0,0
11822.275,261.116,-10212.3,0,0
12082.6,266.42,-9994.49,0,0
12342.925,323.339,-9797.8,0,0
12603.25,266.552,-9647.98,0,0
12863.575,267.948,-9436.6,0,0
13123.9,241.584,-9271.4,0,0
13384.225,236.287,-9093.07,0,0
13644.55,221.716,-8909.44,0,0
13904.875,210.608,-8749.64,0,0
14165.2,205.079,-8578.51,0,0
14425.525,212.802,-8438.21,0,0
14685.8,206.118,-8282.93,0,0
14946.175,200.125,-8137.62,0,0
15206.5,201.666,-8006.69,0,0
15466.825,186.049,-7868.04,0,0
15727.15,187.749,-7738.27,0,0
15987.5,181.366,-7610.48,0,0
16247.8,181.28,-7488.34,0,0
16508.125,173.426,-7369.53,0,0
16768.45,172.419,-7250.71,0,0
17028.775,172.696,-7140.01,0,0
17289.1,170,-7032.61,0,0
17549.425,168.712,-6923,0,0
17809.75,168.977,-6813.79,0,0
18070.075,173.26,-6717.79,0,0
18330.4,178.823,-6611.6,0,0
18590.725,198.515,-6524.76,0,0
18851.05,198.534,-6463.18,0,0
19111.375,186.7,-6381.43,0,0
19371.7,204.691,-6293.53,0,0
19632.025,174.408,-6233.63,0,0
19892.35,158.708,-6137.34,0,0
20152.675,169.593,-6048.71,0,0
20413.0,171.065,-5974.43,0,0
20673.3,170.274,-5900.44,0,0
20933.65,178.406,-5837.99,0,0
21193.975,162.672,-5779.67,0,0
21454.3,153.576,-5704.88,0,0
21714.625,155.89,-5633.92,0,0
21974.9,149.001,-5572.87,0,0
22235.275,142.39,-5504.39,0,0
22495.6,141.352,-5439.65,0,0
22755.925,136.127,-5377.92,0,0
23016.25,132.426,-5314.95,0,0
23276.6,130.008,-5252.25,0,0
23536.9,129.91,-5190.97,0,0
23797.225,130.741,-5135.63,0,0
24057.55,126.42,-5079.46,0,0
24317.875,124.576,-5022.93,0,0
24578.2,125.114,-4966.6,0,0
24838.525,123.84,-4913.8,0,0
25098.85,123.213,-4862.12,0,0
25359.175,121.607,-4809.52,0,0
25619.5,120.322,-4758.85,0,0
25879.8,121.169,-4708.01,0,0
26140.1,120.73,-4656.82,0,0
26400.5,124.605,-4607.56,0,0
26660.8,125.408,-4563.15,0,0
26921.1,124.703,-4513.85,0,0
27181.4,130.646,-4465.36,0,0
27441.8,135.928,-4421.8,0,0
27702.1,145.182,-4372.45,0,0
27962.4,160.022,-4332.52,0,0
28222.7,181.185,-4306.3,0,0
28483.1,181.091,-4291.66,0,0
28743.4,176.989,-4271,0,0
29003.7,160.946,-4243.69,0,0
29264,147.126,-4208.02,0,0
29524.4,138.327,-4167.62,0,0
29784.7,134.341,-4128.29,0,0
30045,129.498,-4088.38,0,0
30305.3,131.504,-4049.16,0,0
30565.7,135.668,-4016.44,0,0
30826,135.819,-3985.44,0,0
31086.3,137.489,-3956.18,0,0
31346.6,133.584,-3929.58,0,0
31607,131.947,-3900.48,0,0
31867.3,123.136,-3872.99,0,0
32127.6,119.006,-3839.45,0,0
32387.9,115.514,-3809.04,0,0
32648.3,111.931,-3778.65,0,0
32908.6,108.788,-3747.55,0,0
33168.9,106.205,-3717.89,0,0
33429.2,103.487,-3688.31,0,0
33689.6,100.84,-3658.5,0,0
33949.9,99.3294,-3629.05,0,0
34210.2,97.0557,-3600.65,0,0
34470.5,95.2486,-3572.2,0,0
34730.9,94.1121,-3543.74,0,0
34991.2,92.9244,-3516.22,0,0
35251.5,92.2155,-3489.33,0,0
35511.8,91.0633,-3462.69,0,0
35772.2,90.1129,-3435.93,0,0
36032.5,89.7379,-3410.24,0,0
36292.8,89.6118,-3385.13,0,0
36553.1,88.4323,-3360.12,0,0
36813.5,87.747,-3335.17,0,0
37073.8,87.5861,-3310.48,0,0
37334.1,87.7903,-3286.3,0,0
37594.4,87.5082,-3263.19,0,0
37854.8,86.8012,-3239.84,0,0
38115.1,86.5557,-3216.11,0,0
38375.4,86.8239,-3192.69,0,0
38635.7,87.805,-3169.73,0,0
38896.1,89.0469,-3147.03,0,0
39156.4,91.4393,-3125.8,0,0
39416.7,93.7473,-3104.51,0,0
39677,97.0465,-3085.51,0,0
39937.4,99.0765,-3069.44,0,0
40197.7,98.9814,-3053.46,0,0
40458,97.1832,-3037.49,0,0
40718.3,93.7235,-3019.86,0,0
40978.7,91.078,-3001.58,0,0
41239,88.5809,-2982.4,0,0
41499.3,86.311,-2962.89,0,0
41759.6,85.1808,-2943.57,0,0
42020,83.7802,-2925.11,0,0
42280.275,82.0845,-2905.87,0,0
42540.6,81.3277,-2886.32,0,0
42800.925,81.8766,-2868.03,0,0
43061.25,81.4651,-2849.75,0,0
43321.575,82.4428,-2832.59,0,0
43581.9,81.1489,-2815.99,0,0
43842.225,80.7334,-2797.88,0,0
44102.55,81.7396,-2780.2,0,0
44362.875,83.3487,-2764.02,0,0
44623.2,83.8558,-2749.22,0,0
44883.525,84.0946,-2735.58,0,0
45143.85,81.9784,-2720.76,0,0
45404.175,80.3285,-2704.74,0,0
45664.5,79.9852,-2687.83,0,0
45924.825,81.7451,-2673.59,0,0
46185.15,80.638,-2660.51,0,0
46445.475,79.1065,-2646.87,0,0
46705.8,76.8383,-2632.72,0,0
46966.125,74.6029,-2617.4,0,0
47226.45,73.1318,-2601.71,0,0
47486.775,72.5354,-2586.04,0,0
47747.1,72.1773,-2571.22,0,0
48007.425,71.9792,-2556.97,0,0
48267.75,71.3571,-2542.86,0,0
48528.075,70.8616,-2529.04,0,0
48788.4,70.2283,-2515.06,0,0
49048.725,69.6021,-2501.31,0,0
49309.05,68.9783,-2487.48,0,0
49569.375,68.7114,-2473.89,0,0
49829.7,68.1931,-2460.52,0,0
50090.025,67.8223,-2447.1,0,0
50350.35,67.6224,-2434.06,0,0
50610.675,67.1839,-2420.96,0,0
50871.0,66.985,-2408.27,0,0
51131.325,66.5477,-2395.6,0,0
51391.65,66.0567,-2382.99,0,0
51651.975,65.987,-2370.33,0,0
51912.3,65.6517,-2358.2,0,0
52172.625,65.4177,-2345.87,0,0
52432.95,65.3301,-2333.82,0,0
52693.275,65.0434,-2321.89,0,0
52953.6,64.9182,-2309.91,0,0
53213.925,64.8063,-2298.42,0,0
53474.25,64.766,-2287.17,0,0
53734.575,64.3831,-2275.76,0,0
53994.9,64.1424,-2264.57,0,0
54255.225,63.7666,-2253.18,0,0
54515.55,63.4479,-2242.15,0,0
54775.875,63.0775,-2231.13,0,0
55036.2,62.9331,-2220.12,0,0
55296.525,62.598,-2209.11,0,0
55556.85,62.5152,-2198.43,0,0
55817.175,62.3194,-2187.75,0,0
56077.5,62.1422,-2177.13,0,0
56337.825,61.9668,-2166.55,0,0
56598.15,62.0051,-2156.29,0,0
56858.475,61.7591,-2146.13,0,0
57118.8,61.5483,-2135.99,0,0
57379.125,61.4059,-2125.84,0,0
57639.45,61.2926,-2115.86,0,0
57899.775,61.0128,-2105.93,0,0
58160.1,60.9937,-2095.83,0,0
58420.4,61.1046,-2085.93,0,0
58680.7,61.5382,-2076.57,0,0
58941.1,61.3652,-2067.41,0,0
59201.4,61.1647,-2058.03,0,0
59461.7,61.1061,-2048.55,0,0
59722,61.3778,-2039.43,0,0
59982.4,61.1425,-2030.57,0,0
60242.7,61.2365,-2021.71,0,0
60503,61.1606,-2013.24,0,0
60763.3,60.6334,-2004.63,0,0
61023.7,60.2043,-1995.92,0,0
61284,59.8121,-1987.15,0,0
61544.3,59.4885,-1978.46,0,0
61804.6,59.0888,-1969.86,0,0
62065,58.5967,-1961.26,0,0
62325.3,58.2397,-1952.58,0,0
62585.6,58.0104,-1943.89,0,0
62845.9,57.811,-1935.52,0,0
63106.3,57.6903,-1927.08,0,0
63366.6,57.5664,-1918.69,0,0
63626.9,57.4568,-1910.52,0,0
63887.2,57.1954,-1902.55,0,0
64147.6,56.7378,-1894.35,0,0
64407.9,56.538,-1886.09,0,0
64668.2,56.456,-1878,0,0
64928.5,56.4098,-1869.91,0,0
65188.9,56.4498,-1861.95,0,0
65449.2,56.5524,-1854.17,0,0
65709.5,56.9104,-1846.84,0,0
65969.8,56.6133,-1839.55,0,0
66230.2,56.4105,-1832.15,0,0
66490.5,56.0197,-1824.74,0,0
66750.8,55.7988,-1817.41,0,0
67011.1,55.3699,-1810.22,0,0
67271.5,54.9133,-1802.77,0,0
67531.8,54.4115,-1795.38,0,0
67792.1,54.2783,-1787.9,0,0
68052.4,54.0487,-1780.59,0,0
68312.8,53.8006,-1773.3,0,0
68573.1,53.6273,-1765.98,0,0
68833.4,53.5014,-1758.75,0,0
69093.7,53.478,-1751.66,0,0
69354.1,53.4096,-1744.55,0,0
69614.4,53.3151,-1737.63,0,0
69874.7,53.1111,-1730.71,0,0
70135,53.1811,-1723.78,0,0
70395.4,53.2216,-1717,0,0
70655.7,53.0249,-1710.35,0,0
70916,52.9546,-1703.64,0,0
71176.3,52.9031,-1697.14,0,0
71436.7,52.771,-1690.7,0,0
71697,52.5983,-1684.3,0,0
71957.3,52.2667,-1677.79,0,0
72217.6,52.0843,-1671.31,0,0
72478,51.903,-1664.81,0,0
72738.3,51.7031,-1658.43,0,0
72998.6,51.475,-1652.07,0,0
73258.9,51.2559,-1645.63,0,0
73519.3,51.0972,-1639.29,0,0
73779.6,50.9781,-1633,0,0
74039.9,50.8794,-1626.79,0,0
74300.225,50.7601,-1620.61,0,0
74560.55,50.6565,-1614.4,0,0
74820.875,50.5589,-1608.33,0,0
75081.2,50.4789,-1602.24,0,0
75341.525,50.3438,-1596.21,0,0
75601.85,50.3205,-1590.24,0,0
75862.175,50.2115,-1584.33,0,0
76122.5,50.0988,-1578.44,0,0
76382.825,49.959,-1572.48,0,0
76643.15,49.879,-1566.59,0,0
76903.475,49.8694,-1560.84,0,0
77163.8,49.732,-1555.04,0,0
77424.125,49.7036,-1549.34,0,0
77684.45,49.6511,-1543.55,0,0
77944.775,49.6062,-1537.94,0,0
78205.1,49.5606,-1532.39,0,0
78465.425,49.4873,-1526.69,0,0
78725.75,49.3586,-1521.18,0,0
78986.075,49.3859,-1515.62,0,0
79246.4,49.3084,-1510.08,0,0
79506.725,49.3618,-1504.74,0,0
79767.05,49.3007,-1499.23,0,0
80027.375,49.2996,-1493.89,0,0
80287.7,49.2114,-1488.47,0,0
80548.025,49.1992,-1483.29,0,0
80808.35,49.1633,-1478.01,0,0
81068.675,49.0476,-1472.78,0,0
81329.0,48.9781,-1467.52,0,0
81589.325,48.9097,-1462.28,0,0
81849.65,48.8911,-1457.13,0,0
82109.975,48.8507,-1451.97,0,0
82370.3,48.7397,-1446.73,0,0
82630.625,48.758,-1441.65,0,0
82890.95,48.8268,-1436.6,0,0
83151.275,48.7629,-1431.59,0,0
83411.6,48.7304,-1426.57,0,0
83671.925,48.7057,-1421.51,0,0
83932.25,48.6938,-1416.49,0,0
84192.575,48.7133,-1411.57,0,0
84452.9,48.8125,-1406.65,0,0
84713.225,48.9253,-1401.81,0,0
84973.55,48.9303,-1397.06,0,0
85233.875,48.9883,-1392.2,0,0
85494.2,48.9856,-1387.48,0,0
85754.525,48.9067,-1382.84,0,0
86014.85,48.9558,-1378.05,0,0
86275.175,48.9562,-1373.36,0,0
86535.5,49.0415,-1368.7,0,0
86795.825,48.9041,-1364.12,0,0
87056.15,48.9185,-1359.45,0,0
87316.475,48.9505,-1354.8,0,0
87576.8,49.0257,-1350.16,0,0
87837.125,49.1377,-1345.64,0,0
88097.45,49.1187,-1341.16,0,0
88357.775,49.2789,-1336.7,0,0
88618.1,49.2123,-1332.32,0,0
88878.425,49.1582,-1327.86,0,0
89138.75,49.084,-1323.35,0,0
89399.075,49.1198,-1318.95,0,0
89659.4,49.0489,-1314.52,0,0
89919.725,49.0587,-1310.1,0,0
90180,49.1729,-1305.62,0,0
90440.4,49.2221,-1301.2,0,0
90700.7,49.3453,-1296.84,0,0
90961,49.4902,-1292.56,0,0
91221.3,49.5286,-1288.34,0,0
91481.7,49.7104,-1284.01,0,0
91742,49.8465,-1279.76,0,0
92002.3,49.9099,-1275.61,0,0
92262.6,49.9423,-1271.41,0,0
92523,50.1646,-1267.29,0,0
92783.3,50.0269,-1263.22,0,0
93043.6,50.0044,-1258.98,0,0
93303.9,49.9335,-1254.56,0,0
93564.3,50.2616,-1250.18,0,0
93824.6,50.6626,-1245.86,0,0
94084.9,51.4391,-1241.54,0,0
94345.2,52.3266,-1237.92,0,0
94605.6,52.7603,-1234.54,0,0
94865.9,52.966,-1231.37,0,0
95126.2,52.6807,-1227.92,0,0
95386.5,52.5934,-1224.29,0,0
95646.9,52.4103,-1220.76,0,0
95907.2,51.9157,-1217.15,0,0
96167.5,51.4993,-1213.11,0,0
96427.8,51.4345,-1209.13,0,0
96688.2,51.2412,-1205.13,0,0
96948.5,51.2797,-1201.05,0,0
97208.8,51.2761,-1197.09,0,0
97469.1,51.322,-1193.21,0,0
97729.5,51.3465,-1189.19,0,0
97989.8,51.6464,-1185.15,0,0
98250.1,51.9494,-1181.44,0,0
98510.4,52.1357,-1177.68,0,0
98770.8,52.4671,-1174.17,0,0
99031.1,52.387,-1170.73,0,0
99291.4,52.1972,-1167.03,0,0
99551.7,52.2038,-1163.3,0,0
99812.1,51.9755,-1159.55,0,0
100072,51.9783,-1155.42,0,0
100333,52.3363,-1151.49,0,0
100593,52.6804,-1147.71,0,0
100853,52.9652,-1144.11,0,0
101114,53.1239,-1140.36,0,0
101374,53.481,-1136.63,0,0
101634,53.9645,-1132.98,0,0
101895,54.2468,-1129.55,0,0
102155,54.5422,-1125.97,0,0
102415,54.7958,-1122.37,0,0
102676,55.2055,-1118.77,0,0
102936,55.5982,-1115.31,0,0
103196,56.0648,-1111.72,0,0
103457,56.7533,-1108.38,0,0
103717,57.4318,-1105.15,0,0
103977,58.1042,-1102.29,0,0
104238,58.1077,-1099.68,0,0
104498,58.0434,-1096.25,0,0
104758,58.5113,-1093.02,0,0
105019,58.8317,-1090.22,0,0
105279,58.7769,-1087.34,0,0
105539,58.656,-1084.32,0,0
105800,58.5821,-1081.13,0,0
106060,58.5929,-1077.9,0,0
106320.175,58.4723,-1074.74,0,0
106580.5,58.3394,-1071.22,0,0
106840.825,58.5213,-1067.74,0,0
107101.15,58.8728,-1064.33,0,0
107361.475,59.2001,-1061.15,0,0
107621.8,59.3297,-1058,0,0
107882.125,59.6272,-1054.75,0,0
108142.45,59.8943,-1051.55,0,0
108402.775,60.1433,-1048.48,0,0
108663.1,60.2953,-1045.45,0,0
108923.425,60.4411,-1042.34,0,0
109183.75,60.4276,-1039.24,0,0
109444.075,60.4657,-1035.95,0,0
109704.4,60.6225,-1032.77,0,0
109964.725,60.6345,-1029.49,0,0
110225.05,60.7611,-1026,0,0
110485.375,60.9179,-1022.43,0,0
110745.7,61.3066,-1018.76,0,0
111006.025,61.9935,-1015.31,0,0
111266.35,62.7316,-1012,0,0
111526.675,63.4531,-1008.74,0,0
111787.0,63.9653,-1005.64,0,0
112047.325,64.6725,-1002.2,0,0
112307.65,65.4868,-999.083,0,0
112567.975,66.3809,-995.799,0,0
112828.3,67.28,-992.803,0,0
113088.625,68.3613,-989.599,0,0
113348.95,69.675,-986.699,0,0
113609.275,70.8453,-984.197,0,0
113869.6,71.6533,-981.724,0,0
114129.925,72.4099,-978.948,0,0
114390.25,73.4256,-976.186,0,0
114650.575,74.5779,-973.576,0,0
114910.9,75.6331,-971.239,0,0
115171.225,76.5503,-968.7,0,0
115431.55,77.5801,-966.11,0,0
115691.875,78.7983,-963.615,0,0
115952.2,80.1798,-961.108,0,0
116212.525,81.8167,-958.861,0,0
116472.85,83.667,-957.006,0,0
116733.175,85.3583,-955.761,0,0
116993.5,86.5628,-954.71,0,0
117253.825,87.5335,-953.701,0,0
117514.15,88.3181,-952.636,0,0
117774.475,89.0678,-951.676,0,0
118034.8,89.4631,-950.88,0,0
118295.125,89.5612,-949.598,0,0
118555.45,90.1181,-948.036,0,0
118815.775,91.2809,-947.06,0,0
119076.1,91.956,-946.856,0,0
119336.425,92.01,-946.696,0,0
119596.75,92.0161,-946.417,0,0
119857.075,91.7671,-946.68,0,0
120117.4,90.5108,-947.1,0,0
120377.725,88.6154,-946.683,0,0
120638.05,86.7798,-945.991,0,0
120898.375,84.5031,-944.921,0,0
121158.7,82.4151,-943.502,0,0
121419.025,79.9749,-941.587,0,0
121679.35,77.8075,-938.927,0,0
121939.675,76.3489,-936.129,0,0
122200.0,75.1769,-933.63,0,0
122460,73.8187,-931.204,0,0
122721,72.5054,-928.541,0,0
122981,71.4276,-925.909,0,0
123241,70.2957,-923.336,0,0
123502,69.0184,-920.746,0,0
123762,67.7067,-917.799,0,0
124022,66.8027,-914.603,0,0
124283,66.2157,-911.662,0,0
124543,65.5467,-908.807,0,0
124803,64.9769,-905.891,0,0
125064,64.711,-903.214,0,0
125324,64.13,-900.942,0,0
125584,63.1576,-898.526,0,0
125845,62.1104,-895.731,0,0
126105,61.3161,-892.736,0,0
126365,60.7068,-889.802,0,0
126626,59.9628,-886.96,0,0
126886,59.3126,-884,0,0
127146,58.7702,-881.137,0,0
127406,57.9855,-878.012,0,0
127667,57.5945,-874.791,0,0
127927,57.3599,-871.662,0,0
128187,57.1451,-868.703,0,0
128448,56.8971,-865.833,0,0
128708,56.5603,-862.941,0,0
128968,56.2442,-860.06,0,0
129229,55.9553,-857.074,0,0
129489,55.8176,-854.065,0,0
129749,55.6958,-851.379,0,0
130010,55.3227,-848.477,0,0
130270,54.9981,-845.459,0,0
130530,54.9103,-842.408,0,0
130791,54.9031,-839.529,0,0
131051,54.8062,-836.685,0,0
131311,54.6754,-833.956,0,0
131572,54.3439,-831.124,0,0
131832,53.9954,-828.048,0,0
132092,53.8636,-824.856,0,0
132353,53.8461,-821.733,0,0
132613,53.8757,-818.62,0,0
132873,53.9952,-815.515,0,0
133134,54.1263,-812.395,0,0
133394,54.2654,-809.289,0,0
133654,54.5688,-806.105,0,0
133915,54.9887,-802.917,0,0
134175,55.4662,-799.827,0,0
134435,56.0571,-796.745,0,0
134696,56.8652,-793.818,0,0
134956,57.6061,-791.135,0,0
135216,58.2167,-788.463,0,0
135477,59.0916,-785.613,0,0
135737,60.0312,-783.105,0,0
135997,61.0523,-780.622,0,0
136258,62.1677,-778.538,0,0
136518,63.0364,-776.907,0,0
136778,63.6065,-775.373,0,0
137039,63.8116,-773.886,0,0
137299,63.6039,-772.391,0,0
137559,63.0924,-770.399,0,0
137819,62.7836,-768.113,0,0
138080,62.5892,-765.832,0,0
138340.125,62.3693,-763.534,0,0
138600.45,62.0344,-761.205,0,0
138860.775,61.7093,-758.653,0,0
139121.1,61.3849,-755.998,0,0
139381.425,61.2366,-753.108,0,0
139641.75,61.348,-750.314,0,0
139902.075,61.4446,-747.722,0,0
140162.4,61.5334,-745.002,0,0
140422.725,61.7315,-742.277,0,0
140683.05,61.9506,-739.714,0,0
140943.375,62.0438,-737.216,0,0
141203.7,62.1059,-734.578,0,0
141464.025,62.2242,-731.91,0,0
141724.35,62.3427,-729.259,0,0
141984.675,62.3942,-726.506,0,0
142245.0,62.6483,-723.664,0,0
142505.325,62.9678,-720.968,0,0
142765.65,63.2316,-718.285,0,0
143025.975,63.453,-715.509,0,0
143286.3,63.8514,-712.657,0,0
143546.625,64.343,-709.918,0,0
143806.95,64.8836,-707.288,0,0
144067.275,65.4522,-704.781,0,0
144327.6,65.928,-702.343,0,0
144587.925,66.308,-699.935,0,0
144848.25,66.6555,-697.491,0,0
145108.575,66.9629,-695.058,0,0
145368.9,67.2878,-692.579,0,0
145629.225,67.4735,-690.199,0,0
145889.55,67.5721,-687.703,0,0
146149.875,67.6567,-685.027,0,0
146410.2,67.8469,-682.221,0,0
146670.525,68.2634,-679.467,0,0
146930.85,68.635,-676.868,0,0
147191.175,68.9392,-674.196,0,0
147451.5,69.3145,-671.596,0,0
147711.825,69.5584,-669.052,0,0
147972.15,69.7276,-666.278,0,0
148232.475,70.0847,-663.502,0,0
148492.8,70.4248,-660.847,0,0
148753.125,70.7093,-658.142,0,0
149013.45,70.9606,-655.468,0,0
149273.775,71.0947,-652.785,0,0
149534.1,71.1447,-649.952,0,0
149794.425,71.2272,-646.934,0,0
150054.75,71.3658,-643.84,0,0
150315.075,71.5901,-640.65,0,0
150575.4,71.879,-637.421,0,0
150835.725,72.1793,-634.18,0,0
151096.05,72.5128,-630.841,0,0
151356.375,72.923,-627.389,0,0
151616.7,73.424,-623.852,0,0
151877.025,74.0347,-620.271,0,0
152137.35,74.7755,-616.624,0,0
152397.675,75.6586,-612.99,0,0
152658.0,76.6006,-609.362,0,0
152918.325,77.6223,-605.669,0,0
153178.65,78.8394,-602.005,0,0
153438.975,80.1639,-598.386,0,0
153699.3,81.5801,-594.893,0,0
153959.625,82.8825,-591.427,0,0
154219.95,84.251,-587.815,0,0
154480,85.7247,-584.141,0,0
154741,87.445,-580.473,0,0
155001,89.2805,-576.886,0,0
155261,91.2157,-573.363,0,0
155522,93.2219,-569.887,0,0
155782,95.3749,-566.445,0,0
156042,97.6352,-563.07,0,0
156303,100.059,-559.829,0,0
156563,102.547,-556.777,0,0
156823,104.986,-553.859,0,0
157084,107.446,-551.026,0,0
157344,109.966,-548.212,0,0
157604,112.595,-545.522,0,0
157864,115.283,-543.092,0,0
158125,117.857,-540.882,0,0
158385,120.263,-538.788,0,0
158645,122.628,-536.723,0,0
158906,124.972,-534.921,0,0
159166,126.988,-533.406,0,0
159426,128.472,-531.856,0,0
159687,129.655,-530.071,0,0
159947,130.46,-528.079,0,0
160207,130.985,-525.598,0,0
160468,131.588,-522.518,0,0
160728,132.283,-519.05,0,0
160988,133.242,-515.21,0,0
161249,134.386,-511.079,0,0
161509,135.665,-506.484,0,0
161769,137.62,-501.475,0,0
162030,140.245,-496.428,0,0
162290,143.278,-491.52,0,0
162550,146.809,-486.715,0,0
162811,150.629,-482.282,0,0
163071,154.362,-477.95,0,0
163331,158.286,-473.398,0,0
163592,162.722,-468.698,0,0
163852,167.81,-464.171,0,0
164112,173.306,-460.166,0,0
164373,178.913,-456.584,0,0
164633,184.368,-453.215,0,0
164893,190.046,-449.91,0,0
165154,195.977,-446.759,0,0
165414,201.616,-443.963,0,0
165674,207.252,-440.776,0,0
165935,213.139,-437.23,0,0
166195,219.611,-433.328,0,0
166455,227.126,-429.188,0,0
166716,235.869,-425.453,0,0
166976,245.79,-422.796,0,0
167236,255.833,-421.287,0,0
167497,266.175,-420.604,0,0
167757,276.667,-420.882,0,0
168017,287.012,-421.974,0,0
168277,297.557,-423.671,0,0
168538,308.114,-426.268,0,0
168798,318.743,-429.869,0,0
169058,329.021,-434.848,0,0
169319,338.517,-440.572,0,0
169579,347.469,-447.309,0,0
169839,355.003,-454.386,0,0
170100,361.908,-460.774,0,0
170360.075,369.458,-467.287,0,0
170620.4,377.421,-474.66,0,0
170880.725,385.381,-483.713,0,0
171141.05,391.912,-494.567,0,0
171401.375,396.294,-505.931,0,0
171661.7,399.072,-516.856,0,0
171922.025,400.944,-527.048,0,0
172182.35,402.776,-536.513,0,0
172442.675,405.266,-546.703,0,0
172703.0,406.788,-558.887,0,0
172963.325,405.237,-571.616,0,0
173223.65,401.956,-582.839,0,0
173483.975,397.714,-593.217,0,0
173744.3,392.609,-602.797,0,0
174004.625,386.482,-611.544,0,0
174264.95,379.527,-619.052,0,0
174525.275,371.773,-625.501,0,0
174785.6,363.453,-630.037,0,0
175045.925,355.518,-632.993,0,0
175306.25,347.891,-634.653,0,0
175566.575,341.039,-635.108,0,0
175826.9,334.606,-634.78,0,0
176087.225,328.582,-632.566,0,0
176347.55,325.156,-628.701,0,0
176607.875,324.571,-625.58,0,0
176868.2,325.427,-623.937,0,0
177128.525,326.848,-623.918,0,0
177388.85,328.069,-624.851,0,0
177649.175,329.545,-626.171,0,0
177909.5,331.616,-628.203,0,0
178169.825,334.236,-631.573,0,0
178430.15,337.042,-636.923,0,0
178690.475,338.65,-644.691,0,0
178950.8,337.7,-653.995,0,0
179211.125,333.86,-663.174,0,0
179471.45,327.852,-671.278,0,0
179731.775,320.429,-677.602,0,0
179992.1,312.635,-682.158,0,0
180252.425,304.936,-685.288,0,0
180512.75,298.154,-687.404,0,0
180773.075,292.086,-689.65,0,0
181033.4,285.725,-692.499,0,0
181293.725,278.782,-695.387,0,0
181554.05,270.682,-698.264,0,0
181814.375,261.239,-699.686,0,0
182074.7,252.07,-699.355,0,0
182335.025,243.513,-698.259,0,0
182595.35,235.123,-696.736,0,0
182855.675,226.599,-694.488,0,0
183116.0,218.321,-691.104,0,0
183376.325,210.833,-686.73,0,0
183636.65,204.524,-681.918,0,0
183896.975,198.87,-677.384,0,0
184157.3,193.267,-672.74,0,0
184417.625,187.969,-667.572,0,0
184677.95,183.462,-661.894,0,0
184938.275,179.976,-656.048,0,0
185198.6,177.62,-650.915,0,0
185458.925,175.319,-646.938,0,0
185719.25,172.302,-643.387,0,0
185979.575,168.762,-639.647,0,0
186239.9,164.865,-635.225,0,0
186500,161.268,-629.946,0,0
186761,158.515,-624.284,0,0
187021,156.385,-618.765,0,0
187281,154.5,-613.324,0,0
187542,153.036,-607.734,0,0
187802,152.222,-602.238,0,0
188062,151.937,-597.122,0,0
188322,152.062,-592.526,0,0
188583,152.446,-588.686,0,0
188843,152.459,-585.792,0,0
189103,151.501,-583.248,0,0
189364,149.775,-580.296,0,0
189624,147.791,-576.763,0,0
189884,145.864,-572.687,0,0
190145,144.104,-568.312,0,0
190405,142.487,-563.58,0,0
190665,141.229,-558.577,0,0
190926,140.272,-553.536,0,0
191186,139.455,-548.338,0,0
191446,139.082,-542.859,0,0
191707,139.265,-537.564,0,0
191967,139.681,-532.669,0,0
192227,140.013,-527.977,0,0
192488,140.263,-523.288,0,0
192748,140.543,-518.409,0,0
193008,141.026,-513.458,0,0
193269,141.684,-508.511,0,0
193529,142.521,-503.529,0,0
193789,143.561,-498.589,0,0
194050,144.736,-493.704,0,0
194310,146.026,-488.801,0,0
194570,147.483,-483.832,0,0
194831,149.221,-478.836,0,0
195091,151.307,-473.971,0,0
195351,153.675,-469.365,0,0
195612,156.06,-465.077,0,0
195872,158.391,-461.069,0,0
196132,160.614,-456.933,0,0
196393,162.941,-452.871,0,0
196653,165.498,-448.855,0,0
196913,168.036,-444.855,0,0
197174,170.686,-441.068,0,0
197434,173.322,-437.484,0,0
197694,175.851,-433.849,0,0
197955,178.445,-430.188,0,0
198215,181.07,-426.651,0,0
198475,183.605,-423.142,0,0
198735,186.045,-419.34,0,0
198996,188.76,-415.52,0,0
199256,191.604,-411.755,0,0
199516,194.382,-408.039,0,0
199777,197.175,-404.144,0,0
200037,200.126,-400.098,0,0
200297,203.296,-395.922,0,0
200558,206.776,-391.583,0,0
200818,210.584,-387.286,0,0
201078,214.787,-383.181,0,0
201339,219.036,-379.319,0,0
201599,223.208,-375.525,0,0
201859,227.612,-371.331,0,0
202120,232.449,-367.115,0,0
202380.025,237.749,-363.17,0,0
202640.35,243.438,-359.381,0,0
202900.675,249.255,-355.977,0,0
203161.0,255.267,-352.702,0,0
203421.325,261.487,-349.542,0,0
203681.65,268.043,-346.655,0,0
203941.975,274.804,-344.059,0,0
204202.3,281.882,-341.683,0,0
204462.625,289.162,-339.928,0,0
204722.95,296.411,-338.543,0,0
204983.275,303.688,-337.359,0,0
205243.6,311.054,-336.464,0,0
205503.925,318.596,-335.808,0,0
205764.25,326.401,-335.438,0,0
206024.575,334.649,-335.819,0,0
206284.9,342.671,-337.279,0,0
206545.225,349.919,-339.299,0,0
206805.55,356.606,-341.55,0,0
207065.875,362.953,-344.057,0,0
207326.2,368.372,-346.605,0,0
207586.525,373.423,-348.769,0,0
207846.85,378.095,-350.493,0,0
208107.175,382.663,-351.622,0,0
208367.5,387.351,-352.249,0,0
208627.825,392.435,-352.01,0,0
208888.15,398.463,-351.115,0,0
209148.475,405.994,-349.894,0,0
209408.8,415.367,-349.637,0,0
209669.125,425.719,-350.756,0,0
209929.45,436.601,-353.559,0,0
210189.775,447.636,-358.107,0,0
210450.1,457.711,-364.236,0,0
210710.425,467.27,-371.151,0,0
210970.75,476.314,-379.372,0,0
211231.075,484.228,-388.728,0,0
211491.4,490.818,-398.689,0,0
211751.725,496.203,-409.096,0,0
212012.05,500.094,-419.728,0,0
212272.375,502.567,-429.768,0,0
212532.7,504.348,-439.091,0,0
212793.025,505.854,-447.751,0,0
213053.35,507.368,-456.05,0,0
213313.675,508.926,-464.747,0,0
213574.0,509.687,-473.748,0,0
213834.325,509.678,-482.474,0,0
214094.65,509.409,-490.959,0,0
214354.975,508.62,-499.516,0,0
214615.3,507.072,-507.969,0,0
214875.625,504.573,-516.032,0,0
215135.95,501.288,-523.05,0,0
215396.275,498.075,-528.941,0,0
215656.6,495.312,-534.032,0,0
215916.925,493.317,-538.837,0,0
216177.25,491.844,-543.898,0,0
216437.575,490.458,-549.464,0,0
216697.9,489.025,-555.574,0,0
216958.225,487.046,-562.249,0,0
217218.55,484.159,-569.173,0,0
217478.875,480.352,-575.943,0,0
217739.2,475.755,-582.263,0,0
217999.525,470.41,-587.907,0,0
218259.85,464.764,-592.721,0,0
218520,459.067,-596.941,0,0
218780,453.292,-600.677,0,0
219041,447.368,-604.169,0,0
219301,440.931,-607.309,0,0
219561,433.925,-609.649,0,0
219822,426.695,-610.767,0,0
220082,419.724,-610.706,0,0
220342,413.304,-609.729,0,0
220603,407.562,-607.968,0,0
220863,402.541,-605.698,0,0
221123,398.373,-603.109,0,0
221384,394.909,-600.454,0,0
221644,391.962,-597.821,0,0
221904,389.395,-595.119,0,0
222165,387.367,-592.287,0,0
222425,385.824,-589.383,0,0
222685,384.835,-586.605,0,0
222946,384.505,-584.009,0,0
223206,384.469,-581.932,0,0
223466,384.449,-580.059,0,0
223727,384.482,-578.339,0,0
223987,384.797,-576.554,0,0
224247,385.251,-574.864,0,0
224508,385.931,-573.148,0,0
224768,386.837,-571.607,0,0
225028,387.811,-570.152,0,0
225289,389.09,-568.574,0,0
225549,390.806,-566.788,0,0
225809,393.189,-565.102,0,0
226070,396.236,-563.857,0,0
226330,399.797,-563.149,0,0
226590,403.828,-563.217,0,0
226851,407.932,-564.249,0,0
227111,411.715,-566.114,0,0
227371,414.864,-568.364,0,0
227632,417.745,-570.575,0,0
227892,420.764,-572.764,0,0
228152,423.951,-575.342,0,0
228413,427.261,-578.327,0,0
228673,430.702,-581.81,0,0
228933,434.102,-586.105,0,0
229193,437.129,-591.103,0,0
229454,439.615,-596.827,0,0
229714,441.315,-603.059,0,0
229974,442.049,-609.283,0,0
230235,442.328,-615.1,0,0
230495,442.688,-620.931,0,0
230755,443.126,-627.293,0,0
231016,442.866,-634.511,0,0
231276,441.314,-641.981,0,0
231536,438.59,-648.907,0,0
231797,435.504,-655.016,0,0
232057,432.436,-660.783,0,0
232317,429.289,-666.464,0,0
232578,425.968,-672.135,0,0
232838,422.389,-677.908,0,0
233098,418.396,-683.73,0,0
233359,414.069,-689.571,0,0
233619,409.315,-695.695,0,0
233879,403.603,-702.363,0,0
234140,396.079,-708.746,0,0
234400,387.217,-713.725,0,0
234660.3,377.762,-717.291,0,0
234920.625,368.102,-719.423,0,0
235180.95,358.669,-720.15,0,0
235441.275,349.708,-719.863,0,0
235701.6,341.233,-718.571,0,0
235961.925,333.525,-716.492,0,0
236222.25,326.671,-713.805,0,0
236482.575,320.715,-710.895,0,0
236742.9,315.51,-708.119,0,0
237003.225,310.916,-705.53,0,0
237263.55,306.767,-703.454,0,0
237523.875,302.231,-701.95,0,0
237784.2,297.209,-700.157,0,0
238044.525,291.944,-697.84,0,0
238304.85,286.811,-694.95,0,0
238565.175,281.749,-691.353,0,0
238825.5,277.272,-686.969,0,0
239085.825,273.837,-682.115,0,0
239346.15,271.49,-677.226,0,0
239606.475,269.879,-672.775,0,0
239866.8,268.94,-668.825,0,0
240127.125,268.42,-665.344,0,0
240387.45,268.315,-662.175,0,0
240647.775,268.472,-660.082,0,0
240908.1,268.712,-659.094,0,0
241168.425,267.898,-658.811,0,0
241428.75,266.067,-658.33,0,0
241689.075,263.867,-657.279,0,0
241949.4,261.788,-656.008,0,0
242209.725,259.662,-654.761,0,0
242470.05,257.091,-653.538,0,0
242730.375,253.934,-651.896,0,0
242990.7,250.607,-649.43,0,0
243251.025,247.646,-645.941,0,0
243511.35,245.501,-642.009,0,0
243771.675,244.039,-638.066,0,0
244032.0,242.92,-634.252,0,0
244292.325,242.177,-630.263,0,0
244552.65,242.068,-626.144,0,0
244812.975,242.597,-622.306,0,0
245073.3,243.706,-618.737,0,0
245333.625,245.23,-615.808,0,0
245593.95,247.049,-613.562,0,0
245854.275,248.75,-612.094,0,0
246114.6,250.133,-611.149,0,0
246374.925,250.979,-610.413,0,0
246635.25,251.402,-609.673,0,0
246895.575,251.787,-608.69,0,0
247155.9,252.228,-607.759,0,0
247416.225,252.546,-607.015,0,0
247676.55,252.535,-606.227,0,0
247936.875,252.459,-605.185,0,0
248197.2,252.496,-603.947,0,0
248457.525,252.772,-602.594,0,0
248717.85,253.118,-601.277,0,0
248978.175,253.703,-600.049,0,0
249238.5,254.395,-598.932,0,0
249498.825,255.171,-597.985,0,0
249759.15,255.918,-597.111,0,0
250019.475,256.875,-596.332,0,0
250279.8,257.802,-595.742,0,0
250540,258.779,-595.407,0,0
250800,259.565,-595.187,0,0
251061,260.293,-595.016,0,0
251321,260.956,-594.928,0,0
251581,261.685,-594.812,0,0
251842,262.486,-594.789,0,0
252102,263.28,-595.008,0,0
252362,264.033,-595.342,0,0
252623,264.717,-595.789,0,0
252883,265.351,-596.458,0,0
253143,265.857,-597.298,0,0
253404,266.124,-598.255,0,0
253664,266.257,-599.199,0,0
253924,266.33,-600.248,0,0
254185,266.285,-601.448,0,0
254445,265.999,-602.853,0,0
254705,265.23,-604.34,0,0
254966,264.086,-605.71,0,0
255226,262.741,-606.769,0,0
255486,261.341,-607.61,0,0
255747,259.817,-608.414,0,0
256007,258.023,-609.07,0,0
256267,256.094,-609.451,0,0
256528,254.068,-609.502,0,0
256788,252.108,-609.29,0,0
257048,250.282,-608.883,0,0
257309,248.517,-608.442,0,0
257569,246.676,-607.897,0,0
257829,244.766,-607.144,0,0
258090,242.862,-606.048,0,0
258350,241.152,-604.71,0,0
258610,239.667,-603.175,0,0
258871,238.392,-601.494,0,0
259131,237.392,-599.742,0,0
259391,236.725,-598.081,0,0
259651,236.105,-596.567,0,0
259912,235.413,-595.146,0,0
260172,234.686,-593.609,0,0
260432,234.007,-591.94,0,0
260693,233.44,-590.088,0,0
260953,233.023,-588.053,0,0
261213,232.823,-585.891,0,0
261474,232.866,-583.621,0,0
261734,233.265,-581.216,0,0
261994,234.088,-578.802,0,0
262255,235.356,-576.488,0,0
262515,237.04,-574.381,0,0
262775,239.193,-572.646,0,0
263036,241.587,-571.428,0,0
263296,244.064,-570.705,0,0
263556,246.516,-570.417,0,0
263817,248.925,-570.593,0,0
264077,251.162,-571.221,0,0
264337,253.223,-572.202,0,0
264598,254.886,-573.565,0,0
264858,255.979,-575.087,0,0
265118,256.641,-576.451,0,0
265379,257.085,-577.68,0,0
265639,257.363,-578.688,0,0
265899,257.601,-579.424,0,0
266160,257.967,-579.956,0,0
266420,258.596,-580.503,0,0
266680.25,259.298,-581.199,0,0
266940.575,260.104,-582.1,0,0
267200.9,260.805,-583.131,0,0
267461.225,261.486,-584.298,0,0
267721.55,262.071,-585.556,0,0
267981.875,262.577,-586.975,0,0
268242.2,262.868,-588.594,0,0
268502.525,262.827,-590.101,0,0
268762.85,262.692,-591.478,0,0
269023.175,262.518,-592.738,0,0
269283.5,262.304,-593.859,0,0
269543.825,262.184,-594.829,0,0
269804.15,262.222,-595.642,0,0
270064.475,262.459,-596.524,0,0
270324.8,263.113,-597.471,0,0
270585.125,263.933,-598.802,0,0
270845.45,264.805,-600.395,0,0
271105.775,265.697,-602.386,0,0
271366.1,266.435,-604.649,0,0
271626.425,267.176,-607.09,0,0
271886.75,267.981,-609.792,0,0
272147.075,268.945,-612.927,0,0
272407.4,269.943,-616.861,0,0
272667.725,270.555,-621.717,0,0
272928.05,270.357,-627.517,0,0
273188.375,268.797,-633.8,0,0
273448.7,266.023,-639.946,0,0
273709.025,262.314,-645.766,0,0
273969.35,257.794,-651.376,0,0
274229.675,252.273,-656.532,0,0
274490.0,245.865,-661.019,0,0
274750.325,238.781,-664.574,0,0
275010.65,231.225,-667.109,0,0
275270.975,223.595,-668.84,0,0
275531.3,215.859,-669.641,0,0
275791.625,208.063,-669.604,0,0
276051.95,200.358,-668.662,0,0
276312.275,192.992,-667.029,0,0
276572.6,185.957,-664.544,0,0
276832.925,179.448,-661.562,0,0
277093.25,173.405,-658.141,0,0
277353.575,167.764,-654.333,0,0
277613.9,162.525,-650.142,0,0
277874.225,157.795,-645.575,0,0
278134.55,153.644,-640.681,0,0
278394.875,150.155,-635.588,0,0
278655.2,147.335,-630.459,0,0
278915.525,145.132,-625.484,0,0
279175.85,143.382,-620.709,0,0
279436.175,141.977,-616.251,0,0
279696.5,140.764,-611.942,0,0
279956.825,139.807,-607.711,0,0
280217.15,139.188,-603.639,0,0
280477.475,138.78,-599.818,0,0
280737.8,138.58,-596.208,0,0
280998.125,138.533,-592.89,0,0
281258.45,138.581,-589.83,0,0
281518.775,138.621,-587.069,0,0
281779.1,138.549,-584.566,0,0
282039.425,138.301,-582.164,0,0
282299.75,137.908,-579.782,0,0
282560,137.431,-577.318,0,0
282820,136.895,-574.801,0,0
283081,136.341,-572.184,0,0
283341,135.834,-569.421,0,0
283601,135.42,-566.543,0,0
283862,135.139,-563.602,0,0
284122,135.007,-560.553,0,0
284382,135.054,-557.365,0,0
284643,135.403,-554.245,0,0
284903,136.003,-551.131,0,0
285163,136.791,-548.196,0,0
285424,137.832,-545.367,0,0
285684,138.996,-542.793,0,0
285944,140.295,-540.419,0,0
286205,141.582,-538.306,0,0
286465,142.895,-536.371,0,0
286725,144.149,-534.578,0,0
286986,145.368,-532.997,0,0
287246,146.516,-531.557,0,0
287506,147.499,-530.229,0,0
287767,148.347,-528.924,0,0
288027,149.053,-527.624,0,0
288287,149.654,-526.265,0,0
288548,150.167,-524.802,0,0
288808,150.661,-523.195,0,0
289068,151.234,-521.426,0,0
289329,151.948,-519.55,0,0
289589,152.863,-517.654,0,0
289849,153.872,-515.864,0,0
290109,154.951,-514.111,0,0
290370,156.106,-512.4,0,0
290630,157.317,-510.7,0,0
290890,158.653,-509.01,0,0
291151,160.143,-507.413,0,0
291411,161.702,-505.961,0,0
291671,163.3,-504.677,0,0
291932,164.846,-503.498,0,0
292192,166.319,-502.331,0,0
292452,167.824,-501.191,0,0
292713,169.386,-500.041,0,0
292973,171.007,-498.969,0,0
293233,172.652,-497.996,0,0
293494,174.315,-497.094,0,0
293754,175.902,-496.244,0,0
294014,177.498,-495.392,0,0
294275,179.106,-494.523,0,0
294535,180.769,-493.658,0,0
294795,182.476,-492.824,0,0
295056,184.229,-491.971,0,0
295316,186.067,-491.157,0,0
295576,187.982,-490.312,0,0
295837,190.025,-489.466,0,0
296097,192.234,-488.729,0,0
296357,194.547,-488.113,0,0
296618,196.969,-487.584,0,0
296878,199.499,-487.175,0,0
297138,202.148,-486.925,0,0
297399,204.875,-486.876,0,0
297659,207.657,-486.991,0,0
297919,210.478,-487.306,0,0
298180,213.323,-487.802,0,0
298440,216.167,-488.493,0,0
298700.2,218.952,-489.401,0,0
298960.525,221.667,-490.503,0,0
299220.85,224.341,-491.648,0,0
299481.175,226.948,-492.814,0,0
299741.5,229.671,-494.064,0,0
300001.825,232.382,-495.538,0,0
300262.15,235.195,-497.16,0,0
300522.475,238.03,-498.976,0,0
300782.8,240.981,-500.917,0,0
301043.125,244.016,-503.199,0,0
301303.45,247.109,-505.901,0,0
301563.775,250.178,-508.847,0,0
301824.1,253.145,-512.31,0,0
302084.425,256.189,-516.19,0,0
302344.75,259.097,-520.698,0,0
302605.075,261.6,-525.907,0,0
302865.4,263.424,-531.775,0,0
303125.725,264.424,-538.102,0,0
303386.05,264.43,-544.582,0,0
303646.375,263.482,-550.948,0,0
303906.7,261.716,-556.91,0,0
304167.025,259.409,-562.357,0,0
304427.35,256.726,-567.336,0,0
304687.675,253.829,-571.862,0,0
304948.0,250.748,-576.088,0,0
305208.325,247.493,-580.105,0,0
305468.65,243.985,-583.746,0,0
305728.975,240.31,-587.073,0,0
305989.3,236.492,-590.129,0,0
306249.625,232.61,-592.91,0,0
306509.95,228.569,-595.459,0,0
306770.275,224.343,-597.687,0,0
307030.6,220.014,-599.543,0,0
307290.925,215.645,-601.017,0,0
307551.25,211.353,-602.145,0,0
307811.575,207.116,-602.972,0,0
308071.9,202.966,-603.554,0,0
308332.225,198.88,-603.915,0,0
308592.55,194.877,-604.051,0,0
308852.875,190.947,-603.939,0,0
309113.2,187.144,-603.609,0,0
309373.525,183.494,-603.073,0,0
309633.85,180.001,-602.366,0,0
309894.175,176.615,-601.509,0,0
310154.5,173.444,-600.596,0,0
310414.825,170.392,-599.495,0,0
310675.15,167.5,-598.36,0,0
310935.475,164.744,-597.148,0,0
311195.8,162.124,-595.9,0,0
311456.125,159.616,-594.582,0,0
311716.45,157.241,-593.223,0,0
311976.775,155.002,-591.816,0,0
312237.1,152.893,-590.426,0,0
312497.425,150.932,-589.072,0,0
312757.75,149.023,-587.766,0,0
313018.075,147.127,-586.502,0,0
313278.4,145.254,-585.214,0,0
313538.725,143.403,-583.9,0,0
313799.05,141.609,-582.54,0,0
314059.375,139.84,-581.157,0,0
314319.7,138.085,-579.747,0,0
314580,136.399,-578.232,0,0
314840,134.757,-576.659,0,0
315101,133.253,-575.014,0,0
315361,131.807,-573.31,0,0
315621,130.525,-571.611,0,0
315882,129.368,-569.886,0,0
316142,128.338,-568.176,0,0
316402,127.427,-566.497,0,0
316663,126.597,-564.923,0,0
316923,125.835,-563.369,0,0
317183,125.181,-561.895,0,0
317444,124.554,-560.487,0,0
317704,123.966,-559.153,0,0
317964,123.396,-557.891,0,0
318225,122.804,-556.691,0,0
318485,122.219,-555.479,0,0
318745,121.588,-554.297,0,0
319006,121.032,-553.072,0,0
319266,120.468,-551.844,0,0
319526,119.992,-550.568,0,0
319787,119.605,-549.356,0,0
320047,119.299,-548.208,0,0
320307,119.069,-547.106,0,0
320567,118.872,-546.113,0,0
320828,118.674,-545.226,0,0
321088,118.444,-544.43,0,0
321348,118.176,-543.697,0,0
321609,117.866,-542.995,0,0
321869,117.511,-542.31,0,0
322129,117.133,-541.635,0,0
322390,116.762,-540.98,0,0
322650,116.38,-540.371,0,0
322910,115.948,-539.786,0,0
323171,115.469,-539.217,0,0
323431,114.952,-538.626,0,0
323691,114.413,-538.016,0,0
323952,113.871,-537.388,0,0
324212,113.317,-536.755,0,0
324472,112.781,-536.098,0,0
324733,112.232,-535.458,0,0
324993,111.688,-534.811,0,0
325253,111.129,-534.14,0,0
325514,110.601,-533.463,0,0
325774,110.073,-532.79,0,0
326034,109.575,-532.098,0,0
326295,109.117,-531.435,0,0
326555,108.671,-530.817,0,0
326815,108.222,-530.228,0,0
327076,107.738,-529.696,0,0
327336,107.255,-529.158,0,0
327596,106.718,-528.637,0,0
327857,106.172,-528.127,0,0
328117,105.621,-527.621,0,0
328377,105.045,-527.135,0,0
328638,104.402,-526.662,0,0
328898,103.715,-526.153,0,0
329158,102.997,-525.582,0,0
329419,102.33,-524.963,0,0
329679,101.666,-524.365,0,0
329939,101.024,-523.75,0,0
330200,100.389,-523.144,0,0
330460,99.7357,-522.552,0,0
330720.15,99.0933,-521.948,0,0
330980.475,98.4442,-521.392,0,0
331240.8,97.778,-520.798,0,0
331501.125,97.092,-520.282,0,0
331761.45,96.4401,-519.726,0,0
332021.775,95.7261,-519.264,0,0
332282.1,94.9367,-518.84,0,0
332542.425,94.0644,-518.263,0,0
332802.75,93.1953,-517.74,0,0
333063.075,92.2495,-517.155,0,0
333323.4,91.3082,-516.475,0,0
333583.725,90.2682,-515.729,0,0
333844.05,89.2107,-515.031,0,0
334104.375,88.2236,-514.221,0,0
334364.7,87.2167,-513.328,0,0
334625.025,86.1991,-512.35,0,0
334885.35,85.2728,-511.438,0,0
335145.675,84.2889,-510.455,0,0
335406.0,83.4741,-509.393,0,0
335666.325,82.6053,-508.28,0,0
335926.65,81.7734,-507.211,0,0
336186.975,80.9081,-506.122,0,0
336447.3,80.0108,-504.932,0,0
336707.625,79.2434,-503.782,0,0
336967.95,78.4307,-502.63,0,0
337228.275,77.6181,-501.299,0,0
337488.6,76.9189,-499.993,0,0
337748.925,76.2427,-498.665,0,0
338009.25,75.6075,-497.352,0,0
338269.575,75.0525,-495.988,0,0
338529.9,74.4844,-494.596,0,0
338790.225,74.0414,-493.273,0,0
339050.55,73.6356,-491.945,0,0
339310.875,73.155,-490.65,0,0
339571.2,72.8463,-489.32,0,0
339831.525,72.453,-488.047,0,0
340091.85,72.0859,-486.752,0,0
340352.175,71.6843,-485.487,0,0
340612.5,71.3994,-484.194,0,0
340872.825,71.1131,-482.883,0,0
341133.15,70.8316,-481.533,0,0
341393.475,70.5614,-480.238,0,0
341653.8,70.3709,-478.972,0,0
341914.125,70.1559,-477.62,0,0
342174.45,70.0313,-476.245,0,0
342434.775,69.9128,-474.982,0,0
342695.1,69.8919,-473.66,0,0
342955.425,69.8132,-472.387,0,0
343215.75,69.7985,-471.166,0,0
343476.075,69.7668,-469.902,0,0
343736.4,69.8475,-468.644,0,0
343996.725,69.8873,-467.44,0,0
344257.05,69.9919,-466.247,0,0
344517.375,70.1851,-465.111,0,0
344777.7,70.3246,-463.974,0,0
345038.025,70.521,-462.911,0,0
345298.35,70.6908,-461.871,0,0
345558.675,70.8961,-460.884,0,0
345819.0,71.0781,-459.959,0,0
346079.325,71.2982,-459.038,0,0
346339.65,71.4708,-458.186,0,0
346599.975,71.5714,-457.355,0,0
346860,71.6954,-456.512,0,0
347121,71.7677,-455.72,0,0
347381,71.8804,-454.98,0,0
347641,71.9039,-454.187,0,0
347902,71.9283,-453.412,0,0
348162,71.8824,-452.703,0,0
348422,71.798,-451.914,0,0
348683,71.6695,-451.055,0,0
348943,71.5384,-450.277,0,0
349203,71.4588,-449.364,0,0
349464,71.3045,-448.449,0,0
349724,71.1888,-447.522,0,0
349984,71.1673,-446.526,0,0
350245,71.0767,-445.559,0,0
350505,71.083,-444.547,0,0
350765,71.0109,-443.582,0,0
351025,70.9786,-442.508,0,0
351286,70.9663,-441.453,0,0
351546,71.0002,-440.391,0,0
351806,71.0897,-439.278,0,0
352067,71.2069,-438.176,0,0
352327,71.3915,-437.059,0,0
352587,71.6495,-435.946,0,0
352848,71.9658,-434.845,0,0
353108,72.2685,-433.826,0,0
353368,72.6863,-432.834,0,0
353629,73.1108,-431.925,0,0
353889,73.5232,-430.965,0,0
354149,74.0118,-430.173,0,0
354410,74.483,-429.43,0,0
354670,74.9224,-428.691,0,0
354930,75.3232,-428.038,0,0
355191,75.738,-427.485,0,0
355451,76.1195,-426.869,0,0
355711,76.4365,-426.319,0,0
355972,76.7734,-425.838,0,0
356232,77.0001,-425.423,0,0
356492,77.2023,-424.991,0,0
356753,77.4061,-424.565,0,0
357013,77.3968,-424.134,0,0
357273,77.4127,-423.642,0,0
357534,77.3711,-423.123,0,0
357794,77.2988,-422.637,0,0
358054,77.1906,-422.069,0,0
358315,77.0477,-421.434,0,0
358575,76.8559,-420.719,0,0
358835,76.6436,-419.963,0,0
359096,76.4874,-419.092,0,0
359356,76.3869,-418.175,0,0
359616,76.3389,-417.263,0,0
359877,76.329,-416.2,0,0
360137,76.3542,-415.178,0,0
360397,76.5165,-414.142,0,0
360658,76.6628,-413.107,0,0
360918,76.872,-412.033,0,0
361178,77.1665,-410.991,0,0
361438,77.5161,-409.982,0,0
361699,77.9001,-409.045,0,0
361959,78.3221,-408.041,0,0
362219,78.7468,-407.14,0,0
362480,79.2016,-406.317,0,0
362740.1,79.6905,-405.421,0,0
363000.425,80.2206,-404.582,0,0
363260.75,80.7488,-403.828,0,0
363521.075,81.3051,-403.094,0,0
363781.4,81.7886,-402.387,0,0
364041.725,82.375,-401.673,0,0
364302.05,82.8785,-401.048,0,0
364562.375,83.4469,-400.434,0,0
364822.7,83.966,-399.79,0,0
365083.025,84.5488,-399.249,0,0
365343.35,85.1011,-398.69,0,0
365603.675,85.6595,-398.178,0,0
365864.0,86.2284,-397.72,0,0
366124.325,86.7787,-397.315,0,0
366384.65,87.2799,-396.914,0,0
366644.975,87.7393,-396.544,0,0
366905.3,88.1566,-396.185,0,0
367165.625,88.5316,-395.862,0,0
367425.95,88.9625,-395.478,0,0
367686.275,89.3148,-395.071,0,0
367946.6,89.7157,-394.703,0,0
368206.925,90.0912,-394.3,0,0
368467.25,90.5508,-393.947,0,0
368727.575,91.0065,-393.63,0,0
368987.9,91.4367,-393.326,0,0
369248.225,91.8516,-393.149,0,0
369508.55,92.2485,-392.95,0,0
369768.875,92.6054,-392.865,0,0
370029.2,92.8904,-392.783,0,0
370289.525,93.0834,-392.742,0,0
370549.85,93.1831,-392.687,0,0
370810.175,93.1531,-392.661,0,0
371070.5,93.0835,-392.556,0,0
371330.825,92.9236,-392.387,0,0
371591.15,92.7284,-392.094,0,0
371851.475,92.4497,-391.74,0,0
372111.8,92.1793,-391.275,0,0
372372.125,91.9629,-390.707,0,0
372632.45,91.8025,-390.033,0,0
372892.775,91.6822,-389.322,0,0
373153.1,91.6584,-388.596,0,0
373413.425,91.6739,-387.824,0,0
373673.75,91.7451,-387.075,0,0
373934.075,91.8425,-386.363,0,0
374194.4,91.9971,-385.627,0,0
374454.725,92.2019,-384.855,0,0
374715.05,92.4464,-384.155,0,0
374975.375,92.6582,-383.437,0,0
375235.7,92.8896,-382.783,0,0
375496.025,93.1273,-382.148,0,0
375756.35,93.3756,-381.434,0,0
376016.675,93.6518,-380.735,0,0
376277.0,93.9428,-380.086,0,0
376537.325,94.26,-379.419,0,0
376797.65,94.553,-378.746,0,0
377057.975,94.8841,-378.121,0,0
377318.3,95.2236,-377.498,0,0
377578.625,95.5026,-376.864,0,0
377838.95,95.7746,-376.219,0,0
378099.275,96.0809,-375.543,0,0
378359.6,96.4115,-374.867,0,0
378619.925,96.7867,-374.136,0,0
378880,97.1446,-373.417,0,0
379141,97.5367,-372.645,0,0
379401,98.0346,-371.98,0,0
379661,98.5547,-371.263,0,0
379922,99.0468,-370.594,0,0
380182,99.6039,-369.958,0,0
380442,100.187,-369.357,0,0
380703,100.733,-368.784,0,0
380963,101.307,-368.213,0,0
381223,101.876,-367.719,0,0
381483,102.433,-367.196,0,0
381744,102.98,-366.641,0,0
382004,103.565,-366.152,0,0
382264,104.14,-365.588,0,0
382525,104.765,-365.072,0,0
382785,105.385,-364.599,0,0
383045,106.013,-364.146,0,0
383306,106.64,-363.73,0,0
383566,107.276,-363.306,0,0
383826,107.914,-362.943,0,0
384087,108.523,-362.595,0,0
384347,109.091,-362.209,0,0
384607,109.68,-361.879,0,0
384868,110.271,-361.522,0,0
385128,110.877,-361.207,0,0
385388,111.454,-360.895,0,0
385649,112.015,-360.598,0,0
385909,112.549,-360.302,0,0
386169,113.043,-360.014,0,0
386430,113.504,-359.718,0,0
386690,113.98,-359.3,0,0
386950,114.455,-358.901,0,0
387211,114.969,-358.466,0,0
387471,115.582,-357.984,0,0
387731,116.148,-357.565,0,0
387992,116.789,-357.09,0,0
388252,117.399,-356.713,0,0
388512,118.062,-356.279,0,0
388773,118.74,-355.88,0,0
389033,119.429,-355.414,0,0
389293,120.182,-354.96,0,0
389554,121.007,-354.546,0,0
389814,121.842,-354.147,0,0
390074,122.731,-353.834,0,0
390335,123.626,-353.57,0,0
390595,124.468,-353.38,0,0
390855,125.355,-353.202,0,0
391116,126.189,-353.008,0,0
391376,127.03,-352.864,0,0
391636,127.865,-352.722,0,0
391896,128.66,-352.632,0,0
392157,129.473,-352.503,0,0
392417,130.23,-352.374,0,0
392677,131.069,-352.186,0,0
392938,131.796,-351.993,0,0
393198,132.658,-351.81,0,0
393458,133.545,-351.606,0,0
393719,134.513,-351.414,0,0
393979,135.445,-351.278,0,0
394239,136.493,-351.113,0,0
394500,137.527,-351.014,0,0
394760.05,138.592,-350.902,0,0
395020.375,139.711,-350.834,0,0
395280.7,140.92,-350.82,0,0
395541.025,142.15,-350.798,0,0
395801.35,143.442,-350.903,0,0
396061.675,144.792,-351.051,0,0
396322.0,146.104,-351.283,0,0
396582.325,147.445,-351.578,0,0
396842.65,148.851,-351.9,0,0
397102.975,150.292,-352.302,0,0
397363.3,151.812,-352.802,0,0
397623.625,153.384,-353.447,0,0
397883.95,154.977,-354.251,0,0
398144.275,156.529,-355.235,0,0
398404.6,158.041,-356.386,0,0
398664.925,159.473,-357.707,0,0
398925.25,160.824,-359.134,0,0
399185.575,162.082,-360.76,0,0
399445.9,163.175,-362.477,0,0
399706.225,164.118,-364.329,0,0
399966.55,164.923,-366.307,0,0
400006.6,165.033,-366.583,0,0