File: Accelerated corrosion test data/2025-10-03_06-00-02/sample_2.csv
Frequency (Hz),Impedance (ohms),Phase (Radians),Temperature (C),Humidity (%)
10000.0,226.18,-11387.8,0,0
10260.325,221.028,-11101.1,0,0
10520.65,215.412,-10828.5,0,0
10780.975,210.794,-10568.5,0,0
11041.3,205.716,-10322.1,0,0
11301.625,201.619,-10085.2,0,0
11561.95,198.027,-9859.02,0,0
11822.275,195.01,-9647.55,0,0
12082.6,192.351,-9442.19,0,0
12342.925,185.545,-9244.98,0,0
12603.25,181.705,-9054.3,0,0
12863.575,178.21,-8871.25,0,0
13123.9,176.775,-8699.29,0,0
13384.225,172.171,-8528.34,0,0
13644.55,169.549,-8364.01,0,0
13904.875,184.686,-8211.46,0,0
14165.2,163.162,-8066.76,0,0
14425.525,159.628,-7918.14,0,0
14685.8,162.527,-7772.31,0,0
14946.175,160.016,-7645.49,0,0
15206.5,164.942,-7522.39,0,0
15466.825,162.173,-7387.48,0,0
15727.15,150.473,-7276.26,0,0
15987.5,146.678,-7155.05,0,0
16247.8,146.544,-7040.48,0,0
16508.125,142.184,-6931.57,0,0
16768.45,139.768,-6823.87,0,0
17028.775,138.525,-6720.08,0,0
17289.1,136.749,-6619.87,0,0
17549.425,133.612,-6520.83,0,0
17809.75,131.993,-6425.74,0,0
18070.075,130.363,-6333.2,0,0
18330.4,128.279,-6242.7,0,0
18590.725,127.344,-6154.51,0,0
18851.05,126.127,-6069.14,0,0
19111.375,128.102,-5987.67,0,0
19371.7,127.736,-5910.12,0,0
19632.025,122.459,-5832.75,0,0
19892.35,119.925,-5755.14,0,0
20152.675,118.013,-5679.7,0,0
20413.0,117.564,-5605.98,0,0
20673.3,116.509,-5533.64,0,0
20933.65,117.444,-5462.19,0,0
21193.975,122.057,-5395.44,0,0
21454.3,129.073,-5331.58,0,0
21714.625,127.774,-5276.45,0,0
21974.9,121.46,-5213.12,0,0
22235.275,118.572,-5159.73,0,0
22495.6,114.173,-5099.1,0,0
22755.925,111.039,-5038.25,0,0
23016.25,111.535,-4983.16,0,0
23276.6,112.033,-4926.92,0,0
23536.9,108.037,-4874.13,0,0
23797.225,106.673,-4819.31,0,0
24057.55,106.298,-4768.97,0,0
24317.875,102.33,-4718.96,0,0
24578.2,100.544,-4667.17,0,0
24838.525,99.3288,-4617.82,0,0
25098.85,98.2192,-4568.68,0,0
25359.175,97.7099,-4521.58,0,0
25619.5,96.7509,-4475.97,0,0
25879.8,95.5267,-4429.38,0,0
26140.1,96.3199,-4384.66,0,0
26400.5,95.3344,-4341.78,0,0
26660.8,95.7755,-4300.04,0,0
26921.1,94.7012,-4257.74,0,0
27181.4,93.3823,-4218.25,0,0
27441.8,92.0398,-4178.33,0,0
27702.1,90.5775,-4137.93,0,0
27962.4,89.2144,-4097.81,0,0
28222.7,89.396,-4059.28,0,0
28483.1,89.3891,-4021.72,0,0
28743.4,88.246,-3985.02,0,0
29003.7,89.9995,-3946.81,0,0
29264,90.5705,-3912.59,0,0
29524.4,93.1118,-3876.25,0,0
29784.7,96.7014,-3847.87,0,0
30045,92.9444,-3815.7,0,0
30305.3,93.5436,-3783.18,0,0
30565.7,90.6801,-3755.89,0,0
30826,87.1269,-3722.44,0,0
31086.3,86.6272,-3690.81,0,0
31346.6,84.8522,-3659.96,0,0
31607,84.7644,-3628.64,0,0
31867.3,83.0212,-3599.82,0,0
32127.6,81.7305,-3569.58,0,0
32387.9,81.6698,-3539.14,0,0
32648.3,83.8261,-3511.13,0,0
32908.6,83.2623,-3485.7,0,0
33168.9,81.3143,-3458.83,0,0
33429.2,79.4404,-3431.45,0,0
33689.6,79.3655,-3404.76,0,0
33949.9,78.5721,-3378.97,0,0
34210.2,76.7486,-3352.86,0,0
34470.5,75.9958,-3326.64,0,0
34730.9,75.4817,-3301.21,0,0
34991.2,74.8076,-3276.04,0,0
35251.5,74.561,-3251.89,0,0
35511.8,73.8448,-3227.74,0,0
35772.2,73.2945,-3203.48,0,0
36032.5,72.8375,-3180.21,0,0
36292.8,72.3367,-3156.9,0,0
36553.1,71.9403,-3133.84,0,0
36813.5,71.4098,-3111.47,0,0
37073.8,70.9921,-3089.01,0,0
37334.1,70.7686,-3067.14,0,0
37594.4,70.441,-3045.81,0,0
37854.8,70.2421,-3024.38,0,0
38115.1,69.8842,-3003.95,0,0
38375.4,69.0219,-2983.07,0,0
38635.7,68.5519,-2962.59,0,0
38896.1,68.3813,-2942.22,0,0
39156.4,67.9528,-2922.54,0,0
39416.7,67.7064,-2902.76,0,0
39677,67.1076,-2883.27,0,0
39937.4,66.7882,-2864.34,0,0
40197.7,66.5285,-2845.31,0,0
40458,66.0002,-2826.27,0,0
40718.3,65.6896,-2807.59,0,0
40978.7,65.926,-2789.5,0,0
41239,65.493,-2771.38,0,0
41499.3,65.4014,-2753.82,0,0
41759.6,65.0976,-2736.36,0,0
42020,65.0247,-2718.98,0,0
42280.275,64.9093,-2702.19,0,0
42540.6,64.2853,-2685.21,0,0
42800.925,63.9969,-2668.64,0,0
43061.25,63.6074,-2651.89,0,0
43321.575,63.5809,-2635.71,0,0
43581.9,63.1889,-2619.64,0,0
43842.225,62.8572,-2603.44,0,0
44102.55,62.9902,-2587.87,0,0
44362.875,62.7784,-2572.42,0,0
44623.2,62.4568,-2557.14,0,0
44883.525,61.7368,-2541.81,0,0
45143.85,61.8059,-2526.44,0,0
45404.175,61.7263,-2511.51,0,0
45664.5,61.5196,-2497.07,0,0
45924.825,61.4833,-2481.99,0,0
46185.15,61.589,-2467.97,0,0
46445.475,61.2695,-2454.26,0,0
46705.8,60.853,-2439.73,0,0
46966.125,60.5483,-2425.7,0,0
47226.45,60.7008,-2411.68,0,0
47486.775,60.8555,-2398.12,0,0
47747.1,60.7147,-2385.06,0,0
48007.425,60.3099,-2371.52,0,0
48267.75,60.6365,-2358.02,0,0
48528.075,61.2477,-2345.77,0,0
48788.4,60.8842,-2333.62,0,0
49048.725,60.6242,-2321.17,0,0
49309.05,59.9665,-2309.17,0,0
49569.375,58.8532,-2296.71,0,0
49829.7,58.6422,-2283.97,0,0
50090.025,58.2707,-2271.82,0,0
50350.35,57.8003,-2259.37,0,0
50610.675,57.5856,-2247.1,0,0
50871.0,57.6947,-2235.15,0,0
51131.325,57.3784,-2223.52,0,0
51391.65,57.1815,-2212.31,0,0
51651.975,56.683,-2200.51,0,0
51912.3,56.3198,-2189.31,0,0
52172.625,55.5863,-2177.59,0,0
52432.95,55.4267,-2166.2,0,0
52693.275,55.1984,-2154.78,0,0
52953.6,54.9729,-2143.63,0,0
53213.925,54.7985,-2132.43,0,0
53474.25,54.7476,-2121.53,0,0
53734.575,54.5118,-2110.68,0,0
53994.9,54.2122,-2099.85,0,0
54255.225,54.1353,-2089.09,0,0
54515.55,54.2837,-2078.46,0,0
54775.875,54.1312,-2068.13,0,0
55036.2,54.0206,-2057.78,0,0
55296.525,53.9258,-2047.4,0,0
55556.85,53.8777,-2037.23,0,0
55817.175,53.91,-2027.25,0,0
56077.5,53.7774,-2017.27,0,0
56337.825,53.756,-2007.28,0,0
56598.15,53.6932,-1997.38,0,0
56858.475,53.8264,-1987.65,0,0
57118.8,53.8479,-1978.01,0,0
57379.125,53.8628,-1968.56,0,0
57639.45,53.7874,-1958.97,0,0
57899.775,53.9696,-1949.49,0,0
58160.1,54.1353,-1940.56,0,0
58420.4,53.9079,-1931.34,0,0
58680.7,54.0207,-1922.03,0,0
58941.1,54.1613,-1912.89,0,0
59201.4,54.331,-1903.88,0,0
59461.7,54.4699,-1894.86,0,0
59722,54.832,-1885.92,0,0
59982.4,55.385,-1877.03,0,0
60242.7,56.0573,-1868.85,0,0
60503,56.2017,-1860.94,0,0
60763.3,55.9873,-1852.45,0,0
61023.7,56.2546,-1843.9,0,0
61284,57.1159,-1835.43,0,0
61544.3,58.2139,-1827.72,0,0
61804.6,58.9318,-1820.81,0,0
62065,58.9067,-1814.26,0,0
62325.3,57.9807,-1807.29,0,0
62585.6,57.3253,-1799.47,0,0
62845.9,57.3286,-1791.79,0,0
63106.3,56.9177,-1785.03,0,0
63366.6,55.9685,-1777.62,0,0
63626.9,55.2373,-1770.21,0,0
63887.2,54.6174,-1762.31,0,0
64147.6,54.2183,-1754.82,0,0
64407.9,53.3352,-1747.59,0,0
64668.2,52.8509,-1739.71,0,0
64928.5,52.501,-1732.29,0,0
65188.9,51.5635,-1724.86,0,0
65449.2,50.6884,-1716.88,0,0
65709.5,50.6413,-1708.6,0,0
65969.8,50.656,-1700.94,0,0
66230.2,50.8008,-1693.36,0,0
66490.5,50.7841,-1685.7,0,0
66750.8,50.9964,-1678.47,0,0
67011.1,50.8557,-1671.11,0,0
67271.5,51.1134,-1663.51,0,0
67531.8,51.7306,-1656.37,0,0
67792.1,52.3863,-1649.34,0,0
68052.4,53.1985,-1642.83,0,0
68312.8,53.2097,-1636.55,0,0
68573.1,53.3324,-1629.85,0,0
68833.4,53.8637,-1623.2,0,0
69093.7,54.4365,-1617.07,0,0
69354.1,54.593,-1610.98,0,0
69614.4,55.0247,-1604.6,0,0
69874.7,55.7385,-1599.18,0,0
70135,55.6951,-1594.09,0,0
70395.4,55.1986,-1588.79,0,0
70655.7,54.32,-1583.54,0,0
70916,53.0606,-1577.36,0,0
71176.3,52.7449,-1571.2,0,0
71436.7,52.2369,-1565.71,0,0
71697,51.1789,-1560.02,0,0
71957.3,49.9793,-1554.14,0,0
72217.6,48.7301,-1547.61,0,0
72478,47.8545,-1541.14,0,0
72738.3,47.1078,-1534.42,0,0
72998.6,46.5263,-1527.94,0,0
73258.9,46.1561,-1521.5,0,0
73519.3,45.4554,-1514.92,0,0
73779.6,45.1787,-1508.18,0,0
74039.9,45.103,-1501.65,0,0
74300.225,45.019,-1495.18,0,0
74560.55,45.0807,-1488.81,0,0
74820.875,45.1434,-1482.54,0,0
75081.2,45.1574,-1476.2,0,0
75341.525,45.3812,-1469.95,0,0
75601.85,45.6415,-1463.82,0,0
75862.175,45.9984,-1457.74,0,0
76122.5,46.4531,-1451.72,0,0
76382.825,46.8958,-1445.94,0,0
76643.15,47.2943,-1440.26,0,0
76903.475,47.7165,-1434.44,0,0
77163.8,48.2349,-1428.79,0,0
77424.125,48.8971,-1423.2,0,0
77684.45,49.5463,-1417.84,0,0
77944.775,50.2346,-1412.51,0,0
78205.1,51.0624,-1407.44,0,0
78465.425,51.7954,-1402.64,0,0
78725.75,52.3059,-1397.98,0,0
78986.075,52.8784,-1393.47,0,0
79246.4,53.0828,-1389.26,0,0
79506.725,53.1238,-1384.84,0,0
79767.05,53.2309,-1380.69,0,0
80027.375,52.7457,-1376.58,0,0
80287.7,51.9388,-1372.18,0,0
80548.025,51.1247,-1367.42,0,0
80808.35,50.4568,-1362.4,0,0
81068.675,49.9814,-1357.37,0,0
81329.0,49.5308,-1352.34,0,0
81589.325,49.2403,-1347.32,0,0
81849.65,48.8285,-1342.3,0,0
82109.975,48.5474,-1337.12,0,0
82370.3,48.3158,-1332.14,0,0
82630.625,48.0779,-1326.93,0,0
82890.95,48.0093,-1321.77,0,0
83151.275,47.9268,-1316.67,0,0
83411.6,48.0614,-1311.54,0,0
83671.925,48.2405,-1306.57,0,0
83932.25,48.453,-1301.7,0,0
84192.575,48.717,-1296.96,0,0
84452.9,48.8631,-1292.34,0,0
84713.225,48.9379,-1287.73,0,0
84973.55,48.9979,-1283.03,0,0
85233.875,49.1528,-1278.33,0,0
85494.2,49.3876,-1273.61,0,0
85754.525,49.6564,-1269.13,0,0
86014.85,49.889,-1264.7,0,0
86275.175,50.0374,-1260.33,0,0
86535.5,50.175,-1256.02,0,0
86795.825,50.1582,-1251.65,0,0
87056.15,50.3665,-1247.13,0,0
87316.475,50.7156,-1242.7,0,0
87576.8,51.0411,-1238.75,0,0
87837.125,50.8795,-1234.82,0,0
88097.45,50.6227,-1230.45,0,0
88357.775,50.8596,-1226.05,0,0
88618.1,51.0972,-1221.96,0,0
88878.425,50.7873,-1217.99,0,0
89138.75,50.6142,-1213.4,0,0
89399.075,50.9416,-1208.91,0,0
89659.4,51.146,-1204.63,0,0
89919.725,51.6119,-1200.48,0,0
90180,51.797,-1196.64,0,0
90440.4,51.8117,-1192.86,0,0
90700.7,51.2913,-1188.77,0,0
90961,51.2974,-1184,0,0
91221.3,51.9159,-1179.59,0,0
91481.7,52.3678,-1175.74,0,0
91742,52.6388,-1171.71,0,0
92002.3,52.858,-1167.7,0,0
92262.6,53.3127,-1163.37,0,0
92523,54.3121,-1159.57,0,0
92783.3,54.7312,-1156.09,0,0
93043.6,55.1932,-1152.48,0,0
93303.9,55.8121,-1149.15,0,0
93564.3,55.9568,-1146.08,0,0
93824.6,56.1427,-1142.79,0,0
94084.9,56.165,-1139.75,0,0
94345.2,55.5754,-1136.7,0,0
94605.6,54.8954,-1132.79,0,0
94865.9,54.9588,-1128.95,0,0
95126.2,54.9151,-1125.41,0,0
95386.5,54.4014,-1121.83,0,0
95646.9,53.9684,-1117.68,0,0
95907.2,54.1743,-1113.12,0,0
96167.5,55.1419,-1109.05,0,0
96427.8,56.0048,-1105.64,0,0
96688.2,56.6372,-1102.55,0,0
96948.5,56.9559,-1099.54,0,0
97208.8,57.1502,-1096.31,0,0
97469.1,57.6814,-1093.24,0,0
97729.5,57.9137,-1090.63,0,0
97989.8,57.8552,-1087.89,0,0
98250.1,57.6396,-1085.09,0,0
98510.4,57.4964,-1082.27,0,0
98770.8,57.2953,-1079.6,0,0
99031.1,56.8048,-1077.22,0,0
99291.4,55.7694,-1074.61,0,0
99551.7,54.5145,-1071.63,0,0
99812.1,53.1355,-1068.22,0,0
100072,52.0828,-1064.28,0,0
100333,51.4079,-1060.3,0,0
100593,51.2122,-1056.47,0,0
100853,50.9064,-1053.21,0,0
101114,50.1609,-1049.9,0,0
101374,49.2029,-1046.32,0,0
101634,48.2244,-1042.35,0,0
101895,47.4939,-1038.06,0,0
102155,47.3409,-1033.73,0,0
102415,47.3572,-1029.93,0,0
102676,46.9128,-1026.22,0,0
102936,46.5112,-1022.08,0,0
103196,46.2312,-1017.97,0,0
103457,46.0305,-1013.72,0,0
103717,46.0584,-1009.35,0,0
103977,46.3356,-1004.9,0,0
104238,46.9081,-1000.56,0,0
104498,47.7391,-996.435,0,0
104758,48.6738,-992.711,0,0
105019,49.3985,-989.116,0,0
105279,50.0856,-985.588,0,0
105539,50.8334,-981.893,0,0
105800,51.8814,-978.293,0,0
106060,53.0769,-975.088,0,0
106320.175,54.1776,-972.054,0,0
106580.5,55.3232,-969.246,0,0
106840.825,56.3647,-966.869,0,0
107101.15,56.9854,-964.788,0,0
107361.475,57.1893,-962.519,0,0
107621.8,57.5079,-960.128,0,0
107882.125,57.6377,-957.882,0,0
108142.45,57.4793,-955.741,0,0
108402.775,57.1237,-953.349,0,0
108663.1,56.694,-950.843,0,0
108923.425,56.2449,-948.342,0,0
109183.75,55.5298,-945.701,0,0
109444.075,54.7721,-942.767,0,0
109704.4,54.1669,-939.648,0,0
109964.725,53.5459,-936.465,0,0
110225.05,52.9111,-933.161,0,0
110485.375,52.3717,-929.737,0,0
110745.7,51.9549,-926.173,0,0
111006.025,51.7816,-922.574,0,0
111266.35,51.8077,-919.082,0,0
111526.675,51.6908,-915.57,0,0
111787.0,51.651,-912.19,0,0
112047.325,51.701,-908.665,0,0
112307.65,51.8117,-905.256,0,0
112567.975,51.8781,-901.867,0,0
112828.3,51.8752,-898.376,0,0
113088.625,52.076,-894.886,0,0
113348.95,52.3513,-891.402,0,0
113609.275,52.6382,-887.969,0,0
113869.6,53.0103,-884.503,0,0
114129.925,53.4751,-881.123,0,0
114390.25,54.005,-877.893,0,0
114650.575,54.408,-874.642,0,0
114910.9,54.8597,-871.375,0,0
115171.225,55.3091,-868.158,0,0
115431.55,55.8865,-864.918,0,0
115691.875,56.4663,-861.768,0,0
115952.2,56.9932,-858.65,0,0
116212.525,57.542,-855.469,0,0
116472.85,58.2227,-852.321,0,0
116733.175,59.0244,-849.243,0,0
116993.5,59.8159,-846.328,0,0
117253.825,60.5415,-843.491,0,0
117514.15,61.2442,-840.611,0,0
117774.475,62.0249,-837.765,0,0
118034.8,62.8569,-835.041,0,0
118295.125,63.6399,-832.461,0,0
118555.45,64.3,-829.82,0,0
118815.775,65.0625,-827.097,0,0
119076.1,65.9276,-824.617,0,0
119336.425,66.6819,-822.187,0,0
119596.75,67.542,-819.784,0,0
119857.075,68.4765,-817.735,0,0
120117.4,68.9781,-815.842,0,0
120377.725,69.4254,-813.897,0,0
120638.05,69.6774,-811.938,0,0
120898.375,69.7912,-810.138,0,0
121158.7,69.5169,-808.054,0,0
121419.025,69.2902,-805.674,0,0
121679.35,69.206,-803.215,0,0
121939.675,69.1565,-800.774,0,0
122200.0,69.1208,-798.353,0,0
122460,69.0366,-795.864,0,0
122721,68.9067,-793.291,0,0
122981,68.8694,-790.627,0,0
123241,68.8937,-788.012,0,0
123502,68.9583,-785.401,0,0
123762,68.9665,-782.837,0,0
124022,68.9375,-780.245,0,0
124283,68.8506,-777.602,0,0
124543,68.799,-774.96,0,0
124803,68.7039,-772.232,0,0
125064,68.637,-769.421,0,0
125324,68.5684,-766.559,0,0
125584,68.5816,-763.686,0,0
125845,68.5765,-760.789,0,0
126105,68.5882,-757.799,0,0
126365,68.7345,-754.69,0,0
126626,68.9359,-751.688,0,0
126886,69.1976,-748.672,0,0
127146,69.5362,-745.611,0,0
127406,69.8797,-742.492,0,0
127667,70.3869,-739.336,0,0
127927,71.0952,-736.387,0,0
128187,71.7428,-733.564,0,0
128448,72.3524,-730.724,0,0
128708,72.9989,-727.934,0,0
128968,73.6644,-725.17,0,0
129229,74.3481,-722.524,0,0
129489,75.0522,-719.871,0,0
129749,75.7182,-717.299,0,0
130010,76.3718,-714.759,0,0
130270,77.0478,-712.228,0,0
130530,77.696,-709.827,0,0
130791,78.2981,-707.43,0,0
131051,78.8443,-705.075,0,0
131311,79.3584,-702.748,0,0
131572,79.7893,-700.396,0,0
131832,80.2044,-698.061,0,0
132092,80.5399,-695.755,0,0
132353,80.8019,-693.405,0,0
132613,81.0162,-691.033,0,0
132873,81.2022,-688.569,0,0
133134,81.3445,-686.001,0,0
133394,81.5632,-683.41,0,0
133654,81.8009,-680.761,0,0
133915,82.0266,-678.149,0,0
134175,82.2787,-675.535,0,0
134435,82.4405,-672.833,0,0
134696,82.6245,-670.04,0,0
134956,82.9825,-667.246,0,0
135216,83.3033,-664.507,0,0
135477,83.5426,-661.753,0,0
135737,83.8581,-658.858,0,0
135997,84.1366,-656.005,0,0
136258,84.4726,-653.051,0,0
136518,84.8755,-650.097,0,0
136778,85.288,-647.147,0,0
137039,85.7506,-644.118,0,0
137299,86.3446,-641.094,0,0
137559,87.0274,-638.225,0,0
137819,87.5343,-635.436,0,0
138080,87.9456,-632.559,0,0
138340.125,88.4067,-629.565,0,0
138600.45,88.8889,-626.563,0,0
138860.775,89.3569,-623.559,0,0
139121.1,89.7671,-620.471,0,0
139381.425,90.2425,-617.245,0,0
139641.75,90.768,-614.005,0,0
139902.075,91.2625,-610.708,0,0
140162.4,91.7318,-607.218,0,0
140422.725,92.3776,-603.564,0,0
140683.05,93.259,-599.772,0,0
140943.375,94.4017,-596.079,0,0
141203.7,95.5129,-592.535,0,0
141464.025,96.6571,-588.762,0,0
141724.35,98.1316,-584.914,0,0
141984.675,99.8094,-581.245,0,0
142245.0,101.628,-577.734,0,0
142505.325,103.413,-574.398,0,0
142765.65,105.195,-570.997,0,0
143025.975,107.252,-567.68,0,0
143286.3,109.239,-564.652,0,0
143546.625,111.075,-561.664,0,0
143806.95,112.879,-558.58,0,0
144067.275,114.743,-555.437,0,0
144327.6,116.706,-552.317,0,0
144587.925,118.725,-549.263,0,0
144848.25,120.724,-546.161,0,0
145108.575,122.819,-543.057,0,0
145368.9,125.013,-539.952,0,0
145629.225,127.258,-536.937,0,0
145889.55,129.499,-533.941,0,0
146149.875,131.72,-530.936,0,0
146410.2,134.002,-527.839,0,0
146670.525,136.391,-524.627,0,0
146930.85,138.933,-521.366,0,0
147191.175,141.687,-518.058,0,0
147451.5,144.676,-514.781,0,0
147711.825,147.837,-511.63,0,0
147972.15,151.134,-508.554,0,0
148232.475,154.537,-505.523,0,0
148492.8,158.089,-502.452,0,0
148753.125,161.913,-499.304,0,0
149013.45,166.174,-496.175,0,0
149273.775,171.039,-493.206,0,0
149534.1,176.447,-490.875,0,0
149794.425,181.909,-489.213,0,0
150054.75,187.37,-488.016,0,0
150315.075,192.804,-487.172,0,0
150575.4,198.401,-486.696,0,0
150835.725,204.123,-486.856,0,0
151096.05,209.731,-487.807,0,0
151356.375,214.816,-489.453,0,0
151616.7,219.297,-491.319,0,0
151877.025,223.628,-493.276,0,0
152137.35,227.791,-495.862,0,0
152397.675,231.227,-498.933,0,0
152658.0,233.935,-502.107,0,0
152918.325,236.046,-505.305,0,0
153178.65,237.505,-508.372,0,0
153438.975,238.543,-511.172,0,0
153699.3,239.194,-513.748,0,0
153959.625,239.574,-516.069,0,0
154219.95,239.658,-518.136,0,0
154480,239.555,-519.898,0,0
154741,239.385,-521.418,0,0
155001,239.143,-522.753,0,0
155261,238.735,-523.961,0,0
155522,238.325,-524.812,0,0
155782,237.898,-525.612,0,0
156042,237.315,-526.327,0,0
156303,236.77,-526.871,0,0
156563,236.185,-527.27,0,0
156823,235.588,-527.684,0,0
157084,234.745,-527.867,0,0
157344,233.991,-527.761,0,0
157604,233.321,-527.813,0,0
157864,232.207,-527.477,0,0
158125,231.528,-526.887,0,0
158385,230.796,-526.49,0,0
158645,229.862,-525.987,0,0
158906,228.808,-525.023,0,0
159166,228.003,-523.711,0,0
159426,227.44,-522.366,0,0
159687,226.8,-520.747,0,0
159947,226.654,-518.719,0,0
160207,227.12,-517.035,0,0
160468,227.548,-515.658,0,0
160728,227.997,-514.323,0,0
160988,228.414,-512.888,0,0
161249,229.086,-511.091,0,0
161509,230.605,-509.194,0,0
161769,232.975,-508.352,0,0
162030,235.167,-508.547,0,0
162290,236.97,-509.494,0,0
162550,238.172,-510.834,0,0
162811,238.985,-512.625,0,0
163071,239.135,-514.881,0,0
163331,237.714,-517.647,0,0
163592,235.132,-519.186,0,0
163852,232.62,-519.893,0,0
164112,230.078,-520.237,0,0
164373,227.332,-520.234,0,0
164633,224.23,-520.054,0,0
164893,220.856,-519.133,0,0
165154,217.818,-517.6,0,0
165414,214.864,-516.043,0,0
165674,211.403,-514.056,0,0
165935,207.861,-511.272,0,0
166195,204.866,-507.667,0,0
166455,202.598,-503.698,0,0
166716,200.969,-499.698,0,0
166976,199.513,-496.133,0,0
167236,198.143,-492.378,0,0
167497,196.828,-488.636,0,0
167757,195.697,-484.792,0,0
168017,194.419,-480.94,0,0
168277,193.197,-476.688,0,0
168538,192.23,-472.057,0,0
168798,191.821,-467.053,0,0
169058,192.093,-462.229,0,0
169319,192.698,-457.906,0,0
169579,192.978,-453.893,0,0
169839,193.158,-449.598,0,0
170100,193.555,-445.179,0,0
170360.075,194.462,-440.856,0,0
170620.4,195.183,-436.918,0,0
170880.725,195.417,-432.912,0,0
171141.05,195.755,-428.227,0,0
171401.375,196.429,-423.247,0,0
171661.7,197.654,-418.276,0,0
171922.025,199.144,-413.407,0,0
172182.35,200.808,-408.71,0,0
172442.675,202.486,-404.005,0,0
172703.0,204.272,-399.259,0,0
172963.325,206.364,-394.414,0,0
173223.65,208.685,-389.76,0,0
173483.975,211.082,-385.216,0,0
173744.3,213.547,-380.657,0,0
174004.625,216.031,-376.003,0,0
174264.95,218.77,-371.248,0,0
174525.275,221.753,-366.322,0,0
174785.6,225.181,-361.428,0,0
175045.925,229.232,-356.758,0,0
175306.25,233.406,-352.522,0,0
175566.575,237.622,-348.618,0,0
175826.9,241.823,-344.882,0,0
176087.225,246.062,-341.103,0,0
176347.55,250.599,-337.402,0,0
176607.875,255.27,-333.836,0,0
176868.2,260.125,-330.482,0,0
177128.525,265.379,-327.067,0,0
177388.85,271.329,-324.198,0,0
177649.175,277.679,-322.301,0,0
177909.5,283.795,-321.546,0,0
178169.825,289.087,-321.757,0,0
178430.15,292.97,-322.082,0,0
178690.475,295.666,-320.642,0,0
178950.8,299.855,-319.72,0,0
179211.125,303.941,-319.419,0,0
179471.45,307.59,-319.378,0,0
179731.775,310.783,-319.5,0,0
179992.1,313.443,-319.868,0,0
180252.425,315.306,-320.176,0,0
180512.75,316.327,-319.979,0,0
180773.075,316.849,-318.989,0,0
181033.4,317.114,-317.107,0,0
181293.725,317.529,-314.108,0,0
181554.05,318.575,-310.515,0,0
181814.375,320.135,-306.762,0,0
182074.7,321.974,-302.728,0,0
182335.025,324.023,-298.158,0,0
182595.35,326.725,-293.326,0,0
182855.675,330.043,-288.437,0,0
183116.0,333.778,-283.635,0,0
183376.325,337.819,-278.859,0,0
183636.65,342.269,-273.969,0,0
183896.975,347.227,-269.164,0,0
184157.3,352.488,-264.549,0,0
184417.625,357.963,-259.954,0,0
184677.95,363.924,-255.248,0,0
184938.275,370.494,-250.652,0,0
185198.6,377.675,-246.487,0,0
185458.925,385.064,-242.892,0,0
185719.25,392.676,-239.448,0,0
185979.575,400.757,-236.516,0,0
186239.9,409.007,-234.373,0,0
186500,416.992,-233.056,0,0
186761,424.163,-232.047,0,0
187021,430.731,-230.479,0,0
187281,437.336,-228.233,0,0
187542,444.864,-225.186,0,0
187802,453.743,-222.861,0,0
188062,463.071,-221.846,0,0
188322,471.479,-221.815,0,0
188583,478.974,-221.676,0,0
188843,486.531,-220.799,0,0
189103,494.463,-219.761,0,0
189364,502.831,-218.872,0,0
189624,511.234,-218.384,0,0
189884,519.373,-218.059,0,0
190145,527.473,-217.378,0,0
190405,535.731,-216.338,0,0
190665,544.713,-214.77,0,0
190926,554.487,-213.31,0,0
191186,565.019,-211.951,0,0
191446,576.536,-211.053,0,0
191707,588.718,-210.996,0,0
191967,601.185,-211.801,0,0
192227,613.804,-213.268,0,0
192488,626.644,-215.097,0,0
192748,640.119,-217.438,0,0
193008,654.251,-220.825,0,0
193269,668.436,-225.473,0,0
193529,682.718,-231.134,0,0
193789,696.782,-238.41,0,0
194050,709.621,-246.749,0,0
194310,721.667,-255.148,0,0
194570,733.565,-263.782,0,0
194831,745.188,-272.881,0,0
195091,756.615,-282.367,0,0
195351,768.004,-292.516,0,0
195612,779.195,-303.609,0,0
195872,789.461,-315.676,0,0
196132,798.546,-328.013,0,0
196393,807.016,-340.086,0,0
196653,815.421,-351.859,0,0
196913,824.134,-364.016,0,0
197174,832.785,-377.22,0,0
197434,840.789,-391.37,0,0
197694,847.629,-406.116,0,0
197955,853.339,-420.62,0,0
198215,859.065,-434.746,0,0
198475,865.041,-449.317,0,0
198735,870.797,-465.098,0,0
198996,875.506,-481.92,0,0
199256,878.733,-499.205,0,0
199516,880.516,-516.629,0,0
199777,880.826,-533.591,0,0
200037,880.352,-549.34,0,0
200297,880.477,-564.253,0,0
200558,880.968,-580.182,0,0
200818,880.652,-597.223,0,0
201078,878.906,-614.489,0,0
201339,876.243,-631.602,0,0
201599,872.277,-648.838,0,0
201859,867.33,-665.687,0,0
202120,861.173,-682.171,0,0
202380.025,854.252,-698.123,0,0
202640.35,846.11,-713.968,0,0
202900.675,836.266,-728.857,0,0
203161.0,825.401,-741.859,0,0
203421.325,814.582,-753.148,0,0
203681.65,804.212,-763.569,0,0
203941.975,793.795,-773.189,0,0
204202.3,783.453,-782.128,0,0
204462.625,773.137,-789.959,0,0
204722.95,763.764,-797.022,0,0
204983.275,755.372,-804.562,0,0
205243.6,746.852,-812.631,0,0
205503.925,737.306,-821.262,0,0
205764.25,726.532,-829.203,0,0
206024.575,715.332,-835.853,0,0
206284.9,703.99,-841.504,0,0
206545.225,693.122,-846.283,0,0
206805.55,682.256,-850.141,0,0
207065.875,671.843,-853.41,0,0
207326.2,662.197,-856.243,0,0
207586.525,652.784,-858.895,0,0
207846.85,643.754,-861.284,0,0
208107.175,634.908,-863.403,0,0
208367.5,626.611,-865.049,0,0
208627.825,618.999,-866.663,0,0
208888.15,611.823,-868.689,0,0
209148.475,604.805,-871.103,0,0
209408.8,597.684,-873.757,0,0
209669.125,590.322,-876.786,0,0
209929.45,582.572,-880.112,0,0
210189.775,574.182,-883.23,0,0
210450.1,565.307,-885.728,0,0
210710.425,556.242,-887.963,0,0
210970.75,546.922,-889.73,0,0
211231.075,537.564,-891.096,0,0
211491.4,527.757,-891.801,0,0
211751.725,517.802,-891.668,0,0
212012.05,508.247,-890.499,0,0
212272.375,499.345,-888.646,0,0
212532.7,491.279,-886.482,0,0
212793.025,483.728,-884.511,0,0
213053.35,476.357,-882.557,0,0
213313.675,468.987,-880.261,0,0
213574.0,461.945,-877.825,0,0
213834.325,455.358,-875.002,0,0
214094.65,449.144,-872.104,0,0
214354.975,443.272,-869.255,0,0
214615.3,437.744,-866.369,0,0
214875.625,432.369,-863.625,0,0
215135.95,427.17,-860.761,0,0
215396.275,422.123,-858.008,0,0
215656.6,417.3,-855.058,0,0
215916.925,412.534,-852.048,0,0
216177.25,408.079,-848.858,0,0
216437.575,403.844,-845.686,0,0
216697.9,399.967,-842.417,0,0
216958.225,396.253,-839.35,0,0
217218.55,392.691,-836.193,0,0
217478.875,389.322,-832.979,0,0
217739.2,386.283,-829.762,0,0
217999.525,383.528,-826.643,0,0
218259.85,380.944,-823.678,0,0
218520,378.455,-820.824,0,0
218780,376.107,-817.976,0,0
219041,373.995,-815.143,0,0
219301,372.086,-812.433,0,0
219561,370.305,-809.866,0,0
219822,368.716,-807.528,0,0
220082,367.109,-805.305,0,0
220342,365.451,-803.295,0,0
220603,363.855,-801.211,0,0
220863,362.183,-799.203,0,0
221123,360.579,-796.969,0,0
221384,359.144,-794.724,0,0
221644,357.961,-792.541,0,0
221904,357.055,-790.354,0,0
222165,356.38,-788.211,0,0
222425,355.916,-786.375,0,0
222685,355.656,-784.754,0,0
222946,355.404,-783.51,0,0
223206,355.108,-782.469,0,0
223466,354.799,-781.604,0,0
223727,354.449,-780.959,0,0
223987,353.983,-780.549,0,0
224247,353.314,-780.096,0,0
224508,352.606,-779.745,0,0
224768,351.755,-779.402,0,0
225028,350.987,-778.917,0,0
225289,350.208,-778.505,0,0
225549,349.406,-778.149,0,0
225809,348.609,-777.753,0,0
226070,347.918,-777.217,0,0
226330,347.479,-776.864,0,0
226590,347.096,-776.673,0,0
226851,346.833,-776.71,0,0
227111,346.422,-776.951,0,0
227371,345.941,-777.238,0,0
227632,345.525,-777.651,0,0
227892,345.105,-778.135,0,0
228152,344.681,-778.823,0,0
228413,344.332,-779.759,0,0
228673,343.878,-780.968,0,0
228933,343.258,-782.443,0,0
229193,342.299,-784.176,0,0
229454,341.125,-786.01,0,0
229714,339.66,-787.869,0,0
229974,337.738,-789.732,0,0
230235,335.749,-791.537,0,0
230495,333.443,-793.207,0,0
230755,330.995,-794.813,0,0
231016,328.46,-796.305,0,0
231276,325.686,-797.854,0,0
231536,322.655,-799.197,0,0
231797,319.464,-800.239,0,0
232057,316.304,-801.177,0,0
232317,313.015,-801.909,0,0
232578,309.793,-802.533,0,0
232838,306.523,-803.03,0,0
233098,303.215,-803.43,0,0
233359,299.888,-803.716,0,0
233619,296.55,-803.808,0,0
233879,293.284,-803.747,0,0
234140,290.112,-803.783,0,0
234400,286.872,-803.736,0,0
234660.3,283.684,-803.766,0,0
234920.625,280.419,-803.612,0,0
235180.95,277.07,-803.463,0,0
235441.275,273.689,-803.244,0,0
235701.6,270.236,-802.833,0,0
235961.925,266.735,-802.391,0,0
236222.25,263.255,-801.758,0,0
236482.575,259.86,-800.976,0,0
236742.9,256.453,-800.181,0,0
237003.225,253.073,-799.266,0,0
237263.55,249.688,-798.325,0,0
237523.875,246.272,-797.252,0,0
237784.2,242.817,-796.101,0,0
238044.525,239.451,-794.629,0,0
238304.85,236.163,-793.073,0,0
238565.175,233.095,-791.397,0,0
238825.5,230.13,-789.76,0,0
239085.825,227.256,-788.194,0,0
239346.15,224.316,-786.53,0,0
239606.475,221.407,-784.688,0,0
239866.8,218.462,-782.908,0,0
240127.125,215.798,-781.014,0,0
240387.45,213.235,-779.022,0,0
240647.775,210.703,-776.912,0,0
240908.1,208.246,-774.832,0,0
241168.425,205.902,-772.706,0,0
241428.75,203.684,-770.576,0,0
241689.075,201.697,-768.416,0,0
241949.4,199.711,-766.34,0,0
242209.725,197.873,-764.28,0,0
242470.05,196.021,-762.28,0,0
242730.375,194.298,-760.29,0,0
242990.7,192.703,-758.33,0,0
243251.025,191.199,-756.431,0,0
243511.35,189.712,-754.647,0,0
243771.675,188.308,-752.994,0,0
244032.0,186.893,-751.537,0,0
244292.325,185.485,-750.041,0,0
244552.65,184.077,-748.823,0,0
244812.975,182.368,-747.478,0,0
245073.3,180.812,-746.333,0,0
245333.625,179.13,-745.121,0,0
245593.95,177.442,-743.928,0,0
245854.275,175.762,-742.904,0,0
246114.6,173.805,-742.088,0,0
246374.925,171.627,-741.199,0,0
246635.25,169.221,-740.292,0,0
246895.575,166.539,-739.218,0,0
247155.9,163.592,-737.831,0,0
247416.225,160.715,-736.092,0,0
247676.55,157.868,-734.159,0,0
247936.875,155.1,-732.032,0,0
248197.2,152.504,-729.766,0,0
248457.525,149.903,-727.392,0,0
248717.85,147.42,-724.971,0,0
248978.175,144.933,-722.474,0,0
249238.5,142.508,-719.741,0,0
249498.825,140.157,-716.851,0,0
249759.15,137.932,-713.852,0,0
250019.475,135.84,-710.798,0,0
250279.8,133.928,-707.668,0,0
250540,132.089,-704.413,0,0
250800,130.435,-701.012,0,0
251061,128.912,-697.668,0,0
251321,127.592,-694.293,0,0
251581,126.441,-691.002,0,0
251842,125.376,-687.658,0,0
252102,124.352,-684.348,0,0
252362,123.45,-681.041,0,0
252623,122.691,-677.655,0,0
252883,122.075,-674.305,0,0
253143,121.584,-671.052,0,0
253404,121.184,-667.851,0,0
253664,120.81,-664.669,0,0
253924,120.513,-661.564,0,0
254185,120.26,-658.458,0,0
254445,120.034,-655.329,0,0
254705,119.951,-652.297,0,0
254966,119.991,-649.105,0,0
255226,120.024,-645.928,0,0
255486,120.117,-642.888,0,0
255747,120.418,-639.774,0,0
256007,120.784,-636.693,0,0
256267,121.339,-633.652,0,0
256528,121.934,-630.725,0,0
256788,122.642,-627.776,0,0
257048,123.443,-624.945,0,0
257309,124.311,-622.174,0,0
257569,125.312,-619.474,0,0
257829,126.382,-616.891,0,0
258090,127.541,-614.426,0,0
258350,128.715,-612.038,0,0
258610,129.894,-609.749,0,0
258871,131.077,-607.549,0,0
259131,132.302,-605.353,0,0
259391,133.569,-603.214,0,0
259651,134.928,-601.065,0,0
259912,136.391,-598.946,0,0
260172,137.95,-597.019,0,0
260432,139.508,-595.253,0,0
260693,141.126,-593.497,0,0
260953,142.806,-591.844,0,0
261213,144.526,-590.348,0,0
261474,146.324,-588.918,0,0
261734,148.117,-587.659,0,0
261994,149.885,-586.575,0,0
262255,151.621,-585.605,0,0
262515,153.326,-584.711,0,0
262775,154.971,-583.94,0,0
263036,156.548,-583.176,0,0
263296,158.149,-582.449,0,0
263556,159.812,-581.798,0,0
263817,161.541,-581.258,0,0
264077,163.261,-580.967,0,0
264337,164.884,-580.812,0,0
264598,166.423,-580.818,0,0
264858,167.868,-580.926,0,0
265118,169.06,-581.302,0,0
265379,170.267,-581.509,0,0
265639,171.153,-581.833,0,0
265899,171.904,-582.14,0,0
266160,172.522,-582.384,0,0
266420,173.037,-582.522,0,0
266680.25,173.547,-582.524,0,0
266940.575,174.104,-582.478,0,0
267200.9,174.729,-582.47,0,0
267461.225,175.378,-582.525,0,0
267721.55,175.965,-582.682,0,0
267981.875,176.505,-582.918,0,0
268242.2,176.891,-583.2,0,0
268502.525,177.132,-583.501,0,0
268762.85,177.216,-583.722,0,0
269023.175,177.124,-583.91,0,0
269283.5,176.943,-583.977,0,0
269543.825,176.639,-583.802,0,0
269804.15,176.29,-583.428,0,0
270064.475,175.976,-582.818,0,0
270324.8,175.835,-582.038,0,0
270585.125,175.767,-581.113,0,0
270845.45,175.928,-580.089,0,0
271105.775,176.254,-578.943,0,0
271366.1,176.855,-577.795,0,0
271626.425,177.631,-576.689,0,0
271886.75,178.584,-575.729,0,0
272147.075,179.598,-574.843,0,0
272407.4,180.675,-574.006,0,0
272667.725,181.867,-573.182,0,0
272928.05,183.187,-572.387,0,0
273188.375,184.668,-571.586,0,0
273448.7,186.367,-570.877,0,0
273709.025,188.293,-570.23,0,0
273969.35,190.482,-569.773,0,0
274229.675,192.955,-569.555,0,0
274490.0,195.643,-569.757,0,0
274750.325,198.449,-570.326,0,0
275010.65,201.247,-571.471,0,0
275270.975,203.996,-572.966,0,0
275531.3,206.668,-574.928,0,0
275791.625,209.074,-577.334,0,0
276051.95,211.229,-580.224,0,0
276312.275,212.929,-583.453,0,0
276572.6,214.184,-586.967,0,0
276832.925,214.906,-590.649,0,0
277093.25,215.102,-594.401,0,0
277353.575,214.755,-598.124,0,0
277613.9,213.984,-601.669,0,0
277874.225,212.739,-605.014,0,0
278134.55,211.194,-608.112,0,0
278394.875,209.401,-610.898,0,0
278655.2,207.423,-613.416,0,0
278915.525,205.375,-615.685,0,0
279175.85,203.218,-617.783,0,0
279436.175,200.965,-619.593,0,0
279696.5,198.763,-621.291,0,0
279956.825,196.496,-622.799,0,0
280217.15,194.22,-624.221,0,0
280477.475,191.857,-625.527,0,0
280737.8,189.504,-626.729,0,0
280998.125,187.081,-627.803,0,0
281258.45,184.592,-628.859,0,0
281518.775,182.004,-629.818,0,0
281779.1,179.355,-630.643,0,0
282039.425,176.598,-631.367,0,0
282299.75,173.708,-631.982,0,0
282560,170.668,-632.39,0,0
282820,167.539,-632.542,0,0
283081,164.316,-632.386,0,0
283341,161.146,-631.877,0,0
283601,158.112,-631.03,0,0
283862,155.353,-629.897,0,0
284122,152.938,-628.617,0,0
284382,150.905,-627.473,0,0
284643,149,-626.535,0,0
284903,146.995,-625.898,0,0
285163,144.902,-625.279,0,0
285424,142.431,-624.65,0,0
285684,139.802,-623.854,0,0
285944,137.05,-622.796,0,0
286205,134.315,-621.439,0,0
286465,131.528,-619.866,0,0
286725,128.756,-617.998,0,0
286986,126.048,-615.844,0,0
287246,123.449,-613.372,0,0
287506,121.011,-610.589,0,0
287767,118.823,-607.497,0,0
288027,116.901,-604.144,0,0
288287,115.338,-600.541,0,0
288548,114.163,-596.739,0,0
288808,113.419,-592.823,0,0
289068,113.122,-588.821,0,0
289329,113.318,-584.812,0,0
289589,114.042,-580.864,0,0
289849,115.296,-577.112,0,0
290109,116.908,-573.628,0,0
290370,119.059,-570.475,0,0
290630,121.558,-567.749,0,0
290890,124.33,-565.553,0,0
291151,127.252,-563.906,0,0
291411,130.196,-562.783,0,0
291671,133.055,-562.133,0,0
291932,135.796,-561.886,0,0
292192,138.461,-562.018,0,0
292452,140.944,-562.564,0,0
292713,143.231,-563.491,0,0
292973,145.238,-564.794,0,0
293233,146.832,-566.472,0,0
293494,147.908,-568.397,0,0
293754,148.329,-570.376,0,0
294014,148.21,-572.122,0,0
294275,147.642,-573.518,0,0
294535,146.821,-574.451,0,0
294795,145.842,-574.843,0,0
295056,145.214,-574.705,0,0
295316,145.032,-574.156,0,0
295576,145.477,-573.582,0,0
295837,146.513,-573.351,0,0
296097,147.945,-573.738,0,0
296357,149.442,-574.833,0,0
296618,150.658,-576.643,0,0
296878,151.346,-578.973,0,0
297138,151.335,-581.567,0,0
297399,150.618,-584.186,0,0
297659,149.29,-586.566,0,0
297919,147.503,-588.559,0,0
298180,145.448,-590.087,0,0
298440,143.348,-591.202,0,0
298700.2,141.254,-591.957,0,0
298960.525,139.224,-592.504,0,0
299220.85,137.311,-592.848,0,0
299481.175,135.471,-593.113,0,0
299741.5,133.656,-593.326,0,0
300001.825,131.824,-593.434,0,0
300262.15,129.925,-593.449,0,0
300522.475,128.022,-593.319,0,0
300782.8,126.145,-592.916,0,0
301043.125,124.38,-592.353,0,0
301303.45,122.777,-591.675,0,0
301563.775,121.33,-590.92,0,0
301824.1,120.062,-590.122,0,0
302084.425,118.966,-589.34,0,0
302344.75,118.027,-588.59,0,0
302605.075,117.25,-587.915,0,0
302865.4,116.597,-587.402,0,0
303125.725,116.01,-587.1,0,0
303386.05,115.35,-586.992,0,0
303646.375,114.558,-587.045,0,0
303906.7,113.641,-587.149,0,0
304167.025,112.555,-587.311,0,0
304427.35,111.335,-587.432,0,0
304687.675,110.047,-587.534,0,0
304948.0,108.588,-587.625,0,0
305208.325,107.055,-587.63,0,0
305468.65,105.35,-587.576,0,0
305728.975,103.572,-587.374,0,0
305989.3,101.74,-586.966,0,0
306249.625,99.9213,-586.465,0,0
306509.95,98.092,-585.799,0,0
306770.275,96.3117,-585.041,0,0
307030.6,94.582,-584.127,0,0
307290.925,92.9274,-583.143,0,0
307551.25,91.3967,-582.056,0,0
307811.575,89.9249,-580.974,0,0
308071.9,88.5285,-579.863,0,0
308332.225,87.1841,-578.743,0,0
308592.55,85.8831,-577.624,0,0
308852.875,84.5915,-576.507,0,0
309113.2,83.3306,-575.334,0,0
309373.525,82.0934,-574.15,0,0
309633.85,80.8959,-572.882,0,0
309894.175,79.7168,-571.63,0,0
310154.5,78.6451,-570.354,0,0
310414.825,77.5726,-569.059,0,0
310675.15,76.5604,-567.743,0,0
310935.475,75.5488,-566.448,0,0
311195.8,74.5888,-565.113,0,0
311456.125,73.6756,-563.759,0,0
311716.45,72.7992,-562.362,0,0
311976.775,71.9907,-560.986,0,0
312237.1,71.2611,-559.623,0,0
312497.425,70.5541,-558.258,0,0
312757.75,69.8725,-556.936,0,0
313018.075,69.2334,-555.626,0,0
313278.4,68.605,-554.352,0,0
313538.725,68.0103,-553.058,0,0
313799.05,67.4146,-551.796,0,0
314059.375,66.8193,-550.528,0,0
314319.7,66.2442,-549.285,0,0
314580,65.6886,-548.089,0,0
314840,65.1053,-546.857,0,0
315101,64.6315,-545.57,0,0
315361,64.1164,-544.337,0,0
315621,63.5479,-543.108,0,0
315882,63.0459,-541.918,0,0
316142,62.5954,-540.57,0,0
316402,62.1067,-539.273,0,0
316663,61.6569,-537.894,0,0
316923,61.2411,-536.651,0,0
317183,60.9443,-535.375,0,0
317444,60.5557,-534.025,0,0
317704,60.2851,-532.699,0,0
317964,59.9956,-531.517,0,0
318225,59.738,-530.292,0,0
318485,59.5724,-529.053,0,0
318745,59.2719,-527.9,0,0
319006,59.1954,-526.699,0,0
319266,58.9624,-525.599,0,0
319526,58.7911,-524.506,0,0
319787,58.5797,-523.384,0,0
320047,58.3347,-522.33,0,0
320307,58.1978,-521.167,0,0
320567,57.9377,-520.047,0,0
320828,57.718,-518.994,0,0
321088,57.536,-517.88,0,0
321348,57.3122,-516.83,0,0
321609,57.1447,-515.632,0,0
321869,56.9676,-514.556,0,0
322129,56.7951,-513.454,0,0
322390,56.6137,-512.345,0,0
322650,56.4623,-511.261,0,0
322910,56.2964,-510.075,0,0
323171,56.1381,-508.995,0,0
323431,55.9258,-507.785,0,0
323691,55.8167,-506.563,0,0
323952,55.7163,-505.332,0,0
324212,55.4961,-504.006,0,0
324472,55.5318,-502.645,0,0
324733,55.5547,-501.345,0,0
324993,55.727,-499.919,0,0
325253,55.9497,-498.613,0,0
325514,56.2574,-497.272,0,0
325774,56.6722,-495.94,0,0
326034,57.1676,-494.708,0,0
326295,57.7852,-493.544,0,0
326555,58.4011,-492.524,0,0
326815,59.0921,-491.604,0,0
327076,59.7349,-490.806,0,0
327336,60.3321,-490.15,0,0
327596,60.9446,-489.51,0,0
327857,61.4912,-488.97,0,0
328117,61.9357,-488.463,0,0
328377,62.3626,-487.994,0,0
328638,62.7111,-487.514,0,0
328898,63.1255,-487.04,0,0
329158,63.4291,-486.566,0,0
329419,63.852,-486.197,0,0
329679,64.2148,-485.812,0,0
329939,64.5202,-485.507,0,0
330200,64.8269,-485.162,0,0
330460,65.114,-484.892,0,0
330720.15,65.3805,-484.71,0,0
330980.475,65.5698,-484.582,0,0
331240.8,65.7187,-484.466,0,0
331501.125,65.8161,-484.358,0,0
331761.45,65.8254,-484.285,0,0
332021.775,65.8236,-484.214,0,0
332282.1,65.7392,-484.141,0,0
332542.425,65.5185,-484.133,0,0
332802.75,65.287,-484.068,0,0
333063.075,64.9149,-483.9,0,0
333323.4,64.5392,-483.702,0,0
333583.725,64.0996,-483.487,0,0
333844.05,63.5917,-483.194,0,0
334104.375,63.1085,-482.857,0,0
334364.7,62.6912,-482.423,0,0
334625.025,62.1722,-482.031,0,0
334885.35,61.7379,-481.464,0,0
335145.675,61.2428,-480.973,0,0
335406.0,60.8124,-480.348,0,0
335666.325,60.3071,-479.796,0,0
335926.65,59.9012,-479.164,0,0
336186.975,59.4629,-478.489,0,0
336447.3,59.1048,-477.887,0,0
336707.625,58.6141,-477.185,0,0
336967.95,58.2805,-476.476,0,0
337228.275,57.882,-475.692,0,0
337488.6,57.468,-474.936,0,0
337748.925,57.1974,-474.159,0,0
338009.25,56.8696,-473.374,0,0
338269.575,56.5664,-472.565,0,0
338529.9,56.3212,-471.749,0,0
338790.225,56.0979,-470.936,0,0
339050.55,55.8442,-470.12,0,0
339310.875,55.6305,-469.294,0,0
339571.2,55.3983,-468.459,0,0
339831.525,55.1381,-467.633,0,0
340091.85,55.0701,-466.841,0,0
340352.175,54.8234,-465.978,0,0
340612.5,54.6803,-465.122,0,0
340872.825,54.5422,-464.273,0,0
341133.15,54.4256,-463.482,0,0
341393.475,54.2672,-462.607,0,0
341653.8,54.1315,-461.781,0,0
341914.125,54.0959,-460.883,0,0
342174.45,53.9171,-460.039,0,0
342434.775,53.8757,-459.138,0,0
342695.1,53.844,-458.241,0,0
342955.425,53.783,-457.416,0,0
343215.75,53.7481,-456.532,0,0
343476.075,53.7452,-455.597,0,0
343736.4,53.8106,-454.699,0,0
343996.725,53.832,-453.855,0,0
344257.05,53.9004,-452.938,0,0
344517.375,54.0053,-452.107,0,0
344777.7,54.0656,-451.196,0,0
345038.025,54.1917,-450.319,0,0
345298.35,54.3316,-449.532,0,0
345558.675,54.5142,-448.648,0,0
345819.0,54.703,-447.821,0,0
346079.325,54.893,-447.014,0,0
346339.65,55.0999,-446.192,0,0
346599.975,55.3538,-445.418,0,0
346860,55.596,-444.645,0,0
347121,55.7757,-443.932,0,0
347381,56.1215,-443.19,0,0
347641,56.341,-442.455,0,0
347902,56.6185,-441.76,0,0
348162,56.8754,-441.042,0,0
348422,57.188,-440.377,0,0
348683,57.4851,-439.7,0,0
348943,57.8131,-439.019,0,0
349203,58.134,-438.313,0,0
349464,58.4882,-437.722,0,0
349724,58.849,-437.122,0,0
349984,59.1818,-436.495,0,0
350245,59.6212,-436.017,0,0
350505,59.9887,-435.502,0,0
350765,60.3919,-435.029,0,0
351025,60.6866,-434.6,0,0
351286,61.0304,-434.204,0,0
351546,61.3129,-433.802,0,0
351806,61.5836,-433.389,0,0
352067,61.8293,-433.017,0,0
352327,62.0599,-432.629,0,0
352587,62.2352,-432.163,0,0
352848,62.5094,-431.776,0,0
353108,62.7228,-431.363,0,0
353368,62.9251,-430.937,0,0
353629,63.1614,-430.472,0,0
353889,63.4086,-430.037,0,0
354149,63.6504,-429.588,0,0
354410,63.9335,-429.17,0,0
354670,64.1826,-428.784,0,0
354930,64.4627,-428.348,0,0
355191,64.7094,-428.031,0,0
355451,64.9669,-427.642,0,0
355711,65.2618,-427.266,0,0
355972,65.4869,-426.92,0,0
356232,65.7914,-426.567,0,0
356492,66.0323,-426.277,0,0
356753,66.3001,-425.848,0,0
357013,66.6286,-425.502,0,0
357273,66.8771,-425.141,0,0
357534,67.2461,-424.824,0,0
357794,67.5608,-424.552,0,0
358054,67.9092,-424.253,0,0
358315,68.2309,-424.019,0,0
358575,68.6231,-423.7,0,0
358835,68.9701,-423.519,0,0
359096,69.387,-423.397,0,0
359356,69.7416,-423.294,0,0
359616,70.0881,-423.239,0,0
359877,70.4194,-423.241,0,0
360137,70.7158,-423.302,0,0
360397,70.8987,-423.394,0,0
360658,71.113,-423.429,0,0
360918,71.2176,-423.496,0,0
361178,71.3298,-423.575,0,0
361438,71.3666,-423.582,0,0
361699,71.3726,-423.631,0,0
361959,71.3575,-423.697,0,0
362219,71.3429,-423.667,0,0
362480,71.2682,-423.648,0,0
362740.1,71.2831,-423.63,0,0
363000.425,71.2403,-423.594,0,0
363260.75,71.1643,-423.544,0,0
363521.075,71.1213,-423.549,0,0
363781.4,71.0416,-423.551,0,0
364041.725,70.8649,-423.502,0,0
364302.05,70.7161,-423.5,0,0
364562.375,70.5337,-423.419,0,0
364822.7,70.392,-423.306,0,0
365083.025,70.1996,-423.248,0,0
365343.35,69.9539,-423.121,0,0
365603.675,69.7313,-422.968,0,0
365864.0,69.5451,-422.779,0,0
366124.325,69.3122,-422.626,0,0
366384.65,69.0943,-422.354,0,0
366644.975,68.8774,-422.098,0,0
366905.3,68.6876,-421.816,0,0
367165.625,68.5804,-421.521,0,0
367425.95,68.459,-421.251,0,0
367686.275,68.3848,-420.944,0,0
367946.6,68.3531,-420.684,0,0
368206.925,68.3384,-420.381,0,0
368467.25,68.3301,-420.164,0,0
368727.575,68.3265,-419.95,0,0
368987.9,68.3246,-419.745,0,0
369248.225,68.3257,-419.667,0,0
369508.55,68.3303,-419.549,0,0
369768.875,68.3075,-419.526,0,0
370029.2,68.1685,-419.521,0,0
370289.525,68.0434,-419.558,0,0
370549.85,67.8264,-419.565,0,0
370810.175,67.5597,-419.462,0,0
371070.5,67.276,-419.402,0,0
371330.825,67.0197,-419.272,0,0
371591.15,66.7761,-419.108,0,0
371851.475,66.4946,-418.928,0,0
372111.8,66.2346,-418.764,0,0
372372.125,66.0136,-418.533,0,0
372632.45,65.7457,-418.344,0,0
372892.775,65.5338,-418.13,0,0
373153.1,65.3356,-417.925,0,0
373413.425,65.0926,-417.757,0,0
373673.75,64.8717,-417.605,0,0
373934.075,64.6234,-417.422,0,0
374194.4,64.356,-417.297,0,0
374454.725,64.0977,-417.132,0,0
374715.05,63.8228,-416.905,0,0
374975.375,63.4857,-416.812,0,0
375235.7,63.1611,-416.599,0,0
375496.025,62.8319,-416.408,0,0
375756.35,62.4767,-416.199,0,0
376016.675,62.1316,-415.997,0,0
376277.0,61.7639,-415.685,0,0
376537.325,61.4089,-415.406,0,0
376797.65,61.0936,-415.132,0,0
377057.975,60.8396,-414.824,0,0
377318.3,60.5103,-414.532,0,0
377578.625,60.2506,-414.302,0,0
377838.95,59.9684,-414.117,0,0
378099.275,59.6897,-413.945,0,0
378359.6,59.3156,-413.802,0,0
378619.925,58.8731,-413.69,0,0
378880,58.3515,-413.513,0,0
379141,57.7687,-413.309,0,0
379401,57.1203,-413.025,0,0
379661,56.4314,-412.667,0,0
379922,55.7614,-412.096,0,0
380182,55.0839,-411.436,0,0
380442,54.5671,-410.722,0,0
380703,54.149,-409.913,0,0
380963,53.8832,-409.094,0,0
381223,53.7294,-408.308,0,0
381483,53.7179,-407.655,0,0
381744,53.7189,-407.065,0,0
382004,53.7378,-406.615,0,0
382264,53.6768,-406.272,0,0
382525,53.6208,-405.909,0,0
382785,53.4893,-405.736,0,0
383045,53.2082,-405.455,0,0
383306,52.9459,-405.168,0,0
383566,52.5865,-404.881,0,0
383826,52.2111,-404.533,0,0
384087,51.8378,-404.218,0,0
384347,51.4322,-403.868,0,0
384607,51.0623,-403.432,0,0
384868,50.5788,-402.977,0,0
385128,50.1589,-402.458,0,0
385388,49.776,-401.951,0,0
385649,49.4163,-401.42,0,0
385909,49.0104,-400.852,0,0
386169,48.6441,-400.293,0,0
386430,48.3018,-399.673,0,0
386690,47.8962,-399.07,0,0
386950,47.5818,-398.449,0,0
387211,47.236,-397.79,0,0
387471,46.8813,-397.115,0,0
387731,46.6345,-396.408,0,0
387992,46.3261,-395.733,0,0
388252,46.1432,-395.001,0,0
388512,45.8849,-394.261,0,0
388773,45.7163,-393.533,0,0
389033,45.6152,-392.813,0,0
389293,45.4707,-392.033,0,0
389554,45.3991,-391.315,0,0
389814,45.4262,-390.58,0,0
390074,45.4035,-389.955,0,0
390335,45.4551,-389.293,0,0
390595,45.5091,-388.705,0,0
390855,45.5529,-388.136,0,0
391116,45.598,-387.689,0,0
391376,45.6609,-387.23,0,0
391636,45.6964,-386.88,0,0
391896,45.6534,-386.514,0,0
392157,45.5511,-386.205,0,0
392417,45.3815,-385.854,0,0
392677,45.1448,-385.542,0,0
392938,44.8757,-385.193,0,0
393198,44.5626,-384.77,0,0
393458,44.1995,-384.276,0,0
393719,43.8436,-383.742,0,0
393979,43.4745,-383.198,0,0
394239,43.094,-382.627,0,0
394500,42.7518,-381.945,0,0
394760.05,42.4294,-381.223,0,0
395020.375,42.1504,-380.461,0,0
395280.7,41.8885,-379.686,0,0
395541.025,41.6464,-378.867,0,0
395801.35,41.4925,-378.068,0,0
396061.675,41.3264,-377.273,0,0
396322.0,41.2315,-376.464,0,0
396582.325,41.1549,-375.622,0,0
396842.65,41.0807,-374.789,0,0
397102.975,41.0706,-374.005,0,0
397363.3,41.0685,-373.193,0,0
397623.625,41.0611,-372.378,0,0
397883.95,41.1082,-371.577,0,0
398144.275,41.2099,-370.836,0,0
398404.6,41.2674,-370.073,0,0
398664.925,41.3589,-369.323,0,0
398925.25,41.5006,-368.612,0,0
399185.575,41.6269,-367.924,0,0
399445.9,41.7391,-367.181,0,0
399706.225,41.8706,-366.531,0,0
399966.55,42.0106,-365.852,0,0
400006.6,42.0564,-365.746,0,0