File: Accelerated corrosion test data/2025-10-03_06-00-02/sample_6.csv
Frequency (Hz),Impedance (ohms),Phase (Radians),Temperature (C),Humidity (%)
10000.0,4292.95,-6443.53,0,0
10260.325,4155.31,-6372.33,0,0
10520.65,4024.51,-6300.84,0,0
10780.975,3898.55,-6229.68,0,0
11041.3,3779.66,-6158.45,0,0
11301.625,3664.69,-6088.01,0,0
11561.95,3554.81,-6018.03,0,0
11822.275,3450.19,-5949.28,0,0
12082.6,3348.61,-5880.02,0,0
12342.925,3252.21,-5811.54,0,0
12603.25,3161.73,-5742.47,0,0
12863.575,3073.86,-5676.51,0,0
13123.9,2990.98,-5612.65,0,0
13384.225,2908.75,-5550.77,0,0
13644.55,2829.36,-5487.21,0,0
13904.875,2753.16,-5424.45,0,0
14165.2,2680.26,-5362.76,0,0
14425.525,2610.25,-5301.33,0,0
14685.8,2543.97,-5240.86,0,0
14946.175,2479.51,-5182.83,0,0
15206.5,2418.14,-5124.93,0,0
15466.825,2358.41,-5067.42,0,0
15727.15,2300.47,-5011.82,0,0
15987.5,2245.14,-4956.65,0,0
16247.8,2191.3,-4902.16,0,0
16508.125,2139.99,-4848.84,0,0
16768.45,2090.71,-4795.92,0,0
17028.775,2043.14,-4745.12,0,0
17289.1,1996.79,-4695,0,0
17549.425,1950.96,-4645.28,0,0
17809.75,1908.29,-4596.98,0,0
18070.075,1864.81,-4547.51,0,0
18330.4,1825.04,-4500.58,0,0
18590.725,1785.78,-4452.59,0,0
18851.05,1749.22,-4407.25,0,0
19111.375,1713.7,-4363.38,0,0
19371.7,1678.3,-4320.7,0,0
19632.025,1642.86,-4276.79,0,0
19892.35,1609.93,-4234.81,0,0
20152.675,1577.2,-4192.94,0,0
20413.0,1545.43,-4152.18,0,0
20673.3,1514.33,-4111.21,0,0
20933.65,1484.93,-4071.05,0,0
21193.975,1456.4,-4031.96,0,0
21454.3,1428.65,-3993.14,0,0
21714.625,1401.76,-3955.22,0,0
21974.9,1375.38,-3917.34,0,0
22235.275,1349.44,-3880.54,0,0
22495.6,1324.53,-3842.53,0,0
22755.925,1302.27,-3805.25,0,0
23016.25,1282.52,-3769.32,0,0
23276.6,1263.28,-3738.18,0,0
23536.9,1240.97,-3707.11,0,0
23797.225,1218.47,-3676.46,0,0
24057.55,1195.84,-3644.59,0,0
24317.875,1174.81,-3612.29,0,0
24578.2,1154.09,-3580.22,0,0
24838.525,1134.54,-3548.92,0,0
25098.85,1115.73,-3518.26,0,0
25359.175,1097.47,-3488.09,0,0
25619.5,1079.36,-3458.41,0,0
25879.8,1061.18,-3429.26,0,0
26140.1,1044.14,-3399.75,0,0
26400.5,1027.43,-3371.01,0,0
26660.8,1011.51,-3342.72,0,0
26921.1,995.634,-3314.71,0,0
27181.4,981.161,-3287.06,0,0
27441.8,966.319,-3260.25,0,0
27702.1,952.757,-3234.14,0,0
27962.4,938.809,-3208.58,0,0
28222.7,924.599,-3183.86,0,0
28483.1,910.21,-3158.56,0,0
28743.4,896.482,-3133.54,0,0
29003.7,883.324,-3108.51,0,0
29264,870.441,-3083.26,0,0
29524.4,858.66,-3058.9,0,0
29784.7,847.03,-3034.93,0,0
30045,836.032,-3011.13,0,0
30305.3,825.996,-2988.81,0,0
30565.7,814.504,-2967.47,0,0
30826,802.948,-2945.15,0,0
31086.3,791.976,-2922.75,0,0
31346.6,781.075,-2900.59,0,0
31607,771.193,-2878.25,0,0
31867.3,761.987,-2856.86,0,0
32127.6,752.55,-2835.11,0,0
32387.9,744.063,-2814.36,0,0
32648.3,736.143,-2793.41,0,0
32908.6,728.257,-2773.88,0,0
33168.9,720.945,-2754.91,0,0
33429.2,712.974,-2736.13,0,0
33689.6,705.959,-2718.14,0,0
33949.9,698.104,-2701.32,0,0
34210.2,689.526,-2684.3,0,0
34470.5,680.713,-2666.69,0,0
34730.9,672.381,-2648.66,0,0
34991.2,664.66,-2630.63,0,0
35251.5,658.134,-2613.79,0,0
35511.8,650.928,-2597.8,0,0
35772.2,643.355,-2582.11,0,0
36032.5,635.191,-2566.45,0,0
36292.8,626.767,-2550.07,0,0
36553.1,619.284,-2534.1,0,0
36813.5,611.146,-2517.94,0,0
37073.8,603.893,-2501.76,0,0
37334.1,596.36,-2485.98,0,0
37594.4,588.93,-2469.96,0,0
37854.8,581.928,-2454.27,0,0
38115.1,574.955,-2438.17,0,0
38375.4,568.269,-2422.53,0,0
38635.7,561.805,-2407.08,0,0
38896.1,555.571,-2391.49,0,0
39156.4,549.705,-2376.1,0,0
39416.7,544.058,-2361.02,0,0
39677,538.242,-2346.35,0,0
39937.4,532.83,-2331.64,0,0
40197.7,527.635,-2317.07,0,0
40458,522.343,-2302.81,0,0
40718.3,517.221,-2289.11,0,0
40978.7,511.393,-2275.33,0,0
41239,506.328,-2260.93,0,0
41499.3,501.705,-2246.91,0,0
41759.6,497.261,-2233.24,0,0
42020,493.127,-2219.99,0,0
42280.275,488.749,-2207.65,0,0
42540.6,483.266,-2195.14,0,0
42800.925,478.09,-2182,0,0
43061.25,472.884,-2168.3,0,0
43321.575,469.103,-2154.43,0,0
43581.9,465.647,-2141.45,0,0
43842.225,462.448,-2128.98,0,0
44102.55,457.895,-2116.9,0,0
44362.875,453.979,-2103.64,0,0
44623.2,451.018,-2090.98,0,0
44883.525,447.804,-2078.3,0,0
45143.85,445.383,-2066.08,0,0
45404.175,442.87,-2054.23,0,0
45664.5,440.757,-2042.51,0,0
45924.825,438.758,-2031.4,0,0
46185.15,437.086,-2021.04,0,0
46445.475,434.891,-2010.77,0,0
46705.8,432.232,-2000.96,0,0
46966.125,429.377,-1990.66,0,0
47226.45,426.934,-1980.32,0,0
47486.775,425.087,-1970.19,0,0
47747.1,422.882,-1960.68,0,0
48007.425,420.893,-1950.98,0,0
48267.75,419.386,-1942,0,0
48528.075,417.62,-1933.32,0,0
48788.4,416.062,-1924.82,0,0
49048.725,414.834,-1917.11,0,0
49309.05,412.955,-1910.72,0,0
49569.375,409.952,-1904.63,0,0
49829.7,405.944,-1898.24,0,0
50090.025,401.504,-1891.49,0,0
50350.35,396.784,-1884.5,0,0
50610.675,391.324,-1876.7,0,0
50871.0,386.451,-1868.2,0,0
51131.325,381.768,-1859.74,0,0
51391.65,377.081,-1851.23,0,0
51651.975,372.581,-1842.09,0,0
51912.3,368.544,-1832.93,0,0
52172.625,364.895,-1823.78,0,0
52432.95,361.369,-1814.73,0,0
52693.275,358.101,-1806.02,0,0
52953.6,355.054,-1797.5,0,0
53213.925,351.621,-1789.38,0,0
53474.25,348.323,-1781.16,0,0
53734.575,344.438,-1772.98,0,0
53994.9,340.758,-1764.38,0,0
54255.225,337.218,-1755.38,0,0
54515.55,334.418,-1746.9,0,0
54775.875,331.521,-1738.75,0,0
55036.2,328.31,-1730.67,0,0
55296.525,324.75,-1722.6,0,0
55556.85,321.154,-1713.98,0,0
55817.175,317.669,-1705.32,0,0
56077.5,314.218,-1696.29,0,0
56337.825,311.228,-1686.6,0,0
56598.15,309.155,-1676.83,0,0
56858.475,307.802,-1667.55,0,0
57118.8,306.694,-1658.85,0,0
57379.125,305.857,-1650.49,0,0
57639.45,305.299,-1642.91,0,0
57899.775,304.29,-1635.74,0,0
58160.1,303.187,-1629,0,0
58420.4,301.841,-1622.47,0,0
58680.7,300.071,-1616.06,0,0
58941.1,298.306,-1609.49,0,0
59201.4,296.426,-1603.27,0,0
59461.7,294.345,-1596.99,0,0
59722,291.968,-1590.83,0,0
59982.4,289.336,-1584.47,0,0
60242.7,286.684,-1577.87,0,0
60503,284.156,-1571.26,0,0
60763.3,281.554,-1564.63,0,0
61023.7,278.828,-1557.92,0,0
61284,276.085,-1551.13,0,0
61544.3,273.182,-1544.05,0,0
61804.6,270.399,-1536.67,0,0
62065,267.789,-1528.93,0,0
62325.3,265.562,-1520.74,0,0
62585.6,264.156,-1512.61,0,0
62845.9,263.413,-1504.58,0,0
63106.3,263.121,-1497.1,0,0
63366.6,263.324,-1490.41,0,0
63626.9,263.434,-1484.64,0,0
63887.2,263.024,-1479.62,0,0
64147.6,262.241,-1475.19,0,0
64407.9,259.716,-1470.86,0,0
64668.2,256.92,-1465.37,0,0
64928.5,254.389,-1459.2,0,0
65188.9,252.261,-1452.81,0,0
65449.2,250.799,-1446.56,0,0
65709.5,249.447,-1440.75,0,0
65969.8,247.588,-1435.16,0,0
66230.2,245.639,-1429.69,0,0
66490.5,243.499,-1424.15,0,0
66750.8,241.32,-1418.68,0,0
67011.1,238.74,-1412.85,0,0
67271.5,236.187,-1406.63,0,0
67531.8,233.884,-1400.24,0,0
67792.1,231.822,-1393.75,0,0
68052.4,229.834,-1387.13,0,0
68312.8,228.212,-1380.66,0,0
68573.1,226.472,-1374.23,0,0
68833.4,224.841,-1367.61,0,0
69093.7,223.396,-1361.22,0,0
69354.1,221.889,-1354.75,0,0
69614.4,220.58,-1348.27,0,0
69874.7,219.353,-1341.85,0,0
70135,218.307,-1335.22,0,0
70395.4,217.409,-1328.9,0,0
70655.7,216.647,-1322.49,0,0
70916,215.889,-1316.23,0,0
71176.3,215.44,-1309.91,0,0
71436.7,214.937,-1303.94,0,0
71697,214.652,-1298,0,0
71957.3,214.243,-1292.17,0,0
72217.6,214.01,-1286.28,0,0
72478,213.831,-1280.54,0,0
72738.3,213.841,-1274.9,0,0
72998.6,213.889,-1269.52,0,0
73258.9,213.86,-1264.22,0,0
73519.3,213.92,-1259.22,0,0
73779.6,213.868,-1254.31,0,0
74039.9,213.69,-1249.59,0,0
74300.225,213.275,-1244.75,0,0
74560.55,212.949,-1239.93,0,0
74820.875,212.667,-1235.02,0,0
75081.2,212.448,-1230.28,0,0
75341.525,212.294,-1225.57,0,0
75601.85,212.073,-1220.93,0,0
75862.175,211.826,-1216.44,0,0
76122.5,211.54,-1211.95,0,0
76382.825,211.149,-1207.5,0,0
76643.15,210.707,-1202.99,0,0
76903.475,210.349,-1198.42,0,0
77163.8,210.053,-1193.77,0,0
77424.125,209.82,-1189.19,0,0
77684.45,209.708,-1184.68,0,0
77944.775,209.719,-1180.28,0,0
78205.1,209.751,-1175.99,0,0
78465.425,209.757,-1171.83,0,0
78725.75,209.73,-1167.77,0,0
78986.075,209.722,-1163.79,0,0
79246.4,209.771,-1159.87,0,0
79506.725,209.754,-1156.1,0,0
79767.05,209.654,-1152.44,0,0
80027.375,209.514,-1148.81,0,0
80287.7,209.319,-1145.27,0,0
80548.025,209.022,-1141.8,0,0
80808.35,208.635,-1138.42,0,0
81068.675,208.158,-1135.01,0,0
81329.0,207.563,-1131.55,0,0
81589.325,207.105,-1128.12,0,0
81849.65,206.453,-1124.72,0,0
82109.975,205.762,-1121.25,0,0
82370.3,205.056,-1117.9,0,0
82630.625,204.317,-1114.41,0,0
82890.95,203.507,-1110.96,0,0
83151.275,202.707,-1107.53,0,0
83411.6,201.78,-1104,0,0
83671.925,200.761,-1100.48,0,0
83932.25,199.792,-1096.84,0,0
84192.575,198.834,-1093.09,0,0
84452.9,197.864,-1089.29,0,0
84713.225,196.957,-1085.46,0,0
84973.55,196.236,-1081.41,0,0
85233.875,195.482,-1077.45,0,0
85494.2,194.997,-1073.45,0,0
85754.525,194.428,-1069.6,0,0
86014.85,194.033,-1065.75,0,0
86275.175,193.577,-1061.92,0,0
86535.5,193.184,-1058.2,0,0
86795.825,192.955,-1054.45,0,0
87056.15,192.58,-1050.85,0,0
87316.475,192.211,-1047.3,0,0
87576.8,191.847,-1043.85,0,0
87837.125,191.389,-1040.26,0,0
88097.45,190.888,-1036.65,0,0
88357.775,190.534,-1033.14,0,0
88618.1,190.198,-1029.57,0,0
88878.425,189.918,-1025.98,0,0
89138.75,189.669,-1022.38,0,0
89399.075,189.413,-1018.9,0,0
89659.4,189.133,-1015.48,0,0
89919.725,189.013,-1012.04,0,0
90180,188.994,-1008.67,0,0
90440.4,188.968,-1005.34,0,0
90700.7,188.883,-1002.3,0,0
90961,188.643,-999.413,0,0
91221.3,188.156,-996.371,0,0
91481.7,187.723,-993.336,0,0
91742,187.268,-990.307,0,0
92002.3,186.316,-987.136,0,0
92262.6,185.657,-983.321,0,0
92523,185.621,-979.638,0,0
92783.3,185.672,-976.396,0,0
93043.6,185.355,-973.309,0,0
93303.9,184.875,-970.075,0,0
93564.3,184.486,-966.607,0,0
93824.6,184.201,-962.983,0,0
94084.9,184.173,-959.197,0,0
94345.2,184.478,-955.62,0,0
94605.6,184.945,-952.264,0,0
94865.9,185.727,-949.003,0,0
95126.2,186.357,-946.312,0,0
95386.5,186.612,-943.852,0,0
95646.9,186.739,-941.186,0,0
95907.2,186.981,-938.516,0,0
96167.5,187.105,-936.111,0,0
96427.8,187,-933.552,0,0
96688.2,187.191,-931.198,0,0
96948.5,186.78,-929.073,0,0
97208.8,186.197,-926.749,0,0
97469.1,185.41,-924.089,0,0
97729.5,184.576,-920.928,0,0
97989.8,184.088,-917.579,0,0
98250.1,183.761,-914.012,0,0
98510.4,183.94,-910.212,0,0
98770.8,184.664,-906.477,0,0
99031.1,185.92,-903.094,0,0
99291.4,187.521,-900.368,0,0
99551.7,189.088,-898.237,0,0
99812.1,190.442,-896.626,0,0
100072,191.56,-895.441,0,0
100333,192.261,-894.65,0,0
100593,192.331,-894.061,0,0
100853,191.889,-893.373,0,0
101114,190.904,-892.551,0,0
101374,189.452,-891.029,0,0
101634,188.187,-888.934,0,0
101895,187.422,-886.455,0,0
102155,187.124,-884.128,0,0
102415,186.953,-882.117,0,0
102676,187,-880.222,0,0
102936,187.156,-879.031,0,0
103196,186.583,-878.27,0,0
103457,185.649,-877.375,0,0
103717,184.292,-876.463,0,0
103977,182.855,-875.53,0,0
104238,180.871,-874.58,0,0
104498,178.513,-873.37,0,0
104758,175.667,-871.906,0,0
105019,172.477,-869.764,0,0
105279,169.285,-866.99,0,0
105539,166.203,-863.738,0,0
105800,163.08,-859.85,0,0
106060,160.571,-855.205,0,0
106320.175,158.667,-850.393,0,0
106580.5,157.355,-845.631,0,0
106840.825,156.42,-840.846,0,0
107101.15,155.668,-836.132,0,0
107361.475,155.251,-831.401,0,0
107621.8,155.354,-826.636,0,0
107882.125,155.943,-822.18,0,0
108142.45,156.589,-818.336,0,0
108402.775,157.172,-814.615,0,0
108663.1,157.924,-811.166,0,0
108923.425,158.405,-807.833,0,0
109183.75,158.972,-804.569,0,0
109444.075,159.494,-801.49,0,0
109704.4,159.885,-798.329,0,0
109964.725,160.468,-795.201,0,0
110225.05,160.929,-792.201,0,0
110485.375,161.414,-789.288,0,0
110745.7,161.752,-786.134,0,0
111006.025,162.349,-782.76,0,0
111266.35,163.305,-779.809,0,0
111526.675,163.947,-777.006,0,0
111787.0,164.825,-774.177,0,0
112047.325,165.64,-771.525,0,0
112307.65,166.421,-768.784,0,0
112567.975,167.218,-766.217,0,0
112828.3,168.02,-763.593,0,0
113088.625,168.963,-760.938,0,0
113348.95,170.053,-758.309,0,0
113609.275,171.399,-755.93,0,0
113869.6,172.614,-754.059,0,0
114129.925,173.554,-752.199,0,0
114390.25,174.397,-750.381,0,0
114650.575,175.333,-748.498,0,0
114910.9,176.014,-746.925,0,0
115171.225,176.401,-745.03,0,0
115431.55,177.069,-742.98,0,0
115691.875,177.93,-740.919,0,0
115952.2,179.006,-739.036,0,0
116212.525,180.245,-737.543,0,0
116472.85,181.265,-736.486,0,0
116733.175,181.84,-735.625,0,0
116993.5,182.214,-734.738,0,0
117253.825,182.323,-733.853,0,0
117514.15,181.97,-733.022,0,0
117774.475,181.286,-731.79,0,0
118034.8,180.369,-730.086,0,0
118295.125,179.644,-727.722,0,0
118555.45,179.526,-725.133,0,0
118815.775,179.628,-722.781,0,0
119076.1,179.713,-720.378,0,0
119336.425,179.915,-717.771,0,0
119596.75,180.417,-714.975,0,0
119857.075,181.432,-711.952,0,0
120117.4,183.423,-709.207,0,0
120377.725,185.746,-707.453,0,0
120638.05,187.876,-706.273,0,0
120898.375,189.999,-705.486,0,0
121158.7,192.258,-705.475,0,0
121419.025,193.912,-706.58,0,0
121679.35,194.275,-708.159,0,0
121939.675,193.333,-709.271,0,0
122200.0,191.872,-709.367,0,0
122460,190.529,-708.83,0,0
122721,189.436,-708.036,0,0
122981,188.405,-707.104,0,0
123241,187.347,-706.021,0,0
123502,186.363,-704.745,0,0
123762,185.671,-703.341,0,0
124022,185.084,-702.217,0,0
124283,184.288,-701.239,0,0
124543,183.226,-700.148,0,0
124803,182.056,-698.906,0,0
125064,180.931,-697.364,0,0
125324,179.751,-695.693,0,0
125584,178.882,-693.905,0,0
125845,178.053,-692.283,0,0
126105,177.026,-690.64,0,0
126365,175.918,-688.833,0,0
126626,174.828,-686.894,0,0
126886,173.772,-684.667,0,0
127146,172.779,-682.379,0,0
127406,172.033,-679.827,0,0
127667,171.482,-677.269,0,0
127927,171.115,-674.742,0,0
128187,170.833,-672.156,0,0
128448,171.047,-669.508,0,0
128708,171.466,-667.022,0,0
128968,172.088,-664.965,0,0
129229,172.573,-663.181,0,0
129489,173.082,-661.516,0,0
129749,173.544,-660.089,0,0
130010,173.849,-658.915,0,0
130270,173.954,-657.723,0,0
130530,173.948,-656.557,0,0
130791,173.814,-655.347,0,0
131051,173.721,-654.162,0,0
131311,173.532,-653.038,0,0
131572,173.222,-651.947,0,0
131832,172.922,-650.83,0,0
132092,172.543,-649.763,0,0
132353,171.972,-648.738,0,0
132613,171.367,-647.635,0,0
132873,170.739,-646.601,0,0
133134,169.921,-645.527,0,0
133394,168.917,-644.47,0,0
133654,167.775,-643.243,0,0
133915,166.639,-641.859,0,0
134175,165.383,-640.394,0,0
134435,164.137,-638.807,0,0
134696,162.941,-637.012,0,0
134956,161.751,-635.326,0,0
135216,160.481,-633.448,0,0
135477,159.231,-631.409,0,0
135737,158.041,-629.3,0,0
135997,156.822,-627.104,0,0
136258,155.707,-624.83,0,0
136518,154.643,-622.444,0,0
136778,153.612,-619.963,0,0
137039,152.7,-617.558,0,0
137299,151.778,-615.069,0,0
137559,150.887,-612.481,0,0
137819,150.118,-609.829,0,0
138080,149.422,-607.161,0,0
138340.125,148.836,-604.465,0,0
138600.45,148.206,-601.801,0,0
138860.775,147.664,-599.054,0,0
139121.1,147.19,-596.248,0,0
139381.425,146.888,-593.461,0,0
139641.75,146.64,-590.671,0,0
139902.075,146.461,-587.97,0,0
140162.4,146.204,-585.348,0,0
140422.725,146.012,-582.569,0,0
140683.05,145.925,-579.756,0,0
140943.375,145.984,-576.988,0,0
141203.7,146.107,-574.296,0,0
141464.025,146.27,-571.662,0,0
141724.35,146.469,-569.134,0,0
141984.675,146.585,-566.692,0,0
142245.0,146.626,-564.202,0,0
142505.325,146.696,-561.663,0,0
142765.65,146.778,-559.055,0,0
143025.975,146.931,-556.396,0,0
143286.3,147.186,-553.763,0,0
143546.625,147.481,-551.009,0,0
143806.95,147.956,-548.275,0,0
144067.275,148.616,-545.638,0,0
144327.6,149.382,-543.166,0,0
144587.925,150.202,-540.831,0,0
144848.25,151.058,-538.662,0,0
145108.575,151.881,-536.72,0,0
145368.9,152.569,-534.981,0,0
145629.225,153.049,-533.311,0,0
145889.55,153.309,-531.668,0,0
146149.875,153.43,-529.91,0,0
146410.2,153.514,-528.038,0,0
146670.525,153.59,-526.129,0,0
146930.85,153.59,-524.223,0,0
147191.175,153.585,-522.246,0,0
147451.5,153.508,-520.251,0,0
147711.825,153.366,-518.142,0,0
147972.15,153.209,-515.985,0,0
148232.475,153.022,-513.732,0,0
148492.8,152.843,-511.32,0,0
148753.125,152.754,-508.829,0,0
149013.45,152.741,-506.329,0,0
149273.775,152.668,-503.817,0,0
149534.1,152.55,-501.204,0,0
149794.425,152.454,-498.358,0,0
150054.75,152.549,-495.394,0,0
150315.075,152.802,-492.45,0,0
150575.4,153.027,-489.47,0,0
150835.725,153.309,-486.353,0,0
151096.05,153.753,-483.117,0,0
151356.375,154.376,-479.759,0,0
151616.7,155.2,-476.312,0,0
151877.025,156.305,-472.71,0,0
152137.35,157.909,-469.14,0,0
152397.675,159.921,-465.815,0,0
152658.0,162.366,-463.04,0,0
152918.325,164.812,-460.743,0,0
153178.65,167.052,-459.009,0,0
153438.975,168.996,-457.445,0,0
153699.3,170.687,-456.09,0,0
153959.625,172.164,-454.898,0,0
154219.95,173.185,-453.608,0,0
154480,173.91,-452.229,0,0
154741,174.515,-450.389,0,0
155001,175.239,-448.28,0,0
155261,176.212,-446.003,0,0
155522,177.37,-443.665,0,0
155782,178.801,-441.326,0,0
156042,180.516,-439.042,0,0
156303,182.337,-436.875,0,0
156563,184.496,-434.967,0,0
156823,186.884,-433.553,0,0
157084,189.122,-432.704,0,0
157344,190.929,-432.179,0,0
157604,192.335,-431.802,0,0
157864,193.564,-431.331,0,0
158125,194.323,-430.859,0,0
158385,195.088,-430.23,0,0
158645,195.545,-429.557,0,0
158906,195.892,-428.637,0,0
159166,196.159,-427.676,0,0
159426,196.518,-426.453,0,0
159687,196.929,-425.154,0,0
159947,197.438,-423.853,0,0
160207,197.838,-422.664,0,0
160468,198.177,-421.436,0,0
160728,198.509,-419.977,0,0
160988,198.979,-418.427,0,0
161249,199.505,-417.067,0,0
161509,200.085,-415.765,0,0
161769,200.449,-414.724,0,0
162030,200.544,-413.476,0,0
162290,200.567,-412.055,0,0
162550,200.581,-410.525,0,0
162811,200.661,-408.777,0,0
163071,200.881,-406.966,0,0
163331,201.245,-405.2,0,0
163592,201.632,-403.756,0,0
163852,201.674,-402.292,0,0
164112,201.567,-400.608,0,0
164373,201.35,-398.777,0,0
164633,201.241,-396.671,0,0
164893,201.118,-394.463,0,0
165154,201.053,-392.098,0,0
165414,201.211,-389.469,0,0
165674,201.594,-386.897,0,0
165935,202.159,-384.33,0,0
166195,202.842,-381.766,0,0
166455,203.598,-379.372,0,0
166716,204.278,-377.051,0,0
166976,205.026,-374.732,0,0
167236,205.766,-372.491,0,0
167497,206.421,-370.241,0,0
167757,207.06,-367.84,0,0
168017,207.85,-365.357,0,0
168277,208.672,-362.923,0,0
168538,209.528,-360.534,0,0
168798,210.469,-358.142,0,0
169058,211.428,-355.784,0,0
169319,212.445,-353.474,0,0
169579,213.393,-351.219,0,0
169839,214.34,-348.948,0,0
170100,215.251,-346.727,0,0
170360.075,216.01,-344.469,0,0
170620.4,216.827,-342.062,0,0
170880.725,217.688,-339.621,0,0
171141.05,218.582,-337.184,0,0
171401.375,219.545,-334.751,0,0
171661.7,220.467,-332.174,0,0
171922.025,221.41,-329.662,0,0
172182.35,222.405,-327.146,0,0
172442.675,223.377,-324.65,0,0
172703.0,224.346,-322.1,0,0
172963.325,225.297,-319.49,0,0
173223.65,226.266,-316.816,0,0
173483.975,227.231,-314.139,0,0
173744.3,228.192,-311.497,0,0
174004.625,229.082,-308.634,0,0
174264.95,229.962,-305.732,0,0
174525.275,230.926,-302.715,0,0
174785.6,231.929,-299.563,0,0
175045.925,232.946,-296.306,0,0
175306.25,234.047,-292.964,0,0
175566.575,235.283,-289.496,0,0
175826.9,236.577,-285.971,0,0
176087.225,237.987,-282.378,0,0
176347.55,239.473,-278.666,0,0
176607.875,241.092,-274.86,0,0
176868.2,242.88,-270.952,0,0
177128.525,244.846,-267.004,0,0
177388.85,246.939,-263.123,0,0
177649.175,249.131,-259.152,0,0
177909.5,251.471,-255.104,0,0
178169.825,253.917,-251.018,0,0
178430.15,256.572,-246.845,0,0
178690.475,259.455,-242.669,0,0
178950.8,262.535,-238.434,0,0
179211.125,265.918,-234.189,0,0
179471.45,269.535,-230.069,0,0
179731.775,273.437,-226.074,0,0
179992.1,277.517,-222.216,0,0
180252.425,281.77,-218.576,0,0
180512.75,286.094,-215.119,0,0
180773.075,290.59,-211.839,0,0
181033.4,295.152,-208.674,0,0
181293.725,299.777,-205.732,0,0
181554.05,304.46,-202.859,0,0
181814.375,309.266,-200.161,0,0
182074.7,314.183,-197.688,0,0
182335.025,319.079,-195.466,0,0
182595.35,323.825,-193.449,0,0
182855.675,328.475,-191.547,0,0
183116.0,333.077,-189.611,0,0
183376.325,337.7,-187.739,0,0
183636.65,342.34,-185.945,0,0
183896.975,347.019,-184.118,0,0
184157.3,351.85,-182.437,0,0
184417.625,356.799,-180.978,0,0
184677.95,361.731,-179.899,0,0
184938.275,366.47,-179.073,0,0
185198.6,371.005,-178.447,0,0
185458.925,375.153,-177.975,0,0
185719.25,379.016,-177.562,0,0
185979.575,382.543,-177.082,0,0
186239.9,385.884,-176.48,0,0
186500,389.083,-175.954,0,0
186761,391.777,-175.183,0,0
187021,394.055,-174.193,0,0
187281,395.974,-172.708,0,0
187542,397.717,-170.654,0,0
187802,399.43,-167.909,0,0
188062,401.37,-164.645,0,0
188322,403.458,-160.81,0,0
188583,405.867,-156.556,0,0
188843,408.515,-151.812,0,0
189103,411.558,-146.511,0,0
189364,415.093,-140.776,0,0
189624,419.164,-134.639,0,0
189884,423.883,-128.081,0,0
190145,429.367,-121.154,0,0
190405,435.796,-114.134,0,0
190665,442.989,-107.051,0,0
190926,451.085,-100.015,0,0
191186,460.165,-93.1814,0,0
191446,470.161,-86.8262,0,0
191707,480.815,-81.0349,0,0
191967,491.915,-75.8923,0,0
192227,503.395,-71.2597,0,0
192488,515.191,-67.0361,0,0
192748,527.201,-63.306,0,0
193008,539.461,-59.6364,0,0
193269,552.171,-56.106,0,0
193529,565.626,-52.836,0,0
193789,579.932,-49.9991,0,0
194050,594.729,-47.7984,0,0
194310,610.173,-46.3527,0,0
194570,626.148,-45.6564,0,0
194831,642.585,-45.8617,0,0
195091,659.426,-47.042,0,0
195351,676.245,-49.3746,0,0
195612,693.144,-52.3522,0,0
195872,710.193,-56.1966,0,0
196132,727.168,-61.0105,0,0
196393,744.131,-66.6829,0,0
196653,760.921,-73.1658,0,0
196913,777.546,-80.4587,0,0
197174,793.973,-88.5537,0,0
197434,810.065,-97.5059,0,0
197694,825.844,-107.063,0,0
197955,841.296,-117.119,0,0
198215,856.498,-127.627,0,0
198475,871.84,-138.65,0,0
198735,887.048,-150.483,0,0
198996,902.217,-163.187,0,0
199256,917.22,-176.84,0,0
199516,931.838,-191.508,0,0
199777,945.731,-207.296,0,0
200037,959.15,-223.591,0,0
200297,971.878,-240.349,0,0
200558,984.336,-258.046,0,0
200818,996.3,-276.526,0,0
201078,1007.79,-295.874,0,0
201339,1018.86,-316.243,0,0
201599,1029.08,-337.641,0,0
201859,1038.46,-360.42,0,0
202120,1046.59,-384.395,0,0
202380.025,1052.93,-409.653,0,0
202640.35,1057.37,-435.813,0,0
202900.675,1059.69,-462.275,0,0
203161.0,1059.84,-488.721,0,0
203421.325,1057.92,-514.42,0,0
203681.65,1054.51,-539.81,0,0
203941.975,1049.38,-563.953,0,0
204202.3,1043.14,-587.321,0,0
204462.625,1035.65,-610.233,0,0
204722.95,1027.87,-632.403,0,0
204983.275,1018.66,-653.535,0,0
205243.6,1008.33,-673.676,0,0
205503.925,997.291,-693.253,0,0
205764.25,985.207,-712,0,0
206024.575,972.824,-729.479,0,0
206284.9,959.412,-746.041,0,0
206545.225,945.67,-761.476,0,0
206805.55,931.793,-775.72,0,0
207065.875,917.258,-788.805,0,0
207326.2,902.713,-801.019,0,0
207586.525,888.273,-812.305,0,0
207846.85,873.9,-822.226,0,0
208107.175,859.527,-831.507,0,0
208367.5,845.408,-839.907,0,0
208627.825,831.647,-847.608,0,0
208888.15,818.138,-854.596,0,0
209148.475,805.067,-860.911,0,0
209408.8,792.29,-866.985,0,0
209669.125,779.817,-872.394,0,0
209929.45,767.929,-877.949,0,0
210189.775,756.253,-882.909,0,0
210450.1,744.988,-887.707,0,0
210710.425,734.122,-892.672,0,0
210970.75,723.285,-897.903,0,0
211231.075,712.374,-903.333,0,0
211491.4,700.908,-909.054,0,0
211751.725,689.542,-914.539,0,0
212012.05,677.181,-920.067,0,0
212272.375,664.242,-924.969,0,0
212532.7,650.742,-929.274,0,0
212793.025,637.179,-932.619,0,0
213053.35,623.518,-935.254,0,0
213313.675,609.851,-937.119,0,0
213574.0,596.394,-938.323,0,0
213834.325,583.159,-938.739,0,0
214094.65,570.087,-938.734,0,0
214354.975,557.557,-938.062,0,0
214615.3,545.035,-937.142,0,0
214875.625,533.047,-935.406,0,0
215135.95,521.359,-933.411,0,0
215396.275,510.164,-931.123,0,0
215656.6,499.401,-928.303,0,0
215916.925,489.049,-925.415,0,0
216177.25,478.994,-922.277,0,0
216437.575,469.519,-918.963,0,0
216697.9,460.241,-915.599,0,0
216958.225,451.235,-912.099,0,0
217218.55,442.639,-908.478,0,0
217478.875,434.3,-904.743,0,0
217739.2,426.225,-900.955,0,0
217999.525,418.474,-897.002,0,0
218259.85,410.915,-893.047,0,0
218520,403.556,-889.007,0,0
218780,396.498,-884.851,0,0
219041,389.816,-880.597,0,0
219301,383.244,-876.418,0,0
219561,376.888,-872.218,0,0
219822,370.928,-867.993,0,0
220082,365.01,-863.798,0,0
220342,359.361,-859.407,0,0
220603,353.963,-855.173,0,0
220863,348.559,-850.936,0,0
221123,343.382,-846.595,0,0
221384,338.281,-842.307,0,0
221644,333.562,-837.963,0,0
221904,328.949,-833.576,0,0
222165,324.216,-829.206,0,0
222425,319.908,-824.687,0,0
222685,315.754,-820.222,0,0
222946,311.736,-815.626,0,0
223206,307.858,-811.088,0,0
223466,304.273,-806.38,0,0
223727,300.871,-801.651,0,0
223987,297.676,-797.04,0,0
224247,294.456,-792.366,0,0
224508,291.844,-787.549,0,0
224768,289.309,-782.915,0,0
225028,286.92,-778.27,0,0
225289,284.9,-773.664,0,0
225549,283.26,-769.01,0,0
225809,281.626,-764.631,0,0
226070,280.5,-760.175,0,0
226330,279.496,-756.008,0,0
226590,278.81,-752.095,0,0
226851,278.337,-748.322,0,0
227111,278.062,-744.847,0,0
227371,277.987,-741.645,0,0
227632,277.89,-738.948,0,0
227892,278.091,-736.529,0,0
228152,278.14,-734.498,0,0
228413,278.081,-732.751,0,0
228673,277.822,-731.33,0,0
228933,277.4,-730.209,0,0
229193,276.691,-729.289,0,0
229454,275.747,-728.558,0,0
229714,274.436,-727.765,0,0
229974,273.014,-727.208,0,0
230235,271.146,-726.405,0,0
230495,269.121,-725.495,0,0
230755,266.898,-724.488,0,0
231016,264.591,-723.409,0,0
231276,262.092,-722.061,0,0
231536,259.594,-720.571,0,0
231797,256.965,-718.918,0,0
232057,254.366,-717.07,0,0
232317,251.811,-715.065,0,0
232578,249.287,-712.78,0,0
232838,246.82,-710.495,0,0
233098,244.445,-707.996,0,0
233359,242.13,-705.46,0,0
233619,239.971,-702.686,0,0
233879,237.992,-699.901,0,0
234140,236.056,-697.042,0,0
234400,234.301,-694.193,0,0
234660.3,232.537,-691.173,0,0
234920.625,231.066,-688.192,0,0
235180.95,229.669,-685.211,0,0
235441.275,228.457,-682.313,0,0
235701.6,227.268,-679.403,0,0
235961.925,226.155,-676.46,0,0
236222.25,225.167,-673.52,0,0
236482.575,224.248,-670.577,0,0
236742.9,223.422,-667.707,0,0
237003.225,222.715,-664.847,0,0
237263.55,222.018,-662.034,0,0
237523.875,221.441,-659.2,0,0
237784.2,220.925,-656.429,0,0
238044.525,220.506,-653.671,0,0
238304.85,220.098,-650.955,0,0
238565.175,219.789,-648.234,0,0
238825.5,219.572,-645.594,0,0
239085.825,219.396,-642.955,0,0
239346.15,219.291,-640.362,0,0
239606.475,219.189,-637.834,0,0
239866.8,219.091,-635.491,0,0
240127.125,219.285,-632.956,0,0
240387.45,219.252,-630.495,0,0
240647.775,219.408,-628.166,0,0
240908.1,219.581,-625.82,0,0
241168.425,219.732,-623.443,0,0
241428.75,219.913,-621.096,0,0
241689.075,220.202,-618.871,0,0
241949.4,220.488,-616.569,0,0
242209.725,220.851,-614.304,0,0
242470.05,221.225,-612.067,0,0
242730.375,221.699,-609.867,0,0
242990.7,222.174,-607.688,0,0
243251.025,222.74,-605.461,0,0
243511.35,223.318,-603.337,0,0
243771.675,223.968,-601.183,0,0
244032.0,224.68,-599.072,0,0
244292.325,225.437,-596.997,0,0
244552.65,226.24,-594.835,0,0
244812.975,227.133,-592.843,0,0
245073.3,228.157,-590.709,0,0
245333.625,229.038,-588.832,0,0
245593.95,230.057,-586.765,0,0
245854.275,231.234,-584.597,0,0
246114.6,232.511,-582.628,0,0
246374.925,233.832,-580.646,0,0
246635.25,235.356,-578.626,0,0
246895.575,237.031,-576.613,0,0
247155.9,238.806,-574.698,0,0
247416.225,240.824,-573.016,0,0
247676.55,242.897,-571.337,0,0
247936.875,245.266,-569.857,0,0
248197.2,247.585,-568.53,0,0
248457.525,250.012,-567.337,0,0
248717.85,252.507,-566.558,0,0
248978.175,255.052,-565.819,0,0
249238.5,257.551,-565.263,0,0
249498.825,259.944,-564.93,0,0
249759.15,262.332,-564.752,0,0
250019.475,264.519,-564.755,0,0
250279.8,266.861,-564.65,0,0
250540,268.913,-564.479,0,0
250800,271.095,-564.346,0,0
251061,273.358,-564.247,0,0
251321,275.819,-564.1,0,0
251581,278.472,-564.031,0,0
251842,281.303,-564.059,0,0
252102,284.354,-564.344,0,0
252362,287.644,-564.894,0,0
252623,290.971,-565.781,0,0
252883,294.498,-567.001,0,0
253143,297.971,-568.569,0,0
253404,301.472,-570.675,0,0
253664,304.911,-573.12,0,0
253924,308.16,-575.967,0,0
254185,311.256,-579.213,0,0
254445,314.139,-582.874,0,0
254705,316.615,-586.809,0,0
254966,318.701,-591.214,0,0
255226,320.445,-595.94,0,0
255486,321.699,-600.561,0,0
255747,322.544,-605.484,0,0
256007,322.957,-610.444,0,0
256267,322.984,-615.394,0,0
256528,322.482,-620.329,0,0
256788,321.714,-625.169,0,0
257048,320.536,-629.922,0,0
257309,319.032,-634.609,0,0
257569,317.226,-639.14,0,0
257829,315.069,-643.456,0,0
258090,312.691,-647.591,0,0
258350,310.077,-651.551,0,0
258610,307.161,-655.328,0,0
258871,304.214,-658.89,0,0
259131,300.914,-662.242,0,0
259391,297.535,-665.426,0,0
259651,293.964,-668.215,0,0
259912,290.197,-670.874,0,0
260172,286.471,-673.42,0,0
260432,282.466,-675.636,0,0
260693,278.521,-677.614,0,0
260953,274.532,-679.376,0,0
261213,270.514,-680.825,0,0
261474,266.428,-682.106,0,0
261734,262.436,-683.133,0,0
261994,258.401,-683.946,0,0
262255,254.472,-684.536,0,0
262515,250.57,-684.978,0,0
262775,246.789,-685.26,0,0
263036,242.99,-685.38,0,0
263296,239.332,-685.425,0,0
263556,235.775,-685.315,0,0
263817,232.368,-685.208,0,0
264077,228.874,-684.966,0,0
264337,225.52,-684.507,0,0
264598,222.098,-684.142,0,0
264858,218.818,-683.517,0,0
265118,215.606,-682.868,0,0
265379,212.459,-682.212,0,0
265639,209.5,-681.427,0,0
265899,206.457,-680.575,0,0
266160,203.531,-679.67,0,0
266420,200.582,-678.751,0,0
266680.25,197.787,-677.663,0,0
266940.575,195.072,-676.639,0,0
267200.9,192.439,-675.515,0,0
267461.225,189.788,-674.382,0,0
267721.55,187.236,-673.161,0,0
267981.875,184.805,-671.917,0,0
268242.2,182.404,-670.745,0,0
268502.525,180.085,-669.496,0,0
268762.85,177.784,-668.16,0,0
269023.175,175.585,-666.878,0,0
269283.5,173.374,-665.595,0,0
269543.825,171.168,-664.302,0,0
269804.15,169.165,-663.014,0,0
270064.475,167.131,-661.621,0,0
270324.8,164.952,-660.328,0,0
270585.125,163.004,-658.937,0,0
270845.45,161.078,-657.53,0,0
271105.775,159.169,-656.183,0,0
271366.1,157.242,-654.777,0,0
271626.425,155.416,-653.494,0,0
271886.75,153.644,-651.966,0,0
272147.075,151.833,-650.558,0,0
272407.4,150.095,-649.113,0,0
272667.725,148.423,-647.65,0,0
272928.05,146.697,-646.201,0,0
273188.375,145.06,-644.715,0,0
273448.7,143.475,-643.267,0,0
273709.025,141.86,-641.761,0,0
273969.35,140.328,-640.241,0,0
274229.675,138.812,-638.741,0,0
274490.0,137.234,-637.236,0,0
274750.325,135.819,-635.688,0,0
275010.65,134.356,-634.089,0,0
275270.975,132.986,-632.644,0,0
275531.3,131.564,-631,0,0
275791.625,130.249,-629.464,0,0
276051.95,128.975,-627.861,0,0
276312.275,127.74,-626.275,0,0
276572.6,126.458,-624.69,0,0
276832.925,125.274,-623.13,0,0
277093.25,124.12,-621.521,0,0
277353.575,122.933,-619.957,0,0
277613.9,121.825,-618.372,0,0
277874.225,120.699,-616.804,0,0
278134.55,119.605,-615.177,0,0
278394.875,118.575,-613.574,0,0
278655.2,117.568,-611.96,0,0
278915.525,116.603,-610.268,0,0
279175.85,115.621,-608.577,0,0
279436.175,114.787,-606.945,0,0
279696.5,113.87,-605.231,0,0
279956.825,113.096,-603.565,0,0
280217.15,112.482,-601.869,0,0
280477.475,111.814,-600.218,0,0
280737.8,111.246,-598.636,0,0
280998.125,110.755,-597.084,0,0
281258.45,110.258,-595.562,0,0
281518.775,109.804,-594.136,0,0
281779.1,109.355,-592.741,0,0
282039.425,108.896,-591.426,0,0
282299.75,108.382,-590.131,0,0
282560,107.897,-588.863,0,0
282820,107.382,-587.576,0,0
283081,106.829,-586.329,0,0
283341,106.319,-585.047,0,0
283601,105.812,-583.739,0,0
283862,105.309,-582.467,0,0
284122,104.833,-581.22,0,0
284382,104.388,-579.886,0,0
284643,103.952,-578.563,0,0
284903,103.481,-577.295,0,0
285163,103.157,-576.112,0,0
285424,102.773,-574.817,0,0
285684,102.502,-573.566,0,0
285944,102.212,-572.411,0,0
286205,101.94,-571.293,0,0
286465,101.698,-570.228,0,0
286725,101.444,-569.199,0,0
286986,101.149,-568.257,0,0
287246,100.806,-567.312,0,0
287506,100.396,-566.392,0,0
287767,99.9596,-565.425,0,0
288027,99.5136,-564.444,0,0
288287,99.0775,-563.433,0,0
288548,98.6465,-562.406,0,0
288808,98.2551,-561.369,0,0
289068,97.8394,-560.331,0,0
289329,97.4846,-559.294,0,0
289589,97.094,-558.215,0,0
289849,96.7889,-557.213,0,0
290109,96.4502,-556.215,0,0
290370,96.1295,-555.24,0,0
290630,95.8385,-554.235,0,0
290890,95.5281,-553.321,0,0
291151,95.2354,-552.339,0,0
291411,94.9787,-551.43,0,0
291671,94.6694,-550.527,0,0
291932,94.4245,-549.63,0,0
292192,94.1636,-548.767,0,0
292452,93.9003,-547.938,0,0
292713,93.6347,-547.11,0,0
292973,93.3606,-546.294,0,0
293233,93.0891,-545.571,0,0
293494,92.7707,-544.832,0,0
293754,92.4282,-544.101,0,0
294014,92.0842,-543.412,0,0
294275,91.6522,-542.721,0,0
294535,91.2397,-542.072,0,0
294795,90.7461,-541.357,0,0
295056,90.2442,-540.633,0,0
295316,89.6303,-539.964,0,0
295576,89.0595,-539.185,0,0
295837,88.4984,-538.38,0,0
296097,87.8698,-537.571,0,0
296357,87.2388,-536.713,0,0
296618,86.5879,-535.793,0,0
296878,85.9249,-534.816,0,0
297138,85.3123,-533.797,0,0
297399,84.6796,-532.717,0,0
297659,84.0984,-531.587,0,0
297919,83.586,-530.396,0,0
298180,83.1111,-529.158,0,0
298440,82.7277,-527.927,0,0
298700.2,82.4281,-526.723,0,0
298960.525,82.1937,-525.48,0,0
299220.85,82.0544,-524.221,0,0
299481.175,81.89,-523.083,0,0
299741.5,81.8753,-522.064,0,0
300001.825,81.8467,-521.084,0,0
300262.15,81.806,-520.087,0,0
300522.475,81.7376,-519.144,0,0
300782.8,81.622,-518.193,0,0
301043.125,81.6313,-517.411,0,0
301303.45,81.5105,-516.529,0,0
301563.775,81.4556,-515.758,0,0
301824.1,81.3455,-514.967,0,0
302084.425,81.2134,-514.192,0,0
302344.75,81.0892,-513.419,0,0
302605.075,80.9606,-512.688,0,0
302865.4,80.7508,-511.915,0,0
303125.725,80.5991,-511.09,0,0
303386.05,80.3718,-510.335,0,0
303646.375,80.1429,-509.571,0,0
303906.7,79.9143,-508.723,0,0
304167.025,79.752,-507.911,0,0
304427.35,79.5368,-507.103,0,0
304687.675,79.3854,-506.263,0,0
304948.0,79.1919,-505.41,0,0
305208.325,79.1171,-504.412,0,0
305468.65,79.0151,-503.635,0,0
305728.975,79.0288,-502.695,0,0
305989.3,79.07,-501.839,0,0
306249.625,79.0933,-501.056,0,0
306509.95,79.2085,-500.317,0,0
306770.275,79.315,-499.704,0,0
307030.6,79.4461,-499.103,0,0
307290.925,79.475,-498.587,0,0
307551.25,79.5118,-498.081,0,0
307811.575,79.4963,-497.629,0,0
308071.9,79.3443,-497.214,0,0
308332.225,79.2432,-496.702,0,0
308592.55,79.0791,-496.285,0,0
308852.875,78.8947,-495.83,0,0
309113.2,78.7131,-495.289,0,0
309373.525,78.5033,-494.786,0,0
309633.85,78.2801,-494.272,0,0
309894.175,78.0372,-493.829,0,0
310154.5,77.8048,-493.243,0,0
310414.825,77.5662,-492.714,0,0
310675.15,77.3914,-492.236,0,0
310935.475,77.0866,-491.705,0,0
311195.8,76.8092,-491.227,0,0
311456.125,76.5323,-490.727,0,0
311716.45,76.2767,-490.225,0,0
311976.775,75.9654,-489.656,0,0
312237.1,75.674,-489.172,0,0
312497.425,75.3096,-488.644,0,0
312757.75,75.0151,-488.067,0,0
313018.075,74.6482,-487.563,0,0
313278.4,74.3231,-486.958,0,0
313538.725,73.9847,-486.409,0,0
313799.05,73.6204,-485.794,0,0
314059.375,73.2943,-485.194,0,0
314319.7,72.9269,-484.566,0,0
314580,72.6622,-483.994,0,0
314840,72.3061,-483.263,0,0
315101,72.0011,-482.695,0,0
315361,71.6901,-482.055,0,0
315621,71.4227,-481.425,0,0
315882,71.0945,-480.813,0,0
316142,70.8546,-480.152,0,0
316402,70.4907,-479.558,0,0
316663,70.2231,-478.902,0,0
316923,69.9249,-478.273,0,0
317183,69.6654,-477.718,0,0
317444,69.3537,-477.082,0,0
317704,69.0808,-476.471,0,0
317964,68.7746,-475.844,0,0
318225,68.4183,-475.25,0,0
318485,68.1902,-474.604,0,0
318745,67.8054,-474.009,0,0
319006,67.5004,-473.388,0,0
319266,67.1718,-472.776,0,0
319526,66.8521,-472.106,0,0
319787,66.5136,-471.447,0,0
320047,66.1895,-470.835,0,0
320307,65.8483,-470.122,0,0
320567,65.5235,-469.463,0,0
320828,65.1728,-468.758,0,0
321088,64.8605,-468.054,0,0
321348,64.513,-467.374,0,0
321609,64.2315,-466.666,0,0
321869,63.9824,-465.876,0,0
322129,63.7201,-465.176,0,0
322390,63.4935,-464.416,0,0
322650,63.2544,-463.75,0,0
322910,63.0119,-463.003,0,0
323171,62.8105,-462.326,0,0
323431,62.5931,-461.636,0,0
323691,62.4157,-460.95,0,0
323952,62.1816,-460.259,0,0
324212,61.9497,-459.573,0,0
324472,61.7306,-458.93,0,0
324733,61.5216,-458.29,0,0
324993,61.3296,-457.615,0,0
325253,61.1095,-456.907,0,0
325514,60.8467,-456.262,0,0
325774,60.6559,-455.614,0,0
326034,60.3816,-454.948,0,0
326295,60.2043,-454.255,0,0
326555,59.929,-453.6,0,0
326815,59.6897,-452.889,0,0
327076,59.4837,-452.196,0,0
327336,59.2427,-451.473,0,0
327596,59.0459,-450.815,0,0
327857,58.8509,-450.121,0,0
328117,58.6512,-449.407,0,0
328377,58.4981,-448.752,0,0
328638,58.2982,-448.073,0,0
328898,58.0762,-447.374,0,0
329158,57.9575,-446.636,0,0
329419,57.7424,-445.991,0,0
329679,57.5336,-445.302,0,0
329939,57.4054,-444.608,0,0
330200,57.2307,-443.949,0,0
330460,57.0293,-443.274,0,0
330720.15,56.8801,-442.577,0,0
330980.475,56.6578,-441.906,0,0
331240.8,56.5803,-441.217,0,0
331501.125,56.4019,-440.504,0,0
331761.45,56.2746,-439.881,0,0
332021.775,56.0977,-439.14,0,0
332282.1,55.9025,-438.459,0,0
332542.425,55.7482,-437.801,0,0
332802.75,55.6042,-437.103,0,0
333063.075,55.4616,-436.431,0,0
333323.4,55.3594,-435.733,0,0
333583.725,55.2385,-435.041,0,0
333844.05,55.098,-434.361,0,0
334104.375,54.964,-433.667,0,0
334364.7,54.867,-432.938,0,0
334625.025,54.7634,-432.333,0,0
334885.35,54.6995,-431.618,0,0
335145.675,54.6236,-430.951,0,0
335406.0,54.5031,-430.247,0,0
335666.325,54.4618,-429.605,0,0
335926.65,54.3845,-428.945,0,0
336186.975,54.3142,-428.275,0,0
336447.3,54.1914,-427.643,0,0
336707.625,54.1477,-427.021,0,0
336967.95,54.0642,-426.396,0,0
337228.275,54.0158,-425.719,0,0
337488.6,53.9453,-425.075,0,0
337748.925,53.8626,-424.483,0,0
338009.25,53.8062,-423.901,0,0
338269.575,53.6762,-423.241,0,0
338529.9,53.6376,-422.628,0,0
338790.225,53.5591,-421.985,0,0
339050.55,53.4998,-421.347,0,0
339310.875,53.4258,-420.737,0,0
339571.2,53.3227,-420.142,0,0
339831.525,53.2781,-419.462,0,0
340091.85,53.2148,-418.821,0,0
340352.175,53.1493,-418.154,0,0
340612.5,53.1178,-417.546,0,0
340872.825,53.0627,-416.935,0,0
341133.15,53.0765,-416.27,0,0
341393.475,53.0325,-415.651,0,0
341653.8,53.0095,-415.046,0,0
341914.125,52.9923,-414.404,0,0
342174.45,52.9981,-413.813,0,0
342434.775,53.0336,-413.18,0,0
342695.1,53.0817,-412.615,0,0
342955.425,53.1244,-412.037,0,0
343215.75,53.1525,-411.459,0,0
343476.075,53.2716,-410.961,0,0
343736.4,53.3299,-410.486,0,0
343996.725,53.3311,-410.07,0,0
344257.05,53.3753,-409.627,0,0
344517.375,53.2845,-409.245,0,0
344777.7,53.212,-408.839,0,0
345038.025,53.0727,-408.411,0,0
345298.35,52.9419,-407.96,0,0
345558.675,52.7548,-407.451,0,0
345819.0,52.5667,-406.943,0,0
346079.325,52.4673,-406.428,0,0
346339.65,52.2875,-405.853,0,0
346599.975,52.1019,-405.304,0,0
346860,51.9751,-404.711,0,0
347121,51.9011,-404.096,0,0
347381,51.7446,-403.518,0,0
347641,51.644,-402.948,0,0
347902,51.5511,-402.321,0,0
348162,51.4507,-401.725,0,0
348422,51.4077,-401.117,0,0
348683,51.353,-400.529,0,0
348943,51.2752,-399.934,0,0
349203,51.247,-399.329,0,0
349464,51.215,-398.751,0,0
349724,51.1882,-398.15,0,0
349984,51.1073,-397.555,0,0
350245,51.1094,-396.965,0,0
350505,51.0817,-396.426,0,0
350765,51.0689,-395.843,0,0
351025,50.9975,-395.29,0,0
351286,51.0198,-394.697,0,0
351546,51.0057,-394.127,0,0
351806,50.9956,-393.568,0,0
352067,50.9833,-393.007,0,0
352327,51.0098,-392.444,0,0
352587,51.0081,-391.903,0,0
352848,51.0425,-391.361,0,0
353108,51.0885,-390.833,0,0
353368,51.0805,-390.33,0,0
353629,51.0876,-389.838,0,0
353889,51.0664,-389.3,0,0
354149,51.0979,-388.826,0,0
354410,51.127,-388.31,0,0
354670,51.0918,-387.845,0,0
354930,51.0467,-387.355,0,0
355191,51.0432,-386.845,0,0
355451,50.9835,-386.376,0,0
355711,50.9627,-385.854,0,0
355972,50.9126,-385.388,0,0
356232,50.8829,-384.832,0,0
356492,50.8534,-384.296,0,0
356753,50.8153,-383.781,0,0
357013,50.7878,-383.248,0,0
357273,50.798,-382.703,0,0
357534,50.8015,-382.194,0,0
357794,50.8472,-381.658,0,0
358054,50.8636,-381.154,0,0
358315,50.8851,-380.627,0,0
358575,50.938,-380.167,0,0
358835,50.956,-379.666,0,0
359096,51.0001,-379.23,0,0
359356,51.032,-378.75,0,0
359616,51.1117,-378.302,0,0
359877,51.1107,-377.883,0,0
360137,51.1615,-377.43,0,0
360397,51.1323,-377.014,0,0
360658,51.0992,-376.617,0,0
360918,51.0945,-376.197,0,0
361178,51.1067,-375.775,0,0
361438,51.0741,-375.358,0,0
361699,51.0186,-374.976,0,0
361959,50.9677,-374.558,0,0
362219,50.9435,-374.105,0,0
362480,50.8666,-373.649,0,0
362740.1,50.8223,-373.226,0,0
363000.425,50.7579,-372.816,0,0
363260.75,50.6723,-372.381,0,0
363521.075,50.5922,-371.906,0,0
363781.4,50.5482,-371.447,0,0
364041.725,50.4242,-370.942,0,0
364302.05,50.3732,-370.507,0,0
364562.375,50.299,-370.064,0,0
364822.7,50.2344,-369.523,0,0
365083.025,50.1802,-369.042,0,0
365343.35,50.1595,-368.548,0,0
365603.675,50.0911,-368.063,0,0
365864.0,50.057,-367.576,0,0
366124.325,50.0426,-367.038,0,0
366384.65,49.947,-366.617,0,0
366644.975,49.9803,-366.11,0,0
366905.3,49.9146,-365.61,0,0
367165.625,49.9018,-365.134,0,0
367425.95,49.8727,-364.653,0,0
367686.275,49.856,-364.169,0,0
367946.6,49.7983,-363.682,0,0
368206.925,49.7501,-363.21,0,0
368467.25,49.7866,-362.722,0,0
368727.575,49.7571,-362.25,0,0
368987.9,49.731,-361.738,0,0
369248.225,49.7485,-361.266,0,0
369508.55,49.7365,-360.775,0,0
369768.875,49.7116,-360.267,0,0
370029.2,49.7115,-359.777,0,0
370289.525,49.736,-359.268,0,0
370549.85,49.7151,-358.81,0,0
370810.175,49.738,-358.326,0,0
371070.5,49.7837,-357.841,0,0
371330.825,49.8313,-357.351,0,0
371591.15,49.8292,-356.864,0,0
371851.475,49.9068,-356.424,0,0
372111.8,49.9653,-355.972,0,0
372372.125,50.0287,-355.517,0,0
372632.45,50.1099,-355.072,0,0
372892.775,50.1819,-354.655,0,0
373153.1,50.2042,-354.247,0,0
373413.425,50.3408,-353.886,0,0
373673.75,50.4042,-353.523,0,0
373934.075,50.4491,-353.186,0,0
374194.4,50.4457,-352.886,0,0
374454.725,50.4715,-352.602,0,0
374715.05,50.4481,-352.273,0,0
374975.375,50.3886,-351.979,0,0
375235.7,50.3156,-351.652,0,0
375496.025,50.2169,-351.329,0,0
375756.35,50.1099,-350.961,0,0
376016.675,50.0131,-350.612,0,0
376277.0,49.8782,-350.226,0,0
376537.325,49.7743,-349.816,0,0
376797.65,49.6852,-349.418,0,0
377057.975,49.5544,-349.009,0,0
377318.3,49.4906,-348.572,0,0
377578.625,49.3765,-348.166,0,0
377838.95,49.2663,-347.738,0,0
378099.275,49.1857,-347.34,0,0
378359.6,49.0624,-346.928,0,0
378619.925,48.9568,-346.488,0,0
378880,48.8394,-346.044,0,0
379141,48.6942,-345.628,0,0
379401,48.5903,-345.155,0,0
379661,48.4206,-344.721,0,0
379922,48.2939,-344.256,0,0
380182,48.1543,-343.764,0,0
380442,48.0387,-343.284,0,0
380703,47.8817,-342.764,0,0
380963,47.7515,-342.208,0,0
381223,47.6354,-341.688,0,0
381483,47.5632,-341.113,0,0
381744,47.4685,-340.497,0,0
382004,47.4231,-339.941,0,0
382264,47.3855,-339.345,0,0
382525,47.3953,-338.78,0,0
382785,47.4007,-338.166,0,0
383045,47.4924,-337.607,0,0
383306,47.5761,-337.097,0,0
383566,47.6623,-336.628,0,0
383826,47.7748,-336.198,0,0
384087,47.8119,-335.802,0,0
384347,47.8378,-335.434,0,0
384607,47.8441,-335.028,0,0
384868,47.7702,-334.675,0,0
385128,47.729,-334.255,0,0
385388,47.6636,-333.843,0,0
385649,47.5648,-333.366,0,0
385909,47.4998,-332.949,0,0
386169,47.401,-332.49,0,0
386430,47.3368,-332.019,0,0
386690,47.2451,-331.553,0,0
386950,47.167,-331.073,0,0
387211,47.0846,-330.59,0,0
387471,47.0379,-330.09,0,0
387731,46.9992,-329.603,0,0
387992,46.8742,-329.093,0,0
388252,46.8172,-328.587,0,0
388512,46.7746,-328.053,0,0
388773,46.7274,-327.525,0,0
389033,46.6765,-326.982,0,0
389293,46.6461,-326.481,0,0
389554,46.5721,-325.923,0,0
389814,46.5689,-325.384,0,0
390074,46.5181,-324.878,0,0
390335,46.5093,-324.346,0,0
390595,46.4878,-323.821,0,0
390855,46.4438,-323.291,0,0
391116,46.4379,-322.755,0,0
391376,46.4245,-322.24,0,0
391636,46.4333,-321.698,0,0
391896,46.4003,-321.145,0,0
392157,46.3742,-320.631,0,0
392417,46.4082,-320.091,0,0
392677,46.3963,-319.572,0,0
392938,46.4017,-319.058,0,0
393198,46.4017,-318.506,0,0
393458,46.4097,-317.988,0,0
393719,46.4222,-317.432,0,0
393979,46.4488,-316.923,0,0
394239,46.4202,-316.355,0,0
394500,46.4696,-315.84,0,0
394760.05,46.4561,-315.302,0,0
395020.375,46.4778,-314.755,0,0
395280.7,46.5198,-314.228,0,0
395541.025,46.5506,-313.669,0,0
395801.35,46.5563,-313.134,0,0
396061.675,46.5992,-312.586,0,0
396322.0,46.6159,-312.054,0,0
396582.325,46.6449,-311.502,0,0
396842.65,46.6684,-310.969,0,0
397102.975,46.7246,-310.431,0,0
397363.3,46.7766,-309.879,0,0
397623.625,46.8107,-309.338,0,0
397883.95,46.8397,-308.819,0,0
398144.275,46.9138,-308.238,0,0
398404.6,46.9725,-307.721,0,0
398664.925,47.0118,-307.162,0,0
398925.25,47.0787,-306.631,0,0
399185.575,47.1366,-306.091,0,0
399445.9,47.1843,-305.548,0,0
399706.225,47.2548,-305.009,0,0
399966.55,47.2964,-304.485,0,0
400006.6,47.3296,-304.388,0,0