File: Accelerated corrosion test data/2025-10-03_06-00-02/sample_8.csv
Frequency (Hz),Impedance (ohms),Phase (Radians),Temperature (C),Humidity (%)
10000.0,313.633,-10946.1,0,0
10260.325,305.549,-10672.1,0,0
10520.65,297.852,-10411,0,0
10780.975,290.833,-10162.9,0,0
11041.3,284.412,-9926.33,0,0
11301.625,277.898,-9701.2,0,0
11561.95,271.786,-9484.72,0,0
11822.275,266.057,-9278.97,0,0
12082.6,262.814,-9078.47,0,0
12342.925,260.647,-8892.38,0,0
12603.25,255.207,-8711.85,0,0
12863.575,251.463,-8540.62,0,0
13123.9,243.728,-8376.9,0,0
13384.225,237.42,-8214.93,0,0
13644.55,233.672,-8059.16,0,0
13904.875,226.949,-7912.45,0,0
14165.2,221.585,-7768.52,0,0
14425.525,217.685,-7629.65,0,0
14685.8,213.873,-7494.74,0,0
14946.175,210.067,-7365.73,0,0
15206.5,206.719,-7240.54,0,0
15466.825,203.548,-7120.28,0,0
15727.15,200.192,-7003.34,0,0
15987.5,196.895,-6890.58,0,0
16247.8,193.753,-6780.98,0,0
16508.125,190.83,-6675.23,0,0
16768.45,187.654,-6572.37,0,0
17028.775,185.032,-6472.37,0,0
17289.1,181.943,-6375.62,0,0
17549.425,179.466,-6281.57,0,0
17809.75,177.444,-6189.67,0,0
18070.075,174.907,-6102.05,0,0
18330.4,172.147,-6015.51,0,0
18590.725,170.415,-5930.62,0,0
18851.05,170.027,-5847.1,0,0
19111.375,168.491,-5768.91,0,0
19371.7,170.858,-5691.44,0,0
19632.025,167.368,-5620.25,0,0
19892.35,164.855,-5550.02,0,0
20152.675,161.364,-5477.41,0,0
20413.0,160.641,-5407.14,0,0
20673.3,159.909,-5340.17,0,0
20933.65,158.787,-5276.13,0,0
21193.975,156.104,-5213.05,0,0
21454.3,153.281,-5148.81,0,0
21714.625,151.472,-5087.17,0,0
21974.9,151.696,-5027.18,0,0
22235.275,151.705,-4968.86,0,0
22495.6,149.343,-4912.93,0,0
22755.925,148.398,-4859.13,0,0
23016.25,144.433,-4804.67,0,0
23276.6,142.673,-4753.15,0,0
23536.9,140.215,-4699.56,0,0
23797.225,138.49,-4648.25,0,0
24057.55,136.626,-4598.04,0,0
24317.875,134.776,-4548.39,0,0
24578.2,132.697,-4500.45,0,0
24838.525,131.621,-4452.78,0,0
25098.85,130.679,-4406.84,0,0
25359.175,129.021,-4361.41,0,0
25619.5,128.361,-4316.66,0,0
25879.8,126.543,-4272.75,0,0
26140.1,125.979,-4230.87,0,0
26400.5,124.892,-4188.83,0,0
26660.8,123.301,-4147.63,0,0
26921.1,122.805,-4106.65,0,0
27181.4,122.992,-4067.42,0,0
27441.8,121.406,-4028.36,0,0
27702.1,120.987,-3991.36,0,0
27962.4,119.164,-3954.28,0,0
28222.7,119.382,-3915.91,0,0
28483.1,118.253,-3881.03,0,0
28743.4,118.048,-3845.26,0,0
29003.7,117.814,-3811.07,0,0
29264,117.402,-3776.14,0,0
29524.4,116.653,-3743.26,0,0
29784.7,116.348,-3710.19,0,0
30045,116.732,-3678.74,0,0
30305.3,116.327,-3647.62,0,0
30565.7,115.681,-3617.04,0,0
30826,114.303,-3586.6,0,0
31086.3,113.798,-3556.76,0,0
31346.6,112.969,-3526.76,0,0
31607,112.773,-3497.27,0,0
31867.3,112.317,-3468.76,0,0
32127.6,111.767,-3440.73,0,0
32387.9,111.326,-3412.99,0,0
32648.3,111.287,-3384.99,0,0
32908.6,111.552,-3357.54,0,0
33168.9,111.694,-3331.68,0,0
33429.2,112.905,-3305.85,0,0
33689.6,113.809,-3280.8,0,0
33949.9,113.714,-3257.83,0,0
34210.2,112.886,-3234.07,0,0
34470.5,112.141,-3210.61,0,0
34730.9,111.333,-3186.92,0,0
34991.2,111.529,-3164.04,0,0
35251.5,110.838,-3142.3,0,0
35511.8,109.856,-3120.51,0,0
35772.2,108.435,-3098.84,0,0
36032.5,107.224,-3077.15,0,0
36292.8,105.668,-3056.1,0,0
36553.1,104.31,-3034.61,0,0
36813.5,102.862,-3013.38,0,0
37073.8,101.528,-2992.46,0,0
37334.1,100.324,-2971.81,0,0
37594.4,98.7046,-2951.49,0,0
37854.8,97.4012,-2931.23,0,0
38115.1,95.8358,-2911.33,0,0
38375.4,94.7098,-2891.37,0,0
38635.7,93.2462,-2871.5,0,0
38896.1,92.1643,-2851.93,0,0
39156.4,91.0306,-2832.59,0,0
39416.7,89.5819,-2813.11,0,0
39677,88.7745,-2793.97,0,0
39937.4,87.4897,-2775.57,0,0
40197.7,86.6023,-2756.15,0,0
40458,86.6882,-2737.62,0,0
40718.3,86.3505,-2719.74,0,0
40978.7,85.7959,-2702.19,0,0
41239,85.0339,-2684.59,0,0
41499.3,84.6491,-2667.3,0,0
41759.6,84.1686,-2650.09,0,0
42020,83.6844,-2633.49,0,0
42280.275,83.0683,-2616.74,0,0
42540.6,82.8597,-2599.98,0,0
42800.925,82.3471,-2583.4,0,0
43061.25,82.5202,-2567.24,0,0
43321.575,82.661,-2551.5,0,0
43581.9,82.6463,-2536.25,0,0
43842.225,82.1071,-2521.82,0,0
44102.55,81.4642,-2506.9,0,0
44362.875,80.8345,-2491.99,0,0
44623.2,80.0966,-2477.32,0,0
44883.525,79.3157,-2462.4,0,0
45143.85,78.879,-2447.84,0,0
45404.175,78.3208,-2433.39,0,0
45664.5,77.8598,-2419.01,0,0
45924.825,77.3454,-2405.02,0,0
46185.15,76.7247,-2390.91,0,0
46445.475,76.3215,-2376.97,0,0
46705.8,75.7581,-2363.13,0,0
46966.125,75.5879,-2349.6,0,0
47226.45,75.2958,-2336.25,0,0
47486.775,74.9524,-2322.93,0,0
47747.1,74.8303,-2309.74,0,0
48007.425,74.473,-2296.9,0,0
48267.75,74.1007,-2284.21,0,0
48528.075,73.6785,-2271.63,0,0
48788.4,73.4836,-2259.41,0,0
49048.725,72.9055,-2246.98,0,0
49309.05,72.2987,-2234.55,0,0
49569.375,71.9754,-2222.21,0,0
49829.7,71.7037,-2210.28,0,0
50090.025,71.2326,-2198.3,0,0
50350.35,71.0293,-2186.18,0,0
50610.675,70.726,-2174.34,0,0
50871.0,70.4259,-2162.67,0,0
51131.325,70.3029,-2151.13,0,0
51391.65,70.0037,-2139.58,0,0
51651.975,70.047,-2128.25,0,0
51912.3,69.9968,-2117.13,0,0
52172.625,69.9758,-2106.16,0,0
52432.95,69.731,-2095.46,0,0
52693.275,69.5708,-2084.58,0,0
52953.6,69.6035,-2073.91,0,0
53213.925,69.693,-2063.58,0,0
53474.25,69.5513,-2053.36,0,0
53734.575,69.5552,-2043.35,0,0
53994.9,69.271,-2033.77,0,0
54255.225,68.4592,-2023.95,0,0
54515.55,67.658,-2013.94,0,0
54775.875,67.121,-2003.79,0,0
55036.2,66.7445,-1994.19,0,0
55296.525,66.1804,-1984.39,0,0
55556.85,65.4758,-1974.57,0,0
55817.175,64.9334,-1964.51,0,0
56077.5,64.4287,-1954.77,0,0
56337.825,63.8569,-1945.05,0,0
56598.15,63.5335,-1935.33,0,0
56858.475,63.1377,-1925.57,0,0
57118.8,63.0018,-1916.05,0,0
57379.125,62.8944,-1906.64,0,0
57639.45,62.6163,-1897.27,0,0
57899.775,62.4371,-1888.08,0,0
58160.1,62.3129,-1878.85,0,0
58420.4,62.2369,-1869.79,0,0
58680.7,62.3299,-1860.79,0,0
58941.1,62.3943,-1851.87,0,0
59201.4,62.528,-1843.39,0,0
59461.7,62.3871,-1835.06,0,0
59722,61.9853,-1826.71,0,0
59982.4,61.5375,-1818.18,0,0
60242.7,61.2445,-1809.65,0,0
60503,60.9569,-1801.11,0,0
60763.3,60.728,-1792.57,0,0
61023.7,60.6974,-1784.07,0,0
61284,60.6327,-1775.77,0,0
61544.3,60.6666,-1767.48,0,0
61804.6,60.8239,-1759.51,0,0
62065,60.5758,-1751.6,0,0
62325.3,60.4566,-1743.45,0,0
62585.6,60.473,-1735.48,0,0
62845.9,60.5696,-1727.61,0,0
63106.3,60.7331,-1719.66,0,0
63366.6,60.8705,-1711.83,0,0
63626.9,61.252,-1704.35,0,0
63887.2,61.457,-1696.93,0,0
64147.6,61.5927,-1689.52,0,0
64407.9,62.0878,-1682.27,0,0
64668.2,62.3498,-1675.4,0,0
64928.5,62.2022,-1668.65,0,0
65188.9,62.2129,-1661.75,0,0
65449.2,62.0357,-1654.97,0,0
65709.5,61.8415,-1648.35,0,0
65969.8,61.4116,-1641.38,0,0
66230.2,61.1101,-1634.6,0,0
66490.5,60.6464,-1628.07,0,0
66750.8,60.0273,-1621.21,0,0
67011.1,59.5485,-1614.14,0,0
67271.5,59.356,-1607.05,0,0
67531.8,59.0272,-1600.14,0,0
67792.1,58.9585,-1593.37,0,0
68052.4,58.6475,-1586.52,0,0
68312.8,58.4954,-1579.73,0,0
68573.1,58.3577,-1573.08,0,0
68833.4,58.2573,-1566.32,0,0
69093.7,58.1168,-1559.72,0,0
69354.1,57.8851,-1552.97,0,0
69614.4,57.9096,-1546.32,0,0
69874.7,57.9671,-1539.77,0,0
70135,58.031,-1533.25,0,0
70395.4,58.186,-1526.73,0,0
70655.7,58.3402,-1520.48,0,0
70916,58.5692,-1514.36,0,0
71176.3,58.6111,-1508.26,0,0
71436.7,58.686,-1502.22,0,0
71697,58.7538,-1496.13,0,0
71957.3,58.887,-1490.24,0,0
72217.6,58.8881,-1484.44,0,0
72478,59.0499,-1478.71,0,0
72738.3,58.8902,-1473.14,0,0
72998.6,58.5549,-1467.52,0,0
73258.9,58.2185,-1461.66,0,0
73519.3,57.9189,-1455.7,0,0
73779.6,57.8062,-1449.73,0,0
74039.9,57.8013,-1443.83,0,0
74300.225,57.8598,-1438.19,0,0
74560.55,57.7364,-1432.61,0,0
74820.875,57.5634,-1426.94,0,0
75081.2,57.4127,-1421.2,0,0
75341.525,57.4051,-1415.57,0,0
75601.85,57.2172,-1409.93,0,0
75862.175,57.3393,-1404.2,0,0
76122.5,57.3691,-1398.65,0,0
76382.825,57.4378,-1393.18,0,0
76643.15,57.4823,-1387.77,0,0
76903.475,57.5974,-1382.45,0,0
77163.8,57.5154,-1377.18,0,0
77424.125,57.4374,-1371.9,0,0
77684.45,57.4348,-1366.57,0,0
77944.775,57.417,-1361.31,0,0
78205.1,57.3146,-1356.12,0,0
78465.425,57.2618,-1350.97,0,0
78725.75,57.0525,-1345.78,0,0
78986.075,56.9629,-1340.36,0,0
79246.4,56.9818,-1335.08,0,0
79506.725,56.9068,-1329.98,0,0
79767.05,56.9101,-1324.7,0,0
80027.375,56.9012,-1319.51,0,0
80287.7,56.9682,-1314.35,0,0
80548.025,57.1542,-1309.15,0,0
80808.35,57.2621,-1304.13,0,0
81068.675,57.2891,-1299.21,0,0
81329.0,57.3406,-1294.09,0,0
81589.325,57.4272,-1289.08,0,0
81849.65,57.4339,-1284.07,0,0
82109.975,57.4918,-1279.05,0,0
82370.3,57.6831,-1273.92,0,0
82630.625,58.0055,-1268.83,0,0
82890.95,58.3672,-1263.95,0,0
83151.275,58.7138,-1259.13,0,0
83411.6,59.0089,-1254.42,0,0
83671.925,59.1915,-1249.59,0,0
83932.25,59.6632,-1244.7,0,0
84192.575,60.3661,-1240.14,0,0
84452.9,60.7418,-1235.73,0,0
84713.225,61.1302,-1231.4,0,0
84973.55,61.4754,-1226.98,0,0
85233.875,61.9114,-1222.86,0,0
85494.2,61.8834,-1218.81,0,0
85754.525,61.8415,-1214.57,0,0
86014.85,61.5788,-1210.18,0,0
86275.175,61.6549,-1205.57,0,0
86535.5,61.5788,-1201.17,0,0
86795.825,61.6216,-1196.48,0,0
87056.15,61.9037,-1191.94,0,0
87316.475,62.228,-1187.37,0,0
87576.8,62.4775,-1182.99,0,0
87837.125,62.5794,-1178.49,0,0
88097.45,62.9999,-1173.94,0,0
88357.775,63.478,-1169.53,0,0
88618.1,63.9378,-1165.24,0,0
88878.425,64.3011,-1160.97,0,0
89138.75,64.7471,-1156.74,0,0
89399.075,65.2011,-1152.36,0,0
89659.4,65.6527,-1148.19,0,0
89919.725,66.1731,-1143.96,0,0
90180,66.718,-1139.71,0,0
90440.4,67.3112,-1135.54,0,0
90700.7,68.0801,-1131.38,0,0
90961,68.7673,-1127.33,0,0
91221.3,69.6008,-1123.32,0,0
91481.7,70.6155,-1119.35,0,0
91742,71.7392,-1115.84,0,0
92002.3,72.7937,-1112.36,0,0
92262.6,73.6299,-1109.15,0,0
92523,74.4952,-1106,0,0
92783.3,75.0673,-1103.16,0,0
93043.6,75.5061,-1100.28,0,0
93303.9,75.7089,-1097.54,0,0
93564.3,75.356,-1094.75,0,0
93824.6,74.8913,-1091.24,0,0
94084.9,74.8445,-1087.58,0,0
94345.2,74.933,-1084.02,0,0
94605.6,74.9773,-1080.59,0,0
94865.9,75.0111,-1076.86,0,0
95126.2,75.5025,-1073.33,0,0
95386.5,75.524,-1070.05,0,0
95646.9,75.7258,-1066.32,0,0
95907.2,76.1192,-1062.99,0,0
96167.5,76.2498,-1059.79,0,0
96427.8,76.1743,-1056.2,0,0
96688.2,76.5126,-1052.43,0,0
96948.5,77.1026,-1048.98,0,0
97208.8,77.5834,-1045.73,0,0
97469.1,77.9229,-1042.43,0,0
97729.5,78.5054,-1039.07,0,0
97989.8,79.0656,-1036.05,0,0
98250.1,79.4999,-1033.07,0,0
98510.4,79.8626,-1030.11,0,0
98770.8,80.249,-1027.15,0,0
99031.1,80.6808,-1024.41,0,0
99291.4,80.8762,-1021.85,0,0
99551.7,80.6973,-1019.16,0,0
99812.1,80.4649,-1016.17,0,0
100072,80.3778,-1012.94,0,0
100333,80.6002,-1009.83,0,0
100593,80.8553,-1006.84,0,0
100853,81.0988,-1004.07,0,0
101114,81.1412,-1001.41,0,0
101374,80.8996,-998.585,0,0
101634,80.8313,-995.653,0,0
101895,80.802,-992.763,0,0
102155,80.6568,-990.037,0,0
102415,80.4605,-987.098,0,0
102676,80.2598,-984.103,0,0
102936,80.1158,-981.054,0,0
103196,79.9978,-978.071,0,0
103457,79.8431,-975.042,0,0
103717,79.8346,-972.038,0,0
103977,79.7501,-969.081,0,0
104238,79.5659,-966.128,0,0
104498,79.3243,-963.192,0,0
104758,79.0568,-960.04,0,0
105019,78.9546,-956.894,0,0
105279,78.7452,-953.755,0,0
105539,78.6669,-950.446,0,0
105800,78.7284,-947.202,0,0
106060,78.9043,-943.94,0,0
106320.175,79.1537,-940.821,0,0
106580.5,79.4235,-937.685,0,0
106840.825,79.7809,-934.74,0,0
107101.15,80.0496,-931.85,0,0
107361.475,80.3544,-929.092,0,0
107621.8,80.4252,-926.394,0,0
107882.125,80.4523,-923.691,0,0
108142.45,80.4046,-920.817,0,0
108402.775,80.3679,-917.803,0,0
108663.1,80.5971,-914.786,0,0
108923.425,80.8682,-911.902,0,0
109183.75,81.0519,-909.074,0,0
109444.075,81.3112,-906.265,0,0
109704.4,81.5689,-903.533,0,0
109964.725,81.8009,-900.945,0,0
110225.05,81.993,-898.3,0,0
110485.375,82.0741,-895.796,0,0
110745.7,82.1423,-893.249,0,0
111006.025,82.2586,-890.652,0,0
111266.35,82.2641,-888.045,0,0
111526.675,82.1968,-885.459,0,0
111787.0,82.1538,-882.7,0,0
112047.325,82.1768,-879.979,0,0
112307.65,82.2571,-877.34,0,0
112567.975,82.3094,-874.741,0,0
112828.3,82.3808,-872.151,0,0
113088.625,82.3661,-869.553,0,0
113348.95,82.3035,-867.033,0,0
113609.275,82.3823,-864.393,0,0
113869.6,82.3071,-861.873,0,0
114129.925,82.2469,-859.306,0,0
114390.25,82.1452,-856.763,0,0
114650.575,81.9687,-854.132,0,0
114910.9,81.874,-851.429,0,0
115171.225,81.8521,-848.73,0,0
115431.55,81.8567,-846.13,0,0
115691.875,81.831,-843.525,0,0
115952.2,81.7782,-840.952,0,0
116212.525,81.716,-838.37,0,0
116472.85,81.6446,-835.829,0,0
116733.175,81.533,-833.261,0,0
116993.5,81.3455,-830.712,0,0
117253.825,81.1081,-828.071,0,0
117514.15,80.897,-825.4,0,0
117774.475,80.7325,-822.618,0,0
118034.8,80.6597,-819.869,0,0
118295.125,80.5231,-817.071,0,0
118555.45,80.5135,-814.204,0,0
118815.775,80.6225,-811.349,0,0
119076.1,80.8747,-808.697,0,0
119336.425,80.9508,-806.237,0,0
119596.75,80.8513,-803.757,0,0
119857.075,80.6898,-801.119,0,0
120117.4,80.5827,-798.452,0,0
120377.725,80.5324,-795.738,0,0
120638.05,80.5141,-793.045,0,0
120898.375,80.4194,-790.365,0,0
121158.7,80.3695,-787.542,0,0
121419.025,80.4282,-784.832,0,0
121679.35,80.4641,-782.175,0,0
121939.675,80.3961,-779.45,0,0
122200.0,80.4502,-776.643,0,0
122460,80.5591,-773.89,0,0
122721,80.7173,-771.182,0,0
122981,80.8518,-768.56,0,0
123241,80.9286,-766.042,0,0
123502,80.8735,-763.486,0,0
123762,80.8372,-760.746,0,0
124022,80.804,-758.034,0,0
124283,80.7583,-755.187,0,0
124543,80.8868,-752.329,0,0
124803,81.0681,-749.519,0,0
125064,81.2652,-746.766,0,0
125324,81.4987,-744.046,0,0
125584,81.7588,-741.372,0,0
125845,81.9301,-738.729,0,0
126105,82.1282,-736.067,0,0
126365,82.3,-733.398,0,0
126626,82.5014,-730.652,0,0
126886,82.7757,-727.994,0,0
127146,83.052,-725.441,0,0
127406,83.3841,-722.863,0,0
127667,83.6702,-720.251,0,0
127927,83.9069,-717.749,0,0
128187,84.0704,-715.235,0,0
128448,84.2923,-712.702,0,0
128708,84.544,-710.197,0,0
128968,84.7299,-707.806,0,0
129229,84.7988,-705.388,0,0
129489,84.8071,-702.877,0,0
129749,84.8251,-700.377,0,0
130010,84.7253,-697.848,0,0
130270,84.6049,-695.164,0,0
130530,84.4627,-692.388,0,0
130791,84.3253,-689.428,0,0
131051,84.3236,-686.329,0,0
131311,84.5027,-683.052,0,0
131572,85.1734,-679.711,0,0
131832,86.1909,-676.979,0,0
132092,86.8652,-674.669,0,0
132353,87.1473,-672.374,0,0
132613,87.2282,-669.959,0,0
132873,87.1724,-667.215,0,0
133134,87.3523,-664.163,0,0
133394,87.9377,-661.184,0,0
133654,88.5452,-658.52,0,0
133915,89.0241,-655.874,0,0
134175,89.445,-653.262,0,0
134435,89.8983,-650.56,0,0
134696,90.3219,-647.943,0,0
134956,90.681,-645.292,0,0
135216,91.086,-642.499,0,0
135477,91.6189,-639.633,0,0
135737,92.3111,-636.891,0,0
135997,93.0996,-634.253,0,0
136258,93.9032,-631.83,0,0
136518,94.5911,-629.518,0,0
136778,95.1865,-627.191,0,0
137039,95.8509,-624.969,0,0
137299,96.3009,-623.027,0,0
137559,96.4895,-621.011,0,0
137819,96.4523,-618.949,0,0
138080,96.2092,-616.672,0,0
138340.125,95.8622,-614.163,0,0
138600.45,95.5138,-611.345,0,0
138860.775,95.3706,-608.267,0,0
139121.1,95.484,-605.125,0,0
139381.425,95.7145,-602.026,0,0
139641.75,96.0873,-598.998,0,0
139902.075,96.4706,-596.087,0,0
140162.4,96.8275,-593.142,0,0
140422.725,97.1638,-590.278,0,0
140683.05,97.4298,-587.448,0,0
140943.375,97.5629,-584.476,0,0
141203.7,97.7275,-581.327,0,0
141464.025,97.9555,-578.082,0,0
141724.35,98.2915,-574.74,0,0
141984.675,98.7853,-571.383,0,0
142245.0,99.3288,-568.117,0,0
142505.325,99.7941,-564.776,0,0
142765.65,100.369,-561.341,0,0
143025.975,101.097,-557.912,0,0
143286.3,101.782,-554.605,0,0
143546.625,102.377,-551.252,0,0
143806.95,102.984,-547.741,0,0
144067.275,103.652,-544.067,0,0
144327.6,104.443,-540.288,0,0
144587.925,105.38,-536.426,0,0
144848.25,106.469,-532.476,0,0
145108.575,107.779,-528.438,0,0
145368.9,109.314,-524.462,0,0
145629.225,111.025,-520.498,0,0
145889.55,113.081,-516.589,0,0
146149.875,115.358,-512.992,0,0
146410.2,117.579,-509.771,0,0
146670.525,119.644,-506.645,0,0
146930.85,121.672,-503.483,0,0
147191.175,123.768,-500.276,0,0
147451.5,126.116,-497.142,0,0
147711.825,128.582,-494.344,0,0
147972.15,130.905,-492.051,0,0
148232.475,132.548,-490.009,0,0
148492.8,133.553,-487.521,0,0
148753.125,134.476,-484.302,0,0
149013.45,135.723,-480.595,0,0
149273.775,137.293,-476.61,0,0
149534.1,139.281,-472.276,0,0
149794.425,141.972,-467.968,0,0
150054.75,145.079,-464.062,0,0
150315.075,148.317,-460.251,0,0
150575.4,151.821,-456.569,0,0
150835.725,155.614,-453.058,0,0
151096.05,159.642,-449.68,0,0
151356.375,164.124,-446.28,0,0
151616.7,169.43,-443.261,0,0
151877.025,175.412,-441.415,0,0
152137.35,181.102,-440.976,0,0
152397.675,185.905,-441.415,0,0
152658.0,190.025,-442.178,0,0
152918.325,193.313,-443.246,0,0
153178.65,195.819,-444.186,0,0
153438.975,197.874,-444.851,0,0
153699.3,199.578,-445.283,0,0
153959.625,200.997,-445.422,0,0
154219.95,202.196,-445.423,0,0
154480,202.965,-445.181,0,0
154741,203.307,-444.11,0,0
155001,204.249,-442.256,0,0
155261,205.748,-439.904,0,0
155522,208.217,-437.626,0,0
155782,211.44,-436.035,0,0
156042,214.923,-435.183,0,0
156303,218.315,-435.247,0,0
156563,221.404,-436.614,0,0
156823,222.932,-438.672,0,0
157084,222.889,-440.519,0,0
157344,221.532,-441.517,0,0
157604,219.129,-440.806,0,0
157864,217.382,-437.978,0,0
158125,216.784,-434.357,0,0
158385,217.185,-430.477,0,0
158645,218.408,-426.471,0,0
158906,220.568,-422.431,0,0
159166,223.819,-418.545,0,0
159426,228.3,-415.419,0,0
159687,233.547,-414.025,0,0
159947,238.172,-414.541,0,0
160207,241.109,-416.166,0,0
160468,242.513,-417.613,0,0
160728,242.974,-418.382,0,0
160988,242.579,-418.479,0,0
161249,241.733,-417.031,0,0
161509,241.56,-414.279,0,0
161769,242.693,-411.033,0,0
162030,244.607,-408.094,0,0
162290,246.946,-405.28,0,0
162550,249.903,-402.661,0,0
162811,253.529,-400.457,0,0
163071,257.341,-399.073,0,0
163331,261.166,-398.288,0,0
163592,264.888,-397.982,0,0
163852,268.507,-398.453,0,0
164112,271.637,-399.429,0,0
164373,274.078,-400.966,0,0
164633,275.373,-402.32,0,0
164893,276.314,-402.96,0,0
165154,277.642,-403.278,0,0
165414,278.982,-403.661,0,0
165674,280.466,-404.219,0,0
165935,282.115,-405.282,0,0
166195,283.152,-407.061,0,0
166455,283.279,-409.213,0,0
166716,282.223,-411.186,0,0
166976,280.194,-412.498,0,0
167236,277.55,-412.879,0,0
167497,274.864,-412.108,0,0
167757,272.488,-410.597,0,0
168017,270.27,-408.824,0,0
168277,267.996,-406.652,0,0
168538,265.86,-403.717,0,0
168798,264.082,-400.263,0,0
169058,262.787,-396.567,0,0
169319,261.778,-392.569,0,0
169579,261.049,-388.248,0,0
169839,260.874,-383.567,0,0
170100,261.305,-379.107,0,0
170360.075,261.885,-374.938,0,0
170620.4,262.295,-370.669,0,0
170880.725,262.937,-366.07,0,0
171141.05,264.031,-361.361,0,0
171401.375,265.303,-356.743,0,0
171661.7,266.661,-352.219,0,0
171922.025,267.926,-347.3,0,0
172182.35,269.751,-341.918,0,0
172442.675,272.13,-336.422,0,0
172703.0,275.195,-330.938,0,0
172963.325,278.764,-325.803,0,0
173223.65,282.803,-321.034,0,0
173483.975,286.727,-316.839,0,0
173744.3,290.842,-312.618,0,0
174004.625,295.162,-308.477,0,0
174264.95,299.863,-304.589,0,0
174525.275,304.789,-301.23,0,0
174785.6,309.769,-298.507,0,0
175045.925,314.252,-296.302,0,0
175306.25,318.233,-293.898,0,0
175566.575,322.11,-291.633,0,0
175826.9,325.446,-289.193,0,0
176087.225,328.606,-286.157,0,0
176347.55,331.995,-282.592,0,0
176607.875,335.818,-278.658,0,0
176868.2,340.321,-274.564,0,0
177128.525,345.365,-270.789,0,0
177388.85,350.677,-267.313,0,0
177649.175,356.124,-264.076,0,0
177909.5,361.515,-261.166,0,0
178169.825,366.947,-257.979,0,0
178430.15,372.87,-254.781,0,0
178690.475,379.023,-251.791,0,0
178950.8,385.693,-248.95,0,0
179211.125,392.499,-246.601,0,0
179471.45,399.5,-244.501,0,0
179731.775,406.708,-242.925,0,0
179992.1,413.766,-241.728,0,0
180252.425,420.685,-240.789,0,0
180512.75,427.622,-239.937,0,0
180773.075,434.628,-239.362,0,0
181033.4,441.63,-238.963,0,0
181293.725,448.658,-239.069,0,0
181554.05,455.225,-239.647,0,0
181814.375,461.3,-239.979,0,0
182074.7,467.456,-240.116,0,0
182335.025,473.775,-240.533,0,0
182595.35,479.805,-240.831,0,0
182855.675,486.064,-240.958,0,0
183116.0,492.749,-241.447,0,0
183376.325,499.621,-242.68,0,0
183636.65,505.315,-244.437,0,0
183896.975,510.468,-245.622,0,0
184157.3,515.465,-246.266,0,0
184417.625,520.695,-246.586,0,0
184677.95,526.129,-246.683,0,0
184938.275,531.768,-246.964,0,0
185198.6,537.51,-247.395,0,0
185458.925,542.652,-247.33,0,0
185719.25,548.302,-246.329,0,0
185979.575,554.994,-245.153,0,0
186239.9,562.294,-244.225,0,0
186500,570.242,-243.301,0,0
186761,579.307,-243.144,0,0
187021,588.423,-244.261,0,0
187281,597.022,-246.006,0,0
187542,605.113,-247.808,0,0
187802,613.137,-249.164,0,0
188062,621.811,-250.307,0,0
188322,631.316,-251.673,0,0
188583,641.594,-253.822,0,0
188843,652.125,-257.182,0,0
189103,662.283,-261.578,0,0
189364,672.058,-266.731,0,0
189624,681.012,-272.683,0,0
189884,688.877,-278.686,0,0
190145,696.113,-284.062,0,0
190405,703.494,-288.971,0,0
190665,711.078,-294.042,0,0
190926,718.115,-299.013,0,0
191186,725.487,-302.951,0,0
191446,733.9,-306.467,0,0
191707,743.891,-310.497,0,0
191967,754.833,-315.866,0,0
192227,765.89,-322.88,0,0
192488,776.269,-331.396,0,0
192748,785.502,-341.142,0,0
193008,792.845,-350.5,0,0
193269,799.582,-357.991,0,0
193529,807.895,-364.118,0,0
193789,818.129,-370.738,0,0
194050,829.792,-378.611,0,0
194310,842.371,-388.352,0,0
194570,855.422,-400.003,0,0
194831,868.629,-414.193,0,0
195091,880.556,-431.227,0,0
195351,889.883,-450.393,0,0
195612,896.373,-469.571,0,0
195872,901.63,-487.859,0,0
196132,906.555,-506.045,0,0
196393,911.708,-524.964,0,0
196653,916.008,-545.602,0,0
196913,918.252,-567.665,0,0
197174,918.208,-590.375,0,0
197434,915.823,-613.196,0,0
197694,910.871,-635.56,0,0
197955,903.91,-656.788,0,0
198215,895.164,-676.791,0,0
198475,885.355,-694.913,0,0
198735,874.709,-711.39,0,0
198996,864.244,-726.514,0,0
199256,853.834,-741.446,0,0
199516,842.445,-755.914,0,0
199777,830.364,-769.8,0,0
200037,817.641,-782.908,0,0
200297,803.538,-795.021,0,0
200558,788.563,-805.433,0,0
200818,773.392,-813.96,0,0
201078,758.841,-820.805,0,0
201339,744.793,-826.441,0,0
201599,731.811,-831.341,0,0
201859,719.447,-836.071,0,0
202120,707.319,-840.868,0,0
202380.025,695.005,-845.574,0,0
202640.35,682.251,-850.269,0,0
202900.675,668.581,-854.067,0,0
203161.0,654.436,-856.344,0,0
203421.325,641.117,-856.873,0,0
203681.65,628.639,-857.224,0,0
203941.975,616.197,-857.16,0,0
204202.3,603.838,-855.929,0,0
204462.625,591.953,-853.956,0,0
204722.95,580.711,-851.118,0,0
204983.275,570.416,-847.382,0,0
205243.6,561.529,-843.314,0,0
205503.925,553.284,-839.513,0,0
205764.25,545.427,-836.004,0,0
206024.575,537.822,-832.26,0,0
206284.9,530.334,-828.507,0,0
206545.225,522.976,-824.007,0,0
206805.55,516.259,-818.801,0,0
207065.875,510.731,-812.994,0,0
207326.2,506.285,-807.249,0,0
207586.525,502.861,-801.867,0,0
207846.85,500.155,-796.728,0,0
208107.175,498.274,-792.158,0,0
208367.5,496.831,-788.428,0,0
208627.825,495.439,-785.438,0,0
208888.15,493.854,-782.838,0,0
209148.475,492.04,-780.322,0,0
209408.8,490.231,-777.594,0,0
209669.125,488.694,-774.582,0,0
209929.45,487.731,-771.692,0,0
210189.775,487.408,-769.025,0,0
210450.1,487.495,-766.828,0,0
210710.425,487.739,-765.093,0,0
210970.75,488.171,-763.832,0,0
211231.075,488.582,-763.266,0,0
211491.4,488.597,-762.99,0,0
211751.725,488.671,-762.785,0,0
212012.05,488.64,-762.667,0,0
212272.375,488.769,-762.762,0,0
212532.7,488.932,-763.119,0,0
212793.025,489.12,-763.825,0,0
213053.35,489.33,-764.8,0,0
213313.675,489.477,-766.463,0,0
213574.0,489.27,-768.501,0,0
213834.325,488.578,-770.906,0,0
214094.65,487.353,-773.441,0,0
214354.975,485.65,-775.981,0,0
214615.3,483.478,-778.437,0,0
214875.625,480.762,-780.848,0,0
215135.95,477.495,-782.866,0,0
215396.275,474.255,-784.371,0,0
215656.6,470.744,-785.598,0,0
215916.925,467.119,-786.442,0,0
216177.25,463.415,-786.767,0,0
216437.575,459.762,-786.706,0,0
216697.9,456.296,-786.139,0,0
216958.225,452.987,-785.078,0,0
217218.55,450.079,-783.497,0,0
217478.875,447.977,-781.495,0,0
217739.2,446.775,-779.494,0,0
217999.525,446.344,-777.985,0,0
218259.85,446.178,-776.946,0,0
218520,446.233,-776.346,0,0
218780,446.518,-776.101,0,0
219041,446.89,-776.354,0,0
219301,447.309,-777.067,0,0
219561,447.412,-778.166,0,0
219822,447.341,-779.466,0,0
220082,447.195,-780.853,0,0
220342,447.074,-782.409,0,0
220603,446.757,-784.158,0,0
220863,446.456,-786.153,0,0
221123,446.064,-788.396,0,0
221384,445.58,-790.867,0,0
221644,444.734,-793.651,0,0
221904,443.57,-796.505,0,0
222165,442.259,-799.483,0,0
222425,440.718,-802.641,0,0
222685,438.897,-805.867,0,0
222946,436.574,-809.303,0,0
223206,433.832,-812.677,0,0
223466,430.508,-815.793,0,0
223727,426.946,-818.506,0,0
223987,423.45,-820.795,0,0
224247,420.012,-822.937,0,0
224508,416.58,-824.891,0,0
224768,413.242,-826.783,0,0
225028,409.929,-828.957,0,0
225289,406.496,-831.057,0,0
225549,402.84,-833.103,0,0
225809,399.115,-835.367,0,0
226070,395.11,-837.631,0,0
226330,390.683,-839.829,0,0
226590,386.019,-841.705,0,0
226851,381.184,-843.401,0,0
227111,376.033,-844.778,0,0
227371,370.826,-845.634,0,0
227632,365.808,-846.147,0,0
227892,360.932,-846.703,0,0
228152,355.829,-847.051,0,0
228413,350.674,-847.037,0,0
228673,345.742,-846.468,0,0
228933,341.05,-845.801,0,0
229193,336.733,-844.982,0,0
229454,332.572,-844.41,0,0
229714,328.615,-843.824,0,0
229974,324.432,-843.331,0,0
230235,320.403,-842.836,0,0
230495,316.322,-842.262,0,0
230755,312.102,-841.777,0,0
231016,307.817,-841.26,0,0
231276,303.385,-840.558,0,0
231536,298.917,-839.616,0,0
231797,294.574,-838.568,0,0
232057,290.283,-837.425,0,0
232317,285.942,-836.223,0,0
232578,281.584,-834.914,0,0
232838,277.138,-833.473,0,0
233098,272.634,-831.768,0,0
233359,268.189,-829.827,0,0
233619,263.916,-827.669,0,0
233879,259.84,-825.43,0,0
234140,255.783,-823.052,0,0
234400,251.869,-820.601,0,0
234660.3,247.993,-817.905,0,0
234920.625,244.28,-815.043,0,0
235180.95,240.731,-812.039,0,0
235441.275,237.339,-808.925,0,0
235701.6,234.248,-805.688,0,0
235961.925,231.357,-802.414,0,0
236222.25,228.628,-799.148,0,0
236482.575,226.126,-795.852,0,0
236742.9,223.794,-792.555,0,0
237003.225,221.722,-789.206,0,0
237263.55,219.801,-785.987,0,0
237523.875,218.091,-782.806,0,0
237784.2,216.592,-779.721,0,0
238044.525,215.2,-776.697,0,0
238304.85,213.992,-773.865,0,0
238565.175,212.846,-771.164,0,0
238825.5,211.773,-768.51,0,0
239085.825,210.732,-765.855,0,0
239346.15,209.959,-763.417,0,0
239606.475,209.269,-761.125,0,0
239866.8,208.666,-759.113,0,0
240127.125,208.095,-757.52,0,0
240387.45,207.354,-755.981,0,0
240647.775,206.338,-754.699,0,0
240908.1,205.161,-753.43,0,0
241168.425,203.882,-752.218,0,0
241428.75,202.388,-751.016,0,0
241689.075,200.678,-749.754,0,0
241949.4,198.874,-748.396,0,0
242209.725,196.958,-747.052,0,0
242470.05,194.958,-745.448,0,0
242730.375,192.873,-743.67,0,0
242990.7,190.692,-741.761,0,0
243251.025,188.678,-739.585,0,0
243511.35,186.718,-737.287,0,0
243771.675,184.872,-734.887,0,0
244032.0,183.232,-732.429,0,0
244292.325,181.711,-729.936,0,0
244552.65,180.255,-727.467,0,0
244812.975,178.926,-725.195,0,0
245073.3,177.538,-722.749,0,0
245333.625,176.13,-720.424,0,0
245593.95,174.623,-718.034,0,0
245854.275,173.132,-715.465,0,0
246114.6,171.779,-712.642,0,0
246374.925,170.532,-709.745,0,0
246635.25,169.481,-706.84,0,0
246895.575,168.668,-703.886,0,0
247155.9,168,-700.901,0,0
247416.225,167.588,-698.048,0,0
247676.55,167.288,-695.445,0,0
247936.875,166.916,-692.839,0,0
248197.2,166.543,-690.299,0,0
248457.525,166.254,-687.908,0,0
248717.85,165.892,-685.544,0,0
248978.175,165.44,-683.106,0,0
249238.5,165.073,-680.622,0,0
249498.825,164.768,-678.039,0,0
249759.15,164.537,-675.44,0,0
250019.475,164.425,-672.797,0,0
250279.8,164.422,-670.087,0,0
250540,164.576,-667.47,0,0
250800,164.862,-664.922,0,0
251061,165.127,-662.397,0,0
251321,165.56,-659.815,0,0
251581,166.166,-657.244,0,0
251842,166.904,-654.765,0,0
252102,167.845,-652.416,0,0
252362,168.956,-650.181,0,0
252623,170.213,-648.205,0,0
252883,171.56,-646.543,0,0
253143,172.888,-645.179,0,0
253404,173.974,-644.097,0,0
253664,174.852,-643.204,0,0
253924,175.427,-642.312,0,0
254185,175.8,-641.368,0,0
254445,176.026,-640.296,0,0
254705,176.135,-638.972,0,0
254966,176.28,-637.564,0,0
255226,176.516,-635.95,0,0
255486,176.897,-634.275,0,0
255747,177.499,-632.564,0,0
256007,178.136,-630.912,0,0
256267,178.941,-629.261,0,0
256528,179.869,-627.724,0,0
256788,180.895,-626.344,0,0
257048,181.9,-625.126,0,0
257309,182.844,-624.017,0,0
257569,183.702,-622.903,0,0
257829,184.579,-621.68,0,0
258090,185.518,-620.433,0,0
258350,186.64,-619.161,0,0
258610,187.891,-618.032,0,0
258871,189.238,-617.098,0,0
259131,190.545,-616.28,0,0
259391,191.85,-615.543,0,0
259651,193.129,-614.95,0,0
259912,194.438,-614.436,0,0
260172,195.763,-613.946,0,0
260432,196.92,-613.692,0,0
260693,198.01,-613.398,0,0
260953,199.144,-613.055,0,0
261213,200.349,-612.814,0,0
261474,201.585,-612.682,0,0
261734,202.774,-612.761,0,0
261994,203.841,-612.909,0,0
262255,204.801,-613.233,0,0
262515,205.654,-613.568,0,0
262775,206.328,-613.996,0,0
263036,206.804,-614.38,0,0
263296,207.113,-614.624,0,0
263556,207.402,-614.659,0,0
263817,207.758,-614.683,0,0
264077,208.111,-614.609,0,0
264337,208.422,-614.573,0,0
264598,208.703,-614.388,0,0
264858,208.917,-614.187,0,0
265118,209.279,-613.684,0,0
265379,209.705,-613.018,0,0
265639,210.401,-612.289,0,0
265899,211.28,-611.493,0,0
266160,212.469,-610.725,0,0
266420,213.933,-610.048,0,0
266680.25,215.686,-609.578,0,0
266940.575,217.692,-609.325,0,0
267200.9,219.685,-609.218,0,0
267461.225,221.884,-609.375,0,0
267721.55,224.243,-609.806,0,0
267981.875,226.679,-610.553,0,0
268242.2,229.143,-611.675,0,0
268502.525,231.617,-613.139,0,0
268762.85,233.994,-614.895,0,0
269023.175,236.498,-617.13,0,0
269283.5,238.702,-619.754,0,0
269543.825,240.611,-622.756,0,0
269804.15,242.181,-625.997,0,0
270064.475,243.321,-629.405,0,0
270324.8,244.234,-632.91,0,0
270585.125,244.987,-636.607,0,0
270845.45,245.435,-640.48,0,0
271105.775,245.555,-644.566,0,0
271366.1,245.315,-648.777,0,0
271626.425,244.631,-653.146,0,0
271886.75,243.471,-657.508,0,0
272147.075,241.911,-661.795,0,0
272407.4,239.972,-666.073,0,0
272667.725,237.577,-670.337,0,0
272928.05,234.753,-674.485,0,0
273188.375,231.269,-678.432,0,0
273448.7,227.342,-681.983,0,0
273709.025,223.07,-685.039,0,0
273969.35,218.538,-687.643,0,0
274229.675,213.914,-689.825,0,0
274490.0,209.013,-691.514,0,0
274750.325,204.029,-692.826,0,0
275010.65,199.066,-693.536,0,0
275270.975,194.25,-693.889,0,0
275531.3,189.459,-693.89,0,0
275791.625,184.831,-693.388,0,0
276051.95,180.361,-692.529,0,0
276312.275,176.145,-691.31,0,0
276572.6,172.347,-689.835,0,0
276832.925,168.84,-688.256,0,0
277093.25,165.684,-686.687,0,0
277353.575,162.697,-685.119,0,0
277613.9,159.733,-683.725,0,0
277874.225,156.9,-682.117,0,0
278134.55,154.213,-680.469,0,0
278394.875,151.589,-678.811,0,0
278655.2,149.054,-677.06,0,0
278915.525,146.582,-675.228,0,0
279175.85,144.269,-673.292,0,0
279436.175,142.046,-671.327,0,0
279696.5,139.987,-669.3,0,0
279956.825,137.963,-667.187,0,0
280217.15,136.156,-664.96,0,0
280477.475,134.538,-662.737,0,0
280737.8,133.107,-660.448,0,0
280998.125,131.919,-658.166,0,0
281258.45,130.927,-656.063,0,0
281518.775,130.078,-654.078,0,0
281779.1,129.242,-652.218,0,0
282039.425,128.42,-650.4,0,0
282299.75,127.655,-648.594,0,0
282560,126.96,-646.812,0,0
282820,126.384,-645.025,0,0
283081,125.932,-643.307,0,0
283341,125.547,-641.665,0,0
283601,125.2,-640.167,0,0
283862,124.926,-638.75,0,0
284122,124.618,-637.368,0,0
284382,124.36,-636,0,0
284643,124.199,-634.756,0,0
284903,124.043,-633.532,0,0
285163,123.952,-632.382,0,0
285424,123.802,-631.279,0,0
285684,123.73,-630.157,0,0
285944,123.765,-629.085,0,0
286205,123.859,-628.134,0,0
286465,124.109,-627.234,0,0
286725,124.486,-626.483,0,0
286986,124.996,-625.949,0,0
287246,125.553,-625.753,0,0
287506,126.017,-625.896,0,0
287767,126.285,-626.375,0,0
288027,126.259,-627.062,0,0
288287,125.886,-627.875,0,0
288548,125.162,-628.687,0,0
288808,124.147,-629.404,0,0
289068,122.901,-630.011,0,0
289329,121.494,-630.449,0,0
289589,119.941,-630.734,0,0
289849,118.255,-630.841,0,0
290109,116.642,-630.795,0,0
290370,114.853,-630.64,0,0
290630,113.116,-630.283,0,0
290890,111.396,-629.806,0,0
291151,109.739,-629.217,0,0
291411,108.199,-628.536,0,0
291671,106.698,-627.892,0,0
291932,105.225,-627.274,0,0
292192,103.671,-626.695,0,0
292452,102.04,-626.092,0,0
292713,100.333,-625.386,0,0
292973,98.5148,-624.542,0,0
293233,96.7598,-623.59,0,0
293494,94.9857,-622.496,0,0
293754,93.2644,-621.281,0,0
294014,91.6128,-619.941,0,0
294275,90.0222,-618.53,0,0
294535,88.5337,-617.01,0,0
294795,87.1979,-615.49,0,0
295056,85.8994,-613.898,0,0
295316,84.6785,-612.315,0,0
295576,83.5347,-610.755,0,0
295837,82.464,-609.187,0,0
296097,81.4269,-607.618,0,0
296357,80.4063,-606.004,0,0
296618,79.4581,-604.409,0,0
296878,78.5736,-602.785,0,0
297138,77.7582,-601.205,0,0
297399,76.9399,-599.592,0,0
297659,76.1697,-597.972,0,0
297919,75.4544,-596.344,0,0
298180,74.7928,-594.73,0,0
298440,74.1725,-593.114,0,0
298700.2,73.5738,-591.509,0,0
298960.525,73.0256,-589.877,0,0
299220.85,72.5174,-588.256,0,0
299481.175,72.0881,-586.67,0,0
299741.5,71.6625,-585.077,0,0
300001.825,71.2977,-583.51,0,0
300262.15,70.9505,-581.922,0,0
300522.475,70.6741,-580.341,0,0
300782.8,70.4256,-578.808,0,0
301043.125,70.1993,-577.264,0,0
301303.45,70.0422,-575.732,0,0
301563.775,69.9105,-574.226,0,0
301824.1,69.8475,-572.736,0,0
302084.425,69.848,-571.258,0,0
302344.75,69.8966,-569.831,0,0
302605.075,69.9953,-568.462,0,0
302865.4,70.133,-567.152,0,0
303125.725,70.2889,-565.897,0,0
303386.05,70.4791,-564.707,0,0
303646.375,70.6547,-563.566,0,0
303906.7,70.8379,-562.49,0,0
304167.025,71.0173,-561.443,0,0
304427.35,71.194,-560.465,0,0
304687.675,71.3727,-559.515,0,0
304948.0,71.5042,-558.563,0,0
305208.325,71.6229,-557.713,0,0
305468.65,71.7317,-556.811,0,0
305728.975,71.8593,-555.913,0,0
305989.3,72.0056,-555.043,0,0
306249.625,72.1771,-554.186,0,0
306509.95,72.3647,-553.408,0,0
306770.275,72.5524,-552.639,0,0
307030.6,72.7553,-551.941,0,0
307290.925,72.9486,-551.312,0,0
307551.25,73.1091,-550.733,0,0
307811.575,73.2294,-550.19,0,0
308071.9,73.331,-549.666,0,0
308332.225,73.4048,-549.185,0,0
308592.55,73.4599,-548.734,0,0
308852.875,73.4905,-548.323,0,0
309113.2,73.4759,-547.987,0,0
309373.525,73.3687,-547.687,0,0
309633.85,73.1901,-547.363,0,0
309894.175,72.9105,-547.035,0,0
310154.5,72.5961,-546.677,0,0
310414.825,72.2303,-546.248,0,0
310675.15,71.8726,-545.769,0,0
310935.475,71.4827,-545.255,0,0
311195.8,71.1244,-544.723,0,0
311456.125,70.7878,-544.183,0,0
311716.45,70.4101,-543.624,0,0
311976.775,70.062,-543.053,0,0
312237.1,69.7179,-542.477,0,0
312497.425,69.3571,-541.926,0,0
312757.75,68.9984,-541.364,0,0
313018.075,68.6046,-540.81,0,0
313278.4,68.1931,-540.233,0,0
313538.725,67.7927,-539.659,0,0
313799.05,67.3603,-539.078,0,0
314059.375,66.9193,-538.501,0,0
314319.7,66.4389,-537.896,0,0
314580,65.8843,-537.262,0,0
314840,65.4039,-536.596,0,0
315101,64.8418,-535.812,0,0
315361,64.3575,-535.102,0,0
315621,63.8807,-534.226,0,0
315882,63.4193,-533.325,0,0
316142,63.0601,-532.452,0,0
316402,62.6787,-531.544,0,0
316663,62.396,-530.622,0,0
316923,62.071,-529.72,0,0
317183,61.8178,-528.838,0,0
317444,61.5313,-527.971,0,0
317704,61.3952,-527.066,0,0
317964,61.2563,-526.255,0,0
318225,61.0561,-525.409,0,0
318485,61.0274,-524.538,0,0
318745,60.893,-523.762,0,0
319006,60.7536,-523.056,0,0
319266,60.7041,-522.204,0,0
319526,60.6581,-521.562,0,0
319787,60.6054,-520.902,0,0
320047,60.5881,-520.193,0,0
320307,60.5259,-519.622,0,0
320567,60.4779,-519.022,0,0
320828,60.4165,-518.487,0,0
321088,60.3677,-518.017,0,0
321348,60.1563,-517.486,0,0
321609,60.0138,-517.046,0,0
321869,59.7681,-516.609,0,0
322129,59.5793,-516.149,0,0
322390,59.2862,-515.676,0,0
322650,59.0154,-515.146,0,0
322910,58.7335,-514.688,0,0
323171,58.4179,-514.159,0,0
323431,58.1358,-513.713,0,0
323691,57.7765,-513.164,0,0
323952,57.4296,-512.666,0,0
324212,57.0766,-512.208,0,0
324472,56.6263,-511.727,0,0
324733,56.2077,-511.179,0,0
324993,55.7845,-510.667,0,0
325253,55.3297,-510.088,0,0
325514,54.8404,-509.463,0,0
325774,54.3605,-508.794,0,0
326034,53.8404,-508.143,0,0
326295,53.3809,-507.461,0,0
326555,52.9528,-506.743,0,0
326815,52.5027,-505.991,0,0
327076,52.0875,-505.224,0,0
327336,51.6676,-504.472,0,0
327596,51.3082,-503.725,0,0
327857,50.8896,-502.967,0,0
328117,50.4853,-502.194,0,0
328377,50.1267,-501.411,0,0
328638,49.7277,-500.615,0,0
328898,49.386,-499.763,0,0
329158,49.0267,-498.939,0,0
329419,48.7337,-498.154,0,0
329679,48.3926,-497.332,0,0
329939,48.0423,-496.457,0,0
330200,47.7978,-495.659,0,0
330460,47.4354,-494.832,0,0
330720.15,47.2017,-493.944,0,0
330980.475,46.9335,-493.111,0,0
331240.8,46.6635,-492.261,0,0
331501.125,46.4072,-491.452,0,0
331761.45,46.1071,-490.551,0,0
332021.775,45.9397,-489.731,0,0
332282.1,45.665,-488.877,0,0
332542.425,45.4512,-487.998,0,0
332802.75,45.2011,-487.134,0,0
333063.075,45.0583,-486.264,0,0
333323.4,44.919,-485.376,0,0
333583.725,44.7529,-484.542,0,0
333844.05,44.639,-483.576,0,0
334104.375,44.4694,-482.734,0,0
334364.7,44.3698,-481.837,0,0
334625.025,44.2708,-480.97,0,0
334885.35,44.2592,-480.099,0,0
335145.675,44.1757,-479.269,0,0
335406.0,44.1719,-478.443,0,0
335666.325,44.1849,-477.599,0,0
335926.65,44.1714,-476.865,0,0
336186.975,44.2381,-476.107,0,0
336447.3,44.2732,-475.365,0,0
336707.625,44.2615,-474.638,0,0
336967.95,44.2135,-473.958,0,0
337228.275,44.244,-473.29,0,0
337488.6,44.2001,-472.633,0,0
337748.925,44.204,-471.979,0,0
338009.25,44.1983,-471.312,0,0
338269.575,44.1999,-470.694,0,0
338529.9,44.1036,-470.02,0,0
338790.225,44.0624,-469.408,0,0
339050.55,43.9783,-468.771,0,0
339310.875,43.9468,-468.19,0,0
339571.2,43.86,-467.531,0,0
339831.525,43.7862,-466.959,0,0
340091.85,43.7053,-466.37,0,0
340352.175,43.5569,-465.73,0,0
340612.5,43.47,-465.175,0,0
340872.825,43.34,-464.528,0,0
341133.15,43.2531,-463.885,0,0
341393.475,43.0413,-463.313,0,0
341653.8,42.9159,-462.661,0,0
341914.125,42.8057,-461.972,0,0
342174.45,42.5768,-461.372,0,0
342434.775,42.4931,-460.709,0,0
342695.1,42.3297,-460.009,0,0
342955.425,42.2066,-459.37,0,0
343215.75,41.9837,-458.671,0,0
343476.075,41.8493,-457.985,0,0
343736.4,41.7027,-457.315,0,0
343996.725,41.5743,-456.594,0,0
344257.05,41.3933,-455.842,0,0
344517.375,41.2997,-455.07,0,0
344777.7,41.1471,-454.361,0,0
345038.025,41.055,-453.601,0,0
345298.35,41.02,-452.836,0,0
345558.675,40.8775,-452.096,0,0
345819.0,40.8524,-451.316,0,0
346079.325,40.8026,-450.614,0,0
346339.65,40.7526,-449.835,0,0
346599.975,40.713,-449.104,0,0
346860,40.6471,-448.336,0,0
347121,40.6306,-447.573,0,0
347381,40.6291,-446.793,0,0
347641,40.6386,-446.074,0,0
347902,40.6328,-445.359,0,0
348162,40.7084,-444.641,0,0
348422,40.7921,-443.897,0,0
348683,40.7853,-443.228,0,0
348943,40.8397,-442.535,0,0
349203,40.8792,-441.795,0,0
349464,40.9121,-441.134,0,0
349724,40.9973,-440.438,0,0
349984,41.0458,-439.746,0,0
350245,41.1473,-439.043,0,0
350505,41.2144,-438.359,0,0
350765,41.3512,-437.708,0,0
351025,41.44,-437.083,0,0
351286,41.5892,-436.464,0,0
351546,41.666,-435.859,0,0
351806,41.7726,-435.257,0,0
352067,41.913,-434.676,0,0
352327,41.9846,-434.103,0,0
352587,42.0482,-433.54,0,0
352848,42.1203,-432.993,0,0
353108,42.1704,-432.406,0,0
353368,42.2667,-431.836,0,0
353629,42.3174,-431.283,0,0
353889,42.3855,-430.691,0,0
354149,42.4759,-430.135,0,0
354410,42.5323,-429.575,0,0
354670,42.6217,-429.028,0,0
354930,42.6775,-428.462,0,0
355191,42.8223,-427.931,0,0
355451,42.9084,-427.421,0,0
355711,42.9899,-426.919,0,0
355972,43.0921,-426.427,0,0
356232,43.1107,-425.965,0,0
356492,43.2052,-425.454,0,0
356753,43.2475,-425.004,0,0
357013,43.2714,-424.503,0,0
357273,43.2958,-424.066,0,0
357534,43.2654,-423.612,0,0
357794,43.2419,-423.13,0,0
358054,43.2599,-422.654,0,0
358315,43.2161,-422.198,0,0
358575,43.2216,-421.655,0,0
358835,43.1556,-421.21,0,0
359096,43.0891,-420.69,0,0
359356,43.0493,-420.153,0,0
359616,43.015,-419.64,0,0
359877,42.9423,-419.051,0,0
360137,42.8875,-418.481,0,0
360397,42.8363,-417.908,0,0
360658,42.8492,-417.359,0,0
360918,42.7967,-416.785,0,0
361178,42.7618,-416.219,0,0
361438,42.7306,-415.653,0,0
361699,42.7513,-415.042,0,0
361959,42.738,-414.457,0,0
362219,42.7511,-413.864,0,0
362480,42.7695,-413.289,0,0
362740.1,42.8126,-412.658,0,0
363000.425,42.7919,-412.062,0,0
363260.75,42.8154,-411.435,0,0
363521.075,42.8773,-410.818,0,0
363781.4,42.9521,-410.236,0,0
364041.725,43.0079,-409.588,0,0
364302.05,43.092,-409.003,0,0
364562.375,43.1797,-408.403,0,0
364822.7,43.3117,-407.782,0,0
365083.025,43.3983,-407.191,0,0
365343.35,43.4723,-406.59,0,0
365603.675,43.63,-405.991,0,0
365864.0,43.7532,-405.401,0,0
366124.325,43.9117,-404.826,0,0
366384.65,44.0902,-404.271,0,0
366644.975,44.2346,-403.724,0,0
366905.3,44.4413,-403.206,0,0
367165.625,44.6273,-402.74,0,0
367425.95,44.7584,-402.255,0,0
367686.275,44.8852,-401.744,0,0
367946.6,45.0162,-401.268,0,0
368206.925,45.166,-400.794,0,0
368467.25,45.262,-400.307,0,0
368727.575,45.3839,-399.779,0,0
368987.9,45.5375,-399.276,0,0
369248.225,45.6762,-398.758,0,0
369508.55,45.8224,-398.245,0,0
369768.875,46.0298,-397.694,0,0
370029.2,46.2049,-397.188,0,0
370289.525,46.4426,-396.661,0,0
370549.85,46.7133,-396.223,0,0
370810.175,46.9467,-395.787,0,0
371070.5,47.2355,-395.381,0,0
371330.825,47.5263,-394.993,0,0
371591.15,47.7947,-394.665,0,0
371851.475,48.0069,-394.351,0,0
372111.8,48.2345,-394.081,0,0
372372.125,48.4128,-393.755,0,0
372632.45,48.5866,-393.511,0,0
372892.775,48.7179,-393.252,0,0
373153.1,48.8956,-392.991,0,0
373413.425,48.9964,-392.765,0,0
373673.75,49.1028,-392.486,0,0
373934.075,49.1109,-392.258,0,0
374194.4,49.1788,-392.012,0,0
374454.725,49.2024,-391.709,0,0
374715.05,49.2344,-391.417,0,0
374975.375,49.2277,-391.083,0,0
375235.7,49.2934,-390.778,0,0
375496.025,49.3293,-390.42,0,0
375756.35,49.3747,-390.08,0,0
376016.675,49.4119,-389.798,0,0
376277.0,49.4775,-389.423,0,0
376537.325,49.5355,-389.108,0,0
376797.65,49.5875,-388.82,0,0
377057.975,49.6555,-388.492,0,0
377318.3,49.6874,-388.175,0,0
377578.625,49.7938,-387.938,0,0
377838.95,49.8492,-387.713,0,0
378099.275,49.8703,-387.478,0,0
378359.6,49.8051,-387.246,0,0
378619.925,49.7547,-387.012,0,0
378880,49.6522,-386.716,0,0
379141,49.5396,-386.435,0,0
379401,49.4023,-386.111,0,0
379661,49.3001,-385.647,0,0
379922,49.2279,-385.21,0,0
380182,49.174,-384.715,0,0
380442,49.2825,-384.216,0,0
380703,49.4127,-383.687,0,0
380963,49.6599,-383.322,0,0
381223,49.8585,-382.998,0,0
381483,50.158,-382.788,0,0
381744,50.3865,-382.697,0,0
382004,50.5101,-382.653,0,0
382264,50.5319,-382.685,0,0
382525,50.5006,-382.754,0,0
382785,50.2703,-382.759,0,0
383045,49.9943,-382.716,0,0
383306,49.6671,-382.586,0,0
383566,49.3098,-382.444,0,0
383826,48.9438,-382.165,0,0
384087,48.5994,-381.855,0,0
384347,48.2749,-381.508,0,0
384607,47.9711,-381.095,0,0
384868,47.64,-380.697,0,0
385128,47.3519,-380.27,0,0
385388,47.0767,-379.795,0,0
385649,46.8085,-379.333,0,0
385909,46.514,-378.794,0,0
386169,46.2879,-378.311,0,0
386430,46.0452,-377.778,0,0
386690,45.8313,-377.197,0,0
386950,45.6469,-376.648,0,0
387211,45.4366,-376.057,0,0
387471,45.3259,-375.491,0,0
387731,45.1614,-374.899,0,0
387992,45.0275,-374.309,0,0
388252,44.944,-373.694,0,0
388512,44.8685,-373.096,0,0
388773,44.789,-372.487,0,0
389033,44.7517,-371.886,0,0
389293,44.7437,-371.285,0,0
389554,44.7304,-370.728,0,0
389814,44.7594,-370.137,0,0
390074,44.7981,-369.54,0,0
390335,44.8317,-369.045,0,0
390595,44.8618,-368.532,0,0
390855,44.8766,-368.05,0,0
391116,44.8976,-367.533,0,0
391376,44.8813,-367.096,0,0
391636,44.8945,-366.616,0,0
391896,44.8586,-366.112,0,0
392157,44.8354,-365.603,0,0
392417,44.8316,-365.12,0,0
392677,44.7921,-364.624,0,0
392938,44.7771,-364.116,0,0
393198,44.7555,-363.565,0,0
393458,44.7661,-363.037,0,0
393719,44.7555,-362.536,0,0
393979,44.7231,-362.002,0,0
394239,44.7248,-361.485,0,0
394500,44.7023,-360.94,0,0
394760.05,44.742,-360.406,0,0
395020.375,44.7614,-359.862,0,0
395280.7,44.793,-359.313,0,0
395541.025,44.8463,-358.718,0,0
395801.35,44.8984,-358.196,0,0
396061.675,44.9598,-357.655,0,0
396322.0,45.0479,-357.105,0,0
396582.325,45.141,-356.608,0,0
396842.65,45.2508,-356.083,0,0
397102.975,45.321,-355.611,0,0
397363.3,45.4575,-355.11,0,0
397623.625,45.5477,-354.653,0,0
397883.95,45.6458,-354.168,0,0
398144.275,45.7254,-353.743,0,0
398404.6,45.7848,-353.256,0,0
398664.925,45.8414,-352.865,0,0
398925.25,45.9143,-352.398,0,0
399185.575,45.943,-351.993,0,0
399445.9,46.0064,-351.5,0,0
399706.225,46.0316,-351.078,0,0
399966.55,46.0865,-350.604,0,0
400006.6,46.0561,-350.575,0,0