File: Accelerated corrosion test data/2025-10-03_06-00-02/sample_4.csv
Frequency (Hz),Impedance (ohms),Phase (Radians),Temperature (C),Humidity (%)
10000.0,263.944,-11856.9,0,0
10260.325,260.339,-11557.5,0,0
10520.65,251.328,-11275.7,0,0
10780.975,244.952,-11005.3,0,0
11041.3,240.093,-10747.5,0,0
11301.625,235.151,-10504.7,0,0
11561.95,229.343,-10269.1,0,0
11822.275,224.776,-10043.8,0,0
12082.6,220.303,-9829.84,0,0
12342.925,215.797,-9623.43,0,0
12603.25,213.255,-9424.46,0,0
12863.575,210.017,-9237.94,0,0
13123.9,209.999,-9057.64,0,0
13384.225,199.852,-8880.45,0,0
13644.55,196.604,-8710.37,0,0
13904.875,193.983,-8544.96,0,0
14165.2,195.515,-8382.72,0,0
14425.525,200.398,-8232.18,0,0
14685.8,203.023,-8122.17,0,0
14946.175,182.772,-7965.63,0,0
15206.5,181.33,-7821.77,0,0
15466.825,188.511,-7678.26,0,0
15727.15,191.92,-7579.27,0,0
15987.5,188.963,-7463.42,0,0
16247.8,171.43,-7335.6,0,0
16508.125,183.919,-7205.02,0,0
16768.45,178.749,-7109.33,0,0
17028.775,172.599,-7019.74,0,0
17289.1,161.106,-6906.18,0,0
17549.425,159.306,-6801.83,0,0
17809.75,156.854,-6700.35,0,0
18070.075,153.084,-6603.34,0,0
18330.4,153.378,-6506.63,0,0
18590.725,154.488,-6417.74,0,0
18851.05,150.77,-6333.8,0,0
19111.375,145.847,-6244.91,0,0
19371.7,143.496,-6159.56,0,0
19632.025,142.252,-6075.71,0,0
19892.35,144.072,-5994.36,0,0
20152.675,144.363,-5917.79,0,0
20413.0,141.837,-5845.71,0,0
20673.3,140.938,-5770,0,0
20933.65,138.13,-5697.37,0,0
21193.975,140.482,-5622.35,0,0
21454.3,151.713,-5555.97,0,0
21714.625,145.958,-5499.35,0,0
21974.9,149.706,-5429.79,0,0
22235.275,149.084,-5383.23,0,0
22495.6,136.773,-5327.64,0,0
22755.925,129.489,-5262.89,0,0
23016.25,125.748,-5200.99,0,0
23276.6,123.036,-5140.85,0,0
23536.9,122.051,-5083.12,0,0
23797.225,119.726,-5026.55,0,0
24057.55,117.238,-4970.5,0,0
24317.875,116.555,-4916.88,0,0
24578.2,115.592,-4863.31,0,0
24838.525,114.975,-4810.94,0,0
25098.85,115.992,-4760.44,0,0
25359.175,114.26,-4713.42,0,0
25619.5,113.08,-4663.81,0,0
25879.8,111.928,-4619.83,0,0
26140.1,108.556,-4570.89,0,0
26400.5,107.872,-4523.96,0,0
26660.8,107.373,-4478.5,0,0
26921.1,107.776,-4434.63,0,0
27181.4,105.98,-4390.06,0,0
27441.8,106.544,-4345.18,0,0
27702.1,109.167,-4301.2,0,0
27962.4,117.115,-4259.56,0,0
28222.7,119.68,-4228.61,0,0
28483.1,116.543,-4197.52,0,0
28743.4,111.038,-4158.08,0,0
29003.7,111.513,-4116.41,0,0
29264,116.262,-4082.63,0,0
29524.4,114.143,-4052.38,0,0
29784.7,108.961,-4021.24,0,0
30045,108.099,-3984.31,0,0
30305.3,102.572,-3951.32,0,0
30565.7,101.081,-3915.61,0,0
30826,99.4282,-3880.83,0,0
31086.3,99.0367,-3847.22,0,0
31346.6,99.6292,-3813.96,0,0
31607,98.8652,-3784.12,0,0
31867.3,98.2995,-3752.83,0,0
32127.6,99.6444,-3721.08,0,0
32387.9,99.1277,-3694.86,0,0
32648.3,97.3508,-3664.79,0,0
32908.6,95.6394,-3638.58,0,0
33168.9,93.0068,-3609.21,0,0
33429.2,90.7796,-3580.46,0,0
33689.6,89.454,-3551.45,0,0
33949.9,88.2082,-3523.41,0,0
34210.2,88.4966,-3495.41,0,0
34470.5,86.9584,-3469.48,0,0
34730.9,85.6974,-3442.4,0,0
34991.2,85.4371,-3415.83,0,0
35251.5,84.4563,-3390.02,0,0
35511.8,83.8885,-3364.62,0,0
35772.2,83.293,-3339.72,0,0
36032.5,82.5102,-3314.83,0,0
36292.8,81.8834,-3290.28,0,0
36553.1,81.3075,-3265.78,0,0
36813.5,81.0409,-3241.93,0,0
37073.8,80.9167,-3219.18,0,0
37334.1,80.2313,-3196.2,0,0
37594.4,79.7832,-3173.27,0,0
37854.8,79.6452,-3150.96,0,0
38115.1,78.6998,-3129.29,0,0
38375.4,77.9915,-3106.92,0,0
38635.7,77.6168,-3084.63,0,0
38896.1,77.9895,-3062.97,0,0
39156.4,77.5355,-3042.54,0,0
39416.7,76.9753,-3021.38,0,0
39677,76.7369,-3000.08,0,0
39937.4,77.5222,-2979.23,0,0
40197.7,78.8621,-2958.59,0,0
40458,81.1386,-2940.03,0,0
40718.3,79.8065,-2923.43,0,0
40978.7,79.2947,-2903.15,0,0
41239,79.8007,-2884.06,0,0
41499.3,83.0589,-2866.91,0,0
41759.6,80.6595,-2852.38,0,0
42020,78.2817,-2833.76,0,0
42280.275,77.3482,-2814.82,0,0
42540.6,78.8893,-2797.32,0,0
42800.925,78.2276,-2782.21,0,0
43061.25,76.0474,-2764.57,0,0
43321.575,76.3638,-2747.52,0,0
43581.9,74.9615,-2731.02,0,0
43842.225,74.2267,-2713.68,0,0
44102.55,74.4848,-2697.69,0,0
44362.875,72.8984,-2681.28,0,0
44623.2,72.8227,-2664.32,0,0
44883.525,72.7109,-2648.54,0,0
45143.85,71.8892,-2632.82,0,0
45404.175,70.9874,-2616.21,0,0
45664.5,71.871,-2599.49,0,0
45924.825,73,-2585.17,0,0
46185.15,72.217,-2571.99,0,0
46445.475,70.8248,-2555.57,0,0
46705.8,71.9789,-2540.4,0,0
46966.125,72.1928,-2526.85,0,0
47226.45,72.1265,-2512.36,0,0
47486.775,72.2572,-2499.96,0,0
47747.1,70.3875,-2485.88,0,0
48007.425,69.795,-2471.99,0,0
48267.75,68.8294,-2457.93,0,0
48528.075,68.4853,-2444.39,0,0
48788.4,67.6798,-2430.78,0,0
49048.725,66.5051,-2416.99,0,0
49309.05,66.4894,-2402.63,0,0
49569.375,66.0742,-2389.93,0,0
49829.7,65.525,-2375.98,0,0
50090.025,65.2259,-2362.81,0,0
50350.35,64.9902,-2349.47,0,0
50610.675,64.7635,-2336.39,0,0
50871.0,64.6346,-2323.63,0,0
51131.325,64.2982,-2310.67,0,0
51391.65,64.045,-2297.69,0,0
51651.975,64.3776,-2284.7,0,0
51912.3,64.416,-2272.41,0,0
52172.625,64.6109,-2259.7,0,0
52432.95,64.7964,-2247.46,0,0
52693.275,65.0123,-2234.65,0,0
52953.6,66.3118,-2222.02,0,0
53213.925,67.1926,-2210.76,0,0
53474.25,67.9514,-2198.82,0,0
53734.575,69.316,-2186.66,0,0
53994.9,71.9315,-2175.29,0,0
54255.225,74.1431,-2165.69,0,0
54515.55,76.457,-2156.76,0,0
54775.875,76.7532,-2150.06,0,0
55036.2,74.4899,-2141.67,0,0
55296.525,73.6121,-2131.71,0,0
55556.85,72.1616,-2122.48,0,0
55817.175,70.7982,-2112.18,0,0
56077.5,69.0574,-2102.4,0,0
56337.825,67.5637,-2091.63,0,0
56598.15,66.5365,-2080.3,0,0
56858.475,66.0534,-2069.16,0,0
57118.8,65.9575,-2058.22,0,0
57379.125,66.2689,-2047.42,0,0
57639.45,66.5501,-2037.3,0,0
57899.775,66.7721,-2027.1,0,0
58160.1,66.7816,-2016.76,0,0
58420.4,67.5935,-2006.44,0,0
58680.7,68.352,-1997.34,0,0
58941.1,67.8935,-1986.97,0,0
59201.4,68.7775,-1976.42,0,0
59461.7,71.0848,-1966.09,0,0
59722,73.5906,-1957.11,0,0
59982.4,76.4744,-1949.39,0,0
60242.7,77.497,-1943.21,0,0
60503,78.0441,-1935.24,0,0
60763.3,80.3829,-1928.25,0,0
61023.7,81.1124,-1924.41,0,0
61284,78.7422,-1919.51,0,0
61544.3,75.0553,-1913.49,0,0
61804.6,71.3934,-1904.11,0,0
62065,70.299,-1895.12,0,0
62325.3,69.1052,-1886.99,0,0
62585.6,66.5317,-1878.67,0,0
62845.9,65.1693,-1868.17,0,0
63106.3,64.6057,-1858.71,0,0
63366.6,64.8191,-1849.51,0,0
63626.9,64.9708,-1840.95,0,0
63887.2,64.8481,-1832.86,0,0
64147.6,63.758,-1824.19,0,0
64407.9,63.9279,-1814.86,0,0
64668.2,64.7249,-1806.31,0,0
64928.5,65.2278,-1798.28,0,0
65188.9,65.2606,-1790.42,0,0
65449.2,65.8252,-1782.21,0,0
65709.5,65.838,-1774.46,0,0
65969.8,66.4203,-1766.07,0,0
66230.2,67.5736,-1758.68,0,0
66490.5,68.1966,-1751.5,0,0
66750.8,68.8292,-1744.32,0,0
67011.1,69.3873,-1737.05,0,0
67271.5,70.4025,-1729.86,0,0
67531.8,71.5005,-1723.2,0,0
67792.1,72.4875,-1716.89,0,0
68052.4,73.69,-1711.25,0,0
68312.8,74.0697,-1705.91,0,0
68573.1,74.1336,-1700.75,0,0
68833.4,73.4635,-1695.93,0,0
69093.7,72.0606,-1690.85,0,0
69354.1,70.012,-1685.07,0,0
69614.4,68.0533,-1678.37,0,0
69874.7,66.6349,-1670.95,0,0
70135,65.9176,-1663.97,0,0
70395.4,64.9953,-1657.08,0,0
70655.7,64.3314,-1649.02,0,0
70916,65.5935,-1642.04,0,0
71176.3,65.5908,-1636.94,0,0
71436.7,64.578,-1630.98,0,0
71697,64.1224,-1624.83,0,0
71957.3,63.009,-1619.38,0,0
72217.6,60.8977,-1613.1,0,0
72478,59.4525,-1605.7,0,0
72738.3,58.7004,-1598.27,0,0
72998.6,57.965,-1591.21,0,0
73258.9,57.1646,-1583.51,0,0
73519.3,57.5028,-1575.88,0,0
73779.6,57.9971,-1568.99,0,0
74039.9,58.2974,-1562.12,0,0
74300.225,58.6648,-1555.69,0,0
74560.55,59.085,-1549.08,0,0
74820.875,59.4981,-1542.67,0,0
75081.2,59.9856,-1536.28,0,0
75341.525,60.706,-1530.29,0,0
75601.85,61.2524,-1524.5,0,0
75862.175,61.6489,-1518.76,0,0
76122.5,61.9997,-1512.95,0,0
76382.825,62.4741,-1507.42,0,0
76643.15,62.4871,-1502.14,0,0
76903.475,62.2195,-1496.13,0,0
77163.8,62.8649,-1489.71,0,0
77424.125,64.3238,-1484.15,0,0
77684.45,65.3418,-1479.42,0,0
77944.775,65.8984,-1475.06,0,0
78205.1,65.9078,-1470.86,0,0
78465.425,65.6264,-1466.4,0,0
78725.75,65.176,-1461.81,0,0
78986.075,64.3544,-1457.17,0,0
79246.4,63.4621,-1452.24,0,0
79506.725,62.6036,-1446.91,0,0
79767.05,62.0483,-1441.43,0,0
80027.375,61.5688,-1435.96,0,0
80287.7,61.2537,-1430.47,0,0
80548.025,61.0498,-1425.05,0,0
80808.35,60.9662,-1419.81,0,0
81068.675,60.9078,-1414.57,0,0
81329.0,60.8119,-1409.44,0,0
81589.325,60.7118,-1404.47,0,0
81849.65,60.4971,-1399.58,0,0
82109.975,60.2165,-1394.58,0,0
82370.3,59.9626,-1389.56,0,0
82630.625,59.6932,-1384.55,0,0
82890.95,59.5203,-1379.58,0,0
83151.275,59.222,-1374.66,0,0
83411.6,58.9214,-1369.68,0,0
83671.925,58.6307,-1364.69,0,0
83932.25,58.4226,-1359.73,0,0
84192.575,58.2157,-1354.9,0,0
84452.9,58.0545,-1349.96,0,0
84713.225,57.806,-1345,0,0
84973.55,57.727,-1340.13,0,0
85233.875,57.5525,-1335.29,0,0
85494.2,57.4135,-1330.54,0,0
85754.525,57.1728,-1325.81,0,0
86014.85,57.0123,-1321.01,0,0
86275.175,56.8578,-1316.26,0,0
86535.5,56.7485,-1311.53,0,0
86795.825,56.6398,-1306.92,0,0
87056.15,56.4725,-1302.32,0,0
87316.475,56.2813,-1297.85,0,0
87576.8,56.073,-1293.29,0,0
87837.125,55.7881,-1288.78,0,0
88097.45,55.3047,-1284.37,0,0
88357.775,54.6755,-1279.74,0,0
88618.1,54.1255,-1274.67,0,0
88878.425,54.0148,-1269.8,0,0
89138.75,53.8902,-1264.95,0,0
89399.075,53.8261,-1260.08,0,0
89659.4,53.8905,-1255.37,0,0
89919.725,53.8108,-1250.64,0,0
90180,53.9541,-1246.11,0,0
90440.4,53.888,-1241.61,0,0
90700.7,53.7899,-1236.95,0,0
90961,53.7341,-1232.5,0,0
91221.3,53.6678,-1227.88,0,0
91481.7,53.709,-1223.25,0,0
91742,53.7796,-1218.73,0,0
92002.3,54.0194,-1214.09,0,0
92262.6,54.3098,-1209.56,0,0
92523,54.6914,-1205.28,0,0
92783.3,54.9961,-1201.1,0,0
93043.6,55.2853,-1197.15,0,0
93303.9,55.4231,-1193.26,0,0
93564.3,55.3633,-1189.41,0,0
93824.6,55.2026,-1185.55,0,0
94084.9,54.89,-1181.54,0,0
94345.2,54.4204,-1177.43,0,0
94605.6,54.0425,-1173.12,0,0
94865.9,53.6722,-1168.71,0,0
95126.2,53.4935,-1164.21,0,0
95386.5,53.3137,-1159.8,0,0
95646.9,53.2855,-1155.28,0,0
95907.2,53.3597,-1150.65,0,0
96167.5,53.4437,-1146.34,0,0
96427.8,53.6038,-1142.01,0,0
96688.2,53.7473,-1137.72,0,0
96948.5,53.8762,-1133.47,0,0
97208.8,54.027,-1129.13,0,0
97469.1,54.2802,-1124.88,0,0
97729.5,54.4931,-1120.73,0,0
97989.8,54.6395,-1116.44,0,0
98250.1,54.8947,-1112.17,0,0
98510.4,55.209,-1107.89,0,0
98770.8,55.4997,-1103.65,0,0
99031.1,55.944,-1099.33,0,0
99291.4,56.5091,-1095.13,0,0
99551.7,57.1908,-1091.06,0,0
99812.1,57.7277,-1087.22,0,0
100072,58.0734,-1083.19,0,0
100333,58.7722,-1079.02,0,0
100593,59.7563,-1075.06,0,0
100853,60.9128,-1071.57,0,0
101114,61.633,-1068.53,0,0
101374,62.1802,-1065.34,0,0
101634,62.7544,-1062.53,0,0
101895,62.723,-1059.98,0,0
102155,62.0028,-1057.27,0,0
102415,60.8292,-1053.83,0,0
102676,60.0038,-1049.88,0,0
102936,59.2908,-1045.87,0,0
103196,58.466,-1041.43,0,0
103457,57.9473,-1036.6,0,0
103717,57.9137,-1031.67,0,0
103977,58.188,-1026.69,0,0
104238,58.8438,-1021.87,0,0
104498,59.4906,-1017.33,0,0
104758,60.2739,-1012.59,0,0
105019,61.3676,-1008.04,0,0
105279,62.5754,-1003.74,0,0
105539,63.7682,-999.614,0,0
105800,64.9788,-995.556,0,0
106060,66.3013,-991.587,0,0
106320.175,67.522,-987.808,0,0
106580.5,68.8213,-983.991,0,0
106840.825,70.1617,-980.283,0,0
107101.15,71.4294,-976.737,0,0
107361.475,72.6729,-973.199,0,0
107621.8,73.9077,-969.635,0,0
107882.125,75.1684,-965.97,0,0
108142.45,76.6097,-962.355,0,0
108402.775,78.2121,-958.853,0,0
108663.1,79.9258,-955.523,0,0
108923.425,81.7328,-952.288,0,0
109183.75,83.4123,-949.44,0,0
109444.075,85.1757,-946.623,0,0
109704.4,86.8434,-944.042,0,0
109964.725,88.2974,-941.58,0,0
110225.05,89.6764,-939.053,0,0
110485.375,91.0579,-936.622,0,0
110745.7,92.4027,-934.212,0,0
111006.025,93.7352,-931.883,0,0
111266.35,94.8843,-929.578,0,0
111526.675,96.0629,-927.361,0,0
111787.0,97.1853,-924.971,0,0
112047.325,98.394,-922.753,0,0
112307.65,99.6449,-920.594,0,0
112567.975,100.861,-918.648,0,0
112828.3,101.909,-916.589,0,0
113088.625,102.92,-914.744,0,0
113348.95,103.882,-912.926,0,0
113609.275,104.789,-911.228,0,0
113869.6,105.577,-909.442,0,0
114129.925,106.285,-907.744,0,0
114390.25,106.919,-906.071,0,0
114650.575,107.559,-904.403,0,0
114910.9,108.097,-902.738,0,0
115171.225,108.695,-901.245,0,0
115431.55,109.032,-899.743,0,0
115691.875,109.197,-898.252,0,0
115952.2,109.278,-896.616,0,0
116212.525,109.331,-894.995,0,0
116472.85,109.413,-893.377,0,0
116733.175,109.297,-891.834,0,0
116993.5,108.968,-890.115,0,0
117253.825,108.624,-888.261,0,0
117514.15,108.182,-886.223,0,0
117774.475,107.811,-884.043,0,0
118034.8,107.441,-881.667,0,0
118295.125,107.25,-879.107,0,0
118555.45,107.176,-876.537,0,0
118815.775,107.283,-873.789,0,0
119076.1,107.788,-870.961,0,0
119336.425,108.795,-868.249,0,0
119596.75,110.2,-866.067,0,0
119857.075,111.663,-864.58,0,0
120117.4,112.928,-863.685,0,0
120377.725,113.712,-863.404,0,0
120638.05,113.802,-863.433,0,0
120898.375,112.92,-863.46,0,0
121158.7,111.376,-862.755,0,0
121419.025,109.81,-861.461,0,0
121679.35,108.238,-859.787,0,0
121939.675,106.839,-857.751,0,0
122200.0,105.54,-855.596,0,0
122460,104.307,-853.285,0,0
122721,103.21,-850.764,0,0
122981,102.346,-848.146,0,0
123241,101.628,-845.67,0,0
123502,100.864,-843.149,0,0
123762,100.259,-840.576,0,0
124022,99.7122,-838.083,0,0
124283,99.1708,-835.664,0,0
124543,98.576,-833.247,0,0
124803,98.009,-830.773,0,0
125064,97.4451,-828.182,0,0
125324,96.9859,-825.695,0,0
125584,96.6148,-823.277,0,0
125845,96.1484,-820.857,0,0
126105,95.8484,-818.509,0,0
126365,95.5533,-816.385,0,0
126626,95.0212,-814.469,0,0
126886,94.2004,-812.437,0,0
127146,93.2765,-810.156,0,0
127406,92.317,-807.945,0,0
127667,91.3292,-805.427,0,0
127927,90.4952,-803.118,0,0
128187,89.5034,-800.828,0,0
128448,88.2946,-798.438,0,0
128708,86.9749,-795.842,0,0
128968,85.7926,-793.115,0,0
129229,84.4662,-790.392,0,0
129489,83.0291,-787.432,0,0
129749,81.6649,-784.228,0,0
130010,80.3705,-780.803,0,0
130270,79.3343,-777.318,0,0
130530,78.3501,-773.792,0,0
130791,77.4474,-770.217,0,0
131051,76.6201,-766.641,0,0
131311,75.8607,-762.921,0,0
131572,75.2335,-759.17,0,0
131832,74.7352,-755.395,0,0
132092,74.3169,-751.721,0,0
132353,73.8609,-748.05,0,0
132613,73.4543,-744.233,0,0
132873,73.2498,-740.429,0,0
133134,73.0509,-736.617,0,0
133394,72.9218,-732.879,0,0
133654,72.831,-729.1,0,0
133915,72.7684,-725.311,0,0
134175,72.8196,-721.497,0,0
134435,72.9342,-717.687,0,0
134696,73.108,-713.877,0,0
134956,73.3342,-710.083,0,0
135216,73.5853,-706.328,0,0
135477,73.9876,-702.536,0,0
135737,74.4685,-698.782,0,0
135997,74.9796,-695.197,0,0
136258,75.4155,-691.691,0,0
136518,75.818,-688.067,0,0
136778,76.4172,-684.43,0,0
137039,77.0436,-680.898,0,0
137299,77.6855,-677.485,0,0
137559,78.243,-674.159,0,0
137819,78.6707,-670.843,0,0
138080,79.0111,-667.465,0,0
138340.125,79.3052,-663.955,0,0
138600.45,79.686,-660.299,0,0
138860.775,80.1418,-656.63,0,0
139121.1,80.6111,-652.943,0,0
139381.425,81.1685,-649.172,0,0
139641.75,81.8085,-645.378,0,0
139902.075,82.5145,-641.598,0,0
140162.4,83.237,-637.794,0,0
140422.725,84.0688,-633.938,0,0
140683.05,84.9622,-630.111,0,0
140943.375,85.9891,-626.248,0,0
141203.7,87.0952,-622.433,0,0
141464.025,88.2702,-618.702,0,0
141724.35,89.4913,-615.052,0,0
141984.675,90.6943,-611.45,0,0
142245.0,91.8633,-607.87,0,0
142505.325,93.0586,-604.247,0,0
142765.65,94.2989,-600.67,0,0
143025.975,95.5344,-597.088,0,0
143286.3,96.7739,-593.471,0,0
143546.625,98.0738,-589.857,0,0
143806.95,99.3589,-586.23,0,0
144067.275,100.719,-582.538,0,0
144327.6,102.102,-578.886,0,0
144587.925,103.561,-575.196,0,0
144848.25,105.078,-571.46,0,0
145108.575,106.657,-567.762,0,0
145368.9,108.312,-564.05,0,0
145629.225,109.963,-560.351,0,0
145889.55,111.742,-556.626,0,0
146149.875,113.553,-552.926,0,0
146410.2,115.407,-549.205,0,0
146670.525,117.388,-545.446,0,0
146930.85,119.475,-541.782,0,0
147191.175,121.493,-538.182,0,0
147451.5,123.587,-534.543,0,0
147711.825,125.785,-530.881,0,0
147972.15,128.052,-527.304,0,0
148232.475,130.287,-523.749,0,0
148492.8,132.557,-520.064,0,0
148753.125,135.014,-516.339,0,0
149013.45,137.587,-512.623,0,0
149273.775,140.287,-508.968,0,0
149534.1,143.086,-505.345,0,0
149794.425,145.985,-501.717,0,0
150054.75,149.015,-498.151,0,0
150315.075,152.137,-494.688,0,0
150575.4,155.338,-491.246,0,0
150835.725,158.684,-487.749,0,0
151096.05,162.193,-484.324,0,0
151356.375,165.939,-480.977,0,0
151616.7,169.901,-477.852,0,0
151877.025,173.912,-474.979,0,0
152137.35,177.925,-472.226,0,0
152397.675,181.997,-469.525,0,0
152658.0,186.304,-466.873,0,0
152918.325,190.848,-464.528,0,0
153178.65,195.45,-462.533,0,0
153438.975,200.067,-460.866,0,0
153699.3,204.625,-459.561,0,0
153959.625,208.989,-458.549,0,0
154219.95,213.097,-457.779,0,0
154480,216.94,-457.039,0,0
154741,220.691,-456.481,0,0
155001,224.066,-455.926,0,0
155261,227.251,-455.094,0,0
155522,230.648,-454.045,0,0
155782,234.247,-453.179,0,0
156042,237.844,-452.491,0,0
156303,241.235,-452.05,0,0
156563,244.682,-451.621,0,0
156823,247.778,-451.547,0,0
157084,250.357,-451.256,0,0
157344,253.002,-450.465,0,0
157604,255.89,-449.712,0,0
157864,258.466,-449.088,0,0
158125,261.14,-447.775,0,0
158385,264.425,-446.34,0,0
158645,268.017,-445.232,0,0
158906,271.718,-444.155,0,0
159166,275.93,-443.233,0,0
159426,280.237,-442.981,0,0
159687,284.509,-443.126,0,0
159947,288.8,-443.731,0,0
160207,292.845,-444.744,0,0
160468,296.369,-446.206,0,0
160728,299.637,-447.764,0,0
160988,302.609,-449.353,0,0
161249,305.146,-451.308,0,0
161509,307.016,-453.378,0,0
161769,308.251,-455.103,0,0
162030,309.125,-456.332,0,0
162290,309.818,-457.093,0,0
162550,310.432,-457.415,0,0
162811,311.239,-457.267,0,0
163071,312.156,-457.08,0,0
163331,313.081,-456.777,0,0
163592,313.968,-456.06,0,0
163852,315.008,-455.113,0,0
164112,316.102,-453.67,0,0
164373,317.746,-451.804,0,0
164633,319.964,-449.951,0,0
164893,322.736,-448.253,0,0
165154,325.807,-446.859,0,0
165414,329.059,-445.765,0,0
165674,332.292,-444.837,0,0
165935,335.458,-443.83,0,0
166195,339.052,-442.742,0,0
166455,342.897,-441.609,0,0
166716,347.265,-440.453,0,0
166976,352.372,-439.654,0,0
167236,358.016,-439.532,0,0
167497,363.752,-440.015,0,0
167757,369.805,-441.095,0,0
168017,376.188,-442.96,0,0
168277,382.585,-445.92,0,0
168538,388.575,-450.145,0,0
168798,393.669,-455,0,0
169058,398.106,-460.187,0,0
169319,402.014,-465.623,0,0
169579,405.589,-471.494,0,0
169839,408.496,-477.874,0,0
170100,410.636,-484.412,0,0
170360.075,412.262,-491.079,0,0
170620.4,413.605,-498.232,0,0
170880.725,413.964,-506.186,0,0
171141.05,412.724,-514.386,0,0
171401.375,409.909,-522.108,0,0
171661.7,406.126,-528.83,0,0
171922.025,401.889,-534.732,0,0
172182.35,397.138,-540.129,0,0
172442.675,391.957,-544.862,0,0
172703.0,386.382,-549.178,0,0
172963.325,379.943,-552.94,0,0
173223.65,372.841,-555.451,0,0
173483.975,365.824,-556.661,0,0
173744.3,359.134,-557.139,0,0
174004.625,352.498,-556.773,0,0
174264.95,346.308,-555.723,0,0
174525.275,340.313,-554.238,0,0
174785.6,334.451,-552.002,0,0
175045.925,329.241,-549.263,0,0
175306.25,324.504,-546.255,0,0
175566.575,319.915,-543.027,0,0
175826.9,315.522,-539.28,0,0
176087.225,311.641,-535.051,0,0
176347.55,308.349,-530.589,0,0
176607.875,305.572,-525.979,0,0
176868.2,303.236,-521.296,0,0
177128.525,301.264,-516.614,0,0
177388.85,299.691,-511.847,0,0
177649.175,298.523,-507.06,0,0
177909.5,297.8,-502.297,0,0
178169.825,297.519,-497.781,0,0
178430.15,297.441,-493.594,0,0
178690.475,297.343,-489.582,0,0
178950.8,297.363,-485.555,0,0
179211.125,297.533,-481.599,0,0
179471.45,297.831,-477.726,0,0
179731.775,298.213,-473.887,0,0
179992.1,298.716,-470.101,0,0
180252.425,299.42,-466.39,0,0
180512.75,300.175,-462.882,0,0
180773.075,300.963,-459.458,0,0
181033.4,301.693,-456.079,0,0
181293.725,302.462,-452.712,0,0
181554.05,303.293,-449.391,0,0
181814.375,304.084,-446.118,0,0
182074.7,304.859,-442.9,0,0
182335.025,305.55,-439.657,0,0
182595.35,306.195,-436.335,0,0
182855.675,306.786,-432.899,0,0
183116.0,307.398,-429.376,0,0
183376.325,307.957,-425.676,0,0
183636.65,308.595,-421.773,0,0
183896.975,309.334,-417.707,0,0
184157.3,310.228,-413.489,0,0
184417.625,311.297,-409.145,0,0
184677.95,312.534,-404.732,0,0
184938.275,313.893,-400.257,0,0
185198.6,315.362,-395.703,0,0
185458.925,316.897,-391.038,0,0
185719.25,318.634,-386.188,0,0
185979.575,320.58,-381.197,0,0
186239.9,322.77,-376.12,0,0
186500,325.18,-371.001,0,0
186761,327.847,-365.857,0,0
187021,330.717,-360.745,0,0
187281,333.737,-355.5,0,0
187542,336.876,-350.241,0,0
187802,340.324,-344.884,0,0
188062,344.031,-339.51,0,0
188322,347.943,-333.969,0,0
188583,352.242,-328.486,0,0
188843,356.759,-323.011,0,0
189103,361.54,-317.454,0,0
189364,366.704,-312.015,0,0
189624,372.196,-306.529,0,0
189884,377.798,-301.133,0,0
190145,383.912,-295.538,0,0
190405,390.407,-290.161,0,0
190665,397.333,-284.77,0,0
190926,404.642,-279.646,0,0
191186,412.414,-274.719,0,0
191446,420.475,-270.036,0,0
191707,428.847,-265.592,0,0
191967,437.582,-261.31,0,0
192227,446.674,-257.419,0,0
192488,456.052,-253.827,0,0
192748,465.665,-250.513,0,0
193008,475.657,-247.574,0,0
193269,485.737,-244.998,0,0
193529,496.089,-242.79,0,0
193789,506.663,-240.911,0,0
194050,517.191,-239.387,0,0
194310,528.024,-238.05,0,0
194570,539.003,-236.882,0,0
194831,550.342,-236.213,0,0
195091,561.875,-235.92,0,0
195351,573.577,-236.015,0,0
195612,585.379,-236.424,0,0
195872,597.339,-237.126,0,0
196132,609.581,-238.115,0,0
196393,622.12,-239.491,0,0
196653,634.921,-241.275,0,0
196913,648.028,-243.466,0,0
197174,661.519,-246.092,0,0
197434,675.502,-249.341,0,0
197694,689.81,-253.345,0,0
197955,704.465,-258.267,0,0
198215,719.357,-264.121,0,0
198475,734.268,-271.056,0,0
198735,749.016,-278.987,0,0
198996,763.804,-287.827,0,0
199256,778.488,-297.722,0,0
199516,793.029,-308.988,0,0
199777,806.917,-321.59,0,0
200037,820.018,-335.324,0,0
200297,832.213,-350.093,0,0
200558,843.306,-365.541,0,0
200818,853.458,-381.591,0,0
201078,862.74,-398.291,0,0
201339,871.063,-415.8,0,0
201599,877.969,-433.856,0,0
201859,883.547,-452.113,0,0
202120,887.8,-470.529,0,0
202380.025,891.226,-488.723,0,0
202640.35,893.161,-507.106,0,0
202900.675,893.741,-525.331,0,0
203161.0,892.924,-542.527,0,0
203421.325,891.716,-558.566,0,0
203681.65,890.674,-574.281,0,0
203941.975,889.356,-590.15,0,0
204202.3,887.469,-605.999,0,0
204462.625,884.754,-621.955,0,0
204722.95,880.923,-637.661,0,0
204983.275,876.542,-652.54,0,0
205243.6,871.913,-666.513,0,0
205503.925,867.274,-680.8,0,0
205764.25,861.948,-694.981,0,0
206024.575,855.913,-708.776,0,0
206284.9,849.258,-722.065,0,0
206545.225,842.256,-734.811,0,0
206805.55,835.068,-747.05,0,0
207065.875,827.627,-759.333,0,0
207326.2,820.161,-771.415,0,0
207586.525,811.746,-783.54,0,0
207846.85,802.558,-795.453,0,0
208107.175,792.577,-806.861,0,0
208367.5,781.747,-817.741,0,0
208627.825,769.962,-827.67,0,0
208888.15,757.646,-836.5,0,0
209148.475,745.026,-844.053,0,0
209408.8,732.325,-850.427,0,0
209669.125,719.631,-855.796,0,0
209929.45,707.25,-859.772,0,0
210189.775,695.362,-863.005,0,0
210450.1,684.123,-865.708,0,0
210710.425,673.366,-867.665,0,0
210970.75,663.061,-869.386,0,0
211231.075,653.001,-870.743,0,0
211491.4,643.391,-871.735,0,0
211751.725,633.896,-872.215,0,0
212012.05,624.812,-872.326,0,0
212272.375,616.184,-871.957,0,0
212532.7,608.036,-871.258,0,0
212793.025,600.407,-870.363,0,0
213053.35,593.236,-869.278,0,0
213313.675,586.587,-868.021,0,0
213574.0,580.181,-866.66,0,0
213834.325,574.41,-865.163,0,0
214094.65,569.135,-863.474,0,0
214354.975,564.765,-861.883,0,0
214615.3,560.876,-860.609,0,0
214875.625,557.495,-859.756,0,0
215135.95,554.564,-859.539,0,0
215396.275,551.551,-859.905,0,0
215656.6,548.376,-860.7,0,0
215916.925,545.064,-861.815,0,0
216177.25,541.561,-863.059,0,0
216437.575,537.88,-864.51,0,0
216697.9,533.892,-865.936,0,0
216958.225,529.782,-867.382,0,0
217218.55,525.592,-868.775,0,0
217478.875,521.278,-870.242,0,0
217739.2,516.822,-871.693,0,0
217999.525,512.137,-873.028,0,0
218259.85,507.321,-874.122,0,0
218520,502.409,-875.044,0,0
218780,497.526,-875.843,0,0
219041,492.786,-876.179,0,0
219301,488.333,-876.367,0,0
219561,484.212,-876.661,0,0
219822,480.251,-877.114,0,0
220082,476.331,-877.862,0,0
220342,472.078,-878.85,0,0
220603,467.619,-879.686,0,0
220863,463.208,-880.423,0,0
221123,458.646,-881.145,0,0
221384,454.188,-881.815,0,0
221644,449.517,-882.389,0,0
221904,444.801,-882.858,0,0
222165,440.018,-883.229,0,0
222425,435.108,-883.312,0,0
222685,430.347,-883.175,0,0
222946,425.776,-883.003,0,0
223206,421.649,-882.75,0,0
223466,417.376,-882.572,0,0
223727,413.202,-882.686,0,0
223987,408.932,-882.813,0,0
224247,404.648,-882.933,0,0
224508,400.395,-882.989,0,0
224768,395.976,-883.224,0,0
225028,391.519,-883.457,0,0
225289,386.992,-883.535,0,0
225549,382.289,-883.866,0,0
225809,377.238,-884.127,0,0
226070,372.047,-884.335,0,0
226330,366.402,-884.146,0,0
226590,360.833,-883.669,0,0
226851,355.205,-882.845,0,0
227111,349.712,-881.721,0,0
227371,344.386,-880.49,0,0
227632,338.986,-879.182,0,0
227892,333.579,-877.813,0,0
228152,328.107,-876.237,0,0
228413,322.51,-874.32,0,0
228673,316.957,-872.047,0,0
228933,311.603,-869.546,0,0
229193,306.354,-866.738,0,0
229454,301.42,-863.746,0,0
229714,296.559,-860.496,0,0
229974,291.958,-857.133,0,0
230235,287.555,-853.593,0,0
230495,283.578,-849.835,0,0
230755,279.84,-846.114,0,0
231016,276.387,-842.367,0,0
231276,273.161,-838.706,0,0
231536,270.127,-835.023,0,0
231797,267.318,-831.496,0,0
232057,264.538,-828.034,0,0
232317,261.874,-824.619,0,0
232578,259.253,-821.126,0,0
232838,256.79,-817.633,0,0
233098,254.482,-814.157,0,0
233359,252.298,-810.665,0,0
233619,250.254,-807.285,0,0
233879,248.403,-803.896,0,0
234140,246.665,-800.638,0,0
234400,244.966,-797.386,0,0
234660.3,243.34,-794.282,0,0
234920.625,241.777,-791.106,0,0
235180.95,240.351,-787.952,0,0
235441.275,239.002,-784.924,0,0
235701.6,237.765,-782.025,0,0
235961.925,236.504,-779.219,0,0
236222.25,235.247,-776.471,0,0
236482.575,234.006,-773.712,0,0
236742.9,232.724,-770.923,0,0
237003.225,231.499,-768.065,0,0
237263.55,230.405,-765.195,0,0
237523.875,229.385,-762.265,0,0
237784.2,228.538,-759.366,0,0
238044.525,227.878,-756.468,0,0
238304.85,227.329,-753.686,0,0
238565.175,227.014,-750.935,0,0
238825.5,226.729,-748.447,0,0
239085.825,226.518,-746.085,0,0
239346.15,226.291,-743.912,0,0
239606.475,226.118,-741.805,0,0
239866.8,225.885,-739.916,0,0
240127.125,225.688,-737.917,0,0
240387.45,225.459,-736.141,0,0
240647.775,225.231,-734.447,0,0
240908.1,225.007,-732.891,0,0
241168.425,224.671,-731.359,0,0
241428.75,224.337,-729.993,0,0
241689.075,223.832,-728.674,0,0
241949.4,223.325,-727.294,0,0
242209.725,222.761,-725.985,0,0
242470.05,222.234,-724.721,0,0
242730.375,221.633,-723.518,0,0
242990.7,220.875,-722.383,0,0
243251.025,220.013,-721.184,0,0
243511.35,219.121,-719.965,0,0
243771.675,218.276,-718.679,0,0
244032.0,217.33,-717.54,0,0
244292.325,216.317,-716.371,0,0
244552.65,215.147,-715.146,0,0
244812.975,213.846,-713.888,0,0
245073.3,212.652,-712.45,0,0
245333.625,211.263,-710.981,0,0
245593.95,209.898,-709.321,0,0
245854.275,208.545,-707.571,0,0
246114.6,207.236,-705.686,0,0
246374.925,206.074,-703.671,0,0
246635.25,204.959,-701.586,0,0
246895.575,204.004,-699.539,0,0
247155.9,203.101,-697.351,0,0
247416.225,202.261,-695.204,0,0
247676.55,201.582,-693.035,0,0
247936.875,201.163,-690.871,0,0
248197.2,200.758,-688.907,0,0
248457.525,200.377,-687.021,0,0
248717.85,199.948,-685.233,0,0
248978.175,199.569,-683.468,0,0
249238.5,199.183,-681.829,0,0
249498.825,198.733,-680.182,0,0
249759.15,198.161,-678.591,0,0
250019.475,197.676,-676.957,0,0
250279.8,197.111,-675.391,0,0
250540,196.492,-673.653,0,0
250800,196.012,-671.943,0,0
251061,195.556,-670.348,0,0
251321,195.066,-668.832,0,0
251581,194.503,-667.398,0,0
251842,193.764,-665.95,0,0
252102,192.905,-664.516,0,0
252362,191.98,-663.007,0,0
252623,190.859,-661.396,0,0
252883,189.634,-659.673,0,0
253143,188.283,-657.69,0,0
253404,186.928,-655.423,0,0
253664,185.686,-652.855,0,0
253924,184.658,-650.164,0,0
254185,183.822,-647.349,0,0
254445,183.064,-644.541,0,0
254705,182.56,-641.666,0,0
254966,182.042,-638.771,0,0
255226,181.469,-635.686,0,0
255486,181.138,-632.557,0,0
255747,180.853,-629.327,0,0
256007,180.715,-625.988,0,0
256267,180.732,-622.479,0,0
256528,181.03,-618.87,0,0
256788,181.63,-615.212,0,0
257048,182.462,-611.633,0,0
257309,183.49,-608.113,0,0
257569,184.674,-604.641,0,0
257829,185.998,-601.18,0,0
258090,187.514,-597.746,0,0
258350,189.208,-594.348,0,0
258610,191.103,-590.993,0,0
258871,193.171,-587.609,0,0
259131,195.514,-584.295,0,0
259391,198.172,-581.013,0,0
259651,201.168,-577.86,0,0
259912,204.425,-574.999,0,0
260172,207.944,-572.37,0,0
260432,211.546,-570.045,0,0
260693,215.357,-567.921,0,0
260953,219.351,-566.055,0,0
261213,223.532,-564.531,0,0
261474,227.786,-563.44,0,0
261734,232.05,-562.704,0,0
261994,236.232,-562.29,0,0
262255,240.251,-562.132,0,0
262515,244.227,-562.094,0,0
262775,248.218,-562.176,0,0
263036,252.358,-562.505,0,0
263296,256.489,-563.108,0,0
263556,260.62,-564.067,0,0
263817,264.651,-565.346,0,0
264077,268.572,-566.917,0,0
264337,272.376,-568.726,0,0
264598,275.972,-571.119,0,0
264858,279.299,-573.374,0,0
265118,282.669,-575.736,0,0
265379,285.947,-578.355,0,0
265639,289.115,-581.302,0,0
265899,292.129,-584.5,0,0
266160,294.959,-588.076,0,0
266420,297.486,-591.981,0,0
266680.25,299.737,-596.214,0,0
266940.575,301.515,-600.689,0,0
267200.9,302.67,-605.474,0,0
267461.225,303.277,-610.132,0,0
267721.55,303.483,-614.619,0,0
267981.875,303.372,-618.932,0,0
268242.2,303.011,-623.192,0,0
268502.525,302.431,-627.369,0,0
268762.85,301.561,-631.487,0,0
269023.175,300.474,-635.543,0,0
269283.5,299.06,-639.51,0,0
269543.825,297.377,-643.646,0,0
269804.15,295.04,-647.7,0,0
270064.475,292.035,-651.253,0,0
270324.8,288.764,-654.079,0,0
270585.125,285.401,-656.153,0,0
270845.45,282.314,-657.715,0,0
271105.775,279.615,-659.001,0,0
271366.1,277.171,-659.989,0,0
271626.425,275.061,-660.88,0,0
271886.75,273.378,-661.819,0,0
272147.075,271.903,-663.095,0,0
272407.4,270.383,-664.514,0,0
272667.725,268.808,-666.207,0,0
272928.05,267.013,-668.178,0,0
273188.375,264.901,-670.055,0,0
273448.7,262.649,-671.791,0,0
273709.025,260.297,-673.541,0,0
273969.35,257.836,-675.292,0,0
274229.675,255.193,-677.031,0,0
274490.0,252.391,-678.619,0,0
274750.325,249.479,-680.257,0,0
275010.65,246.235,-681.927,0,0
275270.975,242.551,-683.316,0,0
275531.3,238.731,-684.422,0,0
275791.625,234.665,-685.294,0,0
276051.95,230.432,-685.7,0,0
276312.275,226.15,-685.777,0,0
276572.6,221.865,-685.461,0,0
276832.925,217.586,-684.785,0,0
277093.25,213.376,-683.654,0,0
277353.575,209.367,-682.207,0,0
277613.9,205.554,-680.466,0,0
277874.225,201.902,-678.438,0,0
278134.55,198.492,-676.066,0,0
278394.875,195.417,-673.46,0,0
278655.2,192.654,-670.662,0,0
278915.525,190.227,-667.728,0,0
279175.85,188.156,-664.641,0,0
279436.175,186.453,-661.483,0,0
279696.5,185.285,-658.345,0,0
279956.825,184.558,-655.335,0,0
280217.15,184.169,-652.685,0,0
280477.475,183.968,-650.362,0,0
280737.8,183.878,-648.314,0,0
280998.125,183.818,-646.551,0,0
281258.45,183.672,-644.991,0,0
281518.775,183.536,-643.587,0,0
281779.1,183.291,-642.383,0,0
282039.425,182.845,-641.211,0,0
282299.75,182.261,-639.972,0,0
282560,181.649,-638.574,0,0
282820,181.176,-637.023,0,0
283081,180.953,-635.372,0,0
283341,181.024,-633.828,0,0
283601,181.353,-632.54,0,0
283862,181.761,-631.599,0,0
284122,182.034,-631,0,0
284382,182.139,-630.676,0,0
284643,181.945,-630.437,0,0
284903,181.441,-630.192,0,0
285163,180.9,-629.853,0,0
285424,180.261,-629.332,0,0
285684,179.649,-628.859,0,0
285944,179.004,-628.418,0,0
286205,178.239,-628.063,0,0
286465,177.244,-627.718,0,0
286725,176.015,-627.229,0,0
286986,174.676,-626.537,0,0
287246,173.245,-625.654,0,0
287506,171.718,-624.532,0,0
287767,170.169,-623.101,0,0
288027,168.677,-621.353,0,0
288287,167.384,-619.229,0,0
288548,166.343,-616.911,0,0
288808,165.611,-614.382,0,0
289068,165.144,-611.684,0,0
289329,165.099,-608.881,0,0
289589,165.463,-605.988,0,0
289849,166.284,-603.24,0,0
290109,167.558,-600.663,0,0
290370,169.163,-598.338,0,0
290630,171.051,-596.304,0,0
290890,173.158,-594.672,0,0
291151,175.428,-593.326,0,0
291411,177.824,-592.355,0,0
291671,180.324,-591.774,0,0
291932,182.794,-591.642,0,0
292192,185.192,-591.867,0,0
292452,187.455,-592.42,0,0
292713,189.572,-593.211,0,0
292973,191.559,-594.254,0,0
293233,193.531,-595.588,0,0
293494,195.303,-597.241,0,0
293754,196.846,-599.276,0,0
294014,197.994,-601.604,0,0
294275,198.747,-604.107,0,0
294535,199.127,-606.717,0,0
294795,199.115,-609.378,0,0
295056,198.711,-612.034,0,0
295316,197.891,-614.664,0,0
295576,196.634,-617.095,0,0
295837,195.105,-619.314,0,0
296097,193.282,-621.309,0,0
296357,191.304,-623.006,0,0
296618,189.169,-624.455,0,0
296878,186.938,-625.641,0,0
297138,184.646,-626.561,0,0
297399,182.324,-627.216,0,0
297659,180.061,-627.651,0,0
297919,177.828,-627.887,0,0
298180,175.673,-627.949,0,0
298440,173.624,-627.851,0,0
298700.2,171.691,-627.663,0,0
298960.525,169.869,-627.394,0,0
299220.85,168.138,-627.151,0,0
299481.175,166.434,-626.864,0,0
299741.5,164.728,-626.51,0,0
300001.825,163.101,-626.191,0,0
300262.15,161.535,-625.785,0,0
300522.475,159.968,-625.455,0,0
300782.8,158.36,-625.125,0,0
301043.125,156.718,-624.711,0,0
301303.45,155.044,-624.229,0,0
301563.775,153.373,-623.704,0,0
301824.1,151.684,-623.102,0,0
302084.425,150.005,-622.37,0,0
302344.75,148.379,-621.567,0,0
302605.075,146.828,-620.669,0,0
302865.4,145.359,-619.725,0,0
303125.725,143.964,-618.771,0,0
303386.05,142.609,-617.831,0,0
303646.375,141.267,-616.879,0,0
303906.7,139.952,-615.867,0,0
304167.025,138.637,-614.797,0,0
304427.35,137.409,-613.69,0,0
304687.675,136.229,-612.544,0,0
304948.0,135.144,-611.375,0,0
305208.325,134.106,-610.22,0,0
305468.65,133.048,-608.999,0,0
305728.975,132.131,-607.767,0,0
305989.3,131.275,-606.558,0,0
306249.625,130.508,-605.308,0,0
306509.95,129.785,-604.117,0,0
306770.275,129.139,-602.923,0,0
307030.6,128.564,-601.782,0,0
307290.925,128.039,-600.697,0,0
307551.25,127.533,-599.685,0,0
307811.575,127.04,-598.714,0,0
308071.9,126.574,-597.791,0,0
308332.225,126.116,-596.899,0,0
308592.55,125.658,-596.055,0,0
308852.875,125.184,-595.252,0,0
309113.2,124.695,-594.497,0,0
309373.525,124.173,-593.762,0,0
309633.85,123.611,-593.033,0,0
309894.175,123.053,-592.273,0,0
310154.5,122.438,-591.53,0,0
310414.825,121.887,-590.787,0,0
310675.15,121.313,-590.093,0,0
310935.475,120.713,-589.376,0,0
311195.8,120.074,-588.682,0,0
311456.125,119.403,-587.969,0,0
311716.45,118.715,-587.213,0,0
311976.775,118.01,-586.415,0,0
312237.1,117.318,-585.563,0,0
312497.425,116.64,-584.673,0,0
312757.75,116.005,-583.757,0,0
313018.075,115.409,-582.807,0,0
313278.4,114.85,-581.848,0,0
313538.725,114.349,-580.903,0,0
313799.05,113.892,-579.962,0,0
314059.375,113.459,-579.018,0,0
314319.7,113.008,-578.092,0,0
314580,112.616,-577.223,0,0
314840,112.312,-576.185,0,0
315101,112.044,-575.371,0,0
315361,111.762,-574.475,0,0
315621,111.53,-573.626,0,0
315882,111.298,-572.966,0,0
316142,111.218,-572.145,0,0
316402,110.95,-571.549,0,0
316663,110.859,-570.888,0,0
316923,110.604,-570.204,0,0
317183,110.501,-569.778,0,0
317444,110.274,-569.196,0,0
317704,110.161,-568.845,0,0
317964,109.827,-568.354,0,0
318225,109.702,-568.061,0,0
318485,109.36,-567.838,0,0
318745,109.054,-567.575,0,0
319006,108.671,-567.312,0,0
319266,108.199,-567.168,0,0
319526,107.659,-566.958,0,0
319787,107.084,-566.731,0,0
320047,106.427,-566.589,0,0
320307,105.844,-566.462,0,0
320567,105.057,-566.317,0,0
320828,104.213,-566.183,0,0
321088,103.347,-565.959,0,0
321348,102.344,-565.828,0,0
321609,101.222,-565.587,0,0
321869,99.9785,-565.333,0,0
322129,98.7926,-564.968,0,0
322390,97.3878,-564.479,0,0
322650,95.9648,-563.767,0,0
322910,94.4363,-563.047,0,0
323171,93.0257,-562.243,0,0
323431,91.6256,-561.063,0,0
323691,90.285,-559.841,0,0
323952,89.0869,-558.454,0,0
324212,87.9443,-557.108,0,0
324472,87.0141,-555.7,0,0
324733,86.1826,-554.185,0,0
324993,85.4906,-552.713,0,0
325253,84.7586,-551.41,0,0
325514,84.1987,-550.07,0,0
325774,83.6095,-548.775,0,0
326034,82.9588,-547.36,0,0
326295,82.3732,-546.089,0,0
326555,81.8237,-544.8,0,0
326815,81.2691,-543.511,0,0
327076,80.8465,-542.154,0,0
327336,80.3232,-540.793,0,0
327596,79.8939,-539.402,0,0
327857,79.394,-538.058,0,0
328117,79.0499,-536.726,0,0
328377,78.7177,-535.265,0,0
328638,78.3614,-533.864,0,0
328898,78.1337,-532.495,0,0
329158,77.8918,-531.059,0,0
329419,77.7608,-529.617,0,0
329679,77.7086,-528.217,0,0
329939,77.7327,-526.735,0,0
330200,77.8222,-525.4,0,0
330460,77.9842,-524.044,0,0
330720.15,78.1814,-522.836,0,0
330980.475,78.4309,-521.644,0,0
331240.8,78.7129,-520.581,0,0
331501.125,79.0381,-519.593,0,0
331761.45,79.2898,-518.714,0,0
332021.775,79.4875,-517.805,0,0
332282.1,79.7578,-517.085,0,0
332542.425,79.9317,-516.331,0,0
332802.75,80.115,-515.679,0,0
333063.075,80.2187,-515.029,0,0
333323.4,80.2559,-514.471,0,0
333583.725,80.2098,-513.808,0,0
333844.05,80.1912,-513.217,0,0
334104.375,80.0762,-512.601,0,0
334364.7,79.8994,-512.083,0,0
334625.025,79.6955,-511.479,0,0
334885.35,79.4678,-510.829,0,0
335145.675,79.1686,-510.181,0,0
335406.0,78.8204,-509.432,0,0
335666.325,78.5195,-508.706,0,0
335926.65,78.1695,-507.917,0,0
336186.975,77.7786,-507.03,0,0
336447.3,77.386,-506.163,0,0
336707.625,77.1017,-505.247,0,0
336967.95,76.6468,-504.28,0,0
337228.275,76.327,-503.266,0,0
337488.6,76.0286,-502.184,0,0
337748.925,75.677,-501.06,0,0
338009.25,75.4212,-499.872,0,0
338269.575,75.2031,-498.669,0,0
338529.9,75.0249,-497.364,0,0
338790.225,74.9492,-496.13,0,0
339050.55,74.9536,-494.872,0,0
339310.875,75.0036,-493.498,0,0
339571.2,75.0778,-492.224,0,0
339831.525,75.2937,-490.98,0,0
340091.85,75.5078,-489.678,0,0
340352.175,75.7705,-488.457,0,0
340612.5,76.1398,-487.231,0,0
340872.825,76.5195,-485.983,0,0
341133.15,76.9579,-484.792,0,0
341393.475,77.518,-483.544,0,0
341653.8,78.1019,-482.448,0,0
341914.125,78.8288,-481.352,0,0
342174.45,79.6078,-480.384,0,0
342434.775,80.3924,-479.472,0,0
342695.1,81.3249,-478.632,0,0
342955.425,82.2207,-477.94,0,0
343215.75,83.1112,-477.394,0,0
343476.075,84.0396,-476.934,0,0
343736.4,84.8885,-476.621,0,0
343996.725,85.7523,-476.464,0,0
344257.05,86.4934,-476.336,0,0
344517.375,87.1134,-476.299,0,0
344777.7,87.666,-476.282,0,0
345038.025,88.1612,-476.369,0,0
345298.35,88.5793,-476.455,0,0
345558.675,88.9032,-476.492,0,0
345819.0,89.1114,-476.667,0,0
346079.325,89.2755,-476.761,0,0
346339.65,89.3474,-476.875,0,0
346599.975,89.3639,-476.966,0,0
346860,89.3582,-476.996,0,0
347121,89.3014,-477.023,0,0
347381,89.19,-476.988,0,0
347641,89.0466,-476.999,0,0
347902,88.7964,-477.018,0,0
348162,88.5709,-476.96,0,0
348422,88.2893,-476.831,0,0
348683,87.9337,-476.754,0,0
348943,87.5681,-476.6,0,0
349203,87.2561,-476.335,0,0
349464,86.8755,-476.116,0,0
349724,86.4562,-475.784,0,0
349984,86.0797,-475.504,0,0
350245,85.5905,-475.127,0,0
350505,85.1898,-474.762,0,0
350765,84.782,-474.325,0,0
351025,84.3187,-473.878,0,0
351286,83.9386,-473.264,0,0
351546,83.5087,-472.735,0,0
351806,83.141,-472.153,0,0
352067,82.7131,-471.558,0,0
352327,82.3656,-470.854,0,0
352587,82.0393,-470.153,0,0
352848,81.726,-469.429,0,0
353108,81.5279,-468.636,0,0
353368,81.3153,-467.834,0,0
353629,81.1722,-467.048,0,0
353889,81.0001,-466.275,0,0
354149,80.9761,-465.443,0,0
354410,80.9898,-464.724,0,0
354670,81.0581,-463.961,0,0
354930,81.1577,-463.273,0,0
355191,81.2788,-462.704,0,0
355451,81.3372,-462.206,0,0
355711,81.4031,-461.719,0,0
355972,81.4255,-461.253,0,0
356232,81.442,-460.787,0,0
356492,81.3681,-460.277,0,0
356753,81.4438,-459.809,0,0
357013,81.357,-459.41,0,0
357273,81.2889,-459.003,0,0
357534,81.2273,-458.606,0,0
357794,81.0897,-458.238,0,0
358054,80.8547,-457.839,0,0
358315,80.5868,-457.498,0,0
358575,80.2418,-457.035,0,0
358835,79.8663,-456.497,0,0
359096,79.5285,-455.91,0,0
359356,79.1576,-455.233,0,0
359616,78.7412,-454.509,0,0
359877,78.4691,-453.665,0,0
360137,78.2348,-452.767,0,0
360397,78.0674,-451.87,0,0
360658,78.0257,-450.931,0,0
360918,77.9582,-450.088,0,0
361178,77.9866,-449.238,0,0
361438,78.0284,-448.349,0,0
361699,78.1095,-447.553,0,0
361959,78.1606,-446.747,0,0
362219,78.294,-445.935,0,0
362480,78.4265,-445.17,0,0
362740.1,78.6417,-444.419,0,0
363000.425,78.8168,-443.643,0,0
363260.75,79.024,-442.977,0,0
363521.075,79.2068,-442.363,0,0
363781.4,79.444,-441.772,0,0
364041.725,79.6602,-441.182,0,0
364302.05,79.78,-440.659,0,0
364562.375,79.8694,-440.162,0,0
364822.7,79.9315,-439.632,0,0
365083.025,79.8647,-439.085,0,0
365343.35,79.8391,-438.503,0,0
365603.675,79.7379,-437.844,0,0
365864.0,79.703,-437.066,0,0
366124.325,79.623,-436.26,0,0
366384.65,79.617,-435.402,0,0
366644.975,79.6679,-434.527,0,0
366905.3,79.7408,-433.54,0,0
367165.625,79.931,-432.58,0,0
367425.95,80.1689,-431.617,0,0
367686.275,80.3724,-430.671,0,0
367946.6,80.7681,-429.605,0,0
368206.925,81.1393,-428.594,0,0
368467.25,81.6829,-427.605,0,0
368727.575,82.2556,-426.625,0,0
368987.9,82.9264,-425.668,0,0
369248.225,83.6359,-424.748,0,0
369508.55,84.461,-423.91,0,0
369768.875,85.3605,-423.165,0,0
370029.2,86.2534,-422.45,0,0
370289.525,87.2178,-421.81,0,0
370549.85,88.2266,-421.264,0,0
370810.175,89.3047,-420.765,0,0
371070.5,90.3619,-420.405,0,0
371330.825,91.4616,-420.079,0,0
371591.15,92.6163,-419.906,0,0
371851.475,93.7311,-419.775,0,0
372111.8,94.9063,-419.867,0,0
372372.125,96.0416,-420.024,0,0
372632.45,97.077,-420.366,0,0
372892.775,98.0934,-420.828,0,0
373153.1,98.9428,-421.38,0,0
373413.425,99.7187,-422.091,0,0
373673.75,100.34,-422.813,0,0
373934.075,100.768,-423.617,0,0
374194.4,101.086,-424.382,0,0
374454.725,101.186,-425.13,0,0
374715.05,101.219,-425.729,0,0
374975.375,101.137,-426.315,0,0
375235.7,101.074,-426.785,0,0
375496.025,100.882,-427.193,0,0
375756.35,100.786,-427.542,0,0
376016.675,100.638,-427.787,0,0
376277.0,100.444,-428.035,0,0
376537.325,100.359,-428.291,0,0
376797.65,100.266,-428.53,0,0
377057.975,100.194,-428.769,0,0
377318.3,99.9596,-429.086,0,0
377578.625,99.8015,-429.273,0,0
377838.95,99.6418,-429.491,0,0
378099.275,99.359,-429.671,0,0
378359.6,99.1222,-429.826,0,0
378619.925,98.8561,-429.994,0,0
378880,98.596,-430.082,0,0
379141,98.3199,-430.144,0,0
379401,98.0454,-430.206,0,0
379661,97.8262,-430.288,0,0
379922,97.5509,-430.33,0,0
380182,97.3241,-430.325,0,0
380442,97.1144,-430.332,0,0
380703,96.8148,-430.366,0,0
380963,96.5648,-430.381,0,0
381223,96.2938,-430.353,0,0
381483,95.9648,-430.334,0,0
381744,95.725,-430.243,0,0
382004,95.4942,-430.128,0,0
382264,95.2508,-430.021,0,0
382525,95.1251,-429.863,0,0
382785,95.1248,-429.717,0,0
383045,95.1591,-429.663,0,0
383306,95.2717,-429.719,0,0
383566,95.359,-429.977,0,0
383826,95.4269,-430.319,0,0
384087,95.3853,-430.83,0,0
384347,95.2003,-431.349,0,0
384607,94.7878,-431.964,0,0
384868,94.2225,-432.51,0,0
385128,93.5419,-433.066,0,0
385388,92.7472,-433.555,0,0
385649,91.9139,-433.866,0,0
385909,90.9083,-434.123,0,0
386169,89.9001,-434.239,0,0
386430,88.7982,-434.313,0,0
386690,87.7257,-434.156,0,0
386950,86.635,-433.98,0,0
387211,85.5339,-433.657,0,0
387471,84.4711,-433.238,0,0
387731,83.4174,-432.788,0,0
387992,82.4268,-432.117,0,0
388252,81.5231,-431.326,0,0
388512,80.7231,-430.427,0,0
388773,80.0708,-429.521,0,0
389033,79.5074,-428.546,0,0
389293,79.1986,-427.611,0,0
389554,78.9396,-426.708,0,0
389814,78.8031,-425.841,0,0
390074,78.7755,-425.073,0,0
390335,78.8281,-424.423,0,0
390595,78.9418,-423.84,0,0
390855,79.1194,-423.417,0,0
391116,79.2846,-423.138,0,0
391376,79.3839,-422.935,0,0
391636,79.4546,-422.933,0,0
391896,79.4094,-422.965,0,0
392157,79.2234,-423.119,0,0
392417,78.897,-423.32,0,0
392677,78.5109,-423.489,0,0
392938,77.9026,-423.615,0,0
393198,77.2319,-423.747,0,0
393458,76.4709,-423.787,0,0
393719,75.5245,-423.732,0,0
393979,74.6134,-423.59,0,0
394239,73.6246,-423.3,0,0
394500,72.6093,-422.887,0,0
394760.05,71.6588,-422.378,0,0
395020.375,70.7215,-421.791,0,0
395280.7,69.7581,-421.117,0,0
395541.025,68.9712,-420.373,0,0
395801.35,68.139,-419.564,0,0
396061.675,67.3498,-418.73,0,0
396322.0,66.6742,-417.836,0,0
396582.325,66.0277,-416.945,0,0
396842.65,65.4155,-416.023,0,0
397102.975,64.8579,-415.065,0,0
397363.3,64.2761,-414.091,0,0
397623.625,63.8329,-413.149,0,0
397883.95,63.4256,-412.168,0,0
398144.275,63.017,-411.169,0,0
398404.6,62.6542,-410.245,0,0
398664.925,62.3009,-409.299,0,0
398925.25,61.9893,-408.309,0,0
399185.575,61.6524,-407.353,0,0
399445.9,61.4226,-406.358,0,0
399706.225,61.153,-405.393,0,0
399966.55,60.8982,-404.386,0,0
400006.6,60.8414,-404.229,0,0