File: Accelerated corrosion test data/2025-10-03_06-00-02/sample_1.csv
Frequency (Hz),Impedance (ohms),Phase (Radians),Temperature (C),Humidity (%)
10000.0,245.811,-12237.2,0,0
10260.325,244.601,-11921.7,0,0
10520.65,233.718,-11642,0,0
10780.975,228.341,-11357.6,0,0
11041.3,225.7,-11096.6,0,0
11301.625,220.905,-10839.1,0,0
11561.95,217.138,-10594.4,0,0
11822.275,212.895,-10355,0,0
12082.6,225.96,-10122.9,0,0
12342.925,212.93,-9947.51,0,0
12603.25,197.305,-9736.55,0,0
12863.575,192.616,-9534.13,0,0
13123.9,197.713,-9340.97,0,0
13384.225,187.056,-9169.99,0,0
13644.55,183.047,-8986.99,0,0
13904.875,182.974,-8809.66,0,0
14165.2,191.044,-8672.12,0,0
14425.525,215.978,-8504.93,0,0
14685.8,200.79,-8338.78,0,0
14946.175,180.602,-8241.27,0,0
15206.5,182.748,-8078.63,0,0
15466.825,177.612,-7952.77,0,0
15727.15,173.955,-7831.71,0,0
15987.5,162.14,-7697.75,0,0
16247.8,158.58,-7572.19,0,0
16508.125,156.062,-7448.5,0,0
16768.45,160.356,-7331.24,0,0
17028.775,163.766,-7223.71,0,0
17289.1,153.916,-7119.62,0,0
17549.425,154.877,-7013.97,0,0
17809.75,149.703,-6911.31,0,0
18070.075,146.835,-6814.23,0,0
18330.4,141.638,-6715.8,0,0
18590.725,137.896,-6620.65,0,0
18851.05,138.454,-6522.8,0,0
19111.375,136.738,-6441.11,0,0
19371.7,133.297,-6348.73,0,0
19632.025,132.245,-6259.59,0,0
19892.35,134.4,-6173.5,0,0
20152.675,136.372,-6085.88,0,0
20413.0,154.887,-5998.4,0,0
20673.3,169.093,-5956.57,0,0
20933.65,152.988,-5888.7,0,0
21193.975,158.239,-5821.02,0,0
21454.3,147.746,-5749.67,0,0
21714.625,138.859,-5684.78,0,0
21974.9,135.372,-5597.5,0,0
22235.275,175.374,-5549.1,0,0
22495.6,143.162,-5512.74,0,0
22755.925,127.87,-5443.15,0,0
23016.25,123.352,-5375.97,0,0
23276.6,119.451,-5314.81,0,0
23536.9,116.028,-5253.57,0,0
23797.225,111.738,-5191.09,0,0
24057.55,114.403,-5131.05,0,0
24317.875,113.01,-5083.07,0,0
24578.2,111.159,-5022.75,0,0
24838.525,110.93,-4972.32,0,0
25098.85,111.345,-4917.64,0,0
25359.175,106.419,-4869.79,0,0
25619.5,104.939,-4817.28,0,0
25879.8,103.43,-4766.12,0,0
26140.1,104.156,-4716.96,0,0
26400.5,102.974,-4667.03,0,0
26660.8,105.123,-4616.65,0,0
26921.1,113.761,-4569.16,0,0
27181.4,120.028,-4532.93,0,0
27441.8,113.609,-4501.69,0,0
27702.1,104.313,-4452.26,0,0
27962.4,111.48,-4402.64,0,0
28222.7,110.696,-4364.09,0,0
28483.1,121.349,-4319.5,0,0
28743.4,133.366,-4301.3,0,0
29003.7,116.976,-4268.4,0,0
29264,119.337,-4230.46,0,0
29524.4,108.02,-4197.64,0,0
29784.7,105.335,-4155.61,0,0
30045,102.187,-4123.43,0,0
30305.3,100.324,-4083.72,0,0
30565.7,97.6537,-4045.86,0,0
30826,101.053,-4010.78,0,0
31086.3,104.56,-3981.9,0,0
31346.6,99.4305,-3952.69,0,0
31607,94.1115,-3916.04,0,0
31867.3,97.2223,-3881.63,0,0
32127.6,98.1848,-3851.44,0,0
32387.9,97.7925,-3825.35,0,0
32648.3,93.1509,-3793.3,0,0
32908.6,95.1971,-3763.88,0,0
33168.9,90.868,-3735.92,0,0
33429.2,89.3403,-3707.17,0,0
33689.6,86.4075,-3677.42,0,0
33949.9,85.1495,-3646.59,0,0
34210.2,87.3452,-3619.45,0,0
34470.5,84.3021,-3592.9,0,0
34730.9,82.3127,-3565.06,0,0
34991.2,81.7531,-3538.14,0,0
35251.5,80.6713,-3511.25,0,0
35511.8,79.2692,-3484.97,0,0
35772.2,79.4257,-3458.98,0,0
36032.5,77.8677,-3433.53,0,0
36292.8,77.2165,-3408.02,0,0
36553.1,76.7396,-3383.26,0,0
36813.5,76.3418,-3358.58,0,0
37073.8,76.0512,-3334.71,0,0
37334.1,75.2211,-3310.9,0,0
37594.4,75.1147,-3287.74,0,0
37854.8,74.0295,-3265.01,0,0
38115.1,73.5402,-3241.8,0,0
38375.4,73.1402,-3218.86,0,0
38635.7,72.8562,-3197.01,0,0
38896.1,72.5686,-3175.01,0,0
39156.4,72.328,-3153.12,0,0
39416.7,72.4301,-3132.43,0,0
39677,71.3733,-3111.28,0,0
39937.4,71.0517,-3090.19,0,0
40197.7,71.24,-3069.56,0,0
40458,70.9536,-3049.28,0,0
40718.3,71.1094,-3028.4,0,0
40978.7,72.4583,-3009.09,0,0
41239,72.4165,-2990.75,0,0
41499.3,71.8015,-2972.95,0,0
41759.6,70.8907,-2954.23,0,0
42020,70.2008,-2934.66,0,0
42280.275,70.1911,-2916.28,0,0
42540.6,70.7605,-2898.53,0,0
42800.925,70.386,-2881.54,0,0
43061.25,69.2182,-2863.32,0,0
43321.575,69.1145,-2846.24,0,0
43581.9,68.5658,-2829.1,0,0
43842.225,67.7857,-2811.17,0,0
44102.55,68.1614,-2793.55,0,0
44362.875,68.6632,-2776.84,0,0
44623.2,69.2074,-2761.28,0,0
44883.525,68.51,-2745.22,0,0
45143.85,68.7702,-2729.46,0,0
45404.175,69.1036,-2713.85,0,0
45664.5,68.2125,-2699.06,0,0
45924.825,67.3095,-2683.19,0,0
46185.15,66.8369,-2668.55,0,0
46445.475,65.6753,-2653.29,0,0
46705.8,65.4202,-2637.84,0,0
46966.125,64.6409,-2622.9,0,0
47226.45,64.5996,-2607.51,0,0
47486.775,64.7519,-2593.6,0,0
47747.1,64.1971,-2579.25,0,0
48007.425,63.3874,-2564.93,0,0
48267.75,63.4572,-2550.62,0,0
48528.075,62.8005,-2537.07,0,0
48788.4,61.714,-2522.92,0,0
49048.725,61.7624,-2508.91,0,0
49309.05,61.4425,-2495.13,0,0
49569.375,61.1414,-2481.76,0,0
49829.7,61.0562,-2468.44,0,0
50090.025,60.4869,-2455.4,0,0
50350.35,59.9273,-2442.08,0,0
50610.675,59.7708,-2428.87,0,0
50871.0,59.4747,-2415.77,0,0
51131.325,59.353,-2402.97,0,0
51391.65,59.336,-2390.44,0,0
51651.975,59.0491,-2378.25,0,0
51912.3,58.409,-2365.62,0,0
52172.625,58.2889,-2353.54,0,0
52432.95,58.0483,-2341.14,0,0
52693.275,57.925,-2329.2,0,0
52953.6,57.8413,-2317.16,0,0
53213.925,57.902,-2305.26,0,0
53474.25,57.6739,-2293.85,0,0
53734.575,57.4851,-2282.16,0,0
53994.9,57.4942,-2271.09,0,0
54255.225,56.9454,-2259.98,0,0
54515.55,56.613,-2248.67,0,0
54775.875,56.3445,-2237.44,0,0
55036.2,55.8793,-2226.13,0,0
55296.525,56.1495,-2214.99,0,0
55556.85,56.1044,-2204.35,0,0
55817.175,55.7719,-2193.8,0,0
56077.5,55.2599,-2183.03,0,0
56337.825,55.2068,-2172.25,0,0
56598.15,55.2148,-2161.76,0,0
56858.475,55.0616,-2151.33,0,0
57118.8,54.8034,-2140.97,0,0
57379.125,54.6213,-2130.51,0,0
57639.45,54.8642,-2120.44,0,0
57899.775,54.7911,-2110.56,0,0
58160.1,54.768,-2100.55,0,0
58420.4,54.7294,-2090.82,0,0
58680.7,54.4301,-2081.06,0,0
58941.1,54.4513,-2071.19,0,0
59201.4,54.6515,-2061.65,0,0
59461.7,54.6446,-2052.42,0,0
59722,54.2225,-2043.08,0,0
59982.4,54.3507,-2033.57,0,0
60242.7,54.2793,-2024.39,0,0
60503,54.2693,-2015.03,0,0
60763.3,54.6366,-2006.3,0,0
61023.7,54.1773,-1997.72,0,0
61284,53.7293,-1988.73,0,0
61544.3,53.4332,-1979.53,0,0
61804.6,53.737,-1970.58,0,0
62065,53.2694,-1962.27,0,0
62325.3,52.9217,-1953.42,0,0
62585.6,52.7755,-1944.63,0,0
62845.9,52.572,-1935.68,0,0
63106.3,52.8115,-1927.14,0,0
63366.6,52.6605,-1918.62,0,0
63626.9,52.6947,-1910,0,0
63887.2,52.8364,-1901.61,0,0
64147.6,52.774,-1893.24,0,0
64407.9,53.0789,-1884.91,0,0
64668.2,53.1481,-1876.66,0,0
64928.5,53.6313,-1868.26,0,0
65188.9,54.1297,-1860.25,0,0
65449.2,54.9286,-1852.49,0,0
65709.5,55.5402,-1845.45,0,0
65969.8,55.4293,-1838.44,0,0
66230.2,55.1614,-1831.26,0,0
66490.5,55.0797,-1823.86,0,0
66750.8,55.0426,-1816.61,0,0
67011.1,54.6113,-1809.85,0,0
67271.5,53.8222,-1801.82,0,0
67531.8,54.4092,-1793.93,0,0
67792.1,54.7728,-1787.23,0,0
68052.4,54.3047,-1780.72,0,0
68312.8,53.8186,-1773.56,0,0
68573.1,53.3773,-1766.23,0,0
68833.4,53.4723,-1759.05,0,0
69093.7,53.4769,-1752.2,0,0
69354.1,53.2332,-1745.41,0,0
69614.4,53.0537,-1738.83,0,0
69874.7,52.3198,-1732.13,0,0
70135,51.9559,-1725.15,0,0
70395.4,51.4963,-1718.28,0,0
70655.7,51.2005,-1711.27,0,0
70916,50.8015,-1704.37,0,0
71176.3,50.5435,-1697.41,0,0
71436.7,50.6214,-1690.82,0,0
71697,50.1027,-1684.35,0,0
71957.3,49.4369,-1677.52,0,0
72217.6,49.0935,-1670.69,0,0
72478,48.8564,-1663.72,0,0
72738.3,48.5561,-1656.91,0,0
72998.6,48.5629,-1649.99,0,0
73258.9,48.594,-1643.33,0,0
73519.3,48.5418,-1636.79,0,0
73779.6,48.3323,-1630.16,0,0
74039.9,48.3508,-1623.64,0,0
74300.225,48.3847,-1617,0,0
74560.55,48.4758,-1610.57,0,0
74820.875,48.6162,-1604.09,0,0
75081.2,48.6608,-1597.92,0,0
75341.525,48.5905,-1591.66,0,0
75601.85,48.6064,-1585.3,0,0
75862.175,48.7665,-1578.83,0,0
76122.5,49.2413,-1572.55,0,0
76382.825,49.6364,-1566.65,0,0
76643.15,49.6812,-1560.83,0,0
76903.475,49.7717,-1554.77,0,0
77163.8,50.0894,-1548.83,0,0
77424.125,50.2226,-1543.12,0,0
77684.45,50.3298,-1537.22,0,0
77944.775,50.4362,-1531.33,0,0
78205.1,50.9522,-1525.33,0,0
78465.425,51.5875,-1519.8,0,0
78725.75,51.9983,-1514.57,0,0
78986.075,52.0727,-1509.42,0,0
79246.4,52.0338,-1504.23,0,0
79506.725,52.0996,-1499,0,0
79767.05,51.8437,-1493.81,0,0
80027.375,51.6239,-1488.37,0,0
80287.7,51.2593,-1483.09,0,0
80548.025,51.0002,-1477.28,0,0
80808.35,50.9566,-1471.77,0,0
81068.675,50.8327,-1466.14,0,0
81329.0,50.9799,-1460.6,0,0
81589.325,51.0975,-1455.18,0,0
81849.65,51.1848,-1449.85,0,0
82109.975,51.1659,-1444.46,0,0
82370.3,51.265,-1439.15,0,0
82630.625,51.178,-1433.76,0,0
82890.95,51.3244,-1428.18,0,0
83151.275,51.5956,-1422.74,0,0
83411.6,51.8982,-1417.38,0,0
83671.925,52.264,-1412.14,0,0
83932.25,52.6816,-1406.85,0,0
84192.575,53.1337,-1401.74,0,0
84452.9,53.4495,-1396.76,0,0
84713.225,53.8521,-1391.78,0,0
84973.55,54.3238,-1386.87,0,0
85233.875,54.8165,-1382.03,0,0
85494.2,55.1029,-1377.45,0,0
85754.525,55.2836,-1372.7,0,0
86014.85,55.4701,-1367.93,0,0
86275.175,55.7723,-1363.1,0,0
86535.5,56.0636,-1358.53,0,0
86795.825,56.1814,-1353.85,0,0
87056.15,56.3873,-1348.96,0,0
87316.475,56.8419,-1344.48,0,0
87576.8,56.978,-1340.28,0,0
87837.125,56.6929,-1335.6,0,0
88097.45,56.6299,-1330.75,0,0
88357.775,56.7271,-1325.82,0,0
88618.1,57.0224,-1320.76,0,0
88878.425,57.3715,-1316.1,0,0
89138.75,57.4223,-1311.24,0,0
89399.075,57.8172,-1306,0,0
89659.4,58.4746,-1301.01,0,0
89919.725,59.1699,-1296.03,0,0
90180,60.3057,-1291.3,0,0
90440.4,61.1948,-1286.96,0,0
90700.7,61.7579,-1282.57,0,0
90961,62.698,-1277.62,0,0
91221.3,63.9618,-1272.99,0,0
91481.7,65.3586,-1268.74,0,0
91742,66.9752,-1264.83,0,0
92002.3,68.1285,-1261.1,0,0
92262.6,69.3338,-1257.41,0,0
92523,70.5372,-1253.69,0,0
92783.3,72.2552,-1250.03,0,0
93043.6,73.748,-1246.94,0,0
93303.9,75.5743,-1244.07,0,0
93564.3,77.3558,-1241.67,0,0
93824.6,79.1152,-1241,0,0
94084.9,78.8176,-1240.91,0,0
94345.2,76.6722,-1239.83,0,0
94605.6,74.3597,-1236.72,0,0
94865.9,73.5008,-1233.34,0,0
95126.2,71.8759,-1230.54,0,0
95386.5,70.3697,-1226.81,0,0
95646.9,69.0288,-1223.04,0,0
95907.2,67.7419,-1218.71,0,0
96167.5,67.1803,-1214.1,0,0
96427.8,67.0906,-1210.09,0,0
96688.2,66.4594,-1206.56,0,0
96948.5,65.6006,-1202.58,0,0
97208.8,64.9279,-1198.08,0,0
97469.1,64.6904,-1193.57,0,0
97729.5,64.7676,-1189.39,0,0
97989.8,64.8431,-1185.35,0,0
98250.1,64.8467,-1181.59,0,0
98510.4,64.5161,-1177.95,0,0
98770.8,64.1211,-1173.91,0,0
99031.1,63.8229,-1169.78,0,0
99291.4,63.6806,-1165.61,0,0
99551.7,63.6229,-1161.55,0,0
99812.1,63.6284,-1157.34,0,0
100072,63.8815,-1153.28,0,0
100333,64.037,-1149.5,0,0
100593,64.0101,-1145.57,0,0
100853,64.0302,-1141.7,0,0
101114,64.03,-1137.83,0,0
101374,64.0069,-1134.02,0,0
101634,63.6044,-1130.17,0,0
101895,63.1044,-1125.78,0,0
102155,62.9781,-1120.91,0,0
102415,63.404,-1115.99,0,0
102676,64.3203,-1111.34,0,0
102936,65.3243,-1107.02,0,0
103196,66.2501,-1102.88,0,0
103457,67.3022,-1098.85,0,0
103717,68.0272,-1094.73,0,0
103977,69.2358,-1090.42,0,0
104238,70.9612,-1086.45,0,0
104498,72.5821,-1083.06,0,0
104758,73.7805,-1080.06,0,0
105019,74.8464,-1076.68,0,0
105279,75.8743,-1073.27,0,0
105539,77.1514,-1069.81,0,0
105800,78.625,-1066.51,0,0
106060,80.0761,-1063.47,0,0
106320.175,81.3994,-1060.65,0,0
106580.5,82.7282,-1057.67,0,0
106840.825,84.2394,-1054.92,0,0
107101.15,85.7773,-1052.47,0,0
107361.475,87.0322,-1050.35,0,0
107621.8,87.9619,-1048.25,0,0
107882.125,88.7019,-1045.87,0,0
108142.45,89.6777,-1043.36,0,0
108402.775,90.7533,-1041.14,0,0
108663.1,91.8497,-1038.98,0,0
108923.425,92.8502,-1037.17,0,0
109183.75,93.544,-1035.54,0,0
109444.075,93.9593,-1033.87,0,0
109704.4,94.1807,-1032.05,0,0
109964.725,94.2776,-1030.19,0,0
110225.05,94.2496,-1028.18,0,0
110485.375,94.2474,-1025.94,0,0
110745.7,94.2803,-1023.84,0,0
111006.025,94.2753,-1021.44,0,0
111266.35,94.5208,-1018.83,0,0
111526.675,95.1013,-1016.18,0,0
111787.0,95.7023,-1014.13,0,0
112047.325,96.093,-1012.18,0,0
112307.65,96.5141,-1010.03,0,0
112567.975,96.9786,-1008.27,0,0
112828.3,97.3474,-1006.6,0,0
113088.625,97.5958,-1005.01,0,0
113348.95,97.6102,-1003.46,0,0
113609.275,97.4627,-1002,0,0
113869.6,97.2111,-1000.52,0,0
114129.925,96.7188,-999.194,0,0
114390.25,95.9215,-997.494,0,0
114650.575,95.1439,-995.65,0,0
114910.9,94.379,-993.788,0,0
115171.225,93.5653,-991.88,0,0
115431.55,92.7186,-989.888,0,0
115691.875,91.6123,-987.933,0,0
115952.2,90.2904,-985.525,0,0
116212.525,89.1829,-982.993,0,0
116472.85,88.1913,-980.258,0,0
116733.175,87.3285,-977.535,0,0
116993.5,86.4696,-974.834,0,0
117253.825,85.4666,-971.987,0,0
117514.15,84.6423,-968.972,0,0
117774.475,83.9558,-965.902,0,0
118034.8,83.3455,-962.776,0,0
118295.125,82.8579,-959.617,0,0
118555.45,82.4751,-956.412,0,0
118815.775,82.2427,-953.277,0,0
119076.1,82.084,-950.174,0,0
119336.425,81.9657,-947.083,0,0
119596.75,82.0446,-944.015,0,0
119857.075,82.0151,-941.266,0,0
120117.4,82.1396,-938.329,0,0
120377.725,82.2708,-935.63,0,0
120638.05,82.346,-933.027,0,0
120898.375,82.3241,-930.569,0,0
121158.7,82.144,-928.071,0,0
121419.025,81.9387,-925.477,0,0
121679.35,81.7351,-922.996,0,0
121939.675,81.2673,-920.388,0,0
122200.0,80.8821,-917.604,0,0
122460,80.5235,-914.86,0,0
122721,80.0846,-912.01,0,0
122981,79.756,-909.018,0,0
123241,79.5548,-906.003,0,0
123502,79.4029,-902.961,0,0
123762,79.3087,-899.999,0,0
124022,79.1514,-896.988,0,0
124283,79.1349,-893.88,0,0
124543,79.3096,-890.756,0,0
124803,79.4585,-887.844,0,0
125064,79.4878,-884.949,0,0
125324,79.5475,-882.031,0,0
125584,79.6897,-878.987,0,0
125845,79.9752,-876.006,0,0
126105,80.2078,-873.081,0,0
126365,80.3556,-870.178,0,0
126626,80.7225,-867.382,0,0
126886,80.8927,-864.64,0,0
127146,81.0165,-861.688,0,0
127406,81.3222,-858.656,0,0
127667,81.5881,-855.743,0,0
127927,81.8911,-852.694,0,0
128187,82.305,-849.598,0,0
128448,82.8916,-846.601,0,0
128708,83.5135,-843.768,0,0
128968,84.0171,-840.948,0,0
129229,84.5464,-838.001,0,0
129489,85.2705,-835.072,0,0
129749,86.0092,-832.106,0,0
130010,86.9746,-829.199,0,0
130270,87.9623,-826.431,0,0
130530,88.9845,-823.813,0,0
130791,90.1187,-821.317,0,0
131051,91.1421,-819.055,0,0
131311,92.1525,-816.792,0,0
131572,93.0196,-814.643,0,0
131832,93.7988,-812.543,0,0
132092,94.5755,-810.418,0,0
132353,95.3546,-808.331,0,0
132613,96.0337,-806.243,0,0
132873,96.758,-804.112,0,0
133134,97.4514,-802.023,0,0
133394,98.1313,-800.012,0,0
133654,98.7831,-798.002,0,0
133915,99.3639,-796.018,0,0
134175,99.8726,-794.124,0,0
134435,100.309,-792.086,0,0
134696,100.69,-790.005,0,0
134956,101.075,-787.814,0,0
135216,101.655,-785.509,0,0
135477,102.393,-783.368,0,0
135737,102.978,-781.222,0,0
135997,103.6,-779.028,0,0
136258,104.395,-776.812,0,0
136518,105.261,-774.768,0,0
136778,106.109,-772.765,0,0
137039,107.021,-770.73,0,0
137299,108.063,-768.884,0,0
137559,109.164,-767.142,0,0
137819,110.323,-765.93,0,0
138080,111.022,-764.867,0,0
138340.125,111.487,-763.805,0,0
138600.45,111.636,-762.777,0,0
138860.775,111.568,-761.507,0,0
139121.1,111.399,-759.944,0,0
139381.425,111.395,-758.275,0,0
139641.75,111.369,-756.691,0,0
139902.075,111.175,-755.125,0,0
140162.4,110.965,-753.346,0,0
140422.725,110.606,-751.374,0,0
140683.05,110.471,-749.229,0,0
140943.375,110.43,-747.109,0,0
141203.7,110.419,-744.931,0,0
141464.025,110.463,-742.749,0,0
141724.35,110.553,-740.606,0,0
141984.675,110.635,-738.321,0,0
142245.0,110.913,-735.963,0,0
142505.325,111.309,-733.857,0,0
142765.65,111.524,-731.815,0,0
143025.975,111.823,-729.693,0,0
143286.3,112.028,-727.709,0,0
143546.625,112.071,-725.615,0,0
143806.95,112.144,-723.341,0,0
144067.275,112.354,-720.949,0,0
144327.6,112.68,-718.514,0,0
144587.925,113.111,-716.226,0,0
144848.25,113.509,-713.919,0,0
145108.575,114.046,-711.542,0,0
145368.9,114.648,-709.29,0,0
145629.225,115.265,-707.054,0,0
145889.55,115.977,-704.926,0,0
146149.875,116.605,-702.913,0,0
146410.2,117.14,-700.861,0,0
146670.525,117.782,-698.674,0,0
146930.85,118.678,-696.714,0,0
147191.175,119.357,-695.092,0,0
147451.5,119.686,-693.314,0,0
147711.825,120.142,-691.33,0,0
147972.15,120.76,-689.407,0,0
148232.475,121.326,-687.666,0,0
148492.8,121.76,-686.043,0,0
148753.125,121.935,-684.388,0,0
149013.45,122.039,-682.444,0,0
149273.775,122.357,-680.427,0,0
149534.1,122.707,-678.496,0,0
149794.425,123.048,-676.565,0,0
150054.75,123.319,-674.736,0,0
150315.075,123.482,-672.957,0,0
150575.4,123.531,-671.141,0,0
150835.725,123.399,-669.192,0,0
151096.05,123.201,-667.168,0,0
151356.375,122.899,-664.836,0,0
151616.7,122.746,-662.269,0,0
151877.025,122.767,-659.698,0,0
152137.35,122.745,-657.14,0,0
152397.675,122.72,-654.482,0,0
152658.0,122.683,-651.619,0,0
152918.325,122.735,-648.526,0,0
153178.65,123.08,-645.314,0,0
153438.975,123.681,-642.235,0,0
153699.3,124.189,-639.213,0,0
153959.625,124.603,-636.066,0,0
154219.95,125.193,-632.639,0,0
154480,125.941,-629.128,0,0
154741,126.951,-625.462,0,0
155001,128.42,-621.707,0,0
155261,130.123,-618.304,0,0
155522,131.794,-614.996,0,0
155782,133.683,-611.599,0,0
156042,135.893,-608.405,0,0
156303,138.134,-605.379,0,0
156563,140.42,-602.478,0,0
156823,142.975,-599.671,0,0
157084,145.631,-597.13,0,0
157344,148.301,-594.857,0,0
157604,150.952,-592.807,0,0
157864,153.478,-590.975,0,0
158125,155.8,-589.339,0,0
158385,157.753,-587.663,0,0
158645,159.549,-585.702,0,0
158906,161.537,-583.485,0,0
159166,163.61,-581.155,0,0
159426,165.915,-578.625,0,0
159687,168.737,-576.249,0,0
159947,171.583,-574.026,0,0
160207,174.522,-571.728,0,0
160468,178.025,-569.501,0,0
160728,181.847,-567.738,0,0
160988,185.78,-566.504,0,0
161249,189.6,-565.882,0,0
161509,193.154,-565.582,0,0
161769,196.345,-565.443,0,0
162030,199.305,-565.187,0,0
162290,202.301,-565.019,0,0
162550,205.126,-564.99,0,0
162811,207.867,-564.915,0,0
163071,210.63,-564.799,0,0
163331,213.592,-564.769,0,0
163592,216.608,-565.128,0,0
163852,219.308,-565.846,0,0
164112,221.631,-566.515,0,0
164373,223.732,-566.94,0,0
164633,226.024,-567.047,0,0
164893,228.717,-567.165,0,0
165154,231.742,-567.616,0,0
165414,234.898,-568.525,0,0
165674,238.116,-570.049,0,0
165935,240.953,-572.135,0,0
166195,243.295,-574.523,0,0
166455,245.222,-577.167,0,0
166716,246.636,-579.908,0,0
166976,247.577,-582.679,0,0
167236,248.083,-585.333,0,0
167497,248.194,-587.805,0,0
167757,248.084,-589.964,0,0
168017,247.894,-592.049,0,0
168277,247.455,-594.082,0,0
168538,246.811,-595.965,0,0
168798,245.988,-597.714,0,0
169058,244.902,-599.309,0,0
169319,243.787,-600.679,0,0
169579,242.349,-602.136,0,0
169839,240.403,-603.187,0,0
170100,238.456,-603.482,0,0
170360.075,236.658,-603.532,0,0
170620.4,235.169,-603.235,0,0
170880.725,233.806,-602.786,0,0
171141.05,232.757,-602.183,0,0
171401.375,232.002,-601.812,0,0
171661.7,231.162,-601.593,0,0
171922.025,230.134,-601.524,0,0
172182.35,228.762,-601.318,0,0
172442.675,227.28,-600.643,0,0
172703.0,225.963,-599.66,0,0
172963.325,224.892,-598.458,0,0
173223.65,224.064,-597.186,0,0
173483.975,223.429,-596.018,0,0
173744.3,222.757,-594.853,0,0
174004.625,222.154,-593.482,0,0
174264.95,221.914,-592.085,0,0
174525.275,221.815,-590.776,0,0
174785.6,221.873,-589.6,0,0
175045.925,222.08,-588.42,0,0
175306.25,222.486,-587.624,0,0
175566.575,223,-587.202,0,0
175826.9,223.124,-587.205,0,0
176087.225,222.629,-587.269,0,0
176347.55,221.918,-586.835,0,0
176607.875,221.393,-586.164,0,0
176868.2,221.006,-585.636,0,0
177128.525,220.47,-585.233,0,0
177388.85,219.662,-584.682,0,0
177649.175,218.894,-583.843,0,0
177909.5,218.352,-582.914,0,0
178169.825,217.936,-582.173,0,0
178430.15,217.406,-581.482,0,0
178690.475,216.851,-580.762,0,0
178950.8,216.283,-580.145,0,0
179211.125,215.608,-579.64,0,0
179471.45,214.687,-579.079,0,0
179731.775,213.828,-578.319,0,0
179992.1,212.976,-577.805,0,0
180252.425,211.851,-577.434,0,0
180512.75,210.169,-576.857,0,0
180773.075,208.412,-575.647,0,0
181033.4,206.923,-574.219,0,0
181293.725,205.536,-572.854,0,0
181554.05,204.064,-571.373,0,0
181814.375,202.671,-569.77,0,0
182074.7,201.31,-568.269,0,0
182335.025,199.676,-566.738,0,0
182595.35,197.762,-564.898,0,0
182855.675,195.798,-562.57,0,0
183116.0,194.098,-559.838,0,0
183376.325,192.727,-556.96,0,0
183636.65,191.513,-553.967,0,0
183896.975,190.518,-550.874,0,0
184157.3,189.699,-547.731,0,0
184417.625,189.125,-544.615,0,0
184677.95,188.61,-541.506,0,0
184938.275,188.188,-538.326,0,0
185198.6,187.948,-535.1,0,0
185458.925,187.881,-531.85,0,0
185719.25,187.976,-528.694,0,0
185979.575,188.144,-525.562,0,0
186239.9,188.486,-522.476,0,0
186500,188.858,-519.613,0,0
186761,189.12,-516.761,0,0
187021,189.332,-513.857,0,0
187281,189.653,-510.848,0,0
187542,190.154,-507.808,0,0
187802,190.693,-504.91,0,0
188062,191.098,-502.183,0,0
188322,191.485,-499.299,0,0
188583,191.742,-496.12,0,0
188843,192.205,-492.988,0,0
189103,192.684,-489.685,0,0
189364,193.407,-486.25,0,0
189624,194.291,-482.765,0,0
189884,195.415,-479.331,0,0
190145,196.733,-475.983,0,0
190405,198.085,-472.946,0,0
190665,199.307,-469.931,0,0
190926,200.638,-466.799,0,0
191186,201.888,-463.708,0,0
191446,203.245,-460.649,0,0
191707,204.569,-457.521,0,0
191967,205.952,-454.323,0,0
192227,207.569,-451.148,0,0
192488,209.237,-448.117,0,0
192748,210.756,-445.219,0,0
193008,212.061,-442.137,0,0
193269,213.439,-438.844,0,0
193529,215.083,-435.354,0,0
193789,216.888,-431.78,0,0
194050,218.953,-428.339,0,0
194310,220.944,-425.024,0,0
194570,222.909,-421.576,0,0
194831,225.063,-417.994,0,0
195091,227.305,-414.341,0,0
195351,229.872,-410.771,0,0
195612,232.474,-407.187,0,0
195872,235.204,-403.57,0,0
196132,238.033,-400.053,0,0
196393,240.961,-396.419,0,0
196653,244.056,-392.776,0,0
196913,247.439,-389.111,0,0
197174,251.065,-385.54,0,0
197434,254.871,-382.068,0,0
197694,258.743,-379.021,0,0
197955,262.634,-375.927,0,0
198215,266.633,-372.897,0,0
198475,270.626,-370.058,0,0
198735,274.553,-367.329,0,0
198996,278.428,-364.493,0,0
199256,282.281,-361.456,0,0
199516,286.376,-358.322,0,0
199777,290.555,-355.188,0,0
200037,294.768,-351.97,0,0
200297,299.16,-348.544,0,0
200558,303.876,-344.847,0,0
200818,309.089,-341.129,0,0
201078,314.729,-337.376,0,0
201339,320.834,-333.761,0,0
201599,327.511,-330.489,0,0
201859,334.434,-327.542,0,0
202120,341.472,-324.846,0,0
202380.025,348.745,-322.383,0,0
202640.35,356.397,-319.985,0,0
202900.675,364.378,-317.902,0,0
203161.0,372.618,-316.231,0,0
203421.325,381.191,-314.789,0,0
203681.65,389.919,-313.73,0,0
203941.975,399.01,-312.91,0,0
204202.3,408.7,-312.411,0,0
204462.625,419.046,-312.55,0,0
204722.95,429.836,-313.771,0,0
204983.275,440.513,-316.136,0,0
205243.6,451.022,-319.713,0,0
205503.925,461.153,-323.915,0,0
205764.25,470.846,-328.949,0,0
206024.575,479.88,-334.672,0,0
206284.9,488.348,-340.859,0,0
206545.225,496.298,-347.357,0,0
206805.55,503.839,-354.331,0,0
207065.875,510.873,-361.81,0,0
207326.2,517.243,-369.858,0,0
207586.525,522.519,-378.299,0,0
207846.85,526.904,-386.467,0,0
208107.175,530.829,-394.45,0,0
208367.5,534.458,-402.432,0,0
208627.825,537.571,-410.701,0,0
208888.15,539.978,-419.107,0,0
209148.475,541.433,-427.545,0,0
209408.8,541.954,-435.666,0,0
209669.125,541.664,-443.024,0,0
209929.45,541.056,-449.81,0,0
210189.775,540.189,-456.028,0,0
210450.1,538.979,-461.845,0,0
210710.425,537.502,-467.115,0,0
210970.75,535.754,-471.863,0,0
211231.075,533.597,-475.898,0,0
211491.4,531.509,-478.784,0,0
211751.725,529.915,-480.978,0,0
212012.05,528.698,-482.74,0,0
212272.375,527.909,-483.832,0,0
212532.7,527.962,-484.597,0,0
212793.025,528.903,-485.165,0,0
213053.35,530.528,-486.246,0,0
213313.675,532.463,-487.847,0,0
213574.0,534.35,-489.752,0,0
213834.325,536.214,-491.745,0,0
214094.65,538.229,-493.705,0,0
214354.975,540.595,-495.804,0,0
214615.3,543.33,-498.191,0,0
214875.625,546.04,-501.223,0,0
215135.95,548.522,-504.614,0,0
215396.275,550.538,-508.184,0,0
215656.6,552.341,-511.821,0,0
215916.925,553.897,-515.508,0,0
216177.25,554.957,-519.042,0,0
216437.575,555.705,-521.983,0,0
216697.9,556.713,-524.219,0,0
216958.225,558.309,-526.061,0,0
217218.55,560.692,-527.969,0,0
217478.875,563.559,-530.365,0,0
217739.2,566.681,-533.255,0,0
217999.525,569.697,-536.704,0,0
218259.85,572.443,-540.465,0,0
218520,574.775,-544.156,0,0
218780,577.132,-547.454,0,0
219041,579.95,-550.672,0,0
219301,583.278,-554.068,0,0
219561,586.752,-557.816,0,0
219822,590.43,-562.038,0,0
220082,594.151,-566.764,0,0
220342,597.845,-571.688,0,0
220603,601.725,-576.92,0,0
220863,605.728,-582.471,0,0
221123,609.883,-588.763,0,0
221384,613.835,-595.94,0,0
221644,617.239,-603.651,0,0
221904,620.071,-611.749,0,0
222165,622.639,-620.089,0,0
222425,624.856,-628.855,0,0
222685,626.573,-637.936,0,0
222946,627.744,-647.204,0,0
223206,628.524,-656.51,0,0
223466,628.946,-666.182,0,0
223727,628.761,-676.045,0,0
223987,628.034,-686.142,0,0
224247,626.607,-696.191,0,0
224508,624.739,-706.074,0,0
224768,622.446,-715.855,0,0
225028,619.639,-725.771,0,0
225289,616.625,-735.771,0,0
225549,612.797,-745.845,0,0
225809,608.282,-755.631,0,0
226070,603.097,-765.154,0,0
226330,597.505,-774.545,0,0
226590,591.52,-783.338,0,0
226851,585.131,-792.052,0,0
227111,578.347,-800.622,0,0
227371,570.706,-808.874,0,0
227632,562.486,-816.578,0,0
227892,553.963,-823.497,0,0
228152,545.116,-829.802,0,0
228413,535.975,-835.55,0,0
228673,526.82,-840.43,0,0
228933,517.682,-844.784,0,0
229193,508.647,-848.728,0,0
229454,499.554,-852.134,0,0
229714,490.447,-855.357,0,0
229974,481.368,-857.915,0,0
230235,472.182,-860.01,0,0
230495,463.161,-861.53,0,0
230755,454.349,-862.611,0,0
231016,445.694,-863.087,0,0
231276,437.287,-863.221,0,0
231536,429.28,-862.889,0,0
231797,421.53,-862.244,0,0
232057,414.341,-861.319,0,0
232317,407.588,-860.248,0,0
232578,401.283,-859.221,0,0
232838,395.162,-858.238,0,0
233098,389.283,-857.371,0,0
233359,383.375,-856.451,0,0
233619,377.629,-855.412,0,0
233879,372.136,-854.222,0,0
234140,366.751,-853.096,0,0
234400,361.438,-852.092,0,0
234660.3,356.475,-850.944,0,0
234920.625,351.388,-849.735,0,0
235180.95,346.545,-848.685,0,0
235441.275,341.658,-847.644,0,0
235701.6,336.748,-846.576,0,0
235961.925,331.863,-845.403,0,0
236222.25,327.061,-843.994,0,0
236482.575,322.455,-842.506,0,0
236742.9,317.992,-840.865,0,0
237003.225,313.782,-839.526,0,0
237263.55,309.735,-838.156,0,0
237523.875,305.503,-836.899,0,0
237784.2,301.301,-835.706,0,0
238044.525,297.187,-834.433,0,0
238304.85,292.99,-833.14,0,0
238565.175,288.717,-831.923,0,0
238825.5,284.455,-830.761,0,0
239085.825,279.911,-829.225,0,0
239346.15,275.38,-827.697,0,0
239606.475,270.89,-825.661,0,0
239866.8,266.577,-823.78,0,0
240127.125,262.372,-821.386,0,0
240387.45,258.222,-818.963,0,0
240647.775,254.348,-816.651,0,0
240908.1,250.73,-814.082,0,0
241168.425,247.283,-811.57,0,0
241428.75,243.838,-809.053,0,0
241689.075,240.5,-806.623,0,0
241949.4,237.336,-804.082,0,0
242209.725,234.266,-801.441,0,0
242470.05,231.323,-798.787,0,0
242730.375,228.573,-796.399,0,0
242990.7,225.814,-793.831,0,0
243251.025,223.353,-791.349,0,0
243511.35,220.835,-788.934,0,0
243771.675,218.453,-786.568,0,0
244032.0,216.112,-784.343,0,0
244292.325,213.754,-782.117,0,0
244552.65,211.424,-780.002,0,0
244812.975,209.068,-777.897,0,0
245073.3,206.43,-775.886,0,0
245333.625,203.997,-773.582,0,0
245593.95,201.644,-771.383,0,0
245854.275,199.376,-769.055,0,0
246114.6,197.015,-766.89,0,0
246374.925,194.563,-764.574,0,0
246635.25,192.266,-762.2,0,0
246895.575,189.998,-759.819,0,0
247155.9,187.864,-757.233,0,0
247416.225,185.8,-754.742,0,0
247676.55,183.816,-752.251,0,0
247936.875,181.867,-749.705,0,0
248197.2,180.026,-747.174,0,0
248457.525,178.235,-744.738,0,0
248717.85,176.457,-742.183,0,0
248978.175,174.784,-739.763,0,0
249238.5,173.156,-737.232,0,0
249498.825,171.522,-734.782,0,0
249759.15,169.974,-732.296,0,0
250019.475,168.586,-729.767,0,0
250279.8,167.152,-727.37,0,0
250540,165.665,-724.907,0,0
250800,164.242,-722.622,0,0
251061,162.947,-720.215,0,0
251321,161.568,-717.806,0,0
251581,160.305,-715.433,0,0
251842,159.017,-712.987,0,0
252102,157.699,-710.609,0,0
252362,156.506,-708.172,0,0
252623,155.344,-705.654,0,0
252883,154.206,-703.195,0,0
253143,153.083,-700.715,0,0
253404,152.038,-698.272,0,0
253664,150.968,-695.734,0,0
253924,149.952,-693.165,0,0
254185,149.042,-690.462,0,0
254445,148.227,-687.84,0,0
254705,147.508,-685.181,0,0
254966,146.949,-682.525,0,0
255226,146.344,-680.023,0,0
255486,145.949,-677.414,0,0
255747,145.572,-674.961,0,0
256007,145.226,-672.563,0,0
256267,144.887,-670.095,0,0
256528,144.53,-667.76,0,0
256788,144.254,-665.345,0,0
257048,144.006,-662.915,0,0
257309,143.826,-660.544,0,0
257569,143.704,-658.099,0,0
257829,143.646,-655.683,0,0
258090,143.676,-653.283,0,0
258350,143.813,-650.918,0,0
258610,143.949,-648.521,0,0
258871,144.217,-646.283,0,0
259131,144.544,-643.985,0,0
259391,144.889,-641.703,0,0
259651,145.449,-639.519,0,0
259912,145.964,-637.428,0,0
260172,146.637,-635.33,0,0
260432,147.352,-633.379,0,0
260693,148.134,-631.476,0,0
260953,148.931,-629.646,0,0
261213,149.826,-627.923,0,0
261474,150.754,-626.293,0,0
261734,151.692,-624.819,0,0
261994,152.62,-623.388,0,0
262255,153.5,-622.038,0,0
262515,154.384,-620.733,0,0
262775,155.258,-619.433,0,0
263036,156.122,-618.112,0,0
263296,157.116,-616.829,0,0
263556,158.275,-615.714,0,0
263817,159.446,-614.667,0,0
264077,160.66,-613.681,0,0
264337,161.896,-612.83,0,0
264598,163.206,-612.11,0,0
264858,164.639,-611.585,0,0
265118,165.995,-611.172,0,0
265379,167.376,-610.911,0,0
265639,168.706,-610.96,0,0
265899,170.081,-611.174,0,0
266160,171.273,-611.565,0,0
266420,172.369,-612.11,0,0
266680.25,173.374,-612.87,0,0
266940.575,174.25,-613.802,0,0
267200.9,174.892,-615.001,0,0
267461.225,175.31,-616.358,0,0
267721.55,175.361,-617.869,0,0
267981.875,175.068,-619.394,0,0
268242.2,174.451,-620.906,0,0
268502.525,173.466,-622.385,0,0
268762.85,172.169,-623.696,0,0
269023.175,170.562,-624.762,0,0
269283.5,168.69,-625.581,0,0
269543.825,166.736,-626.146,0,0
269804.15,164.624,-626.366,0,0
270064.475,162.396,-626.312,0,0
270324.8,160.257,-625.886,0,0
270585.125,158.1,-625.337,0,0
270845.45,156.144,-624.47,0,0
271105.775,154.215,-623.45,0,0
271366.1,152.405,-622.185,0,0
271626.425,150.726,-620.834,0,0
271886.75,149.15,-619.301,0,0
272147.075,147.787,-617.688,0,0
272407.4,146.607,-615.983,0,0
272667.725,145.582,-614.285,0,0
272928.05,144.67,-612.581,0,0
273188.375,143.855,-610.864,0,0
273448.7,143.194,-609.125,0,0
273709.025,142.644,-607.413,0,0
273969.35,142.211,-605.726,0,0
274229.675,141.816,-604.125,0,0
274490.0,141.503,-602.49,0,0
274750.325,141.257,-600.869,0,0
275010.65,141.13,-599.309,0,0
275270.975,141.023,-597.846,0,0
275531.3,141.028,-596.355,0,0
275791.625,141.014,-594.905,0,0
276051.95,141.019,-593.528,0,0
276312.275,141.09,-592.108,0,0
276572.6,141.28,-590.698,0,0
276832.925,141.531,-589.337,0,0
277093.25,141.907,-588.065,0,0
277353.575,142.33,-586.929,0,0
277613.9,142.785,-585.88,0,0
277874.225,143.235,-584.938,0,0
278134.55,143.693,-584.049,0,0
278394.875,144.075,-583.22,0,0
278655.2,144.53,-582.446,0,0
278915.525,145.042,-581.783,0,0
279175.85,145.57,-581.154,0,0
279436.175,146.005,-580.735,0,0
279696.5,146.437,-580.401,0,0
279956.825,146.793,-580.176,0,0
280217.15,146.914,-579.994,0,0
280477.475,147.096,-579.893,0,0
280737.8,147.087,-579.725,0,0
280998.125,146.991,-579.615,0,0
281258.45,146.822,-579.456,0,0
281518.775,146.604,-579.271,0,0
281779.1,146.344,-579.062,0,0
282039.425,146.032,-578.822,0,0
282299.75,145.722,-578.614,0,0
282560,145.303,-578.416,0,0
282820,144.806,-578.204,0,0
283081,144.211,-577.915,0,0
283341,143.531,-577.54,0,0
283601,142.861,-576.999,0,0
283862,142.269,-576.414,0,0
284122,141.728,-575.728,0,0
284382,141.24,-575.207,0,0
284643,140.673,-574.676,0,0
284903,140.05,-574.192,0,0
285163,139.384,-573.617,0,0
285424,138.599,-572.944,0,0
285684,137.838,-572.228,0,0
285944,137.071,-571.45,0,0
286205,136.324,-570.595,0,0
286465,135.513,-569.737,0,0
286725,134.628,-568.776,0,0
286986,133.755,-567.675,0,0
287246,132.873,-566.39,0,0
287506,132.065,-564.916,0,0
287767,131.389,-563.311,0,0
288027,130.865,-561.602,0,0
288287,130.566,-559.884,0,0
288548,130.391,-558.038,0,0
288808,130.42,-556.165,0,0
289068,130.748,-554.34,0,0
289329,131.301,-552.627,0,0
289589,132.068,-551.182,0,0
289849,132.83,-549.936,0,0
290109,133.617,-548.925,0,0
290370,134.422,-548.133,0,0
290630,135.095,-547.496,0,0
290890,135.672,-547.024,0,0
291151,136.054,-546.634,0,0
291411,136.305,-546.302,0,0
291671,136.403,-545.868,0,0
291932,136.398,-545.418,0,0
292192,136.309,-544.923,0,0
292452,136.155,-544.362,0,0
292713,135.939,-543.678,0,0
292973,135.694,-542.915,0,0
293233,135.412,-542.029,0,0
293494,135.222,-541.034,0,0
293754,135,-539.95,0,0
294014,134.919,-538.788,0,0
294275,134.961,-537.671,0,0
294535,134.988,-536.437,0,0
294795,135.086,-535.187,0,0
295056,135.184,-533.889,0,0
295316,135.45,-532.53,0,0
295576,135.798,-531.096,0,0
295837,136.326,-529.68,0,0
296097,137.003,-528.269,0,0
296357,137.781,-526.952,0,0
296618,138.68,-525.747,0,0
296878,139.645,-524.653,0,0
297138,140.626,-523.654,0,0
297399,141.674,-522.75,0,0
297659,142.684,-521.927,0,0
297919,143.736,-521.155,0,0
298180,144.803,-520.464,0,0
298440,145.855,-519.84,0,0
298700.2,146.94,-519.245,0,0
298960.525,147.956,-518.774,0,0
299220.85,149.007,-518.172,0,0
299481.175,150.037,-517.773,0,0
299741.5,151.314,-517.444,0,0
300001.825,152.363,-517.109,0,0
300262.15,153.422,-516.894,0,0
300522.475,154.482,-516.703,0,0
300782.8,155.511,-516.5,0,0
301043.125,156.547,-516.254,0,0
301303.45,157.635,-516.042,0,0
301563.775,158.854,-515.856,0,0
301824.1,160.06,-515.801,0,0
302084.425,161.293,-515.815,0,0
302344.75,162.58,-516.006,0,0
302605.075,163.847,-516.332,0,0
302865.4,165.021,-516.675,0,0
303125.725,166.158,-517.094,0,0
303386.05,167.359,-517.677,0,0
303646.375,168.41,-518.192,0,0
303906.7,169.539,-518.924,0,0
304167.025,170.532,-519.765,0,0
304427.35,171.464,-520.568,0,0
304687.675,172.229,-521.611,0,0
304948.0,172.925,-522.53,0,0
305208.325,173.453,-523.385,0,0
305468.65,174.066,-524.208,0,0
305728.975,174.617,-525.019,0,0
305989.3,175.225,-525.863,0,0
306249.625,175.803,-526.835,0,0
306509.95,176.399,-527.846,0,0
306770.275,176.961,-528.911,0,0
307030.6,177.355,-530.062,0,0
307290.925,177.857,-531.353,0,0
307551.25,178.156,-532.601,0,0
307811.575,178.394,-533.982,0,0
308071.9,178.445,-535.317,0,0
308332.225,178.553,-536.697,0,0
308592.55,178.475,-538.062,0,0
308852.875,178.348,-539.461,0,0
309113.2,178.101,-540.91,0,0
309373.525,177.656,-542.294,0,0
309633.85,177.333,-543.502,0,0
309894.175,176.849,-544.859,0,0
310154.5,176.446,-546.167,0,0
310414.825,175.817,-547.433,0,0
310675.15,175.234,-548.778,0,0
310935.475,174.498,-550.078,0,0
311195.8,173.641,-551.374,0,0
311456.125,172.79,-552.582,0,0
311716.45,171.787,-553.77,0,0
311976.775,170.788,-555.023,0,0
312237.1,169.627,-556.081,0,0
312497.425,168.414,-557.244,0,0
312757.75,167.128,-558.262,0,0
313018.075,165.804,-559.141,0,0
313278.4,164.35,-559.966,0,0
313538.725,162.867,-560.651,0,0
313799.05,161.503,-561.381,0,0
314059.375,160.03,-561.962,0,0
314319.7,158.538,-562.55,0,0
314580,157.137,-562.966,0,0
314840,155.653,-563.387,0,0
315101,154.248,-563.82,0,0
315361,152.806,-564.078,0,0
315621,151.437,-564.439,0,0
315882,150.043,-564.756,0,0
316142,148.575,-565.095,0,0
316402,147.053,-565.412,0,0
316663,145.476,-565.661,0,0
316923,143.875,-565.784,0,0
317183,142.155,-566.022,0,0
317444,140.396,-566.027,0,0
317704,138.676,-565.854,0,0
317964,137.072,-565.668,0,0
318225,135.414,-565.42,0,0
318485,133.804,-565.051,0,0
318745,132.268,-564.661,0,0
319006,130.742,-564.216,0,0
319266,129.266,-563.852,0,0
319526,127.772,-563.38,0,0
319787,126.369,-562.976,0,0
320047,124.725,-562.501,0,0
320307,123.242,-561.853,0,0
320567,121.889,-561.179,0,0
320828,120.389,-560.533,0,0
321088,118.964,-559.751,0,0
321348,117.522,-559.008,0,0
321609,116.095,-558.12,0,0
321869,114.82,-557.199,0,0
322129,113.468,-556.253,0,0
322390,112.251,-555.211,0,0
322650,111.045,-554.144,0,0
322910,109.991,-553.04,0,0
323171,108.971,-551.867,0,0
323431,107.981,-550.663,0,0
323691,107.144,-549.488,0,0
323952,106.281,-548.271,0,0
324212,105.612,-547.05,0,0
324472,104.918,-545.861,0,0
324733,104.412,-544.665,0,0
324993,103.924,-543.564,0,0
325253,103.544,-542.471,0,0
325514,103.117,-541.472,0,0
325774,102.801,-540.408,0,0
326034,102.522,-539.484,0,0
326295,102.168,-538.66,0,0
326555,101.894,-537.773,0,0
326815,101.632,-536.932,0,0
327076,101.422,-536.192,0,0
327336,101.186,-535.46,0,0
327596,100.928,-534.733,0,0
327857,100.73,-534.039,0,0
328117,100.492,-533.504,0,0
328377,100.365,-532.957,0,0
328638,100.136,-532.397,0,0
328898,99.8959,-531.929,0,0
329158,99.6427,-531.462,0,0
329419,99.3354,-531.034,0,0
329679,99.0877,-530.623,0,0
329939,98.7758,-530.243,0,0
330200,98.4891,-529.877,0,0
330460,98.0663,-529.521,0,0
330720.15,97.6365,-529.209,0,0
330980.475,97.2421,-528.918,0,0
331240.8,96.823,-528.602,0,0
331501.125,96.407,-528.224,0,0
331761.45,95.8252,-527.955,0,0
332021.775,95.2954,-527.697,0,0
332282.1,94.7624,-527.435,0,0
332542.425,94.111,-527.128,0,0
332802.75,93.47,-526.798,0,0
333063.075,92.8266,-526.508,0,0
333323.4,92.0472,-526.156,0,0
333583.725,91.4147,-525.74,0,0
333844.05,90.6637,-525.307,0,0
334104.375,89.9299,-524.802,0,0
334364.7,89.1619,-524.357,0,0
334625.025,88.4255,-523.883,0,0
334885.35,87.6744,-523.315,0,0
335145.675,86.9029,-522.803,0,0
335406.0,86.1681,-522.277,0,0
335666.325,85.3463,-521.673,0,0
335926.65,84.6206,-521.058,0,0
336186.975,83.8489,-520.413,0,0
336447.3,83.1047,-519.763,0,0
336707.625,82.3997,-519.137,0,0
336967.95,81.7018,-518.365,0,0
337228.275,80.9693,-517.716,0,0
337488.6,80.2804,-516.999,0,0
337748.925,79.6075,-516.22,0,0
338009.25,78.8397,-515.463,0,0
338269.575,78.2112,-514.729,0,0
338529.9,77.5195,-513.9,0,0
338790.225,76.8694,-513.067,0,0
339050.55,76.2352,-512.308,0,0
339310.875,75.6325,-511.396,0,0
339571.2,75.0388,-510.593,0,0
339831.525,74.4809,-509.75,0,0
340091.85,73.9036,-508.897,0,0
340352.175,73.381,-508.014,0,0
340612.5,72.9115,-507.061,0,0
340872.825,72.4638,-506.225,0,0
341133.15,71.9519,-505.341,0,0
341393.475,71.5281,-504.443,0,0
341653.8,71.1253,-503.681,0,0
341914.125,70.688,-502.777,0,0
342174.45,70.3618,-502.026,0,0
342434.775,69.9215,-501.183,0,0
342695.1,69.4596,-500.404,0,0
342955.425,69.0295,-499.581,0,0
343215.75,68.6368,-498.81,0,0
343476.075,68.1896,-498.052,0,0
343736.4,67.716,-497.283,0,0
343996.725,67.3321,-496.385,0,0
344257.05,66.9074,-495.643,0,0
344517.375,66.5336,-494.822,0,0
344777.7,66.0492,-494.022,0,0
345038.025,65.625,-493.183,0,0
345298.35,65.1831,-492.316,0,0
345558.675,64.691,-491.446,0,0
345819.0,64.287,-490.57,0,0
346079.325,63.8999,-489.662,0,0
346339.65,63.52,-488.73,0,0
346599.975,63.1871,-487.88,0,0
346860,62.8678,-486.95,0,0
347121,62.4495,-486.024,0,0
347381,62.1208,-485.103,0,0
347641,61.823,-484.195,0,0
347902,61.5205,-483.314,0,0
348162,61.2161,-482.327,0,0
348422,60.9379,-481.398,0,0
348683,60.6074,-480.424,0,0
348943,60.3738,-479.537,0,0
349203,60.1601,-478.505,0,0
349464,59.9905,-477.591,0,0
349724,59.8099,-476.615,0,0
349984,59.5706,-475.697,0,0
350245,59.5126,-474.733,0,0
350505,59.3814,-473.766,0,0
350765,59.2854,-472.938,0,0
351025,59.1542,-472.068,0,0
351286,59.0959,-471.209,0,0
351546,59.0041,-470.339,0,0
351806,58.9156,-469.503,0,0
352067,58.8,-468.699,0,0
352327,58.6868,-467.9,0,0
352587,58.5733,-467.1,0,0
352848,58.5141,-466.29,0,0
353108,58.3561,-465.444,0,0
353368,58.2692,-464.639,0,0
353629,58.1515,-463.83,0,0
353889,58.0266,-462.971,0,0
354149,57.9361,-462.129,0,0
354410,57.829,-461.257,0,0
354670,57.7948,-460.402,0,0
354930,57.7037,-459.56,0,0
355191,57.7102,-458.749,0,0
355451,57.6806,-457.91,0,0
355711,57.6711,-457.08,0,0
355972,57.67,-456.227,0,0
356232,57.6447,-455.393,0,0
356492,57.6616,-454.548,0,0
356753,57.7211,-453.81,0,0
357013,57.7474,-453,0,0
357273,57.8196,-452.282,0,0
357534,57.8705,-451.504,0,0
357794,57.8433,-450.756,0,0
358054,57.9124,-450.055,0,0
358315,57.952,-449.341,0,0
358575,57.9242,-448.595,0,0
358835,57.9382,-447.876,0,0
359096,57.9688,-447.134,0,0
359356,57.9423,-446.411,0,0
359616,57.9875,-445.69,0,0
359877,57.9782,-444.906,0,0
360137,58.0302,-444.153,0,0
360397,58.0458,-443.435,0,0
360658,58.1512,-442.652,0,0
360918,58.1947,-441.942,0,0
361178,58.293,-441.211,0,0
361438,58.3478,-440.516,0,0
361699,58.4847,-439.836,0,0
361959,58.5503,-439.183,0,0
362219,58.5552,-438.546,0,0
362480,58.6337,-437.849,0,0
362740.1,58.7086,-437.173,0,0
363000.425,58.7453,-436.482,0,0
363260.75,58.7755,-435.782,0,0
363521.075,58.8447,-435.104,0,0
363781.4,58.8815,-434.414,0,0
364041.725,58.9282,-433.698,0,0
364302.05,58.9775,-433.061,0,0
364562.375,59.021,-432.367,0,0
364822.7,59.0591,-431.694,0,0
365083.025,59.1092,-430.975,0,0
365343.35,59.1586,-430.227,0,0
365603.675,59.2329,-429.55,0,0
365864.0,59.2995,-428.826,0,0
366124.325,59.3759,-428.092,0,0
366384.65,59.4403,-427.356,0,0
366644.975,59.516,-426.619,0,0
366905.3,59.5916,-425.91,0,0
367165.625,59.6727,-425.19,0,0
367425.95,59.7786,-424.44,0,0
367686.275,59.8059,-423.683,0,0
367946.6,59.8908,-422.876,0,0
368206.925,59.9571,-422.045,0,0
368467.25,60.0939,-421.165,0,0
368727.575,60.1987,-420.271,0,0
368987.9,60.369,-419.313,0,0
369248.225,60.6169,-418.383,0,0
369508.55,60.9608,-417.444,0,0
369768.875,61.315,-416.501,0,0
370029.2,61.7715,-415.627,0,0
370289.525,62.2555,-414.723,0,0
370549.85,62.8243,-413.89,0,0
370810.175,63.3848,-413.1,0,0
371070.5,63.913,-412.402,0,0
371330.825,64.5632,-411.635,0,0
371591.15,65.1674,-410.995,0,0
371851.475,65.8158,-410.374,0,0
372111.8,66.4692,-409.75,0,0
372372.125,67.089,-409.229,0,0
372632.45,67.8455,-408.749,0,0
372892.775,68.5089,-408.283,0,0
373153.1,69.1372,-407.84,0,0
373413.425,69.8605,-407.472,0,0
373673.75,70.5412,-407.162,0,0
373934.075,71.1785,-406.909,0,0
374194.4,71.8163,-406.671,0,0
374454.725,72.4437,-406.494,0,0
374715.05,73.0112,-406.38,0,0
374975.375,73.5605,-406.229,0,0
375235.7,74.0933,-406.185,0,0
375496.025,74.5879,-406.056,0,0
375756.35,74.9848,-406.003,0,0
376016.675,75.4233,-405.913,0,0
376277.0,75.8189,-405.826,0,0
376537.325,76.2463,-405.77,0,0
376797.65,76.5908,-405.664,0,0
377057.975,76.9787,-405.515,0,0
377318.3,77.3501,-405.415,0,0
377578.625,77.7322,-405.351,0,0
377838.95,78.1539,-405.347,0,0
378099.275,78.4797,-405.247,0,0
378359.6,78.8286,-405.264,0,0
378619.925,79.1874,-405.234,0,0
378880,79.5513,-405.296,0,0
379141,79.8302,-405.336,0,0
379401,80.1228,-405.305,0,0
379661,80.367,-405.365,0,0
379922,80.6491,-405.33,0,0
380182,80.9387,-405.328,0,0
380442,81.2201,-405.343,0,0
380703,81.5764,-405.347,0,0
380963,81.9277,-405.435,0,0
381223,82.2966,-405.547,0,0
381483,82.6658,-405.738,0,0
381744,83.0479,-405.983,0,0
382004,83.3422,-406.265,0,0
382264,83.5672,-406.699,0,0
382525,83.7699,-407.132,0,0
382785,83.8981,-407.542,0,0
383045,83.9018,-408.043,0,0
383306,83.8338,-408.483,0,0
383566,83.7733,-408.935,0,0
383826,83.5842,-409.359,0,0
384087,83.3638,-409.788,0,0
384347,83.0488,-410.217,0,0
384607,82.7262,-410.545,0,0
384868,82.3425,-410.901,0,0
385128,81.8783,-411.17,0,0
385388,81.3769,-411.374,0,0
385649,80.8653,-411.574,0,0
385909,80.3381,-411.687,0,0
386169,79.7997,-411.837,0,0
386430,79.2476,-411.92,0,0
386690,78.6531,-411.942,0,0
386950,78.0294,-411.953,0,0
387211,77.3977,-411.862,0,0
387471,76.8023,-411.778,0,0
387731,76.1102,-411.552,0,0
387992,75.5405,-411.35,0,0
388252,74.9217,-411.035,0,0
388512,74.399,-410.656,0,0
388773,73.8692,-410.281,0,0
389033,73.3588,-409.892,0,0
389293,72.9606,-409.443,0,0
389554,72.5897,-409.007,0,0
389814,72.2522,-408.587,0,0
390074,71.9327,-408.182,0,0
390335,71.6704,-407.799,0,0
390595,71.4328,-407.419,0,0
390855,71.1908,-407.087,0,0
391116,70.9455,-406.8,0,0
391376,70.6651,-406.511,0,0
391636,70.4187,-406.234,0,0
391896,70.1279,-406.014,0,0
392157,69.8309,-405.782,0,0
392417,69.4946,-405.575,0,0
392677,69.1085,-405.368,0,0
392938,68.7337,-405.126,0,0
393198,68.2522,-404.879,0,0
393458,67.7642,-404.591,0,0
393719,67.299,-404.3,0,0
393979,66.7057,-403.952,0,0
394239,66.1994,-403.565,0,0
394500,65.6636,-403.115,0,0
394760.05,65.1606,-402.626,0,0
395020.375,64.6203,-402.147,0,0
395280.7,64.1341,-401.574,0,0
395541.025,63.6918,-401.003,0,0
395801.35,63.2282,-400.366,0,0
396061.675,62.8281,-399.776,0,0
396322.0,62.419,-399.141,0,0
396582.325,61.9982,-398.472,0,0
396842.65,61.6601,-397.862,0,0
397102.975,61.3319,-397.147,0,0
397363.3,60.9852,-396.46,0,0
397623.625,60.7173,-395.738,0,0
397883.95,60.4393,-395.058,0,0
398144.275,60.1842,-394.393,0,0
398404.6,59.9048,-393.659,0,0
398664.925,59.6869,-393.02,0,0
398925.25,59.4375,-392.28,0,0
399185.575,59.243,-391.58,0,0
399445.9,59.0407,-390.853,0,0
399706.225,58.8491,-390.129,0,0
399966.55,58.6896,-389.378,0,0
400006.6,58.6819,-389.281,0,0