File: Accelerated corrosion test data/2025-10-19_18-00-04/sample_7.csv
Frequency (Hz),Impedance (ohms),Phase (Radians),Temperature (C),Humidity (%)
10000.0,277.072,-12103.6,0,0
10260.325,277.72,-11813.2,0,0
10520.65,260.663,-11512.6,0,0
10780.975,254.715,-11231.4,0,0
11041.3,251.992,-10963.4,0,0
11301.625,249.486,-10706.7,0,0
11561.95,253.37,-10458.3,0,0
11822.275,257.021,-10230.5,0,0
12082.6,267.896,-9996.38,0,0
12342.925,330.606,-9829.06,0,0
12603.25,263.982,-9660.04,0,0
12863.575,270.016,-9469.27,0,0
13123.9,240.544,-9281.94,0,0
13384.225,232.24,-9112.68,0,0
13644.55,226.338,-8927.59,0,0
13904.875,210.188,-8761.71,0,0
14165.2,209.044,-8586.67,0,0
14425.525,204.825,-8450.15,0,0
14685.8,205.514,-8298.62,0,0
14946.175,200.348,-8152.25,0,0
15206.5,198.599,-8021.94,0,0
15466.825,187.186,-7879.26,0,0
15727.15,186.666,-7752.35,0,0
15987.5,181.015,-7623.34,0,0
16247.8,179.26,-7502.65,0,0
16508.125,172.852,-7381.22,0,0
16768.45,172.063,-7262.16,0,0
17028.775,171.754,-7152.39,0,0
17289.1,167.174,-7043.32,0,0
17549.425,166.774,-6935.11,0,0
17809.75,169.399,-6825.84,0,0
18070.075,169.111,-6727.01,0,0
18330.4,178.839,-6620.62,0,0
18590.725,197.615,-6533.78,0,0
18851.05,193.89,-6470.36,0,0
19111.375,180.242,-6378.31,0,0
19371.7,212.458,-6313.11,0,0
19632.025,171.937,-6243.06,0,0
19892.35,158.819,-6141.38,0,0
20152.675,173.034,-6059.23,0,0
20413.0,172.728,-5994.57,0,0
20673.3,171.213,-5909.13,0,0
20933.65,184.207,-5849.2,0,0
21193.975,163.68,-5789.29,0,0
21454.3,157.405,-5713.61,0,0
21714.625,158.534,-5651.71,0,0
21974.9,146.157,-5585.52,0,0
22235.275,141.603,-5516.46,0,0
22495.6,138.815,-5452.26,0,0
22755.925,133.792,-5387.99,0,0
23016.25,130.637,-5324.34,0,0
23276.6,128.881,-5261.59,0,0
23536.9,129.156,-5200.78,0,0
23797.225,128.157,-5145.26,0,0
24057.55,124.927,-5088.1,0,0
24317.875,122.837,-5030.72,0,0
24578.2,124.436,-4976.41,0,0
24838.525,122.614,-4922.82,0,0
25098.85,120.753,-4871.09,0,0
25359.175,119.612,-4819.07,0,0
25619.5,118.697,-4766.2,0,0
25879.8,119.637,-4716.28,0,0
26140.1,119.666,-4664.78,0,0
26400.5,124.203,-4619.06,0,0
26660.8,119.667,-4571.65,0,0
26921.1,120.618,-4520.96,0,0
27181.4,126.708,-4472.54,0,0
27441.8,129.541,-4425.31,0,0
27702.1,139.189,-4377.57,0,0
27962.4,152.926,-4330.35,0,0
28222.7,178.685,-4295.59,0,0
28483.1,198.032,-4281.62,0,0
28743.4,194.856,-4270.71,0,0
29003.7,178.085,-4258.64,0,0
29264,154.828,-4223.7,0,0
29524.4,143.129,-4185.16,0,0
29784.7,132.961,-4146.67,0,0
30045,127.092,-4101.93,0,0
30305.3,129.105,-4062.07,0,0
30565.7,130.722,-4026.78,0,0
30826,130.318,-3995.31,0,0
31086.3,132.526,-3963.78,0,0
31346.6,130.627,-3933.54,0,0
31607,129.9,-3909.83,0,0
31867.3,121.033,-3877.42,0,0
32127.6,119.573,-3845.93,0,0
32387.9,115.954,-3816.08,0,0
32648.3,111.781,-3786.81,0,0
32908.6,108.31,-3755.96,0,0
33168.9,104.771,-3726.29,0,0
33429.2,101.939,-3696.04,0,0
33689.6,99.1663,-3666.06,0,0
33949.9,97.3248,-3636.51,0,0
34210.2,95.2758,-3607.29,0,0
34470.5,93.6495,-3578.99,0,0
34730.9,92.5087,-3550.76,0,0
34991.2,91.8295,-3523,0,0
35251.5,90.2222,-3495.91,0,0
35511.8,89.7207,-3469.11,0,0
35772.2,88.8663,-3442.51,0,0
36032.5,88.6955,-3416.66,0,0
36292.8,88.168,-3391.6,0,0
36553.1,87.1014,-3366.43,0,0
36813.5,86.7388,-3341.38,0,0
37073.8,86.3572,-3316.68,0,0
37334.1,86.2186,-3292.6,0,0
37594.4,86.0063,-3269.35,0,0
37854.8,85.0817,-3245.34,0,0
38115.1,85.4098,-3221.47,0,0
38375.4,85.7686,-3198.19,0,0
38635.7,86.9071,-3175.12,0,0
38896.1,88.345,-3152.11,0,0
39156.4,90.2714,-3130.26,0,0
39416.7,94.1144,-3108.25,0,0
39677,98.7162,-3090.46,0,0
39937.4,100.568,-3075.46,0,0
40197.7,100.44,-3059.79,0,0
40458,97.9019,-3044.98,0,0
40718.3,93.5937,-3027.64,0,0
40978.7,90.7798,-3008.47,0,0
41239,87.5534,-2989.73,0,0
41499.3,85.5304,-2970.02,0,0
41759.6,83.9582,-2950.93,0,0
42020,82.2378,-2932.09,0,0
42280.275,80.7502,-2912.59,0,0
42540.6,79.983,-2892.97,0,0
42800.925,80.2844,-2874.48,0,0
43061.25,80.0847,-2855.99,0,0
43321.575,80.7481,-2839.69,0,0
43581.9,79.0345,-2821.99,0,0
43842.225,78.8687,-2803.21,0,0
44102.55,80.4533,-2785.38,0,0
44362.875,82.2971,-2769.26,0,0
44623.2,83.4554,-2754.86,0,0
44883.525,82.3279,-2741.98,0,0
45143.85,80.2658,-2725.64,0,0
45404.175,79.4255,-2710.45,0,0
45664.5,79.3621,-2693.18,0,0
45924.825,81.2474,-2679.18,0,0
46185.15,80.0941,-2667.42,0,0
46445.475,77.3035,-2653.75,0,0
46705.8,74.5151,-2638.76,0,0
46966.125,72.6089,-2622.89,0,0
47226.45,71.3571,-2606.9,0,0
47486.775,71.0948,-2591.77,0,0
47747.1,70.6595,-2576.74,0,0
48007.425,70.3214,-2562.35,0,0
48267.75,69.8895,-2548.23,0,0
48528.075,69.2424,-2534.34,0,0
48788.4,68.7131,-2520.41,0,0
49048.725,68.0812,-2506.5,0,0
49309.05,67.6755,-2492.66,0,0
49569.375,67.0989,-2479,0,0
49829.7,66.6906,-2465.56,0,0
50090.025,66.4718,-2452.28,0,0
50350.35,66.1753,-2439.21,0,0
50610.675,66.0388,-2426.27,0,0
50871.0,65.4698,-2413.43,0,0
51131.325,65.0846,-2400.6,0,0
51391.65,64.713,-2388.05,0,0
51651.975,64.4883,-2375.47,0,0
51912.3,64.1785,-2363.03,0,0
52172.625,64.1711,-2350.74,0,0
52432.95,64.0371,-2338.88,0,0
52693.275,63.6638,-2326.72,0,0
52953.6,63.7629,-2314.88,0,0
53213.925,63.82,-2303.51,0,0
53474.25,63.6256,-2292.21,0,0
53734.575,63.0593,-2280.86,0,0
53994.9,62.794,-2269.78,0,0
54255.225,62.305,-2258.49,0,0
54515.55,62.0205,-2247.23,0,0
54775.875,61.7102,-2236.16,0,0
55036.2,61.5294,-2225.25,0,0
55296.525,61.3187,-2214.34,0,0
55556.85,60.9457,-2203.51,0,0
55817.175,60.6021,-2192.87,0,0
56077.5,60.3882,-2182.1,0,0
56337.825,60.3187,-2171.57,0,0
56598.15,60.2818,-2161.22,0,0
56858.475,60.0693,-2150.94,0,0
57118.8,59.9445,-2140.76,0,0
57379.125,59.8255,-2130.75,0,0
57639.45,59.4728,-2120.75,0,0
57899.775,59.2871,-2110.69,0,0
58160.1,59.2792,-2100.44,0,0
58420.4,59.711,-2090.67,0,0
58680.7,59.7857,-2081.56,0,0
58941.1,59.5942,-2072.21,0,0
59201.4,59.3242,-2062.87,0,0
59461.7,59.3255,-2053.23,0,0
59722,59.5681,-2044.06,0,0
59982.4,59.393,-2035.15,0,0
60242.7,59.5906,-2026.14,0,0
60503,59.4102,-2017.8,0,0
60763.3,58.8602,-2009.23,0,0
61023.7,58.4483,-2000.45,0,0
61284,57.9899,-1991.61,0,0
61544.3,57.6461,-1982.94,0,0
61804.6,57.2462,-1974.42,0,0
62065,56.776,-1965.71,0,0
62325.3,56.427,-1956.96,0,0
62585.6,56.2305,-1948.45,0,0
62845.9,55.9161,-1939.87,0,0
63106.3,55.7339,-1931.36,0,0
63366.6,55.4717,-1922.87,0,0
63626.9,55.5094,-1914.57,0,0
63887.2,55.3473,-1906.47,0,0
64147.6,55.1363,-1898.13,0,0
64407.9,55.119,-1890.13,0,0
64668.2,54.9396,-1882.14,0,0
64928.5,54.938,-1874.19,0,0
65188.9,54.898,-1866.21,0,0
65449.2,54.9682,-1858.38,0,0
65709.5,55.0756,-1851.24,0,0
65969.8,54.9313,-1843.73,0,0
66230.2,54.7444,-1836.27,0,0
66490.5,54.4792,-1828.98,0,0
66750.8,54.087,-1821.74,0,0
67011.1,53.6534,-1814.32,0,0
67271.5,53.2708,-1806.88,0,0
67531.8,52.9562,-1799.33,0,0
67792.1,52.5583,-1791.95,0,0
68052.4,52.3748,-1784.67,0,0
68312.8,52.1886,-1777.33,0,0
68573.1,51.9435,-1770.12,0,0
68833.4,51.8032,-1762.99,0,0
69093.7,51.5691,-1755.78,0,0
69354.1,51.5616,-1748.72,0,0
69614.4,51.4635,-1741.77,0,0
69874.7,51.3097,-1734.87,0,0
70135,51.2255,-1727.92,0,0
70395.4,51.135,-1721.12,0,0
70655.7,51.0637,-1714.17,0,0
70916,51.1596,-1707.43,0,0
71176.3,51.0296,-1701.05,0,0
71436.7,51.0094,-1694.52,0,0
71697,50.7285,-1688.18,0,0
71957.3,50.5569,-1681.63,0,0
72217.6,50.402,-1675.21,0,0
72478,50.1843,-1668.8,0,0
72738.3,49.9482,-1662.48,0,0
72998.6,49.7377,-1655.96,0,0
73258.9,49.6243,-1649.6,0,0
73519.3,49.4126,-1643.29,0,0
73779.6,49.2098,-1636.94,0,0
74039.9,49.0828,-1630.68,0,0
74300.225,49.0099,-1624.5,0,0
74560.55,48.9036,-1618.43,0,0
74820.875,48.7818,-1612.22,0,0
75081.2,48.7312,-1606.14,0,0
75341.525,48.6666,-1600.09,0,0
75601.85,48.5096,-1594.23,0,0
75862.175,48.3903,-1588.26,0,0
76122.5,48.2279,-1582.28,0,0
76382.825,48.1247,-1576.43,0,0
76643.15,48.0208,-1570.49,0,0
76903.475,48.0102,-1564.6,0,0
77163.8,47.9796,-1558.86,0,0
77424.125,47.9182,-1553.2,0,0
77684.45,47.9356,-1547.47,0,0
77944.775,47.8189,-1541.82,0,0
78205.1,47.6696,-1536.24,0,0
78465.425,47.6823,-1530.62,0,0
78725.75,47.5954,-1525.04,0,0
78986.075,47.4968,-1519.54,0,0
79246.4,47.473,-1513.97,0,0
79506.725,47.4986,-1508.52,0,0
79767.05,47.498,-1503.13,0,0
80027.375,47.4627,-1497.78,0,0
80287.7,47.4478,-1492.44,0,0
80548.025,47.3426,-1487.18,0,0
80808.35,47.2463,-1481.93,0,0
81068.675,47.1645,-1476.71,0,0
81329.0,47.0972,-1471.46,0,0
81589.325,47.0435,-1466.26,0,0
81849.65,46.9189,-1461.1,0,0
82109.975,46.8531,-1455.89,0,0
82370.3,46.7723,-1450.72,0,0
82630.625,46.7738,-1445.61,0,0
82890.95,46.7443,-1440.58,0,0
83151.275,46.6451,-1435.48,0,0
83411.6,46.5852,-1430.41,0,0
83671.925,46.5519,-1425.36,0,0
83932.25,46.6358,-1420.33,0,0
84192.575,46.6417,-1415.43,0,0
84452.9,46.6434,-1410.54,0,0
84713.225,46.7771,-1405.51,0,0
84973.55,46.882,-1400.77,0,0
85233.875,46.9412,-1395.92,0,0
85494.2,46.9313,-1391.33,0,0
85754.525,46.9209,-1386.56,0,0
86014.85,46.9089,-1381.87,0,0
86275.175,47.0022,-1377.03,0,0
86535.5,47.0915,-1372.5,0,0
86795.825,47.0481,-1368.01,0,0
87056.15,46.9006,-1363.27,0,0
87316.475,46.9684,-1358.7,0,0
87576.8,47.1169,-1354.18,0,0
87837.125,47.2291,-1349.7,0,0
88097.45,47.1375,-1345.4,0,0
88357.775,47.0059,-1340.88,0,0
88618.1,46.8732,-1336.57,0,0
88878.425,46.7232,-1332.09,0,0
89138.75,46.6087,-1327.6,0,0
89399.075,46.4767,-1323.1,0,0
89659.4,46.4074,-1318.58,0,0
89919.725,46.3829,-1314.12,0,0
90180,46.3534,-1309.56,0,0
90440.4,46.4819,-1305.11,0,0
90700.7,46.4915,-1300.78,0,0
90961,46.5131,-1296.49,0,0
91221.3,46.5125,-1292.16,0,0
91481.7,46.4885,-1287.76,0,0
91742,46.6079,-1283.39,0,0
92002.3,46.6815,-1279.08,0,0
92262.6,46.6842,-1274.79,0,0
92523,46.8122,-1270.51,0,0
92783.3,46.7796,-1266.19,0,0
93043.6,46.8516,-1261.73,0,0
93303.9,47.0158,-1257.12,0,0
93564.3,47.4853,-1252.68,0,0
93824.6,48.2102,-1248.31,0,0
94084.9,49.0906,-1244.24,0,0
94345.2,49.8345,-1240.48,0,0
94605.6,50.7097,-1237.11,0,0
94865.9,51.1216,-1234.07,0,0
95126.2,51.2228,-1231.05,0,0
95386.5,50.9129,-1227.91,0,0
95646.9,50.1321,-1224.5,0,0
95907.2,49.5265,-1220.63,0,0
96167.5,49.133,-1216.55,0,0
96427.8,48.8599,-1212.59,0,0
96688.2,48.6661,-1208.46,0,0
96948.5,48.5888,-1204.3,0,0
97208.8,48.6593,-1200.21,0,0
97469.1,48.7561,-1196.22,0,0
97729.5,48.9532,-1192.17,0,0
97989.8,49.3049,-1188.34,0,0
98250.1,49.4805,-1184.68,0,0
98510.4,49.6945,-1181.04,0,0
98770.8,49.7049,-1177.38,0,0
99031.1,49.7769,-1173.69,0,0
99291.4,49.7527,-1170.03,0,0
99551.7,49.7632,-1166.29,0,0
99812.1,49.8069,-1162.57,0,0
100072,49.6391,-1158.83,0,0
100333,49.6243,-1154.79,0,0
100593,49.9552,-1150.83,0,0
100853,50.3117,-1146.99,0,0
101114,50.7125,-1143.26,0,0
101374,51.1189,-1139.8,0,0
101634,51.122,-1136.17,0,0
101895,51.4756,-1132.23,0,0
102155,52.0841,-1128.62,0,0
102415,52.5782,-1125.19,0,0
102676,52.9866,-1121.83,0,0
102936,53.2572,-1118.39,0,0
103196,53.7761,-1114.84,0,0
103457,54.4267,-1111.48,0,0
103717,55.1196,-1108.42,0,0
103977,55.4022,-1105.8,0,0
104238,55.2301,-1102.58,0,0
104498,55.609,-1099.12,0,0
104758,56.1515,-1096.2,0,0
105019,56.2114,-1093.51,0,0
105279,56.0774,-1090.5,0,0
105539,56.0106,-1087.44,0,0
105800,55.7718,-1084.39,0,0
106060,55.5779,-1080.96,0,0
106320.175,55.6479,-1077.69,0,0
106580.5,55.336,-1074.31,0,0
106840.825,55.4482,-1070.53,0,0
107101.15,55.9207,-1067.16,0,0
107361.475,56.0805,-1063.97,0,0
107621.8,56.3235,-1060.67,0,0
107882.125,56.3536,-1057.6,0,0
108142.45,56.4534,-1054.12,0,0
108402.775,56.79,-1050.68,0,0
108663.1,57.22,-1047.46,0,0
108923.425,57.4153,-1044.46,0,0
109183.75,57.5215,-1041.26,0,0
109444.075,57.5681,-1038.03,0,0
109704.4,57.5397,-1034.66,0,0
109964.725,57.628,-1031,0,0
110225.05,58.0408,-1027.36,0,0
110485.375,58.5715,-1023.77,0,0
110745.7,59.1321,-1020.27,0,0
111006.025,59.8549,-1016.94,0,0
111266.35,60.5345,-1013.79,0,0
111526.675,61.0816,-1010.48,0,0
111787.0,61.7023,-1006.91,0,0
112047.325,62.6451,-1003.43,0,0
112307.65,63.7122,-1000.14,0,0
112567.975,64.7329,-996.967,0,0
112828.3,65.9419,-993.864,0,0
113088.625,67.1639,-990.909,0,0
113348.95,68.418,-988.169,0,0
113609.275,69.3681,-985.699,0,0
113869.6,70.4448,-982.813,0,0
114129.925,71.5086,-979.999,0,0
114390.25,72.8043,-977.209,0,0
114650.575,74.1995,-974.68,0,0
114910.9,75.4629,-972.471,0,0
115171.225,76.5919,-969.894,0,0
115431.55,77.935,-967.301,0,0
115691.875,79.7704,-964.869,0,0
115952.2,81.5496,-962.942,0,0
116212.525,83.3374,-961.233,0,0
116472.85,85.1246,-959.876,0,0
116733.175,86.6062,-958.847,0,0
116993.5,87.8711,-957.895,0,0
117253.825,88.7879,-957.115,0,0
117514.15,89.6461,-956.149,0,0
117774.475,90.4795,-955.43,0,0
118034.8,90.9401,-954.603,0,0
118295.125,91.61,-953.584,0,0
118555.45,92.5075,-953.011,0,0
118815.775,93.0248,-952.634,0,0
119076.1,93.5766,-952.595,0,0
119336.425,93.6206,-952.866,0,0
119596.75,93.3808,-953.347,0,0
119857.075,92.275,-953.964,0,0
120117.4,90.4771,-954.062,0,0
120377.725,88.8384,-953.738,0,0
120638.05,86.6723,-953.568,0,0
120898.375,83.9048,-952.829,0,0
121158.7,80.8458,-951.122,0,0
121419.025,78.4424,-948.621,0,0
121679.35,76.5497,-946.151,0,0
121939.675,74.82,-943.74,0,0
122200.0,73.0271,-941.35,0,0
122460,71.3222,-938.575,0,0
122721,69.988,-935.778,0,0
122981,68.6758,-933.185,0,0
123241,67.173,-930.556,0,0
123502,65.7328,-927.586,0,0
123762,64.4888,-924.425,0,0
124022,63.6922,-921.143,0,0
124283,63.1831,-918.294,0,0
124543,62.3986,-915.706,0,0
124803,61.5255,-912.935,0,0
125064,60.7122,-910.21,0,0
125324,59.8752,-907.478,0,0
125584,58.934,-904.594,0,0
125845,58.1949,-901.624,0,0
126105,57.5613,-898.727,0,0
126365,56.8792,-896.012,0,0
126626,56.0365,-893.129,0,0
126886,55.275,-890.131,0,0
127146,54.5231,-887.128,0,0
127406,53.8946,-883.958,0,0
127667,53.439,-880.672,0,0
127927,53.2207,-877.549,0,0
128187,53.0738,-874.581,0,0
128448,52.7073,-871.852,0,0
128708,52.2376,-868.988,0,0
128968,51.8168,-865.984,0,0
129229,51.5425,-862.947,0,0
129489,51.3196,-860.018,0,0
129749,51.0004,-857.167,0,0
130010,50.6568,-854.13,0,0
130270,50.5706,-851.051,0,0
130530,50.599,-848.256,0,0
130791,50.3781,-845.592,0,0
131051,50.0176,-842.851,0,0
131311,49.5824,-839.884,0,0
131572,49.2455,-836.813,0,0
131832,49.0227,-833.65,0,0
132092,48.9227,-830.541,0,0
132353,48.8532,-827.452,0,0
132613,48.7973,-824.3,0,0
132873,48.8443,-821.149,0,0
133134,48.9509,-818.041,0,0
133394,49.0647,-814.875,0,0
133654,49.3201,-811.679,0,0
133915,49.6899,-808.488,0,0
134175,50.1964,-805.316,0,0
134435,50.9445,-802.263,0,0
134696,51.7397,-799.447,0,0
134956,52.5191,-796.752,0,0
135216,53.2813,-794.067,0,0
135477,54.1256,-791.609,0,0
135737,54.9804,-789.441,0,0
135997,55.5897,-787.375,0,0
136258,56.1284,-785.254,0,0
136518,56.7658,-783.182,0,0
136778,57.43,-781.557,0,0
137039,57.4975,-780.273,0,0
137299,57.0203,-778.619,0,0
137559,56.5338,-776.577,0,0
137819,56.0818,-774.448,0,0
138080,55.5598,-772.214,0,0
138340.125,54.9519,-769.861,0,0
138600.45,54.3095,-767.176,0,0
138860.775,53.8752,-764.247,0,0
139121.1,53.7826,-761.291,0,0
139381.425,53.7921,-758.58,0,0
139641.75,53.6469,-755.884,0,0
139902.075,53.5589,-752.942,0,0
140162.4,53.7111,-750.152,0,0
140422.725,53.7716,-747.461,0,0
140683.05,53.8168,-744.752,0,0
140943.375,53.8909,-742.048,0,0
141203.7,53.9368,-739.34,0,0
141464.025,53.8719,-736.592,0,0
141724.35,53.8647,-733.67,0,0
141984.675,54.1125,-730.647,0,0
142245.0,54.4437,-727.866,0,0
142505.325,54.6079,-725.087,0,0
142765.65,54.8044,-722.155,0,0
143025.975,55.2571,-719.15,0,0
143286.3,55.8378,-716.315,0,0
143546.625,56.3345,-713.571,0,0
143806.95,56.9147,-710.911,0,0
144067.275,57.5266,-708.327,0,0
144327.6,58.083,-705.835,0,0
144587.925,58.6187,-703.407,0,0
144848.25,59.0791,-701.055,0,0
145108.575,59.5051,-698.805,0,0
145368.9,59.6974,-696.621,0,0
145629.225,59.6474,-694.236,0,0
145889.55,59.5856,-691.591,0,0
146149.875,59.7524,-688.777,0,0
146410.2,60.072,-685.982,0,0
146670.525,60.4797,-683.363,0,0
146930.85,60.8094,-680.74,0,0
147191.175,61.243,-678.161,0,0
147451.5,61.4857,-675.711,0,0
147711.825,61.6716,-673.077,0,0
147972.15,62.0765,-670.398,0,0
148232.475,62.4314,-667.98,0,0
148492.8,62.6057,-665.57,0,0
148753.125,62.6358,-663.145,0,0
149013.45,62.5074,-660.58,0,0
149273.775,62.3147,-657.777,0,0
149534.1,62.2606,-654.817,0,0
149794.425,62.2724,-651.852,0,0
150054.75,62.2515,-648.846,0,0
150315.075,62.2438,-645.719,0,0
150575.4,62.2992,-642.507,0,0
150835.725,62.3727,-639.184,0,0
151096.05,62.5442,-635.749,0,0
151356.375,62.8537,-632.257,0,0
151616.7,63.2381,-628.777,0,0
151877.025,63.6601,-625.219,0,0
152137.35,64.1792,-621.632,0,0
152397.675,64.8006,-617.991,0,0
152658.0,65.4992,-614.35,0,0
152918.325,66.288,-610.658,0,0
153178.65,67.2212,-606.946,0,0
153438.975,68.2698,-603.295,0,0
153699.3,69.3061,-599.723,0,0
153959.625,70.368,-596.068,0,0
154219.95,71.5041,-592.359,0,0
154480,72.7462,-588.622,0,0
154741,74.0995,-584.874,0,0
155001,75.5695,-581.096,0,0
155261,77.1752,-577.323,0,0
155522,78.9526,-573.595,0,0
155782,80.8142,-569.953,0,0
156042,82.8008,-566.403,0,0
156303,84.7781,-562.908,0,0
156563,86.8904,-559.355,0,0
156823,89.1306,-555.94,0,0
157084,91.4682,-552.581,0,0
157344,93.9286,-549.295,0,0
157604,96.5958,-546.143,0,0
157864,99.3803,-543.305,0,0
158125,102.015,-540.813,0,0
158385,104.515,-538.374,0,0
158645,107.07,-536.019,0,0
158906,109.619,-534.023,0,0
159166,111.894,-532.355,0,0
159426,113.62,-530.903,0,0
159687,114.788,-529.241,0,0
159947,115.632,-527.298,0,0
160207,116.178,-524.925,0,0
160468,116.664,-522.022,0,0
160728,117.368,-518.754,0,0
160988,118.047,-515.332,0,0
161249,118.593,-511.51,0,0
161509,119.357,-507.021,0,0
161769,120.745,-502.117,0,0
162030,122.582,-497.184,0,0
162290,124.839,-492.047,0,0
162550,127.628,-487.197,0,0
162811,130.278,-482.527,0,0
163071,133.06,-477.368,0,0
163331,136.451,-472.036,0,0
163592,140.362,-466.812,0,0
163852,144.779,-461.943,0,0
164112,149.251,-457.28,0,0
164373,153.884,-452.613,0,0
164633,159.028,-448.312,0,0
164893,163.985,-444.423,0,0
165154,168.461,-440.482,0,0
165414,172.88,-435.875,0,0
165674,177.917,-430.791,0,0
165935,183.51,-425.469,0,0
166195,189.678,-419.885,0,0
166455,196.887,-414.121,0,0
166716,205.173,-408.772,0,0
166976,214.095,-403.929,0,0
167236,223.731,-399.452,0,0
167497,234.177,-395.526,0,0
167757,245.362,-392.423,0,0
168017,257.012,-390.201,0,0
168277,269.193,-388.723,0,0
168538,281.771,-388.157,0,0
168798,294.947,-388.608,0,0
169058,308.464,-390.309,0,0
169319,322.078,-393.564,0,0
169579,335.251,-398.322,0,0
169839,347.774,-403.884,0,0
170100,359.973,-410.343,0,0
170360.075,372.218,-417.57,0,0
170620.4,384.548,-426.347,0,0
170880.725,395.797,-437.09,0,0
171141.05,405.698,-448.878,0,0
171401.375,414.214,-461.561,0,0
171661.7,421.286,-474.777,0,0
171922.025,427.112,-488.208,0,0
172182.35,432.125,-501.828,0,0
172442.675,436.527,-516.321,0,0
172703.0,439.279,-532.006,0,0
172963.325,439.887,-548.218,0,0
173223.65,438.309,-564.133,0,0
173483.975,435.134,-579.947,0,0
173744.3,429.268,-595.794,0,0
174004.625,420.054,-609.921,0,0
174264.95,409.081,-620.542,0,0
174525.275,398.605,-628.398,0,0
174785.6,388.323,-635.391,0,0
175045.925,376.809,-640.389,0,0
175306.25,366.171,-642.683,0,0
175566.575,356.193,-644.137,0,0
175826.9,346.008,-642.783,0,0
176087.225,339.007,-638.582,0,0
176347.55,335.553,-635.072,0,0
176607.875,333.113,-632.932,0,0
176868.2,331.288,-631.103,0,0
177128.525,330.541,-629.473,0,0
177388.85,330.859,-628.803,0,0
177649.175,331.16,-628.85,0,0
177909.5,332.627,-628.741,0,0
178169.825,335.655,-630.232,0,0
178430.15,339.297,-634.105,0,0
178690.475,342.086,-640.896,0,0
178950.8,342.64,-649.352,0,0
179211.125,340.936,-658.885,0,0
179471.45,336.254,-668.322,0,0
179731.775,329.149,-676.341,0,0
179992.1,320.789,-682.087,0,0
180252.425,312.488,-685.7,0,0
180512.75,305.087,-687.984,0,0
180773.075,298.926,-690.098,0,0
181033.4,292.971,-693.307,0,0
181293.725,285.554,-696.895,0,0
181554.05,276.813,-699.138,0,0
181814.375,268.482,-700,0,0
182074.7,260.554,-700.612,0,0
182335.025,252.296,-701.259,0,0
182595.35,243.102,-701.233,0,0
182855.675,233.554,-699.568,0,0
183116.0,224.609,-696.29,0,0
183376.325,216.876,-692.309,0,0
183636.65,209.923,-688.178,0,0
183896.975,203.423,-683.744,0,0
184157.3,197.512,-679.079,0,0
184417.625,191.942,-674.24,0,0
184677.95,187.028,-668.97,0,0
184938.275,183.157,-663.891,0,0
185198.6,179.693,-659.611,0,0
185458.925,175.685,-655.807,0,0
185719.25,171.127,-651.642,0,0
185979.575,166.56,-646.453,0,0
186239.9,162.924,-640.712,0,0
186500,160.049,-635.178,0,0
186761,157.407,-629.915,0,0
187021,154.71,-624.561,0,0
187281,152.398,-618.741,0,0
187542,151.054,-612.8,0,0
187802,150.313,-607.533,0,0
188062,149.715,-602.744,0,0
188322,149.16,-598.386,0,0
188583,148.559,-594.44,0,0
188843,147.569,-590.721,0,0
189103,146.336,-586.814,0,0
189364,145.211,-582.784,0,0
189624,144.103,-578.888,0,0
189884,142.694,-574.932,0,0
190145,141.352,-570.644,0,0
190405,140.165,-566.301,0,0
190665,138.875,-561.922,0,0
190926,137.45,-557.056,0,0
191186,136.536,-551.661,0,0
191446,136.376,-546.291,0,0
191707,136.586,-541.431,0,0
191967,136.597,-537.023,0,0
192227,136.265,-532.426,0,0
192488,136.105,-527.472,0,0
192748,136.113,-522.424,0,0
193008,136.389,-517.17,0,0
193269,137.138,-511.926,0,0
193529,138.085,-506.946,0,0
193789,139.102,-501.988,0,0
194050,140.36,-497.084,0,0
194310,141.713,-492.31,0,0
194570,143.19,-487.519,0,0
194831,144.867,-482.748,0,0
195091,146.816,-478.09,0,0
195351,148.973,-473.684,0,0
195612,151.075,-469.505,0,0
195872,153.312,-465.412,0,0
196132,155.719,-461.358,0,0
196393,158.094,-457.651,0,0
196653,160.405,-454.027,0,0
196913,162.733,-450.427,0,0
197174,165.176,-447.024,0,0
197434,167.801,-443.842,0,0
197694,169.949,-441.027,0,0
197955,171.732,-438.075,0,0
198215,173.48,-434.874,0,0
198475,175.294,-431.691,0,0
198735,177.006,-428.407,0,0
198996,178.703,-425.01,0,0
199256,180.335,-421.48,0,0
199516,181.842,-417.754,0,0
199777,183.31,-413.668,0,0
200037,185.116,-409.216,0,0
200297,187.265,-404.61,0,0
200558,189.718,-399.865,0,0
200818,192.504,-395.228,0,0
201078,195.416,-390.696,0,0
201339,198.322,-386.04,0,0
201599,201.521,-381.196,0,0
201859,205.034,-376.156,0,0
202120,209.054,-371.075,0,0
202380.025,213.557,-366.085,0,0
202640.35,218.342,-361.427,0,0
202900.675,223.328,-356.908,0,0
203161.0,228.618,-352.484,0,0
203421.325,234.22,-348.426,0,0
203681.65,239.816,-344.51,0,0
203941.975,245.586,-340.668,0,0
204202.3,251.633,-337.014,0,0
204462.625,257.862,-333.437,0,0
204722.95,264.196,-330.197,0,0
204983.275,270.451,-326.865,0,0
205243.6,277.15,-323.018,0,0
205503.925,285.029,-319.344,0,0
205764.25,293.657,-316.54,0,0
206024.575,302.491,-314.774,0,0
206284.9,311.31,-313.663,0,0
206545.225,320.125,-313.446,0,0
206805.55,328.503,-314.117,0,0
207065.875,336.13,-315.331,0,0
207326.2,342.918,-316.552,0,0
207586.525,349.141,-317.558,0,0
207846.85,354.739,-318.28,0,0
208107.175,359.966,-318.06,0,0
208367.5,365.913,-316.603,0,0
208627.825,372.836,-314.806,0,0
208888.15,380.673,-313.011,0,0
209148.475,389.658,-311.266,0,0
209408.8,399.82,-309.958,0,0
209669.125,411.246,-309.474,0,0
209929.45,423.688,-310.425,0,0
210189.775,436.731,-313.28,0,0
210450.1,449.599,-317.861,0,0
210710.425,461.953,-324.198,0,0
210970.75,473.434,-332.164,0,0
211231.075,483.352,-341.172,0,0
211491.4,491.985,-350.601,0,0
211751.725,499.601,-359.975,0,0
212012.05,506.608,-369.528,0,0
212272.375,512.89,-379.794,0,0
212532.7,517.807,-390.238,0,0
212793.025,521.618,-400.277,0,0
213053.35,524.783,-409.847,0,0
213313.675,527.467,-418.793,0,0
213574.0,530.216,-427.272,0,0
213834.325,533.201,-435.703,0,0
214094.65,536.274,-444.424,0,0
214354.975,539.353,-453.929,0,0
214615.3,541.382,-464.43,0,0
214875.625,541.803,-474.626,0,0
215135.95,541.731,-483.981,0,0
215396.275,541.42,-493.07,0,0
215656.6,540.777,-501.873,0,0
215916.925,539.931,-510.146,0,0
216177.25,539.634,-518.258,0,0
216437.575,539.463,-527.113,0,0
216697.9,538.735,-536.777,0,0
216958.225,536.942,-547.022,0,0
217218.55,533.733,-557.215,0,0
217478.875,529.398,-566.791,0,0
217739.2,524.16,-575.464,0,0
217999.525,518.882,-583.255,0,0
218259.85,513.566,-590.836,0,0
218520,507.786,-598.618,0,0
218780,500.81,-606.356,0,0
219041,492.388,-613.12,0,0
219301,483.216,-618.418,0,0
219561,473.712,-621.998,0,0
219822,464.366,-624.105,0,0
220082,455.404,-624.682,0,0
220342,447.499,-623.999,0,0
220603,440.711,-622.724,0,0
220863,434.77,-621.171,0,0
221123,429.486,-619.43,0,0
221384,424.744,-617.453,0,0
221644,420.614,-615.249,0,0
221904,417.18,-612.876,0,0
222165,414.353,-610.543,0,0
222425,412.153,-608.235,0,0
222685,410.704,-606.097,0,0
222946,409.662,-604.514,0,0
223206,408.747,-603.393,0,0
223466,407.697,-602.417,0,0
223727,406.78,-601.416,0,0
223987,406.088,-600.451,0,0
224247,405.571,-599.754,0,0
224508,404.924,-599.196,0,0
224768,404.201,-598.612,0,0
225028,403.524,-597.827,0,0
225289,402.966,-596.637,0,0
225549,403.049,-595.114,0,0
225809,403.723,-593.726,0,0
226070,404.966,-592.517,0,0
226330,406.696,-591.798,0,0
226590,408.863,-591.57,0,0
226851,411.128,-592.031,0,0
227111,413.315,-592.824,0,0
227371,415.62,-594.041,0,0
227632,417.811,-595.725,0,0
227892,419.946,-597.692,0,0
228152,422.061,-600.082,0,0
228413,423.904,-602.824,0,0
228673,425.588,-605.69,0,0
228933,427.355,-608.744,0,0
229193,429.11,-612.386,0,0
229454,430.572,-616.544,0,0
229714,431.293,-620.908,0,0
229974,431.93,-625.003,0,0
230235,432.858,-629.38,0,0
230495,433.763,-634.518,0,0
230755,433.877,-640.464,0,0
231016,432.929,-646.439,0,0
231276,431.398,-652.069,0,0
231536,429.64,-657.502,0,0
231797,427.509,-662.675,0,0
232057,425.445,-667.634,0,0
232317,423.683,-672.846,0,0
232578,421.789,-678.851,0,0
232838,419.028,-685.585,0,0
233098,415.073,-692.418,0,0
233359,410.297,-698.974,0,0
233619,404.83,-705.527,0,0
233879,398.068,-712.008,0,0
234140,389.896,-717.661,0,0
234400,380.835,-721.762,0,0
234660.3,371.632,-724.402,0,0
234920.625,362.615,-725.954,0,0
235180.95,353.837,-726.753,0,0
235441.275,345.137,-726.493,0,0
235701.6,336.75,-725.131,0,0
235961.925,329.229,-722.938,0,0
236222.25,322.632,-720.422,0,0
236482.575,316.641,-717.687,0,0
236742.9,311.502,-714.642,0,0
237003.225,307.417,-712.068,0,0
237263.55,303.329,-710.445,0,0
237523.875,298.754,-708.969,0,0
237784.2,293.96,-707.402,0,0
238044.525,288.649,-705.603,0,0
238304.85,283.069,-702.996,0,0
238565.175,277.835,-699.355,0,0
238825.5,273.42,-695.04,0,0
239085.825,269.926,-690.614,0,0
239346.15,267.167,-686.08,0,0
239606.475,265.201,-681.71,0,0
239866.8,263.85,-677.745,0,0
240127.125,263.14,-674.148,0,0
240387.45,262.978,-671.196,0,0
240647.775,263.061,-669.422,0,0
240908.1,262.573,-668.602,0,0
241168.425,261.277,-668.187,0,0
241428.75,259.22,-667.616,0,0
241689.075,256.892,-666.795,0,0
241949.4,254.241,-665.955,0,0
242209.725,250.934,-665.037,0,0
242470.05,246.965,-663.178,0,0
242730.375,243.229,-660.16,0,0
242990.7,240.239,-656.512,0,0
243251.025,237.953,-652.764,0,0
243511.35,235.916,-649.14,0,0
243771.675,234.032,-645.208,0,0
244032.0,232.751,-640.852,0,0
244292.325,232.311,-636.473,0,0
244552.65,232.686,-632.372,0,0
244812.975,233.675,-628.992,0,0
245073.3,234.943,-626.444,0,0
245333.625,235.995,-624.623,0,0
245593.95,236.766,-623.265,0,0
245854.275,237.105,-622.247,0,0
246114.6,237.037,-621.329,0,0
246374.925,236.6,-620.369,0,0
246635.25,235.923,-619.282,0,0
246895.575,235.113,-618.109,0,0
247155.9,234.044,-616.699,0,0
247416.225,232.902,-615.048,0,0
247676.55,231.837,-613.1,0,0
247936.875,230.897,-610.935,0,0
248197.2,230.053,-608.584,0,0
248457.525,229.432,-606.075,0,0
248717.85,229.07,-603.509,0,0
248978.175,228.858,-600.978,0,0
249238.5,228.758,-598.392,0,0
249498.825,228.888,-595.799,0,0
249759.15,229.095,-593.235,0,0
250019.475,229.466,-590.691,0,0
250279.8,229.977,-587.945,0,0
250540,230.819,-585.149,0,0
250800,231.9,-582.524,0,0
251061,233.243,-579.952,0,0
251321,234.864,-577.482,0,0
251581,236.73,-575.173,0,0
251842,238.834,-573.067,0,0
252102,241.178,-571.152,0,0
252362,243.799,-569.565,0,0
252623,246.534,-568.346,0,0
252883,249.435,-567.448,0,0
253143,252.437,-566.919,0,0
253404,255.51,-566.911,0,0
253664,258.457,-567.353,0,0
253924,261.282,-568.276,0,0
254185,263.833,-569.66,0,0
254445,265.997,-571.387,0,0
254705,267.748,-573.405,0,0
254966,269.051,-575.517,0,0
255226,270.013,-577.69,0,0
255486,270.522,-579.872,0,0
255747,270.643,-582,0,0
256007,270.391,-583.99,0,0
256267,269.917,-585.762,0,0
256528,269.343,-587.32,0,0
256788,268.638,-588.866,0,0
257048,267.663,-590.257,0,0
257309,266.413,-591.482,0,0
257569,265.003,-592.325,0,0
257829,263.623,-592.841,0,0
258090,262.259,-593.088,0,0
258350,261.051,-593.033,0,0
258610,260.182,-592.805,0,0
258871,259.583,-592.661,0,0
259131,259.104,-592.753,0,0
259391,258.454,-593.057,0,0
259651,257.582,-593.364,0,0
259912,256.512,-593.47,0,0
260172,255.481,-593.363,0,0
260432,254.464,-593.133,0,0
260693,253.493,-592.762,0,0
260953,252.502,-592.306,0,0
261213,251.478,-591.612,0,0
261474,250.632,-590.707,0,0
261734,249.926,-589.613,0,0
261994,249.407,-588.372,0,0
262255,249.184,-586.916,0,0
262515,249.393,-585.361,0,0
262775,250.019,-583.779,0,0
263036,251.276,-582.423,0,0
263296,252.973,-581.592,0,0
263556,254.806,-581.358,0,0
263817,256.591,-581.592,0,0
264077,258.311,-582.355,0,0
264337,259.721,-583.621,0,0
264598,260.702,-585.174,0,0
264858,261.205,-586.811,0,0
265118,261.279,-588.349,0,0
265379,261.146,-589.612,0,0
265639,260.948,-590.769,0,0
265899,260.708,-591.838,0,0
266160,260.495,-592.639,0,0
266420,260.497,-593.487,0,0
266680.25,260.632,-594.524,0,0
266940.575,260.723,-595.791,0,0
267200.9,260.716,-597.328,0,0
267461.225,260.464,-599.119,0,0
267721.55,259.769,-601.037,0,0
267981.875,258.672,-602.851,0,0
268242.2,257.187,-604.501,0,0
268502.525,255.374,-605.82,0,0
268762.85,253.298,-606.689,0,0
269023.175,251.257,-606.908,0,0
269283.5,249.551,-606.658,0,0
269543.825,248.324,-606.111,0,0
269804.15,247.434,-605.685,0,0
270064.475,246.814,-605.189,0,0
270324.8,246.351,-604.678,0,0
270585.125,246.208,-604.137,0,0
270845.45,246.469,-603.582,0,0
271105.775,247.214,-603.151,0,0
271366.1,248.495,-603.107,0,0
271626.425,250.174,-603.583,0,0
271886.75,252.139,-604.714,0,0
272147.075,254.264,-606.645,0,0
272407.4,256.348,-609.581,0,0
272667.725,257.972,-613.515,0,0
272928.05,258.784,-618.236,0,0
273188.375,258.717,-623.479,0,0
273448.7,257.639,-629.112,0,0
273709.025,255.441,-634.842,0,0
273969.35,252.108,-640.34,0,0
274229.675,247.842,-645.414,0,0
274490.0,242.861,-649.867,0,0
274750.325,237.355,-653.713,0,0
275010.65,231.441,-657.118,0,0
275270.975,224.874,-659.969,0,0
275531.3,217.684,-662.056,0,0
275791.625,210.241,-663.021,0,0
276051.95,202.752,-663.087,0,0
276312.275,195.429,-662.313,0,0
276572.6,188.315,-660.761,0,0
276832.925,181.501,-658.532,0,0
277093.25,175.012,-655.648,0,0
277353.575,168.961,-652.182,0,0
277613.9,163.366,-648.185,0,0
277874.225,158.382,-643.728,0,0
278134.55,154.026,-638.937,0,0
278394.875,150.338,-633.956,0,0
278655.2,147.326,-628.913,0,0
278915.525,144.899,-624.013,0,0
279175.85,142.928,-619.254,0,0
279436.175,141.331,-614.723,0,0
279696.5,140.005,-610.272,0,0
279956.825,138.969,-605.961,0,0
280217.15,138.268,-601.802,0,0
280477.475,137.878,-597.817,0,0
280737.8,137.746,-594.115,0,0
280998.125,137.823,-590.741,0,0
281258.45,138,-587.759,0,0
281518.775,138.079,-585.106,0,0
281779.1,137.937,-582.701,0,0
282039.425,137.6,-580.36,0,0
282299.75,137.057,-578.001,0,0
282560,136.362,-575.525,0,0
282820,135.586,-572.818,0,0
283081,134.89,-569.851,0,0
283341,134.391,-566.696,0,0
283601,134.134,-563.39,0,0
283862,134.122,-560.035,0,0
284122,134.422,-556.679,0,0
284382,135.056,-553.439,0,0
284643,135.879,-550.353,0,0
284903,136.855,-547.326,0,0
285163,138.063,-544.53,0,0
285424,139.492,-541.938,0,0
285684,141.025,-539.637,0,0
285944,142.558,-537.572,0,0
286205,144.119,-535.728,0,0
286465,145.697,-534.12,0,0
286725,147.241,-532.771,0,0
286986,148.681,-531.714,0,0
287246,149.92,-530.854,0,0
287506,150.914,-530.162,0,0
287767,151.6,-529.524,0,0
288027,152.014,-528.793,0,0
288287,152.236,-527.906,0,0
288548,152.342,-526.86,0,0
288808,152.354,-525.6,0,0
289068,152.394,-524.117,0,0
289329,152.574,-522.46,0,0
289589,152.839,-520.736,0,0
289849,153.21,-518.917,0,0
290109,153.668,-517.037,0,0
290370,154.242,-515.037,0,0
290630,155.021,-512.966,0,0
290890,156.044,-510.891,0,0
291151,157.287,-508.909,0,0
291411,158.711,-507.102,0,0
291671,160.211,-505.481,0,0
291932,161.671,-504.029,0,0
292192,163.068,-502.651,0,0
292452,164.45,-501.248,0,0
292713,165.924,-499.811,0,0
292973,167.484,-498.463,0,0
293233,169.099,-497.201,0,0
293494,170.728,-495.989,0,0
293754,172.388,-494.822,0,0
294014,174.09,-493.739,0,0
294275,175.744,-492.668,0,0
294535,177.416,-491.62,0,0
294795,179.107,-490.507,0,0
295056,180.952,-489.37,0,0
295316,182.905,-488.254,0,0
295576,185.016,-487.206,0,0
295837,187.216,-486.236,0,0
296097,189.517,-485.34,0,0
296357,191.939,-484.516,0,0
296618,194.46,-483.795,0,0
296878,197.11,-483.208,0,0
297138,199.868,-482.753,0,0
297399,202.699,-482.456,0,0
297659,205.6,-482.313,0,0
297919,208.567,-482.337,0,0
298180,211.597,-482.52,0,0
298440,214.664,-482.866,0,0
298700.2,217.793,-483.397,0,0
298960.525,220.855,-484.06,0,0
299220.85,224.075,-484.839,0,0
299481.175,227.35,-485.79,0,0
299741.5,230.66,-487.019,0,0
300001.825,234.026,-488.35,0,0
300262.15,237.551,-490.081,0,0
300522.475,240.982,-492.044,0,0
300782.8,244.496,-494.188,0,0
301043.125,248.115,-496.646,0,0
301303.45,251.745,-499.405,0,0
301563.775,255.477,-502.644,0,0
301824.1,259.231,-506.538,0,0
302084.425,262.857,-511.021,0,0
302344.75,266.166,-516.135,0,0
302605.075,269.078,-522.052,0,0
302865.4,271.163,-528.492,0,0
303125.725,272.374,-535.431,0,0
303386.05,272.616,-542.539,0,0
303646.375,271.859,-549.578,0,0
303906.7,270.232,-556.255,0,0
304167.025,267.929,-562.486,0,0
304427.35,265.13,-568.208,0,0
304687.675,261.988,-573.413,0,0
304948.0,258.601,-578.147,0,0
305208.325,255.135,-582.519,0,0
305468.65,251.538,-586.668,0,0
305728.975,247.725,-590.606,0,0
305989.3,243.654,-594.275,0,0
306249.625,239.317,-597.605,0,0
306509.95,234.767,-600.555,0,0
306770.275,230.108,-603.05,0,0
307030.6,225.424,-605.161,0,0
307290.925,220.79,-606.923,0,0
307551.25,216.158,-608.405,0,0
307811.575,211.543,-609.646,0,0
308071.9,206.901,-610.596,0,0
308332.225,202.261,-611.229,0,0
308592.55,197.655,-611.579,0,0
308852.875,193.051,-611.598,0,0
309113.2,188.609,-611.256,0,0
309373.525,184.373,-610.58,0,0
309633.85,180.378,-609.708,0,0
309894.175,176.632,-608.635,0,0
310154.5,173.081,-607.447,0,0
310414.825,169.815,-606.158,0,0
310675.15,166.733,-604.884,0,0
310935.475,163.798,-603.574,0,0
311195.8,160.975,-602.233,0,0
311456.125,158.31,-600.849,0,0
311716.45,155.754,-599.457,0,0
311976.775,153.335,-598.07,0,0
312237.1,150.99,-596.722,0,0
312497.425,148.725,-595.379,0,0
312757.75,146.462,-594.092,0,0
313018.075,144.191,-592.772,0,0
313278.4,141.937,-591.374,0,0
313538.725,139.695,-589.889,0,0
313799.05,137.488,-588.307,0,0
314059.375,135.38,-586.649,0,0
314319.7,133.362,-584.882,0,0
314580,131.441,-583.031,0,0
314840,129.645,-581.105,0,0
315101,128.01,-579.138,0,0
315361,126.517,-577.12,0,0
315621,125.156,-575.12,0,0
315882,123.979,-573.103,0,0
316142,122.892,-571.169,0,0
316402,121.974,-569.256,0,0
316663,121.15,-567.418,0,0
316923,120.403,-565.655,0,0
317183,119.697,-563.976,0,0
317444,119.102,-562.391,0,0
317704,118.483,-560.857,0,0
317964,117.895,-559.374,0,0
318225,117.307,-557.941,0,0
318485,116.741,-556.487,0,0
318745,116.226,-555.063,0,0
319006,115.715,-553.64,0,0
319266,115.339,-552.219,0,0
319526,115.022,-550.859,0,0
319787,114.758,-549.576,0,0
320047,114.549,-548.388,0,0
320307,114.33,-547.31,0,0
320567,114.118,-546.291,0,0
320828,113.861,-545.352,0,0
321088,113.58,-544.436,0,0
321348,113.257,-543.556,0,0
321609,112.915,-542.675,0,0
321869,112.545,-541.818,0,0
322129,112.193,-540.955,0,0
322390,111.835,-540.102,0,0
322650,111.473,-539.26,0,0
322910,111.125,-538.443,0,0
323171,110.761,-537.63,0,0
323431,110.403,-536.832,0,0
323691,110.048,-536.051,0,0
323952,109.687,-535.28,0,0
324212,109.323,-534.526,0,0
324472,108.947,-533.751,0,0
324733,108.567,-532.983,0,0
324993,108.216,-532.199,0,0
325253,107.88,-531.411,0,0
325514,107.588,-530.625,0,0
325774,107.347,-529.864,0,0
326034,107.145,-529.127,0,0
326295,106.975,-528.456,0,0
326555,106.816,-527.848,0,0
326815,106.669,-527.317,0,0
327076,106.547,-526.86,0,0
327336,106.326,-526.494,0,0
327596,106.084,-526.193,0,0
327857,105.758,-525.938,0,0
328117,105.336,-525.704,0,0
328377,104.85,-525.454,0,0
328638,104.284,-525.176,0,0
328898,103.707,-524.861,0,0
329158,103.091,-524.532,0,0
329419,102.468,-524.163,0,0
329679,101.863,-523.818,0,0
329939,101.196,-523.474,0,0
330200,100.529,-523.109,0,0
330460,99.8225,-522.725,0,0
330720.15,99.0945,-522.389,0,0
330980.475,98.415,-522.041,0,0
331240.8,97.5783,-521.668,0,0
331501.125,96.7385,-521.353,0,0
331761.45,95.922,-520.977,0,0
332021.775,94.9924,-520.604,0,0
332282.1,94.0207,-520.126,0,0
332542.425,92.9713,-519.767,0,0
332802.75,91.9125,-519.22,0,0
333063.075,90.8157,-518.667,0,0
333323.4,89.7015,-518.005,0,0
333583.725,88.6055,-517.26,0,0
333844.05,87.5293,-516.475,0,0
334104.375,86.453,-515.609,0,0
334364.7,85.3873,-514.772,0,0
334625.025,84.2973,-513.806,0,0
334885.35,83.3587,-512.913,0,0
335145.675,82.3223,-511.884,0,0
335406.0,81.3895,-510.947,0,0
335666.325,80.4073,-509.95,0,0
335926.65,79.4201,-508.843,0,0
336186.975,78.471,-507.797,0,0
336447.3,77.5573,-506.622,0,0
336707.625,76.624,-505.416,0,0
336967.95,75.7018,-504.249,0,0
337228.275,74.8946,-502.924,0,0
337488.6,74.0477,-501.745,0,0
337748.925,73.3495,-500.401,0,0
338009.25,72.5755,-499.073,0,0
338269.575,71.977,-497.699,0,0
338529.9,71.3334,-496.388,0,0
338790.225,70.8055,-495.048,0,0
339050.55,70.198,-493.749,0,0
339310.875,69.6552,-492.474,0,0
339571.2,69.0671,-491.099,0,0
339831.525,68.5891,-489.741,0,0
340091.85,68.1113,-488.409,0,0
340352.175,67.6789,-487.121,0,0
340612.5,67.1961,-485.738,0,0
340872.825,66.7401,-484.464,0,0
341133.15,66.3189,-483.021,0,0
341393.475,65.986,-481.613,0,0
341653.8,65.6582,-480.178,0,0
341914.125,65.3868,-478.735,0,0
342174.45,65.1401,-477.326,0,0
342434.775,64.9117,-475.914,0,0
342695.1,64.7988,-474.432,0,0
342955.425,64.7003,-473.086,0,0
343215.75,64.6011,-471.679,0,0
343476.075,64.5765,-470.319,0,0
343736.4,64.5966,-468.956,0,0
343996.725,64.7385,-467.65,0,0
344257.05,64.819,-466.264,0,0
344517.375,64.9881,-465.071,0,0
344777.7,65.1773,-463.873,0,0
345038.025,65.3653,-462.705,0,0
345298.35,65.5938,-461.658,0,0
345558.675,65.8623,-460.651,0,0
345819.0,66.1311,-459.671,0,0
346079.325,66.3035,-458.767,0,0
346339.65,66.5267,-458.016,0,0
346599.975,66.6175,-457.148,0,0
346860,66.7086,-456.402,0,0
347121,66.7546,-455.702,0,0
347381,66.7092,-454.923,0,0
347641,66.6103,-454.284,0,0
347902,66.5054,-453.474,0,0
348162,66.2493,-452.709,0,0
348422,65.9683,-451.878,0,0
348683,65.7506,-450.954,0,0
348943,65.4493,-449.997,0,0
349203,65.2248,-448.997,0,0
349464,65.0203,-447.908,0,0
349724,64.8224,-446.84,0,0
349984,64.6702,-445.814,0,0
350245,64.5189,-444.673,0,0
350505,64.3461,-443.516,0,0
350765,64.1956,-442.366,0,0
351025,64.1187,-441.151,0,0
351286,64.0449,-439.905,0,0
351546,64.0207,-438.603,0,0
351806,64.0703,-437.305,0,0
352067,64.2087,-436.006,0,0
352327,64.3631,-434.712,0,0
352587,64.7001,-433.421,0,0
352848,64.9843,-432.144,0,0
353108,65.389,-430.938,0,0
353368,65.803,-429.711,0,0
353629,66.2659,-428.64,0,0
353889,66.7974,-427.622,0,0
354149,67.3631,-426.644,0,0
354410,67.8755,-425.716,0,0
354670,68.4555,-424.884,0,0
354930,68.95,-424.089,0,0
355191,69.5335,-423.383,0,0
355451,70.0754,-422.759,0,0
355711,70.5905,-422.153,0,0
355972,71.0278,-421.637,0,0
356232,71.3433,-421.241,0,0
356492,71.6371,-420.805,0,0
356753,71.889,-420.398,0,0
357013,72.0178,-420.036,0,0
357273,72.06,-419.638,0,0
357534,72.0111,-419.173,0,0
357794,71.9372,-418.716,0,0
358054,71.7344,-418.166,0,0
358315,71.5189,-417.62,0,0
358575,71.2518,-416.838,0,0
358835,70.9688,-416.019,0,0
359096,70.7475,-415.161,0,0
359356,70.5172,-414.192,0,0
359616,70.3467,-413.113,0,0
359877,70.2598,-412.022,0,0
360137,70.2311,-410.915,0,0
360397,70.2672,-409.715,0,0
360658,70.3442,-408.568,0,0
360918,70.4781,-407.418,0,0
361178,70.6521,-406.204,0,0
361438,70.8939,-404.999,0,0
361699,71.1807,-403.848,0,0
361959,71.5184,-402.635,0,0
362219,71.9679,-401.496,0,0
362480,72.4277,-400.371,0,0
362740.1,72.9112,-399.268,0,0
363000.425,73.4785,-398.169,0,0
363260.75,74.0356,-397.172,0,0
363521.075,74.6411,-396.135,0,0
363781.4,75.2843,-395.166,0,0
364041.725,75.951,-394.199,0,0
364302.05,76.6043,-393.27,0,0
364562.375,77.3355,-392.405,0,0
364822.7,78.0909,-391.592,0,0
365083.025,78.8522,-390.791,0,0
365343.35,79.6705,-390.077,0,0
365603.675,80.4645,-389.467,0,0
365864.0,81.2233,-388.851,0,0
366124.325,81.9541,-388.301,0,0
366384.65,82.6476,-387.837,0,0
366644.975,83.2766,-387.342,0,0
366905.3,83.9474,-386.889,0,0
367165.625,84.55,-386.427,0,0
367425.95,85.1739,-385.943,0,0
367686.275,85.8048,-385.433,0,0
367946.6,86.4187,-384.922,0,0
368206.925,87.064,-384.512,0,0
368467.25,87.7036,-384.124,0,0
368727.575,88.3827,-383.763,0,0
368987.9,89.0426,-383.455,0,0
369248.225,89.7323,-383.177,0,0
369508.55,90.3204,-382.942,0,0
369768.875,90.9903,-382.826,0,0
370029.2,91.5561,-382.746,0,0
370289.525,92.0725,-382.722,0,0
370549.85,92.416,-382.776,0,0
370810.175,92.7541,-382.804,0,0
371070.5,92.9198,-382.842,0,0
371330.825,93.0026,-382.82,0,0
371591.15,92.9742,-382.725,0,0
371851.475,92.896,-382.568,0,0
372111.8,92.8073,-382.241,0,0
372372.125,92.7084,-381.846,0,0
372632.45,92.6019,-381.357,0,0
372892.775,92.5425,-380.807,0,0
373153.1,92.5519,-380.135,0,0
373413.425,92.6458,-379.482,0,0
373673.75,92.8493,-378.809,0,0
373934.075,93.0753,-378.076,0,0
374194.4,93.3752,-377.432,0,0
374454.725,93.6796,-376.799,0,0
374715.05,94.0338,-376.232,0,0
374975.375,94.3972,-375.658,0,0
375235.7,94.7495,-375.133,0,0
375496.025,95.1129,-374.643,0,0
375756.35,95.5043,-374.146,0,0
376016.675,95.8405,-373.681,0,0
376277.0,96.1915,-373.254,0,0
376537.325,96.5103,-372.849,0,0
376797.65,96.7582,-372.462,0,0
377057.975,97.0208,-372.065,0,0
377318.3,97.1713,-371.579,0,0
377578.625,97.3642,-371.083,0,0
377838.95,97.5239,-370.536,0,0
378099.275,97.692,-369.931,0,0
378359.6,97.9142,-369.3,0,0
378619.925,98.1432,-368.61,0,0
378880,98.4515,-367.883,0,0
379141,98.8441,-367.169,0,0
379401,99.2595,-366.494,0,0
379661,99.7123,-365.863,0,0
379922,100.189,-365.229,0,0
380182,100.643,-364.629,0,0
380442,101.108,-364.085,0,0
380703,101.578,-363.521,0,0
380963,102.036,-362.931,0,0
381223,102.521,-362.363,0,0
381483,103.002,-361.796,0,0
381744,103.489,-361.27,0,0
382004,104.015,-360.697,0,0
382264,104.537,-360.133,0,0
382525,105.123,-359.567,0,0
382785,105.69,-359.012,0,0
383045,106.257,-358.517,0,0
383306,106.853,-358.054,0,0
383566,107.394,-357.63,0,0
383826,107.976,-357.185,0,0
384087,108.523,-356.735,0,0
384347,109.086,-356.236,0,0
384607,109.687,-355.786,0,0
384868,110.29,-355.354,0,0
385128,110.851,-354.941,0,0
385388,111.418,-354.596,0,0
385649,111.906,-354.221,0,0
385909,112.459,-353.774,0,0
386169,112.946,-353.35,0,0
386430,113.487,-352.873,0,0
386690,114.051,-352.385,0,0
386950,114.653,-351.931,0,0
387211,115.235,-351.525,0,0
387471,115.757,-351.077,0,0
387731,116.294,-350.649,0,0
387992,116.821,-350.149,0,0
388252,117.327,-349.563,0,0
388512,117.898,-348.965,0,0
388773,118.558,-348.302,0,0
389033,119.239,-347.614,0,0
389293,120.027,-346.912,0,0
389554,120.931,-346.238,0,0
389814,121.925,-345.629,0,0
390074,122.959,-345.096,0,0
390335,124.019,-344.635,0,0
390595,125.068,-344.24,0,0
390855,126.145,-343.933,0,0
391116,127.167,-343.656,0,0
391376,128.238,-343.41,0,0
391636,129.243,-343.146,0,0
391896,130.258,-342.917,0,0
392157,131.268,-342.727,0,0
392417,132.305,-342.519,0,0
392677,133.32,-342.359,0,0
392938,134.348,-342.236,0,0
393198,135.369,-342.135,0,0
393458,136.396,-341.992,0,0
393719,137.351,-341.931,0,0
393979,138.259,-341.823,0,0
394239,139.225,-341.641,0,0
394500,140.192,-341.396,0,0
394760.05,141.198,-341.167,0,0
395020.375,142.297,-340.881,0,0
395280.7,143.44,-340.578,0,0
395541.025,144.675,-340.308,0,0
395801.35,146.025,-339.993,0,0
396061.675,147.431,-339.75,0,0
396322.0,148.96,-339.474,0,0
396582.325,150.541,-339.275,0,0
396842.65,152.296,-339.134,0,0
397102.975,154.096,-339.05,0,0
397363.3,156.098,-339.092,0,0
397623.625,158.201,-339.202,0,0
397883.95,160.44,-339.555,0,0
398144.275,162.759,-340.074,0,0
398404.6,165.142,-340.806,0,0
398664.925,167.593,-341.738,0,0
398925.25,170.032,-342.968,0,0
399185.575,172.475,-344.402,0,0
399445.9,174.951,-346.182,0,0
399706.225,177.286,-348.247,0,0
399966.55,179.486,-350.631,0,0
400006.6,179.791,-351.04,0,0