File: Accelerated corrosion test data/2025-10-19_18-00-04/sample_2.csv
Frequency (Hz),Impedance (ohms),Phase (Radians),Temperature (C),Humidity (%)
10000.0,222.321,-11470.2,0,0
10260.325,216.981,-11181.4,0,0
10520.65,212.029,-10906.7,0,0
10780.975,207.528,-10645.1,0,0
11041.3,202.592,-10396.5,0,0
11301.625,198.219,-10157.9,0,0
11561.95,194.94,-9929.05,0,0
11822.275,192.6,-9720.08,0,0
12082.6,188.157,-9509.44,0,0
12342.925,182.526,-9311.73,0,0
12603.25,178.45,-9119.69,0,0
12863.575,175.71,-8935.06,0,0
13123.9,172.628,-8761.16,0,0
13384.225,169.181,-8589.57,0,0
13644.55,167.116,-8422.64,0,0
13904.875,179.962,-8280.76,0,0
14165.2,162.055,-8124.15,0,0
14425.525,158.177,-7973.26,0,0
14685.8,165.135,-7828.88,0,0
14946.175,156.737,-7697,0,0
15206.5,156.474,-7577.79,0,0
15466.825,158.172,-7443.84,0,0
15727.15,147.706,-7327.24,0,0
15987.5,145.782,-7205.53,0,0
16247.8,145.373,-7092.13,0,0
16508.125,140.119,-6980.77,0,0
16768.45,137.548,-6872.11,0,0
17028.775,135.971,-6767.75,0,0
17289.1,134.538,-6667.18,0,0
17549.425,132.007,-6567.38,0,0
17809.75,129.591,-6471.28,0,0
18070.075,128.768,-6377.81,0,0
18330.4,127.076,-6286.75,0,0
18590.725,126.07,-6198.1,0,0
18851.05,124.976,-6111.84,0,0
19111.375,126.13,-6030.65,0,0
19371.7,124.134,-5953.59,0,0
19632.025,120.137,-5873.71,0,0
19892.35,118.037,-5795.51,0,0
20152.675,116.569,-5719.34,0,0
20413.0,116.084,-5645.21,0,0
20673.3,115.566,-5572.04,0,0
20933.65,116.518,-5500.04,0,0
21193.975,121.374,-5433.52,0,0
21454.3,127.6,-5374.84,0,0
21714.625,123.742,-5316.52,0,0
21974.9,123.021,-5250.6,0,0
22235.275,116.075,-5195.37,0,0
22495.6,112.775,-5134.45,0,0
22755.925,110.969,-5072.78,0,0
23016.25,110.114,-5018.22,0,0
23276.6,110.291,-4964.45,0,0
23536.9,105.952,-4908.36,0,0
23797.225,105.42,-4854,0,0
24057.55,104.609,-4803.11,0,0
24317.875,100.79,-4751.82,0,0
24578.2,99.2495,-4700.36,0,0
24838.525,98.1716,-4650.45,0,0
25098.85,97.7812,-4601.3,0,0
25359.175,96.5183,-4553.33,0,0
25619.5,95.8136,-4507.11,0,0
25879.8,94.3485,-4460.31,0,0
26140.1,95.3308,-4416.1,0,0
26400.5,94.596,-4371.96,0,0
26660.8,94.2348,-4330.78,0,0
26921.1,93.3652,-4287.98,0,0
27181.4,91.9435,-4247.85,0,0
27441.8,90.3227,-4207.52,0,0
27702.1,88.8636,-4166.92,0,0
27962.4,88.8262,-4125.99,0,0
28222.7,89.0049,-4087.87,0,0
28483.1,88.6135,-4050.02,0,0
28743.4,88.1393,-4010.88,0,0
29003.7,90.2519,-3975.21,0,0
29264,90.8774,-3938.47,0,0
29524.4,93.2836,-3903.74,0,0
29784.7,95.2981,-3876.39,0,0
30045,91.8233,-3843.34,0,0
30305.3,93.2621,-3810.42,0,0
30565.7,88.7076,-3781.61,0,0
30826,86.3616,-3748.52,0,0
31086.3,85.7171,-3716.59,0,0
31346.6,84.2395,-3685.25,0,0
31607,83.9514,-3655.11,0,0
31867.3,81.9951,-3624.69,0,0
32127.6,81.1048,-3594.07,0,0
32387.9,82.0075,-3563.85,0,0
32648.3,83.2257,-3536.78,0,0
32908.6,81.4517,-3510.25,0,0
33168.9,80.6025,-3483.04,0,0
33429.2,78.9366,-3455.11,0,0
33689.6,78.3426,-3428.63,0,0
33949.9,77.5939,-3402.41,0,0
34210.2,76.0485,-3376.07,0,0
34470.5,75.4348,-3350.03,0,0
34730.9,75.0592,-3324.31,0,0
34991.2,74.5627,-3299.17,0,0
35251.5,73.5588,-3274.4,0,0
35511.8,73.2609,-3249.73,0,0
35772.2,72.9288,-3226.01,0,0
36032.5,72.226,-3202.4,0,0
36292.8,71.6856,-3178.89,0,0
36553.1,71.1264,-3155.88,0,0
36813.5,71.0534,-3132.9,0,0
37073.8,70.5013,-3110.69,0,0
37334.1,70.2419,-3088.68,0,0
37594.4,69.7962,-3067.06,0,0
37854.8,69.8208,-3045.5,0,0
38115.1,69.0584,-3024.85,0,0
38375.4,68.447,-3003.76,0,0
38635.7,68.0216,-2983.24,0,0
38896.1,67.947,-2962.74,0,0
39156.4,67.429,-2942.71,0,0
39416.7,66.8756,-2923.03,0,0
39677,66.5027,-2903.38,0,0
39937.4,66.199,-2883.89,0,0
40197.7,66.068,-2864.96,0,0
40458,65.6453,-2845.89,0,0
40718.3,65.4544,-2827.11,0,0
40978.7,65.3194,-2808.97,0,0
41239,65.042,-2790.93,0,0
41499.3,65.0146,-2773.04,0,0
41759.6,64.3138,-2755.38,0,0
42020,64.7776,-2737.68,0,0
42280.275,64.3927,-2720.95,0,0
42540.6,63.7679,-2704.01,0,0
42800.925,63.5754,-2687.01,0,0
43061.25,63.125,-2670.44,0,0
43321.575,63.133,-2654.02,0,0
43581.9,62.7703,-2637.84,0,0
43842.225,62.5054,-2621.66,0,0
44102.55,62.3422,-2605.7,0,0
44362.875,62.1711,-2590.33,0,0
44623.2,61.5723,-2574.89,0,0
44883.525,61.4079,-2559.09,0,0
45143.85,61.4866,-2543.82,0,0
45404.175,61.1319,-2529.09,0,0
45664.5,60.9127,-2514,0,0
45924.825,61.3864,-2499.16,0,0
46185.15,61.3438,-2485.37,0,0
46445.475,60.4687,-2471.12,0,0
46705.8,60.2091,-2456.78,0,0
46966.125,60.4875,-2442.46,0,0
47226.45,60.459,-2428.46,0,0
47486.775,60.1822,-2414.92,0,0
47747.1,60.1357,-2401.17,0,0
48007.425,60.0715,-2387.52,0,0
48267.75,61.3688,-2374.22,0,0
48528.075,61.2998,-2362.71,0,0
48788.4,60.3822,-2350.28,0,0
49048.725,59.6197,-2337.73,0,0
49309.05,59.1153,-2324.99,0,0
49569.375,58.6242,-2312.11,0,0
49829.7,58.2596,-2299.72,0,0
50090.025,57.782,-2287.39,0,0
50350.35,57.5228,-2274.98,0,0
50610.675,57.3245,-2262.59,0,0
50871.0,57.2407,-2250.69,0,0
51131.325,57.0492,-2239.04,0,0
51391.65,56.665,-2227.4,0,0
51651.975,56.0867,-2215.95,0,0
51912.3,55.605,-2204.12,0,0
52172.625,55.304,-2192.48,0,0
52432.95,54.9868,-2181.02,0,0
52693.275,54.8391,-2169.62,0,0
52953.6,54.4807,-2158.23,0,0
53213.925,54.4734,-2147.07,0,0
53474.25,54.2639,-2136.04,0,0
53734.575,54.0621,-2125.07,0,0
53994.9,53.9574,-2114.08,0,0
54255.225,53.9153,-2103.41,0,0
54515.55,53.9815,-2092.79,0,0
54775.875,53.7369,-2082.37,0,0
55036.2,53.5958,-2071.81,0,0
55296.525,53.5577,-2061.4,0,0
55556.85,53.5813,-2051.15,0,0
55817.175,53.5029,-2041.11,0,0
56077.5,53.4677,-2031.03,0,0
56337.825,53.3668,-2020.96,0,0
56598.15,53.3796,-2011.09,0,0
56858.475,53.5082,-2001.21,0,0
57118.8,53.5189,-1991.59,0,0
57379.125,53.5282,-1981.93,0,0
57639.45,53.667,-1972.39,0,0
57899.775,53.6268,-1963.03,0,0
58160.1,53.6344,-1953.86,0,0
58420.4,53.5938,-1944.44,0,0
58680.7,53.6936,-1935.13,0,0
58941.1,53.8167,-1925.85,0,0
59201.4,54.0746,-1916.76,0,0
59461.7,54.3653,-1907.76,0,0
59722,54.6983,-1898.71,0,0
59982.4,55.2858,-1890.02,0,0
60242.7,55.9127,-1881.89,0,0
60503,55.7388,-1873.57,0,0
60763.3,55.7706,-1865.03,0,0
61023.7,56.086,-1856.17,0,0
61284,57.3966,-1847.9,0,0
61544.3,58.2301,-1840.45,0,0
61804.6,59.006,-1833.54,0,0
62065,58.5015,-1827.05,0,0
62325.3,57.5953,-1819.56,0,0
62585.6,57.4926,-1811.56,0,0
62845.9,57.3354,-1804.91,0,0
63106.3,55.8905,-1797.37,0,0
63366.6,55.7976,-1789.21,0,0
63626.9,55.2246,-1782.2,0,0
63887.2,54.7538,-1774.52,0,0
64147.6,54.013,-1767.32,0,0
64407.9,52.997,-1759.58,0,0
64668.2,52.6667,-1751.82,0,0
64928.5,51.6155,-1744.36,0,0
65188.9,50.8727,-1736.2,0,0
65449.2,50.6196,-1728.12,0,0
65709.5,50.4243,-1720.22,0,0
65969.8,50.4942,-1712.57,0,0
66230.2,50.3922,-1704.64,0,0
66490.5,50.7105,-1697.24,0,0
66750.8,50.4804,-1689.97,0,0
67011.1,50.607,-1682.24,0,0
67271.5,51.1307,-1674.59,0,0
67531.8,51.9365,-1667.32,0,0
67792.1,52.8021,-1660.62,0,0
68052.4,53.1065,-1654.43,0,0
68312.8,52.9913,-1647.53,0,0
68573.1,53.6216,-1640.85,0,0
68833.4,53.9917,-1634.46,0,0
69093.7,54.3227,-1628.2,0,0
69354.1,54.6904,-1621.74,0,0
69614.4,55.4826,-1615.74,0,0
69874.7,55.9168,-1610.5,0,0
70135,55.6957,-1605.53,0,0
70395.4,54.6723,-1600.16,0,0
70655.7,53.7389,-1594.16,0,0
70916,53.3142,-1588.09,0,0
71176.3,52.9137,-1582.57,0,0
71436.7,51.887,-1576.95,0,0
71697,50.6384,-1570.93,0,0
71957.3,49.5096,-1564.66,0,0
72217.6,48.2702,-1558.32,0,0
72478,47.4976,-1551.59,0,0
72738.3,46.5954,-1545.02,0,0
72998.6,46.1991,-1538.21,0,0
73258.9,45.7138,-1531.86,0,0
73519.3,45.0501,-1525.23,0,0
73779.6,44.8074,-1518.35,0,0
74039.9,44.7313,-1511.66,0,0
74300.225,44.7701,-1505.22,0,0
74560.55,44.7991,-1498.85,0,0
74820.875,44.8269,-1492.47,0,0
75081.2,44.9978,-1486.08,0,0
75341.525,45.2595,-1479.86,0,0
75601.85,45.5108,-1473.71,0,0
75862.175,45.8971,-1467.51,0,0
76122.5,46.4039,-1461.59,0,0
76382.825,46.827,-1455.79,0,0
76643.15,47.2057,-1450.01,0,0
76903.475,47.6184,-1444.23,0,0
77163.8,48.1759,-1438.44,0,0
77424.125,48.8981,-1432.87,0,0
77684.45,49.545,-1427.57,0,0
77944.775,50.2019,-1422.17,0,0
78205.1,51.0679,-1417.11,0,0
78465.425,51.7679,-1412.37,0,0
78725.75,52.3393,-1407.65,0,0
78986.075,52.6783,-1403.18,0,0
79246.4,52.8936,-1398.57,0,0
79506.725,53.317,-1394.29,0,0
79767.05,53.1948,-1390.41,0,0
80027.375,52.5095,-1386.21,0,0
80287.7,51.735,-1381.66,0,0
80548.025,50.902,-1376.85,0,0
80808.35,50.2691,-1371.73,0,0
81068.675,49.7277,-1366.72,0,0
81329.0,49.3537,-1361.52,0,0
81589.325,48.9899,-1356.52,0,0
81849.65,48.6166,-1351.46,0,0
82109.975,48.1802,-1346.32,0,0
82370.3,47.9051,-1341.09,0,0
82630.625,47.771,-1335.82,0,0
82890.95,47.747,-1330.64,0,0
83151.275,47.8716,-1325.44,0,0
83411.6,48.113,-1320.43,0,0
83671.925,48.2562,-1315.53,0,0
83932.25,48.4338,-1310.68,0,0
84192.575,48.619,-1305.98,0,0
84452.9,48.6881,-1301.37,0,0
84713.225,48.7138,-1296.65,0,0
84973.55,48.7091,-1291.86,0,0
85233.875,48.824,-1287.02,0,0
85494.2,49.1739,-1282.24,0,0
85754.525,49.503,-1277.79,0,0
86014.85,49.6286,-1273.4,0,0
86275.175,49.7522,-1268.95,0,0
86535.5,49.793,-1264.46,0,0
86795.825,50.1008,-1259.94,0,0
87056.15,50.3332,-1255.67,0,0
87316.475,50.4897,-1251.43,0,0
87576.8,50.5219,-1247.15,0,0
87837.125,50.4995,-1242.97,0,0
88097.45,50.5532,-1238.44,0,0
88357.775,50.9181,-1234.23,0,0
88618.1,50.8386,-1230.26,0,0
88878.425,50.7553,-1225.76,0,0
89138.75,51.0921,-1221.51,0,0
89399.075,51.0114,-1217.52,0,0
89659.4,51.0493,-1213.1,0,0
89919.725,51.4148,-1209,0,0
90180,51.4693,-1205.21,0,0
90440.4,51.0173,-1201.03,0,0
90700.7,50.9032,-1196.36,0,0
90961,51.4013,-1191.88,0,0
91221.3,51.9482,-1187.87,0,0
91481.7,51.9786,-1183.95,0,0
91742,52.1013,-1179.65,0,0
92002.3,52.5853,-1175.29,0,0
92262.6,53.3294,-1171.19,0,0
92523,54.0504,-1167.48,0,0
92783.3,54.5927,-1163.91,0,0
93043.6,54.9876,-1160.54,0,0
93303.9,55.1513,-1156.94,0,0
93564.3,55.6891,-1153.35,0,0
93824.6,56.0799,-1150.3,0,0
94084.9,56.111,-1147.25,0,0
94345.2,55.6466,-1144.12,0,0
94605.6,55.4037,-1140.58,0,0
94865.9,54.9293,-1137.18,0,0
95126.2,54.2622,-1133.38,0,0
95386.5,53.7321,-1129.06,0,0
95646.9,53.9254,-1124.47,0,0
95907.2,54.7261,-1120.31,0,0
96167.5,55.6234,-1116.85,0,0
96427.8,56.0605,-1113.65,0,0
96688.2,56.3907,-1110.29,0,0
96948.5,56.9947,-1107.01,0,0
97208.8,57.5935,-1104.17,0,0
97469.1,57.5652,-1101.64,0,0
97729.5,57.2412,-1098.74,0,0
97989.8,56.9867,-1095.62,0,0
98250.1,56.9359,-1092.58,0,0
98510.4,56.7504,-1089.73,0,0
98770.8,56.3833,-1086.96,0,0
99031.1,55.7501,-1084.22,0,0
99291.4,54.8393,-1081.32,0,0
99551.7,53.609,-1077.93,0,0
99812.1,52.8726,-1074.1,0,0
100072,52.6038,-1070.34,0,0
100333,52.5412,-1067.13,0,0
100593,51.913,-1064.22,0,0
100853,50.8895,-1060.95,0,0
101114,49.8209,-1057.52,0,0
101374,48.5468,-1053.64,0,0
101634,47.7126,-1049.21,0,0
101895,47.4467,-1045.02,0,0
102155,47.0975,-1041.07,0,0
102415,46.787,-1037.11,0,0
102676,46.2483,-1033.22,0,0
102936,45.7873,-1028.91,0,0
103196,45.6213,-1024.51,0,0
103457,45.6196,-1020.12,0,0
103717,45.7776,-1015.73,0,0
103977,46.2735,-1011.39,0,0
104238,46.8633,-1007.29,0,0
104498,47.5746,-1003.23,0,0
104758,48.3122,-999.425,0,0
105019,49.1392,-995.747,0,0
105279,49.8387,-992.145,0,0
105539,50.6099,-988.514,0,0
105800,51.5403,-984.942,0,0
106060,52.6975,-981.586,0,0
106320.175,53.8747,-978.531,0,0
106580.5,54.8653,-975.755,0,0
106840.825,55.9464,-973.046,0,0
107101.15,56.9056,-970.886,0,0
107361.475,57.4317,-968.988,0,0
107621.8,57.338,-966.951,0,0
107882.125,57.1748,-964.522,0,0
108142.45,57.1434,-962.128,0,0
108402.775,56.9325,-959.757,0,0
108663.1,56.441,-957.513,0,0
108923.425,55.6797,-954.955,0,0
109183.75,54.9161,-951.986,0,0
109444.075,54.4283,-949.034,0,0
109704.4,53.69,-946.134,0,0
109964.725,52.8794,-942.901,0,0
110225.05,52.202,-939.417,0,0
110485.375,51.733,-935.873,0,0
110745.7,51.4572,-932.33,0,0
111006.025,51.1872,-928.744,0,0
111266.35,50.9877,-925.263,0,0
111526.675,50.9839,-921.545,0,0
111787.0,50.9265,-918.031,0,0
112047.325,51.0329,-914.627,0,0
112307.65,50.9856,-911.138,0,0
112567.975,51.1263,-907.637,0,0
112828.3,51.2094,-904.171,0,0
113088.625,51.3503,-900.573,0,0
113348.95,51.6102,-897.114,0,0
113609.275,51.907,-893.677,0,0
113869.6,52.1952,-890.21,0,0
114129.925,52.5314,-886.75,0,0
114390.25,52.9823,-883.255,0,0
114650.575,53.5253,-879.872,0,0
114910.9,54.1255,-876.576,0,0
115171.225,54.7451,-873.406,0,0
115431.55,55.2186,-870.316,0,0
115691.875,55.6559,-867.102,0,0
115952.2,56.2071,-863.858,0,0
116212.525,56.8086,-860.635,0,0
116472.85,57.4569,-857.453,0,0
116733.175,58.2006,-854.372,0,0
116993.5,58.9388,-851.381,0,0
117253.825,59.6618,-848.358,0,0
117514.15,60.5063,-845.463,0,0
117774.475,61.2648,-842.695,0,0
118034.8,61.9054,-839.937,0,0
118295.125,62.6347,-837.082,0,0
118555.45,63.4116,-834.234,0,0
118815.775,64.3837,-831.542,0,0
119076.1,65.2676,-829.103,0,0
119336.425,66.001,-826.62,0,0
119596.75,66.8268,-824.222,0,0
119857.075,67.5915,-822.016,0,0
120117.4,68.2178,-819.876,0,0
120377.725,68.7782,-817.77,0,0
120638.05,69.183,-815.907,0,0
120898.375,69.2113,-813.962,0,0
121158.7,69.1731,-811.694,0,0
121419.025,69.2522,-809.419,0,0
121679.35,69.2303,-807.184,0,0
121939.675,69.0608,-804.792,0,0
122200.0,68.8923,-802.285,0,0
122460,68.7739,-799.647,0,0
122721,68.7383,-796.983,0,0
122981,68.7962,-794.271,0,0
123241,68.9089,-791.6,0,0
123502,69.0022,-789.003,0,0
123762,69.0516,-786.369,0,0
124022,69.1173,-783.74,0,0
124283,69.1266,-781.088,0,0
124543,69.1306,-778.44,0,0
124803,69.0781,-775.741,0,0
125064,69.0594,-772.924,0,0
125324,68.9963,-770.099,0,0
125584,69.0259,-767.146,0,0
125845,69.1426,-764.195,0,0
126105,69.2216,-761.241,0,0
126365,69.3203,-758.183,0,0
126626,69.5784,-755.04,0,0
126886,69.9344,-751.929,0,0
127146,70.379,-748.842,0,0
127406,70.9365,-745.804,0,0
127667,71.4765,-742.784,0,0
127927,72.057,-739.968,0,0
128187,72.6662,-737.072,0,0
128448,73.3292,-734.138,0,0
128708,74.0489,-731.343,0,0
128968,74.7678,-728.604,0,0
129229,75.5161,-725.925,0,0
129489,76.214,-723.263,0,0
129749,76.8963,-720.608,0,0
130010,77.6904,-717.926,0,0
130270,78.5561,-715.36,0,0
130530,79.4664,-712.938,0,0
130791,80.305,-710.728,0,0
131051,80.9371,-708.592,0,0
131311,81.4672,-706.424,0,0
131572,81.8778,-704.199,0,0
131832,82.3029,-701.995,0,0
132092,82.6412,-699.792,0,0
132353,82.8431,-697.52,0,0
132613,83.0723,-695.136,0,0
132873,83.2879,-692.697,0,0
133134,83.5378,-690.212,0,0
133394,83.8519,-687.787,0,0
133654,84.0983,-685.388,0,0
133915,84.2766,-682.98,0,0
134175,84.3661,-680.527,0,0
134435,84.3846,-677.982,0,0
134696,84.3821,-675.323,0,0
134956,84.4076,-672.487,0,0
135216,84.5797,-669.62,0,0
135477,84.8196,-666.729,0,0
135737,85.0647,-663.874,0,0
135997,85.354,-660.914,0,0
136258,85.7543,-658,0,0
136518,86.0858,-655.109,0,0
136778,86.4137,-652.131,0,0
137039,86.8212,-649.09,0,0
137299,87.4052,-646.09,0,0
137559,87.9604,-643.205,0,0
137819,88.5092,-640.322,0,0
138080,88.9694,-637.531,0,0
138340.125,89.3191,-634.686,0,0
138600.45,89.6058,-631.672,0,0
138860.775,89.9645,-628.577,0,0
139121.1,90.3523,-625.392,0,0
139381.425,90.7887,-622.186,0,0
139641.75,91.1507,-618.913,0,0
139902.075,91.5998,-615.419,0,0
140162.4,92.1415,-611.837,0,0
140422.725,92.7951,-608.178,0,0
140683.05,93.6223,-604.356,0,0
140943.375,94.7076,-600.515,0,0
141203.7,95.9818,-596.701,0,0
141464.025,97.4757,-592.94,0,0
141724.35,99.1783,-589.332,0,0
141984.675,101.038,-585.984,0,0
142245.0,102.787,-582.932,0,0
142505.325,104.33,-579.939,0,0
142765.65,105.796,-576.834,0,0
143025.975,107.228,-573.677,0,0
143286.3,108.712,-570.393,0,0
143546.625,110.373,-567.072,0,0
143806.95,112.151,-563.849,0,0
144067.275,113.882,-560.703,0,0
144327.6,115.569,-557.492,0,0
144587.925,117.34,-554.138,0,0
144848.25,119.346,-550.787,0,0
145108.575,121.414,-547.573,0,0
145368.9,123.549,-544.389,0,0
145629.225,125.657,-541.314,0,0
145889.55,127.671,-538.158,0,0
146149.875,129.78,-534.886,0,0
146410.2,131.995,-531.528,0,0
146670.525,134.354,-528.085,0,0
146930.85,136.932,-524.627,0,0
147191.175,139.661,-521.209,0,0
147451.5,142.557,-517.813,0,0
147711.825,145.572,-514.441,0,0
147972.15,148.753,-511.004,0,0
148232.475,152.211,-507.531,0,0
148492.8,156.001,-504.126,0,0
148753.125,160.099,-500.785,0,0
149013.45,164.689,-497.621,0,0
149273.775,169.631,-494.896,0,0
149534.1,174.773,-492.624,0,0
149794.425,179.935,-490.783,0,0
150054.75,185.175,-489.068,0,0
150315.075,190.855,-487.679,0,0
150575.4,196.796,-487.113,0,0
150835.725,202.436,-487.235,0,0
151096.05,207.926,-487.754,0,0
151356.375,213.237,-488.815,0,0
151616.7,218.32,-490.394,0,0
151877.025,223.016,-492.563,0,0
152137.35,226.99,-495.187,0,0
152397.675,230.365,-497.859,0,0
152658.0,233.242,-500.549,0,0
152918.325,235.79,-503.246,0,0
153178.65,237.958,-506.141,0,0
153438.975,239.405,-509.058,0,0
153699.3,240.376,-511.659,0,0
153959.625,241.013,-514.007,0,0
154219.95,241.312,-516.051,0,0
154480,241.38,-517.66,0,0
154741,241.552,-519.026,0,0
155001,241.712,-520.077,0,0
155261,241.925,-520.924,0,0
155522,242.41,-522.053,0,0
155782,242.619,-523.264,0,0
156042,242.464,-524.426,0,0
156303,242.203,-525.499,0,0
156563,241.862,-526.401,0,0
156823,241.312,-527.137,0,0
157084,240.722,-527.715,0,0
157344,239.907,-528.377,0,0
157604,238.858,-528.575,0,0
157864,237.977,-528.433,0,0
158125,237.076,-528.423,0,0
158385,235.972,-527.928,0,0
158645,234.887,-527.171,0,0
158906,233.85,-526.194,0,0
159166,233.035,-524.864,0,0
159426,232.44,-523.208,0,0
159687,232.413,-521.447,0,0
159947,232.709,-519.763,0,0
160207,233.48,-518.517,0,0
160468,233.585,-517.44,0,0
160728,234.142,-515.627,0,0
160988,235.396,-513.98,0,0
161249,237.01,-512.777,0,0
161509,238.998,-512.085,0,0
161769,241.364,-511.849,0,0
162030,243.955,-513.064,0,0
162290,245.318,-515.594,0,0
162550,245.538,-518.095,0,0
162811,244.897,-520.647,0,0
163071,242.993,-522.922,0,0
163331,240.502,-524.061,0,0
163592,238.002,-524.511,0,0
163852,235.77,-524.774,0,0
164112,233.472,-524.769,0,0
164373,230.675,-524.807,0,0
164633,227.704,-524.411,0,0
164893,224.35,-523.65,0,0
165154,220.649,-522.105,0,0
165414,217.333,-519.485,0,0
165674,214.797,-516.59,0,0
165935,212.675,-513.578,0,0
166195,210.916,-510.754,0,0
166455,209.11,-508.077,0,0
166716,207.002,-505.258,0,0
166976,205.015,-502.045,0,0
167236,203.061,-498.885,0,0
167497,201.06,-495.411,0,0
167757,199.001,-491.293,0,0
168017,197.481,-486.616,0,0
168277,196.669,-481.875,0,0
168538,196.4,-477.431,0,0
168798,196.132,-473.207,0,0
169058,195.731,-469.036,0,0
169319,195.455,-464.625,0,0
169579,195.412,-460.117,0,0
169839,195.609,-455.585,0,0
170100,196.187,-451.019,0,0
170360.075,196.721,-446.866,0,0
170620.4,197.145,-442.555,0,0
170880.725,197.489,-438.021,0,0
171141.05,198.225,-433.069,0,0
171401.375,199.263,-428.349,0,0
171661.7,200.577,-423.489,0,0
171922.025,202.223,-418.917,0,0
172182.35,203.645,-414.446,0,0
172442.675,205.276,-409.549,0,0
172703.0,207.541,-404.942,0,0
172963.325,209.667,-400.848,0,0
173223.65,211.459,-396.772,0,0
173483.975,213.222,-392.251,0,0
173744.3,215.281,-387.467,0,0
174004.625,217.57,-382.79,0,0
174264.95,219.923,-377.919,0,0
174525.275,222.687,-372.762,0,0
174785.6,226.099,-367.643,0,0
175045.925,229.89,-362.888,0,0
175306.25,233.914,-358.448,0,0
175566.575,238.113,-354.31,0,0
175826.9,242.112,-350.327,0,0
176087.225,246.331,-346.144,0,0
176347.55,251.258,-341.977,0,0
176607.875,256.518,-338.392,0,0
176868.2,262.045,-335.203,0,0
177128.525,267.768,-332.698,0,0
177388.85,273.367,-331.051,0,0
177649.175,278.29,-329.789,0,0
177909.5,282.786,-328.419,0,0
178169.825,287.411,-326.802,0,0
178430.15,292.575,-325.53,0,0
178690.475,297.661,-325.214,0,0
178950.8,302.002,-325.558,0,0
179211.125,305.701,-326.208,0,0
179471.45,308.378,-327.038,0,0
179731.775,309.935,-327.463,0,0
179992.1,312.224,-325.282,0,0
180252.425,314.217,-324.309,0,0
180512.75,315.937,-323.48,0,0
180773.075,317.167,-322.377,0,0
181033.4,318.192,-320.589,0,0
181293.725,319.067,-318.097,0,0
181554.05,320.373,-314.812,0,0
181814.375,322.227,-311.329,0,0
182074.7,324.528,-307.803,0,0
182335.025,326.855,-304.222,0,0
182595.35,329.196,-300.535,0,0
182855.675,331.598,-296.373,0,0
183116.0,334.554,-291.634,0,0
183376.325,338.114,-286.772,0,0
183636.65,342.135,-281.908,0,0
183896.975,346.717,-276.937,0,0
184157.3,352,-272.005,0,0
184417.625,357.984,-267.657,0,0
184677.95,364.029,-263.837,0,0
184938.275,370.146,-260.447,0,0
185198.6,376.206,-257.383,0,0
185458.925,382.047,-254.213,0,0
185719.25,388.149,-250.889,0,0
185979.575,394.674,-247.821,0,0
186239.9,400.969,-245.041,0,0
186500,407.049,-242.134,0,0
186761,413.374,-238.517,0,0
187021,420.901,-234.69,0,0
187281,429.462,-231.68,0,0
187542,437.987,-229.942,0,0
187802,446.016,-228.565,0,0
188062,453.866,-227.381,0,0
188322,461.565,-226.325,0,0
188583,469.052,-225.563,0,0
188843,476.191,-224.698,0,0
189103,482.885,-223.504,0,0
189364,489.784,-221.628,0,0
189624,497.226,-219.302,0,0
189884,505.299,-216.586,0,0
190145,514.223,-214.072,0,0
190405,523.74,-211.847,0,0
190665,533.52,-209.916,0,0
190926,543.883,-208.052,0,0
191186,555.102,-206.378,0,0
191446,566.841,-205.649,0,0
191707,578.485,-205.462,0,0
191967,590.545,-205.219,0,0
192227,603.379,-205.368,0,0
192488,616.868,-206.263,0,0
192748,630.931,-207.962,0,0
193008,645.467,-210.773,0,0
193269,660.103,-214.855,0,0
193529,674.505,-220.016,0,0
193789,688.643,-226.125,0,0
194050,702.313,-233.022,0,0
194310,715.66,-240.529,0,0
194570,728.943,-248.545,0,0
194831,742.1,-257.673,0,0
195091,754.514,-267.879,0,0
195351,765.654,-278.631,0,0
195612,776.006,-289.029,0,0
195872,786.433,-299.22,0,0
196132,797.14,-309.787,0,0
196393,807.77,-321.181,0,0
196653,818.052,-333.262,0,0
196913,827.963,-345.942,0,0
197174,837.387,-359.263,0,0
197434,846.424,-373.227,0,0
197694,854.855,-387.941,0,0
197955,862.378,-403.149,0,0
198215,869.123,-418.674,0,0
198475,875.177,-434.474,0,0
198735,880.701,-450.444,0,0
198996,885.634,-467.082,0,0
199256,889.522,-484,0,0
199516,892.658,-501.073,0,0
199777,894.687,-518.367,0,0
200037,896.044,-535.428,0,0
200297,896.954,-552.4,0,0
200558,897.238,-569.848,0,0
200818,896.613,-587.775,0,0
201078,894.537,-605.831,0,0
201339,891.273,-623.575,0,0
201599,886.8,-640.93,0,0
201859,881.283,-657.659,0,0
202120,874.885,-673.529,0,0
202380.025,868.247,-688.508,0,0
202640.35,860.977,-703.367,0,0
202900.675,852.779,-717.717,0,0
203161.0,843.66,-731.079,0,0
203421.325,834.241,-743.033,0,0
203681.65,824.91,-753.951,0,0
203941.975,816.127,-764.078,0,0
204202.3,807.977,-774.05,0,0
204462.625,799.974,-784.672,0,0
204722.95,791.217,-795.768,0,0
204983.275,781.242,-806.65,0,0
205243.6,770.171,-816.506,0,0
205503.925,758.727,-825.319,0,0
205764.25,747.106,-832.933,0,0
206024.575,735.694,-839.634,0,0
206284.9,724.381,-845.774,0,0
206545.225,713.068,-851.332,0,0
206805.55,701.727,-856.135,0,0
207065.875,690.467,-860.219,0,0
207326.2,679.497,-863.463,0,0
207586.525,668.853,-865.76,0,0
207846.85,659.247,-867.097,0,0
208107.175,650.823,-868.443,0,0
208367.5,643.114,-870.349,0,0
208627.825,635.491,-872.336,0,0
208888.15,628.455,-874.418,0,0
209148.475,621.874,-877.167,0,0
209408.8,614.975,-880.804,0,0
209669.125,607.197,-884.717,0,0
209929.45,598.73,-888.095,0,0
210189.775,590.321,-891.157,0,0
210450.1,581.698,-894.171,0,0
210710.425,572.526,-897.049,0,0
210970.75,562.858,-899.499,0,0
211231.075,552.904,-901.301,0,0
211491.4,542.589,-902.33,0,0
211751.725,532.367,-902.331,0,0
212012.05,522.508,-901.393,0,0
212272.375,513.524,-899.967,0,0
212532.7,505.043,-898.453,0,0
212793.025,496.727,-896.828,0,0
213053.35,488.616,-894.78,0,0
213313.675,480.926,-892.419,0,0
213574.0,473.733,-889.872,0,0
213834.325,467.037,-887.247,0,0
214094.65,460.61,-884.802,0,0
214354.975,454.337,-882.364,0,0
214615.3,448.197,-879.852,0,0
214875.625,442.197,-877.224,0,0
215135.95,436.375,-874.445,0,0
215396.275,430.605,-871.495,0,0
215656.6,425.183,-868.328,0,0
215916.925,420.099,-864.974,0,0
216177.25,415.347,-861.595,0,0
216437.575,410.976,-858.235,0,0
216697.9,406.819,-854.872,0,0
216958.225,403.006,-851.626,0,0
217218.55,399.353,-848.354,0,0
217478.875,395.973,-845.194,0,0
217739.2,392.767,-842.16,0,0
217999.525,389.628,-839.185,0,0
218259.85,386.661,-836.216,0,0
218520,383.888,-833.298,0,0
218780,381.331,-830.428,0,0
219041,378.835,-827.719,0,0
219301,376.469,-824.982,0,0
219561,374.237,-822.363,0,0
219822,372.103,-819.783,0,0
220082,369.939,-817.283,0,0
220342,367.832,-814.621,0,0
220603,365.999,-811.803,0,0
220863,364.559,-809.056,0,0
221123,363.447,-806.447,0,0
221384,362.494,-804.133,0,0
221644,361.588,-802.051,0,0
221904,360.828,-800.092,0,0
222165,360.2,-798.381,0,0
222425,359.548,-796.91,0,0
222685,358.948,-795.628,0,0
222946,358.14,-794.562,0,0
223206,357.283,-793.598,0,0
223466,356.206,-792.517,0,0
223727,355.259,-791.338,0,0
223987,354.37,-790.205,0,0
224247,353.674,-789.146,0,0
224508,353.074,-788.201,0,0
224768,352.495,-787.5,0,0
225028,351.728,-786.736,0,0
225289,351.032,-786.181,0,0
225549,350.371,-785.437,0,0
225809,349.84,-784.809,0,0
226070,349.353,-784.273,0,0
226330,348.93,-783.888,0,0
226590,348.553,-783.616,0,0
226851,348.226,-783.445,0,0
227111,348.005,-783.334,0,0
227371,347.854,-783.452,0,0
227632,347.88,-783.815,0,0
227892,347.886,-784.567,0,0
228152,347.681,-785.716,0,0
228413,347.148,-787.097,0,0
228673,346.415,-788.584,0,0
228933,345.376,-790.251,0,0
229193,344.043,-791.932,0,0
229454,342.36,-793.46,0,0
229714,340.66,-795.059,0,0
229974,338.735,-796.425,0,0
230235,336.663,-797.863,0,0
230495,334.453,-799.277,0,0
230755,332.084,-800.593,0,0
231016,329.646,-801.79,0,0
231276,327.219,-802.918,0,0
231536,324.58,-804.138,0,0
231797,321.809,-805.293,0,0
232057,318.877,-806.365,0,0
232317,315.808,-807.32,0,0
232578,312.636,-808.109,0,0
232838,309.397,-808.778,0,0
233098,306.1,-809.302,0,0
233359,302.703,-809.75,0,0
233619,299.285,-809.987,0,0
233879,295.943,-810.089,0,0
234140,292.511,-810.06,0,0
234400,289.152,-809.94,0,0
234660.3,285.813,-809.848,0,0
234920.625,282.417,-809.556,0,0
235180.95,279.053,-809.236,0,0
235441.275,275.723,-808.826,0,0
235701.6,272.326,-808.241,0,0
235961.925,269.022,-807.652,0,0
236222.25,265.674,-807.031,0,0
236482.575,262.352,-806.304,0,0
236742.9,258.966,-805.435,0,0
237003.225,255.581,-804.541,0,0
237263.55,252.205,-803.406,0,0
237523.875,248.919,-802.192,0,0
237784.2,245.742,-800.86,0,0
238044.525,242.688,-799.451,0,0
238304.85,239.739,-798.07,0,0
238565.175,236.831,-796.744,0,0
238825.5,233.847,-795.389,0,0
239085.825,230.91,-793.963,0,0
239346.15,227.829,-792.435,0,0
239606.475,224.857,-790.817,0,0
239866.8,222.02,-789.034,0,0
240127.125,219.213,-787.202,0,0
240387.45,216.387,-785.283,0,0
240647.775,213.79,-783.324,0,0
240908.1,211.135,-781.293,0,0
241168.425,208.647,-779.145,0,0
241428.75,206.302,-776.918,0,0
241689.075,204.168,-774.633,0,0
241949.4,202.111,-772.435,0,0
242209.725,200.183,-770.216,0,0
242470.05,198.406,-768.042,0,0
242730.375,196.763,-765.932,0,0
242990.7,195.197,-763.895,0,0
243251.025,193.713,-761.898,0,0
243511.35,192.331,-760.042,0,0
243771.675,191.057,-758.291,0,0
244032.0,189.811,-756.709,0,0
244292.325,188.515,-755.256,0,0
244552.65,187.232,-753.828,0,0
244812.975,185.811,-752.593,0,0
245073.3,184.533,-751.472,0,0
245333.625,183.101,-750.428,0,0
245593.95,181.561,-749.594,0,0
245854.275,179.91,-748.854,0,0
246114.6,177.98,-748.288,0,0
246374.925,175.683,-747.68,0,0
246635.25,173.015,-746.842,0,0
246895.575,170.222,-745.757,0,0
247155.9,167.375,-744.401,0,0
247416.225,164.558,-742.79,0,0
247676.55,161.779,-741.037,0,0
247936.875,158.962,-739.112,0,0
248197.2,156.252,-737.092,0,0
248457.525,153.537,-734.951,0,0
248717.85,150.844,-732.683,0,0
248978.175,148.198,-730.221,0,0
249238.5,145.601,-727.631,0,0
249498.825,143.082,-724.912,0,0
249759.15,140.597,-722.033,0,0
250019.475,138.259,-718.904,0,0
250279.8,136.09,-715.793,0,0
250540,134.009,-712.55,0,0
250800,132.081,-709.171,0,0
251061,130.303,-705.721,0,0
251321,128.674,-702.191,0,0
251581,127.305,-698.556,0,0
251842,126.082,-694.896,0,0
252102,125.116,-691.282,0,0
252362,124.371,-687.738,0,0
252623,123.774,-684.274,0,0
252883,123.204,-680.976,0,0
253143,122.708,-677.672,0,0
253404,122.285,-674.438,0,0
253664,121.931,-671.192,0,0
253924,121.651,-668.037,0,0
254185,121.395,-664.888,0,0
254445,121.24,-661.7,0,0
254705,121.125,-658.512,0,0
254966,121.081,-655.334,0,0
255226,121.207,-652.143,0,0
255486,121.417,-649.032,0,0
255747,121.776,-645.911,0,0
256007,122.209,-642.888,0,0
256267,122.725,-639.871,0,0
256528,123.342,-636.906,0,0
256788,124.11,-634.051,0,0
257048,124.951,-631.261,0,0
257309,125.851,-628.576,0,0
257569,126.805,-625.987,0,0
257829,127.818,-623.47,0,0
258090,128.844,-621.04,0,0
258350,129.922,-618.651,0,0
258610,131.056,-616.336,0,0
258871,132.24,-614.059,0,0
259131,133.502,-611.852,0,0
259391,134.804,-609.721,0,0
259651,136.189,-607.712,0,0
259912,137.634,-605.75,0,0
260172,139.09,-603.914,0,0
260432,140.556,-602.192,0,0
260693,142.07,-600.542,0,0
260953,143.632,-598.966,0,0
261213,145.223,-597.506,0,0
261474,146.816,-596.201,0,0
261734,148.372,-594.998,0,0
261994,149.917,-593.873,0,0
262255,151.449,-592.828,0,0
262515,152.943,-591.849,0,0
262775,154.402,-590.968,0,0
263036,155.855,-590.081,0,0
263296,157.311,-589.352,0,0
263556,158.761,-588.688,0,0
263817,160.142,-588.063,0,0
264077,161.506,-587.486,0,0
264337,162.911,-586.959,0,0
264598,164.28,-586.517,0,0
264858,165.686,-586.251,0,0
265118,167.023,-586.116,0,0
265379,168.286,-586.056,0,0
265639,169.333,-586.036,0,0
265899,170.288,-586.042,0,0
266160,171.209,-586.027,0,0
266420,172.079,-586.054,0,0
266680.25,172.875,-586.019,0,0
266940.575,173.678,-586.03,0,0
267200.9,174.471,-586.036,0,0
267461.225,175.246,-586.162,0,0
267721.55,175.959,-586.336,0,0
267981.875,176.582,-586.554,0,0
268242.2,177.124,-586.882,0,0
268502.525,177.452,-587.273,0,0
268762.85,177.598,-587.63,0,0
269023.175,177.54,-587.841,0,0
269283.5,177.352,-587.837,0,0
269543.825,177.14,-587.648,0,0
269804.15,176.966,-587.268,0,0
270064.475,176.953,-586.772,0,0
270324.8,176.945,-586.185,0,0
270585.125,177.061,-585.568,0,0
270845.45,177.185,-584.922,0,0
271105.775,177.355,-584.201,0,0
271366.1,177.634,-583.406,0,0
271626.425,177.94,-582.538,0,0
271886.75,178.351,-581.523,0,0
272147.075,178.929,-580.491,0,0
272407.4,179.706,-579.357,0,0
272667.725,180.699,-578.229,0,0
272928.05,181.889,-577.132,0,0
273188.375,183.349,-576.071,0,0
273448.7,185.062,-575.148,0,0
273709.025,187.014,-574.423,0,0
273969.35,189.154,-573.897,0,0
274229.675,191.455,-573.634,0,0
274490.0,193.932,-573.652,0,0
274750.325,196.465,-573.999,0,0
275010.65,199.166,-574.64,0,0
275270.975,201.944,-575.725,0,0
275531.3,204.697,-577.317,0,0
275791.625,207.314,-579.453,0,0
276051.95,209.573,-582.057,0,0
276312.275,211.416,-585.058,0,0
276572.6,212.77,-588.321,0,0
276832.925,213.629,-591.728,0,0
277093.25,214.005,-595.14,0,0
277353.575,213.948,-598.492,0,0
277613.9,213.527,-601.788,0,0
277874.225,212.757,-604.953,0,0
278134.55,211.64,-607.984,0,0
278394.875,210.241,-610.791,0,0
278655.2,208.654,-613.323,0,0
278915.525,206.952,-615.65,0,0
279175.85,205.136,-617.873,0,0
279436.175,203.232,-619.879,0,0
279696.5,201.149,-621.755,0,0
279956.825,198.9,-623.44,0,0
280217.15,196.724,-624.861,0,0
280477.475,194.585,-626.112,0,0
280737.8,192.459,-627.299,0,0
280998.125,190.371,-628.451,0,0
281258.45,188.211,-629.637,0,0
281518.775,185.982,-630.782,0,0
281779.1,183.587,-631.906,0,0
282039.425,181.005,-632.967,0,0
282299.75,178.257,-633.855,0,0
282560,175.336,-634.557,0,0
282820,172.303,-635.032,0,0
283081,169.15,-635.197,0,0
283341,166.007,-635.04,0,0
283601,162.969,-634.529,0,0
283862,160.17,-633.802,0,0
284122,157.633,-632.987,0,0
284382,155.265,-632.23,0,0
284643,152.924,-631.549,0,0
284903,150.502,-630.949,0,0
285163,147.956,-630.241,0,0
285424,145.308,-629.459,0,0
285684,142.592,-628.477,0,0
285944,139.813,-627.326,0,0
286205,136.99,-625.979,0,0
286465,134.134,-624.373,0,0
286725,131.292,-622.469,0,0
286986,128.529,-620.269,0,0
287246,125.859,-617.746,0,0
287506,123.376,-614.917,0,0
287767,121.114,-611.778,0,0
288027,119.162,-608.307,0,0
288287,117.561,-604.579,0,0
288548,116.45,-600.633,0,0
288808,115.861,-596.586,0,0
289068,115.814,-592.554,0,0
289329,116.277,-588.675,0,0
289589,117.164,-585.024,0,0
289849,118.413,-581.675,0,0
290109,119.824,-578.584,0,0
290370,121.496,-575.632,0,0
290630,123.493,-572.882,0,0
290890,125.851,-570.444,0,0
291151,128.465,-568.384,0,0
291411,131.308,-566.715,0,0
291671,134.336,-565.516,0,0
291932,137.518,-564.856,0,0
292192,140.734,-564.804,0,0
292452,143.815,-565.414,0,0
292713,146.589,-566.735,0,0
292973,148.789,-568.588,0,0
293233,150.281,-570.761,0,0
293494,151.06,-572.944,0,0
293754,151.233,-575.024,0,0
294014,150.906,-576.786,0,0
294275,150.205,-578.171,0,0
294535,149.307,-579.05,0,0
294795,148.396,-579.442,0,0
295056,147.656,-579.425,0,0
295316,147.242,-579.037,0,0
295576,147.298,-578.498,0,0
295837,147.927,-577.972,0,0
296097,149.157,-577.813,0,0
296357,150.735,-578.346,0,0
296618,152.287,-579.68,0,0
296878,153.415,-581.74,0,0
297138,153.907,-584.248,0,0
297399,153.669,-586.953,0,0
297659,152.754,-589.512,0,0
297919,151.327,-591.795,0,0
298180,149.557,-593.678,0,0
298440,147.616,-595.227,0,0
298700.2,145.54,-596.481,0,0
298960.525,143.395,-597.456,0,0
299220.85,141.212,-598.19,0,0
299481.175,139.014,-598.656,0,0
299741.5,136.802,-598.928,0,0
300001.825,134.662,-598.926,0,0
300262.15,132.635,-598.73,0,0
300522.475,130.734,-598.371,0,0
300782.8,128.966,-597.897,0,0
301043.125,127.327,-597.363,0,0
301303.45,125.836,-596.744,0,0
301563.775,124.499,-596.106,0,0
301824.1,123.288,-595.469,0,0
302084.425,122.218,-594.91,0,0
302344.75,121.226,-594.435,0,0
302605.075,120.286,-594.064,0,0
302865.4,119.358,-593.799,0,0
303125.725,118.353,-593.615,0,0
303386.05,117.304,-593.472,0,0
303646.375,116.216,-593.344,0,0
303906.7,115.093,-593.25,0,0
304167.025,113.898,-593.174,0,0
304427.35,112.623,-593.14,0,0
304687.675,111.256,-593.087,0,0
304948.0,109.757,-593,0,0
305208.325,108.186,-592.829,0,0
305468.65,106.535,-592.529,0,0
305728.975,104.871,-592.143,0,0
305989.3,103.211,-591.627,0,0
306249.625,101.568,-591.06,0,0
306509.95,99.9345,-590.396,0,0
306770.275,98.3128,-589.669,0,0
307030.6,96.7529,-588.867,0,0
307290.925,95.2341,-588.029,0,0
307551.25,93.7357,-587.148,0,0
307811.575,92.2575,-586.25,0,0
308071.9,90.7746,-585.312,0,0
308332.225,89.2871,-584.322,0,0
308592.55,87.8257,-583.237,0,0
308852.875,86.4194,-582.078,0,0
309113.2,85.0825,-580.868,0,0
309373.525,83.8305,-579.658,0,0
309633.85,82.6163,-578.433,0,0
309894.175,81.4303,-577.219,0,0
310154.5,80.2792,-575.96,0,0
310414.825,79.1416,-574.677,0,0
310675.15,78.0486,-573.365,0,0
310935.475,77.026,-572.02,0,0
311195.8,76.0605,-570.676,0,0
311456.125,75.1276,-569.343,0,0
311716.45,74.2212,-568.002,0,0
311976.775,73.3676,-566.664,0,0
312237.1,72.5224,-565.333,0,0
312497.425,71.7293,-564.007,0,0
312757.75,70.9476,-562.655,0,0
313018.075,70.2056,-561.328,0,0
313278.4,69.483,-559.99,0,0
313538.725,68.8039,-558.639,0,0
313799.05,68.145,-557.302,0,0
314059.375,67.5277,-555.947,0,0
314319.7,66.9369,-554.643,0,0
314580,66.368,-553.292,0,0
314840,65.8041,-552.033,0,0
315101,65.2308,-550.672,0,0
315361,64.7769,-549.433,0,0
315621,64.2807,-548.129,0,0
315882,63.8142,-546.808,0,0
316142,63.3574,-545.568,0,0
316402,62.8929,-544.303,0,0
316663,62.4157,-543.028,0,0
316923,62.0782,-541.703,0,0
317183,61.6712,-540.439,0,0
317444,61.29,-539.184,0,0
317704,61.0167,-537.912,0,0
317964,60.7179,-536.582,0,0
318225,60.452,-535.377,0,0
318485,60.1916,-534.227,0,0
318745,59.9278,-533.017,0,0
319006,59.7799,-531.86,0,0
319266,59.5201,-530.707,0,0
319526,59.222,-529.527,0,0
319787,58.9898,-528.411,0,0
320047,58.7566,-527.267,0,0
320307,58.5028,-526.211,0,0
320567,58.2367,-524.954,0,0
320828,58.0248,-523.876,0,0
321088,57.7595,-522.704,0,0
321348,57.5782,-521.566,0,0
321609,57.3711,-520.419,0,0
321869,57.1479,-519.255,0,0
322129,56.8884,-518.069,0,0
322390,56.7263,-516.85,0,0
322650,56.6049,-515.742,0,0
322910,56.3903,-514.502,0,0
323171,56.2301,-513.333,0,0
323431,56.1394,-512.017,0,0
323691,55.9531,-510.81,0,0
323952,55.8814,-509.471,0,0
324212,55.848,-508.138,0,0
324472,55.8796,-506.857,0,0
324733,55.9135,-505.431,0,0
324993,56.0504,-504.073,0,0
325253,56.2747,-502.708,0,0
325514,56.5775,-501.35,0,0
325774,57.0475,-499.928,0,0
326034,57.5559,-498.694,0,0
326295,58.1464,-497.535,0,0
326555,58.82,-496.433,0,0
326815,59.4948,-495.594,0,0
327076,60.2313,-494.79,0,0
327336,60.7893,-494.119,0,0
327596,61.4387,-493.489,0,0
327857,61.8782,-492.944,0,0
328117,62.3542,-492.396,0,0
328377,62.7753,-491.814,0,0
328638,63.1614,-491.288,0,0
328898,63.6297,-490.76,0,0
329158,63.9918,-490.23,0,0
329419,64.4342,-489.835,0,0
329679,64.8252,-489.406,0,0
329939,65.2429,-489.04,0,0
330200,65.5719,-488.703,0,0
330460,65.9501,-488.464,0,0
330720.15,66.2676,-488.242,0,0
330980.475,66.5798,-488.081,0,0
331240.8,66.7998,-487.965,0,0
331501.125,67.0131,-487.926,0,0
331761.45,67.1042,-487.905,0,0
332021.775,67.0978,-487.944,0,0
332282.1,67.0419,-487.967,0,0
332542.425,66.8089,-487.997,0,0
332802.75,66.5684,-487.954,0,0
333063.075,66.248,-487.96,0,0
333323.4,65.8084,-487.844,0,0
333583.725,65.3497,-487.607,0,0
333844.05,64.8263,-487.365,0,0
334104.375,64.3119,-487.038,0,0
334364.7,63.8523,-486.61,0,0
334625.025,63.298,-486.182,0,0
334885.35,62.8343,-485.669,0,0
335145.675,62.362,-485.175,0,0
335406.0,61.9763,-484.618,0,0
335666.325,61.4609,-484.038,0,0
335926.65,61.0385,-483.482,0,0
336186.975,60.5559,-482.888,0,0
336447.3,60.1339,-482.192,0,0
336707.625,59.7237,-481.494,0,0
336967.95,59.2799,-480.819,0,0
337228.275,58.9056,-480.126,0,0
337488.6,58.5277,-479.379,0,0
337748.925,58.1826,-478.646,0,0
338009.25,57.835,-477.836,0,0
338269.575,57.5134,-477.096,0,0
338529.9,57.2107,-476.229,0,0
338790.225,56.8872,-475.561,0,0
339050.55,56.5928,-474.734,0,0
339310.875,56.2998,-473.861,0,0
339571.2,56.0704,-473.095,0,0
339831.525,55.7643,-472.257,0,0
340091.85,55.5507,-471.375,0,0
340352.175,55.342,-470.512,0,0
340612.5,55.1979,-469.681,0,0
340872.825,54.9546,-468.808,0,0
341133.15,54.7995,-467.968,0,0
341393.475,54.6575,-467.116,0,0
341653.8,54.4691,-466.193,0,0
341914.125,54.311,-465.292,0,0
342174.45,54.2112,-464.437,0,0
342434.775,54.0945,-463.487,0,0
342695.1,54.0491,-462.572,0,0
342955.425,53.9845,-461.631,0,0
343215.75,53.9289,-460.727,0,0
343476.075,53.9642,-459.792,0,0
343736.4,53.9497,-458.827,0,0
343996.725,53.9996,-457.968,0,0
344257.05,54.0685,-457.02,0,0
344517.375,54.102,-456.132,0,0
344777.7,54.2401,-455.198,0,0
345038.025,54.3838,-454.297,0,0
345298.35,54.5039,-453.439,0,0
345558.675,54.6751,-452.568,0,0
345819.0,54.8298,-451.75,0,0
346079.325,55.0564,-450.925,0,0
346339.65,55.2595,-450.067,0,0
346599.975,55.5045,-449.246,0,0
346860,55.7228,-448.476,0,0
347121,55.9355,-447.684,0,0
347381,56.2034,-446.916,0,0
347641,56.4791,-446.114,0,0
347902,56.7534,-445.379,0,0
348162,57.0237,-444.653,0,0
348422,57.3636,-443.925,0,0
348683,57.6831,-443.213,0,0
348943,58.0058,-442.538,0,0
349203,58.366,-441.852,0,0
349464,58.7643,-441.202,0,0
349724,59.0613,-440.56,0,0
349984,59.5039,-439.98,0,0
350245,59.9487,-439.387,0,0
350505,60.3678,-438.836,0,0
350765,60.7443,-438.369,0,0
351025,61.1694,-437.875,0,0
351286,61.5546,-437.451,0,0
351546,61.923,-437.102,0,0
351806,62.2385,-436.736,0,0
352067,62.4959,-436.349,0,0
352327,62.8205,-436.02,0,0
352587,63.0483,-435.646,0,0
352848,63.2459,-435.281,0,0
353108,63.4808,-434.881,0,0
353368,63.6583,-434.441,0,0
353629,63.8663,-434.057,0,0
353889,64.0851,-433.641,0,0
354149,64.3541,-433.268,0,0
354410,64.551,-432.866,0,0
354670,64.776,-432.428,0,0
354930,65.0183,-432.031,0,0
355191,65.2145,-431.614,0,0
355451,65.4353,-431.223,0,0
355711,65.6988,-430.782,0,0
355972,65.9575,-430.393,0,0
356232,66.2427,-429.96,0,0
356492,66.554,-429.557,0,0
356753,66.8589,-429.178,0,0
357013,67.1887,-428.812,0,0
357273,67.5345,-428.456,0,0
357534,67.8976,-428.132,0,0
357794,68.2647,-427.834,0,0
358054,68.6469,-427.602,0,0
358315,69.0334,-427.427,0,0
358575,69.394,-427.24,0,0
358835,69.737,-427.031,0,0
359096,70.1261,-426.9,0,0
359356,70.4327,-426.82,0,0
359616,70.7526,-426.732,0,0
359877,71.0087,-426.735,0,0
360137,71.3363,-426.722,0,0
360397,71.5289,-426.718,0,0
360658,71.7783,-426.826,0,0
360918,71.8959,-426.855,0,0
361178,72.0194,-426.915,0,0
361438,72.1008,-426.951,0,0
361699,72.1467,-426.99,0,0
361959,72.1236,-427.068,0,0
362219,72.1401,-427.111,0,0
362480,72.0819,-427.112,0,0
362740.1,72.018,-427.1,0,0
363000.425,72.0001,-427.138,0,0
363260.75,71.8605,-427.086,0,0
363521.075,71.7606,-427.047,0,0
363781.4,71.6427,-427.012,0,0
364041.725,71.5042,-426.973,0,0
364302.05,71.315,-426.852,0,0
364562.375,71.2318,-426.788,0,0
364822.7,71.0866,-426.685,0,0
365083.025,70.8734,-426.539,0,0
365343.35,70.7308,-426.482,0,0
365603.675,70.4589,-426.302,0,0
365864.0,70.2703,-426.107,0,0
366124.325,70.1151,-425.963,0,0
366384.65,69.9249,-425.72,0,0
366644.975,69.7365,-425.459,0,0
366905.3,69.5541,-425.251,0,0
367165.625,69.3845,-425.012,0,0
367425.95,69.193,-424.637,0,0
367686.275,69.1582,-424.348,0,0
367946.6,69.0591,-424.043,0,0
368206.925,69.0386,-423.725,0,0
368467.25,69.0503,-423.489,0,0
368727.575,69.0847,-423.266,0,0
368987.9,69.1954,-423.097,0,0
369248.225,69.2203,-422.965,0,0
369508.55,69.2525,-422.878,0,0
369768.875,69.1881,-422.857,0,0
370029.2,69.0965,-422.956,0,0
370289.525,68.9096,-422.899,0,0
370549.85,68.7098,-422.869,0,0
370810.175,68.477,-422.83,0,0
371070.5,68.1784,-422.745,0,0
371330.825,67.9455,-422.578,0,0
371591.15,67.6646,-422.425,0,0
371851.475,67.4406,-422.223,0,0
372111.8,67.2665,-422.022,0,0
372372.125,67.0553,-421.831,0,0
372632.45,66.8821,-421.664,0,0
372892.775,66.6585,-421.528,0,0
373153.1,66.5015,-421.407,0,0
373413.425,66.2658,-421.269,0,0
373673.75,66.0183,-421.156,0,0
373934.075,65.7282,-421.073,0,0
374194.4,65.4736,-420.966,0,0
374454.725,65.1317,-420.801,0,0
374715.05,64.7848,-420.648,0,0
374975.375,64.4218,-420.474,0,0
375235.7,64.102,-420.276,0,0
375496.025,63.7453,-420.026,0,0
375756.35,63.4009,-419.845,0,0
376016.675,63.0821,-419.623,0,0
376277.0,62.7473,-419.362,0,0
376537.325,62.386,-419.111,0,0
376797.65,62.0593,-418.882,0,0
377057.975,61.7348,-418.608,0,0
377318.3,61.4007,-418.369,0,0
377578.625,61.0322,-418.125,0,0
377838.95,60.6921,-417.896,0,0
378099.275,60.3661,-417.661,0,0
378359.6,59.9465,-417.477,0,0
378619.925,59.5473,-417.267,0,0
378880,59.0373,-417.126,0,0
379141,58.4889,-416.847,0,0
379401,57.8482,-416.525,0,0
379661,57.1687,-416.137,0,0
379922,56.5187,-415.627,0,0
380182,55.8487,-414.993,0,0
380442,55.4009,-414.257,0,0
380703,54.9908,-413.42,0,0
380963,54.737,-412.603,0,0
381223,54.6408,-411.845,0,0
381483,54.6563,-411.183,0,0
381744,54.6474,-410.669,0,0
382004,54.694,-410.26,0,0
382264,54.6309,-409.926,0,0
382525,54.5308,-409.669,0,0
382785,54.3996,-409.44,0,0
383045,54.1648,-409.243,0,0
383306,53.8209,-409.004,0,0
383566,53.4566,-408.767,0,0
383826,53.0347,-408.447,0,0
384087,52.609,-408.146,0,0
384347,52.1632,-407.759,0,0
384607,51.6996,-407.344,0,0
384868,51.2417,-406.854,0,0
385128,50.7675,-406.347,0,0
385388,50.3444,-405.791,0,0
385649,49.8995,-405.234,0,0
385909,49.495,-404.658,0,0
386169,49.1144,-404.011,0,0
386430,48.7386,-403.411,0,0
386690,48.4193,-402.735,0,0
386950,48.0415,-402.098,0,0
387211,47.7512,-401.473,0,0
387471,47.4649,-400.791,0,0
387731,47.1247,-400.098,0,0
387992,46.8714,-399.407,0,0
388252,46.5994,-398.679,0,0
388512,46.4018,-397.947,0,0
388773,46.1878,-397.229,0,0
389033,46.0594,-396.48,0,0
389293,45.9285,-395.713,0,0
389554,45.8799,-394.965,0,0
389814,45.804,-394.22,0,0
390074,45.8453,-393.518,0,0
390335,45.9405,-392.89,0,0
390595,45.9574,-392.304,0,0
390855,46.0583,-391.776,0,0
391116,46.1281,-391.302,0,0
391376,46.1706,-390.877,0,0
391636,46.1838,-390.536,0,0
391896,46.1333,-390.224,0,0
392157,46.042,-389.886,0,0
392417,45.8167,-389.545,0,0
392677,45.5798,-389.215,0,0
392938,45.2889,-388.827,0,0
393198,44.9395,-388.424,0,0
393458,44.6213,-387.968,0,0
393719,44.2225,-387.432,0,0
393979,43.8442,-386.905,0,0
394239,43.4268,-386.262,0,0
394500,43.0216,-385.615,0,0
394760.05,42.7057,-384.88,0,0
395020.375,42.4016,-384.083,0,0
395280.7,42.1026,-383.304,0,0
395541.025,41.8782,-382.47,0,0
395801.35,41.6568,-381.645,0,0
396061.675,41.5238,-380.79,0,0
396322.0,41.3925,-379.941,0,0
396582.325,41.3064,-379.106,0,0
396842.65,41.2599,-378.285,0,0
397102.975,41.2127,-377.423,0,0
397363.3,41.208,-376.599,0,0
397623.625,41.265,-375.785,0,0
397883.95,41.3256,-374.97,0,0
398144.275,41.3815,-374.138,0,0
398404.6,41.4938,-373.409,0,0
398664.925,41.5944,-372.66,0,0
398925.25,41.7179,-371.925,0,0
399185.575,41.8607,-371.187,0,0
399445.9,42.0206,-370.506,0,0
399706.225,42.1761,-369.832,0,0
399966.55,42.3232,-369.181,0,0
400006.6,42.3548,-369.072,0,0