File: Accelerated corrosion test data/2025-10-19_18-00-04/sample_3.csv
Frequency (Hz),Impedance (ohms),Phase (Radians),Temperature (C),Humidity (%)
10000.0,254.422,-11872.5,0,0
10260.325,248.019,-11572.8,0,0
10520.65,242.608,-11288.7,0,0
10780.975,239.681,-11016.4,0,0
11041.3,232.038,-10763,0,0
11301.625,226.942,-10516.5,0,0
11561.95,221.948,-10280.8,0,0
11822.275,217.678,-10055.5,0,0
12082.6,214.768,-9840.99,0,0
12342.925,213.347,-9634.58,0,0
12603.25,205.372,-9438.08,0,0
12863.575,201.63,-9246.65,0,0
13123.9,203.832,-9062.4,0,0
13384.225,195.371,-8892.97,0,0
13644.55,191.689,-8723.33,0,0
13904.875,188.114,-8559.21,0,0
14165.2,188.997,-8401.42,0,0
14425.525,183.311,-8252.03,0,0
14685.8,181.477,-8105.74,0,0
14946.175,177.907,-7964.5,0,0
15206.5,176.017,-7822.88,0,0
15466.825,189.286,-7680.63,0,0
15727.15,192.352,-7588.78,0,0
15987.5,172.609,-7467.07,0,0
16247.8,170.878,-7338.92,0,0
16508.125,163.036,-7224.33,0,0
16768.45,170.926,-7104.38,0,0
17028.775,159.816,-7004.31,0,0
17289.1,166.21,-6890.94,0,0
17549.425,158.38,-6799.27,0,0
17809.75,159.113,-6693.66,0,0
18070.075,163.465,-6607.4,0,0
18330.4,153.651,-6511.35,0,0
18590.725,150.264,-6419.48,0,0
18851.05,147.509,-6327.97,0,0
19111.375,148.466,-6239.93,0,0
19371.7,146.854,-6154.6,0,0
19632.025,148.682,-6069.73,0,0
19892.35,152.441,-5988.57,0,0
20152.675,150.349,-5912.98,0,0
20413.0,162.573,-5837.47,0,0
20673.3,171.423,-5771.54,0,0
20933.65,163.01,-5713.73,0,0
21193.975,163.323,-5653.09,0,0
21454.3,144.989,-5586.94,0,0
21714.625,142.218,-5511.54,0,0
21974.9,144.952,-5447.21,0,0
22235.275,139.319,-5388.09,0,0
22495.6,138.146,-5324.72,0,0
22755.925,130.879,-5263.49,0,0
23016.25,129.115,-5204.18,0,0
23276.6,130.025,-5140.98,0,0
23536.9,129.717,-5095.98,0,0
23797.225,122.543,-5036.46,0,0
24057.55,120.893,-4978.94,0,0
24317.875,121.481,-4924.19,0,0
24578.2,118.227,-4872.98,0,0
24838.525,120.354,-4820.14,0,0
25098.85,117.284,-4772.62,0,0
25359.175,114.946,-4722.6,0,0
25619.5,114.842,-4674.51,0,0
25879.8,112.588,-4627.32,0,0
26140.1,109.715,-4579.68,0,0
26400.5,109.662,-4532.51,0,0
26660.8,109.14,-4486.7,0,0
26921.1,111.129,-4442.46,0,0
27181.4,109.828,-4402.25,0,0
27441.8,108.882,-4357.9,0,0
27702.1,109.071,-4318.36,0,0
27962.4,107.103,-4276.95,0,0
28222.7,105.955,-4232.77,0,0
28483.1,115.075,-4192.79,0,0
28743.4,116.07,-4158.97,0,0
29003.7,115.047,-4128.24,0,0
29264,108.412,-4093.28,0,0
29524.4,109.721,-4056.55,0,0
29784.7,105.859,-4021.06,0,0
30045,103.225,-3986.68,0,0
30305.3,102.271,-3948.41,0,0
30565.7,103.676,-3915.28,0,0
30826,102.652,-3882.72,0,0
31086.3,104.125,-3850.41,0,0
31346.6,99.9886,-3819.35,0,0
31607,98.9022,-3785.09,0,0
31867.3,99.4743,-3750.55,0,0
32127.6,104.069,-3716.57,0,0
32387.9,112.33,-3688.92,0,0
32648.3,114.338,-3673.3,0,0
32908.6,104.255,-3646.95,0,0
33168.9,102.824,-3618.39,0,0
33429.2,100.022,-3593.78,0,0
33689.6,94.1674,-3564.08,0,0
33949.9,92.1545,-3533.9,0,0
34210.2,92.3263,-3506.26,0,0
34470.5,90.4154,-3479.97,0,0
34730.9,88.9242,-3453.63,0,0
34991.2,87.5436,-3426.06,0,0
35251.5,87.2254,-3400.07,0,0
35511.8,85.9875,-3374.82,0,0
35772.2,85.5351,-3349.27,0,0
36032.5,84.6979,-3324.58,0,0
36292.8,83.7439,-3300.2,0,0
36553.1,83.1856,-3276.06,0,0
36813.5,82.5366,-3252.3,0,0
37073.8,81.8306,-3229.19,0,0
37334.1,81.4267,-3205.78,0,0
37594.4,81.03,-3182.9,0,0
37854.8,80.1851,-3160.4,0,0
38115.1,79.5877,-3138.68,0,0
38375.4,79.4024,-3116.56,0,0
38635.7,78.6603,-3095.1,0,0
38896.1,78.4044,-3073.83,0,0
39156.4,78.2365,-3052.88,0,0
39416.7,77.8212,-3032.62,0,0
39677,77.3124,-3012.2,0,0
39937.4,76.5058,-2991.88,0,0
40197.7,76.2079,-2971.7,0,0
40458,75.7242,-2952.21,0,0
40718.3,75.6567,-2932.63,0,0
40978.7,75.2288,-2913.04,0,0
41239,75.3505,-2894.24,0,0
41499.3,75.1736,-2875.5,0,0
41759.6,75.4243,-2857.28,0,0
42020,74.7092,-2839.72,0,0
42280.275,74.5312,-2821.82,0,0
42540.6,73.93,-2803.87,0,0
42800.925,73.9097,-2786.73,0,0
43061.25,73.247,-2769.25,0,0
43321.575,72.8698,-2752.02,0,0
43581.9,72.464,-2734.63,0,0
43842.225,72.9437,-2717.92,0,0
44102.55,72.6959,-2701.14,0,0
44362.875,72.7864,-2685.63,0,0
44623.2,72.2075,-2669.53,0,0
44883.525,71.9459,-2653.6,0,0
45143.85,71.4662,-2637.37,0,0
45404.175,71.3464,-2621.92,0,0
45664.5,70.9819,-2605.85,0,0
45924.825,71.8999,-2591.15,0,0
46185.15,70.7266,-2576.5,0,0
46445.475,70.389,-2560.72,0,0
46705.8,71.1132,-2545.75,0,0
46966.125,70.7655,-2531.9,0,0
47226.45,70.4463,-2517.18,0,0
47486.775,70.0457,-2502.84,0,0
47747.1,71.4123,-2488.37,0,0
48007.425,71.0964,-2475.47,0,0
48267.75,71.0695,-2462.1,0,0
48528.075,70.5616,-2448.66,0,0
48788.4,69.9189,-2435.8,0,0
49048.725,69.2235,-2422.2,0,0
49309.05,68.7193,-2408.74,0,0
49569.375,68.635,-2395.57,0,0
49829.7,68.3237,-2382.6,0,0
50090.025,67.5886,-2369.63,0,0
50350.35,67.2132,-2356.52,0,0
50610.675,67.1747,-2343.56,0,0
50871.0,66.9999,-2330.9,0,0
51131.325,66.8345,-2318.36,0,0
51391.65,66.7507,-2305.74,0,0
51651.975,66.873,-2293.73,0,0
51912.3,66.7009,-2281.65,0,0
52172.625,66.5719,-2269.5,0,0
52432.95,66.486,-2257.2,0,0
52693.275,66.7115,-2245.23,0,0
52953.6,67.1891,-2233.38,0,0
53213.925,67.7678,-2221.85,0,0
53474.25,68.1735,-2210.99,0,0
53734.575,68.4059,-2199.84,0,0
53994.9,68.736,-2188.62,0,0
54255.225,69.9589,-2177.78,0,0
54515.55,70.871,-2168.87,0,0
54775.875,69.704,-2159.33,0,0
55036.2,69.4955,-2149.19,0,0
55296.525,68.9465,-2139.87,0,0
55556.85,67.541,-2130.22,0,0
55817.175,66.1307,-2119.75,0,0
56077.5,64.8666,-2109.32,0,0
56337.825,63.9603,-2098.5,0,0
56598.15,62.9739,-2087.82,0,0
56858.475,62.1605,-2077.12,0,0
57118.8,61.8488,-2066.06,0,0
57379.125,61.6957,-2055.5,0,0
57639.45,61.5343,-2044.99,0,0
57899.775,61.7054,-2034.79,0,0
58160.1,61.6472,-2024.76,0,0
58420.4,61.5754,-2014.66,0,0
58680.7,61.5594,-2004.49,0,0
58941.1,61.5128,-1994.59,0,0
59201.4,61.8931,-1984.63,0,0
59461.7,62.2481,-1975.02,0,0
59722,62.4691,-1965.59,0,0
59982.4,62.618,-1956.05,0,0
60242.7,63.0066,-1946.76,0,0
60503,63.1616,-1937.52,0,0
60763.3,63.6029,-1928.19,0,0
61023.7,63.7691,-1918.87,0,0
61284,64.1875,-1909.81,0,0
61544.3,64.8376,-1900.75,0,0
61804.6,65.1402,-1891.91,0,0
62065,65.638,-1882.84,0,0
62325.3,66.018,-1874.07,0,0
62585.6,66.5813,-1865.13,0,0
62845.9,67.3386,-1856.13,0,0
63106.3,68.3734,-1847.36,0,0
63366.6,69.3278,-1838.98,0,0
63626.9,70.3061,-1830.3,0,0
63887.2,71.2155,-1821.52,0,0
64147.6,73.1771,-1812.37,0,0
64407.9,76.1022,-1804.38,0,0
64668.2,77.9889,-1797.09,0,0
64928.5,81.101,-1789.13,0,0
65188.9,84.9779,-1783.39,0,0
65449.2,87.5129,-1778.3,0,0
65709.5,90.028,-1773.39,0,0
65969.8,93.8127,-1771.28,0,0
66230.2,92.5391,-1772.33,0,0
66490.5,86.5803,-1769.92,0,0
66750.8,81.3798,-1762.87,0,0
67011.1,78.2673,-1754.79,0,0
67271.5,75.8909,-1745.71,0,0
67531.8,75.0826,-1737.04,0,0
67792.1,75.2185,-1728.72,0,0
68052.4,75.7254,-1721.02,0,0
68312.8,76.5571,-1714.42,0,0
68573.1,76.1284,-1707.67,0,0
68833.4,76.6543,-1700.55,0,0
69093.7,77.5095,-1694.24,0,0
69354.1,78.2826,-1688.84,0,0
69614.4,77.9962,-1684.12,0,0
69874.7,76.9656,-1678.43,0,0
70135,76.0633,-1672.5,0,0
70395.4,75.1953,-1666.86,0,0
70655.7,73.8163,-1660.64,0,0
70916,72.5549,-1654.14,0,0
71176.3,71.8417,-1647.43,0,0
71436.7,70.9593,-1641.14,0,0
71697,70.1886,-1633.83,0,0
71957.3,70.3231,-1627.06,0,0
72217.6,70.6181,-1620.66,0,0
72478,70.8647,-1614.78,0,0
72738.3,70.8182,-1609.27,0,0
72998.6,70.442,-1603.59,0,0
73258.9,69.9784,-1597.89,0,0
73519.3,69.6038,-1592.17,0,0
73779.6,69.2191,-1586.65,0,0
74039.9,68.5676,-1581.19,0,0
74300.225,67.8115,-1575.58,0,0
74560.55,67.0175,-1569.87,0,0
74820.875,66.2518,-1564.17,0,0
75081.2,65.4213,-1558.4,0,0
75341.525,64.6929,-1552.58,0,0
75601.85,63.9147,-1546.9,0,0
75862.175,63.1191,-1541.02,0,0
76122.5,62.3515,-1535.12,0,0
76382.825,61.7472,-1529.14,0,0
76643.15,61.1599,-1523.29,0,0
76903.475,60.5458,-1517.45,0,0
77163.8,60.1135,-1511.63,0,0
77424.125,59.5534,-1505.89,0,0
77684.45,58.974,-1500.1,0,0
77944.775,58.5294,-1494.35,0,0
78205.1,58.0026,-1488.67,0,0
78465.425,57.4733,-1482.85,0,0
78725.75,57.0782,-1477.18,0,0
78986.075,56.6218,-1471.48,0,0
79246.4,56.1933,-1465.78,0,0
79506.725,55.8955,-1460.04,0,0
79767.05,55.5701,-1454.45,0,0
80027.375,55.2776,-1448.78,0,0
80287.7,55.0643,-1443.25,0,0
80548.025,54.7804,-1437.7,0,0
80808.35,54.5617,-1432.18,0,0
81068.675,54.3108,-1426.7,0,0
81329.0,54.1019,-1421.2,0,0
81589.325,53.967,-1415.77,0,0
81849.65,53.7478,-1410.41,0,0
82109.975,53.6349,-1405.08,0,0
82370.3,53.4976,-1399.67,0,0
82630.625,53.4688,-1394.42,0,0
82890.95,53.2984,-1389.16,0,0
83151.275,53.2118,-1383.95,0,0
83411.6,53.1177,-1378.76,0,0
83671.925,53.1157,-1373.5,0,0
83932.25,53.0467,-1368.45,0,0
84192.575,53.0097,-1363.34,0,0
84452.9,52.9637,-1358.27,0,0
84713.225,52.892,-1353.28,0,0
84973.55,52.8074,-1348.16,0,0
85233.875,52.8487,-1343.21,0,0
85494.2,52.8541,-1338.25,0,0
85754.525,52.8884,-1333.31,0,0
86014.85,52.8746,-1328.36,0,0
86275.175,52.9018,-1323.44,0,0
86535.5,52.9212,-1318.49,0,0
86795.825,52.9748,-1313.75,0,0
87056.15,52.9124,-1308.9,0,0
87316.475,53.0289,-1304.02,0,0
87576.8,53.2066,-1299.15,0,0
87837.125,53.361,-1294.56,0,0
88097.45,53.4361,-1289.73,0,0
88357.775,53.4175,-1285.02,0,0
88618.1,53.4996,-1280.11,0,0
88878.425,53.8815,-1275.27,0,0
89138.75,54.3377,-1270.42,0,0
89399.075,54.863,-1265.91,0,0
89659.4,55.2642,-1261.43,0,0
89919.725,55.7627,-1257.01,0,0
90180,56.0867,-1252.77,0,0
90440.4,56.4214,-1248.45,0,0
90700.7,56.7388,-1244.14,0,0
90961,57.1888,-1239.82,0,0
91221.3,57.5353,-1235.58,0,0
91481.7,57.9765,-1231.48,0,0
91742,58.3075,-1227.41,0,0
92002.3,58.7621,-1223.19,0,0
92262.6,59.3356,-1219.05,0,0
92523,60.0646,-1215.3,0,0
92783.3,60.3313,-1211.67,0,0
93043.6,60.6824,-1207.79,0,0
93303.9,61.3623,-1204.03,0,0
93564.3,62.0013,-1200.58,0,0
93824.6,62.7006,-1197.37,0,0
94084.9,63.0684,-1194.72,0,0
94345.2,62.8281,-1192.11,0,0
94605.6,62.1762,-1189.33,0,0
94865.9,61.3789,-1186.35,0,0
95126.2,60.1449,-1183.16,0,0
95386.5,58.9563,-1179.41,0,0
95646.9,57.9368,-1175.08,0,0
95907.2,57.1506,-1170.9,0,0
96167.5,56.3214,-1166.47,0,0
96427.8,56.0805,-1161.95,0,0
96688.2,55.9503,-1157.67,0,0
96948.5,55.8894,-1153.56,0,0
97208.8,55.7962,-1149.45,0,0
97469.1,55.7154,-1145.38,0,0
97729.5,55.6447,-1141.33,0,0
97989.8,55.5745,-1137.34,0,0
98250.1,55.5867,-1133.31,0,0
98510.4,55.6553,-1129.37,0,0
98770.8,55.6721,-1125.53,0,0
99031.1,55.5707,-1121.69,0,0
99291.4,55.4742,-1117.83,0,0
99551.7,55.3759,-1113.95,0,0
99812.1,55.381,-1110.03,0,0
100072,55.3041,-1106.09,0,0
100333,55.3054,-1102.24,0,0
100593,55.2203,-1098.38,0,0
100853,55.0837,-1094.29,0,0
101114,55.1889,-1090.22,0,0
101374,55.2822,-1086.18,0,0
101634,55.4459,-1082.06,0,0
101895,55.7594,-1077.95,0,0
102155,56.1448,-1073.84,0,0
102415,56.7373,-1069.71,0,0
102676,57.6249,-1065.72,0,0
102936,58.6196,-1062.19,0,0
103196,59.3003,-1058.95,0,0
103457,59.6882,-1055.56,0,0
103717,60.2407,-1051.96,0,0
103977,61.0525,-1048.32,0,0
104238,62.2142,-1045.13,0,0
104498,63.1126,-1042.56,0,0
104758,63.4691,-1040.05,0,0
105019,63.6172,-1037.48,0,0
105279,63.5268,-1034.44,0,0
105539,63.873,-1031.52,0,0
105800,63.9955,-1028.85,0,0
106060,63.8222,-1026.15,0,0
106320.175,63.4985,-1023.33,0,0
106580.5,63.2145,-1020.38,0,0
106840.825,62.8507,-1017.42,0,0
107101.15,62.4105,-1014.19,0,0
107361.475,62.2381,-1011,0,0
107621.8,61.8793,-1007.82,0,0
107882.125,61.5588,-1004.55,0,0
108142.45,61.2627,-1001.36,0,0
108402.775,60.755,-998.092,0,0
108663.1,60.173,-994.512,0,0
108923.425,59.8787,-990.738,0,0
109183.75,59.8431,-986.993,0,0
109444.075,59.8471,-983.372,0,0
109704.4,59.7073,-979.816,0,0
109964.725,59.6834,-976.114,0,0
110225.05,59.6864,-972.347,0,0
110485.375,59.9117,-968.459,0,0
110745.7,60.4514,-964.722,0,0
111006.025,60.9408,-961.173,0,0
111266.35,61.4822,-957.725,0,0
111526.675,61.9167,-954.259,0,0
111787.0,62.3792,-951.043,0,0
112047.325,62.9171,-947.762,0,0
112307.65,63.3759,-944.607,0,0
112567.975,63.7915,-941.456,0,0
112828.3,64.2589,-938.353,0,0
113088.625,64.5672,-935.4,0,0
113348.95,64.6937,-932.268,0,0
113609.275,64.8426,-929.031,0,0
113869.6,65.1074,-925.769,0,0
114129.925,65.3022,-922.556,0,0
114390.25,65.4772,-919.198,0,0
114650.575,65.7862,-915.803,0,0
114910.9,66.2032,-912.405,0,0
115171.225,66.638,-908.947,0,0
115431.55,67.2046,-905.58,0,0
115691.875,67.7941,-902.173,0,0
115952.2,68.3936,-898.825,0,0
116212.525,69.0036,-895.442,0,0
116472.85,69.7519,-892.024,0,0
116733.175,70.6975,-888.74,0,0
116993.5,71.469,-885.554,0,0
117253.825,72.1882,-882.261,0,0
117514.15,73.159,-878.545,0,0
117774.475,74.8772,-875.032,0,0
118034.8,76.6257,-872.328,0,0
118295.125,78.0579,-869.694,0,0
118555.45,79.5086,-867.328,0,0
118815.775,80.4996,-864.82,0,0
119076.1,81.8622,-861.928,0,0
119336.425,83.743,-859.366,0,0
119596.75,85.7253,-857.385,0,0
119857.075,87.6971,-855.902,0,0
120117.4,89.3221,-855.199,0,0
120377.725,89.9769,-854.649,0,0
120638.05,90.3419,-853.919,0,0
120898.375,90.0456,-853.314,0,0
121158.7,89.2136,-852.122,0,0
121419.025,88.2353,-850.415,0,0
121679.35,87.1921,-848.156,0,0
121939.675,86.5203,-845.382,0,0
122200.0,86.1829,-842.54,0,0
122460,86.0904,-839.615,0,0
122721,86.2929,-836.727,0,0
122981,86.7521,-834.002,0,0
123241,87.2061,-831.612,0,0
123502,87.4482,-829.199,0,0
123762,87.7685,-826.72,0,0
124022,88.1968,-824.292,0,0
124283,88.5994,-821.964,0,0
124543,89.0718,-819.698,0,0
124803,89.4375,-817.533,0,0
125064,89.8285,-815.311,0,0
125324,90.2042,-813.199,0,0
125584,90.5868,-811.158,0,0
125845,90.9357,-809.24,0,0
126105,91.13,-807.455,0,0
126365,91.0731,-805.609,0,0
126626,90.9409,-803.57,0,0
126886,90.9381,-801.441,0,0
127146,90.8224,-799.415,0,0
127406,90.8967,-797.458,0,0
127667,90.6949,-795.516,0,0
127927,90.4042,-793.469,0,0
128187,89.975,-791.411,0,0
128448,89.4239,-789.047,0,0
128708,89.094,-786.437,0,0
128968,88.9508,-783.928,0,0
129229,88.8498,-781.414,0,0
129489,88.6914,-779.004,0,0
129749,88.4795,-776.347,0,0
130010,88.5724,-773.586,0,0
130270,88.8296,-771.068,0,0
130530,89.208,-768.676,0,0
130791,89.5324,-766.531,0,0
131051,89.6266,-764.602,0,0
131311,89.5006,-762.589,0,0
131572,89.2622,-760.506,0,0
131832,88.9467,-758.297,0,0
132092,88.6245,-755.945,0,0
132353,88.3719,-753.513,0,0
132613,88.249,-751.055,0,0
132873,88.1735,-748.762,0,0
133134,87.9797,-746.48,0,0
133394,87.7274,-744.17,0,0
133654,87.331,-741.849,0,0
133915,86.9193,-739.344,0,0
134175,86.653,-736.741,0,0
134435,86.4459,-734.232,0,0
134696,86.1455,-731.762,0,0
134956,85.7684,-729.156,0,0
135216,85.4965,-726.453,0,0
135477,85.3247,-723.893,0,0
135737,85.0107,-721.367,0,0
135997,84.5108,-718.741,0,0
136258,84.0394,-715.845,0,0
136518,83.7389,-712.868,0,0
136778,83.529,-709.822,0,0
137039,83.4269,-706.804,0,0
137299,83.3398,-703.664,0,0
137559,83.5598,-700.495,0,0
137819,83.9276,-697.571,0,0
138080,84.2638,-694.79,0,0
138340.125,84.5695,-692.096,0,0
138600.45,84.8795,-689.6,0,0
138860.775,84.9152,-687.223,0,0
139121.1,84.7761,-684.606,0,0
139381.425,84.7196,-681.962,0,0
139641.75,84.5684,-679.325,0,0
139902.075,84.4022,-676.479,0,0
140162.4,84.4906,-673.671,0,0
140422.725,84.4534,-671.006,0,0
140683.05,84.2964,-668.344,0,0
140943.375,84.0644,-665.597,0,0
141203.7,83.7995,-662.812,0,0
141464.025,83.4324,-659.898,0,0
141724.35,83.0074,-656.776,0,0
141984.675,82.7725,-653.536,0,0
142245.0,82.6182,-650.302,0,0
142505.325,82.4445,-647.001,0,0
142765.65,82.3391,-643.624,0,0
143025.975,82.2698,-640.187,0,0
143286.3,82.3222,-636.75,0,0
143546.625,82.4388,-633.304,0,0
143806.95,82.5114,-629.856,0,0
144067.275,82.6332,-626.307,0,0
144327.6,82.856,-622.725,0,0
144587.925,83.1137,-619.136,0,0
144848.25,83.438,-615.509,0,0
145108.575,83.8454,-611.889,0,0
145368.9,84.2366,-608.351,0,0
145629.225,84.5834,-604.758,0,0
145889.55,84.8761,-601.035,0,0
146149.875,85.2802,-597.125,0,0
146410.2,85.9481,-593.186,0,0
146670.525,86.6312,-589.392,0,0
146930.85,87.2722,-585.523,0,0
147191.175,88.0471,-581.542,0,0
147451.5,88.9352,-577.587,0,0
147711.825,89.8386,-573.69,0,0
147972.15,90.7557,-569.665,0,0
148232.475,91.8012,-565.541,0,0
148492.8,93.0145,-561.409,0,0
148753.125,94.3385,-557.302,0,0
149013.45,95.7393,-553.202,0,0
149273.775,97.2179,-548.991,0,0
149534.1,98.9739,-544.772,0,0
149794.425,100.928,-540.67,0,0
150054.75,103.029,-536.671,0,0
150315.075,105.23,-532.818,0,0
150575.4,107.462,-529.109,0,0
150835.725,109.797,-525.477,0,0
151096.05,112.13,-521.938,0,0
151356.375,114.536,-518.441,0,0
151616.7,117.105,-515.034,0,0
151877.025,119.804,-511.852,0,0
152137.35,122.434,-509.007,0,0
152397.675,124.847,-506.243,0,0
152658.0,127.181,-503.505,0,0
152918.325,129.522,-500.853,0,0
153178.65,131.651,-498.351,0,0
153438.975,133.543,-495.673,0,0
153699.3,135.514,-492.775,0,0
153959.625,137.729,-489.88,0,0
154219.95,140.042,-487.285,0,0
154480,141.926,-484.921,0,0
154741,143.575,-482.3,0,0
155001,145.19,-479.334,0,0
155261,147.028,-476.105,0,0
155522,148.966,-473.144,0,0
155782,150.769,-469.983,0,0
156042,152.724,-466.664,0,0
156303,154.826,-463.338,0,0
156563,156.923,-459.728,0,0
156823,159.469,-455.872,0,0
157084,162.417,-452.133,0,0
157344,166.059,-448.69,0,0
157604,169.929,-446.159,0,0
157864,173.495,-444.412,0,0
158125,176.367,-443.249,0,0
158385,177.931,-441.909,0,0
158645,179.208,-439.722,0,0
158906,180.395,-437.318,0,0
159166,181.341,-434.401,0,0
159426,182.138,-430.88,0,0
159687,182.907,-426.741,0,0
159947,184.138,-421.68,0,0
160207,186.288,-415.955,0,0
160468,189.735,-410.404,0,0
160728,193.423,-405.938,0,0
160988,196.278,-401.658,0,0
161249,198.995,-396.019,0,0
161509,203.028,-389.668,0,0
161769,208.417,-383.689,0,0
162030,214.277,-378.633,0,0
162290,220.103,-373.83,0,0
162550,226.191,-369.288,0,0
162811,232.167,-364.839,0,0
163071,238.437,-359.693,0,0
163331,246.163,-354.434,0,0
163592,254.927,-350.295,0,0
163852,263.676,-347.017,0,0
164112,272.56,-343.967,0,0
164373,281.964,-341.201,0,0
164633,292.033,-338.945,0,0
164893,303.118,-337.543,0,0
165154,314.411,-338.068,0,0
165414,325.035,-339.845,0,0
165674,334.92,-342.229,0,0
165935,344.636,-344.777,0,0
166195,354.428,-348.214,0,0
166455,363.741,-352.56,0,0
166716,372.761,-357.257,0,0
166976,381.585,-363.17,0,0
167236,389.324,-370.021,0,0
167497,395.751,-377.359,0,0
167757,401.365,-384.65,0,0
168017,406.07,-391.987,0,0
168277,409.965,-399.327,0,0
168538,413.689,-406.051,0,0
168798,417.463,-413.082,0,0
169058,420.63,-421.231,0,0
169319,422.3,-429.986,0,0
169579,422.299,-438.664,0,0
169839,420.189,-446.537,0,0
170100,416.901,-452.246,0,0
170360.075,414.199,-455.836,0,0
170620.4,412.512,-458.809,0,0
170880.725,410.871,-461.894,0,0
171141.05,409.019,-463.877,0,0
171401.375,408.362,-465.271,0,0
171661.7,408.207,-467.179,0,0
171922.025,407.863,-469.31,0,0
172182.35,406.982,-471.186,0,0
172442.675,406.24,-471.716,0,0
172703.0,407.065,-471.764,0,0
172963.325,408.975,-472.865,0,0
173223.65,410.846,-474.858,0,0
173483.975,412.309,-477.53,0,0
173744.3,413.047,-480.217,0,0
174004.625,413.906,-482.206,0,0
174264.95,415.582,-484.535,0,0
174525.275,416.901,-488.1,0,0
174785.6,417.082,-491.38,0,0
175045.925,417.75,-493.774,0,0
175306.25,419.289,-496.604,0,0
175566.575,421.158,-500.807,0,0
175826.9,421.853,-506.373,0,0
176087.225,421.168,-511.787,0,0
176347.55,420.327,-516.762,0,0
176607.875,419.344,-522.843,0,0
176868.2,416.049,-529.949,0,0
177128.525,410.217,-535.528,0,0
177388.85,403.62,-538.614,0,0
177649.175,397.947,-540.592,0,0
177909.5,391.831,-542.541,0,0
178169.825,384.598,-542.627,0,0
178430.15,378.319,-540.455,0,0
178690.475,373.665,-537.459,0,0
178950.8,370.05,-534.256,0,0
179211.125,367.299,-530.819,0,0
179471.45,365.476,-527.242,0,0
179731.775,364.687,-523.85,0,0
179992.1,364.62,-520.92,0,0
180252.425,364.995,-518.488,0,0
180512.75,365.79,-516.347,0,0
180773.075,367.111,-514.985,0,0
181033.4,368.53,-514.332,0,0
181293.725,369.812,-514.431,0,0
181554.05,370.714,-515.096,0,0
181814.375,371.26,-516.198,0,0
182074.7,371.261,-517.695,0,0
182335.025,370.385,-519.243,0,0
182595.35,369.198,-520.568,0,0
182855.675,367.199,-521.716,0,0
183116.0,365.21,-522.238,0,0
183376.325,363.298,-522.737,0,0
183636.65,360.955,-523.338,0,0
183896.975,358.061,-523.467,0,0
184157.3,355.243,-522.978,0,0
184417.625,352.371,-522.525,0,0
184677.95,348.859,-521.553,0,0
184938.275,345.641,-519.58,0,0
185198.6,342.83,-517.496,0,0
185458.925,339.869,-515.241,0,0
185719.25,336.921,-512.392,0,0
185979.575,334.09,-509.003,0,0
186239.9,331.574,-504.854,0,0
186500,329.949,-499.981,0,0
186761,329.541,-495.192,0,0
187021,329.749,-491.116,0,0
187281,329.932,-487.413,0,0
187542,330.217,-483.689,0,0
187802,330.808,-480.052,0,0
188062,331.731,-476.755,0,0
188322,332.504,-473.99,0,0
188583,332.775,-471.277,0,0
188843,332.707,-468.07,0,0
189103,332.935,-464.132,0,0
189364,334.021,-460.071,0,0
189624,335.488,-456.372,0,0
189884,337.199,-452.867,0,0
190145,338.997,-449.623,0,0
190405,340.885,-446.557,0,0
190665,342.884,-443.637,0,0
190926,344.845,-440.993,0,0
191186,346.613,-438.527,0,0
191446,348.055,-435.93,0,0
191707,349.57,-433.009,0,0
191967,351.248,-430.162,0,0
192227,352.608,-427.236,0,0
192488,353.863,-423.711,0,0
192748,355.596,-419.567,0,0
193008,358.026,-415.124,0,0
193269,361.299,-410.72,0,0
193529,365.217,-406.729,0,0
193789,369.324,-403.312,0,0
194050,373.603,-400.13,0,0
194310,378.028,-397.207,0,0
194570,382.519,-394.504,0,0
194831,387.108,-391.893,0,0
195091,391.887,-389.261,0,0
195351,397.058,-386.686,0,0
195612,402.953,-384.184,0,0
195872,409.648,-382.345,0,0
196132,416.847,-381.757,0,0
196393,423.624,-382.409,0,0
196653,429.92,-384.143,0,0
196913,435.113,-386.315,0,0
197174,439.415,-388.161,0,0
197434,443.79,-389.716,0,0
197694,448.345,-391.953,0,0
197955,452.113,-394.994,0,0
198215,454.764,-398.02,0,0
198475,456.535,-400.679,0,0
198735,457.602,-402.632,0,0
198996,458.643,-403.744,0,0
199256,459.903,-404.52,0,0
199516,461.103,-405.146,0,0
199777,462.075,-405.611,0,0
200037,462.662,-405.678,0,0
200297,463.009,-404.982,0,0
200558,463.583,-402.962,0,0
200818,465.439,-400.271,0,0
201078,468.137,-397.812,0,0
201339,471.323,-395.533,0,0
201599,474.737,-393.353,0,0
201859,478.494,-390.957,0,0
202120,483.068,-388.356,0,0
202380.025,488.671,-386.085,0,0
202640.35,495.028,-384.788,0,0
202900.675,501.497,-384.449,0,0
203161.0,507.721,-384.756,0,0
203421.325,513.796,-385.322,0,0
203681.65,520.121,-386.108,0,0
203941.975,526.631,-387.717,0,0
204202.3,532.859,-390.061,0,0
204462.625,538.634,-393.07,0,0
204722.95,543.782,-396.611,0,0
204983.275,548.17,-400.464,0,0
205243.6,551.255,-404.445,0,0
205503.925,553.374,-407.353,0,0
205764.25,555.422,-409.251,0,0
206024.575,557.791,-410.34,0,0
206284.9,560.639,-410.996,0,0
206545.225,563.838,-411.474,0,0
206805.55,567.58,-411.515,0,0
207065.875,572.146,-411.668,0,0
207326.2,577.042,-412.384,0,0
207586.525,581.777,-413.2,0,0
207846.85,586.881,-413.295,0,0
208107.175,593.447,-413.498,0,0
208367.5,600.853,-414.832,0,0
208627.825,608.576,-417.321,0,0
208888.15,615.911,-420.966,0,0
209148.475,622.584,-425.269,0,0
209408.8,628.68,-429.572,0,0
209669.125,634.775,-433.962,0,0
209929.45,640.845,-438.523,0,0
210189.775,646.884,-443.372,0,0
210450.1,652.817,-448.54,0,0
210710.425,658.762,-454.157,0,0
210970.75,664.576,-460.163,0,0
211231.075,670.095,-466.777,0,0
211491.4,675.007,-473.787,0,0
211751.725,679.338,-480.753,0,0
212012.05,683.456,-487.453,0,0
212272.375,687.693,-494.053,0,0
212532.7,692.186,-500.906,0,0
212793.025,696.712,-508.301,0,0
213053.35,701.084,-516.349,0,0
213313.675,704.863,-525.072,0,0
213574.0,707.836,-534.048,0,0
213834.325,710.049,-542.905,0,0
214094.65,711.866,-551.808,0,0
214354.975,713.204,-560.503,0,0
214615.3,714.127,-568.902,0,0
214875.625,715.012,-576.887,0,0
215135.95,715.955,-584.886,0,0
215396.275,717.045,-592.933,0,0
215656.6,717.962,-601.265,0,0
215916.925,718.795,-609.837,0,0
216177.25,719.358,-618.662,0,0
216437.575,719.749,-627.857,0,0
216697.9,719.444,-637.526,0,0
216958.225,718.339,-647.193,0,0
217218.55,716.733,-656.628,0,0
217478.875,714.554,-666.125,0,0
217739.2,711.64,-675.259,0,0
217999.525,708.345,-683.717,0,0
218259.85,704.815,-691.782,0,0
218520,701.366,-699.463,0,0
218780,697.727,-706.74,0,0
219041,694.212,-713.783,0,0
219301,690.819,-720.622,0,0
219561,687.616,-727.614,0,0
219822,684.175,-734.682,0,0
220082,680.665,-741.717,0,0
220342,677.206,-748.704,0,0
220603,673.659,-755.92,0,0
220863,669.868,-763.388,0,0
221123,665.812,-771.079,0,0
221384,661.354,-779.214,0,0
221644,656.171,-787.737,0,0
221904,649.821,-796.233,0,0
222165,642.244,-804.298,0,0
222425,633.601,-811.474,0,0
222685,624.744,-817.302,0,0
222946,615.654,-822.271,0,0
223206,606.511,-826.477,0,0
223466,597.298,-829.673,0,0
223727,588.263,-831.833,0,0
223987,579.913,-833.344,0,0
224247,571.851,-834.122,0,0
224508,564.16,-834.2,0,0
224768,557.707,-833.547,0,0
225028,552.321,-833.148,0,0
225289,547.729,-833.182,0,0
225549,543.245,-833.639,0,0
225809,538.953,-834.101,0,0
226070,534.905,-834.793,0,0
226330,531.185,-835.753,0,0
226590,527.669,-836.897,0,0
226851,524.346,-838.319,0,0
227111,521.182,-840.527,0,0
227371,517.401,-843.348,0,0
227632,512.96,-846.171,0,0
227892,507.92,-848.79,0,0
228152,502.72,-851.093,0,0
228413,497.427,-852.863,0,0
228673,492.265,-854.376,0,0
228933,487.363,-855.917,0,0
229193,482.558,-857.445,0,0
229454,477.637,-859.296,0,0
229714,472.38,-861.206,0,0
229974,466.854,-863.034,0,0
230235,461.005,-864.409,0,0
230495,455.21,-865.52,0,0
230755,449.318,-866.346,0,0
231016,443.471,-866.947,0,0
231276,437.698,-867.285,0,0
231536,432.008,-867.344,0,0
231797,426.504,-867.262,0,0
232057,421.102,-867.197,0,0
232317,415.704,-866.93,0,0
232578,410.52,-866.487,0,0
232838,405.433,-866.093,0,0
233098,400.429,-865.664,0,0
233359,395.358,-865.214,0,0
233619,390.26,-864.586,0,0
233879,385.343,-863.799,0,0
234140,380.553,-862.961,0,0
234400,376.044,-862.048,0,0
234660.3,371.46,-861.295,0,0
234920.625,366.996,-860.714,0,0
235180.95,362.457,-860.197,0,0
235441.275,357.646,-859.692,0,0
235701.6,352.811,-859.105,0,0
235961.925,347.757,-858.363,0,0
236222.25,342.534,-857.342,0,0
236482.575,337.455,-856.067,0,0
236742.9,332.575,-854.679,0,0
237003.225,327.643,-853.368,0,0
237263.55,322.498,-851.893,0,0
237523.875,317.246,-850.219,0,0
237784.2,312.007,-848.128,0,0
238044.525,306.919,-845.721,0,0
238304.85,302.025,-843.068,0,0
238565.175,297.486,-840.301,0,0
238825.5,292.989,-837.39,0,0
239085.825,288.704,-834.416,0,0
239346.15,284.707,-831.397,0,0
239606.475,280.735,-828.29,0,0
239866.8,276.869,-825.113,0,0
240127.125,273.189,-821.915,0,0
240387.45,269.635,-818.62,0,0
240647.775,266.18,-815.261,0,0
240908.1,262.712,-811.792,0,0
241168.425,259.502,-808.057,0,0
241428.75,256.489,-804.249,0,0
241689.075,253.743,-800.327,0,0
241949.4,251.383,-796.285,0,0
242209.725,249.397,-792.392,0,0
242470.05,247.569,-788.649,0,0
242730.375,246.048,-784.861,0,0
242990.7,244.903,-781.353,0,0
243251.025,244.01,-778.195,0,0
243511.35,243.13,-775.466,0,0
243771.675,242.158,-773.042,0,0
244032.0,240.845,-770.828,0,0
244292.325,239.288,-768.617,0,0
244552.65,237.5,-766.246,0,0
244812.975,235.798,-763.597,0,0
245073.3,234.173,-760.84,0,0
245333.625,232.742,-758.044,0,0
245593.95,231.35,-755.165,0,0
245854.275,230.109,-752.36,0,0
246114.6,229.044,-749.574,0,0
246374.925,228.08,-746.74,0,0
246635.25,227.34,-744.079,0,0
246895.575,226.636,-741.553,0,0
247155.9,225.885,-739.239,0,0
247416.225,225.001,-736.886,0,0
247676.55,224.118,-734.418,0,0
247936.875,223.329,-731.93,0,0
248197.2,222.699,-729.251,0,0
248457.525,222.273,-726.626,0,0
248717.85,222.246,-724.175,0,0
248978.175,222.402,-721.934,0,0
249238.5,222.578,-720.182,0,0
249498.825,222.575,-718.693,0,0
249759.15,222.377,-717.269,0,0
250019.475,222.033,-716.079,0,0
250279.8,221.577,-714.92,0,0
250540,220.825,-713.812,0,0
250800,219.972,-712.571,0,0
251061,218.979,-711.326,0,0
251321,217.927,-710.033,0,0
251581,216.753,-708.689,0,0
251842,215.475,-707.255,0,0
252102,214.119,-705.677,0,0
252362,212.666,-703.922,0,0
252623,211.263,-701.991,0,0
252883,209.935,-699.94,0,0
253143,208.606,-697.878,0,0
253404,207.189,-695.667,0,0
253664,205.755,-693.189,0,0
253924,204.482,-690.479,0,0
254185,203.46,-687.554,0,0
254445,202.645,-684.598,0,0
254705,202.051,-681.54,0,0
254966,201.502,-678.484,0,0
255226,201.19,-675.327,0,0
255486,201.053,-672.021,0,0
255747,201.282,-668.691,0,0
256007,201.823,-665.499,0,0
256267,202.544,-662.367,0,0
256528,203.508,-659.421,0,0
256788,204.611,-656.658,0,0
257048,205.802,-654.021,0,0
257309,207.146,-651.523,0,0
257569,208.5,-649.13,0,0
257829,209.927,-646.76,0,0
258090,211.53,-644.405,0,0
258350,213.317,-642.13,0,0
258610,215.253,-639.951,0,0
258871,217.647,-637.873,0,0
259131,220.127,-636.329,0,0
259391,222.661,-634.836,0,0
259651,225.506,-633.625,0,0
259912,228.36,-632.857,0,0
260172,231.21,-632.213,0,0
260432,234.241,-631.77,0,0
260693,237.582,-631.726,0,0
260953,241.111,-632.333,0,0
261213,244.535,-633.698,0,0
261474,247.563,-635.807,0,0
261734,250.04,-638.409,0,0
261994,251.913,-641.36,0,0
262255,253.15,-644.5,0,0
262515,253.726,-647.683,0,0
262775,253.834,-650.623,0,0
263036,253.62,-653.458,0,0
263296,253.117,-656.255,0,0
263556,252.22,-658.955,0,0
263817,251.006,-661.588,0,0
264077,249.367,-663.957,0,0
264337,247.529,-665.973,0,0
264598,245.627,-667.79,0,0
264858,243.59,-669.526,0,0
265118,241.448,-671.188,0,0
265379,238.817,-672.644,0,0
265639,236.135,-673.775,0,0
265899,233.238,-674.712,0,0
266160,230.149,-675.377,0,0
266420,226.845,-675.661,0,0
266680.25,223.536,-675.541,0,0
266940.575,220.302,-674.954,0,0
267200.9,217.159,-673.959,0,0
267461.225,214.317,-672.685,0,0
267721.55,211.69,-671.101,0,0
267981.875,209.315,-669.382,0,0
268242.2,207.247,-667.655,0,0
268502.525,205.336,-665.897,0,0
268762.85,203.563,-664.08,0,0
269023.175,201.837,-662.274,0,0
269283.5,200.287,-660.319,0,0
269543.825,198.886,-658.306,0,0
269804.15,197.661,-656.209,0,0
270064.475,196.559,-654.061,0,0
270324.8,195.718,-651.94,0,0
270585.125,195.077,-649.851,0,0
270845.45,194.555,-647.869,0,0
271105.775,194.175,-645.891,0,0
271366.1,193.847,-644.118,0,0
271626.425,193.602,-642.297,0,0
271886.75,193.51,-640.681,0,0
272147.075,193.385,-639.227,0,0
272407.4,193.141,-637.883,0,0
272667.725,192.795,-636.42,0,0
272928.05,192.443,-634.897,0,0
273188.375,192.176,-633.265,0,0
273448.7,191.965,-631.614,0,0
273709.025,191.886,-629.862,0,0
273969.35,191.908,-628.119,0,0
274229.675,191.997,-626.395,0,0
274490.0,192.176,-624.58,0,0
274750.325,192.587,-622.735,0,0
275010.65,193.084,-620.867,0,0
275270.975,193.872,-619.109,0,0
275531.3,194.832,-617.444,0,0
275791.625,195.92,-615.887,0,0
276051.95,197.189,-614.476,0,0
276312.275,198.698,-613.263,0,0
276572.6,200.274,-612.241,0,0
276832.925,201.941,-611.523,0,0
277093.25,203.595,-611.073,0,0
277353.575,205.205,-610.828,0,0
277613.9,206.779,-610.796,0,0
277874.225,208.336,-610.908,0,0
278134.55,209.884,-611.29,0,0
278394.875,211.345,-611.9,0,0
278655.2,212.673,-612.735,0,0
278915.525,213.825,-613.757,0,0
279175.85,214.801,-614.923,0,0
279436.175,215.574,-616.252,0,0
279696.5,216.206,-617.728,0,0
279956.825,216.487,-619.27,0,0
280217.15,216.563,-620.969,0,0
280477.475,216.368,-622.615,0,0
280737.8,215.899,-624.188,0,0
280998.125,215.188,-625.663,0,0
281258.45,214.374,-627.031,0,0
281518.775,213.379,-628.354,0,0
281779.1,212.221,-629.577,0,0
282039.425,210.891,-630.64,0,0
282299.75,209.527,-631.57,0,0
282560,208.021,-632.433,0,0
282820,206.401,-633.183,0,0
283081,204.679,-633.778,0,0
283341,202.859,-634.156,0,0
283601,201.026,-634.317,0,0
283862,199.247,-634.31,0,0
284122,197.528,-634.218,0,0
284382,195.784,-634.011,0,0
284643,194.038,-633.708,0,0
284903,192.318,-633.231,0,0
285163,190.602,-632.629,0,0
285424,189.071,-631.858,0,0
285684,187.616,-631.035,0,0
285944,186.212,-630.163,0,0
286205,184.905,-629.208,0,0
286465,183.667,-628.175,0,0
286725,182.546,-627.081,0,0
286986,181.582,-625.957,0,0
287246,180.691,-624.889,0,0
287506,179.883,-623.808,0,0
287767,179.12,-622.742,0,0
288027,178.384,-621.671,0,0
288287,177.733,-620.538,0,0
288548,177.176,-619.348,0,0
288808,176.788,-618.138,0,0
289068,176.609,-617.019,0,0
289329,176.558,-616.036,0,0
289589,176.599,-615.267,0,0
289849,176.637,-614.687,0,0
290109,176.604,-614.259,0,0
290370,176.474,-613.999,0,0
290630,176.168,-613.801,0,0
290890,175.696,-613.591,0,0
291151,175.137,-613.319,0,0
291411,174.492,-612.998,0,0
291671,173.805,-612.649,0,0
291932,173.046,-612.219,0,0
292192,172.227,-611.694,0,0
292452,171.372,-611.035,0,0
292713,170.559,-610.205,0,0
292973,169.849,-609.272,0,0
293233,169.282,-608.242,0,0
293494,168.84,-607.169,0,0
293754,168.493,-606.112,0,0
294014,168.289,-605.044,0,0
294275,168.176,-603.969,0,0
294535,168.252,-602.917,0,0
294795,168.497,-601.958,0,0
295056,168.878,-601.166,0,0
295316,169.34,-600.546,0,0
295576,169.82,-600.09,0,0
295837,170.277,-599.837,0,0
296097,170.705,-599.712,0,0
296357,171.087,-599.728,0,0
296618,171.382,-599.851,0,0
296878,171.594,-600.094,0,0
297138,171.71,-600.43,0,0
297399,171.728,-600.823,0,0
297659,171.61,-601.274,0,0
297919,171.392,-601.769,0,0
298180,171.042,-602.281,0,0
298440,170.594,-602.772,0,0
298700.2,170.061,-603.268,0,0
298960.525,169.438,-603.74,0,0
299220.85,168.716,-604.207,0,0
299481.175,167.904,-604.643,0,0
299741.5,167.015,-605.054,0,0
300001.825,166.041,-605.421,0,0
300262.15,164.947,-605.714,0,0
300522.475,163.808,-605.962,0,0
300782.8,162.625,-606.121,0,0
301043.125,161.369,-606.203,0,0
301303.45,160.084,-606.2,0,0
301563.775,158.756,-606.128,0,0
301824.1,157.415,-605.936,0,0
302084.425,156.04,-605.683,0,0
302344.75,154.693,-605.305,0,0
302605.075,153.377,-604.861,0,0
302865.4,152.095,-604.371,0,0
303125.725,150.844,-603.819,0,0
303386.05,149.613,-603.223,0,0
303646.375,148.401,-602.576,0,0
303906.7,147.196,-601.865,0,0
304167.025,146.033,-601.09,0,0
304427.35,144.937,-600.279,0,0
304687.675,143.857,-599.42,0,0
304948.0,142.839,-598.53,0,0
305208.325,141.904,-597.588,0,0
305468.65,141.013,-596.66,0,0
305728.975,140.188,-595.714,0,0
305989.3,139.402,-594.802,0,0
306249.625,138.641,-593.886,0,0
306509.95,137.863,-592.954,0,0
306770.275,137.157,-591.982,0,0
307030.6,136.515,-590.998,0,0
307290.925,135.956,-590.032,0,0
307551.25,135.434,-589.11,0,0
307811.575,134.949,-588.222,0,0
308071.9,134.495,-587.349,0,0
308332.225,134.075,-586.526,0,0
308592.55,133.685,-585.739,0,0
308852.875,133.293,-584.993,0,0
309113.2,132.91,-584.297,0,0
309373.525,132.515,-583.603,0,0
309633.85,132.156,-582.967,0,0
309894.175,131.792,-582.387,0,0
310154.5,131.423,-581.88,0,0
310414.825,131,-581.416,0,0
310675.15,130.508,-581.015,0,0
310935.475,129.942,-580.626,0,0
311195.8,129.293,-580.247,0,0
311456.125,128.568,-579.816,0,0
311716.45,127.792,-579.364,0,0
311976.775,126.956,-578.873,0,0
312237.1,126.07,-578.314,0,0
312497.425,125.16,-577.708,0,0
312757.75,124.199,-577.039,0,0
313018.075,123.198,-576.269,0,0
313278.4,122.19,-575.38,0,0
313538.725,121.216,-574.357,0,0
313799.05,120.272,-573.256,0,0
314059.375,119.427,-572.067,0,0
314319.7,118.664,-570.784,0,0
314580,117.954,-569.439,0,0
314840,117.459,-568.04,0,0
315101,117.068,-566.683,0,0
315361,116.687,-565.36,0,0
315621,116.524,-564.012,0,0
315882,116.395,-562.724,0,0
316142,116.358,-561.564,0,0
316402,116.421,-560.412,0,0
316663,116.396,-559.28,0,0
316923,116.605,-558.37,0,0
317183,116.781,-557.548,0,0
317444,116.814,-556.556,0,0
317704,116.942,-555.795,0,0
317964,116.903,-555.092,0,0
318225,116.993,-554.341,0,0
318485,117.112,-553.594,0,0
318745,117.092,-552.893,0,0
319006,117.177,-552.227,0,0
319266,117.295,-551.534,0,0
319526,117.276,-550.966,0,0
319787,117.363,-550.443,0,0
320047,117.318,-549.834,0,0
320307,117.35,-549.319,0,0
320567,117.346,-548.7,0,0
320828,117.356,-548.067,0,0
321088,117.49,-547.411,0,0
321348,117.642,-546.809,0,0
321609,117.826,-546.296,0,0
321869,118.029,-545.782,0,0
322129,118.342,-545.349,0,0
322390,118.631,-545.067,0,0
322650,118.94,-544.855,0,0
322910,119.274,-544.67,0,0
323171,119.559,-544.597,0,0
323431,119.731,-544.689,0,0
323691,119.84,-544.859,0,0
323952,119.878,-545.045,0,0
324212,119.877,-545.309,0,0
324472,119.666,-545.715,0,0
324733,119.379,-545.991,0,0
324993,119.048,-546.285,0,0
325253,118.572,-546.609,0,0
325514,117.977,-546.897,0,0
325774,117.292,-547.073,0,0
326034,116.61,-547.265,0,0
326295,115.753,-547.368,0,0
326555,114.933,-547.436,0,0
326815,114.033,-547.392,0,0
327076,113.152,-547.342,0,0
327336,112.234,-547.162,0,0
327596,111.303,-546.994,0,0
327857,110.368,-546.758,0,0
328117,109.392,-546.503,0,0
328377,108.411,-546.127,0,0
328638,107.531,-545.664,0,0
328898,106.614,-545.225,0,0
329158,105.631,-544.721,0,0
329419,104.841,-544.144,0,0
329679,104.021,-543.653,0,0
329939,103.146,-543.127,0,0
330200,102.278,-542.599,0,0
330460,101.512,-542.025,0,0
330720.15,100.732,-541.476,0,0
330980.475,99.8332,-540.893,0,0
331240.8,99.0107,-540.344,0,0
331501.125,98.0655,-539.788,0,0
331761.45,97.1316,-539.159,0,0
332021.775,96.2547,-538.512,0,0
332282.1,95.3857,-537.848,0,0
332542.425,94.4774,-537.058,0,0
332802.75,93.5614,-536.299,0,0
333063.075,92.7221,-535.438,0,0
333323.4,91.865,-534.591,0,0
333583.725,90.9656,-533.71,0,0
333844.05,90.1153,-532.833,0,0
334104.375,89.3499,-531.873,0,0
334364.7,88.4166,-530.912,0,0
334625.025,87.5745,-529.918,0,0
334885.35,86.777,-528.9,0,0
335145.675,86.0313,-527.696,0,0
335406.0,85.3232,-526.581,0,0
335666.325,84.5549,-525.414,0,0
335926.65,83.9402,-524.219,0,0
336186.975,83.3634,-523.007,0,0
336447.3,82.8232,-521.779,0,0
336707.625,82.2377,-520.632,0,0
336967.95,81.7995,-519.384,0,0
337228.275,81.3378,-518.172,0,0
337488.6,80.9301,-516.895,0,0
337748.925,80.5349,-515.662,0,0
338009.25,80.1873,-514.415,0,0
338269.575,79.8305,-513.123,0,0
338529.9,79.5212,-511.886,0,0
338790.225,79.257,-510.64,0,0
339050.55,79.0483,-509.36,0,0
339310.875,78.7585,-508.064,0,0
339571.2,78.5354,-506.75,0,0
339831.525,78.4434,-505.322,0,0
340091.85,78.3628,-503.963,0,0
340352.175,78.4159,-502.58,0,0
340612.5,78.511,-501.172,0,0
340872.825,78.6773,-499.872,0,0
341133.15,78.9281,-498.514,0,0
341393.475,79.2903,-497.317,0,0
341653.8,79.6326,-496.076,0,0
341914.125,80.1358,-494.962,0,0
342174.45,80.7547,-493.928,0,0
342434.775,81.2177,-493.003,0,0
342695.1,81.828,-492.13,0,0
342955.425,82.3731,-491.433,0,0
343215.75,82.9396,-490.816,0,0
343476.075,83.4798,-490.244,0,0
343736.4,83.9224,-489.794,0,0
343996.725,84.4116,-489.324,0,0
344257.05,84.7248,-488.96,0,0
344517.375,85.0248,-488.638,0,0
344777.7,85.2309,-488.339,0,0
345038.025,85.4126,-488.077,0,0
345298.35,85.5351,-487.764,0,0
345558.675,85.611,-487.412,0,0
345819.0,85.6145,-487.23,0,0
346079.325,85.6162,-486.945,0,0
346339.65,85.5602,-486.662,0,0
346599.975,85.3815,-486.374,0,0
346860,85.1863,-486.01,0,0
347121,84.9421,-485.661,0,0
347381,84.6383,-485.213,0,0
347641,84.3697,-484.677,0,0
347902,84.052,-484.147,0,0
348162,83.7221,-483.514,0,0
348422,83.5096,-482.859,0,0
348683,83.1718,-482.15,0,0
348943,83.0044,-481.34,0,0
349203,82.8587,-480.473,0,0
349464,82.7747,-479.585,0,0
349724,82.7936,-478.684,0,0
349984,82.9156,-477.868,0,0
350245,83.0341,-477.054,0,0
350505,83.277,-476.223,0,0
350765,83.6058,-475.51,0,0
351025,83.9598,-474.889,0,0
351286,84.3155,-474.327,0,0
351546,84.6724,-473.82,0,0
351806,85.0135,-473.47,0,0
352067,85.3284,-473.131,0,0
352327,85.5589,-472.905,0,0
352587,85.7676,-472.681,0,0
352848,85.9081,-472.455,0,0
353108,86.0277,-472.376,0,0
353368,86.0137,-472.237,0,0
353629,85.9694,-472.118,0,0
353889,85.8969,-472.013,0,0
354149,85.7102,-471.886,0,0
354410,85.4232,-471.649,0,0
354670,85.2208,-471.399,0,0
354930,84.9796,-471.113,0,0
355191,84.7146,-470.821,0,0
355451,84.3614,-470.538,0,0
355711,84.0491,-470.173,0,0
355972,83.6554,-469.84,0,0
356232,83.3268,-469.399,0,0
356492,82.874,-468.934,0,0
356753,82.5539,-468.388,0,0
357013,82.1477,-467.842,0,0
357273,81.7318,-467.236,0,0
357534,81.4225,-466.551,0,0
357794,81.1184,-465.815,0,0
358054,80.9452,-465.072,0,0
358315,80.7702,-464.352,0,0
358575,80.633,-463.567,0,0
358835,80.5766,-462.82,0,0
359096,80.6121,-462.131,0,0
359356,80.609,-461.47,0,0
359616,80.5919,-460.843,0,0
359877,80.6457,-460.204,0,0
360137,80.6578,-459.726,0,0
360397,80.6002,-459.123,0,0
360658,80.5708,-458.636,0,0
360918,80.5492,-458.139,0,0
361178,80.5293,-457.639,0,0
361438,80.3888,-457.1,0,0
361699,80.2847,-456.596,0,0
361959,80.1515,-456.02,0,0
362219,80.0439,-455.36,0,0
362480,79.9539,-454.669,0,0
362740.1,79.9103,-453.964,0,0
363000.425,79.9299,-453.222,0,0
363260.75,80.0243,-452.501,0,0
363521.075,80.1717,-451.771,0,0
363781.4,80.4164,-451.106,0,0
364041.725,80.6538,-450.472,0,0
364302.05,80.9463,-449.973,0,0
364562.375,81.2053,-449.489,0,0
364822.7,81.5155,-449.053,0,0
365083.025,81.7794,-448.67,0,0
365343.35,82.1188,-448.311,0,0
365603.675,82.4121,-448.044,0,0
365864.0,82.6845,-447.912,0,0
366124.325,82.9197,-447.854,0,0
366384.65,83.0391,-447.819,0,0
366644.975,83.0657,-447.839,0,0
366905.3,82.985,-447.888,0,0
367165.625,82.8076,-447.928,0,0
367425.95,82.4668,-447.917,0,0
367686.275,82.1571,-447.844,0,0
367946.6,81.7179,-447.703,0,0
368206.925,81.2046,-447.466,0,0
368467.25,80.6575,-447.106,0,0
368727.575,80.0555,-446.656,0,0
368987.9,79.5764,-446.04,0,0
369248.225,79.0722,-445.338,0,0
369508.55,78.787,-444.489,0,0
369768.875,78.5163,-443.661,0,0
370029.2,78.4354,-442.754,0,0
370289.525,78.3855,-441.912,0,0
370549.85,78.4702,-441.094,0,0
370810.175,78.7067,-440.327,0,0
371070.5,79.0502,-439.662,0,0
371330.825,79.368,-439.173,0,0
371591.15,79.7399,-438.785,0,0
371851.475,80.0975,-438.513,0,0
372111.8,80.2807,-438.36,0,0
372372.125,80.4102,-438.243,0,0
372632.45,80.4763,-438.273,0,0
372892.775,80.3561,-438.189,0,0
373153.1,80.1931,-438.177,0,0
373413.425,79.8758,-438,0,0
373673.75,79.5514,-437.839,0,0
373934.075,79.1361,-437.572,0,0
374194.4,78.7639,-437.221,0,0
374454.725,78.3299,-436.806,0,0
374715.05,77.9201,-436.333,0,0
374975.375,77.5992,-435.822,0,0
375235.7,77.1994,-435.265,0,0
375496.025,76.8517,-434.599,0,0
375756.35,76.647,-433.891,0,0
376016.675,76.413,-433.206,0,0
376277.0,76.2227,-432.463,0,0
376537.325,76.0932,-431.79,0,0
376797.65,76.0053,-431.09,0,0
377057.975,75.9862,-430.412,0,0
377318.3,75.9572,-429.687,0,0
377578.625,75.9688,-428.984,0,0
377838.95,76.0286,-428.315,0,0
378099.275,76.1299,-427.651,0,0
378359.6,76.2295,-426.991,0,0
378619.925,76.4114,-426.423,0,0
378880,76.6467,-425.886,0,0
379141,76.8386,-425.366,0,0
379401,77.0483,-424.919,0,0
379661,77.2363,-424.528,0,0
379922,77.3538,-424.205,0,0
380182,77.5135,-423.849,0,0
380442,77.601,-423.549,0,0
380703,77.6474,-423.254,0,0
380963,77.6915,-422.946,0,0
381223,77.6762,-422.633,0,0
381483,77.6723,-422.265,0,0
381744,77.6802,-421.953,0,0
382004,77.7112,-421.616,0,0
382264,77.7104,-421.298,0,0
382525,77.7006,-421.018,0,0
382785,77.6887,-420.757,0,0
383045,77.7032,-420.491,0,0
383306,77.6349,-420.259,0,0
383566,77.491,-420.011,0,0
383826,77.3793,-419.824,0,0
384087,77.1814,-419.501,0,0
384347,77.0243,-419.21,0,0
384607,76.7808,-418.944,0,0
384868,76.5784,-418.586,0,0
385128,76.282,-418.224,0,0
385388,75.9816,-417.845,0,0
385649,75.7912,-417.444,0,0
385909,75.4616,-417.055,0,0
386169,75.1575,-416.602,0,0
386430,74.8801,-416.078,0,0
386690,74.5529,-415.591,0,0
386950,74.283,-415,0,0
387211,73.9919,-414.428,0,0
387471,73.7074,-413.841,0,0
387731,73.3948,-413.151,0,0
387992,73.1418,-412.481,0,0
388252,72.921,-411.729,0,0
388512,72.745,-411.033,0,0
388773,72.5403,-410.204,0,0
389033,72.4266,-409.39,0,0
389293,72.3398,-408.547,0,0
389554,72.2962,-407.651,0,0
389814,72.29,-406.795,0,0
390074,72.3794,-405.914,0,0
390335,72.5253,-405.072,0,0
390595,72.6696,-404.167,0,0
390855,72.9009,-403.285,0,0
391116,73.2449,-402.491,0,0
391376,73.5886,-401.684,0,0
391636,73.9644,-400.975,0,0
391896,74.4101,-400.277,0,0
392157,74.8781,-399.644,0,0
392417,75.3485,-399.054,0,0
392677,75.79,-398.539,0,0
392938,76.2773,-398.09,0,0
393198,76.7186,-397.679,0,0
393458,77.131,-397.307,0,0
393719,77.5294,-396.907,0,0
393979,77.921,-396.523,0,0
394239,78.3064,-396.192,0,0
394500,78.7374,-395.862,0,0
394760.05,79.1542,-395.515,0,0
395020.375,79.5463,-395.273,0,0
395280.7,79.9664,-395.066,0,0
395541.025,80.3973,-394.851,0,0
395801.35,80.7947,-394.695,0,0
396061.675,81.1767,-394.515,0,0
396322.0,81.5358,-394.429,0,0
396582.325,81.8795,-394.356,0,0
396842.65,82.2455,-394.304,0,0
397102.975,82.545,-394.316,0,0
397363.3,82.832,-394.35,0,0
397623.625,83.0411,-394.413,0,0
397883.95,83.2699,-394.455,0,0
398144.275,83.4835,-394.546,0,0
398404.6,83.5968,-394.615,0,0
398664.925,83.7435,-394.753,0,0
398925.25,83.7974,-394.903,0,0
399185.575,83.8041,-395.078,0,0
399445.9,83.8086,-395.247,0,0
399706.225,83.6914,-395.385,0,0
399966.55,83.5206,-395.55,0,0
400006.6,83.5112,-395.583,0,0