File: Accelerated corrosion test data/2025-10-19_18-00-04/sample_8.csv
Frequency (Hz),Impedance (ohms),Phase (Radians),Temperature (C),Humidity (%)
10000.0,309.209,-10980,0,0
10260.325,301.2,-10704.8,0,0
10520.65,294.087,-10442.8,0,0
10780.975,286.996,-10194.1,0,0
11041.3,280.568,-9956.2,0,0
11301.625,273.989,-9730.46,0,0
11561.95,268.193,-9512.87,0,0
11822.275,262.708,-9306.07,0,0
12082.6,261.467,-9106.32,0,0
12342.925,257.127,-8920.18,0,0
12603.25,252.563,-8738.09,0,0
12863.575,249.181,-8567.93,0,0
13123.9,240.268,-8402.61,0,0
13384.225,235.103,-8240.55,0,0
13644.55,231.673,-8085.1,0,0
13904.875,224.371,-7936.52,0,0
14165.2,218.891,-7790.87,0,0
14425.525,214.542,-7651.74,0,0
14685.8,211.084,-7517.61,0,0
14946.175,207.151,-7387.36,0,0
15206.5,203.642,-7262.34,0,0
15466.825,200.758,-7141.6,0,0
15727.15,197.27,-7024.69,0,0
15987.5,194.051,-6911.66,0,0
16247.8,191.103,-6801.81,0,0
16508.125,188.245,-6695.43,0,0
16768.45,185.03,-6592.32,0,0
17028.775,182.2,-6492.23,0,0
17289.1,179.424,-6395.04,0,0
17549.425,176.922,-6300.59,0,0
17809.75,175.033,-6207.81,0,0
18070.075,172.656,-6121.04,0,0
18330.4,169.745,-6033.53,0,0
18590.725,167.771,-5948.11,0,0
18851.05,168.763,-5864.66,0,0
19111.375,167.206,-5785.46,0,0
19371.7,168.937,-5710.33,0,0
19632.025,166.003,-5637.18,0,0
19892.35,162.921,-5566.38,0,0
20152.675,160.893,-5493.32,0,0
20413.0,160.954,-5423.98,0,0
20673.3,161.046,-5357.4,0,0
20933.65,156.711,-5294.91,0,0
21193.975,153.092,-5230.58,0,0
21454.3,150.809,-5166.33,0,0
21714.625,149.09,-5103.77,0,0
21974.9,148.387,-5044,0,0
22235.275,148.673,-4985.27,0,0
22495.6,147.229,-4928.49,0,0
22755.925,145.864,-4874.8,0,0
23016.25,143.926,-4820,0,0
23276.6,139.475,-4767.7,0,0
23536.9,137.476,-4714.4,0,0
23797.225,135.186,-4663.7,0,0
24057.55,133.166,-4612.94,0,0
24317.875,132.011,-4563.15,0,0
24578.2,130.263,-4515.07,0,0
24838.525,129.013,-4467.25,0,0
25098.85,127.601,-4420.65,0,0
25359.175,126.233,-4375.34,0,0
25619.5,125.24,-4330.14,0,0
25879.8,124.251,-4286.05,0,0
26140.1,123.778,-4244.45,0,0
26400.5,121.799,-4202.05,0,0
26660.8,120.564,-4160.57,0,0
26921.1,120.463,-4119.74,0,0
27181.4,120.444,-4080.32,0,0
27441.8,119.564,-4041.13,0,0
27702.1,118.41,-4004.91,0,0
27962.4,116.315,-3966.23,0,0
28222.7,117.396,-3929.14,0,0
28483.1,115.91,-3893.56,0,0
28743.4,115.683,-3857.99,0,0
29003.7,114.557,-3823.71,0,0
29264,115.125,-3790.02,0,0
29524.4,113.713,-3756.71,0,0
29784.7,113.087,-3723.26,0,0
30045,112.958,-3692.21,0,0
30305.3,111.894,-3660.83,0,0
30565.7,110.58,-3629.91,0,0
30826,109.413,-3599.2,0,0
31086.3,108.071,-3568.29,0,0
31346.6,107.147,-3538.08,0,0
31607,107.007,-3508.33,0,0
31867.3,106.135,-3479.31,0,0
32127.6,105.406,-3450.53,0,0
32387.9,104.993,-3421.88,0,0
32648.3,105.038,-3393.98,0,0
32908.6,105.393,-3366.92,0,0
33168.9,104.837,-3339.95,0,0
33429.2,105.329,-3313.67,0,0
33689.6,105.805,-3287.77,0,0
33949.9,105.851,-3262.78,0,0
34210.2,105.968,-3238.02,0,0
34470.5,106.294,-3213.19,0,0
34730.9,106.584,-3188.93,0,0
34991.2,107.733,-3165.39,0,0
35251.5,108.701,-3142.51,0,0
35511.8,109.207,-3120.53,0,0
35772.2,109.398,-3099.3,0,0
36032.5,109.746,-3078.51,0,0
36292.8,109.356,-3058.03,0,0
36553.1,109.181,-3038.27,0,0
36813.5,107.656,-3018.42,0,0
37073.8,107.6,-2998.37,0,0
37334.1,105.924,-2979.38,0,0
37594.4,104.009,-2960.25,0,0
37854.8,101.685,-2940.79,0,0
38115.1,99.6721,-2921.47,0,0
38375.4,97.5357,-2901.96,0,0
38635.7,95.5792,-2882.17,0,0
38896.1,93.8229,-2862.9,0,0
39156.4,91.8673,-2843.14,0,0
39416.7,90.5821,-2823.29,0,0
39677,89.505,-2804.24,0,0
39937.4,87.9551,-2785.12,0,0
40197.7,87.405,-2765.91,0,0
40458,87.3747,-2747.38,0,0
40718.3,86.7671,-2729.7,0,0
40978.7,86.1778,-2712.08,0,0
41239,85.315,-2694.72,0,0
41499.3,84.545,-2677.32,0,0
41759.6,84.1769,-2660.32,0,0
42020,83.3611,-2643.61,0,0
42280.275,82.5868,-2626.37,0,0
42540.6,82.1958,-2609.34,0,0
42800.925,82.0421,-2593.05,0,0
43061.25,82.4692,-2577.08,0,0
43321.575,82.3353,-2561.79,0,0
43581.9,82.1982,-2546.86,0,0
43842.225,81.0965,-2532.21,0,0
44102.55,80.136,-2517.07,0,0
44362.875,79.3586,-2501.73,0,0
44623.2,78.6641,-2487.01,0,0
44883.525,77.8557,-2472.08,0,0
45143.85,77.2512,-2457.51,0,0
45404.175,76.5865,-2442.82,0,0
45664.5,76.2086,-2428.52,0,0
45924.825,75.5032,-2414.44,0,0
46185.15,74.9145,-2400.27,0,0
46445.475,74.5855,-2386.34,0,0
46705.8,73.9613,-2372.39,0,0
46966.125,73.5826,-2358.85,0,0
47226.45,73.1064,-2345.42,0,0
47486.775,72.9395,-2331.83,0,0
47747.1,72.6052,-2318.68,0,0
48007.425,72.1707,-2305.88,0,0
48267.75,71.9073,-2293.17,0,0
48528.075,71.462,-2280.45,0,0
48788.4,70.9088,-2267.87,0,0
49048.725,70.5535,-2255.33,0,0
49309.05,69.9998,-2242.99,0,0
49569.375,69.7382,-2230.63,0,0
49829.7,69.2991,-2218.5,0,0
50090.025,68.8537,-2206.26,0,0
50350.35,68.7231,-2194.34,0,0
50610.675,68.3437,-2182.53,0,0
50871.0,68.0527,-2170.89,0,0
51131.325,67.8425,-2159.14,0,0
51391.65,67.5467,-2147.62,0,0
51651.975,67.6489,-2136.09,0,0
51912.3,67.472,-2125.09,0,0
52172.625,67.1984,-2113.96,0,0
52432.95,67.0336,-2103.02,0,0
52693.275,66.927,-2092.05,0,0
52953.6,67.0166,-2081.31,0,0
53213.925,67.2199,-2070.6,0,0
53474.25,67.4342,-2060.46,0,0
53734.575,67.4964,-2050.8,0,0
53994.9,66.9275,-2041.23,0,0
54255.225,66.3192,-2031.18,0,0
54515.55,65.9187,-2021.44,0,0
54775.875,65.2381,-2011.58,0,0
55036.2,64.4396,-2001.69,0,0
55296.525,63.8025,-1991.88,0,0
55556.85,63.1682,-1982.03,0,0
55817.175,62.6983,-1972.05,0,0
56077.5,62.0971,-1962.28,0,0
56337.825,61.698,-1952.4,0,0
56598.15,61.3768,-1942.63,0,0
56858.475,61.1692,-1933.08,0,0
57118.8,60.8167,-1923.56,0,0
57379.125,60.6817,-1914.18,0,0
57639.45,60.4763,-1904.91,0,0
57899.775,60.2597,-1895.7,0,0
58160.1,60.224,-1886.47,0,0
58420.4,60.096,-1877.53,0,0
58680.7,59.905,-1868.68,0,0
58941.1,59.7924,-1859.89,0,0
59201.4,59.6462,-1851.29,0,0
59461.7,59.3226,-1842.66,0,0
59722,59.0881,-1834.12,0,0
59982.4,58.7398,-1825.54,0,0
60242.7,58.4213,-1816.99,0,0
60503,58.1672,-1808.36,0,0
60763.3,58.1496,-1799.81,0,0
61023.7,58.1142,-1791.44,0,0
61284,58.1325,-1783.2,0,0
61544.3,58.121,-1775.06,0,0
61804.6,58.0184,-1767.11,0,0
62065,57.6379,-1759.04,0,0
62325.3,57.5981,-1750.92,0,0
62585.6,57.5783,-1742.78,0,0
62845.9,57.7091,-1734.86,0,0
63106.3,57.8981,-1727.19,0,0
63366.6,58.0952,-1719.46,0,0
63626.9,58.303,-1712.08,0,0
63887.2,58.2931,-1704.7,0,0
64147.6,58.476,-1697.3,0,0
64407.9,58.5433,-1690.4,0,0
64668.2,58.2568,-1683.3,0,0
64928.5,58.0908,-1676.19,0,0
65188.9,57.9315,-1669.18,0,0
65449.2,57.5409,-1662.19,0,0
65709.5,57.2589,-1654.96,0,0
65969.8,57.3772,-1648.07,0,0
66230.2,57.0271,-1641.39,0,0
66490.5,56.5969,-1634.57,0,0
66750.8,56.0242,-1627.53,0,0
67011.1,55.7895,-1620.45,0,0
67271.5,55.6161,-1613.47,0,0
67531.8,55.392,-1606.55,0,0
67792.1,55.1764,-1599.8,0,0
68052.4,54.9935,-1593.11,0,0
68312.8,54.7922,-1586.32,0,0
68573.1,54.5719,-1579.56,0,0
68833.4,54.3397,-1572.81,0,0
69093.7,54.2709,-1566.04,0,0
69354.1,54.3631,-1559.35,0,0
69614.4,54.3591,-1552.87,0,0
69874.7,54.3416,-1546.38,0,0
70135,54.4682,-1540.02,0,0
70395.4,54.4847,-1533.76,0,0
70655.7,54.4383,-1527.53,0,0
70916,54.3724,-1521.23,0,0
71176.3,54.3458,-1515.1,0,0
71436.7,54.3478,-1508.97,0,0
71697,54.362,-1502.95,0,0
71957.3,54.2601,-1497.11,0,0
72217.6,54.1993,-1490.99,0,0
72478,54.3277,-1485.21,0,0
72738.3,54.0223,-1479.59,0,0
72998.6,53.7322,-1473.71,0,0
73258.9,53.494,-1467.7,0,0
73519.3,53.4897,-1461.83,0,0
73779.6,53.4043,-1456.09,0,0
74039.9,53.2206,-1450.42,0,0
74300.225,52.9802,-1444.69,0,0
74560.55,52.7602,-1439.01,0,0
74820.875,52.6583,-1433.14,0,0
75081.2,52.5479,-1427.46,0,0
75341.525,52.3826,-1421.77,0,0
75601.85,52.2842,-1416.14,0,0
75862.175,52.2885,-1410.47,0,0
76122.5,52.2396,-1404.96,0,0
76382.825,52.2381,-1399.48,0,0
76643.15,52.2361,-1394.03,0,0
76903.475,52.1063,-1388.71,0,0
77163.8,52.0506,-1383.39,0,0
77424.125,51.8895,-1378,0,0
77684.45,51.8064,-1372.71,0,0
77944.775,51.7286,-1367.35,0,0
78205.1,51.5965,-1362.11,0,0
78465.425,51.447,-1356.92,0,0
78725.75,51.1869,-1351.62,0,0
78986.075,51.101,-1346.29,0,0
79246.4,50.991,-1341.11,0,0
79506.725,50.7891,-1335.86,0,0
79767.05,50.6937,-1330.59,0,0
80027.375,50.5879,-1325.37,0,0
80287.7,50.5689,-1320.06,0,0
80548.025,50.6015,-1314.85,0,0
80808.35,50.5781,-1309.67,0,0
81068.675,50.5452,-1304.52,0,0
81329.0,50.5697,-1299.33,0,0
81589.325,50.7321,-1294.24,0,0
81849.65,50.8446,-1289.13,0,0
82109.975,51.0918,-1284.11,0,0
82370.3,51.2456,-1279.25,0,0
82630.625,51.3181,-1274.3,0,0
82890.95,51.489,-1269.31,0,0
83151.275,51.792,-1264.51,0,0
83411.6,51.9719,-1259.74,0,0
83671.925,52.2473,-1254.89,0,0
83932.25,52.6052,-1250.21,0,0
84192.575,52.9196,-1245.75,0,0
84452.9,53.1869,-1241.29,0,0
84713.225,53.459,-1237.06,0,0
84973.55,53.3201,-1233,0,0
85233.875,52.8701,-1228.64,0,0
85494.2,52.5129,-1223.88,0,0
85754.525,52.3885,-1219.13,0,0
86014.85,52.2883,-1214.35,0,0
86275.175,52.2714,-1209.68,0,0
86535.5,52.3313,-1205,0,0
86795.825,52.4258,-1200.21,0,0
87056.15,52.713,-1195.57,0,0
87316.475,52.9268,-1191.17,0,0
87576.8,52.9996,-1186.65,0,0
87837.125,53.0902,-1182.08,0,0
88097.45,53.2482,-1177.52,0,0
88357.775,53.3918,-1173.07,0,0
88618.1,53.5539,-1168.52,0,0
88878.425,53.7153,-1164.04,0,0
89138.75,53.8446,-1159.59,0,0
89399.075,54.072,-1154.95,0,0
89659.4,54.2773,-1150.35,0,0
89919.725,54.6196,-1145.65,0,0
90180,55.0937,-1141.13,0,0
90440.4,55.5807,-1136.61,0,0
90700.7,56.2222,-1131.95,0,0
90961,57.0746,-1127.53,0,0
91221.3,58.0149,-1123.21,0,0
91481.7,59.056,-1119.24,0,0
91742,59.8773,-1115.61,0,0
92002.3,60.3853,-1111.99,0,0
92262.6,60.8415,-1108.3,0,0
92523,61.1748,-1104.51,0,0
92783.3,61.5456,-1100.62,0,0
93043.6,61.9857,-1096.69,0,0
93303.9,62.3444,-1092.84,0,0
93564.3,62.8939,-1089.03,0,0
93824.6,63.3146,-1085.22,0,0
94084.9,63.8177,-1081.41,0,0
94345.2,64.4374,-1077.92,0,0
94605.6,64.5457,-1074.36,0,0
94865.9,64.7227,-1070.53,0,0
95126.2,64.9467,-1066.58,0,0
95386.5,65.45,-1062.45,0,0
95646.9,65.9237,-1058.75,0,0
95907.2,66.3055,-1054.9,0,0
96167.5,66.8965,-1050.99,0,0
96427.8,67.3562,-1047.04,0,0
96688.2,68.228,-1043.08,0,0
96948.5,69.0865,-1039.35,0,0
97208.8,69.7864,-1035.74,0,0
97469.1,70.5552,-1032.02,0,0
97729.5,71.4263,-1028.29,0,0
97989.8,72.4018,-1024.59,0,0
98250.1,73.5388,-1021.02,0,0
98510.4,74.8641,-1017.61,0,0
98770.8,76.1872,-1014.5,0,0
99031.1,77.3151,-1011.66,0,0
99291.4,78.2488,-1008.88,0,0
99551.7,78.9568,-1006.11,0,0
99812.1,79.6206,-1002.99,0,0
100072,80.5523,-999.947,0,0
100333,81.6275,-997.132,0,0
100593,82.6362,-994.493,0,0
100853,83.5346,-991.904,0,0
101114,84.4361,-989.492,0,0
101374,85.1359,-987.133,0,0
101634,85.8792,-984.819,0,0
101895,86.4367,-982.721,0,0
102155,86.8479,-980.582,0,0
102415,87.1194,-978.475,0,0
102676,87.2066,-976.357,0,0
102936,87.1121,-974.157,0,0
103196,86.9501,-971.747,0,0
103457,86.8032,-969.187,0,0
103717,86.8037,-966.556,0,0
103977,86.939,-964.025,0,0
104238,86.9573,-961.696,0,0
104498,86.8145,-959.347,0,0
104758,86.4725,-956.993,0,0
105019,85.981,-954.382,0,0
105279,85.5892,-951.457,0,0
105539,85.4957,-948.527,0,0
105800,85.3273,-945.643,0,0
106060,85.2658,-942.668,0,0
106320.175,85.3276,-939.795,0,0
106580.5,85.4435,-936.971,0,0
106840.825,85.5514,-934.208,0,0
107101.15,85.649,-931.543,0,0
107361.475,85.7347,-928.937,0,0
107621.8,85.6316,-926.449,0,0
107882.125,85.3171,-923.734,0,0
108142.45,85.1143,-920.786,0,0
108402.775,85.017,-917.782,0,0
108663.1,85.0951,-914.71,0,0
108923.425,85.2152,-911.737,0,0
109183.75,85.5766,-908.737,0,0
109444.075,86.0383,-905.947,0,0
109704.4,86.4142,-903.334,0,0
109964.725,86.8125,-900.794,0,0
110225.05,87.0271,-898.416,0,0
110485.375,87.0909,-895.924,0,0
110745.7,87.2789,-893.429,0,0
111006.025,87.308,-890.853,0,0
111266.35,87.326,-888.321,0,0
111526.675,87.5585,-885.686,0,0
111787.0,87.7281,-883.173,0,0
112047.325,88.0311,-880.761,0,0
112307.65,88.1723,-878.348,0,0
112567.975,88.274,-876.004,0,0
112828.3,88.252,-873.645,0,0
113088.625,88.3861,-871.346,0,0
113348.95,88.3917,-869.055,0,0
113609.275,88.3159,-866.687,0,0
113869.6,88.2507,-864.296,0,0
114129.925,88.2016,-861.903,0,0
114390.25,88.1538,-859.449,0,0
114650.575,88.1624,-857.113,0,0
114910.9,88.1145,-854.75,0,0
115171.225,88.1287,-852.539,0,0
115431.55,87.9635,-850.439,0,0
115691.875,87.5576,-848.253,0,0
115952.2,87.0452,-845.81,0,0
116212.525,86.6759,-843.233,0,0
116472.85,86.3477,-840.553,0,0
116733.175,86.2152,-837.85,0,0
116993.5,86.0642,-835.261,0,0
117253.825,85.9746,-832.555,0,0
117514.15,86.0187,-830.015,0,0
117774.475,86.0345,-827.517,0,0
118034.8,85.937,-825.146,0,0
118295.125,85.7902,-822.705,0,0
118555.45,85.6687,-820.141,0,0
118815.775,85.5263,-817.67,0,0
119076.1,85.4822,-815.197,0,0
119336.425,85.3701,-812.866,0,0
119596.75,85.1298,-810.423,0,0
119857.075,84.9807,-807.913,0,0
120117.4,84.7964,-805.353,0,0
120377.725,84.6517,-802.861,0,0
120638.05,84.457,-800.355,0,0
120898.375,84.2498,-797.792,0,0
121158.7,84.1903,-795.215,0,0
121419.025,84.1098,-792.781,0,0
121679.35,83.9342,-790.287,0,0
121939.675,83.734,-787.796,0,0
122200.0,83.602,-785.195,0,0
122460,83.5179,-782.689,0,0
122721,83.4079,-780.234,0,0
122981,83.1883,-777.766,0,0
123241,82.9898,-775.282,0,0
123502,82.7599,-772.753,0,0
123762,82.5168,-770.209,0,0
124022,82.2935,-767.616,0,0
124283,82.0748,-765.007,0,0
124543,81.887,-762.391,0,0
124803,81.6869,-759.779,0,0
125064,81.5048,-757.182,0,0
125324,81.2667,-754.51,0,0
125584,81.0861,-751.841,0,0
125845,80.8798,-749.123,0,0
126105,80.7152,-746.436,0,0
126365,80.5444,-743.671,0,0
126626,80.4213,-740.87,0,0
126886,80.3519,-738.072,0,0
127146,80.3226,-735.28,0,0
127406,80.2681,-732.496,0,0
127667,80.1803,-729.694,0,0
127927,80.1924,-726.846,0,0
128187,80.2795,-724.064,0,0
128448,80.3448,-721.315,0,0
128708,80.415,-718.617,0,0
128968,80.4225,-715.92,0,0
129229,80.4559,-713.148,0,0
129489,80.4727,-710.432,0,0
129749,80.4264,-707.698,0,0
130010,80.3059,-704.833,0,0
130270,80.276,-701.776,0,0
130530,80.5501,-698.65,0,0
130791,81.0317,-695.728,0,0
131051,81.4286,-692.987,0,0
131311,81.7896,-690.316,0,0
131572,82.1273,-687.71,0,0
131832,82.3363,-685.11,0,0
132092,82.5614,-682.437,0,0
132353,82.8197,-679.774,0,0
132613,83.0898,-677.136,0,0
132873,83.3011,-674.583,0,0
133134,83.4281,-671.983,0,0
133394,83.4807,-669.32,0,0
133654,83.5958,-666.54,0,0
133915,83.7348,-663.754,0,0
134175,83.8969,-660.906,0,0
134435,84.1238,-658.022,0,0
134696,84.4389,-655.161,0,0
134956,84.8267,-652.285,0,0
135216,85.2873,-649.513,0,0
135477,85.7195,-646.721,0,0
135737,86.2547,-643.962,0,0
135997,86.9671,-641.388,0,0
136258,87.4735,-639.184,0,0
136518,87.6387,-636.892,0,0
136778,87.7347,-634.531,0,0
137039,87.6908,-632.087,0,0
137299,87.5602,-629.527,0,0
137559,87.4019,-626.829,0,0
137819,87.1576,-623.994,0,0
138080,86.9684,-620.982,0,0
138340.125,86.8288,-617.794,0,0
138600.45,86.9232,-614.462,0,0
138860.775,87.1775,-611.136,0,0
139121.1,87.5886,-607.852,0,0
139381.425,87.9959,-604.683,0,0
139641.75,88.348,-601.497,0,0
139902.075,88.8016,-598.186,0,0
140162.4,89.4426,-594.96,0,0
140422.725,89.9955,-591.945,0,0
140683.05,90.4109,-588.856,0,0
140943.375,90.8325,-585.582,0,0
141203.7,91.4241,-582.294,0,0
141464.025,92.0639,-579.103,0,0
141724.35,92.6142,-575.975,0,0
141984.675,93.0288,-572.691,0,0
142245.0,93.5544,-569.261,0,0
142505.325,94.1849,-565.776,0,0
142765.65,94.8525,-562.252,0,0
143025.975,95.6121,-558.614,0,0
143286.3,96.5506,-554.924,0,0
143546.625,97.6347,-551.32,0,0
143806.95,98.7382,-547.809,0,0
144067.275,99.7669,-544.29,0,0
144327.6,100.88,-540.614,0,0
144587.925,102.091,-536.885,0,0
144848.25,103.527,-533.059,0,0
145108.575,105.175,-529.354,0,0
145368.9,106.885,-525.785,0,0
145629.225,108.673,-522.284,0,0
145889.55,110.426,-518.919,0,0
146149.875,112.122,-515.442,0,0
146410.2,113.993,-511.866,0,0
146670.525,116.086,-508.31,0,0
146930.85,118.405,-505.03,0,0
147191.175,120.673,-502.031,0,0
147451.5,122.712,-499.226,0,0
147711.825,124.44,-496.415,0,0
147972.15,125.894,-493.246,0,0
148232.475,127.427,-489.653,0,0
148492.8,129.332,-485.683,0,0
148753.125,131.664,-481.633,0,0
149013.45,134.357,-477.71,0,0
149273.775,137.295,-473.874,0,0
149534.1,140.46,-470.208,0,0
149794.425,143.707,-466.374,0,0
150054.75,147.441,-462.414,0,0
150315.075,151.692,-458.812,0,0
150575.4,156.382,-455.573,0,0
150835.725,161.277,-452.835,0,0
151096.05,166.602,-450.43,0,0
151356.375,172.144,-448.839,0,0
151616.7,177.604,-448.171,0,0
151877.025,182.55,-448.169,0,0
152137.35,186.873,-448.316,0,0
152397.675,191.085,-448.881,0,0
152658.0,194.72,-449.729,0,0
152918.325,197.912,-450.366,0,0
153178.65,201.089,-451.276,0,0
153438.975,203.704,-452.473,0,0
153699.3,205.561,-453.732,0,0
153959.625,206.702,-454.146,0,0
154219.95,208.339,-454.122,0,0
154480,209.644,-454.199,0,0
154741,210.82,-453.46,0,0
155001,213.095,-452.092,0,0
155261,216.3,-451.499,0,0
155522,219.804,-451.649,0,0
155782,223.375,-453.159,0,0
156042,226.087,-455.72,0,0
156303,227.515,-459.072,0,0
156563,227.147,-462.447,0,0
156823,225.473,-464.736,0,0
157084,222.728,-465.756,0,0
157344,219.87,-464.959,0,0
157604,217.788,-462.627,0,0
157864,216.933,-459.389,0,0
158125,217.654,-456.149,0,0
158385,219.239,-453.775,0,0
158645,221.203,-451.903,0,0
158906,223.194,-450.99,0,0
159166,225.037,-450.298,0,0
159426,227.077,-450.271,0,0
159687,228.328,-451.049,0,0
159947,228.489,-452.169,0,0
160207,227.703,-452.845,0,0
160468,226.175,-452.727,0,0
160728,224.111,-451.474,0,0
160988,222.575,-448.71,0,0
161249,221.865,-445.54,0,0
161509,221.999,-441.891,0,0
161769,223.223,-438.236,0,0
162030,225.099,-434.928,0,0
162290,227.863,-432.353,0,0
162550,230.894,-430.781,0,0
162811,233.429,-430.111,0,0
163071,235.387,-429.822,0,0
163331,237.123,-429.484,0,0
163592,238.495,-429.452,0,0
163852,239.596,-429.207,0,0
164112,240.479,-428.956,0,0
164373,241.252,-428.694,0,0
164633,242.156,-428.459,0,0
164893,242.87,-428.358,0,0
165154,243.474,-428.257,0,0
165414,244.082,-428.665,0,0
165674,244.328,-429.489,0,0
165935,243.411,-430.678,0,0
166195,241.461,-430.943,0,0
166455,239.724,-430.484,0,0
166716,237.68,-430.051,0,0
166976,235.122,-429.052,0,0
167236,232.452,-427.162,0,0
167497,230.244,-424.652,0,0
167757,228.329,-421.935,0,0
168017,226.358,-419.139,0,0
168277,224.573,-415.872,0,0
168538,222.857,-412.461,0,0
168798,221.19,-408.772,0,0
169058,219.629,-404.64,0,0
169319,218.525,-400.007,0,0
169579,217.866,-395.461,0,0
169839,217.308,-391.014,0,0
170100,216.839,-386.223,0,0
170360.075,216.604,-381.282,0,0
170620.4,216.709,-376.265,0,0
170880.725,216.962,-371.266,0,0
171141.05,217.282,-366.247,0,0
171401.375,217.526,-360.901,0,0
171661.7,218.027,-354.945,0,0
171922.025,219.46,-348.742,0,0
172182.35,221.529,-342.854,0,0
172442.675,223.969,-337.443,0,0
172703.0,226.253,-332.517,0,0
172963.325,228.494,-327.141,0,0
173223.65,231.215,-321.807,0,0
173483.975,234.262,-316.749,0,0
173744.3,237.504,-312.21,0,0
174004.625,240.474,-307.907,0,0
174264.95,243.365,-303.821,0,0
174525.275,245.957,-300.029,0,0
174785.6,247.793,-295.976,0,0
175045.925,249.384,-291.124,0,0
175306.25,251.227,-285.559,0,0
175566.575,253.557,-279.526,0,0
175826.9,256.533,-273.186,0,0
176087.225,260.12,-266.91,0,0
176347.55,264.285,-260.69,0,0
176607.875,268.881,-254.842,0,0
176868.2,273.622,-249.524,0,0
177128.525,278.092,-244.467,0,0
177388.85,282.237,-239.234,0,0
177649.175,286.062,-233.375,0,0
177909.5,290.462,-226.683,0,0
178169.825,295.935,-219.74,0,0
178430.15,302.184,-213.017,0,0
178690.475,308.967,-206.596,0,0
178950.8,316.229,-200.365,0,0
179211.125,324.054,-194.452,0,0
179471.45,332.16,-189.244,0,0
179731.775,340.041,-184.048,0,0
179992.1,348.609,-178.616,0,0
180252.425,358.044,-173.985,0,0
180512.75,367.091,-169.968,0,0
180773.075,376.127,-165.668,0,0
181033.4,386.123,-161.183,0,0
181293.725,397.068,-157.599,0,0
181554.05,407.877,-154.592,0,0
181814.375,419.288,-151.99,0,0
182074.7,431.237,-150.434,0,0
182335.025,443.081,-149.977,0,0
182595.35,454.685,-150.59,0,0
182855.675,465.614,-151.949,0,0
183116.0,476.013,-153.619,0,0
183376.325,485.951,-155.779,0,0
183636.65,495.302,-158.59,0,0
183896.975,503.108,-161.45,0,0
184157.3,510.037,-162.826,0,0
184417.625,517.765,-162.878,0,0
184677.95,526.835,-162.933,0,0
184938.275,536.507,-163.84,0,0
185198.6,546.412,-165.081,0,0
185458.925,556.596,-167.36,0,0
185719.25,566.3,-170.377,0,0
185979.575,575.501,-173.303,0,0
186239.9,585.193,-176.444,0,0
186500,594.667,-180.888,0,0
186761,602.865,-185.577,0,0
187021,610.614,-189.829,0,0
187281,618.228,-193.971,0,0
187542,625.627,-198.086,0,0
187802,632.712,-202.002,0,0
188062,639.944,-205.382,0,0
188322,647.767,-208.811,0,0
188583,656.074,-213.141,0,0
188843,663.6,-217.721,0,0
189103,670.642,-222.435,0,0
189364,677.094,-226.726,0,0
189624,683.888,-230.365,0,0
189884,691.1,-234.37,0,0
190145,697.675,-238.397,0,0
190405,704.187,-241.335,0,0
190665,711.716,-243.617,0,0
190926,720.805,-246,0,0
191186,731.064,-249.749,0,0
191446,741.174,-255.157,0,0
191707,750.485,-261.475,0,0
191967,758.684,-268.428,0,0
192227,765.399,-274.928,0,0
192488,771.513,-279.665,0,0
192748,778.435,-282.776,0,0
193008,787.389,-284.751,0,0
193269,798.668,-287.202,0,0
193529,811.738,-290.724,0,0
193789,826.613,-296.022,0,0
194050,842.064,-304.138,0,0
194310,856.673,-314.209,0,0
194570,871.019,-325.313,0,0
194831,885.019,-338.048,0,0
195091,898.259,-351.924,0,0
195351,911.038,-366.767,0,0
195612,923.613,-382.398,0,0
195872,936.438,-399.558,0,0
196132,948.852,-419.229,0,0
196393,959.516,-441.565,0,0
196653,967.119,-465.316,0,0
196913,972.586,-488.952,0,0
197174,976.649,-512.78,0,0
197434,979.196,-537.516,0,0
197694,979.431,-562.877,0,0
197955,977.345,-588.209,0,0
198215,973.076,-612.86,0,0
198475,966.997,-637.065,0,0
198735,959.093,-660.624,0,0
198996,949.58,-683.112,0,0
199256,938.263,-704.956,0,0
199516,925.188,-725.82,0,0
199777,909.864,-744.842,0,0
200037,893.026,-761.197,0,0
200297,876.041,-774.776,0,0
200558,859.553,-786.351,0,0
200818,843.741,-796.449,0,0
201078,828.886,-805.307,0,0
201339,814.94,-814.111,0,0
201599,800.871,-823.28,0,0
201859,785.934,-832.439,0,0
202120,769.377,-841.436,0,0
202380.025,751.02,-848.532,0,0
202640.35,731.801,-852.304,0,0
202900.675,714.174,-853.343,0,0
203161.0,697.911,-853.197,0,0
203421.325,682.621,-852.007,0,0
203681.65,668.535,-849.815,0,0
203941.975,655.582,-847.092,0,0
204202.3,643.867,-844.062,0,0
204462.625,632.942,-841.019,0,0
204722.95,622.51,-837.968,0,0
204983.275,612.3,-834.548,0,0
205243.6,602.473,-830.744,0,0
205503.925,592.814,-826.315,0,0
205764.25,583.874,-821.223,0,0
206024.575,575.505,-815.426,0,0
206284.9,568.188,-808.68,0,0
206545.225,562.348,-801.313,0,0
206805.55,558.34,-793.842,0,0
207065.875,556.026,-787.224,0,0
207326.2,554.502,-781.518,0,0
207586.525,553.559,-776.637,0,0
207846.85,553.149,-772.328,0,0
208107.175,553.212,-769.048,0,0
208367.5,553.068,-766.57,0,0
208627.825,552.698,-764.5,0,0
208888.15,552.322,-762.689,0,0
209148.475,551.716,-761.08,0,0
209408.8,550.954,-759.306,0,0
209669.125,550.486,-757.234,0,0
209929.45,550.685,-755.045,0,0
210189.775,551.462,-753.142,0,0
210450.1,552.623,-751.686,0,0
210710.425,554.316,-750.656,0,0
210970.75,556.295,-750.343,0,0
211231.075,558.298,-750.621,0,0
211491.4,560.423,-751.387,0,0
211751.725,562.699,-752.817,0,0
212012.05,564.825,-755.015,0,0
212272.375,566.522,-757.823,0,0
212532.7,567.821,-760.995,0,0
212793.025,568.717,-764.426,0,0
213053.35,569.349,-768.162,0,0
213313.675,569.607,-772.119,0,0
213574.0,569.466,-776.059,0,0
213834.325,569.13,-780.006,0,0
214094.65,568.676,-783.932,0,0
214354.975,568.244,-788.105,0,0
214615.3,567.687,-792.568,0,0
214875.625,566.855,-797.383,0,0
215135.95,565.608,-802.557,0,0
215396.275,563.873,-807.992,0,0
215656.6,561.498,-813.476,0,0
215916.925,558.599,-818.897,0,0
216177.25,555.342,-824.225,0,0
216437.575,551.512,-829.471,0,0
216697.9,547.121,-834.344,0,0
216958.225,542.481,-838.75,0,0
217218.55,537.722,-842.69,0,0
217478.875,533.022,-846.136,0,0
217739.2,528.535,-849.727,0,0
217999.525,523.784,-853.431,0,0
218259.85,518.698,-857.136,0,0
218520,513.29,-860.695,0,0
218780,507.641,-863.844,0,0
219041,501.619,-866.564,0,0
219301,495.634,-869.023,0,0
219561,489.678,-871.167,0,0
219822,483.525,-873.142,0,0
220082,477.127,-874.818,0,0
220342,470.593,-876.138,0,0
220603,463.921,-876.654,0,0
220863,457.475,-876.643,0,0
221123,451.485,-876.093,0,0
221384,445.953,-875.321,0,0
221644,440.857,-874.361,0,0
221904,436.095,-873.643,0,0
222165,431.364,-872.872,0,0
222425,426.722,-871.972,0,0
222685,422.235,-870.937,0,0
222946,418.006,-869.602,0,0
223206,414.211,-868.104,0,0
223466,411.09,-866.685,0,0
223727,408.038,-865.612,0,0
223987,405.109,-864.633,0,0
224247,402.337,-863.844,0,0
224508,399.745,-863.101,0,0
224768,397.418,-862.44,0,0
225028,395.315,-862.151,0,0
225289,393.181,-862.255,0,0
225549,391.143,-862.763,0,0
225809,388.921,-863.587,0,0
226070,386.421,-864.757,0,0
226330,383.626,-866.051,0,0
226590,380.519,-867.63,0,0
226851,376.894,-869.145,0,0
227111,372.888,-870.402,0,0
227371,368.732,-871.568,0,0
227632,364.18,-872.454,0,0
227892,359.467,-872.876,0,0
228152,355.011,-872.78,0,0
228413,350.875,-872.527,0,0
228673,347.095,-872.269,0,0
228933,343.456,-872.292,0,0
229193,339.888,-872.565,0,0
229454,336.107,-873.068,0,0
229714,332.195,-873.665,0,0
229974,327.894,-874.294,0,0
230235,323.436,-875.011,0,0
230495,318.563,-875.67,0,0
230755,313.244,-875.98,0,0
231016,307.887,-875.864,0,0
231276,302.518,-875.538,0,0
231536,297.086,-875.025,0,0
231797,291.573,-874.26,0,0
232057,286.106,-873.19,0,0
232317,280.714,-872.082,0,0
232578,275.168,-870.717,0,0
232838,269.64,-869.159,0,0
233098,264.032,-867.379,0,0
233359,258.362,-865.42,0,0
233619,252.537,-863.02,0,0
233879,246.887,-860.114,0,0
234140,241.456,-856.852,0,0
234400,236.306,-853.372,0,0
234660.3,231.333,-849.564,0,0
234920.625,226.572,-845.464,0,0
235180.95,222.241,-841.049,0,0
235441.275,218.383,-836.617,0,0
235701.6,214.896,-832.172,0,0
235961.925,211.687,-827.742,0,0
236222.25,208.721,-823.314,0,0
236482.575,206.033,-818.934,0,0
236742.9,203.565,-814.635,0,0
237003.225,201.34,-810.417,0,0
237263.55,199.203,-806.299,0,0
237523.875,197.172,-802.204,0,0
237784.2,195.243,-798.112,0,0
238044.525,193.448,-793.931,0,0
238304.85,191.899,-789.61,0,0
238565.175,190.724,-785.273,0,0
238825.5,189.883,-781.052,0,0
239085.825,189.477,-776.962,0,0
239346.15,189.368,-773.251,0,0
239606.475,189.373,-770.003,0,0
239866.8,189.402,-767.017,0,0
240127.125,189.439,-764.243,0,0
240387.45,189.414,-761.715,0,0
240647.775,189.393,-759.297,0,0
240908.1,189.45,-757.223,0,0
241168.425,189.471,-755.474,0,0
241428.75,189.152,-754.109,0,0
241689.075,188.395,-752.671,0,0
241949.4,187.419,-751.296,0,0
242209.725,186.245,-749.728,0,0
242470.05,184.839,-747.915,0,0
242730.375,183.417,-746.036,0,0
242990.7,182.036,-743.839,0,0
243251.025,180.81,-741.549,0,0
243511.35,179.678,-739.223,0,0
243771.675,178.544,-736.868,0,0
244032.0,177.483,-734.47,0,0
244292.325,176.584,-731.946,0,0
244552.65,175.816,-729.508,0,0
244812.975,175.23,-727.031,0,0
245073.3,174.535,-724.768,0,0
245333.625,173.856,-722.494,0,0
245593.95,173.223,-720.007,0,0
245854.275,172.76,-717.465,0,0
246114.6,172.497,-715.049,0,0
246374.925,172.455,-712.657,0,0
246635.25,172.446,-710.553,0,0
246895.575,172.542,-708.647,0,0
247155.9,172.433,-706.907,0,0
247416.225,172.228,-705.257,0,0
247676.55,171.916,-703.466,0,0
247936.875,171.685,-701.753,0,0
248197.2,171.388,-700.069,0,0
248457.525,171.099,-698.413,0,0
248717.85,170.739,-696.718,0,0
248978.175,170.363,-694.993,0,0
249238.5,170.017,-693.272,0,0
249498.825,169.64,-691.489,0,0
249759.15,169.199,-689.579,0,0
250019.475,168.915,-687.724,0,0
250279.8,168.713,-685.798,0,0
250540,168.608,-683.859,0,0
250800,168.58,-681.838,0,0
251061,168.721,-679.959,0,0
251321,168.931,-678.163,0,0
251581,169.276,-676.457,0,0
251842,169.653,-674.859,0,0
252102,170.061,-673.355,0,0
252362,170.54,-671.983,0,0
252623,171.051,-670.787,0,0
252883,171.561,-669.791,0,0
253143,171.945,-668.983,0,0
253404,172.184,-668.317,0,0
253664,172.272,-667.759,0,0
253924,172.128,-667.275,0,0
254185,171.785,-666.724,0,0
254445,171.346,-666.176,0,0
254705,170.725,-665.524,0,0
254966,170.014,-664.759,0,0
255226,169.2,-663.954,0,0
255486,168.217,-663.013,0,0
255747,167.215,-661.918,0,0
256007,166.218,-660.613,0,0
256267,165.159,-659.229,0,0
256528,164.112,-657.65,0,0
256788,163.059,-655.871,0,0
257048,162.097,-653.869,0,0
257309,161.312,-651.716,0,0
257569,160.733,-649.405,0,0
257829,160.345,-647.039,0,0
258090,160.177,-644.647,0,0
258350,160.192,-642.256,0,0
258610,160.374,-639.904,0,0
258871,160.728,-637.559,0,0
259131,161.233,-635.273,0,0
259391,161.957,-633.104,0,0
259651,162.9,-631.073,0,0
259912,163.907,-629.263,0,0
260172,164.837,-627.696,0,0
260432,165.764,-626.291,0,0
260693,166.596,-624.82,0,0
260953,167.444,-623.422,0,0
261213,168.376,-622.089,0,0
261474,169.281,-620.885,0,0
261734,170.172,-619.704,0,0
261994,171.043,-618.652,0,0
262255,171.861,-617.72,0,0
262515,172.39,-616.865,0,0
262775,172.772,-615.796,0,0
263036,173.156,-614.524,0,0
263296,173.676,-613.154,0,0
263556,174.258,-611.772,0,0
263817,174.853,-610.326,0,0
264077,175.499,-608.715,0,0
264337,176.283,-607.07,0,0
264598,177.156,-605.321,0,0
264858,178.175,-603.488,0,0
265118,179.392,-601.534,0,0
265379,180.857,-599.614,0,0
265639,182.63,-597.544,0,0
265899,184.682,-595.588,0,0
266160,187.04,-593.679,0,0
266420,189.77,-591.968,0,0
266680.25,192.797,-590.495,0,0
266940.575,196.065,-589.286,0,0
267200.9,199.614,-588.352,0,0
267461.225,203.439,-587.76,0,0
267721.55,207.442,-587.647,0,0
267981.875,211.554,-588.108,0,0
268242.2,215.661,-589.04,0,0
268502.525,219.666,-590.561,0,0
268762.85,223.389,-592.42,0,0
269023.175,226.949,-594.649,0,0
269283.5,230.24,-597.073,0,0
269543.825,233.397,-599.65,0,0
269804.15,236.54,-602.498,0,0
270064.475,239.651,-605.761,0,0
270324.8,242.63,-609.494,0,0
270585.125,245.31,-613.799,0,0
270845.45,247.509,-618.518,0,0
271105.775,249.169,-623.529,0,0
271366.1,250.262,-628.755,0,0
271626.425,250.871,-634.022,0,0
271886.75,251.035,-639.312,0,0
272147.075,250.874,-644.732,0,0
272407.4,250.307,-650.262,0,0
272667.725,249.29,-655.97,0,0
272928.05,247.624,-661.963,0,0
273188.375,245.121,-667.9,0,0
273448.7,241.855,-673.602,0,0
273709.025,237.836,-678.953,0,0
273969.35,233.166,-683.823,0,0
274229.675,227.94,-688.053,0,0
274490.0,222.321,-691.506,0,0
274750.325,216.529,-694.259,0,0
275010.65,210.68,-696.314,0,0
275270.975,204.877,-697.779,0,0
275531.3,199.215,-698.696,0,0
275791.625,193.683,-699.147,0,0
276051.95,188.379,-699.213,0,0
276312.275,183.215,-699.002,0,0
276572.6,178.161,-698.462,0,0
276832.925,173.289,-697.61,0,0
277093.25,168.605,-696.472,0,0
277353.575,164.123,-695.047,0,0
277613.9,159.864,-693.364,0,0
277874.225,155.86,-691.57,0,0
278134.55,152.017,-689.61,0,0
278394.875,148.358,-687.479,0,0
278655.2,144.899,-685.173,0,0
278915.525,141.635,-682.691,0,0
279175.85,138.606,-680.052,0,0
279436.175,135.857,-677.238,0,0
279696.5,133.413,-674.362,0,0
279956.825,131.282,-671.443,0,0
280217.15,129.454,-668.462,0,0
280477.475,128.005,-665.526,0,0
280737.8,126.823,-662.781,0,0
280998.125,125.86,-660.194,0,0
281258.45,125.028,-657.776,0,0
281518.775,124.317,-655.507,0,0
281779.1,123.694,-653.383,0,0
282039.425,123.128,-651.362,0,0
282299.75,122.662,-649.455,0,0
282560,122.271,-647.719,0,0
282820,121.879,-646.116,0,0
283081,121.414,-644.648,0,0
283341,120.901,-643.214,0,0
283601,120.331,-641.782,0,0
283862,119.772,-640.297,0,0
284122,119.283,-638.782,0,0
284382,118.836,-637.262,0,0
284643,118.468,-635.773,0,0
284903,118.128,-634.229,0,0
285163,117.915,-632.671,0,0
285424,117.91,-631.095,0,0
285684,118.056,-629.631,0,0
285944,118.371,-628.272,0,0
286205,118.866,-627.071,0,0
286465,119.467,-626.027,0,0
286725,120.234,-625.257,0,0
286986,121.099,-624.799,0,0
287246,121.965,-624.723,0,0
287506,122.721,-625.029,0,0
287767,123.246,-625.688,0,0
288027,123.453,-626.618,0,0
288287,123.287,-627.715,0,0
288548,122.744,-628.92,0,0
288808,121.808,-630.08,0,0
289068,120.558,-631.132,0,0
289329,119.02,-632.078,0,0
289589,117.181,-632.89,0,0
289849,115.117,-633.407,0,0
290109,112.879,-633.638,0,0
290370,110.618,-633.501,0,0
290630,108.407,-633.145,0,0
290890,106.328,-632.61,0,0
291151,104.305,-631.991,0,0
291411,102.338,-631.327,0,0
291671,100.369,-630.591,0,0
291932,98.3486,-629.772,0,0
292192,96.3095,-628.816,0,0
292452,94.3286,-627.703,0,0
292713,92.419,-626.47,0,0
292973,90.5882,-625.145,0,0
293233,88.8497,-623.779,0,0
293494,87.1371,-622.361,0,0
293754,85.4869,-620.872,0,0
294014,83.8587,-619.321,0,0
294275,82.3097,-617.705,0,0
294535,80.826,-616.017,0,0
294795,79.4382,-614.264,0,0
295056,78.1226,-612.427,0,0
295316,76.9405,-610.568,0,0
295576,75.8604,-608.713,0,0
295837,74.8833,-606.868,0,0
296097,73.9944,-605.063,0,0
296357,73.1662,-603.276,0,0
296618,72.3803,-601.568,0,0
296878,71.6071,-599.856,0,0
297138,70.8565,-598.171,0,0
297399,70.1068,-596.472,0,0
297659,69.4013,-594.748,0,0
297919,68.7138,-593.009,0,0
298180,68.0731,-591.268,0,0
298440,67.4918,-589.497,0,0
298700.2,66.9769,-587.753,0,0
298960.525,66.4746,-586.002,0,0
299220.85,66.0236,-584.233,0,0
299481.175,65.6184,-582.47,0,0
299741.5,65.272,-580.718,0,0
300001.825,64.9616,-578.951,0,0
300262.15,64.7087,-577.183,0,0
300522.475,64.5363,-575.446,0,0
300782.8,64.4135,-573.718,0,0
301043.125,64.3329,-571.99,0,0
301303.45,64.3303,-570.274,0,0
301563.775,64.4076,-568.59,0,0
301824.1,64.5477,-566.962,0,0
302084.425,64.7393,-565.377,0,0
302344.75,64.9991,-563.865,0,0
302605.075,65.2776,-562.411,0,0
302865.4,65.5906,-561.021,0,0
303125.725,65.931,-559.691,0,0
303386.05,66.2949,-558.423,0,0
303646.375,66.6738,-557.226,0,0
303906.7,67.0484,-556.085,0,0
304167.025,67.4109,-554.996,0,0
304427.35,67.7648,-553.961,0,0
304687.675,68.1162,-552.945,0,0
304948.0,68.4732,-551.955,0,0
305208.325,68.8582,-551.022,0,0
305468.65,69.2549,-550.146,0,0
305728.975,69.6308,-549.339,0,0
305989.3,70.0053,-548.581,0,0
306249.625,70.3373,-547.88,0,0
306509.95,70.6404,-547.212,0,0
306770.275,70.927,-546.561,0,0
307030.6,71.1745,-545.947,0,0
307290.925,71.4358,-545.338,0,0
307551.25,71.6751,-544.759,0,0
307811.575,71.9352,-544.234,0,0
308071.9,72.1739,-543.761,0,0
308332.225,72.3909,-543.348,0,0
308592.55,72.5543,-543.034,0,0
308852.875,72.6052,-542.771,0,0
309113.2,72.5641,-542.521,0,0
309373.525,72.4103,-542.233,0,0
309633.85,72.1656,-541.878,0,0
309894.175,71.9126,-541.438,0,0
310154.5,71.6629,-540.958,0,0
310414.825,71.4473,-540.427,0,0
310675.15,71.2414,-539.889,0,0
310935.475,71.0312,-539.336,0,0
311195.8,70.8597,-538.779,0,0
311456.125,70.6888,-538.236,0,0
311716.45,70.5481,-537.724,0,0
311976.775,70.3966,-537.231,0,0
312237.1,70.2162,-536.783,0,0
312497.425,69.9992,-536.349,0,0
312757.75,69.7373,-535.903,0,0
313018.075,69.4494,-535.452,0,0
313278.4,69.1214,-534.992,0,0
313538.725,68.7892,-534.505,0,0
313799.05,68.4179,-534,0,0
314059.375,68.0272,-533.47,0,0
314319.7,67.6534,-532.912,0,0
314580,67.3218,-532.314,0,0
314840,66.9074,-531.75,0,0
315101,66.4707,-531.113,0,0
315361,66.0384,-530.452,0,0
315621,65.6676,-529.736,0,0
315882,65.1905,-529.055,0,0
316142,64.8696,-528.268,0,0
316402,64.5938,-527.5,0,0
316663,64.2788,-526.746,0,0
316923,64.036,-525.94,0,0
317183,63.764,-525.263,0,0
317444,63.5723,-524.553,0,0
317704,63.3463,-523.793,0,0
317964,63.1343,-523.121,0,0
318225,62.8872,-522.401,0,0
318485,62.7025,-521.668,0,0
318745,62.4771,-520.987,0,0
319006,62.29,-520.215,0,0
319266,62.1365,-519.468,0,0
319526,61.944,-518.79,0,0
319787,61.8892,-518.087,0,0
320047,61.8006,-517.363,0,0
320307,61.7193,-516.77,0,0
320567,61.6704,-516.207,0,0
320828,61.5492,-515.632,0,0
321088,61.4291,-515.116,0,0
321348,61.2898,-514.536,0,0
321609,61.1907,-514.026,0,0
321869,61.0557,-513.539,0,0
322129,60.8809,-513.131,0,0
322390,60.6613,-512.624,0,0
322650,60.4842,-512.18,0,0
322910,60.2471,-511.751,0,0
323171,59.9545,-511.336,0,0
323431,59.6379,-510.943,0,0
323691,59.2478,-510.538,0,0
323952,58.9573,-510.112,0,0
324212,58.5174,-509.644,0,0
324472,58.0429,-509.163,0,0
324733,57.5463,-508.612,0,0
324993,57.1184,-508.061,0,0
325253,56.5858,-507.42,0,0
325514,56.1483,-506.829,0,0
325774,55.6404,-506.112,0,0
326034,55.2281,-505.367,0,0
326295,54.7616,-504.701,0,0
326555,54.4275,-503.911,0,0
326815,54.0488,-503.148,0,0
327076,53.6628,-502.408,0,0
327336,53.3658,-501.781,0,0
327596,52.9895,-501.027,0,0
327857,52.6752,-500.309,0,0
328117,52.3129,-499.58,0,0
328377,51.9928,-498.826,0,0
328638,51.582,-498.13,0,0
328898,51.2769,-497.405,0,0
329158,50.8675,-496.628,0,0
329419,50.5348,-495.871,0,0
329679,50.1497,-495.092,0,0
329939,49.8843,-494.256,0,0
330200,49.551,-493.485,0,0
330460,49.27,-492.655,0,0
330720.15,48.9805,-491.832,0,0
330980.475,48.6578,-491.007,0,0
331240.8,48.3623,-490.183,0,0
331501.125,48.0673,-489.36,0,0
331761.45,47.805,-488.485,0,0
332021.775,47.5392,-487.628,0,0
332282.1,47.3107,-486.712,0,0
332542.425,47.1163,-485.773,0,0
332802.75,46.9156,-484.871,0,0
333063.075,46.7586,-483.969,0,0
333323.4,46.6051,-483.027,0,0
333583.725,46.5444,-482.162,0,0
333844.05,46.4052,-481.279,0,0
334104.375,46.3595,-480.369,0,0
334364.7,46.3809,-479.482,0,0
334625.025,46.3903,-478.636,0,0
334885.35,46.4503,-477.795,0,0
335145.675,46.4803,-477.042,0,0
335406.0,46.5481,-476.258,0,0
335666.325,46.6116,-475.581,0,0
335926.65,46.7091,-474.868,0,0
336186.975,46.7233,-474.202,0,0
336447.3,46.7542,-473.599,0,0
336707.625,46.8234,-472.951,0,0
336967.95,46.7731,-472.376,0,0
337228.275,46.761,-471.83,0,0
337488.6,46.7267,-471.26,0,0
337748.925,46.6865,-470.68,0,0
338009.25,46.6083,-470.147,0,0
338269.575,46.4693,-469.609,0,0
338529.9,46.3324,-469.056,0,0
338790.225,46.1991,-468.522,0,0
339050.55,46.0328,-467.933,0,0
339310.875,45.8284,-467.456,0,0
339571.2,45.6987,-466.785,0,0
339831.525,45.4895,-466.159,0,0
340091.85,45.2754,-465.565,0,0
340352.175,45.0799,-464.887,0,0
340612.5,44.8514,-464.294,0,0
340872.825,44.6585,-463.632,0,0
341133.15,44.3864,-462.978,0,0
341393.475,44.1462,-462.265,0,0
341653.8,43.9261,-461.558,0,0
341914.125,43.7422,-460.811,0,0
342174.45,43.5284,-460.072,0,0
342434.775,43.3321,-459.316,0,0
342695.1,43.1697,-458.523,0,0
342955.425,42.9492,-457.775,0,0
343215.75,42.8064,-457.016,0,0
343476.075,42.6263,-456.2,0,0
343736.4,42.4889,-455.394,0,0
343996.725,42.3524,-454.561,0,0
344257.05,42.2124,-453.757,0,0
344517.375,42.1603,-452.909,0,0
344777.7,42.0907,-452.022,0,0
345038.025,42.0098,-451.221,0,0
345298.35,41.9819,-450.397,0,0
345558.675,41.9517,-449.537,0,0
345819.0,41.9759,-448.743,0,0
346079.325,41.9578,-447.877,0,0
346339.65,41.9743,-447.054,0,0
346599.975,42.0012,-446.25,0,0
346860,42.0751,-445.429,0,0
347121,42.1433,-444.658,0,0
347381,42.1843,-443.829,0,0
347641,42.2698,-443.061,0,0
347902,42.371,-442.276,0,0
348162,42.4584,-441.491,0,0
348422,42.5652,-440.754,0,0
348683,42.6729,-439.98,0,0
348943,42.7912,-439.209,0,0
349203,42.9413,-438.508,0,0
349464,43.0677,-437.708,0,0
349724,43.2165,-436.973,0,0
349984,43.4647,-436.236,0,0
350245,43.6286,-435.496,0,0
350505,43.8389,-434.801,0,0
350765,44.0397,-434.11,0,0
351025,44.3101,-433.449,0,0
351286,44.5531,-432.83,0,0
351546,44.7651,-432.193,0,0
351806,45.0059,-431.573,0,0
352067,45.2532,-430.971,0,0
352327,45.4858,-430.416,0,0
352587,45.6968,-429.872,0,0
352848,45.8983,-429.31,0,0
353108,46.1332,-428.774,0,0
353368,46.3658,-428.248,0,0
353629,46.5666,-427.709,0,0
353889,46.7599,-427.225,0,0
354149,46.9312,-426.73,0,0
354410,47.1602,-426.228,0,0
354670,47.3623,-425.75,0,0
354930,47.5558,-425.295,0,0
355191,47.6939,-424.849,0,0
355451,47.8991,-424.383,0,0
355711,48.0782,-423.928,0,0
355972,48.2145,-423.508,0,0
356232,48.3692,-423.095,0,0
356492,48.5396,-422.65,0,0
356753,48.7026,-422.235,0,0
357013,48.8244,-421.856,0,0
357273,48.931,-421.413,0,0
357534,49.0354,-420.969,0,0
357794,49.1582,-420.577,0,0
358054,49.2898,-420.173,0,0
358315,49.3595,-419.729,0,0
358575,49.4708,-419.329,0,0
358835,49.5702,-418.943,0,0
359096,49.6611,-418.535,0,0
359356,49.7698,-418.148,0,0
359616,49.875,-417.706,0,0
359877,49.9451,-417.313,0,0
360137,50.0673,-416.887,0,0
360397,50.1076,-416.461,0,0
360658,50.2062,-416.058,0,0
360918,50.3002,-415.673,0,0
361178,50.4259,-415.319,0,0
361438,50.4852,-414.911,0,0
361699,50.5924,-414.59,0,0
361959,50.6785,-414.151,0,0
362219,50.7025,-413.809,0,0
362480,50.756,-413.451,0,0
362740.1,50.8191,-413.116,0,0
363000.425,50.8696,-412.715,0,0
363260.75,50.8928,-412.357,0,0
363521.075,50.9516,-411.94,0,0
363781.4,50.9924,-411.583,0,0
364041.725,51.004,-411.208,0,0
364302.05,51.0133,-410.832,0,0
364562.375,51.0201,-410.452,0,0
364822.7,51.0751,-410.065,0,0
365083.025,51.101,-409.653,0,0
365343.35,51.17,-409.299,0,0
365603.675,51.2076,-408.905,0,0
365864.0,51.2076,-408.505,0,0
366124.325,51.2205,-408.133,0,0
366384.65,51.2349,-407.72,0,0
366644.975,51.2631,-407.329,0,0
366905.3,51.2539,-406.921,0,0
367165.625,51.3246,-406.53,0,0
367425.95,51.3362,-406.136,0,0
367686.275,51.3402,-405.71,0,0
367946.6,51.3824,-405.306,0,0
368206.925,51.3795,-404.87,0,0
368467.25,51.3794,-404.449,0,0
368727.575,51.4246,-403.993,0,0
368987.9,51.4798,-403.511,0,0
369248.225,51.5871,-403.043,0,0
369508.55,51.646,-402.627,0,0
369768.875,51.8576,-402.153,0,0
370029.2,52.0034,-401.727,0,0
370289.525,52.2159,-401.354,0,0
370549.85,52.3556,-400.953,0,0
370810.175,52.6133,-400.665,0,0
371070.5,52.7861,-400.403,0,0
371330.825,53.0052,-400.149,0,0
371591.15,53.1644,-399.979,0,0
371851.475,53.2503,-399.772,0,0
372111.8,53.3659,-399.643,0,0
372372.125,53.4893,-399.484,0,0
372632.45,53.5266,-399.368,0,0
372892.775,53.5614,-399.229,0,0
373153.1,53.5346,-399.147,0,0
373413.425,53.4513,-399.012,0,0
373673.75,53.3631,-398.895,0,0
373934.075,53.2333,-398.74,0,0
374194.4,53.0503,-398.602,0,0
374454.725,52.9204,-398.419,0,0
374715.05,52.6725,-398.235,0,0
374975.375,52.4226,-397.97,0,0
375235.7,52.1698,-397.66,0,0
375496.025,51.9336,-397.331,0,0
375756.35,51.6971,-396.917,0,0
376016.675,51.514,-396.532,0,0
376277.0,51.2935,-396.097,0,0
376537.325,51.1688,-395.687,0,0
376797.65,51.0862,-395.203,0,0
377057.975,51.0488,-394.819,0,0
377318.3,51.0121,-394.414,0,0
377578.625,50.9449,-394.074,0,0
377838.95,50.8789,-393.762,0,0
378099.275,50.7412,-393.501,0,0
378359.6,50.6004,-393.207,0,0
378619.925,50.4459,-392.875,0,0
378880,50.2332,-392.522,0,0
379141,49.9581,-392.088,0,0
379401,49.7215,-391.622,0,0
379661,49.4909,-391.135,0,0
379922,49.3223,-390.514,0,0
380182,49.2122,-389.889,0,0
380442,49.2348,-389.284,0,0
380703,49.2443,-388.672,0,0
380963,49.4384,-388.159,0,0
381223,49.631,-387.713,0,0
381483,49.85,-387.32,0,0
381744,50.052,-387.039,0,0
382004,50.2011,-386.867,0,0
382264,50.2407,-386.705,0,0
382525,50.1939,-386.61,0,0
382785,50.1606,-386.48,0,0
383045,50.0346,-386.331,0,0
383306,49.886,-386.151,0,0
383566,49.6817,-385.958,0,0
383826,49.4656,-385.742,0,0
384087,49.208,-385.565,0,0
384347,48.9369,-385.301,0,0
384607,48.5942,-385.078,0,0
384868,48.2795,-384.711,0,0
385128,47.9398,-384.409,0,0
385388,47.6086,-383.982,0,0
385649,47.271,-383.578,0,0
385909,46.9577,-383.112,0,0
386169,46.626,-382.667,0,0
386430,46.2951,-382.126,0,0
386690,46.0134,-381.625,0,0
386950,45.7105,-381.079,0,0
387211,45.4238,-380.478,0,0
387471,45.1241,-379.911,0,0
387731,44.9009,-379.276,0,0
387992,44.6869,-378.67,0,0
388252,44.4985,-378.017,0,0
388512,44.3447,-377.348,0,0
388773,44.159,-376.668,0,0
389033,44.0598,-376.017,0,0
389293,43.965,-375.352,0,0
389554,43.9142,-374.703,0,0
389814,43.863,-374.061,0,0
390074,43.8224,-373.454,0,0
390335,43.8249,-372.846,0,0
390595,43.8298,-372.246,0,0
390855,43.7969,-371.673,0,0
391116,43.7477,-371.111,0,0
391376,43.7464,-370.516,0,0
391636,43.7368,-369.971,0,0
391896,43.7148,-369.396,0,0
392157,43.7162,-368.879,0,0
392417,43.6923,-368.312,0,0
392677,43.6652,-367.784,0,0
392938,43.6323,-367.226,0,0
393198,43.5918,-366.682,0,0
393458,43.565,-366.11,0,0
393719,43.5553,-365.541,0,0
393979,43.5144,-364.974,0,0
394239,43.5087,-364.364,0,0
394500,43.4914,-363.792,0,0
394760.05,43.4741,-363.151,0,0
395020.375,43.5269,-362.577,0,0
395280.7,43.5359,-361.958,0,0
395541.025,43.5949,-361.35,0,0
395801.35,43.6557,-360.759,0,0
396061.675,43.6942,-360.158,0,0
396322.0,43.7909,-359.586,0,0
396582.325,43.8778,-359.014,0,0
396842.65,43.9596,-358.467,0,0
397102.975,44.0654,-357.958,0,0
397363.3,44.1457,-357.404,0,0
397623.625,44.2305,-356.865,0,0
397883.95,44.2909,-356.322,0,0
398144.275,44.3765,-355.824,0,0
398404.6,44.485,-355.283,0,0
398664.925,44.553,-354.748,0,0
398925.25,44.6728,-354.246,0,0
399185.575,44.7236,-353.724,0,0
399445.9,44.8053,-353.205,0,0
399706.225,44.8921,-352.695,0,0
399966.55,44.9404,-352.166,0,0
400006.6,44.9716,-352.098,0,0