File: Accelerated corrosion test data/2025-10-19_18-00-04/sample_1.csv
Frequency (Hz),Impedance (ohms),Phase (Radians),Temperature (C),Humidity (%)
10000.0,241.781,-12223.8,0,0
10260.325,250.754,-11909.7,0,0
10520.65,231.057,-11628.1,0,0
10780.975,228.702,-11343.5,0,0
11041.3,221.064,-11084.2,0,0
11301.625,215.85,-10826.9,0,0
11561.95,211.388,-10582.3,0,0
11822.275,210.003,-10342.5,0,0
12082.6,243.443,-10115.2,0,0
12342.925,209.306,-9939.56,0,0
12603.25,195.315,-9724.63,0,0
12863.575,192.479,-9522.44,0,0
13123.9,205.953,-9334.02,0,0
13384.225,185.848,-9158.76,0,0
13644.55,181.755,-8977.3,0,0
13904.875,184.439,-8797.1,0,0
14165.2,186.087,-8659.62,0,0
14425.525,207.218,-8511.25,0,0
14685.8,217.318,-8337.36,0,0
14946.175,175.957,-8227.21,0,0
15206.5,194.795,-8070.57,0,0
15466.825,173.126,-7951.65,0,0
15727.15,171.267,-7822.56,0,0
15987.5,160.719,-7690.35,0,0
16247.8,157.387,-7564.47,0,0
16508.125,155.96,-7441.19,0,0
16768.45,159.134,-7323.68,0,0
17028.775,164.451,-7217.05,0,0
17289.1,154.405,-7112.34,0,0
17549.425,151.447,-7008.54,0,0
17809.75,147.374,-6903.46,0,0
18070.075,148.795,-6805.69,0,0
18330.4,142.905,-6707.66,0,0
18590.725,138.234,-6613.45,0,0
18851.05,140.352,-6515.27,0,0
19111.375,135.566,-6433.56,0,0
19371.7,133.456,-6341.79,0,0
19632.025,132.871,-6252.5,0,0
19892.35,137.683,-6167.5,0,0
20152.675,137.459,-6078.25,0,0
20413.0,162.663,-5990.31,0,0
20673.3,169.257,-5952.04,0,0
20933.65,147.988,-5879.66,0,0
21193.975,161.002,-5819.89,0,0
21454.3,142.568,-5746.19,0,0
21714.625,135.673,-5671.67,0,0
21974.9,143.429,-5590.12,0,0
22235.275,174.496,-5555.54,0,0
22495.6,139.879,-5507.51,0,0
22755.925,126.81,-5437.96,0,0
23016.25,122.9,-5370.81,0,0
23276.6,119.235,-5309.86,0,0
23536.9,115.831,-5248.06,0,0
23797.225,113.073,-5186.77,0,0
24057.55,116.395,-5126.62,0,0
24317.875,112.131,-5077.65,0,0
24578.2,112.088,-5018.36,0,0
24838.525,110.891,-4967.74,0,0
25098.85,111.247,-4914.37,0,0
25359.175,106.208,-4864.14,0,0
25619.5,104.95,-4812.49,0,0
25879.8,104.205,-4761.19,0,0
26140.1,104.021,-4712.01,0,0
26400.5,103.634,-4661.64,0,0
26660.8,106.158,-4611.02,0,0
26921.1,117.143,-4563.3,0,0
27181.4,123.758,-4535.06,0,0
27441.8,110.026,-4496.42,0,0
27702.1,104.08,-4446.56,0,0
27962.4,113.365,-4398.39,0,0
28222.7,112.53,-4360,0,0
28483.1,122.26,-4316.02,0,0
28743.4,130.962,-4299.52,0,0
29003.7,118.626,-4260.59,0,0
29264,119.283,-4229.28,0,0
29524.4,107.646,-4194.34,0,0
29784.7,107.06,-4151.62,0,0
30045,102.022,-4120.16,0,0
30305.3,100.193,-4081.23,0,0
30565.7,97.8002,-4041.9,0,0
30826,102.33,-4005.22,0,0
31086.3,103.975,-3980.73,0,0
31346.6,98.4468,-3949.11,0,0
31607,94.6884,-3910.88,0,0
31867.3,98.7748,-3879.58,0,0
32127.6,97.7325,-3848.86,0,0
32387.9,97.2846,-3821.95,0,0
32648.3,93.919,-3789.26,0,0
32908.6,95.3817,-3762.3,0,0
33168.9,90.9973,-3732.91,0,0
33429.2,88.8216,-3703.81,0,0
33689.6,86.6034,-3674.18,0,0
33949.9,86.4274,-3642.84,0,0
34210.2,87.0437,-3617.51,0,0
34470.5,84.2547,-3590.45,0,0
34730.9,82.7232,-3562.08,0,0
34991.2,81.9604,-3535.12,0,0
35251.5,81.0849,-3508.33,0,0
35511.8,80.363,-3481.84,0,0
35772.2,79.5762,-3456.69,0,0
36032.5,78.406,-3430.79,0,0
36292.8,78.0202,-3405.32,0,0
36553.1,77.2217,-3380.55,0,0
36813.5,76.879,-3355.84,0,0
37073.8,76.4059,-3331.89,0,0
37334.1,75.6496,-3308.39,0,0
37594.4,75.6231,-3285.25,0,0
37854.8,74.6461,-3262.22,0,0
38115.1,73.9358,-3239.12,0,0
38375.4,73.9476,-3216.26,0,0
38635.7,73.3702,-3194.61,0,0
38896.1,72.9713,-3172.35,0,0
39156.4,73.2258,-3150.62,0,0
39416.7,72.348,-3130.02,0,0
39677,71.7135,-3108.64,0,0
39937.4,71.5669,-3087.56,0,0
40197.7,71.6187,-3067.1,0,0
40458,71.3926,-3046.8,0,0
40718.3,71.5823,-3025.88,0,0
40978.7,73.304,-3006.96,0,0
41239,73.109,-2989.03,0,0
41499.3,72.0458,-2970.69,0,0
41759.6,70.9681,-2951.68,0,0
42020,71.1482,-2932.41,0,0
42280.275,71.2132,-2913.93,0,0
42540.6,71.7272,-2896.94,0,0
42800.925,70.306,-2879.73,0,0
43061.25,70.0446,-2861.05,0,0
43321.575,69.1664,-2844.41,0,0
43581.9,68.7393,-2826.85,0,0
43842.225,68.1166,-2809.02,0,0
44102.55,68.2612,-2791.71,0,0
44362.875,69.4653,-2774.83,0,0
44623.2,69.6099,-2759.73,0,0
44883.525,68.8583,-2743.07,0,0
45143.85,68.7548,-2727.35,0,0
45404.175,68.7725,-2712.65,0,0
45664.5,68.0577,-2697.09,0,0
45924.825,67.0318,-2681.85,0,0
46185.15,66.1365,-2666.62,0,0
46445.475,65.3742,-2650.38,0,0
46705.8,65.7574,-2635.34,0,0
46966.125,65.2771,-2620.89,0,0
47226.45,65.0818,-2605.8,0,0
47486.775,64.9435,-2591.26,0,0
47747.1,64.6349,-2577.18,0,0
48007.425,64.0705,-2563.09,0,0
48267.75,63.8634,-2549.29,0,0
48528.075,62.7598,-2535.52,0,0
48788.4,61.9724,-2520.9,0,0
49048.725,62.0621,-2507.03,0,0
49309.05,62.1022,-2493.31,0,0
49569.375,61.7654,-2480.08,0,0
49829.7,61.2202,-2467.19,0,0
50090.025,60.4229,-2453.47,0,0
50350.35,60.043,-2440.35,0,0
50610.675,59.8483,-2426.98,0,0
50871.0,59.8246,-2414.08,0,0
51131.325,59.7255,-2401.56,0,0
51391.65,59.7515,-2389.17,0,0
51651.975,59.0038,-2376.8,0,0
51912.3,58.7112,-2364.18,0,0
52172.625,58.4948,-2351.77,0,0
52432.95,58.5765,-2339.71,0,0
52693.275,58.3193,-2327.74,0,0
52953.6,58.0303,-2315.7,0,0
53213.925,58.0309,-2303.98,0,0
53474.25,57.8467,-2292.49,0,0
53734.575,57.6834,-2281.03,0,0
53994.9,57.4964,-2269.8,0,0
54255.225,56.9814,-2258.54,0,0
54515.55,56.5782,-2247.16,0,0
54775.875,56.3626,-2235.95,0,0
55036.2,56.1927,-2224.74,0,0
55296.525,56.1993,-2213.75,0,0
55556.85,55.9727,-2202.96,0,0
55817.175,55.6254,-2192.33,0,0
56077.5,55.2872,-2181.56,0,0
56337.825,55.1756,-2170.84,0,0
56598.15,55.2265,-2160.29,0,0
56858.475,55.2205,-2149.76,0,0
57118.8,55.0218,-2139.63,0,0
57379.125,54.9284,-2129.3,0,0
57639.45,54.9435,-2119.14,0,0
57899.775,54.8217,-2109.09,0,0
58160.1,54.9154,-2099.19,0,0
58420.4,54.7,-2089.57,0,0
58680.7,54.6481,-2079.82,0,0
58941.1,54.5311,-2069.79,0,0
59201.4,54.8038,-2060.41,0,0
59461.7,54.5268,-2051.24,0,0
59722,54.4316,-2041.53,0,0
59982.4,54.3975,-2032.41,0,0
60242.7,54.3919,-2022.96,0,0
60503,54.7779,-2013.72,0,0
60763.3,54.8205,-2005.22,0,0
61023.7,54.1771,-1996.67,0,0
61284,53.8621,-1987.46,0,0
61544.3,53.7221,-1978.26,0,0
61804.6,53.8035,-1969.72,0,0
62065,53.2704,-1961.11,0,0
62325.3,53.0464,-1952.14,0,0
62585.6,52.9122,-1943.4,0,0
62845.9,52.8585,-1934.59,0,0
63106.3,52.9223,-1926.08,0,0
63366.6,52.7411,-1917.49,0,0
63626.9,52.7284,-1908.92,0,0
63887.2,52.8268,-1900.42,0,0
64147.6,52.7496,-1892.16,0,0
64407.9,52.9946,-1883.56,0,0
64668.2,53.2915,-1875.29,0,0
64928.5,53.7196,-1866.98,0,0
65188.9,54.4074,-1858.99,0,0
65449.2,55.2151,-1851.55,0,0
65709.5,55.8554,-1844.75,0,0
65969.8,55.4417,-1837.68,0,0
66230.2,55.2273,-1830.26,0,0
66490.5,55.098,-1823.02,0,0
66750.8,54.933,-1815.87,0,0
67011.1,54.235,-1808.53,0,0
67271.5,53.9671,-1800.54,0,0
67531.8,54.5095,-1793.19,0,0
67792.1,54.9694,-1786.68,0,0
68052.4,54.0145,-1780.25,0,0
68312.8,53.1397,-1772.67,0,0
68573.1,53.1498,-1765.05,0,0
68833.4,53.4757,-1757.95,0,0
69093.7,53.234,-1751.16,0,0
69354.1,53.2339,-1744.19,0,0
69614.4,53.012,-1737.69,0,0
69874.7,52.6233,-1730.8,0,0
70135,52.3276,-1724.35,0,0
70395.4,51.5109,-1717.61,0,0
70655.7,50.968,-1710.45,0,0
70916,50.7498,-1703.39,0,0
71176.3,50.6689,-1696.47,0,0
71436.7,50.5756,-1689.99,0,0
71697,49.8628,-1683.45,0,0
71957.3,49.3973,-1676.6,0,0
72217.6,48.9268,-1669.56,0,0
72478,48.8286,-1662.67,0,0
72738.3,48.6699,-1655.78,0,0
72998.6,48.6781,-1648.95,0,0
73258.9,48.5832,-1642.56,0,0
73519.3,48.3986,-1635.85,0,0
73779.6,48.3613,-1629.25,0,0
74039.9,48.4404,-1622.62,0,0
74300.225,48.3864,-1616.12,0,0
74560.55,48.4469,-1609.57,0,0
74820.875,48.7409,-1603.18,0,0
75081.2,48.7022,-1596.99,0,0
75341.525,48.6787,-1590.73,0,0
75601.85,48.7509,-1584.33,0,0
75862.175,49.0209,-1578.01,0,0
76122.5,49.3188,-1571.93,0,0
76382.825,49.5379,-1565.97,0,0
76643.15,49.6075,-1559.95,0,0
76903.475,49.8454,-1553.9,0,0
77163.8,50.1973,-1548.06,0,0
77424.125,50.325,-1542.23,0,0
77684.45,50.4268,-1536.37,0,0
77944.775,50.6509,-1530.49,0,0
78205.1,51.1612,-1524.64,0,0
78465.425,51.794,-1519.15,0,0
78725.75,52.0897,-1514.06,0,0
78986.075,52.2207,-1508.84,0,0
79246.4,52.1713,-1503.77,0,0
79506.725,51.9625,-1498.59,0,0
79767.05,51.7124,-1493.08,0,0
80027.375,51.6072,-1487.81,0,0
80287.7,51.2282,-1482.47,0,0
80548.025,50.9914,-1476.85,0,0
80808.35,50.8988,-1471.27,0,0
81068.675,50.7957,-1465.72,0,0
81329.0,50.7745,-1460.07,0,0
81589.325,50.8523,-1454.56,0,0
81849.65,51.0448,-1449.16,0,0
82109.975,51.1193,-1443.68,0,0
82370.3,51.3389,-1438.43,0,0
82630.625,51.2645,-1433.13,0,0
82890.95,51.4237,-1427.63,0,0
83151.275,51.6648,-1422.25,0,0
83411.6,51.8919,-1416.96,0,0
83671.925,52.1456,-1411.76,0,0
83932.25,52.491,-1406.43,0,0
84192.575,52.912,-1401.3,0,0
84452.9,53.2987,-1396.28,0,0
84713.225,53.7732,-1391.27,0,0
84973.55,54.0439,-1386.37,0,0
85233.875,54.5411,-1381.52,0,0
85494.2,54.9541,-1376.9,0,0
85754.525,55.0869,-1372.31,0,0
86014.85,55.2118,-1367.42,0,0
86275.175,55.4698,-1362.6,0,0
86535.5,55.7755,-1357.96,0,0
86795.825,55.8232,-1353.26,0,0
87056.15,56.1215,-1348.4,0,0
87316.475,56.4881,-1343.92,0,0
87576.8,56.4149,-1339.45,0,0
87837.125,56.3159,-1334.73,0,0
88097.45,56.4055,-1329.87,0,0
88357.775,56.4093,-1324.9,0,0
88618.1,56.88,-1319.9,0,0
88878.425,57.2396,-1315.22,0,0
89138.75,57.5693,-1310.23,0,0
89399.075,58.2354,-1305.36,0,0
89659.4,58.7793,-1300.63,0,0
89919.725,59.4513,-1295.96,0,0
90180,60.0398,-1291.32,0,0
90440.4,60.7021,-1286.55,0,0
90700.7,61.4911,-1281.9,0,0
90961,62.3761,-1277.01,0,0
91221.3,64.0256,-1272.49,0,0
91481.7,65.2109,-1268.55,0,0
91742,66.282,-1264.5,0,0
92002.3,67.4742,-1260.26,0,0
92262.6,69.0231,-1256.3,0,0
92523,70.4105,-1252.44,0,0
92783.3,72.3874,-1248.96,0,0
93043.6,73.9596,-1246.17,0,0
93303.9,75.5881,-1243.06,0,0
93564.3,78.0922,-1240.83,0,0
93824.6,79.9523,-1240.85,0,0
94084.9,78.8327,-1241.13,0,0
94345.2,76.4062,-1239.65,0,0
94605.6,74.5228,-1236.64,0,0
94865.9,72.7479,-1233.69,0,0
95126.2,71.131,-1229.84,0,0
95386.5,69.9254,-1226.23,0,0
95646.9,68.4066,-1222.31,0,0
95907.2,67.087,-1217.73,0,0
96167.5,66.8144,-1212.87,0,0
96427.8,67.1159,-1208.94,0,0
96688.2,66.5576,-1205.59,0,0
96948.5,65.739,-1201.53,0,0
97208.8,65.3224,-1197.25,0,0
97469.1,64.9312,-1193.08,0,0
97729.5,64.7281,-1188.81,0,0
97989.8,64.7533,-1184.56,0,0
98250.1,65.0717,-1180.56,0,0
98510.4,65.0235,-1177.12,0,0
98770.8,64.6735,-1173.32,0,0
99031.1,64.3862,-1169.3,0,0
99291.4,64.2473,-1165.26,0,0
99551.7,64.23,-1161.33,0,0
99812.1,64.2073,-1157.38,0,0
100072,64.0911,-1153.64,0,0
100333,63.7789,-1149.68,0,0
100593,63.6365,-1145.45,0,0
100853,63.6643,-1141.37,0,0
101114,63.7116,-1137.38,0,0
101374,63.557,-1133.44,0,0
101634,63.2775,-1129.29,0,0
101895,63.152,-1124.75,0,0
102155,63.3737,-1120.03,0,0
102415,63.9274,-1115.3,0,0
102676,64.8898,-1110.83,0,0
102936,65.7628,-1106.8,0,0
103196,66.5034,-1102.62,0,0
103457,67.4227,-1098.45,0,0
103717,68.4278,-1094.19,0,0
103977,69.8757,-1089.94,0,0
104238,71.6734,-1086.22,0,0
104498,73.2254,-1083.05,0,0
104758,74.4995,-1080.08,0,0
105019,75.2914,-1077.02,0,0
105279,76.1288,-1073.49,0,0
105539,77.3654,-1069.96,0,0
105800,78.7309,-1066.72,0,0
106060,80.217,-1063.59,0,0
106320.175,81.702,-1060.73,0,0
106580.5,83.1253,-1058.2,0,0
106840.825,84.0913,-1055.7,0,0
107101.15,85.2871,-1052.85,0,0
107361.475,86.696,-1050.49,0,0
107621.8,87.6094,-1048.4,0,0
107882.125,88.3874,-1046.08,0,0
108142.45,89.1981,-1043.64,0,0
108402.775,90.0468,-1041.2,0,0
108663.1,91.0255,-1038.88,0,0
108923.425,92.0039,-1036.64,0,0
109183.75,93.0515,-1034.61,0,0
109444.075,94.0423,-1033.02,0,0
109704.4,94.5931,-1031.59,0,0
109964.725,94.6891,-1030.15,0,0
110225.05,94.3755,-1028.57,0,0
110485.375,93.8006,-1026.18,0,0
110745.7,93.6567,-1023.61,0,0
111006.025,93.9414,-1020.86,0,0
111266.35,94.3105,-1018.29,0,0
111526.675,94.7323,-1015.8,0,0
111787.0,95.5728,-1013.56,0,0
112047.325,96.21,-1011.56,0,0
112307.65,96.5769,-1009.7,0,0
112567.975,97.0606,-1007.77,0,0
112828.3,97.5273,-1006.16,0,0
113088.625,97.8393,-1004.64,0,0
113348.95,97.8438,-1003.28,0,0
113609.275,97.5957,-1001.9,0,0
113869.6,97.0727,-1000.18,0,0
114129.925,96.8038,-998.551,0,0
114390.25,96.2711,-996.836,0,0
114650.575,95.7217,-995.082,0,0
114910.9,95.1128,-993.386,0,0
115171.225,94.3739,-991.667,0,0
115431.55,93.3389,-989.733,0,0
115691.875,92.3007,-987.67,0,0
115952.2,91.25,-985.383,0,0
116212.525,90.3143,-983.068,0,0
116472.85,89.3286,-980.629,0,0
116733.175,88.3543,-978.266,0,0
116993.5,87.2176,-975.74,0,0
117253.825,86.1511,-972.897,0,0
117514.15,85.2021,-970.001,0,0
117774.475,84.2557,-967.037,0,0
118034.8,83.3981,-963.805,0,0
118295.125,82.885,-960.526,0,0
118555.45,82.4851,-957.467,0,0
118815.775,82.0251,-954.307,0,0
119076.1,81.7473,-951.087,0,0
119336.425,81.5402,-947.952,0,0
119596.75,81.4814,-944.78,0,0
119857.075,81.5621,-941.736,0,0
120117.4,81.7471,-938.866,0,0
120377.725,81.8254,-936.095,0,0
120638.05,81.9961,-933.449,0,0
120898.375,82.0541,-931.005,0,0
121158.7,81.9184,-928.686,0,0
121419.025,81.5349,-926.221,0,0
121679.35,81.0807,-923.658,0,0
121939.675,80.5242,-920.928,0,0
122200.0,80.0962,-918.033,0,0
122460,79.6782,-915.132,0,0
122721,79.3792,-912.038,0,0
122981,79.1166,-909.089,0,0
123241,78.9051,-905.97,0,0
123502,78.8525,-902.846,0,0
123762,78.8709,-899.764,0,0
124022,78.9637,-896.74,0,0
124283,79.0542,-893.837,0,0
124543,79.0943,-890.847,0,0
124803,79.2323,-887.907,0,0
125064,79.3443,-884.963,0,0
125324,79.4149,-881.989,0,0
125584,79.72,-878.933,0,0
125845,80.017,-876.135,0,0
126105,80.1808,-873.326,0,0
126365,80.3745,-870.427,0,0
126626,80.61,-867.539,0,0
126886,80.8539,-864.629,0,0
127146,81.0616,-861.732,0,0
127406,81.4204,-858.763,0,0
127667,81.8249,-855.801,0,0
127927,82.2284,-852.92,0,0
128187,82.8015,-850.135,0,0
128448,83.2728,-847.29,0,0
128708,83.7972,-844.596,0,0
128968,84.1388,-841.872,0,0
129229,84.5137,-838.874,0,0
129489,85.1375,-835.892,0,0
129749,85.845,-832.931,0,0
130010,86.7906,-830.006,0,0
130270,87.7751,-827.37,0,0
130530,88.6776,-824.851,0,0
130791,89.5868,-822.323,0,0
131051,90.4977,-819.776,0,0
131311,91.602,-817.489,0,0
131572,92.5151,-815.368,0,0
131832,93.324,-813.254,0,0
132092,94.0196,-811.093,0,0
132353,94.7092,-808.998,0,0
132613,95.3612,-806.787,0,0
132873,96.0958,-804.644,0,0
133134,96.7644,-802.55,0,0
133394,97.3278,-800.518,0,0
133654,97.8801,-798.326,0,0
133915,98.5244,-796.111,0,0
134175,99.254,-793.947,0,0
134435,99.9645,-791.924,0,0
134696,100.648,-789.937,0,0
134956,101.234,-787.946,0,0
135216,101.879,-785.948,0,0
135477,102.384,-784.057,0,0
135737,102.748,-781.994,0,0
135997,103.213,-779.813,0,0
136258,103.854,-777.511,0,0
136518,104.736,-775.225,0,0
136778,105.699,-773.235,0,0
137039,106.519,-771.269,0,0
137299,107.601,-769.24,0,0
137559,108.861,-767.734,0,0
137819,109.766,-766.531,0,0
138080,110.366,-765.334,0,0
138340.125,110.784,-764.028,0,0
138600.45,111.269,-762.792,0,0
138860.775,111.463,-761.679,0,0
139121.1,111.392,-760.407,0,0
139381.425,111.193,-759.011,0,0
139641.75,110.936,-757.338,0,0
139902.075,110.8,-755.579,0,0
140162.4,110.656,-753.778,0,0
140422.725,110.492,-751.897,0,0
140683.05,110.352,-749.947,0,0
140943.375,110.191,-747.877,0,0
141203.7,110.104,-745.716,0,0
141464.025,110.168,-743.538,0,0
141724.35,110.193,-741.472,0,0
141984.675,110.081,-739.201,0,0
142245.0,110.209,-736.772,0,0
142505.325,110.635,-734.451,0,0
142765.65,110.934,-732.412,0,0
143025.975,111.073,-730.242,0,0
143286.3,111.266,-727.962,0,0
143546.625,111.704,-725.621,0,0
143806.95,112.24,-723.459,0,0
144067.275,112.678,-721.486,0,0
144327.6,112.912,-719.487,0,0
144587.925,113.064,-717.33,0,0
144848.25,113.352,-715.046,0,0
145108.575,113.721,-712.723,0,0
145368.9,114.188,-710.421,0,0
145629.225,114.739,-708.048,0,0
145889.55,115.527,-705.751,0,0
146149.875,116.389,-703.821,0,0
146410.2,117.048,-701.933,0,0
146670.525,117.712,-699.966,0,0
146930.85,118.491,-698.229,0,0
147191.175,119.046,-696.694,0,0
147451.5,119.416,-695.231,0,0
147711.825,119.476,-693.706,0,0
147972.15,119.289,-691.886,0,0
148232.475,119.19,-689.708,0,0
148492.8,119.316,-687.453,0,0
148753.125,119.467,-685.122,0,0
149013.45,119.854,-682.588,0,0
149273.775,120.658,-680.212,0,0
149534.1,121.558,-678.275,0,0
149794.425,122.236,-676.585,0,0
150054.75,122.677,-674.964,0,0
150315.075,123.018,-673.386,0,0
150575.4,123.123,-671.943,0,0
150835.725,122.728,-670.361,0,0
151096.05,122.178,-668.258,0,0
151356.375,121.853,-665.758,0,0
151616.7,121.818,-663.287,0,0
151877.025,121.701,-660.956,0,0
152137.35,121.333,-658.378,0,0
152397.675,121.058,-655.486,0,0
152658.0,120.985,-652.371,0,0
152918.325,121.194,-649.081,0,0
153178.65,121.664,-645.899,0,0
153438.975,122.133,-642.806,0,0
153699.3,122.612,-639.556,0,0
153959.625,123.32,-636.185,0,0
154219.95,124.227,-632.918,0,0
154480,125.083,-629.617,0,0
154741,126.155,-626.135,0,0
155001,127.513,-622.86,0,0
155261,128.661,-619.59,0,0
155522,130.025,-615.962,0,0
155782,131.908,-612.277,0,0
156042,134.247,-608.929,0,0
156303,136.601,-606.016,0,0
156563,138.718,-603.276,0,0
156823,140.961,-600.306,0,0
157084,143.573,-597.457,0,0
157344,146.331,-595.003,0,0
157604,149.104,-592.905,0,0
157864,151.698,-591.109,0,0
158125,153.905,-589.3,0,0
158385,156.327,-587.446,0,0
158645,158.321,-586.015,0,0
158906,159.728,-584.215,0,0
159166,161.194,-581.716,0,0
159426,163.243,-578.727,0,0
159687,165.802,-575.673,0,0
159947,168.926,-572.776,0,0
160207,172.597,-570.287,0,0
160468,176.245,-568.157,0,0
160728,180.248,-566.27,0,0
160988,184.535,-564.991,0,0
161249,188.637,-564.286,0,0
161509,192.394,-563.955,0,0
161769,196.031,-563.701,0,0
162030,199.624,-563.804,0,0
162290,202.953,-564.258,0,0
162550,205.961,-564.996,0,0
162811,208.306,-565.864,0,0
163071,210.148,-566.286,0,0
163331,212.075,-566.169,0,0
163592,214.33,-565.953,0,0
163852,216.716,-565.84,0,0
164112,219.126,-565.748,0,0
164373,221.754,-565.673,0,0
164633,224.488,-565.842,0,0
164893,227.297,-566.072,0,0
165154,230.347,-566.706,0,0
165414,233.301,-567.683,0,0
165674,236.142,-568.952,0,0
165935,238.854,-570.625,0,0
166195,241.174,-572.606,0,0
166455,243.143,-574.673,0,0
166716,244.814,-576.675,0,0
166976,246.39,-578.687,0,0
167236,247.993,-580.882,0,0
167497,249.315,-583.538,0,0
167757,249.969,-586.373,0,0
168017,250.133,-588.994,0,0
168277,250.079,-591.389,0,0
168538,249.825,-593.769,0,0
168798,249.309,-596.146,0,0
169058,248.367,-598.403,0,0
169319,247.134,-600.541,0,0
169579,245.364,-602.547,0,0
169839,243.137,-603.988,0,0
170100,240.704,-604.71,0,0
170360.075,238.543,-604.792,0,0
170620.4,236.651,-604.655,0,0
170880.725,234.763,-604.294,0,0
171141.05,232.99,-603.493,0,0
171401.375,231.711,-602.342,0,0
171661.7,230.919,-601.285,0,0
171922.025,230.291,-600.457,0,0
172182.35,229.654,-599.677,0,0
172442.675,229.298,-598.812,0,0
172703.0,229.136,-598.36,0,0
172963.325,228.59,-598.254,0,0
173223.65,227.612,-597.918,0,0
173483.975,226.604,-597.187,0,0
173744.3,225.869,-596.045,0,0
174004.625,225.596,-595.061,0,0
174264.95,225.26,-594.388,0,0
174525.275,224.851,-593.586,0,0
174785.6,224.532,-592.76,0,0
175045.925,224.309,-592.04,0,0
175306.25,224.168,-591.391,0,0
175566.575,224.049,-590.901,0,0
175826.9,223.774,-590.681,0,0
176087.225,223.154,-590.389,0,0
176347.55,222.579,-589.843,0,0
176607.875,222.022,-589.365,0,0
176868.2,221.403,-588.952,0,0
177128.525,220.534,-588.432,0,0
177388.85,219.693,-587.667,0,0
177649.175,219.059,-586.814,0,0
177909.5,218.577,-586.156,0,0
178169.825,217.928,-585.666,0,0
178430.15,216.977,-585.197,0,0
178690.475,215.858,-584.413,0,0
178950.8,214.888,-583.369,0,0
179211.125,214.253,-582.388,0,0
179471.45,213.622,-581.793,0,0
179731.775,212.62,-581.391,0,0
179992.1,211.11,-580.768,0,0
180252.425,209.594,-579.609,0,0
180512.75,208.318,-578.379,0,0
180773.075,207.078,-577.185,0,0
181033.4,205.656,-576.004,0,0
181293.725,204.127,-574.586,0,0
181554.05,202.68,-573.028,0,0
181814.375,201.175,-571.392,0,0
182074.7,199.613,-569.644,0,0
182335.025,197.903,-567.599,0,0
182595.35,196.413,-565.139,0,0
182855.675,195.28,-562.59,0,0
183116.0,194.341,-560.189,0,0
183376.325,193.338,-557.886,0,0
183636.65,192.226,-555.463,0,0
183896.975,191.072,-552.849,0,0
184157.3,189.995,-549.974,0,0
184417.625,189.197,-546.907,0,0
184677.95,188.576,-543.806,0,0
184938.275,188.222,-540.71,0,0
185198.6,187.987,-537.721,0,0
185458.925,187.725,-534.846,0,0
185719.25,187.424,-531.838,0,0
185979.575,187.224,-528.671,0,0
186239.9,187.237,-525.458,0,0
186500,187.425,-522.271,0,0
186761,187.461,-519.423,0,0
187021,187.559,-516.235,0,0
187281,187.741,-512.769,0,0
187542,188.385,-509.329,0,0
187802,189.284,-506.232,0,0
188062,190.076,-503.205,0,0
188322,190.866,-500.321,0,0
188583,191.66,-497.429,0,0
188843,192.485,-494.53,0,0
189103,193.339,-491.757,0,0
189364,194.053,-489.109,0,0
189624,194.591,-486.23,0,0
189884,195.261,-483.226,0,0
190145,196.024,-480.238,0,0
190405,196.674,-477.193,0,0
190665,197.414,-474.003,0,0
190926,198.319,-470.632,0,0
191186,199.391,-467.379,0,0
191446,200.339,-464.013,0,0
191707,201.403,-460.499,0,0
191967,202.814,-456.844,0,0
192227,204.365,-453.225,0,0
192488,206.143,-449.842,0,0
192748,207.85,-446.418,0,0
193008,209.721,-442.971,0,0
193269,211.61,-439.716,0,0
193529,213.549,-436.455,0,0
193789,215.533,-433.198,0,0
194050,217.523,-429.893,0,0
194310,219.616,-426.605,0,0
194570,221.555,-423.175,0,0
194831,223.783,-419.601,0,0
195091,226.184,-415.982,0,0
195351,228.823,-412.403,0,0
195612,231.619,-408.883,0,0
195872,234.468,-405.388,0,0
196132,237.615,-401.953,0,0
196393,240.844,-398.693,0,0
196653,244.163,-395.523,0,0
196913,247.402,-392.498,0,0
197174,250.697,-389.409,0,0
197434,254.165,-386.358,0,0
197694,257.735,-383.461,0,0
197955,261.232,-380.728,0,0
198215,264.562,-377.96,0,0
198475,267.834,-374.877,0,0
198735,271.372,-371.69,0,0
198996,275.055,-368.519,0,0
199256,278.858,-365.253,0,0
199516,282.83,-361.905,0,0
199777,287.038,-358.499,0,0
200037,291.609,-355.138,0,0
200297,296.34,-351.971,0,0
200558,301.078,-348.914,0,0
200818,305.871,-345.654,0,0
201078,310.868,-342.28,0,0
201339,316.017,-338.719,0,0
201599,321.713,-334.874,0,0
201859,328.093,-331.117,0,0
202120,334.968,-327.586,0,0
202380.025,342.385,-324.339,0,0
202640.35,350.286,-321.472,0,0
202900.675,358.528,-319.072,0,0
203161.0,366.987,-317.074,0,0
203421.325,375.768,-315.352,0,0
203681.65,384.974,-313.877,0,0
203941.975,394.782,-313.039,0,0
204202.3,405.034,-313.053,0,0
204462.625,415.361,-313.821,0,0
204722.95,425.784,-315.392,0,0
204983.275,436.152,-317.915,0,0
205243.6,446.231,-321.28,0,0
205503.925,455.965,-325.321,0,0
205764.25,465.36,-329.996,0,0
206024.575,474.316,-335.113,0,0
206284.9,483.158,-340.8,0,0
206545.225,491.44,-347.359,0,0
206805.55,499.065,-354.497,0,0
207065.875,505.777,-362.029,0,0
207326.2,511.695,-369.622,0,0
207586.525,517.096,-377.175,0,0
207846.85,522.111,-384.784,0,0
208107.175,526.709,-392.623,0,0
208367.5,530.776,-400.764,0,0
208627.825,534.096,-409.062,0,0
208888.15,536.695,-417.157,0,0
209148.475,538.933,-425.176,0,0
209408.8,540.655,-433.287,0,0
209669.125,541.666,-441.607,0,0
209929.45,541.709,-449.877,0,0
210189.775,540.641,-457.838,0,0
210450.1,538.585,-464.89,0,0
210710.425,535.785,-470.82,0,0
210970.75,532.962,-475.573,0,0
211231.075,530.065,-479.469,0,0
211491.4,527.424,-482.674,0,0
211751.725,524.737,-484.993,0,0
212012.05,522.435,-486.287,0,0
212272.375,520.739,-486.634,0,0
212532.7,520.048,-486.441,0,0
212793.025,520.492,-485.942,0,0
213053.35,521.959,-485.632,0,0
213313.675,524.247,-485.752,0,0
213574.0,527.225,-486.393,0,0
213834.325,530.65,-487.861,0,0
214094.65,533.991,-490.111,0,0
214354.975,537.286,-492.898,0,0
214615.3,540.34,-496.33,0,0
214875.625,542.741,-500.348,0,0
215135.95,543.995,-504.101,0,0
215396.275,545.469,-507.367,0,0
215656.6,546.939,-510.353,0,0
215916.925,548.343,-513.111,0,0
216177.25,550.161,-515.598,0,0
216437.575,552.215,-518.252,0,0
216697.9,554.368,-521.054,0,0
216958.225,556.597,-523.848,0,0
217218.55,558.998,-526.843,0,0
217478.875,561.317,-530,0,0
217739.2,563.689,-533.294,0,0
217999.525,565.856,-536.597,0,0
218259.85,568.076,-539.748,0,0
218520,570.487,-542.71,0,0
218780,573.363,-545.776,0,0
219041,576.512,-549.086,0,0
219301,579.775,-552.826,0,0
219561,582.981,-556.723,0,0
219822,586.416,-560.575,0,0
220082,590.442,-564.818,0,0
220342,594.469,-569.724,0,0
220603,598.439,-575.23,0,0
220863,602.245,-581.056,0,0
221123,606.172,-587.164,0,0
221384,610.207,-593.895,0,0
221644,614.084,-601.437,0,0
221904,617.491,-609.826,0,0
222165,620.094,-618.753,0,0
222425,621.923,-627.833,0,0
222685,623.326,-636.919,0,0
222946,624.213,-646.161,0,0
223206,624.698,-655.57,0,0
223466,624.814,-664.991,0,0
223727,624.453,-674.607,0,0
223987,623.635,-684.16,0,0
224247,622.553,-694.115,0,0
224508,620.778,-704.116,0,0
224768,618.227,-714.391,0,0
225028,614.791,-724.131,0,0
225289,610.747,-733.574,0,0
225549,606.744,-742.393,0,0
225809,602.657,-750.995,0,0
226070,598.502,-759.824,0,0
226330,593.884,-769.101,0,0
226590,588.444,-778.122,0,0
226851,582.363,-786.994,0,0
227111,575.678,-795.627,0,0
227371,568.321,-803.741,0,0
227632,560.497,-811.311,0,0
227892,552.383,-818.277,0,0
228152,543.952,-824.681,0,0
228413,535.194,-830.562,0,0
228673,526.413,-835.724,0,0
228933,517.496,-840.443,0,0
229193,508.564,-844.809,0,0
229454,499.455,-848.625,0,0
229714,490.406,-851.713,0,0
229974,481.394,-854.544,0,0
230235,472.264,-856.875,0,0
230495,463.206,-858.557,0,0
230755,454.485,-859.687,0,0
231016,445.758,-860.459,0,0
231276,437.415,-860.788,0,0
231536,429.261,-860.672,0,0
231797,421.524,-860.203,0,0
232057,413.967,-859.409,0,0
232317,406.949,-858.27,0,0
232578,400.375,-856.964,0,0
232838,394.203,-855.667,0,0
233098,388.405,-854.359,0,0
233359,382.961,-853.244,0,0
233619,377.565,-852.222,0,0
233879,372.374,-851.065,0,0
234140,367.387,-850.067,0,0
234400,362.558,-849.13,0,0
234660.3,357.972,-848.478,0,0
234920.625,353.037,-847.908,0,0
235180.95,347.957,-847.268,0,0
235441.275,342.944,-846.344,0,0
235701.6,338.033,-845.217,0,0
235961.925,333.411,-844.146,0,0
236222.25,328.957,-843.167,0,0
236482.575,324.393,-842.374,0,0
236742.9,319.824,-841.503,0,0
237003.225,315.156,-840.732,0,0
237263.55,310.317,-839.92,0,0
237523.875,305.305,-838.888,0,0
237784.2,300.275,-837.577,0,0
238044.525,295.354,-836.146,0,0
238304.85,290.424,-834.462,0,0
238565.175,285.59,-832.423,0,0
238825.5,281.053,-830.37,0,0
239085.825,276.68,-828.023,0,0
239346.15,272.502,-825.779,0,0
239606.475,268.431,-823.528,0,0
239866.8,264.51,-821.18,0,0
240127.125,260.801,-818.849,0,0
240387.45,257.072,-816.374,0,0
240647.775,253.644,-814.074,0,0
240908.1,250.264,-811.626,0,0
241168.425,247.012,-809.28,0,0
241428.75,243.804,-807.019,0,0
241689.075,240.581,-804.7,0,0
241949.4,237.448,-802.384,0,0
242209.725,234.357,-799.968,0,0
242470.05,231.35,-797.528,0,0
242730.375,228.481,-795.062,0,0
242990.7,225.802,-792.603,0,0
243251.025,223.171,-790.104,0,0
243511.35,220.674,-787.721,0,0
243771.675,218.316,-785.372,0,0
244032.0,216.042,-783.175,0,0
244292.325,213.724,-781.105,0,0
244552.65,211.359,-779.057,0,0
244812.975,208.939,-776.945,0,0
245073.3,206.6,-774.877,0,0
245333.625,204.103,-772.904,0,0
245593.95,201.58,-770.662,0,0
245854.275,199.275,-768.463,0,0
246114.6,196.805,-766.285,0,0
246374.925,194.368,-764.004,0,0
246635.25,192.071,-761.674,0,0
246895.575,189.803,-759.31,0,0
247155.9,187.524,-756.811,0,0
247416.225,185.412,-754.403,0,0
247676.55,183.275,-751.914,0,0
247936.875,181.318,-749.357,0,0
248197.2,179.324,-746.832,0,0
248457.525,177.398,-744.334,0,0
248717.85,175.578,-741.699,0,0
248978.175,173.782,-739.091,0,0
249238.5,172.128,-736.436,0,0
249498.825,170.585,-733.866,0,0
249759.15,169.128,-731.25,0,0
250019.475,167.708,-728.711,0,0
250279.8,166.372,-726.268,0,0
250540,164.9,-723.766,0,0
250800,163.647,-721.251,0,0
251061,162.428,-718.753,0,0
251321,161.246,-716.362,0,0
251581,160.11,-714.008,0,0
251842,158.951,-711.671,0,0
252102,157.771,-709.314,0,0
252362,156.594,-706.985,0,0
252623,155.464,-704.609,0,0
252883,154.262,-702.24,0,0
253143,153.123,-699.82,0,0
253404,152.049,-697.226,0,0
253664,151.039,-694.707,0,0
253924,150.123,-692.091,0,0
254185,149.396,-689.434,0,0
254445,148.652,-686.92,0,0
254705,148.094,-684.303,0,0
254966,147.643,-681.861,0,0
255226,147.152,-679.488,0,0
255486,146.779,-677.098,0,0
255747,146.338,-674.836,0,0
256007,145.911,-672.575,0,0
256267,145.452,-670.287,0,0
256528,145.049,-667.995,0,0
256788,144.69,-665.669,0,0
257048,144.401,-663.395,0,0
257309,144.103,-661.108,0,0
257569,143.827,-658.84,0,0
257829,143.602,-656.526,0,0
258090,143.412,-654.171,0,0
258350,143.303,-651.788,0,0
258610,143.306,-649.379,0,0
258871,143.322,-646.935,0,0
259131,143.574,-644.491,0,0
259391,143.877,-642.101,0,0
259651,144.385,-639.79,0,0
259912,144.986,-637.531,0,0
260172,145.669,-635.393,0,0
260432,146.362,-633.383,0,0
260693,147.24,-631.377,0,0
260953,148.09,-629.494,0,0
261213,149.007,-627.742,0,0
261474,149.947,-626.141,0,0
261734,150.849,-624.577,0,0
261994,151.794,-623.139,0,0
262255,152.766,-621.709,0,0
262515,153.772,-620.382,0,0
262775,154.779,-619.135,0,0
263036,155.778,-617.985,0,0
263296,156.774,-616.864,0,0
263556,157.82,-615.82,0,0
263817,158.896,-614.82,0,0
264077,160.007,-613.892,0,0
264337,161.2,-613.104,0,0
264598,162.362,-612.337,0,0
264858,163.683,-611.777,0,0
265118,164.92,-611.286,0,0
265379,166.172,-610.945,0,0
265639,167.516,-610.775,0,0
265899,168.773,-610.802,0,0
266160,170.067,-610.999,0,0
266420,171.299,-611.423,0,0
266680.25,172.485,-612.097,0,0
266940.575,173.532,-613.029,0,0
267200.9,174.33,-614.216,0,0
267461.225,174.841,-615.631,0,0
267721.55,175.005,-617.126,0,0
267981.875,174.869,-618.742,0,0
268242.2,174.319,-620.312,0,0
268502.525,173.453,-621.868,0,0
268762.85,172.237,-623.29,0,0
269023.175,170.646,-624.501,0,0
269283.5,168.827,-625.47,0,0
269543.825,166.881,-626.084,0,0
269804.15,164.772,-626.488,0,0
270064.475,162.627,-626.529,0,0
270324.8,160.466,-626.345,0,0
270585.125,158.312,-625.895,0,0
270845.45,156.194,-625.192,0,0
271105.775,154.168,-624.3,0,0
271366.1,152.211,-623.224,0,0
271626.425,150.383,-621.958,0,0
271886.75,148.661,-620.508,0,0
272147.075,147.107,-618.919,0,0
272407.4,145.717,-617.207,0,0
272667.725,144.529,-615.485,0,0
272928.05,143.479,-613.728,0,0
273188.375,142.565,-611.907,0,0
273448.7,141.741,-610.107,0,0
273709.025,141.031,-608.266,0,0
273969.35,140.522,-606.443,0,0
274229.675,140.105,-604.637,0,0
274490.0,139.831,-602.911,0,0
274750.325,139.667,-601.245,0,0
275010.65,139.535,-599.623,0,0
275270.975,139.499,-598.049,0,0
275531.3,139.465,-596.513,0,0
275791.625,139.547,-595.027,0,0
276051.95,139.644,-593.556,0,0
276312.275,139.86,-592.14,0,0
276572.6,140.171,-590.809,0,0
276832.925,140.528,-589.571,0,0
277093.25,140.946,-588.428,0,0
277353.575,141.435,-587.408,0,0
277613.9,141.897,-586.541,0,0
277874.225,142.328,-585.809,0,0
278134.55,142.674,-585.185,0,0
278394.875,142.913,-584.644,0,0
278655.2,143.091,-584.132,0,0
278915.525,143.159,-583.635,0,0
279175.85,143.146,-583.099,0,0
279436.175,143.072,-582.554,0,0
279696.5,143.016,-581.949,0,0
279956.825,143.019,-581.293,0,0
280217.15,142.961,-580.64,0,0
280477.475,142.954,-580.03,0,0
280737.8,142.986,-579.452,0,0
280998.125,143.049,-578.906,0,0
281258.45,143.077,-578.45,0,0
281518.775,143.078,-578.102,0,0
281779.1,142.967,-577.808,0,0
282039.425,142.724,-577.549,0,0
282299.75,142.351,-577.241,0,0
282560,141.969,-576.771,0,0
282820,141.487,-576.315,0,0
283081,140.97,-575.745,0,0
283341,140.519,-575.074,0,0
283601,140.15,-574.35,0,0
283862,139.859,-573.688,0,0
284122,139.564,-573.071,0,0
284382,139.239,-572.479,0,0
284643,138.902,-571.916,0,0
284903,138.448,-571.368,0,0
285163,137.985,-570.808,0,0
285424,137.42,-570.221,0,0
285684,136.791,-569.555,0,0
285944,136.187,-568.831,0,0
286205,135.483,-568.017,0,0
286465,134.839,-567.109,0,0
286725,134.182,-566.171,0,0
286986,133.492,-565.142,0,0
287246,132.774,-564.008,0,0
287506,132.111,-562.716,0,0
287767,131.487,-561.272,0,0
288027,131.018,-559.701,0,0
288287,130.725,-558.042,0,0
288548,130.623,-556.308,0,0
288808,130.785,-554.599,0,0
289068,131.141,-552.979,0,0
289329,131.68,-551.505,0,0
289589,132.316,-550.278,0,0
289849,133.046,-549.2,0,0
290109,133.68,-548.408,0,0
290370,134.162,-547.677,0,0
290630,134.55,-547.032,0,0
290890,134.845,-546.41,0,0
291151,135.088,-545.774,0,0
291411,135.302,-545.114,0,0
291671,135.494,-544.49,0,0
291932,135.625,-543.809,0,0
292192,135.746,-543.184,0,0
292452,135.817,-542.581,0,0
292713,135.796,-541.964,0,0
292973,135.704,-541.265,0,0
293233,135.593,-540.497,0,0
293494,135.472,-539.644,0,0
293754,135.324,-538.73,0,0
294014,135.206,-537.691,0,0
294275,135.193,-536.605,0,0
294535,135.214,-535.457,0,0
294795,135.32,-534.283,0,0
295056,135.491,-533.088,0,0
295316,135.722,-531.845,0,0
295576,136.038,-530.597,0,0
295837,136.409,-529.347,0,0
296097,136.884,-528.074,0,0
296357,137.464,-526.825,0,0
296618,138.126,-525.6,0,0
296878,138.853,-524.388,0,0
297138,139.696,-523.223,0,0
297399,140.597,-522.086,0,0
297659,141.597,-521.008,0,0
297919,142.663,-520.034,0,0
298180,143.82,-519.096,0,0
298440,145.057,-518.284,0,0
298700.2,146.342,-517.546,0,0
298960.525,147.643,-516.982,0,0
299220.85,148.93,-516.634,0,0
299481.175,150.065,-516.285,0,0
299741.5,151.284,-516.016,0,0
300001.825,152.306,-515.722,0,0
300262.15,153.502,-515.418,0,0
300522.475,154.59,-515.162,0,0
300782.8,155.752,-515.011,0,0
301043.125,156.971,-514.786,0,0
301303.45,158.194,-514.692,0,0
301563.775,159.478,-514.598,0,0
301824.1,160.81,-514.686,0,0
302084.425,162.196,-514.881,0,0
302344.75,163.544,-515.262,0,0
302605.075,164.803,-515.802,0,0
302865.4,165.953,-516.412,0,0
303125.725,166.971,-517.18,0,0
303386.05,167.745,-517.816,0,0
303646.375,168.61,-518.493,0,0
303906.7,169.255,-519.099,0,0
304167.025,170.088,-519.627,0,0
304427.35,170.833,-520.192,0,0
304687.675,171.605,-520.875,0,0
304948.0,172.389,-521.521,0,0
305208.325,173.145,-522.24,0,0
305468.65,173.98,-523.019,0,0
305728.975,174.818,-523.924,0,0
305989.3,175.577,-524.896,0,0
306249.625,176.295,-525.941,0,0
306509.95,177.01,-527.094,0,0
306770.275,177.576,-528.304,0,0
307030.6,178.118,-529.557,0,0
307290.925,178.392,-530.976,0,0
307551.25,178.713,-532.426,0,0
307811.575,178.826,-533.813,0,0
308071.9,178.887,-535.322,0,0
308332.225,178.882,-536.672,0,0
308592.55,178.704,-538.175,0,0
308852.875,178.338,-539.666,0,0
309113.2,177.892,-540.937,0,0
309373.525,177.467,-542.161,0,0
309633.85,176.953,-543.385,0,0
309894.175,176.562,-544.425,0,0
310154.5,176.048,-545.594,0,0
310414.825,175.633,-546.795,0,0
310675.15,175.184,-548.172,0,0
310935.475,174.49,-549.433,0,0
311195.8,173.812,-550.763,0,0
311456.125,172.927,-552.077,0,0
311716.45,171.937,-553.463,0,0
311976.775,170.778,-554.749,0,0
312237.1,169.5,-555.88,0,0
312497.425,168.087,-556.836,0,0
312757.75,166.706,-557.68,0,0
313018.075,165.338,-558.438,0,0
313278.4,163.964,-559.08,0,0
313538.725,162.665,-559.585,0,0
313799.05,161.429,-560.09,0,0
314059.375,160.207,-560.609,0,0
314319.7,158.947,-561.029,0,0
314580,157.802,-561.568,0,0
314840,156.659,-561.987,0,0
315101,155.366,-562.513,0,0
315361,154.143,-563.126,0,0
315621,152.805,-563.683,0,0
315882,151.381,-564.185,0,0
316142,149.917,-564.594,0,0
316402,148.415,-564.978,0,0
316663,146.839,-565.401,0,0
316923,145.328,-565.647,0,0
317183,143.738,-565.878,0,0
317444,142.107,-566.101,0,0
317704,140.311,-566.21,0,0
317964,138.665,-566.241,0,0
318225,136.932,-566.114,0,0
318485,135.207,-566.072,0,0
318745,133.502,-565.796,0,0
319006,131.826,-565.534,0,0
319266,130.103,-565.087,0,0
319526,128.434,-564.767,0,0
319787,126.804,-564.269,0,0
320047,125.095,-563.758,0,0
320307,123.483,-563.157,0,0
320567,121.891,-562.516,0,0
320828,120.225,-561.715,0,0
321088,118.709,-560.917,0,0
321348,117.165,-559.977,0,0
321609,115.705,-558.935,0,0
321869,114.333,-557.903,0,0
322129,113.018,-556.779,0,0
322390,111.782,-555.581,0,0
322650,110.639,-554.397,0,0
322910,109.625,-553.129,0,0
323171,108.61,-551.838,0,0
323431,107.746,-550.602,0,0
323691,107.032,-549.406,0,0
323952,106.385,-548.188,0,0
324212,105.767,-546.955,0,0
324472,105.278,-545.842,0,0
324733,104.8,-544.643,0,0
324993,104.367,-543.581,0,0
325253,104.034,-542.616,0,0
325514,103.729,-541.616,0,0
325774,103.49,-540.686,0,0
326034,103.248,-539.837,0,0
326295,102.996,-539.038,0,0
326555,102.823,-538.253,0,0
326815,102.578,-537.662,0,0
327076,102.351,-536.96,0,0
327336,102.107,-536.419,0,0
327596,101.83,-535.866,0,0
327857,101.602,-535.297,0,0
328117,101.276,-534.897,0,0
328377,100.964,-534.4,0,0
328638,100.627,-533.922,0,0
328898,100.344,-533.516,0,0
329158,99.9278,-533.144,0,0
329419,99.5218,-532.754,0,0
329679,99.1403,-532.389,0,0
329939,98.7171,-532.009,0,0
330200,98.2206,-531.624,0,0
330460,97.7206,-531.338,0,0
330720.15,97.2448,-530.969,0,0
330980.475,96.6534,-530.602,0,0
331240.8,96.274,-530.289,0,0
331501.125,95.6771,-529.975,0,0
331761.45,95.104,-529.568,0,0
332021.775,94.5115,-529.29,0,0
332282.1,93.8833,-529.049,0,0
332542.425,93.1732,-528.727,0,0
332802.75,92.4569,-528.345,0,0
333063.075,91.7127,-528,0,0
333323.4,90.9685,-527.609,0,0
333583.725,90.0983,-527.194,0,0
333844.05,89.2789,-526.782,0,0
334104.375,88.4328,-526.22,0,0
334364.7,87.4964,-525.683,0,0
334625.025,86.701,-525.066,0,0
334885.35,85.8646,-524.412,0,0
335145.675,85.0652,-523.703,0,0
335406.0,84.3089,-523.037,0,0
335666.325,83.4912,-522.263,0,0
335926.65,82.758,-521.535,0,0
336186.975,82.118,-520.765,0,0
336447.3,81.4252,-520.026,0,0
336707.625,80.7422,-519.193,0,0
336967.95,80.0089,-518.418,0,0
337228.275,79.4255,-517.629,0,0
337488.6,78.8053,-516.795,0,0
337748.925,78.1543,-516.011,0,0
338009.25,77.617,-515.129,0,0
338269.575,77.0366,-514.37,0,0
338529.9,76.475,-513.546,0,0
338790.225,75.934,-512.725,0,0
339050.55,75.4958,-511.921,0,0
339310.875,74.9463,-511.076,0,0
339571.2,74.4489,-510.244,0,0
339831.525,74.0135,-509.462,0,0
340091.85,73.408,-508.684,0,0
340352.175,72.9727,-507.839,0,0
340612.5,72.4613,-507.014,0,0
340872.825,72.0353,-506.305,0,0
341133.15,71.5875,-505.469,0,0
341393.475,71.1129,-504.652,0,0
341653.8,70.7046,-503.899,0,0
341914.125,70.2351,-503.12,0,0
342174.45,69.7729,-502.325,0,0
342434.775,69.3031,-501.578,0,0
342695.1,68.8559,-500.718,0,0
342955.425,68.4071,-499.926,0,0
343215.75,67.9921,-499.149,0,0
343476.075,67.5889,-498.32,0,0
343736.4,67.098,-497.456,0,0
343996.725,66.6822,-496.661,0,0
344257.05,66.2908,-495.905,0,0
344517.375,65.9198,-495.06,0,0
344777.7,65.4461,-494.217,0,0
345038.025,65.0475,-493.422,0,0
345298.35,64.6304,-492.616,0,0
345558.675,64.1625,-491.713,0,0
345819.0,63.7553,-490.86,0,0
346079.325,63.326,-490.052,0,0
346339.65,62.9264,-489.206,0,0
346599.975,62.4992,-488.261,0,0
346860,62.1397,-487.357,0,0
347121,61.7775,-486.405,0,0
347381,61.3723,-485.454,0,0
347641,61.0786,-484.524,0,0
347902,60.7787,-483.579,0,0
348162,60.5391,-482.621,0,0
348422,60.2889,-481.631,0,0
348683,60.0064,-480.67,0,0
348943,59.7989,-479.747,0,0
349203,59.6012,-478.863,0,0
349464,59.3847,-477.953,0,0
349724,59.1902,-477.064,0,0
349984,58.9863,-476.208,0,0
350245,58.768,-475.201,0,0
350505,58.6229,-474.329,0,0
350765,58.4395,-473.401,0,0
351025,58.281,-472.428,0,0
351286,58.159,-471.517,0,0
351546,58.1319,-470.719,0,0
351806,58.0553,-469.743,0,0
352067,57.9817,-468.882,0,0
352327,57.8797,-468.038,0,0
352587,57.8566,-467.213,0,0
352848,57.792,-466.361,0,0
353108,57.6943,-465.577,0,0
353368,57.624,-464.791,0,0
353629,57.5466,-464.023,0,0
353889,57.4362,-463.158,0,0
354149,57.4016,-462.355,0,0
354410,57.3072,-461.565,0,0
354670,57.2743,-460.735,0,0
354930,57.243,-459.972,0,0
355191,57.1622,-459.178,0,0
355451,57.1651,-458.379,0,0
355711,57.103,-457.604,0,0
355972,57.0085,-456.802,0,0
356232,56.9266,-455.988,0,0
356492,56.9406,-455.209,0,0
356753,56.8897,-454.444,0,0
357013,56.8648,-453.62,0,0
357273,56.8262,-452.834,0,0
357534,56.8407,-452.129,0,0
357794,56.7865,-451.343,0,0
358054,56.7868,-450.534,0,0
358315,56.7431,-449.718,0,0
358575,56.7291,-448.938,0,0
358835,56.7583,-448.137,0,0
359096,56.7424,-447.367,0,0
359356,56.7878,-446.575,0,0
359616,56.8955,-445.826,0,0
359877,56.9477,-445.087,0,0
360137,57.0426,-444.338,0,0
360397,57.0734,-443.56,0,0
360658,57.1287,-442.877,0,0
360918,57.0962,-442.139,0,0
361178,57.1409,-441.445,0,0
361438,57.2065,-440.708,0,0
361699,57.257,-439.998,0,0
361959,57.3222,-439.22,0,0
362219,57.4157,-438.484,0,0
362480,57.4231,-437.753,0,0
362740.1,57.4957,-437.021,0,0
363000.425,57.5328,-436.314,0,0
363260.75,57.6233,-435.586,0,0
363521.075,57.6547,-434.817,0,0
363781.4,57.7573,-434.097,0,0
364041.725,57.8779,-433.299,0,0
364302.05,57.9969,-432.584,0,0
364562.375,58.1249,-431.844,0,0
364822.7,58.2721,-431.124,0,0
365083.025,58.4699,-430.365,0,0
365343.35,58.5672,-429.729,0,0
365603.675,58.7956,-429.025,0,0
365864.0,58.9332,-428.446,0,0
366124.325,59.094,-427.84,0,0
366384.65,59.1673,-427.144,0,0
366644.975,59.2639,-426.57,0,0
366905.3,59.3092,-425.921,0,0
367165.625,59.3177,-425.235,0,0
367425.95,59.3727,-424.536,0,0
367686.275,59.3874,-423.785,0,0
367946.6,59.4305,-422.981,0,0
368206.925,59.4599,-422.123,0,0
368467.25,59.616,-421.272,0,0
368727.575,59.769,-420.401,0,0
368987.9,59.9185,-419.512,0,0
369248.225,60.2118,-418.635,0,0
369508.55,60.506,-417.758,0,0
369768.875,60.8161,-416.859,0,0
370029.2,61.221,-415.997,0,0
370289.525,61.5901,-415.11,0,0
370549.85,62.0419,-414.314,0,0
370810.175,62.5593,-413.452,0,0
371070.5,63.0676,-412.672,0,0
371330.825,63.6584,-411.882,0,0
371591.15,64.2559,-411.191,0,0
371851.475,64.9173,-410.516,0,0
372111.8,65.584,-409.854,0,0
372372.125,66.2998,-409.297,0,0
372632.45,66.9834,-408.871,0,0
372892.775,67.6817,-408.403,0,0
373153.1,68.3813,-408.017,0,0
373413.425,68.9969,-407.672,0,0
373673.75,69.6419,-407.395,0,0
373934.075,70.2602,-407.118,0,0
374194.4,70.8526,-406.879,0,0
374454.725,71.4284,-406.683,0,0
374715.05,71.9836,-406.461,0,0
374975.375,72.5046,-406.311,0,0
375235.7,72.9917,-406.158,0,0
375496.025,73.4607,-406.027,0,0
375756.35,73.8785,-405.884,0,0
376016.675,74.3385,-405.707,0,0
376277.0,74.7524,-405.568,0,0
376537.325,75.1884,-405.465,0,0
376797.65,75.5951,-405.323,0,0
377057.975,76.021,-405.225,0,0
377318.3,76.4551,-405.177,0,0
377578.625,76.8458,-405.06,0,0
377838.95,77.2779,-405.038,0,0
378099.275,77.6428,-404.981,0,0
378359.6,77.9957,-404.995,0,0
378619.925,78.3068,-404.973,0,0
378880,78.643,-405.005,0,0
379141,78.9437,-405.024,0,0
379401,79.1893,-405.022,0,0
379661,79.4228,-404.958,0,0
379922,79.6661,-404.91,0,0
380182,79.9618,-404.837,0,0
380442,80.3088,-404.766,0,0
380703,80.6924,-404.772,0,0
380963,81.1043,-404.769,0,0
381223,81.5606,-404.897,0,0
381483,81.9503,-405.069,0,0
381744,82.2887,-405.344,0,0
382004,82.665,-405.628,0,0
382264,82.9467,-405.97,0,0
382525,83.1465,-406.339,0,0
382785,83.3241,-406.782,0,0
383045,83.3991,-407.213,0,0
383306,83.4266,-407.667,0,0
383566,83.4158,-408.126,0,0
383826,83.2868,-408.538,0,0
384087,83.1188,-408.99,0,0
384347,82.9002,-409.398,0,0
384607,82.5759,-409.845,0,0
384868,82.2233,-410.207,0,0
385128,81.8411,-410.523,0,0
385388,81.373,-410.778,0,0
385649,80.9089,-411.03,0,0
385909,80.4043,-411.203,0,0
386169,79.9054,-411.364,0,0
386430,79.3023,-411.429,0,0
386690,78.7208,-411.528,0,0
386950,78.1245,-411.539,0,0
387211,77.5759,-411.493,0,0
387471,76.897,-411.437,0,0
387731,76.3232,-411.221,0,0
387992,75.695,-411.065,0,0
388252,75.133,-410.839,0,0
388512,74.5314,-410.557,0,0
388773,74.0092,-410.16,0,0
389033,73.5134,-409.824,0,0
389293,73.0893,-409.407,0,0
389554,72.6876,-409.026,0,0
389814,72.3294,-408.595,0,0
390074,71.9849,-408.155,0,0
390335,71.7121,-407.781,0,0
390595,71.4626,-407.441,0,0
390855,71.2267,-407.143,0,0
391116,70.9722,-406.849,0,0
391376,70.7124,-406.567,0,0
391636,70.3942,-406.319,0,0
391896,70.1057,-406.083,0,0
392157,69.758,-405.873,0,0
392417,69.4275,-405.683,0,0
392677,69.0073,-405.446,0,0
392938,68.6232,-405.162,0,0
393198,68.1641,-404.909,0,0
393458,67.6693,-404.586,0,0
393719,67.2171,-404.229,0,0
393979,66.7057,-403.925,0,0
394239,66.211,-403.529,0,0
394500,65.7654,-403.135,0,0
394760.05,65.2418,-402.668,0,0
395020.375,64.7094,-402.193,0,0
395280.7,64.2323,-401.673,0,0
395541.025,63.7582,-401.163,0,0
395801.35,63.261,-400.574,0,0
396061.675,62.7757,-399.981,0,0
396322.0,62.3461,-399.303,0,0
396582.325,61.9391,-398.686,0,0
396842.65,61.6019,-397.984,0,0
397102.975,61.2258,-397.297,0,0
397363.3,60.8617,-396.565,0,0
397623.625,60.5855,-395.839,0,0
397883.95,60.3547,-395.098,0,0
398144.275,60.1018,-394.396,0,0
398404.6,59.8797,-393.674,0,0
398664.925,59.684,-392.952,0,0
398925.25,59.5217,-392.236,0,0
399185.575,59.3522,-391.529,0,0
399445.9,59.2361,-390.818,0,0
399706.225,59.0942,-390.13,0,0
399966.55,59.0032,-389.465,0,0
400006.6,59.0186,-389.34,0,0