File: Accelerated corrosion test data/2025-10-19_18-00-04/sample_4.csv
Frequency (Hz),Impedance (ohms),Phase (Radians),Temperature (C),Humidity (%)
10000.0,262.824,-11928.7,0,0
10260.325,258.501,-11631,0,0
10520.65,249.984,-11344.2,0,0
10780.975,244.187,-11071.8,0,0
11041.3,239.514,-10812.2,0,0
11301.625,233.716,-10568.4,0,0
11561.95,228.503,-10331.2,0,0
11822.275,224.185,-10105,0,0
12082.6,219.422,-9888.83,0,0
12342.925,215.1,-9680.79,0,0
12603.25,212.986,-9480.99,0,0
12863.575,207.897,-9292.87,0,0
13123.9,205.492,-9114.54,0,0
13384.225,198.913,-8934.47,0,0
13644.55,195.431,-8762,0,0
13904.875,193.676,-8594.44,0,0
14165.2,198.387,-8429.3,0,0
14425.525,202.578,-8276.99,0,0
14685.8,192.853,-8169,0,0
14946.175,181.825,-8012.12,0,0
15206.5,180.378,-7866.32,0,0
15466.825,201.649,-7720.62,0,0
15727.15,188.182,-7623.26,0,0
15987.5,183.368,-7507.96,0,0
16247.8,170.598,-7376.7,0,0
16508.125,196.708,-7259.3,0,0
16768.45,182.825,-7152.66,0,0
17028.775,166.31,-7058.58,0,0
17289.1,159.703,-6945.15,0,0
17549.425,158.353,-6841.84,0,0
17809.75,155.036,-6740.21,0,0
18070.075,151.908,-6641.29,0,0
18330.4,154.246,-6546.56,0,0
18590.725,151.332,-6457.19,0,0
18851.05,148.829,-6370.82,0,0
19111.375,145.186,-6281.71,0,0
19371.7,142.657,-6195.75,0,0
19632.025,141.813,-6111.31,0,0
19892.35,144.217,-6031.42,0,0
20152.675,143.156,-5954.01,0,0
20413.0,139.877,-5879.03,0,0
20673.3,141.569,-5804.02,0,0
20933.65,137.233,-5730.45,0,0
21193.975,140.886,-5654.74,0,0
21454.3,153.284,-5592.03,0,0
21714.625,145.907,-5532.2,0,0
21974.9,152.85,-5466.48,0,0
22235.275,148.441,-5415.63,0,0
22495.6,134.351,-5358.88,0,0
22755.925,127.47,-5293.63,0,0
23016.25,124.704,-5231.26,0,0
23276.6,122.659,-5170.99,0,0
23536.9,120.584,-5113.64,0,0
23797.225,118.614,-5056.32,0,0
24057.55,116.933,-5000.16,0,0
24317.875,115.95,-4945.86,0,0
24578.2,114.746,-4892.03,0,0
24838.525,114.637,-4839.22,0,0
25098.85,115.206,-4789.26,0,0
25359.175,111.873,-4740.94,0,0
25619.5,112.287,-4691.11,0,0
25879.8,109.602,-4646.69,0,0
26140.1,107.886,-4597.96,0,0
26400.5,106.743,-4550.65,0,0
26660.8,106.963,-4504.38,0,0
26921.1,106.268,-4460.85,0,0
27181.4,105.392,-4415.14,0,0
27441.8,106.396,-4369.55,0,0
27702.1,110.707,-4325.53,0,0
27962.4,117.927,-4285.87,0,0
28222.7,120.323,-4257.4,0,0
28483.1,111.768,-4224.29,0,0
28743.4,109.803,-4180.84,0,0
29003.7,111.079,-4139.8,0,0
29264,118.255,-4106.23,0,0
29524.4,114.34,-4080.21,0,0
29784.7,108.145,-4044.13,0,0
30045,106.741,-4009.51,0,0
30305.3,100.865,-3973.8,0,0
30565.7,100.514,-3937.94,0,0
30826,98.942,-3904.25,0,0
31086.3,98.2588,-3870.01,0,0
31346.6,99.9941,-3836.97,0,0
31607,99.1204,-3805.48,0,0
31867.3,97.0443,-3773.42,0,0
32127.6,100.807,-3743.37,0,0
32387.9,97.6891,-3716.74,0,0
32648.3,97.1995,-3687.59,0,0
32908.6,94.2832,-3660.14,0,0
33168.9,91.7031,-3629.94,0,0
33429.2,90.0802,-3601.62,0,0
33689.6,88.7785,-3572.45,0,0
33949.9,87.3139,-3543.71,0,0
34210.2,87.6421,-3516.51,0,0
34470.5,85.5914,-3489.85,0,0
34730.9,84.7895,-3462.33,0,0
34991.2,84.708,-3435.92,0,0
35251.5,84.1922,-3409.89,0,0
35511.8,83.0937,-3384.22,0,0
35772.2,82.6681,-3359.11,0,0
36032.5,81.6202,-3334.3,0,0
36292.8,80.794,-3309.6,0,0
36553.1,80.628,-3284.79,0,0
36813.5,80.6985,-3260.89,0,0
37073.8,80.6572,-3237.98,0,0
37334.1,79.3446,-3215.03,0,0
37594.4,79.0889,-3191.5,0,0
37854.8,78.9681,-3169.32,0,0
38115.1,78.0024,-3147.26,0,0
38375.4,77.3412,-3124.61,0,0
38635.7,77.0206,-3102.39,0,0
38896.1,77.5149,-3081.12,0,0
39156.4,76.8078,-3059.87,0,0
39416.7,76.688,-3038.47,0,0
39677,76.6299,-3017.22,0,0
39937.4,77.2828,-2996.53,0,0
40197.7,79.1924,-2975.68,0,0
40458,81.1464,-2959.1,0,0
40718.3,78.0282,-2939.97,0,0
40978.7,78.7876,-2919.59,0,0
41239,80.2539,-2901,0,0
41499.3,81.4368,-2884.89,0,0
41759.6,79.6045,-2868.39,0,0
42020,77.2092,-2850.12,0,0
42280.275,77.305,-2830.12,0,0
42540.6,79.1492,-2813.76,0,0
42800.925,76.7354,-2798.58,0,0
43061.25,76.0451,-2779.83,0,0
43321.575,75.9231,-2763.97,0,0
43581.9,74.061,-2746.87,0,0
43842.225,73.6465,-2728.94,0,0
44102.55,73.4503,-2713.41,0,0
44362.875,72.4116,-2696.05,0,0
44623.2,72.3572,-2679.51,0,0
44883.525,71.8506,-2663.94,0,0
45143.85,71.1667,-2647.35,0,0
45404.175,70.9616,-2631.18,0,0
45664.5,71.6143,-2615.24,0,0
45924.825,71.6599,-2600.38,0,0
46185.15,71.3642,-2586,0,0
46445.475,70.9808,-2569.83,0,0
46705.8,71.3819,-2555.8,0,0
46966.125,71.6322,-2540.79,0,0
47226.45,72.5166,-2527.71,0,0
47486.775,70.6109,-2514.85,0,0
47747.1,69.3869,-2500.16,0,0
48007.425,69.0114,-2485.78,0,0
48267.75,68.6133,-2471.9,0,0
48528.075,67.8606,-2458.77,0,0
48788.4,66.8035,-2444.8,0,0
49048.725,65.8801,-2430.33,0,0
49309.05,66.2522,-2416.72,0,0
49569.375,65.2542,-2403.6,0,0
49829.7,64.9801,-2389.44,0,0
50090.025,64.6152,-2376.37,0,0
50350.35,64.4518,-2362.91,0,0
50610.675,64.0625,-2349.84,0,0
50871.0,64.066,-2336.74,0,0
51131.325,63.8022,-2323.7,0,0
51391.65,63.879,-2310.75,0,0
51651.975,63.9309,-2298.3,0,0
51912.3,63.5235,-2285.32,0,0
52172.625,64.0696,-2272.51,0,0
52432.95,64.052,-2260.04,0,0
52693.275,64.583,-2247.14,0,0
52953.6,65.9931,-2234.95,0,0
53213.925,66.509,-2223.24,0,0
53474.25,67.1899,-2211.28,0,0
53734.575,68.8011,-2198.81,0,0
53994.9,71.4216,-2187.75,0,0
54255.225,73.886,-2177.5,0,0
54515.55,76.5662,-2169.74,0,0
54775.875,75.7554,-2162.76,0,0
55036.2,73.8138,-2152.99,0,0
55296.525,73.6301,-2144.36,0,0
55556.85,71.2568,-2134.82,0,0
55817.175,69.7231,-2124.54,0,0
56077.5,68.1341,-2113.95,0,0
56337.825,66.6995,-2103.19,0,0
56598.15,65.5311,-2091.64,0,0
56858.475,65.4689,-2080.07,0,0
57118.8,65.9432,-2069.42,0,0
57379.125,65.9823,-2059.18,0,0
57639.45,66.1571,-2048.74,0,0
57899.775,66.0853,-2038.51,0,0
58160.1,66.4702,-2027.67,0,0
58420.4,67.7667,-2017.53,0,0
58680.7,67.8601,-2008.73,0,0
58941.1,67.7577,-1998.18,0,0
59201.4,68.8559,-1987.71,0,0
59461.7,70.6488,-1977.49,0,0
59722,73.2138,-1968.34,0,0
59982.4,75.4979,-1960.96,0,0
60242.7,76.4159,-1953.16,0,0
60503,78.0747,-1945.21,0,0
60763.3,81.2605,-1939.17,0,0
61023.7,81.165,-1935.8,0,0
61284,78.6715,-1931.39,0,0
61544.3,73.7932,-1924.82,0,0
61804.6,71.0029,-1914.85,0,0
62065,69.6277,-1905.84,0,0
62325.3,68.1642,-1897.96,0,0
62585.6,65.6417,-1888.65,0,0
62845.9,64.5435,-1878.67,0,0
63106.3,63.9641,-1868.78,0,0
63366.6,64.3414,-1859.77,0,0
63626.9,64.1713,-1851.29,0,0
63887.2,64.0889,-1843.1,0,0
64147.6,63.0986,-1834.02,0,0
64407.9,63.4901,-1824.45,0,0
64668.2,64.5776,-1816.5,0,0
64928.5,64.6521,-1808.65,0,0
65188.9,64.303,-1800.51,0,0
65449.2,64.6495,-1792.02,0,0
65709.5,65.1187,-1783.27,0,0
65969.8,66.7884,-1775.38,0,0
66230.2,67.6578,-1768.15,0,0
66490.5,68.5735,-1761.12,0,0
66750.8,68.5451,-1754.48,0,0
67011.1,68.6535,-1746.71,0,0
67271.5,69.7614,-1739.05,0,0
67531.8,70.9561,-1732.27,0,0
67792.1,72.3045,-1725.85,0,0
68052.4,73.5236,-1720.23,0,0
68312.8,74.2014,-1715.11,0,0
68573.1,74.2372,-1710.1,0,0
68833.4,73.5692,-1705.53,0,0
69093.7,71.7397,-1700.64,0,0
69354.1,69.4532,-1694.63,0,0
69614.4,67.5657,-1687.53,0,0
69874.7,66.2124,-1680.69,0,0
70135,65.0945,-1673.32,0,0
70395.4,64.0352,-1665.7,0,0
70655.7,64.5161,-1657.46,0,0
70916,65.4084,-1651.74,0,0
71176.3,64.85,-1645.63,0,0
71436.7,64.8329,-1639.59,0,0
71697,64.013,-1634.65,0,0
71957.3,61.7051,-1628.65,0,0
72217.6,59.9984,-1621.5,0,0
72478,58.9959,-1613.75,0,0
72738.3,58.4796,-1606.94,0,0
72998.6,57.3113,-1599.62,0,0
73258.9,57.0986,-1591.84,0,0
73519.3,57.2281,-1584.55,0,0
73779.6,57.6614,-1577.49,0,0
74039.9,57.8745,-1570.96,0,0
74300.225,57.9757,-1564.13,0,0
74560.55,58.356,-1557.43,0,0
74820.875,58.7796,-1550.73,0,0
75081.2,59.7547,-1544.3,0,0
75341.525,60.3965,-1538.53,0,0
75601.85,60.7425,-1532.58,0,0
75862.175,61.1882,-1526.62,0,0
76122.5,61.7398,-1520.86,0,0
76382.825,61.9716,-1515.38,0,0
76643.15,61.9441,-1509.75,0,0
76903.475,61.9845,-1503.36,0,0
77163.8,63.2873,-1497.04,0,0
77424.125,64.5857,-1492.01,0,0
77684.45,65.6186,-1487.42,0,0
77944.775,65.9673,-1483.19,0,0
78205.1,65.9051,-1478.8,0,0
78465.425,65.6103,-1474.41,0,0
78725.75,64.9616,-1469.94,0,0
78986.075,64.0193,-1465.08,0,0
79246.4,63.1644,-1459.86,0,0
79506.725,62.4545,-1454.42,0,0
79767.05,61.9256,-1449,0,0
80027.375,61.4663,-1443.59,0,0
80287.7,61.0557,-1438.07,0,0
80548.025,60.9446,-1432.52,0,0
80808.35,60.9174,-1427.1,0,0
81068.675,60.9502,-1421.97,0,0
81329.0,60.8844,-1417,0,0
81589.325,60.7358,-1411.98,0,0
81849.65,60.537,-1407.04,0,0
82109.975,60.1817,-1402.03,0,0
82370.3,59.9953,-1396.98,0,0
82630.625,59.7879,-1392,0,0
82890.95,59.4392,-1387.09,0,0
83151.275,59.1033,-1382.1,0,0
83411.6,58.8455,-1377.15,0,0
83671.925,58.6202,-1372.09,0,0
83932.25,58.3587,-1367.13,0,0
84192.575,58.1359,-1362.17,0,0
84452.9,57.9441,-1357.26,0,0
84713.225,57.7721,-1352.32,0,0
84973.55,57.6283,-1347.5,0,0
85233.875,57.3878,-1342.64,0,0
85494.2,57.1541,-1337.86,0,0
85754.525,56.8676,-1333.02,0,0
86014.85,56.6768,-1328.19,0,0
86275.175,56.5809,-1323.33,0,0
86535.5,56.5241,-1318.62,0,0
86795.825,56.3255,-1314.01,0,0
87056.15,56.052,-1309.42,0,0
87316.475,55.8814,-1304.8,0,0
87576.8,55.671,-1300.19,0,0
87837.125,55.3938,-1295.71,0,0
88097.45,54.849,-1291.14,0,0
88357.775,54.346,-1286.21,0,0
88618.1,54.2432,-1281.29,0,0
88878.425,53.9049,-1276.62,0,0
89138.75,53.7074,-1271.77,0,0
89399.075,53.56,-1266.77,0,0
89659.4,53.6362,-1262.01,0,0
89919.725,53.671,-1257.24,0,0
90180,53.5377,-1252.84,0,0
90440.4,53.5426,-1248.13,0,0
90700.7,53.5123,-1243.66,0,0
90961,53.385,-1238.99,0,0
91221.3,53.3011,-1234.25,0,0
91481.7,53.3767,-1229.56,0,0
91742,53.5806,-1224.93,0,0
92002.3,53.8213,-1220.37,0,0
92262.6,54.14,-1215.92,0,0
92523,54.4659,-1211.5,0,0
92783.3,54.7476,-1207.39,0,0
93043.6,55.1464,-1203.3,0,0
93303.9,55.3279,-1199.32,0,0
93564.3,55.2977,-1195.57,0,0
93824.6,55.0315,-1191.73,0,0
94084.9,54.7041,-1187.8,0,0
94345.2,54.2009,-1183.63,0,0
94605.6,53.7643,-1179.25,0,0
94865.9,53.4841,-1174.79,0,0
95126.2,53.2616,-1170.28,0,0
95386.5,53.1316,-1165.81,0,0
95646.9,53.1066,-1161.35,0,0
95907.2,53.1454,-1156.86,0,0
96167.5,53.2161,-1152.41,0,0
96427.8,53.4237,-1148.03,0,0
96688.2,53.5346,-1143.8,0,0
96948.5,53.5197,-1139.43,0,0
97208.8,53.6703,-1135.01,0,0
97469.1,53.8893,-1130.71,0,0
97729.5,54.0617,-1126.41,0,0
97989.8,54.22,-1122.02,0,0
98250.1,54.5098,-1117.64,0,0
98510.4,54.9002,-1113.33,0,0
98770.8,55.3577,-1108.97,0,0
99031.1,55.9306,-1104.8,0,0
99291.4,56.524,-1100.73,0,0
99551.7,56.9801,-1096.78,0,0
99812.1,57.322,-1092.66,0,0
100072,57.8866,-1088.44,0,0
100333,58.7555,-1084.33,0,0
100593,59.8653,-1080.55,0,0
100853,60.6935,-1077.27,0,0
101114,61.2214,-1073.83,0,0
101374,62.1133,-1070.64,0,0
101634,62.5872,-1068.08,0,0
101895,62.1816,-1065.55,0,0
102155,61.3549,-1062.45,0,0
102415,60.4141,-1058.79,0,0
102676,59.6097,-1054.83,0,0
102936,58.776,-1050.54,0,0
103196,58.2477,-1045.92,0,0
103457,57.9757,-1041.07,0,0
103717,58.1292,-1036.27,0,0
103977,58.4224,-1031.58,0,0
104238,58.7931,-1026.79,0,0
104498,59.4549,-1021.96,0,0
104758,60.3732,-1017.23,0,0
105019,61.4378,-1012.74,0,0
105279,62.523,-1008.32,0,0
105539,63.7926,-1003.98,0,0
105800,65.1261,-999.837,0,0
106060,66.5325,-995.784,0,0
106320.175,67.9776,-991.929,0,0
106580.5,69.366,-988.255,0,0
106840.825,70.7128,-984.625,0,0
107101.15,72.0014,-980.993,0,0
107361.475,73.2816,-977.403,0,0
107621.8,74.574,-973.688,0,0
107882.125,76.0565,-970.063,0,0
108142.45,77.6913,-966.492,0,0
108402.775,79.4099,-963.07,0,0
108663.1,81.1291,-959.843,0,0
108923.425,82.892,-956.706,0,0
109183.75,84.8053,-953.677,0,0
109444.075,86.6762,-951.055,0,0
109704.4,88.2997,-948.617,0,0
109964.725,89.7324,-946.064,0,0
110225.05,91.3106,-943.59,0,0
110485.375,92.8811,-941.342,0,0
110745.7,94.2137,-939.185,0,0
111006.025,95.4346,-936.978,0,0
111266.35,96.624,-934.893,0,0
111526.675,97.7765,-932.608,0,0
111787.0,98.8899,-930.424,0,0
112047.325,100.092,-928.359,0,0
112307.65,101.135,-926.396,0,0
112567.975,102.219,-924.397,0,0
112828.3,103.199,-922.513,0,0
113088.625,104.126,-920.671,0,0
113348.95,104.989,-918.912,0,0
113609.275,105.746,-917.207,0,0
113869.6,106.333,-915.5,0,0
114129.925,106.985,-913.711,0,0
114390.25,107.618,-911.897,0,0
114650.575,108.219,-910.244,0,0
114910.9,108.757,-908.692,0,0
115171.225,109.109,-907.22,0,0
115431.55,109.249,-905.704,0,0
115691.875,109.354,-904.006,0,0
115952.2,109.459,-902.333,0,0
116212.525,109.477,-900.667,0,0
116472.85,109.405,-898.998,0,0
116733.175,109.272,-897.233,0,0
116993.5,109.037,-895.413,0,0
117253.825,108.658,-893.525,0,0
117514.15,108.309,-891.442,0,0
117774.475,107.938,-889.234,0,0
118034.8,107.667,-886.858,0,0
118295.125,107.549,-884.518,0,0
118555.45,107.268,-882.117,0,0
118815.775,107.065,-879.218,0,0
119076.1,107.534,-876.073,0,0
119336.425,108.609,-873.277,0,0
119596.75,109.981,-870.917,0,0
119857.075,111.798,-869.125,0,0
120117.4,113.545,-868.663,0,0
120377.725,114.114,-868.845,0,0
120638.05,113.884,-868.944,0,0
120898.375,112.741,-868.911,0,0
121158.7,111.04,-868.103,0,0
121419.025,109.289,-866.643,0,0
121679.35,107.651,-864.75,0,0
121939.675,106.224,-862.557,0,0
122200.0,104.942,-860.178,0,0
122460,103.895,-857.623,0,0
122721,103.018,-855.155,0,0
122981,102.134,-852.635,0,0
123241,101.329,-850.085,0,0
123502,100.655,-847.453,0,0
123762,100.06,-844.88,0,0
124022,99.4817,-842.287,0,0
124283,98.9922,-839.689,0,0
124543,98.5221,-837.098,0,0
124803,98.1561,-834.467,0,0
125064,97.9154,-831.926,0,0
125324,97.7222,-829.563,0,0
125584,97.4997,-827.298,0,0
125845,97.3022,-825.168,0,0
126105,96.9189,-823.148,0,0
126365,96.3989,-821.171,0,0
126626,95.7228,-819.182,0,0
126886,94.9097,-817.082,0,0
127146,94.0889,-814.905,0,0
127406,93.2842,-812.657,0,0
127667,92.5523,-810.465,0,0
127927,91.5421,-808.576,0,0
128187,90.2286,-806.376,0,0
128448,88.9314,-804.088,0,0
128708,87.5111,-801.714,0,0
128968,85.9065,-799.161,0,0
129229,84.16,-796.285,0,0
129489,82.5744,-793.047,0,0
129749,81.1549,-789.651,0,0
130010,79.8989,-786.176,0,0
130270,78.8434,-782.659,0,0
130530,77.7596,-779.095,0,0
130791,76.7779,-775.442,0,0
131051,75.9108,-771.685,0,0
131311,75.2062,-767.935,0,0
131572,74.596,-764.182,0,0
131832,74.0235,-760.439,0,0
132092,73.4964,-756.622,0,0
132353,73.1095,-752.81,0,0
132613,72.7917,-749.008,0,0
132873,72.5728,-745.209,0,0
133134,72.3379,-741.447,0,0
133394,72.1646,-737.684,0,0
133654,72.0649,-733.861,0,0
133915,72.0486,-730.052,0,0
134175,72.0734,-726.272,0,0
134435,72.1532,-722.521,0,0
134696,72.2094,-718.749,0,0
134956,72.4012,-714.948,0,0
135216,72.6722,-711.155,0,0
135477,73.0033,-707.467,0,0
135737,73.3325,-703.812,0,0
135997,73.6701,-700.127,0,0
136258,73.9969,-696.449,0,0
136518,74.4401,-692.73,0,0
136778,74.9912,-689.109,0,0
137039,75.5374,-685.614,0,0
137299,75.9675,-682.228,0,0
137559,76.2843,-678.769,0,0
137819,76.5663,-675.189,0,0
138080,76.8603,-671.502,0,0
138340.125,77.3017,-667.78,0,0
138600.45,77.7728,-664.052,0,0
138860.775,78.255,-660.292,0,0
139121.1,78.8253,-656.463,0,0
139381.425,79.5064,-652.637,0,0
139641.75,80.1933,-648.883,0,0
139902.075,80.8661,-645.073,0,0
140162.4,81.6413,-641.184,0,0
140422.725,82.5648,-637.304,0,0
140683.05,83.5383,-633.486,0,0
140943.375,84.5843,-629.687,0,0
141203.7,85.6795,-625.922,0,0
141464.025,86.8202,-622.208,0,0
141724.35,88.0087,-618.548,0,0
141984.675,89.1723,-614.975,0,0
142245.0,90.2792,-611.393,0,0
142505.325,91.4047,-607.725,0,0
142765.65,92.6026,-604.024,0,0
143025.975,93.8919,-600.37,0,0
143286.3,95.1643,-596.725,0,0
143546.625,96.4548,-593.134,0,0
143806.95,97.7153,-589.478,0,0
144067.275,99.0789,-585.784,0,0
144327.6,100.476,-582.093,0,0
144587.925,101.876,-578.408,0,0
144848.25,103.348,-574.671,0,0
145108.575,104.884,-570.935,0,0
145368.9,106.47,-567.184,0,0
145629.225,108.155,-563.424,0,0
145889.55,109.904,-559.664,0,0
146149.875,111.704,-555.91,0,0
146410.2,113.564,-552.181,0,0
146670.525,115.511,-548.472,0,0
146930.85,117.494,-544.796,0,0
147191.175,119.511,-541.095,0,0
147451.5,121.621,-537.4,0,0
147711.825,123.835,-533.761,0,0
147972.15,126.048,-530.15,0,0
148232.475,128.326,-526.535,0,0
148492.8,130.647,-522.937,0,0
148753.125,133.011,-519.3,0,0
149013.45,135.433,-515.686,0,0
149273.775,137.877,-512.081,0,0
149534.1,140.335,-508.35,0,0
149794.425,142.969,-504.5,0,0
150054.75,145.857,-500.625,0,0
150315.075,148.967,-496.784,0,0
150575.4,152.305,-493.078,0,0
150835.725,155.764,-489.567,0,0
151096.05,159.229,-486.112,0,0
151356.375,162.845,-482.628,0,0
151616.7,166.675,-479.215,0,0
151877.025,170.722,-475.921,0,0
152137.35,175.027,-472.784,0,0
152397.675,179.529,-469.99,0,0
152658.0,184.081,-467.486,0,0
152918.325,188.681,-465.233,0,0
153178.65,193.27,-463.267,0,0
153438.975,197.903,-461.524,0,0
153699.3,202.542,-460.208,0,0
153959.625,206.875,-459.198,0,0
154219.95,211.037,-458.285,0,0
154480,215.071,-457.573,0,0
154741,218.664,-457.014,0,0
155001,222.042,-456.217,0,0
155261,225.589,-455.145,0,0
155522,229.319,-454.179,0,0
155782,233.109,-453.729,0,0
156042,236.352,-453.556,0,0
156303,239.217,-453.086,0,0
156563,242.107,-452.127,0,0
156823,245.422,-451.272,0,0
157084,248.664,-450.802,0,0
157344,251.558,-450.295,0,0
157604,254.201,-449.52,0,0
157864,256.983,-448.315,0,0
158125,260.314,-447.005,0,0
158385,264.016,-445.74,0,0
158645,268.124,-444.983,0,0
158906,272.064,-444.711,0,0
159166,275.821,-444.644,0,0
159426,279.612,-444.765,0,0
159687,283.114,-445.074,0,0
159947,286.709,-445.312,0,0
160207,290.361,-445.79,0,0
160468,294.096,-446.714,0,0
160728,297.294,-448.12,0,0
160988,300.123,-449.7,0,0
161249,302.461,-451.284,0,0
161509,304.325,-452.466,0,0
161769,306.214,-453.632,0,0
162030,307.831,-454.659,0,0
162290,309.294,-455.792,0,0
162550,310.355,-456.771,0,0
162811,311.078,-457.533,0,0
163071,311.451,-457.852,0,0
163331,311.712,-457.53,0,0
163592,312.257,-456.73,0,0
163852,313.022,-455.645,0,0
164112,313.879,-454.207,0,0
164373,315.206,-452.202,0,0
164633,317.186,-450.487,0,0
164893,319.131,-448.743,0,0
165154,321.26,-446.662,0,0
165414,323.982,-444.174,0,0
165674,327.373,-441.862,0,0
165935,331.405,-439.701,0,0
166195,336.026,-437.88,0,0
166455,341.008,-436.599,0,0
166716,346.37,-435.588,0,0
166976,352.256,-435.262,0,0
167236,358.275,-435.778,0,0
167497,364.066,-436.916,0,0
167757,370.159,-438.457,0,0
168017,375.831,-441.037,0,0
168277,381.152,-443.745,0,0
168538,386.406,-446.61,0,0
168798,391.797,-450.134,0,0
169058,397.24,-454.33,0,0
169319,402.312,-459.475,0,0
169579,406.822,-465.291,0,0
169839,410.752,-471.727,0,0
170100,413.979,-478.901,0,0
170360.075,416.17,-486.521,0,0
170620.4,417.295,-494.544,0,0
170880.725,417.207,-502.575,0,0
171141.05,416.119,-510.325,0,0
171401.375,414.223,-517.861,0,0
171661.7,411.376,-525.228,0,0
171922.025,407.408,-532.145,0,0
172182.35,402.614,-538.289,0,0
172442.675,397.13,-543.669,0,0
172703.0,391.043,-548.084,0,0
172963.325,384.796,-551.565,0,0
173223.65,378.366,-554.456,0,0
173483.975,371.495,-556.559,0,0
173744.3,364.526,-557.575,0,0
174004.625,357.779,-557.731,0,0
174264.95,351.269,-557.11,0,0
174525.275,345.234,-555.942,0,0
174785.6,339.369,-554.635,0,0
175045.925,333.272,-552.757,0,0
175306.25,327.321,-549.959,0,0
175566.575,321.851,-546.35,0,0
175826.9,317.05,-542.205,0,0
176087.225,312.881,-537.706,0,0
176347.55,309.397,-532.986,0,0
176607.875,306.454,-528.171,0,0
176868.2,304.039,-523.302,0,0
177128.525,302.055,-518.502,0,0
177388.85,300.424,-513.769,0,0
177649.175,299.131,-509.099,0,0
177909.5,298.064,-504.513,0,0
178169.825,297.242,-499.916,0,0
178430.15,296.661,-495.301,0,0
178690.475,296.409,-490.74,0,0
178950.8,296.447,-486.212,0,0
179211.125,296.786,-481.792,0,0
179471.45,297.426,-477.624,0,0
179731.775,298.178,-473.761,0,0
179992.1,298.963,-470.071,0,0
180252.425,299.755,-466.515,0,0
180512.75,300.526,-463.127,0,0
180773.075,301.266,-459.766,0,0
181033.4,302.051,-456.456,0,0
181293.725,302.823,-453.195,0,0
181554.05,303.602,-449.978,0,0
181814.375,304.331,-446.828,0,0
182074.7,304.979,-443.716,0,0
182335.025,305.544,-440.553,0,0
182595.35,305.993,-437.305,0,0
182855.675,306.341,-433.874,0,0
183116.0,306.742,-430.191,0,0
183376.325,307.276,-426.349,0,0
183636.65,307.922,-422.383,0,0
183896.975,308.688,-418.28,0,0
184157.3,309.6,-414.122,0,0
184417.625,310.645,-409.876,0,0
184677.95,311.791,-405.535,0,0
184938.275,313.103,-401.133,0,0
185198.6,314.558,-396.709,0,0
185458.925,316.085,-392.256,0,0
185719.25,317.678,-387.743,0,0
185979.575,319.322,-383.116,0,0
186239.9,321.074,-378.309,0,0
186500,323.048,-373.419,0,0
186761,325.133,-368.394,0,0
187021,327.296,-363.186,0,0
187281,329.7,-357.883,0,0
187542,332.39,-352.368,0,0
187802,335.362,-346.805,0,0
188062,338.583,-341.222,0,0
188322,342.077,-335.559,0,0
188583,345.806,-329.872,0,0
188843,349.768,-324.098,0,0
189103,354.027,-318.228,0,0
189364,358.569,-312.335,0,0
189624,363.521,-306.344,0,0
189884,368.804,-300.444,0,0
190145,374.5,-294.534,0,0
190405,380.43,-288.653,0,0
190665,386.771,-282.946,0,0
190926,393.337,-277.166,0,0
191186,400.395,-271.434,0,0
191446,407.885,-265.867,0,0
191707,415.827,-260.384,0,0
191967,424.089,-255.188,0,0
192227,432.824,-250.221,0,0
192488,441.89,-245.497,0,0
192748,451.313,-240.964,0,0
193008,461.003,-236.869,0,0
193269,471.128,-232.922,0,0
193529,481.397,-229.336,0,0
193789,492.116,-226.169,0,0
194050,502.996,-223.39,0,0
194310,514.122,-220.807,0,0
194570,525.386,-218.494,0,0
194831,537.03,-216.432,0,0
195091,548.807,-214.699,0,0
195351,560.876,-213.308,0,0
195612,573.335,-212.097,0,0
195872,586.179,-211.225,0,0
196132,599.418,-210.78,0,0
196393,613,-210.785,0,0
196653,626.97,-211.257,0,0
196913,641.278,-212.233,0,0
197174,655.92,-213.731,0,0
197434,670.972,-215.752,0,0
197694,686.517,-218.467,0,0
197955,702.41,-221.946,0,0
198215,718.597,-226.087,0,0
198475,735.389,-231.016,0,0
198735,752.85,-237.106,0,0
198996,770.635,-244.762,0,0
199256,788.432,-254.053,0,0
199516,805.756,-265.08,0,0
199777,822.381,-277.301,0,0
200037,838.481,-290.7,0,0
200297,853.857,-305.462,0,0
200558,868.454,-321.502,0,0
200818,881.651,-338.615,0,0
201078,893.804,-356.523,0,0
201339,904.82,-375.269,0,0
201599,914.317,-394.916,0,0
201859,922.067,-414.746,0,0
202120,928.569,-434.482,0,0
202380.025,934.215,-454.078,0,0
202640.35,938.642,-473.562,0,0
202900.675,942.469,-492.812,0,0
203161.0,945.815,-512.326,0,0
203421.325,948.481,-532.746,0,0
203681.65,949.352,-553.761,0,0
203941.975,948.358,-574.302,0,0
204202.3,946.097,-593.815,0,0
204462.625,943.348,-612.498,0,0
204722.95,940.216,-630.938,0,0
204983.275,936.373,-649.162,0,0
205243.6,931.789,-667.284,0,0
205503.925,926.294,-684.924,0,0
205764.25,919.982,-702.141,0,0
206024.575,913.202,-718.786,0,0
206284.9,906.045,-735.329,0,0
206545.225,898.116,-751.927,0,0
206805.55,888.719,-768.06,0,0
207065.875,878.544,-783.26,0,0
207326.2,867.606,-797.816,0,0
207586.525,855.973,-811.432,0,0
207846.85,843.733,-824.173,0,0
208107.175,831.097,-836.058,0,0
208367.5,817.816,-847.2,0,0
208627.825,803.827,-857.299,0,0
208888.15,789.559,-865.78,0,0
209148.475,775.214,-872.899,0,0
209408.8,761.479,-878.931,0,0
209669.125,748.258,-884.101,0,0
209929.45,735.43,-888.517,0,0
210189.775,722.761,-892.58,0,0
210450.1,710.193,-896.03,0,0
210710.425,697.824,-898.628,0,0
210970.75,686.023,-900.317,0,0
211231.075,674.972,-901.611,0,0
211491.4,664.48,-902.771,0,0
211751.725,654.137,-903.958,0,0
212012.05,643.794,-904.65,0,0
212272.375,633.738,-904.889,0,0
212532.7,623.936,-904.692,0,0
212793.025,614.26,-904.009,0,0
213053.35,605.053,-902.592,0,0
213313.675,596.567,-900.561,0,0
213574.0,588.717,-898.274,0,0
213834.325,581.783,-895.624,0,0
214094.65,576.025,-892.834,0,0
214354.975,571.179,-890.426,0,0
214615.3,567.121,-888.826,0,0
214875.625,563.269,-887.794,0,0
215135.95,559.681,-887.373,0,0
215396.275,556.001,-887.62,0,0
215656.6,552.173,-888.422,0,0
215916.925,547.88,-889.529,0,0
216177.25,543.128,-890.497,0,0
216437.575,538.295,-891.34,0,0
216697.9,533.487,-892.037,0,0
216958.225,528.609,-892.761,0,0
217218.55,523.601,-893.459,0,0
217478.875,518.575,-894.012,0,0
217739.2,513.51,-894.441,0,0
217999.525,508.446,-894.715,0,0
218259.85,503.623,-894.797,0,0
218520,498.922,-894.929,0,0
218780,494.466,-895.137,0,0
219041,489.912,-895.501,0,0
219301,485.332,-895.871,0,0
219561,480.7,-896.362,0,0
219822,475.831,-896.865,0,0
220082,470.796,-897.204,0,0
220342,465.768,-897.439,0,0
220603,460.618,-897.252,0,0
220863,455.632,-896.959,0,0
221123,450.818,-896.53,0,0
221384,446.173,-895.992,0,0
221644,441.615,-895.471,0,0
221904,437.189,-895.017,0,0
222165,432.64,-894.545,0,0
222425,428.171,-893.842,0,0
222685,424.043,-893.097,0,0
222946,419.922,-892.49,0,0
223206,415.956,-891.723,0,0
223466,412.291,-891.117,0,0
223727,408.74,-890.799,0,0
223987,404.978,-890.847,0,0
224247,401.211,-890.929,0,0
224508,397.073,-891.193,0,0
224768,392.736,-891.339,0,0
225028,388.234,-891.476,0,0
225289,383.712,-891.53,0,0
225549,379.072,-891.319,0,0
225809,374.397,-891.149,0,0
226070,369.556,-890.958,0,0
226330,364.653,-890.625,0,0
226590,359.614,-890.106,0,0
226851,354.576,-889.584,0,0
227111,349.358,-888.939,0,0
227371,344.035,-888.023,0,0
227632,338.599,-887.009,0,0
227892,333.081,-885.695,0,0
228152,327.527,-884.031,0,0
228413,321.921,-882.07,0,0
228673,316.564,-879.732,0,0
228933,311.357,-877.106,0,0
229193,306.392,-874.311,0,0
229454,301.6,-871.312,0,0
229714,297.274,-868.265,0,0
229974,292.896,-865.321,0,0
230235,288.727,-862.263,0,0
230495,284.604,-859.182,0,0
230755,280.521,-855.832,0,0
231016,276.704,-852.349,0,0
231276,273.149,-848.752,0,0
231536,269.907,-845.238,0,0
231797,266.884,-841.725,0,0
232057,263.958,-838.456,0,0
232317,261.084,-835.185,0,0
232578,258.186,-831.9,0,0
232838,255.355,-828.651,0,0
233098,252.505,-825.286,0,0
233359,249.77,-821.724,0,0
233619,247.234,-818.012,0,0
233879,245.11,-814.354,0,0
234140,243.165,-810.796,0,0
234400,241.322,-807.411,0,0
234660.3,239.588,-804.069,0,0
234920.625,237.931,-800.81,0,0
235180.95,236.313,-797.605,0,0
235441.275,234.747,-794.573,0,0
235701.6,233.225,-791.541,0,0
235961.925,231.69,-788.534,0,0
236222.25,230.197,-785.532,0,0
236482.575,228.753,-782.465,0,0
236742.9,227.34,-779.448,0,0
237003.225,225.997,-776.325,0,0
237263.55,224.788,-773.142,0,0
237523.875,223.86,-770.036,0,0
237784.2,223.009,-766.994,0,0
238044.525,222.237,-764.094,0,0
238304.85,221.564,-761.221,0,0
238565.175,220.933,-758.492,0,0
238825.5,220.461,-755.794,0,0
239085.825,219.993,-753.214,0,0
239346.15,219.457,-750.748,0,0
239606.475,219.079,-748.277,0,0
239866.8,218.722,-745.936,0,0
240127.125,218.367,-743.626,0,0
240387.45,218.024,-741.474,0,0
240647.775,217.768,-739.386,0,0
240908.1,217.565,-737.346,0,0
241168.425,217.296,-735.524,0,0
241428.75,217.05,-733.682,0,0
241689.075,216.7,-731.97,0,0
241949.4,216.374,-730.301,0,0
242209.725,216.035,-728.734,0,0
242470.05,215.657,-727.247,0,0
242730.375,215.237,-725.845,0,0
242990.7,214.787,-724.475,0,0
243251.025,214.217,-723.258,0,0
243511.35,213.554,-722.035,0,0
243771.675,212.694,-720.856,0,0
244032.0,211.72,-719.668,0,0
244292.325,210.68,-718.381,0,0
244552.65,209.486,-717.009,0,0
244812.975,208.242,-715.492,0,0
245073.3,206.981,-713.969,0,0
245333.625,205.709,-712.241,0,0
245593.95,204.542,-710.468,0,0
245854.275,203.401,-708.616,0,0
246114.6,202.198,-706.678,0,0
246374.925,201.118,-704.675,0,0
246635.25,199.989,-702.589,0,0
246895.575,199.02,-700.403,0,0
247155.9,198.16,-698.252,0,0
247416.225,197.374,-696.067,0,0
247676.55,196.605,-693.902,0,0
247936.875,195.826,-691.695,0,0
248197.2,195.211,-689.455,0,0
248457.525,194.687,-687.222,0,0
248717.85,194.264,-684.93,0,0
248978.175,193.91,-682.74,0,0
249238.5,193.669,-680.653,0,0
249498.825,193.515,-678.608,0,0
249759.15,193.414,-676.611,0,0
250019.475,193.349,-674.758,0,0
250279.8,193.266,-673.123,0,0
250540,193.126,-671.611,0,0
250800,192.775,-670.247,0,0
251061,192.22,-668.848,0,0
251321,191.541,-667.372,0,0
251581,190.711,-665.786,0,0
251842,189.816,-664.027,0,0
252102,188.931,-662.081,0,0
252362,188.152,-660.02,0,0
252623,187.425,-657.9,0,0
252883,186.78,-655.692,0,0
253143,186.223,-653.524,0,0
253404,185.7,-651.357,0,0
253664,185.159,-649.228,0,0
253924,184.608,-647.151,0,0
254185,183.829,-645.057,0,0
254445,182.858,-642.726,0,0
254705,181.916,-640.105,0,0
254966,181.08,-637.198,0,0
255226,180.396,-634.01,0,0
255486,179.988,-630.773,0,0
255747,179.704,-627.404,0,0
256007,179.583,-623.946,0,0
256267,179.695,-620.369,0,0
256528,180.034,-616.721,0,0
256788,180.572,-613.057,0,0
257048,181.348,-609.335,0,0
257309,182.354,-605.562,0,0
257569,183.646,-601.85,0,0
257829,185.197,-598.214,0,0
258090,186.947,-594.66,0,0
258350,188.898,-591.141,0,0
258610,191.126,-587.708,0,0
258871,193.618,-584.453,0,0
259131,196.264,-581.387,0,0
259391,198.996,-578.481,0,0
259651,201.861,-575.631,0,0
259912,204.942,-572.86,0,0
260172,208.282,-570.293,0,0
260432,211.833,-567.923,0,0
260693,215.438,-565.904,0,0
260953,219.159,-564.013,0,0
261213,222.971,-562.272,0,0
261474,226.976,-560.642,0,0
261734,231.217,-559.226,0,0
261994,235.74,-558.126,0,0
262255,240.5,-557.45,0,0
262515,245.355,-557.321,0,0
262775,250.14,-557.78,0,0
263036,254.671,-558.76,0,0
263296,258.788,-560.084,0,0
263556,262.604,-561.476,0,0
263817,266.23,-563.022,0,0
264077,269.709,-564.635,0,0
264337,272.971,-566.327,0,0
264598,276.132,-567.997,0,0
264858,279.312,-569.742,0,0
265118,282.593,-571.623,0,0
265379,285.81,-573.701,0,0
265639,288.962,-575.873,0,0
265899,292.253,-578.139,0,0
266160,295.781,-580.798,0,0
266420,299.306,-583.975,0,0
266680.25,302.671,-587.789,0,0
266940.575,305.67,-592.084,0,0
267200.9,308.222,-596.858,0,0
267461.225,310.21,-602.009,0,0
267721.55,311.612,-607.427,0,0
267981.875,312.281,-613.057,0,0
268242.2,312.175,-618.661,0,0
268502.525,311.361,-623.923,0,0
268762.85,310.104,-628.8,0,0
269023.175,308.536,-633.391,0,0
269283.5,306.54,-637.712,0,0
269543.825,304.225,-641.617,0,0
269804.15,301.781,-645.045,0,0
270064.475,299.23,-648.045,0,0
270324.8,296.668,-650.731,0,0
270585.125,294.25,-653.113,0,0
270845.45,292.004,-655.293,0,0
271105.775,289.868,-657.53,0,0
271366.1,287.676,-659.738,0,0
271626.425,285.348,-661.977,0,0
271886.75,282.799,-663.99,0,0
272147.075,280.162,-665.74,0,0
272407.4,277.616,-667.293,0,0
272667.725,275.166,-668.625,0,0
272928.05,272.922,-669.841,0,0
273188.375,270.923,-671.008,0,0
273448.7,269.123,-672.458,0,0
273709.025,267.259,-674.321,0,0
273969.35,265.08,-676.384,0,0
274229.675,262.595,-678.487,0,0
274490.0,259.583,-680.527,0,0
274750.325,256.366,-682.394,0,0
275010.65,253.01,-683.971,0,0
275270.975,249.4,-685.476,0,0
275531.3,245.544,-686.752,0,0
275791.625,241.436,-687.828,0,0
276051.95,237.034,-688.519,0,0
276312.275,232.503,-688.825,0,0
276572.6,227.859,-688.629,0,0
276832.925,223.25,-687.917,0,0
277093.25,218.726,-686.706,0,0
277353.575,214.427,-685.017,0,0
277613.9,210.426,-682.922,0,0
277874.225,206.794,-680.453,0,0
278134.55,203.583,-677.753,0,0
278394.875,200.833,-674.854,0,0
278655.2,198.554,-671.879,0,0
278915.525,196.737,-668.959,0,0
279175.85,195.294,-666.154,0,0
279436.175,194.17,-663.619,0,0
279696.5,193.268,-661.236,0,0
279956.825,192.512,-659.256,0,0
280217.15,191.633,-657.414,0,0
280477.475,190.661,-655.656,0,0
280737.8,189.688,-653.84,0,0
280998.125,188.75,-651.882,0,0
281258.45,187.953,-649.814,0,0
281518.775,187.473,-647.67,0,0
281779.1,187.338,-645.68,0,0
282039.425,187.422,-643.949,0,0
282299.75,187.547,-642.458,0,0
282560,187.747,-641.163,0,0
282820,187.99,-640.078,0,0
283081,188.25,-639.27,0,0
283341,188.371,-638.659,0,0
283601,188.406,-638.179,0,0
283862,188.35,-637.868,0,0
284122,188.136,-637.735,0,0
284382,187.66,-637.69,0,0
284643,187.002,-637.674,0,0
284903,186.137,-637.606,0,0
285163,185.039,-637.508,0,0
285424,183.801,-637.284,0,0
285684,182.348,-636.952,0,0
285944,180.776,-636.373,0,0
286205,179.138,-635.55,0,0
286465,177.542,-634.484,0,0
286725,175.945,-633.267,0,0
286986,174.37,-631.825,0,0
287246,172.885,-630.16,0,0
287506,171.512,-628.264,0,0
287767,170.35,-626.181,0,0
288027,169.402,-623.932,0,0
288287,168.73,-621.609,0,0
288548,168.326,-619.246,0,0
288808,168.106,-616.908,0,0
289068,168.083,-614.59,0,0
289329,168.243,-612.231,0,0
289589,168.646,-609.942,0,0
289849,169.24,-607.601,0,0
290109,170.127,-605.302,0,0
290370,171.313,-603.131,0,0
290630,172.803,-601.127,0,0
290890,174.51,-599.34,0,0
291151,176.438,-597.792,0,0
291411,178.61,-596.538,0,0
291671,180.951,-595.644,0,0
291932,183.382,-595.157,0,0
292192,185.824,-595.096,0,0
292452,188.162,-595.384,0,0
292713,190.389,-596.008,0,0
292973,192.534,-596.888,0,0
293233,194.561,-598.124,0,0
293494,196.427,-599.68,0,0
293754,198.068,-601.577,0,0
294014,199.424,-603.798,0,0
294275,200.381,-606.321,0,0
294535,200.85,-609.02,0,0
294795,200.772,-611.754,0,0
295056,200.306,-614.359,0,0
295316,199.441,-616.885,0,0
295576,198.261,-619.22,0,0
295837,196.798,-621.375,0,0
296097,195.061,-623.277,0,0
296357,193.15,-624.881,0,0
296618,191.087,-626.223,0,0
296878,189.006,-627.29,0,0
297138,186.916,-628.115,0,0
297399,184.857,-628.736,0,0
297659,182.843,-629.189,0,0
297919,180.91,-629.536,0,0
298180,179.041,-629.777,0,0
298440,177.178,-629.991,0,0
298700.2,175.343,-630.136,0,0
298960.525,173.486,-630.244,0,0
299220.85,171.616,-630.272,0,0
299481.175,169.722,-630.233,0,0
299741.5,167.826,-630.068,0,0
300001.825,165.93,-629.793,0,0
300262.15,164.1,-629.447,0,0
300522.475,162.29,-629.007,0,0
300782.8,160.502,-628.503,0,0
301043.125,158.778,-627.918,0,0
301303.45,157.103,-627.267,0,0
301563.775,155.483,-626.569,0,0
301824.1,153.957,-625.834,0,0
302084.425,152.491,-625.108,0,0
302344.75,151.052,-624.408,0,0
302605.075,149.595,-623.7,0,0
302865.4,148.121,-622.986,0,0
303125.725,146.613,-622.203,0,0
303386.05,145.109,-621.342,0,0
303646.375,143.656,-620.41,0,0
303906.7,142.244,-619.397,0,0
304167.025,140.899,-618.347,0,0
304427.35,139.612,-617.262,0,0
304687.675,138.345,-616.113,0,0
304948.0,137.16,-614.975,0,0
305208.325,136.015,-613.777,0,0
305468.65,134.985,-612.588,0,0
305728.975,133.982,-611.392,0,0
305989.3,133.035,-610.19,0,0
306249.625,132.134,-608.961,0,0
306509.95,131.288,-607.712,0,0
306770.275,130.539,-606.472,0,0
307030.6,129.882,-605.24,0,0
307290.925,129.289,-604.058,0,0
307551.25,128.744,-602.948,0,0
307811.575,128.277,-601.882,0,0
308071.9,127.83,-600.897,0,0
308332.225,127.379,-600.009,0,0
308592.55,126.908,-599.182,0,0
308852.875,126.387,-598.403,0,0
309113.2,125.816,-597.641,0,0
309373.525,125.179,-596.907,0,0
309633.85,124.487,-596.128,0,0
309894.175,123.767,-595.305,0,0
310154.5,123.064,-594.43,0,0
310414.825,122.413,-593.501,0,0
310675.15,121.78,-592.539,0,0
310935.475,121.184,-591.609,0,0
311195.8,120.628,-590.696,0,0
311456.125,120.049,-589.785,0,0
311716.45,119.471,-588.859,0,0
311976.775,118.927,-587.915,0,0
312237.1,118.386,-586.939,0,0
312497.425,117.913,-585.937,0,0
312757.75,117.49,-584.954,0,0
313018.075,117.133,-583.99,0,0
313278.4,116.825,-583.068,0,0
313538.725,116.504,-582.191,0,0
313799.05,116.216,-581.347,0,0
314059.375,115.943,-580.549,0,0
314319.7,115.67,-579.777,0,0
314580,115.348,-579.081,0,0
314840,115.034,-578.392,0,0
315101,114.689,-577.657,0,0
315361,114.464,-577.042,0,0
315621,114.051,-576.314,0,0
315882,113.772,-575.622,0,0
316142,113.367,-574.972,0,0
316402,113.163,-574.341,0,0
316663,112.857,-573.65,0,0
316923,112.613,-573.134,0,0
317183,112.33,-572.408,0,0
317444,112.059,-571.879,0,0
317704,111.78,-571.321,0,0
317964,111.53,-570.802,0,0
318225,111.295,-570.338,0,0
318485,111.162,-569.965,0,0
318745,110.859,-569.608,0,0
319006,110.599,-569.427,0,0
319266,110.223,-569.207,0,0
319526,109.839,-569.098,0,0
319787,109.353,-568.987,0,0
320047,108.779,-568.912,0,0
320307,108.13,-568.74,0,0
320567,107.463,-568.674,0,0
320828,106.507,-568.66,0,0
321088,105.594,-568.429,0,0
321348,104.629,-568.233,0,0
321609,103.492,-568.032,0,0
321869,102.359,-567.712,0,0
322129,101.098,-567.363,0,0
322390,99.8149,-566.976,0,0
322650,98.4831,-566.309,0,0
322910,97.1017,-565.644,0,0
323171,95.6422,-564.788,0,0
323431,94.3641,-563.816,0,0
323691,93.0475,-562.707,0,0
323952,91.8879,-561.607,0,0
324212,90.7782,-560.311,0,0
324472,89.7103,-559.034,0,0
324733,88.7749,-557.726,0,0
324993,87.783,-556.409,0,0
325253,86.9735,-555.006,0,0
325514,86.2942,-553.705,0,0
325774,85.555,-552.322,0,0
326034,84.8649,-551.014,0,0
326295,84.2627,-549.703,0,0
326555,83.7109,-548.317,0,0
326815,83.0983,-547.01,0,0
327076,82.556,-545.672,0,0
327336,82.0032,-544.364,0,0
327596,81.4678,-543.075,0,0
327857,80.9643,-541.713,0,0
328117,80.415,-540.328,0,0
328377,79.9926,-538.931,0,0
328638,79.5678,-537.408,0,0
328898,79.2878,-535.906,0,0
329158,78.9814,-534.394,0,0
329419,78.8167,-532.865,0,0
329679,78.6995,-531.441,0,0
329939,78.6794,-529.937,0,0
330200,78.6757,-528.551,0,0
330460,78.838,-527.166,0,0
330720.15,78.9258,-525.74,0,0
330980.475,79.1974,-524.471,0,0
331240.8,79.6004,-523.211,0,0
331501.125,80.0097,-522.05,0,0
331761.45,80.4055,-521.177,0,0
332021.775,80.8949,-520.281,0,0
332282.1,81.2466,-519.495,0,0
332542.425,81.5434,-518.965,0,0
332802.75,81.7702,-518.396,0,0
333063.075,81.8558,-517.912,0,0
333323.4,81.7997,-517.325,0,0
333583.725,81.7291,-516.831,0,0
333844.05,81.6107,-516.321,0,0
334104.375,81.4451,-515.678,0,0
334364.7,81.2668,-515.07,0,0
334625.025,80.9852,-514.467,0,0
334885.35,80.7037,-513.823,0,0
335145.675,80.4566,-513.169,0,0
335406.0,80.0602,-512.438,0,0
335666.325,79.7196,-511.666,0,0
335926.65,79.4132,-510.946,0,0
336186.975,79.0007,-510.104,0,0
336447.3,78.5513,-509.243,0,0
336707.625,78.1904,-508.335,0,0
336967.95,77.8932,-507.4,0,0
337228.275,77.4721,-506.423,0,0
337488.6,77.1468,-505.412,0,0
337748.925,76.8013,-504.307,0,0
338009.25,76.5028,-503.244,0,0
338269.575,76.0959,-502.069,0,0
338529.9,75.8704,-500.852,0,0
338790.225,75.6437,-499.565,0,0
339050.55,75.4301,-498.233,0,0
339310.875,75.2879,-496.855,0,0
339571.2,75.3634,-495.36,0,0
339831.525,75.4204,-494.047,0,0
340091.85,75.6243,-492.559,0,0
340352.175,75.9546,-491.221,0,0
340612.5,76.2844,-489.791,0,0
340872.825,76.7025,-488.502,0,0
341133.15,77.2175,-487.175,0,0
341393.475,77.8776,-486.016,0,0
341653.8,78.5803,-484.833,0,0
341914.125,79.2857,-483.758,0,0
342174.45,80.1475,-482.817,0,0
342434.775,80.8978,-481.941,0,0
342695.1,81.7634,-481.168,0,0
342955.425,82.6458,-480.46,0,0
343215.75,83.5346,-479.897,0,0
343476.075,84.3699,-479.47,0,0
343736.4,85.1608,-479.128,0,0
343996.725,85.9046,-478.771,0,0
344257.05,86.6198,-478.592,0,0
344517.375,87.2447,-478.476,0,0
344777.7,87.8441,-478.38,0,0
345038.025,88.3545,-478.317,0,0
345298.35,88.8068,-478.367,0,0
345558.675,89.1965,-478.403,0,0
345819.0,89.5336,-478.44,0,0
346079.325,89.7807,-478.559,0,0
346339.65,89.8815,-478.624,0,0
346599.975,89.9864,-478.752,0,0
346860,89.9521,-478.823,0,0
347121,89.8724,-478.832,0,0
347381,89.7644,-478.871,0,0
347641,89.6286,-478.788,0,0
347902,89.3784,-478.772,0,0
348162,89.1698,-478.675,0,0
348422,88.9538,-478.514,0,0
348683,88.699,-478.312,0,0
348943,88.4778,-478.202,0,0
349203,88.195,-478.033,0,0
349464,87.8453,-477.816,0,0
349724,87.5272,-477.641,0,0
349984,87.116,-477.417,0,0
350245,86.6686,-477.071,0,0
350505,86.1634,-476.813,0,0
350765,85.7521,-476.432,0,0
351025,85.2149,-475.88,0,0
351286,84.6939,-475.355,0,0
351546,84.2513,-474.714,0,0
351806,83.8516,-474.019,0,0
352067,83.5212,-473.328,0,0
352327,83.2801,-472.611,0,0
352587,83.0509,-471.917,0,0
352848,82.8765,-471.2,0,0
353108,82.7449,-470.545,0,0
353368,82.6133,-469.838,0,0
353629,82.4531,-469.23,0,0
353889,82.3412,-468.624,0,0
354149,82.1917,-468.048,0,0
354410,82.0671,-467.433,0,0
354670,81.8907,-466.829,0,0
354930,81.8033,-466.177,0,0
355191,81.6911,-465.553,0,0
355451,81.5867,-464.873,0,0
355711,81.5109,-464.213,0,0
355972,81.4363,-463.615,0,0
356232,81.367,-462.964,0,0
356492,81.317,-462.364,0,0
356753,81.2662,-461.794,0,0
357013,81.2289,-461.211,0,0
357273,81.2364,-460.671,0,0
357534,81.1397,-460.154,0,0
357794,81.029,-459.602,0,0
358054,81.0258,-459.081,0,0
358315,80.8594,-458.619,0,0
358575,80.758,-458.033,0,0
358835,80.6198,-457.519,0,0
359096,80.4356,-457.025,0,0
359356,80.2271,-456.484,0,0
359616,80.0201,-455.865,0,0
359877,79.7115,-455.209,0,0
360137,79.5047,-454.543,0,0
360397,79.2439,-453.787,0,0
360658,79.0378,-452.992,0,0
360918,78.9051,-452.163,0,0
361178,78.8721,-451.245,0,0
361438,78.9197,-450.406,0,0
361699,78.9429,-449.676,0,0
361959,79.0692,-448.94,0,0
362219,79.1129,-448.272,0,0
362480,79.1784,-447.534,0,0
362740.1,79.183,-446.915,0,0
363000.425,79.2496,-446.237,0,0
363260.75,79.221,-445.582,0,0
363521.075,79.2366,-444.904,0,0
363781.4,79.2058,-444.228,0,0
364041.725,79.1556,-443.553,0,0
364302.05,79.1186,-442.871,0,0
364562.375,79.0976,-442.061,0,0
364822.7,79.0482,-441.299,0,0
365083.025,79.0362,-440.482,0,0
365343.35,79.0398,-439.587,0,0
365603.675,79.1219,-438.758,0,0
365864.0,79.1856,-437.846,0,0
366124.325,79.2797,-436.954,0,0
366384.65,79.4711,-436.062,0,0
366644.975,79.6203,-435.152,0,0
366905.3,79.7597,-434.196,0,0
367165.625,79.996,-433.264,0,0
367425.95,80.2778,-432.296,0,0
367686.275,80.581,-431.298,0,0
367946.6,81.0224,-430.287,0,0
368206.925,81.4959,-429.27,0,0
368467.25,82.021,-428.307,0,0
368727.575,82.5743,-427.302,0,0
368987.9,83.2475,-426.386,0,0
369248.225,83.9691,-425.478,0,0
369508.55,84.7116,-424.645,0,0
369768.875,85.5444,-423.799,0,0
370029.2,86.4501,-422.984,0,0
370289.525,87.4134,-422.242,0,0
370549.85,88.4431,-421.592,0,0
370810.175,89.5546,-420.974,0,0
371070.5,90.7334,-420.465,0,0
371330.825,92.0178,-420.139,0,0
371591.15,93.2568,-419.903,0,0
371851.475,94.5115,-419.876,0,0
372111.8,95.74,-419.945,0,0
372372.125,96.9163,-420.178,0,0
372632.45,98.0645,-420.589,0,0
372892.775,99.0513,-421.041,0,0
373153.1,99.9303,-421.618,0,0
373413.425,100.717,-422.261,0,0
373673.75,101.342,-422.935,0,0
373934.075,101.828,-423.697,0,0
374194.4,102.246,-424.374,0,0
374454.725,102.503,-425.112,0,0
374715.05,102.643,-425.754,0,0
374975.375,102.739,-426.418,0,0
375235.7,102.699,-427.018,0,0
375496.025,102.651,-427.565,0,0
375756.35,102.478,-428.038,0,0
376016.675,102.337,-428.459,0,0
376277.0,102.079,-428.79,0,0
376537.325,101.783,-429.093,0,0
376797.65,101.549,-429.264,0,0
377057.975,101.292,-429.393,0,0
377318.3,101.195,-429.436,0,0
377578.625,101.025,-429.541,0,0
377838.95,100.879,-429.614,0,0
378099.275,100.85,-429.751,0,0
378359.6,100.794,-429.852,0,0
378619.925,100.687,-429.975,0,0
378880,100.605,-430.174,0,0
379141,100.426,-430.344,0,0
379401,100.288,-430.541,0,0
379661,100.02,-430.774,0,0
379922,99.8012,-430.962,0,0
380182,99.4705,-431.125,0,0
380442,99.1249,-431.185,0,0
380703,98.7816,-431.161,0,0
380963,98.4898,-431.085,0,0
381223,98.2548,-431.002,0,0
381483,98.0545,-430.879,0,0
381744,97.936,-430.755,0,0
382004,97.893,-430.664,0,0
382264,97.9083,-430.678,0,0
382525,97.9502,-430.779,0,0
382785,97.9333,-430.94,0,0
383045,97.9254,-431.184,0,0
383306,97.8285,-431.48,0,0
383566,97.597,-431.814,0,0
383826,97.3583,-432.145,0,0
384087,97.0812,-432.431,0,0
384347,96.7655,-432.837,0,0
384607,96.3897,-433.251,0,0
384868,95.9665,-433.703,0,0
385128,95.4336,-434.166,0,0
385388,94.7827,-434.609,0,0
385649,93.9393,-434.998,0,0
385909,93.0836,-435.234,0,0
386169,92.05,-435.497,0,0
386430,90.935,-435.57,0,0
386690,89.8353,-435.491,0,0
386950,88.7319,-435.275,0,0
387211,87.65,-434.925,0,0
387471,86.6326,-434.472,0,0
387731,85.6663,-433.896,0,0
387992,84.7882,-433.236,0,0
388252,84.031,-432.52,0,0
388512,83.3584,-431.725,0,0
388773,82.7946,-430.932,0,0
389033,82.3893,-430.103,0,0
389293,82.0602,-429.356,0,0
389554,81.8559,-428.6,0,0
389814,81.7467,-428.019,0,0
390074,81.6909,-427.483,0,0
390335,81.5769,-427.047,0,0
390595,81.5295,-426.728,0,0
390855,81.3553,-426.481,0,0
391116,81.2615,-426.305,0,0
391376,81.0095,-426.2,0,0
391636,80.6985,-426.091,0,0
391896,80.343,-425.935,0,0
392157,79.9368,-425.812,0,0
392417,79.4922,-425.712,0,0
392677,79.0582,-425.591,0,0
392938,78.5092,-425.484,0,0
393198,77.9346,-425.366,0,0
393458,77.2589,-425.185,0,0
393719,76.5579,-424.989,0,0
393979,75.8145,-424.754,0,0
394239,75.0844,-424.417,0,0
394500,74.2767,-424.041,0,0
394760.05,73.5038,-423.646,0,0
395020.375,72.7528,-423.18,0,0
395280.7,71.927,-422.662,0,0
395541.025,71.1871,-422.142,0,0
395801.35,70.3514,-421.536,0,0
396061.675,69.5473,-420.851,0,0
396322.0,68.8082,-420.116,0,0
396582.325,68.0597,-419.33,0,0
396842.65,67.4018,-418.527,0,0
397102.975,66.6984,-417.673,0,0
397363.3,66.0788,-416.791,0,0
397623.625,65.4807,-415.899,0,0
397883.95,64.8798,-414.979,0,0
398144.275,64.3637,-414.023,0,0
398404.6,63.8213,-413.1,0,0
398664.925,63.3337,-412.054,0,0
398925.25,62.8472,-411.046,0,0
399185.575,62.4157,-410.005,0,0
399445.9,62.024,-408.898,0,0
399706.225,61.7113,-407.788,0,0
399966.55,61.4331,-406.632,0,0
400006.6,61.3928,-406.475,0,0