File: Accelerated corrosion test data/2025-10-01_12-27-23/sample_7.csv
Frequency (Hz),Impedance (ohms),Phase (Radians),Temperature (C),Humidity (%)
10000.0,277.021,-12066.8,0,0
10260.325,279.784,-11776.7,0,0
10520.65,261.05,-11478.7,0,0
10780.975,254.718,-11197.4,0,0
11041.3,251.835,-10930,0,0
11301.625,248.803,-10675.2,0,0
11561.95,250.455,-10427.4,0,0
11822.275,260.397,-10198,0,0
12082.6,265.877,-9979.26,0,0
12342.925,323.545,-9788.41,0,0
12603.25,265.702,-9632.64,0,0
12863.575,270.108,-9425.38,0,0
13123.9,241.443,-9257.96,0,0
13384.225,235.658,-9080.09,0,0
13644.55,223.566,-8896.9,0,0
13904.875,210.982,-8736.43,0,0
14165.2,206.165,-8566.65,0,0
14425.525,212.039,-8426.89,0,0
14685.8,206.946,-8272.37,0,0
14946.175,200.462,-8126.47,0,0
15206.5,200.907,-7995.52,0,0
15466.825,186.491,-7856.57,0,0
15727.15,187.674,-7727.93,0,0
15987.5,181.692,-7599.54,0,0
16247.8,181.86,-7478.81,0,0
16508.125,173.756,-7359.02,0,0
16768.45,172.669,-7240.47,0,0
17028.775,172.611,-7130.42,0,0
17289.1,169.762,-7022.56,0,0
17549.425,168.396,-6913.15,0,0
17809.75,170.154,-6804.3,0,0
18070.075,173.252,-6709.69,0,0
18330.4,179.728,-6602.74,0,0
18590.725,199.314,-6516.43,0,0
18851.05,196.509,-6453.23,0,0
19111.375,186.007,-6371.4,0,0
19371.7,205.109,-6286.34,0,0
19632.025,174.113,-6224.6,0,0
19892.35,158.789,-6128.36,0,0
20152.675,170.088,-6040.79,0,0
20413.0,171.913,-5966.68,0,0
20673.3,170.033,-5892.2,0,0
20933.65,178.455,-5829.56,0,0
21193.975,162.108,-5770.79,0,0
21454.3,153.522,-5696.37,0,0
21714.625,156.495,-5626.02,0,0
21974.9,148.677,-5564.99,0,0
22235.275,142.972,-5497.06,0,0
22495.6,141.761,-5432.45,0,0
22755.925,136.889,-5370.64,0,0
23016.25,132.454,-5307.62,0,0
23276.6,130.208,-5244.47,0,0
23536.9,130.274,-5184.1,0,0
23797.225,130.943,-5128.64,0,0
24057.55,126.709,-5072.43,0,0
24317.875,124.358,-5015.56,0,0
24578.2,125.477,-4959.76,0,0
24838.525,124.208,-4907.29,0,0
25098.85,123.369,-4855.25,0,0
25359.175,121.557,-4802.46,0,0
25619.5,120.563,-4751.81,0,0
25879.8,121.119,-4701.52,0,0
26140.1,120.989,-4650.44,0,0
26400.5,124.597,-4601.66,0,0
26660.8,125.502,-4557.19,0,0
26921.1,124.494,-4508.42,0,0
27181.4,130.639,-4459.31,0,0
27441.8,136.034,-4415.62,0,0
27702.1,145.414,-4367.37,0,0
27962.4,160.148,-4326.58,0,0
28222.7,181.78,-4300.66,0,0
28483.1,180.389,-4285.29,0,0
28743.4,176.692,-4265.75,0,0
29003.7,159.747,-4237.77,0,0
29264,145.404,-4202.54,0,0
29524.4,137.45,-4161.73,0,0
29784.7,133.664,-4122.87,0,0
30045,129.05,-4081.59,0,0
30305.3,131.513,-4042.96,0,0
30565.7,135.061,-4010.27,0,0
30826,135.889,-3979.53,0,0
31086.3,137.609,-3950.69,0,0
31346.6,133.248,-3923.48,0,0
31607,131.997,-3895.43,0,0
31867.3,123.326,-3867.11,0,0
32127.6,118.823,-3834.19,0,0
32387.9,115.627,-3803.54,0,0
32648.3,112.35,-3773.4,0,0
32908.6,108.776,-3742.49,0,0
33168.9,106.311,-3712.52,0,0
33429.2,103.309,-3682.85,0,0
33689.6,100.982,-3653.1,0,0
33949.9,99.3081,-3623.94,0,0
34210.2,97.7091,-3595.33,0,0
34470.5,95.4306,-3567.05,0,0
34730.9,94.4154,-3538.88,0,0
34991.2,93.2024,-3511.31,0,0
35251.5,92.1891,-3484.47,0,0
35511.8,91.0137,-3457.85,0,0
35772.2,90.5929,-3431.17,0,0
36032.5,89.9269,-3405.56,0,0
36292.8,89.75,-3380.28,0,0
36553.1,88.5687,-3355.44,0,0
36813.5,88.0515,-3330.6,0,0
37073.8,87.9865,-3305.96,0,0
37334.1,87.5085,-3282.17,0,0
37594.4,87.3983,-3258.54,0,0
37854.8,87.1058,-3235.3,0,0
38115.1,86.662,-3211.67,0,0
38375.4,87.1814,-3188.22,0,0
38635.7,88.0615,-3165.69,0,0
38896.1,89.4973,-3142.77,0,0
39156.4,91.4004,-3121.63,0,0
39416.7,93.7289,-3100.55,0,0
39677,97.0513,-3081.77,0,0
39937.4,98.9316,-3065.19,0,0
40197.7,98.3795,-3049.18,0,0
40458,96.9305,-3033.01,0,0
40718.3,93.7212,-3015.29,0,0
40978.7,90.9447,-2997.09,0,0
41239,88.7268,-2977.99,0,0
41499.3,86.2289,-2958.62,0,0
41759.6,85.1813,-2939.3,0,0
42020,83.8514,-2921.04,0,0
42280.275,82.1674,-2901.61,0,0
42540.6,81.5667,-2882.18,0,0
42800.925,81.8734,-2863.89,0,0
43061.25,81.9164,-2845.88,0,0
43321.575,82.6576,-2828.52,0,0
43581.9,81.0395,-2812.12,0,0
43842.225,80.8762,-2793.85,0,0
44102.55,81.7221,-2776.5,0,0
44362.875,83.5204,-2760.15,0,0
44623.2,84.0529,-2745.44,0,0
44883.525,83.8438,-2731.63,0,0
45143.85,82.1064,-2716.82,0,0
45404.175,80.5903,-2701.02,0,0
45664.5,80.5637,-2683.97,0,0
45924.825,81.8823,-2670.22,0,0
46185.15,80.7099,-2656.8,0,0
46445.475,79.2826,-2643.09,0,0
46705.8,76.8411,-2629.06,0,0
46966.125,74.6798,-2613.74,0,0
47226.45,73.3385,-2597.77,0,0
47486.775,72.4951,-2582.58,0,0
47747.1,72.147,-2567.84,0,0
48007.425,72.1181,-2553.53,0,0
48267.75,71.4473,-2539.24,0,0
48528.075,70.9016,-2525.52,0,0
48788.4,70.1894,-2511.43,0,0
49048.725,69.5938,-2497.81,0,0
49309.05,69.2252,-2484.04,0,0
49569.375,68.8122,-2470.41,0,0
49829.7,68.2527,-2457.02,0,0
50090.025,68.1524,-2443.72,0,0
50350.35,67.6865,-2430.69,0,0
50610.675,67.4193,-2417.71,0,0
50871.0,67.0668,-2404.89,0,0
51131.325,66.6489,-2392.32,0,0
51391.65,66.3031,-2379.66,0,0
51651.975,66.0048,-2367.07,0,0
51912.3,65.7124,-2354.79,0,0
52172.625,65.5766,-2342.5,0,0
52432.95,65.4754,-2330.56,0,0
52693.275,65.2219,-2318.62,0,0
52953.6,65.1002,-2306.78,0,0
53213.925,65.0518,-2295.16,0,0
53474.25,64.8724,-2283.86,0,0
53734.575,64.6019,-2272.61,0,0
53994.9,64.2519,-2261.38,0,0
54255.225,63.8956,-2250.05,0,0
54515.55,63.5233,-2238.95,0,0
54775.875,63.1756,-2227.92,0,0
55036.2,63.0043,-2216.99,0,0
55296.525,62.7956,-2206.05,0,0
55556.85,62.6419,-2195.35,0,0
55817.175,62.4883,-2184.65,0,0
56077.5,62.2002,-2174.09,0,0
56337.825,62.124,-2163.56,0,0
56598.15,62.2181,-2153.33,0,0
56858.475,61.8698,-2143.24,0,0
57118.8,61.7421,-2132.94,0,0
57379.125,61.4649,-2123.04,0,0
57639.45,61.2692,-2113,0,0
57899.775,61.0466,-2102.9,0,0
58160.1,61.0275,-2092.82,0,0
58420.4,61.3434,-2083.01,0,0
58680.7,61.7062,-2073.63,0,0
58941.1,61.518,-2064.54,0,0
59201.4,61.2144,-2055.14,0,0
59461.7,61.2321,-2045.55,0,0
59722,61.5561,-2036.56,0,0
59982.4,61.533,-2027.82,0,0
60242.7,61.4064,-2018.88,0,0
60503,61.1744,-2010.42,0,0
60763.3,60.8588,-2001.71,0,0
61023.7,60.3832,-1993.12,0,0
61284,59.9128,-1984.3,0,0
61544.3,59.6896,-1975.65,0,0
61804.6,59.4072,-1967.17,0,0
62065,58.8777,-1958.55,0,0
62325.3,58.3172,-1949.9,0,0
62585.6,58.2005,-1941.21,0,0
62845.9,57.9335,-1932.76,0,0
63106.3,57.8169,-1924.38,0,0
63366.6,57.6242,-1915.98,0,0
63626.9,57.6702,-1907.86,0,0
63887.2,57.3296,-1899.95,0,0
64147.6,56.9477,-1891.78,0,0
64407.9,56.7439,-1883.48,0,0
64668.2,56.6025,-1875.43,0,0
64928.5,56.5838,-1867.43,0,0
65188.9,56.5589,-1859.38,0,0
65449.2,56.7934,-1851.58,0,0
65709.5,56.9012,-1844.26,0,0
65969.8,56.7178,-1836.98,0,0
66230.2,56.4519,-1829.59,0,0
66490.5,56.1795,-1822.2,0,0
66750.8,55.9177,-1814.88,0,0
67011.1,55.4989,-1807.63,0,0
67271.5,55.0995,-1800.22,0,0
67531.8,54.7324,-1792.88,0,0
67792.1,54.4201,-1785.46,0,0
68052.4,54.1646,-1778.04,0,0
68312.8,53.9325,-1770.74,0,0
68573.1,53.7671,-1763.49,0,0
68833.4,53.6131,-1756.37,0,0
69093.7,53.4229,-1749.21,0,0
69354.1,53.4296,-1742.13,0,0
69614.4,53.3431,-1735.2,0,0
69874.7,53.1728,-1728.22,0,0
70135,53.2302,-1721.39,0,0
70395.4,53.2424,-1714.74,0,0
70655.7,53.0191,-1707.88,0,0
70916,53.1522,-1701.34,0,0
71176.3,53.0556,-1694.7,0,0
71436.7,52.8854,-1688.27,0,0
71697,52.6209,-1681.86,0,0
71957.3,52.3922,-1675.32,0,0
72217.6,52.1727,-1668.97,0,0
72478,51.9462,-1662.51,0,0
72738.3,51.7916,-1656.1,0,0
72998.6,51.5807,-1649.66,0,0
73258.9,51.4959,-1643.28,0,0
73519.3,51.2827,-1636.96,0,0
73779.6,51.1453,-1630.68,0,0
74039.9,51.0026,-1624.48,0,0
74300.225,50.9182,-1618.27,0,0
74560.55,50.8038,-1612.19,0,0
74820.875,50.6862,-1606.09,0,0
75081.2,50.574,-1599.97,0,0
75341.525,50.5325,-1593.94,0,0
75601.85,50.4348,-1587.98,0,0
75862.175,50.3476,-1582.07,0,0
76122.5,50.2411,-1576.19,0,0
76382.825,50.1585,-1570.27,0,0
76643.15,50.0788,-1564.42,0,0
76903.475,50.0042,-1558.66,0,0
77163.8,49.8859,-1552.87,0,0
77424.125,49.8069,-1547.1,0,0
77684.45,49.752,-1541.42,0,0
77944.775,49.7832,-1535.8,0,0
78205.1,49.6626,-1530.22,0,0
78465.425,49.6078,-1524.57,0,0
78725.75,49.482,-1518.95,0,0
78986.075,49.4825,-1513.43,0,0
79246.4,49.4816,-1507.94,0,0
79506.725,49.4513,-1502.54,0,0
79767.05,49.4093,-1497.1,0,0
80027.375,49.3469,-1491.7,0,0
80287.7,49.3434,-1486.42,0,0
80548.025,49.3352,-1481.11,0,0
80808.35,49.3074,-1475.86,0,0
81068.675,49.1719,-1470.66,0,0
81329.0,49.1242,-1465.43,0,0
81589.325,49.093,-1460.1,0,0
81849.65,49.0812,-1454.97,0,0
82109.975,48.9889,-1449.83,0,0
82370.3,48.9101,-1444.71,0,0
82630.625,48.9727,-1439.55,0,0
82890.95,48.9827,-1434.55,0,0
83151.275,48.9617,-1429.5,0,0
83411.6,48.8492,-1424.6,0,0
83671.925,48.881,-1419.49,0,0
83932.25,48.8956,-1414.46,0,0
84192.575,48.9385,-1409.51,0,0
84452.9,48.9128,-1404.59,0,0
84713.225,49.0626,-1399.81,0,0
84973.55,49.1335,-1394.97,0,0
85233.875,49.1256,-1390.21,0,0
85494.2,49.2298,-1385.42,0,0
85754.525,49.1938,-1380.81,0,0
86014.85,49.1191,-1376.08,0,0
86275.175,49.1403,-1371.34,0,0
86535.5,49.2259,-1366.66,0,0
86795.825,49.1902,-1362.05,0,0
87056.15,49.1705,-1357.44,0,0
87316.475,49.2386,-1352.8,0,0
87576.8,49.224,-1348.13,0,0
87837.125,49.3252,-1343.67,0,0
88097.45,49.4568,-1339.12,0,0
88357.775,49.5369,-1334.77,0,0
88618.1,49.4751,-1330.33,0,0
88878.425,49.4394,-1325.98,0,0
89138.75,49.2969,-1321.4,0,0
89399.075,49.3726,-1317.07,0,0
89659.4,49.3814,-1312.68,0,0
89919.725,49.4428,-1308.12,0,0
90180,49.4457,-1303.8,0,0
90440.4,49.5439,-1299.34,0,0
90700.7,49.7311,-1295.03,0,0
90961,49.7428,-1290.65,0,0
91221.3,49.8497,-1286.39,0,0
91481.7,50.0593,-1282.15,0,0
91742,50.2824,-1278.01,0,0
92002.3,50.2888,-1273.85,0,0
92262.6,50.4391,-1269.62,0,0
92523,50.5658,-1265.62,0,0
92783.3,50.5983,-1261.61,0,0
93043.6,50.4509,-1257.5,0,0
93303.9,50.4187,-1253.16,0,0
93564.3,50.629,-1248.85,0,0
93824.6,50.8963,-1244.58,0,0
94084.9,51.4552,-1240.36,0,0
94345.2,52.1684,-1236.61,0,0
94605.6,52.583,-1233.15,0,0
94865.9,52.6073,-1229.72,0,0
95126.2,52.4055,-1226.08,0,0
95386.5,52.5923,-1222.29,0,0
95646.9,52.5338,-1218.9,0,0
95907.2,52.1135,-1215.27,0,0
96167.5,51.805,-1211.2,0,0
96427.8,51.7112,-1207.26,0,0
96688.2,51.6111,-1203.43,0,0
96948.5,51.6626,-1199.42,0,0
97208.8,51.6257,-1195.5,0,0
97469.1,51.563,-1191.63,0,0
97729.5,51.6056,-1187.55,0,0
97989.8,51.9272,-1183.54,0,0
98250.1,52.1772,-1179.86,0,0
98510.4,52.4569,-1176.06,0,0
98770.8,52.7196,-1172.64,0,0
99031.1,52.6282,-1169.16,0,0
99291.4,52.4912,-1165.45,0,0
99551.7,52.4988,-1161.75,0,0
99812.1,52.3134,-1157.95,0,0
100072,52.3771,-1153.88,0,0
100333,52.7157,-1150,0,0
100593,53.0283,-1146.33,0,0
100853,53.191,-1142.68,0,0
101114,53.4039,-1138.89,0,0
101374,53.7777,-1135.17,0,0
101634,54.2416,-1131.65,0,0
101895,54.4403,-1128.19,0,0
102155,54.6329,-1124.57,0,0
102415,54.9713,-1120.95,0,0
102676,55.3657,-1117.32,0,0
102936,55.7715,-1113.86,0,0
103196,56.3438,-1110.2,0,0
103457,56.9264,-1107.02,0,0
103717,57.6614,-1103.72,0,0
103977,58.3293,-1100.95,0,0
104238,58.244,-1098.22,0,0
104498,58.3099,-1094.81,0,0
104758,58.8245,-1091.67,0,0
105019,59.1718,-1088.97,0,0
105279,59.0201,-1086.07,0,0
105539,58.8795,-1083.03,0,0
105800,58.7769,-1079.85,0,0
106060,58.7573,-1076.61,0,0
106320.175,58.5878,-1073.43,0,0
106580.5,58.5013,-1069.87,0,0
106840.825,58.6606,-1066.4,0,0
107101.15,59.0514,-1063.01,0,0
107361.475,59.3757,-1059.87,0,0
107621.8,59.5201,-1056.75,0,0
107882.125,59.8184,-1053.5,0,0
108142.45,60.1034,-1050.35,0,0
108402.775,60.3821,-1047.36,0,0
108663.1,60.4408,-1044.33,0,0
108923.425,60.4887,-1041.29,0,0
109183.75,60.4369,-1038.11,0,0
109444.075,60.583,-1034.82,0,0
109704.4,60.5903,-1031.66,0,0
109964.725,60.6863,-1028.32,0,0
110225.05,60.7641,-1024.88,0,0
110485.375,60.8707,-1021.29,0,0
110745.7,61.315,-1017.54,0,0
111006.025,62.0412,-1014.11,0,0
111266.35,62.7114,-1010.67,0,0
111526.675,63.4863,-1007.73,0,0
111787.0,64.0114,-1004.38,0,0
112047.325,64.7392,-1001.09,0,0
112307.65,65.5744,-997.901,0,0
112567.975,66.5082,-994.789,0,0
112828.3,67.3287,-991.622,0,0
113088.625,68.3925,-988.467,0,0
113348.95,69.7068,-985.557,0,0
113609.275,70.8283,-983.08,0,0
113869.6,71.6345,-980.568,0,0
114129.925,72.5159,-977.821,0,0
114390.25,73.4938,-975.193,0,0
114650.575,74.6979,-972.612,0,0
114910.9,75.6163,-970.258,0,0
115171.225,76.4317,-967.747,0,0
115431.55,77.5261,-965.155,0,0
115691.875,78.6314,-962.692,0,0
115952.2,80.0575,-960.111,0,0
116212.525,81.7169,-957.86,0,0
116472.85,83.4996,-956.103,0,0
116733.175,85.1192,-954.852,0,0
116993.5,86.3593,-953.754,0,0
117253.825,87.3344,-952.836,0,0
117514.15,88.0043,-951.745,0,0
117774.475,88.6835,-950.809,0,0
118034.8,88.9002,-949.934,0,0
118295.125,89.0424,-948.54,0,0
118555.45,89.6467,-946.948,0,0
118815.775,90.7395,-945.993,0,0
119076.1,91.3185,-945.722,0,0
119336.425,91.4458,-945.384,0,0
119596.75,91.5192,-945.152,0,0
119857.075,91.3162,-945.374,0,0
120117.4,90.0559,-945.776,0,0
120377.725,88.1309,-945.372,0,0
120638.05,86.3014,-944.659,0,0
120898.375,84.2156,-943.525,0,0
121158.7,81.9472,-942.23,0,0
121419.025,79.4692,-940.245,0,0
121679.35,77.3548,-937.541,0,0
121939.675,75.8854,-934.765,0,0
122200.0,74.646,-932.25,0,0
122460,73.2683,-929.745,0,0
122721,72.0243,-927.005,0,0
122981,70.9604,-924.343,0,0
123241,69.8789,-921.775,0,0
123502,68.6422,-919.167,0,0
123762,67.3338,-916.202,0,0
124022,66.4831,-913.04,0,0
124283,65.8819,-910.121,0,0
124543,65.1389,-907.22,0,0
124803,64.6554,-904.219,0,0
125064,64.4221,-901.587,0,0
125324,63.8513,-899.288,0,0
125584,62.8427,-896.877,0,0
125845,61.8631,-893.951,0,0
126105,61.1791,-890.947,0,0
126365,60.6402,-888.095,0,0
126626,60.0043,-885.318,0,0
126886,59.3732,-882.345,0,0
127146,58.7303,-879.516,0,0
127406,58.0301,-876.395,0,0
127667,57.6703,-873.247,0,0
127927,57.3779,-870.207,0,0
128187,57.06,-867.263,0,0
128448,56.815,-864.374,0,0
128708,56.511,-861.461,0,0
128968,56.1895,-858.561,0,0
129229,55.93,-855.579,0,0
129489,55.8266,-852.632,0,0
129749,55.6369,-849.842,0,0
130010,55.2641,-847.022,0,0
130270,54.9647,-843.967,0,0
130530,54.8575,-840.932,0,0
130791,54.8659,-838.001,0,0
131051,54.8017,-835.159,0,0
131311,54.6886,-832.435,0,0
131572,54.3694,-829.603,0,0
131832,54.072,-826.54,0,0
132092,53.9137,-823.385,0,0
132353,53.944,-820.241,0,0
132613,53.985,-817.158,0,0
132873,54.0659,-814.017,0,0
133134,54.2294,-810.957,0,0
133394,54.3996,-807.826,0,0
133654,54.6774,-804.7,0,0
133915,55.1039,-801.602,0,0
134175,55.6148,-798.543,0,0
134435,56.1341,-795.454,0,0
134696,56.9062,-792.558,0,0
134956,57.5864,-789.873,0,0
135216,58.2005,-787.102,0,0
135477,59.0055,-784.321,0,0
135737,59.8607,-781.707,0,0
135997,60.948,-779.138,0,0
136258,62.1673,-777.042,0,0
136518,63.1135,-775.444,0,0
136778,63.5981,-773.864,0,0
137039,63.9039,-772.321,0,0
137299,63.709,-770.846,0,0
137559,63.2967,-768.86,0,0
137819,63.0541,-766.656,0,0
138080,62.8648,-764.416,0,0
138340.125,62.6366,-762.191,0,0
138600.45,62.2911,-759.881,0,0
138860.775,61.9436,-757.421,0,0
139121.1,61.577,-754.724,0,0
139381.425,61.428,-751.839,0,0
139641.75,61.5735,-749.092,0,0
139902.075,61.6491,-746.504,0,0
140162.4,61.692,-743.763,0,0
140422.725,61.8769,-741.088,0,0
140683.05,62.0821,-738.546,0,0
140943.375,62.1603,-736,0,0
141203.7,62.2212,-733.381,0,0
141464.025,62.3167,-730.738,0,0
141724.35,62.3625,-728.111,0,0
141984.675,62.4313,-725.332,0,0
142245.0,62.6609,-722.483,0,0
142505.325,62.9591,-719.779,0,0
142765.65,63.1429,-717.074,0,0
143025.975,63.3965,-714.226,0,0
143286.3,63.8406,-711.369,0,0
143546.625,64.3627,-708.638,0,0
143806.95,64.9277,-706.013,0,0
144067.275,65.4434,-703.5,0,0
144327.6,65.8774,-701.064,0,0
144587.925,66.2492,-698.588,0,0
144848.25,66.5863,-696.107,0,0
145108.575,66.9571,-693.601,0,0
145368.9,67.3274,-691.188,0,0
145629.225,67.5289,-688.809,0,0
145889.55,67.6042,-686.314,0,0
146149.875,67.6993,-683.663,0,0
146410.2,67.9255,-680.831,0,0
146670.525,68.3107,-678.095,0,0
146930.85,68.6461,-675.458,0,0
147191.175,69.0051,-672.743,0,0
147451.5,69.4134,-670.176,0,0
147711.825,69.6323,-667.578,0,0
147972.15,69.8338,-664.795,0,0
148232.475,70.2453,-662.006,0,0
148492.8,70.6222,-659.334,0,0
148753.125,70.9155,-656.631,0,0
149013.45,71.1848,-653.983,0,0
149273.775,71.3394,-651.304,0,0
149534.1,71.392,-648.464,0,0
149794.425,71.5073,-645.425,0,0
150054.75,71.6939,-642.339,0,0
150315.075,71.9359,-639.157,0,0
150575.4,72.2438,-635.963,0,0
150835.725,72.5726,-632.71,0,0
151096.05,72.9452,-629.363,0,0
151356.375,73.3843,-625.922,0,0
151616.7,73.9221,-622.407,0,0
151877.025,74.5707,-618.84,0,0
152137.35,75.3317,-615.252,0,0
152397.675,76.1992,-611.621,0,0
152658.0,77.1438,-607.986,0,0
152918.325,78.25,-604.313,0,0
153178.65,79.5002,-600.687,0,0
153438.975,80.8718,-597.139,0,0
153699.3,82.2362,-593.716,0,0
153959.625,83.5236,-590.242,0,0
154219.95,84.9044,-586.637,0,0
154480,86.4366,-582.901,0,0
154741,88.1822,-579.36,0,0
155001,90.0061,-575.775,0,0
155261,92.0253,-572.289,0,0
155522,94.0788,-568.93,0,0
155782,96.1512,-565.563,0,0
156042,98.3649,-562.175,0,0
156303,100.786,-559.054,0,0
156563,103.268,-556.035,0,0
156823,105.72,-553.191,0,0
157084,108.159,-550.455,0,0
157344,110.609,-547.695,0,0
157604,113.197,-545.074,0,0
157864,115.794,-542.706,0,0
158125,118.183,-540.566,0,0
158385,120.409,-538.483,0,0
158645,122.682,-536.35,0,0
158906,124.942,-534.379,0,0
159166,126.986,-532.822,0,0
159426,128.413,-531.136,0,0
159687,129.56,-529.327,0,0
159947,130.437,-527.23,0,0
160207,130.882,-524.634,0,0
160468,131.517,-521.462,0,0
160728,132.267,-517.949,0,0
160988,133.253,-514.069,0,0
161249,134.333,-509.828,0,0
161509,135.786,-505.201,0,0
161769,137.844,-500.201,0,0
162030,140.521,-495.214,0,0
162290,143.57,-490.32,0,0
162550,147.122,-485.558,0,0
162811,150.84,-481.09,0,0
163071,154.575,-476.576,0,0
163331,158.682,-471.844,0,0
163592,163.357,-467.18,0,0
163852,168.517,-462.739,0,0
164112,174.08,-458.732,0,0
164373,179.742,-455.097,0,0
164633,185.321,-451.767,0,0
164893,191.107,-448.383,0,0
165154,197.191,-445.361,0,0
165414,203.102,-442.472,0,0
165674,209.057,-439.459,0,0
165935,215.096,-436.312,0,0
166195,221.632,-432.655,0,0
166455,229.142,-428.793,0,0
166716,237.992,-425.168,0,0
166976,247.845,-422.718,0,0
167236,258.093,-421.457,0,0
167497,268.434,-421.147,0,0
167757,278.802,-421.785,0,0
168017,288.995,-423.218,0,0
168277,299.171,-425.26,0,0
168538,309.306,-428.004,0,0
168798,319.755,-431.531,0,0
169058,329.782,-436.436,0,0
169319,339.348,-442.199,0,0
169579,348.166,-449.166,0,0
169839,355.52,-456.413,0,0
170100,362.316,-462.94,0,0
170360.075,369.6,-469.579,0,0
170620.4,377.328,-477.099,0,0
170880.725,384.86,-486.436,0,0
171141.05,390.761,-497.305,0,0
171401.375,394.617,-508.35,0,0
171661.7,397.226,-518.901,0,0
171922.025,398.986,-529.007,0,0
172182.35,400.522,-538.387,0,0
172442.675,402.585,-548.349,0,0
172703.0,403.846,-560.022,0,0
172963.325,402.455,-572.334,0,0
173223.65,399.194,-583.51,0,0
173483.975,394.781,-593.71,0,0
173744.3,389.381,-602.999,0,0
174004.625,383.151,-611.078,0,0
174264.95,376.638,-618.11,0,0
174525.275,369.255,-624.379,0,0
174785.6,361.223,-628.973,0,0
175045.925,353.431,-632.001,0,0
175306.25,345.892,-633.738,0,0
175566.575,338.858,-634.199,0,0
175826.9,332.267,-633.551,0,0
176087.225,326.625,-630.953,0,0
176347.55,323.707,-627.312,0,0
176607.875,323.113,-624.328,0,0
176868.2,324.063,-622.708,0,0
177128.525,325.493,-622.75,0,0
177388.85,326.804,-623.56,0,0
177649.175,328.656,-624.92,0,0
177909.5,330.999,-627.438,0,0
178169.825,333.653,-631.303,0,0
178430.15,336.148,-637.273,0,0
178690.475,337.005,-645.502,0,0
178950.8,335.243,-654.638,0,0
179211.125,330.816,-663.312,0,0
179471.45,324.648,-670.71,0,0
179731.775,317.446,-676.783,0,0
179992.1,309.563,-681.317,0,0
180252.425,301.599,-684.313,0,0
180512.75,294.565,-686.093,0,0
180773.075,288.226,-687.976,0,0
181033.4,281.951,-690.057,0,0
181293.725,275.557,-692.485,0,0
181554.05,267.802,-695.282,0,0
181814.375,258.513,-696.684,0,0
182074.7,249.45,-696.226,0,0
182335.025,240.98,-695.042,0,0
182595.35,232.683,-693.337,0,0
182855.675,224.226,-690.877,0,0
183116.0,216.219,-687.135,0,0
183376.325,209.248,-682.572,0,0
183636.65,203.304,-677.973,0,0
183896.975,197.808,-673.591,0,0
184157.3,192.346,-669.06,0,0
184417.625,187.112,-663.992,0,0
184677.95,182.634,-658.372,0,0
184938.275,179.239,-652.606,0,0
185198.6,176.853,-647.531,0,0
185458.925,174.467,-643.455,0,0
185719.25,171.572,-639.718,0,0
185979.575,168.206,-635.884,0,0
186239.9,164.538,-631.425,0,0
186500,161.225,-626.233,0,0
186761,158.591,-620.773,0,0
187021,156.495,-615.388,0,0
187281,154.64,-610.067,0,0
187542,153.129,-604.573,0,0
187802,152.231,-599.117,0,0
188062,151.877,-593.96,0,0
188322,152.051,-589.191,0,0
188583,152.536,-585.326,0,0
188843,152.586,-582.479,0,0
189103,151.629,-579.878,0,0
189364,150.031,-576.82,0,0
189624,148.176,-573.256,0,0
189884,146.386,-569.25,0,0
190145,144.668,-564.937,0,0
190405,143.096,-560.212,0,0
190665,141.948,-555.248,0,0
190926,141.001,-550.279,0,0
191186,140.151,-545.071,0,0
191446,139.84,-539.561,0,0
191707,140.109,-534.267,0,0
191967,140.548,-529.36,0,0
192227,140.973,-524.635,0,0
192488,141.337,-519.944,0,0
192748,141.696,-515.14,0,0
193008,142.246,-510.17,0,0
193269,143.021,-505.23,0,0
193529,143.975,-500.311,0,0
193789,145.091,-495.47,0,0
194050,146.299,-490.665,0,0
194310,147.603,-485.838,0,0
194570,149.072,-480.903,0,0
194831,150.865,-475.946,0,0
195091,152.999,-471.127,0,0
195351,155.414,-466.583,0,0
195612,157.762,-462.402,0,0
195872,160.053,-458.305,0,0
196132,162.3,-454.124,0,0
196393,164.743,-449.974,0,0
196653,167.305,-446.071,0,0
196913,169.878,-442.142,0,0
197174,172.673,-438.417,0,0
197434,175.176,-434.852,0,0
197694,177.679,-431.203,0,0
197955,180.272,-427.429,0,0
198215,182.924,-423.917,0,0
198475,185.494,-420.269,0,0
198735,188.084,-416.478,0,0
198996,190.914,-412.631,0,0
199256,193.86,-408.975,0,0
199516,196.692,-405.203,0,0
199777,199.505,-401.255,0,0
200037,202.535,-397.062,0,0
200297,205.935,-392.8,0,0
200558,209.598,-388.415,0,0
200818,213.688,-384.127,0,0
201078,218.105,-380.201,0,0
201339,222.533,-376.454,0,0
201599,226.81,-372.608,0,0
201859,231.355,-368.568,0,0
202120,236.361,-364.495,0,0
202380.025,241.874,-360.537,0,0
202640.35,247.76,-356.953,0,0
202900.675,253.823,-353.658,0,0
203161.0,260.011,-350.575,0,0
203421.325,266.48,-347.638,0,0
203681.65,273.213,-344.972,0,0
203941.975,280.164,-342.676,0,0
204202.3,287.447,-340.698,0,0
204462.625,294.891,-339.275,0,0
204722.95,302.157,-338.285,0,0
204983.275,309.436,-337.533,0,0
205243.6,316.756,-337.096,0,0
205503.925,324.135,-336.74,0,0
205764.25,331.832,-336.762,0,0
206024.575,339.818,-337.501,0,0
206284.9,347.555,-339.14,0,0
206545.225,354.659,-341.423,0,0
206805.55,361.202,-343.905,0,0
207065.875,367.221,-346.662,0,0
207326.2,372.483,-349.305,0,0
207586.525,377.226,-351.708,0,0
207846.85,381.631,-353.784,0,0
208107.175,385.681,-354.964,0,0
208367.5,389.876,-355.441,0,0
208627.825,394.604,-354.947,0,0
208888.15,400.49,-353.701,0,0
209148.475,408.28,-352.239,0,0
209408.8,417.84,-351.96,0,0
209669.125,428.481,-353.322,0,0
209929.45,439.515,-356.542,0,0
210189.775,450.196,-361.449,0,0
210450.1,460.163,-367.851,0,0
210710.425,469.289,-375.07,0,0
210970.75,477.919,-383.377,0,0
211231.075,485.407,-392.585,0,0
211491.4,491.909,-402.378,0,0
211751.725,497.184,-412.955,0,0
212012.05,500.609,-423.727,0,0
212272.375,502.617,-433.728,0,0
212532.7,504.059,-442.665,0,0
212793.025,505.458,-450.972,0,0
213053.35,507.141,-459.13,0,0
213313.675,508.642,-467.878,0,0
213574.0,509.226,-476.828,0,0
213834.325,509.278,-485.367,0,0
214094.65,509.072,-493.966,0,0
214354.975,508.091,-502.763,0,0
214615.3,506.238,-511.332,0,0
214875.625,503.427,-519.307,0,0
215135.95,500.025,-526.207,0,0
215396.275,496.746,-532.071,0,0
215656.6,493.709,-537.311,0,0
215916.925,491.302,-542.204,0,0
216177.25,489.289,-547.264,0,0
216437.575,487.401,-552.599,0,0
216697.9,485.372,-558.254,0,0
216958.225,482.992,-564.257,0,0
217218.55,480.035,-570.492,0,0
217478.875,476.395,-576.736,0,0
217739.2,471.9,-582.693,0,0
217999.525,466.729,-588,0,0
218259.85,461.195,-592.611,0,0
218520,455.456,-596.574,0,0
218780,449.712,-599.953,0,0
219041,443.944,-603.089,0,0
219301,437.609,-605.836,0,0
219561,430.775,-607.748,0,0
219822,423.931,-608.511,0,0
220082,417.377,-608.223,0,0
220342,411.296,-607.14,0,0
220603,405.891,-605.418,0,0
220863,401.241,-603.183,0,0
221123,397.269,-600.622,0,0
221384,393.944,-598.007,0,0
221644,391.181,-595.362,0,0
221904,388.763,-592.623,0,0
222165,386.849,-589.745,0,0
222425,385.574,-586.848,0,0
222685,384.815,-584.024,0,0
222946,384.715,-581.56,0,0
223206,384.812,-579.566,0,0
223466,384.879,-577.768,0,0
223727,385.047,-576.007,0,0
223987,385.534,-574.194,0,0
224247,386.224,-572.544,0,0
224508,387.117,-571.029,0,0
224768,388.059,-569.603,0,0
225028,389.238,-568.079,0,0
225289,390.709,-566.449,0,0
225549,392.777,-564.802,0,0
225809,395.647,-563.279,0,0
226070,398.951,-562.454,0,0
226330,402.588,-562.158,0,0
226590,406.595,-562.658,0,0
226851,410.544,-563.995,0,0
227111,414.185,-566.01,0,0
227371,417.266,-568.404,0,0
227632,420.108,-570.731,0,0
227892,423.126,-573.094,0,0
228152,426.341,-575.817,0,0
228413,429.671,-578.933,0,0
228673,433.036,-582.773,0,0
228933,436.278,-587.24,0,0
229193,439.24,-592.386,0,0
229454,441.711,-598.319,0,0
229714,443.287,-604.87,0,0
229974,443.631,-611.286,0,0
230235,443.681,-617.345,0,0
230495,443.807,-623.182,0,0
230755,443.94,-629.604,0,0
231016,443.378,-636.817,0,0
231276,441.495,-644.158,0,0
231536,438.621,-650.893,0,0
231797,435.556,-656.846,0,0
232057,432.508,-662.723,0,0
232317,429.253,-668.472,0,0
232578,425.754,-674.194,0,0
232838,421.914,-679.946,0,0
233098,417.733,-685.648,0,0
233359,413.341,-691.457,0,0
233619,408.485,-697.615,0,0
233879,402.54,-704.248,0,0
234140,394.823,-710.454,0,0
234400,385.909,-715.307,0,0
234660.3,376.523,-718.866,0,0
234920.625,366.609,-721.019,0,0
235180.95,356.866,-721.66,0,0
235441.275,347.566,-721.067,0,0
235701.6,338.937,-719.383,0,0
235961.925,331.218,-716.868,0,0
236222.25,324.505,-713.948,0,0
236482.575,318.7,-710.885,0,0
236742.9,313.606,-707.905,0,0
237003.225,309.24,-705.138,0,0
237263.55,305.227,-703.06,0,0
237523.875,300.789,-701.466,0,0
237784.2,295.938,-699.559,0,0
238044.525,291.033,-697.336,0,0
238304.85,285.987,-694.644,0,0
238565.175,280.982,-691.326,0,0
238825.5,276.363,-687.206,0,0
239085.825,272.737,-682.499,0,0
239346.15,269.985,-677.72,0,0
239606.475,268.028,-673.226,0,0
239866.8,266.766,-668.88,0,0
240127.125,266.024,-664.966,0,0
240387.45,265.89,-661.535,0,0
240647.775,266.293,-658.915,0,0
240908.1,266.593,-657.551,0,0
241168.425,265.971,-657.009,0,0
241428.75,264.418,-656.26,0,0
241689.075,262.599,-655.044,0,0
241949.4,260.879,-653.834,0,0
242209.725,258.912,-652.597,0,0
242470.05,256.504,-651.402,0,0
242730.375,253.632,-649.713,0,0
242990.7,250.558,-647.295,0,0
243251.025,247.779,-643.978,0,0
243511.35,245.791,-640.299,0,0
243771.675,244.273,-636.576,0,0
244032.0,243.064,-632.713,0,0
244292.325,242.326,-628.727,0,0
244552.65,242.264,-624.661,0,0
244812.975,242.835,-620.791,0,0
245073.3,243.955,-617.33,0,0
245333.625,245.548,-614.333,0,0
245593.95,247.366,-612.062,0,0
245854.275,249.184,-610.512,0,0
246114.6,250.639,-609.43,0,0
246374.925,251.663,-608.707,0,0
246635.25,252.294,-607.989,0,0
246895.575,252.864,-607.041,0,0
247155.9,253.467,-606.218,0,0
247416.225,253.913,-605.61,0,0
247676.55,254.019,-604.906,0,0
247936.875,254.059,-603.962,0,0
248197.2,254.321,-602.833,0,0
248457.525,254.765,-601.835,0,0
248717.85,255.154,-600.777,0,0
248978.175,255.71,-599.79,0,0
249238.5,256.429,-598.842,0,0
249498.825,257.129,-598.087,0,0
249759.15,257.945,-597.429,0,0
250019.475,258.737,-596.882,0,0
250279.8,259.614,-596.5,0,0
250540,260.438,-596.303,0,0
250800,261.066,-596.257,0,0
251061,261.572,-596.211,0,0
251321,262.104,-596.126,0,0
251581,262.704,-596.09,0,0
251842,263.382,-596.173,0,0
252102,264.076,-596.381,0,0
252362,264.698,-596.781,0,0
252623,265.279,-597.35,0,0
252883,265.728,-598.078,0,0
253143,266.003,-598.98,0,0
253404,266.104,-599.9,0,0
253664,266.028,-600.842,0,0
253924,265.984,-601.807,0,0
254185,265.826,-602.967,0,0
254445,265.349,-604.374,0,0
254705,264.447,-605.815,0,0
254966,263.156,-607.035,0,0
255226,261.643,-607.919,0,0
255486,260.153,-608.662,0,0
255747,258.497,-609.342,0,0
256007,256.65,-609.889,0,0
256267,254.598,-610.105,0,0
256528,252.556,-610.001,0,0
256788,250.563,-609.565,0,0
257048,248.803,-608.99,0,0
257309,247.121,-608.475,0,0
257569,245.298,-607.818,0,0
257829,243.425,-606.969,0,0
258090,241.578,-605.8,0,0
258350,239.922,-604.404,0,0
258610,238.44,-602.84,0,0
258871,237.199,-601.101,0,0
259131,236.236,-599.303,0,0
259391,235.532,-597.564,0,0
259651,234.894,-595.985,0,0
259912,234.242,-594.41,0,0
260172,233.618,-592.732,0,0
260432,233.033,-590.974,0,0
260693,232.56,-589.063,0,0
260953,232.239,-587.007,0,0
261213,232.088,-584.864,0,0
261474,232.209,-582.512,0,0
261734,232.619,-580.118,0,0
261994,233.442,-577.625,0,0
262255,234.786,-575.196,0,0
262515,236.603,-573.002,0,0
262775,238.874,-571.203,0,0
263036,241.387,-569.918,0,0
263296,244.043,-569.134,0,0
263556,246.778,-568.88,0,0
263817,249.431,-569.154,0,0
264077,251.862,-569.897,0,0
264337,253.982,-571.091,0,0
264598,255.673,-572.598,0,0
264858,256.825,-574.156,0,0
265118,257.591,-575.613,0,0
265379,258.158,-576.903,0,0
265639,258.494,-578.068,0,0
265899,258.789,-579.031,0,0
266160,259.172,-579.791,0,0
266420,259.74,-580.494,0,0
266680.25,260.378,-581.344,0,0
266940.575,261.12,-582.317,0,0
267200.9,261.793,-583.384,0,0
267461.225,262.444,-584.658,0,0
267721.55,263.083,-586.086,0,0
267981.875,263.474,-587.712,0,0
268242.2,263.571,-589.449,0,0
268502.525,263.383,-591.078,0,0
268762.85,263.03,-592.457,0,0
269023.175,262.689,-593.688,0,0
269283.5,262.488,-594.713,0,0
269543.825,262.296,-595.623,0,0
269804.15,262.311,-596.491,0,0
270064.475,262.605,-597.349,0,0
270324.8,263.096,-598.345,0,0
270585.125,263.873,-599.701,0,0
270845.45,264.683,-601.319,0,0
271105.775,265.535,-603.324,0,0
271366.1,266.224,-605.617,0,0
271626.425,266.839,-608.074,0,0
271886.75,267.616,-610.777,0,0
272147.075,268.592,-614.04,0,0
272407.4,269.464,-618.151,0,0
272667.725,269.892,-623.151,0,0
272928.05,269.252,-628.995,0,0
273188.375,267.427,-635.085,0,0
273448.7,264.502,-640.97,0,0
273709.025,260.733,-646.667,0,0
273969.35,256.081,-652.139,0,0
274229.675,250.386,-657.198,0,0
274490.0,243.839,-661.51,0,0
274750.325,236.595,-664.781,0,0
275010.65,229.069,-667.071,0,0
275270.975,221.461,-668.441,0,0
275531.3,213.805,-668.961,0,0
275791.625,206.232,-668.74,0,0
276051.95,198.756,-667.73,0,0
276312.275,191.504,-665.975,0,0
276572.6,184.579,-663.495,0,0
276832.925,178.09,-660.417,0,0
277093.25,172.121,-656.906,0,0
277353.575,166.658,-653.012,0,0
277613.9,161.623,-648.727,0,0
277874.225,157,-644.127,0,0
278134.55,153.059,-639.269,0,0
278394.875,149.7,-634.23,0,0
278655.2,146.966,-629.19,0,0
278915.525,144.81,-624.262,0,0
279175.85,143.077,-619.495,0,0
279436.175,141.766,-615.007,0,0
279696.5,140.606,-610.697,0,0
279956.825,139.806,-606.512,0,0
280217.15,139.241,-602.541,0,0
280477.475,138.913,-598.781,0,0
280737.8,138.74,-595.289,0,0
280998.125,138.732,-592.036,0,0
281258.45,138.744,-589.025,0,0
281518.775,138.761,-586.308,0,0
281779.1,138.697,-583.77,0,0
282039.425,138.442,-581.37,0,0
282299.75,138.099,-578.942,0,0
282560,137.727,-576.485,0,0
282820,137.287,-574.044,0,0
283081,136.81,-571.494,0,0
283341,136.347,-568.852,0,0
283601,135.949,-566.063,0,0
283862,135.65,-563.193,0,0
284122,135.486,-560.199,0,0
284382,135.522,-557.099,0,0
284643,135.852,-554.003,0,0
284903,136.449,-550.994,0,0
285163,137.229,-548.086,0,0
285424,138.195,-545.358,0,0
285684,139.347,-542.794,0,0
285944,140.579,-540.486,0,0
286205,141.829,-538.388,0,0
286465,143.076,-536.486,0,0
286725,144.267,-534.752,0,0
286986,145.4,-533.146,0,0
287246,146.477,-531.662,0,0
287506,147.407,-530.293,0,0
287767,148.203,-528.949,0,0
288027,148.909,-527.59,0,0
288287,149.49,-526.163,0,0
288548,150.029,-524.629,0,0
288808,150.546,-522.987,0,0
289068,151.185,-521.162,0,0
289329,151.971,-519.309,0,0
289589,152.918,-517.426,0,0
289849,153.989,-515.629,0,0
290109,155.141,-513.896,0,0
290370,156.326,-512.218,0,0
290630,157.58,-510.574,0,0
290890,158.928,-508.904,0,0
291151,160.427,-507.375,0,0
291411,162.016,-505.993,0,0
291671,163.605,-504.742,0,0
291932,165.152,-503.602,0,0
292192,166.632,-502.521,0,0
292452,168.155,-501.394,0,0
292713,169.696,-500.351,0,0
292973,171.261,-499.311,0,0
293233,172.849,-498.402,0,0
293494,174.433,-497.515,0,0
293754,175.992,-496.632,0,0
294014,177.578,-495.761,0,0
294275,179.209,-494.892,0,0
294535,180.891,-494.069,0,0
294795,182.617,-493.265,0,0
295056,184.368,-492.484,0,0
295316,186.131,-491.693,0,0
295576,187.998,-490.878,0,0
295837,190.007,-490.06,0,0
296097,192.187,-489.34,0,0
296357,194.485,-488.714,0,0
296618,196.898,-488.201,0,0
296878,199.415,-487.828,0,0
297138,202.049,-487.64,0,0
297399,204.72,-487.584,0,0
297659,207.441,-487.722,0,0
297919,210.226,-488.045,0,0
298180,213.01,-488.546,0,0
298440,215.826,-489.227,0,0
298700.2,218.601,-490.127,0,0
298960.525,221.25,-491.122,0,0
299220.85,223.981,-492.359,0,0
299481.175,226.677,-493.531,0,0
299741.5,229.287,-494.878,0,0
300001.825,232.133,-496.451,0,0
300262.15,234.857,-498.111,0,0
300522.475,237.654,-499.916,0,0
300782.8,240.566,-501.948,0,0
301043.125,243.583,-504.261,0,0
301303.45,246.626,-507.019,0,0
301563.775,249.695,-510.101,0,0
301824.1,252.584,-513.605,0,0
302084.425,255.451,-517.606,0,0
302344.75,258.19,-522.251,0,0
302605.075,260.481,-527.517,0,0
302865.4,262.121,-533.363,0,0
303125.725,262.905,-539.655,0,0
303386.05,262.691,-546.057,0,0
303646.375,261.596,-552.306,0,0
303906.7,259.682,-558.138,0,0
304167.025,257.259,-563.467,0,0
304427.35,254.507,-568.278,0,0
304687.675,251.531,-572.692,0,0
304948.0,248.426,-576.807,0,0
305208.325,245.075,-580.669,0,0
305468.65,241.499,-584.235,0,0
305728.975,237.77,-587.416,0,0
305989.3,233.919,-590.317,0,0
306249.625,229.994,-592.932,0,0
306509.95,225.946,-595.306,0,0
306770.275,221.771,-597.377,0,0
307030.6,217.449,-599.116,0,0
307290.925,213.141,-600.466,0,0
307551.25,208.894,-601.462,0,0
307811.575,204.691,-602.186,0,0
308071.9,200.571,-602.663,0,0
308332.225,196.532,-602.877,0,0
308592.55,192.655,-602.88,0,0
308852.875,188.837,-602.674,0,0
309113.2,185.139,-602.254,0,0
309373.525,181.583,-601.648,0,0
309633.85,178.201,-600.909,0,0
309894.175,174.945,-600.015,0,0
310154.5,171.843,-599.016,0,0
310414.825,168.896,-597.939,0,0
310675.15,166.117,-596.778,0,0
310935.475,163.469,-595.551,0,0
311195.8,160.958,-594.303,0,0
311456.125,158.514,-593.016,0,0
311716.45,156.214,-591.663,0,0
311976.775,154.077,-590.311,0,0
312237.1,152.046,-588.963,0,0
312497.425,150.152,-587.667,0,0
312757.75,148.258,-586.42,0,0
313018.075,146.387,-585.174,0,0
313278.4,144.551,-583.916,0,0
313538.725,142.747,-582.612,0,0
313799.05,140.971,-581.267,0,0
314059.375,139.211,-579.975,0,0
314319.7,137.464,-578.583,0,0
314580,135.768,-577.103,0,0
314840,134.175,-575.526,0,0
315101,132.67,-573.889,0,0
315361,131.282,-572.216,0,0
315621,130.029,-570.512,0,0
315882,128.901,-568.842,0,0
316142,127.879,-567.183,0,0
316402,126.983,-565.582,0,0
316663,126.136,-564.026,0,0
316923,125.364,-562.533,0,0
317183,124.648,-561.093,0,0
317444,123.963,-559.701,0,0
317704,123.371,-558.332,0,0
317964,122.763,-557.049,0,0
318225,122.144,-555.816,0,0
318485,121.556,-554.579,0,0
318745,120.961,-553.355,0,0
319006,120.424,-552.129,0,0
319266,119.89,-550.894,0,0
319526,119.437,-549.664,0,0
319787,119.039,-548.445,0,0
320047,118.727,-547.283,0,0
320307,118.494,-546.187,0,0
320567,118.299,-545.19,0,0
320828,118.104,-544.292,0,0
321088,117.916,-543.495,0,0
321348,117.669,-542.741,0,0
321609,117.383,-542.067,0,0
321869,117.052,-541.418,0,0
322129,116.689,-540.766,0,0
322390,116.315,-540.17,0,0
322650,115.882,-539.566,0,0
322910,115.401,-538.994,0,0
323171,114.907,-538.43,0,0
323431,114.372,-537.807,0,0
323691,113.819,-537.165,0,0
323952,113.28,-536.531,0,0
324212,112.736,-535.878,0,0
324472,112.199,-535.223,0,0
324733,111.657,-534.549,0,0
324993,111.112,-533.886,0,0
325253,110.584,-533.214,0,0
325514,110.065,-532.535,0,0
325774,109.548,-531.839,0,0
326034,109.075,-531.164,0,0
326295,108.62,-530.522,0,0
326555,108.185,-529.906,0,0
326815,107.712,-529.337,0,0
327076,107.221,-528.81,0,0
327336,106.711,-528.271,0,0
327596,106.178,-527.739,0,0
327857,105.63,-527.185,0,0
328117,105.076,-526.684,0,0
328377,104.47,-526.185,0,0
328638,103.839,-525.692,0,0
328898,103.17,-525.179,0,0
329158,102.467,-524.589,0,0
329419,101.782,-523.977,0,0
329679,101.138,-523.352,0,0
329939,100.501,-522.744,0,0
330200,99.8685,-522.141,0,0
330460,99.2208,-521.535,0,0
330720.15,98.5562,-520.896,0,0
330980.475,97.8816,-520.311,0,0
331240.8,97.2678,-519.776,0,0
331501.125,96.7253,-519.227,0,0
331761.45,95.9981,-518.752,0,0
332021.775,95.236,-518.237,0,0
332282.1,94.4536,-517.748,0,0
332542.425,93.6247,-517.231,0,0
332802.75,92.5973,-516.717,0,0
333063.075,91.6832,-516.046,0,0
333323.4,90.7136,-515.41,0,0
333583.725,89.7459,-514.679,0,0
333844.05,88.7292,-513.848,0,0
334104.375,87.7774,-512.995,0,0
334364.7,86.7676,-512.104,0,0
334625.025,85.8027,-511.081,0,0
334885.35,84.908,-510.164,0,0
335145.675,83.991,-509.165,0,0
335406.0,83.1005,-508.069,0,0
335666.325,82.2246,-506.998,0,0
335926.65,81.3477,-505.909,0,0
336186.975,80.5085,-504.784,0,0
336447.3,79.7063,-503.604,0,0
336707.625,78.9223,-502.43,0,0
336967.95,78.0995,-501.187,0,0
337228.275,77.3867,-499.899,0,0
337488.6,76.6745,-498.641,0,0
337748.925,76.1301,-497.296,0,0
338009.25,75.4673,-495.929,0,0
338269.575,74.9104,-494.532,0,0
338529.9,74.4601,-493.25,0,0
338790.225,73.9984,-491.918,0,0
339050.55,73.5983,-490.578,0,0
339310.875,73.1803,-489.322,0,0
339571.2,72.825,-487.975,0,0
339831.525,72.4627,-486.71,0,0
340091.85,72.1316,-485.442,0,0
340352.175,71.7697,-484.121,0,0
340612.5,71.4398,-482.819,0,0
340872.825,71.1892,-481.579,0,0
341133.15,70.982,-480.234,0,0
341393.475,70.7317,-478.897,0,0
341653.8,70.5472,-477.617,0,0
341914.125,70.3748,-476.291,0,0
342174.45,70.2793,-474.966,0,0
342434.775,70.1609,-473.701,0,0
342695.1,70.0987,-472.361,0,0
342955.425,70.0728,-471.158,0,0
343215.75,70.1032,-469.85,0,0
343476.075,70.1173,-468.636,0,0
343736.4,70.1829,-467.361,0,0
343996.725,70.3024,-466.164,0,0
344257.05,70.4056,-464.979,0,0
344517.375,70.5639,-463.848,0,0
344777.7,70.7525,-462.707,0,0
345038.025,70.9973,-461.692,0,0
345298.35,71.1885,-460.735,0,0
345558.675,71.4114,-459.718,0,0
345819.0,71.6473,-458.792,0,0
346079.325,71.8688,-457.926,0,0
346339.65,71.9889,-457.074,0,0
346599.975,72.1675,-456.28,0,0
346860,72.2795,-455.456,0,0
347121,72.4279,-454.718,0,0
347381,72.4861,-453.957,0,0
347641,72.4925,-453.264,0,0
347902,72.5413,-452.487,0,0
348162,72.5078,-451.721,0,0
348422,72.4135,-451.004,0,0
348683,72.3435,-450.204,0,0
348943,72.2119,-449.361,0,0
349203,72.104,-448.492,0,0
349464,72.0176,-447.605,0,0
349724,71.9116,-446.66,0,0
349984,71.7974,-445.721,0,0
350245,71.7495,-444.769,0,0
350505,71.7293,-443.804,0,0
350765,71.6465,-442.823,0,0
351025,71.7099,-441.81,0,0
351286,71.6347,-440.702,0,0
351546,71.6771,-439.669,0,0
351806,71.7807,-438.537,0,0
352067,71.8589,-437.459,0,0
352327,72.1254,-436.345,0,0
352587,72.3574,-435.3,0,0
352848,72.6634,-434.239,0,0
353108,72.9645,-433.25,0,0
353368,73.3358,-432.29,0,0
353629,73.729,-431.316,0,0
353889,74.2256,-430.443,0,0
354149,74.5893,-429.602,0,0
354410,75.0835,-428.835,0,0
354670,75.5302,-428.162,0,0
354930,75.9832,-427.49,0,0
355191,76.3997,-426.905,0,0
355451,76.7708,-426.378,0,0
355711,77.0916,-425.846,0,0
355972,77.4226,-425.437,0,0
356232,77.6422,-424.994,0,0
356492,77.8087,-424.608,0,0
356753,77.9398,-424.125,0,0
357013,78.0039,-423.658,0,0
357273,78.0035,-423.179,0,0
357534,78.0043,-422.709,0,0
357794,77.932,-422.185,0,0
358054,77.8546,-421.622,0,0
358315,77.7072,-420.953,0,0
358575,77.5307,-420.337,0,0
358835,77.3112,-419.585,0,0
359096,77.1549,-418.784,0,0
359356,77.0236,-417.902,0,0
359616,76.9202,-416.93,0,0
359877,76.8484,-415.887,0,0
360137,76.9074,-414.842,0,0
360397,77.0143,-413.81,0,0
360658,77.1811,-412.75,0,0
360918,77.43,-411.754,0,0
361178,77.7325,-410.654,0,0
361438,78.0597,-409.69,0,0
361699,78.4569,-408.761,0,0
361959,78.8244,-407.773,0,0
362219,79.2814,-406.901,0,0
362480,79.7595,-406.015,0,0
362740.1,80.2417,-405.174,0,0
363000.425,80.7955,-404.333,0,0
363260.75,81.2737,-403.593,0,0
363521.075,81.8186,-402.844,0,0
363781.4,82.3451,-402.111,0,0
364041.725,82.8589,-401.444,0,0
364302.05,83.4108,-400.798,0,0
364562.375,83.9186,-400.181,0,0
364822.7,84.4751,-399.53,0,0
365083.025,85.0204,-398.944,0,0
365343.35,85.605,-398.434,0,0
365603.675,86.1882,-397.89,0,0
365864.0,86.7529,-397.458,0,0
366124.325,87.3184,-397.044,0,0
366384.65,87.8479,-396.666,0,0
366644.975,88.3239,-396.265,0,0
366905.3,88.7265,-395.945,0,0
367165.625,89.173,-395.606,0,0
367425.95,89.5772,-395.256,0,0
367686.275,89.9247,-394.851,0,0
367946.6,90.3499,-394.512,0,0
368206.925,90.7598,-394.141,0,0
368467.25,91.201,-393.807,0,0
368727.575,91.6823,-393.499,0,0
368987.9,92.0777,-393.237,0,0
369248.225,92.5259,-393.06,0,0
369508.55,92.8835,-392.939,0,0
369768.875,93.2462,-392.825,0,0
370029.2,93.5349,-392.806,0,0
370289.525,93.7276,-392.775,0,0
370549.85,93.8109,-392.791,0,0
370810.175,93.8041,-392.748,0,0
371070.5,93.6764,-392.665,0,0
371330.825,93.4964,-392.499,0,0
371591.15,93.2605,-392.245,0,0
371851.475,93.0124,-391.914,0,0
372111.8,92.7043,-391.448,0,0
372372.125,92.4597,-390.905,0,0
372632.45,92.2485,-390.19,0,0
372892.775,92.1419,-389.514,0,0
373153.1,92.0763,-388.774,0,0
373413.425,92.065,-388.029,0,0
373673.75,92.1181,-387.234,0,0
373934.075,92.2136,-386.474,0,0
374194.4,92.3835,-385.727,0,0
374454.725,92.5443,-384.941,0,0
374715.05,92.7583,-384.271,0,0
374975.375,93.0016,-383.512,0,0
375235.7,93.2125,-382.835,0,0
375496.025,93.4606,-382.139,0,0
375756.35,93.7446,-381.454,0,0
376016.675,94.0228,-380.78,0,0
376277.0,94.3353,-380.077,0,0
376537.325,94.6114,-379.425,0,0
376797.65,94.9532,-378.753,0,0
377057.975,95.2829,-378.114,0,0
377318.3,95.6244,-377.463,0,0
377578.625,95.9163,-376.805,0,0
377838.95,96.2383,-376.214,0,0
378099.275,96.5966,-375.541,0,0
378359.6,96.8983,-374.83,0,0
378619.925,97.2627,-374.139,0,0
378880,97.6821,-373.468,0,0
379141,98.1216,-372.744,0,0
379401,98.5691,-372.051,0,0
379661,99.0615,-371.368,0,0
379922,99.6203,-370.745,0,0
380182,100.187,-370.086,0,0
380442,100.716,-369.497,0,0
380703,101.313,-368.954,0,0
380963,101.876,-368.397,0,0
381223,102.43,-367.859,0,0
381483,102.991,-367.319,0,0
381744,103.588,-366.804,0,0
382004,104.148,-366.286,0,0
382264,104.785,-365.775,0,0
382525,105.381,-365.301,0,0
382785,106.033,-364.869,0,0
383045,106.699,-364.404,0,0
383306,107.336,-364.009,0,0
383566,107.995,-363.624,0,0
383826,108.593,-363.302,0,0
384087,109.168,-363.01,0,0
384347,109.792,-362.667,0,0
384607,110.354,-362.346,0,0
384868,110.962,-362.018,0,0
385128,111.554,-361.695,0,0
385388,112.088,-361.404,0,0
385649,112.678,-361.125,0,0
385909,113.151,-360.883,0,0
386169,113.695,-360.609,0,0
386430,114.147,-360.295,0,0
386690,114.623,-359.93,0,0
386950,115.102,-359.538,0,0
387211,115.59,-359.086,0,0
387471,116.157,-358.672,0,0
387731,116.733,-358.265,0,0
387992,117.368,-357.833,0,0
388252,118.028,-357.47,0,0
388512,118.67,-357.044,0,0
388773,119.318,-356.636,0,0
389033,120.005,-356.229,0,0
389293,120.742,-355.822,0,0
389554,121.525,-355.422,0,0
389814,122.329,-355.072,0,0
390074,123.192,-354.79,0,0
390335,124.05,-354.546,0,0
390595,124.904,-354.337,0,0
390855,125.721,-354.123,0,0
391116,126.543,-353.949,0,0
391376,127.424,-353.84,0,0
391636,128.216,-353.682,0,0
391896,129.043,-353.542,0,0
392157,129.818,-353.475,0,0
392417,130.581,-353.364,0,0
392677,131.414,-353.23,0,0
392938,132.147,-353.038,0,0
393198,133.004,-352.848,0,0
393458,133.91,-352.636,0,0
393719,134.866,-352.456,0,0
393979,135.869,-352.314,0,0
394239,136.891,-352.212,0,0
394500,137.987,-352.114,0,0
394760.05,139.091,-352.068,0,0
395020.375,140.251,-352.057,0,0
395280.7,141.457,-352.077,0,0
395541.025,142.746,-352.188,0,0
395801.35,144.066,-352.375,0,0
396061.675,145.343,-352.653,0,0
396322.0,146.681,-352.959,0,0
396582.325,147.935,-353.421,0,0
396842.65,149.291,-353.843,0,0
397102.975,150.607,-354.324,0,0
397363.3,152.056,-354.969,0,0
397623.625,153.508,-355.668,0,0
397883.95,154.977,-356.555,0,0
398144.275,156.452,-357.581,0,0
398404.6,157.859,-358.786,0,0
398664.925,159.169,-360.109,0,0
398925.25,160.406,-361.598,0,0
399185.575,161.503,-363.244,0,0
399445.9,162.495,-364.976,0,0
399706.225,163.323,-366.877,0,0
399966.55,163.931,-368.906,0,0
400006.6,164.009,-369.191,0,0