File: Accelerated corrosion test data/2025-10-01_12-27-23/sample_5.csv
Frequency (Hz),Impedance (ohms),Phase (Radians),Temperature (C),Humidity (%)
10000.0,4063.59,-7195.1,0,0
10260.325,3925.64,-7105.7,0,0
10520.65,3797.98,-7010.44,0,0
10780.975,3676.29,-6916.62,0,0
11041.3,3560.97,-6824.05,0,0
11301.625,3457.11,-6724.63,0,0
11561.95,3349.98,-6637.92,0,0
11822.275,3249.47,-6549.89,0,0
12082.6,3152.33,-6465.45,0,0
12342.925,3060.53,-6381.07,0,0
12603.25,2971.36,-6299.45,0,0
12863.575,2887.28,-6218.39,0,0
13123.9,2807.35,-6137.68,0,0
13384.225,2731.63,-6058.35,0,0
13644.55,2656.93,-5982.59,0,0
13904.875,2586.06,-5906.77,0,0
14165.2,2517.82,-5834.01,0,0
14425.525,69.7833,-3.04128,0,0
14685.8,57.5548,-1.44965,0,0
14946.175,50.0593,-0.880948,0,0
15206.5,34.4193,0.0273295,0,0
15466.825,32.5111,0.112494,0,0
15727.15,31.6613,0.152195,0,0
15987.5,30.1599,0.210863,0,0
16247.8,29.8753,0.225582,0,0
16508.125,2017,-5219.27,0,0
16768.45,1963.93,-5172.36,0,0
17028.775,1917.69,-5116.48,0,0
17289.1,1875.75,-5058.15,0,0
17549.425,1831.44,-5004.16,0,0
17809.75,1793.68,-4946.51,0,0
18070.075,1809.91,-4846.73,0,0
18330.4,1758.26,-4806.38,0,0
18590.725,2481.06,-3725.58,0,0
18851.05,2360.09,-3867.34,0,0
19111.375,2255.9,-3954.21,0,0
19371.7,2171.39,-3993.64,0,0
19632.025,2110.09,-3995.96,0,0
19892.35,2044.41,-4001.64,0,0
20152.675,2017.74,-3956.05,0,0
20413.0,1953.54,-3962.09,0,0
20673.3,1868.05,-3992.09,0,0
20933.65,1832.07,-3962.19,0,0
21193.975,1782.98,-3947.69,0,0
21454.3,1744.49,-3923.56,0,0
21714.625,1702.25,-3903.07,0,0
21974.9,1675.87,-3866.83,0,0
22235.275,1624.75,-3858.14,0,0
22495.6,1565.12,-3857.48,0,0
22755.925,1524.43,-3839.29,0,0
23016.25,1517.31,-3788.54,0,0
23276.6,1483.59,-3765.29,0,0
23536.9,1455.48,-3736.53,0,0
23797.225,1431.52,-3704.92,0,0
24057.55,1391.53,-3688.65,0,0
24317.875,1381.75,-3647.96,0,0
24578.2,1358.1,-3619.16,0,0
24838.525,1339.16,-3587.67,0,0
25098.85,1339.76,-3540.26,0,0
25359.175,1272.92,-3549.86,0,0
25619.5,1253.34,-3522.23,0,0
25879.8,1235.68,-3492.36,0,0
26140.1,1160.2,-3510.25,0,0
26400.5,1126.55,-3493.31,0,0
26660.8,1112.87,-3462.25,0,0
26921.1,1104.41,-3428.62,0,0
27181.4,1077.73,-3408.77,0,0
27441.8,1059.72,-3382.85,0,0
27702.1,1043.94,-3356.45,0,0
27962.4,1015.56,-3339.31,0,0
28222.7,1005.61,-3310.14,0,0
28483.1,1006.13,-3274.63,0,0
28743.4,977.589,-3258.92,0,0
29003.7,959.854,-3236.42,0,0
29264,950.447,-3209.54,0,0
29524.4,934.316,-3186.95,0,0
29784.7,904.006,-3173.87,0,0
30045,893.506,-3148.77,0,0
30305.3,878.763,-3126.6,0,0
30565.7,871.388,-3100.64,0,0
30826,852.295,-3082.34,0,0
31086.3,836.41,-3062.31,0,0
31346.6,822.385,-3041.93,0,0
31607,815.784,-3017.16,0,0
31867.3,805.889,-2995.09,0,0
32127.6,791.689,-2975.65,0,0
32387.9,779.577,-2955.38,0,0
32648.3,770.336,-2934.47,0,0
32908.6,761.476,-2912.83,0,0
33168.9,750.953,-2893.24,0,0
33429.2,744.142,-2871.56,0,0
33689.6,732.261,-2853.33,0,0
33949.9,722.528,-2834.03,0,0
34210.2,716.868,-2813.22,0,0
34470.5,664.54,-2817.71,0,0
34730.9,665.107,-2793.23,0,0
34991.2,638.202,-2783.23,0,0
35251.5,626.907,-2766.38,0,0
35511.8,625.145,-2745.05,0,0
35772.2,613.374,-2728.49,0,0
36032.5,605.863,-2709.65,0,0
36292.8,599.625,-2691.26,0,0
36553.1,588.808,-2675.29,0,0
36813.5,583.183,-2657.33,0,0
37073.8,578.786,-2638.81,0,0
37334.1,561.865,-2626.29,0,0
37594.4,557.526,-2608.11,0,0
37854.8,548.295,-2592.67,0,0
38115.1,542.06,-2576.16,0,0
38375.4,538.042,-2558.87,0,0
38635.7,532.63,-2542.07,0,0
38896.1,527.13,-2526.26,0,0
39156.4,520.788,-2510.64,0,0
39416.7,516.246,-2494.33,0,0
39677,511.024,-2478.86,0,0
39937.4,505.878,-2463.54,0,0
40197.7,500.552,-2448.57,0,0
40458,495.461,-2433.36,0,0
40718.3,490.463,-2418.8,0,0
40978.7,485.814,-2403.88,0,0
41239,481.791,-2389.02,0,0
41499.3,477.457,-2374.51,0,0
41759.6,474.686,-2359.71,0,0
42020,466.747,-2347.15,0,0
42280.275,464.286,-2333.21,0,0
42540.6,459.235,-2319.42,0,0
42800.925,454.427,-2305.99,0,0
43061.25,452.462,-2291.78,0,0
43321.575,446.604,-2279.32,0,0
43581.9,441.603,-2266.43,0,0
43842.225,438.477,-2252.82,0,0
44102.55,434.811,-2239.69,0,0
44362.875,434.786,-2225.02,0,0
44623.2,428.978,-2213.08,0,0
44883.525,426.936,-2199.68,0,0
45143.85,419.903,-2188.6,0,0
45404.175,416.576,-2176.22,0,0
45664.5,414.88,-2163.37,0,0
45924.825,409.151,-2152.71,0,0
46185.15,408.44,-2139.45,0,0
46445.475,404.296,-2128.68,0,0
46705.8,399.986,-2117.35,0,0
46966.125,397.455,-2105.84,0,0
47226.45,394.179,-2095.15,0,0
47486.775,390.372,-2084.39,0,0
47747.1,387.966,-2073.02,0,0
48007.425,384.938,-2062.51,0,0
48267.75,381.661,-2051.94,0,0
48528.075,379.417,-2041.12,0,0
48788.4,377.14,-2030.65,0,0
49048.725,379.473,-2018.56,0,0
49309.05,371.949,-2010.46,0,0
49569.375,369.62,-2000.57,0,0
49829.7,365.236,-1991.19,0,0
50090.025,362.238,-1981.53,0,0
50350.35,359.449,-1971.82,0,0
50610.675,356.257,-1961.88,0,0
50871.0,353.992,-1951.73,0,0
51131.325,351.528,-1942.13,0,0
51391.65,349.843,-1931.94,0,0
51651.975,351.129,-1920.63,0,0
51912.3,345.639,-1912.02,0,0
52172.625,340.197,-1903.74,0,0
52432.95,337.059,-1894.63,0,0
52693.275,335.69,-1884.75,0,0
52953.6,335.22,-1874.35,0,0
53213.925,331.837,-1865.19,0,0
53474.25,328.812,-1856.32,0,0
53734.575,324.969,-1847.74,0,0
53994.9,323.279,-1838.51,0,0
54255.225,321.294,-1829.31,0,0
54515.55,319.676,-1820.23,0,0
54775.875,321.524,-1810.35,0,0
55036.2,315.106,-1803.4,0,0
55296.525,313.833,-1795,0,0
55556.85,312.853,-1786.67,0,0
55817.175,311.503,-1778.59,0,0
56077.5,308.929,-1771.01,0,0
56337.825,306.675,-1763.49,0,0
56598.15,305.013,-1756.1,0,0
56858.475,302.199,-1748.82,0,0
57118.8,299.891,-1741.21,0,0
57379.125,298.238,-1733.49,0,0
57639.45,296.451,-1725.53,0,0
57899.775,293.821,-1717.84,0,0
58160.1,290.359,-1710.46,0,0
58420.4,287.717,-1702.82,0,0
58680.7,286.478,-1694.77,0,0
58941.1,284.782,-1686.94,0,0
59201.4,282.044,-1679.7,0,0
59461.7,279.419,-1672.14,0,0
59722,277.268,-1664.73,0,0
59982.4,275.117,-1657.04,0,0
60242.7,272.994,-1649.61,0,0
60503,271.125,-1642,0,0
60763.3,269.316,-1634.4,0,0
61023.7,268.331,-1626.76,0,0
61284,265.872,-1619.51,0,0
61544.3,264.337,-1612.24,0,0
61804.6,262.988,-1604.95,0,0
62065,261.532,-1597.94,0,0
62325.3,260.244,-1590.75,0,0
62585.6,258.852,-1583.81,0,0
62845.9,257.538,-1576.89,0,0
63106.3,256.106,-1570.13,0,0
63366.6,254.835,-1563.47,0,0
63626.9,253.765,-1556.96,0,0
63887.2,252.433,-1550.7,0,0
64147.6,250.87,-1544.52,0,0
64407.9,249.185,-1538.11,0,0
64668.2,247.765,-1531.82,0,0
64928.5,246.363,-1525.43,0,0
65188.9,246.343,-1518.45,0,0
65449.2,245.078,-1511.64,0,0
65709.5,243.146,-1505.55,0,0
65969.8,241.251,-1499.5,0,0
66230.2,241.127,-1492.71,0,0
66490.5,239.847,-1486.33,0,0
66750.8,237.782,-1480.3,0,0
67011.1,236.573,-1474.22,0,0
67271.5,236.366,-1467.68,0,0
67531.8,233.963,-1462.11,0,0
67792.1,232.361,-1456.46,0,0
68052.4,231.177,-1450.64,0,0
68312.8,230.094,-1444.89,0,0
68573.1,229.09,-1439.18,0,0
68833.4,227.405,-1433.63,0,0
69093.7,226.028,-1427.88,0,0
69354.1,224.674,-1422.48,0,0
69614.4,223.381,-1416.5,0,0
69874.7,222.511,-1410.61,0,0
70135,221.432,-1404.88,0,0
70395.4,220.259,-1399.42,0,0
70655.7,219.551,-1393.64,0,0
70916,217.964,-1388.29,0,0
71176.3,216.89,-1382.75,0,0
71436.7,215.58,-1377.45,0,0
71697,214.386,-1372,0,0
71957.3,213.402,-1366.37,0,0
72217.6,212.773,-1360.9,0,0
72478,212.105,-1355.62,0,0
72738.3,210.699,-1350.46,0,0
72998.6,209.916,-1345.15,0,0
73258.9,208.872,-1339.91,0,0
73519.3,208.2,-1334.73,0,0
73779.6,207.575,-1329.5,0,0
74039.9,206.528,-1324.51,0,0
74300.225,205.723,-1319.51,0,0
74560.55,204.241,-1314.68,0,0
74820.875,203.392,-1309.57,0,0
75081.2,202.434,-1304.58,0,0
75341.525,201.43,-1299.43,0,0
75601.85,200.345,-1294.49,0,0
75862.175,198.965,-1289.48,0,0
76122.5,197.695,-1284.44,0,0
76382.825,196.583,-1279.35,0,0
76643.15,195.56,-1274.38,0,0
76903.475,194.581,-1269.4,0,0
77163.8,193.715,-1264.44,0,0
77424.125,192.827,-1259.46,0,0
77684.45,191.883,-1254.55,0,0
77944.775,191.265,-1249.55,0,0
78205.1,191.047,-1244.6,0,0
78465.425,190.249,-1239.87,0,0
78725.75,189.456,-1235.32,0,0
78986.075,188.716,-1230.63,0,0
79246.4,187.638,-1226.13,0,0
79506.725,187.548,-1221.3,0,0
79767.05,186.089,-1216.92,0,0
80027.375,186.54,-1211.93,0,0
80287.7,185.376,-1207.42,0,0
80548.025,184.011,-1203.1,0,0
80808.35,182.497,-1198.72,0,0
81068.675,181.953,-1194.15,0,0
81329.0,180.831,-1189.64,0,0
81589.325,180.071,-1185.13,0,0
81849.65,179.985,-1180.46,0,0
82109.975,178.366,-1176.14,0,0
82370.3,177.066,-1171.8,0,0
82630.625,176.338,-1167.23,0,0
82890.95,175.36,-1162.75,0,0
83151.275,174.497,-1158.43,0,0
83411.6,173.648,-1153.97,0,0
83671.925,173.193,-1149.5,0,0
83932.25,172.797,-1144.96,0,0
84192.575,172.237,-1140.63,0,0
84452.9,171.483,-1136.31,0,0
84713.225,170.807,-1131.94,0,0
84973.55,170.339,-1127.62,0,0
85233.875,169.907,-1123.49,0,0
85494.2,169.129,-1119.51,0,0
85754.525,168.411,-1115.38,0,0
86014.85,168.008,-1111.25,0,0
86275.175,167.67,-1106.98,0,0
86535.5,166.909,-1102.98,0,0
86795.825,166.287,-1098.81,0,0
87056.15,165.564,-1094.82,0,0
87316.475,164.884,-1090.6,0,0
87576.8,164.921,-1086.17,0,0
87837.125,164.556,-1082.05,0,0
88097.45,164.283,-1077.7,0,0
88357.775,164.829,-1073.15,0,0
88618.1,165.305,-1068.56,0,0
88878.425,163.336,-1064.92,0,0
89138.75,162.941,-1060.66,0,0
89399.075,163.093,-1056.45,0,0
89659.4,161.969,-1052.62,0,0
89919.725,161.241,-1048.76,0,0
90180,160.236,-1045.13,0,0
90440.4,160.294,-1041.08,0,0
90700.7,160.257,-1037.3,0,0
90961,160.09,-1033.41,0,0
91221.3,159.547,-1029.85,0,0
91481.7,160.737,-1025.68,0,0
91742,160.397,-1022.17,0,0
92002.3,160.86,-1018.42,0,0
92262.6,159.654,-1015.31,0,0
92523,159.635,-1011.96,0,0
92783.3,158.711,-1008.73,0,0
93043.6,158.259,-1005.51,0,0
93303.9,157.689,-1002.13,0,0
93564.3,157.734,-998.545,0,0
93824.6,157.881,-995.089,0,0
94084.9,156.924,-991.921,0,0
94345.2,156.238,-988.617,0,0
94605.6,155.65,-985.002,0,0
94865.9,155.905,-981.318,0,0
95126.2,154.859,-978.073,0,0
95386.5,154.722,-974.607,0,0
95646.9,153.978,-971.24,0,0
95907.2,153.523,-967.791,0,0
96167.5,152.996,-964.394,0,0
96427.8,152.616,-960.947,0,0
96688.2,152.114,-957.415,0,0
96948.5,151.779,-953.917,0,0
97208.8,151.471,-950.443,0,0
97469.1,151.119,-946.816,0,0
97729.5,151.073,-943.248,0,0
97989.8,150.543,-939.775,0,0
98250.1,150.545,-936.177,0,0
98510.4,150.315,-932.636,0,0
98770.8,150.145,-929.093,0,0
99031.1,150.259,-925.652,0,0
99291.4,150.244,-922.359,0,0
99551.7,150.51,-918.929,0,0
99812.1,150.327,-915.73,0,0
100072,150.589,-912.374,0,0
100333,150.285,-909.216,0,0
100593,150.359,-906.138,0,0
100853,150.83,-902.849,0,0
101114,150.872,-899.871,0,0
101374,150.658,-897.16,0,0
101634,150.581,-894.371,0,0
101895,150.535,-891.559,0,0
102155,150.399,-888.841,0,0
102415,150.064,-886.156,0,0
102676,149.741,-883.462,0,0
102936,149.723,-880.526,0,0
103196,149.423,-877.744,0,0
103457,148.716,-875.02,0,0
103717,148.566,-872.104,0,0
103977,148.478,-869.347,0,0
104238,147.955,-866.804,0,0
104498,147.653,-864.103,0,0
104758,147.073,-861.516,0,0
105019,146.461,-858.777,0,0
105279,145.689,-855.957,0,0
105539,144.767,-853.104,0,0
105800,144.021,-850.155,0,0
106060,142.909,-847.06,0,0
106320.175,142.304,-843.72,0,0
106580.5,142.41,-840.038,0,0
106840.825,141.021,-836.874,0,0
107101.15,140.614,-833.379,0,0
107361.475,140.566,-829.845,0,0
107621.8,140.665,-826.353,0,0
107882.125,140.408,-822.944,0,0
108142.45,140.406,-819.602,0,0
108402.775,140.249,-816.433,0,0
108663.1,140.217,-813.465,0,0
108923.425,140.045,-810.525,0,0
109183.75,139.567,-807.631,0,0
109444.075,139.111,-804.558,0,0
109704.4,138.976,-801.218,0,0
109964.725,138.93,-798.112,0,0
110225.05,138.662,-795.134,0,0
110485.375,138.476,-791.924,0,0
110745.7,137.829,-788.859,0,0
111006.025,137.569,-785.562,0,0
111266.35,137.344,-782.313,0,0
111526.675,137.39,-778.973,0,0
111787.0,137.458,-775.672,0,0
112047.325,137.265,-772.551,0,0
112307.65,137.316,-769.366,0,0
112567.975,137.188,-766.187,0,0
112828.3,137.128,-762.949,0,0
113088.625,137.299,-759.712,0,0
113348.95,137.412,-756.575,0,0
113609.275,137.626,-753.461,0,0
113869.6,138.659,-750.138,0,0
114129.925,139.009,-746.819,0,0
114390.25,138.801,-743.932,0,0
114650.575,138.427,-741.127,0,0
114910.9,138.492,-738.3,0,0
115171.225,138.835,-735.321,0,0
115431.55,138.699,-732.452,0,0
115691.875,139.276,-729.248,0,0
115952.2,139.036,-726.506,0,0
116212.525,139.385,-723.339,0,0
116472.85,139.642,-720.262,0,0
116733.175,139.291,-717.44,0,0
116993.5,139.731,-714.316,0,0
117253.825,139.849,-711.335,0,0
117514.15,140.161,-708.277,0,0
117774.475,140.465,-705.274,0,0
118034.8,140.636,-702.406,0,0
118295.125,141.098,-699.614,0,0
118555.45,141.724,-696.846,0,0
118815.775,141.693,-694.435,0,0
119076.1,142.048,-691.777,0,0
119336.425,142.224,-689.132,0,0
119596.75,142.389,-686.438,0,0
119857.075,142.748,-683.797,0,0
120117.4,143.209,-681.062,0,0
120377.725,143.623,-678.357,0,0
120638.05,143.8,-675.806,0,0
120898.375,144.179,-673.239,0,0
121158.7,144.372,-670.738,0,0
121419.025,144.49,-668.247,0,0
121679.35,144.398,-665.806,0,0
121939.675,144.481,-663.235,0,0
122200.0,145.285,-660.376,0,0
122460,144.665,-658.172,0,0
122721,144.667,-655.567,0,0
122981,145.021,-652.671,0,0
123241,144.563,-650.002,0,0
123502,144.993,-646.99,0,0
123762,144.706,-644.263,0,0
124022,144.848,-641.292,0,0
124283,145.301,-638.22,0,0
124543,145.87,-635.251,0,0
124803,146.751,-632.288,0,0
125064,146.957,-629.671,0,0
125324,147.522,-626.946,0,0
125584,148.412,-624.126,0,0
125845,148.086,-621.959,0,0
126105,148.681,-619.272,0,0
126365,149.541,-616.499,0,0
126626,150.183,-613.781,0,0
126886,149.51,-611.721,0,0
127146,149.408,-609.332,0,0
127406,149.452,-606.846,0,0
127667,149.645,-604.324,0,0
127927,149.808,-601.775,0,0
128187,150.029,-599.161,0,0
128448,150.382,-596.486,0,0
128708,150.684,-593.887,0,0
128968,150.845,-591.379,0,0
129229,150.881,-588.874,0,0
129489,151.139,-586.228,0,0
129749,151.197,-583.644,0,0
130010,151.153,-581.061,0,0
130270,151.246,-578.229,0,0
130530,151.293,-575.447,0,0
130791,151.708,-572.468,0,0
131051,151.761,-569.633,0,0
131311,151.588,-566.829,0,0
131572,151.646,-563.932,0,0
131832,152.219,-560.735,0,0
132092,152.053,-557.856,0,0
132353,152.478,-554.813,0,0
132613,152.671,-551.831,0,0
132873,153.27,-548.674,0,0
133134,153.744,-545.713,0,0
133394,154.285,-542.711,0,0
133654,155.022,-539.576,0,0
133915,155.692,-536.589,0,0
134175,156.802,-533.387,0,0
134435,157.185,-530.699,0,0
134696,157.461,-528.118,0,0
134956,157.976,-525.283,0,0
135216,158.347,-522.5,0,0
135477,158.849,-519.595,0,0
135737,159.417,-516.63,0,0
135997,159.971,-513.752,0,0
136258,160.531,-510.808,0,0
136518,161.227,-507.755,0,0
136778,161.972,-504.843,0,0
137039,162.725,-501.972,0,0
137299,163.529,-499.122,0,0
137559,164.176,-496.319,0,0
137819,164.874,-493.49,0,0
138080,165.657,-490.636,0,0
138340.125,166.46,-487.879,0,0
138600.45,167.176,-485.065,0,0
138860.775,167.797,-482.276,0,0
139121.1,168.499,-479.414,0,0
139381.425,169.172,-476.557,0,0
139641.75,169.798,-473.759,0,0
139902.075,170.422,-470.804,0,0
140162.4,171.33,-467.764,0,0
140422.725,171.928,-464.809,0,0
140683.05,172.757,-461.902,0,0
140943.375,173.551,-458.975,0,0
141203.7,174.355,-455.964,0,0
141464.025,175.188,-453.043,0,0
141724.35,176.007,-450.169,0,0
141984.675,176.809,-447.306,0,0
142245.0,177.572,-444.304,0,0
142505.325,178.459,-441.335,0,0
142765.65,179.259,-438.356,0,0
143025.975,180.036,-435.338,0,0
143286.3,180.864,-432.419,0,0
143546.625,181.711,-429.374,0,0
143806.95,182.44,-426.333,0,0
144067.275,183.158,-423.158,0,0
144327.6,184.027,-419.99,0,0
144587.925,184.927,-416.821,0,0
144848.25,185.824,-413.634,0,0
145108.575,186.719,-410.421,0,0
145368.9,187.526,-407.163,0,0
145629.225,188.469,-403.751,0,0
145889.55,189.438,-400.44,0,0
146149.875,190.383,-397.111,0,0
146410.2,191.358,-393.721,0,0
146670.525,192.367,-390.265,0,0
146930.85,193.382,-386.787,0,0
147191.175,194.39,-383.3,0,0
147451.5,195.35,-379.769,0,0
147711.825,196.36,-376.071,0,0
147972.15,197.352,-372.21,0,0
148232.475,198.661,-368.25,0,0
148492.8,199.874,-364.346,0,0
148753.125,201.323,-360.397,0,0
149013.45,202.723,-356.429,0,0
149273.775,204.249,-352.428,0,0
149534.1,205.851,-348.347,0,0
149794.425,207.51,-344.232,0,0
150054.75,209.271,-340.022,0,0
150315.075,211.139,-335.829,0,0
150575.4,213.118,-331.584,0,0
150835.725,215.231,-327.434,0,0
151096.05,217.409,-323.221,0,0
151356.375,219.661,-319.017,0,0
151616.7,222,-314.796,0,0
151877.025,224.44,-310.638,0,0
152137.35,226.888,-306.523,0,0
152397.675,229.336,-302.267,0,0
152658.0,231.941,-297.914,0,0
152918.325,234.8,-293.556,0,0
153178.65,237.691,-289.244,0,0
153438.975,240.776,-284.942,0,0
153699.3,243.99,-280.632,0,0
153959.625,247.263,-276.409,0,0
154219.95,250.651,-272.269,0,0
154480,254.13,-268.126,0,0
154741,257.673,-263.914,0,0
155001,261.431,-259.751,0,0
155261,265.236,-255.691,0,0
155522,269.173,-251.578,0,0
155782,273.194,-247.522,0,0
156042,277.399,-243.439,0,0
156303,281.755,-239.459,0,0
156563,286.282,-235.626,0,0
156823,290.902,-231.908,0,0
157084,295.513,-228.264,0,0
157344,300.241,-224.758,0,0
157604,304.986,-221.219,0,0
157864,309.766,-217.698,0,0
158125,314.689,-214.234,0,0
158385,319.74,-210.786,0,0
158645,324.946,-207.325,0,0
158906,330.364,-203.949,0,0
159166,335.966,-200.736,0,0
159426,341.728,-197.69,0,0
159687,347.551,-194.896,0,0
159947,353.464,-192.28,0,0
160207,359.295,-189.737,0,0
160468,365.183,-187.252,0,0
160728,371.15,-184.846,0,0
160988,377.226,-182.447,0,0
161249,383.464,-180.276,0,0
161509,389.748,-178.18,0,0
161769,396.078,-176.195,0,0
162030,402.48,-174.268,0,0
162290,409.117,-172.606,0,0
162550,415.863,-171.05,0,0
162811,422.595,-169.69,0,0
163071,429.47,-168.496,0,0
163331,436.377,-167.534,0,0
163592,443.336,-166.742,0,0
163852,450.304,-166.034,0,0
164112,457.46,-165.67,0,0
164373,464.504,-165.429,0,0
164633,471.683,-165.443,0,0
164893,478.775,-165.607,0,0
165154,485.944,-165.964,0,0
165414,492.932,-166.543,0,0
165674,500.115,-167.392,0,0
165935,507.076,-168.365,0,0
166195,514.131,-169.711,0,0
166455,521.024,-171.126,0,0
166716,527.83,-172.623,0,0
166976,534.532,-174.405,0,0
167236,541.252,-176.425,0,0
167497,547.789,-178.536,0,0
167757,554.293,-180.832,0,0
168017,560.79,-183.348,0,0
168277,567.195,-185.883,0,0
168538,573.37,-188.524,0,0
168798,579.54,-191.444,0,0
169058,585.608,-194.515,0,0
169319,591.509,-197.724,0,0
169579,597.226,-201.053,0,0
169839,602.907,-204.429,0,0
170100,608.363,-207.92,0,0
170360.075,613.808,-211.72,0,0
170620.4,619.001,-215.426,0,0
170880.725,624.211,-219.491,0,0
171141.05,629.233,-223.682,0,0
171401.375,633.907,-227.777,0,0
171661.7,638.482,-231.962,0,0
171922.025,642.921,-236.178,0,0
172182.35,647.201,-240.454,0,0
172442.675,651.353,-244.766,0,0
172703.0,655.483,-249.172,0,0
172963.325,659.461,-253.684,0,0
173223.65,663.216,-258.324,0,0
173483.975,666.79,-263.11,0,0
173744.3,670.111,-267.856,0,0
174004.625,673.213,-272.526,0,0
174264.95,676.155,-277.296,0,0
174525.275,678.912,-282.081,0,0
174785.6,681.443,-286.832,0,0
175045.925,683.862,-291.471,0,0
175306.25,686.014,-295.95,0,0
175566.575,688.159,-300.68,0,0
175826.9,690.099,-305.161,0,0
176087.225,691.851,-309.621,0,0
176347.55,693.503,-313.961,0,0
176607.875,695.135,-318.563,0,0
176868.2,696.43,-322.881,0,0
177128.525,697.585,-327.201,0,0
177388.85,698.762,-331.621,0,0
177649.175,699.642,-336.05,0,0
177909.5,700.415,-340.373,0,0
178169.825,701.018,-344.849,0,0
178430.15,701.302,-349.073,0,0
178690.475,701.247,-353.084,0,0
178950.8,700.815,-356.698,0,0
179211.125,700.503,-360.564,0,0
179471.45,699.943,-363.93,0,0
179731.775,699.262,-367.096,0,0
179992.1,698.273,-369.782,0,0
180252.425,697.194,-372.188,0,0
180512.75,696.293,-374.306,0,0
180773.075,695.377,-376.25,0,0
181033.4,694.312,-377.784,0,0
181293.725,693.346,-378.807,0,0
181554.05,692.423,-379.703,0,0
181814.375,691.65,-380.129,0,0
182074.7,691.238,-380.43,0,0
182335.025,691.048,-380.59,0,0
182595.35,690.912,-380.371,0,0
182855.675,691.015,-379.991,0,0
183116.0,691.555,-379.728,0,0
183376.325,692.044,-378.961,0,0
183636.65,692.958,-378.391,0,0
183896.975,694.077,-377.46,0,0
184157.3,695.525,-376.292,0,0
184417.625,697.378,-375.163,0,0
184677.95,699.34,-373.96,0,0
184938.275,701.762,-372.815,0,0
185198.6,704.339,-371.509,0,0
185458.925,707.189,-370.075,0,0
185719.25,710.536,-369.017,0,0
185979.575,713.599,-367.133,0,0
186239.9,717.622,-366.91,0,0
186500,721.853,-366.348,0,0
186761,726.207,-365.615,0,0
187021,730.691,-364.764,0,0
187281,735.374,-364.001,0,0
187542,740.434,-363.271,0,0
187802,745.77,-362.53,0,0
188062,751.613,-362.011,0,0
188322,757.746,-361.724,0,0
188583,763.767,-361.07,0,0
188843,770.943,-361.634,0,0
189103,778.241,-362.255,0,0
189364,785.616,-362.969,0,0
189624,793.492,-364.196,0,0
189884,801.545,-365.616,0,0
190145,809.863,-367.766,0,0
190405,818.384,-370.139,0,0
190665,827.218,-373.011,0,0
190926,836.452,-376.551,0,0
191186,845.689,-380.785,0,0
191446,854.773,-385.135,0,0
191707,864.075,-390.455,0,0
191967,873.306,-396.165,0,0
192227,882.268,-402.354,0,0
192488,890.167,-407.876,0,0
192748,900.002,-416.399,0,0
193008,909.273,-425.064,0,0
193269,918.059,-434.146,0,0
193529,926.477,-443.707,0,0
193789,934.708,-453.845,0,0
194050,942.495,-464.41,0,0
194310,949.822,-475.291,0,0
194570,956.694,-486.712,0,0
194831,962.845,-498.155,0,0
195091,969.202,-510.735,0,0
195351,974.55,-523.45,0,0
195612,979.7,-536.301,0,0
195872,984.325,-549.607,0,0
196132,988.322,-563.441,0,0
196393,991.495,-576.861,0,0
196653,993.998,-590.597,0,0
196913,995.701,-604.175,0,0
197174,997.364,-618.91,0,0
197434,998.592,-634.211,0,0
197694,999.004,-649.351,0,0
197955,998.16,-663.637,0,0
198215,997.165,-678.371,0,0
198475,995.447,-692.91,0,0
198735,993.272,-707.697,0,0
198996,990.303,-722.822,0,0
199256,987.251,-738.55,0,0
199516,983.035,-753.135,0,0
199777,978.372,-767.301,0,0
200037,973.137,-781.473,0,0
200297,967.231,-795.187,0,0
200558,960.65,-808.566,0,0
200818,954.268,-821.901,0,0
201078,946.728,-834.44,0,0
201339,938.941,-847.043,0,0
201599,930.994,-858.872,0,0
201859,922.283,-870.287,0,0
202120,913.267,-881.54,0,0
202380.025,904.191,-888.289,0,0
202640.35,894.466,-895.893,0,0
202900.675,884.417,-910.863,0,0
203161.0,874.555,-921.503,0,0
203421.325,863.945,-930.553,0,0
203681.65,853.79,-939.444,0,0
203941.975,843.035,-947.088,0,0
204202.3,831.769,-954.646,0,0
204462.625,820.602,-961.858,0,0
204722.95,809.291,-968.405,0,0
204983.275,798.163,-974.677,0,0
205243.6,786.733,-980.512,0,0
205503.925,774.935,-986.422,0,0
205764.25,763.81,-991.453,0,0
206024.575,752.092,-996.255,0,0
206284.9,740.853,-1000.24,0,0
206545.225,729.194,-1003.75,0,0
206805.55,717.885,-1007.33,0,0
207065.875,706.758,-1010.05,0,0
207326.2,695.583,-1012.54,0,0
207586.525,684.616,-1014.67,0,0
207846.85,673.812,-1016.15,0,0
208107.175,662.982,-1017.84,0,0
208367.5,652.435,-1018.75,0,0
208627.825,641.756,-1019.87,0,0
208888.15,631.438,-1020.32,0,0
209148.475,621.51,-1020.53,0,0
209408.8,611.125,-1020.61,0,0
209669.125,601.468,-1020.21,0,0
209929.45,591.582,-1020.21,0,0
210189.775,582.128,-1019.19,0,0
210450.1,572.658,-1018.16,0,0
210710.425,563.823,-1016.7,0,0
210970.75,554.738,-1015,0,0
211231.075,545.457,-1014.43,0,0
211491.4,536.572,-1012.99,0,0
211751.725,528.55,-1011.02,0,0
212012.05,519.85,-1009.13,0,0
212272.375,511.482,-1007.62,0,0
212532.7,503.476,-1005.61,0,0
212793.025,495.379,-1003.47,0,0
213053.35,487.92,-1000.63,0,0
213313.675,480.126,-998.507,0,0
213574.0,472.753,-995.898,0,0
213834.325,465.843,-992.889,0,0
214094.65,458.722,-990.148,0,0
214354.975,452.309,-986.732,0,0
214615.3,445.24,-983.882,0,0
214875.625,439.425,-980.179,0,0
215135.95,433.073,-976.883,0,0
215396.275,426.674,-973.923,0,0
215656.6,420.47,-970.836,0,0
215916.925,414.403,-967.524,0,0
216177.25,408.657,-964.161,0,0
216437.575,403.061,-960.716,0,0
216697.9,397.499,-957.209,0,0
216958.225,392.233,-953.881,0,0
217218.55,386.975,-950.159,0,0
217478.875,381.949,-946.37,0,0
217739.2,377.245,-942.461,0,0
217999.525,372.728,-938.443,0,0
218259.85,368.064,-934.581,0,0
218520,364.227,-930.321,0,0
218780,360.068,-926.228,0,0
219041,356.149,-921.851,0,0
219301,354.071,-916.054,0,0
219561,348.654,-913.26,0,0
219822,344.372,-909.855,0,0
220082,340.091,-905.856,0,0
220342,335.396,-903.106,0,0
220603,330.419,-900.204,0,0
220863,327.069,-896.364,0,0
221123,323.592,-892.423,0,0
221384,320.235,-888.531,0,0
221644,317.354,-884.32,0,0
221904,314.212,-880.683,0,0
222165,311.596,-876.42,0,0
222425,308.999,-872.485,0,0
222685,306.519,-868.656,0,0
222946,303.918,-864.991,0,0
223206,301.672,-860.88,0,0
223466,299.272,-857.082,0,0
223727,297.512,-853.063,0,0
223987,295.497,-849.089,0,0
224247,293.27,-845.627,0,0
224508,292.148,-841.374,0,0
224768,290.184,-837.615,0,0
225028,288.597,-834.065,0,0
225289,287.076,-830.41,0,0
225549,285.37,-826.774,0,0
225809,284.015,-823.38,0,0
226070,282.665,-819.667,0,0
226330,281.096,-816.562,0,0
226590,280.038,-812.826,0,0
226851,278.75,-809.751,0,0
227111,277.592,-806.477,0,0
227371,276.687,-803.154,0,0
227632,275.813,-799.67,0,0
227892,275.345,-796.111,0,0
228152,274.503,-792.935,0,0
228413,273.893,-789.968,0,0
228673,273.2,-786.815,0,0
228933,272.934,-783.765,0,0
229193,272.482,-780.816,0,0
229454,272.204,-777.696,0,0
229714,271.77,-774.814,0,0
229974,271.809,-771.622,0,0
230235,271.457,-769.046,0,0
230495,271.207,-766.348,0,0
230755,271.279,-763.639,0,0
231016,271.243,-760.853,0,0
231276,271.525,-758.12,0,0
231536,271.577,-755.569,0,0
231797,271.771,-753.11,0,0
232057,271.892,-750.753,0,0
232317,272.185,-748.367,0,0
232578,272.493,-746.038,0,0
232838,272.919,-743.889,0,0
233098,273.423,-741.527,0,0
233359,273.846,-739.355,0,0
233619,274.375,-737.306,0,0
233879,275.051,-735.225,0,0
234140,275.582,-733.41,0,0
234400,276.314,-731.51,0,0
234660.3,277.088,-729.643,0,0
234920.625,277.898,-727.894,0,0
235180.95,278.547,-726.26,0,0
235441.275,279.463,-724.721,0,0
235701.6,280.188,-723.268,0,0
235961.925,281.328,-721.732,0,0
236222.25,282.138,-720.552,0,0
236482.575,283.111,-719.207,0,0
236742.9,284.146,-718.099,0,0
237003.225,285.129,-717.04,0,0
237263.55,286.245,-716.049,0,0
237523.875,287.176,-715.269,0,0
237784.2,288.241,-714.529,0,0
238044.525,289.298,-713.894,0,0
238304.85,290.446,-713.29,0,0
238565.175,291.471,-712.697,0,0
238825.5,292.347,-712.347,0,0
239085.825,293.425,-712.211,0,0
239346.15,294.492,-712.047,0,0
239606.475,295.404,-711.783,0,0
239866.8,296.382,-711.818,0,0
240127.125,297.193,-712.007,0,0
240387.45,297.87,-712.298,0,0
240647.775,298.718,-712.625,0,0
240908.1,299.386,-712.908,0,0
241168.425,299.938,-713.497,0,0
241428.75,300.647,-713.971,0,0
241689.075,301.236,-714.299,0,0
241949.4,301.676,-715.012,0,0
242209.725,302.011,-715.804,0,0
242470.05,302.205,-716.686,0,0
242730.375,302.199,-717.564,0,0
242990.7,302.106,-718.509,0,0
243251.025,302.149,-719.558,0,0
243511.35,301.832,-720.43,0,0
243771.675,301.674,-721.315,0,0
244032.0,301.318,-721.999,0,0
244292.325,300.839,-722.882,0,0
244552.65,300.054,-723.812,0,0
244812.975,299.769,-724.245,0,0
245073.3,299.576,-724.589,0,0
245333.625,297.834,-726.15,0,0
245593.95,296.37,-727.313,0,0
245854.275,294.794,-728.427,0,0
246114.6,293.593,-729.003,0,0
246374.925,292.323,-729.583,0,0
246635.25,290.984,-730.036,0,0
246895.575,289.623,-730.345,0,0
247155.9,288.105,-730.641,0,0
247416.225,286.632,-730.629,0,0
247676.55,285.249,-730.569,0,0
247936.875,283.723,-730.526,0,0
248197.2,282.254,-730.234,0,0
248457.525,281.019,-729.777,0,0
248717.85,279.756,-729.226,0,0
248978.175,278.766,-728.366,0,0
249238.5,277.955,-727.508,0,0
249498.825,277.276,-726.681,0,0
249759.15,276.845,-725.701,0,0
250019.475,276.527,-724.601,0,0
250279.8,276.488,-724.121,0,0
250540,276.874,-723.487,0,0
250800,277.519,-722.879,0,0
251061,278.201,-722.652,0,0
251321,278.971,-722.751,0,0
251581,279.834,-723.374,0,0
251842,280.5,-723.917,0,0
252102,281.292,-724.855,0,0
252362,282.062,-726.075,0,0
252623,282.628,-727.583,0,0
252883,282.75,-729.426,0,0
253143,282.716,-731.507,0,0
253404,282.524,-733.629,0,0
253664,282.234,-735.712,0,0
253924,281.397,-737.98,0,0
254185,280.44,-740.392,0,0
254445,278.945,-742.805,0,0
254705,277.844,-744.807,0,0
254966,275.597,-747.344,0,0
255226,273.643,-749.518,0,0
255486,271.679,-751.491,0,0
255747,269.258,-753.279,0,0
256007,266.727,-754.911,0,0
256267,264.061,-756.602,0,0
256528,261.145,-758.016,0,0
256788,258.061,-759.392,0,0
257048,255.21,-760.277,0,0
257309,251.753,-761.351,0,0
257569,248.345,-762.355,0,0
257829,244.887,-762.96,0,0
258090,241.282,-763.613,0,0
258350,238.065,-763.838,0,0
258610,234.66,-764.015,0,0
258871,231.231,-763.91,0,0
259131,228.244,-763.731,0,0
259391,224.773,-763.548,0,0
259651,221.614,-763.099,0,0
259912,218.394,-762.605,0,0
260172,215.363,-761.831,0,0
260432,212.196,-761.163,0,0
260693,209.225,-760.264,0,0
260953,206.359,-759.291,0,0
261213,203.721,-758.228,0,0
261474,200.972,-757.08,0,0
261734,198.272,-755.917,0,0
261994,195.78,-754.721,0,0
262255,193.341,-753.35,0,0
262515,191.083,-751.941,0,0
262775,189.267,-750.287,0,0
263036,187.048,-748.857,0,0
263296,184.404,-747.719,0,0
263556,182.472,-746.104,0,0
263817,180.594,-744.539,0,0
264077,178.128,-743.274,0,0
264337,175.976,-741.814,0,0
264598,174.022,-740.298,0,0
264858,171.988,-738.824,0,0
265118,170.634,-737.066,0,0
265379,168.575,-735.645,0,0
265639,166.841,-734.026,0,0
265899,165.196,-732.442,0,0
266160,163.595,-730.918,0,0
266420,161.789,-729.498,0,0
266680.25,159.759,-728.315,0,0
266940.575,158.352,-726.722,0,0
267200.9,157,-725.162,0,0
267461.225,155.463,-723.78,0,0
267721.55,153.639,-722.529,0,0
267981.875,152.469,-721.06,0,0
268242.2,150.761,-719.869,0,0
268502.525,149.32,-718.501,0,0
268762.85,148.103,-717.085,0,0
269023.175,147.014,-715.715,0,0
269283.5,145.092,-714.496,0,0
269543.825,143.909,-713.252,0,0
269804.15,142.444,-711.783,0,0
270064.475,140.747,-710.715,0,0
270324.8,139.484,-709.256,0,0
270585.125,138.004,-707.924,0,0
270845.45,136.459,-706.567,0,0
271105.775,134.964,-705.329,0,0
271366.1,133.54,-703.734,0,0
271626.425,131.518,-702.58,0,0
271886.75,130.489,-701.067,0,0
272147.075,129.115,-699.549,0,0
272407.4,127.684,-698.084,0,0
272667.725,126.287,-696.538,0,0
272928.05,124.944,-694.982,0,0
273188.375,123.365,-693.555,0,0
273448.7,122.065,-691.999,0,0
273709.025,120.918,-690.297,0,0
273969.35,119.245,-688.874,0,0
274229.675,118.234,-687.171,0,0
274490.0,116.928,-685.518,0,0
274750.325,115.525,-684.038,0,0
275010.65,114.125,-682.435,0,0
275270.975,113.081,-680.694,0,0
275531.3,111.896,-678.95,0,0
275791.625,111.047,-677.161,0,0
276051.95,110.138,-675.388,0,0
276312.275,108.789,-673.82,0,0
276572.6,107.839,-671.956,0,0
276832.925,106.542,-670.325,0,0
277093.25,105.947,-668.428,0,0
277353.575,104.903,-666.679,0,0
277613.9,104.022,-664.864,0,0
277874.225,103.001,-663.095,0,0
278134.55,102.173,-661.286,0,0
278394.875,101.241,-659.461,0,0
278655.2,100.458,-657.67,0,0
278915.525,99.528,-655.889,0,0
279175.85,98.9229,-654.028,0,0
279436.175,98.3525,-652.199,0,0
279696.5,97.9142,-650.391,0,0
279956.825,97.2816,-648.571,0,0
280217.15,96.8197,-646.808,0,0
280477.475,96.2878,-645.176,0,0
280737.8,95.8948,-643.438,0,0
280998.125,96.2248,-641.523,0,0
281258.45,95.32,-640.081,0,0
281518.775,94.9356,-638.54,0,0
281779.1,94.4784,-637.051,0,0
282039.425,94.4693,-635.492,0,0
282299.75,94.1628,-634.016,0,0
282560,93.9426,-632.611,0,0
282820,93.9154,-631.156,0,0
283081,93.8093,-629.824,0,0
283341,93.4992,-628.508,0,0
283601,93.4146,-627.221,0,0
283862,93.3733,-625.865,0,0
284122,93.2155,-624.691,0,0
284382,92.9379,-623.492,0,0
284643,92.7003,-622.312,0,0
284903,92.5184,-621.127,0,0
285163,92.3679,-619.949,0,0
285424,92.1986,-618.727,0,0
285684,92.2449,-617.462,0,0
285944,91.9802,-616.372,0,0
286205,92.0009,-615.216,0,0
286465,91.928,-614.027,0,0
286725,91.9903,-612.776,0,0
286986,91.7541,-611.78,0,0
287246,91.5068,-610.691,0,0
287506,90.8714,-609.794,0,0
287767,90.9951,-608.67,0,0
288027,91.0636,-607.628,0,0
288287,91.1861,-606.578,0,0
288548,90.7148,-605.77,0,0
288808,90.525,-604.801,0,0
289068,90.146,-603.986,0,0
289329,89.8283,-603.163,0,0
289589,89.3388,-602.421,0,0
289849,89.115,-601.548,0,0
290109,89.1393,-600.529,0,0
290370,88.4788,-599.849,0,0
290630,88.139,-599.065,0,0
290890,87.8077,-598.167,0,0
291151,87.335,-597.314,0,0
291411,86.8667,-596.478,0,0
291671,86.5803,-595.55,0,0
291932,86.1682,-594.628,0,0
292192,85.7831,-593.682,0,0
292452,85.387,-592.742,0,0
292713,84.8891,-591.774,0,0
292973,84.4194,-590.775,0,0
293233,84.0442,-589.783,0,0
293494,83.6708,-588.763,0,0
293754,83.2901,-587.748,0,0
294014,82.8378,-586.669,0,0
294275,82.4354,-585.651,0,0
294535,82.2748,-584.528,0,0
294795,81.9415,-583.392,0,0
295056,81.4679,-582.336,0,0
295316,81.0809,-581.234,0,0
295576,80.5906,-580.123,0,0
295837,80.4952,-578.941,0,0
296097,80.21,-577.741,0,0
296357,79.9891,-576.571,0,0
296618,79.8365,-575.405,0,0
296878,79.5284,-574.27,0,0
297138,79.3244,-573.144,0,0
297399,79.4106,-571.976,0,0
297659,79.3346,-570.851,0,0
297919,79.326,-569.804,0,0
298180,79.3465,-568.737,0,0
298440,79.3449,-567.743,0,0
298700.2,79.3509,-566.764,0,0
298960.525,79.4935,-565.851,0,0
299220.85,79.6231,-564.974,0,0
299481.175,79.6003,-564.164,0,0
299741.5,79.6571,-563.38,0,0
300001.825,79.6774,-562.66,0,0
300262.15,79.6838,-561.982,0,0
300522.475,79.706,-561.326,0,0
300782.8,79.5506,-560.607,0,0
301043.125,79.2862,-560.147,0,0
301303.45,79.2647,-559.498,0,0
301563.775,79.1966,-558.796,0,0
301824.1,78.9598,-558.19,0,0
302084.425,78.7769,-557.683,0,0
302344.75,78.4543,-557.088,0,0
302605.075,78.177,-556.434,0,0
302865.4,77.9387,-555.806,0,0
303125.725,77.608,-555.248,0,0
303386.05,77.353,-554.535,0,0
303646.375,77.0212,-553.894,0,0
303906.7,76.8429,-553.22,0,0
304167.025,76.3957,-552.514,0,0
304427.35,76.1666,-551.81,0,0
304687.675,75.7322,-551.088,0,0
304948.0,75.4593,-550.335,0,0
305208.325,75.1902,-549.686,0,0
305468.65,74.767,-548.936,0,0
305728.975,74.4814,-548.135,0,0
305989.3,74.2757,-547.5,0,0
306249.625,73.924,-546.682,0,0
306509.95,73.5823,-545.86,0,0
306770.275,73.2596,-545.112,0,0
307030.6,73.0558,-544.337,0,0
307290.925,72.8589,-543.479,0,0
307551.25,72.45,-542.732,0,0
307811.575,71.984,-542.019,0,0
308071.9,71.6003,-541.287,0,0
308332.225,71.146,-540.485,0,0
308592.55,70.8637,-539.775,0,0
308852.875,70.6249,-538.961,0,0
309113.2,70.1089,-538.184,0,0
309373.525,70.0557,-537.31,0,0
309633.85,69.6899,-536.593,0,0
309894.175,69.3043,-535.712,0,0
310154.5,69.0695,-534.956,0,0
310414.825,68.8899,-534.194,0,0
310675.15,68.5802,-533.442,0,0
310935.475,68.2316,-532.576,0,0
311195.8,67.8921,-531.885,0,0
311456.125,67.7156,-531.074,0,0
311716.45,67.5826,-530.204,0,0
311976.775,67.2845,-529.413,0,0
312237.1,67.0782,-528.627,0,0
312497.425,66.7912,-527.811,0,0
312757.75,66.5694,-527.065,0,0
313018.075,66.2486,-526.234,0,0
313278.4,66.0245,-525.497,0,0
313538.725,65.9525,-524.616,0,0
313799.05,65.5586,-523.879,0,0
314059.375,65.4207,-523.014,0,0
314319.7,65.3408,-522.279,0,0
314580,64.9773,-521.472,0,0
314840,64.7039,-520.687,0,0
315101,64.524,-519.912,0,0
315361,64.3632,-519.151,0,0
315621,64.1209,-518.405,0,0
315882,64.0299,-517.6,0,0
316142,63.8352,-516.832,0,0
316402,63.7299,-516.097,0,0
316663,63.4171,-515.355,0,0
316923,63.3627,-514.554,0,0
317183,63.5392,-513.759,0,0
317444,63.3702,-512.955,0,0
317704,63.7488,-512.063,0,0
317964,63.1705,-511.439,0,0
318225,63.2217,-510.635,0,0
318485,62.2314,-510.133,0,0
318745,62.2185,-509.276,0,0
319006,61.8761,-508.676,0,0
319266,62.1747,-507.849,0,0
319526,61.681,-507.223,0,0
319787,61.3974,-506.534,0,0
320047,61.2065,-505.83,0,0
320307,61.4448,-505.062,0,0
320567,61.2408,-504.433,0,0
320828,61.1419,-503.724,0,0
321088,61.0038,-503.055,0,0
321348,60.6918,-502.426,0,0
321609,60.4876,-501.796,0,0
321869,60.3474,-501.216,0,0
322129,60.2537,-500.518,0,0
322390,60.0128,-499.89,0,0
322650,59.8101,-499.265,0,0
322910,59.5147,-498.633,0,0
323171,59.4026,-497.994,0,0
323431,59.1741,-497.339,0,0
323691,58.9172,-496.678,0,0
323952,58.7053,-496.066,0,0
324212,58.4565,-495.406,0,0
324472,58.448,-494.68,0,0
324733,58.1352,-494.051,0,0
324993,57.9224,-493.396,0,0
325253,57.757,-492.673,0,0
325514,57.4875,-492.017,0,0
325774,57.335,-491.356,0,0
326034,57.2989,-490.61,0,0
326295,56.9434,-489.995,0,0
326555,56.7767,-489.26,0,0
326815,56.6084,-488.561,0,0
327076,56.445,-487.846,0,0
327336,56.2785,-487.161,0,0
327596,55.9057,-486.477,0,0
327857,55.6782,-485.797,0,0
328117,55.5974,-485.068,0,0
328377,55.4099,-484.328,0,0
328638,55.1302,-483.679,0,0
328898,55.0154,-482.898,0,0
329158,54.8781,-482.177,0,0
329419,54.6047,-481.486,0,0
329679,54.5029,-480.747,0,0
329939,54.3382,-480.082,0,0
330200,54.22,-479.283,0,0
330460,54.1171,-478.544,0,0
330720.15,54.0847,-477.808,0,0
330980.475,53.9012,-477.096,0,0
331240.8,53.825,-476.353,0,0
331501.125,53.8461,-475.564,0,0
331761.45,53.843,-474.905,0,0
332021.775,53.758,-474.13,0,0
332282.1,53.2822,-473.474,0,0
332542.425,53.0377,-472.764,0,0
332802.75,52.9246,-472.037,0,0
333063.075,52.7738,-471.384,0,0
333323.4,52.7823,-470.585,0,0
333583.725,52.6637,-469.83,0,0
333844.05,52.6083,-469.152,0,0
334104.375,52.5587,-468.461,0,0
334364.7,52.4116,-467.789,0,0
334625.025,52.3032,-467.02,0,0
334885.35,52.0813,-466.328,0,0
335145.675,51.9923,-465.658,0,0
335406.0,51.9584,-464.912,0,0
335666.325,51.9711,-464.211,0,0
335926.65,51.8685,-463.533,0,0
336186.975,51.6895,-462.844,0,0
336447.3,51.5475,-462.202,0,0
336707.625,51.734,-461.522,0,0
336967.95,51.6935,-460.821,0,0
337228.275,51.6095,-460.113,0,0
337488.6,51.7937,-459.422,0,0
337748.925,51.8462,-458.734,0,0
338009.25,51.3375,-458.16,0,0
338269.575,51.457,-457.469,0,0
338529.9,51.3835,-456.785,0,0
338790.225,51.275,-456.122,0,0
339050.55,51.2298,-455.477,0,0
339310.875,51.0038,-454.904,0,0
339571.2,50.8781,-454.229,0,0
339831.525,51.0245,-453.586,0,0
340091.85,50.9696,-452.892,0,0
340352.175,50.9452,-452.273,0,0
340612.5,50.8177,-451.637,0,0
340872.825,50.7699,-451.022,0,0
341133.15,50.683,-450.47,0,0
341393.475,50.7251,-449.78,0,0
341653.8,50.7365,-449.161,0,0
341914.125,50.8916,-448.488,0,0
342174.45,50.8184,-447.861,0,0
342434.775,50.4897,-447.399,0,0
342695.1,50.5516,-446.759,0,0
342955.425,50.5327,-446.169,0,0
343215.75,50.3882,-445.507,0,0
343476.075,50.4794,-444.939,0,0
343736.4,50.4513,-444.317,0,0
343996.725,50.4838,-443.737,0,0
344257.05,50.3981,-443.137,0,0
344517.375,50.2064,-442.58,0,0
344777.7,50.1087,-442.006,0,0
345038.025,50.0625,-441.359,0,0
345298.35,49.9172,-440.798,0,0
345558.675,49.8446,-440.244,0,0
345819.0,49.9094,-439.678,0,0
346079.325,49.9094,-439.057,0,0
346339.65,49.7756,-438.466,0,0
346599.975,49.7013,-437.894,0,0
346860,49.5683,-437.397,0,0
347121,49.4486,-436.781,0,0
347381,49.4533,-436.204,0,0
347641,49.297,-435.633,0,0
347902,49.2691,-435.104,0,0
348162,49.1174,-434.519,0,0
348422,49.0818,-433.951,0,0
348683,49.0518,-433.382,0,0
348943,49.0308,-432.824,0,0
349203,48.8303,-432.23,0,0
349464,48.7946,-431.691,0,0
349724,48.713,-431.072,0,0
349984,48.5678,-430.546,0,0
350245,48.5597,-429.948,0,0
350505,48.561,-429.391,0,0
350765,48.4148,-428.805,0,0
351025,48.3105,-428.234,0,0
351286,48.2155,-427.648,0,0
351546,48.1949,-427.072,0,0
351806,48.1117,-426.511,0,0
352067,47.9569,-425.964,0,0
352327,47.9073,-425.383,0,0
352587,47.8758,-424.847,0,0
352848,47.7302,-424.254,0,0
353108,47.7054,-423.679,0,0
353368,47.6017,-423.106,0,0
353629,47.5516,-422.552,0,0
353889,47.4733,-421.964,0,0
354149,47.3678,-421.401,0,0
354410,47.3368,-420.814,0,0
354670,47.2094,-420.26,0,0
354930,47.1542,-419.717,0,0
355191,47.0831,-419.117,0,0
355451,47.0033,-418.542,0,0
355711,46.9775,-417.937,0,0
355972,46.8352,-417.399,0,0
356232,46.7755,-416.85,0,0
356492,46.7311,-416.251,0,0
356753,46.682,-415.682,0,0
357013,46.5934,-415.093,0,0
357273,46.5626,-414.493,0,0
357534,46.4712,-413.943,0,0
357794,46.4485,-413.334,0,0
358054,46.3722,-412.719,0,0
358315,46.3074,-412.136,0,0
358575,46.2225,-411.577,0,0
358835,46.1343,-410.989,0,0
359096,46.0307,-410.406,0,0
359356,45.9736,-409.782,0,0
359616,45.8366,-409.195,0,0
359877,45.8276,-408.608,0,0
360137,45.6939,-408,0,0
360397,45.668,-407.395,0,0
360658,45.6542,-406.74,0,0
360918,45.5095,-406.221,0,0
361178,45.4641,-405.581,0,0
361438,45.4064,-404.962,0,0
361699,45.3787,-404.323,0,0
361959,45.3114,-403.708,0,0
362219,45.315,-403.165,0,0
362480,45.296,-402.502,0,0
362740.1,45.2729,-401.909,0,0
363000.425,45.2284,-401.277,0,0
363260.75,45.1769,-400.723,0,0
363521.075,45.1622,-400.035,0,0
363781.4,45.1276,-399.439,0,0
364041.725,45.1107,-398.814,0,0
364302.05,45.0806,-398.171,0,0
364562.375,45.1171,-397.537,0,0
364822.7,45.1097,-396.968,0,0
365083.025,45.0586,-396.34,0,0
365343.35,45.0831,-395.704,0,0
365603.675,45.0945,-395.093,0,0
365864.0,45.1063,-394.496,0,0
366124.325,45.0735,-393.835,0,0
366384.65,45.0632,-393.244,0,0
366644.975,45.0625,-392.641,0,0
366905.3,45.073,-392.033,0,0
367165.625,45.0797,-391.426,0,0
367425.95,45.1143,-390.797,0,0
367686.275,45.1425,-390.202,0,0
367946.6,45.1635,-389.593,0,0
368206.925,45.167,-388.999,0,0
368467.25,45.226,-388.342,0,0
368727.575,45.2845,-387.762,0,0
368987.9,45.3237,-387.148,0,0
369248.225,45.3467,-386.54,0,0
369508.55,45.4101,-385.965,0,0
369768.875,45.4825,-385.34,0,0
370029.2,45.5711,-384.73,0,0
370289.525,45.6497,-384.152,0,0
370549.85,45.7038,-383.57,0,0
370810.175,45.738,-382.98,0,0
371070.5,45.851,-382.403,0,0
371330.825,45.9531,-381.829,0,0
371591.15,45.9882,-381.281,0,0
371851.475,46.094,-380.672,0,0
372111.8,46.1532,-380.127,0,0
372372.125,46.2745,-379.581,0,0
372632.45,46.3209,-379.011,0,0
372892.775,46.4573,-378.512,0,0
373153.1,46.548,-377.991,0,0
373413.425,46.6913,-377.43,0,0
373673.75,46.7357,-376.946,0,0
373934.075,46.7954,-376.441,0,0
374194.4,46.9232,-375.942,0,0
374454.725,46.9919,-375.422,0,0
374715.05,47.0976,-374.931,0,0
374975.375,47.1868,-374.452,0,0
375235.7,47.2348,-373.992,0,0
375496.025,47.287,-373.513,0,0
375756.35,47.3584,-373.07,0,0
376016.675,47.4159,-372.598,0,0
376277.0,47.4197,-372.143,0,0
376537.325,47.5372,-371.646,0,0
376797.65,47.5001,-371.181,0,0
377057.975,47.5512,-370.683,0,0
377318.3,47.6055,-370.257,0,0
377578.625,47.5225,-369.777,0,0
377838.95,47.5688,-369.314,0,0
378099.275,47.5843,-368.772,0,0
378359.6,47.5411,-368.322,0,0
378619.925,47.5326,-367.806,0,0
378880,47.4837,-367.34,0,0
379141,47.4914,-366.807,0,0
379401,47.4791,-366.283,0,0
379661,47.4781,-365.771,0,0
379922,47.4591,-365.259,0,0
380182,47.5418,-364.672,0,0
380442,47.4872,-364.17,0,0
380703,47.5256,-363.613,0,0
380963,47.6045,-363.084,0,0
381223,47.5886,-362.544,0,0
381483,47.667,-362.057,0,0
381744,47.6612,-361.549,0,0
382004,47.7632,-361.052,0,0
382264,47.7676,-360.563,0,0
382525,47.8068,-360.068,0,0
382785,47.8057,-359.596,0,0
383045,47.8704,-359.151,0,0
383306,47.8038,-358.687,0,0
383566,47.7538,-358.195,0,0
383826,47.7774,-357.662,0,0
384087,47.7187,-357.19,0,0
384347,47.7184,-356.672,0,0
384607,47.6834,-356.116,0,0
384868,47.5935,-355.623,0,0
385128,47.5777,-355.121,0,0
385388,47.5569,-354.514,0,0
385649,47.5283,-353.964,0,0
385909,47.5085,-353.403,0,0
386169,47.4945,-352.873,0,0
386430,47.4836,-352.274,0,0
386690,47.4789,-351.681,0,0
386950,47.4725,-351.071,0,0
387211,47.4588,-350.547,0,0
387471,47.4851,-349.916,0,0
387731,47.5207,-349.351,0,0
387992,47.4812,-348.746,0,0
388252,47.5642,-348.141,0,0
388512,47.5825,-347.536,0,0
388773,47.6073,-346.951,0,0
389033,47.7913,-346.306,0,0
389293,47.8067,-345.737,0,0
389554,47.82,-345.129,0,0
389814,47.8181,-344.546,0,0
390074,47.9789,-343.947,0,0
390335,48.1013,-343.292,0,0
390595,48.2524,-342.695,0,0
390855,48.3602,-342.108,0,0
391116,48.4639,-341.49,0,0
391376,48.3555,-340.936,0,0
391636,48.4548,-340.374,0,0
391896,48.4754,-339.722,0,0
392157,48.566,-339.162,0,0
392417,48.6234,-338.553,0,0
392677,48.7184,-337.978,0,0
392938,48.7578,-337.393,0,0
393198,48.8989,-336.81,0,0
393458,48.9725,-336.179,0,0
393719,49.0775,-335.624,0,0
393979,49.1841,-335.003,0,0
394239,49.2804,-334.421,0,0
394500,49.3599,-333.82,0,0
394760.05,49.4191,-333.239,0,0
395020.375,49.5119,-332.65,0,0
395280.7,49.6457,-332.048,0,0
395541.025,49.7692,-331.483,0,0
395801.35,49.9048,-330.844,0,0
396061.675,50.0963,-330.263,0,0
396322.0,50.2679,-329.643,0,0
396582.325,50.4206,-329.024,0,0
396842.65,50.5802,-328.423,0,0
397102.975,50.7162,-327.857,0,0
397363.3,50.8654,-327.256,0,0
397623.625,51.0561,-326.665,0,0
397883.95,51.2051,-326.073,0,0
398144.275,51.3414,-325.495,0,0
398404.6,51.5455,-324.915,0,0
398664.925,51.6991,-324.332,0,0
398925.25,51.857,-323.773,0,0
399185.575,52.0564,-323.195,0,0
399445.9,52.1955,-322.656,0,0
399706.225,52.3487,-322.093,0,0
399966.55,52.5344,-321.517,0,0
400006.6,52.5725,-321.438,0,0