File: Accelerated corrosion test data/2025-10-01_12-27-23/sample_1.csv
Frequency (Hz),Impedance (ohms),Phase (Radians),Temperature (C),Humidity (%)
10000.0,238.964,-12227.3,0,0
10260.325,239.698,-11912,0,0
10520.65,229.26,-11633.4,0,0
10780.975,223.763,-11348.6,0,0
11041.3,218.996,-11087.8,0,0
11301.625,213.367,-10830.2,0,0
11561.95,210.099,-10585.4,0,0
11822.275,206.55,-10346.6,0,0
12082.6,221.713,-10115.4,0,0
12342.925,208.647,-9939.39,0,0
12603.25,194.824,-9729.01,0,0
12863.575,189.855,-9526.41,0,0
13123.9,194.374,-9333.6,0,0
13384.225,183.804,-9161.81,0,0
13644.55,179.451,-8980.38,0,0
13904.875,180.868,-8803.11,0,0
14165.2,191.307,-8665.59,0,0
14425.525,213.655,-8494.44,0,0
14685.8,198.049,-8333.46,0,0
14946.175,178.338,-8234.51,0,0
15206.5,179.023,-8071.34,0,0
15466.825,174.998,-7947.22,0,0
15727.15,170.968,-7825.43,0,0
15987.5,159.737,-7691.84,0,0
16247.8,156.637,-7565.54,0,0
16508.125,154.907,-7442.21,0,0
16768.45,158.767,-7324.95,0,0
17028.775,162.703,-7218.37,0,0
17289.1,152.301,-7114.33,0,0
17549.425,153.075,-7006.89,0,0
17809.75,148.494,-6906.08,0,0
18070.075,146.783,-6807.86,0,0
18330.4,140.824,-6710.38,0,0
18590.725,137.549,-6616.08,0,0
18851.05,137.383,-6517.89,0,0
19111.375,135.486,-6436.26,0,0
19371.7,132.213,-6343.66,0,0
19632.025,131.332,-6255.15,0,0
19892.35,133.283,-6169.13,0,0
20152.675,135.535,-6081.68,0,0
20413.0,153.113,-5994.38,0,0
20673.3,167.751,-5950.96,0,0
20933.65,152.462,-5884.07,0,0
21193.975,156.987,-5815.72,0,0
21454.3,147.001,-5744.88,0,0
21714.625,138.093,-5679.86,0,0
21974.9,134.551,-5593.31,0,0
22235.275,174.131,-5543.79,0,0
22495.6,143.435,-5508.35,0,0
22755.925,127.24,-5438.84,0,0
23016.25,122.694,-5371.46,0,0
23276.6,118.865,-5310.27,0,0
23536.9,115.463,-5249.97,0,0
23797.225,112.067,-5188.3,0,0
24057.55,114.401,-5127.46,0,0
24317.875,112.885,-5078.93,0,0
24578.2,110.803,-5018.83,0,0
24838.525,110.412,-4968.88,0,0
25098.85,109.854,-4914.96,0,0
25359.175,106.23,-4865.98,0,0
25619.5,104.837,-4814.07,0,0
25879.8,103.058,-4763.15,0,0
26140.1,103.012,-4713.04,0,0
26400.5,101.953,-4663.93,0,0
26660.8,104.959,-4613.15,0,0
26921.1,113.18,-4565.47,0,0
27181.4,119.248,-4529.33,0,0
27441.8,113.796,-4497.55,0,0
27702.1,104.566,-4448.97,0,0
27962.4,110.909,-4399.37,0,0
28222.7,109.833,-4360.93,0,0
28483.1,120.603,-4315.53,0,0
28743.4,132.758,-4297.46,0,0
29003.7,116.14,-4265.18,0,0
29264,118.861,-4226.16,0,0
29524.4,107.48,-4193.85,0,0
29784.7,104.601,-4152.05,0,0
30045,101.798,-4119.71,0,0
30305.3,99.7325,-4080.46,0,0
30565.7,96.7952,-4042.27,0,0
30826,100.223,-4007.23,0,0
31086.3,103.622,-3977.47,0,0
31346.6,99.3049,-3949.25,0,0
31607,93.7989,-3912.6,0,0
31867.3,96.7417,-3878.25,0,0
32127.6,98.048,-3847.4,0,0
32387.9,97.8676,-3822.09,0,0
32648.3,92.7436,-3790.17,0,0
32908.6,95.094,-3760.18,0,0
33168.9,90.6214,-3732.62,0,0
33429.2,89.163,-3704.16,0,0
33689.6,86.0614,-3674.16,0,0
33949.9,84.5553,-3643.64,0,0
34210.2,86.7218,-3616.7,0,0
34470.5,83.9778,-3589.88,0,0
34730.9,82.0273,-3562.1,0,0
34991.2,81.4446,-3534.85,0,0
35251.5,80.2455,-3508.13,0,0
35511.8,79.5004,-3481.89,0,0
35772.2,79.2436,-3455.99,0,0
36032.5,77.7152,-3430.8,0,0
36292.8,77.351,-3405.22,0,0
36553.1,76.3109,-3380.56,0,0
36813.5,76.1375,-3355.77,0,0
37073.8,75.7494,-3331.78,0,0
37334.1,74.9824,-3308.06,0,0
37594.4,74.906,-3284.92,0,0
37854.8,73.9107,-3262.01,0,0
38115.1,73.7009,-3239.29,0,0
38375.4,73.1112,-3216.08,0,0
38635.7,72.785,-3194.26,0,0
38896.1,72.2544,-3172.23,0,0
39156.4,72.2878,-3150.4,0,0
39416.7,72.2836,-3129.87,0,0
39677,71.3076,-3108.58,0,0
39937.4,71.1697,-3087.57,0,0
40197.7,71.3226,-3066.79,0,0
40458,70.8489,-3046.61,0,0
40718.3,70.726,-3025.84,0,0
40978.7,72.1569,-3006.58,0,0
41239,71.9968,-2988.35,0,0
41499.3,71.6562,-2970.33,0,0
41759.6,70.8147,-2951.52,0,0
42020,69.7636,-2932.41,0,0
42280.275,70.3337,-2913.87,0,0
42540.6,70.5247,-2896.04,0,0
42800.925,70.0341,-2878.83,0,0
43061.25,69.1826,-2860.8,0,0
43321.575,69.1334,-2843.63,0,0
43581.9,68.3048,-2826.54,0,0
43842.225,67.7522,-2808.66,0,0
44102.55,68.0843,-2791.18,0,0
44362.875,68.7186,-2774.32,0,0
44623.2,69.1504,-2758.53,0,0
44883.525,68.2696,-2742.95,0,0
45143.85,68.7891,-2727.02,0,0
45404.175,68.8398,-2711.38,0,0
45664.5,67.9899,-2696.84,0,0
45924.825,67.2611,-2681.43,0,0
46185.15,66.5323,-2666.28,0,0
46445.475,65.6113,-2651.21,0,0
46705.8,65.2573,-2635.67,0,0
46966.125,64.7347,-2621.05,0,0
47226.45,64.3037,-2605.55,0,0
47486.775,64.4139,-2591.01,0,0
47747.1,63.9212,-2577.15,0,0
48007.425,63.435,-2562.72,0,0
48267.75,63.2102,-2548.33,0,0
48528.075,62.6504,-2535.02,0,0
48788.4,61.8495,-2520.74,0,0
49048.725,61.4885,-2506.66,0,0
49309.05,61.5276,-2492.95,0,0
49569.375,61.0986,-2479.6,0,0
49829.7,60.9009,-2466.22,0,0
50090.025,60.3906,-2453.2,0,0
50350.35,59.8892,-2439.91,0,0
50610.675,59.4538,-2426.73,0,0
50871.0,59.3165,-2413.87,0,0
51131.325,59.181,-2400.78,0,0
51391.65,59.2281,-2388.4,0,0
51651.975,58.7817,-2376.3,0,0
51912.3,58.4409,-2363.75,0,0
52172.625,58.2343,-2351.39,0,0
52432.95,57.9187,-2339.3,0,0
52693.275,57.8593,-2327.09,0,0
52953.6,57.6654,-2315.21,0,0
53213.925,57.7351,-2303.36,0,0
53474.25,57.4263,-2291.87,0,0
53734.575,57.3292,-2280.26,0,0
53994.9,57.3944,-2269.07,0,0
54255.225,56.91,-2258.03,0,0
54515.55,56.5577,-2246.65,0,0
54775.875,56.2236,-2235.49,0,0
55036.2,55.8866,-2224.16,0,0
55296.525,55.9521,-2213.09,0,0
55556.85,56.0776,-2202.41,0,0
55817.175,55.7493,-2191.99,0,0
56077.5,55.1983,-2181.13,0,0
56337.825,55.1523,-2170.39,0,0
56598.15,55.1017,-2159.84,0,0
56858.475,55.0122,-2149.52,0,0
57118.8,54.7684,-2139.19,0,0
57379.125,54.7096,-2128.59,0,0
57639.45,54.7832,-2118.62,0,0
57899.775,54.7073,-2108.7,0,0
58160.1,54.6536,-2098.7,0,0
58420.4,54.6343,-2089.1,0,0
58680.7,54.416,-2079.19,0,0
58941.1,54.4122,-2069.47,0,0
59201.4,54.4457,-2059.85,0,0
59461.7,54.5463,-2050.59,0,0
59722,54.3108,-2041.3,0,0
59982.4,54.3812,-2031.81,0,0
60242.7,54.2327,-2022.64,0,0
60503,54.2485,-2013.32,0,0
60763.3,54.5842,-2004.47,0,0
61023.7,54.1063,-1996.04,0,0
61284,53.6057,-1987.03,0,0
61544.3,53.4213,-1977.88,0,0
61804.6,53.6381,-1968.97,0,0
62065,53.2446,-1960.7,0,0
62325.3,52.8705,-1951.64,0,0
62585.6,52.6103,-1942.89,0,0
62845.9,52.5246,-1934.02,0,0
63106.3,52.8154,-1925.44,0,0
63366.6,52.5891,-1916.92,0,0
63626.9,52.6912,-1908.33,0,0
63887.2,52.8643,-1899.9,0,0
64147.6,52.8151,-1891.47,0,0
64407.9,53.0445,-1883.33,0,0
64668.2,53.1132,-1874.97,0,0
64928.5,53.5399,-1866.58,0,0
65188.9,54.0289,-1858.65,0,0
65449.2,54.9035,-1851.02,0,0
65709.5,55.3682,-1843.88,0,0
65969.8,55.2984,-1837.06,0,0
66230.2,55.0849,-1829.86,0,0
66490.5,54.8994,-1822.23,0,0
66750.8,55.0751,-1814.98,0,0
67011.1,54.8546,-1808.19,0,0
67271.5,53.7513,-1800.43,0,0
67531.8,54.2765,-1792.63,0,0
67792.1,54.4369,-1785.74,0,0
68052.4,54.3588,-1779.16,0,0
68312.8,53.5895,-1771.82,0,0
68573.1,53.474,-1764.58,0,0
68833.4,53.642,-1757.63,0,0
69093.7,53.408,-1750.93,0,0
69354.1,53.2488,-1743.87,0,0
69614.4,52.9595,-1737.43,0,0
69874.7,52.2948,-1730.68,0,0
70135,51.8231,-1723.53,0,0
70395.4,51.3287,-1716.81,0,0
70655.7,50.96,-1709.79,0,0
70916,50.7445,-1702.72,0,0
71176.3,50.6669,-1695.98,0,0
71436.7,50.5959,-1689.29,0,0
71697,49.9974,-1682.94,0,0
71957.3,49.4417,-1676.1,0,0
72217.6,49.0164,-1669.14,0,0
72478,48.8669,-1662.24,0,0
72738.3,48.6031,-1655.38,0,0
72998.6,48.5664,-1648.64,0,0
73258.9,48.5207,-1641.99,0,0
73519.3,48.4913,-1635.28,0,0
73779.6,48.3255,-1628.75,0,0
74039.9,48.3262,-1622.07,0,0
74300.225,48.4463,-1615.6,0,0
74560.55,48.3518,-1609.12,0,0
74820.875,48.5191,-1602.74,0,0
75081.2,48.7265,-1596.48,0,0
75341.525,48.644,-1590.25,0,0
75601.85,48.6319,-1583.83,0,0
75862.175,48.8163,-1577.43,0,0
76122.5,49.1219,-1571.17,0,0
76382.825,49.5267,-1565.27,0,0
76643.15,49.7052,-1559.34,0,0
76903.475,49.7669,-1553.39,0,0
77163.8,50.0087,-1547.31,0,0
77424.125,50.2395,-1541.71,0,0
77684.45,50.2255,-1535.88,0,0
77944.775,50.5175,-1529.82,0,0
78205.1,50.9055,-1524,0,0
78465.425,51.5735,-1518.38,0,0
78725.75,52.0074,-1513.25,0,0
78986.075,52.0464,-1508.07,0,0
79246.4,52.0505,-1502.87,0,0
79506.725,52.0912,-1497.56,0,0
79767.05,51.836,-1492.48,0,0
80027.375,51.5838,-1487.01,0,0
80287.7,51.3011,-1481.72,0,0
80548.025,50.9155,-1476.04,0,0
80808.35,50.9589,-1470.47,0,0
81068.675,50.7588,-1464.85,0,0
81329.0,50.933,-1459.27,0,0
81589.325,51.0888,-1453.78,0,0
81849.65,51.1636,-1448.41,0,0
82109.975,51.2538,-1443.14,0,0
82370.3,51.2819,-1437.81,0,0
82630.625,51.3376,-1432.4,0,0
82890.95,51.3256,-1426.87,0,0
83151.275,51.5603,-1421.44,0,0
83411.6,51.8775,-1416.15,0,0
83671.925,52.2443,-1410.89,0,0
83932.25,52.6586,-1405.56,0,0
84192.575,53.1084,-1400.55,0,0
84452.9,53.4228,-1395.52,0,0
84713.225,53.861,-1390.38,0,0
84973.55,54.4061,-1385.46,0,0
85233.875,54.8373,-1380.7,0,0
85494.2,55.1675,-1376.1,0,0
85754.525,55.3904,-1371.44,0,0
86014.85,55.5184,-1366.71,0,0
86275.175,55.8295,-1361.85,0,0
86535.5,56.1111,-1357.27,0,0
86795.825,56.2336,-1352.66,0,0
87056.15,56.527,-1347.83,0,0
87316.475,56.9638,-1343.23,0,0
87576.8,57.0722,-1339.12,0,0
87837.125,56.7563,-1334.36,0,0
88097.45,56.7087,-1329.63,0,0
88357.775,56.7315,-1324.76,0,0
88618.1,57.0187,-1319.6,0,0
88878.425,57.3223,-1315.04,0,0
89138.75,57.4786,-1310.27,0,0
89399.075,57.6763,-1304.94,0,0
89659.4,58.4396,-1299.77,0,0
89919.725,59.1747,-1294.95,0,0
90180,60.2343,-1290.11,0,0
90440.4,61.266,-1285.88,0,0
90700.7,61.7703,-1281.54,0,0
90961,62.543,-1276.52,0,0
91221.3,63.9545,-1271.82,0,0
91481.7,65.3667,-1267.62,0,0
91742,66.8383,-1263.65,0,0
92002.3,68.2641,-1260.05,0,0
92262.6,69.3839,-1256.39,0,0
92523,70.639,-1252.4,0,0
92783.3,72.3124,-1249.03,0,0
93043.6,73.8435,-1245.98,0,0
93303.9,75.399,-1243.24,0,0
93564.3,77.1472,-1240.65,0,0
93824.6,79.1128,-1239.65,0,0
94084.9,79.0647,-1239.82,0,0
94345.2,76.8251,-1239.14,0,0
94605.6,74.1995,-1235.9,0,0
94865.9,73.2846,-1232.47,0,0
95126.2,71.6258,-1229.58,0,0
95386.5,70.2049,-1225.76,0,0
95646.9,68.7767,-1221.88,0,0
95907.2,67.649,-1217.53,0,0
96167.5,66.9827,-1213,0,0
96427.8,67.0139,-1208.88,0,0
96688.2,66.5257,-1205.36,0,0
96948.5,65.6277,-1201.48,0,0
97208.8,64.8644,-1197.07,0,0
97469.1,64.5351,-1192.55,0,0
97729.5,64.6158,-1188.23,0,0
97989.8,64.7229,-1184.23,0,0
98250.1,64.7387,-1180.46,0,0
98510.4,64.4772,-1176.71,0,0
98770.8,64.052,-1172.78,0,0
99031.1,63.8005,-1168.72,0,0
99291.4,63.6609,-1164.58,0,0
99551.7,63.5201,-1160.48,0,0
99812.1,63.4969,-1156.19,0,0
100072,63.8614,-1152.04,0,0
100333,64.005,-1148.32,0,0
100593,63.9941,-1144.52,0,0
100853,63.9758,-1140.6,0,0
101114,63.9929,-1136.64,0,0
101374,63.9841,-1132.85,0,0
101634,63.6845,-1129.01,0,0
101895,63.1945,-1124.7,0,0
102155,63.0394,-1119.9,0,0
102415,63.436,-1114.97,0,0
102676,64.3558,-1110.24,0,0
102936,65.3248,-1106.03,0,0
103196,66.2576,-1101.75,0,0
103457,67.2351,-1097.74,0,0
103717,68.1733,-1093.72,0,0
103977,69.3179,-1089.34,0,0
104238,71.0613,-1085.29,0,0
104498,72.7291,-1082.04,0,0
104758,73.9142,-1079.04,0,0
105019,74.9682,-1075.66,0,0
105279,75.9703,-1072.2,0,0
105539,77.2803,-1068.78,0,0
105800,78.7084,-1065.53,0,0
106060,80.251,-1062.5,0,0
106320.175,81.5247,-1059.65,0,0
106580.5,82.829,-1056.73,0,0
106840.825,84.338,-1053.95,0,0
107101.15,85.868,-1051.44,0,0
107361.475,87.3067,-1049.29,0,0
107621.8,88.2925,-1047.29,0,0
107882.125,89.014,-1044.99,0,0
108142.45,89.9746,-1042.58,0,0
108402.775,91.0282,-1040.42,0,0
108663.1,92.0172,-1038.3,0,0
108923.425,92.9643,-1036.42,0,0
109183.75,93.7336,-1034.87,0,0
109444.075,93.9927,-1033.13,0,0
109704.4,94.2789,-1031.42,0,0
109964.725,94.4193,-1029.67,0,0
110225.05,94.3185,-1027.62,0,0
110485.375,94.1799,-1025.34,0,0
110745.7,94.3332,-1023.13,0,0
111006.025,94.3771,-1020.77,0,0
111266.35,94.59,-1018,0,0
111526.675,95.0442,-1015.54,0,0
111787.0,95.6909,-1013.46,0,0
112047.325,96.0323,-1011.62,0,0
112307.65,96.3696,-1009.65,0,0
112567.975,96.8393,-1007.91,0,0
112828.3,97.1558,-1006.21,0,0
113088.625,97.307,-1004.68,0,0
113348.95,97.1877,-1003.04,0,0
113609.275,97.0029,-1001.48,0,0
113869.6,96.7411,-1000.05,0,0
114129.925,96.131,-998.514,0,0
114390.25,95.285,-996.929,0,0
114650.575,94.5675,-994.948,0,0
114910.9,93.8183,-993.064,0,0
115171.225,93.0501,-991.029,0,0
115431.55,92.1856,-988.965,0,0
115691.875,91.0161,-987.065,0,0
115952.2,89.8032,-984.626,0,0
116212.525,88.6811,-982.022,0,0
116472.85,87.6839,-979.31,0,0
116733.175,86.903,-976.539,0,0
116993.5,85.9839,-973.818,0,0
117253.825,85.0436,-970.91,0,0
117514.15,84.2569,-967.913,0,0
117774.475,83.5963,-964.845,0,0
118034.8,82.9603,-961.68,0,0
118295.125,82.5113,-958.502,0,0
118555.45,82.1524,-955.309,0,0
118815.775,81.9048,-952.157,0,0
119076.1,81.7633,-949.033,0,0
119336.425,81.6921,-945.898,0,0
119596.75,81.7318,-942.74,0,0
119857.075,81.8352,-939.841,0,0
120117.4,82.0626,-937.17,0,0
120377.725,82.1594,-934.463,0,0
120638.05,82.2861,-931.877,0,0
120898.375,82.2396,-929.431,0,0
121158.7,82.0917,-926.921,0,0
121419.025,81.8543,-924.403,0,0
121679.35,81.6565,-921.89,0,0
121939.675,81.2038,-919.321,0,0
122200.0,80.8875,-916.506,0,0
122460,80.593,-913.796,0,0
122721,80.1597,-910.982,0,0
122981,79.7891,-908.021,0,0
123241,79.535,-904.998,0,0
123502,79.4749,-901.978,0,0
123762,79.3111,-899.051,0,0
124022,79.1964,-896.057,0,0
124283,79.1274,-892.918,0,0
124543,79.2671,-889.85,0,0
124803,79.4076,-886.926,0,0
125064,79.5114,-884.04,0,0
125324,79.5399,-881.084,0,0
125584,79.7161,-878.034,0,0
125845,79.914,-875.09,0,0
126105,80.151,-872.158,0,0
126365,80.4156,-869.274,0,0
126626,80.6948,-866.355,0,0
126886,80.8587,-863.583,0,0
127146,81.0716,-860.717,0,0
127406,81.3146,-857.675,0,0
127667,81.6516,-854.749,0,0
127927,82.031,-851.723,0,0
128187,82.4298,-848.643,0,0
128448,83.114,-845.635,0,0
128708,83.7513,-842.812,0,0
128968,84.2985,-840.049,0,0
129229,84.823,-837.194,0,0
129489,85.4991,-834.279,0,0
129749,86.2061,-831.392,0,0
130010,87.0409,-828.438,0,0
130270,88.1023,-825.706,0,0
130530,89.1653,-823.048,0,0
130791,90.302,-820.591,0,0
131051,91.3929,-818.316,0,0
131311,92.3585,-816.114,0,0
131572,93.2434,-814.062,0,0
131832,94.0189,-811.927,0,0
132092,94.7908,-809.826,0,0
132353,95.5812,-807.75,0,0
132613,96.27,-805.657,0,0
132873,96.9203,-803.626,0,0
133134,97.5821,-801.613,0,0
133394,98.2689,-799.612,0,0
133654,98.8112,-797.64,0,0
133915,99.33,-795.64,0,0
134175,99.8975,-793.669,0,0
134435,100.253,-791.723,0,0
134696,100.635,-789.619,0,0
134956,101.017,-787.409,0,0
135216,101.58,-785.049,0,0
135477,102.152,-782.853,0,0
135737,102.764,-780.78,0,0
135997,103.392,-778.526,0,0
136258,104.208,-776.362,0,0
136518,105.102,-774.287,0,0
136778,105.813,-772.334,0,0
137039,106.656,-770.189,0,0
137299,107.66,-768.276,0,0
137559,108.838,-766.583,0,0
137819,110.022,-765.299,0,0
138080,110.75,-764.306,0,0
138340.125,111.173,-763.27,0,0
138600.45,111.294,-762.251,0,0
138860.775,111.114,-760.95,0,0
139121.1,110.89,-759.378,0,0
139381.425,110.865,-757.576,0,0
139641.75,110.891,-755.886,0,0
139902.075,110.802,-754.294,0,0
140162.4,110.631,-752.49,0,0
140422.725,110.374,-750.537,0,0
140683.05,110.233,-748.523,0,0
140943.375,110.153,-746.371,0,0
141203.7,110.099,-744.203,0,0
141464.025,110.156,-741.94,0,0
141724.35,110.279,-739.739,0,0
141984.675,110.382,-737.491,0,0
142245.0,110.702,-735.16,0,0
142505.325,111.112,-733.093,0,0
142765.65,111.339,-731.096,0,0
143025.975,111.56,-728.911,0,0
143286.3,111.844,-726.936,0,0
143546.625,111.856,-724.866,0,0
143806.95,111.951,-722.584,0,0
144067.275,112.122,-720.256,0,0
144327.6,112.469,-717.827,0,0
144587.925,112.939,-715.548,0,0
144848.25,113.383,-713.332,0,0
145108.575,113.806,-711.078,0,0
145368.9,114.23,-708.8,0,0
145629.225,114.765,-706.511,0,0
145889.55,115.411,-704.262,0,0
146149.875,116.047,-702.144,0,0
146410.2,116.639,-700.025,0,0
146670.525,117.281,-697.878,0,0
146930.85,118.193,-695.827,0,0
147191.175,118.929,-694.171,0,0
147451.5,119.276,-692.472,0,0
147711.825,119.652,-690.409,0,0
147972.15,120.276,-688.45,0,0
148232.475,120.855,-686.672,0,0
148492.8,121.362,-684.988,0,0
148753.125,121.593,-683.367,0,0
149013.45,121.696,-681.419,0,0
149273.775,122.014,-679.343,0,0
149534.1,122.379,-677.45,0,0
149794.425,122.704,-675.529,0,0
150054.75,122.989,-673.642,0,0
150315.075,123.276,-671.817,0,0
150575.4,123.361,-670.075,0,0
150835.725,123.212,-668.209,0,0
151096.05,122.952,-666.152,0,0
151356.375,122.619,-663.81,0,0
151616.7,122.487,-661.202,0,0
151877.025,122.481,-658.59,0,0
152137.35,122.555,-655.988,0,0
152397.675,122.526,-653.304,0,0
152658.0,122.513,-650.414,0,0
152918.325,122.626,-647.299,0,0
153178.65,123.1,-644.089,0,0
153438.975,123.694,-641.082,0,0
153699.3,124.165,-638.075,0,0
153959.625,124.668,-634.909,0,0
154219.95,125.285,-631.56,0,0
154480,126.011,-628.04,0,0
154741,127.012,-624.365,0,0
155001,128.526,-620.616,0,0
155261,130.241,-617.253,0,0
155522,131.952,-614.002,0,0
155782,133.83,-610.624,0,0
156042,135.961,-607.454,0,0
156303,138.186,-604.449,0,0
156563,140.445,-601.459,0,0
156823,143.037,-598.523,0,0
157084,145.791,-596.034,0,0
157344,148.513,-593.796,0,0
157604,151.139,-591.81,0,0
157864,153.607,-589.972,0,0
158125,155.911,-588.224,0,0
158385,158.018,-586.456,0,0
158645,159.993,-584.538,0,0
158906,162.007,-582.519,0,0
159166,164.071,-580.195,0,0
159426,166.538,-577.696,0,0
159687,169.27,-575.299,0,0
159947,172.204,-573.127,0,0
160207,175.127,-570.978,0,0
160468,178.49,-568.832,0,0
160728,182.301,-567.033,0,0
160988,186.311,-565.833,0,0
161249,190.108,-565.192,0,0
161509,193.615,-564.804,0,0
161769,196.914,-564.66,0,0
162030,199.919,-564.455,0,0
162290,203.043,-564.374,0,0
162550,205.922,-564.461,0,0
162811,208.622,-564.475,0,0
163071,211.351,-564.418,0,0
163331,214.287,-564.348,0,0
163592,217.431,-564.64,0,0
163852,220.336,-565.458,0,0
164112,222.795,-566.352,0,0
164373,224.916,-567.08,0,0
164633,227.112,-567.448,0,0
164893,229.688,-567.879,0,0
165154,232.427,-568.501,0,0
165414,235.328,-569.491,0,0
165674,238.396,-571.011,0,0
165935,240.991,-573.132,0,0
166195,243.082,-575.512,0,0
166455,244.842,-578.02,0,0
166716,246.173,-580.666,0,0
166976,247.088,-583.366,0,0
167236,247.521,-586.038,0,0
167497,247.529,-588.48,0,0
167757,247.308,-590.69,0,0
168017,246.927,-592.763,0,0
168277,246.311,-594.706,0,0
168538,245.562,-596.326,0,0
168798,244.706,-597.914,0,0
169058,243.618,-599.342,0,0
169319,242.458,-600.605,0,0
169579,241.132,-601.926,0,0
169839,239.281,-602.907,0,0
170100,237.275,-603.236,0,0
170360.075,235.563,-603.192,0,0
170620.4,233.965,-602.901,0,0
170880.725,232.622,-602.365,0,0
171141.05,231.618,-601.694,0,0
171401.375,230.94,-601.307,0,0
171661.7,230.171,-601.117,0,0
171922.025,229.158,-601.122,0,0
172182.35,227.751,-600.986,0,0
172442.675,226.093,-600.379,0,0
172703.0,224.692,-599.377,0,0
172963.325,223.466,-598.07,0,0
173223.65,222.592,-596.704,0,0
173483.975,221.9,-595.409,0,0
173744.3,221.262,-594.131,0,0
174004.625,220.645,-592.663,0,0
174264.95,220.413,-591.129,0,0
174525.275,220.374,-589.771,0,0
174785.6,220.452,-588.476,0,0
175045.925,220.673,-587.325,0,0
175306.25,221.03,-586.382,0,0
175566.575,221.574,-585.815,0,0
175826.9,221.806,-585.692,0,0
176087.225,221.478,-585.676,0,0
176347.55,220.852,-585.235,0,0
176607.875,220.359,-584.535,0,0
176868.2,220.022,-583.983,0,0
177128.525,219.598,-583.566,0,0
177388.85,218.889,-583.045,0,0
177649.175,218.178,-582.304,0,0
177909.5,217.657,-581.413,0,0
178169.825,217.193,-580.691,0,0
178430.15,216.664,-580.058,0,0
178690.475,216.049,-579.307,0,0
178950.8,215.478,-578.638,0,0
179211.125,214.938,-578.087,0,0
179471.45,214.051,-577.607,0,0
179731.775,213.094,-576.966,0,0
179992.1,212.168,-576.261,0,0
180252.425,211.016,-575.854,0,0
180512.75,209.377,-575.177,0,0
180773.075,207.664,-574.048,0,0
181033.4,206.118,-572.582,0,0
181293.725,204.725,-571.153,0,0
181554.05,203.148,-569.528,0,0
181814.375,201.84,-567.695,0,0
182074.7,200.692,-566.001,0,0
182335.025,199.309,-564.527,0,0
182595.35,197.476,-562.834,0,0
182855.675,195.479,-560.555,0,0
183116.0,193.824,-557.799,0,0
183376.325,192.495,-554.867,0,0
183636.65,191.372,-551.842,0,0
183896.975,190.476,-548.746,0,0
184157.3,189.774,-545.658,0,0
184417.625,189.318,-542.543,0,0
184677.95,188.894,-539.51,0,0
184938.275,188.555,-536.426,0,0
185198.6,188.349,-533.348,0,0
185458.925,188.233,-530.258,0,0
185719.25,188.247,-527.169,0,0
185979.575,188.309,-524.071,0,0
186239.9,188.578,-520.973,0,0
186500,188.951,-518.064,0,0
186761,189.213,-515.138,0,0
187021,189.432,-512.236,0,0
187281,189.751,-509.227,0,0
187542,190.166,-506.199,0,0
187802,190.684,-503.272,0,0
188062,191.178,-500.386,0,0
188322,191.556,-497.383,0,0
188583,191.981,-494.293,0,0
188843,192.47,-491.046,0,0
189103,193.115,-487.791,0,0
189364,193.865,-484.467,0,0
189624,194.752,-481.046,0,0
189884,195.817,-477.723,0,0
190145,197.104,-474.432,0,0
190405,198.429,-471.328,0,0
190665,199.681,-468.226,0,0
190926,200.958,-465.139,0,0
191186,202.264,-462.031,0,0
191446,203.631,-458.927,0,0
191707,205.037,-455.768,0,0
191967,206.519,-452.641,0,0
192227,208.114,-449.415,0,0
192488,209.801,-446.444,0,0
192748,211.411,-443.577,0,0
193008,212.803,-440.58,0,0
193269,214.236,-437.201,0,0
193529,215.851,-433.825,0,0
193789,217.72,-430.393,0,0
194050,219.669,-426.997,0,0
194310,221.625,-423.705,0,0
194570,223.505,-420.276,0,0
194831,225.546,-416.746,0,0
195091,227.725,-412.982,0,0
195351,230.211,-409.24,0,0
195612,232.771,-405.587,0,0
195872,235.576,-401.95,0,0
196132,238.433,-398.376,0,0
196393,241.327,-394.779,0,0
196653,244.39,-391.028,0,0
196913,247.751,-387.222,0,0
197174,251.468,-383.522,0,0
197434,255.382,-379.976,0,0
197694,259.46,-376.736,0,0
197955,263.452,-373.63,0,0
198215,267.58,-370.527,0,0
198475,271.723,-367.635,0,0
198735,275.898,-364.943,0,0
198996,279.858,-362.254,0,0
199256,283.807,-359.29,0,0
199516,287.928,-356.182,0,0
199777,292.27,-353.02,0,0
200037,296.572,-349.832,0,0
200297,301.087,-346.573,0,0
200558,305.893,-342.902,0,0
200818,311.22,-339.274,0,0
201078,316.872,-335.583,0,0
201339,323.079,-332.032,0,0
201599,329.859,-328.836,0,0
201859,336.833,-325.864,0,0
202120,344.073,-323.264,0,0
202380.025,351.624,-320.879,0,0
202640.35,359.303,-318.785,0,0
202900.675,367.339,-317.009,0,0
203161.0,375.553,-315.524,0,0
203421.325,384.1,-314.274,0,0
203681.65,392.83,-313.24,0,0
203941.975,402.089,-312.69,0,0
204202.3,411.656,-312.482,0,0
204462.625,421.701,-312.782,0,0
204722.95,432.315,-314.032,0,0
204983.275,443.083,-316.515,0,0
205243.6,453.521,-320.003,0,0
205503.925,463.666,-324.299,0,0
205764.25,473.351,-329.471,0,0
206024.575,482.56,-335.358,0,0
206284.9,490.861,-341.959,0,0
206545.225,498.552,-348.824,0,0
206805.55,505.688,-355.929,0,0
207065.875,512.414,-363.425,0,0
207326.2,518.393,-371.36,0,0
207586.525,523.673,-379.511,0,0
207846.85,528.103,-387.774,0,0
208107.175,531.954,-395.981,0,0
208367.5,535.282,-404.086,0,0
208627.825,538.047,-412.344,0,0
208888.15,540.115,-420.603,0,0
209148.475,541.338,-428.769,0,0
209408.8,541.839,-436.638,0,0
209669.125,541.481,-443.843,0,0
209929.45,540.677,-450.471,0,0
210189.775,539.601,-456.402,0,0
210450.1,538.386,-461.834,0,0
210710.425,537.102,-466.689,0,0
210970.75,535.588,-471.29,0,0
211231.075,533.737,-475.338,0,0
211491.4,531.7,-478.408,0,0
211751.725,529.995,-480.559,0,0
212012.05,528.995,-482.082,0,0
212272.375,528.268,-483.116,0,0
212532.7,528.442,-483.714,0,0
212793.025,529.603,-484.339,0,0
213053.35,531.505,-485.526,0,0
213313.675,533.441,-487.234,0,0
213574.0,535.529,-489.186,0,0
213834.325,537.573,-491.401,0,0
214094.65,539.48,-493.82,0,0
214354.975,541.515,-496.161,0,0
214615.3,543.857,-498.51,0,0
214875.625,546.341,-501.349,0,0
215135.95,548.659,-504.445,0,0
215396.275,550.763,-507.742,0,0
215656.6,552.741,-511.198,0,0
215916.925,554.369,-514.829,0,0
216177.25,555.588,-518.276,0,0
216437.575,556.458,-521.273,0,0
216697.9,557.495,-523.622,0,0
216958.225,559,-525.463,0,0
217218.55,561.425,-527.273,0,0
217478.875,564.366,-529.511,0,0
217739.2,567.467,-532.36,0,0
217999.525,570.581,-535.514,0,0
218259.85,573.558,-539.204,0,0
218520,576.235,-542.747,0,0
218780,578.892,-546.181,0,0
219041,581.806,-549.473,0,0
219301,585.301,-552.952,0,0
219561,589.053,-556.863,0,0
219822,593.17,-561.258,0,0
220082,596.876,-566.162,0,0
220342,600.558,-571.361,0,0
220603,604.412,-576.745,0,0
220863,608.421,-582.607,0,0
221123,612.674,-589.011,0,0
221384,616.624,-596.351,0,0
221644,619.899,-604.294,0,0
221904,622.767,-612.375,0,0
222165,625.415,-620.853,0,0
222425,627.681,-629.642,0,0
222685,629.574,-638.943,0,0
222946,630.725,-648.428,0,0
223206,631.63,-658.042,0,0
223466,632.097,-667.915,0,0
223727,631.837,-678.232,0,0
223987,631.066,-688.722,0,0
224247,629.284,-699.063,0,0
224508,627.29,-709.035,0,0
224768,624.543,-718.901,0,0
225028,621.807,-728.696,0,0
225289,618.619,-738.936,0,0
225549,614.552,-749.198,0,0
225809,609.76,-759.337,0,0
226070,604.39,-768.913,0,0
226330,598.475,-778.435,0,0
226590,591.902,-787.344,0,0
226851,585.171,-796.012,0,0
227111,577.908,-804.31,0,0
227371,570.052,-812.309,0,0
227632,561.735,-819.69,0,0
227892,553,-826.538,0,0
228152,543.961,-832.68,0,0
228413,534.871,-838.182,0,0
228673,525.678,-842.931,0,0
228933,516.561,-847.021,0,0
229193,507.512,-851.053,0,0
229454,498.511,-854.401,0,0
229714,489.354,-857.494,0,0
229974,480.122,-860.193,0,0
230235,470.95,-862.297,0,0
230495,461.741,-863.809,0,0
230755,452.681,-864.745,0,0
231016,443.973,-865.068,0,0
231276,435.53,-865.078,0,0
231536,427.407,-864.548,0,0
231797,419.707,-863.699,0,0
232057,412.554,-862.623,0,0
232317,405.935,-861.365,0,0
232578,399.71,-860.338,0,0
232838,393.685,-859.402,0,0
233098,387.744,-858.463,0,0
233359,381.854,-857.476,0,0
233619,376.186,-856.432,0,0
233879,370.543,-855.197,0,0
234140,365.429,-854.161,0,0
234400,360.236,-853.145,0,0
234660.3,355.023,-852.049,0,0
234920.625,349.979,-850.913,0,0
235180.95,344.964,-849.938,0,0
235441.275,340.218,-848.715,0,0
235701.6,335.228,-847.655,0,0
235961.925,330.223,-846.453,0,0
236222.25,325.373,-845.102,0,0
236482.575,320.637,-843.564,0,0
236742.9,316.106,-841.911,0,0
237003.225,311.821,-840.243,0,0
237263.55,307.661,-838.79,0,0
237523.875,303.409,-837.553,0,0
237784.2,299.197,-836.153,0,0
238044.525,295,-834.7,0,0
238304.85,290.87,-833.289,0,0
238565.175,286.785,-831.938,0,0
238825.5,282.536,-830.552,0,0
239085.825,278.317,-829.17,0,0
239346.15,273.802,-827.403,0,0
239606.475,269.389,-825.573,0,0
239866.8,265.017,-823.693,0,0
240127.125,260.759,-821.618,0,0
240387.45,256.819,-819.004,0,0
240647.775,252.866,-816.693,0,0
240908.1,249.13,-814.079,0,0
241168.425,245.506,-811.474,0,0
241428.75,242.183,-808.982,0,0
241689.075,238.885,-806.424,0,0
241949.4,235.737,-803.839,0,0
242209.725,232.559,-801.156,0,0
242470.05,229.73,-798.509,0,0
242730.375,226.99,-795.921,0,0
242990.7,224.305,-793.391,0,0
243251.025,221.71,-790.866,0,0
243511.35,219.307,-788.369,0,0
243771.675,216.977,-785.927,0,0
244032.0,214.655,-783.686,0,0
244292.325,212.262,-781.511,0,0
244552.65,209.956,-779.28,0,0
244812.975,207.672,-777.101,0,0
245073.3,205.271,-775.008,0,0
245333.625,202.952,-772.79,0,0
245593.95,200.526,-770.651,0,0
245854.275,198.22,-768.378,0,0
246114.6,195.93,-766.118,0,0
246374.925,193.461,-763.911,0,0
246635.25,191.177,-761.43,0,0
246895.575,188.927,-759.04,0,0
247155.9,186.822,-756.502,0,0
247416.225,184.756,-753.969,0,0
247676.55,182.736,-751.455,0,0
247936.875,180.863,-748.922,0,0
248197.2,178.997,-746.353,0,0
248457.525,177.346,-743.813,0,0
248717.85,175.637,-741.336,0,0
248978.175,174.07,-738.981,0,0
249238.5,172.315,-736.487,0,0
249498.825,170.819,-733.965,0,0
249759.15,169.248,-731.5,0,0
250019.475,167.796,-729.088,0,0
250279.8,166.369,-726.727,0,0
250540,164.986,-724.295,0,0
250800,163.557,-721.91,0,0
251061,162.231,-719.542,0,0
251321,160.89,-717.067,0,0
251581,159.655,-714.595,0,0
251842,158.309,-712.307,0,0
252102,157.055,-709.934,0,0
252362,155.809,-707.46,0,0
252623,154.56,-704.97,0,0
252883,153.45,-702.453,0,0
253143,152.356,-699.911,0,0
253404,151.247,-697.4,0,0
253664,150.247,-694.856,0,0
253924,149.29,-692.262,0,0
254185,148.431,-689.556,0,0
254445,147.703,-686.905,0,0
254705,146.9,-684.222,0,0
254966,146.518,-681.606,0,0
255226,145.949,-679.092,0,0
255486,145.629,-676.542,0,0
255747,145.231,-674.062,0,0
256007,144.841,-671.672,0,0
256267,144.546,-669.232,0,0
256528,144.223,-666.858,0,0
256788,143.94,-664.439,0,0
257048,143.731,-662.029,0,0
257309,143.566,-659.657,0,0
257569,143.482,-657.217,0,0
257829,143.467,-654.822,0,0
258090,143.571,-652.472,0,0
258350,143.764,-650.129,0,0
258610,143.931,-647.848,0,0
258871,144.181,-645.6,0,0
259131,144.488,-643.423,0,0
259391,144.814,-641.209,0,0
259651,145.236,-638.986,0,0
259912,145.774,-636.85,0,0
260172,146.43,-634.796,0,0
260432,147.095,-632.78,0,0
260693,147.851,-630.844,0,0
260953,148.703,-628.957,0,0
261213,149.621,-627.221,0,0
261474,150.587,-625.604,0,0
261734,151.555,-624.112,0,0
261994,152.528,-622.707,0,0
262255,153.474,-621.379,0,0
262515,154.344,-620.115,0,0
262775,155.267,-618.845,0,0
263036,156.23,-617.593,0,0
263296,157.261,-616.378,0,0
263556,158.387,-615.258,0,0
263817,159.559,-614.213,0,0
264077,160.74,-613.261,0,0
264337,162.074,-612.495,0,0
264598,163.403,-611.876,0,0
264858,164.71,-611.438,0,0
265118,166.043,-610.97,0,0
265379,167.385,-610.83,0,0
265639,168.751,-610.905,0,0
265899,169.993,-611.157,0,0
266160,171.17,-611.659,0,0
266420,172.229,-612.251,0,0
266680.25,173.122,-613.053,0,0
266940.575,173.865,-614.007,0,0
267200.9,174.426,-615.181,0,0
267461.225,174.735,-616.538,0,0
267721.55,174.7,-617.989,0,0
267981.875,174.365,-619.52,0,0
268242.2,173.642,-620.978,0,0
268502.525,172.563,-622.412,0,0
268762.85,171.162,-623.598,0,0
269023.175,169.499,-624.694,0,0
269283.5,167.634,-625.325,0,0
269543.825,165.482,-625.741,0,0
269804.15,163.393,-625.843,0,0
270064.475,161.213,-625.67,0,0
270324.8,159.075,-625.146,0,0
270585.125,157.08,-624.377,0,0
270845.45,155.102,-623.458,0,0
271105.775,153.333,-622.334,0,0
271366.1,151.611,-621.13,0,0
271626.425,149.985,-619.719,0,0
271886.75,148.516,-618.206,0,0
272147.075,147.168,-616.519,0,0
272407.4,146.026,-614.823,0,0
272667.725,145.062,-613.097,0,0
272928.05,144.247,-611.332,0,0
273188.375,143.525,-609.617,0,0
273448.7,142.936,-607.865,0,0
273709.025,142.5,-606.184,0,0
273969.35,142.056,-604.578,0,0
274229.675,141.753,-602.909,0,0
274490.0,141.453,-601.32,0,0
274750.325,141.292,-599.751,0,0
275010.65,141.201,-598.192,0,0
275270.975,141.179,-596.609,0,0
275531.3,141.26,-595.214,0,0
275791.625,141.374,-593.86,0,0
276051.95,141.403,-592.577,0,0
276312.275,141.503,-591.32,0,0
276572.6,141.639,-590.005,0,0
276832.925,141.852,-588.712,0,0
277093.25,142.125,-587.451,0,0
277353.575,142.503,-586.271,0,0
277613.9,142.962,-585.195,0,0
277874.225,143.416,-584.202,0,0
278134.55,143.885,-583.345,0,0
278394.875,144.362,-582.458,0,0
278655.2,144.876,-581.716,0,0
278915.525,145.396,-581.024,0,0
279175.85,145.984,-580.524,0,0
279436.175,146.493,-580.132,0,0
279696.5,146.931,-579.859,0,0
279956.825,147.331,-579.717,0,0
280217.15,147.5,-579.639,0,0
280477.475,147.585,-579.6,0,0
280737.8,147.547,-579.529,0,0
280998.125,147.429,-579.429,0,0
281258.45,147.264,-579.265,0,0
281518.775,146.993,-579.161,0,0
281779.1,146.67,-579.008,0,0
282039.425,146.336,-578.782,0,0
282299.75,145.975,-578.55,0,0
282560,145.58,-578.357,0,0
282820,145.077,-578.146,0,0
283081,144.509,-577.892,0,0
283341,143.867,-577.559,0,0
283601,143.167,-577.104,0,0
283862,142.53,-576.652,0,0
284122,141.923,-576.055,0,0
284382,141.333,-575.525,0,0
284643,140.746,-575.034,0,0
284903,140.039,-574.578,0,0
285163,139.199,-574.024,0,0
285424,138.357,-573.342,0,0
285684,137.523,-572.59,0,0
285944,136.703,-571.701,0,0
286205,135.864,-570.85,0,0
286465,135.024,-569.877,0,0
286725,134.149,-568.827,0,0
286986,133.258,-567.651,0,0
287246,132.446,-566.327,0,0
287506,131.687,-564.867,0,0
287767,131.024,-563.29,0,0
288027,130.526,-561.59,0,0
288287,130.203,-559.869,0,0
288548,130.001,-558.079,0,0
288808,130.008,-556.214,0,0
289068,130.246,-554.393,0,0
289329,130.733,-552.718,0,0
289589,131.416,-551.198,0,0
289849,132.214,-549.926,0,0
290109,132.977,-548.908,0,0
290370,133.748,-548.126,0,0
290630,134.36,-547.419,0,0
290890,134.839,-546.926,0,0
291151,135.176,-546.449,0,0
291411,135.329,-545.988,0,0
291671,135.392,-545.424,0,0
291932,135.414,-544.798,0,0
292192,135.378,-544.199,0,0
292452,135.294,-543.482,0,0
292713,135.185,-542.73,0,0
292973,135.128,-541.855,0,0
293233,135.041,-540.994,0,0
293494,134.925,-540.065,0,0
293754,134.822,-539.131,0,0
294014,134.701,-538.043,0,0
294275,134.705,-536.914,0,0
294535,134.713,-535.71,0,0
294795,134.766,-534.426,0,0
295056,134.999,-533.116,0,0
295316,135.238,-531.725,0,0
295576,135.59,-530.303,0,0
295837,136.134,-528.832,0,0
296097,136.83,-527.429,0,0
296357,137.68,-526.118,0,0
296618,138.651,-524.906,0,0
296878,139.669,-523.849,0,0
297138,140.703,-522.935,0,0
297399,141.703,-522.051,0,0
297659,142.709,-521.25,0,0
297919,143.728,-520.469,0,0
298180,144.797,-519.712,0,0
298440,145.886,-519.066,0,0
298700.2,147.023,-518.416,0,0
298960.525,148.153,-517.913,0,0
299220.85,149.259,-517.473,0,0
299481.175,150.416,-517.09,0,0
299741.5,151.492,-516.746,0,0
300001.825,152.694,-516.522,0,0
300262.15,153.791,-516.25,0,0
300522.475,154.888,-516.086,0,0
300782.8,156.058,-515.891,0,0
301043.125,157.049,-515.775,0,0
301303.45,158.204,-515.725,0,0
301563.775,159.395,-515.631,0,0
301824.1,160.548,-515.713,0,0
302084.425,161.721,-515.77,0,0
302344.75,163.019,-515.921,0,0
302605.075,164.21,-516.269,0,0
302865.4,165.423,-516.721,0,0
303125.725,166.489,-517.199,0,0
303386.05,167.57,-517.64,0,0
303646.375,168.643,-518.231,0,0
303906.7,169.65,-518.872,0,0
304167.025,170.718,-519.65,0,0
304427.35,171.648,-520.475,0,0
304687.675,172.497,-521.444,0,0
304948.0,173.167,-522.406,0,0
305208.325,173.792,-523.352,0,0
305468.65,174.312,-524.375,0,0
305728.975,174.829,-525.274,0,0
305989.3,175.294,-526.147,0,0
306249.625,175.877,-527.125,0,0
306509.95,176.26,-528.184,0,0
306770.275,176.894,-529.277,0,0
307030.6,177.289,-530.382,0,0
307290.925,177.636,-531.64,0,0
307551.25,177.844,-532.82,0,0
307811.575,178.087,-534.155,0,0
308071.9,178.308,-535.476,0,0
308332.225,178.27,-536.918,0,0
308592.55,178.257,-538.312,0,0
308852.875,178.001,-539.72,0,0
309113.2,177.68,-541.08,0,0
309373.525,177.355,-542.347,0,0
309633.85,176.873,-543.679,0,0
309894.175,176.394,-544.996,0,0
310154.5,175.921,-546.258,0,0
310414.825,175.22,-547.442,0,0
310675.15,174.642,-548.664,0,0
310935.475,173.906,-549.824,0,0
311195.8,173.034,-551.032,0,0
311456.125,172.359,-552.114,0,0
311716.45,171.439,-553.352,0,0
311976.775,170.569,-554.557,0,0
312237.1,169.59,-555.82,0,0
312497.425,168.422,-556.885,0,0
312757.75,167.202,-557.996,0,0
313018.075,165.838,-559.017,0,0
313278.4,164.439,-559.91,0,0
313538.725,163.079,-560.75,0,0
313799.05,161.584,-561.513,0,0
314059.375,160.078,-562.181,0,0
314319.7,158.581,-562.867,0,0
314580,157.12,-563.367,0,0
314840,155.63,-563.895,0,0
315101,154.004,-564.379,0,0
315361,152.545,-564.76,0,0
315621,150.921,-565.118,0,0
315882,149.387,-565.454,0,0
316142,147.777,-565.638,0,0
316402,146.096,-565.859,0,0
316663,144.427,-566.051,0,0
316923,142.772,-566.122,0,0
317183,141.006,-566.153,0,0
317444,139.337,-565.962,0,0
317704,137.583,-565.776,0,0
317964,135.891,-565.436,0,0
318225,134.327,-565.092,0,0
318485,132.721,-564.763,0,0
318745,131.293,-564.274,0,0
319006,129.821,-563.883,0,0
319266,128.397,-563.377,0,0
319526,126.87,-562.975,0,0
319787,125.466,-562.463,0,0
320047,124.032,-561.879,0,0
320307,122.538,-561.24,0,0
320567,121.126,-560.653,0,0
320828,119.663,-559.897,0,0
321088,118.23,-559.145,0,0
321348,116.87,-558.277,0,0
321609,115.515,-557.449,0,0
321869,114.242,-556.489,0,0
322129,112.982,-555.618,0,0
322390,111.799,-554.588,0,0
322650,110.638,-553.486,0,0
322910,109.568,-552.353,0,0
323171,108.495,-551.189,0,0
323431,107.64,-550.046,0,0
323691,106.684,-548.857,0,0
323952,105.842,-547.651,0,0
324212,105.121,-546.442,0,0
324472,104.515,-545.255,0,0
324733,104.026,-544.084,0,0
324993,103.587,-542.912,0,0
325253,103.162,-541.867,0,0
325514,102.787,-540.834,0,0
325774,102.437,-539.899,0,0
326034,102.086,-538.974,0,0
326295,101.847,-538.169,0,0
326555,101.548,-537.302,0,0
326815,101.321,-536.437,0,0
327076,101.028,-535.65,0,0
327336,100.761,-534.991,0,0
327596,100.546,-534.205,0,0
327857,100.318,-533.541,0,0
328117,100.148,-532.957,0,0
328377,99.887,-532.332,0,0
328638,99.6895,-531.778,0,0
328898,99.4776,-531.283,0,0
329158,99.2807,-530.798,0,0
329419,99.0358,-530.353,0,0
329679,98.7287,-529.987,0,0
329939,98.397,-529.562,0,0
330200,98.1209,-529.231,0,0
330460,97.7806,-528.936,0,0
330720.15,97.4544,-528.556,0,0
330980.475,96.9682,-528.309,0,0
331240.8,96.5265,-528.035,0,0
331501.125,96.1167,-527.707,0,0
331761.45,95.5864,-527.457,0,0
332021.775,94.9933,-527.174,0,0
332282.1,94.4226,-526.849,0,0
332542.425,93.8378,-526.53,0,0
332802.75,93.1709,-526.204,0,0
333063.075,92.5007,-525.888,0,0
333323.4,91.8031,-525.496,0,0
333583.725,91.1466,-525.102,0,0
333844.05,90.4164,-524.636,0,0
334104.375,89.6866,-524.237,0,0
334364.7,88.9752,-523.8,0,0
334625.025,88.2016,-523.303,0,0
334885.35,87.4729,-522.791,0,0
335145.675,86.7115,-522.208,0,0
335406.0,85.9739,-521.703,0,0
335666.325,85.1843,-521.123,0,0
335926.65,84.4209,-520.511,0,0
336186.975,83.7137,-519.86,0,0
336447.3,82.9269,-519.212,0,0
336707.625,82.2166,-518.504,0,0
336967.95,81.5362,-517.816,0,0
337228.275,80.8513,-517.123,0,0
337488.6,80.1339,-516.415,0,0
337748.925,79.5054,-515.704,0,0
338009.25,78.7697,-514.988,0,0
338269.575,78.0382,-514.161,0,0
338529.9,77.433,-513.476,0,0
338790.225,76.7711,-512.675,0,0
339050.55,76.1379,-511.875,0,0
339310.875,75.4887,-510.971,0,0
339571.2,74.8671,-510.136,0,0
339831.525,74.2752,-509.284,0,0
340091.85,73.7303,-508.405,0,0
340352.175,73.1552,-507.533,0,0
340612.5,72.6817,-506.644,0,0
340872.825,72.1975,-505.734,0,0
341133.15,71.728,-504.892,0,0
341393.475,71.295,-504.042,0,0
341653.8,70.8203,-503.155,0,0
341914.125,70.45,-502.352,0,0
342174.45,70.0271,-501.549,0,0
342434.775,69.6057,-500.748,0,0
342695.1,69.196,-499.86,0,0
342955.425,68.7787,-499.107,0,0
343215.75,68.3384,-498.285,0,0
343476.075,67.9672,-497.474,0,0
343736.4,67.459,-496.691,0,0
343996.725,67.1185,-495.806,0,0
344257.05,66.6653,-495.036,0,0
344517.375,66.2546,-494.187,0,0
344777.7,65.8342,-493.422,0,0
345038.025,65.432,-492.463,0,0
345298.35,65.0198,-491.679,0,0
345558.675,64.6004,-490.801,0,0
345819.0,64.2418,-489.884,0,0
346079.325,63.7596,-488.999,0,0
346339.65,63.365,-488.156,0,0
346599.975,63.0499,-487.218,0,0
346860,62.7188,-486.306,0,0
347121,62.3793,-485.407,0,0
347381,62.0502,-484.474,0,0
347641,61.7457,-483.576,0,0
347902,61.4654,-482.654,0,0
348162,61.2219,-481.78,0,0
348422,60.9042,-480.873,0,0
348683,60.672,-479.873,0,0
348943,60.3532,-478.998,0,0
349203,60.1774,-478.061,0,0
349464,59.9477,-477.071,0,0
349724,59.761,-476.17,0,0
349984,59.5739,-475.191,0,0
350245,59.4241,-474.237,0,0
350505,59.3166,-473.352,0,0
350765,59.2206,-472.411,0,0
351025,59.1232,-471.477,0,0
351286,59.0167,-470.684,0,0
351546,58.9366,-469.843,0,0
351806,58.8832,-468.973,0,0
352067,58.774,-468.159,0,0
352327,58.6311,-467.346,0,0
352587,58.5854,-466.562,0,0
352848,58.4037,-465.71,0,0
353108,58.3565,-464.918,0,0
353368,58.2321,-464.061,0,0
353629,58.1175,-463.294,0,0
353889,58.037,-462.386,0,0
354149,57.9228,-461.578,0,0
354410,57.8145,-460.75,0,0
354670,57.7691,-459.903,0,0
354930,57.692,-459.052,0,0
355191,57.7044,-458.173,0,0
355451,57.6871,-457.334,0,0
355711,57.6385,-456.479,0,0
355972,57.6217,-455.627,0,0
356232,57.6691,-454.829,0,0
356492,57.7306,-454.041,0,0
356753,57.7623,-453.229,0,0
357013,57.8623,-452.45,0,0
357273,57.8578,-451.663,0,0
357534,57.9509,-450.916,0,0
357794,57.9571,-450.218,0,0
358054,58.041,-449.462,0,0
358315,58.0923,-448.735,0,0
358575,58.1209,-448.058,0,0
358835,58.0897,-447.355,0,0
359096,58.1457,-446.621,0,0
359356,58.1746,-445.955,0,0
359616,58.1816,-445.182,0,0
359877,58.1781,-444.471,0,0
360137,58.1837,-443.738,0,0
360397,58.2567,-443.03,0,0
360658,58.2662,-442.272,0,0
360918,58.3554,-441.517,0,0
361178,58.4175,-440.792,0,0
361438,58.5656,-440.09,0,0
361699,58.6612,-439.462,0,0
361959,58.6982,-438.807,0,0
362219,58.7441,-438.166,0,0
362480,58.785,-437.446,0,0
362740.1,58.8374,-436.782,0,0
363000.425,58.889,-436.195,0,0
363260.75,58.9425,-435.524,0,0
363521.075,58.9547,-434.799,0,0
363781.4,59.0365,-434.073,0,0
364041.725,59.0428,-433.452,0,0
364302.05,59.1083,-432.753,0,0
364562.375,59.1235,-432.047,0,0
364822.7,59.1654,-431.311,0,0
365083.025,59.2259,-430.671,0,0
365343.35,59.2954,-429.935,0,0
365603.675,59.3325,-429.22,0,0
365864.0,59.4084,-428.492,0,0
366124.325,59.4673,-427.774,0,0
366384.65,59.5793,-427.009,0,0
366644.975,59.646,-426.312,0,0
366905.3,59.7178,-425.535,0,0
367165.625,59.7922,-424.827,0,0
367425.95,59.8742,-424.083,0,0
367686.275,59.9762,-423.314,0,0
367946.6,60.0676,-422.547,0,0
368206.925,60.1547,-421.655,0,0
368467.25,60.2929,-420.815,0,0
368727.575,60.4728,-419.955,0,0
368987.9,60.6688,-419.033,0,0
369248.225,60.9276,-418.148,0,0
369508.55,61.2215,-417.233,0,0
369768.875,61.6003,-416.278,0,0
370029.2,62.0088,-415.368,0,0
370289.525,62.4923,-414.477,0,0
370549.85,63.0703,-413.667,0,0
370810.175,63.6248,-412.94,0,0
371070.5,64.2321,-412.202,0,0
371330.825,64.821,-411.513,0,0
371591.15,65.4483,-410.893,0,0
371851.475,66.0737,-410.239,0,0
372111.8,66.7476,-409.695,0,0
372372.125,67.4086,-409.215,0,0
372632.45,68.0496,-408.714,0,0
372892.775,68.7077,-408.261,0,0
373153.1,69.3655,-407.878,0,0
373413.425,70.0148,-407.481,0,0
373673.75,70.6649,-407.203,0,0
373934.075,71.3048,-406.868,0,0
374194.4,71.9662,-406.698,0,0
374454.725,72.5434,-406.495,0,0
374715.05,73.1583,-406.367,0,0
374975.375,73.7171,-406.254,0,0
375235.7,74.192,-406.14,0,0
375496.025,74.666,-406.064,0,0
375756.35,75.0866,-405.98,0,0
376016.675,75.5146,-405.9,0,0
376277.0,75.8512,-405.81,0,0
376537.325,76.3064,-405.73,0,0
376797.65,76.6564,-405.617,0,0
377057.975,77.0745,-405.544,0,0
377318.3,77.4562,-405.457,0,0
377578.625,77.8538,-405.371,0,0
377838.95,78.2107,-405.334,0,0
378099.275,78.5955,-405.308,0,0
378359.6,78.9716,-405.334,0,0
378619.925,79.2941,-405.357,0,0
378880,79.6477,-405.364,0,0
379141,79.9617,-405.372,0,0
379401,80.2203,-405.473,0,0
379661,80.481,-405.504,0,0
379922,80.7754,-405.534,0,0
380182,81.0029,-405.623,0,0
380442,81.3087,-405.681,0,0
380703,81.5251,-405.739,0,0
380963,81.8854,-405.782,0,0
381223,82.1678,-405.943,0,0
381483,82.4888,-406.111,0,0
381744,82.7708,-406.312,0,0
382004,83.0538,-406.616,0,0
382264,83.2833,-406.993,0,0
382525,83.4468,-407.351,0,0
382785,83.5324,-407.741,0,0
383045,83.6012,-408.202,0,0
383306,83.5409,-408.665,0,0
383566,83.3998,-409.117,0,0
383826,83.2016,-409.574,0,0
384087,82.9969,-410.035,0,0
384347,82.6649,-410.414,0,0
384607,82.2806,-410.801,0,0
384868,81.804,-411.118,0,0
385128,81.3483,-411.369,0,0
385388,80.7615,-411.64,0,0
385649,80.25,-411.73,0,0
385909,79.6766,-411.8,0,0
386169,79.1395,-411.853,0,0
386430,78.6004,-411.864,0,0
386690,78.0115,-411.826,0,0
386950,77.4628,-411.806,0,0
387211,76.8361,-411.708,0,0
387471,76.2124,-411.582,0,0
387731,75.601,-411.39,0,0
387992,74.9959,-411.112,0,0
388252,74.4392,-410.858,0,0
388512,73.8868,-410.468,0,0
388773,73.3962,-410.071,0,0
389033,72.8917,-409.653,0,0
389293,72.4826,-409.248,0,0
389554,72.1023,-408.83,0,0
389814,71.7822,-408.363,0,0
390074,71.4149,-407.949,0,0
390335,71.2051,-407.531,0,0
390595,70.9227,-407.152,0,0
390855,70.6774,-406.834,0,0
391116,70.4504,-406.487,0,0
391376,70.2363,-406.152,0,0
391636,69.9736,-405.935,0,0
391896,69.701,-405.728,0,0
392157,69.38,-405.47,0,0
392417,69.0261,-405.24,0,0
392677,68.7073,-404.963,0,0
392938,68.2218,-404.756,0,0
393198,67.8637,-404.454,0,0
393458,67.3571,-404.195,0,0
393719,66.9029,-403.908,0,0
393979,66.39,-403.51,0,0
394239,65.8724,-403.163,0,0
394500,65.3204,-402.711,0,0
394760.05,64.8491,-402.227,0,0
395020.375,64.3161,-401.743,0,0
395280.7,63.8718,-401.17,0,0
395541.025,63.4292,-400.644,0,0
395801.35,62.9786,-400.027,0,0
396061.675,62.5357,-399.409,0,0
396322.0,62.1393,-398.813,0,0
396582.325,61.7457,-398.147,0,0
396842.65,61.3802,-397.445,0,0
397102.975,61.0335,-396.743,0,0
397363.3,60.7107,-396.144,0,0
397623.625,60.4041,-395.427,0,0
397883.95,60.1248,-394.742,0,0
398144.275,59.8386,-394.062,0,0
398404.6,59.6169,-393.359,0,0
398664.925,59.3699,-392.597,0,0
398925.25,59.1777,-391.908,0,0
399185.575,58.9382,-391.173,0,0
399445.9,58.7597,-390.488,0,0
399706.225,58.556,-389.746,0,0
399966.55,58.4365,-388.992,0,0
400006.6,58.3662,-388.868,0,0