File: Accelerated corrosion test data/2025-10-01_12-27-23/sample_3.csv
Frequency (Hz),Impedance (ohms),Phase (Radians),Temperature (C),Humidity (%)
10000.0,254.186,-11752.2,0,0
10260.325,247.701,-11455.9,0,0
10520.65,242.088,-11174.6,0,0
10780.975,237.408,-10905.5,0,0
11041.3,231.841,-10654.6,0,0
11301.625,225.993,-10410.1,0,0
11561.95,221.225,-10177.3,0,0
11822.275,216.774,-9954.24,0,0
12082.6,213.978,-9741.14,0,0
12342.925,210.817,-9536.36,0,0
12603.25,204.886,-9343.08,0,0
12863.575,201.281,-9153.81,0,0
13123.9,201.523,-8971.2,0,0
13384.225,194.45,-8802.94,0,0
13644.55,191.206,-8636.28,0,0
13904.875,187.487,-8473.36,0,0
14165.2,186.757,-8317.26,0,0
14425.525,182.336,-8169.43,0,0
14685.8,181.24,-8024.2,0,0
14946.175,178.57,-7885.64,0,0
15206.5,174.771,-7746.55,0,0
15466.825,177.647,-7608.89,0,0
15727.15,198.723,-7498.99,0,0
15987.5,177.067,-7394.24,0,0
16247.8,169.483,-7264.79,0,0
16508.125,163.969,-7153.63,0,0
16768.45,164.329,-7032.79,0,0
17028.775,159.738,-6935.07,0,0
17289.1,161.214,-6821.47,0,0
17549.425,158.348,-6730.22,0,0
17809.75,158.481,-6624.91,0,0
18070.075,164.635,-6535.4,0,0
18330.4,152.221,-6446.95,0,0
18590.725,150.072,-6354.27,0,0
18851.05,146.329,-6264.57,0,0
19111.375,147.303,-6174.96,0,0
19371.7,146.889,-6093.3,0,0
19632.025,147.955,-6010.93,0,0
19892.35,147.872,-5928.74,0,0
20152.675,150.804,-5855.57,0,0
20413.0,157.472,-5774.57,0,0
20673.3,163.994,-5707.72,0,0
20933.65,164.998,-5657.19,0,0
21193.975,164.994,-5591.77,0,0
21454.3,147.447,-5531.82,0,0
21714.625,139.374,-5457.43,0,0
21974.9,143.868,-5391.18,0,0
22235.275,139.607,-5332.34,0,0
22495.6,138.792,-5270.41,0,0
22755.925,130.545,-5211.02,0,0
23016.25,129.255,-5152.19,0,0
23276.6,129.061,-5090.02,0,0
23536.9,131.562,-5043.78,0,0
23797.225,122.727,-4985.99,0,0
24057.55,120.237,-4928.91,0,0
24317.875,120.053,-4873.78,0,0
24578.2,118.617,-4823.86,0,0
24838.525,118.948,-4770.12,0,0
25098.85,117.601,-4724.66,0,0
25359.175,116.069,-4675.27,0,0
25619.5,114.685,-4627.37,0,0
25879.8,112.216,-4581.23,0,0
26140.1,109.649,-4534.23,0,0
26400.5,108.641,-4486.98,0,0
26660.8,109.142,-4442.32,0,0
26921.1,109.336,-4397.58,0,0
27181.4,108.959,-4357.27,0,0
27441.8,107.834,-4313.36,0,0
27702.1,109.86,-4274.41,0,0
27962.4,106.362,-4235.38,0,0
28222.7,104.41,-4192.52,0,0
28483.1,110.224,-4149.05,0,0
28743.4,113.432,-4115.55,0,0
29003.7,115.186,-4084.22,0,0
29264,108.106,-4051.61,0,0
29524.4,110.692,-4013.56,0,0
29784.7,105.874,-3980.66,0,0
30045,104.523,-3946.9,0,0
30305.3,101.399,-3910.22,0,0
30565.7,103.056,-3876.26,0,0
30826,101.946,-3843.05,0,0
31086.3,103.335,-3810.94,0,0
31346.6,99.6602,-3780.84,0,0
31607,98.1203,-3746.63,0,0
31867.3,98.8721,-3712.98,0,0
32127.6,101.858,-3680.45,0,0
32387.9,108.845,-3651.53,0,0
32648.3,113.558,-3632.64,0,0
32908.6,104.02,-3609.35,0,0
33168.9,102.157,-3581.16,0,0
33429.2,100.274,-3554.19,0,0
33689.6,95.4611,-3527.95,0,0
33949.9,91.9047,-3498.66,0,0
34210.2,91.5311,-3470.68,0,0
34470.5,90.741,-3444.15,0,0
34730.9,89.0028,-3418.01,0,0
34991.2,87.5693,-3391.55,0,0
35251.5,86.7906,-3365.71,0,0
35511.8,85.6532,-3340.37,0,0
35772.2,85.2806,-3315.38,0,0
36032.5,84.0194,-3290.64,0,0
36292.8,83.6153,-3266.32,0,0
36553.1,83.2274,-3242.43,0,0
36813.5,82.6893,-3219.2,0,0
37073.8,82.0224,-3196.26,0,0
37334.1,80.9726,-3173.23,0,0
37594.4,80.7485,-3150.78,0,0
37854.8,80.2444,-3128.75,0,0
38115.1,79.7025,-3106.81,0,0
38375.4,79.203,-3085.02,0,0
38635.7,78.7666,-3063.88,0,0
38896.1,78.3834,-3042.75,0,0
39156.4,78.0954,-3021.72,0,0
39416.7,77.9259,-3001.6,0,0
39677,77.3228,-2981.5,0,0
39937.4,76.8259,-2961.61,0,0
40197.7,76.3061,-2941.57,0,0
40458,75.9164,-2922.18,0,0
40718.3,75.5244,-2902.99,0,0
40978.7,75.2827,-2883.77,0,0
41239,75.0692,-2864.89,0,0
41499.3,74.9751,-2846.58,0,0
41759.6,75.0923,-2828.21,0,0
42020,74.5518,-2810.38,0,0
42280.275,74.547,-2792.69,0,0
42540.6,74.0115,-2775.6,0,0
42800.925,73.8166,-2758.18,0,0
43061.25,73.3299,-2741.21,0,0
43321.575,72.7755,-2724.25,0,0
43581.9,72.4605,-2706.98,0,0
43842.225,72.6273,-2690.12,0,0
44102.55,72.6156,-2673.89,0,0
44362.875,72.6457,-2657.95,0,0
44623.2,72.2213,-2642.32,0,0
44883.525,71.5689,-2626.54,0,0
45143.85,71.3253,-2610.84,0,0
45404.175,71.1496,-2595.33,0,0
45664.5,70.8109,-2579.44,0,0
45924.825,71.5593,-2564.38,0,0
46185.15,71.2759,-2550.21,0,0
46445.475,70.5797,-2535.08,0,0
46705.8,70.5992,-2520.38,0,0
46966.125,70.6877,-2505.61,0,0
47226.45,69.7486,-2491.8,0,0
47486.775,70.4356,-2477.04,0,0
47747.1,70.6877,-2462.91,0,0
48007.425,71.5187,-2449.97,0,0
48267.75,71.422,-2437.07,0,0
48528.075,70.1115,-2423.97,0,0
48788.4,70.1752,-2410.5,0,0
49048.725,69.3515,-2397.83,0,0
49309.05,68.6508,-2384.32,0,0
49569.375,68.5587,-2370.88,0,0
49829.7,68.4302,-2358.19,0,0
50090.025,67.9151,-2345.5,0,0
50350.35,67.4477,-2332.66,0,0
50610.675,67.0544,-2319.74,0,0
50871.0,67.1851,-2307.18,0,0
51131.325,67.0908,-2294.82,0,0
51391.65,66.9089,-2282.36,0,0
51651.975,66.9342,-2270.24,0,0
51912.3,66.9093,-2258.41,0,0
52172.625,66.8212,-2246.39,0,0
52432.95,66.7196,-2234.21,0,0
52693.275,67.0169,-2222.38,0,0
52953.6,67.1426,-2210.65,0,0
53213.925,68.0254,-2199.06,0,0
53474.25,68.7895,-2188.35,0,0
53734.575,68.9531,-2177.62,0,0
53994.9,69.1562,-2166.82,0,0
54255.225,70.0276,-2156.08,0,0
54515.55,70.8005,-2146.57,0,0
54775.875,70.5351,-2137.91,0,0
55036.2,69.2805,-2128.01,0,0
55296.525,68.7652,-2118.27,0,0
55556.85,67.6188,-2108.94,0,0
55817.175,65.839,-2098.27,0,0
56077.5,65.0172,-2087.76,0,0
56337.825,64.1214,-2077.11,0,0
56598.15,63.3077,-2066.73,0,0
56858.475,62.502,-2056.16,0,0
57118.8,61.9709,-2045.32,0,0
57379.125,61.94,-2034.67,0,0
57639.45,61.7847,-2024.33,0,0
57899.775,61.8691,-2014.16,0,0
58160.1,61.7975,-2004.14,0,0
58420.4,61.7969,-1994.23,0,0
58680.7,61.9082,-1984.28,0,0
58941.1,62.0978,-1974.56,0,0
59201.4,62.1501,-1964.83,0,0
59461.7,62.4027,-1955.23,0,0
59722,62.6899,-1945.81,0,0
59982.4,62.9021,-1936.39,0,0
60242.7,63.1451,-1927.43,0,0
60503,63.3104,-1917.92,0,0
60763.3,63.7956,-1908.53,0,0
61023.7,64.1844,-1899.48,0,0
61284,64.6264,-1890.47,0,0
61544.3,65.2837,-1881.39,0,0
61804.6,65.7317,-1873.09,0,0
62065,65.9765,-1864.09,0,0
62325.3,66.4523,-1855.48,0,0
62585.6,67.0249,-1846.69,0,0
62845.9,67.6433,-1837.85,0,0
63106.3,68.6751,-1829.07,0,0
63366.6,69.5812,-1820.9,0,0
63626.9,70.5025,-1811.98,0,0
63887.2,72.1034,-1803.41,0,0
64147.6,73.8222,-1795.12,0,0
64407.9,75.7367,-1787.25,0,0
64668.2,77.9666,-1779.34,0,0
64928.5,80.7323,-1771.88,0,0
65188.9,84.6421,-1765.43,0,0
65449.2,87.6864,-1760.99,0,0
65709.5,89.3155,-1756.87,0,0
65969.8,92.3397,-1753.48,0,0
66230.2,91.8948,-1753.18,0,0
66490.5,87.5814,-1751.32,0,0
66750.8,82.3475,-1745.92,0,0
67011.1,78.1585,-1736.76,0,0
67271.5,77.2537,-1728.66,0,0
67531.8,75.4597,-1721.27,0,0
67792.1,75.1174,-1712.41,0,0
68052.4,75.4365,-1704.66,0,0
68312.8,76.4751,-1697.55,0,0
68573.1,76.9581,-1691.49,0,0
68833.4,76.8397,-1685.34,0,0
69093.7,77.0171,-1678.74,0,0
69354.1,77.0821,-1673.2,0,0
69614.4,76.9389,-1667.77,0,0
69874.7,76.233,-1662.19,0,0
70135,75.3296,-1656.6,0,0
70395.4,74.1631,-1650.62,0,0
70655.7,73.3346,-1644.66,0,0
70916,72.0061,-1638.41,0,0
71176.3,70.8643,-1631.8,0,0
71436.7,70.2009,-1625.18,0,0
71697,69.443,-1618.43,0,0
71957.3,69.3281,-1611.55,0,0
72217.6,69.4194,-1605.21,0,0
72478,69.3744,-1599.16,0,0
72738.3,69.387,-1593.16,0,0
72998.6,69.2324,-1587.74,0,0
73258.9,68.7514,-1582.2,0,0
73519.3,68.2081,-1576.41,0,0
73779.6,67.8466,-1570.72,0,0
74039.9,67.2115,-1565.19,0,0
74300.225,66.5305,-1559.61,0,0
74560.55,65.7165,-1553.93,0,0
74820.875,65.0399,-1548.14,0,0
75081.2,64.2951,-1542.41,0,0
75341.525,63.5366,-1536.61,0,0
75601.85,62.8141,-1530.8,0,0
75862.175,62.1095,-1524.93,0,0
76122.5,61.3944,-1519.09,0,0
76382.825,60.7637,-1513.18,0,0
76643.15,60.236,-1507.24,0,0
76903.475,59.7614,-1501.47,0,0
77163.8,59.367,-1495.53,0,0
77424.125,59.0016,-1489.89,0,0
77684.45,58.4866,-1484.26,0,0
77944.775,57.936,-1478.59,0,0
78205.1,57.5038,-1472.86,0,0
78465.425,57.0508,-1467.16,0,0
78725.75,56.6874,-1461.52,0,0
78986.075,56.2834,-1455.9,0,0
79246.4,55.9498,-1450.16,0,0
79506.725,55.6313,-1444.61,0,0
79767.05,55.2835,-1439.05,0,0
80027.375,55.0053,-1433.41,0,0
80287.7,54.8339,-1427.96,0,0
80548.025,54.659,-1422.43,0,0
80808.35,54.4092,-1416.98,0,0
81068.675,54.2116,-1411.61,0,0
81329.0,54.0035,-1406.19,0,0
81589.325,53.8532,-1400.76,0,0
81849.65,53.7512,-1395.42,0,0
82109.975,53.5974,-1390.17,0,0
82370.3,53.433,-1384.89,0,0
82630.625,53.3373,-1379.57,0,0
82890.95,53.2481,-1374.4,0,0
83151.275,53.196,-1369.2,0,0
83411.6,53.1377,-1364.05,0,0
83671.925,53.1473,-1358.95,0,0
83932.25,53.0419,-1353.85,0,0
84192.575,53.0246,-1348.77,0,0
84452.9,52.9835,-1343.78,0,0
84713.225,52.9051,-1338.78,0,0
84973.55,52.8831,-1333.75,0,0
85233.875,52.9141,-1328.72,0,0
85494.2,52.9304,-1323.83,0,0
85754.525,52.9811,-1318.91,0,0
86014.85,53.0758,-1314.01,0,0
86275.175,53.0211,-1309.22,0,0
86535.5,53.1347,-1304.4,0,0
86795.825,53.1363,-1299.5,0,0
87056.15,53.153,-1294.66,0,0
87316.475,53.1379,-1289.91,0,0
87576.8,53.3842,-1285.12,0,0
87837.125,53.5156,-1280.23,0,0
88097.45,53.6036,-1275.55,0,0
88357.775,53.7237,-1270.87,0,0
88618.1,54.0439,-1266.12,0,0
88878.425,54.1907,-1261.28,0,0
89138.75,54.6025,-1256.61,0,0
89399.075,54.9873,-1251.85,0,0
89659.4,55.3648,-1247.22,0,0
89919.725,55.8115,-1242.76,0,0
90180,56.5044,-1238.44,0,0
90440.4,56.9027,-1234.07,0,0
90700.7,57.2485,-1229.89,0,0
90961,57.721,-1225.55,0,0
91221.3,58.1652,-1221.26,0,0
91481.7,59.0313,-1217.04,0,0
91742,59.4987,-1212.93,0,0
92002.3,60.1251,-1208.9,0,0
92262.6,60.7592,-1204.87,0,0
92523,61.5858,-1201,0,0
92783.3,62.3252,-1197.38,0,0
93043.6,62.8811,-1193.74,0,0
93303.9,63.6832,-1190.29,0,0
93564.3,64.4881,-1187.05,0,0
93824.6,64.8106,-1184.02,0,0
94084.9,65.2478,-1181.27,0,0
94345.2,65.26,-1178.34,0,0
94605.6,65.2971,-1175.78,0,0
94865.9,64.9111,-1173.35,0,0
95126.2,63.6643,-1170.97,0,0
95386.5,61.7559,-1167.55,0,0
95646.9,60.3828,-1163.34,0,0
95907.2,59.5839,-1158.84,0,0
96167.5,59.1187,-1154.52,0,0
96427.8,58.7011,-1150.17,0,0
96688.2,58.6785,-1145.89,0,0
96948.5,58.805,-1141.81,0,0
97208.8,58.7219,-1137.91,0,0
97469.1,58.7818,-1134.01,0,0
97729.5,58.8198,-1130.19,0,0
97989.8,58.8699,-1126.38,0,0
98250.1,58.87,-1122.77,0,0
98510.4,58.7917,-1119.04,0,0
98770.8,58.7559,-1115.41,0,0
99031.1,58.6577,-1111.75,0,0
99291.4,58.5131,-1108.16,0,0
99551.7,58.248,-1104.6,0,0
99812.1,57.9411,-1100.8,0,0
100072,57.7035,-1096.98,0,0
100333,57.5302,-1093.16,0,0
100593,57.3261,-1089.35,0,0
100853,57.1379,-1085.38,0,0
101114,56.9794,-1081.37,0,0
101374,56.8926,-1077.28,0,0
101634,57.0132,-1073.05,0,0
101895,57.3176,-1068.96,0,0
102155,57.61,-1064.97,0,0
102415,57.9879,-1060.81,0,0
102676,58.7795,-1056.66,0,0
102936,59.8343,-1052.91,0,0
103196,60.7668,-1049.66,0,0
103457,61.3748,-1046.36,0,0
103717,62.0678,-1043.05,0,0
103977,62.7104,-1039.72,0,0
104238,63.7671,-1036.39,0,0
104498,64.8548,-1033.67,0,0
104758,65.7276,-1031.49,0,0
105019,65.8681,-1029.33,0,0
105279,65.7346,-1026.98,0,0
105539,65.6702,-1024.41,0,0
105800,65.4714,-1021.92,0,0
106060,65.063,-1019.52,0,0
106320.175,64.2661,-1016.85,0,0
106580.5,63.6007,-1013.84,0,0
106840.825,62.9886,-1010.79,0,0
107101.15,62.2386,-1007.69,0,0
107361.475,61.539,-1004.37,0,0
107621.8,60.9004,-1000.88,0,0
107882.125,60.3879,-997.39,0,0
108142.45,59.8615,-993.815,0,0
108402.775,59.5446,-990.129,0,0
108663.1,59.142,-986.55,0,0
108923.425,58.847,-982.825,0,0
109183.75,58.5578,-978.987,0,0
109444.075,58.4838,-975.1,0,0
109704.4,58.5598,-971.263,0,0
109964.725,58.6837,-967.51,0,0
110225.05,58.7769,-963.83,0,0
110485.375,59.0227,-959.969,0,0
110745.7,59.4811,-956.231,0,0
111006.025,59.9503,-952.397,0,0
111266.35,60.6554,-948.808,0,0
111526.675,61.3454,-945.584,0,0
111787.0,61.7464,-942.395,0,0
112047.325,62.2667,-939.187,0,0
112307.65,62.6683,-935.973,0,0
112567.975,63.0383,-932.729,0,0
112828.3,63.3861,-929.649,0,0
113088.625,63.761,-926.51,0,0
113348.95,63.9659,-923.353,0,0
113609.275,64.3297,-920.029,0,0
113869.6,64.6689,-916.718,0,0
114129.925,65.0006,-913.396,0,0
114390.25,65.499,-910.14,0,0
114650.575,65.7994,-906.899,0,0
114910.9,66.2712,-903.444,0,0
115171.225,66.8654,-900.095,0,0
115431.55,67.4913,-896.865,0,0
115691.875,68.0739,-893.581,0,0
115952.2,68.8256,-890.223,0,0
116212.525,69.5636,-887.095,0,0
116472.85,70.2464,-883.809,0,0
116733.175,71.1731,-880.384,0,0
116993.5,72.3612,-877.299,0,0
117253.825,73.2995,-874.414,0,0
117514.15,74.1425,-871.261,0,0
117774.475,75.3285,-867.951,0,0
118034.8,76.8711,-864.909,0,0
118295.125,78.5539,-862.185,0,0
118555.45,80.2557,-859.826,0,0
118815.775,81.6269,-857.934,0,0
119076.1,82.6737,-855.791,0,0
119336.425,83.8228,-853.527,0,0
119596.75,85.3947,-851.373,0,0
119857.075,87.08,-849.888,0,0
120117.4,88.3658,-849.073,0,0
120377.725,88.7665,-848.368,0,0
120638.05,88.553,-847.224,0,0
120898.375,88.3492,-845.652,0,0
121158.7,88.3005,-844.013,0,0
121419.025,87.8242,-842.53,0,0
121679.35,87.1148,-840.529,0,0
121939.675,86.5489,-838.121,0,0
122200.0,86.3072,-835.478,0,0
122460,86.2746,-832.868,0,0
122721,86.3854,-830.317,0,0
122981,86.5717,-827.826,0,0
123241,86.8533,-825.218,0,0
123502,87.311,-822.959,0,0
123762,87.5013,-820.848,0,0
124022,87.7015,-818.644,0,0
124283,87.8815,-816.369,0,0
124543,88.1529,-814.124,0,0
124803,88.4285,-811.992,0,0
125064,88.6597,-809.914,0,0
125324,88.8576,-807.86,0,0
125584,88.9602,-805.884,0,0
125845,89.0048,-803.924,0,0
126105,89.0144,-801.971,0,0
126365,88.9463,-800.04,0,0
126626,88.7657,-798.112,0,0
126886,88.4889,-796.138,0,0
127146,88.1315,-793.996,0,0
127406,87.8796,-791.92,0,0
127667,87.4751,-789.748,0,0
127927,87.0134,-787.387,0,0
128187,86.7221,-785.077,0,0
128448,86.2381,-782.868,0,0
128708,85.6587,-780.424,0,0
128968,85.1508,-777.69,0,0
129229,84.8303,-774.88,0,0
129489,84.6656,-772.167,0,0
129749,84.5536,-769.458,0,0
130010,84.3944,-766.732,0,0
130270,84.3531,-763.825,0,0
130530,84.5974,-760.979,0,0
130791,85.0017,-758.307,0,0
131051,85.4667,-755.996,0,0
131311,85.6279,-753.871,0,0
131572,85.5722,-751.609,0,0
131832,85.5557,-749.348,0,0
132092,85.4532,-747.122,0,0
132353,85.1916,-744.792,0,0
132613,84.919,-742.263,0,0
132873,84.882,-739.749,0,0
133134,84.8295,-737.325,0,0
133394,84.7344,-734.953,0,0
133654,84.504,-732.578,0,0
133915,84.2367,-730.112,0,0
134175,84.0034,-727.559,0,0
134435,83.7631,-724.885,0,0
134696,83.647,-722.382,0,0
134956,83.3496,-719.881,0,0
135216,82.9952,-717.139,0,0
135477,82.7899,-714.288,0,0
135737,82.7126,-711.634,0,0
135997,82.4296,-708.924,0,0
136258,82.1689,-706.109,0,0
136518,82.0169,-703.177,0,0
136778,81.88,-700.17,0,0
137039,81.8586,-697.048,0,0
137299,82.0627,-694.006,0,0
137559,82.3579,-691.092,0,0
137819,82.6132,-688.344,0,0
138080,82.6909,-685.624,0,0
138340.125,82.9374,-682.71,0,0
138600.45,83.3628,-679.949,0,0
138860.775,83.6545,-677.537,0,0
139121.1,83.6656,-675.175,0,0
139381.425,83.5495,-672.55,0,0
139641.75,83.4413,-669.906,0,0
139902.075,83.2108,-667.17,0,0
140162.4,82.9874,-664.338,0,0
140422.725,82.8742,-661.329,0,0
140683.05,82.8919,-658.276,0,0
140943.375,82.9865,-655.357,0,0
141203.7,82.9887,-652.496,0,0
141464.025,82.9404,-649.597,0,0
141724.35,82.8425,-646.663,0,0
141984.675,82.6788,-643.574,0,0
142245.0,82.5455,-640.36,0,0
142505.325,82.5962,-637.102,0,0
142765.65,82.6208,-633.925,0,0
143025.975,82.6247,-630.691,0,0
143286.3,82.6588,-627.301,0,0
143546.625,82.7375,-623.934,0,0
143806.95,82.8247,-620.497,0,0
144067.275,82.9674,-616.942,0,0
144327.6,83.2203,-613.405,0,0
144587.925,83.5375,-609.837,0,0
144848.25,83.9021,-606.276,0,0
145108.575,84.3079,-602.68,0,0
145368.9,84.7216,-599.134,0,0
145629.225,85.1111,-595.515,0,0
145889.55,85.5074,-591.827,0,0
146149.875,85.9996,-588.032,0,0
146410.2,86.5867,-584.211,0,0
146670.525,87.204,-580.328,0,0
146930.85,87.9086,-576.383,0,0
147191.175,88.7143,-572.399,0,0
147451.5,89.6083,-568.407,0,0
147711.825,90.6545,-564.361,0,0
147972.15,91.8006,-560.31,0,0
148232.475,93.0452,-556.35,0,0
148492.8,94.286,-552.43,0,0
148753.125,95.5418,-548.434,0,0
149013.45,96.8791,-544.311,0,0
149273.775,98.3997,-540.181,0,0
149534.1,100.014,-536.004,0,0
149794.425,101.851,-531.76,0,0
150054.75,103.927,-527.609,0,0
150315.075,106.18,-523.562,0,0
150575.4,108.559,-519.648,0,0
150835.725,111.088,-515.88,0,0
151096.05,113.715,-512.283,0,0
151356.375,116.397,-508.854,0,0
151616.7,119.104,-505.612,0,0
151877.025,121.77,-502.552,0,0
152137.35,124.384,-499.613,0,0
152397.675,126.932,-496.707,0,0
152658.0,129.505,-493.902,0,0
152918.325,132.044,-491.162,0,0
153178.65,134.617,-488.578,0,0
153438.975,137.018,-486.261,0,0
153699.3,139.112,-483.865,0,0
153959.625,141.167,-481.364,0,0
154219.95,143.172,-478.752,0,0
154480,145.369,-476.268,0,0
154741,147.198,-474.101,0,0
155001,148.435,-471.592,0,0
155261,149.512,-468.325,0,0
155522,151.289,-464.493,0,0
155782,153.74,-460.74,0,0
156042,156.299,-457.581,0,0
156303,158.593,-454.561,0,0
156563,160.838,-451.323,0,0
156823,163.19,-447.898,0,0
157084,165.933,-444.304,0,0
157344,169.01,-441.009,0,0
157604,172.262,-437.998,0,0
157864,175.495,-435.451,0,0
158125,178.341,-433.186,0,0
158385,181,-430.899,0,0
158645,183.4,-428.735,0,0
158906,184.898,-426.627,0,0
159166,186.072,-423.417,0,0
159426,187.912,-419.554,0,0
159687,189.858,-416.184,0,0
159947,191.116,-412.145,0,0
160207,192.783,-406.87,0,0
160468,195.52,-401.327,0,0
160728,198.581,-395.459,0,0
160988,202.649,-389.132,0,0
161249,207.82,-383.347,0,0
161509,213.408,-378.276,0,0
161769,218.908,-373.535,0,0
162030,224.588,-368.142,0,0
162290,231.82,-362.852,0,0
162550,239.58,-358.861,0,0
162811,246.996,-355.432,0,0
163071,254.623,-352.163,0,0
163331,262.464,-349.1,0,0
163592,270.46,-346.315,0,0
163852,279.007,-343.421,0,0
164112,288.519,-341.365,0,0
164373,297.82,-340.457,0,0
164633,306.752,-339.475,0,0
164893,316.46,-338.402,0,0
165154,327.42,-338.044,0,0
165414,339.174,-339.687,0,0
165674,350.15,-343.544,0,0
165935,359.35,-348.063,0,0
166195,368.265,-352.204,0,0
166455,377.63,-357.307,0,0
166716,385.944,-363.803,0,0
166976,393.01,-370.552,0,0
167236,399.515,-377.558,0,0
167497,404.92,-384.844,0,0
167757,409.678,-391.873,0,0
168017,413.995,-398.528,0,0
168277,418.796,-405.682,0,0
168538,422.443,-414.312,0,0
168798,423.967,-422.957,0,0
169058,424.166,-429.755,0,0
169319,425.198,-435.042,0,0
169579,427.856,-441.242,0,0
169839,429.584,-449.907,0,0
170100,427.968,-459.151,0,0
170360.075,424.085,-465.971,0,0
170620.4,420.373,-470.345,0,0
170880.725,417.397,-473.986,0,0
171141.05,414.44,-477.152,0,0
171401.375,411.176,-479.418,0,0
171661.7,408.427,-480.331,0,0
171922.025,407.057,-480.653,0,0
172182.35,406.33,-481.452,0,0
172442.675,405.751,-482.366,0,0
172703.0,405.43,-482.887,0,0
172963.325,405.644,-483.254,0,0
173223.65,406.651,-483.772,0,0
173483.975,408.053,-485.021,0,0
173744.3,409.083,-486.666,0,0
174004.625,410.364,-487.718,0,0
174264.95,412.871,-489.181,0,0
174525.275,416.068,-492.473,0,0
174785.6,418.066,-497.165,0,0
175045.925,418.948,-502.19,0,0
175306.25,418.937,-507.248,0,0
175566.575,418.485,-512.209,0,0
175826.9,417.396,-517.568,0,0
176087.225,414.79,-523.029,0,0
176347.55,411.039,-527.307,0,0
176607.875,407.314,-530.118,0,0
176868.2,404.345,-532.522,0,0
177128.525,401.391,-535.336,0,0
177388.85,397.802,-538.186,0,0
177649.175,393.644,-540.517,0,0
177909.5,389.413,-542.373,0,0
178169.825,384.526,-544.313,0,0
178430.15,378.445,-544.899,0,0
178690.475,372.741,-543.474,0,0
178950.8,368.169,-540.908,0,0
179211.125,364.867,-537.898,0,0
179471.45,362.702,-535.264,0,0
179731.775,360.419,-533.255,0,0
179992.1,358.072,-530.526,0,0
180252.425,356.677,-527.039,0,0
180512.75,356.538,-523.799,0,0
180773.075,357.322,-521.374,0,0
181033.4,358.395,-519.96,0,0
181293.725,359.182,-519.047,0,0
181554.05,359.894,-518.571,0,0
181814.375,360.845,-518.471,0,0
182074.7,361.774,-519.316,0,0
182335.025,361.898,-521.322,0,0
182595.35,360.355,-523.652,0,0
182855.675,357.587,-525.013,0,0
183116.0,354.63,-525.287,0,0
183376.325,351.738,-525.082,0,0
183636.65,348.689,-524.506,0,0
183896.975,345.844,-523.324,0,0
184157.3,343.114,-521.972,0,0
184417.625,340.328,-520.411,0,0
184677.95,337.455,-518.489,0,0
184938.275,334.628,-516.128,0,0
185198.6,331.891,-513.348,0,0
185458.925,329.521,-509.969,0,0
185719.25,327.533,-506.35,0,0
185979.575,325.933,-502.616,0,0
186239.9,324.516,-498.709,0,0
186500,323.419,-494.558,0,0
186761,322.639,-490.118,0,0
187021,322.46,-485.34,0,0
187281,323.223,-480.62,0,0
187542,324.554,-476.6,0,0
187802,325.838,-473.097,0,0
188062,327.006,-469.687,0,0
188322,328.379,-466.241,0,0
188583,330.14,-462.975,0,0
188843,331.971,-460.382,0,0
189103,333.345,-458.119,0,0
189364,334.267,-455.589,0,0
189624,335.218,-452.756,0,0
189884,336.294,-449.507,0,0
190145,337.787,-446.138,0,0
190405,339.653,-442.854,0,0
190665,341.809,-439.881,0,0
190926,344.041,-437.131,0,0
191186,346.177,-434.596,0,0
191446,348.201,-432.116,0,0
191707,350.067,-429.633,0,0
191967,351.908,-426.853,0,0
192227,354.018,-423.997,0,0
192488,356.202,-421.246,0,0
192748,358.246,-418.441,0,0
193008,360.24,-415.27,0,0
193269,362.591,-411.634,0,0
193529,365.597,-407.874,0,0
193789,369,-404.345,0,0
194050,372.477,-400.738,0,0
194310,376.462,-396.79,0,0
194570,381.403,-392.676,0,0
194831,387.456,-389.129,0,0
195091,394.271,-386.531,0,0
195351,401.461,-385.037,0,0
195612,408.641,-384.804,0,0
195872,415.226,-385.567,0,0
196132,421.215,-386.879,0,0
196393,426.705,-388.375,0,0
196653,431.726,-390.173,0,0
196913,436.587,-392.372,0,0
197174,441.227,-395.28,0,0
197434,444.259,-398.543,0,0
197694,446.338,-401.181,0,0
197955,448.212,-403.044,0,0
198215,450.061,-404.436,0,0
198475,452.068,-405.984,0,0
198735,453.668,-407.735,0,0
198996,454.244,-409.06,0,0
199256,454.691,-408.942,0,0
199516,455.984,-407.938,0,0
199777,458.52,-407.095,0,0
200037,461.477,-406.934,0,0
200297,464.092,-407.78,0,0
200558,465.68,-408.592,0,0
200818,466.664,-408.624,0,0
201078,467.939,-407.607,0,0
201339,469.886,-406.387,0,0
201599,472.095,-405.222,0,0
201859,474.429,-403.946,0,0
202120,476.892,-402.426,0,0
202380.025,479.584,-400.333,0,0
202640.35,483.283,-397.988,0,0
202900.675,487.73,-396.03,0,0
203161.0,492.495,-394.498,0,0
203421.325,497.621,-393.087,0,0
203681.65,503.356,-391.81,0,0
203941.975,509.706,-391.356,0,0
204202.3,516.212,-391.531,0,0
204462.625,522.514,-392.531,0,0
204722.95,528.736,-393.789,0,0
204983.275,534.899,-395.64,0,0
205243.6,541.251,-398.003,0,0
205503.925,547.338,-401.295,0,0
205764.25,552.593,-405.367,0,0
206024.575,556.736,-409.806,0,0
206284.9,559.77,-413.907,0,0
206545.225,561.878,-417.227,0,0
206805.55,563.802,-419.384,0,0
207065.875,566.242,-420.693,0,0
207326.2,569.269,-421.725,0,0
207586.525,572.611,-422.6,0,0
207846.85,576.357,-423.467,0,0
208107.175,580.554,-424.131,0,0
208367.5,585.275,-424.808,0,0
208627.825,590.565,-425.658,0,0
208888.15,596.311,-426.951,0,0
209148.475,602.25,-428.629,0,0
209408.8,608.597,-430.592,0,0
209669.125,615.343,-433.074,0,0
209929.45,622.38,-436.373,0,0
210189.775,629.346,-440.371,0,0
210450.1,635.945,-445.015,0,0
210710.425,642.407,-450.071,0,0
210970.75,648.568,-455.527,0,0
211231.075,654.423,-461.411,0,0
211491.4,659.93,-467.551,0,0
211751.725,665.228,-473.923,0,0
212012.05,670.17,-480.558,0,0
212272.375,674.873,-487.256,0,0
212532.7,679.24,-493.976,0,0
212793.025,683.63,-500.807,0,0
213053.35,688.231,-507.696,0,0
213313.675,692.774,-515.196,0,0
213574.0,696.948,-523.219,0,0
213834.325,700.739,-531.431,0,0
214094.65,704.232,-539.869,0,0
214354.975,707.38,-548.799,0,0
214615.3,710.144,-557.816,0,0
214875.625,712.423,-566.945,0,0
215135.95,714.483,-576.273,0,0
215396.275,716.047,-585.898,0,0
215656.6,716.867,-595.488,0,0
215916.925,717.403,-604.669,0,0
216177.25,718.045,-613.906,0,0
216437.575,718.451,-623.434,0,0
216697.9,718.586,-633.402,0,0
216958.225,718.102,-643.682,0,0
217218.55,716.835,-654.158,0,0
217478.875,714.641,-664.273,0,0
217739.2,711.79,-673.913,0,0
217999.525,708.949,-683.2,0,0
218259.85,705.864,-692.513,0,0
218520,702.249,-701.754,0,0
218780,698.002,-710.715,0,0
219041,693.285,-719.166,0,0
219301,688.013,-726.949,0,0
219561,682.795,-733.641,0,0
219822,678.09,-739.779,0,0
220082,674.039,-745.683,0,0
220342,670.863,-752.006,0,0
220603,668.038,-759.051,0,0
220863,664.742,-767.228,0,0
221123,660.575,-776.138,0,0
221384,654.845,-785.148,0,0
221644,648.113,-793.496,0,0
221904,640.867,-801.169,0,0
222165,633.107,-808.449,0,0
222425,624.588,-815.04,0,0
222685,615.908,-820.749,0,0
222946,607.063,-825.679,0,0
223206,598.139,-829.996,0,0
223466,589.003,-833.731,0,0
223727,579.703,-836.521,0,0
223987,570.692,-838.414,0,0
224247,562.251,-839.264,0,0
224508,554.398,-839.729,0,0
224768,546.843,-839.89,0,0
225028,540.361,-839.414,0,0
225289,534.48,-838.923,0,0
225549,529.076,-838.31,0,0
225809,524.408,-837.53,0,0
226070,520.564,-837.448,0,0
226330,517.116,-837.597,0,0
226590,514.253,-838.571,0,0
226851,511.075,-840.424,0,0
227111,507.601,-842.612,0,0
227371,503.614,-845.088,0,0
227632,499.136,-847.734,0,0
227892,494.259,-850.238,0,0
228152,489.14,-852.394,0,0
228413,484.01,-854.546,0,0
228673,478.782,-856.487,0,0
228933,473.557,-858.545,0,0
229193,467.967,-860.607,0,0
229454,461.979,-862.48,0,0
229714,455.858,-863.965,0,0
229974,449.716,-865.114,0,0
230235,443.27,-865.963,0,0
230495,437.061,-866.466,0,0
230755,431.034,-866.81,0,0
231016,424.951,-866.849,0,0
231276,418.799,-866.655,0,0
231536,412.94,-866.03,0,0
231797,407.273,-865.399,0,0
232057,401.818,-864.749,0,0
232317,396.467,-863.907,0,0
232578,391.278,-863.015,0,0
232838,386.223,-862.081,0,0
233098,381.268,-861.169,0,0
233359,376.323,-860.266,0,0
233619,371.446,-859.163,0,0
233879,366.832,-858.053,0,0
234140,362.295,-856.941,0,0
234400,357.706,-856.159,0,0
234660.3,352.964,-855.262,0,0
234920.625,348.36,-854.178,0,0
235180.95,343.622,-853.133,0,0
235441.275,339.015,-852.023,0,0
235701.6,334.337,-850.905,0,0
235961.925,329.472,-849.738,0,0
236222.25,324.687,-848.567,0,0
236482.575,319.592,-847.067,0,0
236742.9,314.6,-845.338,0,0
237003.225,309.64,-843.447,0,0
237263.55,304.863,-841.3,0,0
237523.875,300.219,-839.143,0,0
237784.2,295.552,-836.993,0,0
238044.525,290.852,-834.601,0,0
238304.85,286.174,-832.037,0,0
238565.175,281.529,-829.278,0,0
238825.5,277.032,-826.254,0,0
239085.825,272.542,-822.931,0,0
239346.15,268.528,-819.471,0,0
239606.475,264.68,-815.849,0,0
239866.8,260.947,-812.144,0,0
240127.125,257.716,-808.29,0,0
240387.45,254.733,-804.57,0,0
240647.775,251.719,-800.749,0,0
240908.1,249.032,-797.166,0,0
241168.425,246.465,-793.315,0,0
241428.75,244.072,-789.575,0,0
241689.075,241.862,-785.949,0,0
241949.4,239.658,-782.369,0,0
242209.725,237.66,-778.684,0,0
242470.05,235.927,-774.843,0,0
242730.375,234.494,-771.218,0,0
242990.7,233.295,-767.876,0,0
243251.025,232.017,-764.513,0,0
243511.35,230.893,-761.306,0,0
243771.675,229.894,-758.114,0,0
244032.0,229.088,-754.856,0,0
244292.325,228.575,-751.996,0,0
244552.65,227.932,-749.344,0,0
244812.975,227.178,-746.923,0,0
245073.3,226.303,-744.695,0,0
245333.625,225.483,-742.343,0,0
245593.95,224.549,-740.043,0,0
245854.275,223.563,-737.789,0,0
246114.6,222.622,-735.451,0,0
246374.925,221.658,-733.167,0,0
246635.25,220.72,-730.737,0,0
246895.575,219.923,-728.373,0,0
247155.9,219.004,-726.102,0,0
247416.225,218.262,-723.668,0,0
247676.55,217.403,-721.369,0,0
247936.875,216.793,-719.01,0,0
248197.2,216.081,-716.641,0,0
248457.525,215.509,-714.302,0,0
248717.85,215.084,-711.888,0,0
248978.175,214.906,-709.418,0,0
249238.5,214.896,-707.354,0,0
249498.825,214.884,-705.491,0,0
249759.15,214.839,-703.669,0,0
250019.475,214.653,-702,0,0
250279.8,214.658,-700.514,0,0
250540,214.538,-699.195,0,0
250800,214.152,-698.086,0,0
251061,213.621,-697.043,0,0
251321,212.936,-695.942,0,0
251581,212.053,-694.848,0,0
251842,211.029,-693.772,0,0
252102,209.743,-692.498,0,0
252362,208.372,-691.092,0,0
252623,206.818,-689.536,0,0
252883,205.187,-687.617,0,0
253143,203.669,-685.594,0,0
253404,202.096,-683.231,0,0
253664,200.597,-680.635,0,0
253924,199.321,-677.73,0,0
254185,198.288,-674.617,0,0
254445,197.624,-671.471,0,0
254705,197.164,-668.236,0,0
254966,196.916,-665.157,0,0
255226,196.767,-662.011,0,0
255486,196.774,-658.715,0,0
255747,196.99,-655.444,0,0
256007,197.411,-651.932,0,0
256267,198.266,-648.487,0,0
256528,199.604,-645.084,0,0
256788,201.262,-642.061,0,0
257048,203.134,-639.334,0,0
257309,205.085,-636.855,0,0
257569,207.271,-634.643,0,0
257829,209.535,-632.742,0,0
258090,211.766,-631.204,0,0
258350,213.842,-629.978,0,0
258610,215.781,-628.917,0,0
258871,217.518,-627.8,0,0
259131,219.262,-626.603,0,0
259391,221.165,-625.312,0,0
259651,223.314,-623.989,0,0
259912,225.79,-622.814,0,0
260172,228.584,-622.002,0,0
260432,231.48,-621.643,0,0
260693,234.42,-621.781,0,0
260953,237.286,-622.217,0,0
261213,240.115,-623.025,0,0
261474,242.804,-624.251,0,0
261734,245.404,-625.871,0,0
261994,247.646,-627.957,0,0
262255,249.588,-630.408,0,0
262515,251.047,-633.12,0,0
262775,252.054,-635.988,0,0
263036,252.572,-638.95,0,0
263296,252.674,-641.917,0,0
263556,252.311,-644.858,0,0
263817,251.633,-647.631,0,0
264077,250.631,-650.328,0,0
264337,249.225,-652.882,0,0
264598,247.607,-655.435,0,0
264858,245.586,-657.598,0,0
265118,243.335,-659.69,0,0
265379,240.84,-661.491,0,0
265639,238.002,-663.044,0,0
265899,235.064,-664.179,0,0
266160,231.811,-664.873,0,0
266420,228.544,-665.133,0,0
266680.25,225.42,-664.999,0,0
266940.575,222.368,-664.594,0,0
267200.9,219.451,-663.938,0,0
267461.225,216.621,-662.961,0,0
267721.55,213.933,-661.745,0,0
267981.875,211.436,-660.272,0,0
268242.2,209.135,-658.636,0,0
268502.525,207.123,-656.93,0,0
268762.85,205.301,-655.08,0,0
269023.175,203.661,-653.187,0,0
269283.5,202.214,-651.258,0,0
269543.825,200.939,-649.309,0,0
269804.15,199.833,-647.252,0,0
270064.475,198.903,-645.369,0,0
270324.8,198.052,-643.417,0,0
270585.125,197.394,-641.526,0,0
270845.45,196.836,-639.578,0,0
271105.775,196.407,-637.681,0,0
271366.1,196.172,-635.876,0,0
271626.425,196.046,-634.123,0,0
271886.75,196.003,-632.532,0,0
272147.075,195.981,-630.973,0,0
272407.4,196.002,-629.492,0,0
272667.725,196.012,-628.044,0,0
272928.05,196.17,-626.686,0,0
273188.375,196.327,-625.488,0,0
273448.7,196.408,-624.337,0,0
273709.025,196.444,-623.213,0,0
273969.35,196.386,-621.968,0,0
274229.675,196.419,-620.605,0,0
274490.0,196.464,-619.181,0,0
274750.325,196.703,-617.687,0,0
275010.65,197.135,-616.13,0,0
275270.975,197.805,-614.731,0,0
275531.3,198.595,-613.378,0,0
275791.625,199.458,-612.048,0,0
276051.95,200.546,-610.826,0,0
276312.275,201.803,-609.736,0,0
276572.6,203.22,-608.815,0,0
276832.925,204.829,-608.095,0,0
277093.25,206.547,-607.697,0,0
277353.575,208.376,-607.632,0,0
277613.9,210.093,-608.002,0,0
277874.225,211.706,-608.671,0,0
278134.55,213.135,-609.58,0,0
278394.875,214.353,-610.705,0,0
278655.2,215.327,-612.023,0,0
278915.525,216.215,-613.47,0,0
279175.85,216.75,-615.135,0,0
279436.175,217.024,-616.969,0,0
279696.5,216.942,-618.828,0,0
279956.825,216.554,-620.719,0,0
280217.15,215.775,-622.562,0,0
280477.475,214.629,-624.201,0,0
280737.8,213.281,-625.562,0,0
280998.125,211.749,-626.619,0,0
281258.45,210.216,-627.428,0,0
281518.775,208.756,-627.989,0,0
281779.1,207.36,-628.561,0,0
282039.425,205.989,-629.057,0,0
282299.75,204.548,-629.554,0,0
282560,203.043,-629.991,0,0
282820,201.464,-630.344,0,0
283081,199.749,-630.621,0,0
283341,197.939,-630.739,0,0
283601,196.111,-630.645,0,0
283862,194.324,-630.377,0,0
284122,192.637,-629.918,0,0
284382,190.98,-629.39,0,0
284643,189.41,-628.773,0,0
284903,187.837,-628.168,0,0
285163,186.367,-627.45,0,0
285424,184.906,-626.7,0,0
285684,183.42,-625.894,0,0
285944,181.977,-624.955,0,0
286205,180.592,-623.905,0,0
286465,179.213,-622.749,0,0
286725,177.911,-621.436,0,0
286986,176.754,-620.025,0,0
287246,175.747,-618.469,0,0
287506,174.982,-616.813,0,0
287767,174.419,-615.19,0,0
288027,174.069,-613.534,0,0
288287,173.966,-611.984,0,0
288548,174.002,-610.622,0,0
288808,174.222,-609.353,0,0
289068,174.538,-608.317,0,0
289329,174.904,-607.511,0,0
289589,175.28,-606.914,0,0
289849,175.546,-606.527,0,0
290109,175.69,-606.273,0,0
290370,175.51,-606.019,0,0
290630,175.389,-605.764,0,0
290890,175.171,-605.5,0,0
291151,174.93,-605.208,0,0
291411,174.583,-604.936,0,0
291671,174.207,-604.623,0,0
291932,173.804,-604.297,0,0
292192,173.337,-603.903,0,0
292452,172.822,-603.453,0,0
292713,172.326,-602.924,0,0
292973,171.863,-602.285,0,0
293233,171.46,-601.587,0,0
293494,171.125,-600.792,0,0
293754,170.941,-599.948,0,0
294014,170.906,-599.127,0,0
294275,171.041,-598.4,0,0
294535,171.275,-597.736,0,0
294795,171.631,-597.22,0,0
295056,171.999,-596.812,0,0
295316,172.409,-596.542,0,0
295576,172.918,-596.389,0,0
295837,173.422,-596.512,0,0
296097,173.833,-596.766,0,0
296357,174.103,-597.243,0,0
296618,174.23,-597.785,0,0
296878,174.233,-598.366,0,0
297138,174.142,-599.023,0,0
297399,173.899,-599.71,0,0
297659,173.544,-600.46,0,0
297919,173.066,-601.238,0,0
298180,172.4,-602.036,0,0
298440,171.581,-602.795,0,0
298700.2,170.627,-603.484,0,0
298960.525,169.515,-604.1,0,0
299220.85,168.359,-604.523,0,0
299481.175,167.131,-604.888,0,0
299741.5,165.87,-605.176,0,0
300001.825,164.602,-605.363,0,0
300262.15,163.298,-605.529,0,0
300522.475,161.973,-605.626,0,0
300782.8,160.595,-605.592,0,0
301043.125,159.289,-605.546,0,0
301303.45,157.943,-605.467,0,0
301563.775,156.506,-605.283,0,0
301824.1,155.096,-605.054,0,0
302084.425,153.66,-604.726,0,0
302344.75,152.193,-604.352,0,0
302605.075,150.763,-603.862,0,0
302865.4,149.357,-603.296,0,0
303125.725,147.993,-602.633,0,0
303386.05,146.681,-601.955,0,0
303646.375,145.408,-601.207,0,0
303906.7,144.153,-600.484,0,0
304167.025,142.944,-599.675,0,0
304427.35,141.746,-598.803,0,0
304687.675,140.555,-597.898,0,0
304948.0,139.514,-596.91,0,0
305208.325,138.467,-595.931,0,0
305468.65,137.491,-594.957,0,0
305728.975,136.575,-593.953,0,0
305989.3,135.707,-592.936,0,0
306249.625,134.852,-591.91,0,0
306509.95,134.063,-590.862,0,0
306770.275,133.298,-589.819,0,0
307030.6,132.635,-588.726,0,0
307290.925,132.015,-587.666,0,0
307551.25,131.489,-586.605,0,0
307811.575,131.032,-585.59,0,0
308071.9,130.631,-584.637,0,0
308332.225,130.284,-583.745,0,0
308592.55,129.981,-582.944,0,0
308852.875,129.646,-582.242,0,0
309113.2,129.274,-581.596,0,0
309373.525,128.905,-581.015,0,0
309633.85,128.456,-580.476,0,0
309894.175,127.902,-579.985,0,0
310154.5,127.352,-579.477,0,0
310414.825,126.72,-578.969,0,0
310675.15,126.037,-578.426,0,0
310935.475,125.292,-577.857,0,0
311195.8,124.516,-577.24,0,0
311456.125,123.713,-576.541,0,0
311716.45,122.955,-575.829,0,0
311976.775,122.195,-575.074,0,0
312237.1,121.402,-574.341,0,0
312497.425,120.593,-573.565,0,0
312757.75,119.744,-572.729,0,0
313018.075,118.889,-571.833,0,0
313278.4,118.013,-570.847,0,0
313538.725,117.193,-569.774,0,0
313799.05,116.396,-568.621,0,0
314059.375,115.712,-567.38,0,0
314319.7,115.056,-566.092,0,0
314580,114.533,-564.715,0,0
314840,114.132,-563.478,0,0
315101,113.77,-562.054,0,0
315361,113.481,-560.609,0,0
315621,113.374,-559.271,0,0
315882,113.384,-557.988,0,0
316142,113.399,-556.778,0,0
316402,113.645,-555.642,0,0
316663,113.759,-554.537,0,0
316923,114.069,-553.554,0,0
317183,114.398,-552.732,0,0
317444,114.641,-551.982,0,0
317704,114.886,-551.307,0,0
317964,115.183,-550.678,0,0
318225,115.382,-550.213,0,0
318485,115.503,-549.709,0,0
318745,115.478,-549.273,0,0
319006,115.512,-548.773,0,0
319266,115.497,-548.306,0,0
319526,115.532,-547.852,0,0
319787,115.453,-547.437,0,0
320047,115.37,-546.979,0,0
320307,115.286,-546.502,0,0
320567,115.233,-546.047,0,0
320828,115.095,-545.549,0,0
321088,115.17,-544.984,0,0
321348,115.108,-544.597,0,0
321609,115.153,-544.139,0,0
321869,115.32,-543.664,0,0
322129,115.382,-543.267,0,0
322390,115.511,-543.046,0,0
322650,115.675,-542.749,0,0
322910,115.718,-542.699,0,0
323171,115.785,-542.617,0,0
323431,115.785,-542.619,0,0
323691,115.694,-542.644,0,0
323952,115.562,-542.708,0,0
324212,115.312,-542.792,0,0
324472,115.038,-542.958,0,0
324733,114.647,-543.083,0,0
324993,114.191,-543.2,0,0
325253,113.719,-543.386,0,0
325514,113.167,-543.401,0,0
325774,112.494,-543.497,0,0
326034,111.805,-543.546,0,0
326295,111.045,-543.491,0,0
326555,110.278,-543.444,0,0
326815,109.425,-543.248,0,0
327076,108.55,-543.102,0,0
327336,107.699,-542.921,0,0
327596,106.841,-542.608,0,0
327857,105.962,-542.236,0,0
328117,105.093,-541.781,0,0
328377,104.24,-541.351,0,0
328638,103.47,-540.872,0,0
328898,102.642,-540.389,0,0
329158,101.86,-539.91,0,0
329419,101.168,-539.338,0,0
329679,100.47,-538.995,0,0
329939,99.7106,-538.46,0,0
330200,98.8908,-537.951,0,0
330460,98,-537.542,0,0
330720.15,97.2337,-536.947,0,0
330980.475,96.34,-536.411,0,0
331240.8,95.5268,-535.849,0,0
331501.125,94.6584,-535.3,0,0
331761.45,93.7691,-534.698,0,0
332021.775,92.8161,-533.996,0,0
332282.1,91.9561,-533.327,0,0
332542.425,91.0199,-532.576,0,0
332802.75,90.0786,-531.735,0,0
333063.075,89.2125,-530.955,0,0
333323.4,88.3436,-530.055,0,0
333583.725,87.4791,-529.16,0,0
333844.05,86.635,-528.274,0,0
334104.375,85.7423,-527.214,0,0
334364.7,84.9358,-526.244,0,0
334625.025,84.1083,-525.191,0,0
334885.35,83.3916,-524.032,0,0
335145.675,82.6035,-522.908,0,0
335406.0,81.9314,-521.765,0,0
335666.325,81.3512,-520.447,0,0
335926.65,80.6921,-519.288,0,0
336186.975,80.1675,-517.985,0,0
336447.3,79.6583,-516.756,0,0
336707.625,79.2184,-515.469,0,0
336967.95,78.8146,-514.206,0,0
337228.275,78.4695,-513.032,0,0
337488.6,78.1666,-511.809,0,0
337748.925,77.8958,-510.557,0,0
338009.25,77.5868,-509.348,0,0
338269.575,77.3101,-508.108,0,0
338529.9,77.0339,-506.937,0,0
338790.225,76.7801,-505.631,0,0
339050.55,76.5753,-504.365,0,0
339310.875,76.4675,-503.012,0,0
339571.2,76.315,-501.731,0,0
339831.525,76.3765,-500.386,0,0
340091.85,76.3468,-499.072,0,0
340352.175,76.4832,-497.708,0,0
340612.5,76.6991,-496.425,0,0
340872.825,77.0187,-495.165,0,0
341133.15,77.3954,-494.014,0,0
341393.475,77.7815,-492.935,0,0
341653.8,78.2479,-491.883,0,0
341914.125,78.6426,-490.959,0,0
342174.45,79.1645,-490.001,0,0
342434.775,79.6829,-489.234,0,0
342695.1,80.1509,-488.491,0,0
342955.425,80.6608,-487.872,0,0
343215.75,81.1417,-487.355,0,0
343476.075,81.5738,-486.899,0,0
343736.4,81.8996,-486.493,0,0
343996.725,82.2512,-486.086,0,0
344257.05,82.4616,-485.773,0,0
344517.375,82.6585,-485.406,0,0
344777.7,82.7417,-485.105,0,0
345038.025,82.9206,-484.812,0,0
345298.35,82.8515,-484.495,0,0
345558.675,82.8127,-484.144,0,0
345819.0,82.7627,-483.756,0,0
346079.325,82.6191,-483.348,0,0
346339.65,82.5998,-482.874,0,0
346599.975,82.43,-482.482,0,0
346860,82.284,-482.038,0,0
347121,82.1112,-481.5,0,0
347381,82.0049,-480.977,0,0
347641,81.8297,-480.479,0,0
347902,81.651,-479.872,0,0
348162,81.5347,-479.275,0,0
348422,81.3866,-478.638,0,0
348683,81.2489,-477.971,0,0
348943,81.226,-477.269,0,0
349203,81.2341,-476.567,0,0
349464,81.2522,-475.865,0,0
349724,81.2802,-475.208,0,0
349984,81.3695,-474.562,0,0
350245,81.4795,-473.893,0,0
350505,81.6999,-473.291,0,0
350765,81.8698,-472.705,0,0
351025,82.0387,-472.131,0,0
351286,82.2975,-471.697,0,0
351546,82.6351,-471.224,0,0
351806,82.807,-470.903,0,0
352067,83.0503,-470.585,0,0
352327,83.2216,-470.39,0,0
352587,83.3859,-470.203,0,0
352848,83.4713,-470.059,0,0
353108,83.4494,-469.996,0,0
353368,83.3873,-469.917,0,0
353629,83.2587,-469.845,0,0
353889,83.0016,-469.783,0,0
354149,82.7559,-469.588,0,0
354410,82.3746,-469.461,0,0
354670,81.9482,-469.239,0,0
354930,81.5051,-468.9,0,0
355191,81.0582,-468.545,0,0
355451,80.6555,-468.152,0,0
355711,80.2192,-467.651,0,0
355972,79.7923,-467.092,0,0
356232,79.4129,-466.491,0,0
356492,79.0628,-465.871,0,0
356753,78.7473,-465.28,0,0
357013,78.4625,-464.595,0,0
357273,78.1527,-463.982,0,0
357534,77.9692,-463.38,0,0
357794,77.7607,-462.716,0,0
358054,77.5287,-462.044,0,0
358315,77.315,-461.395,0,0
358575,77.1319,-460.764,0,0
358835,76.9037,-460.125,0,0
359096,76.6878,-459.452,0,0
359356,76.5184,-458.707,0,0
359616,76.3979,-457.976,0,0
359877,76.2657,-457.307,0,0
360137,76.1778,-456.511,0,0
360397,76.1267,-455.862,0,0
360658,76.1123,-455.132,0,0
360918,76.0942,-454.474,0,0
361178,76.0535,-453.809,0,0
361438,76.0842,-453.121,0,0
361699,76.0968,-452.381,0,0
361959,76.2233,-451.708,0,0
362219,76.2313,-451.054,0,0
362480,76.3593,-450.389,0,0
362740.1,76.4581,-449.782,0,0
363000.425,76.5486,-449.143,0,0
363260.75,76.7097,-448.609,0,0
363521.075,76.8115,-448,0,0
363781.4,76.9993,-447.382,0,0
364041.725,77.1718,-446.846,0,0
364302.05,77.4332,-446.333,0,0
364562.375,77.6935,-445.828,0,0
364822.7,77.9807,-445.471,0,0
365083.025,78.2571,-445.083,0,0
365343.35,78.5417,-444.803,0,0
365603.675,78.7714,-444.643,0,0
365864.0,79.0153,-444.506,0,0
366124.325,79.1754,-444.483,0,0
366384.65,79.2513,-444.478,0,0
366644.975,79.2025,-444.532,0,0
366905.3,79.0048,-444.494,0,0
367165.625,78.7203,-444.589,0,0
367425.95,78.3282,-444.565,0,0
367686.275,77.8367,-444.438,0,0
367946.6,77.3018,-444.165,0,0
368206.925,76.7019,-443.872,0,0
368467.25,76.1276,-443.387,0,0
368727.575,75.5125,-442.86,0,0
368987.9,74.9782,-442.165,0,0
369248.225,74.4567,-441.35,0,0
369508.55,74.016,-440.437,0,0
369768.875,73.7759,-439.432,0,0
370029.2,73.6593,-438.385,0,0
370289.525,73.6499,-437.39,0,0
370549.85,73.8791,-436.418,0,0
370810.175,74.2098,-435.499,0,0
371070.5,74.5456,-434.865,0,0
371330.825,75.0144,-434.21,0,0
371591.15,75.4296,-433.767,0,0
371851.475,75.8408,-433.421,0,0
372111.8,76.0927,-433.263,0,0
372372.125,76.3492,-433.123,0,0
372632.45,76.3993,-433.032,0,0
372892.775,76.372,-432.935,0,0
373153.1,76.3296,-432.833,0,0
373413.425,76.1314,-432.686,0,0
373673.75,75.9007,-432.515,0,0
373934.075,75.5779,-432.264,0,0
374194.4,75.2692,-431.879,0,0
374454.725,74.9462,-431.543,0,0
374715.05,74.5874,-431.132,0,0
374975.375,74.3465,-430.675,0,0
375235.7,74.009,-430.143,0,0
375496.025,73.7172,-429.624,0,0
375756.35,73.4194,-429.012,0,0
376016.675,73.1646,-428.335,0,0
376277.0,72.9378,-427.644,0,0
376537.325,72.75,-426.957,0,0
376797.65,72.6049,-426.231,0,0
377057.975,72.502,-425.464,0,0
377318.3,72.4817,-424.699,0,0
377578.625,72.4954,-423.952,0,0
377838.95,72.5978,-423.193,0,0
378099.275,72.7245,-422.523,0,0
378359.6,72.9193,-421.858,0,0
378619.925,73.1102,-421.28,0,0
378880,73.2941,-420.709,0,0
379141,73.4941,-420.191,0,0
379401,73.6984,-419.719,0,0
379661,73.9084,-419.228,0,0
379922,74.0017,-418.798,0,0
380182,74.2174,-418.438,0,0
380442,74.3545,-418.009,0,0
380703,74.5058,-417.601,0,0
380963,74.6049,-417.262,0,0
381223,74.7308,-416.883,0,0
381483,74.8891,-416.511,0,0
381744,75.0594,-416.182,0,0
382004,75.2096,-415.888,0,0
382264,75.3503,-415.622,0,0
382525,75.501,-415.389,0,0
382785,75.5544,-415.209,0,0
383045,75.6172,-415.018,0,0
383306,75.5782,-414.892,0,0
383566,75.4763,-414.797,0,0
383826,75.3433,-414.628,0,0
384087,75.2261,-414.407,0,0
384347,74.9696,-414.186,0,0
384607,74.7128,-413.906,0,0
384868,74.4839,-413.686,0,0
385128,74.1872,-413.351,0,0
385388,73.9551,-412.968,0,0
385649,73.6833,-412.539,0,0
385909,73.3926,-412.159,0,0
386169,73.0749,-411.702,0,0
386430,72.8151,-411.203,0,0
386690,72.5081,-410.648,0,0
386950,72.2893,-410.084,0,0
387211,72.0259,-409.494,0,0
387471,71.8197,-408.88,0,0
387731,71.6725,-408.239,0,0
387992,71.5068,-407.679,0,0
388252,71.3568,-406.968,0,0
388512,71.189,-406.313,0,0
388773,71.08,-405.599,0,0
389033,70.9908,-404.949,0,0
389293,70.9109,-404.208,0,0
389554,70.8785,-403.515,0,0
389814,70.8299,-402.747,0,0
390074,70.8651,-401.963,0,0
390335,70.8954,-401.232,0,0
390595,71.0333,-400.407,0,0
390855,71.1638,-399.626,0,0
391116,71.3657,-398.897,0,0
391376,71.6093,-398.152,0,0
391636,71.8314,-397.496,0,0
391896,72.1406,-396.771,0,0
392157,72.4614,-396.124,0,0
392417,72.7937,-395.427,0,0
392677,73.1406,-394.805,0,0
392938,73.5559,-394.213,0,0
393198,74.0232,-393.644,0,0
393458,74.455,-393.169,0,0
393719,74.9559,-392.689,0,0
393979,75.4334,-392.285,0,0
394239,75.9266,-391.909,0,0
394500,76.3884,-391.564,0,0
394760.05,76.8872,-391.304,0,0
395020.375,77.3754,-391.04,0,0
395280.7,77.8313,-390.834,0,0
395541.025,78.3058,-390.686,0,0
395801.35,78.7449,-390.59,0,0
396061.675,79.1818,-390.556,0,0
396322.0,79.5484,-390.524,0,0
396582.325,79.8903,-390.566,0,0
396842.65,80.2,-390.614,0,0
397102.975,80.4685,-390.684,0,0
397363.3,80.6635,-390.82,0,0
397623.625,80.8568,-390.959,0,0
397883.95,80.9995,-391.04,0,0
398144.275,81.1157,-391.158,0,0
398404.6,81.103,-391.389,0,0
398664.925,81.1089,-391.533,0,0
398925.25,81.0031,-391.701,0,0
399185.575,80.8883,-391.81,0,0
399445.9,80.6707,-391.934,0,0
399706.225,80.4491,-391.999,0,0
399966.55,80.1403,-391.961,0,0
400006.6,80.1496,-392.016,0,0