File: Accelerated corrosion test data/2025-10-01_12-27-23/sample_4.csv
Frequency (Hz),Impedance (ohms),Phase (Radians),Temperature (C),Humidity (%)
10000.0,264.533,-11839.5,0,0
10260.325,260.99,-11540.6,0,0
10520.65,251.837,-11258.7,0,0
10780.975,246.078,-10989.2,0,0
11041.3,240.64,-10731.4,0,0
11301.625,236.067,-10489.5,0,0
11561.95,230.49,-10254.3,0,0
11822.275,225.919,-10029.3,0,0
12082.6,220.936,-9815.21,0,0
12342.925,216.706,-9609.19,0,0
12603.25,213.677,-9410.73,0,0
12863.575,210.636,-9224.52,0,0
13123.9,210.965,-9043.99,0,0
13384.225,200.784,-8867.28,0,0
13644.55,197.748,-8697.27,0,0
13904.875,194.712,-8532.7,0,0
14165.2,194.73,-8370.28,0,0
14425.525,201.443,-8218.53,0,0
14685.8,204.712,-8109.52,0,0
14946.175,183.759,-7953.87,0,0
15206.5,182.589,-7810.35,0,0
15466.825,187.767,-7667.82,0,0
15727.15,193.916,-7568.77,0,0
15987.5,188.42,-7450.76,0,0
16247.8,171.628,-7324.75,0,0
16508.125,183.773,-7194.13,0,0
16768.45,179,-7098.48,0,0
17028.775,174.153,-7009.58,0,0
17289.1,161.794,-6896.3,0,0
17549.425,159.642,-6791.92,0,0
17809.75,157.363,-6691.35,0,0
18070.075,153.343,-6592.54,0,0
18330.4,153.357,-6496.36,0,0
18590.725,155.286,-6408.07,0,0
18851.05,150.787,-6324.77,0,0
19111.375,146.233,-6236.02,0,0
19371.7,144.166,-6150.8,0,0
19632.025,142.572,-6066.86,0,0
19892.35,144.395,-5985.55,0,0
20152.675,144.63,-5909.21,0,0
20413.0,142.159,-5837.51,0,0
20673.3,141.285,-5761.66,0,0
20933.65,138.306,-5689.18,0,0
21193.975,140.885,-5614.15,0,0
21454.3,152.173,-5548.15,0,0
21714.625,145.536,-5491.15,0,0
21974.9,150.055,-5421.53,0,0
22235.275,149.461,-5374.67,0,0
22495.6,137.438,-5319.62,0,0
22755.925,129.976,-5254.97,0,0
23016.25,126.253,-5193.46,0,0
23276.6,124.034,-5133.02,0,0
23536.9,122.544,-5075.8,0,0
23797.225,120.197,-5019.26,0,0
24057.55,118.537,-4963.69,0,0
24317.875,117.49,-4909.58,0,0
24578.2,115.865,-4856.26,0,0
24838.525,115.094,-4804.02,0,0
25098.85,115.657,-4753.6,0,0
25359.175,114.077,-4706.31,0,0
25619.5,113.293,-4657.12,0,0
25879.8,112.101,-4613.02,0,0
26140.1,109.234,-4564.21,0,0
26400.5,108.358,-4517.71,0,0
26660.8,107.943,-4471.9,0,0
26921.1,107.732,-4428.65,0,0
27181.4,106.345,-4383.58,0,0
27441.8,106.754,-4338.8,0,0
27702.1,109.178,-4295.31,0,0
27962.4,117.408,-4254.19,0,0
28222.7,119.612,-4222.18,0,0
28483.1,116.905,-4191.23,0,0
28743.4,111.671,-4151.68,0,0
29003.7,112.197,-4110.91,0,0
29264,116.465,-4076.75,0,0
29524.4,113.748,-4045.95,0,0
29784.7,109.265,-4014.96,0,0
30045,108.452,-3978.66,0,0
30305.3,102.844,-3945.66,0,0
30565.7,101.348,-3909.82,0,0
30826,100.069,-3875.7,0,0
31086.3,99.5079,-3841.9,0,0
31346.6,100.18,-3808.58,0,0
31607,99.1963,-3778.27,0,0
31867.3,97.781,-3747.38,0,0
32127.6,99.6927,-3715.65,0,0
32387.9,98.8895,-3689.31,0,0
32648.3,97.6589,-3659.11,0,0
32908.6,95.9462,-3633.03,0,0
33168.9,93.4482,-3603.64,0,0
33429.2,90.9398,-3575.3,0,0
33689.6,89.6913,-3546.27,0,0
33949.9,88.445,-3517.94,0,0
34210.2,88.6316,-3490.09,0,0
34470.5,86.9906,-3464.25,0,0
34730.9,86.1443,-3437.4,0,0
34991.2,85.4272,-3411,0,0
35251.5,85.1337,-3385.11,0,0
35511.8,83.7892,-3359.72,0,0
35772.2,83.7137,-3334.52,0,0
36032.5,82.5297,-3309.92,0,0
36292.8,81.8841,-3285.22,0,0
36553.1,81.4709,-3261.05,0,0
36813.5,81.2853,-3237.21,0,0
37073.8,81.3754,-3214.48,0,0
37334.1,80.577,-3191.71,0,0
37594.4,79.9537,-3168.68,0,0
37854.8,80.0422,-3146.27,0,0
38115.1,79.0888,-3124.64,0,0
38375.4,78.2629,-3102.15,0,0
38635.7,77.9029,-3080.11,0,0
38896.1,78.2683,-3058.81,0,0
39156.4,77.828,-3038.28,0,0
39416.7,77.1832,-3017.21,0,0
39677,76.9528,-2995.71,0,0
39937.4,77.4459,-2974.69,0,0
40197.7,78.9956,-2954.25,0,0
40458,81.6405,-2935.56,0,0
40718.3,80.0529,-2918.86,0,0
40978.7,79.8418,-2898.89,0,0
41239,80.1468,-2880.03,0,0
41499.3,83.1619,-2863.03,0,0
41759.6,80.4429,-2848.14,0,0
42020,78.6086,-2829.62,0,0
42280.275,77.3708,-2810.35,0,0
42540.6,79.6365,-2792.71,0,0
42800.925,78.5617,-2778.54,0,0
43061.25,75.8878,-2760.34,0,0
43321.575,76.5773,-2743.4,0,0
43581.9,75.0897,-2726.81,0,0
43842.225,74.4977,-2709.57,0,0
44102.55,75.0578,-2693.92,0,0
44362.875,73.0466,-2677.2,0,0
44623.2,72.9282,-2660.42,0,0
44883.525,72.6165,-2644.7,0,0
45143.85,72.0515,-2628.75,0,0
45404.175,71.1454,-2612.34,0,0
45664.5,72.413,-2595.69,0,0
45924.825,73.2332,-2581.47,0,0
46185.15,72.7105,-2568.28,0,0
46445.475,71.3986,-2551.94,0,0
46705.8,72.1121,-2536.6,0,0
46966.125,72.2487,-2523.24,0,0
47226.45,72.3664,-2508.72,0,0
47486.775,72.4039,-2496.22,0,0
47747.1,70.6377,-2482.49,0,0
48007.425,70.0794,-2468.09,0,0
48267.75,69.256,-2454.49,0,0
48528.075,68.4459,-2440.82,0,0
48788.4,67.8273,-2427.17,0,0
49048.725,66.8443,-2413.4,0,0
49309.05,66.7262,-2398.95,0,0
49569.375,66.3595,-2386.34,0,0
49829.7,65.699,-2372.63,0,0
50090.025,65.5736,-2359.24,0,0
50350.35,65.1176,-2346.03,0,0
50610.675,64.9884,-2332.81,0,0
50871.0,64.8388,-2320.31,0,0
51131.325,64.398,-2307.11,0,0
51391.65,64.376,-2294.35,0,0
51651.975,64.5507,-2281.36,0,0
51912.3,64.5142,-2268.95,0,0
52172.625,64.8612,-2256.29,0,0
52432.95,65.116,-2244.12,0,0
52693.275,65.2151,-2231.43,0,0
52953.6,66.4535,-2218.74,0,0
53213.925,67.51,-2207.41,0,0
53474.25,68.069,-2195.36,0,0
53734.575,69.6612,-2183.32,0,0
53994.9,72.3153,-2172.19,0,0
54255.225,74.3622,-2162.75,0,0
54515.55,76.4707,-2153.79,0,0
54775.875,76.8732,-2146.73,0,0
55036.2,74.7689,-2138.49,0,0
55296.525,73.8358,-2128.46,0,0
55556.85,72.3946,-2119.35,0,0
55817.175,70.9934,-2109.17,0,0
56077.5,69.4346,-2099.34,0,0
56337.825,67.9152,-2088.42,0,0
56598.15,66.801,-2077.27,0,0
56858.475,66.2898,-2066.17,0,0
57118.8,66.2103,-2055.1,0,0
57379.125,66.5098,-2044.47,0,0
57639.45,66.7757,-2034.22,0,0
57899.775,66.8572,-2024.04,0,0
58160.1,67.0655,-2013.71,0,0
58420.4,67.8675,-2003.45,0,0
58680.7,68.5124,-1994.45,0,0
58941.1,68.2806,-1983.98,0,0
59201.4,69.1674,-1973.26,0,0
59461.7,71.3737,-1963.16,0,0
59722,73.864,-1954.23,0,0
59982.4,76.8075,-1946.4,0,0
60242.7,77.9304,-1940.09,0,0
60503,78.4964,-1932.44,0,0
60763.3,80.6227,-1925.6,0,0
61023.7,81.2949,-1921.79,0,0
61284,78.9894,-1916.76,0,0
61544.3,75.3833,-1910.7,0,0
61804.6,71.6907,-1901.46,0,0
62065,70.3202,-1892.37,0,0
62325.3,69.3625,-1884.1,0,0
62585.6,66.8064,-1875.83,0,0
62845.9,65.5677,-1865.52,0,0
63106.3,65.0301,-1856.16,0,0
63366.6,64.9684,-1846.92,0,0
63626.9,65.2071,-1838.27,0,0
63887.2,64.9939,-1830.25,0,0
64147.6,63.9161,-1821.39,0,0
64407.9,64.2272,-1812.11,0,0
64668.2,65.0952,-1803.75,0,0
64928.5,65.3068,-1795.9,0,0
65188.9,65.5192,-1787.79,0,0
65449.2,66.0791,-1779.58,0,0
65709.5,66.1395,-1772.02,0,0
65969.8,66.8895,-1763.62,0,0
66230.2,67.9139,-1756.31,0,0
66490.5,68.3607,-1748.98,0,0
66750.8,69.2246,-1741.68,0,0
67011.1,69.8048,-1734.57,0,0
67271.5,70.7097,-1727.33,0,0
67531.8,71.945,-1720.82,0,0
67792.1,72.8513,-1714.64,0,0
68052.4,73.7704,-1708.9,0,0
68312.8,74.2327,-1703.71,0,0
68573.1,74.1595,-1698.63,0,0
68833.4,73.4001,-1693.58,0,0
69093.7,71.8616,-1688.6,0,0
69354.1,70.0323,-1682.55,0,0
69614.4,68.1537,-1676,0,0
69874.7,66.706,-1668.57,0,0
70135,65.9447,-1661.49,0,0
70395.4,65.1293,-1654.53,0,0
70655.7,64.4109,-1646.58,0,0
70916,65.7042,-1639.67,0,0
71176.3,65.7933,-1634.54,0,0
71436.7,64.7944,-1628.69,0,0
71697,64.2074,-1622.38,0,0
71957.3,63.2392,-1617.06,0,0
72217.6,61.1384,-1610.73,0,0
72478,59.5632,-1603.36,0,0
72738.3,58.7493,-1595.98,0,0
72998.6,58.1215,-1588.82,0,0
73258.9,57.417,-1581.22,0,0
73519.3,57.7852,-1573.57,0,0
73779.6,58.1705,-1566.71,0,0
74039.9,58.526,-1559.79,0,0
74300.225,59.017,-1553.38,0,0
74560.55,59.297,-1546.91,0,0
74820.875,59.8134,-1540.53,0,0
75081.2,60.2651,-1534.15,0,0
75341.525,60.9217,-1528.22,0,0
75601.85,61.4441,-1522.38,0,0
75862.175,61.7844,-1516.67,0,0
76122.5,62.2091,-1510.87,0,0
76382.825,62.6766,-1505.31,0,0
76643.15,62.6443,-1500.09,0,0
76903.475,62.4321,-1494.1,0,0
77163.8,63.0459,-1487.72,0,0
77424.125,64.4465,-1482.19,0,0
77684.45,65.4205,-1477.52,0,0
77944.775,65.9645,-1473.17,0,0
78205.1,65.9651,-1468.84,0,0
78465.425,65.6345,-1464.36,0,0
78725.75,65.1243,-1459.8,0,0
78986.075,64.4519,-1455.16,0,0
79246.4,63.5212,-1450.22,0,0
79506.725,62.7201,-1444.85,0,0
79767.05,62.0997,-1439.43,0,0
80027.375,61.5795,-1433.93,0,0
80287.7,61.3319,-1428.45,0,0
80548.025,61.1052,-1423.07,0,0
80808.35,60.9373,-1417.77,0,0
81068.675,60.8629,-1412.59,0,0
81329.0,60.8271,-1407.45,0,0
81589.325,60.6723,-1402.43,0,0
81849.65,60.4627,-1397.48,0,0
82109.975,60.1823,-1392.54,0,0
82370.3,59.8886,-1387.46,0,0
82630.625,59.6573,-1382.46,0,0
82890.95,59.441,-1377.48,0,0
83151.275,59.2185,-1372.48,0,0
83411.6,58.892,-1367.57,0,0
83671.925,58.6614,-1362.53,0,0
83932.25,58.4163,-1357.64,0,0
84192.575,58.2979,-1352.7,0,0
84452.9,58.0936,-1347.86,0,0
84713.225,57.8752,-1342.93,0,0
84973.55,57.7391,-1338.02,0,0
85233.875,57.5961,-1333.16,0,0
85494.2,57.4699,-1328.42,0,0
85754.525,57.3053,-1323.69,0,0
86014.85,57.1285,-1318.9,0,0
86275.175,56.9679,-1314.22,0,0
86535.5,56.8662,-1309.43,0,0
86795.825,56.8055,-1304.89,0,0
87056.15,56.6568,-1300.33,0,0
87316.475,56.4503,-1295.74,0,0
87576.8,56.1861,-1291.24,0,0
87837.125,55.9231,-1286.83,0,0
88097.45,55.5052,-1282.43,0,0
88357.775,54.8068,-1277.85,0,0
88618.1,54.3159,-1272.86,0,0
88878.425,54.1382,-1267.92,0,0
89138.75,53.9346,-1263.01,0,0
89399.075,53.9068,-1258.12,0,0
89659.4,53.9582,-1253.42,0,0
89919.725,53.9696,-1248.76,0,0
90180,53.9552,-1244.28,0,0
90440.4,53.8936,-1239.71,0,0
90700.7,53.8103,-1235.07,0,0
90961,53.8457,-1230.58,0,0
91221.3,53.8214,-1225.94,0,0
91481.7,53.7686,-1221.38,0,0
91742,53.8625,-1216.71,0,0
92002.3,54.0996,-1212.19,0,0
92262.6,54.3938,-1207.69,0,0
92523,54.8078,-1203.44,0,0
92783.3,55.0933,-1199.29,0,0
93043.6,55.3812,-1195.33,0,0
93303.9,55.3698,-1191.42,0,0
93564.3,55.3089,-1187.43,0,0
93824.6,55.1196,-1183.49,0,0
94084.9,54.8191,-1179.6,0,0
94345.2,54.4319,-1175.4,0,0
94605.6,54.067,-1171.11,0,0
94865.9,53.6969,-1166.73,0,0
95126.2,53.5133,-1162.22,0,0
95386.5,53.4688,-1157.72,0,0
95646.9,53.3316,-1153.26,0,0
95907.2,53.4201,-1148.76,0,0
96167.5,53.623,-1144.35,0,0
96427.8,53.8414,-1140.01,0,0
96688.2,53.9747,-1135.75,0,0
96948.5,54.1177,-1131.43,0,0
97208.8,54.2588,-1127.14,0,0
97469.1,54.4785,-1122.91,0,0
97729.5,54.7133,-1118.71,0,0
97989.8,54.8465,-1114.45,0,0
98250.1,55.1451,-1110.17,0,0
98510.4,55.4665,-1105.94,0,0
98770.8,55.8198,-1101.64,0,0
99031.1,56.2543,-1097.35,0,0
99291.4,56.845,-1093.13,0,0
99551.7,57.5568,-1089.12,0,0
99812.1,58.0357,-1085.28,0,0
100072,58.4627,-1081.22,0,0
100333,59.1521,-1077.06,0,0
100593,60.2119,-1073.13,0,0
100853,61.393,-1069.67,0,0
101114,62.158,-1066.64,0,0
101374,62.7313,-1063.54,0,0
101634,63.3036,-1060.74,0,0
101895,63.238,-1058.3,0,0
102155,62.4794,-1055.67,0,0
102415,61.2789,-1052.16,0,0
102676,60.4486,-1048.21,0,0
102936,59.668,-1044.26,0,0
103196,58.8634,-1039.81,0,0
103457,58.3041,-1035,0,0
103717,58.1978,-1029.98,0,0
103977,58.5526,-1024.93,0,0
104238,59.2191,-1020.13,0,0
104498,59.8593,-1015.55,0,0
104758,60.7325,-1010.83,0,0
105019,61.8899,-1006.22,0,0
105279,63.1629,-1001.99,0,0
105539,64.3293,-997.935,0,0
105800,65.6077,-993.882,0,0
106060,66.9103,-989.952,0,0
106320.175,68.1673,-986.182,0,0
106580.5,69.4411,-982.377,0,0
106840.825,70.7932,-978.71,0,0
107101.15,72.0872,-975.177,0,0
107361.475,73.329,-971.673,0,0
107621.8,74.5859,-968.129,0,0
107882.125,75.8639,-964.5,0,0
108142.45,77.3604,-960.906,0,0
108402.775,78.9925,-957.426,0,0
108663.1,80.6549,-954.155,0,0
108923.425,82.5008,-951.044,0,0
109183.75,84.216,-948.18,0,0
109444.075,85.9466,-945.396,0,0
109704.4,87.6236,-942.875,0,0
109964.725,89.0545,-940.44,0,0
110225.05,90.375,-937.996,0,0
110485.375,91.7557,-935.51,0,0
110745.7,93.1214,-933.187,0,0
111006.025,94.2969,-930.82,0,0
111266.35,95.436,-928.591,0,0
111526.675,96.6971,-926.399,0,0
111787.0,97.9141,-924.147,0,0
112047.325,99.0716,-921.916,0,0
112307.65,100.244,-919.866,0,0
112567.975,101.355,-917.927,0,0
112828.3,102.372,-916,0,0
113088.625,103.466,-914.121,0,0
113348.95,104.367,-912.358,0,0
113609.275,105.241,-910.716,0,0
113869.6,105.907,-909.007,0,0
114129.925,106.561,-907.292,0,0
114390.25,107.167,-905.647,0,0
114650.575,107.738,-904.022,0,0
114910.9,108.248,-902.416,0,0
115171.225,108.704,-900.827,0,0
115431.55,109.018,-899.371,0,0
115691.875,109.195,-897.92,0,0
115952.2,109.162,-896.371,0,0
116212.525,109.095,-894.682,0,0
116472.85,109.13,-893.022,0,0
116733.175,108.917,-891.478,0,0
116993.5,108.55,-889.759,0,0
117253.825,108.054,-887.869,0,0
117514.15,107.613,-885.811,0,0
117774.475,107.089,-883.549,0,0
118034.8,106.641,-881.13,0,0
118295.125,106.407,-878.51,0,0
118555.45,106.324,-875.791,0,0
118815.775,106.465,-872.939,0,0
119076.1,106.952,-870.093,0,0
119336.425,107.916,-867.356,0,0
119596.75,109.367,-865.128,0,0
119857.075,110.865,-863.599,0,0
120117.4,112.061,-862.685,0,0
120377.725,112.82,-862.412,0,0
120638.05,112.896,-862.357,0,0
120898.375,112.019,-862.333,0,0
121158.7,110.456,-861.599,0,0
121419.025,108.848,-860.273,0,0
121679.35,107.276,-858.463,0,0
121939.675,105.894,-856.392,0,0
122200.0,104.699,-854.202,0,0
122460,103.472,-851.883,0,0
122721,102.394,-849.382,0,0
122981,101.512,-846.739,0,0
123241,100.79,-844.233,0,0
123502,100.079,-841.699,0,0
123762,99.4629,-839.152,0,0
124022,98.8983,-836.659,0,0
124283,98.3449,-834.204,0,0
124543,97.7202,-831.782,0,0
124803,97.0835,-829.341,0,0
125064,96.4968,-826.777,0,0
125324,96.0358,-824.226,0,0
125584,95.5932,-821.794,0,0
125845,95.0713,-819.297,0,0
126105,94.7057,-816.864,0,0
126365,94.352,-814.636,0,0
126626,93.8033,-812.595,0,0
126886,92.9798,-810.459,0,0
127146,92.1832,-808.191,0,0
127406,91.195,-805.755,0,0
127667,90.2358,-803.285,0,0
127927,89.401,-800.86,0,0
128187,88.4299,-798.445,0,0
128448,87.3112,-795.956,0,0
128708,86.0869,-793.281,0,0
128968,84.9659,-790.486,0,0
129229,83.7538,-787.674,0,0
129489,82.4746,-784.744,0,0
129749,81.1468,-781.5,0,0
130010,79.9856,-778.096,0,0
130270,79.0433,-774.625,0,0
130530,78.106,-771.133,0,0
130791,77.3237,-767.559,0,0
131051,76.5441,-764.034,0,0
131311,75.7925,-760.326,0,0
131572,75.2486,-756.576,0,0
131832,74.7934,-752.853,0,0
132092,74.4056,-749.178,0,0
132353,73.9709,-745.531,0,0
132613,73.6189,-741.733,0,0
132873,73.4225,-737.927,0,0
133134,73.279,-734.166,0,0
133394,73.1616,-730.431,0,0
133654,73.061,-726.699,0,0
133915,73.0016,-722.879,0,0
134175,73.072,-719.061,0,0
134435,73.235,-715.272,0,0
134696,73.4501,-711.48,0,0
134956,73.67,-707.715,0,0
135216,74.0026,-703.924,0,0
135477,74.393,-700.207,0,0
135737,74.9037,-696.491,0,0
135997,75.4579,-692.891,0,0
136258,75.9363,-689.348,0,0
136518,76.3748,-685.772,0,0
136778,76.9415,-682.149,0,0
137039,77.6153,-678.596,0,0
137299,78.3148,-675.211,0,0
137559,78.8801,-671.923,0,0
137819,79.3542,-668.641,0,0
138080,79.6882,-665.311,0,0
138340.125,79.986,-661.829,0,0
138600.45,80.3483,-658.21,0,0
138860.775,80.8023,-654.529,0,0
139121.1,81.2885,-650.86,0,0
139381.425,81.8649,-647.096,0,0
139641.75,82.508,-643.32,0,0
139902.075,83.2086,-639.575,0,0
140162.4,83.9351,-635.777,0,0
140422.725,84.7711,-631.944,0,0
140683.05,85.6662,-628.098,0,0
140943.375,86.6598,-624.271,0,0
141203.7,87.7688,-620.43,0,0
141464.025,88.9605,-616.695,0,0
141724.35,90.1803,-613.073,0,0
141984.675,91.352,-609.489,0,0
142245.0,92.503,-605.884,0,0
142505.325,93.6863,-602.234,0,0
142765.65,94.964,-598.586,0,0
143025.975,96.2197,-595.002,0,0
143286.3,97.4804,-591.372,0,0
143546.625,98.8047,-587.74,0,0
143806.95,100.115,-584.094,0,0
144067.275,101.487,-580.405,0,0
144327.6,102.904,-576.705,0,0
144587.925,104.373,-572.98,0,0
144848.25,105.94,-569.244,0,0
145108.575,107.573,-565.533,0,0
145368.9,109.266,-561.809,0,0
145629.225,110.992,-558.117,0,0
145889.55,112.802,-554.407,0,0
146149.875,114.679,-550.717,0,0
146410.2,116.578,-547.041,0,0
146670.525,118.56,-543.258,0,0
146930.85,120.708,-539.595,0,0
147191.175,122.871,-536.036,0,0
147451.5,124.997,-532.464,0,0
147711.825,127.181,-528.865,0,0
147972.15,129.451,-525.291,0,0
148232.475,131.688,-521.737,0,0
148492.8,133.963,-518.064,0,0
148753.125,136.404,-514.311,0,0
149013.45,139.013,-510.566,0,0
149273.775,141.778,-506.91,0,0
149534.1,144.614,-503.252,0,0
149794.425,147.571,-499.623,0,0
150054.75,150.732,-495.989,0,0
150315.075,154.017,-492.541,0,0
150575.4,157.322,-489.157,0,0
150835.725,160.727,-485.804,0,0
151096.05,164.319,-482.469,0,0
151356.375,168.11,-479.22,0,0
151616.7,172.146,-476.192,0,0
151877.025,176.193,-473.41,0,0
152137.35,180.239,-470.783,0,0
152397.675,184.356,-468.217,0,0
152658.0,188.666,-465.711,0,0
152918.325,193.125,-463.527,0,0
153178.65,197.622,-461.619,0,0
153438.975,202.14,-459.97,0,0
153699.3,206.662,-458.67,0,0
153959.625,211.059,-457.696,0,0
154219.95,215.179,-456.99,0,0
154480,218.976,-456.368,0,0
154741,222.638,-455.814,0,0
155001,226.01,-455.342,0,0
155261,229.078,-454.622,0,0
155522,232.336,-453.68,0,0
155782,235.651,-452.802,0,0
156042,239.101,-451.988,0,0
156303,242.42,-451.369,0,0
156563,245.777,-450.769,0,0
156823,248.922,-450.528,0,0
157084,251.504,-450.087,0,0
157344,254.357,-449.131,0,0
157604,257.436,-448.309,0,0
157864,260.284,-447.645,0,0
158125,262.984,-446.522,0,0
158385,266.345,-445.084,0,0
158645,270.131,-443.935,0,0
158906,273.9,-443.057,0,0
159166,278.104,-442.22,0,0
159426,282.625,-442.148,0,0
159687,286.938,-442.456,0,0
159947,291.17,-443.207,0,0
160207,295.139,-444.469,0,0
160468,298.565,-445.997,0,0
160728,301.48,-447.554,0,0
160988,304.383,-448.995,0,0
161249,306.92,-450.832,0,0
161509,308.933,-452.929,0,0
161769,310.176,-454.652,0,0
162030,311.093,-455.932,0,0
162290,311.699,-456.689,0,0
162550,312.361,-457.004,0,0
162811,313.096,-456.772,0,0
163071,314.097,-456.493,0,0
163331,315.02,-456.007,0,0
163592,316.165,-455.293,0,0
163852,317.313,-454.318,0,0
164112,318.651,-453.006,0,0
164373,320.409,-451.262,0,0
164633,322.692,-449.471,0,0
164893,325.721,-447.798,0,0
165154,328.927,-446.384,0,0
165414,332.476,-445.414,0,0
165674,335.996,-444.743,0,0
165935,339.357,-444.132,0,0
166195,343.01,-443.383,0,0
166455,346.895,-442.751,0,0
166716,351.145,-441.975,0,0
166976,356.189,-441.468,0,0
167236,361.618,-441.632,0,0
167497,367.199,-442.413,0,0
167757,373.075,-443.803,0,0
168017,379.184,-445.961,0,0
168277,385.37,-448.99,0,0
168538,391.225,-453.294,0,0
168798,396.235,-458.433,0,0
169058,400.41,-463.981,0,0
169319,403.968,-469.724,0,0
169579,407.021,-475.787,0,0
169839,409.424,-482.312,0,0
170100,411.007,-488.79,0,0
170360.075,412.292,-495.37,0,0
170620.4,413.106,-502.402,0,0
170880.725,413.092,-510.032,0,0
171141.05,411.667,-518.05,0,0
171401.375,408.645,-525.652,0,0
171661.7,404.55,-532.246,0,0
171922.025,399.933,-538.059,0,0
172182.35,394.764,-543.161,0,0
172442.675,389.247,-547.426,0,0
172703.0,383.502,-551.241,0,0
172963.325,377.098,-554.59,0,0
173223.65,369.97,-556.845,0,0
173483.975,362.872,-557.755,0,0
173744.3,356.114,-557.788,0,0
174004.625,349.528,-557.049,0,0
174264.95,343.467,-555.631,0,0
174525.275,337.696,-553.842,0,0
174785.6,332.067,-551.494,0,0
175045.925,326.869,-548.494,0,0
175306.25,322.19,-545.176,0,0
175566.575,317.88,-541.634,0,0
175826.9,313.831,-537.723,0,0
176087.225,310.274,-533.417,0,0
176347.55,307.189,-528.929,0,0
176607.875,304.569,-524.279,0,0
176868.2,302.473,-519.555,0,0
177128.525,300.75,-514.87,0,0
177388.85,299.327,-510.162,0,0
177649.175,298.307,-505.402,0,0
177909.5,297.724,-500.668,0,0
178169.825,297.618,-496.157,0,0
178430.15,297.69,-492.004,0,0
178690.475,297.772,-488.054,0,0
178950.8,297.888,-484.162,0,0
179211.125,298.128,-480.341,0,0
179471.45,298.482,-476.594,0,0
179731.775,298.872,-472.842,0,0
179992.1,299.411,-469.178,0,0
180252.425,300.062,-465.541,0,0
180512.75,300.791,-462.11,0,0
180773.075,301.489,-458.701,0,0
181033.4,302.139,-455.349,0,0
181293.725,302.815,-451.935,0,0
181554.05,303.594,-448.554,0,0
181814.375,304.342,-445.201,0,0
182074.7,305.095,-441.861,0,0
182335.025,305.794,-438.481,0,0
182595.35,306.448,-435.029,0,0
182855.675,307.094,-431.466,0,0
183116.0,307.746,-427.783,0,0
183376.325,308.44,-423.943,0,0
183636.65,309.186,-419.934,0,0
183896.975,310.084,-415.721,0,0
184157.3,311.141,-411.395,0,0
184417.625,312.374,-406.969,0,0
184677.95,313.753,-402.464,0,0
184938.275,315.314,-397.899,0,0
185198.6,316.982,-393.272,0,0
185458.925,318.75,-388.525,0,0
185719.25,320.678,-383.616,0,0
185979.575,322.871,-378.587,0,0
186239.9,325.307,-373.462,0,0
186500,328.011,-368.297,0,0
186761,330.952,-363.126,0,0
187021,334.078,-358,0,0
187281,337.473,-352.797,0,0
187542,341.038,-347.529,0,0
187802,344.816,-342.274,0,0
188062,348.924,-336.94,0,0
188322,353.278,-331.615,0,0
188583,357.964,-326.371,0,0
188843,362.773,-321.113,0,0
189103,367.992,-315.767,0,0
189364,373.523,-310.558,0,0
189624,379.374,-305.456,0,0
189884,385.41,-300.321,0,0
190145,391.818,-295.242,0,0
190405,398.657,-290.147,0,0
190665,405.991,-285.273,0,0
190926,413.544,-280.587,0,0
191186,421.583,-276.145,0,0
191446,429.929,-271.892,0,0
191707,438.703,-268.041,0,0
191967,447.705,-264.409,0,0
192227,457.063,-261.202,0,0
192488,466.65,-258.394,0,0
192748,476.347,-255.921,0,0
193008,486.38,-253.784,0,0
193269,496.62,-251.925,0,0
193529,506.929,-250.664,0,0
193789,517.341,-249.766,0,0
194050,527.803,-249.058,0,0
194310,538.315,-248.716,0,0
194570,548.928,-248.508,0,0
194831,559.88,-248.595,0,0
195091,571.004,-249.082,0,0
195351,582.264,-249.994,0,0
195612,593.6,-251.27,0,0
195872,605.044,-252.803,0,0
196132,616.697,-254.68,0,0
196393,628.59,-256.913,0,0
196653,640.683,-259.578,0,0
196913,652.969,-262.704,0,0
197174,665.498,-266.179,0,0
197434,678.41,-270.28,0,0
197694,691.573,-275.075,0,0
197955,705.01,-280.692,0,0
198215,718.548,-287.207,0,0
198475,732.089,-294.745,0,0
198735,745.369,-303.16,0,0
198996,758.471,-312.377,0,0
199256,771.547,-322.565,0,0
199516,784.221,-333.898,0,0
199777,796.347,-346.452,0,0
200037,807.53,-360.043,0,0
200297,817.789,-374.269,0,0
200558,827.061,-389.134,0,0
200818,835.344,-404.517,0,0
201078,842.802,-420.303,0,0
201339,849.368,-436.536,0,0
201599,854.701,-453.344,0,0
201859,858.817,-470.221,0,0
202120,861.887,-487.068,0,0
202380.025,864.07,-503.653,0,0
202640.35,865.055,-520.338,0,0
202900.675,864.777,-536.72,0,0
203161.0,863.285,-552.258,0,0
203421.325,861.305,-566.615,0,0
203681.65,859.659,-580.383,0,0
203941.975,857.869,-594.032,0,0
204202.3,855.918,-607.654,0,0
204462.625,853.469,-621.524,0,0
204722.95,850.086,-635.571,0,0
204983.275,845.988,-648.681,0,0
205243.6,841.745,-661.107,0,0
205503.925,837.616,-673.433,0,0
205764.25,832.951,-685.767,0,0
206024.575,827.93,-697.898,0,0
206284.9,822.624,-709.984,0,0
206545.225,816.708,-721.757,0,0
206805.55,810.466,-733.126,0,0
207065.875,803.987,-744.221,0,0
207326.2,797.191,-755.066,0,0
207586.525,789.982,-766.132,0,0
207846.85,782.307,-776.941,0,0
208107.175,773.699,-787.549,0,0
208367.5,764.331,-797.832,0,0
208627.825,754.087,-807.467,0,0
208888.15,743.087,-816.032,0,0
209148.475,731.799,-823.446,0,0
209408.8,720.398,-829.834,0,0
209669.125,708.919,-835.182,0,0
209929.45,697.678,-839.518,0,0
210189.775,686.497,-843.257,0,0
210450.1,675.881,-845.929,0,0
210710.425,665.822,-847.89,0,0
210970.75,656.314,-849.84,0,0
211231.075,647.143,-851.26,0,0
211491.4,638.142,-852.348,0,0
211751.725,629.381,-853.153,0,0
212012.05,620.815,-853.397,0,0
212272.375,612.747,-853.239,0,0
212532.7,605.086,-852.697,0,0
212793.025,597.943,-851.826,0,0
213053.35,591.375,-850.736,0,0
213313.675,585.311,-849.627,0,0
213574.0,579.865,-848.437,0,0
213834.325,574.703,-847.109,0,0
214094.65,570.212,-845.654,0,0
214354.975,566.231,-844.475,0,0
214615.3,562.78,-843.46,0,0
214875.625,559.912,-842.871,0,0
215135.95,557.522,-842.906,0,0
215396.275,555.067,-843.499,0,0
215656.6,552.604,-844.579,0,0
215916.925,549.82,-846.15,0,0
216177.25,546.901,-847.764,0,0
216437.575,543.628,-849.704,0,0
216697.9,540.049,-851.654,0,0
216958.225,536.263,-853.587,0,0
217218.55,532.411,-855.402,0,0
217478.875,528.433,-857.235,0,0
217739.2,524.449,-859.105,0,0
217999.525,520.212,-860.915,0,0
218259.85,515.753,-862.535,0,0
218520,511.256,-864.211,0,0
218780,506.585,-865.454,0,0
219041,501.875,-866.558,0,0
219301,497.493,-867.439,0,0
219561,493.209,-868.08,0,0
219822,489.262,-869.017,0,0
220082,485.391,-870.279,0,0
220342,481.448,-871.559,0,0
220603,477.101,-872.969,0,0
220863,472.649,-874.256,0,0
221123,468.163,-875.442,0,0
221384,463.639,-876.639,0,0
221644,459.087,-877.777,0,0
221904,454.285,-879.043,0,0
222165,449.31,-879.992,0,0
222425,444.131,-880.75,0,0
222685,438.936,-881.211,0,0
222946,433.975,-881.43,0,0
223206,429.222,-881.552,0,0
223466,424.558,-881.71,0,0
223727,419.921,-881.921,0,0
223987,415.314,-882.233,0,0
224247,410.662,-882.546,0,0
224508,405.917,-882.849,0,0
224768,401.136,-883.025,0,0
225028,396.223,-883.283,0,0
225289,391.268,-883.544,0,0
225549,386.291,-883.752,0,0
225809,380.895,-883.953,0,0
226070,375.37,-884.001,0,0
226330,369.592,-883.828,0,0
226590,363.704,-883.216,0,0
226851,357.756,-882.165,0,0
227111,352.046,-880.897,0,0
227371,346.453,-879.41,0,0
227632,341.013,-877.89,0,0
227892,335.341,-876.29,0,0
228152,329.979,-874.365,0,0
228413,324.546,-872.251,0,0
228673,318.944,-870.04,0,0
228933,313.556,-867.299,0,0
229193,308.363,-864.459,0,0
229454,303.356,-861.312,0,0
229714,298.675,-857.937,0,0
229974,294.069,-854.491,0,0
230235,289.815,-850.91,0,0
230495,285.752,-847.259,0,0
230755,281.915,-843.357,0,0
231016,278.524,-839.518,0,0
231276,275.288,-835.643,0,0
231536,272.342,-831.818,0,0
231797,269.587,-828.089,0,0
232057,267.042,-824.567,0,0
232317,264.514,-821.079,0,0
232578,262.064,-817.597,0,0
232838,259.732,-814.15,0,0
233098,257.538,-810.653,0,0
233359,255.457,-807.131,0,0
233619,253.503,-803.727,0,0
233879,251.762,-800.32,0,0
234140,250.07,-797.07,0,0
234400,248.586,-793.748,0,0
234660.3,247.164,-790.671,0,0
234920.625,245.734,-787.572,0,0
235180.95,244.468,-784.474,0,0
235441.275,243.258,-781.482,0,0
235701.6,242.166,-778.616,0,0
235961.925,241.129,-775.814,0,0
236222.25,240.095,-773.133,0,0
236482.575,239.013,-770.493,0,0
236742.9,237.991,-767.86,0,0
237003.225,236.969,-765.217,0,0
237263.55,235.985,-762.551,0,0
237523.875,235.1,-759.847,0,0
237784.2,234.372,-757.144,0,0
238044.525,233.718,-754.498,0,0
238304.85,233.208,-751.946,0,0
238565.175,232.831,-749.468,0,0
238825.5,232.569,-747.174,0,0
239085.825,232.365,-744.992,0,0
239346.15,232.178,-742.929,0,0
239606.475,231.937,-741.031,0,0
239866.8,231.692,-739.181,0,0
240127.125,231.569,-737.463,0,0
240387.45,231.227,-735.838,0,0
240647.775,230.993,-734.377,0,0
240908.1,230.773,-732.99,0,0
241168.425,230.39,-731.735,0,0
241428.75,229.888,-730.518,0,0
241689.075,229.32,-729.348,0,0
241949.4,228.691,-728.162,0,0
242209.725,227.977,-727.006,0,0
242470.05,227.282,-725.822,0,0
242730.375,226.496,-724.711,0,0
242990.7,225.612,-723.659,0,0
243251.025,224.615,-722.574,0,0
243511.35,223.57,-721.321,0,0
243771.675,222.538,-720.054,0,0
244032.0,221.541,-718.901,0,0
244292.325,220.405,-717.73,0,0
244552.65,219.183,-716.547,0,0
244812.975,217.883,-715.171,0,0
245073.3,216.576,-713.828,0,0
245333.625,215.247,-712.295,0,0
245593.95,213.841,-710.713,0,0
245854.275,212.55,-709.032,0,0
246114.6,211.181,-707.195,0,0
246374.925,209.922,-705.184,0,0
246635.25,208.859,-703.127,0,0
246895.575,207.902,-701.078,0,0
247155.9,207.055,-698.933,0,0
247416.225,206.234,-696.91,0,0
247676.55,205.611,-694.851,0,0
247936.875,205.107,-692.907,0,0
248197.2,204.768,-691.014,0,0
248457.525,204.284,-689.363,0,0
248717.85,203.805,-687.644,0,0
248978.175,203.362,-686.046,0,0
249238.5,202.833,-684.434,0,0
249498.825,202.279,-682.956,0,0
249759.15,201.614,-681.444,0,0
250019.475,200.91,-679.948,0,0
250279.8,200.219,-678.411,0,0
250540,199.479,-676.753,0,0
250800,198.786,-675.099,0,0
251061,198.279,-673.515,0,0
251321,197.578,-672.1,0,0
251581,196.829,-670.62,0,0
251842,195.997,-669.216,0,0
252102,195.069,-667.766,0,0
252362,193.871,-666.286,0,0
252623,192.656,-664.643,0,0
252883,191.269,-662.892,0,0
253143,189.808,-660.911,0,0
253404,188.286,-658.613,0,0
253664,186.853,-656.021,0,0
253924,185.603,-653.167,0,0
254185,184.595,-650.235,0,0
254445,183.837,-647.207,0,0
254705,183.13,-644.149,0,0
254966,182.554,-641.076,0,0
255226,182.127,-637.877,0,0
255486,181.79,-634.616,0,0
255747,181.59,-631.251,0,0
256007,181.503,-627.856,0,0
256267,181.576,-624.273,0,0
256528,181.932,-620.638,0,0
256788,182.523,-616.922,0,0
257048,183.407,-613.263,0,0
257309,184.508,-609.632,0,0
257569,185.803,-606.105,0,0
257829,187.287,-602.651,0,0
258090,188.908,-599.232,0,0
258350,190.737,-595.899,0,0
258610,192.671,-592.636,0,0
258871,194.818,-589.341,0,0
259131,197.206,-586.143,0,0
259391,199.838,-582.99,0,0
259651,202.749,-579.94,0,0
259912,205.962,-577.077,0,0
260172,209.434,-574.459,0,0
260432,213.072,-572.139,0,0
260693,216.889,-569.992,0,0
260953,220.924,-568.148,0,0
261213,225.206,-566.698,0,0
261474,229.555,-565.591,0,0
261734,233.919,-564.93,0,0
261994,238.205,-564.659,0,0
262255,242.299,-564.688,0,0
262515,246.286,-564.827,0,0
262775,250.29,-565.091,0,0
263036,254.339,-565.633,0,0
263296,258.396,-566.393,0,0
263556,262.616,-567.42,0,0
263817,266.687,-569.052,0,0
264077,270.447,-570.961,0,0
264337,273.954,-573.005,0,0
264598,277.226,-575.17,0,0
264858,280.525,-577.437,0,0
265118,283.788,-579.818,0,0
265379,287.023,-582.628,0,0
265639,290.123,-585.722,0,0
265899,293.113,-589.182,0,0
266160,295.778,-592.982,0,0
266420,298.162,-597.214,0,0
266680.25,299.999,-601.707,0,0
266940.575,301.386,-606.383,0,0
267200.9,302.194,-611.21,0,0
267461.225,302.428,-616.014,0,0
267721.55,302.079,-620.621,0,0
267981.875,301.319,-624.907,0,0
268242.2,300.351,-628.928,0,0
268502.525,299.279,-632.76,0,0
268762.85,298.051,-636.416,0,0
269023.175,296.725,-640.018,0,0
269283.5,295.217,-643.562,0,0
269543.825,293.384,-647.166,0,0
269804.15,291.271,-650.727,0,0
270064.475,288.481,-654.078,0,0
270324.8,285.213,-656.804,0,0
270585.125,281.974,-658.871,0,0
270845.45,278.863,-660.392,0,0
271105.775,276.112,-661.572,0,0
271366.1,273.58,-662.501,0,0
271626.425,271.346,-663.332,0,0
271886.75,269.39,-664.119,0,0
272147.075,267.707,-665.005,0,0
272407.4,266.188,-666.103,0,0
272667.725,264.69,-667.428,0,0
272928.05,263.025,-669.09,0,0
273188.375,261.16,-670.79,0,0
273448.7,259.061,-672.483,0,0
273709.025,256.813,-674.12,0,0
273969.35,254.41,-675.865,0,0
274229.675,251.846,-677.501,0,0
274490.0,249.024,-679.095,0,0
274750.325,246.168,-680.557,0,0
275010.65,242.96,-682.055,0,0
275270.975,239.478,-683.266,0,0
275531.3,235.695,-684.357,0,0
275791.625,231.795,-685.177,0,0
276051.95,227.677,-685.588,0,0
276312.275,223.444,-685.694,0,0
276572.6,219.197,-685.333,0,0
276832.925,214.952,-684.577,0,0
277093.25,210.736,-683.445,0,0
277353.575,206.728,-681.911,0,0
277613.9,202.973,-680.018,0,0
277874.225,199.463,-677.908,0,0
278134.55,196.218,-675.52,0,0
278394.875,193.285,-672.977,0,0
278655.2,190.634,-670.323,0,0
278915.525,188.16,-667.465,0,0
279175.85,186.047,-664.514,0,0
279436.175,184.34,-661.436,0,0
279696.5,182.933,-658.315,0,0
279956.825,182.11,-655.289,0,0
280217.15,181.518,-652.461,0,0
280477.475,181.24,-649.937,0,0
280737.8,181.13,-647.72,0,0
280998.125,181.141,-645.705,0,0
281258.45,181.118,-644.037,0,0
281518.775,181.005,-642.501,0,0
281779.1,180.914,-641.109,0,0
282039.425,180.695,-639.901,0,0
282299.75,180.304,-638.699,0,0
282560,179.806,-637.442,0,0
282820,179.278,-636.008,0,0
283081,178.902,-634.408,0,0
283341,178.821,-632.804,0,0
283601,178.993,-631.332,0,0
283862,179.294,-630.117,0,0
284122,179.7,-629.201,0,0
284382,179.993,-628.628,0,0
284643,180.101,-628.258,0,0
284903,179.945,-627.962,0,0
285163,179.598,-627.556,0,0
285424,179.148,-627.168,0,0
285684,178.616,-626.741,0,0
285944,177.992,-626.303,0,0
286205,177.353,-625.879,0,0
286465,176.491,-625.449,0,0
286725,175.514,-624.977,0,0
286986,174.378,-624.338,0,0
287246,173.102,-623.577,0,0
287506,171.746,-622.602,0,0
287767,170.261,-621.341,0,0
288027,168.806,-619.724,0,0
288287,167.48,-617.675,0,0
288548,166.458,-615.35,0,0
288808,165.765,-612.857,0,0
289068,165.39,-610.173,0,0
289329,165.45,-607.399,0,0
289589,165.883,-604.631,0,0
289849,166.763,-601.894,0,0
290109,168.106,-599.387,0,0
290370,169.802,-597.135,0,0
290630,171.768,-595.228,0,0
290890,173.96,-593.666,0,0
291151,176.249,-592.505,0,0
291411,178.661,-591.617,0,0
291671,181.168,-591.11,0,0
291932,183.724,-591.003,0,0
292192,186.218,-591.331,0,0
292452,188.625,-592.06,0,0
292713,190.798,-593.119,0,0
292973,192.775,-594.442,0,0
293233,194.557,-596.029,0,0
293494,196.163,-597.838,0,0
293754,197.528,-599.958,0,0
294014,198.521,-602.347,0,0
294275,199.165,-604.913,0,0
294535,199.418,-607.524,0,0
294795,199.24,-610.19,0,0
295056,198.766,-612.894,0,0
295316,197.851,-615.492,0,0
295576,196.513,-617.943,0,0
295837,194.88,-620.169,0,0
296097,193.027,-622.114,0,0
296357,190.972,-623.812,0,0
296618,188.797,-625.268,0,0
296878,186.514,-626.47,0,0
297138,184.158,-627.453,0,0
297399,181.717,-628.123,0,0
297659,179.326,-628.573,0,0
297919,176.98,-628.777,0,0
298180,174.703,-628.834,0,0
298440,172.523,-628.672,0,0
298700.2,170.496,-628.374,0,0
298960.525,168.607,-627.994,0,0
299220.85,166.844,-627.611,0,0
299481.175,165.102,-627.255,0,0
299741.5,163.442,-626.941,0,0
300001.825,161.793,-626.478,0,0
300262.15,160.115,-626.059,0,0
300522.475,158.484,-625.57,0,0
300782.8,156.868,-625.043,0,0
301043.125,155.307,-624.507,0,0
301303.45,153.714,-623.989,0,0
301563.775,152.122,-623.404,0,0
301824.1,150.502,-622.777,0,0
302084.425,148.882,-622.064,0,0
302344.75,147.264,-621.283,0,0
302605.075,145.66,-620.403,0,0
302865.4,144.161,-619.438,0,0
303125.725,142.719,-618.429,0,0
303386.05,141.377,-617.406,0,0
303646.375,140.046,-616.36,0,0
303906.7,138.776,-615.274,0,0
304167.025,137.529,-614.14,0,0
304427.35,136.367,-613.01,0,0
304687.675,135.31,-611.823,0,0
304948.0,134.236,-610.688,0,0
305208.325,133.283,-609.549,0,0
305468.65,132.277,-608.349,0,0
305728.975,131.37,-607.143,0,0
305989.3,130.505,-605.911,0,0
306249.625,129.723,-604.686,0,0
306509.95,129.012,-603.45,0,0
306770.275,128.399,-602.223,0,0
307030.6,127.852,-601.044,0,0
307290.925,127.397,-599.919,0,0
307551.25,126.991,-598.911,0,0
307811.575,126.56,-597.951,0,0
308071.9,126.132,-597.073,0,0
308332.225,125.717,-596.181,0,0
308592.55,125.268,-595.398,0,0
308852.875,124.868,-594.604,0,0
309113.2,124.417,-593.873,0,0
309373.525,123.921,-593.17,0,0
309633.85,123.43,-592.5,0,0
309894.175,122.896,-591.855,0,0
310154.5,122.327,-591.196,0,0
310414.825,121.714,-590.5,0,0
310675.15,121.128,-589.862,0,0
310935.475,120.518,-589.224,0,0
311195.8,119.84,-588.565,0,0
311456.125,119.149,-587.842,0,0
311716.45,118.462,-587.125,0,0
311976.775,117.725,-586.386,0,0
312237.1,116.977,-585.589,0,0
312497.425,116.248,-584.734,0,0
312757.75,115.561,-583.849,0,0
313018.075,114.893,-582.898,0,0
313278.4,114.278,-581.935,0,0
313538.725,113.727,-580.962,0,0
313799.05,113.244,-580.001,0,0
314059.375,112.765,-579.071,0,0
314319.7,112.375,-578.12,0,0
314580,111.939,-577.177,0,0
314840,111.511,-576.312,0,0
315101,111.306,-575.338,0,0
315361,111.015,-574.465,0,0
315621,110.768,-573.638,0,0
315882,110.558,-572.849,0,0
316142,110.304,-572.09,0,0
316402,110.221,-571.434,0,0
316663,110.036,-570.796,0,0
316923,109.846,-570.212,0,0
317183,109.589,-569.712,0,0
317444,109.409,-569.18,0,0
317704,109.254,-568.683,0,0
317964,108.963,-568.314,0,0
318225,108.706,-567.961,0,0
318485,108.493,-567.703,0,0
318745,108.121,-567.453,0,0
319006,107.638,-567.281,0,0
319266,107.174,-567.065,0,0
319526,106.626,-566.891,0,0
319787,105.961,-566.737,0,0
320047,105.229,-566.517,0,0
320307,104.525,-566.276,0,0
320567,103.645,-566.077,0,0
320828,102.815,-565.894,0,0
321088,101.838,-565.658,0,0
321348,100.888,-565.38,0,0
321609,99.8206,-565.14,0,0
321869,98.5883,-564.784,0,0
322129,97.249,-564.365,0,0
322390,95.9476,-563.786,0,0
322650,94.5719,-563.104,0,0
322910,93.128,-562.289,0,0
323171,91.7559,-561.294,0,0
323431,90.3457,-560.17,0,0
323691,89.0992,-558.913,0,0
323952,87.9475,-557.582,0,0
324212,86.8523,-556.127,0,0
324472,85.8958,-554.657,0,0
324733,85.0476,-553.125,0,0
324993,84.3335,-551.666,0,0
325253,83.8126,-550.279,0,0
325514,83.1408,-548.995,0,0
325774,82.572,-547.573,0,0
326034,82.0532,-546.232,0,0
326295,81.5284,-544.93,0,0
326555,81.0554,-543.674,0,0
326815,80.4731,-542.32,0,0
327076,80.0164,-540.968,0,0
327336,79.5147,-539.636,0,0
327596,79.0863,-538.299,0,0
327857,78.728,-536.864,0,0
328117,78.2693,-535.427,0,0
328377,77.9336,-534.066,0,0
328638,77.7346,-532.645,0,0
328898,77.5171,-531.223,0,0
329158,77.3285,-529.746,0,0
329419,77.2186,-528.345,0,0
329679,77.2881,-526.867,0,0
329939,77.3322,-525.529,0,0
330200,77.419,-524.189,0,0
330460,77.6134,-522.895,0,0
330720.15,77.8612,-521.614,0,0
330980.475,78.1888,-520.443,0,0
331240.8,78.441,-519.505,0,0
331501.125,78.7729,-518.495,0,0
331761.45,79.1186,-517.622,0,0
332021.775,79.3819,-516.799,0,0
332282.1,79.5658,-516.117,0,0
332542.425,79.7411,-515.388,0,0
332802.75,79.8951,-514.762,0,0
333063.075,79.9483,-514.176,0,0
333323.4,80.0329,-513.522,0,0
333583.725,79.9479,-512.929,0,0
333844.05,79.9005,-512.343,0,0
334104.375,79.7604,-511.721,0,0
334364.7,79.6186,-511.12,0,0
334625.025,79.4305,-510.471,0,0
334885.35,79.1205,-509.82,0,0
335145.675,78.7721,-509.149,0,0
335406.0,78.5632,-508.387,0,0
335666.325,78.2536,-507.624,0,0
335926.65,77.9584,-506.868,0,0
336186.975,77.598,-505.985,0,0
336447.3,77.1819,-505.158,0,0
336707.625,76.9202,-504.23,0,0
336967.95,76.5001,-503.274,0,0
337228.275,76.1847,-502.223,0,0
337488.6,75.9062,-501.175,0,0
337748.925,75.5471,-500.079,0,0
338009.25,75.2868,-498.919,0,0
338269.575,75.1093,-497.622,0,0
338529.9,75.0034,-496.413,0,0
338790.225,74.9077,-495.091,0,0
339050.55,74.9132,-493.826,0,0
339310.875,74.9712,-492.469,0,0
339571.2,75.1907,-491.136,0,0
339831.525,75.3727,-489.871,0,0
340091.85,75.6491,-488.62,0,0
340352.175,75.9856,-487.399,0,0
340612.5,76.4621,-486.217,0,0
340872.825,76.849,-484.952,0,0
341133.15,77.3706,-483.829,0,0
341393.475,77.9188,-482.725,0,0
341653.8,78.5849,-481.621,0,0
341914.125,79.2948,-480.609,0,0
342174.45,80.0437,-479.675,0,0
342434.775,80.8564,-478.816,0,0
342695.1,81.7927,-478.08,0,0
342955.425,82.649,-477.432,0,0
343215.75,83.59,-476.876,0,0
343476.075,84.5251,-476.478,0,0
343736.4,85.3536,-476.219,0,0
343996.725,86.1838,-476.118,0,0
344257.05,86.8931,-476.031,0,0
344517.375,87.5241,-475.995,0,0
344777.7,88.0474,-476.07,0,0
345038.025,88.5184,-476.194,0,0
345298.35,88.9099,-476.345,0,0
345558.675,89.1779,-476.483,0,0
345819.0,89.3879,-476.585,0,0
346079.325,89.4578,-476.782,0,0
346339.65,89.5307,-476.89,0,0
346599.975,89.4686,-476.954,0,0
346860,89.3469,-477.017,0,0
347121,89.2858,-477.096,0,0
347381,89.1357,-477.104,0,0
347641,88.9028,-477.072,0,0
347902,88.6924,-477.04,0,0
348162,88.3814,-476.91,0,0
348422,88.0674,-476.839,0,0
348683,87.707,-476.71,0,0
348943,87.268,-476.536,0,0
349203,86.8885,-476.273,0,0
349464,86.5076,-475.989,0,0
349724,86.0801,-475.676,0,0
349984,85.6766,-475.345,0,0
350245,85.2494,-475.005,0,0
350505,84.8169,-474.55,0,0
350765,84.2859,-474.092,0,0
351025,83.8613,-473.592,0,0
351286,83.4285,-473.037,0,0
351546,83.0482,-472.385,0,0
351806,82.5995,-471.798,0,0
352067,82.2773,-471.16,0,0
352327,81.9177,-470.386,0,0
352587,81.6096,-469.662,0,0
352848,81.2938,-468.965,0,0
353108,81.0619,-468.166,0,0
353368,80.8496,-467.347,0,0
353629,80.749,-466.535,0,0
353889,80.6199,-465.751,0,0
354149,80.5732,-464.859,0,0
354410,80.6781,-464.074,0,0
354670,80.6992,-463.355,0,0
354930,80.879,-462.66,0,0
355191,81.0353,-462.068,0,0
355451,81.2035,-461.532,0,0
355711,81.2607,-461.063,0,0
355972,81.3281,-460.584,0,0
356232,81.3627,-460.162,0,0
356492,81.3478,-459.76,0,0
356753,81.3283,-459.356,0,0
357013,81.3202,-458.936,0,0
357273,81.2247,-458.544,0,0
357534,81.1355,-458.122,0,0
357794,80.9718,-457.73,0,0
358054,80.8681,-457.316,0,0
358315,80.6116,-456.968,0,0
358575,80.313,-456.524,0,0
358835,79.9622,-456.062,0,0
359096,79.5966,-455.508,0,0
359356,79.2185,-454.908,0,0
359616,78.9166,-454.142,0,0
359877,78.5465,-453.405,0,0
360137,78.283,-452.546,0,0
360397,78.0768,-451.655,0,0
360658,77.9436,-450.722,0,0
360918,77.8778,-449.848,0,0
361178,77.8526,-448.926,0,0
361438,77.8817,-448.051,0,0
361699,77.9817,-447.21,0,0
361959,78.0716,-446.385,0,0
362219,78.1783,-445.576,0,0
362480,78.3286,-444.792,0,0
362740.1,78.4722,-444.026,0,0
363000.425,78.665,-443.344,0,0
363260.75,78.8993,-442.587,0,0
363521.075,79.1036,-441.888,0,0
363781.4,79.2841,-441.283,0,0
364041.725,79.5309,-440.634,0,0
364302.05,79.7081,-440.092,0,0
364562.375,79.9145,-439.538,0,0
364822.7,79.9977,-439.035,0,0
365083.025,80.0925,-438.482,0,0
365343.35,80.1026,-437.96,0,0
365603.675,80.0224,-437.342,0,0
365864.0,80.0159,-436.714,0,0
366124.325,79.9528,-435.924,0,0
366384.65,79.9387,-435.105,0,0
366644.975,79.9876,-434.282,0,0
366905.3,80.0912,-433.318,0,0
367165.625,80.2567,-432.402,0,0
367425.95,80.4972,-431.46,0,0
367686.275,80.7582,-430.546,0,0
367946.6,81.079,-429.569,0,0
368206.925,81.4682,-428.564,0,0
368467.25,81.9683,-427.552,0,0
368727.575,82.5121,-426.603,0,0
368987.9,83.1729,-425.628,0,0
369248.225,83.9243,-424.75,0,0
369508.55,84.7435,-423.843,0,0
369768.875,85.7281,-423.122,0,0
370029.2,86.6895,-422.495,0,0
370289.525,87.7301,-421.901,0,0
370549.85,88.722,-421.508,0,0
370810.175,89.7566,-421.118,0,0
371070.5,90.7675,-420.787,0,0
371330.825,91.8562,-420.607,0,0
371591.15,92.9249,-420.492,0,0
371851.475,94.0287,-420.483,0,0
372111.8,95.1034,-420.579,0,0
372372.125,96.1577,-420.839,0,0
372632.45,97.1389,-421.226,0,0
372892.775,98.0667,-421.636,0,0
373153.1,98.8898,-422.245,0,0
373413.425,99.5802,-422.924,0,0
373673.75,100.134,-423.654,0,0
373934.075,100.571,-424.481,0,0
374194.4,100.761,-425.238,0,0
374454.725,100.847,-426.058,0,0
374715.05,100.774,-426.739,0,0
374975.375,100.643,-427.3,0,0
375235.7,100.415,-427.743,0,0
375496.025,100.186,-428.146,0,0
375756.35,99.9368,-428.4,0,0
376016.675,99.7847,-428.638,0,0
376277.0,99.6203,-428.833,0,0
376537.325,99.4175,-428.984,0,0
376797.65,99.299,-429.226,0,0
377057.975,99.1712,-429.39,0,0
377318.3,98.9805,-429.603,0,0
377578.625,98.8071,-429.821,0,0
377838.95,98.6053,-430,0,0
378099.275,98.3988,-430.175,0,0
378359.6,98.1454,-430.346,0,0
378619.925,97.8103,-430.489,0,0
378880,97.4732,-430.68,0,0
379141,97.105,-430.694,0,0
379401,96.7398,-430.709,0,0
379661,96.4728,-430.661,0,0
379922,96.1863,-430.616,0,0
380182,95.9458,-430.552,0,0
380442,95.7212,-430.453,0,0
380703,95.5006,-430.412,0,0
380963,95.3131,-430.357,0,0
381223,95.1379,-430.35,0,0
381483,94.9103,-430.286,0,0
381744,94.7484,-430.315,0,0
382004,94.4882,-430.244,0,0
382264,94.2841,-430.179,0,0
382525,94.151,-430.16,0,0
382785,93.9979,-430.167,0,0
383045,93.9293,-430.212,0,0
383306,93.817,-430.267,0,0
383566,93.7286,-430.393,0,0
383826,93.6095,-430.642,0,0
384087,93.481,-430.944,0,0
384347,93.2823,-431.314,0,0
384607,92.8959,-431.799,0,0
384868,92.3619,-432.27,0,0
385128,91.8272,-432.679,0,0
385388,91.0138,-433.104,0,0
385649,90.1324,-433.436,0,0
385909,89.1717,-433.622,0,0
386169,88.1642,-433.711,0,0
386430,87.1351,-433.634,0,0
386690,86.0612,-433.497,0,0
386950,85.0417,-433.213,0,0
387211,84.0099,-432.867,0,0
387471,83.022,-432.372,0,0
387731,82.0555,-431.841,0,0
387992,81.1929,-431.223,0,0
388252,80.2833,-430.456,0,0
388512,79.5499,-429.62,0,0
388773,78.8883,-428.739,0,0
389033,78.4004,-427.814,0,0
389293,78.0033,-426.911,0,0
389554,77.7323,-426.029,0,0
389814,77.537,-425.19,0,0
390074,77.4814,-424.363,0,0
390335,77.5188,-423.629,0,0
390595,77.6219,-423.07,0,0
390855,77.7711,-422.603,0,0
391116,77.9059,-422.226,0,0
391376,78.0274,-422.012,0,0
391636,78.1232,-421.942,0,0
391896,78.0745,-421.902,0,0
392157,77.9285,-421.989,0,0
392417,77.6609,-422.116,0,0
392677,77.2891,-422.236,0,0
392938,76.7531,-422.372,0,0
393198,76.1516,-422.442,0,0
393458,75.4342,-422.494,0,0
393719,74.6113,-422.405,0,0
393979,73.7174,-422.307,0,0
394239,72.8024,-422.036,0,0
394500,71.8333,-421.686,0,0
394760.05,70.8714,-421.247,0,0
395020.375,69.9193,-420.606,0,0
395280.7,69.0657,-419.999,0,0
395541.025,68.2041,-419.209,0,0
395801.35,67.4159,-418.461,0,0
396061.675,66.632,-417.628,0,0
396322.0,65.9451,-416.725,0,0
396582.325,65.3019,-415.818,0,0
396842.65,64.7249,-414.918,0,0
397102.975,64.1605,-413.906,0,0
397363.3,63.6808,-412.929,0,0
397623.625,63.245,-412.003,0,0
397883.95,62.8141,-411.101,0,0
398144.275,62.4396,-410.074,0,0
398404.6,62.0955,-409.099,0,0
398664.925,61.7539,-408.154,0,0
398925.25,61.4525,-407.194,0,0
399185.575,61.1569,-406.232,0,0
399445.9,60.9114,-405.273,0,0
399706.225,60.6767,-404.273,0,0
399966.55,60.4355,-403.325,0,0
400006.6,60.4163,-403.14,0,0