File: Accelerated corrosion test data/2025-10-01_12-27-23/sample_2.csv
Frequency (Hz),Impedance (ohms),Phase (Radians),Temperature (C),Humidity (%)
10000.0,226.659,-11383.7,0,0
10260.325,221.21,-11097,0,0
10520.65,215.709,-10824.7,0,0
10780.975,210.815,-10565.2,0,0
11041.3,205.93,-10318.8,0,0
11301.625,201.231,-10081.9,0,0
11561.95,198.167,-9855.79,0,0
11822.275,195.196,-9643.85,0,0
12082.6,192.685,-9439.32,0,0
12342.925,185.348,-9241.99,0,0
12603.25,181.319,-9051.51,0,0
12863.575,178.322,-8868.33,0,0
13123.9,176.671,-8696.15,0,0
13384.225,171.92,-8525.61,0,0
13644.55,169.026,-8361.1,0,0
13904.875,183.58,-8207.58,0,0
14165.2,163.325,-8062.84,0,0
14425.525,159.755,-7915.84,0,0
14685.8,161.817,-7769.72,0,0
14946.175,160.075,-7643.28,0,0
15206.5,164.671,-7518.9,0,0
15466.825,161.326,-7384.52,0,0
15727.15,150.009,-7274.01,0,0
15987.5,146.446,-7152.89,0,0
16247.8,146.249,-7038.11,0,0
16508.125,141.965,-6929.48,0,0
16768.45,139.551,-6821.41,0,0
17028.775,137.915,-6717.67,0,0
17289.1,136.671,-6617.41,0,0
17549.425,133.669,-6518.76,0,0
17809.75,131.172,-6423.12,0,0
18070.075,129.648,-6330.23,0,0
18330.4,127.802,-6240.11,0,0
18590.725,127.284,-6152.65,0,0
18851.05,125.755,-6066.92,0,0
19111.375,128.087,-5985.59,0,0
19371.7,127.369,-5908.01,0,0
19632.025,122.189,-5830.8,0,0
19892.35,119.559,-5753.48,0,0
20152.675,117.863,-5678.07,0,0
20413.0,117.305,-5604.3,0,0
20673.3,116.454,-5531.84,0,0
20933.65,116.881,-5460.79,0,0
21193.975,121.368,-5393.56,0,0
21454.3,128.442,-5329.55,0,0
21714.625,127.602,-5274.16,0,0
21974.9,120.974,-5211.46,0,0
22235.275,118.302,-5158.07,0,0
22495.6,114.216,-5097.58,0,0
22755.925,110.59,-5036.82,0,0
23016.25,110.529,-4981.12,0,0
23276.6,112.115,-4925.44,0,0
23536.9,107.34,-4872.5,0,0
23797.225,105.923,-4817.89,0,0
24057.55,105.774,-4766.53,0,0
24317.875,101.423,-4716.19,0,0
24578.2,100.865,-4665.54,0,0
24838.525,99.4257,-4616.26,0,0
25098.85,98.7705,-4567.14,0,0
25359.175,97.5484,-4519.79,0,0
25619.5,96.2635,-4473.89,0,0
25879.8,95.7226,-4428.14,0,0
26140.1,95.4432,-4383.16,0,0
26400.5,95.0835,-4340.11,0,0
26660.8,95.5358,-4298.78,0,0
26921.1,94.2282,-4256.36,0,0
27181.4,93.8546,-4216.65,0,0
27441.8,91.6867,-4177.15,0,0
27702.1,90.1897,-4136.52,0,0
27962.4,89.1575,-4096.59,0,0
28222.7,89.6347,-4057.86,0,0
28483.1,88.8017,-4020.33,0,0
28743.4,88.1976,-3983.52,0,0
29003.7,89.6852,-3945.57,0,0
29264,90.4708,-3911.27,0,0
29524.4,92.6052,-3874.7,0,0
29784.7,96.3577,-3846.81,0,0
30045,92.0572,-3814.15,0,0
30305.3,93.3379,-3781.68,0,0
30565.7,90.1464,-3754.1,0,0
30826,87.0487,-3721.47,0,0
31086.3,86.3119,-3689.31,0,0
31346.6,84.4257,-3658.43,0,0
31607,84.1304,-3627.51,0,0
31867.3,82.8351,-3598.64,0,0
32127.6,81.5117,-3568.13,0,0
32387.9,81.495,-3538.17,0,0
32648.3,82.7226,-3509.66,0,0
32908.6,82.6333,-3483.83,0,0
33168.9,81.262,-3457.58,0,0
33429.2,79.2711,-3430.37,0,0
33689.6,79.1951,-3403.36,0,0
33949.9,78.1846,-3377.74,0,0
34210.2,76.5882,-3351.5,0,0
34470.5,75.7476,-3325.54,0,0
34730.9,75.3766,-3299.85,0,0
34991.2,74.5894,-3275.01,0,0
35251.5,74.1337,-3250.31,0,0
35511.8,73.715,-3226.36,0,0
35772.2,73.385,-3202.3,0,0
36032.5,72.7652,-3179.24,0,0
36292.8,72.046,-3155.73,0,0
36553.1,71.5829,-3132.98,0,0
36813.5,71.2244,-3110.35,0,0
37073.8,70.8143,-3087.95,0,0
37334.1,70.619,-3066.08,0,0
37594.4,70.3019,-3044.6,0,0
37854.8,69.8203,-3023.4,0,0
38115.1,69.5225,-3002.81,0,0
38375.4,68.8054,-2982.02,0,0
38635.7,68.5245,-2961.45,0,0
38896.1,68.1857,-2941.12,0,0
39156.4,67.7161,-2921.13,0,0
39416.7,67.599,-2901.51,0,0
39677,66.9078,-2882.32,0,0
39937.4,66.8001,-2862.91,0,0
40197.7,66.2811,-2844.2,0,0
40458,65.8775,-2825.33,0,0
40718.3,65.5725,-2806.64,0,0
40978.7,65.6402,-2788.31,0,0
41239,65.3839,-2770.62,0,0
41499.3,65.1759,-2752.59,0,0
41759.6,64.8869,-2735.6,0,0
42020,64.7181,-2718.04,0,0
42280.275,64.6417,-2701.01,0,0
42540.6,63.9454,-2684.39,0,0
42800.925,63.9446,-2667.71,0,0
43061.25,63.5827,-2650.89,0,0
43321.575,63.1499,-2634.75,0,0
43581.9,63.0337,-2618.46,0,0
43842.225,62.7653,-2602.43,0,0
44102.55,62.8261,-2587.06,0,0
44362.875,62.4829,-2571.28,0,0
44623.2,62.0422,-2556.12,0,0
44883.525,61.7192,-2540.6,0,0
45143.85,61.6234,-2525.33,0,0
45404.175,61.873,-2510.53,0,0
45664.5,61.3062,-2496.22,0,0
45924.825,61.0096,-2480.91,0,0
46185.15,61.5781,-2466.91,0,0
46445.475,61.0794,-2453.08,0,0
46705.8,60.4305,-2438.63,0,0
46966.125,60.4519,-2424.53,0,0
47226.45,60.3922,-2410.79,0,0
47486.775,60.6146,-2397.35,0,0
47747.1,60.4604,-2384.21,0,0
48007.425,60.2128,-2370.7,0,0
48267.75,60.4516,-2356.95,0,0
48528.075,61.2383,-2345.11,0,0
48788.4,60.6605,-2332.76,0,0
49048.725,60.2333,-2320.23,0,0
49309.05,59.9152,-2308.02,0,0
49569.375,59.0158,-2295.85,0,0
49829.7,58.4223,-2283.07,0,0
50090.025,58.0258,-2270.8,0,0
50350.35,57.7326,-2258.65,0,0
50610.675,57.4503,-2246.09,0,0
50871.0,57.4757,-2234.26,0,0
51131.325,57.475,-2222.62,0,0
51391.65,57.06,-2211.24,0,0
51651.975,56.5062,-2199.62,0,0
51912.3,56.1489,-2188.24,0,0
52172.625,55.5647,-2176.75,0,0
52432.95,55.3101,-2165.18,0,0
52693.275,55.0201,-2153.74,0,0
52953.6,54.8989,-2142.84,0,0
53213.925,54.6623,-2131.66,0,0
53474.25,54.5416,-2120.6,0,0
53734.575,54.4158,-2109.75,0,0
53994.9,54.0979,-2098.91,0,0
54255.225,54.0295,-2088.23,0,0
54515.55,54.0274,-2077.65,0,0
54775.875,54.0069,-2067.27,0,0
55036.2,53.844,-2057.01,0,0
55296.525,53.734,-2046.61,0,0
55556.85,53.7176,-2036.39,0,0
55817.175,53.7167,-2026.37,0,0
56077.5,53.6207,-2016.47,0,0
56337.825,53.5184,-2006.53,0,0
56598.15,53.5194,-1996.56,0,0
56858.475,53.5955,-1986.82,0,0
57118.8,53.5952,-1977.23,0,0
57379.125,53.7112,-1967.74,0,0
57639.45,53.6889,-1958.2,0,0
57899.775,53.8627,-1948.81,0,0
58160.1,53.988,-1939.81,0,0
58420.4,53.6767,-1930.57,0,0
58680.7,53.887,-1921.2,0,0
58941.1,54.028,-1912.07,0,0
59201.4,54.0837,-1903.12,0,0
59461.7,54.288,-1894.08,0,0
59722,54.651,-1885.12,0,0
59982.4,55.1019,-1876.13,0,0
60242.7,55.846,-1868.08,0,0
60503,56.1494,-1860,0,0
60763.3,55.8117,-1851.74,0,0
61023.7,56.0767,-1843.13,0,0
61284,56.9264,-1834.6,0,0
61544.3,57.9591,-1826.89,0,0
61804.6,58.7281,-1819.93,0,0
62065,58.7891,-1813.33,0,0
62325.3,57.9184,-1806.59,0,0
62585.6,57.1575,-1798.64,0,0
62845.9,57.1718,-1791.07,0,0
63106.3,56.8607,-1784.2,0,0
63366.6,55.8965,-1776.98,0,0
63626.9,54.954,-1769.45,0,0
63887.2,54.3536,-1761.56,0,0
64147.6,54.1513,-1754.14,0,0
64407.9,53.2134,-1746.76,0,0
64668.2,52.6033,-1739.01,0,0
64928.5,52.1309,-1731.3,0,0
65188.9,51.7272,-1724.03,0,0
65449.2,50.6045,-1716.13,0,0
65709.5,50.3664,-1708.01,0,0
65969.8,50.5534,-1700.16,0,0
66230.2,50.5699,-1692.59,0,0
66490.5,50.6386,-1684.96,0,0
66750.8,50.761,-1677.8,0,0
67011.1,50.6892,-1670.3,0,0
67271.5,50.8824,-1662.86,0,0
67531.8,51.7581,-1655.73,0,0
67792.1,52.2327,-1648.62,0,0
68052.4,52.9635,-1641.98,0,0
68312.8,53.2696,-1635.82,0,0
68573.1,53.2539,-1629.16,0,0
68833.4,53.5811,-1622.35,0,0
69093.7,54.2991,-1616.09,0,0
69354.1,54.6962,-1610.31,0,0
69614.4,54.8385,-1604.06,0,0
69874.7,55.5029,-1598.46,0,0
70135,55.3701,-1593.42,0,0
70395.4,55.0898,-1588.07,0,0
70655.7,54.0695,-1582.7,0,0
70916,52.9771,-1576.69,0,0
71176.3,52.6063,-1570.54,0,0
71436.7,52.0736,-1564.96,0,0
71697,51.0098,-1559.1,0,0
71957.3,49.8696,-1553.45,0,0
72217.6,48.5424,-1546.96,0,0
72478,47.5485,-1540.31,0,0
72738.3,47.0399,-1533.69,0,0
72998.6,46.5213,-1527.19,0,0
73258.9,46.0385,-1520.77,0,0
73519.3,45.3973,-1514.23,0,0
73779.6,45.0755,-1507.63,0,0
74039.9,44.8804,-1500.92,0,0
74300.225,44.9283,-1494.44,0,0
74560.55,44.9695,-1488.13,0,0
74820.875,44.9507,-1481.83,0,0
75081.2,45.0048,-1475.52,0,0
75341.525,45.207,-1469.25,0,0
75601.85,45.5519,-1463.08,0,0
75862.175,45.8444,-1457,0,0
76122.5,46.2533,-1451.03,0,0
76382.825,46.7692,-1445.27,0,0
76643.15,47.118,-1439.56,0,0
76903.475,47.5783,-1433.77,0,0
77163.8,48.1481,-1428.07,0,0
77424.125,48.7818,-1422.52,0,0
77684.45,49.3847,-1417.1,0,0
77944.775,50.1281,-1411.81,0,0
78205.1,50.9854,-1406.77,0,0
78465.425,51.6707,-1402.04,0,0
78725.75,52.1951,-1397.33,0,0
78986.075,52.7471,-1392.75,0,0
79246.4,53.0763,-1388.62,0,0
79506.725,53.0005,-1384.26,0,0
79767.05,52.988,-1379.99,0,0
80027.375,52.5751,-1375.94,0,0
80287.7,51.8051,-1371.45,0,0
80548.025,51.069,-1366.7,0,0
80808.35,50.3593,-1361.77,0,0
81068.675,49.8612,-1356.65,0,0
81329.0,49.4565,-1351.65,0,0
81589.325,49.0575,-1346.56,0,0
81849.65,48.7659,-1341.6,0,0
82109.975,48.4415,-1336.43,0,0
82370.3,48.2536,-1331.37,0,0
82630.625,47.9567,-1326.24,0,0
82890.95,47.8706,-1321.07,0,0
83151.275,47.8567,-1316.05,0,0
83411.6,47.9496,-1310.91,0,0
83671.925,48.0847,-1305.88,0,0
83932.25,48.393,-1301,0,0
84192.575,48.5732,-1296.26,0,0
84452.9,48.8505,-1291.51,0,0
84713.225,48.8582,-1287.04,0,0
84973.55,48.9212,-1282.33,0,0
85233.875,49.0877,-1277.59,0,0
85494.2,49.3451,-1272.94,0,0
85754.525,49.6183,-1268.4,0,0
86014.85,49.8221,-1264.02,0,0
86275.175,50.0199,-1259.67,0,0
86535.5,50.0989,-1255.39,0,0
86795.825,50.1275,-1250.93,0,0
87056.15,50.3045,-1246.41,0,0
87316.475,50.7485,-1242.06,0,0
87576.8,51.0753,-1238.1,0,0
87837.125,50.9524,-1234.25,0,0
88097.45,50.7972,-1229.96,0,0
88357.775,50.9209,-1225.48,0,0
88618.1,51.1265,-1221.31,0,0
88878.425,50.7526,-1217.51,0,0
89138.75,50.5011,-1212.96,0,0
89399.075,50.8683,-1208.31,0,0
89659.4,50.9288,-1203.99,0,0
89919.725,51.4757,-1199.78,0,0
90180,51.7136,-1196.11,0,0
90440.4,51.8448,-1192.22,0,0
90700.7,51.2507,-1188.07,0,0
90961,51.1982,-1183.52,0,0
91221.3,51.8373,-1179.14,0,0
91481.7,52.4827,-1175.12,0,0
91742,52.5722,-1171.15,0,0
92002.3,52.8461,-1166.98,0,0
92262.6,53.3374,-1162.84,0,0
92523,54.0981,-1159.07,0,0
92783.3,54.5854,-1155.46,0,0
93043.6,55.0495,-1151.79,0,0
93303.9,55.7297,-1148.38,0,0
93564.3,55.9917,-1145.43,0,0
93824.6,56.1743,-1142.18,0,0
94084.9,56.1381,-1139.18,0,0
94345.2,55.531,-1136.15,0,0
94605.6,54.8394,-1132.24,0,0
94865.9,54.871,-1128.36,0,0
95126.2,54.799,-1124.75,0,0
95386.5,54.503,-1121.16,0,0
95646.9,54.1572,-1117.17,0,0
95907.2,54.1933,-1112.62,0,0
96167.5,55.0694,-1108.43,0,0
96427.8,56.0329,-1105.04,0,0
96688.2,56.7052,-1101.98,0,0
96948.5,56.9639,-1098.98,0,0
97208.8,57.2207,-1095.73,0,0
97469.1,57.7304,-1092.69,0,0
97729.5,57.9842,-1090.09,0,0
97989.8,57.8302,-1087.31,0,0
98250.1,57.7772,-1084.63,0,0
98510.4,57.4909,-1081.83,0,0
98770.8,57.3314,-1079.12,0,0
99031.1,56.8497,-1076.67,0,0
99291.4,55.8015,-1074.22,0,0
99551.7,54.5305,-1071.16,0,0
99812.1,53.1841,-1067.85,0,0
100072,51.9689,-1063.95,0,0
100333,51.2924,-1059.9,0,0
100593,51.0262,-1056.07,0,0
100853,50.7056,-1052.69,0,0
101114,50.0114,-1049.33,0,0
101374,49.0747,-1045.75,0,0
101634,48.1439,-1041.79,0,0
101895,47.4567,-1037.56,0,0
102155,47.2411,-1033.28,0,0
102415,47.1555,-1029.37,0,0
102676,46.8164,-1025.58,0,0
102936,46.4014,-1021.51,0,0
103196,46.1958,-1017.35,0,0
103457,46.0792,-1013.11,0,0
103717,46.1245,-1008.85,0,0
103977,46.2593,-1004.43,0,0
104238,46.8319,-1000.08,0,0
104498,47.5976,-995.927,0,0
104758,48.5652,-992.085,0,0
105019,49.4788,-988.513,0,0
105279,50.1802,-985.049,0,0
105539,50.8506,-981.485,0,0
105800,51.8594,-977.886,0,0
106060,53.0548,-974.633,0,0
106320.175,54.1454,-971.705,0,0
106580.5,55.1377,-968.846,0,0
106840.825,56.1997,-966.398,0,0
107101.15,56.9014,-964.226,0,0
107361.475,57.1745,-961.979,0,0
107621.8,57.4506,-959.633,0,0
107882.125,57.5599,-957.469,0,0
108142.45,57.3509,-955.286,0,0
108402.775,56.8445,-952.885,0,0
108663.1,56.5443,-950.255,0,0
108923.425,56.0949,-947.758,0,0
109183.75,55.4075,-945.134,0,0
109444.075,54.5992,-942.175,0,0
109704.4,54.0759,-939.04,0,0
109964.725,53.4689,-935.89,0,0
110225.05,52.8853,-932.606,0,0
110485.375,52.3918,-929.1,0,0
110745.7,51.9597,-925.511,0,0
111006.025,51.7514,-921.917,0,0
111266.35,51.6733,-918.513,0,0
111526.675,51.6805,-914.976,0,0
111787.0,51.6367,-911.559,0,0
112047.325,51.7749,-907.956,0,0
112307.65,51.8787,-904.608,0,0
112567.975,51.9057,-901.247,0,0
112828.3,51.9737,-897.793,0,0
113088.625,52.066,-894.309,0,0
113348.95,52.3914,-890.777,0,0
113609.275,52.7208,-887.342,0,0
113869.6,53.1684,-883.893,0,0
114129.925,53.598,-880.505,0,0
114390.25,54.1229,-877.256,0,0
114650.575,54.5715,-873.937,0,0
114910.9,54.9951,-870.812,0,0
115171.225,55.5291,-867.529,0,0
115431.55,56.0686,-864.386,0,0
115691.875,56.7247,-861.26,0,0
115952.2,57.2638,-858.168,0,0
116212.525,57.8025,-855.014,0,0
116472.85,58.4696,-851.838,0,0
116733.175,59.2654,-848.809,0,0
116993.5,60.0915,-845.895,0,0
117253.825,60.8318,-843.104,0,0
117514.15,61.54,-840.241,0,0
117774.475,62.2575,-837.383,0,0
118034.8,63.1096,-834.672,0,0
118295.125,63.9674,-832.044,0,0
118555.45,64.7728,-829.469,0,0
118815.775,65.4988,-826.98,0,0
119076.1,66.3428,-824.573,0,0
119336.425,67.0249,-822.21,0,0
119596.75,67.7836,-819.828,0,0
119857.075,68.6298,-817.804,0,0
120117.4,69.1329,-815.907,0,0
120377.725,69.3965,-813.958,0,0
120638.05,69.7023,-811.981,0,0
120898.375,69.7809,-810.152,0,0
121158.7,69.4767,-808.078,0,0
121419.025,69.2476,-805.73,0,0
121679.35,69.1004,-803.258,0,0
121939.675,69.0361,-800.77,0,0
122200.0,68.9935,-798.308,0,0
122460,68.9006,-795.835,0,0
122721,68.7558,-793.291,0,0
122981,68.694,-790.638,0,0
123241,68.6621,-787.974,0,0
123502,68.6811,-785.36,0,0
123762,68.6893,-782.798,0,0
124022,68.567,-780.191,0,0
124283,68.5196,-777.505,0,0
124543,68.411,-774.838,0,0
124803,68.2703,-772.071,0,0
125064,68.1867,-769.228,0,0
125324,68.178,-766.295,0,0
125584,68.1981,-763.404,0,0
125845,68.215,-760.476,0,0
126105,68.2593,-757.491,0,0
126365,68.4017,-754.355,0,0
126626,68.6887,-751.367,0,0
126886,68.9298,-748.326,0,0
127146,69.2391,-745.278,0,0
127406,69.6164,-742.187,0,0
127667,70.1665,-739.09,0,0
127927,70.8404,-736.115,0,0
128187,71.507,-733.347,0,0
128448,72.1319,-730.515,0,0
128708,72.7685,-727.797,0,0
128968,73.3922,-725.098,0,0
129229,74.0134,-722.438,0,0
129489,74.6341,-719.827,0,0
129749,75.2655,-717.271,0,0
130010,75.8722,-714.683,0,0
130270,76.4829,-712.145,0,0
130530,77.0645,-709.734,0,0
130791,77.6102,-707.313,0,0
131051,78.0971,-704.89,0,0
131311,78.5706,-702.536,0,0
131572,78.9028,-700.132,0,0
131832,79.3124,-697.719,0,0
132092,79.642,-695.337,0,0
132353,79.8966,-692.945,0,0
132613,80.114,-690.484,0,0
132873,80.2611,-687.958,0,0
133134,80.4048,-685.328,0,0
133394,80.5946,-682.683,0,0
133654,80.8396,-679.954,0,0
133915,81.1042,-677.241,0,0
134175,81.3333,-674.537,0,0
134435,81.5819,-671.832,0,0
134696,81.8076,-668.962,0,0
134956,82.208,-666.069,0,0
135216,82.5954,-663.259,0,0
135477,82.9641,-660.463,0,0
135737,83.274,-657.619,0,0
135997,83.608,-654.761,0,0
136258,83.9719,-651.803,0,0
136518,84.4636,-648.824,0,0
136778,84.8859,-645.854,0,0
137039,85.4112,-642.811,0,0
137299,86.0135,-639.765,0,0
137559,86.7514,-636.888,0,0
137819,87.2986,-634.132,0,0
138080,87.6656,-631.238,0,0
138340.125,88.1365,-628.173,0,0
138600.45,88.6475,-625.169,0,0
138860.775,89.146,-622.079,0,0
139121.1,89.6208,-618.961,0,0
139381.425,90.1537,-615.671,0,0
139641.75,90.8173,-612.43,0,0
139902.075,91.4077,-609.175,0,0
140162.4,91.9171,-605.695,0,0
140422.725,92.5998,-602.058,0,0
140683.05,93.5377,-598.281,0,0
140943.375,94.7142,-594.598,0,0
141203.7,95.8862,-591.034,0,0
141464.025,97.0512,-587.347,0,0
141724.35,98.4872,-583.537,0,0
141984.675,100.185,-579.827,0,0
142245.0,102.017,-576.287,0,0
142505.325,103.852,-572.936,0,0
142765.65,105.676,-569.582,0,0
143025.975,107.681,-566.21,0,0
143286.3,109.734,-563.099,0,0
143546.625,111.685,-560.085,0,0
143806.95,113.557,-556.954,0,0
144067.275,115.518,-553.789,0,0
144327.6,117.572,-550.58,0,0
144587.925,119.725,-547.451,0,0
144848.25,121.939,-544.327,0,0
145108.575,124.271,-541.227,0,0
145368.9,126.696,-538.253,0,0
145629.225,129.111,-535.427,0,0
145889.55,131.412,-532.596,0,0
146149.875,133.724,-529.687,0,0
146410.2,136.094,-526.712,0,0
146670.525,138.537,-523.657,0,0
146930.85,141.162,-520.54,0,0
147191.175,143.917,-517.36,0,0
147451.5,146.959,-514.168,0,0
147711.825,150.197,-511.135,0,0
147972.15,153.552,-508.193,0,0
148232.475,157.009,-505.283,0,0
148492.8,160.683,-502.373,0,0
148753.125,164.55,-499.457,0,0
149013.45,168.785,-496.5,0,0
149273.775,173.664,-493.651,0,0
149534.1,179.126,-491.463,0,0
149794.425,184.68,-489.983,0,0
150054.75,190.245,-489.021,0,0
150315.075,195.754,-488.547,0,0
150575.4,201.265,-488.452,0,0
150835.725,206.871,-488.916,0,0
151096.05,212.394,-490.204,0,0
151356.375,217.315,-492.217,0,0
151616.7,221.491,-494.481,0,0
151877.025,225.459,-496.786,0,0
152137.35,229.113,-499.579,0,0
152397.675,232.065,-502.71,0,0
152658.0,234.386,-505.861,0,0
152918.325,236.18,-508.993,0,0
153178.65,237.417,-512.007,0,0
153438.975,238.234,-514.859,0,0
153699.3,238.569,-517.487,0,0
153959.625,238.597,-519.799,0,0
154219.95,238.283,-521.798,0,0
154480,237.804,-523.365,0,0
154741,237.349,-524.647,0,0
155001,236.872,-525.873,0,0
155261,236.228,-526.786,0,0
155522,235.677,-527.556,0,0
155782,235.049,-528.126,0,0
156042,234.324,-528.617,0,0
156303,233.595,-528.878,0,0
156563,232.936,-529.071,0,0
156823,232.071,-529.369,0,0
157084,231.082,-529.246,0,0
157344,230.044,-528.838,0,0
157604,229.369,-528.341,0,0
157864,228.398,-527.68,0,0
158125,227.868,-526.806,0,0
158385,227.326,-526.074,0,0
158645,226.727,-525.34,0,0
158906,225.801,-524.433,0,0
159166,224.936,-523.035,0,0
159426,224.519,-521.457,0,0
159687,224.064,-519.769,0,0
159947,224.049,-517.773,0,0
160207,224.769,-516.075,0,0
160468,225.314,-514.748,0,0
160728,225.82,-513.528,0,0
160988,226.159,-512.112,0,0
161249,226.859,-510.444,0,0
161509,228.151,-508.625,0,0
161769,230.326,-507.594,0,0
162030,232.612,-507.536,0,0
162290,234.401,-508.458,0,0
162550,235.568,-509.773,0,0
162811,236.137,-511.33,0,0
163071,236.349,-513.328,0,0
163331,235.197,-515.792,0,0
163592,232.949,-517.385,0,0
163852,230.375,-518.214,0,0
164112,227.787,-518.474,0,0
164373,225.152,-518.657,0,0
164633,221.895,-518.523,0,0
164893,218.162,-517.522,0,0
165154,214.941,-515.644,0,0
165414,211.876,-513.664,0,0
165674,208.653,-511.31,0,0
165935,205.375,-508.379,0,0
166195,202.696,-504.579,0,0
166455,200.709,-500.69,0,0
166716,199.156,-496.843,0,0
166976,197.766,-493.158,0,0
167236,196.401,-489.477,0,0
167497,195.036,-485.643,0,0
167757,193.953,-481.682,0,0
168017,192.938,-477.656,0,0
168277,191.874,-473.488,0,0
168538,190.999,-468.864,0,0
168798,190.563,-463.926,0,0
169058,190.786,-459.049,0,0
169319,191.366,-454.52,0,0
169579,191.862,-450.431,0,0
169839,192.239,-446.181,0,0
170100,192.677,-441.668,0,0
170360.075,193.548,-437.174,0,0
170620.4,194.514,-433.123,0,0
170880.725,194.999,-429.118,0,0
171141.05,195.457,-424.601,0,0
171401.375,196.149,-419.684,0,0
171661.7,197.383,-414.745,0,0
171922.025,198.9,-409.836,0,0
172182.35,200.61,-405.156,0,0
172442.675,202.287,-400.485,0,0
172703.0,204.055,-395.642,0,0
172963.325,206.21,-390.736,0,0
173223.65,208.614,-385.968,0,0
173483.975,210.988,-381.298,0,0
173744.3,213.513,-376.577,0,0
174004.625,216.171,-371.789,0,0
174264.95,219.09,-366.93,0,0
174525.275,222.241,-361.908,0,0
174785.6,225.902,-356.948,0,0
175045.925,230.068,-352.187,0,0
175306.25,234.491,-347.877,0,0
175566.575,239.063,-343.835,0,0
175826.9,243.687,-340.123,0,0
176087.225,248.384,-336.615,0,0
176347.55,253.107,-333.287,0,0
176607.875,257.849,-330.138,0,0
176868.2,262.777,-326.958,0,0
177128.525,268.092,-323.787,0,0
177388.85,274.067,-321.18,0,0
177649.175,280.252,-319.503,0,0
177909.5,286.282,-318.977,0,0
178169.825,291.304,-319.235,0,0
178430.15,294.343,-318.867,0,0
178690.475,298.015,-317.914,0,0
178950.8,302.222,-316.972,0,0
179211.125,306.4,-316.738,0,0
179471.45,309.999,-316.901,0,0
179731.775,313.096,-317.243,0,0
179992.1,315.412,-317.652,0,0
180252.425,317.055,-317.608,0,0
180512.75,318.1,-317.178,0,0
180773.075,318.726,-315.911,0,0
181033.4,319.198,-313.901,0,0
181293.725,319.804,-311.024,0,0
181554.05,320.896,-307.339,0,0
181814.375,322.612,-303.351,0,0
182074.7,324.894,-299.22,0,0
182335.025,327.314,-295.023,0,0
182595.35,330.074,-290.515,0,0
182855.675,333.286,-285.85,0,0
183116.0,336.915,-281.116,0,0
183376.325,340.935,-276.424,0,0
183636.65,345.172,-271.563,0,0
183896.975,350.042,-266.645,0,0
184157.3,355.298,-261.881,0,0
184417.625,360.81,-257.232,0,0
184677.95,366.691,-252.398,0,0
184938.275,373.201,-247.483,0,0
185198.6,380.561,-242.93,0,0
185458.925,388.331,-239.01,0,0
185719.25,396.284,-235.493,0,0
185979.575,404.695,-232.407,0,0
186239.9,413.441,-229.964,0,0
186500,422.116,-228.497,0,0
186761,430.094,-227.828,0,0
187021,437.248,-226.981,0,0
187281,444.109,-225.309,0,0
187542,451.612,-223.004,0,0
187802,460.375,-220.874,0,0
188062,469.562,-220.012,0,0
188322,478.176,-220.206,0,0
188583,485.806,-220.377,0,0
188843,493.216,-219.738,0,0
189103,501.099,-218.825,0,0
189364,509.531,-218.067,0,0
189624,518.083,-217.69,0,0
189884,526.442,-217.498,0,0
190145,534.702,-217.094,0,0
190405,543.148,-216.315,0,0
190665,552.018,-215.111,0,0
190926,561.83,-213.887,0,0
191186,572.514,-212.751,0,0
191446,584.162,-212.192,0,0
191707,596.416,-212.587,0,0
191967,608.782,-213.85,0,0
192227,621.202,-215.564,0,0
192488,633.891,-217.608,0,0
192748,647.259,-220.075,0,0
193008,661.335,-223.576,0,0
193269,675.563,-228.388,0,0
193529,689.813,-234.164,0,0
193789,704.047,-241.456,0,0
194050,717.326,-250.145,0,0
194310,729.627,-259.177,0,0
194570,741.389,-268.589,0,0
194831,752.635,-278.365,0,0
195091,763.638,-288.191,0,0
195351,774.699,-298.545,0,0
195612,785.595,-309.796,0,0
195872,795.863,-322.032,0,0
196132,805.006,-334.791,0,0
196393,813.362,-347.432,0,0
196653,821.404,-359.967,0,0
196913,829.45,-372.761,0,0
197174,837.232,-386.175,0,0
197434,844.552,-400.285,0,0
197694,850.902,-415.048,0,0
197955,856.166,-429.571,0,0
198215,861.314,-443.692,0,0
198475,866.746,-458.125,0,0
198735,872.054,-473.489,0,0
198996,876.631,-489.938,0,0
199256,879.883,-507.135,0,0
199516,881.761,-524.383,0,0
199777,882.082,-541.449,0,0
200037,881.803,-557.528,0,0
200297,881.901,-573.187,0,0
200558,881.826,-589.814,0,0
200818,880.811,-607.045,0,0
201078,878.569,-624.334,0,0
201339,875.18,-641.648,0,0
201599,870.621,-658.973,0,0
201859,864.924,-675.884,0,0
202120,857.847,-692.297,0,0
202380.025,849.89,-708.008,0,0
202640.35,840.99,-723.119,0,0
202900.675,830.938,-737.167,0,0
203161.0,820.022,-749.563,0,0
203421.325,809.097,-760.567,0,0
203681.65,798.587,-770.752,0,0
203941.975,787.739,-780.162,0,0
204202.3,777.254,-788.992,0,0
204462.625,766.28,-796.681,0,0
204722.95,756.181,-803.357,0,0
204983.275,747.223,-809.99,0,0
205243.6,738.609,-817.257,0,0
205503.925,729.18,-824.997,0,0
205764.25,718.729,-832.232,0,0
206024.575,707.758,-838.569,0,0
206284.9,696.575,-843.686,0,0
206545.225,685.731,-848.13,0,0
206805.55,675.303,-851.666,0,0
207065.875,665.203,-854.767,0,0
207326.2,655.573,-857.687,0,0
207586.525,646.012,-860.03,0,0
207846.85,636.906,-862.127,0,0
208107.175,628.288,-863.717,0,0
208367.5,620.119,-865.157,0,0
208627.825,612.73,-866.648,0,0
208888.15,605.729,-868.486,0,0
209148.475,598.722,-870.976,0,0
209408.8,591.598,-873.598,0,0
209669.125,584.031,-876.323,0,0
209929.45,576.13,-879.202,0,0
210189.775,567.587,-882.02,0,0
210450.1,558.921,-884.164,0,0
210710.425,550.049,-885.901,0,0
210970.75,541.036,-887.414,0,0
211231.075,531.703,-888.372,0,0
211491.4,522.213,-888.801,0,0
211751.725,512.669,-888.519,0,0
212012.05,503.307,-887.142,0,0
212272.375,494.863,-885.02,0,0
212532.7,487.094,-882.753,0,0
212793.025,479.958,-880.766,0,0
213053.35,472.879,-878.751,0,0
213313.675,465.668,-876.556,0,0
213574.0,458.783,-873.875,0,0
213834.325,452.31,-870.977,0,0
214094.65,446.417,-867.997,0,0
214354.975,440.884,-865.042,0,0
214615.3,435.551,-862.11,0,0
214875.625,430.607,-859.38,0,0
215135.95,425.742,-856.702,0,0
215396.275,421.039,-853.984,0,0
215656.6,416.275,-851.171,0,0
215916.925,411.763,-848.346,0,0
216177.25,407.441,-845.301,0,0
216437.575,403.217,-842.163,0,0
216697.9,399.451,-839,0,0
216958.225,395.857,-835.853,0,0
217218.55,392.436,-832.786,0,0
217478.875,389.262,-829.644,0,0
217739.2,386.284,-826.547,0,0
217999.525,383.57,-823.446,0,0
218259.85,381.142,-820.537,0,0
218520,378.748,-817.743,0,0
218780,376.491,-814.945,0,0
219041,374.5,-812.091,0,0
219301,372.793,-809.565,0,0
219561,371.135,-807.123,0,0
219822,369.57,-804.821,0,0
220082,367.989,-802.599,0,0
220342,366.414,-800.616,0,0
220603,364.946,-798.594,0,0
220863,363.394,-796.658,0,0
221123,361.926,-794.485,0,0
221384,360.648,-792.389,0,0
221644,359.559,-790.202,0,0
221904,358.708,-788.106,0,0
222165,358.101,-786.101,0,0
222425,357.819,-784.241,0,0
222685,357.628,-782.719,0,0
222946,357.448,-781.59,0,0
223206,357.368,-780.574,0,0
223466,357.151,-779.999,0,0
223727,356.886,-779.445,0,0
223987,356.499,-779.247,0,0
224247,355.952,-778.983,0,0
224508,355.209,-778.819,0,0
224768,354.362,-778.651,0,0
225028,353.666,-778.219,0,0
225289,352.792,-778.115,0,0
225549,352.153,-777.895,0,0
225809,351.285,-777.644,0,0
226070,350.674,-777.305,0,0
226330,350.131,-777.076,0,0
226590,349.749,-777.023,0,0
226851,349.312,-777.271,0,0
227111,348.999,-777.627,0,0
227371,348.52,-778.324,0,0
227632,347.952,-778.926,0,0
227892,347.406,-779.517,0,0
228152,346.86,-780.348,0,0
228413,346.427,-781.462,0,0
228673,345.711,-782.759,0,0
228933,344.879,-784.329,0,0
229193,343.828,-785.941,0,0
229454,342.47,-787.92,0,0
229714,340.912,-789.863,0,0
229974,338.939,-791.807,0,0
230235,336.665,-793.593,0,0
230495,334.272,-795.299,0,0
230755,331.681,-796.95,0,0
231016,329.031,-798.466,0,0
231276,326.139,-799.935,0,0
231536,323.004,-801.329,0,0
231797,319.719,-802.478,0,0
232057,316.395,-803.341,0,0
232317,313.061,-804.123,0,0
232578,309.675,-804.694,0,0
232838,306.266,-805.209,0,0
233098,302.869,-805.594,0,0
233359,299.401,-805.834,0,0
233619,295.91,-805.908,0,0
233879,292.457,-805.819,0,0
234140,289.267,-805.699,0,0
234400,285.901,-805.59,0,0
234660.3,282.544,-805.369,0,0
234920.625,279.358,-805.245,0,0
235180.95,276.003,-804.965,0,0
235441.275,272.561,-804.716,0,0
235701.6,269.086,-804.277,0,0
235961.925,265.412,-803.712,0,0
236222.25,261.919,-803.069,0,0
236482.575,258.437,-802.235,0,0
236742.9,255.039,-801.278,0,0
237003.225,251.64,-800.296,0,0
237263.55,248.258,-799.282,0,0
237523.875,244.853,-798.154,0,0
237784.2,241.423,-796.929,0,0
238044.525,238.017,-795.462,0,0
238304.85,234.746,-793.841,0,0
238565.175,231.699,-792.098,0,0
238825.5,228.7,-790.589,0,0
239085.825,225.752,-788.724,0,0
239346.15,222.802,-786.997,0,0
239606.475,219.918,-785.244,0,0
239866.8,217.082,-783.302,0,0
240127.125,214.346,-781.299,0,0
240387.45,211.784,-779.259,0,0
240647.775,209.167,-777.223,0,0
240908.1,206.855,-775.2,0,0
241168.425,204.509,-773.004,0,0
241428.75,202.292,-770.876,0,0
241689.075,200.051,-768.737,0,0
241949.4,198.235,-766.576,0,0
242209.725,196.286,-764.479,0,0
242470.05,194.49,-762.402,0,0
242730.375,192.772,-760.375,0,0
242990.7,191.106,-758.363,0,0
243251.025,189.641,-756.407,0,0
243511.35,188.263,-754.622,0,0
243771.675,186.866,-753.01,0,0
244032.0,185.426,-751.518,0,0
244292.325,183.996,-750.099,0,0
244552.65,182.418,-748.811,0,0
244812.975,180.754,-747.591,0,0
245073.3,179.048,-746.321,0,0
245333.625,177.216,-745.067,0,0
245593.95,175.34,-743.925,0,0
245854.275,173.426,-742.751,0,0
246114.6,171.433,-741.677,0,0
246374.925,169.24,-740.55,0,0
246635.25,166.785,-739.472,0,0
246895.575,164.188,-738.155,0,0
247155.9,161.352,-736.611,0,0
247416.225,158.5,-734.8,0,0
247676.55,155.665,-732.663,0,0
247936.875,153.069,-730.397,0,0
248197.2,150.508,-728.029,0,0
248457.525,148.101,-725.511,0,0
248717.85,145.717,-722.895,0,0
248978.175,143.268,-720.308,0,0
249238.5,141.074,-717.524,0,0
249498.825,138.861,-714.535,0,0
249759.15,136.787,-711.515,0,0
250019.475,134.9,-708.429,0,0
250279.8,133.076,-705.222,0,0
250540,131.357,-701.984,0,0
250800,129.85,-698.653,0,0
251061,128.481,-695.259,0,0
251321,127.25,-691.928,0,0
251581,126.173,-688.605,0,0
251842,125.167,-685.284,0,0
252102,124.309,-681.969,0,0
252362,123.516,-678.717,0,0
252623,122.874,-675.381,0,0
252883,122.33,-672.126,0,0
253143,121.926,-668.86,0,0
253404,121.607,-665.73,0,0
253664,121.305,-662.598,0,0
253924,121.064,-659.559,0,0
254185,120.879,-656.474,0,0
254445,120.767,-653.426,0,0
254705,120.655,-650.418,0,0
254966,120.616,-647.212,0,0
255226,120.701,-644.114,0,0
255486,120.936,-641.047,0,0
255747,121.253,-637.96,0,0
256007,121.686,-634.915,0,0
256267,122.297,-631.894,0,0
256528,122.979,-628.97,0,0
256788,123.738,-626.112,0,0
257048,124.572,-623.306,0,0
257309,125.541,-620.567,0,0
257569,126.611,-617.905,0,0
257829,127.749,-615.37,0,0
258090,128.954,-612.917,0,0
258350,130.185,-610.612,0,0
258610,131.437,-608.376,0,0
258871,132.71,-606.219,0,0
259131,133.933,-604.13,0,0
259391,135.277,-602.051,0,0
259651,136.664,-599.971,0,0
259912,138.105,-597.981,0,0
260172,139.657,-596.049,0,0
260432,141.273,-594.286,0,0
260693,142.989,-592.592,0,0
260953,144.691,-591.037,0,0
261213,146.442,-589.566,0,0
261474,148.283,-588.218,0,0
261734,150.12,-587.011,0,0
261994,151.958,-585.991,0,0
262255,153.738,-585.098,0,0
262515,155.507,-584.325,0,0
262775,157.169,-583.672,0,0
263036,158.811,-583.054,0,0
263296,160.427,-582.438,0,0
263556,162.067,-581.933,0,0
263817,163.777,-581.572,0,0
264077,165.446,-581.351,0,0
264337,167.074,-581.344,0,0
264598,168.543,-581.461,0,0
264858,169.857,-581.718,0,0
265118,171.101,-582.047,0,0
265379,172.101,-582.421,0,0
265639,172.91,-582.858,0,0
265899,173.525,-583.237,0,0
266160,174.128,-583.513,0,0
266420,174.532,-583.739,0,0
266680.25,174.935,-583.831,0,0
266940.575,175.372,-583.818,0,0
267200.9,175.872,-583.827,0,0
267461.225,176.402,-583.893,0,0
267721.55,176.871,-584.032,0,0
267981.875,177.276,-584.252,0,0
268242.2,177.542,-584.538,0,0
268502.525,177.64,-584.74,0,0
268762.85,177.61,-584.926,0,0
269023.175,177.448,-584.99,0,0
269283.5,177.126,-584.959,0,0
269543.825,176.758,-584.664,0,0
269804.15,176.377,-584.081,0,0
270064.475,176.096,-583.351,0,0
270324.8,176.03,-582.478,0,0
270585.125,176.043,-581.433,0,0
270845.45,176.236,-580.276,0,0
271105.775,176.707,-579.085,0,0
271366.1,177.397,-577.88,0,0
271626.425,178.266,-576.738,0,0
271886.75,179.327,-575.644,0,0
272147.075,180.523,-574.744,0,0
272407.4,181.778,-573.899,0,0
272667.725,183.138,-573.09,0,0
272928.05,184.623,-572.313,0,0
273188.375,186.3,-571.635,0,0
273448.7,188.162,-570.983,0,0
273709.025,190.225,-570.499,0,0
273969.35,192.653,-570.195,0,0
274229.675,195.252,-570.263,0,0
274490.0,198.064,-570.705,0,0
274750.325,200.917,-571.585,0,0
275010.65,203.787,-572.999,0,0
275270.975,206.486,-574.935,0,0
275531.3,208.978,-577.224,0,0
275791.625,211.188,-579.97,0,0
276051.95,213.085,-583.06,0,0
276312.275,214.559,-586.495,0,0
276572.6,215.559,-590.199,0,0
276832.925,215.965,-594.007,0,0
277093.25,215.85,-597.837,0,0
277353.575,215.185,-601.591,0,0
277613.9,214.059,-605.115,0,0
277874.225,212.514,-608.344,0,0
278134.55,210.731,-611.319,0,0
278394.875,208.703,-614.025,0,0
278655.2,206.527,-616.362,0,0
278915.525,204.336,-618.47,0,0
279175.85,202.105,-620.357,0,0
279436.175,199.789,-622.013,0,0
279696.5,197.516,-623.544,0,0
279956.825,195.273,-624.948,0,0
280217.15,192.963,-626.323,0,0
280477.475,190.586,-627.582,0,0
280737.8,188.196,-628.727,0,0
280998.125,185.718,-629.822,0,0
281258.45,183.148,-630.85,0,0
281518.775,180.451,-631.707,0,0
281779.1,177.665,-632.443,0,0
282039.425,174.795,-633.073,0,0
282299.75,171.824,-633.525,0,0
282560,168.751,-633.78,0,0
282820,165.572,-633.76,0,0
283081,162.356,-633.473,0,0
283341,159.187,-632.806,0,0
283601,156.204,-631.825,0,0
283862,153.467,-630.578,0,0
284122,151.101,-629.247,0,0
284382,149.019,-627.963,0,0
284643,147.177,-626.893,0,0
284903,145.31,-626.111,0,0
285163,143.21,-625.49,0,0
285424,140.87,-624.826,0,0
285684,138.292,-623.936,0,0
285944,135.581,-622.742,0,0
286205,132.859,-621.379,0,0
286465,130.154,-619.726,0,0
286725,127.488,-617.805,0,0
286986,124.88,-615.605,0,0
287246,122.361,-613.101,0,0
287506,120.068,-610.329,0,0
287767,117.914,-607.23,0,0
288027,116.09,-603.888,0,0
288287,114.568,-600.275,0,0
288548,113.444,-596.48,0,0
288808,112.724,-592.539,0,0
289068,112.49,-588.484,0,0
289329,112.79,-584.473,0,0
289589,113.6,-580.52,0,0
289849,114.935,-576.777,0,0
290109,116.734,-573.264,0,0
290370,118.998,-570.204,0,0
290630,121.639,-567.594,0,0
290890,124.551,-565.488,0,0
291151,127.53,-563.991,0,0
291411,130.563,-563.068,0,0
291671,133.424,-562.647,0,0
291932,136.117,-562.613,0,0
292192,138.632,-562.973,0,0
292452,140.947,-563.66,0,0
292713,143.028,-564.643,0,0
292973,144.794,-565.964,0,0
293233,146.249,-567.548,0,0
293494,147.203,-569.369,0,0
293754,147.617,-571.278,0,0
294014,147.496,-572.966,0,0
294275,146.903,-574.332,0,0
294535,146.102,-575.271,0,0
294795,145.204,-575.689,0,0
295056,144.512,-575.615,0,0
295316,144.242,-575.14,0,0
295576,144.603,-574.618,0,0
295837,145.529,-574.368,0,0
296097,146.845,-574.688,0,0
296357,148.255,-575.747,0,0
296618,149.367,-577.434,0,0
296878,149.98,-579.669,0,0
297138,149.972,-582.179,0,0
297399,149.285,-584.714,0,0
297659,147.986,-587.062,0,0
297919,146.206,-589.054,0,0
298180,144.129,-590.599,0,0
298440,141.937,-591.704,0,0
298700.2,139.775,-592.467,0,0
298960.525,137.695,-592.931,0,0
299220.85,135.692,-593.148,0,0
299481.175,133.784,-593.267,0,0
299741.5,131.997,-593.307,0,0
300001.825,130.24,-593.286,0,0
300262.15,128.492,-593.172,0,0
300522.475,126.711,-592.986,0,0
300782.8,124.966,-592.654,0,0
301043.125,123.243,-592.165,0,0
301303.45,121.652,-591.539,0,0
301563.775,120.181,-590.808,0,0
301824.1,118.915,-590.001,0,0
302084.425,117.802,-589.172,0,0
302344.75,116.888,-588.421,0,0
302605.075,116.11,-587.727,0,0
302865.4,115.451,-587.214,0,0
303125.725,114.816,-586.885,0,0
303386.05,114.177,-586.722,0,0
303646.375,113.425,-586.731,0,0
303906.7,112.497,-586.844,0,0
304167.025,111.453,-586.961,0,0
304427.35,110.275,-587.073,0,0
304687.675,108.982,-587.141,0,0
304948.0,107.561,-587.231,0,0
305208.325,106.023,-587.258,0,0
305468.65,104.345,-587.179,0,0
305728.975,102.567,-586.986,0,0
305989.3,100.755,-586.608,0,0
306249.625,98.9104,-586.064,0,0
306509.95,97.1048,-585.439,0,0
306770.275,95.283,-584.628,0,0
307030.6,93.5433,-583.702,0,0
307290.925,91.8812,-582.669,0,0
307551.25,90.3328,-581.558,0,0
307811.575,88.8607,-580.418,0,0
308071.9,87.4791,-579.248,0,0
308332.225,86.1541,-578.074,0,0
308592.55,84.873,-576.911,0,0
308852.875,83.6515,-575.733,0,0
309113.2,82.4222,-574.56,0,0
309373.525,81.2233,-573.343,0,0
309633.85,80.0959,-572.119,0,0
309894.175,78.9625,-570.829,0,0
310154.5,77.8614,-569.566,0,0
310414.825,76.8103,-568.243,0,0
310675.15,75.8217,-566.925,0,0
310935.475,74.8516,-565.593,0,0
311195.8,73.9173,-564.24,0,0
311456.125,73.0164,-562.869,0,0
311716.45,72.193,-561.45,0,0
311976.775,71.4496,-560.059,0,0
312237.1,70.74,-558.681,0,0
312497.425,70.0863,-557.317,0,0
312757.75,69.4801,-556.003,0,0
313018.075,68.9007,-554.702,0,0
313278.4,68.2998,-553.421,0,0
313538.725,67.7216,-552.178,0,0
313799.05,67.1593,-550.932,0,0
314059.375,66.6066,-549.698,0,0
314319.7,66.0534,-548.462,0,0
314580,65.5089,-547.274,0,0
314840,64.9701,-545.994,0,0
315101,64.4253,-544.753,0,0
315361,63.9959,-543.546,0,0
315621,63.4851,-542.281,0,0
315882,63.0084,-541.044,0,0
316142,62.5159,-539.745,0,0
316402,62.0916,-538.563,0,0
316663,61.7101,-537.241,0,0
316923,61.2832,-535.925,0,0
317183,61.003,-534.666,0,0
317444,60.6358,-533.365,0,0
317704,60.3337,-532.153,0,0
317964,60.1147,-530.936,0,0
318225,59.9502,-529.715,0,0
318485,59.7247,-528.517,0,0
318745,59.5071,-527.314,0,0
319006,59.3975,-526.211,0,0
319266,59.1878,-525.135,0,0
319526,59.0043,-524.024,0,0
319787,58.8562,-523.002,0,0
320047,58.6101,-521.9,0,0
320307,58.4113,-520.842,0,0
320567,58.2126,-519.77,0,0
320828,57.9796,-518.728,0,0
321088,57.7696,-517.551,0,0
321348,57.5303,-516.563,0,0
321609,57.418,-515.46,0,0
321869,57.2013,-514.309,0,0
322129,57.0104,-513.255,0,0
322390,56.8344,-512.15,0,0
322650,56.6302,-511.056,0,0
322910,56.4397,-509.971,0,0
323171,56.2547,-508.853,0,0
323431,56.0765,-507.629,0,0
323691,55.8729,-506.494,0,0
323952,55.7781,-505.191,0,0
324212,55.6801,-503.954,0,0
324472,55.6285,-502.56,0,0
324733,55.6431,-501.205,0,0
324993,55.7558,-499.859,0,0
325253,56.0239,-498.461,0,0
325514,56.3,-497.139,0,0
325774,56.7443,-495.843,0,0
326034,57.2113,-494.612,0,0
326295,57.8107,-493.417,0,0
326555,58.5118,-492.459,0,0
326815,59.1969,-491.565,0,0
327076,59.8086,-490.793,0,0
327336,60.4805,-490.11,0,0
327596,61.0422,-489.593,0,0
327857,61.5747,-489.051,0,0
328117,62.0181,-488.522,0,0
328377,62.3833,-488.092,0,0
328638,62.7881,-487.643,0,0
328898,63.1092,-487.135,0,0
329158,63.4642,-486.745,0,0
329419,63.8573,-486.345,0,0
329679,64.1262,-485.974,0,0
329939,64.4427,-485.628,0,0
330200,64.7621,-485.365,0,0
330460,64.9564,-485.144,0,0
330720.15,65.1766,-484.964,0,0
330980.475,65.3279,-484.713,0,0
331240.8,65.494,-484.593,0,0
331501.125,65.5229,-484.479,0,0
331761.45,65.5255,-484.443,0,0
332021.775,65.4614,-484.313,0,0
332282.1,65.3992,-484.16,0,0
332542.425,65.1824,-484.096,0,0
332802.75,64.9369,-484.039,0,0
333063.075,64.595,-483.902,0,0
333323.4,64.14,-483.729,0,0
333583.725,63.7489,-483.466,0,0
333844.05,63.2753,-483.144,0,0
334104.375,62.7937,-482.748,0,0
334364.7,62.2662,-482.332,0,0
334625.025,61.855,-481.81,0,0
334885.35,61.3636,-481.303,0,0
335145.675,60.8705,-480.735,0,0
335406.0,60.4667,-480.178,0,0
335666.325,60.0499,-479.603,0,0
335926.65,59.6519,-478.943,0,0
336186.975,59.2045,-478.284,0,0
336447.3,58.7769,-477.661,0,0
336707.625,58.4121,-476.956,0,0
336967.95,57.9506,-476.208,0,0
337228.275,57.5652,-475.465,0,0
337488.6,57.279,-474.68,0,0
337748.925,56.8714,-473.887,0,0
338009.25,56.6452,-473.062,0,0
338269.575,56.3139,-472.212,0,0
338529.9,56.0842,-471.428,0,0
338790.225,55.8178,-470.625,0,0
339050.55,55.5834,-469.761,0,0
339310.875,55.3945,-468.936,0,0
339571.2,55.2181,-468.11,0,0
339831.525,55.0355,-467.236,0,0
340091.85,54.8703,-466.407,0,0
340352.175,54.7399,-465.593,0,0
340612.5,54.6033,-464.748,0,0
340872.825,54.5047,-463.886,0,0
341133.15,54.3432,-463.091,0,0
341393.475,54.2483,-462.222,0,0
341653.8,54.1345,-461.363,0,0
341914.125,54.0494,-460.505,0,0
342174.45,54.0333,-459.682,0,0
342434.775,53.9821,-458.768,0,0
342695.1,53.8931,-457.924,0,0
342955.425,53.8951,-456.997,0,0
343215.75,53.927,-456.102,0,0
343476.075,53.9618,-455.244,0,0
343736.4,53.9849,-454.428,0,0
343996.725,54.0706,-453.519,0,0
344257.05,54.1652,-452.627,0,0
344517.375,54.2441,-451.788,0,0
344777.7,54.3345,-450.967,0,0
345038.025,54.4963,-450.09,0,0
345298.35,54.6538,-449.265,0,0
345558.675,54.8351,-448.437,0,0
345819.0,55.0762,-447.631,0,0
346079.325,55.2246,-446.842,0,0
346339.65,55.4683,-446.066,0,0
346599.975,55.6754,-445.244,0,0
346860,55.9484,-444.544,0,0
347121,56.2067,-443.845,0,0
347381,56.4392,-443.114,0,0
347641,56.7496,-442.451,0,0
347902,56.992,-441.755,0,0
348162,57.2661,-441.071,0,0
348422,57.5612,-440.383,0,0
348683,57.8583,-439.746,0,0
348943,58.1968,-439.05,0,0
349203,58.5245,-438.447,0,0
349464,58.9311,-437.782,0,0
349724,59.2253,-437.256,0,0
349984,59.6291,-436.703,0,0
350245,59.9864,-436.184,0,0
350505,60.3941,-435.714,0,0
350765,60.7416,-435.269,0,0
351025,61.1088,-434.856,0,0
351286,61.4228,-434.472,0,0
351546,61.746,-434.106,0,0
351806,61.9781,-433.759,0,0
352067,62.2339,-433.356,0,0
352327,62.4459,-432.998,0,0
352587,62.6311,-432.595,0,0
352848,62.819,-432.205,0,0
353108,63.0151,-431.807,0,0
353368,63.2709,-431.382,0,0
353629,63.44,-430.947,0,0
353889,63.6596,-430.527,0,0
354149,63.9058,-430.126,0,0
354410,64.1873,-429.731,0,0
354670,64.4288,-429.315,0,0
354930,64.7267,-428.927,0,0
355191,64.9396,-428.623,0,0
355451,65.1751,-428.262,0,0
355711,65.4593,-427.875,0,0
355972,65.6608,-427.549,0,0
356232,65.8898,-427.21,0,0
356492,66.1354,-426.856,0,0
356753,66.4579,-426.496,0,0
357013,66.6762,-426.159,0,0
357273,66.9698,-425.875,0,0
357534,67.3118,-425.514,0,0
357794,67.6168,-425.264,0,0
358054,67.9076,-424.963,0,0
358315,68.2134,-424.76,0,0
358575,68.6018,-424.48,0,0
358835,68.9239,-424.336,0,0
359096,69.2858,-424.182,0,0
359356,69.6448,-424.065,0,0
359616,70.0047,-424.024,0,0
359877,70.263,-424.041,0,0
360137,70.549,-424.011,0,0
360397,70.7192,-424.119,0,0
360658,70.8792,-424.17,0,0
360918,71.0763,-424.224,0,0
361178,71.1009,-424.345,0,0
361438,71.1564,-424.39,0,0
361699,71.1809,-424.443,0,0
361959,71.1458,-424.469,0,0
362219,71.0916,-424.524,0,0
362480,71.0258,-424.52,0,0
362740.1,70.9391,-424.486,0,0
363000.425,70.8796,-424.459,0,0
363260.75,70.8023,-424.5,0,0
363521.075,70.6603,-424.433,0,0
363781.4,70.5259,-424.411,0,0
364041.725,70.3684,-424.403,0,0
364302.05,70.183,-424.361,0,0
364562.375,70.0185,-424.288,0,0
364822.7,69.755,-424.224,0,0
365083.025,69.5343,-424.114,0,0
365343.35,69.2805,-423.95,0,0
365603.675,69.0671,-423.858,0,0
365864.0,68.8447,-423.6,0,0
366124.325,68.5675,-423.398,0,0
366384.65,68.3306,-423.173,0,0
366644.975,68.0967,-422.902,0,0
366905.3,67.8678,-422.616,0,0
367165.625,67.731,-422.296,0,0
367425.95,67.5403,-421.93,0,0
367686.275,67.4877,-421.655,0,0
367946.6,67.4265,-421.294,0,0
368206.925,67.3887,-421.03,0,0
368467.25,67.4143,-420.789,0,0
368727.575,67.3701,-420.575,0,0
368987.9,67.3873,-420.397,0,0
369248.225,67.3588,-420.293,0,0
369508.55,67.3516,-420.186,0,0
369768.875,67.2371,-420.144,0,0
370029.2,67.1048,-420.119,0,0
370289.525,66.923,-420.083,0,0
370549.85,66.7008,-420.009,0,0
370810.175,66.4231,-419.897,0,0
371070.5,66.1143,-419.775,0,0
371330.825,65.8223,-419.603,0,0
371591.15,65.5563,-419.396,0,0
371851.475,65.3453,-419.141,0,0
372111.8,65.0942,-418.973,0,0
372372.125,64.8823,-418.758,0,0
372632.45,64.6782,-418.556,0,0
372892.775,64.4804,-418.324,0,0
373153.1,64.2136,-418.117,0,0
373413.425,63.9566,-417.956,0,0
373673.75,63.7909,-417.746,0,0
373934.075,63.4837,-417.605,0,0
374194.4,63.2021,-417.413,0,0
374454.725,62.9195,-417.245,0,0
374715.05,62.6217,-417.088,0,0
374975.375,62.2904,-416.854,0,0
375235.7,61.9574,-416.68,0,0
375496.025,61.5952,-416.409,0,0
375756.35,61.2403,-416.154,0,0
376016.675,60.9187,-415.86,0,0
376277.0,60.5695,-415.574,0,0
376537.325,60.1637,-415.221,0,0
376797.65,59.9357,-414.902,0,0
377057.975,59.622,-414.571,0,0
377318.3,59.4253,-414.25,0,0
377578.625,59.1781,-413.986,0,0
377838.95,58.9477,-413.814,0,0
378099.275,58.6738,-413.594,0,0
378359.6,58.3313,-413.512,0,0
378619.925,57.8999,-413.373,0,0
378880,57.3703,-413.281,0,0
379141,56.7788,-413.028,0,0
379401,56.1093,-412.751,0,0
379661,55.4242,-412.298,0,0
379922,54.7405,-411.744,0,0
380182,54.0825,-411.108,0,0
380442,53.5694,-410.313,0,0
380703,53.2026,-409.502,0,0
380963,52.9565,-408.633,0,0
381223,52.8213,-407.884,0,0
381483,52.8177,-407.219,0,0
381744,52.8358,-406.602,0,0
382004,52.8842,-406.112,0,0
382264,52.8422,-405.797,0,0
382525,52.7899,-405.489,0,0
382785,52.6204,-405.165,0,0
383045,52.41,-404.954,0,0
383306,52.1244,-404.671,0,0
383566,51.7966,-404.454,0,0
383826,51.4306,-404.069,0,0
384087,51.0425,-403.711,0,0
384347,50.6285,-403.294,0,0
384607,50.2924,-402.87,0,0
384868,49.8192,-402.378,0,0
385128,49.4677,-401.863,0,0
385388,49.0547,-401.366,0,0
385649,48.6976,-400.809,0,0
385909,48.368,-400.215,0,0
386169,47.9631,-399.635,0,0
386430,47.6516,-399.074,0,0
386690,47.3588,-398.508,0,0
386950,47.0046,-397.866,0,0
387211,46.7033,-397.225,0,0
387471,46.3864,-396.531,0,0
387731,46.1045,-395.876,0,0
387992,45.858,-395.21,0,0
388252,45.6154,-394.483,0,0
388512,45.3821,-393.737,0,0
388773,45.1898,-393.003,0,0
389033,45.0611,-392.277,0,0
389293,44.9732,-391.551,0,0
389554,44.928,-390.834,0,0
389814,44.9022,-390.098,0,0
390074,44.891,-389.379,0,0
390335,44.9762,-388.777,0,0
390595,45.0104,-388.149,0,0
390855,45.0958,-387.599,0,0
391116,45.1634,-387.114,0,0
391376,45.215,-386.667,0,0
391636,45.265,-386.282,0,0
391896,45.255,-385.983,0,0
392157,45.1565,-385.667,0,0
392417,45.0079,-385.34,0,0
392677,44.8086,-385.022,0,0
392938,44.5284,-384.678,0,0
393198,44.1841,-384.264,0,0
393458,43.8595,-383.799,0,0
393719,43.5128,-383.313,0,0
393979,43.1371,-382.723,0,0
394239,42.7484,-382.117,0,0
394500,42.4206,-381.437,0,0
394760.05,42.0892,-380.746,0,0
395020.375,41.8232,-379.987,0,0
395280.7,41.5561,-379.205,0,0
395541.025,41.3543,-378.424,0,0
395801.35,41.1782,-377.595,0,0
396061.675,41.047,-376.803,0,0
396322.0,40.9597,-376.003,0,0
396582.325,40.8661,-375.188,0,0
396842.65,40.8167,-374.379,0,0
397102.975,40.8094,-373.544,0,0
397363.3,40.7925,-372.773,0,0
397623.625,40.817,-371.969,0,0
397883.95,40.8728,-371.194,0,0
398144.275,40.9612,-370.423,0,0
398404.6,41.0314,-369.72,0,0
398664.925,41.1359,-368.963,0,0
398925.25,41.259,-368.255,0,0
399185.575,41.3787,-367.535,0,0
399445.9,41.5146,-366.856,0,0
399706.225,41.6464,-366.194,0,0
399966.55,41.7788,-365.54,0,0
400006.6,41.8167,-365.454,0,0