File: Accelerated corrosion test data/2025-10-01_12-27-23/sample_8.csv
Frequency (Hz),Impedance (ohms),Phase (Radians),Temperature (C),Humidity (%)
10000.0,316.684,-10927.2,0,0
10260.325,308.595,-10652.9,0,0
10520.65,300.562,-10392.7,0,0
10780.975,293.618,-10145.7,0,0
11041.3,287.166,-9908.85,0,0
11301.625,280.215,-9684.33,0,0
11561.95,274.322,-9468.68,0,0
11822.275,268.35,-9262.93,0,0
12082.6,265.272,-9063.18,0,0
12342.925,263.2,-8876.84,0,0
12603.25,257.398,-8696.87,0,0
12863.575,253.124,-8526.13,0,0
13123.9,246.01,-8362.26,0,0
13384.225,239.544,-8201.03,0,0
13644.55,235.417,-8045.04,0,0
13904.875,229.074,-7898.9,0,0
14165.2,223.694,-7754.19,0,0
14425.525,219.105,-7616.03,0,0
14685.8,215.238,-7482.05,0,0
14946.175,212.01,-7353.19,0,0
15206.5,208.437,-7228.38,0,0
15466.825,205.086,-7108.25,0,0
15727.15,201.66,-6991.58,0,0
15987.5,198.613,-6879.11,0,0
16247.8,195.408,-6769.72,0,0
16508.125,192.338,-6663.71,0,0
16768.45,189.3,-6561.38,0,0
17028.775,186.322,-6461.75,0,0
17289.1,183.709,-6365.05,0,0
17549.425,180.994,-6271.34,0,0
17809.75,178.645,-6179.34,0,0
18070.075,176.994,-6092.16,0,0
18330.4,173.676,-6005.72,0,0
18590.725,171.532,-5920.91,0,0
18851.05,171.328,-5837.71,0,0
19111.375,169.474,-5759.35,0,0
19371.7,171.97,-5681.96,0,0
19632.025,168.426,-5610.88,0,0
19892.35,166.008,-5540.88,0,0
20152.675,162.48,-5468.25,0,0
20413.0,161.599,-5398.25,0,0
20673.3,160.632,-5331.2,0,0
20933.65,159.444,-5267.31,0,0
21193.975,157.023,-5204.44,0,0
21454.3,154.384,-5140.37,0,0
21714.625,152.521,-5078.77,0,0
21974.9,152.646,-5018.86,0,0
22235.275,152.456,-4961.05,0,0
22495.6,150.613,-4905.03,0,0
22755.925,149.345,-4851.26,0,0
23016.25,146.046,-4797.09,0,0
23276.6,143.159,-4744.77,0,0
23536.9,141.799,-4691.36,0,0
23797.225,139.114,-4641.25,0,0
24057.55,137.104,-4590.12,0,0
24317.875,135.664,-4541.31,0,0
24578.2,133.963,-4493.3,0,0
24838.525,132.007,-4445.48,0,0
25098.85,131.509,-4399.56,0,0
25359.175,129.698,-4354.2,0,0
25619.5,128.958,-4309.75,0,0
25879.8,126.933,-4266.13,0,0
26140.1,126.955,-4223.59,0,0
26400.5,125.574,-4181.83,0,0
26660.8,124.306,-4140.9,0,0
26921.1,123.286,-4099.72,0,0
27181.4,123.384,-4060.51,0,0
27441.8,122.069,-4022.08,0,0
27702.1,122.027,-3984.57,0,0
27962.4,120.326,-3947.66,0,0
28222.7,119.756,-3909.76,0,0
28483.1,119.1,-3874.48,0,0
28743.4,118.848,-3839.31,0,0
29003.7,118.417,-3805.17,0,0
29264,117.956,-3770.34,0,0
29524.4,117.155,-3737.46,0,0
29784.7,116.96,-3704.57,0,0
30045,117.062,-3673.1,0,0
30305.3,116.917,-3641.83,0,0
30565.7,115.823,-3611.43,0,0
30826,114.84,-3580.68,0,0
31086.3,113.849,-3551.11,0,0
31346.6,113.222,-3521.35,0,0
31607,112.687,-3492.24,0,0
31867.3,112.553,-3463.16,0,0
32127.6,112.197,-3435.54,0,0
32387.9,111.192,-3407.3,0,0
32648.3,111.556,-3379.82,0,0
32908.6,111.237,-3352.17,0,0
33168.9,111.714,-3326.38,0,0
33429.2,112.744,-3300.38,0,0
33689.6,113.863,-3275.77,0,0
33949.9,113.415,-3252.62,0,0
34210.2,112.489,-3228.61,0,0
34470.5,111.795,-3205.28,0,0
34730.9,111.234,-3181.27,0,0
34991.2,111.253,-3158.28,0,0
35251.5,110.988,-3136.22,0,0
35511.8,110.076,-3114.7,0,0
35772.2,108.666,-3093.29,0,0
36032.5,107.505,-3071.39,0,0
36292.8,106.23,-3050.53,0,0
36553.1,104.754,-3029.19,0,0
36813.5,103.45,-3008.15,0,0
37073.8,102.13,-2987.03,0,0
37334.1,100.855,-2966.7,0,0
37594.4,99.51,-2946.51,0,0
37854.8,97.9474,-2926,0,0
38115.1,97.0033,-2906.17,0,0
38375.4,95.3659,-2886.49,0,0
38635.7,93.9743,-2866.62,0,0
38896.1,92.7304,-2847.1,0,0
39156.4,91.507,-2827.73,0,0
39416.7,90.3022,-2808.67,0,0
39677,89.2673,-2789.61,0,0
39937.4,88.1908,-2770.7,0,0
40197.7,87.3117,-2751.82,0,0
40458,87.0509,-2733.14,0,0
40718.3,86.8923,-2715.19,0,0
40978.7,86.6037,-2697.78,0,0
41239,85.7473,-2680.39,0,0
41499.3,85.1418,-2662.92,0,0
41759.6,84.6094,-2645.9,0,0
42020,84.2705,-2629.24,0,0
42280.275,83.589,-2612.45,0,0
42540.6,83.1304,-2595.87,0,0
42800.925,82.8535,-2579.18,0,0
43061.25,82.9241,-2563.24,0,0
43321.575,82.8301,-2547.52,0,0
43581.9,83.0535,-2532.2,0,0
43842.225,82.6426,-2517.46,0,0
44102.55,82.1415,-2502.75,0,0
44362.875,81.2671,-2487.83,0,0
44623.2,80.3993,-2473.18,0,0
44883.525,79.7656,-2458.48,0,0
45143.85,79.2282,-2443.84,0,0
45404.175,78.8346,-2429.4,0,0
45664.5,78.2203,-2415.08,0,0
45924.825,77.7794,-2401.17,0,0
46185.15,77.2242,-2387.09,0,0
46445.475,76.4478,-2372.9,0,0
46705.8,76.2504,-2359.51,0,0
46966.125,75.9762,-2345.99,0,0
47226.45,75.7438,-2332.57,0,0
47486.775,75.4455,-2319.25,0,0
47747.1,75.1106,-2306.11,0,0
48007.425,74.8119,-2293.22,0,0
48267.75,74.5184,-2280.6,0,0
48528.075,74.1465,-2267.9,0,0
48788.4,73.9908,-2255.52,0,0
49048.725,73.3372,-2243.44,0,0
49309.05,72.792,-2231,0,0
49569.375,72.3175,-2218.55,0,0
49829.7,72.0903,-2206.6,0,0
50090.025,71.6936,-2194.67,0,0
50350.35,71.4659,-2182.77,0,0
50610.675,71.0515,-2170.9,0,0
50871.0,70.7929,-2159.3,0,0
51131.325,70.643,-2147.57,0,0
51391.65,70.4966,-2136.23,0,0
51651.975,70.299,-2124.81,0,0
51912.3,70.309,-2113.77,0,0
52172.625,70.1727,-2102.85,0,0
52432.95,70.1926,-2092.07,0,0
52693.275,69.8823,-2081.14,0,0
52953.6,69.8707,-2070.59,0,0
53213.925,69.9627,-2060.16,0,0
53474.25,69.7845,-2050.05,0,0
53734.575,69.8931,-2040.08,0,0
53994.9,69.4314,-2030.43,0,0
54255.225,68.9267,-2020.7,0,0
54515.55,68.0922,-2010.8,0,0
54775.875,67.4648,-2000.62,0,0
55036.2,67.1275,-1990.97,0,0
55296.525,66.4048,-1981.18,0,0
55556.85,65.6953,-1971.27,0,0
55817.175,65.1845,-1961.46,0,0
56077.5,64.7154,-1951.67,0,0
56337.825,64.2262,-1941.96,0,0
56598.15,63.7951,-1932.35,0,0
56858.475,63.5369,-1922.55,0,0
57118.8,63.2545,-1913.01,0,0
57379.125,63.0529,-1903.64,0,0
57639.45,62.995,-1894.23,0,0
57899.775,62.6827,-1885.08,0,0
58160.1,62.6753,-1875.94,0,0
58420.4,62.4936,-1866.8,0,0
58680.7,62.4983,-1857.81,0,0
58941.1,62.5219,-1848.99,0,0
59201.4,62.6857,-1840.37,0,0
59461.7,62.6314,-1832.06,0,0
59722,62.4054,-1823.75,0,0
59982.4,61.9237,-1815.29,0,0
60242.7,61.6429,-1806.71,0,0
60503,61.2908,-1798.41,0,0
60763.3,60.9391,-1789.75,0,0
61023.7,60.9186,-1781.27,0,0
61284,60.8106,-1773.03,0,0
61544.3,60.9031,-1764.67,0,0
61804.6,60.9472,-1756.66,0,0
62065,60.8996,-1748.8,0,0
62325.3,60.7613,-1740.74,0,0
62585.6,60.7016,-1732.79,0,0
62845.9,60.6381,-1724.84,0,0
63106.3,60.8396,-1716.87,0,0
63366.6,60.9962,-1709.16,0,0
63626.9,61.3368,-1701.5,0,0
63887.2,61.5216,-1694.14,0,0
64147.6,61.6594,-1686.64,0,0
64407.9,62.0604,-1679.26,0,0
64668.2,62.5602,-1672.46,0,0
64928.5,62.5828,-1665.68,0,0
65188.9,62.5376,-1659.06,0,0
65449.2,62.3895,-1652.08,0,0
65709.5,62.2573,-1645.58,0,0
65969.8,61.884,-1638.82,0,0
66230.2,61.6076,-1632.02,0,0
66490.5,61.006,-1625.56,0,0
66750.8,60.4782,-1618.73,0,0
67011.1,59.8752,-1611.63,0,0
67271.5,59.5404,-1604.67,0,0
67531.8,59.2466,-1597.49,0,0
67792.1,59.2273,-1590.84,0,0
68052.4,59.0026,-1584.02,0,0
68312.8,58.7701,-1577.24,0,0
68573.1,58.6066,-1570.51,0,0
68833.4,58.5582,-1563.91,0,0
69093.7,58.2445,-1557.25,0,0
69354.1,58.147,-1550.57,0,0
69614.4,58.0591,-1543.87,0,0
69874.7,58.1435,-1537.31,0,0
70135,58.243,-1530.82,0,0
70395.4,58.414,-1524.31,0,0
70655.7,58.4326,-1518.12,0,0
70916,58.6385,-1511.85,0,0
71176.3,58.6387,-1505.76,0,0
71436.7,58.8009,-1499.63,0,0
71697,58.8681,-1493.62,0,0
71957.3,59.109,-1487.68,0,0
72217.6,59.054,-1481.95,0,0
72478,59.1693,-1476.06,0,0
72738.3,59.0937,-1470.47,0,0
72998.6,58.9754,-1464.9,0,0
73258.9,58.5737,-1459.11,0,0
73519.3,58.3578,-1453.26,0,0
73779.6,58.1889,-1447.37,0,0
74039.9,58.1169,-1441.45,0,0
74300.225,58.2428,-1435.81,0,0
74560.55,58.1746,-1430.29,0,0
74820.875,58.0108,-1424.7,0,0
75081.2,57.7352,-1419.03,0,0
75341.525,57.7086,-1413.32,0,0
75601.85,57.5035,-1407.71,0,0
75862.175,57.5769,-1401.98,0,0
76122.5,57.6072,-1396.52,0,0
76382.825,57.7113,-1390.99,0,0
76643.15,57.7241,-1385.53,0,0
76903.475,57.7807,-1380.23,0,0
77163.8,57.7662,-1374.96,0,0
77424.125,57.6819,-1369.65,0,0
77684.45,57.7009,-1364.35,0,0
77944.775,57.5944,-1359.11,0,0
78205.1,57.5663,-1353.94,0,0
78465.425,57.5165,-1348.71,0,0
78725.75,57.3835,-1343.57,0,0
78986.075,57.238,-1338.26,0,0
79246.4,57.228,-1332.98,0,0
79506.725,57.1835,-1327.87,0,0
79767.05,57.1358,-1322.58,0,0
80027.375,57.1942,-1317.38,0,0
80287.7,57.2549,-1312.24,0,0
80548.025,57.3128,-1307.07,0,0
80808.35,57.453,-1302.06,0,0
81068.675,57.4826,-1297.09,0,0
81329.0,57.5102,-1292.03,0,0
81589.325,57.591,-1286.99,0,0
81849.65,57.7518,-1281.98,0,0
82109.975,57.7571,-1277.03,0,0
82370.3,57.8781,-1271.95,0,0
82630.625,58.1252,-1266.81,0,0
82890.95,58.5032,-1261.87,0,0
83151.275,58.9765,-1257.06,0,0
83411.6,59.2389,-1252.43,0,0
83671.925,59.4315,-1247.61,0,0
83932.25,59.8236,-1242.72,0,0
84192.575,60.4193,-1238.1,0,0
84452.9,60.9187,-1233.69,0,0
84713.225,61.2377,-1229.32,0,0
84973.55,61.544,-1224.85,0,0
85233.875,62.0032,-1220.49,0,0
85494.2,62.3091,-1216.4,0,0
85754.525,62.4373,-1212.33,0,0
86014.85,62.2479,-1208.11,0,0
86275.175,62.2203,-1203.72,0,0
86535.5,62.1632,-1199.33,0,0
86795.825,62.1209,-1194.79,0,0
87056.15,62.3141,-1190.12,0,0
87316.475,62.6363,-1185.65,0,0
87576.8,62.8112,-1181.29,0,0
87837.125,62.9051,-1176.77,0,0
88097.45,63.2617,-1172.14,0,0
88357.775,63.8294,-1167.73,0,0
88618.1,64.2539,-1163.42,0,0
88878.425,64.81,-1159.23,0,0
89138.75,65.081,-1155,0,0
89399.075,65.6036,-1150.82,0,0
89659.4,65.9897,-1146.56,0,0
89919.725,66.4351,-1142.49,0,0
90180,66.9502,-1138.32,0,0
90440.4,67.5896,-1134.08,0,0
90700.7,68.0626,-1129.93,0,0
90961,68.8007,-1125.88,0,0
91221.3,69.5423,-1121.7,0,0
91481.7,70.5324,-1117.65,0,0
91742,71.6809,-1114,0,0
92002.3,72.6123,-1110.53,0,0
92262.6,73.6352,-1107.16,0,0
92523,74.6595,-1104.1,0,0
92783.3,75.1844,-1101.21,0,0
93043.6,75.6411,-1098.18,0,0
93303.9,76.1002,-1095.41,0,0
93564.3,76.1413,-1092.57,0,0
93824.6,76.0032,-1089.71,0,0
94084.9,75.7473,-1086.74,0,0
94345.2,75.1545,-1083.39,0,0
94605.6,74.6912,-1079.71,0,0
94865.9,74.5765,-1075.64,0,0
95126.2,75.0389,-1071.78,0,0
95386.5,75.348,-1068.24,0,0
95646.9,75.6993,-1064.67,0,0
95907.2,76.2139,-1061.37,0,0
96167.5,76.3446,-1058.24,0,0
96427.8,76.2906,-1054.83,0,0
96688.2,76.4185,-1051.13,0,0
96948.5,76.8954,-1047.52,0,0
97208.8,77.4067,-1044.16,0,0
97469.1,77.8083,-1040.85,0,0
97729.5,78.3903,-1037.47,0,0
97989.8,79.0079,-1034.47,0,0
98250.1,79.4638,-1031.57,0,0
98510.4,79.6717,-1028.64,0,0
98770.8,80.0939,-1025.57,0,0
99031.1,80.4816,-1022.79,0,0
99291.4,80.7687,-1020.21,0,0
99551.7,80.5936,-1017.62,0,0
99812.1,80.3295,-1014.68,0,0
100072,80.1454,-1011.49,0,0
100333,80.2877,-1008.22,0,0
100593,80.561,-1005.15,0,0
100853,80.8228,-1002.29,0,0
101114,80.9639,-999.594,0,0
101374,80.8474,-996.847,0,0
101634,80.6907,-993.971,0,0
101895,80.6708,-991.041,0,0
102155,80.5371,-988.197,0,0
102415,80.3459,-985.28,0,0
102676,80.1911,-982.28,0,0
102936,80.0998,-979.261,0,0
103196,80.0096,-976.266,0,0
103457,79.8961,-973.24,0,0
103717,79.8861,-970.221,0,0
103977,79.872,-967.349,0,0
104238,79.7468,-964.464,0,0
104498,79.5229,-961.506,0,0
104758,79.2941,-958.408,0,0
105019,79.2015,-955.309,0,0
105279,78.9912,-952.234,0,0
105539,78.9635,-949.008,0,0
105800,78.9784,-945.809,0,0
106060,79.0633,-942.598,0,0
106320.175,79.2734,-939.453,0,0
106580.5,79.4706,-936.375,0,0
106840.825,79.7657,-933.373,0,0
107101.15,80.0237,-930.492,0,0
107361.475,80.2801,-927.699,0,0
107621.8,80.4586,-924.953,0,0
107882.125,80.5576,-922.229,0,0
108142.45,80.5516,-919.541,0,0
108402.775,80.4238,-916.587,0,0
108663.1,80.5623,-913.562,0,0
108923.425,80.7419,-910.703,0,0
109183.75,80.9263,-907.869,0,0
109444.075,81.185,-905.077,0,0
109704.4,81.4188,-902.305,0,0
109964.725,81.5906,-899.664,0,0
110225.05,81.8316,-897.039,0,0
110485.375,81.9892,-894.502,0,0
110745.7,82.0116,-891.904,0,0
111006.025,82.1757,-889.365,0,0
111266.35,82.0434,-886.879,0,0
111526.675,81.9539,-884.219,0,0
111787.0,81.9211,-881.515,0,0
112047.325,81.9641,-878.767,0,0
112307.65,82.014,-876.238,0,0
112567.975,82.0455,-873.557,0,0
112828.3,82.0308,-870.976,0,0
113088.625,82.0232,-868.396,0,0
113348.95,81.9906,-865.846,0,0
113609.275,81.9712,-863.223,0,0
113869.6,81.8757,-860.708,0,0
114129.925,81.8181,-858.099,0,0
114390.25,81.7262,-855.552,0,0
114650.575,81.5412,-852.987,0,0
114910.9,81.3875,-850.31,0,0
115171.225,81.2748,-847.598,0,0
115431.55,81.2741,-844.919,0,0
115691.875,81.187,-842.357,0,0
115952.2,81.1029,-839.699,0,0
116212.525,81.1029,-837.152,0,0
116472.85,80.9647,-834.53,0,0
116733.175,80.8089,-831.961,0,0
116993.5,80.6218,-829.366,0,0
117253.825,80.4122,-826.734,0,0
117514.15,80.1674,-824.047,0,0
117774.475,79.9508,-821.244,0,0
118034.8,79.8609,-818.409,0,0
118295.125,79.6827,-815.61,0,0
118555.45,79.607,-812.704,0,0
118815.775,79.6943,-809.781,0,0
119076.1,79.9339,-806.983,0,0
119336.425,80.0829,-804.441,0,0
119596.75,80.0776,-801.956,0,0
119857.075,80.0344,-799.371,0,0
120117.4,79.8927,-796.721,0,0
120377.725,79.8351,-794.031,0,0
120638.05,79.7657,-791.383,0,0
120898.375,79.6504,-788.665,0,0
121158.7,79.4917,-785.818,0,0
121419.025,79.5606,-782.916,0,0
121679.35,79.6905,-780.209,0,0
121939.675,79.6883,-777.492,0,0
122200.0,79.7492,-774.756,0,0
122460,79.8041,-771.943,0,0
122721,79.9742,-769.169,0,0
122981,80.1252,-766.523,0,0
123241,80.2599,-763.93,0,0
123502,80.2499,-761.351,0,0
123762,80.2162,-758.651,0,0
124022,80.1788,-755.892,0,0
124283,80.1841,-753.04,0,0
124543,80.2941,-750.166,0,0
124803,80.5058,-747.313,0,0
125064,80.7602,-744.487,0,0
125324,81.069,-741.75,0,0
125584,81.3446,-739.102,0,0
125845,81.6288,-736.454,0,0
126105,81.8497,-733.846,0,0
126365,81.9872,-731.196,0,0
126626,82.2324,-728.453,0,0
126886,82.5873,-725.775,0,0
127146,82.8903,-723.197,0,0
127406,83.2013,-720.645,0,0
127667,83.4722,-718.089,0,0
127927,83.7156,-715.616,0,0
128187,83.949,-713.041,0,0
128448,84.1986,-710.521,0,0
128708,84.444,-708.076,0,0
128968,84.6487,-705.696,0,0
129229,84.6988,-703.3,0,0
129489,84.7001,-700.754,0,0
129749,84.7662,-698.29,0,0
130010,84.7067,-695.878,0,0
130270,84.4008,-693.247,0,0
130530,84.2723,-690.332,0,0
130791,84.1984,-687.374,0,0
131051,84.2281,-684.361,0,0
131311,84.2792,-681.143,0,0
131572,84.7521,-677.74,0,0
131832,85.682,-674.718,0,0
132092,86.5042,-672.178,0,0
132353,87.0833,-669.775,0,0
132613,87.4063,-667.411,0,0
132873,87.4828,-664.871,0,0
133134,87.5654,-661.947,0,0
133394,88.1069,-658.915,0,0
133654,88.8019,-656.137,0,0
133915,89.4487,-653.587,0,0
134175,89.9039,-651.073,0,0
134435,90.3081,-648.531,0,0
134696,90.779,-645.914,0,0
134956,91.1966,-643.29,0,0
135216,91.6148,-640.689,0,0
135477,92.0826,-637.976,0,0
135737,92.6356,-635.25,0,0
135997,93.3565,-632.594,0,0
136258,94.0986,-630.15,0,0
136518,94.7054,-627.844,0,0
136778,95.1769,-625.462,0,0
137039,95.7909,-623.058,0,0
137299,96.3834,-620.92,0,0
137559,96.8087,-618.85,0,0
137819,96.999,-616.964,0,0
138080,96.8437,-614.872,0,0
138340.125,96.4994,-612.599,0,0
138600.45,96.0419,-609.948,0,0
138860.775,95.7359,-607.005,0,0
139121.1,95.6174,-603.936,0,0
139381.425,95.6337,-600.818,0,0
139641.75,95.8584,-597.634,0,0
139902.075,96.1526,-594.537,0,0
140162.4,96.4948,-591.46,0,0
140422.725,96.9126,-588.463,0,0
140683.05,97.2372,-585.545,0,0
140943.375,97.4648,-582.553,0,0
141203.7,97.6723,-579.416,0,0
141464.025,97.9787,-576.165,0,0
141724.35,98.3146,-572.86,0,0
141984.675,98.7882,-569.531,0,0
142245.0,99.3292,-566.214,0,0
142505.325,99.8443,-562.892,0,0
142765.65,100.399,-559.463,0,0
143025.975,101.123,-556.016,0,0
143286.3,101.85,-552.672,0,0
143546.625,102.53,-549.301,0,0
143806.95,103.147,-545.82,0,0
144067.275,103.829,-542.201,0,0
144327.6,104.611,-538.451,0,0
144587.925,105.553,-534.562,0,0
144848.25,106.685,-530.622,0,0
145108.575,108.034,-526.653,0,0
145368.9,109.531,-522.728,0,0
145629.225,111.213,-518.757,0,0
145889.55,113.183,-514.844,0,0
146149.875,115.446,-511.187,0,0
146410.2,117.749,-507.814,0,0
146670.525,120.002,-504.681,0,0
146930.85,122.214,-501.634,0,0
147191.175,124.379,-498.687,0,0
147451.5,126.565,-495.714,0,0
147711.825,128.917,-492.953,0,0
147972.15,131.212,-490.653,0,0
148232.475,132.867,-488.673,0,0
148492.8,133.847,-486.299,0,0
148753.125,134.664,-483.214,0,0
149013.45,135.786,-479.566,0,0
149273.775,137.182,-475.635,0,0
149534.1,139.056,-471.322,0,0
149794.425,141.588,-466.912,0,0
150054.75,144.615,-462.794,0,0
150315.075,147.917,-458.984,0,0
150575.4,151.465,-455.3,0,0
150835.725,155.339,-451.944,0,0
151096.05,159.221,-448.811,0,0
151356.375,163.33,-445.615,0,0
151616.7,168.199,-442.575,0,0
151877.025,173.802,-440.547,0,0
152137.35,179.268,-439.68,0,0
152397.675,184.033,-439.806,0,0
152658.0,188.201,-440.312,0,0
152918.325,191.581,-441.186,0,0
153178.65,194.117,-442.008,0,0
153438.975,196.192,-442.524,0,0
153699.3,197.914,-442.737,0,0
153959.625,199.39,-442.804,0,0
154219.95,200.642,-442.729,0,0
154480,201.469,-442.385,0,0
154741,201.989,-441.405,0,0
155001,202.706,-439.671,0,0
155261,203.96,-437.499,0,0
155522,205.796,-435.11,0,0
155782,208.468,-432.737,0,0
156042,211.682,-430.949,0,0
156303,215.436,-429.915,0,0
156563,219.371,-430.318,0,0
156823,222.097,-432.099,0,0
157084,223.132,-434.086,0,0
157344,222.723,-435.677,0,0
157604,220.636,-435.79,0,0
157864,218.87,-433.687,0,0
158125,218.039,-430.67,0,0
158385,218.064,-427.162,0,0
158645,218.757,-423.447,0,0
158906,220.178,-419.3,0,0
159166,222.724,-414.937,0,0
159426,226.9,-410.947,0,0
159687,232.183,-408.596,0,0
159947,237.218,-408.095,0,0
160207,241.531,-408.887,0,0
160468,244.296,-410.329,0,0
160728,245.789,-411.744,0,0
160988,245.915,-412.664,0,0
161249,245.112,-412.07,0,0
161509,244.834,-409.726,0,0
161769,245.775,-406.748,0,0
162030,247.675,-403.801,0,0
162290,250.194,-401.191,0,0
162550,253.202,-398.833,0,0
162811,256.818,-396.983,0,0
163071,260.385,-395.782,0,0
163331,263.989,-394.968,0,0
163592,267.748,-394.653,0,0
163852,271.415,-395.173,0,0
164112,274.562,-396.179,0,0
164373,277.287,-397.768,0,0
164633,278.841,-399.506,0,0
164893,279.728,-400.606,0,0
165154,280.627,-401.229,0,0
165414,281.813,-401.775,0,0
165674,282.816,-402.412,0,0
165935,283.851,-403.312,0,0
166195,284.665,-404.653,0,0
166455,284.841,-406.357,0,0
166716,284.056,-408.103,0,0
166976,282.229,-409.277,0,0
167236,279.724,-409.49,0,0
167497,277.174,-408.819,0,0
167757,274.881,-407.308,0,0
168017,272.742,-405.555,0,0
168277,270.617,-403.342,0,0
168538,268.564,-400.435,0,0
168798,266.882,-397.169,0,0
169058,265.33,-393.382,0,0
169319,264.521,-389.201,0,0
169579,263.866,-384.9,0,0
169839,263.782,-380.249,0,0
170100,264.28,-375.669,0,0
170360.075,265.042,-371.519,0,0
170620.4,265.738,-367.196,0,0
170880.725,266.608,-362.757,0,0
171141.05,267.574,-358.197,0,0
171401.375,268.907,-353.545,0,0
171661.7,270.357,-348.867,0,0
171922.025,271.91,-343.851,0,0
172182.35,273.95,-338.602,0,0
172442.675,276.549,-333.38,0,0
172703.0,279.609,-328.148,0,0
172963.325,283.198,-323.072,0,0
173223.65,287.262,-318.488,0,0
173483.975,291.265,-314.397,0,0
173744.3,295.433,-310.203,0,0
174004.625,299.84,-306.247,0,0
174264.95,304.395,-302.507,0,0
174525.275,309.22,-299.047,0,0
174785.6,314.254,-296.046,0,0
175045.925,318.968,-293.677,0,0
175306.25,323.28,-291.317,0,0
175566.575,327.593,-289.057,0,0
175826.9,331.464,-286.996,0,0
176087.225,334.865,-284.596,0,0
176347.55,338.086,-281.613,0,0
176607.875,341.602,-278.026,0,0
176868.2,345.84,-274.006,0,0
177128.525,350.852,-270.101,0,0
177388.85,356.351,-266.515,0,0
177649.175,362.065,-263.602,0,0
177909.5,367.564,-260.918,0,0
178169.825,373.015,-258.145,0,0
178430.15,378.773,-255.326,0,0
178690.475,384.848,-252.784,0,0
178950.8,390.933,-250.253,0,0
179211.125,397.377,-247.991,0,0
179471.45,404.008,-245.844,0,0
179731.775,411.048,-243.985,0,0
179992.1,418.163,-242.716,0,0
180252.425,424.959,-241.952,0,0
180512.75,431.522,-241.261,0,0
180773.075,437.955,-240.361,0,0
181033.4,444.766,-239.5,0,0
181293.725,451.827,-239.088,0,0
181554.05,458.961,-239.055,0,0
181814.375,465.739,-239.364,0,0
182074.7,472.445,-239.838,0,0
182335.025,478.968,-240.651,0,0
182595.35,484.931,-241.472,0,0
182855.675,491.028,-241.846,0,0
183116.0,497.573,-242.34,0,0
183376.325,504.162,-243.716,0,0
183636.65,509.681,-245.513,0,0
183896.975,514.548,-246.504,0,0
184157.3,519.656,-246.676,0,0
184417.625,525.286,-247.053,0,0
184677.95,531.124,-247.155,0,0
184938.275,537.242,-247.353,0,0
185198.6,543.351,-248.389,0,0
185458.925,548.478,-248.96,0,0
185719.25,553.607,-248.392,0,0
185979.575,559.751,-247.098,0,0
186239.9,566.87,-246.068,0,0
186500,574.71,-244.784,0,0
186761,583.818,-244.027,0,0
187021,593.568,-244.642,0,0
187281,602.994,-246.398,0,0
187542,611.813,-248.701,0,0
187802,620.15,-250.698,0,0
188062,628.693,-252.36,0,0
188322,638.032,-253.921,0,0
188583,648.335,-256.052,0,0
188843,659.112,-259.401,0,0
189103,669.649,-264.105,0,0
189364,679.676,-269.471,0,0
189624,689.024,-275.798,0,0
189884,697.176,-282.338,0,0
190145,704.375,-288.38,0,0
190405,711.845,-293.838,0,0
190665,719.352,-299.456,0,0
190926,726.462,-304.922,0,0
191186,733.644,-309.541,0,0
191446,741.739,-313.785,0,0
191707,750.965,-317.964,0,0
191967,761.541,-323.157,0,0
192227,772.771,-329.912,0,0
192488,783.667,-338.406,0,0
192748,793.696,-348.066,0,0
193008,802.22,-358.401,0,0
193269,809.611,-367.756,0,0
193529,817.459,-376.138,0,0
193789,826.478,-384.146,0,0
194050,837.002,-393.141,0,0
194310,848.134,-403.442,0,0
194570,859.983,-415.555,0,0
194831,872.282,-430.023,0,0
195091,883.518,-447.585,0,0
195351,891.974,-467.225,0,0
195612,897.421,-487.033,0,0
195872,901.254,-505.957,0,0
196132,904.717,-524.3,0,0
196393,908.148,-543.166,0,0
196653,910.816,-563.351,0,0
196913,911.75,-584.851,0,0
197174,910.57,-606.82,0,0
197434,907.281,-628.893,0,0
197694,901.409,-650.394,0,0
197955,893.633,-671.025,0,0
198215,884.051,-690.273,0,0
198475,873.227,-707.583,0,0
198735,861.925,-723.185,0,0
198996,850.719,-737.432,0,0
199256,839.592,-751.016,0,0
199516,827.987,-764.113,0,0
199777,816.023,-776.522,0,0
200037,803.443,-788.546,0,0
200297,789.838,-799.968,0,0
200558,774.928,-809.863,0,0
200818,759.825,-817.886,0,0
201078,744.957,-824.261,0,0
201339,730.874,-829.339,0,0
201599,717.674,-833.288,0,0
201859,705.409,-837.337,0,0
202120,693.059,-841.285,0,0
202380.025,680.886,-844.714,0,0
202640.35,668.619,-848.236,0,0
202900.675,655.738,-851.097,0,0
203161.0,642.581,-852.874,0,0
203421.325,629.79,-853.39,0,0
203681.65,617.642,-853.218,0,0
203941.975,605.815,-852.73,0,0
204202.3,593.911,-851.301,0,0
204462.625,582.273,-848.951,0,0
204722.95,571.91,-845.899,0,0
204983.275,562.024,-842.155,0,0
205243.6,553.217,-837.779,0,0
205503.925,545.444,-833.568,0,0
205764.25,538.223,-829.624,0,0
206024.575,531.234,-825.754,0,0
206284.9,524.414,-821.634,0,0
206545.225,518.044,-817.266,0,0
206805.55,511.976,-812.409,0,0
207065.875,506.828,-807.182,0,0
207326.2,502.579,-801.947,0,0
207586.525,499.114,-796.676,0,0
207846.85,496.477,-791.783,0,0
208107.175,494.429,-787.216,0,0
208367.5,492.987,-783.488,0,0
208627.825,491.631,-780.235,0,0
208888.15,490.194,-777.384,0,0
209148.475,488.765,-774.959,0,0
209408.8,486.992,-772.252,0,0
209669.125,485.677,-769.251,0,0
209929.45,484.713,-766.309,0,0
210189.775,484.385,-763.491,0,0
210450.1,484.583,-760.904,0,0
210710.425,485.183,-759.027,0,0
210970.75,485.996,-757.754,0,0
211231.075,486.72,-756.996,0,0
211491.4,487.294,-756.775,0,0
211751.725,487.655,-756.761,0,0
212012.05,487.831,-756.746,0,0
212272.375,488.162,-756.994,0,0
212532.7,488.422,-757.398,0,0
212793.025,488.849,-758.016,0,0
213053.35,489.399,-759.113,0,0
213313.675,489.892,-760.668,0,0
213574.0,490.002,-762.787,0,0
213834.325,489.743,-765.427,0,0
214094.65,488.897,-768.257,0,0
214354.975,487.424,-771.124,0,0
214615.3,485.424,-774.021,0,0
214875.625,482.804,-776.636,0,0
215135.95,479.763,-779.034,0,0
215396.275,476.309,-781.012,0,0
215656.6,472.734,-782.389,0,0
215916.925,468.945,-783.37,0,0
216177.25,465.119,-783.631,0,0
216437.575,461.509,-783.387,0,0
216697.9,458.213,-782.827,0,0
216958.225,455.19,-782.025,0,0
217218.55,452.383,-780.633,0,0
217478.875,450.373,-778.869,0,0
217739.2,449.029,-777.186,0,0
217999.525,448.263,-775.653,0,0
218259.85,448.068,-774.533,0,0
218520,448.074,-773.757,0,0
218780,448.616,-773.333,0,0
219041,449.277,-773.587,0,0
219301,450.028,-774.396,0,0
219561,450.551,-775.588,0,0
219822,450.854,-777.205,0,0
220082,450.841,-779.07,0,0
220342,450.694,-780.919,0,0
220603,450.586,-783.055,0,0
220863,450.219,-785.309,0,0
221123,449.885,-787.78,0,0
221384,449.459,-790.519,0,0
221644,448.776,-793.656,0,0
221904,447.665,-796.925,0,0
222165,446.301,-800.312,0,0
222425,444.777,-804.008,0,0
222685,442.736,-807.696,0,0
222946,440.182,-811.515,0,0
223206,437.131,-815.266,0,0
223466,433.603,-818.963,0,0
223727,429.614,-822.149,0,0
223987,425.428,-824.782,0,0
224247,421.288,-826.818,0,0
224508,417.321,-828.837,0,0
224768,413.452,-830.814,0,0
225028,409.788,-832.631,0,0
225289,405.703,-834.748,0,0
225549,401.735,-836.592,0,0
225809,397.734,-838.383,0,0
226070,393.56,-840.221,0,0
226330,389.324,-842.204,0,0
226590,384.447,-843.964,0,0
226851,379.432,-845.658,0,0
227111,374.165,-846.956,0,0
227371,368.771,-847.743,0,0
227632,363.42,-848.074,0,0
227892,358.325,-848.092,0,0
228152,353.117,-848.02,0,0
228413,348.389,-847.74,0,0
228673,343.637,-847.562,0,0
228933,338.845,-846.89,0,0
229193,334.211,-846.004,0,0
229454,329.914,-845.051,0,0
229714,325.961,-844.185,0,0
229974,321.877,-843.558,0,0
230235,317.73,-842.863,0,0
230495,313.665,-842.281,0,0
230755,309.494,-841.564,0,0
231016,305.165,-840.858,0,0
231276,300.846,-840.011,0,0
231536,296.436,-838.875,0,0
231797,292.131,-837.647,0,0
232057,287.882,-836.419,0,0
232317,283.644,-834.96,0,0
232578,279.448,-833.442,0,0
232838,275.147,-831.996,0,0
233098,270.844,-830.257,0,0
233359,266.597,-828.267,0,0
233619,262.451,-826.13,0,0
233879,258.397,-823.781,0,0
234140,254.473,-821.438,0,0
234400,250.663,-818.877,0,0
234660.3,246.891,-816.136,0,0
234920.625,243.244,-813.29,0,0
235180.95,239.887,-810.289,0,0
235441.275,236.683,-807.17,0,0
235701.6,233.697,-804.053,0,0
235961.925,230.889,-800.891,0,0
236222.25,228.225,-797.661,0,0
236482.575,225.763,-794.439,0,0
236742.9,223.53,-791.202,0,0
237003.225,221.424,-787.957,0,0
237263.55,219.637,-784.76,0,0
237523.875,217.963,-781.694,0,0
237784.2,216.475,-778.698,0,0
238044.525,215.161,-775.828,0,0
238304.85,213.922,-773.142,0,0
238565.175,212.769,-770.606,0,0
238825.5,211.529,-768.16,0,0
239085.825,210.416,-765.617,0,0
239346.15,209.465,-763.258,0,0
239606.475,208.599,-761.078,0,0
239866.8,207.66,-759.028,0,0
240127.125,206.833,-757.229,0,0
240387.45,205.942,-755.639,0,0
240647.775,204.934,-754.132,0,0
240908.1,203.706,-752.741,0,0
241168.425,202.43,-751.383,0,0
241428.75,200.921,-750.13,0,0
241689.075,199.153,-748.754,0,0
241949.4,197.397,-747.337,0,0
242209.725,195.326,-745.702,0,0
242470.05,193.338,-743.92,0,0
242730.375,191.287,-742.003,0,0
242990.7,189.324,-739.836,0,0
243251.025,187.463,-737.653,0,0
243511.35,185.648,-735.267,0,0
243771.675,183.94,-732.854,0,0
244032.0,182.335,-730.319,0,0
244292.325,180.835,-727.83,0,0
244552.65,179.561,-725.322,0,0
244812.975,178.4,-722.899,0,0
245073.3,177.126,-720.602,0,0
245333.625,175.788,-718.286,0,0
245593.95,174.374,-715.9,0,0
245854.275,172.961,-713.288,0,0
246114.6,171.675,-710.553,0,0
246374.925,170.52,-707.654,0,0
246635.25,169.613,-704.771,0,0
246895.575,168.878,-701.883,0,0
247155.9,168.218,-698.987,0,0
247416.225,167.768,-696.187,0,0
247676.55,167.384,-693.522,0,0
247936.875,167.115,-690.967,0,0
248197.2,166.858,-688.424,0,0
248457.525,166.713,-685.949,0,0
248717.85,166.354,-683.674,0,0
248978.175,166.028,-681.206,0,0
249238.5,165.658,-678.664,0,0
249498.825,165.417,-676.178,0,0
249759.15,165.23,-673.678,0,0
250019.475,165.138,-670.996,0,0
250279.8,165.26,-668.369,0,0
250540,165.472,-665.788,0,0
250800,165.821,-663.327,0,0
251061,166.273,-660.92,0,0
251321,166.615,-658.452,0,0
251581,167.165,-655.992,0,0
251842,167.953,-653.504,0,0
252102,168.929,-651.247,0,0
252362,169.962,-649.079,0,0
252623,171.176,-647.106,0,0
252883,172.464,-645.5,0,0
253143,173.734,-644.057,0,0
253404,174.843,-642.955,0,0
253664,175.793,-641.953,0,0
253924,176.498,-641.112,0,0
254185,177.001,-640.174,0,0
254445,177.227,-639.149,0,0
254705,177.434,-637.978,0,0
254966,177.598,-636.665,0,0
255226,177.888,-635.191,0,0
255486,178.21,-633.584,0,0
255747,178.713,-631.971,0,0
256007,179.302,-630.325,0,0
256267,180.066,-628.693,0,0
256528,180.969,-627.132,0,0
256788,182.009,-625.695,0,0
257048,183.087,-624.402,0,0
257309,184.18,-623.288,0,0
257569,185.161,-622.226,0,0
257829,186.133,-621.087,0,0
258090,187.148,-619.978,0,0
258350,188.261,-618.887,0,0
258610,189.556,-617.886,0,0
258871,190.887,-616.964,0,0
259131,192.22,-616.259,0,0
259391,193.516,-615.598,0,0
259651,194.876,-615.05,0,0
259912,196.226,-614.721,0,0
260172,197.445,-614.471,0,0
260432,198.574,-614.376,0,0
260693,199.529,-614.18,0,0
260953,200.535,-614.025,0,0
261213,201.572,-613.893,0,0
261474,202.661,-613.776,0,0
261734,203.648,-613.844,0,0
261994,204.587,-614.006,0,0
262255,205.485,-614.172,0,0
262515,206.307,-614.467,0,0
262775,206.968,-614.874,0,0
263036,207.398,-615.211,0,0
263296,207.634,-615.418,0,0
263556,207.843,-615.416,0,0
263817,208.253,-615.227,0,0
264077,208.716,-615.092,0,0
264337,209.186,-614.996,0,0
264598,209.496,-614.868,0,0
264858,209.92,-614.686,0,0
265118,210.375,-614.362,0,0
265379,210.832,-613.878,0,0
265639,211.512,-613.245,0,0
265899,212.464,-612.594,0,0
266160,213.598,-611.97,0,0
266420,214.94,-611.385,0,0
266680.25,216.605,-610.956,0,0
266940.575,218.536,-610.753,0,0
267200.9,220.481,-610.787,0,0
267461.225,222.59,-611.015,0,0
267721.55,224.926,-611.525,0,0
267981.875,227.313,-612.345,0,0
268242.2,229.722,-613.581,0,0
268502.525,232.096,-615.172,0,0
268762.85,234.362,-616.971,0,0
269023.175,236.611,-619.258,0,0
269283.5,238.729,-621.824,0,0
269543.825,240.63,-624.825,0,0
269804.15,242.322,-628.113,0,0
270064.475,243.493,-631.728,0,0
270324.8,244.309,-635.464,0,0
270585.125,244.911,-639.329,0,0
270845.45,245.051,-643.286,0,0
271105.775,244.995,-647.385,0,0
271366.1,244.57,-651.738,0,0
271626.425,243.586,-656.114,0,0
271886.75,242.109,-660.448,0,0
272147.075,240.333,-664.677,0,0
272407.4,238.191,-668.824,0,0
272667.725,235.579,-672.925,0,0
272928.05,232.554,-677.023,0,0
273188.375,228.973,-680.824,0,0
273448.7,224.868,-684.203,0,0
273709.025,220.439,-687.185,0,0
273969.35,215.73,-689.562,0,0
274229.675,210.906,-691.524,0,0
274490.0,205.969,-692.97,0,0
274750.325,201.025,-693.966,0,0
275010.65,196.121,-694.603,0,0
275270.975,191.254,-694.754,0,0
275531.3,186.519,-694.591,0,0
275791.625,181.848,-694.016,0,0
276051.95,177.379,-693.081,0,0
276312.275,173.111,-691.76,0,0
276572.6,169.181,-690.181,0,0
276832.925,165.715,-688.38,0,0
277093.25,162.469,-686.559,0,0
277353.575,159.555,-684.727,0,0
277613.9,156.759,-682.955,0,0
277874.225,154.167,-681.164,0,0
278134.55,151.65,-679.427,0,0
278394.875,149.24,-677.739,0,0
278655.2,146.871,-675.979,0,0
278915.525,144.412,-674.159,0,0
279175.85,142.249,-672.195,0,0
279436.175,140.15,-670.195,0,0
279696.5,138.205,-668.168,0,0
279956.825,136.321,-666.052,0,0
280217.15,134.616,-663.923,0,0
280477.475,133.066,-661.68,0,0
280737.8,131.787,-659.387,0,0
280998.125,130.653,-657.161,0,0
281258.45,129.801,-655.094,0,0
281518.775,129.065,-653.251,0,0
281779.1,128.308,-651.507,0,0
282039.425,127.51,-649.89,0,0
282299.75,126.706,-648.259,0,0
282560,125.932,-646.572,0,0
282820,125.158,-644.911,0,0
283081,124.553,-643.181,0,0
283341,124.012,-641.578,0,0
283601,123.559,-639.962,0,0
283862,123.163,-638.441,0,0
284122,122.768,-636.977,0,0
284382,122.495,-635.476,0,0
284643,122.317,-634.023,0,0
284903,122.259,-632.675,0,0
285163,122.22,-631.432,0,0
285424,122.204,-630.29,0,0
285684,122.254,-629.124,0,0
285944,122.401,-628.042,0,0
286205,122.686,-627.076,0,0
286465,123.072,-626.321,0,0
286725,123.503,-625.743,0,0
286986,123.962,-625.391,0,0
287246,124.353,-625.339,0,0
287506,124.611,-625.508,0,0
287767,124.695,-625.96,0,0
288027,124.519,-626.581,0,0
288287,124.054,-627.252,0,0
288548,123.244,-627.976,0,0
288808,122.195,-628.569,0,0
289068,120.983,-629.013,0,0
289329,119.567,-629.34,0,0
289589,118.063,-629.518,0,0
289849,116.472,-629.514,0,0
290109,114.855,-629.384,0,0
290370,113.197,-629.104,0,0
290630,111.545,-628.737,0,0
290890,109.91,-628.207,0,0
291151,108.347,-627.575,0,0
291411,106.88,-626.926,0,0
291671,105.428,-626.258,0,0
291932,103.925,-625.585,0,0
292192,102.517,-624.96,0,0
292452,100.982,-624.285,0,0
292713,99.3776,-623.577,0,0
292973,97.6991,-622.776,0,0
293233,96.003,-621.841,0,0
293494,94.3207,-620.814,0,0
293754,92.6534,-619.684,0,0
294014,91.0371,-618.437,0,0
294275,89.4396,-617.07,0,0
294535,87.9604,-615.596,0,0
294795,86.5662,-614.064,0,0
295056,85.2669,-612.464,0,0
295316,84.0837,-610.885,0,0
295576,83.0009,-609.305,0,0
295837,81.9698,-607.747,0,0
296097,80.967,-606.203,0,0
296357,79.9991,-604.644,0,0
296618,79.06,-603.071,0,0
296878,78.1912,-601.545,0,0
297138,77.3364,-599.944,0,0
297399,76.5126,-598.385,0,0
297659,75.7231,-596.753,0,0
297919,75.0275,-595.11,0,0
298180,74.351,-593.47,0,0
298440,73.7384,-591.877,0,0
298700.2,73.1751,-590.253,0,0
298960.525,72.6545,-588.636,0,0
299220.85,72.1786,-587.056,0,0
299481.175,71.7469,-585.441,0,0
299741.5,71.3756,-583.886,0,0
300001.825,71.0088,-582.314,0,0
300262.15,70.7149,-580.769,0,0
300522.475,70.4621,-579.228,0,0
300782.8,70.2274,-577.764,0,0
301043.125,70.0179,-576.272,0,0
301303.45,69.8128,-574.8,0,0
301563.775,69.6618,-573.298,0,0
301824.1,69.567,-571.832,0,0
302084.425,69.5021,-570.338,0,0
302344.75,69.5293,-568.896,0,0
302605.075,69.5881,-567.502,0,0
302865.4,69.7311,-566.129,0,0
303125.725,69.9447,-564.847,0,0
303386.05,70.1515,-563.64,0,0
303646.375,70.3634,-562.482,0,0
303906.7,70.6081,-561.436,0,0
304167.025,70.8278,-560.414,0,0
304427.35,71.0323,-559.44,0,0
304687.675,71.2336,-558.535,0,0
304948.0,71.4161,-557.681,0,0
305208.325,71.5547,-556.862,0,0
305468.65,71.6606,-556.041,0,0
305728.975,71.7457,-555.218,0,0
305989.3,71.8287,-554.408,0,0
306249.625,71.9315,-553.586,0,0
306509.95,72.0652,-552.798,0,0
306770.275,72.2233,-552.041,0,0
307030.6,72.396,-551.324,0,0
307290.925,72.5481,-550.688,0,0
307551.25,72.6838,-550.107,0,0
307811.575,72.7812,-549.572,0,0
308071.9,72.8063,-549.049,0,0
308332.225,72.8576,-548.538,0,0
308592.55,72.8871,-548.05,0,0
308852.875,72.8935,-547.607,0,0
309113.2,72.8459,-547.234,0,0
309373.525,72.7344,-546.851,0,0
309633.85,72.5596,-546.5,0,0
309894.175,72.3145,-546.131,0,0
310154.5,72.0137,-545.728,0,0
310414.825,71.7255,-545.305,0,0
310675.15,71.3651,-544.839,0,0
310935.475,71.015,-544.327,0,0
311195.8,70.6596,-543.809,0,0
311456.125,70.3258,-543.267,0,0
311716.45,69.9654,-542.708,0,0
311976.775,69.6261,-542.144,0,0
312237.1,69.2622,-541.571,0,0
312497.425,68.9088,-540.991,0,0
312757.75,68.5713,-540.424,0,0
313018.075,68.1866,-539.87,0,0
313278.4,67.8139,-539.295,0,0
313538.725,67.4065,-538.736,0,0
313799.05,66.9885,-538.147,0,0
314059.375,66.55,-537.577,0,0
314319.7,66.0816,-536.97,0,0
314580,65.5582,-536.335,0,0
314840,65.0395,-535.618,0,0
315101,64.5124,-534.888,0,0
315361,64.0427,-534.151,0,0
315621,63.5613,-533.306,0,0
315882,63.1097,-532.417,0,0
316142,62.7015,-531.563,0,0
316402,62.3492,-530.666,0,0
316663,61.9711,-529.847,0,0
316923,61.6757,-528.885,0,0
317183,61.4046,-527.966,0,0
317444,61.2245,-527.071,0,0
317704,61.0397,-526.137,0,0
317964,60.9159,-525.338,0,0
318225,60.7939,-524.446,0,0
318485,60.6996,-523.65,0,0
318745,60.5463,-522.836,0,0
319006,60.5511,-522.131,0,0
319266,60.4321,-521.441,0,0
319526,60.4251,-520.717,0,0
319787,60.3818,-520.058,0,0
320047,60.3139,-519.36,0,0
320307,60.2297,-518.771,0,0
320567,60.1916,-518.217,0,0
320828,60.1107,-517.704,0,0
321088,60.0336,-517.168,0,0
321348,59.8892,-516.714,0,0
321609,59.7425,-516.261,0,0
321869,59.4996,-515.8,0,0
322129,59.2476,-515.323,0,0
322390,58.9525,-514.872,0,0
322650,58.6856,-514.466,0,0
322910,58.3578,-513.914,0,0
323171,57.9829,-513.438,0,0
323431,57.6779,-512.976,0,0
323691,57.3372,-512.384,0,0
323952,56.9853,-511.869,0,0
324212,56.6011,-511.335,0,0
324472,56.2706,-510.791,0,0
324733,55.8246,-510.299,0,0
324993,55.4075,-509.741,0,0
325253,54.8561,-509.171,0,0
325514,54.448,-508.53,0,0
325774,53.9846,-507.908,0,0
326034,53.5269,-507.238,0,0
326295,53.012,-506.575,0,0
326555,52.5817,-505.831,0,0
326815,52.1636,-505.046,0,0
327076,51.7546,-504.312,0,0
327336,51.2996,-503.584,0,0
327596,50.9437,-502.76,0,0
327857,50.6059,-502.02,0,0
328117,50.2162,-501.296,0,0
328377,49.8202,-500.478,0,0
328638,49.4469,-499.636,0,0
328898,49.104,-498.891,0,0
329158,48.6994,-498.031,0,0
329419,48.3613,-497.21,0,0
329679,48.0607,-496.373,0,0
329939,47.7678,-495.525,0,0
330200,47.4563,-494.675,0,0
330460,47.1985,-493.855,0,0
330720.15,46.9359,-493.016,0,0
330980.475,46.6341,-492.195,0,0
331240.8,46.4059,-491.297,0,0
331501.125,46.2074,-490.459,0,0
331761.45,45.9533,-489.542,0,0
332021.775,45.7482,-488.753,0,0
332282.1,45.4637,-487.917,0,0
332542.425,45.3406,-487.077,0,0
332802.75,45.049,-486.226,0,0
333063.075,44.9083,-485.326,0,0
333323.4,44.752,-484.452,0,0
333583.725,44.5848,-483.527,0,0
333844.05,44.4245,-482.724,0,0
334104.375,44.3,-481.813,0,0
334364.7,44.2716,-480.976,0,0
334625.025,44.1719,-480.122,0,0
334885.35,44.1563,-479.304,0,0
335145.675,44.1006,-478.406,0,0
335406.0,44.0707,-477.627,0,0
335666.325,44.0726,-476.816,0,0
335926.65,44.0915,-476.027,0,0
336186.975,44.0656,-475.247,0,0
336447.3,44.1097,-474.58,0,0
336707.625,44.1329,-473.834,0,0
336967.95,44.1117,-473.181,0,0
337228.275,44.1062,-472.469,0,0
337488.6,44.0982,-471.816,0,0
337748.925,44.0404,-471.175,0,0
338009.25,44.0266,-470.511,0,0
338269.575,43.9613,-469.905,0,0
338529.9,43.9539,-469.261,0,0
338790.225,43.8961,-468.635,0,0
339050.55,43.8223,-467.94,0,0
339310.875,43.7585,-467.364,0,0
339571.2,43.6883,-466.675,0,0
339831.525,43.6327,-466.11,0,0
340091.85,43.5241,-465.504,0,0
340352.175,43.4039,-464.948,0,0
340612.5,43.3017,-464.315,0,0
340872.825,43.1915,-463.708,0,0
341133.15,43.0626,-463.109,0,0
341393.475,42.9581,-462.421,0,0
341653.8,42.7929,-461.815,0,0
341914.125,42.6631,-461.208,0,0
342174.45,42.482,-460.574,0,0
342434.775,42.3544,-459.902,0,0
342695.1,42.1853,-459.278,0,0
342955.425,42.0475,-458.558,0,0
343215.75,41.8933,-457.871,0,0
343476.075,41.7409,-457.186,0,0
343736.4,41.5847,-456.456,0,0
343996.725,41.4381,-455.744,0,0
344257.05,41.2953,-454.998,0,0
344517.375,41.2163,-454.265,0,0
344777.7,41.0714,-453.534,0,0
345038.025,40.9906,-452.807,0,0
345298.35,40.9009,-452.016,0,0
345558.675,40.853,-451.298,0,0
345819.0,40.7722,-450.552,0,0
346079.325,40.7373,-449.826,0,0
346339.65,40.6478,-449.047,0,0
346599.975,40.5929,-448.359,0,0
346860,40.5549,-447.617,0,0
347121,40.5592,-446.852,0,0
347381,40.5787,-446.068,0,0
347641,40.5752,-445.356,0,0
347902,40.5977,-444.605,0,0
348162,40.5959,-443.874,0,0
348422,40.6491,-443.146,0,0
348683,40.6878,-442.414,0,0
348943,40.7584,-441.684,0,0
349203,40.7826,-441.061,0,0
349464,40.8261,-440.313,0,0
349724,40.9171,-439.64,0,0
349984,41.0109,-438.977,0,0
350245,41.0576,-438.254,0,0
350505,41.1756,-437.646,0,0
350765,41.2622,-436.977,0,0
351025,41.3415,-436.327,0,0
351286,41.4331,-435.724,0,0
351546,41.5842,-435.123,0,0
351806,41.6685,-434.48,0,0
352067,41.7898,-433.919,0,0
352327,41.8649,-433.333,0,0
352587,41.968,-432.796,0,0
352848,42.0278,-432.245,0,0
353108,42.1001,-431.696,0,0
353368,42.1805,-431.091,0,0
353629,42.2365,-430.52,0,0
353889,42.325,-429.967,0,0
354149,42.3812,-429.402,0,0
354410,42.445,-428.862,0,0
354670,42.5428,-428.293,0,0
354930,42.647,-427.696,0,0
355191,42.7151,-427.234,0,0
355451,42.8203,-426.666,0,0
355711,42.8789,-426.174,0,0
355972,42.9672,-425.654,0,0
356232,43.0386,-425.166,0,0
356492,43.0854,-424.678,0,0
356753,43.1309,-424.198,0,0
357013,43.1828,-423.789,0,0
357273,43.2475,-423.309,0,0
357534,43.2084,-422.793,0,0
357794,43.241,-422.369,0,0
358054,43.2095,-421.915,0,0
358315,43.1437,-421.424,0,0
358575,43.177,-420.933,0,0
358835,43.1074,-420.454,0,0
359096,43.0833,-419.934,0,0
359356,43.0279,-419.409,0,0
359616,42.9465,-418.863,0,0
359877,42.9237,-418.29,0,0
360137,42.8735,-417.762,0,0
360397,42.8429,-417.213,0,0
360658,42.8058,-416.586,0,0
360918,42.7486,-416.084,0,0
361178,42.7484,-415.47,0,0
361438,42.7247,-414.875,0,0
361699,42.6965,-414.294,0,0
361959,42.736,-413.702,0,0
362219,42.7264,-413.127,0,0
362480,42.7497,-412.498,0,0
362740.1,42.7659,-411.906,0,0
363000.425,42.7835,-411.275,0,0
363260.75,42.8591,-410.681,0,0
363521.075,42.8857,-410.08,0,0
363781.4,42.9084,-409.432,0,0
364041.725,42.9968,-408.81,0,0
364302.05,43.0769,-408.223,0,0
364562.375,43.2034,-407.608,0,0
364822.7,43.2878,-407.019,0,0
365083.025,43.4182,-406.418,0,0
365343.35,43.5117,-405.807,0,0
365603.675,43.6631,-405.225,0,0
365864.0,43.8133,-404.627,0,0
366124.325,43.9936,-404.053,0,0
366384.65,44.1877,-403.499,0,0
366644.975,44.3368,-403.007,0,0
366905.3,44.5334,-402.462,0,0
367165.625,44.7122,-401.976,0,0
367425.95,44.8582,-401.488,0,0
367686.275,45.0394,-401.015,0,0
367946.6,45.1818,-400.548,0,0
368206.925,45.3381,-400.088,0,0
368467.25,45.4884,-399.581,0,0
368727.575,45.606,-399.139,0,0
368987.9,45.7518,-398.63,0,0
369248.225,45.8633,-398.146,0,0
369508.55,46.0475,-397.656,0,0
369768.875,46.2213,-397.101,0,0
370029.2,46.4511,-396.647,0,0
370289.525,46.697,-396.125,0,0
370549.85,46.9064,-395.705,0,0
370810.175,47.1922,-395.275,0,0
371070.5,47.4662,-394.88,0,0
371330.825,47.7306,-394.544,0,0
371591.15,47.9502,-394.191,0,0
371851.475,48.1531,-393.893,0,0
372111.8,48.3588,-393.62,0,0
372372.125,48.5517,-393.363,0,0
372632.45,48.7411,-393.066,0,0
372892.775,48.8698,-392.834,0,0
373153.1,48.9942,-392.593,0,0
373413.425,49.0892,-392.384,0,0
373673.75,49.182,-392.127,0,0
373934.075,49.2108,-391.872,0,0
374194.4,49.2381,-391.669,0,0
374454.725,49.2706,-391.365,0,0
374715.05,49.269,-391.048,0,0
374975.375,49.2873,-390.748,0,0
375235.7,49.2789,-390.394,0,0
375496.025,49.3059,-390.066,0,0
375756.35,49.32,-389.758,0,0
376016.675,49.4125,-389.411,0,0
376277.0,49.4169,-389.088,0,0
376537.325,49.4745,-388.793,0,0
376797.65,49.5055,-388.458,0,0
377057.975,49.5773,-388.177,0,0
377318.3,49.5939,-387.862,0,0
377578.625,49.6413,-387.601,0,0
377838.95,49.6541,-387.317,0,0
378099.275,49.6629,-387.076,0,0
378359.6,49.6221,-386.818,0,0
378619.925,49.5574,-386.576,0,0
378880,49.4754,-386.281,0,0
379141,49.3651,-385.959,0,0
379401,49.2653,-385.556,0,0
379661,49.172,-385.124,0,0
379922,49.1209,-384.656,0,0
380182,49.1247,-384.195,0,0
380442,49.2039,-383.747,0,0
380703,49.3698,-383.272,0,0
380963,49.5849,-382.876,0,0
381223,49.8529,-382.591,0,0
381483,50.0694,-382.411,0,0
381744,50.2662,-382.288,0,0
382004,50.3978,-382.294,0,0
382264,50.3917,-382.378,0,0
382525,50.3212,-382.389,0,0
382785,50.0779,-382.402,0,0
383045,49.8066,-382.362,0,0
383306,49.4205,-382.235,0,0
383566,49.041,-382.072,0,0
383826,48.6891,-381.797,0,0
384087,48.3117,-381.424,0,0
384347,47.9785,-381.075,0,0
384607,47.6037,-380.684,0,0
384868,47.2985,-380.212,0,0
385128,46.9836,-379.728,0,0
385388,46.7526,-379.224,0,0
385649,46.4835,-378.749,0,0
385909,46.2475,-378.257,0,0
386169,45.9832,-377.719,0,0
386430,45.7612,-377.161,0,0
386690,45.5596,-376.615,0,0
386950,45.3695,-376.006,0,0
387211,45.2288,-375.441,0,0
387471,45.0891,-374.848,0,0
387731,44.942,-374.249,0,0
387992,44.8253,-373.656,0,0
388252,44.7366,-373.058,0,0
388512,44.6812,-372.437,0,0
388773,44.5953,-371.856,0,0
389033,44.5911,-371.209,0,0
389293,44.5609,-370.643,0,0
389554,44.5726,-370.062,0,0
389814,44.6014,-369.5,0,0
390074,44.6504,-368.946,0,0
390335,44.6412,-368.378,0,0
390595,44.6768,-367.871,0,0
390855,44.7701,-367.392,0,0
391116,44.7457,-366.899,0,0
391376,44.7772,-366.477,0,0
391636,44.7904,-365.964,0,0
391896,44.7673,-365.497,0,0
392157,44.7327,-364.992,0,0
392417,44.6842,-364.52,0,0
392677,44.7027,-364.028,0,0
392938,44.6963,-363.514,0,0
393198,44.6698,-362.982,0,0
393458,44.6408,-362.479,0,0
393719,44.6181,-361.954,0,0
393979,44.6139,-361.397,0,0
394239,44.597,-360.879,0,0
394500,44.6369,-360.314,0,0
394760.05,44.6536,-359.802,0,0
395020.375,44.6475,-359.267,0,0
395280.7,44.6808,-358.713,0,0
395541.025,44.7275,-358.156,0,0
395801.35,44.806,-357.641,0,0
396061.675,44.8323,-357.087,0,0
396322.0,44.9272,-356.558,0,0
396582.325,45.0168,-356.039,0,0
396842.65,45.1246,-355.525,0,0
397102.975,45.203,-355.001,0,0
397363.3,45.2952,-354.504,0,0
397623.625,45.3945,-354.053,0,0
397883.95,45.4882,-353.561,0,0
398144.275,45.5622,-353.114,0,0
398404.6,45.644,-352.682,0,0
398664.925,45.6984,-352.204,0,0
398925.25,45.7725,-351.807,0,0
399185.575,45.8245,-351.309,0,0
399445.9,45.8815,-350.892,0,0
399706.225,45.9025,-350.454,0,0
399966.55,45.9417,-349.983,0,0
400006.6,45.9253,-349.914,0,0