File: Accelerated corrosion test data/2025-10-01_12-27-23/sample_6.csv
Frequency (Hz),Impedance (ohms),Phase (Radians),Temperature (C),Humidity (%)
10000.0,4289.14,-6436.1,0,0
10260.325,4152.71,-6365.35,0,0
10520.65,4021.44,-6294.35,0,0
10780.975,3896.09,-6223.35,0,0
11041.3,3776.21,-6152.09,0,0
11301.625,3662.12,-6082.65,0,0
11561.95,3552.89,-6013.13,0,0
11822.275,3448.05,-5943.68,0,0
12082.6,3346.64,-5875.1,0,0
12342.925,3250.93,-5806.46,0,0
12603.25,3159.15,-5736.78,0,0
12863.575,3071.91,-5671.87,0,0
13123.9,2989.96,-5609.14,0,0
13384.225,2907.31,-5547.04,0,0
13644.55,2827.91,-5483.4,0,0
13904.875,2751.63,-5420.68,0,0
14165.2,2678.36,-5359.32,0,0
14425.525,2609.16,-5298.45,0,0
14685.8,2541.89,-5237.71,0,0
14946.175,2478.83,-5179.06,0,0
15206.5,2415.63,-5121.35,0,0
15466.825,2356.73,-5063.93,0,0
15727.15,2299.07,-5008.23,0,0
15987.5,2243.83,-4953.02,0,0
16247.8,2190.16,-4899.21,0,0
16508.125,2138.3,-4845.79,0,0
16768.45,2088.76,-4793.16,0,0
17028.775,2041.77,-4741.68,0,0
17289.1,1995.24,-4691.56,0,0
17549.425,1949.95,-4642.77,0,0
17809.75,1905.77,-4593.91,0,0
18070.075,1863.63,-4544.01,0,0
18330.4,1823.76,-4497.14,0,0
18590.725,1784.65,-4450.41,0,0
18851.05,1747.7,-4404.42,0,0
19111.375,1712.3,-4359.99,0,0
19371.7,1676.79,-4317.24,0,0
19632.025,1642.19,-4274.26,0,0
19892.35,1607.49,-4231.61,0,0
20152.675,1575.93,-4189.45,0,0
20413.0,1544.86,-4148.7,0,0
20673.3,1513.91,-4108.84,0,0
20933.65,1483.88,-4068.35,0,0
21193.975,1455.04,-4028.62,0,0
21454.3,1427.76,-3989.67,0,0
21714.625,1400.77,-3952.39,0,0
21974.9,1374.17,-3914.65,0,0
22235.275,1348.48,-3877.46,0,0
22495.6,1323.73,-3839.78,0,0
22755.925,1300.37,-3802.3,0,0
23016.25,1281.2,-3766.04,0,0
23276.6,1261.89,-3734.89,0,0
23536.9,1239.14,-3704.26,0,0
23797.225,1216.76,-3673.3,0,0
24057.55,1195.09,-3641.03,0,0
24317.875,1173.31,-3608.88,0,0
24578.2,1153.25,-3576.86,0,0
24838.525,1133.61,-3545.96,0,0
25098.85,1114.52,-3514.88,0,0
25359.175,1096.52,-3484.95,0,0
25619.5,1078.46,-3455.03,0,0
25879.8,1060.37,-3426.19,0,0
26140.1,1043.22,-3397.11,0,0
26400.5,1026.84,-3368.08,0,0
26660.8,1010.65,-3339.55,0,0
26921.1,995.24,-3311.75,0,0
27181.4,980.372,-3283.98,0,0
27441.8,966.095,-3257.12,0,0
27702.1,952.39,-3230.91,0,0
27962.4,938.792,-3206.01,0,0
28222.7,923.824,-3181.35,0,0
28483.1,909.507,-3155.18,0,0
28743.4,896.013,-3130.98,0,0
29003.7,882.299,-3105.73,0,0
29264,869.643,-3080.29,0,0
29524.4,857.987,-3055.85,0,0
29784.7,845.878,-3031.4,0,0
30045,835.508,-3007.89,0,0
30305.3,824.548,-2984.73,0,0
30565.7,814.628,-2963.3,0,0
30826,803.181,-2941.57,0,0
31086.3,791.889,-2919.35,0,0
31346.6,781.616,-2896.93,0,0
31607,771.656,-2874.67,0,0
31867.3,762.252,-2853.23,0,0
32127.6,753.663,-2831.29,0,0
32387.9,745.5,-2810.27,0,0
32648.3,738.091,-2790.01,0,0
32908.6,730.797,-2770.45,0,0
33168.9,723.908,-2752.2,0,0
33429.2,716.373,-2735.05,0,0
33689.6,707.762,-2717.06,0,0
33949.9,700.555,-2700.16,0,0
34210.2,691.879,-2683.8,0,0
34470.5,682.723,-2666.6,0,0
34730.9,673.951,-2649.47,0,0
34991.2,665.466,-2631.52,0,0
35251.5,658.484,-2614.17,0,0
35511.8,650.833,-2598.55,0,0
35772.2,642.586,-2582.83,0,0
36032.5,634.137,-2566.79,0,0
36292.8,625.505,-2550.43,0,0
36553.1,617.366,-2533.96,0,0
36813.5,609.354,-2517.56,0,0
37073.8,601.756,-2500.93,0,0
37334.1,594.542,-2484.93,0,0
37594.4,586.741,-2468.57,0,0
37854.8,580.039,-2452.52,0,0
38115.1,573.017,-2436.51,0,0
38375.4,566.502,-2420.33,0,0
38635.7,560.228,-2404.59,0,0
38896.1,554.046,-2389.14,0,0
39156.4,548.193,-2373.74,0,0
39416.7,542.603,-2358.42,0,0
39677,537.139,-2343.75,0,0
39937.4,531.723,-2329.18,0,0
40197.7,526.256,-2314.73,0,0
40458,520.998,-2300.17,0,0
40718.3,516.269,-2286.05,0,0
40978.7,511.286,-2272.46,0,0
41239,505.945,-2258.74,0,0
41499.3,500.872,-2244.92,0,0
41759.6,496.225,-2230.88,0,0
42020,492.393,-2217.36,0,0
42280.275,488.162,-2205.18,0,0
42540.6,483.018,-2192.75,0,0
42800.925,477.452,-2180.17,0,0
43061.25,472.025,-2166.33,0,0
43321.575,468.046,-2152.16,0,0
43581.9,464.885,-2138.97,0,0
43842.225,461.349,-2126.79,0,0
44102.55,457.008,-2114.05,0,0
44362.875,453.028,-2101.17,0,0
44623.2,450.028,-2088.21,0,0
44883.525,447.242,-2075.85,0,0
45143.85,444.034,-2063.49,0,0
45404.175,442.015,-2051.31,0,0
45664.5,439.937,-2040.04,0,0
45924.825,437.957,-2028.7,0,0
46185.15,435.768,-2018.16,0,0
46445.475,433.352,-2007.54,0,0
46705.8,430.886,-1997.32,0,0
46966.125,428.502,-1986.81,0,0
47226.45,426.118,-1976.43,0,0
47486.775,424.593,-1965.9,0,0
47747.1,423.165,-1956.48,0,0
48007.425,421.44,-1947.22,0,0
48267.75,420.005,-1937.92,0,0
48528.075,418.791,-1929.27,0,0
48788.4,417.409,-1921.37,0,0
49048.725,416.125,-1914.1,0,0
49309.05,414.327,-1907.72,0,0
49569.375,411.463,-1901.99,0,0
49829.7,407.401,-1895.97,0,0
50090.025,403.014,-1889.88,0,0
50350.35,397.263,-1883.12,0,0
50610.675,391.36,-1874.99,0,0
50871.0,386.253,-1865.91,0,0
51131.325,382.048,-1857.15,0,0
51391.65,377.413,-1848.34,0,0
51651.975,373.406,-1839.14,0,0
51912.3,369.348,-1830.59,0,0
52172.625,365.262,-1821.45,0,0
52432.95,361.664,-1812.05,0,0
52693.275,358.855,-1803.08,0,0
52953.6,356.114,-1794.59,0,0
53213.925,352.964,-1786.73,0,0
53474.25,349.409,-1778.99,0,0
53734.575,345.535,-1770.86,0,0
53994.9,341.706,-1762.21,0,0
54255.225,338.401,-1753.16,0,0
54515.55,335.584,-1744.82,0,0
54775.875,332.563,-1736.78,0,0
55036.2,329.465,-1728.96,0,0
55296.525,325.673,-1721.01,0,0
55556.85,321.987,-1712.67,0,0
55817.175,318.24,-1703.96,0,0
56077.5,314.565,-1694.89,0,0
56337.825,311.275,-1684.93,0,0
56598.15,309.251,-1674.92,0,0
56858.475,308.038,-1665.49,0,0
57118.8,306.897,-1656.58,0,0
57379.125,306.484,-1648.07,0,0
57639.45,305.971,-1640.66,0,0
57899.775,305.165,-1633.4,0,0
58160.1,304.44,-1626.86,0,0
58420.4,303.034,-1620.5,0,0
58680.7,301.312,-1614.13,0,0
58941.1,299.641,-1607.79,0,0
59201.4,297.634,-1601.61,0,0
59461.7,295.543,-1595.46,0,0
59722,293.214,-1589.09,0,0
59982.4,290.795,-1582.97,0,0
60242.7,287.986,-1576.93,0,0
60503,285.101,-1570.2,0,0
60763.3,282.359,-1563.51,0,0
61023.7,279.528,-1556.91,0,0
61284,276.723,-1550.02,0,0
61544.3,273.695,-1543.09,0,0
61804.6,270.642,-1535.59,0,0
62065,267.806,-1527.55,0,0
62325.3,265.664,-1519.16,0,0
62585.6,264.408,-1510.83,0,0
62845.9,263.756,-1502.85,0,0
63106.3,263.694,-1495.36,0,0
63366.6,264.103,-1488.66,0,0
63626.9,264.254,-1483.06,0,0
63887.2,264.093,-1478.18,0,0
64147.6,263.097,-1474.05,0,0
64407.9,260.481,-1469.76,0,0
64668.2,257.308,-1464.32,0,0
64928.5,254.751,-1457.93,0,0
65188.9,252.92,-1451.46,0,0
65449.2,251.357,-1445.36,0,0
65709.5,249.851,-1439.63,0,0
65969.8,248.051,-1434.39,0,0
66230.2,245.802,-1428.72,0,0
66490.5,243.622,-1423.1,0,0
66750.8,241.268,-1417.29,0,0
67011.1,238.962,-1411.28,0,0
67271.5,236.567,-1405.42,0,0
67531.8,234.099,-1398.98,0,0
67792.1,232.111,-1392.78,0,0
68052.4,230.065,-1386.16,0,0
68312.8,228.198,-1379.53,0,0
68573.1,226.507,-1372.97,0,0
68833.4,224.854,-1366.66,0,0
69093.7,223.169,-1360.11,0,0
69354.1,221.715,-1353.56,0,0
69614.4,220.268,-1347.14,0,0
69874.7,219.176,-1340.36,0,0
70135,217.952,-1333.82,0,0
70395.4,217.189,-1327.33,0,0
70655.7,216.385,-1321.03,0,0
70916,215.64,-1314.69,0,0
71176.3,215.026,-1308.32,0,0
71436.7,214.578,-1302.18,0,0
71697,214.319,-1296.13,0,0
71957.3,213.985,-1290.24,0,0
72217.6,213.59,-1284.37,0,0
72478,213.523,-1278.52,0,0
72738.3,213.51,-1272.85,0,0
72998.6,213.428,-1267.26,0,0
73258.9,213.652,-1261.98,0,0
73519.3,213.746,-1256.85,0,0
73779.6,213.767,-1251.89,0,0
74039.9,213.737,-1247.11,0,0
74300.225,213.458,-1242.39,0,0
74560.55,213.241,-1237.6,0,0
74820.875,212.987,-1232.83,0,0
75081.2,212.75,-1228.03,0,0
75341.525,212.575,-1223.32,0,0
75601.85,212.396,-1218.8,0,0
75862.175,212.15,-1214.38,0,0
76122.5,211.721,-1209.95,0,0
76382.825,211.214,-1205.51,0,0
76643.15,210.602,-1200.89,0,0
76903.475,210.156,-1196.15,0,0
77163.8,209.827,-1191.48,0,0
77424.125,209.594,-1186.7,0,0
77684.45,209.523,-1182.08,0,0
77944.775,209.449,-1177.57,0,0
78205.1,209.511,-1173.1,0,0
78465.425,209.579,-1168.75,0,0
78725.75,209.753,-1164.43,0,0
78986.075,209.887,-1160.35,0,0
79246.4,210.029,-1156.4,0,0
79506.725,210.182,-1152.53,0,0
79767.05,210.313,-1148.79,0,0
80027.375,210.31,-1145.1,0,0
80287.7,210.352,-1141.58,0,0
80548.025,210.186,-1138.14,0,0
80808.35,210.007,-1134.69,0,0
81068.675,209.683,-1131.34,0,0
81329.0,209.393,-1127.96,0,0
81589.325,208.935,-1124.63,0,0
81849.65,208.465,-1121.3,0,0
82109.975,207.96,-1117.96,0,0
82370.3,207.406,-1114.66,0,0
82630.625,206.756,-1111.34,0,0
82890.95,206.005,-1108.08,0,0
83151.275,205.272,-1104.68,0,0
83411.6,204.364,-1101.34,0,0
83671.925,203.482,-1097.95,0,0
83932.25,202.468,-1094.42,0,0
84192.575,201.59,-1090.68,0,0
84452.9,200.62,-1087.04,0,0
84713.225,199.75,-1083.2,0,0
84973.55,198.893,-1079.29,0,0
85233.875,198.23,-1075.44,0,0
85494.2,197.728,-1071.61,0,0
85754.525,197.253,-1067.8,0,0
86014.85,196.799,-1063.99,0,0
86275.175,196.319,-1060.21,0,0
86535.5,196.021,-1056.55,0,0
86795.825,195.751,-1052.93,0,0
87056.15,195.468,-1049.53,0,0
87316.475,195.094,-1046.07,0,0
87576.8,194.695,-1042.63,0,0
87837.125,194.184,-1039.23,0,0
88097.45,193.666,-1035.68,0,0
88357.775,193.293,-1032.3,0,0
88618.1,192.851,-1028.65,0,0
88878.425,192.527,-1025.22,0,0
89138.75,192.16,-1021.61,0,0
89399.075,191.893,-1018.16,0,0
89659.4,191.783,-1014.71,0,0
89919.725,191.495,-1011.33,0,0
90180,191.41,-1008.06,0,0
90440.4,191.307,-1004.9,0,0
90700.7,191.069,-1001.71,0,0
90961,190.97,-998.889,0,0
91221.3,190.456,-995.983,0,0
91481.7,189.737,-992.955,0,0
91742,189.08,-989.767,0,0
92002.3,188.366,-986.384,0,0
92262.6,187.674,-982.55,0,0
92523,187.807,-978.629,0,0
92783.3,188.159,-975.477,0,0
93043.6,188.031,-972.49,0,0
93303.9,187.835,-969.735,0,0
93564.3,187.067,-966.423,0,0
93824.6,186.723,-962.886,0,0
94084.9,186.597,-959.222,0,0
94345.2,186.708,-955.519,0,0
94605.6,187.275,-951.838,0,0
94865.9,188.321,-948.84,0,0
95126.2,189.085,-946.44,0,0
95386.5,189.114,-944.318,0,0
95646.9,188.868,-941.735,0,0
95907.2,189.046,-938.958,0,0
96167.5,189.275,-936.64,0,0
96427.8,189.161,-934.421,0,0
96688.2,188.754,-932.117,0,0
96948.5,188.313,-929.827,0,0
97208.8,187.481,-927.46,0,0
97469.1,186.598,-924.464,0,0
97729.5,185.979,-921.297,0,0
97989.8,185.382,-917.968,0,0
98250.1,185.11,-914.436,0,0
98510.4,184.974,-910.645,0,0
98770.8,185.69,-906.627,0,0
99031.1,187.035,-903.044,0,0
99291.4,188.886,-900.053,0,0
99551.7,190.93,-898.232,0,0
99812.1,192.294,-897.032,0,0
100072,193.288,-896.214,0,0
100333,193.63,-895.57,0,0
100593,193.466,-894.919,0,0
100853,192.857,-894.364,0,0
101114,191.451,-893.426,0,0
101374,189.858,-891.598,0,0
101634,188.664,-889.285,0,0
101895,187.851,-886.815,0,0
102155,187.43,-884.382,0,0
102415,187.27,-882.137,0,0
102676,187.261,-880.183,0,0
102936,187.367,-878.712,0,0
103196,187.142,-877.689,0,0
103457,186.468,-876.959,0,0
103717,185.203,-876.293,0,0
103977,183.439,-875.441,0,0
104238,181.49,-874.212,0,0
104498,179.232,-873.058,0,0
104758,176.403,-871.685,0,0
105019,173.145,-869.559,0,0
105279,169.766,-866.785,0,0
105539,166.529,-863.183,0,0
105800,163.862,-858.959,0,0
106060,161.567,-854.623,0,0
106320.175,159.667,-850.018,0,0
106580.5,158.067,-845.212,0,0
106840.825,157.029,-840.129,0,0
107101.15,156.496,-835.313,0,0
107361.475,156.308,-830.597,0,0
107621.8,156.321,-826.014,0,0
107882.125,156.763,-821.563,0,0
108142.45,157.493,-817.393,0,0
108402.775,158.377,-813.732,0,0
108663.1,159.087,-810.347,0,0
108923.425,159.667,-806.945,0,0
109183.75,160.47,-803.742,0,0
109444.075,161.05,-800.845,0,0
109704.4,161.434,-797.804,0,0
109964.725,161.924,-794.687,0,0
110225.05,162.355,-791.711,0,0
110485.375,162.848,-788.716,0,0
110745.7,163.313,-785.605,0,0
111006.025,163.837,-782.444,0,0
111266.35,164.675,-779.239,0,0
111526.675,165.264,-776.29,0,0
111787.0,166.517,-773.372,0,0
112047.325,167.504,-770.711,0,0
112307.65,168.506,-768.226,0,0
112567.975,169.451,-765.766,0,0
112828.3,170.235,-763.451,0,0
113088.625,170.983,-760.927,0,0
113348.95,172.202,-758.352,0,0
113609.275,173.534,-756.24,0,0
113869.6,174.446,-754.384,0,0
114129.925,175.334,-752.58,0,0
114390.25,176.158,-750.758,0,0
114650.575,176.772,-748.891,0,0
114910.9,177.511,-746.739,0,0
115171.225,178.376,-744.881,0,0
115431.55,179.3,-743.123,0,0
115691.875,180.195,-741.443,0,0
115952.2,181.156,-739.816,0,0
116212.525,182.142,-738.406,0,0
116472.85,183.001,-737.382,0,0
116733.175,183.435,-736.562,0,0
116993.5,183.669,-735.481,0,0
117253.825,183.815,-734.608,0,0
117514.15,183.532,-733.724,0,0
117774.475,182.778,-732.555,0,0
118034.8,181.854,-730.844,0,0
118295.125,181.13,-728.546,0,0
118555.45,180.919,-725.885,0,0
118815.775,181.251,-723.514,0,0
119076.1,181.382,-721.358,0,0
119336.425,181.436,-718.807,0,0
119596.75,181.988,-715.902,0,0
119857.075,183.252,-713.054,0,0
120117.4,185.017,-710.722,0,0
120377.725,187.016,-708.788,0,0
120638.05,189.427,-707.551,0,0
120898.375,191.809,-707.125,0,0
121158.7,193.809,-707.623,0,0
121419.025,194.857,-708.935,0,0
121679.35,194.741,-710.233,0,0
121939.675,193.743,-711.112,0,0
122200.0,192.152,-711.116,0,0
122460,190.743,-710.46,0,0
122721,189.669,-709.511,0,0
122981,188.613,-708.523,0,0
123241,187.553,-707.382,0,0
123502,186.586,-706.102,0,0
123762,185.779,-704.694,0,0
124022,185.088,-703.481,0,0
124283,184.258,-702.376,0,0
124543,183.223,-701.256,0,0
124803,181.992,-699.88,0,0
125064,180.91,-698.184,0,0
125324,180.014,-696.477,0,0
125584,179.101,-694.903,0,0
125845,178.127,-693.204,0,0
126105,177.157,-691.456,0,0
126365,176.215,-689.655,0,0
126626,175.17,-687.771,0,0
126886,174.104,-685.663,0,0
127146,173.067,-683.34,0,0
127406,172.201,-681.034,0,0
127667,171.66,-678.529,0,0
127927,171.097,-675.935,0,0
128187,170.894,-673.209,0,0
128448,170.966,-670.59,0,0
128708,171.348,-668.072,0,0
128968,172.004,-665.928,0,0
129229,172.608,-664.196,0,0
129489,173.178,-662.711,0,0
129749,173.403,-661.305,0,0
130010,173.572,-660.06,0,0
130270,173.607,-658.749,0,0
130530,173.602,-657.517,0,0
130791,173.492,-656.367,0,0
131051,173.325,-655.185,0,0
131311,173.057,-654.059,0,0
131572,172.691,-652.865,0,0
131832,172.372,-651.629,0,0
132092,171.954,-650.568,0,0
132353,171.431,-649.491,0,0
132613,170.876,-648.348,0,0
132873,170.212,-647.301,0,0
133134,169.356,-646.245,0,0
133394,168.377,-645.104,0,0
133654,167.237,-643.827,0,0
133915,166.068,-642.451,0,0
134175,164.849,-640.939,0,0
134435,163.602,-639.278,0,0
134696,162.436,-637.518,0,0
134956,161.223,-635.693,0,0
135216,160.088,-633.776,0,0
135477,158.842,-631.846,0,0
135737,157.657,-629.761,0,0
135997,156.514,-627.589,0,0
136258,155.314,-625.321,0,0
136518,154.228,-622.914,0,0
136778,153.264,-620.449,0,0
137039,152.374,-617.991,0,0
137299,151.471,-615.512,0,0
137559,150.629,-612.991,0,0
137819,149.884,-610.386,0,0
138080,149.158,-607.77,0,0
138340.125,148.498,-605.094,0,0
138600.45,147.931,-602.401,0,0
138860.775,147.44,-599.667,0,0
139121.1,147.003,-596.97,0,0
139381.425,146.609,-594.29,0,0
139641.75,146.242,-591.562,0,0
139902.075,145.964,-588.847,0,0
140162.4,145.768,-586.117,0,0
140422.725,145.558,-583.373,0,0
140683.05,145.451,-580.668,0,0
140943.375,145.438,-577.899,0,0
141203.7,145.491,-575.245,0,0
141464.025,145.582,-572.612,0,0
141724.35,145.659,-570.111,0,0
141984.675,145.737,-567.507,0,0
142245.0,145.81,-564.916,0,0
142505.325,145.941,-562.382,0,0
142765.65,145.997,-559.86,0,0
143025.975,146.144,-557.105,0,0
143286.3,146.394,-554.471,0,0
143546.625,146.852,-551.79,0,0
143806.95,147.266,-549.218,0,0
144067.275,147.817,-546.668,0,0
144327.6,148.454,-544.199,0,0
144587.925,149.121,-541.933,0,0
144848.25,149.895,-539.705,0,0
145108.575,150.65,-537.659,0,0
145368.9,151.335,-535.875,0,0
145629.225,151.821,-534.21,0,0
145889.55,152.182,-532.63,0,0
146149.875,152.215,-530.998,0,0
146410.2,152.124,-529.264,0,0
146670.525,151.958,-527.348,0,0
146930.85,151.83,-525.303,0,0
147191.175,151.674,-523.252,0,0
147451.5,151.529,-521.134,0,0
147711.825,151.323,-518.993,0,0
147972.15,151.027,-516.7,0,0
148232.475,150.775,-514.294,0,0
148492.8,150.604,-511.725,0,0
148753.125,150.527,-509.151,0,0
149013.45,150.488,-506.556,0,0
149273.775,150.451,-503.941,0,0
149534.1,150.366,-501.226,0,0
149794.425,150.384,-498.379,0,0
150054.75,150.47,-495.432,0,0
150315.075,150.677,-492.409,0,0
150575.4,150.934,-489.356,0,0
150835.725,151.298,-486.197,0,0
151096.05,151.747,-482.955,0,0
151356.375,152.386,-479.592,0,0
151616.7,153.202,-476.096,0,0
151877.025,154.396,-472.479,0,0
152137.35,156.043,-468.97,0,0
152397.675,158.118,-465.778,0,0
152658.0,160.521,-463.064,0,0
152918.325,162.842,-460.89,0,0
153178.65,164.902,-459.122,0,0
153438.975,166.776,-457.635,0,0
153699.3,168.255,-456.258,0,0
153959.625,169.414,-454.847,0,0
154219.95,170.431,-453.299,0,0
154480,171.303,-451.71,0,0
154741,171.934,-449.806,0,0
155001,172.715,-447.713,0,0
155261,173.74,-445.32,0,0
155522,174.939,-442.954,0,0
155782,176.394,-440.591,0,0
156042,178.192,-438.374,0,0
156303,180.069,-436.378,0,0
156563,182.112,-434.679,0,0
156823,184.258,-433.32,0,0
157084,186.278,-432.353,0,0
157344,187.893,-431.645,0,0
157604,189.224,-431.089,0,0
157864,190.26,-430.456,0,0
158125,191.074,-429.839,0,0
158385,191.694,-429.105,0,0
158645,192.196,-428.138,0,0
158906,192.635,-427.079,0,0
159166,193.155,-425.995,0,0
159426,193.602,-424.822,0,0
159687,193.887,-423.518,0,0
159947,194.318,-422.232,0,0
160207,194.699,-420.857,0,0
160468,195.005,-419.486,0,0
160728,195.273,-417.876,0,0
160988,195.762,-416.388,0,0
161249,196.249,-414.875,0,0
161509,196.8,-413.419,0,0
161769,197.163,-412.051,0,0
162030,197.411,-410.639,0,0
162290,197.631,-409.089,0,0
162550,197.779,-407.504,0,0
162811,197.93,-405.748,0,0
163071,198.298,-403.906,0,0
163331,198.711,-402.202,0,0
163592,199.039,-400.675,0,0
163852,199.101,-399.155,0,0
164112,198.948,-397.394,0,0
164373,198.845,-395.402,0,0
164633,198.797,-393.169,0,0
164893,198.856,-390.906,0,0
165154,198.947,-388.479,0,0
165414,199.179,-385.927,0,0
165674,199.596,-383.347,0,0
165935,200.183,-380.78,0,0
166195,200.92,-378.171,0,0
166455,201.729,-375.793,0,0
166716,202.456,-373.505,0,0
166976,203.21,-371.137,0,0
167236,203.954,-368.781,0,0
167497,204.705,-366.356,0,0
167757,205.508,-363.919,0,0
168017,206.274,-361.517,0,0
168277,207.197,-359.039,0,0
168538,208.143,-356.647,0,0
168798,209.128,-354.176,0,0
169058,210.18,-351.814,0,0
169319,211.217,-349.441,0,0
169579,212.233,-347.208,0,0
169839,213.247,-344.936,0,0
170100,214.195,-342.689,0,0
170360.075,215.084,-340.354,0,0
170620.4,216.017,-337.969,0,0
170880.725,216.964,-335.548,0,0
171141.05,217.92,-333.087,0,0
171401.375,218.874,-330.662,0,0
171661.7,219.853,-328.165,0,0
171922.025,220.896,-325.621,0,0
172182.35,221.88,-323.102,0,0
172442.675,222.919,-320.53,0,0
172703.0,223.92,-317.964,0,0
172963.325,224.981,-315.412,0,0
173223.65,226.059,-312.714,0,0
173483.975,227.068,-310.077,0,0
173744.3,228.051,-307.374,0,0
174004.625,229.008,-304.58,0,0
174264.95,230.046,-301.668,0,0
174525.275,231.017,-298.647,0,0
174785.6,232.117,-295.521,0,0
175045.925,233.252,-292.291,0,0
175306.25,234.499,-288.994,0,0
175566.575,235.839,-285.629,0,0
175826.9,237.187,-282.2,0,0
176087.225,238.632,-278.688,0,0
176347.55,240.168,-275.08,0,0
176607.875,241.868,-271.358,0,0
176868.2,243.708,-267.588,0,0
177128.525,245.695,-263.842,0,0
177388.85,247.79,-260.019,0,0
177649.175,249.944,-256.182,0,0
177909.5,252.238,-252.286,0,0
178169.825,254.688,-248.319,0,0
178430.15,257.295,-244.288,0,0
178690.475,260.063,-240.238,0,0
178950.8,263.098,-236.159,0,0
179211.125,266.274,-232.076,0,0
179471.45,269.71,-228.074,0,0
179731.775,273.42,-224.144,0,0
179992.1,277.307,-220.328,0,0
180252.425,281.39,-216.723,0,0
180512.75,285.583,-213.307,0,0
180773.075,289.742,-210.004,0,0
181033.4,294.035,-206.86,0,0
181293.725,298.324,-203.784,0,0
181554.05,302.756,-200.72,0,0
181814.375,307.383,-197.814,0,0
182074.7,312.116,-195.068,0,0
182335.025,316.968,-192.624,0,0
182595.35,321.675,-190.476,0,0
182855.675,326.303,-188.417,0,0
183116.0,330.747,-186.453,0,0
183376.325,335.105,-184.425,0,0
183636.65,339.586,-182.317,0,0
183896.975,344.199,-180.195,0,0
184157.3,349.018,-178.275,0,0
184417.625,353.869,-176.62,0,0
184677.95,358.719,-175.263,0,0
184938.275,363.374,-174.164,0,0
185198.6,367.872,-173.242,0,0
185458.925,372.129,-172.446,0,0
185719.25,376.006,-171.79,0,0
185979.575,379.629,-171.01,0,0
186239.9,382.956,-170.247,0,0
186500,386.074,-169.472,0,0
186761,388.758,-168.271,0,0
187021,391.204,-166.873,0,0
187281,393.339,-165.1,0,0
187542,395.229,-162.762,0,0
187802,397.118,-159.822,0,0
188062,399.155,-156.224,0,0
188322,401.41,-152.022,0,0
188583,404.078,-147.425,0,0
188843,407.029,-142.467,0,0
189103,410.278,-136.945,0,0
189364,414.003,-130.963,0,0
189624,418.308,-124.453,0,0
189884,423.383,-117.561,0,0
190145,429.289,-110.364,0,0
190405,436.008,-103.053,0,0
190665,443.76,-95.81,0,0
190926,452.264,-88.7059,0,0
191186,461.629,-81.851,0,0
191446,471.872,-75.3062,0,0
191707,482.794,-69.3551,0,0
191967,494.204,-63.9852,0,0
192227,506.066,-59.0767,0,0
192488,518.358,-54.7123,0,0
192748,530.767,-50.7739,0,0
193008,543.654,-46.9492,0,0
193269,556.855,-43.3902,0,0
193529,570.86,-40.0445,0,0
193789,585.397,-37.207,0,0
194050,600.829,-34.8857,0,0
194310,616.792,-33.3134,0,0
194570,633.365,-32.5976,0,0
194831,650.465,-32.7271,0,0
195091,667.945,-33.9338,0,0
195351,685.608,-36.2583,0,0
195612,703.257,-39.4497,0,0
195872,721.05,-43.6267,0,0
196132,738.722,-48.7941,0,0
196393,756.409,-54.7118,0,0
196653,773.978,-61.6393,0,0
196913,791.313,-69.5349,0,0
197174,808.365,-78.2997,0,0
197434,824.983,-87.872,0,0
197694,841.255,-97.9885,0,0
197955,857.178,-108.653,0,0
198215,873.022,-119.929,0,0
198475,888.985,-131.786,0,0
198735,904.675,-144.648,0,0
198996,920.221,-158.449,0,0
199256,935.4,-173.34,0,0
199516,949.773,-189.095,0,0
199777,963.672,-205.97,0,0
200037,976.76,-223.336,0,0
200297,989.182,-241.089,0,0
200558,1000.97,-259.75,0,0
200818,1012.41,-278.848,0,0
201078,1023.62,-298.961,0,0
201339,1034.12,-319.931,0,0
201599,1043.78,-342.11,0,0
201859,1052.69,-365.519,0,0
202120,1059.95,-390.133,0,0
202380.025,1065.4,-416.024,0,0
202640.35,1068.86,-442.379,0,0
202900.675,1070.06,-468.781,0,0
203161.0,1069.41,-494.969,0,0
203421.325,1067.14,-520.679,0,0
203681.65,1062.92,-545.796,0,0
203941.975,1057.3,-570.132,0,0
204202.3,1050.77,-593.376,0,0
204462.625,1043.07,-615.831,0,0
204722.95,1034.7,-637.467,0,0
204983.275,1024.81,-658.668,0,0
205243.6,1014.15,-678.949,0,0
205503.925,1003.1,-697.874,0,0
205764.25,990.855,-716.411,0,0
206024.575,978.234,-733.766,0,0
206284.9,964.777,-749.948,0,0
206545.225,950.802,-765.018,0,0
206805.55,936.585,-779.01,0,0
207065.875,922.333,-791.787,0,0
207326.2,907.724,-803.724,0,0
207586.525,893.406,-814.773,0,0
207846.85,878.974,-824.671,0,0
208107.175,864.708,-833.735,0,0
208367.5,850.785,-842.259,0,0
208627.825,837.029,-849.656,0,0
208888.15,823.599,-856.677,0,0
209148.475,810.457,-862.902,0,0
209408.8,797.97,-868.833,0,0
209669.125,785.528,-874.736,0,0
209929.45,773.765,-879.564,0,0
210189.775,761.939,-884.988,0,0
210450.1,750.949,-889.728,0,0
210710.425,740.141,-894.721,0,0
210970.75,729.621,-899.89,0,0
211231.075,718.883,-905.472,0,0
211491.4,707.983,-911.271,0,0
211751.725,696.499,-917.247,0,0
212012.05,684.148,-922.897,0,0
212272.375,671.354,-928.248,0,0
212532.7,657.864,-932.762,0,0
212793.025,644.078,-936.594,0,0
213053.35,630.227,-939.614,0,0
213313.675,616.379,-941.721,0,0
213574.0,602.58,-943.079,0,0
213834.325,589.046,-943.76,0,0
214094.65,575.797,-944.009,0,0
214354.975,562.701,-943.389,0,0
214615.3,550.046,-942.399,0,0
214875.625,537.68,-940.696,0,0
215135.95,525.838,-939.006,0,0
215396.275,514.257,-936.268,0,0
215656.6,503.16,-933.67,0,0
215916.925,492.762,-930.508,0,0
216177.25,482.379,-927.397,0,0
216437.575,472.621,-924.013,0,0
216697.9,463.294,-920.502,0,0
216958.225,454.271,-916.864,0,0
217218.55,445.383,-913.135,0,0
217478.875,436.803,-909.283,0,0
217739.2,428.672,-905.296,0,0
217999.525,420.742,-901.236,0,0
218259.85,413.173,-897.104,0,0
218520,405.857,-892.915,0,0
218780,398.811,-888.791,0,0
219041,392.017,-884.473,0,0
219301,385.449,-880.081,0,0
219561,379.155,-875.712,0,0
219822,373.033,-871.593,0,0
220082,367.11,-867.191,0,0
220342,361.565,-862.68,0,0
220603,356.051,-858.492,0,0
220863,350.726,-854.055,0,0
221123,345.635,-849.812,0,0
221384,340.641,-845.48,0,0
221644,335.815,-841.003,0,0
221904,331.11,-836.708,0,0
222165,326.468,-832.077,0,0
222425,322.159,-827.813,0,0
222685,318.049,-823.3,0,0
222946,313.994,-818.714,0,0
223206,310.203,-814.137,0,0
223466,306.498,-809.415,0,0
223727,303.177,-804.789,0,0
223987,299.846,-800.271,0,0
224247,296.884,-795.501,0,0
224508,294.075,-790.765,0,0
224768,291.6,-786.284,0,0
225028,289.132,-781.729,0,0
225289,287.122,-777.069,0,0
225549,285.225,-772.451,0,0
225809,283.542,-767.994,0,0
226070,282.237,-763.768,0,0
226330,281.299,-759.565,0,0
226590,280.468,-755.617,0,0
226851,279.831,-751.86,0,0
227111,279.511,-748.382,0,0
227371,279.302,-745.156,0,0
227632,279.124,-742.379,0,0
227892,279.144,-739.963,0,0
228152,279.043,-737.73,0,0
228413,278.832,-736.003,0,0
228673,278.567,-734.53,0,0
228933,277.885,-733.326,0,0
229193,277.091,-732.254,0,0
229454,276.2,-731.374,0,0
229714,274.816,-730.534,0,0
229974,273.203,-729.703,0,0
230235,271.256,-728.744,0,0
230495,269.18,-727.729,0,0
230755,266.885,-726.617,0,0
231016,264.567,-725.294,0,0
231276,262.049,-723.761,0,0
231536,259.448,-722.125,0,0
231797,256.965,-720.197,0,0
232057,254.418,-718.29,0,0
232317,251.879,-715.98,0,0
232578,249.514,-713.57,0,0
232838,247.153,-711.121,0,0
233098,244.885,-708.557,0,0
233359,242.715,-705.739,0,0
233619,240.686,-703.005,0,0
233879,238.787,-700.129,0,0
234140,237.008,-697.125,0,0
234400,235.35,-694.094,0,0
234660.3,233.888,-691.162,0,0
234920.625,232.434,-688.105,0,0
235180.95,231.249,-685.096,0,0
235441.275,230.036,-682.158,0,0
235701.6,229.02,-679.134,0,0
235961.925,227.977,-676.206,0,0
236222.25,227.17,-673.307,0,0
236482.575,226.296,-670.322,0,0
236742.9,225.767,-667.494,0,0
237003.225,225.033,-664.534,0,0
237263.55,224.547,-661.756,0,0
237523.875,224.014,-659.001,0,0
237784.2,223.532,-656.193,0,0
238044.525,223.236,-653.444,0,0
238304.85,223.035,-650.718,0,0
238565.175,222.851,-648.036,0,0
238825.5,222.71,-645.416,0,0
239085.825,222.654,-642.77,0,0
239346.15,222.746,-640.246,0,0
239606.475,222.812,-637.769,0,0
239866.8,222.797,-635.349,0,0
240127.125,223.054,-632.881,0,0
240387.45,223.098,-630.502,0,0
240647.775,223.425,-628.138,0,0
240908.1,223.737,-625.841,0,0
241168.425,224.061,-623.526,0,0
241428.75,224.409,-621.204,0,0
241689.075,224.792,-618.953,0,0
241949.4,225.244,-616.75,0,0
242209.725,225.83,-614.56,0,0
242470.05,226.388,-612.402,0,0
242730.375,227.04,-610.267,0,0
242990.7,227.637,-608.211,0,0
243251.025,228.384,-606.149,0,0
243511.35,229.169,-604.078,0,0
243771.675,229.997,-602.173,0,0
244032.0,230.885,-600.276,0,0
244292.325,231.879,-598.258,0,0
244552.65,232.851,-596.44,0,0
244812.975,233.781,-594.714,0,0
245073.3,234.816,-592.815,0,0
245333.625,236,-591.144,0,0
245593.95,237.148,-589.413,0,0
245854.275,238.449,-587.56,0,0
246114.6,239.819,-585.821,0,0
246374.925,241.103,-584.106,0,0
246635.25,242.698,-582.382,0,0
246895.575,244.331,-580.683,0,0
247155.9,246.189,-579.075,0,0
247416.225,248.122,-577.596,0,0
247676.55,250.289,-576.253,0,0
247936.875,252.536,-575.066,0,0
248197.2,254.898,-574.074,0,0
248457.525,257.299,-573.323,0,0
248717.85,259.716,-572.664,0,0
248978.175,262.202,-572.287,0,0
249238.5,264.623,-572.169,0,0
249498.825,266.989,-572.143,0,0
249759.15,269.325,-572.334,0,0
250019.475,271.453,-572.61,0,0
250279.8,273.448,-572.936,0,0
250540,275.451,-573.213,0,0
250800,277.294,-573.456,0,0
251061,279.275,-573.591,0,0
251321,281.392,-573.841,0,0
251581,283.706,-574.054,0,0
251842,286.236,-574.336,0,0
252102,288.926,-574.904,0,0
252362,291.812,-575.675,0,0
252623,294.828,-576.714,0,0
252883,297.954,-578.109,0,0
253143,301.089,-579.972,0,0
253404,304.227,-582.162,0,0
253664,307.275,-584.761,0,0
253924,310.201,-587.764,0,0
254185,312.898,-591.266,0,0
254445,315.255,-595.087,0,0
254705,317.287,-599.338,0,0
254966,318.928,-603.71,0,0
255226,320.154,-608.495,0,0
255486,320.828,-613.276,0,0
255747,321.046,-618.115,0,0
256007,320.848,-623.124,0,0
256267,320.207,-627.9,0,0
256528,319.177,-632.715,0,0
256788,317.82,-637.3,0,0
257048,316.047,-641.792,0,0
257309,314.025,-646.13,0,0
257569,311.706,-650.264,0,0
257829,309.083,-654.255,0,0
258090,306.31,-658.015,0,0
258350,303.31,-661.465,0,0
258610,300.163,-664.774,0,0
258871,296.79,-667.941,0,0
259131,293.29,-670.722,0,0
259391,289.7,-673.436,0,0
259651,285.996,-675.887,0,0
259912,282.221,-678.05,0,0
260172,278.15,-680.048,0,0
260432,274.229,-681.775,0,0
260693,270.283,-683.239,0,0
260953,266.309,-684.485,0,0
261213,262.217,-685.555,0,0
261474,258.233,-686.439,0,0
261734,254.395,-687.05,0,0
261994,250.425,-687.435,0,0
262255,246.595,-687.707,0,0
262515,242.909,-687.836,0,0
262775,239.251,-687.85,0,0
263036,235.657,-687.647,0,0
263296,232.153,-687.419,0,0
263556,228.803,-687.117,0,0
263817,225.425,-686.683,0,0
264077,222.174,-686.212,0,0
264337,218.919,-685.731,0,0
264598,215.731,-685.069,0,0
264858,212.691,-684.453,0,0
265118,209.608,-683.628,0,0
265379,206.648,-682.75,0,0
265639,203.734,-681.835,0,0
265899,200.869,-680.92,0,0
266160,198.098,-679.924,0,0
266420,195.374,-678.85,0,0
266680.25,192.776,-677.723,0,0
266940.575,190.113,-676.642,0,0
267200.9,187.616,-675.391,0,0
267461.225,185.128,-674.22,0,0
267721.55,182.701,-672.933,0,0
267981.875,180.396,-671.702,0,0
268242.2,178.123,-670.385,0,0
268502.525,175.83,-669.058,0,0
268762.85,173.675,-667.828,0,0
269023.175,171.599,-666.416,0,0
269283.5,169.512,-665.107,0,0
269543.825,167.499,-663.701,0,0
269804.15,165.478,-662.434,0,0
270064.475,163.541,-661.035,0,0
270324.8,161.531,-659.575,0,0
270585.125,159.634,-658.315,0,0
270845.45,157.796,-656.841,0,0
271105.775,156.01,-655.552,0,0
271366.1,154.252,-654.058,0,0
271626.425,152.471,-652.66,0,0
271886.75,150.781,-651.211,0,0
272147.075,149.143,-649.779,0,0
272407.4,147.485,-648.391,0,0
272667.725,145.798,-646.929,0,0
272928.05,144.211,-645.454,0,0
273188.375,142.623,-644.006,0,0
273448.7,141.113,-642.574,0,0
273709.025,139.575,-641.053,0,0
273969.35,138.02,-639.549,0,0
274229.675,136.551,-638.108,0,0
274490.0,135.16,-636.522,0,0
274750.325,133.766,-635.037,0,0
275010.65,132.427,-633.506,0,0
275270.975,131.019,-631.991,0,0
275531.3,129.694,-630.45,0,0
275791.625,128.406,-628.847,0,0
276051.95,127.12,-627.297,0,0
276312.275,125.962,-625.757,0,0
276572.6,124.709,-624.142,0,0
276832.925,123.614,-622.618,0,0
277093.25,122.436,-621.087,0,0
277353.575,121.344,-619.565,0,0
277613.9,120.222,-617.961,0,0
277874.225,119.192,-616.387,0,0
278134.55,118.117,-614.787,0,0
278394.875,117.097,-613.196,0,0
278655.2,116.007,-611.629,0,0
278915.525,115.074,-609.971,0,0
279175.85,114.178,-608.274,0,0
279436.175,113.278,-606.657,0,0
279696.5,112.439,-605.019,0,0
279956.825,111.679,-603.305,0,0
280217.15,110.989,-601.596,0,0
280477.475,110.389,-599.948,0,0
280737.8,109.793,-598.373,0,0
280998.125,109.216,-596.765,0,0
281258.45,108.773,-595.277,0,0
281518.775,108.353,-593.81,0,0
281779.1,107.94,-592.427,0,0
282039.425,107.481,-591.088,0,0
282299.75,107.028,-589.797,0,0
282560,106.544,-588.48,0,0
282820,106.015,-587.212,0,0
283081,105.567,-585.909,0,0
283341,105.026,-584.645,0,0
283601,104.569,-583.357,0,0
283862,104.066,-582.082,0,0
284122,103.585,-580.775,0,0
284382,103.175,-579.508,0,0
284643,102.749,-578.187,0,0
284903,102.347,-576.957,0,0
285163,101.975,-575.72,0,0
285424,101.655,-574.472,0,0
285684,101.359,-573.24,0,0
285944,101.093,-572.07,0,0
286205,100.836,-570.934,0,0
286465,100.614,-569.829,0,0
286725,100.342,-568.823,0,0
286986,100.069,-567.859,0,0
287246,99.7283,-566.885,0,0
287506,99.385,-565.967,0,0
287767,98.9415,-564.987,0,0
288027,98.5222,-563.99,0,0
288287,98.1209,-563.003,0,0
288548,97.7077,-561.933,0,0
288808,97.2947,-560.935,0,0
289068,96.9249,-559.858,0,0
289329,96.5674,-558.871,0,0
289589,96.2555,-557.774,0,0
289849,95.9601,-556.776,0,0
290109,95.6767,-555.768,0,0
290370,95.3709,-554.775,0,0
290630,95.0681,-553.81,0,0
290890,94.8299,-552.85,0,0
291151,94.5342,-551.936,0,0
291411,94.2493,-551.025,0,0
291671,93.9997,-550.114,0,0
291932,93.7912,-549.171,0,0
292192,93.5169,-548.355,0,0
292452,93.3262,-547.53,0,0
292713,93.0753,-546.7,0,0
292973,92.7932,-545.918,0,0
293233,92.5363,-545.15,0,0
293494,92.2467,-544.374,0,0
293754,91.9504,-543.708,0,0
294014,91.6426,-543.045,0,0
294275,91.2496,-542.398,0,0
294535,90.7973,-541.744,0,0
294795,90.3374,-541.079,0,0
295056,89.8588,-540.418,0,0
295316,89.3036,-539.706,0,0
295576,88.7574,-538.945,0,0
295837,88.1488,-538.208,0,0
296097,87.5375,-537.414,0,0
296357,86.8962,-536.612,0,0
296618,86.2478,-535.705,0,0
296878,85.5934,-534.784,0,0
297138,84.9165,-533.788,0,0
297399,84.2864,-532.769,0,0
297659,83.6393,-531.63,0,0
297919,83.1109,-530.432,0,0
298180,82.6231,-529.213,0,0
298440,82.2157,-527.938,0,0
298700.2,81.8957,-526.609,0,0
298960.525,81.6166,-525.384,0,0
299220.85,81.4721,-524.263,0,0
299481.175,81.3442,-523.068,0,0
299741.5,81.2696,-522.03,0,0
300001.825,81.2335,-520.943,0,0
300262.15,81.1395,-519.923,0,0
300522.475,81.114,-519.004,0,0
300782.8,81.0414,-518.048,0,0
301043.125,80.9756,-517.225,0,0
301303.45,80.9659,-516.443,0,0
301563.775,80.8376,-515.547,0,0
301824.1,80.816,-514.812,0,0
302084.425,80.6699,-513.962,0,0
302344.75,80.537,-513.166,0,0
302605.075,80.4045,-512.397,0,0
302865.4,80.1895,-511.693,0,0
303125.725,80.0684,-510.873,0,0
303386.05,79.8894,-510.163,0,0
303646.375,79.6797,-509.38,0,0
303906.7,79.474,-508.585,0,0
304167.025,79.2219,-507.751,0,0
304427.35,79.0531,-506.928,0,0
304687.675,78.8283,-506.083,0,0
304948.0,78.7073,-505.191,0,0
305208.325,78.6074,-504.271,0,0
305468.65,78.5204,-503.317,0,0
305728.975,78.5164,-502.443,0,0
305989.3,78.5393,-501.599,0,0
306249.625,78.6801,-500.733,0,0
306509.95,78.8244,-500.021,0,0
306770.275,78.966,-499.374,0,0
307030.6,79.0702,-498.744,0,0
307290.925,79.1633,-498.273,0,0
307551.25,79.2162,-497.789,0,0
307811.575,79.2036,-497.327,0,0
308071.9,79.0683,-496.931,0,0
308332.225,79.001,-496.5,0,0
308592.55,78.8325,-496.042,0,0
308852.875,78.6577,-495.559,0,0
309113.2,78.4853,-495.069,0,0
309373.525,78.2366,-494.602,0,0
309633.85,78.0023,-494.076,0,0
309894.175,77.7977,-493.543,0,0
310154.5,77.5835,-493.108,0,0
310414.825,77.3349,-492.588,0,0
310675.15,77.1192,-492.006,0,0
310935.475,76.8517,-491.558,0,0
311195.8,76.6206,-491.023,0,0
311456.125,76.2992,-490.523,0,0
311716.45,76.0252,-490.031,0,0
311976.775,75.7341,-489.531,0,0
312237.1,75.4347,-488.98,0,0
312497.425,75.0946,-488.465,0,0
312757.75,74.6801,-487.882,0,0
313018.075,74.4087,-487.338,0,0
313278.4,74.14,-486.745,0,0
313538.725,73.761,-486.188,0,0
313799.05,73.4608,-485.601,0,0
314059.375,73.0768,-484.969,0,0
314319.7,72.8257,-484.344,0,0
314580,72.5436,-483.809,0,0
314840,72.1835,-483.044,0,0
315101,71.8796,-482.485,0,0
315361,71.6321,-481.854,0,0
315621,71.2861,-481.267,0,0
315882,71.0182,-480.599,0,0
316142,70.7532,-480.006,0,0
316402,70.4512,-479.413,0,0
316663,70.1413,-478.806,0,0
316923,69.9171,-478.191,0,0
317183,69.5624,-477.56,0,0
317444,69.2876,-476.978,0,0
317704,69.0789,-476.381,0,0
317964,68.7172,-475.768,0,0
318225,68.4376,-475.14,0,0
318485,68.0668,-474.543,0,0
318745,67.8224,-473.94,0,0
319006,67.4754,-473.324,0,0
319266,67.1072,-472.759,0,0
319526,66.8298,-472.055,0,0
319787,66.4429,-471.432,0,0
320047,66.1616,-470.806,0,0
320307,65.7979,-470.182,0,0
320567,65.4893,-469.559,0,0
320828,65.1123,-468.864,0,0
321088,64.7563,-468.145,0,0
321348,64.4589,-467.366,0,0
321609,64.1516,-466.672,0,0
321869,63.8673,-465.908,0,0
322129,63.602,-465.213,0,0
322390,63.3581,-464.469,0,0
322650,63.1282,-463.706,0,0
322910,62.9233,-463.007,0,0
323171,62.7058,-462.337,0,0
323431,62.4804,-461.611,0,0
323691,62.2505,-460.971,0,0
323952,62.0656,-460.29,0,0
324212,61.8738,-459.587,0,0
324472,61.5753,-458.908,0,0
324733,61.4274,-458.293,0,0
324993,61.2136,-457.612,0,0
325253,60.9974,-456.968,0,0
325514,60.7505,-456.293,0,0
325774,60.5103,-455.624,0,0
326034,60.2585,-454.929,0,0
326295,60.0606,-454.237,0,0
326555,59.8588,-453.561,0,0
326815,59.5768,-452.869,0,0
327076,59.4205,-452.196,0,0
327336,59.1722,-451.494,0,0
327596,58.9906,-450.823,0,0
327857,58.7929,-450.105,0,0
328117,58.5769,-449.452,0,0
328377,58.4416,-448.733,0,0
328638,58.2248,-448.048,0,0
328898,58.037,-447.441,0,0
329158,57.8367,-446.737,0,0
329419,57.6644,-446.038,0,0
329679,57.4779,-445.365,0,0
329939,57.3422,-444.701,0,0
330200,57.1412,-443.979,0,0
330460,56.9487,-443.333,0,0
330720.15,56.851,-442.66,0,0
330980.475,56.6327,-441.977,0,0
331240.8,56.443,-441.272,0,0
331501.125,56.289,-440.611,0,0
331761.45,56.1026,-439.951,0,0
332021.775,55.9688,-439.256,0,0
332282.1,55.8336,-438.561,0,0
332542.425,55.6833,-437.865,0,0
332802.75,55.5333,-437.169,0,0
333063.075,55.3833,-436.481,0,0
333323.4,55.2466,-435.835,0,0
333583.725,55.1211,-435.094,0,0
333844.05,55.0291,-434.423,0,0
334104.375,54.8532,-433.739,0,0
334364.7,54.7378,-433.038,0,0
334625.025,54.6461,-432.404,0,0
334885.35,54.608,-431.671,0,0
335145.675,54.4483,-431.01,0,0
335406.0,54.3779,-430.398,0,0
335666.325,54.2857,-429.652,0,0
335926.65,54.2583,-429.044,0,0
336186.975,54.1707,-428.412,0,0
336447.3,54.094,-427.743,0,0
336707.625,54.0347,-427.102,0,0
336967.95,53.925,-426.481,0,0
337228.275,53.8597,-425.797,0,0
337488.6,53.7787,-425.158,0,0
337748.925,53.6899,-424.559,0,0
338009.25,53.6208,-423.965,0,0
338269.575,53.5206,-423.356,0,0
338529.9,53.3986,-422.668,0,0
338790.225,53.3644,-422.066,0,0
339050.55,53.2528,-421.396,0,0
339310.875,53.2246,-420.795,0,0
339571.2,53.1346,-420.163,0,0
339831.525,53.0776,-419.52,0,0
340091.85,53.0244,-418.824,0,0
340352.175,52.9635,-418.205,0,0
340612.5,52.9022,-417.594,0,0
340872.825,52.8623,-416.941,0,0
341133.15,52.8358,-416.339,0,0
341393.475,52.8148,-415.659,0,0
341653.8,52.7973,-415.061,0,0
341914.125,52.7739,-414.414,0,0
342174.45,52.7517,-413.802,0,0
342434.775,52.7959,-413.147,0,0
342695.1,52.8184,-412.575,0,0
342955.425,52.9051,-411.96,0,0
343215.75,52.9433,-411.434,0,0
343476.075,53.0079,-410.915,0,0
343736.4,53.1202,-410.389,0,0
343996.725,53.177,-409.96,0,0
344257.05,53.1067,-409.541,0,0
344517.375,53.0782,-409.153,0,0
344777.7,53.0048,-408.739,0,0
345038.025,52.8898,-408.327,0,0
345298.35,52.7515,-407.88,0,0
345558.675,52.5873,-407.395,0,0
345819.0,52.4381,-406.853,0,0
346079.325,52.2145,-406.351,0,0
346339.65,52.1064,-405.742,0,0
346599.975,51.9705,-405.192,0,0
346860,51.8381,-404.62,0,0
347121,51.7294,-403.967,0,0
347381,51.6136,-403.419,0,0
347641,51.5134,-402.771,0,0
347902,51.4195,-402.164,0,0
348162,51.3659,-401.576,0,0
348422,51.2992,-400.984,0,0
348683,51.2477,-400.374,0,0
348943,51.2035,-399.807,0,0
349203,51.1693,-399.18,0,0
349464,51.1447,-398.596,0,0
349724,51.0815,-398.017,0,0
349984,51.0762,-397.458,0,0
350245,51.0521,-396.874,0,0
350505,51.0368,-396.268,0,0
350765,51.0044,-395.726,0,0
351025,51.0039,-395.134,0,0
351286,50.9713,-394.571,0,0
351546,50.9548,-394.015,0,0
351806,50.9998,-393.452,0,0
352067,51.0292,-392.914,0,0
352327,51.0034,-392.315,0,0
352587,51.0174,-391.808,0,0
352848,51.0387,-391.25,0,0
353108,51.0657,-390.733,0,0
353368,51.0799,-390.227,0,0
353629,51.0846,-389.717,0,0
353889,51.1015,-389.217,0,0
354149,51.0954,-388.765,0,0
354410,51.125,-388.247,0,0
354670,51.0885,-387.754,0,0
354930,51.1081,-387.271,0,0
355191,51.0435,-386.786,0,0
355451,51.0014,-386.302,0,0
355711,50.9919,-385.821,0,0
355972,50.9556,-385.295,0,0
356232,50.8833,-384.807,0,0
356492,50.8536,-384.275,0,0
356753,50.8772,-383.731,0,0
357013,50.8125,-383.22,0,0
357273,50.8499,-382.657,0,0
357534,50.843,-382.143,0,0
357794,50.8221,-381.662,0,0
358054,50.8834,-381.156,0,0
358315,50.9228,-380.643,0,0
358575,50.9517,-380.138,0,0
358835,51.0064,-379.655,0,0
359096,51.0652,-379.207,0,0
359356,51.0685,-378.746,0,0
359616,51.0831,-378.268,0,0
359877,51.076,-377.876,0,0
360137,51.1186,-377.423,0,0
360397,51.0861,-376.982,0,0
360658,51.0999,-376.605,0,0
360918,51.1015,-376.163,0,0
361178,51.0355,-375.745,0,0
361438,51.0169,-375.325,0,0
361699,50.9712,-374.884,0,0
361959,50.9223,-374.494,0,0
362219,50.8776,-374.065,0,0
362480,50.8079,-373.59,0,0
362740.1,50.7137,-373.163,0,0
363000.425,50.6908,-372.721,0,0
363260.75,50.6456,-372.273,0,0
363521.075,50.5733,-371.797,0,0
363781.4,50.5083,-371.36,0,0
364041.725,50.4234,-370.881,0,0
364302.05,50.3691,-370.383,0,0
364562.375,50.31,-369.948,0,0
364822.7,50.293,-369.453,0,0
365083.025,50.203,-368.937,0,0
365343.35,50.1397,-368.434,0,0
365603.675,50.1131,-367.962,0,0
365864.0,50.0768,-367.476,0,0
366124.325,50.0573,-366.962,0,0
366384.65,50.0261,-366.459,0,0
366644.975,50.0149,-366.011,0,0
366905.3,49.9863,-365.512,0,0
367165.625,49.9661,-365.057,0,0
367425.95,49.9229,-364.54,0,0
367686.275,49.9039,-364.077,0,0
367946.6,49.8884,-363.595,0,0
368206.925,49.8667,-363.088,0,0
368467.25,49.8228,-362.649,0,0
368727.575,49.8427,-362.147,0,0
368987.9,49.8214,-361.665,0,0
369248.225,49.8174,-361.152,0,0
369508.55,49.8335,-360.683,0,0
369768.875,49.8542,-360.17,0,0
370029.2,49.8094,-359.677,0,0
370289.525,49.8309,-359.191,0,0
370549.85,49.8625,-358.721,0,0
370810.175,49.9018,-358.24,0,0
371070.5,49.9322,-357.756,0,0
371330.825,49.9177,-357.302,0,0
371591.15,49.9733,-356.819,0,0
371851.475,50.0496,-356.343,0,0
372111.8,50.0931,-355.904,0,0
372372.125,50.1672,-355.456,0,0
372632.45,50.251,-355.041,0,0
372892.775,50.3387,-354.643,0,0
373153.1,50.411,-354.222,0,0
373413.425,50.4747,-353.876,0,0
373673.75,50.5721,-353.498,0,0
373934.075,50.6319,-353.194,0,0
374194.4,50.6119,-352.871,0,0
374454.725,50.617,-352.59,0,0
374715.05,50.5877,-352.303,0,0
374975.375,50.5266,-351.976,0,0
375235.7,50.4327,-351.687,0,0
375496.025,50.3611,-351.318,0,0
375756.35,50.2155,-350.995,0,0
376016.675,50.1107,-350.601,0,0
376277.0,49.9956,-350.223,0,0
376537.325,49.8931,-349.865,0,0
376797.65,49.7962,-349.435,0,0
377057.975,49.6953,-349.017,0,0
377318.3,49.5483,-348.607,0,0
377578.625,49.4822,-348.148,0,0
377838.95,49.3962,-347.733,0,0
378099.275,49.2942,-347.33,0,0
378359.6,49.1695,-346.931,0,0
378619.925,49.0982,-346.48,0,0
378880,48.9338,-346.037,0,0
379141,48.8068,-345.612,0,0
379401,48.6901,-345.185,0,0
379661,48.5432,-344.697,0,0
379922,48.4192,-344.272,0,0
380182,48.2701,-343.797,0,0
380442,48.1419,-343.239,0,0
380703,47.9942,-342.746,0,0
380963,47.864,-342.188,0,0
381223,47.7769,-341.653,0,0
381483,47.6571,-341.102,0,0
381744,47.6167,-340.503,0,0
382004,47.5241,-339.923,0,0
382264,47.5324,-339.339,0,0
382525,47.509,-338.74,0,0
382785,47.5753,-338.117,0,0
383045,47.6378,-337.593,0,0
383306,47.7648,-337.074,0,0
383566,47.835,-336.628,0,0
383826,47.9523,-336.2,0,0
384087,48.0032,-335.82,0,0
384347,48.0092,-335.43,0,0
384607,48.0103,-335.046,0,0
384868,47.9718,-334.67,0,0
385128,47.9343,-334.268,0,0
385388,47.8633,-333.876,0,0
385649,47.7734,-333.416,0,0
385909,47.6764,-332.988,0,0
386169,47.574,-332.546,0,0
386430,47.5248,-332.073,0,0
386690,47.416,-331.58,0,0
386950,47.3799,-331.093,0,0
387211,47.2825,-330.62,0,0
387471,47.2037,-330.152,0,0
387731,47.1286,-329.619,0,0
387992,47.0937,-329.133,0,0
388252,47.0207,-328.599,0,0
388512,46.9696,-328.076,0,0
388773,46.8902,-327.587,0,0
389033,46.8712,-327.047,0,0
389293,46.8241,-326.525,0,0
389554,46.7856,-326.001,0,0
389814,46.737,-325.466,0,0
390074,46.7223,-324.962,0,0
390335,46.6948,-324.409,0,0
390595,46.6559,-323.871,0,0
390855,46.6578,-323.367,0,0
391116,46.6401,-322.837,0,0
391376,46.6333,-322.3,0,0
391636,46.6004,-321.765,0,0
391896,46.6094,-321.269,0,0
392157,46.615,-320.705,0,0
392417,46.6202,-320.191,0,0
392677,46.605,-319.645,0,0
392938,46.6137,-319.117,0,0
393198,46.6095,-318.589,0,0
393458,46.604,-318.053,0,0
393719,46.602,-317.523,0,0
393979,46.6144,-316.979,0,0
394239,46.6263,-316.462,0,0
394500,46.655,-315.916,0,0
394760.05,46.6775,-315.382,0,0
395020.375,46.6975,-314.849,0,0
395280.7,46.7096,-314.31,0,0
395541.025,46.7258,-313.781,0,0
395801.35,46.7515,-313.228,0,0
396061.675,46.7776,-312.689,0,0
396322.0,46.8061,-312.152,0,0
396582.325,46.8267,-311.625,0,0
396842.65,46.8748,-311.07,0,0
397102.975,46.918,-310.538,0,0
397363.3,46.9876,-309.99,0,0
397623.625,47.0065,-309.451,0,0
397883.95,47.0854,-308.919,0,0
398144.275,47.1113,-308.345,0,0
398404.6,47.1491,-307.815,0,0
398664.925,47.242,-307.286,0,0
398925.25,47.2697,-306.747,0,0
399185.575,47.3627,-306.215,0,0
399445.9,47.4065,-305.665,0,0
399706.225,47.4565,-305.158,0,0
399966.55,47.5094,-304.597,0,0
400006.6,47.5155,-304.531,0,0