File: Accelerated corrosion test data/2025-10-23_18-00-04/sample_5.csv
Frequency (Hz),Impedance (ohms),Phase (Radians),Temperature (C),Humidity (%)
10000.0,4018.62,-3500.2,0,0
10260.325,3948.75,-3501.88,0,0
10520.65,3868.65,-3414.79,0,0
10780.975,3814.28,-3557.55,0,0
11041.3,3748.2,-3546.1,0,0
11301.625,3680.36,-3529.26,0,0
11561.95,3616.38,-3502.16,0,0
11822.275,3552.7,-3494.51,0,0
12082.6,3491.97,-3466.09,0,0
12342.925,3432.8,-3449.6,0,0
12603.25,3374.1,-3391.07,0,0
12863.575,3318.19,-3413.79,0,0
13123.9,3262.62,-3426.24,0,0
13384.225,3211.02,-3378.96,0,0
13644.55,3155.62,-3394.31,0,0
13904.875,3106.01,-3374.62,0,0
14165.2,3054.76,-3364.48,0,0
14425.525,3005.08,-3353.9,0,0
14685.8,2956.27,-3346.11,0,0
14946.175,2908.25,-3334.75,0,0
15206.5,2860.32,-3337.97,0,0
15466.825,2815.28,-3323.62,0,0
15727.15,2771.19,-3303.98,0,0
15987.5,2727.5,-3288.39,0,0
16247.8,2686.46,-3267.88,0,0
16508.125,2646.32,-3250.96,0,0
16768.45,2619.36,-3166.31,0,0
17028.775,2627.9,-2754.26,0,0
17289.1,2571.92,-2968.87,0,0
17549.425,2488.04,-3192.64,0,0
17809.75,2451.45,-3177.57,0,0
18070.075,2418.72,-3147.85,0,0
18330.4,2385.27,-3125.23,0,0
18590.725,2352.21,-3106.53,0,0
18851.05,2317.84,-3088.09,0,0
19111.375,2284.54,-3076.26,0,0
19371.7,2249.95,-3068.86,0,0
19632.025,2235.48,-2996.47,0,0
19892.35,2188.74,-3034.09,0,0
20152.675,30.5488,0.417028,0,0
20413.0,1980.66,-1173.29,0,0
20673.3,2020.26,-1280.49,0,0
20933.65,2033.27,-1344.54,0,0
21193.975,2024.07,-1360.93,0,0
21454.3,2024.7,-1402.05,0,0
21714.625,2033.42,-1475.67,0,0
21974.9,2009.32,-1448.63,0,0
22235.275,1994.66,-1452.38,0,0
22495.6,1976.6,-1443.85,0,0
22755.925,1971.14,-1478.31,0,0
23016.25,1955.65,-1477.4,0,0
23276.6,1944.61,-1492.18,0,0
23536.9,1947.25,-1568.95,0,0
23797.225,1941.52,-1616.61,0,0
24057.55,1923.39,-1606.72,0,0
24317.875,1906.63,-1599.48,0,0
24578.2,1889.36,-1583.51,0,0
24838.525,1874.34,-1588.64,0,0
25098.85,1862.17,-1607.27,0,0
25359.175,1846.48,-1599.91,0,0
25619.5,1834.12,-1616.75,0,0
25879.8,1821.47,-1638.98,0,0
26140.1,1810.87,-1677.74,0,0
26400.5,1796.35,-1682.08,0,0
26660.8,1781.72,-1688.18,0,0
26921.1,1767.19,-1694.81,0,0
27181.4,1752.76,-1700.37,0,0
27441.8,1738.04,-1695.68,0,0
27702.1,1723.7,-1706.01,0,0
27962.4,1709.53,-1715.81,0,0
28222.7,1694.73,-1719.72,0,0
28483.1,1680.51,-1718.34,0,0
28743.4,1666.16,-1723.54,0,0
29003.7,1651.85,-1723.94,0,0
29264,1638.01,-1721.94,0,0
29524.4,1624.37,-1721.1,0,0
29784.7,1609.87,-1725.15,0,0
30045,1595.8,-1729.37,0,0
30305.3,1582.08,-1728.01,0,0
30565.7,1568.08,-1731.41,0,0
30826,1554.42,-1733.04,0,0
31086.3,1541.76,-1727.23,0,0
31346.6,1528.59,-1727.32,0,0
31607,1515.32,-1726.71,0,0
31867.3,1503.36,-1718.71,0,0
32127.6,1490.18,-1718.01,0,0
32387.9,1477.58,-1716.53,0,0
32648.3,1463.41,-1724.63,0,0
32908.6,1452.07,-1717.28,0,0
33168.9,1438.56,-1720.8,0,0
33429.2,1424.85,-1726.57,0,0
33689.6,1412.66,-1724.44,0,0
33949.9,1399.94,-1724.12,0,0
34210.2,1389.24,-1716.42,0,0
34470.5,1376.82,-1716.68,0,0
34730.9,1365.19,-1713.2,0,0
34991.2,1353.1,-1712.65,0,0
35251.5,1342.33,-1706.28,0,0
35511.8,1329.98,-1707.4,0,0
35772.2,1320.51,-1697.6,0,0
36032.5,1308.48,-1697.77,0,0
36292.8,1298.2,-1692.22,0,0
36553.1,1285.4,-1695.48,0,0
36813.5,1274.63,-1692.65,0,0
37073.8,1262.21,-1694.83,0,0
37334.1,1250.56,-1695.53,0,0
37594.4,1239.36,-1693.8,0,0
37854.8,1228.52,-1691.36,0,0
38115.1,1219.12,-1684.8,0,0
38375.4,1207.73,-1684.49,0,0
38635.7,1197.33,-1681.4,0,0
38896.1,1187.91,-1676.1,0,0
39156.4,1176.35,-1677.08,0,0
39416.7,1167.26,-1671.35,0,0
39677,1157.98,-1666.69,0,0
39937.4,1149.69,-1659.72,0,0
40197.7,1139.22,-1658.03,0,0
40458,1129.2,-1655.68,0,0
40718.3,1121.69,-1646.89,0,0
40978.7,1112.72,-1642.41,0,0
41239,1103.04,-1639.58,0,0
41499.3,1092.83,-1638.38,0,0
41759.6,1084.19,-1633.56,0,0
42020,1074.46,-1632.1,0,0
42280.275,1061.46,-1639.31,0,0
42540.6,1054.33,-1631.98,0,0
42800.925,1047.63,-1623.39,0,0
43061.25,1038.73,-1620.03,0,0
43321.575,1030.21,-1616.1,0,0
43581.9,1021.66,-1612.48,0,0
43842.225,1012.96,-1609.03,0,0
44102.55,1005.03,-1604.46,0,0
44362.875,996.948,-1600.19,0,0
44623.2,989.892,-1594.3,0,0
44883.525,980.868,-1592.17,0,0
45143.85,974.474,-1584.43,0,0
45404.175,967.165,-1579.39,0,0
45664.5,959.277,-1575.89,0,0
45924.825,953.18,-1568.87,0,0
46185.15,946.135,-1563.81,0,0
46445.475,937.116,-1562.04,0,0
46705.8,930.632,-1557.02,0,0
46966.125,923.616,-1552.53,0,0
47226.45,915.797,-1549.34,0,0
47486.775,909.195,-1544.07,0,0
47747.1,902.321,-1539.64,0,0
48007.425,893.225,-1539.14,0,0
48267.75,886.441,-1534.9,0,0
48528.075,880.353,-1529.46,0,0
48788.4,874.665,-1523.46,0,0
49048.725,867.537,-1520.59,0,0
49309.05,863.355,-1512.34,0,0
49569.375,857.112,-1507.66,0,0
49829.7,851.642,-1502.43,0,0
50090.025,846.337,-1496.82,0,0
50350.35,841.292,-1490.69,0,0
50610.675,834.164,-1488.4,0,0
50871.0,828.634,-1483.44,0,0
51131.325,819.395,-1484.64,0,0
51391.65,816.45,-1475.69,0,0
51651.975,811.886,-1469.8,0,0
51912.3,801.882,-1472.1,0,0
52172.625,797.237,-1465.72,0,0
52432.95,790.823,-1462.54,0,0
52693.275,785.949,-1457.03,0,0
52953.6,779.211,-1454.29,0,0
53213.925,774.015,-1449.27,0,0
53474.25,769.524,-1443.7,0,0
53734.575,765.229,-1437.59,0,0
53994.9,759.864,-1433.49,0,0
54255.225,754.27,-1429.62,0,0
54515.55,748.102,-1426.4,0,0
54775.875,744.66,-1419.56,0,0
55036.2,740.098,-1414.52,0,0
55296.525,734.539,-1410.89,0,0
55556.85,730.876,-1404.58,0,0
55817.175,725.615,-1401.16,0,0
56077.5,719.325,-1399.19,0,0
56337.825,713.563,-1396.48,0,0
56598.15,710.159,-1390.42,0,0
56858.475,706.89,-1384.44,0,0
57118.8,700.564,-1382.54,0,0
57379.125,695.402,-1378.99,0,0
57639.45,689.035,-1377.2,0,0
57899.775,684.93,-1372.51,0,0
58160.1,681.127,-1367.97,0,0
58420.4,675.842,-1364.75,0,0
58680.7,671.627,-1360.13,0,0
58941.1,668.287,-1354.81,0,0
59201.4,663.191,-1351.41,0,0
59461.7,659.105,-1346.61,0,0
59722,654.573,-1342.57,0,0
59982.4,650.908,-1337.42,0,0
60242.7,646.04,-1333.86,0,0
60503,641.235,-1330.58,0,0
60763.3,636.855,-1326.34,0,0
61023.7,631.088,-1323.97,0,0
61284,627.416,-1319.34,0,0
61544.3,623.406,-1314.94,0,0
61804.6,620.219,-1309.93,0,0
62065,615.979,-1306.12,0,0
62325.3,611.932,-1302.21,0,0
62585.6,607.013,-1299.24,0,0
62845.9,604.396,-1294.04,0,0
63106.3,599.378,-1291.59,0,0
63366.6,594.216,-1289.3,0,0
63626.9,592.168,-1283.55,0,0
63887.2,588.788,-1279.31,0,0
64147.6,585.257,-1275.46,0,0
64407.9,581.872,-1271.17,0,0
64668.2,578.261,-1267.15,0,0
64928.5,574.488,-1263.67,0,0
65188.9,575.829,-1254.16,0,0
65449.2,567.416,-1255.88,0,0
65709.5,566.962,-1248.57,0,0
65969.8,578.675,-1226.57,0,0
66230.2,558.514,-1242.43,0,0
66490.5,556.01,-1237.27,0,0
66750.8,552.047,-1234.27,0,0
67011.1,548.589,-1230.74,0,0
67271.5,545.932,-1226.49,0,0
67531.8,542.723,-1222.76,0,0
67792.1,539.2,-1219.45,0,0
68052.4,537.24,-1214.71,0,0
68312.8,532.848,-1212.61,0,0
68573.1,530.517,-1207.93,0,0
68833.4,527.864,-1203.61,0,0
69093.7,524.44,-1200.24,0,0
69354.1,522.016,-1196.41,0,0
69614.4,518.695,-1193.01,0,0
69874.7,516.581,-1188.58,0,0
70135,513.814,-1185.2,0,0
70395.4,510.813,-1181.99,0,0
70655.7,506.88,-1179.71,0,0
70916,504.959,-1175.28,0,0
71176.3,501.845,-1172.14,0,0
71436.7,498.978,-1168.59,0,0
71697,497.085,-1164.69,0,0
71957.3,493.705,-1161.91,0,0
72217.6,491.008,-1158.25,0,0
72478,488.245,-1154.88,0,0
72738.3,485.257,-1151.76,0,0
72998.6,482.663,-1148.41,0,0
73258.9,480.604,-1144.59,0,0
73519.3,477.78,-1141.62,0,0
73779.6,475.144,-1138.4,0,0
74039.9,472.249,-1135.69,0,0
74300.225,470.752,-1131.87,0,0
74560.55,469.05,-1128.02,0,0
74820.875,466.861,-1124.65,0,0
75081.2,463.409,-1122.6,0,0
75341.525,459.895,-1120.39,0,0
75601.85,457.079,-1117.64,0,0
75862.175,454.517,-1114.33,0,0
76122.5,452.432,-1110.66,0,0
76382.825,449.437,-1107.91,0,0
76643.15,447.176,-1104.38,0,0
76903.475,444.377,-1101.39,0,0
77163.8,442.119,-1097.88,0,0
77424.125,438.996,-1095.1,0,0
77684.45,437.085,-1091.41,0,0
77944.775,434.748,-1088.04,0,0
78205.1,432.378,-1084.85,0,0
78465.425,430.257,-1081.46,0,0
78725.75,427.535,-1078.63,0,0
78986.075,425.961,-1074.8,0,0
79246.4,422.881,-1072.53,0,0
79506.725,420.626,-1069.46,0,0
79767.05,418.127,-1066.66,0,0
80027.375,416.017,-1063.54,0,0
80287.7,412.969,-1061.26,0,0
80548.025,411.583,-1057.44,0,0
80808.35,409.323,-1054.38,0,0
81068.675,407.497,-1051.07,0,0
81329.0,404.648,-1048.47,0,0
81589.325,402.248,-1045.4,0,0
81849.65,398.757,-1043.38,0,0
82109.975,397.642,-1039.29,0,0
82370.3,395.088,-1036.42,0,0
82630.625,392.979,-1033.16,0,0
82890.95,391.271,-1029.55,0,0
83151.275,388.085,-1027.29,0,0
83411.6,386.524,-1023.55,0,0
83671.925,384.99,-1020.02,0,0
83932.25,382.077,-1017.63,0,0
84192.575,379.567,-1014.88,0,0
84452.9,377.866,-1011.43,0,0
84713.225,375.925,-1008.37,0,0
84973.55,373.088,-1006.07,0,0
85233.875,372.375,-1001.95,0,0
85494.2,370.507,-998.978,0,0
85754.525,368.552,-996.093,0,0
86014.85,367.353,-992.432,0,0
86275.175,365.674,-989.151,0,0
86535.5,363.473,-986.427,0,0
86795.825,360.939,-983.792,0,0
87056.15,358.69,-980.946,0,0
87316.475,356.785,-977.91,0,0
87576.8,355.502,-974.148,0,0
87837.125,352.573,-971.688,0,0
88097.45,351.662,-967.669,0,0
88357.775,349.467,-964.777,0,0
88618.1,348.084,-961.314,0,0
88878.425,346.376,-958.089,0,0
89138.75,344.966,-954.79,0,0
89399.075,343.75,-951.351,0,0
89659.4,341.747,-948.826,0,0
89919.725,340.499,-945.785,0,0
90180,338.545,-943.429,0,0
90440.4,337.559,-940.256,0,0
90700.7,335.804,-937.718,0,0
90961,333.521,-935.859,0,0
91221.3,332.661,-932.595,0,0
91481.7,331.485,-929.933,0,0
91742,330.621,-926.75,0,0
92002.3,328.886,-924.281,0,0
92262.6,328.692,-920.81,0,0
92523,326.575,-918.902,0,0
92783.3,324.483,-916.692,0,0
93043.6,323.269,-913.731,0,0
93303.9,321.192,-911.362,0,0
93564.3,319.754,-908.59,0,0
93824.6,317.793,-906.262,0,0
94084.9,316.077,-903.478,0,0
94345.2,314.981,-900.425,0,0
94605.6,313.213,-897.746,0,0
94865.9,312.177,-894.735,0,0
95126.2,310.568,-892.049,0,0
95386.5,308.804,-889.639,0,0
95646.9,307.678,-886.641,0,0
95907.2,305.823,-884.348,0,0
96167.5,304.288,-881.761,0,0
96427.8,302.872,-879.065,0,0
96688.2,301.519,-876.276,0,0
96948.5,300.142,-873.576,0,0
97208.8,298.811,-870.725,0,0
97469.1,297.799,-867.614,0,0
97729.5,295.494,-865.539,0,0
97989.8,294.677,-862.42,0,0
98250.1,293.394,-859.492,0,0
98510.4,291.693,-856.918,0,0
98770.8,290.538,-853.979,0,0
99031.1,289.098,-851.364,0,0
99291.4,287.851,-848.59,0,0
99551.7,286.225,-846.15,0,0
99812.1,285.349,-843.216,0,0
100072,284.245,-840.532,0,0
100333,282.968,-837.943,0,0
100593,282.351,-835.085,0,0
100853,281.399,-832.454,0,0
101114,280.58,-829.735,0,0
101374,279.935,-827.007,0,0
101634,278.22,-825.057,0,0
101895,277.126,-822.624,0,0
102155,276.415,-819.813,0,0
102415,274.914,-817.729,0,0
102676,274.229,-814.999,0,0
102936,272.815,-812.647,0,0
103196,272.251,-809.678,0,0
103457,270.893,-807.266,0,0
103717,268.61,-805.619,0,0
103977,267.837,-802.82,0,0
104238,266.794,-800.279,0,0
104498,265.67,-797.832,0,0
104758,264.54,-795.373,0,0
105019,262.555,-793.564,0,0
105279,261.639,-790.844,0,0
105539,260.527,-788.183,0,0
105800,258.818,-785.904,0,0
106060,257.767,-783.245,0,0
106320.175,256.121,-781.01,0,0
106580.5,255.252,-778.077,0,0
106840.825,254.05,-775.456,0,0
107101.15,253.104,-772.719,0,0
107361.475,251.805,-770.241,0,0
107621.8,250.511,-767.619,0,0
107882.125,249.669,-764.846,0,0
108142.45,248.468,-762.448,0,0
108402.775,247.582,-759.67,0,0
108663.1,246.398,-757.121,0,0
108923.425,245.563,-754.399,0,0
109183.75,244.602,-751.783,0,0
109444.075,243.613,-749.256,0,0
109704.4,242.557,-746.787,0,0
109964.725,241.489,-744.16,0,0
110225.05,240.263,-741.54,0,0
110485.375,239.238,-738.906,0,0
110745.7,237.918,-736.416,0,0
111006.025,237.074,-733.733,0,0
111266.35,236.242,-730.986,0,0
111526.675,235.515,-728.179,0,0
111787.0,234.434,-725.356,0,0
112047.325,233.59,-722.598,0,0
112307.65,232.392,-720.203,0,0
112567.975,231.462,-717.468,0,0
112828.3,231.134,-714.427,0,0
113088.625,230.258,-711.82,0,0
113348.95,229.473,-709.179,0,0
113609.275,228.873,-706.562,0,0
113869.6,228.14,-703.914,0,0
114129.925,227.484,-701.213,0,0
114390.25,226.896,-698.515,0,0
114650.575,226.094,-696.036,0,0
114910.9,225.788,-693.332,0,0
115171.225,225.05,-690.841,0,0
115431.55,224.111,-688.178,0,0
115691.875,223.365,-685.452,0,0
115952.2,222.978,-682.583,0,0
116212.525,222.311,-679.931,0,0
116472.85,221.642,-677.39,0,0
116733.175,221.051,-674.792,0,0
116993.5,220.77,-671.948,0,0
117253.825,220.464,-669.114,0,0
117514.15,219.904,-666.491,0,0
117774.475,219.296,-664.068,0,0
118034.8,218.912,-661.506,0,0
118295.125,218.546,-658.976,0,0
118555.45,218.492,-656.278,0,0
118815.775,218.131,-653.868,0,0
119076.1,217.793,-651.357,0,0
119336.425,217.535,-648.84,0,0
119596.75,216.927,-646.663,0,0
119857.075,216.84,-644.319,0,0
120117.4,216.485,-641.905,0,0
120377.725,215.847,-639.777,0,0
120638.05,215.85,-637.108,0,0
120898.375,215.024,-635.04,0,0
121158.7,214.52,-632.81,0,0
121419.025,214.35,-630.34,0,0
121679.35,213.928,-628.063,0,0
121939.675,213.344,-625.813,0,0
122200.0,212.723,-623.607,0,0
122460,212.09,-621.42,0,0
122721,211.837,-618.828,0,0
122981,211.067,-616.635,0,0
123241,210.383,-614.216,0,0
123502,209.374,-611.871,0,0
123762,208.587,-609.291,0,0
124022,208.293,-606.464,0,0
124283,207.824,-603.792,0,0
124543,207.547,-601.102,0,0
124803,207.154,-598.536,0,0
125064,206.801,-595.983,0,0
125324,206.497,-593.514,0,0
125584,206.035,-591.29,0,0
125845,205.869,-588.894,0,0
126105,205.659,-586.537,0,0
126365,205.406,-584.182,0,0
126626,204.994,-581.955,0,0
126886,204.865,-579.442,0,0
127146,204.347,-577.166,0,0
127406,204.182,-574.714,0,0
127667,203.605,-572.594,0,0
127927,203.168,-570.318,0,0
128187,202.845,-567.924,0,0
128448,202.459,-565.627,0,0
128708,202.226,-563.087,0,0
128968,201.687,-560.736,0,0
129229,201.315,-558.314,0,0
129489,200.66,-556.075,0,0
129749,200.106,-553.732,0,0
130010,199.462,-551.334,0,0
130270,199.067,-548.748,0,0
130530,198.491,-546.238,0,0
130791,198.001,-543.651,0,0
131051,197.494,-541.035,0,0
131311,197.028,-538.33,0,0
131572,196.166,-535.858,0,0
131832,195.739,-532.918,0,0
132092,195.138,-530.086,0,0
132353,194.892,-527.082,0,0
132613,194.653,-524.167,0,0
132873,194.356,-521.278,0,0
133134,193.988,-518.514,0,0
133394,193.894,-515.559,0,0
133654,193.727,-512.651,0,0
133915,193.668,-509.699,0,0
134175,193.661,-506.721,0,0
134435,193.409,-503.933,0,0
134696,193.5,-500.935,0,0
134956,193.436,-498.033,0,0
135216,193.518,-495.005,0,0
135477,193.277,-492.206,0,0
135737,193.459,-488.965,0,0
135997,193.638,-485.9,0,0
136258,194.202,-482.629,0,0
136518,194.44,-479.739,0,0
136778,194.883,-476.795,0,0
137039,195.359,-473.83,0,0
137299,195.704,-471.025,0,0
137559,196.102,-468.283,0,0
137819,196.518,-465.484,0,0
138080,197.037,-462.656,0,0
138340.125,197.565,-459.911,0,0
138600.45,198.129,-457.231,0,0
138860.775,198.716,-454.494,0,0
139121.1,199.185,-451.954,0,0
139381.425,199.747,-449.252,0,0
139641.75,200.126,-446.7,0,0
139902.075,200.616,-443.939,0,0
140162.4,201.206,-441.222,0,0
140422.725,201.942,-438.528,0,0
140683.05,202.337,-436.01,0,0
140943.375,203.04,-433.313,0,0
141203.7,203.833,-430.388,0,0
141464.025,203.922,-428.181,0,0
141724.35,204.243,-425.7,0,0
141984.675,204.966,-422.723,0,0
142245.0,205.364,-420.29,0,0
142505.325,205.745,-417.884,0,0
142765.65,206.302,-415.273,0,0
143025.975,207.294,-412.021,0,0
143286.3,207.557,-409.775,0,0
143546.625,208.677,-406.326,0,0
143806.95,208.436,-404.665,0,0
144067.275,209.052,-401.996,0,0
144327.6,209.4,-399.479,0,0
144587.925,209.889,-396.772,0,0
144848.25,210.273,-394.081,0,0
145108.575,210.825,-391.212,0,0
145368.9,211.376,-388.331,0,0
145629.225,211.955,-385.557,0,0
145889.55,212.534,-382.631,0,0
146149.875,213.206,-379.693,0,0
146410.2,213.823,-376.797,0,0
146670.525,214.308,-373.838,0,0
146930.85,214.959,-370.816,0,0
147191.175,215.76,-367.566,0,0
147451.5,216.466,-364.605,0,0
147711.825,217.378,-361.514,0,0
147972.15,218.314,-358.384,0,0
148232.475,219.233,-355.383,0,0
148492.8,220.168,-352.471,0,0
148753.125,221.07,-349.406,0,0
149013.45,221.966,-346.264,0,0
149273.775,222.829,-343.157,0,0
149534.1,223.693,-339.885,0,0
149794.425,224.628,-336.461,0,0
150054.75,225.631,-333.051,0,0
150315.075,226.796,-329.414,0,0
150575.4,228.032,-325.878,0,0
150835.725,229.372,-322.288,0,0
151096.05,230.918,-318.592,0,0
151356.375,232.652,-314.892,0,0
151616.7,234.476,-311.32,0,0
151877.025,236.335,-307.848,0,0
152137.35,238.39,-304.328,0,0
152397.675,240.526,-300.918,0,0
152658.0,242.494,-297.586,0,0
152918.325,244.65,-294.213,0,0
153178.65,246.868,-290.745,0,0
153438.975,249.32,-287.25,0,0
153699.3,251.786,-284.014,0,0
153959.625,254.253,-280.839,0,0
154219.95,256.836,-277.54,0,0
154480,259.493,-274.215,0,0
154741,262.315,-270.999,0,0
155001,265.324,-267.668,0,0
155261,268.446,-264.594,0,0
155522,271.68,-261.679,0,0
155782,275.066,-258.862,0,0
156042,278.421,-256.323,0,0
156303,281.812,-254.025,0,0
156563,285.135,-251.733,0,0
156823,288.428,-249.726,0,0
157084,291.528,-247.719,0,0
157344,294.407,-245.688,0,0
157604,297.309,-243.569,0,0
157864,300.212,-241.572,0,0
158125,303.104,-239.448,0,0
158385,305.948,-237.295,0,0
158645,308.899,-234.992,0,0
158906,311.856,-232.616,0,0
159166,315.078,-230.271,0,0
159426,318.319,-227.807,0,0
159687,321.713,-225.569,0,0
159947,325.396,-223.405,0,0
160207,329.138,-221.387,0,0
160468,332.873,-219.341,0,0
160728,336.662,-217.444,0,0
160988,340.49,-215.61,0,0
161249,344.397,-213.731,0,0
161509,348.506,-212.085,0,0
161769,352.603,-210.798,0,0
162030,356.751,-209.712,0,0
162290,360.82,-208.531,0,0
162550,364.927,-207.752,0,0
162811,368.964,-206.835,0,0
163071,373.026,-206.036,0,0
163331,376.986,-205.528,0,0
163592,380.911,-205.171,0,0
163852,384.88,-205.054,0,0
164112,388.527,-205.028,0,0
164373,392.021,-204.996,0,0
164633,395.376,-204.902,0,0
164893,398.561,-204.81,0,0
165154,401.769,-204.708,0,0
165414,405.024,-204.536,0,0
165674,408.206,-204.439,0,0
165935,411.325,-204.088,0,0
166195,414.555,-203.904,0,0
166455,417.853,-203.782,0,0
166716,421.016,-203.731,0,0
166976,424.038,-203.726,0,0
167236,427.095,-203.671,0,0
167497,430.192,-203.306,0,0
167757,433.525,-203.296,0,0
168017,436.748,-203.496,0,0
168277,439.71,-203.551,0,0
168538,442.58,-203.51,0,0
168798,445.649,-203.538,0,0
169058,448.787,-203.548,0,0
169319,451.859,-203.614,0,0
169579,455.005,-203.837,0,0
169839,458.065,-204.189,0,0
170100,460.873,-204.119,0,0
170360.075,463.89,-204.023,0,0
170620.4,467.165,-204.099,0,0
170880.725,470.327,-204.174,0,0
171141.05,473.809,-204.7,0,0
171401.375,476.896,-205.173,0,0
171661.7,480.019,-205.931,0,0
171922.025,482.929,-206.549,0,0
172182.35,485.762,-207.179,0,0
172442.675,488.777,-207.95,0,0
172703.0,491.548,-208.587,0,0
172963.325,494.191,-209.391,0,0
173223.65,496.733,-210.027,0,0
173483.975,499.314,-210.989,0,0
173744.3,501.675,-211.83,0,0
174004.625,503.956,-212.631,0,0
174264.95,506.157,-213.162,0,0
174525.275,508.424,-213.819,0,0
174785.6,510.734,-214.293,0,0
175045.925,512.828,-214.58,0,0
175306.25,514.771,-214.888,0,0
175566.575,516.969,-214.952,0,0
175826.9,519.297,-215.043,0,0
176087.225,521.825,-215.336,0,0
176347.55,524.086,-215.426,0,0
176607.875,526.665,-215.705,0,0
176868.2,529.379,-216.116,0,0
177128.525,532.091,-216.421,0,0
177388.85,534.759,-216.892,0,0
177649.175,537.326,-217.169,0,0
177909.5,539.805,-217.439,0,0
178169.825,542.485,-218.106,0,0
178430.15,545.164,-218.829,0,0
178690.475,547.422,-219.52,0,0
178950.8,549.694,-220.195,0,0
179211.125,551.938,-220.841,0,0
179471.45,554.132,-221.37,0,0
179731.775,556.104,-221.617,0,0
179992.1,558.005,-221.608,0,0
180252.425,559.928,-221.687,0,0
180512.75,561.994,-221.579,0,0
180773.075,563.8,-221.049,0,0
181033.4,566.304,-220.904,0,0
181293.725,568.623,-220.242,0,0
181554.05,571.236,-219.584,0,0
181814.375,573.944,-218.717,0,0
182074.7,576.819,-217.862,0,0
182335.025,580.016,-217.081,0,0
182595.35,583.266,-216.116,0,0
182855.675,586.908,-215.302,0,0
183116.0,590.755,-214.697,0,0
183376.325,594.765,-214.089,0,0
183636.65,598.825,-213.585,0,0
183896.975,603.176,-213.304,0,0
184157.3,607.44,-213.117,0,0
184417.625,611.895,-213.289,0,0
184677.95,616.337,-213.457,0,0
184938.275,620.783,-213.754,0,0
185198.6,625.605,-214.407,0,0
185458.925,630.025,-214.838,0,0
185719.25,634.552,-215.474,0,0
185979.575,639.148,-216.095,0,0
186239.9,643.778,-216.824,0,0
186500,648.76,-217.817,0,0
186761,653.362,-218.644,0,0
187021,657.879,-219.46,0,0
187281,662.919,-220.643,0,0
187542,667.655,-221.585,0,0
187802,672.496,-222.604,0,0
188062,677.507,-223.805,0,0
188322,682.734,-224.953,0,0
188583,687.601,-225.724,0,0
188843,693.138,-227.023,0,0
189103,699.032,-228.67,0,0
189364,704.702,-230.199,0,0
189624,710.465,-231.786,0,0
189884,716.881,-234.066,0,0
190145,722.779,-236.01,0,0
190405,728.664,-237.864,0,0
190665,735.307,-240.425,0,0
190926,741.498,-242.63,0,0
191186,747.879,-245.18,0,0
191446,754.512,-248.228,0,0
191707,762.641,-252.764,0,0
191967,769.73,-256.791,0,0
192227,776.833,-261.117,0,0
192488,784.189,-266.125,0,0
192748,791.176,-271.204,0,0
193008,797.753,-276.284,0,0
193269,804.474,-281.819,0,0
193529,811.384,-287.99,0,0
193789,817.947,-294.343,0,0
194050,824.405,-301.117,0,0
194310,830.226,-307.873,0,0
194570,836.444,-315.454,0,0
194831,842.345,-323.135,0,0
195091,848.004,-330.993,0,0
195351,853.818,-339.615,0,0
195612,859.089,-348.181,0,0
195872,863.354,-356.082,0,0
196132,868.29,-365.319,0,0
196393,873.311,-375.409,0,0
196653,876.885,-384.545,0,0
196913,880.691,-394.66,0,0
197174,883.662,-404.436,0,0
197434,886.743,-414.818,0,0
197694,889.582,-425.589,0,0
197955,891.267,-435.43,0,0
198215,893.147,-446.025,0,0
198475,894.295,-456.252,0,0
198735,895.026,-466.231,0,0
198996,895.907,-477.213,0,0
199256,896.559,-488.039,0,0
199516,896.703,-498.929,0,0
199777,896.111,-509.457,0,0
200037,895.289,-519.587,0,0
200297,894.179,-529.725,0,0
200558,893.205,-540.494,0,0
200818,891.113,-550.315,0,0
201078,889.557,-561.346,0,0
201339,886.743,-570.742,0,0
201599,884.324,-581.458,0,0
201859,881.29,-591.358,0,0
202120,878.185,-601.809,0,0
202380.025,874.531,-611.128,0,0
202640.35,870.872,-621.578,0,0
202900.675,866.783,-631.657,0,0
203161.0,862.065,-640.554,0,0
203421.325,857.188,-649.194,0,0
203681.65,852.348,-658.864,0,0
203941.975,846.933,-668.209,0,0
204202.3,841.315,-676.792,0,0
204462.625,835.345,-685.079,0,0
204722.95,829.317,-693.567,0,0
204983.275,822.803,-702.08,0,0
205243.6,815.819,-709.382,0,0
205503.925,809.105,-717.709,0,0
205764.25,801.769,-724.555,0,0
206024.575,794.597,-731.29,0,0
206284.9,787.092,-738.992,0,0
206545.225,779.368,-745.124,0,0
206805.55,771.603,-750.809,0,0
207065.875,763.711,-755.978,0,0
207326.2,755.47,-762.042,0,0
207586.525,747.45,-766.65,0,0
207846.85,739.31,-770.651,0,0
208107.175,731.081,-775.692,0,0
208367.5,723.065,-778.975,0,0
208627.825,714.818,-783.277,0,0
208888.15,706.707,-786.483,0,0
209148.475,698.678,-789.522,0,0
209408.8,690.652,-792.556,0,0
209669.125,682.391,-796.301,0,0
209929.45,674.736,-797.668,0,0
210189.775,666.529,-800.041,0,0
210450.1,658.788,-801.67,0,0
210710.425,650.882,-803.321,0,0
210970.75,643.192,-804.893,0,0
211231.075,635.521,-806.082,0,0
211491.4,628.049,-807.153,0,0
211751.725,620.595,-808.081,0,0
212012.05,613.204,-809.082,0,0
212272.375,606.078,-809.407,0,0
212532.7,599.149,-809.07,0,0
212793.025,592.068,-809.906,0,0
213053.35,585.192,-810.152,0,0
213313.675,578.45,-809.956,0,0
213574.0,571.674,-809.885,0,0
213834.325,564.892,-809.867,0,0
214094.65,558.283,-809.456,0,0
214354.975,552.068,-808.318,0,0
214615.3,545.675,-807.874,0,0
214875.625,539.405,-807.421,0,0
215135.95,533.359,-806.348,0,0
215396.275,527.513,-804.836,0,0
215656.6,521.462,-804.026,0,0
215916.925,515.704,-802.51,0,0
216177.25,509.613,-802.259,0,0
216437.575,504.183,-800.289,0,0
216697.9,498.546,-798.756,0,0
216958.225,493.406,-796.929,0,0
217218.55,487.973,-795.231,0,0
217478.875,482.682,-793.727,0,0
217739.2,477.408,-791.876,0,0
217999.525,472.272,-790.264,0,0
218259.85,467.618,-787.833,0,0
218520,463.116,-785.459,0,0
218780,458.283,-783.483,0,0
219041,453.474,-781.305,0,0
219301,448.635,-779.62,0,0
219561,444.47,-776.795,0,0
219822,440.213,-774.262,0,0
220082,435.771,-771.905,0,0
220342,431.767,-769.636,0,0
220603,427.497,-767.03,0,0
220863,423.877,-764.102,0,0
221123,419.962,-761.638,0,0
221384,416.311,-759.11,0,0
221644,412.625,-756.348,0,0
221904,409.23,-753.466,0,0
222165,405.925,-750.652,0,0
222425,402.477,-748.013,0,0
222685,399.771,-744.764,0,0
222946,396.523,-742.393,0,0
223206,393.791,-739.473,0,0
223466,391.397,-736.115,0,0
223727,388.583,-733.613,0,0
223987,386.31,-730.535,0,0
224247,383.462,-727.777,0,0
224508,381.28,-725.125,0,0
224768,379.019,-722.258,0,0
225028,376.923,-719.486,0,0
225289,374.938,-716.535,0,0
225549,372.986,-713.863,0,0
225809,371.203,-711.167,0,0
226070,369.465,-708.445,0,0
226330,367.969,-705.411,0,0
226590,366.286,-702.908,0,0
226851,364.854,-700.329,0,0
227111,363.398,-697.875,0,0
227371,362.193,-695.089,0,0
227632,361.038,-692.464,0,0
227892,359.771,-690.147,0,0
228152,358.486,-687.9,0,0
228413,357.52,-685.305,0,0
228673,356.589,-682.897,0,0
228933,355.812,-680.43,0,0
229193,354.681,-678.355,0,0
229454,353.881,-676.114,0,0
229714,353.185,-673.876,0,0
229974,352.507,-671.834,0,0
230235,351.927,-669.535,0,0
230495,351.171,-667.475,0,0
230755,350.823,-665.201,0,0
231016,350.368,-662.968,0,0
231276,349.626,-661.307,0,0
231536,349.34,-659.139,0,0
231797,348.771,-657.583,0,0
232057,348.444,-655.684,0,0
232317,348.175,-653.76,0,0
232578,348.062,-651.819,0,0
232838,347.793,-650.095,0,0
233098,347.672,-648.314,0,0
233359,347.374,-646.87,0,0
233619,347.611,-644.752,0,0
233879,347.326,-643.503,0,0
234140,347.229,-641.994,0,0
234400,347.447,-640.254,0,0
234660.3,347.523,-638.969,0,0
234920.625,347.384,-637.636,0,0
235180.95,347.716,-636.288,0,0
235441.275,347.837,-634.708,0,0
235701.6,348.284,-633.531,0,0
235961.925,348.462,-632.318,0,0
236222.25,348.933,-630.901,0,0
236482.575,349.359,-629.774,0,0
236742.9,349.7,-628.745,0,0
237003.225,350.156,-627.759,0,0
237263.55,350.442,-627.108,0,0
237523.875,350.821,-626.381,0,0
237784.2,351.347,-625.587,0,0
238044.525,351.951,-624.755,0,0
238304.85,352.487,-624.137,0,0
238565.175,352.963,-623.724,0,0
238825.5,353.509,-623.182,0,0
239085.825,354.009,-622.757,0,0
239346.15,354.485,-622.558,0,0
239606.475,354.717,-622.609,0,0
239866.8,355.441,-622.134,0,0
240127.125,355.762,-622.165,0,0
240387.45,356.215,-622.066,0,0
240647.775,356.432,-622.274,0,0
240908.1,356.89,-622.136,0,0
241168.425,356.963,-622.621,0,0
241428.75,357.284,-622.677,0,0
241689.075,357.497,-622.833,0,0
241949.4,357.64,-623.172,0,0
242209.725,357.761,-623.479,0,0
242470.05,357.676,-624.082,0,0
242730.375,357.682,-624.471,0,0
242990.7,357.546,-625.099,0,0
243251.025,357.47,-625.4,0,0
243511.35,357.092,-626.077,0,0
243771.675,356.694,-626.728,0,0
244032.0,356.497,-626.917,0,0
244292.325,356.055,-627.505,0,0
244552.65,355.47,-628.141,0,0
244812.975,354.86,-628.558,0,0
245073.3,354.172,-629.064,0,0
245333.625,353.473,-629.652,0,0
245593.95,352.698,-630.07,0,0
245854.275,351.967,-630.268,0,0
246114.6,351.158,-630.491,0,0
246374.925,350.192,-630.782,0,0
246635.25,349.325,-630.765,0,0
246895.575,348.167,-630.97,0,0
247155.9,347.27,-630.875,0,0
247416.225,346.184,-630.92,0,0
247676.55,345.109,-630.896,0,0
247936.875,344.12,-630.511,0,0
248197.2,343.113,-629.985,0,0
248457.525,342.419,-629.185,0,0
248717.85,341.28,-628.862,0,0
248978.175,340.596,-627.941,0,0
249238.5,339.979,-626.907,0,0
249498.825,339.555,-625.962,0,0
249759.15,339.47,-624.877,0,0
250019.475,339.892,-623.411,0,0
250279.8,340.565,-622.348,0,0
250540,341.553,-621.74,0,0
250800,342.683,-621.015,0,0
251061,343.963,-620.74,0,0
251321,345.584,-620.643,0,0
251581,346.998,-621.373,0,0
251842,348.828,-621.824,0,0
252102,350.36,-623.062,0,0
252362,351.765,-624.6,0,0
252623,352.914,-626.658,0,0
252883,353.917,-628.699,0,0
253143,354.8,-630.906,0,0
253404,355.228,-633.38,0,0
253664,355.296,-636.002,0,0
253924,355.275,-638.668,0,0
254185,354.871,-641.337,0,0
254445,354.204,-644.165,0,0
254705,353.43,-646.585,0,0
254966,352.374,-649.138,0,0
255226,350.967,-651.977,0,0
255486,349.353,-654.616,0,0
255747,347.709,-657.037,0,0
256007,345.696,-659.587,0,0
256267,343.49,-661.731,0,0
256528,341.412,-663.527,0,0
256788,338.673,-665.859,0,0
257048,336.278,-667.56,0,0
257309,333.738,-669.022,0,0
257569,330.948,-670.657,0,0
257829,328.143,-672.113,0,0
258090,325.215,-673.286,0,0
258350,322.287,-674.334,0,0
258610,319.622,-674.953,0,0
258871,316.548,-675.893,0,0
259131,313.641,-676.607,0,0
259391,310.552,-677.204,0,0
259651,307.808,-677.254,0,0
259912,304.996,-677.589,0,0
260172,302.187,-677.594,0,0
260432,299.305,-677.749,0,0
260693,296.255,-677.978,0,0
260953,293.58,-677.871,0,0
261213,291.016,-677.426,0,0
261474,288.197,-677.371,0,0
261734,285.548,-677.069,0,0
261994,282.798,-676.866,0,0
262255,280.396,-676.271,0,0
262515,277.823,-675.817,0,0
262775,275.532,-675.062,0,0
263036,273.275,-674.313,0,0
263296,271.017,-673.603,0,0
263556,268.719,-672.867,0,0
263817,266.178,-672.33,0,0
264077,264.212,-671.406,0,0
264337,261.992,-670.662,0,0
264598,259.766,-669.885,0,0
264858,257.704,-668.789,0,0
265118,256.033,-667.684,0,0
265379,253.998,-666.934,0,0
265639,252.04,-666.061,0,0
265899,250.05,-665.06,0,0
266160,248.502,-663.934,0,0
266420,246.508,-663.209,0,0
266680.25,244.924,-662.228,0,0
266940.575,242.977,-661.425,0,0
267200.9,241.409,-660.436,0,0
267461.225,239.768,-659.485,0,0
267721.55,238.08,-658.63,0,0
267981.875,236.578,-657.575,0,0
268242.2,234.801,-656.86,0,0
268502.525,233.247,-656.089,0,0
268762.85,231.638,-655.106,0,0
269023.175,230.339,-654.178,0,0
269283.5,228.632,-653.491,0,0
269543.825,227.171,-652.666,0,0
269804.15,225.525,-651.949,0,0
270064.475,223.911,-651.057,0,0
270324.8,222.702,-650.165,0,0
270585.125,220.709,-649.528,0,0
270845.45,219.459,-648.602,0,0
271105.775,217.592,-647.876,0,0
271366.1,216.305,-646.76,0,0
271626.425,214.641,-645.875,0,0
271886.75,212.905,-645.2,0,0
272147.075,211.434,-644.036,0,0
272407.4,209.663,-643.288,0,0
272667.725,207.95,-642.332,0,0
272928.05,206.631,-641.166,0,0
273188.375,204.87,-640.226,0,0
273448.7,203.65,-638.972,0,0
273709.025,202.06,-637.946,0,0
273969.35,200.289,-636.941,0,0
274229.675,198.769,-635.78,0,0
274490.0,197.373,-634.595,0,0
274750.325,195.928,-633.422,0,0
275010.65,194.391,-632.183,0,0
275270.975,192.863,-631.019,0,0
275531.3,191.48,-629.804,0,0
275791.625,190.035,-628.479,0,0
276051.95,188.638,-627.191,0,0
276312.275,187.14,-625.905,0,0
276572.6,185.898,-624.475,0,0
276832.925,184.448,-623.164,0,0
277093.25,183.184,-621.732,0,0
277353.575,181.911,-620.273,0,0
277613.9,180.953,-618.653,0,0
277874.225,179.581,-617.209,0,0
278134.55,178.207,-615.832,0,0
278394.875,177.203,-614.211,0,0
278655.2,176.252,-612.563,0,0
278915.525,175.105,-611.08,0,0
279175.85,174.126,-609.495,0,0
279436.175,173.084,-607.922,0,0
279696.5,172.283,-606.316,0,0
279956.825,171.533,-604.693,0,0
280217.15,170.696,-603.191,0,0
280477.475,170.19,-601.577,0,0
280737.8,169.549,-599.985,0,0
280998.125,169.048,-598.466,0,0
281258.45,168.708,-596.935,0,0
281518.775,168.13,-595.557,0,0
281779.1,167.566,-594.249,0,0
282039.425,167.262,-592.859,0,0
282299.75,166.941,-591.497,0,0
282560,166.454,-590.375,0,0
282820,166.169,-589.114,0,0
283081,165.781,-587.928,0,0
283341,165.384,-586.812,0,0
283601,165.035,-585.667,0,0
283862,164.625,-584.643,0,0
284122,164.178,-583.607,0,0
284382,163.689,-582.614,0,0
284643,163.366,-581.551,0,0
284903,163.28,-580.456,0,0
285163,162.733,-579.505,0,0
285424,162.631,-578.381,0,0
285684,161.987,-577.519,0,0
285944,161.557,-576.617,0,0
286205,161.443,-575.503,0,0
286465,160.986,-574.626,0,0
286725,160.654,-573.692,0,0
286986,160.161,-572.819,0,0
287246,159.875,-571.924,0,0
287506,159.649,-570.976,0,0
287767,159.387,-570.095,0,0
288027,159.083,-569.251,0,0
288287,158.878,-568.371,0,0
288548,158.521,-567.624,0,0
288808,158.185,-566.89,0,0
289068,157.692,-566.248,0,0
289329,157.541,-565.491,0,0
289589,157.128,-564.858,0,0
289849,156.782,-564.182,0,0
290109,156.315,-563.539,0,0
290370,155.931,-562.92,0,0
290630,155.428,-562.349,0,0
290890,155.028,-561.642,0,0
291151,154.46,-561.065,0,0
291411,153.865,-560.426,0,0
291671,153.216,-559.809,0,0
291932,152.601,-559.126,0,0
292192,152.015,-558.451,0,0
292452,151.523,-557.657,0,0
292713,150.898,-556.942,0,0
292973,150.542,-556.052,0,0
293233,149.796,-555.376,0,0
293494,149.147,-554.61,0,0
293754,148.481,-553.862,0,0
294014,147.699,-553.158,0,0
294275,146.922,-552.45,0,0
294535,146.267,-551.611,0,0
294795,145.792,-550.659,0,0
295056,145.211,-549.784,0,0
295316,144.672,-548.868,0,0
295576,144.043,-547.945,0,0
295837,143.66,-546.926,0,0
296097,142.923,-546.052,0,0
296357,142.415,-545.077,0,0
296618,142.02,-544.035,0,0
296878,141.468,-543.052,0,0
297138,141.01,-542.073,0,0
297399,140.668,-541.061,0,0
297659,140.465,-539.976,0,0
297919,139.982,-539.082,0,0
298180,139.809,-538.064,0,0
298440,139.506,-537.133,0,0
298700.2,139.302,-536.328,0,0
298960.525,139.28,-535.355,0,0
299220.85,139.003,-534.466,0,0
299481.175,138.835,-533.729,0,0
299741.5,138.919,-532.899,0,0
300001.825,138.795,-532.233,0,0
300262.15,138.562,-531.533,0,0
300522.475,138.298,-531.049,0,0
300782.8,138.346,-530.192,0,0
301043.125,138.181,-529.671,0,0
301303.45,137.865,-529.126,0,0
301563.775,137.529,-528.646,0,0
301824.1,137.362,-528.061,0,0
302084.425,137.033,-527.619,0,0
302344.75,136.78,-527.11,0,0
302605.075,136.41,-526.61,0,0
302865.4,136.113,-526.032,0,0
303125.725,135.75,-525.54,0,0
303386.05,135.371,-525.083,0,0
303646.375,134.964,-524.554,0,0
303906.7,134.77,-523.879,0,0
304167.025,134.229,-523.316,0,0
304427.35,133.753,-522.857,0,0
304687.675,133.353,-522.329,0,0
304948.0,132.772,-521.728,0,0
305208.325,132.4,-521.074,0,0
305468.65,131.977,-520.473,0,0
305728.975,131.528,-519.89,0,0
305989.3,131.088,-519.237,0,0
306249.625,130.427,-518.6,0,0
306509.95,130.205,-517.876,0,0
306770.275,129.695,-517.29,0,0
307030.6,129.217,-516.698,0,0
307290.925,128.835,-516.024,0,0
307551.25,128.427,-515.296,0,0
307811.575,127.925,-514.627,0,0
308071.9,127.717,-513.952,0,0
308332.225,127.115,-513.32,0,0
308592.55,126.673,-512.626,0,0
308852.875,126.239,-512.047,0,0
309113.2,125.804,-511.257,0,0
309373.525,125.428,-510.628,0,0
309633.85,125.238,-509.769,0,0
309894.175,124.717,-509.198,0,0
310154.5,124.271,-508.491,0,0
310414.825,123.837,-507.839,0,0
310675.15,123.423,-507.193,0,0
310935.475,122.956,-506.566,0,0
311195.8,122.604,-505.838,0,0
311456.125,122.399,-505.065,0,0
311716.45,122.018,-504.384,0,0
311976.775,121.685,-503.645,0,0
312237.1,121.258,-502.962,0,0
312497.425,120.764,-502.387,0,0
312757.75,120.405,-501.684,0,0
313018.075,120,-501,0,0
313278.4,119.776,-500.268,0,0
313538.725,119.352,-499.597,0,0
313799.05,119.037,-498.881,0,0
314059.375,118.672,-498.107,0,0
314319.7,118.441,-497.407,0,0
314580,118.012,-496.844,0,0
314840,117.701,-496.024,0,0
315101,117.36,-495.354,0,0
315361,116.938,-494.694,0,0
315621,116.662,-494.02,0,0
315882,116.428,-493.306,0,0
316142,116.176,-492.642,0,0
316402,115.963,-491.892,0,0
316663,115.658,-491.19,0,0
316923,115.402,-490.499,0,0
317183,115.108,-489.842,0,0
317444,114.805,-489.226,0,0
317704,114.635,-488.51,0,0
317964,114.209,-487.921,0,0
318225,114.035,-487.149,0,0
318485,113.871,-486.556,0,0
318745,113.638,-485.841,0,0
319006,113.279,-485.248,0,0
319266,112.982,-484.619,0,0
319526,112.687,-483.976,0,0
319787,112.541,-483.357,0,0
320047,112.241,-482.709,0,0
320307,112.107,-482.074,0,0
320567,111.666,-481.517,0,0
320828,111.513,-480.869,0,0
321088,111.375,-480.279,0,0
321348,110.986,-479.685,0,0
321609,110.902,-479.078,0,0
321869,110.665,-478.47,0,0
322129,110.418,-477.839,0,0
322390,110.117,-477.285,0,0
322650,109.903,-476.725,0,0
322910,109.521,-476.215,0,0
323171,109.295,-475.627,0,0
323431,108.979,-475.104,0,0
323691,108.857,-474.462,0,0
323952,108.634,-473.847,0,0
324212,108.546,-473.245,0,0
324472,108.215,-472.672,0,0
324733,107.813,-472.141,0,0
324993,107.482,-471.641,0,0
325253,107.283,-470.967,0,0
325514,106.938,-470.472,0,0
325774,106.539,-469.92,0,0
326034,106.154,-469.357,0,0
326295,105.886,-468.735,0,0
326555,105.536,-468.205,0,0
326815,105.393,-467.519,0,0
327076,105.047,-466.904,0,0
327336,104.754,-466.344,0,0
327596,104.471,-465.693,0,0
327857,104.085,-465.179,0,0
328117,103.842,-464.491,0,0
328377,103.545,-463.844,0,0
328638,103.293,-463.232,0,0
328898,102.891,-462.697,0,0
329158,102.723,-461.96,0,0
329419,102.558,-461.267,0,0
329679,102.187,-460.652,0,0
329939,101.956,-460.017,0,0
330200,101.808,-459.363,0,0
330460,101.488,-458.762,0,0
330720.15,101.228,-458.16,0,0
330980.475,101.148,-457.45,0,0
331240.8,100.825,-456.861,0,0
331501.125,100.685,-456.16,0,0
331761.45,100.319,-455.57,0,0
332021.775,100,-454.971,0,0
332282.1,99.9121,-454.335,0,0
332542.425,99.683,-453.644,0,0
332802.75,99.4332,-453.041,0,0
333063.075,99.2724,-452.369,0,0
333323.4,98.9506,-451.765,0,0
333583.725,98.8125,-451.138,0,0
333844.05,98.6471,-450.521,0,0
334104.375,98.4956,-449.876,0,0
334364.7,98.2428,-449.243,0,0
334625.025,97.9596,-448.666,0,0
334885.35,97.7975,-447.987,0,0
335145.675,97.6237,-447.431,0,0
335406.0,97.4752,-446.835,0,0
335666.325,97.1685,-446.187,0,0
335926.65,96.96,-445.584,0,0
336186.975,96.8947,-444.966,0,0
336447.3,96.6637,-444.358,0,0
336707.625,96.4072,-443.782,0,0
336967.95,96.2397,-443.163,0,0
337228.275,95.8382,-442.682,0,0
337488.6,95.7336,-441.945,0,0
337748.925,95.4905,-441.415,0,0
338009.25,95.4006,-440.792,0,0
338269.575,95.222,-440.136,0,0
338529.9,95.1112,-439.5,0,0
338790.225,94.9086,-438.955,0,0
339050.55,94.5625,-438.38,0,0
339310.875,94.4251,-437.857,0,0
339571.2,94.1814,-437.218,0,0
339831.525,94.1081,-436.619,0,0
340091.85,93.944,-435.954,0,0
340352.175,93.6354,-435.507,0,0
340612.5,93.574,-434.851,0,0
340872.825,93.3786,-434.276,0,0
341133.15,93.2799,-433.669,0,0
341393.475,93.2167,-433.075,0,0
341653.8,93.0049,-432.499,0,0
341914.125,92.896,-431.884,0,0
342174.45,92.7057,-431.347,0,0
342434.775,92.5723,-430.743,0,0
342695.1,92.3875,-430.167,0,0
342955.425,92.2916,-429.58,0,0
343215.75,91.9334,-429.149,0,0
343476.075,91.9019,-428.516,0,0
343736.4,91.6137,-427.947,0,0
343996.725,91.2416,-427.464,0,0
344257.05,91.3291,-426.882,0,0
344517.375,91.0842,-426.352,0,0
344777.7,91.1319,-425.776,0,0
345038.025,91.0777,-425.188,0,0
345298.35,90.7604,-424.68,0,0
345558.675,90.6615,-424.12,0,0
345819.0,90.5357,-423.633,0,0
346079.325,90.48,-422.982,0,0
346339.65,90.1823,-422.524,0,0
346599.975,90.0159,-421.992,0,0
346860,89.8886,-421.476,0,0
347121,89.5975,-420.986,0,0
347381,89.5481,-420.457,0,0
347641,89.3355,-419.895,0,0
347902,89.0359,-419.446,0,0
348162,89.0217,-418.878,0,0
348422,88.9016,-418.31,0,0
348683,88.7083,-417.789,0,0
348943,88.5514,-417.248,0,0
349203,88.3325,-416.744,0,0
349464,88.121,-416.193,0,0
349724,88.1061,-415.613,0,0
349984,87.8596,-415.092,0,0
350245,87.7275,-414.563,0,0
350505,87.4982,-414.071,0,0
350765,87.433,-413.477,0,0
351025,87.0869,-413.02,0,0
351286,87.0544,-412.418,0,0
351546,86.8727,-411.821,0,0
351806,86.6763,-411.3,0,0
352067,86.5095,-410.811,0,0
352327,86.275,-410.252,0,0
352587,86.2591,-409.661,0,0
352848,85.9411,-409.172,0,0
353108,85.7589,-408.643,0,0
353368,85.5764,-408.072,0,0
353629,85.4473,-407.54,0,0
353889,85.3044,-406.908,0,0
354149,85.1377,-406.412,0,0
354410,85.059,-405.84,0,0
354670,84.8601,-405.289,0,0
354930,84.6669,-404.712,0,0
355191,84.5758,-404.173,0,0
355451,84.2688,-403.701,0,0
355711,84.1506,-403.089,0,0
355972,84.1505,-402.536,0,0
356232,84.0315,-401.923,0,0
356492,83.8219,-401.421,0,0
356753,83.7767,-400.788,0,0
357013,83.5707,-400.288,0,0
357273,83.377,-399.763,0,0
357534,83.2575,-399.186,0,0
357794,83.1236,-398.618,0,0
358054,82.9478,-398.12,0,0
358315,82.9093,-397.529,0,0
358575,82.7061,-396.958,0,0
358835,82.6459,-396.388,0,0
359096,82.3321,-395.823,0,0
359356,82.4104,-395.28,0,0
359616,82.2888,-394.666,0,0
359877,82.202,-394.124,0,0
360137,81.9781,-393.616,0,0
360397,81.9626,-392.993,0,0
360658,81.7215,-392.478,0,0
360918,81.5988,-391.894,0,0
361178,81.4564,-391.278,0,0
361438,81.3158,-390.795,0,0
361699,81.2908,-390.208,0,0
361959,81.2353,-389.602,0,0
362219,81.0281,-389.052,0,0
362480,80.8608,-388.551,0,0
362740.1,80.774,-387.967,0,0
363000.425,80.7552,-387.375,0,0
363260.75,80.5934,-386.847,0,0
363521.075,80.4913,-386.224,0,0
363781.4,80.3945,-385.68,0,0
364041.725,80.3048,-385.1,0,0
364302.05,80.2219,-384.548,0,0
364562.375,80.1115,-383.953,0,0
364822.7,79.9965,-383.354,0,0
365083.025,79.802,-382.895,0,0
365343.35,79.7242,-382.326,0,0
365603.675,79.7443,-381.733,0,0
365864.0,79.6521,-381.089,0,0
366124.325,79.5331,-380.57,0,0
366384.65,79.4461,-380.005,0,0
366644.975,79.3596,-379.448,0,0
366905.3,79.3213,-378.858,0,0
367165.625,79.2636,-378.309,0,0
367425.95,79.2248,-377.779,0,0
367686.275,79.1672,-377.195,0,0
367946.6,79.1524,-376.635,0,0
368206.925,79.1566,-376.075,0,0
368467.25,79.1766,-375.507,0,0
368727.575,79.1432,-374.945,0,0
368987.9,79.0157,-374.415,0,0
369248.225,78.9451,-373.859,0,0
369508.55,79.0969,-373.27,0,0
369768.875,79.0799,-372.715,0,0
370029.2,78.9573,-372.262,0,0
370289.525,79.0168,-371.676,0,0
370549.85,79.0165,-371.193,0,0
370810.175,78.9716,-370.661,0,0
371070.5,78.9393,-370.153,0,0
371330.825,78.9818,-369.607,0,0
371591.15,78.9786,-369.103,0,0
371851.475,79.0264,-368.557,0,0
372111.8,79.1438,-368.043,0,0
372372.125,79.1871,-367.519,0,0
372632.45,79.1487,-367.066,0,0
372892.775,79.2615,-366.525,0,0
373153.1,79.1717,-366.078,0,0
373413.425,79.1544,-365.629,0,0
373673.75,79.1764,-365.18,0,0
373934.075,79.216,-364.711,0,0
374194.4,79.2308,-364.259,0,0
374454.725,79.2416,-363.825,0,0
374715.05,79.3173,-363.41,0,0
374975.375,79.3035,-362.957,0,0
375235.7,79.2113,-362.635,0,0
375496.025,79.2262,-362.205,0,0
375756.35,79.0737,-361.88,0,0
376016.675,79.1942,-361.419,0,0
376277.0,79.0827,-361.065,0,0
376537.325,79.0388,-360.64,0,0
376797.65,79.0192,-360.267,0,0
377057.975,78.8691,-359.865,0,0
377318.3,78.743,-359.499,0,0
377578.625,78.5997,-359.131,0,0
377838.95,78.517,-358.698,0,0
378099.275,78.348,-358.291,0,0
378359.6,78.2583,-357.863,0,0
378619.925,78.1716,-357.409,0,0
378880,78.052,-356.941,0,0
379141,77.8849,-356.509,0,0
379401,77.8382,-356.015,0,0
379661,77.6499,-355.573,0,0
379922,77.5521,-355.037,0,0
380182,77.4188,-354.536,0,0
380442,77.2739,-353.991,0,0
380703,77.2336,-353.468,0,0
380963,77.1023,-352.964,0,0
381223,77.1006,-352.404,0,0
381483,76.9533,-351.897,0,0
381744,76.8996,-351.406,0,0
382004,76.9131,-350.905,0,0
382264,76.8512,-350.463,0,0
382525,76.8072,-349.958,0,0
382785,76.7842,-349.432,0,0
383045,76.6475,-349.065,0,0
383306,76.5033,-348.567,0,0
383566,76.4648,-348.112,0,0
383826,76.2986,-347.67,0,0
384087,76.2097,-347.18,0,0
384347,76.1947,-346.666,0,0
384607,76.0061,-346.186,0,0
384868,75.9782,-345.691,0,0
385128,75.8619,-345.198,0,0
385388,75.7084,-344.658,0,0
385649,75.5051,-344.177,0,0
385909,75.4703,-343.61,0,0
386169,75.2742,-343.109,0,0
386430,75.138,-342.571,0,0
386690,75.1259,-342.034,0,0
386950,74.9688,-341.446,0,0
387211,74.8189,-340.922,0,0
387471,74.7197,-340.363,0,0
387731,74.7242,-339.752,0,0
387992,74.6127,-339.193,0,0
388252,74.557,-338.595,0,0
388512,74.4674,-338.027,0,0
388773,74.3809,-337.475,0,0
389033,74.3156,-336.868,0,0
389293,74.2872,-336.284,0,0
389554,74.1779,-335.727,0,0
389814,74.0764,-335.157,0,0
390074,73.9905,-334.582,0,0
390335,74.0009,-333.97,0,0
390595,74.0018,-333.354,0,0
390855,73.9724,-332.762,0,0
391116,73.9431,-332.145,0,0
391376,73.8767,-331.599,0,0
391636,73.8609,-330.998,0,0
391896,73.8986,-330.382,0,0
392157,73.8593,-329.801,0,0
392417,73.8452,-329.153,0,0
392677,73.8489,-328.567,0,0
392938,73.8221,-327.973,0,0
393198,73.7475,-327.403,0,0
393458,73.8103,-326.783,0,0
393719,73.7083,-326.241,0,0
393979,73.7929,-325.603,0,0
394239,73.8443,-324.976,0,0
394500,73.6845,-324.461,0,0
394760.05,73.8741,-323.789,0,0
395020.375,73.908,-323.153,0,0
395280.7,73.7581,-322.665,0,0
395541.025,73.9296,-321.973,0,0
395801.35,73.9602,-321.388,0,0
396061.675,73.9441,-320.762,0,0
396322.0,74.0822,-320.136,0,0
396582.325,74.1213,-319.551,0,0
396842.65,74.0642,-318.986,0,0
397102.975,74.077,-318.383,0,0
397363.3,74.1667,-317.754,0,0
397623.625,74.2309,-317.144,0,0
397883.95,74.3185,-316.548,0,0
398144.275,74.429,-315.904,0,0
398404.6,74.2571,-315.419,0,0
398664.925,74.3289,-314.794,0,0
398925.25,74.3438,-314.248,0,0
399185.575,74.4466,-313.607,0,0
399445.9,74.4937,-313.042,0,0
399706.225,74.5881,-312.418,0,0
399966.55,74.6701,-311.841,0,0
400006.6,74.7422,-311.715,0,0