File: Accelerated corrosion test data/2025-10-23_18-00-04/sample_7.csv
Frequency (Hz),Impedance (ohms),Phase (Radians),Temperature (C),Humidity (%)
10000.0,272.22,-12104.1,0,0
10260.325,268.194,-11812.4,0,0
10520.65,256.952,-11513,0,0
10780.975,251.52,-11231.7,0,0
11041.3,249.121,-10964.1,0,0
11301.625,246.023,-10707.5,0,0
11561.95,248.821,-10458.1,0,0
11822.275,259.524,-10224.9,0,0
12082.6,267.594,-10006.2,0,0
12342.925,319.792,-9848.71,0,0
12603.25,255.433,-9658.33,0,0
12863.575,271.22,-9468.05,0,0
13123.9,235.957,-9287.26,0,0
13384.225,227.877,-9108.53,0,0
13644.55,225.24,-8926.66,0,0
13904.875,207.385,-8761.73,0,0
14165.2,205.113,-8590.64,0,0
14425.525,204.314,-8450.62,0,0
14685.8,201.219,-8299.09,0,0
14946.175,197.548,-8152.2,0,0
15206.5,194.127,-8022.38,0,0
15466.825,184.104,-7878.96,0,0
15727.15,182.543,-7751.53,0,0
15987.5,179.154,-7622.35,0,0
16247.8,176.627,-7503.75,0,0
16508.125,170.268,-7380.96,0,0
16768.45,170.028,-7262.54,0,0
17028.775,168.967,-7151.52,0,0
17289.1,165.351,-7044.31,0,0
17549.425,164.975,-6935.29,0,0
17809.75,167.461,-6824.68,0,0
18070.075,167.959,-6728.86,0,0
18330.4,174.959,-6622.38,0,0
18590.725,196.911,-6532.4,0,0
18851.05,188.756,-6463.55,0,0
19111.375,185.11,-6385.13,0,0
19371.7,211.655,-6305.65,0,0
19632.025,172.11,-6245.56,0,0
19892.35,157.834,-6144.84,0,0
20152.675,166.529,-6062.71,0,0
20413.0,168.445,-5983.25,0,0
20673.3,172.846,-5905.53,0,0
20933.65,184.517,-5850.64,0,0
21193.975,162.087,-5791.88,0,0
21454.3,152.114,-5717.14,0,0
21714.625,156.261,-5647.92,0,0
21974.9,144.642,-5585.57,0,0
22235.275,138.928,-5515.87,0,0
22495.6,137.821,-5450.35,0,0
22755.925,132.159,-5387.78,0,0
23016.25,128.98,-5324.11,0,0
23276.6,127.056,-5261.29,0,0
23536.9,127.604,-5201.07,0,0
23797.225,126.766,-5144.84,0,0
24057.55,123.14,-5087.77,0,0
24317.875,121.435,-5030.85,0,0
24578.2,122.462,-4975.26,0,0
24838.525,121.356,-4921.94,0,0
25098.85,120.687,-4870.61,0,0
25359.175,118.632,-4818.12,0,0
25619.5,117.212,-4766.6,0,0
25879.8,117.884,-4716.19,0,0
26140.1,117.224,-4664.38,0,0
26400.5,121.697,-4616.09,0,0
26660.8,120.187,-4570.68,0,0
26921.1,120.358,-4521.23,0,0
27181.4,124.934,-4471.73,0,0
27441.8,130.35,-4425.56,0,0
27702.1,138.082,-4377.59,0,0
27962.4,151.743,-4330.69,0,0
28222.7,178.617,-4297.11,0,0
28483.1,189.967,-4282.96,0,0
28743.4,197.591,-4272.31,0,0
29003.7,174.708,-4258.27,0,0
29264,152.366,-4225.62,0,0
29524.4,139.809,-4184.42,0,0
29784.7,132.127,-4144.33,0,0
30045,127.222,-4100.86,0,0
30305.3,126.807,-4062.76,0,0
30565.7,129.477,-4026.17,0,0
30826,130.912,-3994.71,0,0
31086.3,131.283,-3963.3,0,0
31346.6,128.78,-3933.99,0,0
31607,129.411,-3907.41,0,0
31867.3,121.061,-3877.21,0,0
32127.6,117.539,-3846.03,0,0
32387.9,114.035,-3815.04,0,0
32648.3,111.306,-3785.61,0,0
32908.6,107.451,-3755.61,0,0
33168.9,103.627,-3725.75,0,0
33429.2,100.777,-3695.75,0,0
33689.6,97.9462,-3665.56,0,0
33949.9,96.3756,-3636.18,0,0
34210.2,94.3575,-3607.16,0,0
34470.5,92.7047,-3578.61,0,0
34730.9,91.0294,-3550.14,0,0
34991.2,90.5083,-3522.49,0,0
35251.5,89.1518,-3495.54,0,0
35511.8,88.3746,-3468.25,0,0
35772.2,87.9047,-3441.85,0,0
36032.5,87.539,-3415.99,0,0
36292.8,87.2014,-3390.91,0,0
36553.1,85.96,-3366.07,0,0
36813.5,85.7279,-3341.04,0,0
37073.8,85.2948,-3316.21,0,0
37334.1,85.2085,-3291.86,0,0
37594.4,84.8914,-3268.52,0,0
37854.8,84.5947,-3244.91,0,0
38115.1,84.1934,-3221.08,0,0
38375.4,84.8589,-3197.6,0,0
38635.7,85.7661,-3174.39,0,0
38896.1,87.3064,-3151.73,0,0
39156.4,89.9535,-3129.85,0,0
39416.7,92.9643,-3108.97,0,0
39677,96.9849,-3090.2,0,0
39937.4,99.5462,-3074.8,0,0
40197.7,99.3087,-3059.41,0,0
40458,96.498,-3044.4,0,0
40718.3,93.0332,-3026.45,0,0
40978.7,89.3909,-3008.46,0,0
41239,86.4823,-2988.69,0,0
41499.3,84.2468,-2969.19,0,0
41759.6,83.3692,-2949.79,0,0
42020,81.548,-2931.63,0,0
42280.275,79.6234,-2912.03,0,0
42540.6,79.0498,-2892.18,0,0
42800.925,79.5522,-2873.57,0,0
43061.25,79.6551,-2855.92,0,0
43321.575,79.8081,-2838.91,0,0
43581.9,78.5876,-2821.48,0,0
43842.225,78.2283,-2803.32,0,0
44102.55,79.2417,-2785.72,0,0
44362.875,81.3085,-2769.3,0,0
44623.2,81.4048,-2754.94,0,0
44883.525,80.6448,-2740.61,0,0
45143.85,79.9489,-2725.12,0,0
45404.175,78.0406,-2709.21,0,0
45664.5,79.3326,-2692.86,0,0
45924.825,80.0214,-2679.49,0,0
46185.15,78.5205,-2666.48,0,0
46445.475,76.8849,-2652.11,0,0
46705.8,74.1163,-2638.11,0,0
46966.125,71.9604,-2622.37,0,0
47226.45,70.6518,-2606.71,0,0
47486.775,70.1426,-2591.17,0,0
47747.1,69.8559,-2576.37,0,0
48007.425,69.5697,-2561.92,0,0
48267.75,68.9609,-2547.7,0,0
48528.075,68.4491,-2533.92,0,0
48788.4,67.672,-2519.89,0,0
49048.725,67.3329,-2505.84,0,0
49309.05,66.6974,-2492,0,0
49569.375,66.5323,-2478.54,0,0
49829.7,65.9928,-2465.12,0,0
50090.025,65.6765,-2451.86,0,0
50350.35,65.2144,-2438.76,0,0
50610.675,64.8113,-2425.57,0,0
50871.0,64.7139,-2412.82,0,0
51131.325,64.2727,-2399.92,0,0
51391.65,64.0245,-2387.52,0,0
51651.975,63.9274,-2375.01,0,0
51912.3,63.5336,-2362.72,0,0
52172.625,63.3381,-2350.45,0,0
52432.95,63.37,-2338.34,0,0
52693.275,63.0809,-2326.32,0,0
52953.6,63.218,-2314.58,0,0
53213.925,63.0601,-2303.06,0,0
53474.25,62.7504,-2291.74,0,0
53734.575,62.2379,-2280.47,0,0
53994.9,61.9869,-2269.06,0,0
54255.225,61.6559,-2257.77,0,0
54515.55,61.4583,-2246.78,0,0
54775.875,61.0668,-2235.72,0,0
55036.2,60.71,-2224.76,0,0
55296.525,60.3774,-2213.8,0,0
55556.85,60.2749,-2203.02,0,0
55817.175,59.9989,-2192.3,0,0
56077.5,59.8095,-2181.54,0,0
56337.825,59.7009,-2171.11,0,0
56598.15,59.5549,-2160.77,0,0
56858.475,59.41,-2150.54,0,0
57118.8,59.2653,-2140.41,0,0
57379.125,58.9428,-2130.29,0,0
57639.45,58.777,-2120.3,0,0
57899.775,58.664,-2110.22,0,0
58160.1,58.5405,-2100.12,0,0
58420.4,58.6537,-2090.33,0,0
58680.7,58.8689,-2080.84,0,0
58941.1,58.8082,-2071.47,0,0
59201.4,58.6738,-2062.1,0,0
59461.7,58.6716,-2052.51,0,0
59722,58.966,-2043.62,0,0
59982.4,58.7769,-2034.84,0,0
60242.7,58.7591,-2025.86,0,0
60503,58.6558,-2017.19,0,0
60763.3,58.2354,-2008.69,0,0
61023.7,57.6711,-1999.9,0,0
61284,57.3182,-1991.16,0,0
61544.3,56.9891,-1982.47,0,0
61804.6,56.432,-1973.86,0,0
62065,56.121,-1965.24,0,0
62325.3,55.7347,-1956.47,0,0
62585.6,55.485,-1947.79,0,0
62845.9,55.3069,-1939.34,0,0
63106.3,55.1503,-1930.88,0,0
63366.6,54.9911,-1922.36,0,0
63626.9,55.0934,-1914.22,0,0
63887.2,54.7732,-1906.25,0,0
64147.6,54.4349,-1898,0,0
64407.9,54.3727,-1889.76,0,0
64668.2,54.1746,-1881.75,0,0
64928.5,54.1059,-1873.61,0,0
65188.9,54.3771,-1865.72,0,0
65449.2,54.4368,-1858.1,0,0
65709.5,54.3948,-1850.73,0,0
65969.8,54.3608,-1843.22,0,0
66230.2,54.143,-1835.95,0,0
66490.5,53.7116,-1828.57,0,0
66750.8,53.4272,-1821.37,0,0
67011.1,52.9319,-1813.91,0,0
67271.5,52.5094,-1806.27,0,0
67531.8,52.3781,-1798.91,0,0
67792.1,52.0361,-1791.6,0,0
68052.4,51.6824,-1784.22,0,0
68312.8,51.476,-1776.83,0,0
68573.1,51.3385,-1769.63,0,0
68833.4,51.1855,-1762.48,0,0
69093.7,51.178,-1755.32,0,0
69354.1,50.9564,-1748.24,0,0
69614.4,50.8299,-1741.41,0,0
69874.7,50.8109,-1734.31,0,0
70135,50.7861,-1727.49,0,0
70395.4,50.6277,-1720.66,0,0
70655.7,50.5607,-1713.87,0,0
70916,50.743,-1707.25,0,0
71176.3,50.5787,-1700.85,0,0
71436.7,50.3805,-1694.26,0,0
71697,50.1772,-1687.77,0,0
71957.3,50.0532,-1681.34,0,0
72217.6,49.6938,-1674.88,0,0
72478,49.5082,-1668.44,0,0
72738.3,49.2421,-1661.96,0,0
72998.6,49.1299,-1655.57,0,0
73258.9,48.9848,-1649.18,0,0
73519.3,48.8106,-1642.83,0,0
73779.6,48.656,-1636.56,0,0
74039.9,48.5553,-1630.35,0,0
74300.225,48.4984,-1624.12,0,0
74560.55,48.3499,-1617.99,0,0
74820.875,48.2325,-1611.86,0,0
75081.2,48.09,-1605.77,0,0
75341.525,48.0408,-1599.75,0,0
75601.85,47.8954,-1593.8,0,0
75862.175,47.841,-1587.88,0,0
76122.5,47.665,-1581.86,0,0
76382.825,47.5972,-1576,0,0
76643.15,47.5993,-1570.13,0,0
76903.475,47.4714,-1564.21,0,0
77163.8,47.4473,-1558.5,0,0
77424.125,47.3362,-1552.75,0,0
77684.45,47.3629,-1547.09,0,0
77944.775,47.3004,-1541.49,0,0
78205.1,47.2248,-1535.84,0,0
78465.425,47.109,-1530.19,0,0
78725.75,47.2027,-1524.6,0,0
78986.075,47.0823,-1519.17,0,0
79246.4,47.0156,-1513.72,0,0
79506.725,46.9865,-1508.22,0,0
79767.05,46.9635,-1502.86,0,0
80027.375,46.8228,-1497.47,0,0
80287.7,46.8764,-1492.11,0,0
80548.025,46.7753,-1486.95,0,0
80808.35,46.6669,-1481.63,0,0
81068.675,46.65,-1476.39,0,0
81329.0,46.5378,-1471.12,0,0
81589.325,46.4494,-1465.89,0,0
81849.65,46.3358,-1460.73,0,0
82109.975,46.282,-1455.49,0,0
82370.3,46.2292,-1450.25,0,0
82630.625,46.2483,-1445.16,0,0
82890.95,46.2998,-1440.12,0,0
83151.275,46.158,-1435.13,0,0
83411.6,46.1437,-1430.06,0,0
83671.925,46.1402,-1425.04,0,0
83932.25,46.2014,-1419.98,0,0
84192.575,46.2309,-1415.06,0,0
84452.9,46.3693,-1410.12,0,0
84713.225,46.504,-1405.37,0,0
84973.55,46.4572,-1400.73,0,0
85233.875,46.3721,-1395.87,0,0
85494.2,46.3324,-1391.09,0,0
85754.525,46.2896,-1386.34,0,0
86014.85,46.3665,-1381.67,0,0
86275.175,46.4727,-1376.88,0,0
86535.5,46.4486,-1372.28,0,0
86795.825,46.3429,-1367.64,0,0
87056.15,46.3643,-1362.9,0,0
87316.475,46.4924,-1358.38,0,0
87576.8,46.4599,-1354.01,0,0
87837.125,46.467,-1349.47,0,0
88097.45,46.4936,-1345.09,0,0
88357.775,46.4159,-1340.66,0,0
88618.1,46.1567,-1336.23,0,0
88878.425,46.1239,-1331.88,0,0
89138.75,45.954,-1327.23,0,0
89399.075,45.906,-1322.68,0,0
89659.4,45.8501,-1318.19,0,0
89919.725,45.8208,-1313.81,0,0
90180,45.8955,-1309.27,0,0
90440.4,45.9027,-1304.81,0,0
90700.7,45.9425,-1300.36,0,0
90961,46.1219,-1296.04,0,0
91221.3,46.0006,-1291.62,0,0
91481.7,45.9671,-1287.27,0,0
91742,46.1288,-1282.92,0,0
92002.3,46.254,-1278.53,0,0
92262.6,46.3462,-1274.22,0,0
92523,46.4382,-1269.96,0,0
92783.3,46.4899,-1265.65,0,0
93043.6,46.6044,-1261.25,0,0
93303.9,46.9713,-1256.74,0,0
93564.3,47.5046,-1252.32,0,0
93824.6,48.3135,-1248.03,0,0
94084.9,49.1211,-1244.26,0,0
94345.2,50.0132,-1240.81,0,0
94605.6,50.2802,-1237.88,0,0
94865.9,50.1001,-1234.52,0,0
95126.2,50.0813,-1231.03,0,0
95386.5,49.9059,-1227.48,0,0
95646.9,49.352,-1224.05,0,0
95907.2,48.8915,-1220.16,0,0
96167.5,48.6558,-1216.16,0,0
96427.8,48.4487,-1212.16,0,0
96688.2,48.3587,-1208.03,0,0
96948.5,48.4152,-1204.09,0,0
97208.8,48.4853,-1200.23,0,0
97469.1,48.4107,-1196.35,0,0
97729.5,48.4504,-1192.29,0,0
97989.8,48.7153,-1188.38,0,0
98250.1,48.8484,-1184.67,0,0
98510.4,49.0726,-1180.91,0,0
98770.8,49.1414,-1177.4,0,0
99031.1,49.0483,-1173.89,0,0
99291.4,48.8132,-1170.13,0,0
99551.7,48.6245,-1166.28,0,0
99812.1,48.4743,-1162.17,0,0
100072,48.7087,-1157.99,0,0
100333,49.1306,-1154,0,0
100593,49.5651,-1150.33,0,0
100853,49.8107,-1146.64,0,0
101114,50.1744,-1143,0,0
101374,50.3228,-1139.41,0,0
101634,50.5175,-1135.61,0,0
101895,50.9117,-1131.77,0,0
102155,51.4757,-1128,0,0
102415,52.1346,-1124.43,0,0
102676,52.9208,-1121.12,0,0
102936,53.2785,-1118.09,0,0
103196,53.4984,-1114.7,0,0
103457,53.945,-1111.31,0,0
103717,54.7254,-1108.03,0,0
103977,55.2362,-1105.41,0,0
104238,55.213,-1102.56,0,0
104498,55.1991,-1099.42,0,0
104758,55.4106,-1096.15,0,0
105019,55.5932,-1093.28,0,0
105279,55.5532,-1090.36,0,0
105539,55.3034,-1087.14,0,0
105800,55.2946,-1083.86,0,0
106060,55.1825,-1080.64,0,0
106320.175,55.1186,-1077.25,0,0
106580.5,55.2714,-1073.8,0,0
106840.825,55.4243,-1070.48,0,0
107101.15,55.6324,-1067.2,0,0
107361.475,55.6105,-1064.11,0,0
107621.8,55.6391,-1060.71,0,0
107882.125,55.8411,-1057.3,0,0
108142.45,56.0631,-1053.99,0,0
108402.775,56.2988,-1050.65,0,0
108663.1,56.5555,-1047.39,0,0
108923.425,56.8087,-1044.24,0,0
109183.75,56.866,-1041.06,0,0
109444.075,56.9618,-1037.74,0,0
109704.4,57.0592,-1034.32,0,0
109964.725,57.2363,-1030.85,0,0
110225.05,57.4107,-1027.23,0,0
110485.375,57.9137,-1023.51,0,0
110745.7,58.7064,-1019.89,0,0
111006.025,59.6008,-1016.68,0,0
111266.35,60.2179,-1013.5,0,0
111526.675,60.6365,-1010.32,0,0
111787.0,61.2897,-1006.86,0,0
112047.325,62.1062,-1003.31,0,0
112307.65,63.16,-999.967,0,0
112567.975,64.1901,-996.805,0,0
112828.3,65.2834,-993.846,0,0
113088.625,66.3771,-990.798,0,0
113348.95,67.5758,-987.942,0,0
113609.275,68.5497,-985.227,0,0
113869.6,69.5633,-982.241,0,0
114129.925,70.8521,-979.35,0,0
114390.25,72.272,-976.594,0,0
114650.575,73.6625,-974.06,0,0
114910.9,74.9456,-971.636,0,0
115171.225,76.3647,-969.127,0,0
115431.55,77.8449,-966.556,0,0
115691.875,79.7024,-964.293,0,0
115952.2,81.5796,-962.428,0,0
116212.525,83.4244,-960.818,0,0
116472.85,85.2644,-959.541,0,0
116733.175,86.8868,-958.821,0,0
116993.5,87.6791,-958.228,0,0
117253.825,88.2844,-956.98,0,0
117514.15,89.3388,-955.825,0,0
117774.475,90.3266,-954.987,0,0
118034.8,91.0582,-954.405,0,0
118295.125,91.5426,-953.473,0,0
118555.45,92.6612,-952.667,0,0
118815.775,93.6717,-952.798,0,0
119076.1,93.9577,-953.465,0,0
119336.425,93.2703,-954.125,0,0
119596.75,92.117,-954.119,0,0
119857.075,91.0971,-953.861,0,0
120117.4,89.8463,-953.895,0,0
120377.725,88.2199,-953.949,0,0
120638.05,85.5597,-953.618,0,0
120898.375,82.9466,-952.273,0,0
121158.7,80.4639,-950.708,0,0
121419.025,77.8031,-948.477,0,0
121679.35,75.8714,-945.707,0,0
121939.675,74.2861,-943.214,0,0
122200.0,72.7546,-940.675,0,0
122460,71.2775,-938.228,0,0
122721,69.6834,-935.582,0,0
122981,68.4685,-932.701,0,0
123241,67.2967,-930.193,0,0
123502,65.8767,-927.545,0,0
123762,64.6062,-924.395,0,0
124022,63.8157,-921.399,0,0
124283,63.07,-918.774,0,0
124543,62.0161,-916.071,0,0
124803,61.1079,-913.148,0,0
125064,60.384,-910.439,0,0
125324,59.441,-907.803,0,0
125584,58.3812,-904.974,0,0
125845,57.5247,-901.952,0,0
126105,56.7161,-899.032,0,0
126365,55.9183,-896.095,0,0
126626,55.1145,-893.026,0,0
126886,54.3556,-889.881,0,0
127146,53.7354,-886.672,0,0
127406,53.2468,-883.436,0,0
127667,52.9788,-880.192,0,0
127927,52.8408,-877.169,0,0
128187,52.6766,-874.329,0,0
128448,52.3786,-871.546,0,0
128708,52.0218,-868.636,0,0
128968,51.7241,-865.733,0,0
129229,51.4668,-862.867,0,0
129489,51.2224,-860.042,0,0
129749,50.9093,-857.296,0,0
130010,50.5144,-854.358,0,0
130270,50.211,-851.48,0,0
130530,49.9788,-848.656,0,0
130791,49.5784,-845.76,0,0
131051,49.1806,-842.727,0,0
131311,48.9453,-839.604,0,0
131572,48.8111,-836.516,0,0
131832,48.7468,-833.53,0,0
132092,48.5333,-830.541,0,0
132353,48.3592,-827.391,0,0
132613,48.3407,-824.2,0,0
132873,48.4315,-821.071,0,0
133134,48.5404,-817.946,0,0
133394,48.6881,-814.79,0,0
133654,48.8991,-811.588,0,0
133915,49.3167,-808.392,0,0
134175,49.8534,-805.221,0,0
134435,50.6353,-802.133,0,0
134696,51.5687,-799.456,0,0
134956,52.2183,-796.994,0,0
135216,52.6183,-794.333,0,0
135477,53.2958,-791.578,0,0
135737,54.1955,-788.903,0,0
135997,55.4325,-786.496,0,0
136258,56.6517,-784.76,0,0
136518,57.3688,-783.435,0,0
136778,57.6305,-782.205,0,0
137039,57.3636,-780.904,0,0
137299,56.7578,-779.3,0,0
137559,56.0179,-777.279,0,0
137819,55.3241,-774.998,0,0
138080,54.6983,-772.539,0,0
138340.125,54.1466,-769.865,0,0
138600.45,53.778,-767.161,0,0
138860.775,53.4369,-764.444,0,0
139121.1,53.0701,-761.549,0,0
139381.425,52.9848,-758.549,0,0
139641.75,53.0934,-755.697,0,0
139902.075,53.2459,-752.946,0,0
140162.4,53.3485,-750.34,0,0
140422.725,53.3624,-747.72,0,0
140683.05,53.2694,-745.113,0,0
140943.375,53.1739,-742.333,0,0
141203.7,53.1155,-739.571,0,0
141464.025,52.9922,-736.654,0,0
141724.35,53.03,-733.592,0,0
141984.675,53.2554,-730.529,0,0
142245.0,53.5686,-727.522,0,0
142505.325,54.0086,-724.543,0,0
142765.65,54.5103,-721.691,0,0
143025.975,54.977,-718.896,0,0
143286.3,55.521,-716.069,0,0
143546.625,56.2639,-713.389,0,0
143806.95,56.9333,-710.907,0,0
144067.275,57.4846,-708.54,0,0
144327.6,57.8683,-706.257,0,0
144587.925,58.1687,-703.838,0,0
144848.25,58.4265,-701.396,0,0
145108.575,58.6793,-698.878,0,0
145368.9,58.9377,-696.387,0,0
145629.225,59.2287,-693.849,0,0
145889.55,59.4588,-691.335,0,0
146149.875,59.6169,-688.716,0,0
146410.2,59.9594,-685.951,0,0
146670.525,60.5091,-683.311,0,0
146930.85,61.0184,-680.93,0,0
147191.175,61.323,-678.638,0,0
147451.5,61.4777,-676.306,0,0
147711.825,61.5561,-673.784,0,0
147972.15,61.7491,-671.239,0,0
148232.475,61.9028,-668.813,0,0
148492.8,61.8592,-666.334,0,0
148753.125,61.7985,-663.717,0,0
149013.45,61.6646,-661.023,0,0
149273.775,61.5084,-658.18,0,0
149534.1,61.4486,-655.223,0,0
149794.425,61.4314,-652.244,0,0
150054.75,61.3294,-649.168,0,0
150315.075,61.3175,-645.945,0,0
150575.4,61.3439,-642.633,0,0
150835.725,61.4932,-639.202,0,0
151096.05,61.7136,-635.737,0,0
151356.375,62.0156,-632.217,0,0
151616.7,62.4875,-628.607,0,0
151877.025,63.0959,-625.063,0,0
152137.35,63.7132,-621.551,0,0
152397.675,64.3364,-617.983,0,0
152658.0,65.1004,-614.375,0,0
152918.325,65.9453,-610.784,0,0
153178.65,66.8366,-607.198,0,0
153438.975,67.7731,-603.595,0,0
153699.3,68.7681,-599.987,0,0
153959.625,69.8176,-596.327,0,0
154219.95,70.9848,-592.632,0,0
154480,72.2157,-588.936,0,0
154741,73.4646,-585.229,0,0
155001,74.8663,-581.423,0,0
155261,76.4316,-577.616,0,0
155522,78.1672,-573.852,0,0
155782,80.0123,-570.168,0,0
156042,81.9363,-566.539,0,0
156303,83.9778,-562.925,0,0
156563,86.1461,-559.367,0,0
156823,88.4187,-555.904,0,0
157084,90.8051,-552.488,0,0
157344,93.424,-549.194,0,0
157604,96.1622,-546.178,0,0
157864,98.9128,-543.439,0,0
158125,101.553,-540.895,0,0
158385,104.163,-538.481,0,0
158645,106.796,-536.287,0,0
158906,109.244,-534.521,0,0
159166,111.23,-532.933,0,0
159426,112.754,-531.29,0,0
159687,113.956,-529.37,0,0
159947,115.02,-527.294,0,0
160207,115.766,-525.037,0,0
160468,116.303,-522.376,0,0
160728,116.827,-519.267,0,0
160988,117.338,-515.823,0,0
161249,117.838,-511.892,0,0
161509,118.629,-507.329,0,0
161769,120.026,-502.349,0,0
162030,122.032,-497.443,0,0
162290,124.27,-492.565,0,0
162550,126.738,-487.644,0,0
162811,129.444,-482.638,0,0
163071,132.503,-477.486,0,0
163331,136.005,-472.261,0,0
163592,140.074,-467.199,0,0
163852,144.566,-462.46,0,0
164112,149.036,-458.219,0,0
164373,153.401,-454.082,0,0
164633,157.648,-449.903,0,0
164893,162.049,-445.436,0,0
165154,166.574,-441.012,0,0
165414,170.998,-436.095,0,0
165674,176.08,-430.495,0,0
165935,182.172,-424.751,0,0
166195,189.044,-419.249,0,0
166455,196.632,-414.023,0,0
166716,204.846,-409.128,0,0
166976,213.481,-404.673,0,0
167236,222.692,-400.198,0,0
167497,233.004,-396.111,0,0
167757,244.126,-392.863,0,0
168017,255.729,-390.512,0,0
168277,267.993,-388.959,0,0
168538,280.689,-388.394,0,0
168798,293.941,-389.067,0,0
169058,307.153,-391.008,0,0
169319,320.465,-394.151,0,0
169579,333.422,-398.862,0,0
169839,345.5,-404.258,0,0
170100,357.672,-410.098,0,0
170360.075,370.031,-416.918,0,0
170620.4,382.426,-425.594,0,0
170880.725,393.764,-435.955,0,0
171141.05,403.407,-447.395,0,0
171401.375,412.015,-458.931,0,0
171661.7,420.367,-470.973,0,0
171922.025,428.205,-484.32,0,0
172182.35,434.91,-499.039,0,0
172442.675,440.054,-515.186,0,0
172703.0,442.73,-532.423,0,0
172963.325,443.066,-549.352,0,0
173223.65,441.796,-566.71,0,0
173483.975,437.525,-584.433,0,0
173744.3,429.872,-601.086,0,0
174004.625,419.215,-615.456,0,0
174264.95,406.596,-626.355,0,0
174525.275,393.883,-633.912,0,0
174785.6,381.087,-639.056,0,0
175045.925,368.927,-640.758,0,0
175306.25,359.35,-640.402,0,0
175566.575,351.461,-640.099,0,0
175826.9,343.806,-638.92,0,0
176087.225,337.606,-636.212,0,0
176347.55,333.602,-632.978,0,0
176607.875,331.467,-630.219,0,0
176868.2,330.646,-628.515,0,0
177128.525,329.936,-627.839,0,0
177388.85,329.435,-626.789,0,0
177649.175,330.578,-625.454,0,0
177909.5,333.812,-625.447,0,0
178169.825,338.483,-628.097,0,0
178430.15,342.737,-634.532,0,0
178690.475,343.98,-643.654,0,0
178950.8,341.86,-653.022,0,0
179211.125,337.115,-661.3,0,0
179471.45,331.077,-667.229,0,0
179731.775,325.965,-671.709,0,0
179992.1,321.324,-676.945,0,0
180252.425,315.675,-682.175,0,0
180512.75,309.547,-686.914,0,0
180773.075,302.545,-691.763,0,0
181033.4,294.436,-695.79,0,0
181293.725,285.785,-698.385,0,0
181554.05,277.841,-699.773,0,0
181814.375,270.71,-701.933,0,0
182074.7,261.824,-704.741,0,0
182335.025,251.204,-705.938,0,0
182595.35,240.075,-704.952,0,0
182855.675,229.557,-701.684,0,0
183116.0,220.715,-696.893,0,0
183376.325,213.684,-691.883,0,0
183636.65,207.574,-687.543,0,0
183896.975,201.32,-683.385,0,0
184157.3,195.231,-678.287,0,0
184417.625,190.369,-672.961,0,0
184677.95,186.321,-668.146,0,0
184938.275,182.415,-663.992,0,0
185198.6,177.897,-660.066,0,0
185458.925,173.196,-655.442,0,0
185719.25,168.791,-650.288,0,0
185979.575,164.86,-644.62,0,0
186239.9,161.775,-638.699,0,0
186500,159.35,-633.118,0,0
186761,157.086,-627.731,0,0
187021,155.139,-622.198,0,0
187281,153.8,-616.754,0,0
187542,152.942,-611.762,0,0
187802,152.244,-607.168,0,0
188062,151.69,-603.012,0,0
188322,151.131,-599.352,0,0
188583,150.318,-596.218,0,0
188843,148.707,-593.321,0,0
189103,146.476,-589.914,0,0
189364,144.283,-585.801,0,0
189624,142.375,-581.404,0,0
189884,140.665,-576.847,0,0
190145,139.081,-572.188,0,0
190405,137.7,-567.357,0,0
190665,136.387,-562.415,0,0
190926,135.221,-557.126,0,0
191186,134.639,-551.608,0,0
191446,134.668,-546.258,0,0
191707,134.916,-541.441,0,0
191967,134.923,-536.937,0,0
192227,134.684,-532.311,0,0
192488,134.398,-527.349,0,0
192748,134.436,-521.984,0,0
193008,134.972,-516.572,0,0
193269,135.893,-511.325,0,0
193529,137.059,-506.294,0,0
193789,138.296,-501.537,0,0
194050,139.492,-496.831,0,0
194310,140.722,-492.009,0,0
194570,142.279,-487.089,0,0
194831,144.213,-482.333,0,0
195091,146.302,-477.937,0,0
195351,148.359,-473.707,0,0
195612,150.531,-469.57,0,0
195872,152.823,-465.624,0,0
196132,154.963,-461.934,0,0
196393,156.951,-458.312,0,0
196653,159.002,-454.44,0,0
196913,161.266,-450.622,0,0
197174,163.797,-447.07,0,0
197434,166.22,-443.784,0,0
197694,168.532,-440.738,0,0
197955,170.469,-437.84,0,0
198215,172.178,-434.685,0,0
198475,173.857,-431.247,0,0
198735,175.626,-427.709,0,0
198996,177.521,-424.105,0,0
199256,179.324,-420.494,0,0
199516,181.085,-416.735,0,0
199777,182.916,-412.624,0,0
200037,185.042,-408.254,0,0
200297,187.471,-403.917,0,0
200558,190.019,-399.609,0,0
200818,192.719,-395.262,0,0
201078,195.563,-390.826,0,0
201339,198.495,-386.255,0,0
201599,201.807,-381.525,0,0
201859,205.398,-376.852,0,0
202120,209.266,-372.204,0,0
202380.025,213.344,-367.504,0,0
202640.35,217.81,-362.812,0,0
202900.675,222.56,-358.28,0,0
203161.0,227.58,-353.916,0,0
203421.325,232.79,-349.699,0,0
203681.65,238.299,-345.566,0,0
203941.975,243.956,-341.566,0,0
204202.3,249.795,-337.611,0,0
204462.625,255.925,-333.637,0,0
204722.95,262.587,-329.707,0,0
204983.275,269.754,-325.983,0,0
205243.6,277.469,-322.614,0,0
205503.925,285.876,-319.825,0,0
205764.25,294.618,-318.003,0,0
206024.575,303.256,-317.238,0,0
206284.9,311.34,-317.421,0,0
206545.225,318.644,-317.901,0,0
206805.55,325.418,-318.362,0,0
207065.875,331.779,-318.763,0,0
207326.2,337.689,-318.846,0,0
207586.525,343.666,-318.62,0,0
207846.85,349.572,-318.034,0,0
208107.175,355.628,-316.917,0,0
208367.5,362.359,-315.418,0,0
208627.825,369.688,-313.694,0,0
208888.15,377.971,-311.951,0,0
209148.475,387.115,-310.512,0,0
209408.8,397.189,-309.634,0,0
209669.125,407.924,-309.395,0,0
209929.45,419.447,-309.824,0,0
210189.775,432.151,-311.206,0,0
210450.1,445.933,-314.485,0,0
210710.425,459.569,-320.955,0,0
210970.75,471.212,-329.198,0,0
211231.075,481.441,-337.642,0,0
211491.4,491.394,-346.626,0,0
211751.725,500.543,-357.123,0,0
212012.05,507.576,-368.653,0,0
212272.375,512.577,-379.738,0,0
212532.7,516.469,-389.706,0,0
212793.025,520.415,-398.939,0,0
213053.35,524.3,-408.513,0,0
213313.675,527.192,-418.066,0,0
213574.0,529.722,-426.982,0,0
213834.325,532.362,-435.701,0,0
214094.65,535.048,-444.716,0,0
214354.975,537.369,-454.241,0,0
214615.3,538.811,-464.103,0,0
214875.625,539.358,-473.671,0,0
215135.95,539.379,-482.799,0,0
215396.275,538.984,-491.438,0,0
215656.6,538.577,-499.621,0,0
215916.925,538.553,-507.674,0,0
216177.25,538.678,-516.133,0,0
216437.575,538.456,-525.274,0,0
216697.9,537.493,-534.83,0,0
216958.225,535.613,-544.572,0,0
217218.55,532.822,-554.182,0,0
217478.875,529.229,-563.325,0,0
217739.2,525.414,-572.019,0,0
217999.525,521.315,-581.092,0,0
218259.85,515.939,-590.503,0,0
218520,508.912,-599.303,0,0
218780,500.713,-606.87,0,0
219041,491.778,-612.899,0,0
219301,482.711,-617.514,0,0
219561,473.578,-620.953,0,0
219822,464.609,-622.965,0,0
220082,456.146,-623.702,0,0
220342,448.48,-623.658,0,0
220603,441.584,-622.871,0,0
220863,435.287,-621.731,0,0
221123,429.448,-620.051,0,0
221384,424.398,-617.827,0,0
221644,420.373,-615.295,0,0
221904,417.177,-612.918,0,0
222165,414.491,-610.716,0,0
222425,412.331,-608.543,0,0
222685,410.826,-606.828,0,0
222946,409.569,-605.447,0,0
223206,408.272,-604.319,0,0
223466,407.233,-603.298,0,0
223727,406.301,-602.506,0,0
223987,405.251,-601.91,0,0
224247,404.036,-601.259,0,0
224508,402.923,-600.577,0,0
224768,401.756,-599.351,0,0
225028,400.955,-597.857,0,0
225289,400.632,-596.105,0,0
225549,401.048,-594.312,0,0
225809,402.209,-592.776,0,0
226070,403.749,-591.728,0,0
226330,405.689,-591.233,0,0
226590,407.742,-591.233,0,0
226851,409.716,-591.631,0,0
227111,411.764,-592.235,0,0
227371,414.066,-593.022,0,0
227632,416.688,-594.239,0,0
227892,419.539,-596.168,0,0
228152,422.176,-598.815,0,0
228413,424.494,-601.993,0,0
228673,426.513,-605.625,0,0
228933,428.143,-609.645,0,0
229193,429.154,-613.985,0,0
229454,429.756,-618.248,0,0
229714,430.178,-622.199,0,0
229974,430.651,-626.29,0,0
230235,431.354,-630.84,0,0
230495,431.607,-636.13,0,0
230755,431.098,-641.754,0,0
231016,429.789,-647.224,0,0
231276,428.002,-652.288,0,0
231536,426.254,-657.032,0,0
231797,424.612,-661.84,0,0
232057,422.811,-666.9,0,0
232317,420.902,-672.203,0,0
232578,418.711,-677.957,0,0
232838,415.853,-684.064,0,0
233098,412.328,-690.351,0,0
233359,408.127,-696.975,0,0
233619,402.489,-703.701,0,0
233879,395.421,-709.697,0,0
234140,387.489,-714.434,0,0
234400,379.407,-717.956,0,0
234660.3,371.202,-720.691,0,0
234920.625,362.987,-722.62,0,0
235180.95,354.639,-723.724,0,0
235441.275,346.564,-723.879,0,0
235701.6,338.857,-723.446,0,0
235961.925,331.607,-722.418,0,0
236222.25,324.762,-721.022,0,0
236482.575,318.391,-719.339,0,0
236742.9,312.454,-717.733,0,0
237003.225,306.305,-716.359,0,0
237263.55,299.528,-714.481,0,0
237523.875,292.963,-711.455,0,0
237784.2,286.937,-707.372,0,0
238044.525,281.834,-702.864,0,0
238304.85,277.514,-698.135,0,0
238565.175,274.019,-693.26,0,0
238825.5,271.436,-688.373,0,0
239085.825,269.659,-683.745,0,0
239346.15,268.542,-679.575,0,0
239606.475,268.22,-676.001,0,0
239866.8,268.279,-673.281,0,0
240127.125,268.473,-671.6,0,0
240387.45,268.195,-670.972,0,0
240647.775,267.081,-670.759,0,0
240908.1,265.227,-670.647,0,0
241168.425,262.925,-670.414,0,0
241428.75,259.976,-670.126,0,0
241689.075,256.38,-669.38,0,0
241949.4,252.522,-667.861,0,0
242209.725,248.604,-665.601,0,0
242470.05,244.91,-662.605,0,0
242730.375,241.699,-659.075,0,0
242990.7,239.138,-655.236,0,0
243251.025,237.13,-651.352,0,0
243511.35,235.41,-647.479,0,0
243771.675,233.995,-643.359,0,0
244032.0,233.235,-638.931,0,0
244292.325,233.466,-634.709,0,0
244552.65,234.514,-631.131,0,0
244812.975,235.865,-628.495,0,0
245073.3,237.054,-626.833,0,0
245333.625,237.731,-625.783,0,0
245593.95,237.942,-624.909,0,0
245854.275,237.829,-624.138,0,0
246114.6,237.217,-623.46,0,0
246374.925,236.109,-622.562,0,0
246635.25,234.764,-621.204,0,0
246895.575,233.499,-619.477,0,0
247155.9,232.477,-617.566,0,0
247416.225,231.51,-615.63,0,0
247676.55,230.57,-613.675,0,0
247936.875,229.571,-611.631,0,0
248197.2,228.511,-609.322,0,0
248457.525,227.659,-606.712,0,0
248717.85,227.01,-603.865,0,0
248978.175,226.768,-600.957,0,0
249238.5,226.678,-598.117,0,0
249498.825,226.738,-595.255,0,0
249759.15,227.088,-592.338,0,0
250019.475,227.732,-589.437,0,0
250279.8,228.626,-586.614,0,0
250540,229.672,-583.831,0,0
250800,231.109,-581.172,0,0
251061,232.77,-578.771,0,0
251321,234.455,-576.575,0,0
251581,236.196,-574.475,0,0
251842,238.197,-572.254,0,0
252102,240.685,-570.254,0,0
252362,243.482,-568.705,0,0
252623,246.401,-567.621,0,0
252883,249.41,-566.967,0,0
253143,252.406,-566.739,0,0
253404,255.257,-566.963,0,0
253664,257.99,-567.569,0,0
253924,260.574,-568.521,0,0
254185,262.815,-569.872,0,0
254445,264.71,-571.362,0,0
254705,266.33,-573.1,0,0
254966,267.653,-574.834,0,0
255226,268.733,-576.8,0,0
255486,269.533,-578.83,0,0
255747,269.891,-581.011,0,0
256007,269.758,-583.081,0,0
256267,269.398,-584.901,0,0
256528,268.798,-586.609,0,0
256788,267.994,-588.139,0,0
257048,266.986,-589.534,0,0
257309,265.708,-590.65,0,0
257569,264.384,-591.388,0,0
257829,263.105,-591.784,0,0
258090,261.93,-591.946,0,0
258350,260.97,-591.932,0,0
258610,260.275,-591.896,0,0
258871,259.699,-591.986,0,0
259131,259.159,-592.113,0,0
259391,258.529,-592.359,0,0
259651,257.846,-592.732,0,0
259912,256.988,-593.07,0,0
260172,255.846,-593.274,0,0
260432,254.626,-593.143,0,0
260693,253.488,-592.763,0,0
260953,252.535,-592.155,0,0
261213,251.613,-591.515,0,0
261474,250.869,-590.681,0,0
261734,250.228,-589.724,0,0
261994,249.782,-588.589,0,0
262255,249.662,-587.318,0,0
262515,249.914,-585.971,0,0
262775,250.544,-584.851,0,0
263036,251.496,-583.97,0,0
263296,252.677,-583.428,0,0
263556,253.972,-583.263,0,0
263817,255.204,-583.426,0,0
264077,256.393,-583.842,0,0
264337,257.488,-584.554,0,0
264598,258.411,-585.589,0,0
264858,259.028,-586.736,0,0
265118,259.379,-587.976,0,0
265379,259.56,-589.114,0,0
265639,259.541,-590.196,0,0
265899,259.501,-591.147,0,0
266160,259.587,-592.04,0,0
266420,259.763,-593.019,0,0
266680.25,259.999,-594.244,0,0
266940.575,260.151,-595.774,0,0
267200.9,260.013,-597.579,0,0
267461.225,259.493,-599.432,0,0
267721.55,258.648,-601.283,0,0
267981.875,257.404,-603.062,0,0
268242.2,255.713,-604.528,0,0
268502.525,253.963,-605.545,0,0
268762.85,252.235,-606.221,0,0
269023.175,250.55,-606.693,0,0
269283.5,248.775,-606.919,0,0
269543.825,247.119,-606.757,0,0
269804.15,245.692,-606.154,0,0
270064.475,244.686,-605.239,0,0
270324.8,244.316,-604.286,0,0
270585.125,244.413,-603.437,0,0
270845.45,244.9,-602.878,0,0
271105.775,245.718,-602.447,0,0
271366.1,247.018,-602.272,0,0
271626.425,248.85,-602.542,0,0
271886.75,251.197,-603.664,0,0
272147.075,253.668,-605.83,0,0
272407.4,255.809,-609.181,0,0
272667.725,257.292,-613.506,0,0
272928.05,257.557,-618.611,0,0
273188.375,256.978,-623.698,0,0
273448.7,255.52,-628.933,0,0
273709.025,253.245,-634.17,0,0
273969.35,250.07,-639.265,0,0
274229.675,246.092,-644.005,0,0
274490.0,241.57,-648.278,0,0
274750.325,236.404,-652.324,0,0
275010.65,230.6,-655.989,0,0
275270.975,223.998,-658.951,0,0
275531.3,216.883,-660.992,0,0
275791.625,209.468,-662.056,0,0
276051.95,202.086,-662.233,0,0
276312.275,194.642,-661.609,0,0
276572.6,187.297,-660.098,0,0
276832.925,180.272,-657.733,0,0
277093.25,173.711,-654.531,0,0
277353.575,167.839,-650.742,0,0
277613.9,162.623,-646.62,0,0
277874.225,157.943,-642.27,0,0
278134.55,153.72,-637.667,0,0
278394.875,150.104,-632.811,0,0
278655.2,147.121,-627.843,0,0
278915.525,144.804,-622.981,0,0
279175.85,142.986,-618.372,0,0
279436.175,141.446,-614.023,0,0
279696.5,140.122,-609.857,0,0
279956.825,138.909,-605.682,0,0
280217.15,138.03,-601.532,0,0
280477.475,137.62,-597.526,0,0
280737.8,137.566,-593.922,0,0
280998.125,137.633,-590.748,0,0
281258.45,137.59,-587.99,0,0
281518.775,137.342,-585.403,0,0
281779.1,136.939,-582.888,0,0
282039.425,136.448,-580.393,0,0
282299.75,135.824,-577.837,0,0
282560,135.09,-575.228,0,0
282820,134.318,-572.449,0,0
283081,133.565,-569.321,0,0
283341,133.074,-566.041,0,0
283601,132.801,-562.475,0,0
283862,133.008,-558.966,0,0
284122,133.371,-555.605,0,0
284382,134.052,-552.256,0,0
284643,134.956,-549.045,0,0
284903,136.299,-545.975,0,0
285163,137.744,-543.325,0,0
285424,139.287,-540.831,0,0
285684,140.854,-538.677,0,0
285944,142.411,-536.724,0,0
286205,144.02,-535.049,0,0
286465,145.653,-533.544,0,0
286725,147.043,-532.325,0,0
286986,148.447,-531.265,0,0
287246,149.605,-530.434,0,0
287506,150.524,-529.764,0,0
287767,151.165,-529.072,0,0
288027,151.569,-528.251,0,0
288287,151.849,-527.309,0,0
288548,151.997,-526.286,0,0
288808,152.189,-524.977,0,0
289068,152.335,-523.663,0,0
289329,152.469,-522.317,0,0
289589,152.692,-520.708,0,0
289849,152.845,-519.063,0,0
290109,153.188,-517.11,0,0
290370,153.653,-515.055,0,0
290630,154.396,-512.907,0,0
290890,155.396,-510.797,0,0
291151,156.626,-508.879,0,0
291411,157.978,-507.202,0,0
291671,159.364,-505.488,0,0
291932,160.739,-503.987,0,0
292192,162.101,-502.488,0,0
292452,163.491,-501.162,0,0
292713,164.84,-499.681,0,0
292973,166.29,-498.283,0,0
293233,167.836,-496.845,0,0
293494,169.477,-495.498,0,0
293754,171.149,-494.208,0,0
294014,172.833,-492.982,0,0
294275,174.58,-491.81,0,0
294535,176.389,-490.609,0,0
294795,178.333,-489.391,0,0
295056,180.343,-488.256,0,0
295316,182.473,-487.296,0,0
295576,184.673,-486.344,0,0
295837,186.9,-485.515,0,0
296097,189.273,-484.757,0,0
296357,191.62,-484.11,0,0
296618,194.106,-483.388,0,0
296878,196.661,-482.871,0,0
297138,199.357,-482.44,0,0
297399,202.141,-482.114,0,0
297659,205.034,-481.967,0,0
297919,208.033,-482.029,0,0
298180,211.083,-482.334,0,0
298440,213.998,-482.85,0,0
298700.2,216.935,-483.34,0,0
298960.525,219.881,-483.826,0,0
299220.85,222.95,-484.502,0,0
299481.175,226.202,-485.254,0,0
299741.5,229.643,-486.236,0,0
300001.825,233.233,-487.523,0,0
300262.15,236.801,-489.224,0,0
300522.475,240.41,-491.051,0,0
300782.8,244.075,-493.209,0,0
301043.125,247.963,-495.766,0,0
301303.45,251.744,-498.86,0,0
301563.775,255.555,-502.374,0,0
301824.1,259.249,-506.497,0,0
302084.425,262.579,-511.271,0,0
302344.75,265.552,-516.664,0,0
302605.075,267.901,-522.57,0,0
302865.4,269.593,-528.791,0,0
303125.725,270.516,-535.287,0,0
303386.05,270.683,-541.862,0,0
303646.375,270.074,-548.399,0,0
303906.7,268.747,-554.721,0,0
304167.025,266.842,-560.697,0,0
304427.35,264.511,-566.286,0,0
304687.675,261.871,-571.573,0,0
304948.0,258.934,-576.621,0,0
305208.325,255.703,-581.436,0,0
305468.65,252.114,-586.017,0,0
305728.975,248.125,-590.3,0,0
305989.3,243.826,-594.164,0,0
306249.625,239.285,-597.572,0,0
306509.95,234.61,-600.511,0,0
306770.275,229.871,-603.014,0,0
307030.6,225.165,-605.118,0,0
307290.925,220.478,-606.918,0,0
307551.25,215.794,-608.457,0,0
307811.575,211.093,-609.709,0,0
308071.9,206.402,-610.694,0,0
308332.225,201.681,-611.397,0,0
308592.55,196.95,-611.762,0,0
308852.875,192.258,-611.772,0,0
309113.2,187.69,-611.405,0,0
309373.525,183.27,-610.683,0,0
309633.85,179.149,-609.639,0,0
309894.175,175.344,-608.383,0,0
310154.5,171.851,-606.99,0,0
310414.825,168.66,-605.59,0,0
310675.15,165.718,-604.212,0,0
310935.475,162.907,-602.851,0,0
311195.8,160.244,-601.535,0,0
311456.125,157.678,-600.248,0,0
311716.45,155.181,-598.988,0,0
311976.775,152.744,-597.721,0,0
312237.1,150.346,-596.486,0,0
312497.425,147.943,-595.253,0,0
312757.75,145.546,-593.962,0,0
313018.075,143.117,-592.579,0,0
313278.4,140.778,-591.058,0,0
313538.725,138.484,-589.465,0,0
313799.05,136.309,-587.764,0,0
314059.375,134.206,-585.984,0,0
314319.7,132.241,-584.135,0,0
314580,130.376,-582.172,0,0
314840,128.672,-580.21,0,0
315101,127.093,-578.201,0,0
315361,125.716,-576.164,0,0
315621,124.424,-574.16,0,0
315882,123.312,-572.171,0,0
316142,122.344,-570.24,0,0
316402,121.469,-568.39,0,0
316663,120.694,-566.652,0,0
316923,119.957,-564.982,0,0
317183,119.22,-563.399,0,0
317444,118.516,-561.805,0,0
317704,117.87,-560.248,0,0
317964,117.286,-558.698,0,0
318225,116.748,-557.202,0,0
318485,116.245,-555.782,0,0
318745,115.774,-554.389,0,0
319006,115.349,-553.03,0,0
319266,114.933,-551.733,0,0
319526,114.592,-550.462,0,0
319787,114.248,-549.239,0,0
320047,113.911,-548.071,0,0
320307,113.636,-546.968,0,0
320567,113.318,-545.885,0,0
320828,113.043,-544.877,0,0
321088,112.751,-543.913,0,0
321348,112.41,-542.962,0,0
321609,112.084,-542.048,0,0
321869,111.741,-541.126,0,0
322129,111.427,-540.212,0,0
322390,111.109,-539.336,0,0
322650,110.816,-538.486,0,0
322910,110.509,-537.688,0,0
323171,110.187,-536.908,0,0
323431,109.816,-536.145,0,0
323691,109.453,-535.385,0,0
323952,109.065,-534.607,0,0
324212,108.68,-533.816,0,0
324472,108.338,-533.029,0,0
324733,107.968,-532.258,0,0
324993,107.622,-531.444,0,0
325253,107.292,-530.64,0,0
325514,107.067,-529.832,0,0
325774,106.886,-529.087,0,0
326034,106.719,-528.393,0,0
326295,106.583,-527.792,0,0
326555,106.417,-527.241,0,0
326815,106.243,-526.743,0,0
327076,106.049,-526.308,0,0
327336,105.806,-525.928,0,0
327596,105.505,-525.584,0,0
327857,105.179,-525.263,0,0
328117,104.801,-524.978,0,0
328377,104.347,-524.71,0,0
328638,103.841,-524.441,0,0
328898,103.287,-524.153,0,0
329158,102.699,-523.845,0,0
329419,102.108,-523.518,0,0
329679,101.475,-523.172,0,0
329939,100.853,-522.831,0,0
330200,100.155,-522.489,0,0
330460,99.4433,-522.129,0,0
330720.15,98.7449,-521.733,0,0
330980.475,97.9732,-521.462,0,0
331240.8,97.2349,-521.12,0,0
331501.125,96.3884,-520.782,0,0
331761.45,95.505,-520.41,0,0
332021.775,94.5876,-520.058,0,0
332282.1,93.6344,-519.589,0,0
332542.425,92.5725,-519.176,0,0
332802.75,91.5513,-518.628,0,0
333063.075,90.3486,-518.009,0,0
333323.4,89.264,-517.409,0,0
333583.725,88.1569,-516.711,0,0
333844.05,87.0971,-515.889,0,0
334104.375,85.9772,-515.054,0,0
334364.7,84.9189,-514.223,0,0
334625.025,83.9314,-513.293,0,0
334885.35,82.9271,-512.333,0,0
335145.675,81.9176,-511.32,0,0
335406.0,80.9451,-510.352,0,0
335666.325,79.9791,-509.293,0,0
335926.65,79.0052,-508.221,0,0
336186.975,78.0153,-507.117,0,0
336447.3,77.1671,-505.942,0,0
336707.625,76.3091,-504.806,0,0
336967.95,75.4092,-503.603,0,0
337228.275,74.5854,-502.391,0,0
337488.6,73.825,-501.048,0,0
337748.925,73.1065,-499.814,0,0
338009.25,72.3997,-498.465,0,0
338269.575,71.7147,-497.216,0,0
338529.9,71.0641,-495.973,0,0
338790.225,70.4799,-494.663,0,0
339050.55,69.8694,-493.326,0,0
339310.875,69.3052,-492.033,0,0
339571.2,68.8154,-490.699,0,0
339831.525,68.19,-489.444,0,0
340091.85,67.7118,-487.998,0,0
340352.175,67.1838,-486.715,0,0
340612.5,66.7457,-485.343,0,0
340872.825,66.3109,-483.943,0,0
341133.15,65.8962,-482.596,0,0
341393.475,65.5459,-481.138,0,0
341653.8,65.1822,-479.706,0,0
341914.125,64.9441,-478.267,0,0
342174.45,64.6795,-476.831,0,0
342434.775,64.5157,-475.467,0,0
342695.1,64.3721,-474.007,0,0
342955.425,64.2383,-472.635,0,0
343215.75,64.2174,-471.227,0,0
343476.075,64.2022,-469.849,0,0
343736.4,64.2093,-468.507,0,0
343996.725,64.3337,-467.122,0,0
344257.05,64.4251,-465.849,0,0
344517.375,64.6407,-464.611,0,0
344777.7,64.8494,-463.421,0,0
345038.025,65.0442,-462.312,0,0
345298.35,65.3072,-461.216,0,0
345558.675,65.564,-460.193,0,0
345819.0,65.7469,-459.277,0,0
346079.325,66.0071,-458.426,0,0
346339.65,66.161,-457.667,0,0
346599.975,66.2873,-456.862,0,0
346860,66.3358,-456.102,0,0
347121,66.3452,-455.384,0,0
347381,66.2767,-454.628,0,0
347641,66.1545,-453.894,0,0
347902,66.0211,-453.14,0,0
348162,65.7825,-452.356,0,0
348422,65.5443,-451.53,0,0
348683,65.2351,-450.621,0,0
348943,65.0015,-449.6,0,0
349203,64.7616,-448.597,0,0
349464,64.5384,-447.518,0,0
349724,64.3422,-446.473,0,0
349984,64.208,-445.368,0,0
350245,64.0857,-444.282,0,0
350505,63.8757,-443.164,0,0
350765,63.7322,-441.96,0,0
351025,63.6448,-440.743,0,0
351286,63.5542,-439.445,0,0
351546,63.5917,-438.109,0,0
351806,63.6828,-436.83,0,0
352067,63.8325,-435.5,0,0
352327,64.0783,-434.235,0,0
352587,64.36,-433.03,0,0
352848,64.7601,-431.796,0,0
353108,65.1032,-430.63,0,0
353368,65.4854,-429.506,0,0
353629,65.908,-428.452,0,0
353889,66.4091,-427.401,0,0
354149,66.898,-426.444,0,0
354410,67.4113,-425.52,0,0
354670,67.947,-424.612,0,0
354930,68.4592,-423.812,0,0
355191,69.0336,-423.075,0,0
355451,69.5489,-422.44,0,0
355711,70.0828,-421.849,0,0
355972,70.5287,-421.331,0,0
356232,70.9132,-420.911,0,0
356492,71.18,-420.549,0,0
356753,71.4093,-420.178,0,0
357013,71.5227,-419.805,0,0
357273,71.565,-419.432,0,0
357534,71.4648,-418.993,0,0
357794,71.3336,-418.54,0,0
358054,71.1138,-417.962,0,0
358315,70.8699,-417.303,0,0
358575,70.5735,-416.544,0,0
358835,70.3037,-415.761,0,0
359096,70.0502,-414.814,0,0
359356,69.8422,-413.793,0,0
359616,69.7303,-412.744,0,0
359877,69.6342,-411.623,0,0
360137,69.5992,-410.499,0,0
360397,69.6476,-409.304,0,0
360658,69.6998,-408.125,0,0
360918,69.8622,-406.916,0,0
361178,70.0374,-405.681,0,0
361438,70.3788,-404.528,0,0
361699,70.7336,-403.33,0,0
361959,71.1391,-402.186,0,0
362219,71.547,-401.055,0,0
362480,72.0038,-399.975,0,0
362740.1,72.4957,-398.951,0,0
363000.425,73.0122,-397.91,0,0
363260.75,73.5089,-396.875,0,0
363521.075,74.0737,-395.862,0,0
363781.4,74.6467,-394.835,0,0
364041.725,75.286,-393.858,0,0
364302.05,75.9506,-392.908,0,0
364562.375,76.6611,-392.014,0,0
364822.7,77.4096,-391.136,0,0
365083.025,78.2031,-390.337,0,0
365343.35,79.0246,-389.561,0,0
365603.675,79.8235,-388.919,0,0
365864.0,80.6326,-388.341,0,0
366124.325,81.358,-387.821,0,0
366384.65,82.0722,-387.31,0,0
366644.975,82.7325,-386.812,0,0
366905.3,83.3849,-386.296,0,0
367165.625,84.0547,-385.789,0,0
367425.95,84.7478,-385.306,0,0
367686.275,85.4572,-384.869,0,0
367946.6,86.1389,-384.497,0,0
368206.925,86.7769,-384.091,0,0
368467.25,87.4391,-383.789,0,0
368727.575,88.055,-383.472,0,0
368987.9,88.6865,-383.227,0,0
369248.225,89.3618,-382.95,0,0
369508.55,89.9386,-382.761,0,0
369768.875,90.5539,-382.661,0,0
370029.2,91.0314,-382.576,0,0
370289.525,91.5232,-382.596,0,0
370549.85,91.8376,-382.674,0,0
370810.175,92.0529,-382.701,0,0
371070.5,92.1826,-382.698,0,0
371330.825,92.1851,-382.6,0,0
371591.15,92.1172,-382.467,0,0
371851.475,92.0072,-382.194,0,0
372111.8,91.8966,-381.801,0,0
372372.125,91.8215,-381.386,0,0
372632.45,91.7435,-380.786,0,0
372892.775,91.8063,-380.171,0,0
373153.1,91.8491,-379.504,0,0
373413.425,91.9578,-378.83,0,0
373673.75,92.199,-378.127,0,0
373934.075,92.4372,-377.418,0,0
374194.4,92.7374,-376.774,0,0
374454.725,93.1271,-376.11,0,0
374715.05,93.5405,-375.527,0,0
374975.375,93.9505,-374.977,0,0
375235.7,94.3845,-374.488,0,0
375496.025,94.7933,-373.949,0,0
375756.35,95.2119,-373.522,0,0
376016.675,95.6177,-373.144,0,0
376277.0,95.9457,-372.799,0,0
376537.325,96.2151,-372.488,0,0
376797.65,96.3727,-372.091,0,0
377057.975,96.5976,-371.684,0,0
377318.3,96.7546,-371.231,0,0
377578.625,96.8971,-370.684,0,0
377838.95,97.0851,-370.104,0,0
378099.275,97.314,-369.504,0,0
378359.6,97.5153,-368.891,0,0
378619.925,97.8269,-368.198,0,0
378880,98.1514,-367.544,0,0
379141,98.5278,-366.901,0,0
379401,98.9121,-366.277,0,0
379661,99.348,-365.662,0,0
379922,99.7473,-365.155,0,0
380182,100.18,-364.583,0,0
380442,100.585,-364.023,0,0
380703,100.954,-363.49,0,0
380963,101.392,-362.854,0,0
381223,101.789,-362.259,0,0
381483,102.247,-361.631,0,0
381744,102.727,-361.046,0,0
382004,103.209,-360.462,0,0
382264,103.732,-359.854,0,0
382525,104.261,-359.239,0,0
382785,104.83,-358.701,0,0
383045,105.398,-358.147,0,0
383306,106.021,-357.679,0,0
383566,106.588,-357.22,0,0
383826,107.175,-356.738,0,0
384087,107.695,-356.267,0,0
384347,108.312,-355.793,0,0
384607,108.874,-355.351,0,0
384868,109.458,-354.948,0,0
385128,110.04,-354.519,0,0
385388,110.554,-354.093,0,0
385649,111.129,-353.718,0,0
385909,111.687,-353.279,0,0
386169,112.229,-352.85,0,0
386430,112.734,-352.48,0,0
386690,113.256,-352.088,0,0
386950,113.756,-351.683,0,0
387211,114.163,-351.254,0,0
387471,114.564,-350.759,0,0
387731,114.963,-350.146,0,0
387992,115.348,-349.441,0,0
388252,115.907,-348.648,0,0
388512,116.574,-347.762,0,0
388773,117.364,-346.959,0,0
389033,118.284,-346.13,0,0
389293,119.301,-345.411,0,0
389554,120.39,-344.8,0,0
389814,121.479,-344.27,0,0
390074,122.591,-343.772,0,0
390335,123.724,-343.4,0,0
390595,124.851,-343.012,0,0
390855,126.012,-342.684,0,0
391116,127.172,-342.408,0,0
391376,128.312,-342.241,0,0
391636,129.417,-342.114,0,0
391896,130.529,-342.022,0,0
392157,131.598,-341.965,0,0
392417,132.634,-341.95,0,0
392677,133.597,-341.948,0,0
392938,134.571,-341.966,0,0
393198,135.505,-341.964,0,0
393458,136.349,-341.943,0,0
393719,137.165,-341.866,0,0
393979,137.991,-341.764,0,0
394239,138.803,-341.575,0,0
394500,139.695,-341.311,0,0
394760.05,140.616,-341.038,0,0
395020.375,141.656,-340.664,0,0
395280.7,142.788,-340.345,0,0
395541.025,144.025,-339.976,0,0
395801.35,145.278,-339.667,0,0
396061.675,146.685,-339.347,0,0
396322.0,148.136,-339.072,0,0
396582.325,149.728,-338.794,0,0
396842.65,151.456,-338.61,0,0
397102.975,153.253,-338.481,0,0
397363.3,155.246,-338.444,0,0
397623.625,157.307,-338.496,0,0
397883.95,159.565,-338.729,0,0
398144.275,161.887,-339.119,0,0
398404.6,164.377,-339.739,0,0
398664.925,166.918,-340.601,0,0
398925.25,169.493,-341.757,0,0
399185.575,172.123,-343.247,0,0
399445.9,174.619,-345.075,0,0
399706.225,177.022,-347.205,0,0
399966.55,179.199,-349.603,0,0
400006.6,179.529,-349.982,0,0