File: Accelerated corrosion test data/2025-10-23_18-00-04/sample_3.csv
Frequency (Hz),Impedance (ohms),Phase (Radians),Temperature (C),Humidity (%)
10000.0,251.194,-11908.3,0,0
10260.325,245.138,-11608.3,0,0
10520.65,239.769,-11322.3,0,0
10780.975,236.019,-11049.5,0,0
11041.3,229.301,-10795.6,0,0
11301.625,224.059,-10547.6,0,0
11561.95,219.49,-10311.8,0,0
11822.275,214.665,-10085.9,0,0
12082.6,212.035,-9870.45,0,0
12342.925,210.963,-9662.64,0,0
12603.25,202.924,-9465.99,0,0
12863.575,199.729,-9274.21,0,0
13123.9,199.857,-9089.4,0,0
13384.225,192.762,-8919.71,0,0
13644.55,190.248,-8749.64,0,0
13904.875,185.963,-8584.39,0,0
14165.2,184.587,-8427.6,0,0
14425.525,180.419,-8275.65,0,0
14685.8,179.475,-8127.37,0,0
14946.175,176.339,-7987.73,0,0
15206.5,174.83,-7844.6,0,0
15466.825,188.246,-7707.3,0,0
15727.15,190.324,-7605.7,0,0
15987.5,171.332,-7490.18,0,0
16247.8,168.114,-7360.45,0,0
16508.125,161.303,-7246.08,0,0
16768.45,171.332,-7126.3,0,0
17028.775,157.013,-7025.31,0,0
17289.1,163.768,-6911.72,0,0
17549.425,155.747,-6818.08,0,0
17809.75,156.291,-6713.15,0,0
18070.075,160.197,-6627.99,0,0
18330.4,151.593,-6529.51,0,0
18590.725,148.756,-6438.49,0,0
18851.05,145.204,-6346.5,0,0
19111.375,146.059,-6258.19,0,0
19371.7,145.03,-6171.61,0,0
19632.025,147.829,-6086.09,0,0
19892.35,149.515,-6012.87,0,0
20152.675,148.112,-5926.81,0,0
20413.0,166.079,-5853.96,0,0
20673.3,161.758,-5790.8,0,0
20933.65,164.694,-5730.47,0,0
21193.975,160.868,-5665.72,0,0
21454.3,145.09,-5604.99,0,0
21714.625,139.378,-5528.32,0,0
21974.9,144.369,-5461.98,0,0
22235.275,138.713,-5402.67,0,0
22495.6,136.233,-5340.59,0,0
22755.925,128.888,-5279.98,0,0
23016.25,128.404,-5219.55,0,0
23276.6,128.458,-5157.06,0,0
23536.9,129.076,-5111.21,0,0
23797.225,121.022,-5051.88,0,0
24057.55,119.111,-4993.62,0,0
24317.875,119.255,-4938.1,0,0
24578.2,116.719,-4887.65,0,0
24838.525,117.607,-4834.13,0,0
25098.85,115.369,-4785.95,0,0
25359.175,113.507,-4735.4,0,0
25619.5,113.882,-4687.81,0,0
25879.8,110.956,-4640.47,0,0
26140.1,108.615,-4592.68,0,0
26400.5,107.98,-4544.86,0,0
26660.8,107.925,-4499.37,0,0
26921.1,109.058,-4454.76,0,0
27181.4,109.164,-4414.15,0,0
27441.8,107.384,-4369.92,0,0
27702.1,108.407,-4330.71,0,0
27962.4,105.537,-4288.97,0,0
28222.7,104.049,-4245.72,0,0
28483.1,111.93,-4203.36,0,0
28743.4,115,-4168.94,0,0
29003.7,116.534,-4140.53,0,0
29264,108.45,-4105.23,0,0
29524.4,108.472,-4067.8,0,0
29784.7,104.294,-4032,0,0
30045,102.264,-3998.15,0,0
30305.3,101.723,-3959.91,0,0
30565.7,102.085,-3926.65,0,0
30826,102.051,-3893.94,0,0
31086.3,102.555,-3860.28,0,0
31346.6,99.4624,-3830.23,0,0
31607,98.1639,-3795.82,0,0
31867.3,98.895,-3761.29,0,0
32127.6,102.267,-3727.19,0,0
32387.9,111.697,-3699.79,0,0
32648.3,113.989,-3682.58,0,0
32908.6,104.036,-3657.69,0,0
33168.9,101.255,-3630.73,0,0
33429.2,99.2317,-3603.07,0,0
33689.6,92.6934,-3574.65,0,0
33949.9,90.7807,-3543.95,0,0
34210.2,90.9945,-3515.89,0,0
34470.5,90.2461,-3489.71,0,0
34730.9,87.7464,-3463.35,0,0
34991.2,86.0265,-3436.09,0,0
35251.5,85.6003,-3409.49,0,0
35511.8,85.0248,-3384.45,0,0
35772.2,83.9062,-3358.93,0,0
36032.5,83.3346,-3334.02,0,0
36292.8,82.5203,-3309.05,0,0
36553.1,82.2401,-3285.51,0,0
36813.5,81.3626,-3261.78,0,0
37073.8,80.6877,-3238.21,0,0
37334.1,80.1354,-3214.79,0,0
37594.4,79.7623,-3191.89,0,0
37854.8,79.3737,-3169.56,0,0
38115.1,78.703,-3147.66,0,0
38375.4,78.1338,-3125.34,0,0
38635.7,77.8822,-3103.8,0,0
38896.1,77.4645,-3082.4,0,0
39156.4,77.2652,-3061.41,0,0
39416.7,77.002,-3041,0,0
39677,76.2169,-3020.55,0,0
39937.4,75.4814,-3000.13,0,0
40197.7,75.3802,-2980.23,0,0
40458,74.7831,-2960.51,0,0
40718.3,74.5851,-2940.67,0,0
40978.7,74.2073,-2921.36,0,0
41239,74.0638,-2901.93,0,0
41499.3,74.446,-2883.89,0,0
41759.6,74.4419,-2865.1,0,0
42020,73.8126,-2847.6,0,0
42280.275,73.2874,-2829.2,0,0
42540.6,73.1547,-2811.59,0,0
42800.925,72.9995,-2794.27,0,0
43061.25,72.6634,-2776.98,0,0
43321.575,71.9468,-2759.57,0,0
43581.9,71.7883,-2742.23,0,0
43842.225,71.7694,-2725.31,0,0
44102.55,72.1673,-2708.71,0,0
44362.875,71.9382,-2692.93,0,0
44623.2,71.4856,-2676.79,0,0
44883.525,71.0868,-2660.64,0,0
45143.85,70.9638,-2644.71,0,0
45404.175,70.5251,-2629.51,0,0
45664.5,70.1766,-2613.56,0,0
45924.825,70.9567,-2598.14,0,0
46185.15,70.2295,-2583.94,0,0
46445.475,69.8131,-2568.38,0,0
46705.8,69.6071,-2553.01,0,0
46966.125,70.1572,-2538.7,0,0
47226.45,69.4239,-2524.19,0,0
47486.775,69.8282,-2509.66,0,0
47747.1,70.0749,-2495.35,0,0
48007.425,70.3502,-2482.31,0,0
48267.75,70.3036,-2468.59,0,0
48528.075,69.7378,-2455.62,0,0
48788.4,69.156,-2442.31,0,0
49048.725,68.458,-2429.04,0,0
49309.05,67.7739,-2415.42,0,0
49569.375,67.7474,-2401.96,0,0
49829.7,67.5786,-2389.33,0,0
50090.025,66.9066,-2376.57,0,0
50350.35,66.3666,-2363.38,0,0
50610.675,66.1831,-2350.37,0,0
50871.0,66.0855,-2337.4,0,0
51131.325,65.9991,-2325.02,0,0
51391.65,65.9306,-2312.37,0,0
51651.975,65.8946,-2299.89,0,0
51912.3,65.9123,-2288.09,0,0
52172.625,65.8175,-2275.73,0,0
52432.95,65.6786,-2263.72,0,0
52693.275,65.8128,-2251.66,0,0
52953.6,66.2041,-2239.78,0,0
53213.925,66.7719,-2228.01,0,0
53474.25,67.6235,-2216.91,0,0
53734.575,67.8612,-2205.89,0,0
53994.9,68.0441,-2195.01,0,0
54255.225,68.8654,-2184.29,0,0
54515.55,69.7254,-2174.62,0,0
54775.875,69.1702,-2165.54,0,0
55036.2,68.3975,-2155.31,0,0
55296.525,67.7836,-2145.83,0,0
55556.85,66.4318,-2135.81,0,0
55817.175,64.9897,-2125.5,0,0
56077.5,64.0196,-2114.82,0,0
56337.825,63.2562,-2104.12,0,0
56598.15,62.2541,-2093.45,0,0
56858.475,61.6325,-2082.84,0,0
57118.8,61.021,-2072.02,0,0
57379.125,60.8888,-2061.25,0,0
57639.45,60.7942,-2050.7,0,0
57899.775,61.0399,-2040.5,0,0
58160.1,60.9305,-2030.37,0,0
58420.4,60.6752,-2020.38,0,0
58680.7,60.8365,-2010.21,0,0
58941.1,60.8855,-2000.12,0,0
59201.4,61.1261,-1990.32,0,0
59461.7,61.3805,-1980.68,0,0
59722,61.6466,-1971.01,0,0
59982.4,61.9223,-1961.53,0,0
60242.7,62.1841,-1952.24,0,0
60503,62.4433,-1942.88,0,0
60763.3,62.7585,-1933.64,0,0
61023.7,63.0177,-1924.43,0,0
61284,63.275,-1915.31,0,0
61544.3,63.8084,-1905.97,0,0
61804.6,64.3259,-1897.38,0,0
62065,64.6489,-1888.18,0,0
62325.3,65.412,-1879.28,0,0
62585.6,65.9677,-1870.65,0,0
62845.9,66.2745,-1861.79,0,0
63106.3,67.0923,-1852.35,0,0
63366.6,68.5479,-1843.9,0,0
63626.9,69.4636,-1835.28,0,0
63887.2,70.6642,-1826.91,0,0
64147.6,71.983,-1817.87,0,0
64407.9,74.7258,-1809.22,0,0
64668.2,77.3454,-1801.65,0,0
64928.5,80.1675,-1794.3,0,0
65188.9,83.8716,-1788.21,0,0
65449.2,86.9561,-1782.89,0,0
65709.5,89.252,-1779.64,0,0
65969.8,91.3044,-1776.5,0,0
66230.2,91.1148,-1775.73,0,0
66490.5,85.424,-1774.41,0,0
66750.8,80.1141,-1767.05,0,0
67011.1,77.5711,-1758.15,0,0
67271.5,75.4202,-1749.81,0,0
67531.8,74.7288,-1741.51,0,0
67792.1,74.5614,-1733.07,0,0
68052.4,74.833,-1725.38,0,0
68312.8,75.9462,-1718.36,0,0
68573.1,75.8829,-1711.94,0,0
68833.4,76.2456,-1705.1,0,0
69093.7,77.0629,-1698.72,0,0
69354.1,77.5952,-1693.35,0,0
69614.4,77.222,-1687.86,0,0
69874.7,76.631,-1682.48,0,0
70135,75.7624,-1676.76,0,0
70395.4,74.9653,-1670.62,0,0
70655.7,73.919,-1664.89,0,0
70916,72.7373,-1658.73,0,0
71176.3,71.4761,-1652.3,0,0
71436.7,70.5309,-1645.29,0,0
71697,69.8962,-1638.34,0,0
71957.3,69.9421,-1631.4,0,0
72217.6,70.2626,-1625.02,0,0
72478,70.3612,-1619.1,0,0
72738.3,70.461,-1613.3,0,0
72998.6,70.2395,-1607.89,0,0
73258.9,69.7958,-1602.15,0,0
73519.3,69.3149,-1596.38,0,0
73779.6,69.1312,-1590.81,0,0
74039.9,68.4874,-1585.38,0,0
74300.225,67.7155,-1579.88,0,0
74560.55,66.9465,-1574.15,0,0
74820.875,66.2327,-1568.51,0,0
75081.2,65.4063,-1562.85,0,0
75341.525,64.6192,-1557.08,0,0
75601.85,63.8021,-1551.32,0,0
75862.175,62.9435,-1545.43,0,0
76122.5,62.2361,-1539.54,0,0
76382.825,61.5674,-1533.62,0,0
76643.15,60.9247,-1527.82,0,0
76903.475,60.3997,-1521.94,0,0
77163.8,59.8652,-1516.07,0,0
77424.125,59.3045,-1510.33,0,0
77684.45,58.7368,-1504.65,0,0
77944.775,58.1843,-1498.9,0,0
78205.1,57.6997,-1493.11,0,0
78465.425,57.1673,-1487.38,0,0
78725.75,56.696,-1481.59,0,0
78986.075,56.2772,-1475.89,0,0
79246.4,55.8294,-1470.18,0,0
79506.725,55.4941,-1464.5,0,0
79767.05,55.1074,-1458.84,0,0
80027.375,54.8136,-1453.09,0,0
80287.7,54.6326,-1447.56,0,0
80548.025,54.3495,-1441.99,0,0
80808.35,54.0682,-1436.49,0,0
81068.675,53.8741,-1431.03,0,0
81329.0,53.6401,-1425.55,0,0
81589.325,53.503,-1420.06,0,0
81849.65,53.3048,-1414.67,0,0
82109.975,53.1291,-1409.31,0,0
82370.3,53.0355,-1403.93,0,0
82630.625,52.9398,-1398.65,0,0
82890.95,52.7754,-1393.4,0,0
83151.275,52.729,-1388.18,0,0
83411.6,52.6436,-1382.94,0,0
83671.925,52.5265,-1377.8,0,0
83932.25,52.5299,-1372.6,0,0
84192.575,52.4711,-1367.52,0,0
84452.9,52.3721,-1362.42,0,0
84713.225,52.3317,-1357.36,0,0
84973.55,52.2729,-1352.29,0,0
85233.875,52.3235,-1347.33,0,0
85494.2,52.3088,-1342.28,0,0
85754.525,52.2665,-1337.32,0,0
86014.85,52.2882,-1332.46,0,0
86275.175,52.2978,-1327.53,0,0
86535.5,52.319,-1322.65,0,0
86795.825,52.3002,-1317.78,0,0
87056.15,52.3762,-1312.9,0,0
87316.475,52.4249,-1308.04,0,0
87576.8,52.5372,-1303.15,0,0
87837.125,52.6653,-1298.38,0,0
88097.45,52.6889,-1293.68,0,0
88357.775,52.8638,-1288.94,0,0
88618.1,52.9718,-1284.12,0,0
88878.425,53.2288,-1279.25,0,0
89138.75,53.59,-1274.5,0,0
89399.075,54.117,-1269.81,0,0
89659.4,54.5851,-1265.3,0,0
89919.725,55.0102,-1261.01,0,0
90180,55.3292,-1256.6,0,0
90440.4,55.6544,-1252.28,0,0
90700.7,55.9983,-1248.03,0,0
90961,56.3155,-1243.76,0,0
91221.3,56.7445,-1239.52,0,0
91481.7,57.154,-1235.34,0,0
91742,57.5105,-1231.17,0,0
92002.3,57.9402,-1227.13,0,0
92262.6,58.2605,-1222.95,0,0
92523,58.9512,-1219.08,0,0
92783.3,59.4684,-1215.32,0,0
93043.6,59.7577,-1211.44,0,0
93303.9,60.4325,-1207.56,0,0
93564.3,61.2573,-1204.11,0,0
93824.6,61.8554,-1201.15,0,0
94084.9,62.1479,-1198.41,0,0
94345.2,61.7205,-1195.78,0,0
94605.6,61.0837,-1192.61,0,0
94865.9,60.5286,-1189.48,0,0
95126.2,59.5802,-1186.39,0,0
95386.5,58.1594,-1182.75,0,0
95646.9,57.0171,-1178.63,0,0
95907.2,56.2014,-1174.24,0,0
96167.5,55.6163,-1169.81,0,0
96427.8,55.3135,-1165.31,0,0
96688.2,55.1544,-1161.06,0,0
96948.5,55.0862,-1156.77,0,0
97208.8,55.0127,-1152.73,0,0
97469.1,54.936,-1148.68,0,0
97729.5,54.9144,-1144.66,0,0
97989.8,54.8205,-1140.58,0,0
98250.1,54.8106,-1136.63,0,0
98510.4,54.8346,-1132.62,0,0
98770.8,54.8783,-1128.71,0,0
99031.1,54.8952,-1124.9,0,0
99291.4,54.7851,-1120.97,0,0
99551.7,54.7897,-1117.14,0,0
99812.1,54.6806,-1113.24,0,0
100072,54.6922,-1109.28,0,0
100333,54.6606,-1105.38,0,0
100593,54.5755,-1101.48,0,0
100853,54.4726,-1097.5,0,0
101114,54.5166,-1093.31,0,0
101374,54.6688,-1089.33,0,0
101634,54.8281,-1085.17,0,0
101895,55.1825,-1081.01,0,0
102155,55.5884,-1077,0,0
102415,56.1004,-1072.86,0,0
102676,56.9936,-1068.89,0,0
102936,57.7754,-1065.23,0,0
103196,58.6116,-1061.75,0,0
103457,59.2001,-1058.39,0,0
103717,59.8152,-1054.89,0,0
103977,60.6517,-1051.37,0,0
104238,61.6865,-1048.33,0,0
104498,62.4837,-1045.57,0,0
104758,62.9443,-1043.02,0,0
105019,63.0949,-1040.39,0,0
105279,63.182,-1037.42,0,0
105539,63.3341,-1034.57,0,0
105800,63.4562,-1031.86,0,0
106060,63.3584,-1029.08,0,0
106320.175,63.1117,-1026.36,0,0
106580.5,62.7903,-1023.32,0,0
106840.825,62.6313,-1020.32,0,0
107101.15,62.224,-1017.33,0,0
107361.475,61.8047,-1014.16,0,0
107621.8,61.4688,-1010.94,0,0
107882.125,61.1047,-1007.72,0,0
108142.45,60.7684,-1004.44,0,0
108402.775,60.3496,-1001.1,0,0
108663.1,59.9224,-997.532,0,0
108923.425,59.5256,-993.847,0,0
109183.75,59.4334,-990.137,0,0
109444.075,59.4332,-986.436,0,0
109704.4,59.3969,-982.865,0,0
109964.725,59.4181,-979.186,0,0
110225.05,59.5157,-975.591,0,0
110485.375,59.4996,-971.79,0,0
110745.7,59.8524,-967.963,0,0
111006.025,60.3724,-964.34,0,0
111266.35,60.8633,-960.717,0,0
111526.675,61.4468,-957.553,0,0
111787.0,62.0073,-954.195,0,0
112047.325,62.4209,-951.041,0,0
112307.65,62.8255,-947.876,0,0
112567.975,63.1751,-944.714,0,0
112828.3,63.5442,-941.556,0,0
113088.625,63.8902,-938.408,0,0
113348.95,64.0793,-935.334,0,0
113609.275,64.365,-932.16,0,0
113869.6,64.509,-928.882,0,0
114129.925,64.8083,-925.641,0,0
114390.25,65.0173,-922.482,0,0
114650.575,65.2198,-919.077,0,0
114910.9,65.4998,-915.62,0,0
115171.225,65.8537,-912.172,0,0
115431.55,66.4076,-908.626,0,0
115691.875,67.0721,-905.341,0,0
115952.2,67.5757,-902.041,0,0
116212.525,68.1328,-898.598,0,0
116472.85,68.8695,-895.102,0,0
116733.175,69.7781,-891.782,0,0
116993.5,70.57,-888.466,0,0
117253.825,71.4612,-885.072,0,0
117514.15,72.4651,-881.662,0,0
117774.475,73.8215,-878.129,0,0
118034.8,75.6738,-875.013,0,0
118295.125,77.441,-872.467,0,0
118555.45,78.9027,-870.252,0,0
118815.775,79.8375,-868.061,0,0
119076.1,80.8386,-865.337,0,0
119336.425,82.2505,-862.589,0,0
119596.75,84.1345,-860.036,0,0
119857.075,86.2822,-858.137,0,0
120117.4,88.1754,-857.002,0,0
120377.725,89.5708,-856.7,0,0
120638.05,89.8688,-856.365,0,0
120898.375,89.6221,-855.744,0,0
121158.7,88.8791,-854.811,0,0
121419.025,87.6659,-853.281,0,0
121679.35,86.4833,-850.957,0,0
121939.675,85.6962,-848.156,0,0
122200.0,85.3648,-845.227,0,0
122460,85.2413,-842.317,0,0
122721,85.3941,-839.342,0,0
122981,85.8093,-836.583,0,0
123241,86.227,-834.007,0,0
123502,86.6246,-831.547,0,0
123762,86.9619,-829.112,0,0
124022,87.3463,-826.673,0,0
124283,87.7837,-824.297,0,0
124543,88.2237,-821.946,0,0
124803,88.6329,-819.7,0,0
125064,88.9914,-817.441,0,0
125324,89.4901,-815.226,0,0
125584,89.9056,-813.121,0,0
125845,90.3882,-811.145,0,0
126105,90.6936,-809.318,0,0
126365,90.7696,-807.534,0,0
126626,90.7539,-805.54,0,0
126886,90.7517,-803.486,0,0
127146,90.7841,-801.576,0,0
127406,90.78,-799.519,0,0
127667,90.5849,-797.456,0,0
127927,90.464,-795.444,0,0
128187,90.1942,-793.435,0,0
128448,89.8006,-791.286,0,0
128708,89.4607,-788.9,0,0
128968,89.1944,-786.519,0,0
129229,88.9979,-784.042,0,0
129489,88.8675,-781.614,0,0
129749,88.6554,-779.098,0,0
130010,88.6514,-776.441,0,0
130270,88.8329,-773.869,0,0
130530,89.0244,-771.519,0,0
130791,89.326,-769.187,0,0
131051,89.5155,-767.183,0,0
131311,89.4783,-765.14,0,0
131572,89.352,-763.078,0,0
131832,89.0655,-760.994,0,0
132092,88.7197,-758.717,0,0
132353,88.4951,-756.34,0,0
132613,88.3394,-753.984,0,0
132873,88.145,-751.744,0,0
133134,87.8477,-749.48,0,0
133394,87.5183,-747.119,0,0
133654,87.1434,-744.715,0,0
133915,86.7498,-742.249,0,0
134175,86.4438,-739.598,0,0
134435,86.2658,-736.989,0,0
134696,86.0758,-734.584,0,0
134956,85.6929,-732.097,0,0
135216,85.3476,-729.387,0,0
135477,85.1281,-726.755,0,0
135737,84.8582,-724.12,0,0
135997,84.5719,-721.502,0,0
136258,84.1797,-718.863,0,0
136518,83.6905,-715.982,0,0
136778,83.3951,-712.91,0,0
137039,83.2507,-709.793,0,0
137299,83.2381,-706.674,0,0
137559,83.4287,-703.601,0,0
137819,83.7607,-700.646,0,0
138080,84.0322,-697.946,0,0
138340.125,84.2403,-695.255,0,0
138600.45,84.5059,-692.555,0,0
138860.775,84.7715,-690.073,0,0
139121.1,84.8512,-687.629,0,0
139381.425,84.775,-685.2,0,0
139641.75,84.5291,-682.687,0,0
139902.075,84.1894,-679.9,0,0
140162.4,84.1986,-677.042,0,0
140422.725,84.1626,-674.375,0,0
140683.05,83.9823,-671.734,0,0
140943.375,83.6922,-669.04,0,0
141203.7,83.2856,-666.188,0,0
141464.025,82.8957,-663.173,0,0
141724.35,82.5657,-659.999,0,0
141984.675,82.3674,-656.79,0,0
142245.0,82.2259,-653.583,0,0
142505.325,82.0822,-650.333,0,0
142765.65,81.9503,-647.054,0,0
143025.975,81.8747,-643.616,0,0
143286.3,81.8628,-640.23,0,0
143546.625,81.9019,-636.8,0,0
143806.95,81.9327,-633.361,0,0
144067.275,82.0066,-629.822,0,0
144327.6,82.1592,-626.24,0,0
144587.925,82.3688,-622.63,0,0
144848.25,82.6354,-618.986,0,0
145108.575,83.0282,-615.296,0,0
145368.9,83.491,-611.717,0,0
145629.225,83.8405,-608.168,0,0
145889.55,84.1439,-604.461,0,0
146149.875,84.5481,-600.58,0,0
146410.2,85.1941,-596.669,0,0
146670.525,85.8844,-592.909,0,0
146930.85,86.5215,-589.095,0,0
147191.175,87.2236,-585.207,0,0
147451.5,87.9697,-581.242,0,0
147711.825,88.858,-577.211,0,0
147972.15,89.9073,-573.187,0,0
148232.475,91.0186,-569.243,0,0
148492.8,92.1061,-565.316,0,0
148753.125,93.2041,-561.289,0,0
149013.45,94.4263,-557.099,0,0
149273.775,95.8265,-552.877,0,0
149534.1,97.4492,-548.588,0,0
149794.425,99.3294,-544.347,0,0
150054.75,101.397,-540.333,0,0
150315.075,103.554,-536.427,0,0
150575.4,105.745,-532.601,0,0
150835.725,108.07,-528.861,0,0
151096.05,110.518,-525.3,0,0
151356.375,112.951,-521.837,0,0
151616.7,115.479,-518.47,0,0
151877.025,118.132,-515.313,0,0
152137.35,120.701,-512.419,0,0
152397.675,123.122,-509.671,0,0
152658.0,125.388,-506.996,0,0
152918.325,127.536,-504.241,0,0
153178.65,129.706,-501.513,0,0
153438.975,131.794,-498.861,0,0
153699.3,133.762,-496.167,0,0
153959.625,135.75,-493.352,0,0
154219.95,137.804,-490.63,0,0
154480,139.71,-488.022,0,0
154741,141.216,-485.264,0,0
155001,142.908,-482.045,0,0
155261,144.916,-478.698,0,0
155522,147.141,-475.466,0,0
155782,149.368,-472.402,0,0
156042,151.498,-469.379,0,0
156303,153.588,-466.241,0,0
156563,155.527,-462.86,0,0
156823,158.041,-459.101,0,0
157084,161.134,-455.533,0,0
157344,164.552,-452.503,0,0
157604,168.043,-449.872,0,0
157864,171.323,-447.899,0,0
158125,174.138,-446.446,0,0
158385,176.21,-445.021,0,0
158645,177.58,-443.271,0,0
158906,178.561,-441.041,0,0
159166,179.171,-438.353,0,0
159426,179.572,-434.648,0,0
159687,180.617,-430.32,0,0
159947,181.817,-425.449,0,0
160207,183.877,-419.852,0,0
160468,187.161,-414.475,0,0
160728,190.509,-410,0,0
160988,193.408,-405.447,0,0
161249,196.287,-399.866,0,0
161509,200.513,-393.929,0,0
161769,205.625,-388.735,0,0
162030,210.754,-384.203,0,0
162290,215.439,-379.632,0,0
162550,220.335,-374.449,0,0
162811,225.985,-369.157,0,0
163071,232.171,-363.856,0,0
163331,239.073,-358.565,0,0
163592,246.679,-353.279,0,0
163852,255.59,-348.417,0,0
164112,265.222,-344.552,0,0
164373,275.261,-341.541,0,0
164633,285.413,-339.527,0,0
164893,295.735,-338.038,0,0
165154,306.401,-337.189,0,0
165414,317.577,-337.219,0,0
165674,329.036,-338.624,0,0
165935,339.779,-341.358,0,0
166195,350.261,-344.397,0,0
166455,361.15,-348.616,0,0
166716,371.352,-354.795,0,0
166976,379.779,-362.095,0,0
167236,386.528,-369.205,0,0
167497,392.998,-376.086,0,0
167757,398.86,-383.556,0,0
168017,403.511,-391.147,0,0
168277,407.514,-398.657,0,0
168538,410.543,-406.153,0,0
168798,412.692,-413.085,0,0
169058,415.156,-419.48,0,0
169319,417.503,-426.913,0,0
169579,418.13,-434.847,0,0
169839,417.135,-442.16,0,0
170100,414.905,-447.974,0,0
170360.075,412.568,-452.126,0,0
170620.4,410.797,-455.1,0,0
170880.725,409.848,-457.834,0,0
171141.05,408.873,-460.726,0,0
171401.375,407.55,-462.608,0,0
171661.7,407.158,-464.048,0,0
171922.025,406.78,-465.593,0,0
172182.35,406.584,-466.521,0,0
172442.675,407.325,-466.849,0,0
172703.0,409.434,-467.723,0,0
172963.325,411.98,-469.96,0,0
173223.65,413.791,-473.29,0,0
173483.975,414.454,-476.817,0,0
173744.3,414.402,-479.517,0,0
174004.625,414.703,-481.35,0,0
174264.95,415.904,-482.888,0,0
174525.275,418.103,-485.293,0,0
174785.6,419.901,-489.134,0,0
175045.925,420.301,-493.092,0,0
175306.25,420.865,-495.649,0,0
175566.575,423.017,-498.73,0,0
175826.9,425.213,-503.906,0,0
176087.225,425.881,-510.36,0,0
176347.55,425.247,-517.143,0,0
176607.875,423.038,-524.408,0,0
176868.2,418.772,-531.049,0,0
177128.525,413.102,-536.439,0,0
177388.85,406.657,-539.881,0,0
177649.175,400.558,-541.907,0,0
177909.5,394.689,-543.305,0,0
178169.825,388.439,-543.941,0,0
178430.15,381.894,-543.062,0,0
178690.475,376.29,-540.256,0,0
178950.8,372.475,-536.762,0,0
179211.125,370.005,-533.415,0,0
179471.45,368.399,-530.526,0,0
179731.775,366.797,-528.034,0,0
179992.1,365.595,-525.109,0,0
180252.425,365.54,-522.331,0,0
180512.75,365.821,-520.284,0,0
180773.075,366.148,-518.4,0,0
181033.4,367.052,-516.827,0,0
181293.725,368.225,-515.722,0,0
181554.05,369.664,-515.289,0,0
181814.375,370.967,-515.822,0,0
182074.7,371.584,-516.829,0,0
182335.025,371.886,-517.847,0,0
182595.35,372.145,-519.228,0,0
182855.675,371.76,-521.158,0,0
183116.0,370.703,-523.071,0,0
183376.325,369.047,-525.39,0,0
183636.65,365.915,-527.463,0,0
183896.975,361.962,-528.18,0,0
184157.3,358.298,-527.634,0,0
184417.625,355.397,-526.728,0,0
184677.95,352.53,-526.231,0,0
184938.275,348.961,-525.433,0,0
185198.6,345.195,-523.915,0,0
185458.925,341.513,-521.655,0,0
185719.25,337.937,-518.897,0,0
185979.575,334.544,-515.206,0,0
186239.9,331.884,-510.66,0,0
186500,330.331,-505.754,0,0
186761,329.869,-501.142,0,0
187021,329.944,-497.166,0,0
187281,329.979,-493.692,0,0
187542,329.921,-490.246,0,0
187802,330.104,-486.806,0,0
188062,330.399,-483.682,0,0
188322,330.442,-480.702,0,0
188583,330.234,-477.528,0,0
188843,329.945,-473.874,0,0
189103,330.036,-469.685,0,0
189364,330.83,-465.205,0,0
189624,332.36,-460.887,0,0
189884,334.254,-457.03,0,0
190145,336.479,-453.58,0,0
190405,338.836,-450.665,0,0
190665,340.928,-448.278,0,0
190926,342.405,-446.034,0,0
191186,343.605,-443.333,0,0
191446,345.09,-440.314,0,0
191707,346.72,-437.419,0,0
191967,348.283,-434.521,0,0
192227,349.727,-431.514,0,0
192488,351.1,-428.107,0,0
192748,352.807,-424.168,0,0
193008,355.155,-420.051,0,0
193269,358.107,-416.05,0,0
193529,361.363,-412.354,0,0
193789,364.708,-408.745,0,0
194050,368.403,-405.082,0,0
194310,372.506,-401.495,0,0
194570,377.105,-398.296,0,0
194831,381.646,-395.487,0,0
195091,386.318,-392.549,0,0
195351,391.568,-389.492,0,0
195612,397.713,-386.704,0,0
195872,404.872,-385.033,0,0
196132,412.04,-384.624,0,0
196393,418.801,-385.402,0,0
196653,424.75,-386.945,0,0
196913,429.995,-388.983,0,0
197174,434.533,-391.243,0,0
197434,438.376,-393.745,0,0
197694,441.286,-396.263,0,0
197955,443.561,-398.157,0,0
198215,445.59,-399.499,0,0
198475,447.589,-400.576,0,0
198735,449.472,-401.647,0,0
198996,450.93,-401.98,0,0
199256,452.907,-401.929,0,0
199516,455.026,-402.14,0,0
199777,456.971,-402.24,0,0
200037,458.756,-402.272,0,0
200297,460.244,-402.046,0,0
200558,461.451,-401.294,0,0
200818,462.68,-399.528,0,0
201078,464.879,-397.071,0,0
201339,467.836,-394.568,0,0
201599,471.359,-391.985,0,0
201859,475.711,-389.296,0,0
202120,480.964,-387.002,0,0
202380.025,486.895,-385.338,0,0
202640.35,493.369,-385.058,0,0
202900.675,499.083,-385.697,0,0
203161.0,503.99,-386.134,0,0
203421.325,509.194,-385.945,0,0
203681.65,515.295,-385.967,0,0
203941.975,521.989,-386.729,0,0
204202.3,528.826,-388.676,0,0
204462.625,535.118,-391.842,0,0
204722.95,540.236,-395.511,0,0
204983.275,544.742,-399.116,0,0
205243.6,548.43,-403.085,0,0
205503.925,551.109,-406.485,0,0
205764.25,553.387,-409.421,0,0
206024.575,555.11,-411.989,0,0
206284.9,556.134,-413.368,0,0
206545.225,557.471,-413.158,0,0
206805.55,560.035,-411.756,0,0
207065.875,564.246,-410.032,0,0
207326.2,569.78,-408.988,0,0
207586.525,575.679,-408.696,0,0
207846.85,582.012,-408.647,0,0
208107.175,589.184,-409.076,0,0
208367.5,596.998,-410.534,0,0
208627.825,604.775,-413.247,0,0
208888.15,612.106,-416.638,0,0
209148.475,618.954,-420.465,0,0
209408.8,625.662,-424.476,0,0
209669.125,632.35,-428.739,0,0
209929.45,639.034,-433.471,0,0
210189.775,645.498,-438.698,0,0
210450.1,651.633,-444.397,0,0
210710.425,657.44,-450.153,0,0
210970.75,663.187,-456.111,0,0
211231.075,668.82,-462.478,0,0
211491.4,673.991,-469.346,0,0
211751.725,678.841,-476.132,0,0
212012.05,683.39,-482.983,0,0
212272.375,687.876,-489.894,0,0
212532.7,692.412,-496.927,0,0
212793.025,697.122,-504.422,0,0
213053.35,701.671,-512.647,0,0
213313.675,705.568,-521.575,0,0
213574.0,708.616,-530.816,0,0
213834.325,710.841,-539.983,0,0
214094.65,712.45,-548.794,0,0
214354.975,713.77,-557.249,0,0
214615.3,715.25,-565.641,0,0
214875.625,716.631,-573.864,0,0
215135.95,717.897,-582.47,0,0
215396.275,718.915,-591.264,0,0
215656.6,719.375,-600.221,0,0
215916.925,719.477,-609.091,0,0
216177.25,719.275,-617.946,0,0
216437.575,718.851,-626.804,0,0
216697.9,718.085,-635.671,0,0
216958.225,716.656,-644.369,0,0
217218.55,715.068,-652.745,0,0
217478.875,713.613,-660.917,0,0
217739.2,712.031,-669.367,0,0
217999.525,710.105,-678.045,0,0
218259.85,707.582,-686.568,0,0
218520,704.663,-694.92,0,0
218780,701.452,-702.827,0,0
219041,698.216,-710.37,0,0
219301,694.693,-717.862,0,0
219561,691.353,-725.048,0,0
219822,688.061,-731.834,0,0
220082,685.042,-739.088,0,0
220342,681.847,-746.526,0,0
220603,678.585,-754.233,0,0
220863,674.994,-762.293,0,0
221123,671.029,-770.466,0,0
221384,666.72,-779.237,0,0
221644,661.234,-788.064,0,0
221904,654.768,-797.033,0,0
222165,647.061,-805.404,0,0
222425,638.642,-812.859,0,0
222685,629.648,-819.679,0,0
222946,620.098,-825.511,0,0
223206,609.986,-829.918,0,0
223466,600.014,-832.938,0,0
223727,590.8,-835.058,0,0
223987,582.167,-836.313,0,0
224247,574.188,-837.032,0,0
224508,566.626,-837.565,0,0
224768,559.539,-837.482,0,0
225028,553.323,-837.214,0,0
225289,548.094,-836.673,0,0
225549,543.507,-836.64,0,0
225809,539.002,-836.797,0,0
226070,534.888,-837.011,0,0
226330,531.315,-837.653,0,0
226590,528.174,-838.758,0,0
226851,525.034,-840.425,0,0
227111,521.691,-842.925,0,0
227371,517.932,-845.988,0,0
227632,513.093,-849.199,0,0
227892,507.557,-851.864,0,0
228152,501.853,-853.81,0,0
228413,496.448,-855.343,0,0
228673,491.059,-856.816,0,0
228933,485.802,-858.02,0,0
229193,480.671,-859.124,0,0
229454,475.743,-860.33,0,0
229714,471.025,-861.717,0,0
229974,465.736,-863.396,0,0
230235,460.329,-864.739,0,0
230495,454.518,-866.129,0,0
230755,448.598,-867.077,0,0
231016,442.638,-867.602,0,0
231276,436.708,-867.843,0,0
231536,431.014,-867.813,0,0
231797,425.437,-867.572,0,0
232057,420.01,-867.242,0,0
232317,414.796,-866.772,0,0
232578,409.737,-866.304,0,0
232838,404.734,-865.832,0,0
233098,399.711,-865.358,0,0
233359,394.73,-864.62,0,0
233619,389.979,-863.863,0,0
233879,385.369,-863.036,0,0
234140,380.794,-862.293,0,0
234400,376.339,-861.59,0,0
234660.3,372.053,-861.023,0,0
234920.625,367.304,-860.414,0,0
235180.95,362.747,-859.964,0,0
235441.275,358.201,-859.396,0,0
235701.6,353.27,-858.961,0,0
235961.925,348.224,-858.214,0,0
236222.25,343.064,-857.121,0,0
236482.575,338.067,-855.811,0,0
236742.9,333.214,-854.361,0,0
237003.225,328.35,-852.956,0,0
237263.55,323.413,-851.475,0,0
237523.875,318.439,-849.785,0,0
237784.2,313.45,-847.82,0,0
238044.525,308.521,-845.615,0,0
238304.85,303.837,-843.172,0,0
238565.175,299.362,-840.683,0,0
238825.5,294.932,-838.115,0,0
239085.825,290.547,-835.338,0,0
239346.15,286.316,-832.485,0,0
239606.475,282.326,-829.455,0,0
239866.8,278.502,-826.389,0,0
240127.125,274.782,-823.373,0,0
240387.45,271.309,-820.235,0,0
240647.775,267.664,-817.099,0,0
240908.1,264.036,-813.781,0,0
241168.425,260.539,-810.234,0,0
241428.75,257.436,-806.371,0,0
241689.075,254.456,-802.425,0,0
241949.4,251.917,-798.351,0,0
242209.725,249.782,-794.363,0,0
242470.05,247.866,-790.568,0,0
242730.375,246.419,-786.718,0,0
242990.7,245.285,-783.136,0,0
243251.025,244.326,-780.079,0,0
243511.35,243.286,-777.33,0,0
243771.675,242.2,-774.923,0,0
244032.0,240.811,-772.495,0,0
244292.325,239.181,-770.098,0,0
244552.65,237.715,-767.631,0,0
244812.975,235.991,-765.113,0,0
245073.3,234.353,-762.482,0,0
245333.625,232.936,-759.846,0,0
245593.95,231.481,-757.005,0,0
245854.275,230.224,-754.266,0,0
246114.6,229.104,-751.46,0,0
246374.925,227.992,-748.901,0,0
246635.25,226.947,-746.311,0,0
246895.575,225.97,-743.751,0,0
247155.9,225.037,-741.272,0,0
247416.225,224.077,-738.752,0,0
247676.55,223.074,-736.188,0,0
247936.875,222.193,-733.539,0,0
248197.2,221.461,-730.74,0,0
248457.525,221.035,-727.919,0,0
248717.85,220.861,-725.224,0,0
248978.175,220.996,-722.913,0,0
249238.5,221.14,-720.875,0,0
249498.825,221.095,-719.162,0,0
249759.15,220.945,-717.532,0,0
250019.475,220.706,-715.945,0,0
250279.8,220.51,-714.436,0,0
250540,220.186,-713.194,0,0
250800,219.738,-712.009,0,0
251061,219.032,-710.878,0,0
251321,218.316,-709.739,0,0
251581,217.34,-708.462,0,0
251842,216.312,-707.225,0,0
252102,215.141,-705.905,0,0
252362,213.808,-704.501,0,0
252623,212.427,-702.888,0,0
252883,211.026,-701.127,0,0
253143,209.578,-699.247,0,0
253404,208.027,-697.269,0,0
253664,206.535,-694.915,0,0
253924,205.096,-692.29,0,0
254185,203.904,-689.525,0,0
254445,202.912,-686.658,0,0
254705,201.97,-683.709,0,0
254966,201.394,-680.787,0,0
255226,200.769,-677.494,0,0
255486,200.482,-674.307,0,0
255747,200.397,-670.896,0,0
256007,200.711,-667.495,0,0
256267,201.391,-664.153,0,0
256528,202.383,-660.98,0,0
256788,203.5,-658.125,0,0
257048,204.735,-655.47,0,0
257309,205.996,-652.876,0,0
257569,207.307,-650.364,0,0
257829,208.8,-647.906,0,0
258090,210.483,-645.58,0,0
258350,212.201,-643.425,0,0
258610,214.056,-641.311,0,0
258871,216.05,-639.237,0,0
259131,218.33,-637.345,0,0
259391,220.767,-635.56,0,0
259651,223.495,-633.961,0,0
259912,226.462,-632.604,0,0
260172,229.877,-631.728,0,0
260432,233.267,-631.288,0,0
260693,236.969,-631.377,0,0
260953,240.666,-632.134,0,0
261213,244.207,-633.745,0,0
261474,247.202,-636.046,0,0
261734,249.497,-638.696,0,0
261994,251.257,-641.529,0,0
262255,252.53,-644.473,0,0
262515,253.341,-647.533,0,0
262775,253.604,-650.609,0,0
263036,253.41,-653.529,0,0
263296,252.841,-656.31,0,0
263556,251.955,-659.001,0,0
263817,250.74,-661.458,0,0
264077,249.278,-663.702,0,0
264337,247.581,-665.716,0,0
264598,245.872,-667.56,0,0
264858,243.928,-669.36,0,0
265118,241.808,-670.958,0,0
265379,239.568,-672.517,0,0
265639,237.09,-673.782,0,0
265899,234.266,-674.905,0,0
266160,231.297,-675.729,0,0
266420,228.192,-676.18,0,0
266680.25,225.055,-676.34,0,0
266940.575,221.78,-676.027,0,0
267200.9,218.646,-675.372,0,0
267461.225,215.705,-674.329,0,0
267721.55,212.995,-673.127,0,0
267981.875,210.43,-671.767,0,0
268242.2,208.012,-670.273,0,0
268502.525,205.7,-668.575,0,0
268762.85,203.644,-666.741,0,0
269023.175,201.728,-664.779,0,0
269283.5,200.062,-662.784,0,0
269543.825,198.544,-660.719,0,0
269804.15,197.27,-658.7,0,0
270064.475,196.06,-656.539,0,0
270324.8,194.999,-654.56,0,0
270585.125,194.033,-652.384,0,0
270845.45,193.433,-650.294,0,0
271105.775,192.978,-648.331,0,0
271366.1,192.588,-646.585,0,0
271626.425,192.158,-644.894,0,0
271886.75,191.745,-643.301,0,0
272147.075,191.313,-641.629,0,0
272407.4,190.813,-640.037,0,0
272667.725,190.309,-638.342,0,0
272928.05,189.943,-636.571,0,0
273188.375,189.612,-634.689,0,0
273448.7,189.436,-632.771,0,0
273709.025,189.407,-630.875,0,0
273969.35,189.512,-628.924,0,0
274229.675,189.745,-627.098,0,0
274490.0,189.981,-625.285,0,0
274750.325,190.354,-623.503,0,0
275010.65,190.805,-621.657,0,0
275270.975,191.563,-619.778,0,0
275531.3,192.425,-618.071,0,0
275791.625,193.502,-616.463,0,0
276051.95,194.683,-614.978,0,0
276312.275,196.049,-613.601,0,0
276572.6,197.541,-612.482,0,0
276832.925,199.077,-611.627,0,0
277093.25,200.629,-610.934,0,0
277353.575,202.173,-610.426,0,0
277613.9,203.709,-610.097,0,0
277874.225,205.302,-609.902,0,0
278134.55,206.903,-609.924,0,0
278394.875,208.566,-610.187,0,0
278655.2,210.119,-610.783,0,0
278915.525,211.513,-611.638,0,0
279175.85,212.749,-612.664,0,0
279436.175,213.823,-613.868,0,0
279696.5,214.65,-615.268,0,0
279956.825,215.288,-616.84,0,0
280217.15,215.567,-618.44,0,0
280477.475,215.579,-620.039,0,0
280737.8,215.321,-621.65,0,0
280998.125,214.91,-623.143,0,0
281258.45,214.305,-624.649,0,0
281518.775,213.483,-626.06,0,0
281779.1,212.402,-627.396,0,0
282039.425,211.21,-628.532,0,0
282299.75,209.905,-629.503,0,0
282560,208.541,-630.329,0,0
282820,207.109,-631.057,0,0
283081,205.598,-631.662,0,0
283341,204.038,-632.095,0,0
283601,202.443,-632.45,0,0
283862,200.811,-632.673,0,0
284122,199.182,-632.773,0,0
284382,197.49,-632.721,0,0
284643,195.831,-632.462,0,0
284903,194.224,-632.102,0,0
285163,192.769,-631.604,0,0
285424,191.31,-631.102,0,0
285684,189.919,-630.509,0,0
285944,188.587,-629.879,0,0
286205,187.312,-629.131,0,0
286465,186.093,-628.333,0,0
286725,184.952,-627.49,0,0
286986,183.875,-626.618,0,0
287246,182.888,-625.693,0,0
287506,181.978,-624.741,0,0
287767,181.182,-623.807,0,0
288027,180.418,-622.87,0,0
288287,179.722,-621.888,0,0
288548,179.109,-620.898,0,0
288808,178.659,-619.924,0,0
289068,178.294,-618.992,0,0
289329,178.059,-618.198,0,0
289589,177.856,-617.519,0,0
289849,177.682,-617.015,0,0
290109,177.386,-616.595,0,0
290370,177.065,-616.275,0,0
290630,176.684,-615.961,0,0
290890,176.181,-615.724,0,0
291151,175.628,-615.492,0,0
291411,174.948,-615.283,0,0
291671,174.174,-615.021,0,0
291932,173.275,-614.674,0,0
292192,172.348,-614.225,0,0
292452,171.363,-613.588,0,0
292713,170.438,-612.845,0,0
292973,169.571,-611.983,0,0
293233,168.783,-611.039,0,0
293494,168.068,-610.047,0,0
293754,167.426,-608.951,0,0
294014,166.945,-607.771,0,0
294275,166.601,-606.551,0,0
294535,166.503,-605.318,0,0
294795,166.643,-604.163,0,0
295056,166.911,-603.178,0,0
295316,167.294,-602.376,0,0
295576,167.742,-601.782,0,0
295837,168.151,-601.364,0,0
296097,168.565,-601.133,0,0
296357,168.911,-601.036,0,0
296618,169.166,-601.094,0,0
296878,169.302,-601.23,0,0
297138,169.315,-601.438,0,0
297399,169.255,-601.693,0,0
297659,169.089,-601.958,0,0
297919,168.847,-602.252,0,0
298180,168.502,-602.544,0,0
298440,168.117,-602.841,0,0
298700.2,167.666,-603.164,0,0
298960.525,167.131,-603.511,0,0
299220.85,166.501,-603.887,0,0
299481.175,165.758,-604.185,0,0
299741.5,164.951,-604.468,0,0
300001.825,164.097,-604.721,0,0
300262.15,163.146,-604.926,0,0
300522.475,162.152,-605.095,0,0
300782.8,161.072,-605.228,0,0
301043.125,159.949,-605.318,0,0
301303.45,158.731,-605.319,0,0
301563.775,157.486,-605.233,0,0
301824.1,156.21,-605.052,0,0
302084.425,154.935,-604.754,0,0
302344.75,153.641,-604.396,0,0
302605.075,152.419,-603.939,0,0
302865.4,151.211,-603.446,0,0
303125.725,150.031,-602.9,0,0
303386.05,148.887,-602.319,0,0
303646.375,147.739,-601.706,0,0
303906.7,146.602,-601.059,0,0
304167.025,145.47,-600.363,0,0
304427.35,144.381,-599.59,0,0
304687.675,143.346,-598.755,0,0
304948.0,142.323,-597.895,0,0
305208.325,141.4,-597.011,0,0
305468.65,140.487,-596.138,0,0
305728.975,139.645,-595.226,0,0
305989.3,138.804,-594.329,0,0
306249.625,137.989,-593.4,0,0
306509.95,137.202,-592.433,0,0
306770.275,136.474,-591.45,0,0
307030.6,135.807,-590.45,0,0
307290.925,135.192,-589.464,0,0
307551.25,134.611,-588.468,0,0
307811.575,134.083,-587.472,0,0
308071.9,133.611,-586.495,0,0
308332.225,133.207,-585.543,0,0
308592.55,132.864,-584.626,0,0
308852.875,132.558,-583.745,0,0
309113.2,132.297,-582.919,0,0
309373.525,132.084,-582.185,0,0
309633.85,131.898,-581.524,0,0
309894.175,131.66,-580.952,0,0
310154.5,131.378,-580.466,0,0
310414.825,131.064,-580.014,0,0
310675.15,130.706,-579.632,0,0
310935.475,130.262,-579.293,0,0
311195.8,129.727,-578.976,0,0
311456.125,129.101,-578.662,0,0
311716.45,128.366,-578.304,0,0
311976.775,127.599,-577.903,0,0
312237.1,126.758,-577.424,0,0
312497.425,125.87,-576.908,0,0
312757.75,124.913,-576.292,0,0
313018.075,123.935,-575.566,0,0
313278.4,122.968,-574.733,0,0
313538.725,122.028,-573.806,0,0
313799.05,121.14,-572.79,0,0
314059.375,120.297,-571.702,0,0
314319.7,119.515,-570.545,0,0
314580,118.842,-569.293,0,0
314840,118.267,-568.051,0,0
315101,117.745,-566.761,0,0
315361,117.348,-565.446,0,0
315621,117.043,-564.128,0,0
315882,116.806,-562.897,0,0
316142,116.774,-561.676,0,0
316402,116.722,-560.553,0,0
316663,116.678,-559.492,0,0
316923,116.783,-558.509,0,0
317183,116.755,-557.548,0,0
317444,116.827,-556.631,0,0
317704,116.912,-555.711,0,0
317964,116.989,-554.946,0,0
318225,117.087,-554.134,0,0
318485,117.198,-553.378,0,0
318745,117.357,-552.766,0,0
319006,117.361,-552.063,0,0
319266,117.405,-551.494,0,0
319526,117.362,-550.898,0,0
319787,117.372,-550.402,0,0
320047,117.345,-549.775,0,0
320307,117.21,-549.057,0,0
320567,117.313,-548.394,0,0
320828,117.277,-547.68,0,0
321088,117.359,-547.022,0,0
321348,117.654,-546.34,0,0
321609,117.886,-545.724,0,0
321869,118.221,-545.197,0,0
322129,118.51,-544.744,0,0
322390,118.901,-544.462,0,0
322650,119.253,-544.219,0,0
322910,119.649,-544.053,0,0
323171,119.937,-544.061,0,0
323431,120.243,-544.18,0,0
323691,120.355,-544.351,0,0
323952,120.469,-544.563,0,0
324212,120.377,-544.821,0,0
324472,120.268,-545.183,0,0
324733,120.001,-545.393,0,0
324993,119.615,-545.782,0,0
325253,119.176,-546.16,0,0
325514,118.696,-546.404,0,0
325774,118.122,-546.7,0,0
326034,117.438,-546.853,0,0
326295,116.606,-547.02,0,0
326555,115.839,-547.152,0,0
326815,114.977,-547.18,0,0
327076,114.068,-547.186,0,0
327336,113.157,-547.143,0,0
327596,112.176,-546.957,0,0
327857,111.267,-546.777,0,0
328117,110.243,-546.488,0,0
328377,109.262,-546.107,0,0
328638,108.299,-545.712,0,0
328898,107.343,-545.206,0,0
329158,106.508,-544.73,0,0
329419,105.68,-544.195,0,0
329679,104.83,-543.789,0,0
329939,103.974,-543.27,0,0
330200,103.191,-542.774,0,0
330460,102.3,-542.245,0,0
330720.15,101.454,-541.613,0,0
330980.475,100.662,-541.126,0,0
331240.8,99.7478,-540.592,0,0
331501.125,98.8538,-540.005,0,0
331761.45,97.968,-539.389,0,0
332021.775,97.05,-538.764,0,0
332282.1,96.1805,-538.05,0,0
332542.425,95.2764,-537.319,0,0
332802.75,94.3512,-536.479,0,0
333063.075,93.4695,-535.814,0,0
333323.4,92.5811,-534.956,0,0
333583.725,91.7604,-534.098,0,0
333844.05,90.8595,-533.194,0,0
334104.375,89.9215,-532.324,0,0
334364.7,89.1069,-531.37,0,0
334625.025,88.3307,-530.358,0,0
334885.35,87.5022,-529.349,0,0
335145.675,86.7219,-528.264,0,0
335406.0,85.953,-527.116,0,0
335666.325,85.2009,-525.999,0,0
335926.65,84.4953,-524.755,0,0
336186.975,83.9299,-523.606,0,0
336447.3,83.3573,-522.328,0,0
336707.625,82.8222,-521.033,0,0
336967.95,82.3553,-519.833,0,0
337228.275,81.9312,-518.621,0,0
337488.6,81.5256,-517.405,0,0
337748.925,81.2013,-516.179,0,0
338009.25,80.9131,-514.966,0,0
338269.575,80.5441,-513.9,0,0
338529.9,80.2562,-512.696,0,0
338790.225,79.8901,-511.499,0,0
339050.55,79.4908,-510.195,0,0
339310.875,79.1625,-508.95,0,0
339571.2,78.8174,-507.607,0,0
339831.525,78.6543,-506.26,0,0
340091.85,78.5203,-504.807,0,0
340352.175,78.4576,-503.398,0,0
340612.5,78.4741,-501.982,0,0
340872.825,78.6385,-500.579,0,0
341133.15,78.8605,-499.239,0,0
341393.475,79.1741,-497.915,0,0
341653.8,79.5423,-496.633,0,0
341914.125,80.0002,-495.393,0,0
342174.45,80.532,-494.283,0,0
342434.775,81.1072,-493.335,0,0
342695.1,81.7231,-492.364,0,0
342955.425,82.3225,-491.593,0,0
343215.75,82.8609,-490.945,0,0
343476.075,83.4391,-490.306,0,0
343736.4,84.0384,-489.821,0,0
343996.725,84.4841,-489.37,0,0
344257.05,84.8845,-489.002,0,0
344517.375,85.1976,-488.709,0,0
344777.7,85.4659,-488.447,0,0
345038.025,85.7383,-488.089,0,0
345298.35,85.8722,-487.887,0,0
345558.675,85.9585,-487.643,0,0
345819.0,85.9854,-487.399,0,0
346079.325,85.9452,-487.128,0,0
346339.65,85.8071,-486.868,0,0
346599.975,85.7212,-486.562,0,0
346860,85.5449,-486.208,0,0
347121,85.2359,-485.865,0,0
347381,85.0482,-485.44,0,0
347641,84.6913,-484.917,0,0
347902,84.4,-484.386,0,0
348162,84.082,-483.793,0,0
348422,83.8507,-483.111,0,0
348683,83.5735,-482.429,0,0
348943,83.3379,-481.638,0,0
349203,83.1508,-480.859,0,0
349464,83.1464,-480,0,0
349724,83.0686,-479.13,0,0
349984,83.0911,-478.203,0,0
350245,83.3141,-477.333,0,0
350505,83.4871,-476.504,0,0
350765,83.8124,-475.784,0,0
351025,84.1156,-475.137,0,0
351286,84.4579,-474.571,0,0
351546,84.8521,-474.101,0,0
351806,85.1456,-473.719,0,0
352067,85.44,-473.292,0,0
352327,85.7315,-473.024,0,0
352587,85.9644,-472.806,0,0
352848,86.1827,-472.607,0,0
353108,86.2456,-472.483,0,0
353368,86.3495,-472.352,0,0
353629,86.2207,-472.242,0,0
353889,86.0875,-472.12,0,0
354149,85.9202,-471.876,0,0
354410,85.6753,-471.697,0,0
354670,85.4784,-471.399,0,0
354930,85.266,-471.15,0,0
355191,85.0002,-470.827,0,0
355451,84.7433,-470.478,0,0
355711,84.4068,-470.172,0,0
355972,84.0984,-469.838,0,0
356232,83.7449,-469.361,0,0
356492,83.3431,-468.876,0,0
356753,83.0086,-468.322,0,0
357013,82.6402,-467.838,0,0
357273,82.2807,-467.164,0,0
357534,81.9996,-466.481,0,0
357794,81.7571,-465.74,0,0
358054,81.5931,-465.056,0,0
358315,81.497,-464.327,0,0
358575,81.3542,-463.604,0,0
358835,81.3801,-462.927,0,0
359096,81.3679,-462.307,0,0
359356,81.3688,-461.686,0,0
359616,81.3573,-461.052,0,0
359877,81.4406,-460.513,0,0
360137,81.4824,-460.022,0,0
360397,81.4374,-459.502,0,0
360658,81.4358,-459.039,0,0
360918,81.3385,-458.623,0,0
361178,81.2253,-458.162,0,0
361438,81.0714,-457.678,0,0
361699,80.9587,-457.14,0,0
361959,80.7601,-456.588,0,0
362219,80.5739,-455.969,0,0
362480,80.4446,-455.274,0,0
362740.1,80.3153,-454.571,0,0
363000.425,80.2811,-453.819,0,0
363260.75,80.3596,-453.009,0,0
363521.075,80.4895,-452.224,0,0
363781.4,80.6677,-451.49,0,0
364041.725,80.9339,-450.9,0,0
364302.05,81.2319,-450.264,0,0
364562.375,81.5852,-449.694,0,0
364822.7,81.9648,-449.24,0,0
365083.025,82.2799,-448.861,0,0
365343.35,82.6636,-448.589,0,0
365603.675,82.9745,-448.371,0,0
365864.0,83.2424,-448.259,0,0
366124.325,83.4419,-448.146,0,0
366384.65,83.5912,-448.138,0,0
366644.975,83.5861,-448.131,0,0
366905.3,83.6127,-448.131,0,0
367165.625,83.447,-448.18,0,0
367425.95,83.2006,-448.152,0,0
367686.275,82.8218,-448.157,0,0
367946.6,82.3467,-448.057,0,0
368206.925,81.8374,-447.88,0,0
368467.25,81.2976,-447.5,0,0
368727.575,80.7014,-447.02,0,0
368987.9,80.1596,-446.397,0,0
369248.225,79.7244,-445.645,0,0
369508.55,79.4099,-444.807,0,0
369768.875,79.1183,-443.998,0,0
370029.2,79.0667,-443.114,0,0
370289.525,79.1543,-442.305,0,0
370549.85,79.3102,-441.51,0,0
370810.175,79.528,-440.855,0,0
371070.5,79.8149,-440.294,0,0
371330.825,80.0656,-439.799,0,0
371591.15,80.3745,-439.447,0,0
371851.475,80.6051,-439.141,0,0
372111.8,80.8257,-438.927,0,0
372372.125,80.9223,-438.819,0,0
372632.45,80.9836,-438.728,0,0
372892.775,80.9179,-438.679,0,0
373153.1,80.7508,-438.66,0,0
373413.425,80.4739,-438.503,0,0
373673.75,80.0998,-438.281,0,0
373934.075,79.7617,-438.048,0,0
374194.4,79.356,-437.679,0,0
374454.725,78.9442,-437.275,0,0
374715.05,78.5926,-436.825,0,0
374975.375,78.2373,-436.312,0,0
375235.7,77.9099,-435.78,0,0
375496.025,77.5931,-435.153,0,0
375756.35,77.2662,-434.537,0,0
376016.675,77.0213,-433.888,0,0
376277.0,76.8838,-433.191,0,0
376537.325,76.6691,-432.511,0,0
376797.65,76.5095,-431.787,0,0
377057.975,76.4126,-431.066,0,0
377318.3,76.3821,-430.354,0,0
377578.625,76.3705,-429.619,0,0
377838.95,76.3697,-428.903,0,0
378099.275,76.3972,-428.195,0,0
378359.6,76.536,-427.455,0,0
378619.925,76.7354,-426.76,0,0
378880,77.0197,-426.096,0,0
379141,77.2936,-425.527,0,0
379401,77.6185,-425.125,0,0
379661,77.9473,-424.707,0,0
379922,78.1904,-424.397,0,0
380182,78.4047,-424.166,0,0
380442,78.5433,-423.989,0,0
380703,78.6393,-423.76,0,0
380963,78.6348,-423.549,0,0
381223,78.678,-423.316,0,0
381483,78.5823,-423.079,0,0
381744,78.5588,-422.843,0,0
382004,78.5024,-422.539,0,0
382264,78.4634,-422.226,0,0
382525,78.4133,-421.952,0,0
382785,78.396,-421.725,0,0
383045,78.3503,-421.411,0,0
383306,78.2187,-421.214,0,0
383566,78.1128,-420.985,0,0
383826,77.933,-420.786,0,0
384087,77.6776,-420.554,0,0
384347,77.4277,-420.273,0,0
384607,77.1302,-419.953,0,0
384868,76.8592,-419.603,0,0
385128,76.5537,-419.189,0,0
385388,76.3078,-418.798,0,0
385649,76.0443,-418.351,0,0
385909,75.6895,-417.927,0,0
386169,75.4127,-417.458,0,0
386430,75.101,-416.97,0,0
386690,74.7942,-416.43,0,0
386950,74.4858,-415.863,0,0
387211,74.1334,-415.251,0,0
387471,73.8179,-414.643,0,0
387731,73.5392,-413.895,0,0
387992,73.3061,-413.172,0,0
388252,73.0733,-412.44,0,0
388512,72.8848,-411.647,0,0
388773,72.7211,-410.82,0,0
389033,72.6295,-409.985,0,0
389293,72.5383,-409.118,0,0
389554,72.4717,-408.269,0,0
389814,72.5235,-407.368,0,0
390074,72.5803,-406.425,0,0
390335,72.701,-405.548,0,0
390595,72.9246,-404.637,0,0
390855,73.2282,-403.787,0,0
391116,73.5243,-402.937,0,0
391376,73.9105,-402.137,0,0
391636,74.3445,-401.413,0,0
391896,74.8018,-400.734,0,0
392157,75.2584,-400.116,0,0
392417,75.7416,-399.588,0,0
392677,76.2031,-399.096,0,0
392938,76.684,-398.625,0,0
393198,77.1381,-398.16,0,0
393458,77.4969,-397.816,0,0
393719,77.9683,-397.4,0,0
393979,78.3627,-396.992,0,0
394239,78.8054,-396.632,0,0
394500,79.2308,-396.292,0,0
394760.05,79.6769,-396,0,0
395020.375,80.0791,-395.723,0,0
395280.7,80.5842,-395.529,0,0
395541.025,80.9883,-395.329,0,0
395801.35,81.4374,-395.182,0,0
396061.675,81.8759,-395.082,0,0
396322.0,82.2976,-395.048,0,0
396582.325,82.628,-395.02,0,0
396842.65,82.952,-395.021,0,0
397102.975,83.2254,-395.081,0,0
397363.3,83.4847,-395.132,0,0
397623.625,83.6317,-395.198,0,0
397883.95,83.8609,-395.259,0,0
398144.275,83.998,-395.328,0,0
398404.6,84.109,-395.451,0,0
398664.925,84.2397,-395.542,0,0
398925.25,84.2537,-395.715,0,0
399185.575,84.2608,-395.792,0,0
399445.9,84.2344,-395.921,0,0
399706.225,84.1674,-396.063,0,0
399966.55,84.0292,-396.206,0,0
400006.6,83.9978,-396.245,0,0