File: Accelerated corrosion test data/2025-10-23_18-00-04/sample_6.csv
Frequency (Hz),Impedance (ohms),Phase (Radians),Temperature (C),Humidity (%)
10000.0,4155.16,-6667.53,0,0
10260.325,4017.76,-6585.7,0,0
10520.65,3886.29,-6503.81,0,0
10780.975,3761.41,-6423.05,0,0
11041.3,3641.7,-6342.38,0,0
11301.625,3527.89,-6263.23,0,0
11561.95,3419.14,-6185,0,0
11822.275,3315.41,-6107.64,0,0
12082.6,3215.36,-6031.62,0,0
12342.925,3120.61,-5956.55,0,0
12603.25,3029.82,-5880.02,0,0
12863.575,2943.83,-5808.5,0,0
13123.9,2862.42,-5737.69,0,0
13384.225,2782.14,-5669.26,0,0
13644.55,2704.8,-5601.13,0,0
13904.875,2630.4,-5533,0,0
14165.2,2559.12,-5466.45,0,0
14425.525,2491.3,-5400.01,0,0
14685.8,2425.47,-5335.86,0,0
14946.175,2363.79,-5272.41,0,0
15206.5,2303.58,-5210.87,0,0
15466.825,2245.8,-5149.56,0,0
15727.15,2189.67,-5090.03,0,0
15987.5,2136.37,-5031.26,0,0
16247.8,2084.17,-4974.17,0,0
16508.125,2034.52,-4917.49,0,0
16768.45,1986.78,-4861.64,0,0
17028.775,1940.8,-4807.53,0,0
17289.1,1895.73,-4754.13,0,0
17549.425,1852.97,-4702.18,0,0
17809.75,1810.88,-4650.52,0,0
18070.075,1770.74,-4600.21,0,0
18330.4,1732.1,-4550.47,0,0
18590.725,1693.47,-4500.77,0,0
18851.05,1658.63,-4452.7,0,0
19111.375,1623.25,-4406.39,0,0
19371.7,1589.65,-4360.22,0,0
19632.025,1557.69,-4316.49,0,0
19892.35,1524.74,-4272.57,0,0
20152.675,1493.13,-4228.3,0,0
20413.0,1463.5,-4185.82,0,0
20673.3,1434.38,-4143.52,0,0
20933.65,1406.62,-4102.45,0,0
21193.975,1378.78,-4061.85,0,0
21454.3,1352.59,-4021.24,0,0
21714.625,1326.81,-3982.24,0,0
21974.9,1301.55,-3943.55,0,0
22235.275,1277.53,-3906.12,0,0
22495.6,1253.93,-3868.43,0,0
22755.925,1230.71,-3830.6,0,0
23016.25,1210.11,-3793.1,0,0
23276.6,1190.32,-3757.35,0,0
23536.9,1171.48,-3725.36,0,0
23797.225,1149.83,-3692.24,0,0
24057.55,1129.83,-3659.14,0,0
24317.875,1110.86,-3626.66,0,0
24578.2,1091.5,-3594.33,0,0
24838.525,1072.84,-3562.02,0,0
25098.85,1055.85,-3530.46,0,0
25359.175,1038.64,-3499.96,0,0
25619.5,1021.48,-3470,0,0
25879.8,1004.7,-3440.16,0,0
26140.1,988.886,-3410.41,0,0
26400.5,973.05,-3380.98,0,0
26660.8,958.073,-3352.11,0,0
26921.1,943.83,-3323.94,0,0
27181.4,929.811,-3296.54,0,0
27441.8,915.664,-3269.24,0,0
27702.1,903.061,-3242.61,0,0
27962.4,890.082,-3217.62,0,0
28222.7,875.869,-3192.12,0,0
28483.1,862.477,-3166.64,0,0
28743.4,849.121,-3141.76,0,0
29003.7,836.119,-3116.1,0,0
29264,823.98,-3090.1,0,0
29524.4,812.637,-3065.12,0,0
29784.7,801.82,-3040.1,0,0
30045,792.63,-3016.45,0,0
30305.3,781.38,-2993.22,0,0
30565.7,773.864,-2969.07,0,0
30826,764.724,-2949.36,0,0
31086.3,754.535,-2929.12,0,0
31346.6,743.083,-2908.1,0,0
31607,733.262,-2885.97,0,0
31867.3,723.376,-2864.77,0,0
32127.6,714.296,-2843.46,0,0
32387.9,705.299,-2823.24,0,0
32648.3,696.878,-2801.74,0,0
32908.6,690.464,-2782.3,0,0
33168.9,682.095,-2764.4,0,0
33429.2,673.793,-2746.19,0,0
33689.6,664.708,-2728.12,0,0
33949.9,655.65,-2710.36,0,0
34210.2,646.225,-2692.05,0,0
34470.5,637.074,-2672.82,0,0
34730.9,629.306,-2653.64,0,0
34991.2,621.923,-2635.43,0,0
35251.5,614.388,-2617.46,0,0
35511.8,606.734,-2600.21,0,0
35772.2,599.193,-2582.83,0,0
36032.5,591.515,-2565.31,0,0
36292.8,584.362,-2547.87,0,0
36553.1,577.318,-2530.22,0,0
36813.5,570.659,-2513.12,0,0
37073.8,563.923,-2496.05,0,0
37334.1,557.801,-2479.33,0,0
37594.4,551.887,-2462.72,0,0
37854.8,545.899,-2446.55,0,0
38115.1,539.945,-2430.48,0,0
38375.4,534.277,-2414.29,0,0
38635.7,528.947,-2398.42,0,0
38896.1,523.623,-2382.48,0,0
39156.4,518.907,-2366.9,0,0
39416.7,514.362,-2351.54,0,0
39677,510.053,-2336.83,0,0
39937.4,505.75,-2322.61,0,0
40197.7,501.479,-2308.4,0,0
40458,497.441,-2294.46,0,0
40718.3,493.387,-2281.2,0,0
40978.7,488.836,-2268.53,0,0
41239,484.123,-2255.24,0,0
41499.3,479.331,-2241.93,0,0
41759.6,475.525,-2229.22,0,0
42020,470.801,-2217.16,0,0
42280.275,465.965,-2204.68,0,0
42540.6,460.455,-2192.23,0,0
42800.925,455.513,-2178.89,0,0
43061.25,450.202,-2165.77,0,0
43321.575,445.875,-2151.78,0,0
43581.9,442.488,-2138.53,0,0
43842.225,439.549,-2125.36,0,0
44102.55,436.419,-2112.96,0,0
44362.875,433.248,-2100.55,0,0
44623.2,430.606,-2088.91,0,0
44883.525,427.57,-2076.97,0,0
45143.85,424.883,-2065.49,0,0
45404.175,422.126,-2054.17,0,0
45664.5,419.568,-2043,0,0
45924.825,417.179,-2032.38,0,0
46185.15,414.717,-2021.43,0,0
46445.475,412.523,-2011.83,0,0
46705.8,409.21,-2002.03,0,0
46966.125,406.726,-1991.86,0,0
47226.45,403.895,-1982.24,0,0
47486.775,400.578,-1972.96,0,0
47747.1,397.476,-1962.76,0,0
48007.425,395.312,-1953.39,0,0
48267.75,392.385,-1944.56,0,0
48528.075,388.918,-1935.4,0,0
48788.4,386.002,-1925.87,0,0
49048.725,383.263,-1917.04,0,0
49309.05,380.568,-1908.46,0,0
49569.375,376.935,-1900.37,0,0
49829.7,373.335,-1891.6,0,0
50090.025,369.812,-1882.8,0,0
50350.35,366.237,-1874.58,0,0
50610.675,362.097,-1865.95,0,0
50871.0,358.247,-1856.77,0,0
51131.325,354.299,-1847.53,0,0
51391.65,350.95,-1838.24,0,0
51651.975,347.325,-1829.19,0,0
51912.3,344.278,-1819.71,0,0
52172.625,341.074,-1810.77,0,0
52432.95,337.757,-1801.05,0,0
52693.275,335.316,-1791.97,0,0
52953.6,332.874,-1782.83,0,0
53213.925,330.629,-1774.38,0,0
53474.25,327.918,-1766.28,0,0
53734.575,324.65,-1757.98,0,0
53994.9,321.359,-1749.11,0,0
54255.225,318.537,-1739.67,0,0
54515.55,316.335,-1730.52,0,0
54775.875,314.558,-1721.78,0,0
55036.2,312.668,-1713.26,0,0
55296.525,310.742,-1705.14,0,0
55556.85,308.582,-1697.05,0,0
55817.175,306.41,-1689.04,0,0
56077.5,304.077,-1680.8,0,0
56337.825,301.806,-1672.28,0,0
56598.15,299.872,-1663.38,0,0
56858.475,298.885,-1654.54,0,0
57118.8,298.194,-1646.34,0,0
57379.125,297.693,-1638.58,0,0
57639.45,297.106,-1631.28,0,0
57899.775,296.718,-1624.36,0,0
58160.1,296.187,-1617.94,0,0
58420.4,295.469,-1612.06,0,0
58680.7,294.158,-1606.43,0,0
58941.1,292.459,-1600.74,0,0
59201.4,290.679,-1594.92,0,0
59461.7,288.592,-1589.16,0,0
59722,286.316,-1583.46,0,0
59982.4,283.748,-1577.64,0,0
60242.7,281.133,-1571.43,0,0
60503,278.767,-1565.35,0,0
60763.3,276.186,-1559.33,0,0
61023.7,273.205,-1553.19,0,0
61284,270.118,-1546.86,0,0
61544.3,266.611,-1540.13,0,0
61804.6,263.53,-1532.61,0,0
62065,260.745,-1524.84,0,0
62325.3,258.438,-1516.82,0,0
62585.6,256.875,-1508.55,0,0
62845.9,256.266,-1500.45,0,0
63106.3,256.192,-1493.18,0,0
63366.6,256.177,-1486.74,0,0
63626.9,255.948,-1480.94,0,0
63887.2,255.381,-1475.73,0,0
64147.6,254.365,-1470.76,0,0
64407.9,252.366,-1465.86,0,0
64668.2,250.066,-1460.22,0,0
64928.5,247.939,-1454.15,0,0
65188.9,245.974,-1447.84,0,0
65449.2,244.397,-1441.35,0,0
65709.5,243.25,-1434.97,0,0
65969.8,242.252,-1429.01,0,0
66230.2,241.313,-1423.17,0,0
66490.5,240.242,-1417.52,0,0
66750.8,238.96,-1411.96,0,0
67011.1,237.829,-1406.54,0,0
67271.5,236.603,-1400.98,0,0
67531.8,235.471,-1395.46,0,0
67792.1,234.115,-1390.35,0,0
68052.4,232.908,-1384.83,0,0
68312.8,231.598,-1379.46,0,0
68573.1,230.266,-1374.13,0,0
68833.4,229.127,-1368.79,0,0
69093.7,227.958,-1363.56,0,0
69354.1,226.79,-1358.47,0,0
69614.4,225.722,-1353.59,0,0
69874.7,224.534,-1348.48,0,0
70135,223.32,-1343.63,0,0
70395.4,221.881,-1338.64,0,0
70655.7,220.611,-1333.92,0,0
70916,219.115,-1329.02,0,0
71176.3,217.61,-1323.94,0,0
71436.7,216.1,-1319.07,0,0
71697,214.602,-1313.91,0,0
71957.3,213.334,-1308.76,0,0
72217.6,212.031,-1303.75,0,0
72478,210.818,-1298.74,0,0
72738.3,209.636,-1293.83,0,0
72998.6,208.365,-1289.02,0,0
73258.9,207.1,-1284.15,0,0
73519.3,205.908,-1279.3,0,0
73779.6,204.643,-1274.56,0,0
74039.9,203.414,-1269.72,0,0
74300.225,202.248,-1264.88,0,0
74560.55,201.217,-1260.13,0,0
74820.875,200.059,-1255.64,0,0
75081.2,198.825,-1250.89,0,0
75341.525,197.667,-1246.38,0,0
75601.85,196.387,-1241.76,0,0
75862.175,195.096,-1237.17,0,0
76122.5,193.867,-1232.51,0,0
76382.825,192.618,-1227.92,0,0
76643.15,191.3,-1223.3,0,0
76903.475,190.063,-1218.66,0,0
77163.8,188.88,-1214.03,0,0
77424.125,187.653,-1209.4,0,0
77684.45,186.455,-1204.81,0,0
77944.775,185.288,-1200.18,0,0
78205.1,184.101,-1195.55,0,0
78465.425,182.952,-1190.98,0,0
78725.75,181.791,-1186.29,0,0
78986.075,180.714,-1181.7,0,0
79246.4,179.581,-1177.07,0,0
79506.725,178.554,-1172.53,0,0
79767.05,177.441,-1167.89,0,0
80027.375,176.441,-1163.25,0,0
80287.7,175.357,-1158.65,0,0
80548.025,174.354,-1154.01,0,0
80808.35,173.431,-1149.3,0,0
81068.675,172.515,-1144.65,0,0
81329.0,171.809,-1139.99,0,0
81589.325,171.047,-1135.38,0,0
81849.65,170.328,-1130.9,0,0
82109.975,169.7,-1126.43,0,0
82370.3,169.047,-1122.01,0,0
82630.625,168.302,-1117.54,0,0
82890.95,167.591,-1113.16,0,0
83151.275,166.872,-1108.71,0,0
83411.6,166.191,-1104.33,0,0
83671.925,165.523,-1099.76,0,0
83932.25,164.908,-1095.33,0,0
84192.575,164.414,-1090.86,0,0
84452.9,163.941,-1086.4,0,0
84713.225,163.583,-1081.87,0,0
84973.55,163.357,-1077.5,0,0
85233.875,163.091,-1073.1,0,0
85494.2,163.016,-1068.74,0,0
85754.525,162.921,-1064.65,0,0
86014.85,162.896,-1060.57,0,0
86275.175,162.687,-1056.59,0,0
86535.5,162.604,-1052.63,0,0
86795.825,162.473,-1048.71,0,0
87056.15,162.32,-1044.81,0,0
87316.475,162.195,-1040.85,0,0
87576.8,162.106,-1037.09,0,0
87837.125,162.078,-1033.25,0,0
88097.45,161.901,-1029.53,0,0
88357.775,161.931,-1025.78,0,0
88618.1,161.814,-1022,0,0
88878.425,162.035,-1018.08,0,0
89138.75,162.145,-1014.53,0,0
89399.075,162.516,-1010.8,0,0
89659.4,162.855,-1007.48,0,0
89919.725,163.026,-1004.5,0,0
90180,163.384,-1001.51,0,0
90440.4,163.316,-998.704,0,0
90700.7,163.21,-995.895,0,0
90961,162.879,-993.151,0,0
91221.3,162.126,-990.586,0,0
91481.7,161.266,-987.229,0,0
91742,160.522,-983.863,0,0
92002.3,160.158,-980.421,0,0
92262.6,159.943,-976.926,0,0
92523,159.798,-973.691,0,0
92783.3,159.58,-970.748,0,0
93043.6,158.891,-967.658,0,0
93303.9,158.374,-964.32,0,0
93564.3,157.956,-960.909,0,0
93824.6,157.564,-957.574,0,0
94084.9,157.391,-954.13,0,0
94345.2,157.344,-950.618,0,0
94605.6,157.393,-947.501,0,0
94865.9,157.283,-944.561,0,0
95126.2,156.948,-941.456,0,0
95386.5,156.762,-938.161,0,0
95646.9,156.937,-934.942,0,0
95907.2,157.056,-931.96,0,0
96167.5,157.103,-929.231,0,0
96427.8,157.137,-926.597,0,0
96688.2,156.895,-924.035,0,0
96948.5,156.531,-921.38,0,0
97208.8,156.064,-918.704,0,0
97469.1,155.607,-915.932,0,0
97729.5,155.024,-913.183,0,0
97989.8,154.454,-910.165,0,0
98250.1,154.015,-907.106,0,0
98510.4,153.671,-904.034,0,0
98770.8,153.319,-900.849,0,0
99031.1,153.235,-897.697,0,0
99291.4,153.256,-894.742,0,0
99551.7,153.271,-891.838,0,0
99812.1,153.28,-889.109,0,0
100072,153.284,-886.351,0,0
100333,153.27,-883.794,0,0
100593,153.294,-881.262,0,0
100853,153.189,-878.801,0,0
101114,153.024,-876.397,0,0
101374,152.796,-874.155,0,0
101634,152.371,-871.823,0,0
101895,151.816,-869.403,0,0
102155,151.384,-866.804,0,0
102415,151.039,-864.289,0,0
102676,150.728,-861.816,0,0
102936,150.513,-859.473,0,0
103196,150.122,-857.349,0,0
103457,149.5,-855.232,0,0
103717,148.723,-852.981,0,0
103977,148.066,-850.493,0,0
104238,147.641,-848.351,0,0
104498,146.848,-846.491,0,0
104758,145.574,-844.624,0,0
105019,144.056,-842.282,0,0
105279,142.546,-839.796,0,0
105539,140.935,-837.236,0,0
105800,139.104,-834.422,0,0
106060,137.328,-831.245,0,0
106320.175,135.549,-827.765,0,0
106580.5,133.815,-823.923,0,0
106840.825,132.401,-819.667,0,0
107101.15,131.441,-815.146,0,0
107361.475,131.108,-810.657,0,0
107621.8,130.948,-806.637,0,0
107882.125,130.699,-802.607,0,0
108142.45,130.607,-798.473,0,0
108402.775,130.839,-794.363,0,0
108663.1,131.304,-790.421,0,0
108923.425,131.825,-786.631,0,0
109183.75,132.463,-783.068,0,0
109444.075,133.007,-779.696,0,0
109704.4,133.528,-776.207,0,0
109964.725,134.203,-772.764,0,0
110225.05,134.94,-769.479,0,0
110485.375,135.683,-766.127,0,0
110745.7,136.474,-762.74,0,0
111006.025,137.68,-759.402,0,0
111266.35,138.929,-756.369,0,0
111526.675,140.299,-753.376,0,0
111787.0,141.92,-750.843,0,0
112047.325,143.459,-748.469,0,0
112307.65,144.887,-746.389,0,0
112567.975,146.206,-744.573,0,0
112828.3,147.323,-743.105,0,0
113088.625,148.065,-741.73,0,0
113348.95,148.534,-740.363,0,0
113609.275,148.845,-738.635,0,0
113869.6,149.101,-737.031,0,0
114129.925,149.313,-735.242,0,0
114390.25,149.479,-733.49,0,0
114650.575,149.64,-731.667,0,0
114910.9,149.54,-729.702,0,0
115171.225,149.887,-727.333,0,0
115431.55,150.544,-725.435,0,0
115691.875,151.165,-723.506,0,0
115952.2,152.18,-721.956,0,0
116212.525,152.952,-720.982,0,0
116472.85,153.344,-720.319,0,0
116733.175,153.354,-719.786,0,0
116993.5,152.777,-719.371,0,0
117253.825,151.744,-718.823,0,0
117514.15,150.245,-717.832,0,0
117774.475,148.633,-716.517,0,0
118034.8,146.829,-714.711,0,0
118295.125,145.084,-712.529,0,0
118555.45,143.419,-709.951,0,0
118815.775,142.041,-707.049,0,0
119076.1,140.85,-704.075,0,0
119336.425,139.772,-700.837,0,0
119596.75,139.05,-697.391,0,0
119857.075,138.746,-693.911,0,0
120117.4,138.672,-690.678,0,0
120377.725,138.747,-687.357,0,0
120638.05,139.104,-684.144,0,0
120898.375,139.743,-681.188,0,0
121158.7,140.456,-678.488,0,0
121419.025,141.302,-676.071,0,0
121679.35,142.097,-674.076,0,0
121939.675,142.515,-672.361,0,0
122200.0,142.702,-670.58,0,0
122460,142.685,-668.902,0,0
122721,142.425,-667.043,0,0
122981,142.155,-664.955,0,0
123241,141.938,-662.803,0,0
123502,141.774,-660.637,0,0
123762,141.607,-658.433,0,0
124022,141.413,-656.234,0,0
124283,141.346,-654.075,0,0
124543,141.187,-651.974,0,0
124803,141.011,-649.861,0,0
125064,140.771,-647.814,0,0
125324,140.417,-645.682,0,0
125584,139.963,-643.467,0,0
125845,139.533,-641.155,0,0
126105,139.114,-638.748,0,0
126365,138.656,-636.289,0,0
126626,138.298,-633.808,0,0
126886,137.899,-631.251,0,0
127146,137.5,-628.613,0,0
127406,137.132,-625.762,0,0
127667,136.916,-622.929,0,0
127927,136.81,-619.835,0,0
128187,136.893,-616.855,0,0
128448,137.058,-613.819,0,0
128708,137.509,-610.827,0,0
128968,138.053,-608.012,0,0
129229,138.634,-605.346,0,0
129489,139.208,-602.856,0,0
129749,139.715,-600.365,0,0
130010,140.195,-597.948,0,0
130270,140.682,-595.538,0,0
130530,141.12,-593.164,0,0
130791,141.538,-590.78,0,0
131051,141.953,-588.445,0,0
131311,142.371,-586.034,0,0
131572,142.801,-583.572,0,0
131832,143.277,-581.135,0,0
132092,143.784,-578.686,0,0
132353,144.415,-576.376,0,0
132613,144.974,-574.064,0,0
132873,145.592,-571.734,0,0
133134,146.226,-569.437,0,0
133394,146.86,-567.234,0,0
133654,147.482,-565.014,0,0
133915,148.083,-562.846,0,0
134175,148.684,-560.688,0,0
134435,149.301,-558.497,0,0
134696,149.956,-556.302,0,0
134956,150.592,-554.13,0,0
135216,151.29,-552.037,0,0
135477,152.002,-549.914,0,0
135737,152.725,-547.843,0,0
135997,153.486,-545.825,0,0
136258,154.275,-543.83,0,0
136518,155.013,-541.969,0,0
136778,155.769,-540.123,0,0
137039,156.54,-538.326,0,0
137299,157.241,-536.641,0,0
137559,157.878,-534.939,0,0
137819,158.442,-533.299,0,0
138080,158.964,-531.659,0,0
138340.125,159.375,-529.996,0,0
138600.45,159.888,-528.397,0,0
138860.775,160.317,-526.648,0,0
139121.1,160.624,-524.963,0,0
139381.425,160.887,-523.242,0,0
139641.75,161.221,-521.52,0,0
139902.075,161.504,-519.727,0,0
140162.4,161.742,-518.001,0,0
140422.725,162.071,-516.031,0,0
140683.05,162.432,-514.141,0,0
140943.375,162.797,-512.329,0,0
141203.7,163.183,-510.419,0,0
141464.025,163.631,-508.613,0,0
141724.35,164.141,-507.022,0,0
141984.675,164.486,-505.44,0,0
142245.0,164.575,-503.817,0,0
142505.325,164.618,-502.149,0,0
142765.65,164.608,-500.301,0,0
143025.975,164.555,-498.332,0,0
143286.3,164.481,-496.274,0,0
143546.625,164.595,-494.102,0,0
143806.95,164.712,-491.734,0,0
144067.275,165.068,-489.443,0,0
144327.6,165.668,-487.095,0,0
144587.925,166.276,-484.985,0,0
144848.25,166.895,-482.989,0,0
145108.575,167.552,-481.029,0,0
145368.9,168.217,-479.237,0,0
145629.225,168.77,-477.642,0,0
145889.55,169.11,-476.007,0,0
146149.875,169.386,-474.274,0,0
146410.2,169.613,-472.534,0,0
146670.525,169.867,-470.788,0,0
146930.85,169.998,-469.035,0,0
147191.175,170.171,-467.258,0,0
147451.5,170.111,-465.56,0,0
147711.825,169.852,-463.685,0,0
147972.15,169.662,-461.548,0,0
148232.475,169.51,-459.35,0,0
148492.8,169.355,-457.087,0,0
148753.125,169.252,-454.658,0,0
149013.45,169.28,-452.173,0,0
149273.775,169.304,-449.542,0,0
149534.1,169.44,-446.943,0,0
149794.425,169.571,-444.253,0,0
150054.75,169.914,-441.505,0,0
150315.075,170.296,-438.78,0,0
150575.4,170.726,-436.132,0,0
150835.725,171.202,-433.374,0,0
151096.05,171.676,-430.576,0,0
151356.375,172.311,-427.824,0,0
151616.7,172.917,-424.899,0,0
151877.025,173.654,-421.902,0,0
152137.35,174.628,-418.901,0,0
152397.675,175.837,-415.979,0,0
152658.0,177.312,-413.175,0,0
152918.325,178.867,-410.74,0,0
153178.65,180.274,-408.607,0,0
153438.975,181.489,-406.503,0,0
153699.3,182.697,-404.483,0,0
153959.625,183.698,-402.5,0,0
154219.95,184.577,-400.56,0,0
154480,185.283,-398.46,0,0
154741,185.901,-396.187,0,0
155001,186.549,-393.749,0,0
155261,187.316,-391.1,0,0
155522,188.313,-388.36,0,0
155782,189.548,-385.549,0,0
156042,191.062,-382.83,0,0
156303,192.773,-380.393,0,0
156563,194.449,-378.197,0,0
156823,196.083,-376.199,0,0
157084,197.64,-374.302,0,0
157344,199.136,-372.57,0,0
157604,200.508,-370.829,0,0
157864,201.702,-369.243,0,0
158125,202.671,-367.698,0,0
158385,203.512,-365.991,0,0
158645,204.272,-364.189,0,0
158906,204.908,-362.178,0,0
159166,205.664,-360.066,0,0
159426,206.56,-357.826,0,0
159687,207.575,-355.674,0,0
159947,208.525,-353.641,0,0
160207,209.385,-351.568,0,0
160468,210.147,-349.337,0,0
160728,211.057,-347.102,0,0
160988,211.919,-344.793,0,0
161249,212.795,-342.47,0,0
161509,213.791,-340.08,0,0
161769,214.738,-337.555,0,0
162030,215.811,-335.136,0,0
162290,216.914,-332.755,0,0
162550,218.019,-330.216,0,0
162811,219.229,-327.726,0,0
163071,220.581,-325.283,0,0
163331,221.907,-322.958,0,0
163592,223.201,-320.711,0,0
163852,224.376,-318.484,0,0
164112,225.546,-316.23,0,0
164373,226.663,-314.04,0,0
164633,227.732,-311.862,0,0
164893,228.71,-309.561,0,0
165154,229.518,-307.148,0,0
165414,230.424,-304.652,0,0
165674,231.264,-302.089,0,0
165935,232.117,-299.333,0,0
166195,233.018,-296.49,0,0
166455,233.982,-293.528,0,0
166716,235.048,-290.468,0,0
166976,236.169,-287.329,0,0
167236,237.419,-284.132,0,0
167497,238.783,-280.859,0,0
167757,240.266,-277.597,0,0
168017,241.859,-274.361,0,0
168277,243.532,-271.123,0,0
168538,245.239,-267.903,0,0
168798,247.066,-264.688,0,0
169058,248.926,-261.52,0,0
169319,250.827,-258.436,0,0
169579,252.674,-255.4,0,0
169839,254.465,-252.262,0,0
170100,256.284,-249.101,0,0
170360.075,258.146,-245.857,0,0
170620.4,260.09,-242.574,0,0
170880.725,262.049,-239.339,0,0
171141.05,264.012,-236.071,0,0
171401.375,265.953,-232.782,0,0
171661.7,267.878,-229.399,0,0
171922.025,269.793,-225.878,0,0
172182.35,271.799,-222.286,0,0
172442.675,273.871,-218.597,0,0
172703.0,276.055,-214.869,0,0
172963.325,278.26,-211.051,0,0
173223.65,280.529,-207.174,0,0
173483.975,282.846,-203.156,0,0
173744.3,285.228,-199.068,0,0
174004.625,287.726,-194.846,0,0
174264.95,290.401,-190.482,0,0
174525.275,293.189,-186.057,0,0
174785.6,296.167,-181.563,0,0
175045.925,299.274,-177.036,0,0
175306.25,302.556,-172.426,0,0
175566.575,305.932,-167.81,0,0
175826.9,309.49,-163.14,0,0
176087.225,313.197,-158.419,0,0
176347.55,317.044,-153.584,0,0
176607.875,321.142,-148.724,0,0
176868.2,325.392,-143.836,0,0
177128.525,329.848,-138.933,0,0
177388.85,334.531,-133.985,0,0
177649.175,339.432,-129.039,0,0
177909.5,344.511,-124.146,0,0
178169.825,349.774,-119.251,0,0
178430.15,355.218,-114.351,0,0
178690.475,360.92,-109.404,0,0
178950.8,366.848,-104.537,0,0
179211.125,373.121,-99.6619,0,0
179471.45,379.616,-94.9458,0,0
179731.775,386.386,-90.3184,0,0
179992.1,393.395,-85.9264,0,0
180252.425,400.522,-81.6948,0,0
180512.75,407.715,-77.5916,0,0
180773.075,415.099,-73.7062,0,0
181033.4,422.419,-69.7969,0,0
181293.725,429.899,-65.9667,0,0
181554.05,437.609,-62.1203,0,0
181814.375,445.478,-58.3187,0,0
182074.7,453.531,-54.5975,0,0
182335.025,461.655,-51.0535,0,0
182595.35,469.864,-47.558,0,0
182855.675,478.228,-43.9644,0,0
183116.0,486.666,-40.3412,0,0
183376.325,495.362,-36.6195,0,0
183636.65,504.342,-32.7863,0,0
183896.975,513.766,-29.1282,0,0
184157.3,523.486,-25.3251,0,0
184417.625,533.625,-21.7798,0,0
184677.95,543.918,-18.2009,0,0
184938.275,554.646,-14.7725,0,0
185198.6,565.72,-11.3235,0,0
185458.925,577.23,-7.9945,0,0
185719.25,589.294,-4.78988,0,0
185979.575,601.641,-1.64342,0,0
186239.9,614.593,1.28169,0,0
186500,628.063,3.95884,0,0
186761,642.084,6.35919,0,0
187021,656.724,8.43412,0,0
187281,671.921,10.0973,0,0
187542,687.702,11.3191,0,0
187802,704.074,12.0495,0,0
188062,721.058,12.1487,0,0
188322,738.58,11.6571,0,0
188583,756.683,10.3959,0,0
188843,775.305,8.28358,0,0
189103,794.465,5.26063,0,0
189364,813.982,1.21906,0,0
189624,833.773,-3.95828,0,0
189884,853.881,-10.2305,0,0
190145,873.859,-17.5647,0,0
190405,893.916,-25.9709,0,0
190665,914.003,-35.5153,0,0
190926,934.044,-46.2981,0,0
191186,953.831,-58.1528,0,0
191446,973.21,-71.1754,0,0
191707,992.541,-85.3416,0,0
191967,1011.22,-100.691,0,0
192227,1029.48,-117.175,0,0
192488,1047.09,-134.716,0,0
192748,1064.07,-153.397,0,0
193008,1080.18,-173.214,0,0
193269,1095.55,-193.946,0,0
193529,1109.84,-215.638,0,0
193789,1123.33,-238.221,0,0
194050,1135.59,-261.628,0,0
194310,1146.81,-285.732,0,0
194570,1156.98,-310.757,0,0
194831,1165.68,-336.254,0,0
195091,1173.15,-362.48,0,0
195351,1179.17,-388.844,0,0
195612,1183.92,-415.735,0,0
195872,1187.3,-442.694,0,0
196132,1189.36,-470.208,0,0
196393,1189.74,-497.591,0,0
196653,1188.7,-524.79,0,0
196913,1186.19,-551.854,0,0
197174,1182.17,-578.514,0,0
197434,1176.98,-604.773,0,0
197694,1170.26,-630.608,0,0
197955,1162.47,-655.463,0,0
198215,1153.68,-679.741,0,0
198475,1143.9,-703.493,0,0
198735,1132.88,-726.165,0,0
198996,1120.97,-748.221,0,0
199256,1108.59,-769.242,0,0
199516,1095.23,-789.36,0,0
199777,1081.76,-808.639,0,0
200037,1067.26,-827.218,0,0
200297,1052.1,-844.86,0,0
200558,1036.81,-861.895,0,0
200818,1020.63,-877.741,0,0
201078,1004.13,-892.908,0,0
201339,987.243,-906.953,0,0
201599,969.982,-920.283,0,0
201859,952.526,-932.289,0,0
202120,934.531,-943.48,0,0
202380.025,916.904,-953.695,0,0
202640.35,899.192,-963.017,0,0
202900.675,881.441,-971.291,0,0
203161.0,863.648,-978.636,0,0
203421.325,846.311,-985.207,0,0
203681.65,829.221,-990.986,0,0
203941.975,812.116,-996.025,0,0
204202.3,795.255,-1000.24,0,0
204462.625,778.914,-1004.02,0,0
204722.95,762.813,-1007.41,0,0
204983.275,746.971,-1010.05,0,0
205243.6,731.572,-1012.08,0,0
205503.925,716.499,-1013.79,0,0
205764.25,701.357,-1014.62,0,0
206024.575,686.811,-1015.39,0,0
206284.9,672.663,-1015.61,0,0
206545.225,658.847,-1015.69,0,0
206805.55,645.092,-1015.14,0,0
207065.875,632.029,-1014.4,0,0
207326.2,619.14,-1013.3,0,0
207586.525,606.751,-1012.02,0,0
207846.85,594.473,-1010.43,0,0
208107.175,582.601,-1008.56,0,0
208367.5,571.206,-1006.56,0,0
208627.825,559.927,-1004.43,0,0
208888.15,549.12,-1002.04,0,0
209148.475,538.676,-999.541,0,0
209408.8,528.421,-996.884,0,0
209669.125,518.319,-994.434,0,0
209929.45,508.635,-991.518,0,0
210189.775,499.112,-988.798,0,0
210450.1,489.79,-985.942,0,0
210710.425,480.861,-983.197,0,0
210970.75,471.775,-980.366,0,0
211231.075,462.764,-977.372,0,0
211491.4,453.949,-974.123,0,0
211751.725,445.159,-970.815,0,0
212012.05,436.694,-967.241,0,0
212272.375,428.424,-963.465,0,0
212532.7,420.356,-959.579,0,0
212793.025,412.625,-955.63,0,0
213053.35,405.165,-951.593,0,0
213313.675,397.903,-947.492,0,0
213574.0,390.863,-943.416,0,0
213834.325,383.871,-939.247,0,0
214094.65,377.176,-935.074,0,0
214354.975,370.73,-930.845,0,0
214615.3,364.012,-926.463,0,0
214875.625,357.978,-922.241,0,0
215135.95,351.878,-917.621,0,0
215396.275,346.27,-912.951,0,0
215656.6,340.476,-908.587,0,0
215916.925,335.149,-904.037,0,0
216177.25,330.076,-899.53,0,0
216437.575,325.037,-895.115,0,0
216697.9,320.152,-890.652,0,0
216958.225,315.505,-886.261,0,0
217218.55,310.881,-881.849,0,0
217478.875,306.451,-877.537,0,0
217739.2,302.06,-873.199,0,0
217999.525,297.896,-868.804,0,0
218259.85,293.698,-864.513,0,0
218520,289.669,-860.179,0,0
218780,285.745,-855.904,0,0
219041,281.978,-851.668,0,0
219301,278.295,-847.369,0,0
219561,274.627,-843.026,0,0
219822,271.151,-838.735,0,0
220082,267.766,-834.51,0,0
220342,264.532,-830.24,0,0
220603,261.472,-825.94,0,0
220863,258.246,-821.672,0,0
221123,255.319,-817.446,0,0
221384,252.34,-813.215,0,0
221644,249.581,-808.973,0,0
221904,246.824,-804.735,0,0
222165,244.269,-800.437,0,0
222425,241.703,-796.265,0,0
222685,239.335,-791.909,0,0
222946,237.043,-787.712,0,0
223206,234.753,-783.627,0,0
223466,232.801,-779.371,0,0
223727,230.699,-775.014,0,0
223987,228.803,-770.971,0,0
224247,227.154,-766.719,0,0
224508,225.462,-762.622,0,0
224768,223.874,-758.478,0,0
225028,222.504,-754.333,0,0
225289,221.31,-750.284,0,0
225549,220.067,-746.47,0,0
225809,218.912,-742.517,0,0
226070,218.137,-738.749,0,0
226330,217.063,-735.113,0,0
226590,216.207,-731.414,0,0
226851,215.41,-727.891,0,0
227111,214.709,-724.4,0,0
227371,213.885,-721.062,0,0
227632,213.081,-717.751,0,0
227892,212.362,-714.414,0,0
228152,211.619,-711.194,0,0
228413,210.911,-707.975,0,0
228673,210.208,-704.734,0,0
228933,209.44,-701.549,0,0
229193,208.822,-698.208,0,0
229454,208.145,-694.916,0,0
229714,207.569,-691.817,0,0
229974,207.11,-688.601,0,0
230235,206.592,-685.188,0,0
230495,206.217,-681.939,0,0
230755,205.927,-678.757,0,0
231016,205.61,-675.503,0,0
231276,205.391,-672.281,0,0
231536,205.238,-669.021,0,0
231797,205.166,-665.82,0,0
232057,205.151,-662.664,0,0
232317,205.226,-659.447,0,0
232578,205.38,-656.266,0,0
232838,205.579,-653.115,0,0
233098,205.891,-650.009,0,0
233359,206.243,-646.929,0,0
233619,206.704,-643.86,0,0
233879,207.221,-640.802,0,0
234140,207.829,-637.845,0,0
234400,208.49,-634.835,0,0
234660.3,209.304,-631.92,0,0
234920.625,210.155,-629.016,0,0
235180.95,211.029,-626.099,0,0
235441.275,212.025,-623.4,0,0
235701.6,213.207,-620.661,0,0
235961.925,214.268,-618.074,0,0
236222.25,215.505,-615.403,0,0
236482.575,216.884,-612.833,0,0
236742.9,218.288,-610.295,0,0
237003.225,219.718,-607.917,0,0
237263.55,221.254,-605.519,0,0
237523.875,222.932,-603.279,0,0
237784.2,224.573,-601.067,0,0
238044.525,226.422,-598.905,0,0
238304.85,228.256,-596.893,0,0
238565.175,230.119,-594.956,0,0
238825.5,232.123,-593.116,0,0
239085.825,234.189,-591.367,0,0
239346.15,236.265,-589.704,0,0
239606.475,238.508,-588.168,0,0
239866.8,240.726,-586.81,0,0
240127.125,242.976,-585.499,0,0
240387.45,245.266,-584.335,0,0
240647.775,247.653,-583.239,0,0
240908.1,249.959,-582.353,0,0
241168.425,252.41,-581.556,0,0
241428.75,254.826,-580.86,0,0
241689.075,257.292,-580.328,0,0
241949.4,259.752,-579.918,0,0
242209.725,262.198,-579.617,0,0
242470.05,264.682,-579.49,0,0
242730.375,267.184,-579.467,0,0
242990.7,269.706,-579.566,0,0
243251.025,272.183,-579.832,0,0
243511.35,274.69,-580.221,0,0
243771.675,277.196,-580.828,0,0
244032.0,279.701,-581.628,0,0
244292.325,282.143,-582.65,0,0
244552.65,284.461,-583.755,0,0
244812.975,286.744,-585.188,0,0
245073.3,288.83,-586.855,0,0
245333.625,290.79,-588.646,0,0
245593.95,292.531,-590.598,0,0
245854.275,294.026,-592.503,0,0
246114.6,295.33,-594.591,0,0
246374.925,296.403,-596.554,0,0
246635.25,297.49,-598.611,0,0
246895.575,298.25,-600.627,0,0
247155.9,298.93,-602.651,0,0
247416.225,299.636,-604.619,0,0
247676.55,300.186,-606.544,0,0
247936.875,300.624,-608.578,0,0
248197.2,300.996,-610.645,0,0
248457.525,301.276,-612.504,0,0
248717.85,301.527,-614.4,0,0
248978.175,301.49,-616.397,0,0
249238.5,301.522,-618.135,0,0
249498.825,301.629,-619.89,0,0
249759.15,301.759,-621.399,0,0
250019.475,302.089,-623.095,0,0
250279.8,302.378,-625.083,0,0
250540,302.807,-627.01,0,0
250800,303.209,-629.139,0,0
251061,303.432,-631.579,0,0
251321,303.625,-634.19,0,0
251581,303.561,-636.877,0,0
251842,303.223,-639.704,0,0
252102,302.772,-642.601,0,0
252362,302.047,-645.473,0,0
252623,301.221,-648.412,0,0
252883,300.16,-651.314,0,0
253143,298.977,-654.259,0,0
253404,297.604,-657.179,0,0
253664,296.045,-660.176,0,0
253924,294.172,-663.058,0,0
254185,292.193,-665.879,0,0
254445,289.994,-668.651,0,0
254705,287.537,-671.301,0,0
254966,284.735,-673.896,0,0
255226,282.017,-676.079,0,0
255486,279.004,-678.41,0,0
255747,275.978,-680.369,0,0
256007,272.812,-682.123,0,0
256267,269.62,-683.811,0,0
256528,266.24,-685.221,0,0
256788,262.916,-686.527,0,0
257048,259.51,-687.59,0,0
257309,256.132,-688.533,0,0
257569,252.748,-689.29,0,0
257829,249.352,-689.888,0,0
258090,245.986,-690.356,0,0
258350,242.653,-690.702,0,0
258610,239.405,-690.893,0,0
258871,236.081,-691.03,0,0
259131,232.951,-690.951,0,0
259391,229.796,-690.952,0,0
259651,226.618,-690.743,0,0
259912,223.663,-690.377,0,0
260172,220.496,-689.896,0,0
260432,217.58,-689.535,0,0
260693,214.625,-688.932,0,0
260953,211.731,-688.377,0,0
261213,208.846,-687.73,0,0
261474,206.05,-686.922,0,0
261734,203.348,-686.134,0,0
261994,200.668,-685.261,0,0
262255,198.069,-684.305,0,0
262515,195.53,-683.362,0,0
262775,193.012,-682.307,0,0
263036,190.533,-681.218,0,0
263296,188.21,-680.15,0,0
263556,185.83,-678.979,0,0
263817,183.595,-677.858,0,0
264077,181.435,-676.619,0,0
264337,179.176,-675.356,0,0
264598,177.078,-674.297,0,0
264858,175.009,-672.939,0,0
265118,173.008,-671.704,0,0
265379,171.031,-670.363,0,0
265639,169.067,-669.163,0,0
265899,167.202,-667.842,0,0
266160,165.317,-666.477,0,0
266420,163.54,-665.195,0,0
266680.25,161.779,-663.816,0,0
266940.575,160.057,-662.493,0,0
267200.9,158.37,-661.119,0,0
267461.225,156.715,-659.773,0,0
267721.55,155.094,-658.435,0,0
267981.875,153.506,-657.089,0,0
268242.2,152.006,-655.786,0,0
268502.525,150.489,-654.377,0,0
268762.85,148.957,-652.991,0,0
269023.175,147.457,-651.657,0,0
269283.5,146.076,-650.269,0,0
269543.825,144.609,-648.905,0,0
269804.15,143.305,-647.553,0,0
270064.475,141.858,-646.214,0,0
270324.8,140.651,-644.906,0,0
270585.125,139.26,-643.511,0,0
270845.45,137.982,-642.131,0,0
271105.775,136.663,-640.772,0,0
271366.1,135.432,-639.407,0,0
271626.425,134.189,-638.06,0,0
271886.75,133.015,-636.656,0,0
272147.075,131.828,-635.309,0,0
272407.4,130.699,-633.965,0,0
272667.725,129.542,-632.565,0,0
272928.05,128.439,-631.202,0,0
273188.375,127.324,-629.83,0,0
273448.7,126.238,-628.47,0,0
273709.025,125.216,-627.146,0,0
273969.35,124.149,-625.805,0,0
274229.675,123.155,-624.426,0,0
274490.0,122.154,-623.104,0,0
274750.325,121.184,-621.767,0,0
275010.65,120.248,-620.392,0,0
275270.975,119.236,-618.987,0,0
275531.3,118.284,-617.712,0,0
275791.625,117.352,-616.346,0,0
276051.95,116.476,-615.036,0,0
276312.275,115.538,-613.654,0,0
276572.6,114.653,-612.306,0,0
276832.925,113.806,-610.946,0,0
277093.25,112.938,-609.6,0,0
277353.575,112.149,-608.253,0,0
277613.9,111.318,-606.914,0,0
277874.225,110.524,-605.538,0,0
278134.55,109.753,-604.174,0,0
278394.875,108.978,-602.813,0,0
278655.2,108.246,-601.414,0,0
278915.525,107.519,-600.061,0,0
279175.85,106.78,-598.656,0,0
279436.175,106.182,-597.253,0,0
279696.5,105.5,-595.813,0,0
279956.825,104.93,-594.453,0,0
280217.15,104.407,-593.034,0,0
280477.475,103.964,-591.661,0,0
280737.8,103.548,-590.299,0,0
280998.125,103.138,-589.034,0,0
281258.45,102.757,-587.799,0,0
281518.775,102.402,-586.623,0,0
281779.1,102.031,-585.463,0,0
282039.425,101.641,-584.373,0,0
282299.75,101.226,-583.287,0,0
282560,100.834,-582.229,0,0
282820,100.343,-581.22,0,0
283081,99.8155,-580.108,0,0
283341,99.3995,-578.994,0,0
283601,98.9454,-577.897,0,0
283862,98.5111,-576.848,0,0
284122,97.997,-575.783,0,0
284382,97.6007,-574.654,0,0
284643,97.034,-573.481,0,0
284903,96.6703,-572.434,0,0
285163,96.4679,-571.313,0,0
285424,96.062,-570.204,0,0
285684,95.7891,-569.231,0,0
285944,95.4758,-568.197,0,0
286205,95.2464,-567.203,0,0
286465,94.9238,-566.243,0,0
286725,94.696,-565.364,0,0
286986,94.406,-564.49,0,0
287246,94.1167,-563.746,0,0
287506,93.6912,-562.916,0,0
287767,93.2256,-562.062,0,0
288027,92.7419,-561.243,0,0
288287,92.3789,-560.43,0,0
288548,91.8699,-559.576,0,0
288808,91.4239,-558.715,0,0
289068,90.9012,-557.773,0,0
289329,90.4657,-556.932,0,0
289589,90.0193,-556.024,0,0
289849,89.614,-555.072,0,0
290109,89.1677,-554.136,0,0
290370,88.5716,-553.25,0,0
290630,88.2962,-552.306,0,0
290890,87.943,-551.422,0,0
291151,87.4683,-550.507,0,0
291411,87.1401,-549.557,0,0
291671,86.7733,-548.691,0,0
291932,86.3515,-547.823,0,0
292192,86.067,-546.913,0,0
292452,85.6548,-546.115,0,0
292713,85.2638,-545.301,0,0
292973,84.8704,-544.486,0,0
293233,84.473,-543.71,0,0
293494,84.0487,-542.879,0,0
293754,83.5664,-542.079,0,0
294014,83.0958,-541.25,0,0
294275,82.5775,-540.425,0,0
294535,82.0608,-539.601,0,0
294795,81.6481,-538.758,0,0
295056,81.1116,-537.848,0,0
295316,80.6633,-536.789,0,0
295576,80.1634,-535.912,0,0
295837,79.661,-534.984,0,0
296097,79.2071,-533.958,0,0
296357,78.8172,-532.97,0,0
296618,78.3922,-531.932,0,0
296878,77.9255,-530.981,0,0
297138,77.6349,-529.914,0,0
297399,77.3221,-528.878,0,0
297659,77.0303,-527.836,0,0
297919,76.8101,-526.786,0,0
298180,76.6064,-525.825,0,0
298440,76.3849,-524.82,0,0
298700.2,76.2531,-523.886,0,0
298960.525,76.1303,-523.02,0,0
299220.85,75.9742,-522.24,0,0
299481.175,75.7973,-521.412,0,0
299741.5,75.5718,-520.605,0,0
300001.825,75.3567,-519.815,0,0
300262.15,75.1002,-519.12,0,0
300522.475,74.861,-518.288,0,0
300782.8,74.6281,-517.552,0,0
301043.125,74.3431,-516.759,0,0
301303.45,73.992,-516.086,0,0
301563.775,73.7166,-515.282,0,0
301824.1,73.4233,-514.434,0,0
302084.425,73.0968,-513.682,0,0
302344.75,72.8346,-512.859,0,0
302605.075,72.5621,-512.075,0,0
302865.4,72.2229,-511.229,0,0
303125.725,71.9616,-510.417,0,0
303386.05,71.7064,-509.582,0,0
303646.375,71.4388,-508.714,0,0
303906.7,71.1342,-507.885,0,0
304167.025,70.92,-506.983,0,0
304427.35,70.7252,-506.201,0,0
304687.675,70.5071,-505.374,0,0
304948.0,70.3217,-504.574,0,0
305208.325,70.0732,-503.786,0,0
305468.65,69.9496,-503.022,0,0
305728.975,69.7768,-502.22,0,0
305989.3,69.6079,-501.43,0,0
306249.625,69.3221,-500.72,0,0
306509.95,69.1518,-500.001,0,0
306770.275,68.9408,-499.277,0,0
307030.6,68.6713,-498.54,0,0
307290.925,68.4618,-497.838,0,0
307551.25,68.1911,-497.071,0,0
307811.575,67.9221,-496.314,0,0
308071.9,67.6826,-495.62,0,0
308332.225,67.4435,-494.845,0,0
308592.55,67.1723,-494.111,0,0
308852.875,66.9838,-493.356,0,0
309113.2,66.7516,-492.599,0,0
309373.525,66.537,-491.806,0,0
309633.85,66.2735,-491.097,0,0
309894.175,66.1059,-490.35,0,0
310154.5,65.9521,-489.594,0,0
310414.825,65.6939,-488.835,0,0
310675.15,65.472,-488.163,0,0
310935.475,65.253,-487.382,0,0
311195.8,65.0638,-486.648,0,0
311456.125,64.8416,-485.941,0,0
311716.45,64.6336,-485.285,0,0
311976.775,64.467,-484.501,0,0
312237.1,64.1993,-483.79,0,0
312497.425,64.0165,-483.091,0,0
312757.75,63.7877,-482.385,0,0
313018.075,63.5982,-481.671,0,0
313278.4,63.3567,-480.969,0,0
313538.725,63.1427,-480.273,0,0
313799.05,62.9317,-479.519,0,0
314059.375,62.72,-478.749,0,0
314319.7,62.5827,-478.095,0,0
314580,62.331,-477.344,0,0
314840,62.1181,-476.597,0,0
315101,61.9176,-475.889,0,0
315361,61.7659,-475.177,0,0
315621,61.5229,-474.392,0,0
315882,61.3815,-473.699,0,0
316142,61.2067,-473.006,0,0
316402,61.0177,-472.28,0,0
316663,60.8048,-471.585,0,0
316923,60.612,-470.907,0,0
317183,60.4072,-470.147,0,0
317444,60.2381,-469.427,0,0
317704,60.0952,-468.788,0,0
317964,59.9317,-468.077,0,0
318225,59.7353,-467.323,0,0
318485,59.5685,-466.621,0,0
318745,59.3901,-465.962,0,0
319006,59.1674,-465.244,0,0
319266,59.0249,-464.55,0,0
319526,58.8487,-463.828,0,0
319787,58.6907,-463.117,0,0
320047,58.5975,-462.42,0,0
320307,58.373,-461.653,0,0
320567,58.2548,-461.029,0,0
320828,58.1265,-460.264,0,0
321088,57.9658,-459.633,0,0
321348,57.803,-458.973,0,0
321609,57.6932,-458.276,0,0
321869,57.5335,-457.549,0,0
322129,57.4345,-456.883,0,0
322390,57.3051,-456.203,0,0
322650,57.181,-455.537,0,0
322910,57.0957,-454.858,0,0
323171,56.9079,-454.172,0,0
323431,56.7656,-453.573,0,0
323691,56.6312,-452.895,0,0
323952,56.5299,-452.213,0,0
324212,56.3789,-451.607,0,0
324472,56.2121,-450.945,0,0
324733,56.079,-450.277,0,0
324993,55.9643,-449.652,0,0
325253,55.8313,-448.989,0,0
325514,55.6536,-448.389,0,0
325774,55.5101,-447.723,0,0
326034,55.3425,-447.084,0,0
326295,55.2312,-446.396,0,0
326555,55.0569,-445.763,0,0
326815,54.9433,-445.028,0,0
327076,54.7988,-444.464,0,0
327336,54.6101,-443.749,0,0
327596,54.4765,-443.116,0,0
327857,54.3015,-442.401,0,0
328117,54.2234,-441.769,0,0
328377,54.0947,-441.091,0,0
328638,53.9289,-440.407,0,0
328898,53.832,-439.78,0,0
329158,53.7123,-439.066,0,0
329419,53.5808,-438.45,0,0
329679,53.5253,-437.749,0,0
329939,53.4019,-437.043,0,0
330200,53.2917,-436.436,0,0
330460,53.1704,-435.724,0,0
330720.15,53.0532,-435.054,0,0
330980.475,52.9663,-434.434,0,0
331240.8,52.9083,-433.742,0,0
331501.125,52.797,-433.113,0,0
331761.45,52.7451,-432.47,0,0
332021.775,52.6526,-431.851,0,0
332282.1,52.6084,-431.188,0,0
332542.425,52.5116,-430.509,0,0
332802.75,52.4184,-429.934,0,0
333063.075,52.3214,-429.303,0,0
333323.4,52.2542,-428.657,0,0
333583.725,52.169,-428.004,0,0
333844.05,52.1018,-427.418,0,0
334104.375,52.0136,-426.781,0,0
334364.7,51.9817,-426.157,0,0
334625.025,51.8278,-425.517,0,0
334885.35,51.8128,-424.886,0,0
335145.675,51.756,-424.326,0,0
335406.0,51.6335,-423.657,0,0
335666.325,51.566,-423.03,0,0
335926.65,51.473,-422.424,0,0
336186.975,51.4212,-421.822,0,0
336447.3,51.3737,-421.206,0,0
336707.625,51.3335,-420.573,0,0
336967.95,51.2559,-419.976,0,0
337228.275,51.1826,-419.397,0,0
337488.6,51.0981,-418.834,0,0
337748.925,51.0156,-418.194,0,0
338009.25,50.938,-417.611,0,0
338269.575,50.8739,-416.968,0,0
338529.9,50.8395,-416.337,0,0
338790.225,50.7925,-415.798,0,0
339050.55,50.6714,-415.169,0,0
339310.875,50.6462,-414.512,0,0
339571.2,50.5779,-413.952,0,0
339831.525,50.5399,-413.276,0,0
340091.85,50.449,-412.699,0,0
340352.175,50.399,-412.114,0,0
340612.5,50.3552,-411.466,0,0
340872.825,50.3363,-410.893,0,0
341133.15,50.2358,-410.264,0,0
341393.475,50.2096,-409.646,0,0
341653.8,50.174,-409.069,0,0
341914.125,50.141,-408.399,0,0
342174.45,50.1273,-407.819,0,0
342434.775,50.072,-407.242,0,0
342695.1,50.091,-406.643,0,0
342955.425,50.051,-406.035,0,0
343215.75,50.0776,-405.475,0,0
343476.075,50.07,-404.894,0,0
343736.4,50.0591,-404.345,0,0
343996.725,50.0312,-403.783,0,0
344257.05,49.9905,-403.203,0,0
344517.375,49.9913,-402.634,0,0
344777.7,49.9315,-402.098,0,0
345038.025,49.8454,-401.555,0,0
345298.35,49.8448,-400.981,0,0
345558.675,49.7678,-400.396,0,0
345819.0,49.7655,-399.79,0,0
346079.325,49.7632,-399.187,0,0
346339.65,49.704,-398.638,0,0
346599.975,49.711,-398.03,0,0
346860,49.6791,-397.46,0,0
347121,49.6639,-396.892,0,0
347381,49.6922,-396.303,0,0
347641,49.669,-395.734,0,0
347902,49.6771,-395.123,0,0
348162,49.688,-394.581,0,0
348422,49.7313,-393.998,0,0
348683,49.7255,-393.424,0,0
348943,49.7469,-392.884,0,0
349203,49.8128,-392.308,0,0
349464,49.8498,-391.737,0,0
349724,49.8185,-391.201,0,0
349984,49.8859,-390.66,0,0
350245,49.9187,-390.134,0,0
350505,49.945,-389.569,0,0
350765,50.0191,-389.05,0,0
351025,50.0369,-388.544,0,0
351286,50.0852,-388.019,0,0
351546,50.1132,-387.556,0,0
351806,50.1559,-387.02,0,0
352067,50.1666,-386.483,0,0
352327,50.2453,-385.998,0,0
352587,50.2869,-385.522,0,0
352848,50.3271,-385.051,0,0
353108,50.3435,-384.512,0,0
353368,50.3718,-384.05,0,0
353629,50.4131,-383.625,0,0
353889,50.4442,-383.123,0,0
354149,50.4669,-382.673,0,0
354410,50.4895,-382.207,0,0
354670,50.5504,-381.794,0,0
354930,50.5051,-381.292,0,0
355191,50.5622,-380.849,0,0
355451,50.5567,-380.437,0,0
355711,50.5275,-379.991,0,0
355972,50.5398,-379.582,0,0
356232,50.5264,-379.098,0,0
356492,50.5571,-378.681,0,0
356753,50.4946,-378.243,0,0
357013,50.466,-377.785,0,0
357273,50.459,-377.342,0,0
357534,50.428,-376.889,0,0
357794,50.3797,-376.428,0,0
358054,50.3537,-375.976,0,0
358315,50.3321,-375.523,0,0
358575,50.2901,-375.045,0,0
358835,50.2917,-374.594,0,0
359096,50.2347,-374.126,0,0
359356,50.2537,-373.611,0,0
359616,50.2043,-373.173,0,0
359877,50.2305,-372.797,0,0
360137,50.1341,-372.347,0,0
360397,50.1397,-371.845,0,0
360658,50.1136,-371.432,0,0
360918,50.0506,-370.937,0,0
361178,49.9936,-370.482,0,0
361438,49.9715,-370.007,0,0
361699,49.9107,-369.521,0,0
361959,49.8837,-369.078,0,0
362219,49.8538,-368.606,0,0
362480,49.8073,-368.134,0,0
362740.1,49.751,-367.649,0,0
363000.425,49.7153,-367.165,0,0
363260.75,49.751,-366.698,0,0
363521.075,49.6951,-366.217,0,0
363781.4,49.6278,-365.728,0,0
364041.725,49.6103,-365.239,0,0
364302.05,49.58,-364.778,0,0
364562.375,49.5735,-364.29,0,0
364822.7,49.5053,-363.806,0,0
365083.025,49.496,-363.307,0,0
365343.35,49.5179,-362.861,0,0
365603.675,49.5048,-362.36,0,0
365864.0,49.4891,-361.863,0,0
366124.325,49.479,-361.419,0,0
366384.65,49.4719,-360.906,0,0
366644.975,49.4605,-360.448,0,0
366905.3,49.4873,-359.963,0,0
367165.625,49.4859,-359.468,0,0
367425.95,49.45,-359.03,0,0
367686.275,49.48,-358.575,0,0
367946.6,49.4494,-358.101,0,0
368206.925,49.4591,-357.638,0,0
368467.25,49.4495,-357.189,0,0
368727.575,49.4345,-356.72,0,0
368987.9,49.4215,-356.249,0,0
369248.225,49.4047,-355.783,0,0
369508.55,49.4071,-355.328,0,0
369768.875,49.4004,-354.893,0,0
370029.2,49.3932,-354.396,0,0
370289.525,49.3919,-353.924,0,0
370549.85,49.3768,-353.433,0,0
370810.175,49.4069,-352.982,0,0
371070.5,49.4295,-352.508,0,0
371330.825,49.4416,-352.06,0,0
371591.15,49.4325,-351.604,0,0
371851.475,49.4812,-351.133,0,0
372111.8,49.5279,-350.691,0,0
372372.125,49.5497,-350.271,0,0
372632.45,49.5969,-349.849,0,0
372892.775,49.5971,-349.437,0,0
373153.1,49.6288,-348.99,0,0
373413.425,49.6483,-348.62,0,0
373673.75,49.6733,-348.212,0,0
373934.075,49.6794,-347.831,0,0
374194.4,49.6592,-347.448,0,0
374454.725,49.645,-347.075,0,0
374715.05,49.6333,-346.673,0,0
374975.375,49.5589,-346.303,0,0
375235.7,49.5384,-345.899,0,0
375496.025,49.4339,-345.51,0,0
375756.35,49.3772,-345.107,0,0
376016.675,49.2582,-344.653,0,0
376277.0,49.2465,-344.273,0,0
376537.325,49.1379,-343.79,0,0
376797.65,49.0966,-343.352,0,0
377057.975,49.0099,-342.903,0,0
377318.3,48.9177,-342.439,0,0
377578.625,48.8636,-341.971,0,0
377838.95,48.7826,-341.523,0,0
378099.275,48.7379,-341.045,0,0
378359.6,48.654,-340.587,0,0
378619.925,48.5976,-340.106,0,0
378880,48.5757,-339.611,0,0
379141,48.4959,-339.136,0,0
379401,48.4295,-338.663,0,0
379661,48.3979,-338.148,0,0
379922,48.2936,-337.68,0,0
380182,48.2915,-337.172,0,0
380442,48.2376,-336.638,0,0
380703,48.1778,-336.152,0,0
380963,48.1548,-335.619,0,0
381223,48.1151,-335.113,0,0
381483,48.0875,-334.597,0,0
381744,48.1163,-334.048,0,0
382004,48.0835,-333.517,0,0
382264,48.1296,-332.98,0,0
382525,48.1416,-332.475,0,0
382785,48.1641,-331.986,0,0
383045,48.2251,-331.444,0,0
383306,48.2896,-331.013,0,0
383566,48.3502,-330.538,0,0
383826,48.4014,-330.145,0,0
384087,48.4243,-329.726,0,0
384347,48.3926,-329.273,0,0
384607,48.3739,-328.83,0,0
384868,48.3606,-328.383,0,0
385128,48.3007,-327.906,0,0
385388,48.2843,-327.446,0,0
385649,48.2479,-326.947,0,0
385909,48.2293,-326.444,0,0
386169,48.2311,-326.002,0,0
386430,48.225,-325.523,0,0
386690,48.171,-325.07,0,0
386950,48.174,-324.555,0,0
387211,48.1559,-324.042,0,0
387471,48.14,-323.568,0,0
387731,48.1443,-323.074,0,0
387992,48.1169,-322.556,0,0
388252,48.1171,-322.065,0,0
388512,48.1103,-321.589,0,0
388773,48.0907,-321.082,0,0
389033,48.0961,-320.594,0,0
389293,48.0876,-320.07,0,0
389554,48.103,-319.584,0,0
389814,48.1115,-319.045,0,0
390074,48.101,-318.546,0,0
390335,48.1365,-318.052,0,0
390595,48.1187,-317.555,0,0
390855,48.151,-317.038,0,0
391116,48.1693,-316.508,0,0
391376,48.1462,-316.01,0,0
391636,48.1925,-315.516,0,0
391896,48.2076,-314.994,0,0
392157,48.2403,-314.501,0,0
392417,48.2386,-313.97,0,0
392677,48.2665,-313.461,0,0
392938,48.2625,-312.943,0,0
393198,48.2792,-312.423,0,0
393458,48.3092,-311.933,0,0
393719,48.3333,-311.416,0,0
393979,48.3448,-310.901,0,0
394239,48.392,-310.368,0,0
394500,48.4404,-309.846,0,0
394760.05,48.4478,-309.323,0,0
395020.375,48.4685,-308.796,0,0
395280.7,48.5139,-308.281,0,0
395541.025,48.5338,-307.79,0,0
395801.35,48.5657,-307.234,0,0
396061.675,48.6127,-306.716,0,0
396322.0,48.6439,-306.19,0,0
396582.325,48.6679,-305.666,0,0
396842.65,48.7167,-305.131,0,0
397102.975,48.7717,-304.608,0,0
397363.3,48.7953,-304.062,0,0
397623.625,48.8569,-303.553,0,0
397883.95,48.9067,-302.982,0,0
398144.275,48.9409,-302.464,0,0
398404.6,49.0207,-301.922,0,0
398664.925,49.0736,-301.401,0,0
398925.25,49.129,-300.85,0,0
399185.575,49.1778,-300.309,0,0
399445.9,49.2325,-299.781,0,0
399706.225,49.2853,-299.232,0,0
399966.55,49.3455,-298.692,0,0
400006.6,49.3422,-298.629,0,0