File: Accelerated corrosion test data/2025-10-23_18-00-04/sample_2.csv
Frequency (Hz),Impedance (ohms),Phase (Radians),Temperature (C),Humidity (%)
10000.0,235.081,-11467,0,0
10260.325,229.145,-11179.1,0,0
10520.65,223.202,-10904.6,0,0
10780.975,218.467,-10643.2,0,0
11041.3,213.376,-10394.5,0,0
11301.625,208.617,-10156.6,0,0
11561.95,204.924,-9928.25,0,0
11822.275,203.936,-9719.55,0,0
12082.6,196.642,-9508.24,0,0
12342.925,191.88,-9310.8,0,0
12603.25,187.649,-9118.58,0,0
12863.575,184.178,-8934.25,0,0
13123.9,181.125,-8760.42,0,0
13384.225,176.653,-8589,0,0
13644.55,174.691,-8423.78,0,0
13904.875,187.717,-8264.68,0,0
14165.2,169.829,-8124.59,0,0
14425.525,165.392,-7973.84,0,0
14685.8,166.49,-7828.24,0,0
14946.175,162.508,-7699.4,0,0
15206.5,170.453,-7575.41,0,0
15466.825,160.583,-7442.71,0,0
15727.15,154.972,-7328.44,0,0
15987.5,151.314,-7206.52,0,0
16247.8,150.708,-7091.79,0,0
16508.125,145.776,-6981.05,0,0
16768.45,143.267,-6872.77,0,0
17028.775,142.538,-6767.8,0,0
17289.1,141.052,-6666.44,0,0
17549.425,136.885,-6568.13,0,0
17809.75,135.93,-6472.09,0,0
18070.075,132.766,-6378.44,0,0
18330.4,131.008,-6287.47,0,0
18590.725,130.265,-6198.74,0,0
18851.05,128.95,-6113.03,0,0
19111.375,130.695,-6030.58,0,0
19371.7,130.532,-5952.95,0,0
19632.025,124.917,-5874.58,0,0
19892.35,122.472,-5796.49,0,0
20152.675,120.797,-5720.52,0,0
20413.0,119.906,-5645.82,0,0
20673.3,119.025,-5572.97,0,0
20933.65,119.734,-5501.17,0,0
21193.975,127.475,-5432.08,0,0
21454.3,131.653,-5370.96,0,0
21714.625,129.962,-5315.67,0,0
21974.9,122.124,-5252.39,0,0
22235.275,120.869,-5196.74,0,0
22495.6,116.541,-5135.93,0,0
22755.925,112.802,-5074.98,0,0
23016.25,114.228,-5019.07,0,0
23276.6,114.888,-4963.89,0,0
23536.9,109.475,-4909.11,0,0
23797.225,108.847,-4854.18,0,0
24057.55,107.966,-4803.54,0,0
24317.875,104.788,-4752.21,0,0
24578.2,102.326,-4701.22,0,0
24838.525,101.203,-4650.87,0,0
25098.85,100.037,-4601.74,0,0
25359.175,99.057,-4554.71,0,0
25619.5,99.1361,-4507.55,0,0
25879.8,97.3885,-4461.86,0,0
26140.1,97.9948,-4415.94,0,0
26400.5,97.0405,-4373.73,0,0
26660.8,97.455,-4330.75,0,0
26921.1,96.0012,-4288.92,0,0
27181.4,94.7414,-4248.83,0,0
27441.8,92.6317,-4208.01,0,0
27702.1,91.8056,-4167.97,0,0
27962.4,90.7146,-4127.56,0,0
28222.7,90.7525,-4088.71,0,0
28483.1,90.9764,-4050.82,0,0
28743.4,90.2047,-4013.45,0,0
29003.7,91.5033,-3975.37,0,0
29264,91.7962,-3940.74,0,0
29524.4,93.7251,-3904.45,0,0
29784.7,97.3909,-3874,0,0
30045,94.7967,-3843.97,0,0
30305.3,94.6483,-3810.96,0,0
30565.7,92.094,-3783.11,0,0
30826,88.814,-3750.03,0,0
31086.3,86.9287,-3717.65,0,0
31346.6,85.8177,-3686.8,0,0
31607,85.5743,-3654.95,0,0
31867.3,84.3455,-3626.25,0,0
32127.6,82.9317,-3595.45,0,0
32387.9,82.9289,-3564.96,0,0
32648.3,83.8635,-3536.89,0,0
32908.6,84.3477,-3510.88,0,0
33168.9,82.1835,-3483.85,0,0
33429.2,80.4199,-3456.55,0,0
33689.6,80.2358,-3429.43,0,0
33949.9,79.2249,-3402.9,0,0
34210.2,77.8088,-3377.44,0,0
34470.5,76.818,-3351.06,0,0
34730.9,76.2317,-3325.28,0,0
34991.2,75.8026,-3299.98,0,0
35251.5,75.3685,-3275.16,0,0
35511.8,74.674,-3250.77,0,0
35772.2,74.0515,-3226.78,0,0
36032.5,73.6626,-3203.3,0,0
36292.8,72.9677,-3179.92,0,0
36553.1,72.5292,-3156.68,0,0
36813.5,72.1796,-3134.06,0,0
37073.8,71.8413,-3111.52,0,0
37334.1,71.3709,-3089.45,0,0
37594.4,71.1408,-3067.73,0,0
37854.8,70.6377,-3046.36,0,0
38115.1,70.4481,-3025.5,0,0
38375.4,69.8067,-3004.79,0,0
38635.7,69.1809,-2983.9,0,0
38896.1,69.1026,-2963.56,0,0
39156.4,68.7146,-2943.59,0,0
39416.7,68.2706,-2923.79,0,0
39677,67.7033,-2904.05,0,0
39937.4,67.3608,-2884.98,0,0
40197.7,66.8331,-2865.59,0,0
40458,66.8275,-2846.74,0,0
40718.3,66.5013,-2827.92,0,0
40978.7,66.5516,-2809.88,0,0
41239,65.8104,-2791.46,0,0
41499.3,66.0684,-2773.74,0,0
41759.6,65.5431,-2756.17,0,0
42020,65.2402,-2738.39,0,0
42280.275,65.6027,-2721.23,0,0
42540.6,64.9615,-2704.92,0,0
42800.925,64.4327,-2688.17,0,0
43061.25,64.133,-2671.06,0,0
43321.575,63.9727,-2654.87,0,0
43581.9,63.6407,-2638.53,0,0
43842.225,63.4683,-2622.3,0,0
44102.55,63.1908,-2606.41,0,0
44362.875,62.8722,-2590.86,0,0
44623.2,62.8081,-2575.47,0,0
44883.525,62.2422,-2559.98,0,0
45143.85,62.1243,-2544.28,0,0
45404.175,62.3496,-2529.46,0,0
45664.5,62.0605,-2514.97,0,0
45924.825,61.8454,-2500,0,0
46185.15,62.3015,-2485.79,0,0
46445.475,61.7897,-2471.83,0,0
46705.8,61.3469,-2457.55,0,0
46966.125,60.9618,-2443.21,0,0
47226.45,61.0362,-2429.03,0,0
47486.775,61.4471,-2415.53,0,0
47747.1,60.7478,-2402.44,0,0
48007.425,60.9268,-2388.47,0,0
48267.75,61.1612,-2374.93,0,0
48528.075,62.1552,-2362.44,0,0
48788.4,61.5628,-2350.72,0,0
49048.725,60.7567,-2338.32,0,0
49309.05,59.9794,-2325.7,0,0
49569.375,59.4967,-2313.09,0,0
49829.7,59.1145,-2300.69,0,0
50090.025,58.6353,-2288.04,0,0
50350.35,58.1955,-2275.97,0,0
50610.675,57.8824,-2263.47,0,0
50871.0,57.8431,-2251.36,0,0
51131.325,57.8003,-2239.74,0,0
51391.65,57.2569,-2228.19,0,0
51651.975,56.6758,-2216.5,0,0
51912.3,56.2682,-2204.68,0,0
52172.625,56.0056,-2193.13,0,0
52432.95,55.6914,-2181.65,0,0
52693.275,55.6331,-2170.27,0,0
52953.6,55.2965,-2159.02,0,0
53213.925,55.1044,-2147.72,0,0
53474.25,55.0791,-2136.76,0,0
53734.575,54.8174,-2125.84,0,0
53994.9,54.5532,-2114.85,0,0
54255.225,54.5065,-2103.98,0,0
54515.55,54.4419,-2093.38,0,0
54775.875,54.5025,-2082.94,0,0
55036.2,54.3552,-2072.7,0,0
55296.525,54.1647,-2062.23,0,0
55556.85,54.1417,-2052,0,0
55817.175,53.9941,-2041.64,0,0
56077.5,54.0372,-2031.66,0,0
56337.825,53.9749,-2021.79,0,0
56598.15,53.9907,-2011.9,0,0
56858.475,54.0997,-2001.99,0,0
57118.8,54.0846,-1992.36,0,0
57379.125,53.9331,-1982.65,0,0
57639.45,54.0085,-1973.13,0,0
57899.775,54.2751,-1963.68,0,0
58160.1,54.1748,-1954.55,0,0
58420.4,54.2253,-1945.22,0,0
58680.7,53.9832,-1935.94,0,0
58941.1,54.2775,-1926.54,0,0
59201.4,54.3838,-1917.37,0,0
59461.7,54.7602,-1908.22,0,0
59722,55.0564,-1899.36,0,0
59982.4,55.4621,-1890.36,0,0
60242.7,56.4361,-1881.98,0,0
60503,56.6383,-1874.16,0,0
60763.3,56.7298,-1865.66,0,0
61023.7,57.0576,-1857.44,0,0
61284,57.4317,-1849.18,0,0
61544.3,58.2748,-1841.19,0,0
61804.6,58.8591,-1833.96,0,0
62065,59.0406,-1827.28,0,0
62325.3,57.9644,-1820.18,0,0
62585.6,57.544,-1812.2,0,0
62845.9,57.8821,-1804.95,0,0
63106.3,57.0546,-1798.34,0,0
63366.6,55.564,-1790.48,0,0
63626.9,55.1846,-1782.75,0,0
63887.2,54.6173,-1775,0,0
64147.6,53.7905,-1767.41,0,0
64407.9,53.5049,-1759.63,0,0
64668.2,52.8634,-1752.27,0,0
64928.5,52.0702,-1744.58,0,0
65188.9,51.4042,-1736.73,0,0
65449.2,50.8284,-1728.64,0,0
65709.5,50.7521,-1720.53,0,0
65969.8,50.9187,-1712.8,0,0
66230.2,51.0006,-1705.15,0,0
66490.5,51.0586,-1697.58,0,0
66750.8,51.285,-1690.52,0,0
67011.1,51.0915,-1683.01,0,0
67271.5,51.2536,-1675.42,0,0
67531.8,51.7666,-1667.87,0,0
67792.1,52.5678,-1660.73,0,0
68052.4,53.2739,-1654.06,0,0
68312.8,53.9307,-1647.82,0,0
68573.1,54.0042,-1641.35,0,0
68833.4,54.4628,-1634.84,0,0
69093.7,54.7629,-1628.5,0,0
69354.1,55.4789,-1622.41,0,0
69614.4,55.5383,-1617,0,0
69874.7,55.638,-1610.9,0,0
70135,55.8876,-1605.59,0,0
70395.4,55.371,-1600.3,0,0
70655.7,54.6089,-1594.99,0,0
70916,53.334,-1589.21,0,0
71176.3,52.4047,-1583.07,0,0
71436.7,51.4553,-1576.68,0,0
71697,50.9999,-1570.29,0,0
71957.3,50.5514,-1564.65,0,0
72217.6,49.2482,-1558.78,0,0
72478,47.8487,-1552.41,0,0
72738.3,46.8962,-1545.41,0,0
72998.6,46.4954,-1538.46,0,0
73258.9,46.3761,-1532.01,0,0
73519.3,45.8187,-1525.72,0,0
73779.6,45.3691,-1519.07,0,0
74039.9,44.9994,-1512.36,0,0
74300.225,45.0881,-1505.72,0,0
74560.55,45.1237,-1499.35,0,0
74820.875,45.1177,-1493.04,0,0
75081.2,45.2318,-1486.65,0,0
75341.525,45.5445,-1480.37,0,0
75601.85,45.8358,-1474.22,0,0
75862.175,46.1386,-1468.07,0,0
76122.5,46.5163,-1461.98,0,0
76382.825,47.027,-1456.13,0,0
76643.15,47.4462,-1450.31,0,0
76903.475,47.8882,-1444.57,0,0
77163.8,48.4037,-1438.91,0,0
77424.125,48.993,-1433.12,0,0
77684.45,49.8687,-1427.67,0,0
77944.775,50.6507,-1422.47,0,0
78205.1,51.4059,-1417.45,0,0
78465.425,52.1599,-1412.66,0,0
78725.75,52.7229,-1408.16,0,0
78986.075,52.9968,-1403.66,0,0
79246.4,53.2345,-1399.08,0,0
79506.725,53.5865,-1394.81,0,0
79767.05,53.252,-1390.8,0,0
80027.375,52.7022,-1386.48,0,0
80287.7,51.9064,-1382.03,0,0
80548.025,51.1834,-1377.09,0,0
80808.35,50.5348,-1372.11,0,0
81068.675,49.9381,-1367.06,0,0
81329.0,49.4627,-1361.94,0,0
81589.325,49.0965,-1356.78,0,0
81849.65,48.7941,-1351.64,0,0
82109.975,48.5836,-1346.46,0,0
82370.3,48.2661,-1341.31,0,0
82630.625,48.2012,-1336.1,0,0
82890.95,48.0827,-1330.95,0,0
83151.275,48.123,-1325.83,0,0
83411.6,48.2447,-1320.79,0,0
83671.925,48.4157,-1315.83,0,0
83932.25,48.5632,-1310.94,0,0
84192.575,48.7473,-1306.19,0,0
84452.9,48.9331,-1301.37,0,0
84713.225,49.0676,-1296.64,0,0
84973.55,49.2872,-1291.98,0,0
85233.875,49.2891,-1287.4,0,0
85494.2,49.4078,-1282.66,0,0
85754.525,49.6016,-1277.98,0,0
86014.85,49.9668,-1273.44,0,0
86275.175,50.1879,-1269.01,0,0
86535.5,50.4076,-1264.59,0,0
86795.825,50.596,-1260.26,0,0
87056.15,50.7754,-1255.92,0,0
87316.475,50.9221,-1251.6,0,0
87576.8,51.08,-1247.49,0,0
87837.125,51.0611,-1243.25,0,0
88097.45,51.1084,-1239.01,0,0
88357.775,50.9954,-1234.83,0,0
88618.1,51.0629,-1230.41,0,0
88878.425,51.0698,-1226.26,0,0
89138.75,51.1481,-1221.89,0,0
89399.075,51.3554,-1217.59,0,0
89659.4,51.3361,-1213.42,0,0
89919.725,51.6539,-1209,0,0
90180,52.1319,-1205.15,0,0
90440.4,52.0056,-1201.61,0,0
90700.7,51.5237,-1197.44,0,0
90961,51.2782,-1192.75,0,0
91221.3,51.6179,-1188.14,0,0
91481.7,52.3259,-1183.91,0,0
91742,52.6969,-1180.07,0,0
92002.3,52.8716,-1176.04,0,0
92262.6,53.4538,-1171.92,0,0
92523,54.0122,-1168.12,0,0
92783.3,54.3708,-1164.44,0,0
93043.6,54.706,-1160.88,0,0
93303.9,54.8521,-1157.13,0,0
93564.3,55.3694,-1153.19,0,0
93824.6,56.1134,-1149.91,0,0
94084.9,56.3057,-1147.19,0,0
94345.2,55.9751,-1144,0,0
94605.6,55.4007,-1140.64,0,0
94865.9,55.1107,-1136.71,0,0
95126.2,55.0542,-1133.05,0,0
95386.5,54.6591,-1129.42,0,0
95646.9,54.2863,-1125.28,0,0
95907.2,54.4627,-1120.89,0,0
96167.5,55.1152,-1116.75,0,0
96427.8,56.0591,-1113.06,0,0
96688.2,56.7041,-1109.82,0,0
96948.5,57.2185,-1106.6,0,0
97208.8,57.896,-1103.46,0,0
97469.1,58.6693,-1100.9,0,0
97729.5,58.6925,-1098.87,0,0
97989.8,57.7901,-1096.22,0,0
98250.1,57.3376,-1092.88,0,0
98510.4,57.3158,-1089.8,0,0
98770.8,57.0766,-1087.08,0,0
99031.1,56.3544,-1084.39,0,0
99291.4,55.5505,-1081.37,0,0
99551.7,54.5729,-1078.24,0,0
99812.1,53.6068,-1074.66,0,0
100072,53.0235,-1070.87,0,0
100333,52.6755,-1067.38,0,0
100593,52.2083,-1064.15,0,0
100853,51.5292,-1060.84,0,0
101114,50.6472,-1057.5,0,0
101374,49.7275,-1053.85,0,0
101634,48.7983,-1050.08,0,0
101895,47.8857,-1046.05,0,0
102155,47.2169,-1041.73,0,0
102415,46.9337,-1037.47,0,0
102676,46.6459,-1033.54,0,0
102936,46.0878,-1029.34,0,0
103196,45.8828,-1024.87,0,0
103457,45.9205,-1020.49,0,0
103717,46.0905,-1016.22,0,0
103977,46.2888,-1011.84,0,0
104238,46.8795,-1007.48,0,0
104498,47.6559,-1003.3,0,0
104758,48.65,-999.434,0,0
105019,49.5533,-995.872,0,0
105279,50.1684,-992.47,0,0
105539,50.6809,-988.836,0,0
105800,51.6266,-985.048,0,0
106060,52.8055,-981.575,0,0
106320.175,53.9907,-978.415,0,0
106580.5,55.2836,-975.613,0,0
106840.825,56.2862,-973.212,0,0
107101.15,56.991,-970.884,0,0
107361.475,57.606,-968.573,0,0
107621.8,57.9689,-966.517,0,0
107882.125,57.9013,-964.437,0,0
108142.45,57.819,-962.107,0,0
108402.775,57.4668,-959.861,0,0
108663.1,56.9655,-957.377,0,0
108923.425,56.3274,-954.849,0,0
109183.75,55.5579,-952.002,0,0
109444.075,54.9094,-948.924,0,0
109704.4,54.395,-945.826,0,0
109964.725,53.7938,-942.768,0,0
110225.05,53.0732,-939.499,0,0
110485.375,52.3986,-936.093,0,0
110745.7,52.1356,-932.334,0,0
111006.025,51.8741,-928.771,0,0
111266.35,51.7328,-925.185,0,0
111526.675,51.7471,-921.529,0,0
111787.0,51.7344,-918.113,0,0
112047.325,51.8344,-914.537,0,0
112307.65,51.8023,-910.993,0,0
112567.975,52.0029,-907.484,0,0
112828.3,52.1568,-904.058,0,0
113088.625,52.3708,-900.578,0,0
113348.95,52.6672,-896.97,0,0
113609.275,53.0837,-893.503,0,0
113869.6,53.5557,-890.239,0,0
114129.925,53.8241,-886.888,0,0
114390.25,54.2321,-883.43,0,0
114650.575,54.7939,-880.055,0,0
114910.9,55.2661,-876.767,0,0
115171.225,55.8473,-873.354,0,0
115431.55,56.5141,-870.267,0,0
115691.875,57.1215,-867.06,0,0
115952.2,57.7525,-863.889,0,0
116212.525,58.4763,-860.77,0,0
116472.85,59.2283,-857.698,0,0
116733.175,60.0381,-854.698,0,0
116993.5,60.8237,-851.864,0,0
117253.825,61.498,-848.989,0,0
117514.15,62.2374,-846.102,0,0
117774.475,63.0456,-843.192,0,0
118034.8,63.9671,-840.392,0,0
118295.125,64.9403,-837.793,0,0
118555.45,65.783,-835.282,0,0
118815.775,66.6239,-832.849,0,0
119076.1,67.4562,-830.516,0,0
119336.425,68.2027,-828.277,0,0
119596.75,68.8583,-826.137,0,0
119857.075,69.4489,-824.064,0,0
120117.4,69.9613,-821.973,0,0
120377.725,70.3188,-820.005,0,0
120638.05,70.6227,-818.062,0,0
120898.375,70.6929,-816.074,0,0
121158.7,70.6517,-813.998,0,0
121419.025,70.5345,-811.863,0,0
121679.35,70.4465,-809.615,0,0
121939.675,70.2523,-807.352,0,0
122200.0,70.0118,-805.036,0,0
122460,69.6787,-802.553,0,0
122721,69.4471,-799.917,0,0
122981,69.3005,-797.284,0,0
123241,69.1492,-794.674,0,0
123502,68.9877,-792.005,0,0
123762,68.8832,-789.28,0,0
124022,68.7451,-786.614,0,0
124283,68.5871,-783.832,0,0
124543,68.4743,-781.018,0,0
124803,68.3482,-778.188,0,0
125064,68.2442,-775.328,0,0
125324,68.111,-772.343,0,0
125584,68.0532,-769.261,0,0
125845,68.172,-766.142,0,0
126105,68.306,-763.089,0,0
126365,68.4539,-760.038,0,0
126626,68.7016,-756.861,0,0
126886,69.0457,-753.681,0,0
127146,69.5753,-750.56,0,0
127406,70.1118,-747.595,0,0
127667,70.6846,-744.71,0,0
127927,71.2389,-741.877,0,0
128187,71.8529,-739.071,0,0
128448,72.3261,-736.258,0,0
128708,72.8787,-733.447,0,0
128968,73.4578,-730.715,0,0
129229,74.11,-728.032,0,0
129489,74.649,-725.413,0,0
129749,75.1711,-722.761,0,0
130010,75.7035,-720.103,0,0
130270,76.251,-717.437,0,0
130530,76.9229,-714.893,0,0
130791,77.5046,-712.421,0,0
131051,78.0366,-710.02,0,0
131311,78.4339,-707.638,0,0
131572,78.7901,-705.219,0,0
131832,79.075,-702.802,0,0
132092,79.2831,-700.325,0,0
132353,79.4231,-697.738,0,0
132613,79.5769,-695.003,0,0
132873,79.8955,-692.24,0,0
133134,80.2407,-689.538,0,0
133394,80.5398,-686.832,0,0
133654,80.9282,-684.07,0,0
133915,81.3402,-681.374,0,0
134175,81.6647,-678.786,0,0
134435,81.8047,-676.21,0,0
134696,81.8717,-673.346,0,0
134956,82.0211,-670.352,0,0
135216,82.3455,-667.256,0,0
135477,82.7687,-664.203,0,0
135737,83.2425,-661.211,0,0
135997,83.6803,-658.127,0,0
136258,84.1966,-655.05,0,0
136518,84.7973,-651.991,0,0
136778,85.4369,-649.045,0,0
137039,86.0248,-646.064,0,0
137299,86.5716,-642.944,0,0
137559,87.3065,-639.845,0,0
137819,88.0549,-636.784,0,0
138080,88.8999,-633.814,0,0
138340.125,89.6092,-630.919,0,0
138600.45,90.1993,-627.999,0,0
138860.775,90.7719,-624.899,0,0
139121.1,91.5132,-621.724,0,0
139381.425,92.2715,-618.619,0,0
139641.75,92.9485,-615.556,0,0
139902.075,93.4705,-612.383,0,0
140162.4,94.0812,-608.863,0,0
140422.725,94.8497,-605.239,0,0
140683.05,95.8219,-601.481,0,0
140943.375,97.0977,-597.743,0,0
141203.7,98.4573,-594.202,0,0
141464.025,99.8359,-590.571,0,0
141724.35,101.4,-586.9,0,0
141984.675,103.171,-583.3,0,0
142245.0,105.111,-579.825,0,0
142505.325,107.14,-576.548,0,0
142765.65,109.157,-573.453,0,0
143025.975,111.059,-570.447,0,0
143286.3,112.884,-567.417,0,0
143546.625,114.715,-564.226,0,0
143806.95,116.776,-561.007,0,0
144067.275,118.967,-557.903,0,0
144327.6,121.194,-554.926,0,0
144587.925,123.378,-552.047,0,0
144848.25,125.546,-549.089,0,0
145108.575,127.825,-546.124,0,0
145368.9,130.228,-543.249,0,0
145629.225,132.582,-540.504,0,0
145889.55,134.875,-537.694,0,0
146149.875,137.235,-534.787,0,0
146410.2,139.799,-531.862,0,0
146670.525,142.43,-529.055,0,0
146930.85,145.062,-526.236,0,0
147191.175,147.785,-523.385,0,0
147451.5,150.616,-520.485,0,0
147711.825,153.679,-517.598,0,0
147972.15,156.801,-514.775,0,0
148232.475,160.055,-511.831,0,0
148492.8,163.706,-508.838,0,0
148753.125,167.627,-506.019,0,0
149013.45,171.806,-503.223,0,0
149273.775,176.536,-500.455,0,0
149534.1,181.944,-498.271,0,0
149794.425,187.437,-496.939,0,0
150054.75,192.823,-495.916,0,0
150315.075,198.503,-495.241,0,0
150575.4,204.51,-495.38,0,0
150835.725,210.228,-496.628,0,0
151096.05,215.223,-498.485,0,0
151356.375,219.645,-500.599,0,0
151616.7,223.632,-502.912,0,0
151877.025,227.29,-505.379,0,0
152137.35,230.709,-508.288,0,0
152397.675,233.273,-511.653,0,0
152658.0,235.125,-514.712,0,0
152918.325,236.659,-517.802,0,0
153178.65,237.551,-520.808,0,0
153438.975,237.999,-523.503,0,0
153699.3,238.17,-525.961,0,0
153959.625,238.012,-528.255,0,0
154219.95,237.414,-530.35,0,0
154480,236.449,-531.75,0,0
154741,235.591,-532.692,0,0
155001,234.906,-533.406,0,0
155261,234.311,-534.076,0,0
155522,233.634,-534.471,0,0
155782,233.263,-534.819,0,0
156042,232.9,-535.541,0,0
156303,232.007,-536.314,0,0
156563,230.541,-536.776,0,0
156823,228.976,-536.487,0,0
157084,227.538,-535.784,0,0
157344,226.376,-534.784,0,0
157604,225.538,-533.294,0,0
157864,225.423,-531.917,0,0
158125,225.248,-531.135,0,0
158385,224.824,-530.165,0,0
158645,224.514,-528.986,0,0
158906,224.473,-528.047,0,0
159166,224.178,-527.118,0,0
159426,223.884,-525.991,0,0
159687,223.702,-524.859,0,0
159947,223.607,-523.678,0,0
160207,223.494,-522.594,0,0
160468,223.167,-521.278,0,0
160728,223.034,-519.556,0,0
160988,223.429,-517.901,0,0
161249,223.808,-516.036,0,0
161509,225.31,-514.051,0,0
161769,227.473,-513.19,0,0
162030,229.304,-513.507,0,0
162290,230.387,-514.385,0,0
162550,230.865,-515.628,0,0
162811,230.547,-517.001,0,0
163071,229.468,-517.997,0,0
163331,228.387,-518.629,0,0
163592,226.924,-519.45,0,0
163852,224.689,-520.121,0,0
164112,221.971,-520.032,0,0
164373,218.987,-519.389,0,0
164633,216.183,-517.99,0,0
164893,213.63,-516.468,0,0
165154,210.899,-514.744,0,0
165414,208.086,-512.36,0,0
165674,205.548,-509.579,0,0
165935,203.311,-506.36,0,0
166195,201.437,-503.202,0,0
166455,199.524,-499.924,0,0
166716,197.81,-496.201,0,0
166976,196.379,-492.331,0,0
167236,195.579,-488.367,0,0
167497,194.726,-484.944,0,0
167757,193.655,-481.245,0,0
168017,192.599,-477.086,0,0
168277,191.987,-472.955,0,0
168538,191.439,-468.766,0,0
168798,190.972,-464.421,0,0
169058,190.657,-460.04,0,0
169319,190.668,-455.511,0,0
169579,190.586,-450.94,0,0
169839,190.796,-446.009,0,0
170100,191.7,-441.14,0,0
170360.075,192.766,-436.544,0,0
170620.4,193.879,-432.251,0,0
170880.725,194.764,-428.012,0,0
171141.05,195.617,-423.461,0,0
171401.375,196.735,-418.691,0,0
171661.7,198.224,-414.01,0,0
171922.025,199.637,-409.48,0,0
172182.35,201.214,-404.808,0,0
172442.675,202.755,-400.14,0,0
172703.0,204.55,-395.194,0,0
172963.325,206.708,-390.133,0,0
173223.65,209.318,-385.251,0,0
173483.975,211.901,-380.711,0,0
173744.3,214.383,-376.126,0,0
174004.625,216.955,-371.18,0,0
174264.95,220.069,-366.061,0,0
174525.275,223.707,-361.18,0,0
174785.6,227.496,-356.487,0,0
175045.925,231.558,-352.196,0,0
175306.25,235.515,-348.074,0,0
175566.575,239.633,-343.689,0,0
175826.9,244.294,-339.449,0,0
176087.225,249.308,-335.741,0,0
176347.55,254.233,-332.278,0,0
176607.875,259.314,-329.1,0,0
176868.2,264.584,-326.129,0,0
177128.525,269.931,-323.473,0,0
177388.85,275.475,-321.216,0,0
177649.175,280.884,-319.376,0,0
177909.5,286.485,-317.938,0,0
178169.825,291.742,-317.198,0,0
178430.15,296.539,-316.687,0,0
178690.475,301.181,-316.327,0,0
178950.8,305.619,-316.331,0,0
179211.125,309.548,-316.84,0,0
179471.45,312.573,-317.498,0,0
179731.775,315.399,-315.933,0,0
179992.1,318.141,-316.566,0,0
180252.425,319.672,-317.093,0,0
180512.75,320.031,-316.922,0,0
180773.075,319.925,-315.337,0,0
181033.4,320.006,-312.264,0,0
181293.725,321.007,-308.228,0,0
181554.05,323.099,-303.901,0,0
181814.375,325.766,-299.8,0,0
182074.7,328.769,-295.63,0,0
182335.025,332.419,-291.515,0,0
182595.35,336.371,-288.034,0,0
182855.675,339.824,-284.894,0,0
183116.0,342.9,-281.181,0,0
183376.325,346.383,-276.664,0,0
183636.65,350.592,-271.952,0,0
183896.975,355.423,-267.483,0,0
184157.3,360.368,-263.018,0,0
184417.625,365.717,-258.456,0,0
184677.95,371.827,-253.956,0,0
184938.275,378.257,-249.935,0,0
185198.6,384.852,-246.333,0,0
185458.925,391.55,-242.873,0,0
185719.25,398.327,-239.49,0,0
185979.575,405.37,-236.309,0,0
186239.9,412.492,-232.998,0,0
186500,420.229,-229.849,0,0
186761,428.441,-227.235,0,0
187021,436.489,-225.037,0,0
187281,444.654,-222.89,0,0
187542,453.118,-221.028,0,0
187802,461.893,-219.459,0,0
188062,470.76,-218.542,0,0
188322,479.523,-218.172,0,0
188583,487.931,-218.131,0,0
188843,495.931,-218.279,0,0
189103,503.487,-218.511,0,0
189364,510.555,-218.263,0,0
189624,517.726,-217.32,0,0
189884,525.413,-215.723,0,0
190145,533.864,-214.196,0,0
190405,542.885,-212.557,0,0
190665,552.31,-211.194,0,0
190926,562.069,-209.908,0,0
191186,572.455,-208.513,0,0
191446,583.868,-207.386,0,0
191707,595.893,-207.037,0,0
191967,608.23,-207.151,0,0
192227,621.228,-207.741,0,0
192488,634.73,-209.241,0,0
192748,648.372,-211.359,0,0
193008,662.574,-213.97,0,0
193269,677.446,-217.542,0,0
193529,692.785,-222.434,0,0
193789,708.207,-228.864,0,0
194050,723.128,-236.848,0,0
194310,737.112,-245.888,0,0
194570,750.478,-255.416,0,0
194831,763.538,-265.654,0,0
195091,776.105,-276.896,0,0
195351,787.692,-288.993,0,0
195612,798.219,-301.523,0,0
195872,807.688,-314.037,0,0
196132,816.753,-326.335,0,0
196393,825.627,-338.813,0,0
196653,834.08,-351.691,0,0
196913,841.83,-364.594,0,0
197174,849.561,-377.172,0,0
197434,857.659,-389.948,0,0
197694,866.301,-403.55,0,0
197955,874.788,-418.731,0,0
198215,882.014,-435.46,0,0
198475,887.504,-452.481,0,0
198735,892.044,-469.408,0,0
198996,895.68,-486.535,0,0
199256,898.384,-503.658,0,0
199516,900.486,-520.499,0,0
199777,902.161,-537.365,0,0
200037,903.25,-554.713,0,0
200297,903.302,-572.159,0,0
200558,902.581,-589.499,0,0
200818,901.378,-606.949,0,0
201078,899.305,-624.93,0,0
201339,895.67,-643.166,0,0
201599,890.275,-661.072,0,0
201859,883.502,-677.873,0,0
202120,875.937,-693.083,0,0
202380.025,868.453,-707.286,0,0
202640.35,861.062,-721.056,0,0
202900.675,853.464,-734.594,0,0
203161.0,845.217,-747.796,0,0
203421.325,836.535,-760.464,0,0
203681.65,827.609,-772.658,0,0
203941.975,818.303,-784.335,0,0
204202.3,808.895,-795.553,0,0
204462.625,799.344,-806.325,0,0
204722.95,789.677,-817.507,0,0
204983.275,779.001,-828.635,0,0
205243.6,767.066,-839.217,0,0
205503.925,754.036,-848.728,0,0
205764.25,740.354,-856.956,0,0
206024.575,726.306,-863.384,0,0
206284.9,712.765,-868.086,0,0
206545.225,700.44,-871.934,0,0
206805.55,688.384,-875.481,0,0
207065.875,676.452,-878.262,0,0
207326.2,665.073,-880.61,0,0
207586.525,653.712,-882.136,0,0
207846.85,643.203,-882.516,0,0
208107.175,634.141,-882.356,0,0
208367.5,626.196,-882.742,0,0
208627.825,618.698,-883.572,0,0
208888.15,611.573,-884.668,0,0
209148.475,604.889,-886.184,0,0
209408.8,598.129,-888.502,0,0
209669.125,591.038,-891.391,0,0
209929.45,583.089,-894.348,0,0
210189.775,574.782,-896.976,0,0
210450.1,566.138,-899.28,0,0
210710.425,557.374,-901.383,0,0
210970.75,548.14,-903.296,0,0
211231.075,538.372,-904.764,0,0
211491.4,528.267,-905.372,0,0
211751.725,518.088,-904.947,0,0
212012.05,508.464,-903.57,0,0
212272.375,499.515,-901.516,0,0
212532.7,491.329,-899.289,0,0
212793.025,483.563,-897.134,0,0
213053.35,475.996,-894.871,0,0
213313.675,468.703,-892.393,0,0
213574.0,461.743,-889.808,0,0
213834.325,454.921,-887.16,0,0
214094.65,448.398,-884.305,0,0
214354.975,442.259,-881.253,0,0
214615.3,436.436,-878.099,0,0
214875.625,430.66,-875.058,0,0
215135.95,425.558,-872.036,0,0
215396.275,420.085,-869.104,0,0
215656.6,414.79,-865.915,0,0
215916.925,409.802,-862.329,0,0
216177.25,405.069,-858.634,0,0
216437.575,400.86,-854.949,0,0
216697.9,396.975,-851.229,0,0
216958.225,393.359,-847.611,0,0
217218.55,390.034,-844.058,0,0
217478.875,386.941,-840.523,0,0
217739.2,384.106,-837.283,0,0
217999.525,381.298,-834.146,0,0
218259.85,378.616,-830.968,0,0
218520,376.112,-827.798,0,0
218780,373.768,-824.656,0,0
219041,371.657,-821.605,0,0
219301,369.813,-818.574,0,0
219561,368.103,-815.703,0,0
219822,366.401,-812.778,0,0
220082,364.974,-810.309,0,0
220342,363.885,-807.8,0,0
220603,362.453,-805.481,0,0
220863,361.179,-803.204,0,0
221123,360.081,-800.781,0,0
221384,359.098,-798.505,0,0
221644,358.41,-796.353,0,0
221904,357.9,-794.46,0,0
222165,357.39,-792.7,0,0
222425,356.928,-791.187,0,0
222685,356.562,-789.829,0,0
222946,356.169,-788.672,0,0
223206,355.696,-787.727,0,0
223466,354.988,-786.954,0,0
223727,354.252,-786.061,0,0
223987,353.542,-785,0,0
224247,353.025,-784.026,0,0
224508,352.674,-783.219,0,0
224768,352.377,-782.924,0,0
225028,351.861,-782.466,0,0
225289,350.928,-781.983,0,0
225549,350.378,-781.542,0,0
225809,349.733,-780.822,0,0
226070,349.321,-780.52,0,0
226330,348.787,-780.09,0,0
226590,348.491,-779.654,0,0
226851,348.412,-779.463,0,0
227111,348.363,-779.449,0,0
227371,348.31,-779.73,0,0
227632,348.196,-780.095,0,0
227892,348.149,-780.709,0,0
228152,348.146,-781.595,0,0
228413,348.143,-782.821,0,0
228673,347.771,-784.339,0,0
228933,347.214,-786.02,0,0
229193,346.422,-787.919,0,0
229454,345.139,-790.083,0,0
229714,343.49,-791.919,0,0
229974,341.593,-794.01,0,0
230235,339.434,-795.791,0,0
230495,337.147,-797.353,0,0
230755,334.663,-798.718,0,0
231016,332.271,-800.052,0,0
231276,329.847,-801.433,0,0
231536,327.35,-802.719,0,0
231797,324.68,-804.125,0,0
232057,321.861,-805.435,0,0
232317,318.857,-806.678,0,0
232578,315.656,-807.863,0,0
232838,312.25,-808.861,0,0
233098,308.764,-809.68,0,0
233359,305.096,-810.309,0,0
233619,301.448,-810.626,0,0
233879,297.85,-810.733,0,0
234140,294.427,-810.759,0,0
234400,290.917,-810.741,0,0
234660.3,287.404,-810.593,0,0
234920.625,283.958,-810.32,0,0
235180.95,280.635,-809.88,0,0
235441.275,277.281,-809.517,0,0
235701.6,273.982,-809.083,0,0
235961.925,270.631,-808.632,0,0
236222.25,267.281,-808.084,0,0
236482.575,263.881,-807.52,0,0
236742.9,260.498,-806.888,0,0
237003.225,256.984,-806.111,0,0
237263.55,253.432,-805.243,0,0
237523.875,249.948,-804.154,0,0
237784.2,246.46,-802.848,0,0
238044.525,243.168,-801.405,0,0
238304.85,240.002,-799.921,0,0
238565.175,236.961,-798.429,0,0
238825.5,233.951,-796.855,0,0
239085.825,231.001,-795.391,0,0
239346.15,228.202,-793.867,0,0
239606.475,225.165,-792.169,0,0
239866.8,222.329,-790.621,0,0
240127.125,219.395,-788.838,0,0
240387.45,216.675,-786.975,0,0
240647.775,213.941,-785.095,0,0
240908.1,211.389,-783.082,0,0
241168.425,208.96,-781.111,0,0
241428.75,206.48,-779.156,0,0
241689.075,204.12,-777.067,0,0
241949.4,201.828,-774.994,0,0
242209.725,199.704,-772.831,0,0
242470.05,197.667,-770.718,0,0
242730.375,195.8,-768.592,0,0
242990.7,194.011,-766.591,0,0
243251.025,192.284,-764.593,0,0
243511.35,190.711,-762.665,0,0
243771.675,189.15,-760.805,0,0
244032.0,187.707,-759.169,0,0
244292.325,186.241,-757.56,0,0
244552.65,184.642,-756.166,0,0
244812.975,183.091,-754.75,0,0
245073.3,181.46,-753.506,0,0
245333.625,179.796,-752.294,0,0
245593.95,178.092,-751.199,0,0
245854.275,176.084,-750.252,0,0
246114.6,173.942,-749.224,0,0
246374.925,171.531,-748.085,0,0
246635.25,168.962,-746.805,0,0
246895.575,166.352,-745.346,0,0
247155.9,163.668,-743.694,0,0
247416.225,160.948,-741.881,0,0
247676.55,158.228,-739.852,0,0
247936.875,155.638,-737.671,0,0
248197.2,153.129,-735.412,0,0
248457.525,150.615,-733.076,0,0
248717.85,148.173,-730.619,0,0
248978.175,145.723,-728.079,0,0
249238.5,143.396,-725.371,0,0
249498.825,141.132,-722.576,0,0
249759.15,138.897,-719.628,0,0
250019.475,136.736,-716.578,0,0
250279.8,134.774,-713.566,0,0
250540,132.934,-710.229,0,0
250800,131.111,-706.937,0,0
251061,129.562,-703.535,0,0
251321,128.121,-700.072,0,0
251581,126.95,-696.558,0,0
251842,125.914,-693.11,0,0
252102,125.011,-689.731,0,0
252362,124.228,-686.391,0,0
252623,123.523,-683.083,0,0
252883,122.949,-679.84,0,0
253143,122.403,-676.654,0,0
253404,121.924,-673.502,0,0
253664,121.5,-670.379,0,0
253924,121.084,-667.252,0,0
254185,120.78,-664.071,0,0
254445,120.427,-660.975,0,0
254705,120.207,-657.774,0,0
254966,120.018,-654.514,0,0
255226,120.013,-651.262,0,0
255486,120.151,-647.94,0,0
255747,120.41,-644.702,0,0
256007,120.842,-641.481,0,0
256267,121.468,-638.325,0,0
256528,122.168,-635.327,0,0
256788,122.948,-632.439,0,0
257048,123.761,-629.662,0,0
257309,124.59,-626.888,0,0
257569,125.485,-624.159,0,0
257829,126.483,-621.478,0,0
258090,127.543,-618.869,0,0
258350,128.672,-616.313,0,0
258610,129.884,-613.847,0,0
258871,131.119,-611.413,0,0
259131,132.448,-609.042,0,0
259391,133.904,-606.785,0,0
259651,135.396,-604.62,0,0
259912,136.938,-602.54,0,0
260172,138.593,-600.639,0,0
260432,140.278,-598.722,0,0
260693,141.949,-597.001,0,0
260953,143.708,-595.375,0,0
261213,145.449,-593.853,0,0
261474,147.232,-592.48,0,0
261734,148.981,-591.196,0,0
261994,150.737,-590.026,0,0
262255,152.506,-588.941,0,0
262515,154.253,-587.983,0,0
262775,155.983,-587.135,0,0
263036,157.679,-586.398,0,0
263296,159.289,-585.755,0,0
263556,160.856,-585.148,0,0
263817,162.401,-584.607,0,0
264077,163.93,-584.12,0,0
264337,165.46,-583.718,0,0
264598,167.011,-583.404,0,0
264858,168.413,-583.17,0,0
265118,169.803,-583.07,0,0
265379,171.029,-583.034,0,0
265639,172.305,-582.977,0,0
265899,173.469,-583.04,0,0
266160,174.507,-583.085,0,0
266420,175.517,-583.142,0,0
266680.25,176.499,-583.213,0,0
266940.575,177.423,-583.278,0,0
267200.9,178.301,-583.428,0,0
267461.225,179.141,-583.592,0,0
267721.55,179.919,-583.731,0,0
267981.875,180.687,-583.903,0,0
268242.2,181.401,-584.144,0,0
268502.525,182.045,-584.471,0,0
268762.85,182.476,-584.805,0,0
269023.175,182.847,-585.032,0,0
269283.5,183.174,-585.182,0,0
269543.825,183.403,-585.28,0,0
269804.15,183.612,-585.362,0,0
270064.475,183.808,-585.304,0,0
270324.8,183.955,-585.196,0,0
270585.125,184.032,-584.961,0,0
270845.45,184.229,-584.553,0,0
271105.775,184.507,-584.037,0,0
271366.1,184.949,-583.445,0,0
271626.425,185.503,-582.792,0,0
271886.75,186.219,-582.2,0,0
272147.075,187.074,-581.601,0,0
272407.4,188.044,-581.049,0,0
272667.725,189.164,-580.533,0,0
272928.05,190.397,-580.085,0,0
273188.375,191.759,-579.724,0,0
273448.7,193.234,-579.452,0,0
273709.025,194.816,-579.246,0,0
273969.35,196.575,-579.137,0,0
274229.675,198.609,-579.161,0,0
274490.0,200.842,-579.461,0,0
274750.325,203.352,-580.174,0,0
275010.65,205.91,-581.323,0,0
275270.975,208.358,-582.917,0,0
275531.3,210.722,-585.096,0,0
275791.625,212.863,-587.698,0,0
276051.95,214.57,-590.746,0,0
276312.275,215.812,-594.114,0,0
276572.6,216.487,-597.655,0,0
276832.925,216.607,-601.225,0,0
277093.25,216.286,-604.655,0,0
277353.575,215.609,-607.978,0,0
277613.9,214.647,-611.154,0,0
277874.225,213.399,-614.188,0,0
278134.55,211.891,-617.083,0,0
278394.875,210.109,-619.807,0,0
278655.2,208.116,-622.322,0,0
278915.525,205.968,-624.577,0,0
279175.85,203.693,-626.659,0,0
279436.175,201.318,-628.6,0,0
279696.5,198.712,-630.316,0,0
279956.825,196.084,-631.728,0,0
280217.15,193.446,-632.951,0,0
280477.475,190.819,-633.996,0,0
280737.8,188.175,-634.839,0,0
280998.125,185.562,-635.536,0,0
281258.45,183.037,-636.145,0,0
281518.775,180.538,-636.687,0,0
281779.1,178.017,-637.248,0,0
282039.425,175.378,-637.771,0,0
282299.75,172.624,-638.163,0,0
282560,169.755,-638.434,0,0
282820,166.749,-638.497,0,0
283081,163.657,-638.269,0,0
283341,160.569,-637.724,0,0
283601,157.629,-636.835,0,0
283862,154.952,-635.67,0,0
284122,152.634,-634.449,0,0
284382,150.574,-633.329,0,0
284643,148.681,-632.4,0,0
284903,146.645,-631.725,0,0
285163,144.419,-631.107,0,0
285424,142.023,-630.395,0,0
285684,139.403,-629.516,0,0
285944,136.693,-628.425,0,0
286205,133.875,-627.097,0,0
286465,130.985,-625.459,0,0
286725,128.14,-623.472,0,0
286986,125.449,-621.15,0,0
287246,122.828,-618.58,0,0
287506,120.41,-615.667,0,0
287767,118.28,-612.451,0,0
288027,116.446,-608.965,0,0
288287,115.005,-605.283,0,0
288548,113.947,-601.451,0,0
288808,113.352,-597.518,0,0
289068,113.177,-593.578,0,0
289329,113.494,-589.693,0,0
289589,114.192,-585.939,0,0
289849,115.27,-582.346,0,0
290109,116.75,-578.949,0,0
290370,118.583,-575.767,0,0
290630,120.747,-572.873,0,0
290890,123.251,-570.323,0,0
291151,126.055,-568.184,0,0
291411,129.127,-566.486,0,0
291671,132.429,-565.356,0,0
291932,135.808,-564.936,0,0
292192,139.007,-565.196,0,0
292452,141.907,-566.001,0,0
292713,144.403,-567.31,0,0
292973,146.418,-569.012,0,0
293233,147.859,-570.917,0,0
293494,148.785,-572.9,0,0
293754,149.164,-574.861,0,0
294014,149.077,-576.668,0,0
294275,148.533,-578.147,0,0
294535,147.681,-579.282,0,0
294795,146.722,-579.886,0,0
295056,145.913,-580.046,0,0
295316,145.223,-579.834,0,0
295576,144.998,-579.319,0,0
295837,145.287,-578.743,0,0
296097,146.116,-578.307,0,0
296357,147.463,-578.384,0,0
296618,149.003,-579.184,0,0
296878,150.392,-580.755,0,0
297138,151.285,-582.962,0,0
297399,151.459,-585.535,0,0
297659,150.955,-588.133,0,0
297919,149.821,-590.567,0,0
298180,148.226,-592.705,0,0
298440,146.272,-594.449,0,0
298700.2,144.175,-595.781,0,0
298960.525,142.038,-596.797,0,0
299220.85,139.845,-597.568,0,0
299481.175,137.626,-598.113,0,0
299741.5,135.457,-598.412,0,0
300001.825,133.251,-598.46,0,0
300262.15,131.156,-598.268,0,0
300522.475,129.212,-597.873,0,0
300782.8,127.401,-597.381,0,0
301043.125,125.726,-596.767,0,0
301303.45,124.223,-596.074,0,0
301563.775,122.876,-595.372,0,0
301824.1,121.653,-594.659,0,0
302084.425,120.557,-593.969,0,0
302344.75,119.602,-593.334,0,0
302605.075,118.741,-592.764,0,0
302865.4,117.969,-592.333,0,0
303125.725,117.217,-592.036,0,0
303386.05,116.421,-591.868,0,0
303646.375,115.554,-591.823,0,0
303906.7,114.582,-591.833,0,0
304167.025,113.506,-591.878,0,0
304427.35,112.32,-591.927,0,0
304687.675,111.021,-591.97,0,0
304948.0,109.606,-592.017,0,0
305208.325,108.104,-591.979,0,0
305468.65,106.443,-591.817,0,0
305728.975,104.758,-591.555,0,0
305989.3,103.035,-591.147,0,0
306249.625,101.29,-590.605,0,0
306509.95,99.6045,-589.956,0,0
306770.275,97.9514,-589.234,0,0
307030.6,96.3359,-588.421,0,0
307290.925,94.7557,-587.557,0,0
307551.25,93.2407,-586.623,0,0
307811.575,91.7553,-585.668,0,0
308071.9,90.2981,-584.653,0,0
308332.225,88.8834,-583.62,0,0
308592.55,87.5175,-582.513,0,0
308852.875,86.1721,-581.355,0,0
309113.2,84.9104,-580.164,0,0
309373.525,83.7142,-578.974,0,0
309633.85,82.5982,-577.774,0,0
309894.175,81.4509,-576.584,0,0
310154.5,80.3412,-575.396,0,0
310414.825,79.2632,-574.195,0,0
310675.15,78.2003,-572.958,0,0
310935.475,77.1843,-571.703,0,0
311195.8,76.1776,-570.435,0,0
311456.125,75.2282,-569.162,0,0
311716.45,74.2751,-567.869,0,0
311976.775,73.3869,-566.559,0,0
312237.1,72.5112,-565.236,0,0
312497.425,71.7049,-563.891,0,0
312757.75,70.913,-562.553,0,0
313018.075,70.1639,-561.239,0,0
313278.4,69.463,-559.912,0,0
313538.725,68.7599,-558.599,0,0
313799.05,68.1125,-557.272,0,0
314059.375,67.4866,-555.949,0,0
314319.7,66.8629,-554.644,0,0
314580,66.2315,-553.353,0,0
314840,65.6987,-552.036,0,0
315101,65.1513,-550.763,0,0
315361,64.6827,-549.521,0,0
315621,64.1022,-548.26,0,0
315882,63.6711,-546.942,0,0
316142,63.1393,-545.681,0,0
316402,62.6364,-544.386,0,0
316663,62.1728,-543.158,0,0
316923,61.7585,-541.75,0,0
317183,61.3762,-540.5,0,0
317444,60.9836,-539.164,0,0
317704,60.6686,-537.954,0,0
317964,60.3424,-536.669,0,0
318225,60.0836,-535.393,0,0
318485,59.8268,-534.126,0,0
318745,59.5851,-532.922,0,0
319006,59.3302,-531.692,0,0
319266,59.1519,-530.514,0,0
319526,58.9354,-529.337,0,0
319787,58.7081,-528.159,0,0
320047,58.5231,-527.102,0,0
320307,58.3019,-525.972,0,0
320567,58.0785,-524.806,0,0
320828,57.7972,-523.684,0,0
321088,57.6488,-522.56,0,0
321348,57.4173,-521.401,0,0
321609,57.1945,-520.196,0,0
321869,56.9611,-519.026,0,0
322129,56.8405,-517.903,0,0
322390,56.7086,-516.73,0,0
322650,56.4596,-515.536,0,0
322910,56.4015,-514.375,0,0
323171,56.2965,-513.151,0,0
323431,56.1459,-511.962,0,0
323691,56.0089,-510.739,0,0
323952,55.9042,-509.42,0,0
324212,55.812,-508.092,0,0
324472,55.857,-506.795,0,0
324733,55.891,-505.344,0,0
324993,55.9873,-504.052,0,0
325253,56.2512,-502.616,0,0
325514,56.5506,-501.259,0,0
325774,56.9762,-499.907,0,0
326034,57.5036,-498.657,0,0
326295,58.1637,-497.457,0,0
326555,58.8226,-496.365,0,0
326815,59.5146,-495.445,0,0
327076,60.2511,-494.639,0,0
327336,60.8793,-493.959,0,0
327596,61.5287,-493.372,0,0
327857,62.1181,-492.849,0,0
328117,62.5791,-492.273,0,0
328377,63.0606,-491.82,0,0
328638,63.4877,-491.26,0,0
328898,63.8959,-490.782,0,0
329158,64.2968,-490.32,0,0
329419,64.7582,-489.878,0,0
329679,65.1887,-489.526,0,0
329939,65.5317,-489.238,0,0
330200,65.9483,-488.887,0,0
330460,66.2985,-488.707,0,0
330720.15,66.5988,-488.543,0,0
330980.475,66.8893,-488.418,0,0
331240.8,67.0489,-488.394,0,0
331501.125,67.2503,-488.305,0,0
331761.45,67.2976,-488.337,0,0
332021.775,67.2937,-488.311,0,0
332282.1,67.188,-488.387,0,0
332542.425,67.019,-488.412,0,0
332802.75,66.7352,-488.461,0,0
333063.075,66.4037,-488.496,0,0
333323.4,65.9529,-488.364,0,0
333583.725,65.4491,-488.159,0,0
333844.05,64.8645,-487.894,0,0
334104.375,64.316,-487.587,0,0
334364.7,63.7589,-487.15,0,0
334625.025,63.231,-486.716,0,0
334885.35,62.717,-486.172,0,0
335145.675,62.2791,-485.616,0,0
335406.0,61.8687,-485.022,0,0
335666.325,61.3762,-484.464,0,0
335926.65,60.9793,-483.881,0,0
336186.975,60.581,-483.238,0,0
336447.3,60.1212,-482.599,0,0
336707.625,59.7577,-481.911,0,0
336967.95,59.3514,-481.238,0,0
337228.275,59.0062,-480.533,0,0
337488.6,58.5974,-479.791,0,0
337748.925,58.2251,-479.052,0,0
338009.25,57.895,-478.326,0,0
338269.575,57.5823,-477.585,0,0
338529.9,57.2439,-476.847,0,0
338790.225,56.9946,-476.095,0,0
339050.55,56.691,-475.321,0,0
339310.875,56.4015,-474.529,0,0
339571.2,56.0839,-473.69,0,0
339831.525,55.793,-472.884,0,0
340091.85,55.5668,-472.103,0,0
340352.175,55.3286,-471.237,0,0
340612.5,55.0741,-470.374,0,0
340872.825,54.8425,-469.52,0,0
341133.15,54.6403,-468.649,0,0
341393.475,54.5029,-467.741,0,0
341653.8,54.3464,-466.815,0,0
341914.125,54.1672,-465.972,0,0
342174.45,54.0578,-465.085,0,0
342434.775,53.9669,-464.179,0,0
342695.1,53.8673,-463.228,0,0
342955.425,53.7882,-462.348,0,0
343215.75,53.735,-461.434,0,0
343476.075,53.7207,-460.479,0,0
343736.4,53.694,-459.597,0,0
343996.725,53.7446,-458.697,0,0
344257.05,53.832,-457.745,0,0
344517.375,53.7978,-456.88,0,0
344777.7,53.9481,-455.943,0,0
345038.025,54.0596,-455.038,0,0
345298.35,54.1865,-454.212,0,0
345558.675,54.3079,-453.32,0,0
345819.0,54.5013,-452.462,0,0
346079.325,54.6499,-451.621,0,0
346339.65,54.8314,-450.802,0,0
346599.975,55.0644,-449.993,0,0
346860,55.2366,-449.199,0,0
347121,55.5411,-448.416,0,0
347381,55.7655,-447.605,0,0
347641,55.9626,-446.851,0,0
347902,56.2818,-446.115,0,0
348162,56.5028,-445.34,0,0
348422,56.7662,-444.63,0,0
348683,57.1382,-443.925,0,0
348943,57.4678,-443.2,0,0
349203,57.7278,-442.54,0,0
349464,58.1546,-441.827,0,0
349724,58.5071,-441.222,0,0
349984,58.8874,-440.609,0,0
350245,59.2973,-440.06,0,0
350505,59.6307,-439.504,0,0
350765,60.0513,-439.009,0,0
351025,60.4283,-438.51,0,0
351286,60.7148,-438.09,0,0
351546,61.0687,-437.67,0,0
351806,61.3729,-437.25,0,0
352067,61.6936,-436.89,0,0
352327,61.8897,-436.477,0,0
352587,62.172,-436.042,0,0
352848,62.4044,-435.624,0,0
353108,62.5881,-435.215,0,0
353368,62.8057,-434.787,0,0
353629,63.0238,-434.319,0,0
353889,63.2759,-433.907,0,0
354149,63.546,-433.516,0,0
354410,63.7989,-433.051,0,0
354670,64.0404,-432.627,0,0
354930,64.2783,-432.235,0,0
355191,64.5208,-431.82,0,0
355451,64.7642,-431.432,0,0
355711,65.0157,-431.012,0,0
355972,65.2596,-430.575,0,0
356232,65.5247,-430.179,0,0
356492,65.8164,-429.748,0,0
356753,66.1619,-429.31,0,0
357013,66.4974,-428.962,0,0
357273,66.8992,-428.613,0,0
357534,67.2357,-428.265,0,0
357794,67.6723,-428.018,0,0
358054,68.0637,-427.756,0,0
358315,68.3818,-427.538,0,0
358575,68.7944,-427.312,0,0
358835,69.163,-427.188,0,0
359096,69.5742,-427.074,0,0
359356,69.8493,-427.033,0,0
359616,70.1857,-426.967,0,0
359877,70.445,-426.916,0,0
360137,70.683,-426.924,0,0
360397,70.8865,-426.988,0,0
360658,71.0813,-426.911,0,0
360918,71.2113,-426.971,0,0
361178,71.3582,-426.985,0,0
361438,71.4384,-427.043,0,0
361699,71.4512,-427.019,0,0
361959,71.5121,-427.039,0,0
362219,71.549,-427.1,0,0
362480,71.5401,-427.135,0,0
362740.1,71.5253,-427.086,0,0
363000.425,71.4799,-427.127,0,0
363260.75,71.424,-427.122,0,0
363521.075,71.3004,-427.131,0,0
363781.4,71.183,-427.16,0,0
364041.725,71.0307,-427.096,0,0
364302.05,70.875,-427.027,0,0
364562.375,70.6715,-426.969,0,0
364822.7,70.4873,-426.842,0,0
365083.025,70.2954,-426.68,0,0
365343.35,70.1008,-426.552,0,0
365603.675,69.9002,-426.348,0,0
365864.0,69.7331,-426.177,0,0
366124.325,69.4934,-425.953,0,0
366384.65,69.328,-425.761,0,0
366644.975,69.1781,-425.447,0,0
366905.3,69.0036,-425.226,0,0
367165.625,68.8517,-424.918,0,0
367425.95,68.753,-424.639,0,0
367686.275,68.7304,-424.337,0,0
367946.6,68.6329,-424.054,0,0
368206.925,68.6608,-423.757,0,0
368467.25,68.6613,-423.538,0,0
368727.575,68.6966,-423.348,0,0
368987.9,68.7197,-423.198,0,0
369248.225,68.7668,-423.141,0,0
369508.55,68.7118,-423.142,0,0
369768.875,68.6658,-423.083,0,0
370029.2,68.4924,-423.088,0,0
370289.525,68.2914,-423.03,0,0
370549.85,68.0253,-422.961,0,0
370810.175,67.7896,-422.878,0,0
371070.5,67.5235,-422.754,0,0
371330.825,67.2612,-422.579,0,0
371591.15,66.9804,-422.361,0,0
371851.475,66.7436,-422.141,0,0
372111.8,66.5483,-421.903,0,0
372372.125,66.3722,-421.721,0,0
372632.45,66.2279,-421.499,0,0
372892.775,66.0598,-421.342,0,0
373153.1,65.8767,-421.2,0,0
373413.425,65.6579,-421.022,0,0
373673.75,65.448,-420.898,0,0
373934.075,65.2094,-420.759,0,0
374194.4,64.9436,-420.58,0,0
374454.725,64.6644,-420.439,0,0
374715.05,64.378,-420.322,0,0
374975.375,64.0837,-420.146,0,0
375235.7,63.7663,-419.948,0,0
375496.025,63.4306,-419.716,0,0
375756.35,63.1101,-419.553,0,0
376016.675,62.7897,-419.307,0,0
376277.0,62.4204,-419.041,0,0
376537.325,62.1453,-418.794,0,0
376797.65,61.7838,-418.505,0,0
377057.975,61.5157,-418.219,0,0
377318.3,61.2568,-418.002,0,0
377578.625,61.0278,-417.789,0,0
377838.95,60.7039,-417.581,0,0
378099.275,60.4157,-417.434,0,0
378359.6,59.9878,-417.278,0,0
378619.925,59.6015,-417.186,0,0
378880,59.1034,-417.025,0,0
379141,58.5237,-416.805,0,0
379401,57.8808,-416.592,0,0
379661,57.1955,-416.226,0,0
379922,56.5007,-415.761,0,0
380182,55.8146,-415.092,0,0
380442,55.2655,-414.383,0,0
380703,54.8229,-413.543,0,0
380963,54.5854,-412.723,0,0
381223,54.3969,-411.899,0,0
381483,54.3927,-411.224,0,0
381744,54.4621,-410.665,0,0
382004,54.5119,-410.237,0,0
382264,54.5186,-409.945,0,0
382525,54.4256,-409.645,0,0
382785,54.2583,-409.454,0,0
383045,54.0273,-409.249,0,0
383306,53.725,-408.981,0,0
383566,53.3795,-408.742,0,0
383826,52.9754,-408.435,0,0
384087,52.6078,-408.145,0,0
384347,52.1248,-407.793,0,0
384607,51.7171,-407.33,0,0
384868,51.2657,-406.904,0,0
385128,50.8695,-406.464,0,0
385388,50.4182,-405.966,0,0
385649,49.9923,-405.469,0,0
385909,49.5376,-404.904,0,0
386169,49.1714,-404.327,0,0
386430,48.7318,-403.732,0,0
386690,48.3504,-403.106,0,0
386950,47.997,-402.47,0,0
387211,47.684,-401.825,0,0
387471,47.3574,-401.17,0,0
387731,47.0131,-400.494,0,0
387992,46.7278,-399.801,0,0
388252,46.483,-399.092,0,0
388512,46.1665,-398.37,0,0
388773,46.0016,-397.617,0,0
389033,45.7916,-396.858,0,0
389293,45.6449,-396.119,0,0
389554,45.5628,-395.351,0,0
389814,45.4739,-394.622,0,0
390074,45.5011,-393.909,0,0
390335,45.479,-393.255,0,0
390595,45.5687,-392.604,0,0
390855,45.626,-392.054,0,0
391116,45.73,-391.544,0,0
391376,45.743,-391.1,0,0
391636,45.7295,-390.699,0,0
391896,45.7285,-390.333,0,0
392157,45.6321,-390.034,0,0
392417,45.4473,-389.696,0,0
392677,45.2395,-389.35,0,0
392938,44.9757,-388.956,0,0
393198,44.6422,-388.545,0,0
393458,44.3253,-388.127,0,0
393719,43.9734,-387.633,0,0
393979,43.5859,-387.093,0,0
394239,43.2107,-386.518,0,0
394500,42.7958,-385.879,0,0
394760.05,42.4339,-385.166,0,0
395020.375,42.078,-384.394,0,0
395280.7,41.7777,-383.608,0,0
395541.025,41.5239,-382.797,0,0
395801.35,41.2971,-381.986,0,0
396061.675,41.0984,-381.13,0,0
396322.0,40.9618,-380.266,0,0
396582.325,40.8796,-379.422,0,0
396842.65,40.7545,-378.548,0,0
397102.975,40.749,-377.7,0,0
397363.3,40.6952,-376.865,0,0
397623.625,40.7225,-376.008,0,0
397883.95,40.7539,-375.194,0,0
398144.275,40.8507,-374.366,0,0
398404.6,40.9471,-373.536,0,0
398664.925,41.0135,-372.786,0,0
398925.25,41.1686,-372.031,0,0
399185.575,41.3067,-371.276,0,0
399445.9,41.4603,-370.534,0,0
399706.225,41.6174,-369.866,0,0
399966.55,41.8261,-369.169,0,0
400006.6,41.8012,-369.024,0,0