File: Accelerated corrosion test data/2025-10-23_18-00-04/sample_1.csv
Frequency (Hz),Impedance (ohms),Phase (Radians),Temperature (C),Humidity (%)
10000.0,241.757,-12220.5,0,0
10260.325,241.504,-11906,0,0
10520.65,231.063,-11626.6,0,0
10780.975,227.795,-11340.7,0,0
11041.3,220.567,-11081.6,0,0
11301.625,215.079,-10824.5,0,0
11561.95,211.608,-10580.1,0,0
11822.275,209.199,-10340.4,0,0
12082.6,232.227,-10113.2,0,0
12342.925,211.266,-9938.86,0,0
12603.25,195.529,-9722.54,0,0
12863.575,191.894,-9520.72,0,0
13123.9,200.625,-9326.69,0,0
13384.225,187.469,-9159.75,0,0
13644.55,182.103,-8976.56,0,0
13904.875,182.728,-8797.88,0,0
14165.2,205.805,-8668.48,0,0
14425.525,212.278,-8494.26,0,0
14685.8,199.65,-8334.16,0,0
14946.175,178.282,-8227.74,0,0
15206.5,190.216,-8062.84,0,0
15466.825,173.805,-7954.53,0,0
15727.15,168.18,-7814.61,0,0
15987.5,162.138,-7689.83,0,0
16247.8,157.726,-7563.18,0,0
16508.125,155.302,-7440.02,0,0
16768.45,158.34,-7321.1,0,0
17028.775,163.338,-7211.76,0,0
17289.1,155.387,-7112.72,0,0
17549.425,151.814,-7007.32,0,0
17809.75,144.603,-6902.46,0,0
18070.075,151.281,-6802.05,0,0
18330.4,143.531,-6707.59,0,0
18590.725,137.952,-6613.1,0,0
18851.05,138.36,-6514.62,0,0
19111.375,135.748,-6433.88,0,0
19371.7,133.057,-6341.03,0,0
19632.025,132.301,-6251.98,0,0
19892.35,136.562,-6163.49,0,0
20152.675,135.834,-6079.17,0,0
20413.0,155.961,-5989.43,0,0
20673.3,169.415,-5948.62,0,0
20933.65,149.181,-5883.04,0,0
21193.975,163.217,-5815.18,0,0
21454.3,140.952,-5746.98,0,0
21714.625,135.218,-5671.45,0,0
21974.9,141.69,-5591.3,0,0
22235.275,173.643,-5548.08,0,0
22495.6,141.373,-5507.08,0,0
22755.925,127.308,-5437.4,0,0
23016.25,121.777,-5370.38,0,0
23276.6,119.033,-5308.33,0,0
23536.9,115.767,-5247.26,0,0
23797.225,113.558,-5186.29,0,0
24057.55,114.827,-5125.63,0,0
24317.875,113.192,-5077.02,0,0
24578.2,110.488,-5017.57,0,0
24838.525,110.586,-4966.98,0,0
25098.85,110.613,-4913.1,0,0
25359.175,105.96,-4862.87,0,0
25619.5,105.184,-4811.9,0,0
25879.8,103.802,-4760.93,0,0
26140.1,103.599,-4711.49,0,0
26400.5,102.687,-4661.28,0,0
26660.8,104.948,-4611.14,0,0
26921.1,113.966,-4561.72,0,0
27181.4,122.633,-4531.7,0,0
27441.8,110.849,-4497.05,0,0
27702.1,103.705,-4447.71,0,0
27962.4,110.541,-4397.42,0,0
28222.7,110.612,-4359.3,0,0
28483.1,120.751,-4315.56,0,0
28743.4,130.705,-4297.63,0,0
29003.7,118.395,-4260.18,0,0
29264,119.201,-4226.82,0,0
29524.4,107.871,-4193.52,0,0
29784.7,105.52,-4150.14,0,0
30045,101.86,-4118.82,0,0
30305.3,100.113,-4080.2,0,0
30565.7,97.2272,-4041.61,0,0
30826,100.923,-4005.62,0,0
31086.3,104.406,-3977.67,0,0
31346.6,100.306,-3948.07,0,0
31607,94.1074,-3910.71,0,0
31867.3,98.5814,-3878,0,0
32127.6,97.916,-3847.6,0,0
32387.9,98.2635,-3820.25,0,0
32648.3,94.2053,-3789.12,0,0
32908.6,96.441,-3761.44,0,0
33168.9,91.9738,-3733.19,0,0
33429.2,88.9285,-3703.94,0,0
33689.6,86.0006,-3674.39,0,0
33949.9,84.7914,-3643.08,0,0
34210.2,86.5378,-3616.51,0,0
34470.5,83.3814,-3589.89,0,0
34730.9,81.887,-3561.57,0,0
34991.2,81.178,-3534.52,0,0
35251.5,80.2411,-3507.69,0,0
35511.8,79.2553,-3481.29,0,0
35772.2,79.1919,-3455.45,0,0
36032.5,77.9928,-3430.21,0,0
36292.8,77.3467,-3404.58,0,0
36553.1,76.5824,-3380.11,0,0
36813.5,76.1905,-3355.09,0,0
37073.8,76.0281,-3331.01,0,0
37334.1,75.4731,-3307.97,0,0
37594.4,74.8328,-3284.35,0,0
37854.8,74.0661,-3261.47,0,0
38115.1,73.5701,-3238.7,0,0
38375.4,73.2621,-3215.86,0,0
38635.7,72.7745,-3194.01,0,0
38896.1,72.3102,-3171.81,0,0
39156.4,72.3171,-3149.76,0,0
39416.7,72.2326,-3129.58,0,0
39677,71.2125,-3108.38,0,0
39937.4,70.8653,-3086.95,0,0
40197.7,71.0589,-3066.39,0,0
40458,71.0953,-3046.21,0,0
40718.3,70.8963,-3025.46,0,0
40978.7,72.4105,-3005.93,0,0
41239,72.1757,-2988.04,0,0
41499.3,72.0726,-2969.89,0,0
41759.6,71.131,-2951.05,0,0
42020,70.5188,-2932.57,0,0
42280.275,70.0804,-2914.08,0,0
42540.6,70.4958,-2895.41,0,0
42800.925,70.2864,-2878.85,0,0
43061.25,69.3423,-2861.04,0,0
43321.575,69.319,-2843.97,0,0
43581.9,68.6708,-2826.76,0,0
43842.225,68.1099,-2809.01,0,0
44102.55,67.9968,-2791.34,0,0
44362.875,68.7229,-2774.35,0,0
44623.2,69.0139,-2758.82,0,0
44883.525,68.3903,-2743.28,0,0
45143.85,68.1187,-2727.62,0,0
45404.175,68.034,-2711.48,0,0
45664.5,67.3182,-2696.68,0,0
45924.825,66.369,-2681.23,0,0
46185.15,65.9843,-2665.51,0,0
46445.475,65.0045,-2650.13,0,0
46705.8,65.2798,-2634.69,0,0
46966.125,65.195,-2620.68,0,0
47226.45,64.238,-2605.65,0,0
47486.775,64.3211,-2590.84,0,0
47747.1,63.9675,-2576.91,0,0
48007.425,62.8152,-2562.44,0,0
48267.75,63.3867,-2548.37,0,0
48528.075,62.9566,-2534.98,0,0
48788.4,61.7693,-2520.79,0,0
49048.725,61.5971,-2506.59,0,0
49309.05,61.5532,-2492.95,0,0
49569.375,61.2938,-2479.96,0,0
49829.7,60.8398,-2466.63,0,0
50090.025,59.8837,-2453.42,0,0
50350.35,59.5535,-2440.08,0,0
50610.675,59.3812,-2426.59,0,0
50871.0,59.3472,-2413.9,0,0
51131.325,59.0546,-2400.93,0,0
51391.65,59.2489,-2388.4,0,0
51651.975,58.6786,-2376.34,0,0
51912.3,58.2046,-2364,0,0
52172.625,57.8354,-2351.51,0,0
52432.95,57.8764,-2339.33,0,0
52693.275,57.7432,-2327.28,0,0
52953.6,57.6362,-2315.39,0,0
53213.925,57.5642,-2303.76,0,0
53474.25,57.4209,-2292.31,0,0
53734.575,57.1703,-2280.59,0,0
53994.9,57.1748,-2269.38,0,0
54255.225,56.5553,-2258.37,0,0
54515.55,56.0597,-2246.96,0,0
54775.875,55.7433,-2235.73,0,0
55036.2,55.6169,-2224.47,0,0
55296.525,55.6074,-2213.45,0,0
55556.85,55.6593,-2202.69,0,0
55817.175,55.3835,-2192.13,0,0
56077.5,54.8791,-2181.48,0,0
56337.825,54.6095,-2170.57,0,0
56598.15,54.6193,-2159.9,0,0
56858.475,54.7767,-2149.54,0,0
57118.8,54.5624,-2139.31,0,0
57379.125,54.3374,-2129.05,0,0
57639.45,54.4745,-2118.84,0,0
57899.775,54.2664,-2108.85,0,0
58160.1,54.4388,-2098.96,0,0
58420.4,54.4886,-2089.23,0,0
58680.7,54.1737,-2079.48,0,0
58941.1,54.041,-2069.67,0,0
59201.4,54.2409,-2060.04,0,0
59461.7,54.0927,-2050.99,0,0
59722,53.8951,-2041.33,0,0
59982.4,53.9525,-2031.98,0,0
60242.7,54.0143,-2022.76,0,0
60503,54.2081,-2013.71,0,0
60763.3,54.26,-2004.89,0,0
61023.7,53.9594,-1996.48,0,0
61284,53.2751,-1987.42,0,0
61544.3,53.026,-1978.29,0,0
61804.6,53.2361,-1969.26,0,0
62065,52.9493,-1961.03,0,0
62325.3,52.4467,-1952.08,0,0
62585.6,52.345,-1943.27,0,0
62845.9,52.3217,-1934.4,0,0
63106.3,52.4448,-1925.68,0,0
63366.6,52.1663,-1917.46,0,0
63626.9,52.2795,-1908.91,0,0
63887.2,52.3042,-1900.36,0,0
64147.6,52.3277,-1891.89,0,0
64407.9,52.2794,-1883.54,0,0
64668.2,52.6784,-1875.06,0,0
64928.5,53.3289,-1866.9,0,0
65188.9,53.8525,-1859.08,0,0
65449.2,54.6077,-1851.47,0,0
65709.5,54.9982,-1844.34,0,0
65969.8,54.8316,-1837.25,0,0
66230.2,54.7449,-1829.94,0,0
66490.5,54.9139,-1822.82,0,0
66750.8,54.3616,-1815.85,0,0
67011.1,53.9628,-1808.33,0,0
67271.5,53.5992,-1801.07,0,0
67531.8,53.4476,-1793.17,0,0
67792.1,53.8995,-1785.93,0,0
68052.4,54.0397,-1779.62,0,0
68312.8,53.2007,-1772.52,0,0
68573.1,52.8701,-1765.12,0,0
68833.4,53.0381,-1758.05,0,0
69093.7,52.7561,-1751.45,0,0
69354.1,52.59,-1744.21,0,0
69614.4,52.5525,-1737.45,0,0
69874.7,52.1387,-1731.09,0,0
70135,51.5136,-1724.3,0,0
70395.4,50.9637,-1717.47,0,0
70655.7,50.3329,-1710.49,0,0
70916,49.8768,-1703.19,0,0
71176.3,49.9383,-1696.26,0,0
71436.7,49.8302,-1689.48,0,0
71697,49.6534,-1683,0,0
71957.3,49.2292,-1676.49,0,0
72217.6,48.6735,-1669.79,0,0
72478,48.2459,-1662.68,0,0
72738.3,48.1191,-1655.75,0,0
72998.6,48.0406,-1648.93,0,0
73258.9,48.0702,-1642.35,0,0
73519.3,48.0317,-1635.79,0,0
73779.6,47.8606,-1629.21,0,0
74039.9,47.8847,-1622.61,0,0
74300.225,47.8636,-1616.12,0,0
74560.55,47.9373,-1609.6,0,0
74820.875,47.9952,-1603.15,0,0
75081.2,48.2225,-1596.8,0,0
75341.525,48.3983,-1590.62,0,0
75601.85,48.4701,-1584.36,0,0
75862.175,48.5565,-1578.24,0,0
76122.5,48.6698,-1572.14,0,0
76382.825,48.7835,-1565.96,0,0
76643.15,49.0039,-1559.82,0,0
76903.475,49.3312,-1553.88,0,0
77163.8,49.6757,-1548,0,0
77424.125,49.8139,-1542.18,0,0
77684.45,50.0724,-1536.44,0,0
77944.775,50.2881,-1530.6,0,0
78205.1,50.588,-1524.82,0,0
78465.425,51.1315,-1519.19,0,0
78725.75,51.5955,-1514.04,0,0
78986.075,51.6314,-1508.89,0,0
79246.4,51.6533,-1503.72,0,0
79506.725,51.4003,-1498.72,0,0
79767.05,50.8705,-1493.23,0,0
80027.375,50.9062,-1487.54,0,0
80287.7,50.7809,-1482.26,0,0
80548.025,50.4958,-1476.92,0,0
80808.35,50.3832,-1471.38,0,0
81068.675,50.1641,-1465.84,0,0
81329.0,50.1756,-1460.11,0,0
81589.325,50.216,-1454.53,0,0
81849.65,50.3803,-1449.1,0,0
82109.975,50.6171,-1443.73,0,0
82370.3,50.652,-1438.36,0,0
82630.625,50.8034,-1433.07,0,0
82890.95,50.8684,-1427.7,0,0
83151.275,51.0228,-1422.21,0,0
83411.6,51.3809,-1416.9,0,0
83671.925,51.8501,-1411.77,0,0
83932.25,52.0481,-1406.7,0,0
84192.575,52.4226,-1401.58,0,0
84452.9,52.7214,-1396.5,0,0
84713.225,53.0744,-1391.53,0,0
84973.55,53.1866,-1386.55,0,0
85233.875,53.6871,-1381.41,0,0
85494.2,54.2852,-1376.62,0,0
85754.525,54.6014,-1372,0,0
86014.85,54.8018,-1367.34,0,0
86275.175,55.1624,-1362.62,0,0
86535.5,55.292,-1358.04,0,0
86795.825,55.5065,-1353.37,0,0
87056.15,55.5647,-1348.7,0,0
87316.475,55.7006,-1343.9,0,0
87576.8,55.9976,-1339.52,0,0
87837.125,55.9407,-1334.9,0,0
88097.45,55.9684,-1330.07,0,0
88357.775,55.8445,-1325.19,0,0
88618.1,55.973,-1320.05,0,0
88878.425,56.4992,-1314.95,0,0
89138.75,57.111,-1310.16,0,0
89399.075,57.6244,-1305.22,0,0
89659.4,58.4715,-1300.51,0,0
89919.725,59.2728,-1295.85,0,0
90180,59.8553,-1291.6,0,0
90440.4,60.4265,-1287.12,0,0
90700.7,60.9724,-1282.35,0,0
90961,61.8297,-1277.48,0,0
91221.3,63.1626,-1272.77,0,0
91481.7,64.6604,-1268.67,0,0
91742,65.991,-1264.68,0,0
92002.3,67.0786,-1261.14,0,0
92262.6,68.046,-1257.22,0,0
92523,69.2512,-1253.24,0,0
92783.3,70.7492,-1249.22,0,0
93043.6,72.731,-1245.95,0,0
93303.9,74.5815,-1243.05,0,0
93564.3,76.6174,-1240.75,0,0
93824.6,78.639,-1239.6,0,0
94084.9,79.0832,-1240.24,0,0
94345.2,76.555,-1239.96,0,0
94605.6,73.3411,-1237.05,0,0
94865.9,71.9772,-1233.24,0,0
95126.2,70.5963,-1229.75,0,0
95386.5,69.3508,-1226.09,0,0
95646.9,67.8457,-1222.01,0,0
95907.2,67.0385,-1217.68,0,0
96167.5,66.316,-1213.31,0,0
96427.8,66.105,-1208.85,0,0
96688.2,66.1576,-1204.99,0,0
96948.5,65.7241,-1201.26,0,0
97208.8,65.2475,-1197.32,0,0
97469.1,64.9223,-1193.25,0,0
97729.5,64.6704,-1189.23,0,0
97989.8,64.4307,-1185.2,0,0
98250.1,64.3355,-1181.2,0,0
98510.4,64.26,-1177.28,0,0
98770.8,64.0624,-1173.43,0,0
99031.1,63.8697,-1169.46,0,0
99291.4,63.6841,-1165.57,0,0
99551.7,63.5542,-1161.68,0,0
99812.1,63.3975,-1157.7,0,0
100072,63.1745,-1153.66,0,0
100333,63.1659,-1149.66,0,0
100593,63.0113,-1145.6,0,0
100853,62.9793,-1141.49,0,0
101114,62.974,-1137.31,0,0
101374,62.9633,-1133.29,0,0
101634,62.8523,-1129.12,0,0
101895,62.8404,-1124.77,0,0
102155,62.934,-1120.19,0,0
102415,63.4497,-1115.53,0,0
102676,64.1284,-1110.92,0,0
102936,65.2076,-1106.57,0,0
103196,66.189,-1102.35,0,0
103457,67.3475,-1098.18,0,0
103717,68.6752,-1094.26,0,0
103977,69.9259,-1090.53,0,0
104238,71.1605,-1086.73,0,0
104498,72.8275,-1083.26,0,0
104758,74.3035,-1080.32,0,0
105019,75.3364,-1077.57,0,0
105279,75.9945,-1074.3,0,0
105539,76.8374,-1070.9,0,0
105800,78.0227,-1067.59,0,0
106060,79.2027,-1064.36,0,0
106320.175,80.5248,-1061.24,0,0
106580.5,81.8792,-1058.36,0,0
106840.825,83.1787,-1055.69,0,0
107101.15,84.3816,-1052.93,0,0
107361.475,85.7802,-1050.36,0,0
107621.8,87.0665,-1048.16,0,0
107882.125,87.9402,-1045.98,0,0
108142.45,88.7748,-1043.58,0,0
108402.775,89.8741,-1041.3,0,0
108663.1,90.7015,-1039.27,0,0
108923.425,91.5031,-1037.15,0,0
109183.75,92.3389,-1035.01,0,0
109444.075,93.1887,-1033.19,0,0
109704.4,93.7881,-1031.58,0,0
109964.725,94.0466,-1029.99,0,0
110225.05,94.0849,-1028.3,0,0
110485.375,93.6629,-1026.28,0,0
110745.7,93.441,-1023.92,0,0
111006.025,93.2456,-1021.44,0,0
111266.35,93.6231,-1018.76,0,0
111526.675,93.9541,-1016.04,0,0
111787.0,94.7717,-1013.54,0,0
112047.325,95.4226,-1011.31,0,0
112307.65,96.1175,-1009.37,0,0
112567.975,96.8052,-1007.62,0,0
112828.3,97.468,-1006.17,0,0
113088.625,97.6702,-1004.76,0,0
113348.95,97.656,-1003.42,0,0
113609.275,97.5225,-1002.04,0,0
113869.6,97.0909,-1000.71,0,0
114129.925,96.3274,-999.218,0,0
114390.25,95.536,-997.232,0,0
114650.575,95.0598,-995.211,0,0
114910.9,94.6896,-993.475,0,0
115171.225,93.6959,-991.832,0,0
115431.55,92.699,-989.768,0,0
115691.875,91.8419,-987.551,0,0
115952.2,90.871,-985.369,0,0
116212.525,89.9512,-982.901,0,0
116472.85,89.1113,-980.412,0,0
116733.175,88.4456,-978.025,0,0
116993.5,87.5411,-975.703,0,0
117253.825,86.3655,-973.112,0,0
117514.15,85.314,-970.264,0,0
117774.475,84.4814,-967.304,0,0
118034.8,83.7371,-964.193,0,0
118295.125,83.1518,-961.081,0,0
118555.45,82.7396,-958.072,0,0
118815.775,82.2837,-955.11,0,0
119076.1,81.8301,-951.884,0,0
119336.425,81.5428,-948.781,0,0
119596.75,81.4278,-945.641,0,0
119857.075,81.5023,-942.589,0,0
120117.4,81.6298,-939.858,0,0
120377.725,81.5735,-937.169,0,0
120638.05,81.5285,-934.433,0,0
120898.375,81.5578,-931.84,0,0
121158.7,81.5085,-929.367,0,0
121419.025,81.1391,-927.027,0,0
121679.35,80.6912,-924.402,0,0
121939.675,80.219,-921.67,0,0
122200.0,79.732,-918.779,0,0
122460,79.3548,-915.832,0,0
122721,79.0404,-912.772,0,0
122981,78.9168,-909.733,0,0
123241,78.8407,-906.753,0,0
123502,78.7258,-903.785,0,0
123762,78.6559,-900.745,0,0
124022,78.7544,-897.771,0,0
124283,78.7528,-894.901,0,0
124543,78.7641,-891.972,0,0
124803,78.7624,-889.106,0,0
125064,78.8949,-886.181,0,0
125324,78.8833,-883.157,0,0
125584,79.0259,-880.141,0,0
125845,79.3281,-877.168,0,0
126105,79.55,-874.361,0,0
126365,79.6778,-871.436,0,0
126626,79.9696,-868.583,0,0
126886,80.2267,-865.689,0,0
127146,80.3729,-862.884,0,0
127406,80.729,-859.797,0,0
127667,81.0331,-857.011,0,0
127927,81.3589,-854.115,0,0
128187,81.7312,-851.189,0,0
128448,82.1759,-848.181,0,0
128708,82.7826,-845.192,0,0
128968,83.4189,-842.467,0,0
129229,84.0134,-839.737,0,0
129489,84.4801,-836.938,0,0
129749,85.0998,-834.016,0,0
130010,85.919,-831.056,0,0
130270,86.9299,-828.284,0,0
130530,87.863,-825.801,0,0
130791,88.8207,-823.346,0,0
131051,89.6429,-820.97,0,0
131311,90.5027,-818.563,0,0
131572,91.4185,-816.351,0,0
131832,92.2016,-814.13,0,0
132092,93.0012,-811.969,0,0
132353,93.8166,-809.872,0,0
132613,94.45,-807.868,0,0
132873,94.9571,-805.796,0,0
133134,95.5418,-803.663,0,0
133394,96.0396,-801.483,0,0
133654,96.6281,-799.298,0,0
133915,97.1417,-797.124,0,0
134175,97.6649,-794.888,0,0
134435,98.3424,-792.603,0,0
134696,99.0252,-790.521,0,0
134956,99.7279,-788.392,0,0
135216,100.377,-786.313,0,0
135477,100.981,-784.216,0,0
135737,101.575,-782.084,0,0
135997,102.115,-779.883,0,0
136258,102.927,-777.665,0,0
136518,103.755,-775.453,0,0
136778,104.759,-773.299,0,0
137039,105.85,-771.401,0,0
137299,106.957,-769.546,0,0
137559,108.194,-768.062,0,0
137819,109.262,-766.972,0,0
138080,109.828,-766.061,0,0
138340.125,110.085,-764.926,0,0
138600.45,110.344,-763.708,0,0
138860.775,110.382,-762.523,0,0
139121.1,110.158,-761.132,0,0
139381.425,109.976,-759.508,0,0
139641.75,109.696,-757.734,0,0
139902.075,109.55,-755.823,0,0
140162.4,109.537,-753.781,0,0
140422.725,109.584,-751.815,0,0
140683.05,109.682,-749.865,0,0
140943.375,109.659,-747.979,0,0
141203.7,109.602,-745.962,0,0
141464.025,109.658,-743.88,0,0
141724.35,109.732,-741.81,0,0
141984.675,109.747,-739.722,0,0
142245.0,109.761,-737.521,0,0
142505.325,109.978,-735.206,0,0
142765.65,110.262,-733.088,0,0
143025.975,110.327,-730.958,0,0
143286.3,110.44,-728.714,0,0
143546.625,110.643,-726.291,0,0
143806.95,111.119,-723.877,0,0
144067.275,111.626,-721.68,0,0
144327.6,112.003,-719.589,0,0
144587.925,112.287,-717.33,0,0
144848.25,112.696,-714.936,0,0
145108.575,113.263,-712.531,0,0
145368.9,114.174,-710.253,0,0
145629.225,115,-708.277,0,0
145889.55,115.606,-706.429,0,0
146149.875,116.199,-704.492,0,0
146410.2,116.801,-702.444,0,0
146670.525,117.544,-700.497,0,0
146930.85,118.412,-698.789,0,0
147191.175,119.054,-697.418,0,0
147451.5,119.237,-696.067,0,0
147711.825,119.208,-694.398,0,0
147972.15,119.178,-692.482,0,0
148232.475,119.186,-690.367,0,0
148492.8,119.494,-688.067,0,0
148753.125,120.029,-685.986,0,0
149013.45,120.449,-684.06,0,0
149273.775,120.817,-682.053,0,0
149534.1,121.344,-680.145,0,0
149794.425,121.752,-678.442,0,0
150054.75,121.924,-676.814,0,0
150315.075,121.865,-674.988,0,0
150575.4,121.831,-673.021,0,0
150835.725,121.819,-671.06,0,0
151096.05,121.621,-669.058,0,0
151356.375,121.35,-666.745,0,0
151616.7,121.246,-664.27,0,0
151877.025,121.165,-661.851,0,0
152137.35,121.016,-659.307,0,0
152397.675,120.872,-656.549,0,0
152658.0,120.805,-653.662,0,0
152918.325,120.816,-650.592,0,0
153178.65,121.04,-647.332,0,0
153438.975,121.474,-644.012,0,0
153699.3,122.153,-640.668,0,0
153959.625,123.034,-637.452,0,0
154219.95,123.872,-634.363,0,0
154480,124.629,-631.131,0,0
154741,125.697,-627.623,0,0
155001,127.032,-624.379,0,0
155261,128.229,-621.15,0,0
155522,129.613,-617.74,0,0
155782,131.251,-614.343,0,0
156042,133.03,-611.029,0,0
156303,135.038,-607.6,0,0
156563,137.366,-604.236,0,0
156823,140.079,-601.107,0,0
157084,143.109,-598.329,0,0
157344,146.181,-596.128,0,0
157604,149.025,-594.405,0,0
157864,151.533,-592.985,0,0
158125,153.496,-591.47,0,0
158385,155.467,-589.656,0,0
158645,157.431,-587.966,0,0
158906,159.066,-586.3,0,0
159166,160.382,-584.034,0,0
159426,162.046,-581.112,0,0
159687,164.377,-578.087,0,0
159947,167.181,-575.129,0,0
160207,170.45,-572.293,0,0
160468,174.166,-569.995,0,0
160728,177.882,-567.903,0,0
160988,182.029,-566.004,0,0
161249,186.494,-564.703,0,0
161509,191.004,-564.284,0,0
161769,195.042,-564.397,0,0
162030,198.792,-564.808,0,0
162290,202.046,-565.529,0,0
162550,204.782,-566.275,0,0
162811,207.266,-566.863,0,0
163071,209.545,-567.409,0,0
163331,211.572,-567.848,0,0
163592,213.418,-568.081,0,0
163852,215.231,-567.892,0,0
164112,217.418,-567.277,0,0
164373,220.32,-566.821,0,0
164633,223.551,-567.032,0,0
164893,226.418,-567.684,0,0
165154,229.318,-568.375,0,0
165414,232.393,-569.369,0,0
165674,235.249,-570.955,0,0
165935,237.705,-572.828,0,0
166195,239.814,-574.754,0,0
166455,241.678,-576.892,0,0
166716,243.088,-578.969,0,0
166976,244.441,-580.86,0,0
167236,245.825,-582.869,0,0
167497,247.106,-585.192,0,0
167757,248.051,-587.852,0,0
168017,248.34,-590.603,0,0
168277,248.164,-593.165,0,0
168538,247.765,-595.55,0,0
168798,247.017,-597.806,0,0
169058,246.034,-599.785,0,0
169319,244.943,-601.764,0,0
169579,243.266,-603.776,0,0
169839,241.088,-605.12,0,0
170100,238.81,-605.787,0,0
170360.075,236.742,-605.946,0,0
170620.4,234.868,-605.802,0,0
170880.725,233.312,-605.48,0,0
171141.05,231.739,-605.252,0,0
171401.375,230.016,-604.589,0,0
171661.7,228.683,-603.509,0,0
171922.025,227.824,-602.515,0,0
172182.35,226.949,-601.658,0,0
172442.675,226.165,-600.685,0,0
172703.0,225.587,-599.706,0,0
172963.325,225.084,-598.803,0,0
173223.65,224.745,-597.955,0,0
173483.975,224.386,-597.288,0,0
173744.3,223.822,-596.672,0,0
174004.625,223.308,-595.894,0,0
174264.95,222.802,-595.108,0,0
174525.275,222.355,-594.185,0,0
174785.6,222.009,-593.349,0,0
175045.925,221.691,-592.55,0,0
175306.25,221.431,-591.629,0,0
175566.575,221.338,-590.866,0,0
175826.9,221.197,-590.291,0,0
176087.225,220.929,-589.75,0,0
176347.55,220.698,-589.252,0,0
176607.875,220.277,-588.938,0,0
176868.2,219.494,-588.445,0,0
177128.525,218.773,-587.571,0,0
177388.85,218.278,-586.571,0,0
177649.175,218.056,-585.578,0,0
177909.5,218.067,-584.872,0,0
178169.825,217.982,-584.503,0,0
178430.15,217.623,-584.287,0,0
178690.475,217.115,-584.067,0,0
178950.8,216.543,-583.872,0,0
179211.125,215.702,-583.864,0,0
179471.45,214.638,-583.733,0,0
179731.775,213.399,-583.653,0,0
179992.1,211.945,-583.493,0,0
180252.425,209.822,-583.238,0,0
180512.75,207.425,-582.238,0,0
180773.075,205.264,-580.7,0,0
181033.4,203.335,-578.966,0,0
181293.725,201.534,-577.002,0,0
181554.05,200.122,-574.929,0,0
181814.375,198.796,-573,0,0
182074.7,197.323,-571.125,0,0
182335.025,195.76,-568.905,0,0
182595.35,194.464,-566.463,0,0
182855.675,193.356,-564.039,0,0
183116.0,192.227,-561.689,0,0
183376.325,190.992,-559.253,0,0
183636.65,189.779,-556.527,0,0
183896.975,188.754,-553.61,0,0
184157.3,187.918,-550.536,0,0
184417.625,187.328,-547.52,0,0
184677.95,186.758,-544.485,0,0
184938.275,186.276,-541.365,0,0
185198.6,186.084,-538.144,0,0
185458.925,186.047,-535.029,0,0
185719.25,186.089,-531.936,0,0
185979.575,186.192,-528.876,0,0
186239.9,186.444,-525.863,0,0
186500,186.741,-522.953,0,0
186761,186.995,-520.128,0,0
187021,187.065,-517.083,0,0
187281,187.225,-513.92,0,0
187542,187.817,-510.528,0,0
187802,188.721,-507.396,0,0
188062,189.588,-504.442,0,0
188322,190.563,-501.705,0,0
188583,191.335,-499.149,0,0
188843,192.005,-496.49,0,0
189103,192.776,-493.758,0,0
189364,193.508,-490.964,0,0
189624,194.184,-488.348,0,0
189884,194.785,-485.785,0,0
190145,195.226,-482.815,0,0
190405,195.854,-479.837,0,0
190665,196.432,-476.72,0,0
190926,197.169,-473.361,0,0
191186,198.113,-470.017,0,0
191446,199.064,-466.58,0,0
191707,200.245,-463.145,0,0
191967,201.591,-459.837,0,0
192227,203.033,-456.488,0,0
192488,204.361,-453.166,0,0
192748,205.863,-449.754,0,0
193008,207.404,-446.27,0,0
193269,209.046,-442.706,0,0
193529,210.923,-439.096,0,0
193789,212.946,-435.548,0,0
194050,215.083,-432.079,0,0
194310,217.438,-428.712,0,0
194570,219.714,-425.465,0,0
194831,221.832,-422.094,0,0
195091,224.151,-418.671,0,0
195351,226.7,-415.125,0,0
195612,229.439,-411.661,0,0
195872,232.269,-408.299,0,0
196132,235.065,-404.82,0,0
196393,238.121,-401.379,0,0
196653,241.44,-398.101,0,0
196913,244.868,-394.97,0,0
197174,248.219,-391.96,0,0
197434,251.581,-388.932,0,0
197694,255.066,-385.93,0,0
197955,258.605,-382.946,0,0
198215,262.294,-380.107,0,0
198475,265.961,-377.184,0,0
198735,269.648,-374.42,0,0
198996,273.365,-371.665,0,0
199256,276.918,-368.79,0,0
199516,280.614,-365.663,0,0
199777,284.498,-362.355,0,0
200037,288.825,-358.897,0,0
200297,293.462,-355.572,0,0
200558,298.336,-352.444,0,0
200818,303.286,-349.5,0,0
201078,308.246,-346.631,0,0
201339,313.164,-343.516,0,0
201599,318.449,-340.051,0,0
201859,324.23,-336.654,0,0
202120,330.48,-333.231,0,0
202380.025,337.215,-329.927,0,0
202640.35,344.53,-326.946,0,0
202900.675,352.083,-324.238,0,0
203161.0,360.02,-321.825,0,0
203421.325,368.336,-319.53,0,0
203681.65,377.327,-317.618,0,0
203941.975,386.988,-316.191,0,0
204202.3,397.027,-315.657,0,0
204462.625,407.384,-316.037,0,0
204722.95,417.766,-317.229,0,0
204983.275,428.163,-319.268,0,0
205243.6,438.298,-322.187,0,0
205503.925,448.296,-325.937,0,0
205764.25,457.909,-330.343,0,0
206024.575,466.971,-335.371,0,0
206284.9,475.661,-340.835,0,0
206545.225,484.154,-347.145,0,0
206805.55,491.841,-354.172,0,0
207065.875,498.451,-361.684,0,0
207326.2,504.123,-368.896,0,0
207586.525,509.524,-375.849,0,0
207846.85,514.75,-382.908,0,0
208107.175,519.756,-390.275,0,0
208367.5,524.259,-398.096,0,0
208627.825,528.075,-406.122,0,0
208888.15,531.193,-414.276,0,0
209148.475,533.718,-422.317,0,0
209408.8,535.802,-430.451,0,0
209669.125,537.152,-438.768,0,0
209929.45,537.732,-447.335,0,0
210189.775,536.704,-455.647,0,0
210450.1,534.544,-463.004,0,0
210710.425,531.552,-468.913,0,0
210970.75,528.647,-473.472,0,0
211231.075,525.972,-477.244,0,0
211491.4,523.372,-480.266,0,0
211751.725,520.819,-482.375,0,0
212012.05,518.7,-483.593,0,0
212272.375,517.387,-483.762,0,0
212532.7,517.226,-483.302,0,0
212793.025,518.449,-482.826,0,0
213053.35,520.742,-482.916,0,0
213313.675,523.674,-483.941,0,0
213574.0,526.741,-485.862,0,0
213834.325,529.399,-488.673,0,0
214094.65,531.754,-491.176,0,0
214354.975,534.322,-493.804,0,0
214615.3,536.868,-496.792,0,0
214875.625,539.077,-500.159,0,0
215135.95,540.944,-503.266,0,0
215396.275,542.866,-506.381,0,0
215656.6,544.714,-509.469,0,0
215916.925,546.705,-512.627,0,0
216177.25,548.497,-515.728,0,0
216437.575,550.487,-518.732,0,0
216697.9,552.472,-521.821,0,0
216958.225,554.496,-524.913,0,0
217218.55,556.772,-528.044,0,0
217478.875,559.17,-531.509,0,0
217739.2,561.323,-535.352,0,0
217999.525,563.092,-539.176,0,0
218259.85,564.569,-542.752,0,0
218520,566.124,-545.802,0,0
218780,568.12,-548.565,0,0
219041,570.603,-551.325,0,0
219301,573.639,-554.557,0,0
219561,576.889,-558.009,0,0
219822,580.089,-561.766,0,0
220082,583.58,-565.809,0,0
220342,587.37,-570.054,0,0
220603,591.23,-574.702,0,0
220863,595.291,-580,0,0
221123,599.439,-585.843,0,0
221384,603.576,-592.294,0,0
221644,607.48,-599.629,0,0
221904,610.9,-607.429,0,0
222165,613.838,-615.716,0,0
222425,616.437,-624.41,0,0
222685,618.493,-633.471,0,0
222946,620.077,-642.811,0,0
223206,621.193,-652.657,0,0
223466,621.537,-662.764,0,0
223727,621.136,-673.056,0,0
223987,619.887,-683.193,0,0
224247,618.13,-693.304,0,0
224508,615.526,-703.126,0,0
224768,612.501,-712.829,0,0
225028,608.941,-721.96,0,0
225289,605.425,-730.421,0,0
225549,601.778,-739.002,0,0
225809,598.307,-747.522,0,0
226070,594.28,-756.593,0,0
226330,589.747,-765.769,0,0
226590,584.334,-774.942,0,0
226851,578.329,-783.577,0,0
227111,571.72,-791.95,0,0
227371,564.821,-799.739,0,0
227632,557.682,-807.261,0,0
227892,550.09,-814.595,0,0
228152,541.92,-821.595,0,0
228413,533.286,-828.085,0,0
228673,524.266,-833.788,0,0
228933,515.042,-838.794,0,0
229193,505.684,-843.199,0,0
229454,496.078,-847.104,0,0
229714,486.588,-850.167,0,0
229974,477.214,-852.637,0,0
230235,468.141,-854.05,0,0
230495,459.182,-855.464,0,0
230755,450.616,-856.336,0,0
231016,442.438,-856.834,0,0
231276,434.347,-857.065,0,0
231536,426.591,-857.03,0,0
231797,419.115,-856.628,0,0
232057,411.899,-856.075,0,0
232317,404.991,-855.306,0,0
232578,398.321,-854.435,0,0
232838,391.855,-853.405,0,0
233098,385.677,-852.175,0,0
233359,379.836,-850.81,0,0
233619,374.282,-849.406,0,0
233879,369.021,-847.928,0,0
234140,364.219,-846.612,0,0
234400,359.475,-845.209,0,0
234660.3,355,-844.302,0,0
234920.625,350.604,-843.281,0,0
235180.95,346.355,-842.608,0,0
235441.275,341.944,-842.089,0,0
235701.6,337.294,-841.586,0,0
235961.925,332.428,-841.1,0,0
236222.25,327.733,-840.373,0,0
236482.575,323.012,-839.533,0,0
236742.9,318.318,-838.701,0,0
237003.225,313.55,-837.799,0,0
237263.55,308.725,-836.792,0,0
237523.875,303.813,-835.651,0,0
237784.2,299.033,-834.242,0,0
238044.525,294.328,-832.687,0,0
238304.85,289.727,-831.072,0,0
238565.175,285.12,-829.302,0,0
238825.5,280.722,-827.395,0,0
239085.825,276.385,-825.275,0,0
239346.15,272.376,-823.279,0,0
239606.475,268.414,-821.185,0,0
239866.8,264.234,-819.065,0,0
240127.125,260.502,-816.879,0,0
240387.45,256.829,-814.522,0,0
240647.775,253.143,-812.442,0,0
240908.1,249.735,-810.111,0,0
241168.425,246.288,-807.807,0,0
241428.75,242.978,-805.473,0,0
241689.075,239.772,-803.226,0,0
241949.4,236.606,-800.92,0,0
242209.725,233.5,-798.598,0,0
242470.05,230.387,-796.216,0,0
242730.375,227.411,-793.667,0,0
242990.7,224.647,-791.122,0,0
243251.025,221.978,-788.556,0,0
243511.35,219.552,-786.24,0,0
243771.675,217.129,-783.906,0,0
244032.0,214.694,-781.665,0,0
244292.325,212.465,-779.478,0,0
244552.65,210.096,-777.18,0,0
244812.975,207.814,-775.124,0,0
245073.3,205.511,-773.031,0,0
245333.625,203.122,-770.89,0,0
245593.95,200.704,-768.853,0,0
245854.275,198.32,-766.639,0,0
246114.6,196.102,-764.613,0,0
246374.925,193.692,-762.408,0,0
246635.25,191.258,-760.263,0,0
246895.575,188.901,-758.009,0,0
247155.9,186.561,-755.509,0,0
247416.225,184.369,-752.945,0,0
247676.55,182.315,-750.413,0,0
247936.875,180.387,-747.82,0,0
248197.2,178.465,-745.32,0,0
248457.525,176.657,-742.863,0,0
248717.85,174.845,-740.437,0,0
248978.175,173.069,-737.992,0,0
249238.5,171.321,-735.506,0,0
249498.825,169.709,-732.857,0,0
249759.15,168.027,-730.533,0,0
250019.475,166.628,-727.941,0,0
250279.8,165.049,-725.344,0,0
250540,163.699,-722.681,0,0
250800,162.403,-720.215,0,0
251061,161.219,-717.698,0,0
251321,160.014,-715.289,0,0
251581,158.869,-712.926,0,0
251842,157.673,-710.643,0,0
252102,156.376,-708.331,0,0
252362,155.211,-705.943,0,0
252623,153.975,-703.536,0,0
252883,152.809,-701.046,0,0
253143,151.641,-698.488,0,0
253404,150.572,-695.932,0,0
253664,149.634,-693.254,0,0
253924,148.779,-690.624,0,0
254185,148.045,-687.935,0,0
254445,147.484,-685.414,0,0
254705,146.986,-682.764,0,0
254966,146.463,-680.389,0,0
255226,146.21,-677.989,0,0
255486,145.749,-675.663,0,0
255747,145.345,-673.438,0,0
256007,144.939,-671.265,0,0
256267,144.529,-668.975,0,0
256528,144.072,-666.744,0,0
256788,143.697,-664.417,0,0
257048,143.429,-662.166,0,0
257309,143.153,-659.895,0,0
257569,142.894,-657.633,0,0
257829,142.674,-655.301,0,0
258090,142.505,-652.998,0,0
258350,142.452,-650.621,0,0
258610,142.447,-648.28,0,0
258871,142.481,-645.911,0,0
259131,142.733,-643.49,0,0
259391,143.039,-641.159,0,0
259651,143.464,-638.858,0,0
259912,144.021,-636.649,0,0
260172,144.633,-634.496,0,0
260432,145.452,-632.387,0,0
260693,146.266,-630.496,0,0
260953,147.095,-628.655,0,0
261213,147.96,-627,0,0
261474,148.843,-625.409,0,0
261734,149.721,-623.854,0,0
261994,150.6,-622.398,0,0
262255,151.517,-620.984,0,0
262515,152.456,-619.633,0,0
262775,153.385,-618.385,0,0
263036,154.364,-617.14,0,0
263296,155.416,-616.005,0,0
263556,156.421,-614.918,0,0
263817,157.407,-613.954,0,0
264077,158.395,-613.005,0,0
264337,159.515,-612.09,0,0
264598,160.635,-611.267,0,0
264858,161.923,-610.444,0,0
265118,163.144,-609.772,0,0
265379,164.578,-609.372,0,0
265639,166.02,-609.169,0,0
265899,167.453,-609.139,0,0
266160,168.851,-609.263,0,0
266420,170.192,-609.72,0,0
266680.25,171.4,-610.412,0,0
266940.575,172.501,-611.327,0,0
267200.9,173.375,-612.485,0,0
267461.225,173.969,-613.811,0,0
267721.55,174.261,-615.328,0,0
267981.875,174.266,-616.894,0,0
268242.2,173.89,-618.493,0,0
268502.525,173.198,-620.114,0,0
268762.85,172.184,-621.563,0,0
269023.175,170.795,-622.896,0,0
269283.5,169.165,-623.968,0,0
269543.825,167.32,-624.816,0,0
269804.15,165.323,-625.515,0,0
270064.475,163.245,-625.857,0,0
270324.8,161.027,-625.919,0,0
270585.125,158.905,-625.812,0,0
270845.45,156.578,-625.475,0,0
271105.775,154.253,-624.775,0,0
271366.1,152.023,-623.833,0,0
271626.425,149.933,-622.575,0,0
271886.75,147.975,-621.121,0,0
272147.075,146.24,-619.523,0,0
272407.4,144.657,-617.712,0,0
272667.725,143.343,-615.894,0,0
272928.05,142.191,-614.016,0,0
273188.375,141.213,-612.148,0,0
273448.7,140.42,-610.249,0,0
273709.025,139.768,-608.373,0,0
273969.35,139.249,-606.625,0,0
274229.675,138.828,-604.929,0,0
274490.0,138.468,-603.244,0,0
274750.325,138.17,-601.529,0,0
275010.65,137.868,-599.935,0,0
275270.975,137.687,-598.339,0,0
275531.3,137.507,-596.743,0,0
275791.625,137.539,-595.18,0,0
276051.95,137.619,-593.63,0,0
276312.275,137.794,-592.159,0,0
276572.6,137.977,-590.784,0,0
276832.925,138.242,-589.472,0,0
277093.25,138.544,-588.225,0,0
277353.575,138.921,-587.086,0,0
277613.9,139.314,-586.053,0,0
277874.225,139.692,-585.1,0,0
278134.55,140.053,-584.242,0,0
278394.875,140.461,-583.485,0,0
278655.2,140.806,-582.838,0,0
278915.525,141.052,-582.277,0,0
279175.85,141.2,-581.742,0,0
279436.175,141.324,-581.173,0,0
279696.5,141.364,-580.707,0,0
279956.825,141.422,-580.21,0,0
280217.15,141.394,-579.776,0,0
280477.475,141.229,-579.223,0,0
280737.8,141.126,-578.633,0,0
280998.125,141.042,-578.061,0,0
281258.45,141.012,-577.469,0,0
281518.775,141.037,-576.969,0,0
281779.1,140.986,-576.574,0,0
282039.425,140.852,-576.237,0,0
282299.75,140.613,-575.929,0,0
282560,140.286,-575.597,0,0
282820,139.831,-575.268,0,0
283081,139.214,-574.848,0,0
283341,138.503,-574.237,0,0
283601,137.888,-573.415,0,0
283862,137.41,-572.505,0,0
284122,137.055,-571.603,0,0
284382,136.759,-570.742,0,0
284643,136.459,-569.925,0,0
284903,136.229,-569.122,0,0
285163,136.043,-568.349,0,0
285424,135.78,-567.62,0,0
285684,135.526,-566.994,0,0
285944,135.148,-566.419,0,0
286205,134.626,-565.781,0,0
286465,134.086,-565.094,0,0
286725,133.433,-564.296,0,0
286986,132.754,-563.401,0,0
287246,132.021,-562.343,0,0
287506,131.32,-561.132,0,0
287767,130.692,-559.694,0,0
288027,130.254,-558.133,0,0
288287,130.022,-556.529,0,0
288548,129.941,-554.91,0,0
288808,130.054,-553.311,0,0
289068,130.304,-551.768,0,0
289329,130.71,-550.32,0,0
289589,131.259,-548.953,0,0
289849,131.852,-547.772,0,0
290109,132.506,-546.692,0,0
290370,133.233,-545.779,0,0
290630,133.906,-545.083,0,0
290890,134.475,-544.535,0,0
291151,134.932,-544.064,0,0
291411,135.189,-543.608,0,0
291671,135.423,-543.11,0,0
291932,135.602,-542.63,0,0
292192,135.71,-542.15,0,0
292452,135.726,-541.676,0,0
292713,135.647,-541.174,0,0
292973,135.476,-540.572,0,0
293233,135.307,-539.891,0,0
293494,135.113,-539.095,0,0
293754,134.95,-538.24,0,0
294014,134.763,-537.282,0,0
294275,134.65,-536.247,0,0
294535,134.589,-535.127,0,0
294795,134.575,-533.941,0,0
295056,134.638,-532.702,0,0
295316,134.835,-531.401,0,0
295576,135.134,-530.087,0,0
295837,135.544,-528.746,0,0
296097,136.077,-527.44,0,0
296357,136.736,-526.155,0,0
296618,137.526,-524.936,0,0
296878,138.407,-523.819,0,0
297138,139.344,-522.844,0,0
297399,140.282,-521.949,0,0
297659,141.222,-521.14,0,0
297919,142.139,-520.375,0,0
298180,143.091,-519.672,0,0
298440,144.047,-519.024,0,0
298700.2,145,-518.366,0,0
298960.525,145.872,-517.838,0,0
299220.85,146.799,-517.315,0,0
299481.175,147.635,-516.768,0,0
299741.5,148.674,-516.236,0,0
300001.825,149.606,-515.647,0,0
300262.15,150.645,-515.085,0,0
300522.475,151.724,-514.615,0,0
300782.8,152.855,-514.114,0,0
301043.125,154.053,-513.67,0,0
301303.45,155.393,-513.185,0,0
301563.775,156.931,-512.965,0,0
301824.1,158.624,-512.887,0,0
302084.425,160.124,-513.11,0,0
302344.75,161.567,-513.459,0,0
302605.075,162.894,-513.95,0,0
302865.4,164.098,-514.573,0,0
303125.725,165.093,-515.253,0,0
303386.05,166.075,-515.798,0,0
303646.375,166.973,-516.33,0,0
303906.7,167.903,-516.864,0,0
304167.025,168.928,-517.498,0,0
304427.35,169.862,-518.17,0,0
304687.675,170.731,-518.976,0,0
304948.0,171.585,-519.834,0,0
305208.325,172.306,-520.693,0,0
305468.65,173.079,-521.419,0,0
305728.975,173.838,-522.257,0,0
305989.3,174.672,-523.209,0,0
306249.625,175.366,-524.247,0,0
306509.95,176.117,-525.357,0,0
306770.275,176.715,-526.608,0,0
307030.6,177.246,-527.844,0,0
307290.925,177.771,-529.246,0,0
307551.25,178.166,-530.623,0,0
307811.575,178.438,-532.101,0,0
308071.9,178.604,-533.757,0,0
308332.225,178.596,-535.215,0,0
308592.55,178.409,-536.845,0,0
308852.875,178.113,-538.3,0,0
309113.2,177.615,-539.79,0,0
309373.525,177.189,-541.209,0,0
309633.85,176.712,-542.449,0,0
309894.175,176.084,-543.681,0,0
310154.5,175.588,-544.932,0,0
310414.825,174.905,-546.227,0,0
310675.15,174.205,-547.524,0,0
310935.475,173.4,-548.755,0,0
311195.8,172.578,-549.957,0,0
311456.125,171.637,-551.185,0,0
311716.45,170.694,-552.205,0,0
311976.775,169.63,-553.32,0,0
312237.1,168.482,-554.293,0,0
312497.425,167.305,-555.235,0,0
312757.75,166.13,-556.175,0,0
313018.075,164.781,-556.976,0,0
313278.4,163.538,-557.759,0,0
313538.725,162.119,-558.357,0,0
313799.05,160.868,-558.999,0,0
314059.375,159.527,-559.506,0,0
314319.7,158.296,-560.041,0,0
314580,157.06,-560.361,0,0
314840,155.826,-560.935,0,0
315101,154.59,-561.416,0,0
315361,153.329,-561.856,0,0
315621,152.145,-562.314,0,0
315882,150.727,-562.817,0,0
316142,149.305,-563.312,0,0
316402,147.92,-563.704,0,0
316663,146.313,-564.133,0,0
316923,144.823,-564.453,0,0
317183,143.219,-564.627,0,0
317444,141.523,-564.78,0,0
317704,139.804,-564.833,0,0
317964,138.234,-564.942,0,0
318225,136.551,-564.875,0,0
318485,134.816,-564.857,0,0
318745,133.207,-564.524,0,0
319006,131.435,-564.266,0,0
319266,129.841,-563.955,0,0
319526,128.225,-563.57,0,0
319787,126.582,-563.139,0,0
320047,124.944,-562.565,0,0
320307,123.44,-561.994,0,0
320567,121.838,-561.337,0,0
320828,120.258,-560.701,0,0
321088,118.757,-559.956,0,0
321348,117.192,-559.12,0,0
321609,115.79,-558.221,0,0
321869,114.415,-557.274,0,0
322129,112.996,-556.24,0,0
322390,111.692,-555.146,0,0
322650,110.478,-553.95,0,0
322910,109.338,-552.762,0,0
323171,108.346,-551.429,0,0
323431,107.39,-550.237,0,0
323691,106.668,-548.998,0,0
323952,105.974,-547.695,0,0
324212,105.401,-546.497,0,0
324472,104.822,-545.33,0,0
324733,104.302,-544.238,0,0
324993,103.856,-543.158,0,0
325253,103.484,-542.145,0,0
325514,103.143,-541.058,0,0
325774,102.85,-540.077,0,0
326034,102.644,-539.23,0,0
326295,102.42,-538.433,0,0
326555,102.267,-537.642,0,0
326815,102.089,-536.961,0,0
327076,101.829,-536.313,0,0
327336,101.647,-535.719,0,0
327596,101.423,-535.251,0,0
327857,101.157,-534.738,0,0
328117,100.92,-534.242,0,0
328377,100.627,-533.859,0,0
328638,100.255,-533.424,0,0
328898,99.9475,-533.095,0,0
329158,99.5933,-532.728,0,0
329419,99.126,-532.371,0,0
329679,98.7813,-532.076,0,0
329939,98.2511,-531.712,0,0
330200,97.8407,-531.414,0,0
330460,97.2995,-531.115,0,0
330720.15,96.7966,-530.886,0,0
330980.475,96.1584,-530.527,0,0
331240.8,95.6097,-530.225,0,0
331501.125,94.9265,-529.862,0,0
331761.45,94.2837,-529.592,0,0
332021.775,93.6233,-529.126,0,0
332282.1,92.8875,-528.83,0,0
332542.425,92.2162,-528.361,0,0
332802.75,91.4114,-527.992,0,0
333063.075,90.7216,-527.574,0,0
333323.4,89.912,-527.171,0,0
333583.725,89.1501,-526.649,0,0
333844.05,88.394,-526.17,0,0
334104.375,87.6468,-525.699,0,0
334364.7,86.7962,-525.105,0,0
334625.025,86.0057,-524.626,0,0
334885.35,85.1335,-523.91,0,0
335145.675,84.3001,-523.281,0,0
335406.0,83.5569,-522.619,0,0
335666.325,82.6785,-521.901,0,0
335926.65,81.9596,-521.177,0,0
336186.975,81.2532,-520.364,0,0
336447.3,80.5423,-519.574,0,0
336707.625,79.8109,-518.838,0,0
336967.95,79.1223,-518.029,0,0
337228.275,78.5083,-517.266,0,0
337488.6,77.8237,-516.356,0,0
337748.925,77.2348,-515.569,0,0
338009.25,76.6821,-514.673,0,0
338269.575,76.0469,-513.906,0,0
338529.9,75.4744,-513.078,0,0
338790.225,74.9607,-512.25,0,0
339050.55,74.3768,-511.395,0,0
339310.875,73.8361,-510.555,0,0
339571.2,73.3694,-509.674,0,0
339831.525,72.9074,-508.915,0,0
340091.85,72.3975,-508.043,0,0
340352.175,71.9212,-507.243,0,0
340612.5,71.411,-506.345,0,0
340872.825,70.9903,-505.519,0,0
341133.15,70.5452,-504.737,0,0
341393.475,70.1609,-503.937,0,0
341653.8,69.7099,-503.112,0,0
341914.125,69.3039,-502.309,0,0
342174.45,68.9014,-501.545,0,0
342434.775,68.4493,-500.688,0,0
342695.1,68.041,-499.93,0,0
342955.425,67.6279,-499.166,0,0
343215.75,67.2046,-498.339,0,0
343476.075,66.7813,-497.539,0,0
343736.4,66.4388,-496.727,0,0
343996.725,65.9681,-496.024,0,0
344257.05,65.5325,-495.17,0,0
344517.375,65.1642,-494.425,0,0
344777.7,64.6742,-493.588,0,0
345038.025,64.2142,-492.743,0,0
345298.35,63.7851,-491.909,0,0
345558.675,63.3522,-491.132,0,0
345819.0,62.9884,-490.272,0,0
346079.325,62.56,-489.379,0,0
346339.65,62.1095,-488.494,0,0
346599.975,61.6776,-487.581,0,0
346860,61.3178,-486.685,0,0
347121,60.9622,-485.776,0,0
347381,60.6129,-484.778,0,0
347641,60.2809,-483.836,0,0
347902,59.9893,-482.884,0,0
348162,59.7423,-481.866,0,0
348422,59.4607,-480.942,0,0
348683,59.2087,-479.937,0,0
348943,59.0688,-478.997,0,0
349203,58.8849,-478.041,0,0
349464,58.7252,-477.177,0,0
349724,58.5655,-476.248,0,0
349984,58.4319,-475.368,0,0
350245,58.2616,-474.426,0,0
350505,58.1475,-473.555,0,0
350765,58.0482,-472.719,0,0
351025,57.9486,-471.844,0,0
351286,57.789,-471.031,0,0
351546,57.6642,-470.139,0,0
351806,57.5817,-469.304,0,0
352067,57.4527,-468.445,0,0
352327,57.3815,-467.594,0,0
352587,57.2915,-466.761,0,0
352848,57.2762,-465.969,0,0
353108,57.1832,-465.11,0,0
353368,57.0967,-464.411,0,0
353629,56.9952,-463.611,0,0
353889,56.8625,-462.822,0,0
354149,56.787,-461.984,0,0
354410,56.7299,-461.195,0,0
354670,56.6235,-460.416,0,0
354930,56.5708,-459.715,0,0
355191,56.4769,-458.837,0,0
355451,56.4396,-458.031,0,0
355711,56.3674,-457.236,0,0
355972,56.3053,-456.429,0,0
356232,56.2878,-455.632,0,0
356492,56.242,-454.843,0,0
356753,56.2111,-454.059,0,0
357013,56.1906,-453.305,0,0
357273,56.1753,-452.557,0,0
357534,56.1365,-451.759,0,0
357794,56.1148,-451.017,0,0
358054,56.0412,-450.28,0,0
358315,56.0662,-449.503,0,0
358575,56.0796,-448.745,0,0
358835,55.977,-447.965,0,0
359096,55.9888,-447.161,0,0
359356,55.9711,-446.356,0,0
359616,56.0423,-445.588,0,0
359877,56.0849,-444.822,0,0
360137,56.1363,-444.022,0,0
360397,56.1818,-443.271,0,0
360658,56.2553,-442.58,0,0
360918,56.3038,-441.838,0,0
361178,56.3969,-441.173,0,0
361438,56.4073,-440.4,0,0
361699,56.4632,-439.73,0,0
361959,56.4586,-439.073,0,0
362219,56.5437,-438.384,0,0
362480,56.561,-437.669,0,0
362740.1,56.5217,-436.975,0,0
363000.425,56.5905,-436.179,0,0
363260.75,56.5988,-435.451,0,0
363521.075,56.6187,-434.725,0,0
363781.4,56.6697,-433.938,0,0
364041.725,56.7777,-433.175,0,0
364302.05,56.8968,-432.408,0,0
364562.375,56.9572,-431.706,0,0
364822.7,57.0913,-430.939,0,0
365083.025,57.2428,-430.205,0,0
365343.35,57.3864,-429.492,0,0
365603.675,57.4579,-428.787,0,0
365864.0,57.6386,-428.072,0,0
366124.325,57.7561,-427.426,0,0
366384.65,57.8272,-426.798,0,0
366644.975,57.9194,-426.108,0,0
366905.3,57.9759,-425.427,0,0
367165.625,58.0174,-424.691,0,0
367425.95,58.0562,-423.986,0,0
367686.275,58.1079,-423.197,0,0
367946.6,58.1746,-422.39,0,0
368206.925,58.2864,-421.53,0,0
368467.25,58.3926,-420.671,0,0
368727.575,58.6255,-419.839,0,0
368987.9,58.813,-418.881,0,0
369248.225,59.0984,-418.048,0,0
369508.55,59.3641,-417.169,0,0
369768.875,59.6843,-416.338,0,0
370029.2,59.9879,-415.501,0,0
370289.525,60.4102,-414.659,0,0
370549.85,60.8207,-413.8,0,0
370810.175,61.2738,-413.011,0,0
371070.5,61.7597,-412.192,0,0
371330.825,62.2907,-411.396,0,0
371591.15,62.9218,-410.686,0,0
371851.475,63.5445,-409.949,0,0
372111.8,64.154,-409.287,0,0
372372.125,64.8341,-408.659,0,0
372632.45,65.4957,-408.129,0,0
372892.775,66.1956,-407.654,0,0
373153.1,66.8391,-407.181,0,0
373413.425,67.5288,-406.782,0,0
373673.75,68.1721,-406.461,0,0
373934.075,68.8094,-406.12,0,0
374194.4,69.3867,-405.865,0,0
374454.725,70.004,-405.562,0,0
374715.05,70.6236,-405.342,0,0
374975.375,71.1853,-405.123,0,0
375235.7,71.729,-404.932,0,0
375496.025,72.255,-404.707,0,0
375756.35,72.724,-404.554,0,0
376016.675,73.2757,-404.451,0,0
376277.0,73.7304,-404.256,0,0
376537.325,74.22,-404.149,0,0
376797.65,74.7123,-404.029,0,0
377057.975,75.1952,-403.945,0,0
377318.3,75.6982,-403.886,0,0
377578.625,76.1668,-403.901,0,0
377838.95,76.5661,-403.878,0,0
378099.275,76.9724,-403.947,0,0
378359.6,77.3071,-403.969,0,0
378619.925,77.6265,-404.008,0,0
378880,77.895,-404.014,0,0
379141,78.174,-404.111,0,0
379401,78.452,-404.119,0,0
379661,78.6698,-404.082,0,0
379922,78.8797,-404.047,0,0
380182,79.148,-403.986,0,0
380442,79.362,-403.878,0,0
380703,79.7558,-403.845,0,0
380963,80.069,-403.809,0,0
381223,80.494,-403.854,0,0
381483,80.9287,-403.968,0,0
381744,81.3239,-404.073,0,0
382004,81.7265,-404.33,0,0
382264,82.0483,-404.627,0,0
382525,82.3649,-404.978,0,0
382785,82.6123,-405.383,0,0
383045,82.7779,-405.8,0,0
383306,82.8835,-406.284,0,0
383566,82.8726,-406.804,0,0
383826,82.8049,-407.34,0,0
384087,82.6606,-407.81,0,0
384347,82.422,-408.236,0,0
384607,82.0847,-408.646,0,0
384868,81.7315,-408.999,0,0
385128,81.3569,-409.306,0,0
385388,80.9399,-409.55,0,0
385649,80.5153,-409.772,0,0
385909,80.0726,-409.882,0,0
386169,79.5925,-410.078,0,0
386430,79.0693,-410.209,0,0
386690,78.6171,-410.262,0,0
386950,78.0343,-410.311,0,0
387211,77.488,-410.294,0,0
387471,76.9456,-410.289,0,0
387731,76.3568,-410.196,0,0
387992,75.7627,-410.064,0,0
388252,75.2156,-409.816,0,0
388512,74.6819,-409.589,0,0
388773,74.18,-409.302,0,0
389033,73.7303,-408.981,0,0
389293,73.2671,-408.67,0,0
389554,72.8929,-408.359,0,0
389814,72.5346,-408.062,0,0
390074,72.1923,-407.707,0,0
390335,71.8463,-407.446,0,0
390595,71.4825,-407.128,0,0
390855,71.1949,-406.867,0,0
391116,70.8337,-406.552,0,0
391376,70.5341,-406.324,0,0
391636,70.1885,-406.054,0,0
391896,69.8385,-405.855,0,0
392157,69.4919,-405.566,0,0
392417,69.0985,-405.357,0,0
392677,68.6507,-405.091,0,0
392938,68.2046,-404.857,0,0
393198,67.7438,-404.53,0,0
393458,67.2584,-404.235,0,0
393719,66.7382,-403.909,0,0
393979,66.2593,-403.563,0,0
394239,65.7476,-403.089,0,0
394500,65.2231,-402.667,0,0
394760.05,64.7615,-402.163,0,0
395020.375,64.2472,-401.641,0,0
395280.7,63.8372,-401.123,0,0
395541.025,63.4112,-400.55,0,0
395801.35,62.9266,-400.045,0,0
396061.675,62.5167,-399.415,0,0
396322.0,62.0981,-398.811,0,0
396582.325,61.7334,-398.189,0,0
396842.65,61.3829,-397.574,0,0
397102.975,61.0073,-396.882,0,0
397363.3,60.6774,-396.208,0,0
397623.625,60.3674,-395.534,0,0
397883.95,60.0845,-394.819,0,0
398144.275,59.7897,-394.152,0,0
398404.6,59.5134,-393.417,0,0
398664.925,59.3219,-392.697,0,0
398925.25,59.1368,-391.972,0,0
399185.575,58.9644,-391.216,0,0
399445.9,58.8066,-390.551,0,0
399706.225,58.7132,-389.837,0,0
399966.55,58.5684,-389.163,0,0
400006.6,58.5757,-389.032,0,0