File: Accelerated corrosion test data/2025-10-23_18-00-04/sample_4.csv
Frequency (Hz),Impedance (ohms),Phase (Radians),Temperature (C),Humidity (%)
10000.0,263.441,-11933.7,0,0
10260.325,260.535,-11634.3,0,0
10520.65,250.494,-11348.3,0,0
10780.975,244.298,-11076.1,0,0
11041.3,239.812,-10816.3,0,0
11301.625,234.207,-10572,0,0
11561.95,228.934,-10334.7,0,0
11822.275,223.923,-10108.6,0,0
12082.6,219.626,-9892.65,0,0
12342.925,215.314,-9684.52,0,0
12603.25,213.952,-9483.73,0,0
12863.575,207.891,-9296.64,0,0
13123.9,205.549,-9117.16,0,0
13384.225,199.905,-8937.34,0,0
13644.55,196.007,-8765.18,0,0
13904.875,193.232,-8598.83,0,0
14165.2,195.111,-8434.39,0,0
14425.525,200.013,-8291.32,0,0
14685.8,196.228,-8173.04,0,0
14946.175,181.568,-8015.69,0,0
15206.5,180.606,-7870.04,0,0
15466.825,194.828,-7723.67,0,0
15727.15,185.748,-7628.1,0,0
15987.5,185.951,-7510.99,0,0
16247.8,171.036,-7379.23,0,0
16508.125,193.653,-7265.43,0,0
16768.45,181.433,-7151.55,0,0
17028.775,168.2,-7062.09,0,0
17289.1,159.476,-6948.42,0,0
17549.425,158.522,-6844.35,0,0
17809.75,155.529,-6743.12,0,0
18070.075,151.82,-6644.4,0,0
18330.4,153.221,-6549.15,0,0
18590.725,152.063,-6458.37,0,0
18851.05,150.292,-6373.85,0,0
19111.375,144.933,-6284.29,0,0
19371.7,142.363,-6198.31,0,0
19632.025,141.621,-6113.49,0,0
19892.35,144.042,-6033.59,0,0
20152.675,143.156,-5955.76,0,0
20413.0,140.09,-5880.68,0,0
20673.3,140.572,-5806.89,0,0
20933.65,137.084,-5731.92,0,0
21193.975,140.862,-5657.39,0,0
21454.3,152.379,-5591.03,0,0
21714.625,148.447,-5535.43,0,0
21974.9,148.315,-5464.35,0,0
22235.275,147.632,-5419.92,0,0
22495.6,134.896,-5361.1,0,0
22755.925,127.585,-5295.65,0,0
23016.25,124.853,-5233.37,0,0
23276.6,122.517,-5173.14,0,0
23536.9,119.995,-5115.54,0,0
23797.225,118.313,-5057.83,0,0
24057.55,116.705,-5001.97,0,0
24317.875,115.444,-4947.71,0,0
24578.2,114.275,-4894.04,0,0
24838.525,113.198,-4841.31,0,0
25098.85,114.563,-4789.22,0,0
25359.175,112.947,-4741.99,0,0
25619.5,111.474,-4693.27,0,0
25879.8,110.499,-4648.32,0,0
26140.1,107.539,-4599.96,0,0
26400.5,106.728,-4552.54,0,0
26660.8,105.875,-4505.97,0,0
26921.1,106.138,-4462.21,0,0
27181.4,105.78,-4417.24,0,0
27441.8,105.365,-4372.24,0,0
27702.1,109.529,-4327.74,0,0
27962.4,116.071,-4286.92,0,0
28222.7,121.304,-4258.58,0,0
28483.1,112.584,-4223.37,0,0
28743.4,108.618,-4182.67,0,0
29003.7,112.446,-4138.27,0,0
29264,118.927,-4110.43,0,0
29524.4,112.743,-4078.96,0,0
29784.7,108.681,-4048.1,0,0
30045,105.708,-4009.42,0,0
30305.3,101.699,-3975.99,0,0
30565.7,99.0037,-3940.57,0,0
30826,97.9538,-3905.1,0,0
31086.3,97.4047,-3870.95,0,0
31346.6,98.732,-3838.1,0,0
31607,96.6226,-3806.58,0,0
31867.3,97.6134,-3774.12,0,0
32127.6,100.31,-3744.2,0,0
32387.9,98.3519,-3718.63,0,0
32648.3,96.1328,-3688.25,0,0
32908.6,94.4194,-3660.77,0,0
33168.9,91.9025,-3631.69,0,0
33429.2,89.1675,-3602.97,0,0
33689.6,87.8464,-3573.53,0,0
33949.9,86.832,-3544.88,0,0
34210.2,86.9198,-3517.11,0,0
34470.5,85.4399,-3490.99,0,0
34730.9,84.3025,-3463.55,0,0
34991.2,83.7814,-3436.87,0,0
35251.5,83.6391,-3410.72,0,0
35511.8,82.8989,-3385.24,0,0
35772.2,82.1835,-3360.27,0,0
36032.5,81.2473,-3335.52,0,0
36292.8,80.5583,-3310.68,0,0
36553.1,80.0815,-3285.75,0,0
36813.5,79.9453,-3261.92,0,0
37073.8,80.2486,-3238.86,0,0
37334.1,79.133,-3215.97,0,0
37594.4,78.7093,-3192.84,0,0
37854.8,78.457,-3170.32,0,0
38115.1,77.9016,-3148.39,0,0
38375.4,76.8333,-3125.89,0,0
38635.7,76.5,-3103.4,0,0
38896.1,76.8683,-3081.86,0,0
39156.4,76.3788,-3060.93,0,0
39416.7,75.851,-3039.58,0,0
39677,76.0573,-3018.18,0,0
39937.4,76.551,-2996.66,0,0
40197.7,78.9178,-2976.43,0,0
40458,79.8552,-2958.17,0,0
40718.3,79.2628,-2941.22,0,0
40978.7,78.8731,-2921.1,0,0
41239,79.6663,-2902.84,0,0
41499.3,81.1774,-2885.38,0,0
41759.6,78.4909,-2868.87,0,0
42020,77.2366,-2850.8,0,0
42280.275,76.4955,-2831.43,0,0
42540.6,78.3579,-2813.95,0,0
42800.925,77.5749,-2799.07,0,0
43061.25,75.2004,-2781.38,0,0
43321.575,75.2173,-2764.11,0,0
43581.9,74.0981,-2747.86,0,0
43842.225,72.7895,-2729.94,0,0
44102.55,73.4995,-2713.88,0,0
44362.875,71.8413,-2697.02,0,0
44623.2,72.1891,-2680.22,0,0
44883.525,72.038,-2664.94,0,0
45143.85,71.1174,-2648.95,0,0
45404.175,70.2556,-2632.21,0,0
45664.5,71.146,-2615.84,0,0
45924.825,71.4645,-2600.94,0,0
46185.15,71.5486,-2586.54,0,0
46445.475,70.4934,-2571.4,0,0
46705.8,70.7177,-2556.96,0,0
46966.125,70.9936,-2541.73,0,0
47226.45,70.9808,-2527.98,0,0
47486.775,70.5858,-2514.7,0,0
47747.1,69.9061,-2500.66,0,0
48007.425,69.1302,-2486.57,0,0
48267.75,68.6248,-2473.55,0,0
48528.075,67.4681,-2459.43,0,0
48788.4,66.1693,-2445.54,0,0
49048.725,65.7695,-2431.37,0,0
49309.05,65.5396,-2417.49,0,0
49569.375,64.9888,-2404.39,0,0
49829.7,64.3966,-2390.36,0,0
50090.025,64.2724,-2377.08,0,0
50350.35,63.8994,-2363.93,0,0
50610.675,63.7616,-2350.59,0,0
50871.0,63.6227,-2337.39,0,0
51131.325,63.5249,-2324.68,0,0
51391.65,63.2634,-2311.75,0,0
51651.975,63.2525,-2298.87,0,0
51912.3,63.2127,-2286.15,0,0
52172.625,63.6401,-2273.14,0,0
52432.95,63.8367,-2261.21,0,0
52693.275,63.97,-2248.36,0,0
52953.6,64.7288,-2235.64,0,0
53213.925,65.99,-2223.44,0,0
53474.25,67.2113,-2211.43,0,0
53734.575,68.6363,-2199.96,0,0
53994.9,71.0327,-2188.5,0,0
54255.225,73.0474,-2178.67,0,0
54515.55,75.2268,-2170.2,0,0
54775.875,75.3663,-2162.4,0,0
55036.2,74.2599,-2154.05,0,0
55296.525,72.8714,-2144.54,0,0
55556.85,71.651,-2135.42,0,0
55817.175,69.3955,-2125.35,0,0
56077.5,67.9067,-2114.92,0,0
56337.825,66.6077,-2103.88,0,0
56598.15,65.5294,-2092.52,0,0
56858.475,65.0935,-2081.26,0,0
57118.8,65.3673,-2070.05,0,0
57379.125,65.723,-2059.75,0,0
57639.45,65.8194,-2049.53,0,0
57899.775,65.8794,-2039.01,0,0
58160.1,66.2699,-2028.89,0,0
58420.4,67.16,-2018.66,0,0
58680.7,67.4985,-2009.66,0,0
58941.1,66.9855,-1999.33,0,0
59201.4,67.8418,-1988.32,0,0
59461.7,70.2198,-1977.93,0,0
59722,72.7121,-1969.53,0,0
59982.4,74.6923,-1961.5,0,0
60242.7,75.3944,-1954.03,0,0
60503,77.1867,-1945.91,0,0
60763.3,79.9251,-1939.17,0,0
61023.7,80.4348,-1936.02,0,0
61284,78.0778,-1931.19,0,0
61544.3,73.3147,-1924.54,0,0
61804.6,71.2283,-1914.81,0,0
62065,69.8123,-1906.69,0,0
62325.3,68.0785,-1898.52,0,0
62585.6,65.1149,-1889.59,0,0
62845.9,64.3321,-1878.75,0,0
63106.3,64.2861,-1870.37,0,0
63366.6,63.2594,-1860.91,0,0
63626.9,63.4197,-1851.47,0,0
63887.2,63.8717,-1843.43,0,0
64147.6,62.8957,-1834.62,0,0
64407.9,63.296,-1825.5,0,0
64668.2,63.7011,-1817.2,0,0
64928.5,64.019,-1808.86,0,0
65188.9,64.4404,-1801.04,0,0
65449.2,64.3676,-1792.95,0,0
65709.5,64.3952,-1784.39,0,0
65969.8,65.9241,-1775.88,0,0
66230.2,66.9596,-1768.9,0,0
66490.5,67.3646,-1761.84,0,0
66750.8,67.8057,-1754.39,0,0
67011.1,68.4314,-1746.71,0,0
67271.5,69.7581,-1739.47,0,0
67531.8,71.0607,-1733.12,0,0
67792.1,71.9634,-1726.89,0,0
68052.4,72.7753,-1721.11,0,0
68312.8,73.2727,-1715.67,0,0
68573.1,73.4115,-1710.38,0,0
68833.4,73.2396,-1705.81,0,0
69093.7,71.5441,-1701.11,0,0
69354.1,69.1009,-1695.16,0,0
69614.4,66.9818,-1687.99,0,0
69874.7,66.1171,-1680.62,0,0
70135,65.3653,-1673.92,0,0
70395.4,63.9695,-1666.85,0,0
70655.7,63.8225,-1658.77,0,0
70916,64.5098,-1652.29,0,0
71176.3,64.3959,-1646.21,0,0
71436.7,63.9722,-1640.42,0,0
71697,63.0648,-1634.91,0,0
71957.3,61.1977,-1628.7,0,0
72217.6,59.6231,-1621.62,0,0
72478,58.7624,-1614.28,0,0
72738.3,58.1171,-1607.39,0,0
72998.6,57.0403,-1600.07,0,0
73258.9,56.7651,-1592.28,0,0
73519.3,57.1241,-1585.01,0,0
73779.6,57.3443,-1578.34,0,0
74039.9,57.4368,-1571.41,0,0
74300.225,57.6277,-1564.6,0,0
74560.55,58.1164,-1557.85,0,0
74820.875,58.6416,-1551.4,0,0
75081.2,59.2854,-1544.84,0,0
75341.525,60.095,-1539.07,0,0
75601.85,60.2939,-1533.2,0,0
75862.175,60.6371,-1527.15,0,0
76122.5,61.1637,-1521.17,0,0
76382.825,61.7461,-1515.7,0,0
76643.15,61.8635,-1510.05,0,0
76903.475,62.0644,-1504.09,0,0
77163.8,62.9157,-1498.13,0,0
77424.125,64.0445,-1492.88,0,0
77684.45,64.8555,-1487.99,0,0
77944.775,65.4147,-1483.68,0,0
78205.1,65.3302,-1479.3,0,0
78465.425,65.0864,-1474.76,0,0
78725.75,64.5174,-1470.26,0,0
78986.075,63.7551,-1465.44,0,0
79246.4,62.9107,-1460.4,0,0
79506.725,62.1395,-1454.96,0,0
79767.05,61.608,-1449.51,0,0
80027.375,61.1591,-1444.04,0,0
80287.7,60.9189,-1438.58,0,0
80548.025,60.6407,-1433.09,0,0
80808.35,60.626,-1427.75,0,0
81068.675,60.6393,-1422.58,0,0
81329.0,60.5515,-1417.53,0,0
81589.325,60.3794,-1412.53,0,0
81849.65,60.1424,-1407.6,0,0
82109.975,59.902,-1402.56,0,0
82370.3,59.6177,-1397.57,0,0
82630.625,59.3355,-1392.58,0,0
82890.95,59.0947,-1387.66,0,0
83151.275,58.8034,-1382.7,0,0
83411.6,58.4848,-1377.71,0,0
83671.925,58.2779,-1372.68,0,0
83932.25,57.9666,-1367.74,0,0
84192.575,57.8669,-1362.67,0,0
84452.9,57.6015,-1357.81,0,0
84713.225,57.376,-1352.96,0,0
84973.55,57.2136,-1348.08,0,0
85233.875,57.0501,-1343.33,0,0
85494.2,56.7898,-1338.44,0,0
85754.525,56.6043,-1333.67,0,0
86014.85,56.2757,-1328.76,0,0
86275.175,56.2394,-1323.99,0,0
86535.5,56.1374,-1319.27,0,0
86795.825,55.971,-1314.75,0,0
87056.15,55.6998,-1310.01,0,0
87316.475,55.5359,-1305.33,0,0
87576.8,55.3137,-1300.82,0,0
87837.125,55.0149,-1296.29,0,0
88097.45,54.43,-1291.78,0,0
88357.775,53.867,-1286.9,0,0
88618.1,53.6469,-1281.81,0,0
88878.425,53.5907,-1276.97,0,0
89138.75,53.4869,-1272.27,0,0
89399.075,53.2199,-1267.49,0,0
89659.4,53.2167,-1262.7,0,0
89919.725,53.2571,-1258.04,0,0
90180,53.1558,-1253.41,0,0
90440.4,53.093,-1248.79,0,0
90700.7,53.1084,-1244.37,0,0
90961,52.9984,-1239.61,0,0
91221.3,52.9572,-1234.92,0,0
91481.7,53.003,-1230.21,0,0
91742,53.2198,-1225.63,0,0
92002.3,53.4537,-1221.04,0,0
92262.6,53.7809,-1216.63,0,0
92523,53.9959,-1212.3,0,0
92783.3,54.3381,-1208.02,0,0
93043.6,54.6222,-1204,0,0
93303.9,54.7833,-1200.02,0,0
93564.3,54.8559,-1196.05,0,0
93824.6,54.8227,-1192.31,0,0
94084.9,54.33,-1188.48,0,0
94345.2,53.8486,-1184.35,0,0
94605.6,53.3863,-1180.05,0,0
94865.9,52.9962,-1175.6,0,0
95126.2,52.7313,-1171.1,0,0
95386.5,52.5987,-1166.6,0,0
95646.9,52.5157,-1162.03,0,0
95907.2,52.508,-1157.5,0,0
96167.5,52.6589,-1153.01,0,0
96427.8,52.8886,-1148.64,0,0
96688.2,52.981,-1144.41,0,0
96948.5,53.0656,-1140.12,0,0
97208.8,53.1877,-1135.73,0,0
97469.1,53.3032,-1131.37,0,0
97729.5,53.4851,-1127.05,0,0
97989.8,53.7166,-1122.64,0,0
98250.1,54.1096,-1118.31,0,0
98510.4,54.4704,-1114.07,0,0
98770.8,54.7957,-1109.86,0,0
99031.1,55.2035,-1105.62,0,0
99291.4,55.6785,-1101.38,0,0
99551.7,56.2434,-1097.22,0,0
99812.1,56.8163,-1093.13,0,0
100072,57.4605,-1089.03,0,0
100333,58.2301,-1084.96,0,0
100593,59.3098,-1081.19,0,0
100853,60.1899,-1077.88,0,0
101114,60.7234,-1074.56,0,0
101374,61.2829,-1071.29,0,0
101634,61.8994,-1068.35,0,0
101895,61.8504,-1065.84,0,0
102155,61.171,-1063.1,0,0
102415,59.9258,-1059.67,0,0
102676,58.8971,-1055.52,0,0
102936,58.207,-1051.13,0,0
103196,57.6885,-1046.57,0,0
103457,57.3722,-1041.85,0,0
103717,57.4127,-1036.97,0,0
103977,57.6937,-1032.11,0,0
104238,58.1577,-1027.33,0,0
104498,58.8251,-1022.54,0,0
104758,59.6565,-1017.81,0,0
105019,60.7487,-1013.24,0,0
105279,61.9126,-1008.93,0,0
105539,63.0982,-1004.61,0,0
105800,64.4222,-1000.4,0,0
106060,65.7748,-996.356,0,0
106320.175,67.1383,-992.398,0,0
106580.5,68.653,-988.576,0,0
106840.825,70.0967,-984.965,0,0
107101.15,71.4389,-981.469,0,0
107361.475,72.6604,-977.941,0,0
107621.8,73.8444,-974.233,0,0
107882.125,75.3078,-970.442,0,0
108142.45,77.0239,-966.813,0,0
108402.775,78.7183,-963.485,0,0
108663.1,80.4489,-960.225,0,0
108923.425,82.2452,-956.991,0,0
109183.75,84.1819,-953.983,0,0
109444.075,86.0755,-951.364,0,0
109704.4,87.7383,-948.893,0,0
109964.725,89.2969,-946.329,0,0
110225.05,90.8559,-943.863,0,0
110485.375,92.4266,-941.64,0,0
110745.7,93.7432,-939.428,0,0
111006.025,95.0913,-937.367,0,0
111266.35,96.0882,-935.137,0,0
111526.675,97.2445,-933.011,0,0
111787.0,98.4813,-930.722,0,0
112047.325,99.6916,-928.683,0,0
112307.65,100.885,-926.711,0,0
112567.975,101.847,-924.824,0,0
112828.3,102.852,-922.925,0,0
113088.625,103.868,-921.144,0,0
113348.95,104.653,-919.433,0,0
113609.275,105.347,-917.676,0,0
113869.6,106.073,-915.937,0,0
114129.925,106.58,-914.197,0,0
114390.25,107.244,-912.453,0,0
114650.575,107.836,-910.832,0,0
114910.9,108.298,-909.276,0,0
115171.225,108.574,-907.683,0,0
115431.55,108.775,-906.06,0,0
115691.875,108.963,-904.419,0,0
115952.2,109.083,-902.756,0,0
116212.525,109.082,-901.139,0,0
116472.85,109.029,-899.46,0,0
116733.175,108.838,-897.704,0,0
116993.5,108.612,-895.919,0,0
117253.825,108.272,-894.019,0,0
117514.15,107.856,-891.956,0,0
117774.475,107.503,-889.75,0,0
118034.8,107.144,-887.341,0,0
118295.125,107.018,-884.78,0,0
118555.45,106.951,-882.256,0,0
118815.775,107.087,-879.53,0,0
119076.1,107.513,-876.699,0,0
119336.425,108.363,-873.973,0,0
119596.75,109.872,-871.616,0,0
119857.075,111.401,-870.189,0,0
120117.4,112.671,-869.435,0,0
120377.725,113.3,-869.084,0,0
120638.05,113.395,-869.097,0,0
120898.375,112.37,-869.092,0,0
121158.7,110.793,-868.335,0,0
121419.025,109.142,-866.888,0,0
121679.35,107.639,-865.143,0,0
121939.675,106.154,-863.006,0,0
122200.0,104.911,-860.687,0,0
122460,103.798,-858.249,0,0
122721,102.867,-855.752,0,0
122981,102.065,-853.244,0,0
123241,101.302,-850.732,0,0
123502,100.52,-848.23,0,0
123762,99.7541,-845.625,0,0
124022,99.1508,-842.901,0,0
124283,98.6865,-840.228,0,0
124543,98.3338,-837.621,0,0
124803,98.0403,-835.034,0,0
125064,97.8368,-832.59,0,0
125324,97.7027,-830.239,0,0
125584,97.4223,-828.035,0,0
125845,97.1269,-825.884,0,0
126105,96.7686,-823.864,0,0
126365,96.1866,-821.871,0,0
126626,95.597,-819.751,0,0
126886,94.9676,-817.618,0,0
127146,94.2935,-815.517,0,0
127406,93.5588,-813.533,0,0
127667,92.7135,-811.527,0,0
127927,91.7212,-809.634,0,0
128187,90.4027,-807.715,0,0
128448,88.8158,-805.487,0,0
128708,87.1117,-802.987,0,0
128968,85.5194,-800.191,0,0
129229,83.9787,-797.257,0,0
129489,82.4882,-794.079,0,0
129749,81.0959,-790.835,0,0
130010,79.808,-787.459,0,0
130270,78.6504,-783.973,0,0
130530,77.509,-780.427,0,0
130791,76.4417,-776.799,0,0
131051,75.5319,-773.024,0,0
131311,74.8775,-769.262,0,0
131572,74.1654,-765.574,0,0
131832,73.5133,-761.825,0,0
132092,72.9763,-757.997,0,0
132353,72.5469,-754.159,0,0
132613,72.1944,-750.348,0,0
132873,71.9359,-746.502,0,0
133134,71.7116,-742.773,0,0
133394,71.5308,-739.021,0,0
133654,71.3375,-735.161,0,0
133915,71.3023,-731.299,0,0
134175,71.3467,-727.51,0,0
134435,71.4465,-723.752,0,0
134696,71.5023,-720.005,0,0
134956,71.6346,-716.253,0,0
135216,71.8864,-712.368,0,0
135477,72.2083,-708.623,0,0
135737,72.5157,-704.925,0,0
135997,72.9012,-701.235,0,0
136258,73.3315,-697.648,0,0
136518,73.7384,-694.007,0,0
136778,74.2269,-690.426,0,0
137039,74.7311,-686.94,0,0
137299,75.0804,-683.596,0,0
137559,75.2827,-680.066,0,0
137819,75.5252,-676.417,0,0
138080,75.9004,-672.707,0,0
138340.125,76.3214,-668.988,0,0
138600.45,76.7263,-665.252,0,0
138860.775,77.2048,-661.439,0,0
139121.1,77.7812,-657.558,0,0
139381.425,78.4868,-653.746,0,0
139641.75,79.2256,-649.99,0,0
139902.075,79.9271,-646.256,0,0
140162.4,80.6408,-642.396,0,0
140422.725,81.4629,-638.486,0,0
140683.05,82.4027,-634.628,0,0
140943.375,83.4002,-630.755,0,0
141203.7,84.5542,-626.939,0,0
141464.025,85.7184,-623.22,0,0
141724.35,86.869,-619.547,0,0
141984.675,88.0503,-615.916,0,0
142245.0,89.2136,-612.287,0,0
142505.325,90.4074,-608.646,0,0
142765.65,91.5836,-604.987,0,0
143025.975,92.846,-601.316,0,0
143286.3,94.1851,-597.708,0,0
143546.625,95.4676,-594.088,0,0
143806.95,96.7648,-590.454,0,0
144067.275,98.1268,-586.814,0,0
144327.6,99.5184,-583.155,0,0
144587.925,100.921,-579.524,0,0
144848.25,102.368,-575.82,0,0
145108.575,103.879,-572.044,0,0
145368.9,105.481,-568.301,0,0
145629.225,107.115,-564.586,0,0
145889.55,108.816,-560.857,0,0
146149.875,110.592,-557.113,0,0
146410.2,112.43,-553.37,0,0
146670.525,114.385,-549.674,0,0
146930.85,116.363,-546.048,0,0
147191.175,118.302,-542.417,0,0
147451.5,120.337,-538.723,0,0
147711.825,122.455,-535.012,0,0
147972.15,124.688,-531.368,0,0
148232.475,126.918,-527.765,0,0
148492.8,129.169,-524.115,0,0
148753.125,131.517,-520.449,0,0
149013.45,133.97,-516.817,0,0
149273.775,136.39,-513.251,0,0
149534.1,138.772,-509.479,0,0
149794.425,141.415,-505.498,0,0
150054.75,144.447,-501.636,0,0
150315.075,147.567,-497.998,0,0
150575.4,150.72,-494.418,0,0
150835.725,153.905,-490.818,0,0
151096.05,157.304,-487.175,0,0
151356.375,160.904,-483.567,0,0
151616.7,164.792,-480.055,0,0
151877.025,168.829,-476.784,0,0
152137.35,173.033,-473.58,0,0
152397.675,177.558,-470.602,0,0
152658.0,182.202,-468.047,0,0
152918.325,186.779,-465.732,0,0
153178.65,191.477,-463.627,0,0
153438.975,196.266,-461.902,0,0
153699.3,200.927,-460.626,0,0
153959.625,205.302,-459.582,0,0
154219.95,209.572,-458.684,0,0
154480,213.615,-458.064,0,0
154741,217.17,-457.547,0,0
155001,220.437,-456.719,0,0
155261,223.952,-455.659,0,0
155522,227.625,-454.726,0,0
155782,231.371,-454.182,0,0
156042,234.674,-453.748,0,0
156303,237.646,-453.084,0,0
156563,240.936,-452.38,0,0
156823,244.086,-451.673,0,0
157084,247.306,-450.957,0,0
157344,250.574,-450.481,0,0
157604,253.385,-450.115,0,0
157864,256.073,-449.361,0,0
158125,258.827,-448.131,0,0
158385,262.219,-446.949,0,0
158645,265.804,-445.986,0,0
158906,269.587,-444.791,0,0
159166,274.09,-444.126,0,0
159426,278.725,-444.483,0,0
159687,282.61,-445.517,0,0
159947,286.005,-446.246,0,0
160207,289.255,-447.323,0,0
160468,292.402,-448.401,0,0
160728,295.041,-449.635,0,0
160988,297.229,-450.553,0,0
161249,299.686,-451.353,0,0
161509,301.788,-452.35,0,0
161769,303.875,-453.234,0,0
162030,305.757,-454.228,0,0
162290,307.492,-455.148,0,0
162550,308.787,-456.26,0,0
162811,309.633,-456.932,0,0
163071,310.453,-457.1,0,0
163331,311.327,-457.087,0,0
163592,312.024,-457.079,0,0
163852,312.312,-456.374,0,0
164112,312.909,-454.917,0,0
164373,314.111,-453.017,0,0
164633,315.979,-451.161,0,0
164893,317.956,-449.484,0,0
165154,319.943,-447.68,0,0
165414,322.266,-445.414,0,0
165674,325.247,-442.812,0,0
165935,329.216,-440.279,0,0
166195,333.774,-438.186,0,0
166455,338.816,-436.674,0,0
166716,344.27,-435.575,0,0
166976,350.255,-435.101,0,0
167236,356.337,-435.769,0,0
167497,362.061,-436.88,0,0
167757,367.79,-438.381,0,0
168017,373.417,-440.368,0,0
168277,378.958,-442.69,0,0
168538,384.598,-445.365,0,0
168798,390.525,-448.609,0,0
169058,396.493,-453.058,0,0
169319,401.659,-458.598,0,0
169579,405.976,-464.513,0,0
169839,410.073,-470.642,0,0
170100,413.851,-477.857,0,0
170360.075,416.347,-486.028,0,0
170620.4,417.344,-494.545,0,0
170880.725,416.955,-502.745,0,0
171141.05,415.633,-510.384,0,0
171401.375,413.856,-517.721,0,0
171661.7,411.391,-525.085,0,0
171922.025,407.691,-532.377,0,0
172182.35,402.839,-538.917,0,0
172442.675,397.232,-544.564,0,0
172703.0,391.015,-549.165,0,0
172963.325,384.576,-552.86,0,0
173223.65,377.836,-555.821,0,0
173483.975,370.774,-557.82,0,0
173744.3,363.778,-558.711,0,0
174004.625,357.129,-558.911,0,0
174264.95,350.579,-558.587,0,0
174525.275,344.141,-557.485,0,0
174785.6,338.046,-555.942,0,0
175045.925,331.967,-553.799,0,0
175306.25,326.091,-550.899,0,0
175566.575,320.87,-547.231,0,0
175826.9,316.301,-543.272,0,0
176087.225,312.171,-539.108,0,0
176347.55,308.492,-534.598,0,0
176607.875,305.381,-529.945,0,0
176868.2,302.709,-525.168,0,0
177128.525,300.548,-520.396,0,0
177388.85,298.715,-515.697,0,0
177649.175,297.141,-510.968,0,0
177909.5,295.846,-506.223,0,0
178169.825,294.863,-501.376,0,0
178430.15,294.304,-496.556,0,0
178690.475,294.109,-491.864,0,0
178950.8,294.162,-487.328,0,0
179211.125,294.479,-482.903,0,0
179471.45,295.04,-478.611,0,0
179731.775,295.835,-474.663,0,0
179992.1,296.584,-470.902,0,0
180252.425,297.386,-467.305,0,0
180512.75,298.177,-463.771,0,0
180773.075,299.027,-460.326,0,0
181033.4,299.93,-457.015,0,0
181293.725,300.78,-453.818,0,0
181554.05,301.585,-450.668,0,0
181814.375,302.289,-447.538,0,0
182074.7,302.974,-444.435,0,0
182335.025,303.576,-441.333,0,0
182595.35,304.003,-438.143,0,0
182855.675,304.377,-434.78,0,0
183116.0,304.74,-431.206,0,0
183376.325,305.158,-427.403,0,0
183636.65,305.739,-423.495,0,0
183896.975,306.389,-419.431,0,0
184157.3,307.204,-415.184,0,0
184417.625,308.204,-410.88,0,0
184677.95,309.419,-406.511,0,0
184938.275,310.79,-402.133,0,0
185198.6,312.252,-397.772,0,0
185458.925,313.814,-393.482,0,0
185719.25,315.312,-389.142,0,0
185979.575,316.799,-384.643,0,0
186239.9,318.383,-379.91,0,0
186500,320.156,-374.989,0,0
186761,322.113,-370.006,0,0
187021,324.204,-364.801,0,0
187281,326.561,-359.502,0,0
187542,329.063,-354.083,0,0
187802,331.948,-348.576,0,0
188062,334.976,-343.034,0,0
188322,338.296,-337.357,0,0
188583,341.81,-331.735,0,0
188843,345.57,-326.016,0,0
189103,349.575,-320.204,0,0
189364,353.766,-314.296,0,0
189624,358.389,-308.196,0,0
189884,363.321,-302.127,0,0
190145,368.751,-296.074,0,0
190405,374.462,-289.989,0,0
190665,380.506,-284.108,0,0
190926,386.8,-278.108,0,0
191186,393.554,-272.157,0,0
191446,400.765,-266.223,0,0
191707,408.488,-260.47,0,0
191967,416.628,-254.839,0,0
192227,425.205,-249.448,0,0
192488,434.155,-244.395,0,0
192748,443.478,-239.57,0,0
193008,453.245,-235.11,0,0
193269,463.308,-230.968,0,0
193529,473.538,-227.134,0,0
193789,484.056,-223.66,0,0
194050,494.819,-220.518,0,0
194310,505.833,-217.743,0,0
194570,516.838,-214.967,0,0
194831,528.335,-212.462,0,0
195091,540.105,-210.384,0,0
195351,552.099,-208.494,0,0
195612,564.32,-206.771,0,0
195872,577.044,-205.253,0,0
196132,590.21,-204.072,0,0
196393,603.863,-203.293,0,0
196653,618.002,-202.989,0,0
196913,632.607,-203.182,0,0
197174,647.675,-203.991,0,0
197434,663.155,-205.439,0,0
197694,679.02,-207.608,0,0
197955,695.25,-210.415,0,0
198215,711.854,-213.923,0,0
198475,729.064,-218.135,0,0
198735,747.06,-223.439,0,0
198996,765.589,-230.328,0,0
199256,784.189,-238.967,0,0
199516,802.364,-249.21,0,0
199777,820.151,-260.832,0,0
200037,837.211,-273.825,0,0
200297,853.836,-288.124,0,0
200558,869.558,-303.828,0,0
200818,884.211,-320.633,0,0
201078,897.925,-338.604,0,0
201339,910.118,-357.625,0,0
201599,920.789,-377.407,0,0
201859,929.979,-397.236,0,0
202120,938.21,-417.292,0,0
202380.025,945.716,-437.423,0,0
202640.35,951.982,-458.175,0,0
202900.675,957.19,-479.233,0,0
203161.0,961.458,-500.814,0,0
203421.325,964.116,-522.969,0,0
203681.65,964.704,-545.178,0,0
203941.975,963.488,-566.429,0,0
204202.3,961.541,-586.475,0,0
204462.625,959.35,-605.902,0,0
204722.95,956.751,-625.609,0,0
204983.275,952.997,-645.116,0,0
205243.6,948.052,-664.167,0,0
205503.925,942.437,-682.46,0,0
205764.25,936.694,-700.245,0,0
206024.575,930.492,-718.167,0,0
206284.9,923.351,-736.108,0,0
206545.225,914.993,-753.737,0,0
206805.55,905.579,-771.021,0,0
207065.875,895.086,-787.695,0,0
207326.2,883.406,-803.575,0,0
207586.525,870.864,-818.235,0,0
207846.85,857.74,-831.716,0,0
208107.175,844.291,-844.279,0,0
208367.5,830.311,-856.101,0,0
208627.825,815.452,-866.693,0,0
208888.15,800.261,-875.755,0,0
209148.475,785.148,-883.308,0,0
209408.8,770.338,-889.816,0,0
209669.125,755.974,-894.989,0,0
209929.45,742.029,-899.673,0,0
210189.775,728.525,-903.353,0,0
210450.1,715.298,-906.302,0,0
210710.425,702.591,-908.742,0,0
210970.75,690.285,-910.45,0,0
211231.075,678.548,-911.66,0,0
211491.4,667.407,-912.692,0,0
211751.725,656.578,-913.283,0,0
212012.05,646.086,-913.492,0,0
212272.375,636.026,-913.397,0,0
212532.7,626.291,-913.14,0,0
212793.025,616.661,-912.686,0,0
213053.35,607.039,-911.358,0,0
213313.675,598.281,-909.229,0,0
213574.0,590.538,-906.709,0,0
213834.325,583.788,-904.309,0,0
214094.65,577.815,-901.982,0,0
214354.975,572.563,-900.164,0,0
214615.3,567.954,-898.84,0,0
214875.625,563.573,-897.96,0,0
215135.95,559.378,-897.869,0,0
215396.275,554.752,-898.241,0,0
215656.6,549.972,-898.92,0,0
215916.925,544.816,-899.54,0,0
216177.25,539.425,-899.956,0,0
216437.575,533.952,-900.21,0,0
216697.9,528.545,-900.085,0,0
216958.225,523.464,-899.834,0,0
217218.55,518.688,-899.706,0,0
217478.875,513.928,-899.788,0,0
217739.2,509.179,-899.989,0,0
217999.525,504.415,-899.907,0,0
218259.85,499.84,-899.921,0,0
218520,495.374,-900.022,0,0
218780,490.887,-900.418,0,0
219041,486.339,-900.896,0,0
219301,481.626,-901.475,0,0
219561,476.711,-902.019,0,0
219822,471.492,-902.474,0,0
220082,466.235,-902.593,0,0
220342,460.8,-902.59,0,0
220603,455.47,-902.173,0,0
220863,450.353,-901.372,0,0
221123,445.423,-900.664,0,0
221384,440.796,-899.986,0,0
221644,436.113,-899.314,0,0
221904,431.409,-898.687,0,0
222165,426.665,-897.822,0,0
222425,422.086,-896.673,0,0
222685,417.881,-895.356,0,0
222946,414.066,-894.251,0,0
223206,410.339,-893.228,0,0
223466,406.874,-892.469,0,0
223727,403.509,-891.967,0,0
223987,399.95,-891.798,0,0
224247,396.189,-891.733,0,0
224508,392.228,-891.577,0,0
224768,388.346,-891.598,0,0
225028,384.322,-891.673,0,0
225289,380.059,-891.533,0,0
225549,375.591,-891.622,0,0
225809,371.076,-891.589,0,0
226070,366.233,-891.481,0,0
226330,361.414,-891.228,0,0
226590,356.414,-890.983,0,0
226851,351.291,-890.413,0,0
227111,345.971,-889.733,0,0
227371,340.547,-888.754,0,0
227632,335.047,-887.516,0,0
227892,329.555,-885.974,0,0
228152,324.127,-884.165,0,0
228413,318.817,-882.062,0,0
228673,313.65,-879.714,0,0
228933,308.778,-877.162,0,0
229193,303.861,-874.536,0,0
229454,299.166,-871.725,0,0
229714,294.721,-868.689,0,0
229974,290.531,-865.626,0,0
230235,286.428,-862.69,0,0
230495,282.419,-859.597,0,0
230755,278.481,-856.474,0,0
231016,274.685,-853.18,0,0
231276,271.103,-849.792,0,0
231536,267.714,-846.317,0,0
231797,264.639,-842.968,0,0
232057,261.54,-839.647,0,0
232317,258.547,-836.282,0,0
232578,255.685,-832.998,0,0
232838,252.891,-829.674,0,0
233098,250.173,-826.303,0,0
233359,247.488,-822.905,0,0
233619,245.035,-819.387,0,0
233879,242.766,-815.818,0,0
234140,240.796,-812.38,0,0
234400,238.794,-809.097,0,0
234660.3,236.942,-805.827,0,0
234920.625,235.199,-802.701,0,0
235180.95,233.402,-799.627,0,0
235441.275,231.7,-796.645,0,0
235701.6,229.893,-793.62,0,0
235961.925,228.092,-790.584,0,0
236222.25,226.327,-787.418,0,0
236482.575,224.652,-784.18,0,0
236742.9,223.192,-780.88,0,0
237003.225,221.852,-777.573,0,0
237263.55,220.704,-774.292,0,0
237523.875,219.696,-771.098,0,0
237784.2,218.78,-767.977,0,0
238044.525,217.978,-764.94,0,0
238304.85,217.283,-761.956,0,0
238565.175,216.679,-759.088,0,0
238825.5,216.14,-756.293,0,0
239085.825,215.676,-753.663,0,0
239346.15,215.253,-751.042,0,0
239606.475,214.753,-748.594,0,0
239866.8,214.452,-746.226,0,0
240127.125,214.055,-743.784,0,0
240387.45,213.785,-741.538,0,0
240647.775,213.55,-739.28,0,0
240908.1,213.356,-737.158,0,0
241168.425,213.123,-735.223,0,0
241428.75,212.908,-733.421,0,0
241689.075,212.668,-731.656,0,0
241949.4,212.364,-730.021,0,0
242209.725,211.997,-728.433,0,0
242470.05,211.629,-726.883,0,0
242730.375,211.148,-725.493,0,0
242990.7,210.608,-724.122,0,0
243251.025,209.959,-722.788,0,0
243511.35,209.24,-721.474,0,0
243771.675,208.41,-720.146,0,0
244032.0,207.437,-718.784,0,0
244292.325,206.372,-717.397,0,0
244552.65,205.329,-715.903,0,0
244812.975,204.169,-714.254,0,0
245073.3,203.11,-712.674,0,0
245333.625,201.974,-710.935,0,0
245593.95,200.844,-709.121,0,0
245854.275,199.672,-707.315,0,0
246114.6,198.523,-705.409,0,0
246374.925,197.402,-703.377,0,0
246635.25,196.341,-701.328,0,0
246895.575,195.37,-699.214,0,0
247155.9,194.354,-697.012,0,0
247416.225,193.573,-694.764,0,0
247676.55,192.791,-692.489,0,0
247936.875,192.106,-690.225,0,0
248197.2,191.449,-687.93,0,0
248457.525,190.978,-685.598,0,0
248717.85,190.566,-683.267,0,0
248978.175,190.272,-681.059,0,0
249238.5,190.026,-678.898,0,0
249498.825,189.787,-676.87,0,0
249759.15,189.698,-674.801,0,0
250019.475,189.597,-672.888,0,0
250279.8,189.391,-671.122,0,0
250540,189.278,-669.431,0,0
250800,188.974,-667.751,0,0
251061,188.562,-666.175,0,0
251321,188.099,-664.525,0,0
251581,187.537,-662.832,0,0
251842,186.895,-661.149,0,0
252102,186.174,-659.313,0,0
252362,185.51,-657.387,0,0
252623,184.852,-655.358,0,0
252883,184.181,-653.253,0,0
253143,183.595,-651.075,0,0
253404,183.063,-648.907,0,0
253664,182.508,-646.787,0,0
253924,181.836,-644.568,0,0
254185,181.116,-642.271,0,0
254445,180.405,-639.845,0,0
254705,179.587,-637.15,0,0
254966,178.947,-634.421,0,0
255226,178.435,-631.242,0,0
255486,178.078,-628.104,0,0
255747,177.891,-624.844,0,0
256007,177.813,-621.515,0,0
256267,177.929,-618.052,0,0
256528,178.259,-614.496,0,0
256788,178.755,-610.91,0,0
257048,179.48,-607.251,0,0
257309,180.538,-603.554,0,0
257569,181.764,-599.943,0,0
257829,183.178,-596.36,0,0
258090,184.782,-592.789,0,0
258350,186.579,-589.169,0,0
258610,188.698,-585.583,0,0
258871,191.18,-582.092,0,0
259131,193.936,-578.817,0,0
259391,196.892,-575.765,0,0
259651,200.02,-572.971,0,0
259912,203.245,-570.343,0,0
260172,206.635,-568.04,0,0
260432,210.05,-565.804,0,0
260693,213.587,-563.711,0,0
260953,217.253,-561.795,0,0
261213,221.104,-560.027,0,0
261474,225.08,-558.482,0,0
261734,229.191,-557.123,0,0
261994,233.495,-555.966,0,0
262255,238.076,-555.082,0,0
262515,242.881,-554.687,0,0
262775,247.734,-554.855,0,0
263036,252.419,-555.519,0,0
263296,256.97,-556.692,0,0
263556,261.076,-558.209,0,0
263817,264.899,-559.64,0,0
264077,268.506,-561.472,0,0
264337,271.887,-563.322,0,0
264598,275.108,-565.231,0,0
264858,278.254,-567.114,0,0
265118,281.305,-569.059,0,0
265379,284.438,-571.044,0,0
265639,287.634,-573.234,0,0
265899,290.897,-575.664,0,0
266160,294.214,-578.449,0,0
266420,297.41,-581.612,0,0
266680.25,300.422,-585.128,0,0
266940.575,303.231,-589.008,0,0
267200.9,305.785,-593.249,0,0
267461.225,307.944,-597.914,0,0
267721.55,309.591,-602.905,0,0
267981.875,310.645,-608.001,0,0
268242.2,311.313,-613.174,0,0
268502.525,311.341,-618.447,0,0
268762.85,310.799,-623.702,0,0
269023.175,309.6,-628.729,0,0
269283.5,307.93,-633.488,0,0
269543.825,305.804,-637.73,0,0
269804.15,303.583,-641.523,0,0
270064.475,301.022,-644.929,0,0
270324.8,298.518,-648.063,0,0
270585.125,295.969,-650.713,0,0
270845.45,293.601,-653.084,0,0
271105.775,291.392,-655.331,0,0
271366.1,289.369,-657.73,0,0
271626.425,287.165,-660.31,0,0
271886.75,284.643,-662.786,0,0
272147.075,281.886,-664.992,0,0
272407.4,278.983,-666.933,0,0
272667.725,276.097,-668.487,0,0
272928.05,273.409,-669.845,0,0
273188.375,270.904,-671.093,0,0
273448.7,268.559,-672.396,0,0
273709.025,266.304,-673.738,0,0
273969.35,264.045,-675.364,0,0
274229.675,261.581,-677.176,0,0
274490.0,258.742,-679.031,0,0
274750.325,255.679,-680.652,0,0
275010.65,252.476,-682.164,0,0
275270.975,248.946,-683.636,0,0
275531.3,245.152,-684.976,0,0
275791.625,241.105,-686.015,0,0
276051.95,236.797,-686.741,0,0
276312.275,232.282,-687.045,0,0
276572.6,227.667,-686.852,0,0
276832.925,223.129,-686.145,0,0
277093.25,218.638,-685.023,0,0
277353.575,214.278,-683.431,0,0
277613.9,210.125,-681.383,0,0
277874.225,206.301,-678.808,0,0
278134.55,202.997,-675.835,0,0
278394.875,200.301,-672.66,0,0
278655.2,198.145,-669.477,0,0
278915.525,196.505,-666.294,0,0
279175.85,195.446,-663.344,0,0
279436.175,194.765,-660.713,0,0
279696.5,194.28,-658.549,0,0
279956.825,193.822,-656.787,0,0
280217.15,193.126,-655.348,0,0
280477.475,192.248,-653.846,0,0
280737.8,191.374,-652.297,0,0
280998.125,190.461,-650.615,0,0
281258.45,189.707,-648.898,0,0
281518.775,189.138,-647.168,0,0
281779.1,188.744,-645.471,0,0
282039.425,188.497,-643.961,0,0
282299.75,188.265,-642.548,0,0
282560,188.15,-641.234,0,0
282820,188.098,-640.01,0,0
283081,188.111,-638.994,0,0
283341,188.151,-638.116,0,0
283601,188.197,-637.413,0,0
283862,188.229,-636.937,0,0
284122,188.141,-636.656,0,0
284382,187.943,-636.505,0,0
284643,187.501,-636.5,0,0
284903,186.903,-636.56,0,0
285163,185.957,-636.721,0,0
285424,184.76,-636.817,0,0
285684,183.204,-636.773,0,0
285944,181.354,-636.408,0,0
286205,179.39,-635.588,0,0
286465,177.583,-634.341,0,0
286725,176.087,-632.828,0,0
286986,174.853,-631.366,0,0
287246,173.649,-630.004,0,0
287506,172.354,-628.552,0,0
287767,170.978,-626.95,0,0
288027,169.628,-625.074,0,0
288287,168.396,-622.92,0,0
288548,167.428,-620.523,0,0
288808,166.7,-617.932,0,0
289068,166.307,-615.224,0,0
289329,166.279,-612.451,0,0
289589,166.588,-609.68,0,0
289849,167.245,-606.934,0,0
290109,168.327,-604.329,0,0
290370,169.728,-601.877,0,0
290630,171.443,-599.704,0,0
290890,173.445,-597.774,0,0
291151,175.691,-596.253,0,0
291411,178.131,-595.111,0,0
291671,180.605,-594.398,0,0
291932,183.097,-594.071,0,0
292192,185.531,-594.127,0,0
292452,187.902,-594.553,0,0
292713,190.124,-595.326,0,0
292973,192.174,-596.438,0,0
293233,194,-597.814,0,0
293494,195.59,-599.405,0,0
293754,196.974,-601.181,0,0
294014,198.112,-603.19,0,0
294275,198.954,-605.417,0,0
294535,199.518,-607.795,0,0
294795,199.655,-610.295,0,0
295056,199.426,-612.885,0,0
295316,198.695,-615.412,0,0
295576,197.59,-617.792,0,0
295837,196.17,-619.936,0,0
296097,194.52,-621.835,0,0
296357,192.697,-623.497,0,0
296618,190.745,-624.872,0,0
296878,188.705,-626.041,0,0
297138,186.593,-626.951,0,0
297399,184.48,-627.609,0,0
297659,182.451,-628.093,0,0
297919,180.493,-628.429,0,0
298180,178.582,-628.697,0,0
298440,176.691,-628.878,0,0
298700.2,174.816,-628.991,0,0
298960.525,172.973,-629.005,0,0
299220.85,171.14,-628.967,0,0
299481.175,169.335,-628.899,0,0
299741.5,167.489,-628.732,0,0
300001.825,165.677,-628.488,0,0
300262.15,163.863,-628.167,0,0
300522.475,162.082,-627.765,0,0
300782.8,160.325,-627.263,0,0
301043.125,158.659,-626.672,0,0
301303.45,157.07,-626.052,0,0
301563.775,155.516,-625.429,0,0
301824.1,154.022,-624.786,0,0
302084.425,152.533,-624.148,0,0
302344.75,151.035,-623.513,0,0
302605.075,149.548,-622.848,0,0
302865.4,148.05,-622.154,0,0
303125.725,146.499,-621.372,0,0
303386.05,144.993,-620.515,0,0
303646.375,143.512,-619.59,0,0
303906.7,142.102,-618.602,0,0
304167.025,140.735,-617.582,0,0
304427.35,139.459,-616.526,0,0
304687.675,138.208,-615.463,0,0
304948.0,136.979,-614.388,0,0
305208.325,135.762,-613.288,0,0
305468.65,134.603,-612.11,0,0
305728.975,133.485,-610.9,0,0
305989.3,132.403,-609.626,0,0
306249.625,131.425,-608.319,0,0
306509.95,130.55,-607.006,0,0
306770.275,129.76,-605.696,0,0
307030.6,129.045,-604.375,0,0
307290.925,128.437,-603.097,0,0
307551.25,127.901,-601.845,0,0
307811.575,127.497,-600.676,0,0
308071.9,127.12,-599.6,0,0
308332.225,126.785,-598.63,0,0
308592.55,126.419,-597.773,0,0
308852.875,125.989,-596.985,0,0
309113.2,125.526,-596.257,0,0
309373.525,124.988,-595.57,0,0
309633.85,124.405,-594.846,0,0
309894.175,123.736,-594.131,0,0
310154.5,123.046,-593.361,0,0
310414.825,122.37,-592.537,0,0
310675.15,121.664,-591.71,0,0
310935.475,120.983,-590.787,0,0
311195.8,120.305,-589.888,0,0
311456.125,119.645,-588.919,0,0
311716.45,119.048,-587.934,0,0
311976.775,118.488,-586.952,0,0
312237.1,117.962,-585.944,0,0
312497.425,117.491,-584.939,0,0
312757.75,117.024,-583.895,0,0
313018.075,116.67,-582.905,0,0
313278.4,116.354,-581.926,0,0
313538.725,116.095,-581.006,0,0
313799.05,115.842,-580.162,0,0
314059.375,115.557,-579.376,0,0
314319.7,115.263,-578.625,0,0
314580,114.915,-577.843,0,0
314840,114.664,-577.153,0,0
315101,114.36,-576.335,0,0
315361,114.068,-575.599,0,0
315621,113.754,-574.936,0,0
315882,113.56,-574.159,0,0
316142,113.287,-573.517,0,0
316402,113.035,-572.847,0,0
316663,112.795,-572.283,0,0
316923,112.609,-571.697,0,0
317183,112.38,-571.059,0,0
317444,112.238,-570.556,0,0
317704,111.909,-570.047,0,0
317964,111.68,-569.544,0,0
318225,111.54,-569.093,0,0
318485,111.257,-568.667,0,0
318745,111.076,-568.433,0,0
319006,110.731,-568.154,0,0
319266,110.489,-567.94,0,0
319526,110.014,-567.916,0,0
319787,109.577,-567.713,0,0
320047,108.965,-567.656,0,0
320307,108.353,-567.617,0,0
320567,107.705,-567.433,0,0
320828,106.847,-567.372,0,0
321088,106.049,-567.332,0,0
321348,105.036,-567.074,0,0
321609,103.971,-566.882,0,0
321869,102.791,-566.692,0,0
322129,101.621,-566.306,0,0
322390,100.3,-565.955,0,0
322650,98.9835,-565.385,0,0
322910,97.6016,-564.739,0,0
323171,96.2341,-563.893,0,0
323431,94.8925,-562.919,0,0
323691,93.6699,-561.892,0,0
323952,92.4124,-560.735,0,0
324212,91.3803,-559.518,0,0
324472,90.36,-558.324,0,0
324733,89.3704,-557.13,0,0
324993,88.4846,-555.829,0,0
325253,87.5836,-554.496,0,0
325514,86.7675,-553.201,0,0
325774,86.0439,-551.928,0,0
326034,85.3399,-550.595,0,0
326295,84.664,-549.313,0,0
326555,84.0762,-547.96,0,0
326815,83.4102,-546.673,0,0
327076,82.9146,-545.336,0,0
327336,82.3568,-544.015,0,0
327596,81.8396,-542.763,0,0
327857,81.2916,-541.461,0,0
328117,80.8013,-540.138,0,0
328377,80.3685,-538.79,0,0
328638,79.8334,-537.342,0,0
328898,79.3996,-535.819,0,0
329158,79.0628,-534.287,0,0
329419,78.8254,-532.776,0,0
329679,78.7905,-531.312,0,0
329939,78.6647,-529.81,0,0
330200,78.7152,-528.321,0,0
330460,78.7602,-526.957,0,0
330720.15,78.8636,-525.64,0,0
330980.475,79.1583,-524.318,0,0
331240.8,79.412,-523.115,0,0
331501.125,79.7594,-521.98,0,0
331761.45,80.1689,-520.956,0,0
332021.775,80.4934,-520.062,0,0
332282.1,80.8245,-519.251,0,0
332542.425,81.1322,-518.556,0,0
332802.75,81.3585,-517.922,0,0
333063.075,81.4991,-517.357,0,0
333323.4,81.575,-516.786,0,0
333583.725,81.5744,-516.21,0,0
333844.05,81.5205,-515.713,0,0
334104.375,81.3457,-515.161,0,0
334364.7,81.2045,-514.619,0,0
334625.025,80.8827,-514.058,0,0
334885.35,80.6249,-513.512,0,0
335145.675,80.268,-512.834,0,0
335406.0,79.9048,-512.041,0,0
335666.325,79.582,-511.3,0,0
335926.65,79.123,-510.525,0,0
336186.975,78.8345,-509.663,0,0
336447.3,78.4545,-508.778,0,0
336707.625,78.0649,-507.846,0,0
336967.95,77.7262,-506.943,0,0
337228.275,77.4465,-506.014,0,0
337488.6,77.0485,-504.959,0,0
337748.925,76.7303,-503.934,0,0
338009.25,76.3557,-502.801,0,0
338269.575,76.094,-501.706,0,0
338529.9,75.7907,-500.468,0,0
338790.225,75.5408,-499.204,0,0
339050.55,75.3809,-497.92,0,0
339310.875,75.3279,-496.503,0,0
339571.2,75.4061,-495.162,0,0
339831.525,75.4045,-493.798,0,0
340091.85,75.5703,-492.485,0,0
340352.175,75.7935,-491.116,0,0
340612.5,76.0972,-489.79,0,0
340872.825,76.5167,-488.496,0,0
341133.15,76.9722,-487.213,0,0
341393.475,77.4953,-486.021,0,0
341653.8,78.0792,-484.833,0,0
341914.125,78.7457,-483.711,0,0
342174.45,79.5468,-482.683,0,0
342434.775,80.3588,-481.765,0,0
342695.1,81.2236,-480.992,0,0
342955.425,81.9956,-480.273,0,0
343215.75,82.9027,-479.692,0,0
343476.075,83.687,-479.134,0,0
343736.4,84.4131,-478.74,0,0
343996.725,85.2098,-478.372,0,0
344257.05,85.9332,-478.174,0,0
344517.375,86.5333,-477.971,0,0
344777.7,87.1003,-477.882,0,0
345038.025,87.6705,-477.756,0,0
345298.35,88.1006,-477.723,0,0
345558.675,88.4975,-477.706,0,0
345819.0,88.8215,-477.681,0,0
346079.325,89.0872,-477.743,0,0
346339.65,89.3011,-477.809,0,0
346599.975,89.3536,-477.793,0,0
346860,89.4441,-477.883,0,0
347121,89.3797,-477.88,0,0
347381,89.3671,-477.884,0,0
347641,89.2592,-477.844,0,0
347902,89.1195,-477.778,0,0
348162,88.974,-477.681,0,0
348422,88.7791,-477.575,0,0
348683,88.5848,-477.452,0,0
348943,88.4222,-477.283,0,0
349203,88.1299,-477.175,0,0
349464,87.8218,-477.026,0,0
349724,87.5053,-476.864,0,0
349984,87.0939,-476.586,0,0
350245,86.6755,-476.337,0,0
350505,86.256,-475.993,0,0
350765,85.8665,-475.611,0,0
351025,85.3692,-475.25,0,0
351286,84.9409,-474.735,0,0
351546,84.4651,-474.269,0,0
351806,84.0328,-473.695,0,0
352067,83.7367,-473.008,0,0
352327,83.3042,-472.359,0,0
352587,83.0233,-471.657,0,0
352848,82.787,-470.969,0,0
353108,82.6671,-470.241,0,0
353368,82.5061,-469.556,0,0
353629,82.342,-468.956,0,0
353889,82.1559,-468.303,0,0
354149,82.0238,-467.701,0,0
354410,81.9237,-467.111,0,0
354670,81.7412,-466.569,0,0
354930,81.5935,-465.936,0,0
355191,81.4661,-465.246,0,0
355451,81.2952,-464.639,0,0
355711,81.105,-463.995,0,0
355972,80.9813,-463.311,0,0
356232,80.9899,-462.608,0,0
356492,80.9229,-461.994,0,0
356753,80.8936,-461.322,0,0
357013,80.9294,-460.736,0,0
357273,80.8652,-460.171,0,0
357534,80.865,-459.653,0,0
357794,80.8445,-459.218,0,0
358054,80.7444,-458.677,0,0
358315,80.6034,-458.216,0,0
358575,80.3982,-457.741,0,0
358835,80.2342,-457.232,0,0
359096,80.0013,-456.639,0,0
359356,79.7664,-456.101,0,0
359616,79.5743,-455.458,0,0
359877,79.2798,-454.757,0,0
360137,79.0992,-454.053,0,0
360397,78.8952,-453.286,0,0
360658,78.7331,-452.492,0,0
360918,78.6505,-451.725,0,0
361178,78.5253,-450.898,0,0
361438,78.5364,-450.116,0,0
361699,78.5128,-449.4,0,0
361959,78.4886,-448.604,0,0
362219,78.4865,-447.91,0,0
362480,78.4754,-447.146,0,0
362740.1,78.4552,-446.39,0,0
363000.425,78.478,-445.613,0,0
363260.75,78.4868,-444.896,0,0
363521.075,78.5299,-444.128,0,0
363781.4,78.5829,-443.363,0,0
364041.725,78.6604,-442.61,0,0
364302.05,78.7088,-441.878,0,0
364562.375,78.7874,-441.123,0,0
364822.7,78.8603,-440.377,0,0
365083.025,78.9659,-439.587,0,0
365343.35,79.0426,-438.832,0,0
365603.675,79.1229,-438.063,0,0
365864.0,79.2481,-437.277,0,0
366124.325,79.3487,-436.432,0,0
366384.65,79.3667,-435.646,0,0
366644.975,79.5197,-434.728,0,0
366905.3,79.6534,-433.812,0,0
367165.625,79.8763,-432.912,0,0
367425.95,80.077,-431.91,0,0
367686.275,80.3898,-430.934,0,0
367946.6,80.7858,-429.947,0,0
368206.925,81.1664,-428.957,0,0
368467.25,81.6571,-428.111,0,0
368727.575,82.1839,-427.159,0,0
368987.9,82.7348,-426.278,0,0
369248.225,83.3496,-425.326,0,0
369508.55,83.995,-424.401,0,0
369768.875,84.7987,-423.491,0,0
370029.2,85.6309,-422.631,0,0
370289.525,86.5633,-421.824,0,0
370549.85,87.5942,-421.105,0,0
370810.175,88.7095,-420.436,0,0
371070.5,89.8779,-419.921,0,0
371330.825,91.114,-419.475,0,0
371591.15,92.3781,-419.192,0,0
371851.475,93.6316,-419.111,0,0
372111.8,94.8681,-419.13,0,0
372372.125,96.0441,-419.275,0,0
372632.45,97.1677,-419.586,0,0
372892.775,98.1714,-420.012,0,0
373153.1,99.0986,-420.52,0,0
373413.425,99.927,-421.078,0,0
373673.75,100.592,-421.729,0,0
373934.075,101.122,-422.4,0,0
374194.4,101.537,-423.073,0,0
374454.725,101.9,-423.694,0,0
374715.05,102.097,-424.337,0,0
374975.375,102.217,-424.924,0,0
375235.7,102.318,-425.514,0,0
375496.025,102.326,-425.984,0,0
375756.35,102.303,-426.44,0,0
376016.675,102.293,-426.848,0,0
376277.0,102.218,-427.281,0,0
376537.325,102.014,-427.647,0,0
376797.65,101.813,-427.98,0,0
377057.975,101.613,-428.239,0,0
377318.3,101.41,-428.44,0,0
377578.625,101.212,-428.582,0,0
377838.95,101.047,-428.7,0,0
378099.275,100.847,-428.77,0,0
378359.6,100.749,-428.834,0,0
378619.925,100.716,-428.942,0,0
378880,100.627,-429.032,0,0
379141,100.511,-429.21,0,0
379401,100.362,-429.454,0,0
379661,100.181,-429.611,0,0
379922,99.9809,-429.764,0,0
380182,99.7408,-429.921,0,0
380442,99.4383,-430.053,0,0
380703,99.082,-430.008,0,0
380963,98.8456,-429.96,0,0
381223,98.6605,-429.904,0,0
381483,98.4509,-429.842,0,0
381744,98.435,-429.788,0,0
382004,98.3995,-429.716,0,0
382264,98.3053,-429.765,0,0
382525,98.2961,-429.808,0,0
382785,98.2435,-429.998,0,0
383045,98.239,-430.11,0,0
383306,98.2247,-430.376,0,0
383566,98.1617,-430.616,0,0
383826,98.0879,-430.95,0,0
384087,98.0479,-431.455,0,0
384347,97.8264,-432.01,0,0
384607,97.5256,-432.523,0,0
384868,97.0268,-433.232,0,0
385128,96.415,-433.796,0,0
385388,95.6214,-434.291,0,0
385649,94.6767,-434.803,0,0
385909,93.6919,-435.108,0,0
386169,92.607,-435.367,0,0
386430,91.4811,-435.455,0,0
386690,90.332,-435.4,0,0
386950,89.119,-435.172,0,0
387211,87.9704,-434.853,0,0
387471,86.9196,-434.357,0,0
387731,85.9053,-433.755,0,0
387992,85.0016,-433.083,0,0
388252,84.1952,-432.297,0,0
388512,83.5025,-431.533,0,0
388773,82.9384,-430.728,0,0
389033,82.4817,-429.869,0,0
389293,82.1566,-429.079,0,0
389554,81.9121,-428.302,0,0
389814,81.8193,-427.589,0,0
390074,81.7646,-427.017,0,0
390335,81.703,-426.568,0,0
390595,81.6764,-426.2,0,0
390855,81.6885,-425.888,0,0
391116,81.6555,-425.73,0,0
391376,81.5171,-425.67,0,0
391636,81.3048,-425.624,0,0
391896,80.9825,-425.625,0,0
392157,80.5507,-425.661,0,0
392417,80.0885,-425.636,0,0
392677,79.5344,-425.634,0,0
392938,78.9438,-425.53,0,0
393198,78.3096,-425.476,0,0
393458,77.5805,-425.335,0,0
393719,76.7923,-425.115,0,0
393979,75.9654,-424.845,0,0
394239,75.1466,-424.486,0,0
394500,74.3048,-424.13,0,0
394760.05,73.5235,-423.679,0,0
395020.375,72.6547,-423.142,0,0
395280.7,71.8929,-422.556,0,0
395541.025,71.0949,-421.936,0,0
395801.35,70.3569,-421.289,0,0
396061.675,69.5756,-420.61,0,0
396322.0,68.8402,-419.89,0,0
396582.325,68.1826,-419.094,0,0
396842.65,67.4469,-418.302,0,0
397102.975,66.8097,-417.467,0,0
397363.3,66.1838,-416.602,0,0
397623.625,65.5869,-415.737,0,0
397883.95,64.9824,-414.79,0,0
398144.275,64.4575,-413.848,0,0
398404.6,63.9367,-412.875,0,0
398664.925,63.4789,-411.891,0,0
398925.25,63.0536,-410.857,0,0
399185.575,62.608,-409.829,0,0
399445.9,62.2754,-408.762,0,0
399706.225,61.9655,-407.747,0,0
399966.55,61.6272,-406.656,0,0
400006.6,61.6193,-406.492,0,0