File: Accelerated corrosion test data/2025-10-23_18-00-04/sample_8.csv
Frequency (Hz),Impedance (ohms),Phase (Radians),Temperature (C),Humidity (%)
10000.0,301.999,-10990.8,0,0
10260.325,294.41,-10715.2,0,0
10520.65,287.116,-10453.1,0,0
10780.975,280.219,-10203.6,0,0
11041.3,274.219,-9965.55,0,0
11301.625,267.901,-9739.62,0,0
11561.95,262.404,-9522.41,0,0
11822.275,256.63,-9314.48,0,0
12082.6,255.286,-9114.37,0,0
12342.925,251.885,-8928.19,0,0
12603.25,247.131,-8746.49,0,0
12863.575,243.891,-8575.86,0,0
13123.9,235.388,-8410.39,0,0
13384.225,229.604,-8248.18,0,0
13644.55,226.486,-8093.83,0,0
13904.875,219.224,-7943.53,0,0
14165.2,214.078,-7798.07,0,0
14425.525,209.715,-7659.57,0,0
14685.8,206.566,-7524.59,0,0
14946.175,202.726,-7394.05,0,0
15206.5,199.793,-7268.82,0,0
15466.825,196.441,-7148.1,0,0
15727.15,193.371,-7030.93,0,0
15987.5,190.266,-6917.22,0,0
16247.8,187.171,-6807.85,0,0
16508.125,184.35,-6701.2,0,0
16768.45,181.111,-6597.94,0,0
17028.775,178.555,-6497.92,0,0
17289.1,175.848,-6400.48,0,0
17549.425,173.172,-6305.71,0,0
17809.75,171.704,-6213.82,0,0
18070.075,169.275,-6126.15,0,0
18330.4,166.514,-6038.09,0,0
18590.725,164.768,-5952.59,0,0
18851.05,165.968,-5869.83,0,0
19111.375,164.274,-5790.35,0,0
19371.7,166.001,-5715.85,0,0
19632.025,163.466,-5641.96,0,0
19892.35,159.682,-5570.83,0,0
20152.675,157.732,-5497.71,0,0
20413.0,157.87,-5428.09,0,0
20673.3,158.4,-5361.76,0,0
20933.65,154.355,-5299.25,0,0
21193.975,150.068,-5234.86,0,0
21454.3,148.188,-5170.58,0,0
21714.625,146.152,-5107.7,0,0
21974.9,145.404,-5047.85,0,0
22235.275,145.503,-4989.32,0,0
22495.6,144.725,-4932.64,0,0
22755.925,142.769,-4878.45,0,0
23016.25,141.072,-4824.76,0,0
23276.6,136.796,-4771.61,0,0
23536.9,135.061,-4718.68,0,0
23797.225,132.983,-4667.06,0,0
24057.55,130.806,-4616.48,0,0
24317.875,129.294,-4566.84,0,0
24578.2,127.594,-4518.48,0,0
24838.525,126.381,-4470.5,0,0
25098.85,125.016,-4424.1,0,0
25359.175,123.447,-4378.15,0,0
25619.5,122.892,-4333.54,0,0
25879.8,122.043,-4289.02,0,0
26140.1,121.448,-4247.44,0,0
26400.5,119.525,-4205.49,0,0
26660.8,117.959,-4163.48,0,0
26921.1,118.397,-4122.26,0,0
27181.4,118.546,-4083.25,0,0
27441.8,117.177,-4043.95,0,0
27702.1,116.167,-4006.95,0,0
27962.4,114.344,-3969.23,0,0
28222.7,115.45,-3932.28,0,0
28483.1,114.206,-3896.54,0,0
28743.4,113.862,-3860.86,0,0
29003.7,112.809,-3826.97,0,0
29264,112.643,-3792.73,0,0
29524.4,111.725,-3759.43,0,0
29784.7,111.353,-3726.21,0,0
30045,110.639,-3694.45,0,0
30305.3,109.978,-3663.48,0,0
30565.7,108.861,-3632.26,0,0
30826,107.664,-3601.57,0,0
31086.3,106.178,-3570.85,0,0
31346.6,105.793,-3540.35,0,0
31607,105.144,-3510.97,0,0
31867.3,104.367,-3481.64,0,0
32127.6,103.83,-3452.89,0,0
32387.9,103.69,-3424.42,0,0
32648.3,103.4,-3396.23,0,0
32908.6,103.772,-3369.2,0,0
33168.9,103.305,-3342,0,0
33429.2,103.848,-3315.56,0,0
33689.6,104.252,-3289.95,0,0
33949.9,104.488,-3264.73,0,0
34210.2,104.729,-3239.77,0,0
34470.5,105.102,-3215.38,0,0
34730.9,105.606,-3191.02,0,0
34991.2,106.529,-3167.4,0,0
35251.5,107.622,-3144.77,0,0
35511.8,108.33,-3123.1,0,0
35772.2,108.468,-3101.62,0,0
36032.5,108.716,-3081.18,0,0
36292.8,108.661,-3060.47,0,0
36553.1,107.954,-3040.84,0,0
36813.5,106.4,-3020.95,0,0
37073.8,106.294,-3001.16,0,0
37334.1,104.637,-2982.16,0,0
37594.4,102.198,-2962.97,0,0
37854.8,100.38,-2943.02,0,0
38115.1,98.1666,-2923.84,0,0
38375.4,95.9649,-2904.1,0,0
38635.7,93.9484,-2884.61,0,0
38896.1,91.873,-2864.87,0,0
39156.4,90.2747,-2845.02,0,0
39416.7,88.9877,-2825.62,0,0
39677,87.6134,-2806.29,0,0
39937.4,86.4143,-2787.27,0,0
40197.7,85.799,-2767.81,0,0
40458,85.9206,-2749.06,0,0
40718.3,85.4595,-2731.87,0,0
40978.7,84.4132,-2714.01,0,0
41239,83.7659,-2696.48,0,0
41499.3,83.0995,-2679.17,0,0
41759.6,82.8853,-2662.43,0,0
42020,81.9993,-2645.32,0,0
42280.275,80.9109,-2628.4,0,0
42540.6,80.8881,-2611.34,0,0
42800.925,80.6852,-2594.99,0,0
43061.25,81.1001,-2578.81,0,0
43321.575,80.9918,-2563.65,0,0
43581.9,80.9058,-2548.66,0,0
43842.225,80.0124,-2534,0,0
44102.55,78.5499,-2519.02,0,0
44362.875,77.7516,-2503.74,0,0
44623.2,77.2336,-2488.63,0,0
44883.525,76.3876,-2473.83,0,0
45143.85,75.8221,-2459.27,0,0
45404.175,75.3939,-2444.62,0,0
45664.5,74.7338,-2430.22,0,0
45924.825,74.3017,-2416.03,0,0
46185.15,73.6593,-2401.94,0,0
46445.475,73.0759,-2388.03,0,0
46705.8,72.6843,-2374.1,0,0
46966.125,72.3359,-2360.44,0,0
47226.45,72.0648,-2347.04,0,0
47486.775,71.4916,-2333.63,0,0
47747.1,71.2616,-2320.54,0,0
48007.425,70.9229,-2307.53,0,0
48267.75,70.5337,-2294.52,0,0
48528.075,70.2053,-2281.99,0,0
48788.4,69.5927,-2269.43,0,0
49048.725,69.2602,-2256.8,0,0
49309.05,68.8708,-2244.46,0,0
49569.375,68.4716,-2232.08,0,0
49829.7,67.985,-2219.9,0,0
50090.025,67.6536,-2207.72,0,0
50350.35,67.4519,-2195.8,0,0
50610.675,67.1776,-2183.87,0,0
50871.0,66.8547,-2172.17,0,0
51131.325,66.6346,-2160.65,0,0
51391.65,66.4065,-2149.01,0,0
51651.975,66.4047,-2137.58,0,0
51912.3,66.3168,-2126.39,0,0
52172.625,66.0532,-2115.4,0,0
52432.95,65.92,-2104.38,0,0
52693.275,65.9918,-2093.33,0,0
52953.6,66.1231,-2082.79,0,0
53213.925,66.2595,-2072.34,0,0
53474.25,66.3941,-2062.06,0,0
53734.575,66.5205,-2052.57,0,0
53994.9,65.5276,-2042.93,0,0
54255.225,64.986,-2032.59,0,0
54515.55,64.582,-2022.78,0,0
54775.875,64.0141,-2012.72,0,0
55036.2,63.4359,-2003.02,0,0
55296.525,62.6615,-1993.08,0,0
55556.85,62.0768,-1983.28,0,0
55817.175,61.4857,-1973.34,0,0
56077.5,60.9824,-1963.49,0,0
56337.825,60.5467,-1953.67,0,0
56598.15,60.2968,-1943.97,0,0
56858.475,60.0366,-1934.34,0,0
57118.8,59.8029,-1924.9,0,0
57379.125,59.6608,-1915.43,0,0
57639.45,59.5459,-1906.18,0,0
57899.775,59.3267,-1896.98,0,0
58160.1,59.2014,-1887.82,0,0
58420.4,58.9997,-1878.9,0,0
58680.7,58.9054,-1870.05,0,0
58941.1,58.7955,-1861.11,0,0
59201.4,58.5137,-1852.59,0,0
59461.7,58.3104,-1843.98,0,0
59722,57.9873,-1835.31,0,0
59982.4,57.5995,-1826.7,0,0
60242.7,57.4553,-1818.05,0,0
60503,57.2226,-1809.5,0,0
60763.3,57.1504,-1801.03,0,0
61023.7,57.1636,-1792.68,0,0
61284,57.2397,-1784.36,0,0
61544.3,57.1479,-1776.3,0,0
61804.6,56.8939,-1768.34,0,0
62065,56.6441,-1760.12,0,0
62325.3,56.7631,-1751.97,0,0
62585.6,56.8766,-1743.92,0,0
62845.9,56.9646,-1736.06,0,0
63106.3,57.2839,-1728.44,0,0
63366.6,57.4669,-1721.04,0,0
63626.9,57.3952,-1713.54,0,0
63887.2,57.3921,-1706.23,0,0
64147.6,57.3519,-1699.05,0,0
64407.9,57.2845,-1691.73,0,0
64668.2,57.0024,-1684.5,0,0
64928.5,57.0235,-1677.42,0,0
65188.9,56.8521,-1670.31,0,0
65449.2,56.4843,-1663.25,0,0
65709.5,56.5122,-1656.04,0,0
65969.8,56.3808,-1649.35,0,0
66230.2,56.0616,-1642.49,0,0
66490.5,55.6052,-1635.66,0,0
66750.8,55.1473,-1628.66,0,0
67011.1,54.8469,-1621.59,0,0
67271.5,54.7865,-1614.7,0,0
67531.8,54.5052,-1607.83,0,0
67792.1,54.2898,-1601.02,0,0
68052.4,54.1969,-1594.23,0,0
68312.8,53.8014,-1587.5,0,0
68573.1,53.5941,-1580.71,0,0
68833.4,53.4222,-1573.92,0,0
69093.7,53.4618,-1567.16,0,0
69354.1,53.4277,-1560.54,0,0
69614.4,53.4839,-1553.95,0,0
69874.7,53.5071,-1547.52,0,0
70135,53.6046,-1541.31,0,0
70395.4,53.522,-1534.98,0,0
70655.7,53.5267,-1528.77,0,0
70916,53.4467,-1522.44,0,0
71176.3,53.5223,-1516.32,0,0
71436.7,53.6645,-1510.23,0,0
71697,53.7164,-1504.42,0,0
71957.3,53.435,-1498.47,0,0
72217.6,53.3413,-1492.54,0,0
72478,53.1672,-1486.68,0,0
72738.3,52.9163,-1480.77,0,0
72998.6,52.5752,-1474.95,0,0
73258.9,52.4642,-1468.86,0,0
73519.3,52.5275,-1462.97,0,0
73779.6,52.3407,-1457.28,0,0
74039.9,52.1715,-1451.51,0,0
74300.225,51.9812,-1445.83,0,0
74560.55,51.8593,-1440.06,0,0
74820.875,51.7101,-1434.24,0,0
75081.2,51.6522,-1428.64,0,0
75341.525,51.5333,-1422.92,0,0
75601.85,51.3987,-1417.26,0,0
75862.175,51.3599,-1411.65,0,0
76122.5,51.3817,-1406.04,0,0
76382.825,51.4194,-1400.6,0,0
76643.15,51.3992,-1395.23,0,0
76903.475,51.2412,-1389.86,0,0
77163.8,51.1361,-1384.54,0,0
77424.125,51.0286,-1379.23,0,0
77684.45,50.8904,-1373.83,0,0
77944.775,50.8181,-1368.62,0,0
78205.1,50.6458,-1363.35,0,0
78465.425,50.4354,-1358.03,0,0
78725.75,50.3007,-1352.7,0,0
78986.075,50.2045,-1347.42,0,0
79246.4,50.0835,-1342.24,0,0
79506.725,49.9231,-1336.93,0,0
79767.05,49.8272,-1331.68,0,0
80027.375,49.7566,-1326.42,0,0
80287.7,49.7021,-1321.25,0,0
80548.025,49.6613,-1315.98,0,0
80808.35,49.6268,-1310.79,0,0
81068.675,49.7151,-1305.56,0,0
81329.0,49.8433,-1300.41,0,0
81589.325,49.9752,-1295.39,0,0
81849.65,50.1145,-1290.31,0,0
82109.975,50.245,-1285.38,0,0
82370.3,50.3051,-1280.44,0,0
82630.625,50.51,-1275.35,0,0
82890.95,50.8704,-1270.44,0,0
83151.275,51.0846,-1265.77,0,0
83411.6,51.1989,-1261.03,0,0
83671.925,51.4836,-1256.18,0,0
83932.25,51.9315,-1251.62,0,0
84192.575,52.1641,-1247.28,0,0
84452.9,52.3127,-1242.98,0,0
84713.225,52.2504,-1238.92,0,0
84973.55,51.7607,-1234.57,0,0
85233.875,51.42,-1229.82,0,0
85494.2,51.2898,-1224.96,0,0
85754.525,51.1638,-1220.23,0,0
86014.85,51.1427,-1215.44,0,0
86275.175,51.1689,-1210.73,0,0
86535.5,51.2672,-1205.98,0,0
86795.825,51.456,-1201.31,0,0
87056.15,51.6801,-1196.76,0,0
87316.475,51.8257,-1192.27,0,0
87576.8,51.8751,-1187.75,0,0
87837.125,52.0038,-1183.18,0,0
88097.45,52.2034,-1178.72,0,0
88357.775,52.2218,-1174.19,0,0
88618.1,52.415,-1169.6,0,0
88878.425,52.5475,-1165.18,0,0
89138.75,52.6202,-1160.48,0,0
89399.075,52.8276,-1155.82,0,0
89659.4,53.1894,-1151.18,0,0
89919.725,53.6219,-1146.53,0,0
90180,54.0933,-1141.89,0,0
90440.4,54.7969,-1137.45,0,0
90700.7,55.4691,-1132.9,0,0
90961,56.5146,-1128.58,0,0
91221.3,57.4761,-1124.61,0,0
91481.7,58.264,-1120.97,0,0
91742,58.738,-1117.37,0,0
92002.3,58.9615,-1113.59,0,0
92262.6,59.2146,-1109.72,0,0
92523,59.3604,-1105.81,0,0
92783.3,59.7545,-1101.53,0,0
93043.6,60.4692,-1097.44,0,0
93303.9,60.9822,-1093.61,0,0
93564.3,61.5964,-1089.73,0,0
93824.6,62.0985,-1085.91,0,0
94084.9,62.7669,-1082.19,0,0
94345.2,63.214,-1078.79,0,0
94605.6,63.3263,-1075.17,0,0
94865.9,63.6043,-1071.38,0,0
95126.2,63.8161,-1067.44,0,0
95386.5,64.2158,-1063.51,0,0
95646.9,64.6151,-1059.8,0,0
95907.2,64.9142,-1055.77,0,0
96167.5,65.4735,-1051.81,0,0
96427.8,66.0003,-1047.72,0,0
96688.2,66.9262,-1043.81,0,0
96948.5,67.689,-1040.14,0,0
97208.8,68.383,-1036.35,0,0
97469.1,69.2122,-1032.57,0,0
97729.5,70.1577,-1028.79,0,0
97989.8,71.2525,-1025.09,0,0
98250.1,72.4274,-1021.61,0,0
98510.4,73.6669,-1018.25,0,0
98770.8,74.8944,-1015.14,0,0
99031.1,75.9466,-1012.27,0,0
99291.4,76.6692,-1009.43,0,0
99551.7,77.3636,-1006.26,0,0
99812.1,78.2813,-1003.15,0,0
100072,79.3073,-1000.04,0,0
100333,80.5323,-997.079,0,0
100593,81.6006,-994.424,0,0
100853,82.6168,-991.868,0,0
101114,83.6679,-989.462,0,0
101374,84.4961,-987.168,0,0
101634,85.2867,-984.91,0,0
101895,85.8507,-982.89,0,0
102155,86.1996,-980.754,0,0
102415,86.4258,-978.665,0,0
102676,86.5464,-976.401,0,0
102936,86.6175,-974.098,0,0
103196,86.7106,-971.633,0,0
103457,86.8628,-969.228,0,0
103717,87.011,-966.935,0,0
103977,87.03,-964.733,0,0
104238,86.8912,-962.571,0,0
104498,86.5465,-960.272,0,0
104758,86.0459,-957.851,0,0
105019,85.5476,-955.131,0,0
105279,85.1677,-952.221,0,0
105539,84.9977,-949.249,0,0
105800,84.9442,-946.344,0,0
106060,84.9062,-943.499,0,0
106320.175,84.9249,-940.633,0,0
106580.5,85.0713,-937.866,0,0
106840.825,85.0801,-935.242,0,0
107101.15,84.9846,-932.548,0,0
107361.475,84.9604,-929.857,0,0
107621.8,84.7597,-927.264,0,0
107882.125,84.3875,-924.346,0,0
108142.45,84.2855,-921.262,0,0
108402.775,84.3403,-918.162,0,0
108663.1,84.5137,-915.137,0,0
108923.425,84.8118,-912.107,0,0
109183.75,85.2203,-909.27,0,0
109444.075,85.6283,-906.572,0,0
109704.4,86.013,-903.989,0,0
109964.725,86.3385,-901.446,0,0
110225.05,86.5154,-898.978,0,0
110485.375,86.7386,-896.492,0,0
110745.7,86.8864,-894.03,0,0
111006.025,86.9136,-891.51,0,0
111266.35,87.0744,-888.923,0,0
111526.675,87.2765,-886.354,0,0
111787.0,87.5156,-883.906,0,0
112047.325,87.6303,-881.512,0,0
112307.65,87.7847,-879.094,0,0
112567.975,87.8791,-876.82,0,0
112828.3,87.9457,-874.448,0,0
113088.625,87.9572,-872.076,0,0
113348.95,87.9105,-869.73,0,0
113609.275,87.8457,-867.3,0,0
113869.6,87.8173,-864.92,0,0
114129.925,87.741,-862.489,0,0
114390.25,87.7548,-860.082,0,0
114650.575,87.7206,-857.676,0,0
114910.9,87.7431,-855.308,0,0
115171.225,87.802,-853.014,0,0
115431.55,87.7618,-850.859,0,0
115691.875,87.4321,-848.715,0,0
115952.2,87.0197,-846.286,0,0
116212.525,86.7133,-843.764,0,0
116472.85,86.3569,-841.205,0,0
116733.175,86.0633,-838.488,0,0
116993.5,85.9865,-835.741,0,0
117253.825,86.0381,-833.093,0,0
117514.15,86.0754,-830.629,0,0
117774.475,86.1184,-828.172,0,0
118034.8,86.0517,-825.745,0,0
118295.125,85.9557,-823.312,0,0
118555.45,85.8922,-820.839,0,0
118815.775,85.859,-818.401,0,0
119076.1,85.786,-816.019,0,0
119336.425,85.6451,-813.66,0,0
119596.75,85.4284,-811.212,0,0
119857.075,85.2879,-808.712,0,0
120117.4,85.0544,-806.337,0,0
120377.725,84.8267,-803.761,0,0
120638.05,84.6642,-801.083,0,0
120898.375,84.6948,-798.429,0,0
121158.7,84.7657,-795.946,0,0
121419.025,84.7512,-793.551,0,0
121679.35,84.6889,-791.165,0,0
121939.675,84.5851,-788.738,0,0
122200.0,84.5408,-786.295,0,0
122460,84.48,-783.9,0,0
122721,84.3843,-781.582,0,0
122981,84.1932,-779.278,0,0
123241,83.939,-776.9,0,0
123502,83.6737,-774.441,0,0
123762,83.425,-771.976,0,0
124022,83.1986,-769.474,0,0
124283,82.979,-767.014,0,0
124543,82.7275,-764.528,0,0
124803,82.4197,-762.003,0,0
125064,82.098,-759.448,0,0
125324,81.8443,-756.824,0,0
125584,81.5623,-754.193,0,0
125845,81.2561,-751.552,0,0
126105,81.0084,-748.832,0,0
126365,80.7579,-746.099,0,0
126626,80.5727,-743.331,0,0
126886,80.4154,-740.507,0,0
127146,80.3425,-737.722,0,0
127406,80.1028,-734.98,0,0
127667,80.0821,-732.147,0,0
127927,80.066,-729.305,0,0
128187,80.0876,-726.551,0,0
128448,80.0912,-723.791,0,0
128708,80.0956,-721.055,0,0
128968,80.0725,-718.293,0,0
129229,80.0508,-715.537,0,0
129489,80.0066,-712.761,0,0
129749,79.9351,-709.886,0,0
130010,79.9314,-706.896,0,0
130270,80.0613,-703.834,0,0
130530,80.4668,-700.838,0,0
130791,80.8973,-698.037,0,0
131051,81.2757,-695.331,0,0
131311,81.6794,-692.73,0,0
131572,81.9378,-690.229,0,0
131832,82.0675,-687.679,0,0
132092,82.2396,-685.036,0,0
132353,82.4437,-682.41,0,0
132613,82.6435,-679.801,0,0
132873,82.7917,-677.232,0,0
133134,82.8317,-674.67,0,0
133394,82.8584,-671.933,0,0
133654,82.8831,-669.163,0,0
133915,82.945,-666.245,0,0
134175,83.2061,-663.284,0,0
134435,83.5441,-660.448,0,0
134696,83.8555,-657.648,0,0
134956,84.2187,-654.792,0,0
135216,84.6816,-652.048,0,0
135477,85.171,-649.355,0,0
135737,85.7339,-646.731,0,0
135997,86.2277,-644.387,0,0
136258,86.4408,-642.121,0,0
136518,86.4931,-639.683,0,0
136778,86.537,-637.213,0,0
137039,86.4414,-634.711,0,0
137299,86.2479,-632.046,0,0
137559,86.073,-629.237,0,0
137819,85.8774,-626.282,0,0
138080,85.7038,-623.199,0,0
138340.125,85.6339,-619.837,0,0
138600.45,85.9362,-616.429,0,0
138860.775,86.3523,-613.212,0,0
139121.1,86.7894,-610.074,0,0
139381.425,87.1648,-607.001,0,0
139641.75,87.5477,-603.834,0,0
139902.075,88.015,-600.596,0,0
140162.4,88.6299,-597.536,0,0
140422.725,89.0416,-594.508,0,0
140683.05,89.4,-591.322,0,0
140943.375,89.9559,-588.065,0,0
141203.7,90.5628,-584.947,0,0
141464.025,91.0357,-581.902,0,0
141724.35,91.3263,-578.7,0,0
141984.675,91.7133,-575.197,0,0
142245.0,92.3265,-571.636,0,0
142505.325,93.0435,-568.09,0,0
142765.65,93.8459,-564.55,0,0
143025.975,94.7353,-561.008,0,0
143286.3,95.7292,-557.396,0,0
143546.625,96.8791,-553.985,0,0
143806.95,97.8717,-550.682,0,0
144067.275,98.8059,-547.21,0,0
144327.6,99.7829,-543.62,0,0
144587.925,100.909,-539.851,0,0
144848.25,102.335,-536.108,0,0
145108.575,103.824,-532.522,0,0
145368.9,105.361,-528.914,0,0
145629.225,106.974,-525.387,0,0
145889.55,108.6,-521.868,0,0
146149.875,110.303,-518.235,0,0
146410.2,112.263,-514.599,0,0
146670.525,114.438,-511.16,0,0
146930.85,116.643,-508.066,0,0
147191.175,118.566,-505.174,0,0
147451.5,120.241,-502.134,0,0
147711.825,121.845,-498.89,0,0
147972.15,123.521,-495.43,0,0
148232.475,125.307,-491.732,0,0
148492.8,127.385,-487.87,0,0
148753.125,129.686,-484.098,0,0
149013.45,132.163,-480.256,0,0
149273.775,134.763,-476.31,0,0
149534.1,137.665,-472.182,0,0
149794.425,141.092,-468.004,0,0
150054.75,145.091,-463.938,0,0
150315.075,149.495,-460.155,0,0
150575.4,154.358,-456.869,0,0
150835.725,159.668,-453.981,0,0
151096.05,165.191,-451.944,0,0
151356.375,170.635,-450.559,0,0
151616.7,175.955,-449.84,0,0
151877.025,181.077,-449.777,0,0
152137.35,185.595,-450.114,0,0
152397.675,189.468,-450.823,0,0
152658.0,192.955,-451.439,0,0
152918.325,196.249,-452.158,0,0
153178.65,199.065,-453.039,0,0
153438.975,201.225,-453.876,0,0
153699.3,202.984,-453.983,0,0
153959.625,205.268,-453.551,0,0
154219.95,208.061,-453.768,0,0
154480,209.903,-454.275,0,0
154741,211.603,-453.664,0,0
155001,214.603,-452.78,0,0
155261,218.173,-453.042,0,0
155522,221.833,-454.343,0,0
155782,224.956,-456.713,0,0
156042,226.907,-459.925,0,0
156303,227.393,-463.32,0,0
156563,226.415,-466.259,0,0
156823,224.14,-468.114,0,0
157084,221.571,-468.188,0,0
157344,219.385,-466.879,0,0
157604,218.177,-464.385,0,0
157864,218.417,-461.75,0,0
158125,219.564,-459.63,0,0
158385,221.111,-458.188,0,0
158645,222.575,-457.368,0,0
158906,223.789,-456.788,0,0
159166,225.412,-456.233,0,0
159426,226.967,-456.954,0,0
159687,227.061,-458.231,0,0
159947,226.162,-458.81,0,0
160207,225.113,-459.16,0,0
160468,222.927,-458.76,0,0
160728,220.42,-456.855,0,0
160988,218.575,-453.575,0,0
161249,217.727,-449.42,0,0
161509,218.54,-445.029,0,0
161769,220.574,-441.571,0,0
162030,222.836,-438.835,0,0
162290,225.317,-436.682,0,0
162550,227.922,-435.189,0,0
162811,230.067,-434.38,0,0
163071,231.97,-433.657,0,0
163331,233.843,-433.016,0,0
163592,235.267,-432.826,0,0
163852,236.146,-432.408,0,0
164112,237.191,-431.574,0,0
164373,238.77,-430.879,0,0
164633,240.409,-430.978,0,0
164893,241.511,-431.763,0,0
165154,241.882,-432.474,0,0
165414,241.643,-433.044,0,0
165674,241.417,-433.32,0,0
165935,240.74,-433.863,0,0
166195,239.712,-434.233,0,0
166455,237.995,-434.716,0,0
166716,235.359,-434.576,0,0
166976,232.239,-433.26,0,0
167236,229.672,-430.725,0,0
167497,227.957,-428.006,0,0
167757,226.404,-425.656,0,0
168017,224.633,-423.027,0,0
168277,222.946,-420.358,0,0
168538,220.894,-417.386,0,0
168798,218.724,-413.642,0,0
169058,217.162,-409.236,0,0
169319,216.309,-404.826,0,0
169579,215.626,-400.558,0,0
169839,214.774,-396.226,0,0
170100,214.112,-391.539,0,0
170360.075,213.81,-386.674,0,0
170620.4,213.72,-381.617,0,0
170880.725,213.916,-376.603,0,0
171141.05,214.137,-371.579,0,0
171401.375,214.259,-366.113,0,0
171661.7,215.034,-360.109,0,0
171922.025,216.687,-354.13,0,0
172182.35,218.817,-348.648,0,0
172442.675,221.034,-343.598,0,0
172703.0,223.197,-338.523,0,0
172963.325,225.661,-333.493,0,0
173223.65,228.268,-328.859,0,0
173483.975,230.884,-324.25,0,0
173744.3,233.472,-320.009,0,0
174004.625,235.784,-315.72,0,0
174264.95,238.246,-311.485,0,0
174525.275,240.366,-307.366,0,0
174785.6,242.124,-302.966,0,0
175045.925,243.777,-298.017,0,0
175306.25,245.73,-292.47,0,0
175566.575,248.183,-286.653,0,0
175826.9,251.104,-280.705,0,0
176087.225,254.601,-274.787,0,0
176347.55,258.378,-269.101,0,0
176607.875,262.38,-263.749,0,0
176868.2,266.159,-258.678,0,0
177128.525,269.667,-253.496,0,0
177388.85,272.932,-247.802,0,0
177649.175,276.44,-241.278,0,0
177909.5,280.898,-234.116,0,0
178169.825,286.032,-227.004,0,0
178430.15,292.009,-220.133,0,0
178690.475,298.38,-213.393,0,0
178950.8,305.369,-206.283,0,0
179211.125,313.626,-200.065,0,0
179471.45,321.665,-194.961,0,0
179731.775,329.558,-189.565,0,0
179992.1,338.361,-184.41,0,0
180252.425,347.292,-180.186,0,0
180512.75,355.896,-176.224,0,0
180773.075,364.562,-172.154,0,0
181033.4,373.634,-167.951,0,0
181293.725,383.09,-164.072,0,0
181554.05,393.186,-160.112,0,0
181814.375,404.235,-156.854,0,0
182074.7,415.817,-154.416,0,0
182335.025,427.853,-153.125,0,0
182595.35,439.826,-153.314,0,0
182855.675,451.114,-154.58,0,0
183116.0,461.652,-156.803,0,0
183376.325,470.778,-159.692,0,0
183636.65,478.364,-162.314,0,0
183896.975,484.844,-163.685,0,0
184157.3,491.455,-163.28,0,0
184417.625,499.472,-162.008,0,0
184677.95,508.877,-161.072,0,0
184938.275,519.301,-160.904,0,0
185198.6,529.959,-162.003,0,0
185458.925,540.401,-164.21,0,0
185719.25,549.942,-166.972,0,0
185979.575,559.172,-169.313,0,0
186239.9,569.045,-171.933,0,0
186500,578.425,-175.568,0,0
186761,587.174,-179.202,0,0
187021,595.917,-182.951,0,0
187281,604.256,-187.151,0,0
187542,611.983,-191.248,0,0
187802,619.657,-194.865,0,0
188062,627.831,-198.644,0,0
188322,635.902,-203.107,0,0
188583,643.167,-207.892,0,0
188843,649.961,-212.414,0,0
189103,656.427,-216.58,0,0
189364,662.75,-220.279,0,0
189624,669.271,-223.437,0,0
189884,676.157,-226.601,0,0
190145,682.971,-229.436,0,0
190405,690.483,-231.718,0,0
190665,699.086,-234.024,0,0
190926,708.889,-237.013,0,0
191186,719.116,-241.861,0,0
191446,728.386,-248.186,0,0
191707,735.964,-254.996,0,0
191967,742.006,-260.977,0,0
192227,747.66,-265.259,0,0
192488,753.937,-268.261,0,0
192748,761.154,-270.072,0,0
193008,770.42,-271.172,0,0
193269,781.634,-273.046,0,0
193529,793.85,-275.645,0,0
193789,807.813,-278.941,0,0
194050,823.115,-284.321,0,0
194310,838.739,-291.596,0,0
194570,854.174,-300.498,0,0
194831,869.926,-310.562,0,0
195091,885.786,-322.456,0,0
195351,901.481,-335.976,0,0
195612,917.33,-351.268,0,0
195872,932.657,-369.153,0,0
196132,946.224,-389.369,0,0
196393,957.714,-410.916,0,0
196653,967.547,-433.051,0,0
196913,975.839,-456.226,0,0
197174,982.725,-479.975,0,0
197434,988.373,-504.931,0,0
197694,992.01,-531.198,0,0
197955,993.281,-557.938,0,0
198215,992.023,-585.044,0,0
198475,988.37,-612.266,0,0
198735,981.751,-639.059,0,0
198996,972.715,-664.839,0,0
199256,961.325,-689.264,0,0
199516,947.719,-711.916,0,0
199777,932.079,-732.222,0,0
200037,915.905,-749.421,0,0
200297,899.746,-764.619,0,0
200558,884.115,-777.884,0,0
200818,869.143,-790.345,0,0
201078,854.654,-802.323,0,0
201339,840.114,-814.315,0,0
201599,824.72,-826.49,0,0
201859,807.688,-838.438,0,0
202120,788.643,-848.703,0,0
202380.025,767.465,-856.147,0,0
202640.35,746.298,-859.859,0,0
202900.675,726.991,-860.421,0,0
203161.0,709.846,-859.439,0,0
203421.325,694.497,-857.583,0,0
203681.65,681.102,-855.431,0,0
203941.975,668.756,-853.963,0,0
204202.3,656.342,-852.684,0,0
204462.625,644.129,-850.845,0,0
204722.95,632.253,-848.414,0,0
204983.275,620.531,-845.654,0,0
205243.6,608.759,-842.047,0,0
205503.925,597.56,-836.87,0,0
205764.25,587.481,-830.598,0,0
206024.575,579.027,-823.492,0,0
206284.9,572.19,-816.245,0,0
206545.225,566.843,-809.033,0,0
206805.55,563.054,-802.288,0,0
207065.875,560.157,-796.553,0,0
207326.2,557.678,-791.373,0,0
207586.525,555.751,-786.441,0,0
207846.85,554.576,-782.261,0,0
208107.175,553.789,-778.927,0,0
208367.5,552.908,-776.373,0,0
208627.825,551.78,-774.089,0,0
208888.15,550.545,-771.967,0,0
209148.475,549.296,-769.83,0,0
209408.8,548.031,-767.452,0,0
209669.125,547.123,-764.763,0,0
209929.45,547.248,-762.08,0,0
210189.775,548.046,-759.928,0,0
210450.1,549.279,-758.224,0,0
210710.425,550.667,-757.3,0,0
210970.75,552.172,-756.863,0,0
211231.075,553.786,-756.829,0,0
211491.4,555.694,-757.253,0,0
211751.725,557.648,-758.523,0,0
212012.05,559.339,-760.42,0,0
212272.375,560.693,-762.747,0,0
212532.7,561.847,-765.46,0,0
212793.025,562.712,-768.56,0,0
213053.35,563.29,-771.961,0,0
213313.675,563.407,-775.61,0,0
213574.0,563.232,-779.397,0,0
213834.325,562.696,-783.254,0,0
214094.65,562.008,-787.025,0,0
214354.975,561.163,-791.01,0,0
214615.3,560.197,-795.1,0,0
214875.625,558.92,-799.322,0,0
215135.95,557.342,-803.861,0,0
215396.275,555.636,-808.407,0,0
215656.6,553.559,-813.139,0,0
215916.925,550.74,-818.255,0,0
216177.25,547.368,-822.327,0,0
216437.575,544.036,-826.795,0,0
216697.9,540.378,-830.94,0,0
216958.225,536.677,-834.895,0,0
217218.55,532.851,-838.745,0,0
217478.875,529.134,-842.601,0,0
217739.2,525.258,-846.734,0,0
217999.525,520.839,-851.023,0,0
218259.85,515.934,-855.193,0,0
218520,510.525,-859.081,0,0
218780,504.657,-862.654,0,0
219041,498.605,-865.537,0,0
219301,492.504,-868.184,0,0
219561,486.399,-870.589,0,0
219822,480.173,-872.614,0,0
220082,473.54,-874.542,0,0
220342,466.651,-875.5,0,0
220603,460.039,-876.32,0,0
220863,453.365,-876.401,0,0
221123,446.94,-876.007,0,0
221384,440.922,-875.18,0,0
221644,435.374,-874.2,0,0
221904,430.07,-872.989,0,0
222165,425.055,-871.696,0,0
222425,420.208,-870.24,0,0
222685,415.678,-868.544,0,0
222946,411.533,-866.61,0,0
223206,407.946,-864.659,0,0
223466,404.897,-862.862,0,0
223727,402.016,-861.354,0,0
223987,399.509,-860.05,0,0
224247,397.142,-859.092,0,0
224508,394.766,-858.241,0,0
224768,392.596,-857.379,0,0
225028,390.742,-857.058,0,0
225289,388.797,-857.013,0,0
225549,387.033,-857.397,0,0
225809,384.856,-858.23,0,0
226070,382.397,-859.067,0,0
226330,379.717,-860.083,0,0
226590,376.943,-861.197,0,0
226851,373.79,-862.337,0,0
227111,370.246,-863.547,0,0
227371,366.396,-864.546,0,0
227632,362.283,-865.143,0,0
227892,358.221,-865.377,0,0
228152,354.5,-865.265,0,0
228413,351.028,-865.122,0,0
228673,347.82,-865.208,0,0
228933,344.628,-865.645,0,0
229193,341.414,-866.271,0,0
229454,337.787,-867.113,0,0
229714,334.125,-868.107,0,0
229974,330.045,-869.125,0,0
230235,325.554,-870.102,0,0
230495,320.881,-870.916,0,0
230755,315.864,-871.375,0,0
231016,310.717,-871.657,0,0
231276,305.48,-871.712,0,0
231536,300.09,-871.489,0,0
231797,294.754,-870.994,0,0
232057,289.417,-870.35,0,0
232317,284.018,-869.613,0,0
232578,278.421,-868.768,0,0
232838,272.726,-867.561,0,0
233098,266.884,-866.044,0,0
233359,261.039,-864.242,0,0
233619,255.225,-861.916,0,0
233879,249.554,-859.302,0,0
234140,243.967,-856.312,0,0
234400,238.596,-853.034,0,0
234660.3,233.528,-849.337,0,0
234920.625,228.812,-845.556,0,0
235180.95,224.285,-841.473,0,0
235441.275,220.112,-837.313,0,0
235701.6,216.246,-832.919,0,0
235961.925,212.699,-828.566,0,0
236222.25,209.551,-824.137,0,0
236482.575,206.546,-819.813,0,0
236742.9,203.851,-815.491,0,0
237003.225,201.349,-811.199,0,0
237263.55,198.991,-806.933,0,0
237523.875,196.819,-802.687,0,0
237784.2,194.815,-798.416,0,0
238044.525,193.004,-794.068,0,0
238304.85,191.459,-789.692,0,0
238565.175,190.382,-785.239,0,0
238825.5,189.592,-781.071,0,0
239085.825,189.193,-777.065,0,0
239346.15,188.978,-773.462,0,0
239606.475,188.96,-770.098,0,0
239866.8,188.815,-767.029,0,0
240127.125,188.804,-764.116,0,0
240387.45,188.81,-761.531,0,0
240647.775,188.948,-759.213,0,0
240908.1,188.93,-757.242,0,0
241168.425,188.78,-755.488,0,0
241428.75,188.312,-753.938,0,0
241689.075,187.637,-752.458,0,0
241949.4,186.707,-750.959,0,0
242209.725,185.641,-749.404,0,0
242470.05,184.479,-747.614,0,0
242730.375,183.157,-745.798,0,0
242990.7,181.938,-743.81,0,0
243251.025,180.684,-741.868,0,0
243511.35,179.334,-739.824,0,0
243771.675,177.952,-737.601,0,0
244032.0,176.739,-735.175,0,0
244292.325,175.603,-732.691,0,0
244552.65,174.774,-730.296,0,0
244812.975,173.93,-727.943,0,0
245073.3,172.883,-725.55,0,0
245333.625,172.122,-723.082,0,0
245593.95,171.399,-720.315,0,0
245854.275,170.928,-717.629,0,0
246114.6,170.755,-715.181,0,0
246374.925,170.685,-712.842,0,0
246635.25,170.69,-710.811,0,0
246895.575,170.573,-708.991,0,0
247155.9,170.303,-707.22,0,0
247416.225,169.929,-705.388,0,0
247676.55,169.511,-703.541,0,0
247936.875,169.135,-701.66,0,0
248197.2,168.712,-699.799,0,0
248457.525,168.34,-697.944,0,0
248717.85,167.918,-696.031,0,0
248978.175,167.577,-694.057,0,0
249238.5,167.214,-692.199,0,0
249498.825,166.976,-690.271,0,0
249759.15,166.671,-688.348,0,0
250019.475,166.4,-686.3,0,0
250279.8,166.205,-684.169,0,0
250540,166.209,-682.068,0,0
250800,166.287,-680.009,0,0
251061,166.534,-677.944,0,0
251321,166.934,-676.006,0,0
251581,167.426,-674.163,0,0
251842,167.969,-672.485,0,0
252102,168.626,-670.94,0,0
252362,169.358,-669.544,0,0
252623,170.149,-668.414,0,0
252883,170.851,-667.563,0,0
253143,171.384,-666.94,0,0
253404,171.709,-666.429,0,0
253664,171.838,-666.022,0,0
253924,171.789,-665.645,0,0
254185,171.525,-665.287,0,0
254445,171.156,-664.833,0,0
254705,170.493,-664.421,0,0
254966,169.758,-663.846,0,0
255226,168.824,-663.269,0,0
255486,167.609,-662.463,0,0
255747,166.45,-661.29,0,0
256007,165.342,-659.955,0,0
256267,164.258,-658.538,0,0
256528,163.197,-656.943,0,0
256788,162.156,-655.154,0,0
257048,161.231,-653.218,0,0
257309,160.455,-651.119,0,0
257569,159.876,-648.906,0,0
257829,159.43,-646.684,0,0
258090,159.151,-644.375,0,0
258350,159.028,-642.05,0,0
258610,159.059,-639.69,0,0
258871,159.306,-637.321,0,0
259131,159.756,-635.009,0,0
259391,160.474,-632.841,0,0
259651,161.309,-630.869,0,0
259912,162.129,-629.116,0,0
260172,162.979,-627.516,0,0
260432,163.813,-625.935,0,0
260693,164.61,-624.49,0,0
260953,165.406,-623.074,0,0
261213,166.269,-621.74,0,0
261474,167.018,-620.515,0,0
261734,167.764,-619.358,0,0
261994,168.447,-618.254,0,0
262255,168.969,-617.206,0,0
262515,169.403,-616.022,0,0
262775,169.789,-614.685,0,0
263036,170.298,-613.198,0,0
263296,170.971,-611.702,0,0
263556,171.624,-610.273,0,0
263817,172.312,-608.803,0,0
264077,173.027,-607.285,0,0
264337,173.738,-605.651,0,0
264598,174.628,-603.904,0,0
264858,175.645,-602.039,0,0
265118,176.769,-600.134,0,0
265379,178.158,-598.187,0,0
265639,179.8,-596.145,0,0
265899,181.71,-594.079,0,0
266160,183.969,-592.124,0,0
266420,186.568,-590.341,0,0
266680.25,189.396,-588.747,0,0
266940.575,192.54,-587.355,0,0
267200.9,195.954,-586.221,0,0
267461.225,199.643,-585.49,0,0
267721.55,203.493,-585.131,0,0
267981.875,207.423,-585.224,0,0
268242.2,211.404,-585.816,0,0
268502.525,215.333,-586.881,0,0
268762.85,219.108,-588.234,0,0
269023.175,222.795,-589.867,0,0
269283.5,226.474,-591.794,0,0
269543.825,230.053,-594.009,0,0
269804.15,233.7,-596.655,0,0
270064.475,237.212,-599.771,0,0
270324.8,240.507,-603.411,0,0
270585.125,243.528,-607.566,0,0
270845.45,246.078,-612.099,0,0
271105.775,248.123,-616.997,0,0
271366.1,249.707,-622.066,0,0
271626.425,250.885,-627.305,0,0
271886.75,251.697,-632.692,0,0
272147.075,252.055,-638.385,0,0
272407.4,251.891,-644.288,0,0
272667.725,251.144,-650.421,0,0
272928.05,249.628,-656.637,0,0
273188.375,247.311,-662.82,0,0
273448.7,244.187,-668.81,0,0
273709.025,240.207,-674.45,0,0
273969.35,235.608,-679.424,0,0
274229.675,230.539,-683.824,0,0
274490.0,225.151,-687.46,0,0
274750.325,219.509,-690.425,0,0
275010.65,213.816,-692.809,0,0
275270.975,208.235,-694.639,0,0
275531.3,202.579,-695.962,0,0
275791.625,197.042,-696.81,0,0
276051.95,191.576,-697.269,0,0
276312.275,186.222,-697.293,0,0
276572.6,181.019,-696.925,0,0
276832.925,176.027,-696.212,0,0
277093.25,171.249,-695.198,0,0
277353.575,166.704,-693.941,0,0
277613.9,162.362,-692.457,0,0
277874.225,158.221,-690.822,0,0
278134.55,154.208,-689.049,0,0
278394.875,150.345,-687.04,0,0
278655.2,146.668,-684.793,0,0
278915.525,143.227,-682.274,0,0
279175.85,140.073,-679.606,0,0
279436.175,137.326,-676.795,0,0
279696.5,134.773,-673.961,0,0
279956.825,132.499,-671.087,0,0
280217.15,130.672,-668.125,0,0
280477.475,129.044,-665.324,0,0
280737.8,127.679,-662.578,0,0
280998.125,126.554,-659.911,0,0
281258.45,125.643,-657.408,0,0
281518.775,124.851,-655.011,0,0
281779.1,124.202,-652.762,0,0
282039.425,123.66,-650.637,0,0
282299.75,123.278,-648.706,0,0
282560,122.91,-646.987,0,0
282820,122.514,-645.426,0,0
283081,122.029,-644,0,0
283341,121.42,-642.558,0,0
283601,120.786,-641.064,0,0
283862,120.221,-639.535,0,0
284122,119.709,-637.984,0,0
284382,119.242,-636.413,0,0
284643,118.898,-634.848,0,0
284903,118.643,-633.253,0,0
285163,118.534,-631.661,0,0
285424,118.647,-630.168,0,0
285684,118.824,-628.801,0,0
285944,119.12,-627.553,0,0
286205,119.476,-626.397,0,0
286465,120.021,-625.401,0,0
286725,120.714,-624.585,0,0
286986,121.539,-624.037,0,0
287246,122.394,-623.894,0,0
287506,123.157,-624.123,0,0
287767,123.72,-624.689,0,0
288027,124.013,-625.531,0,0
288287,124.006,-626.588,0,0
288548,123.632,-627.725,0,0
288808,122.904,-628.945,0,0
289068,121.829,-630.158,0,0
289329,120.347,-631.31,0,0
289589,118.604,-632.286,0,0
289849,116.509,-632.979,0,0
290109,114.272,-633.343,0,0
290370,111.954,-633.391,0,0
290630,109.717,-633.207,0,0
290890,107.51,-632.784,0,0
291151,105.383,-632.254,0,0
291411,103.295,-631.644,0,0
291671,101.24,-630.979,0,0
291932,99.1572,-630.166,0,0
292192,97.0838,-629.246,0,0
292452,95.0249,-628.206,0,0
292713,93.0491,-627.087,0,0
292973,91.0842,-625.866,0,0
293233,89.1707,-624.521,0,0
293494,87.3119,-623.072,0,0
293754,85.4998,-621.572,0,0
294014,83.7673,-619.953,0,0
294275,82.1167,-618.214,0,0
294535,80.6028,-616.381,0,0
294795,79.1974,-614.578,0,0
295056,77.9198,-612.709,0,0
295316,76.7742,-610.848,0,0
295576,75.6921,-608.989,0,0
295837,74.7056,-607.177,0,0
296097,73.7851,-605.382,0,0
296357,72.8922,-603.638,0,0
296618,72.0364,-601.907,0,0
296878,71.2061,-600.166,0,0
297138,70.4167,-598.463,0,0
297399,69.6382,-596.74,0,0
297659,68.9006,-595.004,0,0
297919,68.1945,-593.265,0,0
298180,67.4948,-591.509,0,0
298440,66.8646,-589.741,0,0
298700.2,66.2805,-587.959,0,0
298960.525,65.7242,-586.158,0,0
299220.85,65.2274,-584.355,0,0
299481.175,64.7781,-582.541,0,0
299741.5,64.3981,-580.709,0,0
300001.825,64.0789,-578.877,0,0
300262.15,63.8381,-577.058,0,0
300522.475,63.6591,-575.275,0,0
300782.8,63.5292,-573.498,0,0
301043.125,63.4573,-571.72,0,0
301303.45,63.4905,-569.983,0,0
301563.775,63.5844,-568.3,0,0
301824.1,63.72,-566.672,0,0
302084.425,63.9086,-565.099,0,0
302344.75,64.1177,-563.575,0,0
302605.075,64.367,-562.118,0,0
302865.4,64.6506,-560.699,0,0
303125.725,64.9372,-559.334,0,0
303386.05,65.2726,-558.014,0,0
303646.375,65.6069,-556.753,0,0
303906.7,65.9659,-555.531,0,0
304167.025,66.3336,-554.335,0,0
304427.35,66.7244,-553.205,0,0
304687.675,67.1465,-552.123,0,0
304948.0,67.5882,-551.119,0,0
305208.325,68.0111,-550.171,0,0
305468.65,68.4449,-549.306,0,0
305728.975,68.8627,-548.511,0,0
305989.3,69.2205,-547.753,0,0
306249.625,69.5548,-547.024,0,0
306509.95,69.8666,-546.321,0,0
306770.275,70.1486,-545.629,0,0
307030.6,70.4212,-544.948,0,0
307290.925,70.7432,-544.303,0,0
307551.25,71.0587,-543.707,0,0
307811.575,71.3968,-543.181,0,0
308071.9,71.7011,-542.744,0,0
308332.225,71.951,-542.398,0,0
308592.55,72.1103,-542.116,0,0
308852.875,72.1661,-541.887,0,0
309113.2,72.0591,-541.618,0,0
309373.525,71.9027,-541.309,0,0
309633.85,71.689,-540.926,0,0
309894.175,71.4631,-540.47,0,0
310154.5,71.2669,-539.989,0,0
310414.825,71.0639,-539.477,0,0
310675.15,70.8877,-538.929,0,0
310935.475,70.7279,-538.384,0,0
311195.8,70.5898,-537.875,0,0
311456.125,70.4564,-537.372,0,0
311716.45,70.3158,-536.91,0,0
311976.775,70.1335,-536.485,0,0
312237.1,69.8848,-536.05,0,0
312497.425,69.6211,-535.612,0,0
312757.75,69.3387,-535.146,0,0
313018.075,69.0371,-534.675,0,0
313278.4,68.6767,-534.179,0,0
313538.725,68.3374,-533.654,0,0
313799.05,67.9888,-533.082,0,0
314059.375,67.6446,-532.526,0,0
314319.7,67.3356,-531.95,0,0
314580,66.9631,-531.374,0,0
314840,66.6128,-530.817,0,0
315101,66.2062,-530.25,0,0
315361,65.8717,-529.575,0,0
315621,65.3943,-528.948,0,0
315882,65.0497,-528.194,0,0
316142,64.6421,-527.419,0,0
316402,64.3719,-526.716,0,0
316663,64.1293,-525.917,0,0
316923,63.8535,-525.215,0,0
317183,63.6176,-524.491,0,0
317444,63.3543,-523.803,0,0
317704,63.118,-523.187,0,0
317964,62.8971,-522.403,0,0
318225,62.6058,-521.673,0,0
318485,62.3796,-520.94,0,0
318745,62.1559,-520.156,0,0
319006,61.9146,-519.412,0,0
319266,61.8446,-518.651,0,0
319526,61.7309,-517.827,0,0
319787,61.6542,-517.221,0,0
320047,61.6179,-516.548,0,0
320307,61.5377,-515.971,0,0
320567,61.4793,-515.356,0,0
320828,61.4369,-514.74,0,0
321088,61.2681,-514.241,0,0
321348,61.2648,-513.696,0,0
321609,61.0711,-513.181,0,0
321869,60.934,-512.688,0,0
322129,60.8405,-512.235,0,0
322390,60.6783,-511.792,0,0
322650,60.4198,-511.398,0,0
322910,60.2272,-511.006,0,0
323171,59.9436,-510.602,0,0
323431,59.6198,-510.238,0,0
323691,59.3107,-509.879,0,0
323952,58.9466,-509.322,0,0
324212,58.4995,-508.917,0,0
324472,58.0697,-508.45,0,0
324733,57.5887,-507.957,0,0
324993,57.1384,-507.409,0,0
325253,56.6446,-506.831,0,0
325514,56.1793,-506.2,0,0
325774,55.734,-505.554,0,0
326034,55.2612,-504.89,0,0
326295,54.8533,-504.09,0,0
326555,54.4585,-503.453,0,0
326815,54.0265,-502.721,0,0
327076,53.68,-501.993,0,0
327336,53.3329,-501.255,0,0
327596,52.9529,-500.527,0,0
327857,52.609,-499.849,0,0
328117,52.2678,-499.119,0,0
328377,51.9645,-498.333,0,0
328638,51.6041,-497.707,0,0
328898,51.2279,-496.91,0,0
329158,50.8877,-496.208,0,0
329419,50.5228,-495.438,0,0
329679,50.1752,-494.664,0,0
329939,49.9029,-493.902,0,0
330200,49.4869,-493.105,0,0
330460,49.2118,-492.31,0,0
330720.15,48.8969,-491.502,0,0
330980.475,48.5389,-490.666,0,0
331240.8,48.2688,-489.862,0,0
331501.125,47.9498,-489.043,0,0
331761.45,47.6291,-488.168,0,0
332021.775,47.3648,-487.243,0,0
332282.1,47.1277,-486.374,0,0
332542.425,46.8928,-485.476,0,0
332802.75,46.688,-484.594,0,0
333063.075,46.5237,-483.658,0,0
333323.4,46.3709,-482.727,0,0
333583.725,46.2004,-481.833,0,0
333844.05,46.1443,-480.874,0,0
334104.375,46.0467,-479.966,0,0
334364.7,46.0761,-479.092,0,0
334625.025,46.0666,-478.23,0,0
334885.35,46.1388,-477.367,0,0
335145.675,46.2543,-476.527,0,0
335406.0,46.2863,-475.779,0,0
335666.325,46.3409,-475.119,0,0
335926.65,46.4454,-474.416,0,0
336186.975,46.4749,-473.757,0,0
336447.3,46.5036,-473.094,0,0
336707.625,46.5572,-472.5,0,0
336967.95,46.5651,-471.905,0,0
337228.275,46.5455,-471.379,0,0
337488.6,46.5362,-470.804,0,0
337748.925,46.5334,-470.211,0,0
338009.25,46.402,-469.766,0,0
338269.575,46.3486,-469.235,0,0
338529.9,46.1662,-468.636,0,0
338790.225,45.9633,-468.123,0,0
339050.55,45.8265,-467.537,0,0
339310.875,45.6721,-466.991,0,0
339571.2,45.4876,-466.453,0,0
339831.525,45.2768,-465.803,0,0
340091.85,45.0871,-465.196,0,0
340352.175,44.8643,-464.588,0,0
340612.5,44.6657,-463.962,0,0
340872.825,44.3583,-463.249,0,0
341133.15,44.1787,-462.641,0,0
341393.475,43.9255,-461.91,0,0
341653.8,43.6871,-461.232,0,0
341914.125,43.5028,-460.462,0,0
342174.45,43.2952,-459.772,0,0
342434.775,43.0554,-459.012,0,0
342695.1,42.8776,-458.267,0,0
342955.425,42.6979,-457.51,0,0
343215.75,42.5284,-456.684,0,0
343476.075,42.3607,-455.939,0,0
343736.4,42.2129,-455.115,0,0
343996.725,42.0722,-454.348,0,0
344257.05,41.9307,-453.454,0,0
344517.375,41.8161,-452.672,0,0
344777.7,41.7017,-451.815,0,0
345038.025,41.6561,-450.968,0,0
345298.35,41.5776,-450.106,0,0
345558.675,41.5212,-449.264,0,0
345819.0,41.5415,-448.458,0,0
346079.325,41.5107,-447.595,0,0
346339.65,41.5243,-446.81,0,0
346599.975,41.5494,-445.998,0,0
346860,41.6313,-445.127,0,0
347121,41.6622,-444.355,0,0
347381,41.7564,-443.523,0,0
347641,41.7913,-442.713,0,0
347902,41.8795,-442.001,0,0
348162,41.9223,-441.183,0,0
348422,42.0272,-440.388,0,0
348683,42.1148,-439.64,0,0
348943,42.2407,-438.854,0,0
349203,42.3679,-438.1,0,0
349464,42.5362,-437.279,0,0
349724,42.6486,-436.531,0,0
349984,42.8458,-435.78,0,0
350245,43.0456,-435.016,0,0
350505,43.2662,-434.299,0,0
350765,43.4702,-433.57,0,0
351025,43.7456,-432.922,0,0
351286,43.97,-432.256,0,0
351546,44.2206,-431.609,0,0
351806,44.4843,-430.999,0,0
352067,44.705,-430.399,0,0
352327,44.9452,-429.854,0,0
352587,45.1917,-429.263,0,0
352848,45.452,-428.711,0,0
353108,45.6591,-428.184,0,0
353368,45.8794,-427.68,0,0
353629,46.114,-427.137,0,0
353889,46.317,-426.665,0,0
354149,46.4846,-426.166,0,0
354410,46.7165,-425.668,0,0
354670,46.8664,-425.161,0,0
354930,47.0515,-424.638,0,0
355191,47.2102,-424.245,0,0
355451,47.4615,-423.735,0,0
355711,47.6077,-423.268,0,0
355972,47.7554,-422.847,0,0
356232,47.9111,-422.418,0,0
356492,48.1023,-422.012,0,0
356753,48.2463,-421.558,0,0
357013,48.3546,-421.16,0,0
357273,48.5078,-420.761,0,0
357534,48.585,-420.337,0,0
357794,48.7316,-419.899,0,0
358054,48.8439,-419.451,0,0
358315,48.9519,-419.029,0,0
358575,49.0483,-418.648,0,0
358835,49.223,-418.178,0,0
359096,49.3146,-417.788,0,0
359356,49.4214,-417.36,0,0
359616,49.4732,-416.944,0,0
359877,49.6194,-416.537,0,0
360137,49.727,-416.147,0,0
360397,49.8329,-415.723,0,0
360658,49.9215,-415.317,0,0
360918,50.0114,-414.896,0,0
361178,50.1267,-414.487,0,0
361438,50.2078,-414.129,0,0
361699,50.3396,-413.745,0,0
361959,50.4201,-413.397,0,0
362219,50.5061,-412.987,0,0
362480,50.5715,-412.633,0,0
362740.1,50.6635,-412.269,0,0
363000.425,50.7345,-411.935,0,0
363260.75,50.7877,-411.553,0,0
363521.075,50.8425,-411.182,0,0
363781.4,50.9329,-410.853,0,0
364041.725,50.9124,-410.47,0,0
364302.05,50.9943,-410.122,0,0
364562.375,51.0464,-409.729,0,0
364822.7,51.0676,-409.379,0,0
365083.025,51.1195,-409.02,0,0
365343.35,51.109,-408.663,0,0
365603.675,51.1252,-408.263,0,0
365864.0,51.1698,-407.88,0,0
366124.325,51.1634,-407.525,0,0
366384.65,51.1831,-407.115,0,0
366644.975,51.1671,-406.705,0,0
366905.3,51.1671,-406.33,0,0
367165.625,51.224,-405.927,0,0
367425.95,51.2607,-405.476,0,0
367686.275,51.2457,-405.115,0,0
367946.6,51.2882,-404.703,0,0
368206.925,51.3243,-404.286,0,0
368467.25,51.3188,-403.858,0,0
368727.575,51.3703,-403.399,0,0
368987.9,51.4234,-402.943,0,0
369248.225,51.4902,-402.459,0,0
369508.55,51.5963,-401.988,0,0
369768.875,51.7715,-401.525,0,0
370029.2,51.9429,-401.102,0,0
370289.525,52.1799,-400.7,0,0
370549.85,52.3804,-400.359,0,0
370810.175,52.6095,-400.044,0,0
371070.5,52.822,-399.798,0,0
371330.825,52.9994,-399.561,0,0
371591.15,53.1746,-399.373,0,0
371851.475,53.3021,-399.198,0,0
372111.8,53.4622,-399.001,0,0
372372.125,53.5507,-398.868,0,0
372632.45,53.6186,-398.734,0,0
372892.775,53.6405,-398.611,0,0
373153.1,53.6639,-398.549,0,0
373413.425,53.6195,-398.414,0,0
373673.75,53.5357,-398.335,0,0
373934.075,53.4258,-398.241,0,0
374194.4,53.2767,-398.071,0,0
374454.725,53.1271,-397.908,0,0
374715.05,52.8624,-397.744,0,0
374975.375,52.6149,-397.526,0,0
375235.7,52.3893,-397.237,0,0
375496.025,52.1401,-396.926,0,0
375756.35,51.922,-396.574,0,0
376016.675,51.7196,-396.171,0,0
376277.0,51.5836,-395.769,0,0
376537.325,51.4444,-395.364,0,0
376797.65,51.3821,-394.944,0,0
377057.975,51.3238,-394.566,0,0
377318.3,51.2366,-394.198,0,0
377578.625,51.168,-393.932,0,0
377838.95,51.0451,-393.62,0,0
378099.275,50.9328,-393.327,0,0
378359.6,50.7379,-393.067,0,0
378619.925,50.5516,-392.756,0,0
378880,50.2892,-392.395,0,0
379141,50.009,-391.999,0,0
379401,49.7684,-391.526,0,0
379661,49.5274,-391.03,0,0
379922,49.3321,-390.457,0,0
380182,49.198,-389.809,0,0
380442,49.2002,-389.188,0,0
380703,49.2246,-388.616,0,0
380963,49.3399,-388.047,0,0
381223,49.531,-387.555,0,0
381483,49.6919,-387.164,0,0
381744,49.8976,-386.862,0,0
382004,50.0144,-386.625,0,0
382264,50.0944,-386.417,0,0
382525,50.1512,-386.269,0,0
382785,50.0994,-386.162,0,0
383045,50.0591,-385.986,0,0
383306,49.9155,-385.886,0,0
383566,49.7073,-385.692,0,0
383826,49.5065,-385.564,0,0
384087,49.2839,-385.377,0,0
384347,48.9726,-385.145,0,0
384607,48.6763,-384.882,0,0
384868,48.3241,-384.573,0,0
385128,48.0016,-384.262,0,0
385388,47.6575,-383.849,0,0
385649,47.3233,-383.467,0,0
385909,46.9735,-383.049,0,0
386169,46.627,-382.582,0,0
386430,46.2903,-382.121,0,0
386690,45.9439,-381.59,0,0
386950,45.6513,-381.04,0,0
387211,45.3844,-380.478,0,0
387471,45.0341,-379.894,0,0
387731,44.795,-379.272,0,0
387992,44.5489,-378.648,0,0
388252,44.4065,-377.96,0,0
388512,44.2159,-377.313,0,0
388773,44.0762,-376.68,0,0
389033,43.9926,-376.001,0,0
389293,43.909,-375.342,0,0
389554,43.8165,-374.703,0,0
389814,43.7424,-374.035,0,0
390074,43.6965,-373.446,0,0
390335,43.6775,-372.815,0,0
390595,43.6224,-372.257,0,0
390855,43.6346,-371.686,0,0
391116,43.598,-371.095,0,0
391376,43.5967,-370.508,0,0
391636,43.5392,-369.953,0,0
391896,43.5486,-369.372,0,0
392157,43.5356,-368.876,0,0
392417,43.4968,-368.305,0,0
392677,43.5059,-367.77,0,0
392938,43.458,-367.179,0,0
393198,43.3974,-366.656,0,0
393458,43.36,-366.064,0,0
393719,43.345,-365.494,0,0
393979,43.3126,-364.921,0,0
394239,43.2623,-364.328,0,0
394500,43.2943,-363.73,0,0
394760.05,43.2755,-363.114,0,0
395020.375,43.3029,-362.524,0,0
395280.7,43.3555,-361.91,0,0
395541.025,43.3947,-361.31,0,0
395801.35,43.4554,-360.738,0,0
396061.675,43.5211,-360.152,0,0
396322.0,43.6099,-359.594,0,0
396582.325,43.6929,-359.018,0,0
396842.65,43.7611,-358.489,0,0
397102.975,43.8479,-357.985,0,0
397363.3,43.9352,-357.428,0,0
397623.625,44.0184,-356.914,0,0
397883.95,44.0711,-356.342,0,0
398144.275,44.169,-355.824,0,0
398404.6,44.2278,-355.306,0,0
398664.925,44.302,-354.787,0,0
398925.25,44.3615,-354.267,0,0
399185.575,44.468,-353.756,0,0
399445.9,44.5155,-353.246,0,0
399706.225,44.6,-352.762,0,0
399966.55,44.6786,-352.216,0,0
400006.6,44.6717,-352.127,0,0