File: Accelerated corrosion test data/2025-10-19_06-00-03/sample_2.csv
Frequency (Hz),Impedance (ohms),Phase (Radians),Temperature (C),Humidity (%)
10000.0,224.84,-11539.8,0,0
10260.325,219.475,-11249,0,0
10520.65,214.003,-10973.1,0,0
10780.975,209.616,-10709.6,0,0
11041.3,204.535,-10459.8,0,0
11301.625,200.233,-10219.9,0,0
11561.95,196.955,-9989.48,0,0
11822.275,195.188,-9779.76,0,0
12082.6,189.537,-9567.15,0,0
12342.925,184.82,-9368.41,0,0
12603.25,180.795,-9174.79,0,0
12863.575,177.36,-8989.36,0,0
13123.9,174.933,-8814.1,0,0
13384.225,170.144,-8641.65,0,0
13644.55,169.365,-8474.32,0,0
13904.875,186.445,-8327.69,0,0
14165.2,163.775,-8173.52,0,0
14425.525,159.919,-8021.69,0,0
14685.8,164.932,-7874.76,0,0
14946.175,158.589,-7745.05,0,0
15206.5,159.76,-7624.43,0,0
15466.825,159.047,-7488.24,0,0
15727.15,149.711,-7372.69,0,0
15987.5,146.903,-7249.91,0,0
16247.8,146.762,-7134.73,0,0
16508.125,141.497,-7023.43,0,0
16768.45,139.131,-6914.23,0,0
17028.775,137.784,-6809.3,0,0
17289.1,136.223,-6707.49,0,0
17549.425,133.041,-6607.63,0,0
17809.75,132.136,-6511.34,0,0
18070.075,129.263,-6416.77,0,0
18330.4,127.657,-6324.87,0,0
18590.725,127.335,-6235.64,0,0
18851.05,126.317,-6149.15,0,0
19111.375,127.76,-6067.43,0,0
19371.7,126.363,-5990.01,0,0
19632.025,121.473,-5909.76,0,0
19892.35,119.244,-5831.04,0,0
20152.675,117.768,-5754.56,0,0
20413.0,117.293,-5679.71,0,0
20673.3,116.641,-5605.95,0,0
20933.65,117.538,-5533.35,0,0
21193.975,123.535,-5466.08,0,0
21454.3,131.431,-5406.39,0,0
21714.625,126.735,-5349.39,0,0
21974.9,123.906,-5282.41,0,0
22235.275,117.816,-5228.02,0,0
22495.6,114.614,-5166.34,0,0
22755.925,111.86,-5104.68,0,0
23016.25,111.879,-5049.62,0,0
23276.6,112.392,-4995.06,0,0
23536.9,107.969,-4939.04,0,0
23797.225,106.124,-4883.77,0,0
24057.55,105.875,-4832.7,0,0
24317.875,102.253,-4780.91,0,0
24578.2,100.701,-4729.19,0,0
24838.525,99.5025,-4679.34,0,0
25098.85,98.4975,-4629.54,0,0
25359.175,97.0957,-4581.42,0,0
25619.5,96.6789,-4534.53,0,0
25879.8,95.4868,-4487.84,0,0
26140.1,96.32,-4442.88,0,0
26400.5,95.2178,-4399.08,0,0
26660.8,95.8377,-4357.22,0,0
26921.1,95.0735,-4314.42,0,0
27181.4,93.5941,-4274.54,0,0
27441.8,91.1801,-4233.71,0,0
27702.1,90.195,-4192.56,0,0
27962.4,89.4828,-4151.68,0,0
28222.7,90.0494,-4112.7,0,0
28483.1,89.7555,-4074.32,0,0
28743.4,88.9601,-4035.93,0,0
29003.7,90.8939,-3999.43,0,0
29264,91.5237,-3962.09,0,0
29524.4,94.7932,-3928.03,0,0
29784.7,97.4992,-3899.63,0,0
30045,93.2186,-3867.6,0,0
30305.3,94.6945,-3833.86,0,0
30565.7,90.4873,-3805.65,0,0
30826,87.8272,-3772.29,0,0
31086.3,86.6582,-3739.93,0,0
31346.6,84.8749,-3708.26,0,0
31607,85.309,-3677.96,0,0
31867.3,82.9181,-3647.65,0,0
32127.6,82.0618,-3616.58,0,0
32387.9,83.0334,-3586.11,0,0
32648.3,84.0817,-3558.61,0,0
32908.6,83.0649,-3532.09,0,0
33168.9,81.9127,-3504.43,0,0
33429.2,79.5599,-3476.81,0,0
33689.6,79.2172,-3449.91,0,0
33949.9,78.6294,-3423.75,0,0
34210.2,77.0044,-3397.42,0,0
34470.5,76.1419,-3370.86,0,0
34730.9,75.7202,-3345.1,0,0
34991.2,75.2248,-3319.75,0,0
35251.5,74.4322,-3295.06,0,0
35511.8,74.1256,-3270.34,0,0
35772.2,73.5451,-3246.22,0,0
36032.5,72.9759,-3222.48,0,0
36292.8,72.3751,-3198.88,0,0
36553.1,71.8343,-3175.5,0,0
36813.5,71.5464,-3152.92,0,0
37073.8,71.2323,-3130.18,0,0
37334.1,70.9873,-3107.89,0,0
37594.4,70.509,-3086.41,0,0
37854.8,70.3384,-3064.71,0,0
38115.1,69.7652,-3043.76,0,0
38375.4,69.0518,-3022.64,0,0
38635.7,68.8524,-3001.94,0,0
38896.1,68.4069,-2981.2,0,0
39156.4,68.0089,-2961.15,0,0
39416.7,67.6374,-2941.06,0,0
39677,67.2475,-2921.63,0,0
39937.4,66.8333,-2902.12,0,0
40197.7,66.5499,-2882.72,0,0
40458,66.2927,-2863.62,0,0
40718.3,66.0982,-2844.81,0,0
40978.7,65.9262,-2826.5,0,0
41239,65.8367,-2808.31,0,0
41499.3,65.578,-2790.61,0,0
41759.6,65.1655,-2772.65,0,0
42020,65.2466,-2755.01,0,0
42280.275,65.224,-2738.02,0,0
42540.6,64.5987,-2720.93,0,0
42800.925,64.1124,-2703.97,0,0
43061.25,64.0999,-2687.36,0,0
43321.575,63.5981,-2670.72,0,0
43581.9,63.3176,-2654.38,0,0
43842.225,63.3407,-2638.21,0,0
44102.55,62.9546,-2621.97,0,0
44362.875,63.0365,-2606.57,0,0
44623.2,62.3369,-2591.09,0,0
44883.525,62.1174,-2575.63,0,0
45143.85,62.0497,-2559.84,0,0
45404.175,62.1341,-2545.1,0,0
45664.5,61.5193,-2529.8,0,0
45924.825,62.0053,-2514.75,0,0
46185.15,62.1064,-2501.02,0,0
46445.475,61.3487,-2486.89,0,0
46705.8,60.9135,-2472.28,0,0
46966.125,60.8088,-2458.07,0,0
47226.45,60.8094,-2443.82,0,0
47486.775,60.9904,-2430.22,0,0
47747.1,60.7596,-2416.32,0,0
48007.425,60.7169,-2403.01,0,0
48267.75,61.6702,-2389.24,0,0
48528.075,62.1376,-2377.59,0,0
48788.4,61.0134,-2365.31,0,0
49048.725,60.3372,-2352.79,0,0
49309.05,59.6352,-2339.89,0,0
49569.375,58.9198,-2327.04,0,0
49829.7,58.7933,-2314.5,0,0
50090.025,58.4486,-2301.94,0,0
50350.35,58.028,-2289.55,0,0
50610.675,57.7909,-2277.01,0,0
50871.0,57.7305,-2265.08,0,0
51131.325,57.5653,-2253.19,0,0
51391.65,57.2385,-2241.71,0,0
51651.975,56.6846,-2230.2,0,0
51912.3,56.1821,-2218.18,0,0
52172.625,55.7274,-2206.52,0,0
52432.95,55.3981,-2194.99,0,0
52693.275,55.2126,-2183.5,0,0
52953.6,54.9724,-2172.12,0,0
53213.925,54.9035,-2160.84,0,0
53474.25,54.7104,-2149.8,0,0
53734.575,54.5631,-2138.84,0,0
53994.9,54.3086,-2127.71,0,0
54255.225,54.2718,-2116.9,0,0
54515.55,54.3658,-2106.1,0,0
54775.875,54.2344,-2095.72,0,0
55036.2,54.0605,-2085.13,0,0
55296.525,53.9867,-2074.64,0,0
55556.85,53.952,-2064.2,0,0
55817.175,54.0335,-2054.07,0,0
56077.5,53.9062,-2044.04,0,0
56337.825,53.8399,-2034.05,0,0
56598.15,53.7161,-2024.04,0,0
56858.475,53.8064,-2014.19,0,0
57118.8,53.9242,-2004.36,0,0
57379.125,53.815,-1994.72,0,0
57639.45,54.0356,-1985.14,0,0
57899.775,54.1301,-1975.76,0,0
58160.1,54.1558,-1966.46,0,0
58420.4,53.9589,-1957.06,0,0
58680.7,54.0645,-1947.48,0,0
58941.1,54.2162,-1938.4,0,0
59201.4,54.4073,-1929.09,0,0
59461.7,54.5944,-1920.06,0,0
59722,54.9132,-1911.05,0,0
59982.4,55.4709,-1902.1,0,0
60242.7,56.3595,-1893.76,0,0
60503,56.3486,-1885.69,0,0
60763.3,56.133,-1877.17,0,0
61023.7,56.2299,-1868.31,0,0
61284,57.3428,-1859.56,0,0
61544.3,58.5919,-1852.11,0,0
61804.6,59.2716,-1845,0,0
62065,59.072,-1838.6,0,0
62325.3,58.1262,-1831.17,0,0
62585.6,57.5614,-1823.21,0,0
62845.9,57.7931,-1816.05,0,0
63106.3,56.4817,-1808.98,0,0
63366.6,56.0072,-1800.51,0,0
63626.9,55.9367,-1793.43,0,0
63887.2,55.1875,-1786.04,0,0
64147.6,54.4507,-1778.69,0,0
64407.9,53.5441,-1770.84,0,0
64668.2,53.1297,-1763.03,0,0
64928.5,52.3711,-1755.71,0,0
65188.9,51.3469,-1747.65,0,0
65449.2,50.9965,-1739.5,0,0
65709.5,50.8413,-1731.42,0,0
65969.8,50.8482,-1723.76,0,0
66230.2,50.5484,-1715.92,0,0
66490.5,51.0049,-1708.18,0,0
66750.8,50.9229,-1700.93,0,0
67011.1,50.875,-1693.29,0,0
67271.5,51.2893,-1685.64,0,0
67531.8,51.9672,-1678.26,0,0
67792.1,52.7047,-1671.16,0,0
68052.4,53.3645,-1664.87,0,0
68312.8,53.1402,-1658.29,0,0
68573.1,53.7268,-1651.32,0,0
68833.4,54.248,-1644.93,0,0
69093.7,54.4439,-1638.54,0,0
69354.1,54.7954,-1632.21,0,0
69614.4,55.4694,-1626.02,0,0
69874.7,56.1828,-1620.43,0,0
70135,56.1645,-1615.45,0,0
70395.4,55.5105,-1610.29,0,0
70655.7,54.4692,-1604.51,0,0
70916,53.7177,-1598.3,0,0
71176.3,53.4166,-1592.58,0,0
71436.7,52.5134,-1586.97,0,0
71697,51.3213,-1581.17,0,0
71957.3,50.1084,-1574.99,0,0
72217.6,48.991,-1568.63,0,0
72478,47.948,-1561.96,0,0
72738.3,47.0799,-1555.35,0,0
72998.6,46.5411,-1548.39,0,0
73258.9,46.2147,-1541.9,0,0
73519.3,45.4976,-1535.41,0,0
73779.6,45.1339,-1528.52,0,0
74039.9,44.9958,-1521.78,0,0
74300.225,45.0943,-1515.23,0,0
74560.55,45.0805,-1508.88,0,0
74820.875,45.024,-1502.36,0,0
75081.2,45.2345,-1495.99,0,0
75341.525,45.5046,-1489.75,0,0
75601.85,45.7062,-1483.56,0,0
75862.175,46.0101,-1477.36,0,0
76122.5,46.5081,-1471.31,0,0
76382.825,46.9115,-1465.42,0,0
76643.15,47.3183,-1459.63,0,0
76903.475,47.69,-1453.8,0,0
77163.8,48.1515,-1447.99,0,0
77424.125,48.9001,-1442.29,0,0
77684.45,49.5734,-1436.93,0,0
77944.775,50.194,-1431.46,0,0
78205.1,51.1046,-1426.22,0,0
78465.425,51.9284,-1421.48,0,0
78725.75,52.5326,-1416.67,0,0
78986.075,52.9491,-1412.17,0,0
79246.4,53.131,-1407.76,0,0
79506.725,53.4851,-1403.2,0,0
79767.05,53.6667,-1399.26,0,0
80027.375,53.0957,-1395.24,0,0
80287.7,52.2917,-1390.81,0,0
80548.025,51.3676,-1386.12,0,0
80808.35,50.6085,-1380.98,0,0
81068.675,50.0577,-1375.85,0,0
81329.0,49.6121,-1370.64,0,0
81589.325,49.2784,-1365.61,0,0
81849.65,48.9204,-1360.51,0,0
82109.975,48.5215,-1355.34,0,0
82370.3,48.1968,-1350.11,0,0
82630.625,48.0617,-1344.86,0,0
82890.95,47.9745,-1339.61,0,0
83151.275,48.0745,-1334.36,0,0
83411.6,48.2222,-1329.3,0,0
83671.925,48.4012,-1324.39,0,0
83932.25,48.569,-1319.53,0,0
84192.575,48.7731,-1314.77,0,0
84452.9,48.8479,-1310.07,0,0
84713.225,48.8441,-1305.39,0,0
84973.55,48.9181,-1300.65,0,0
85233.875,48.9403,-1295.78,0,0
85494.2,49.2484,-1290.93,0,0
85754.525,49.5698,-1286.35,0,0
86014.85,49.8371,-1282,0,0
86275.175,49.9268,-1277.62,0,0
86535.5,49.9938,-1273.13,0,0
86795.825,50.1106,-1268.63,0,0
87056.15,50.2429,-1264.24,0,0
87316.475,50.4298,-1259.89,0,0
87576.8,50.4454,-1255.61,0,0
87837.125,50.5332,-1251.28,0,0
88097.45,50.5476,-1246.92,0,0
88357.775,50.8238,-1242.46,0,0
88618.1,50.9252,-1238.53,0,0
88878.425,50.6509,-1234.1,0,0
89138.75,50.8497,-1229.56,0,0
89399.075,51.1357,-1225.5,0,0
89659.4,51.0719,-1221.28,0,0
89919.725,51.4074,-1217.01,0,0
90180,51.5141,-1213.13,0,0
90440.4,51.2325,-1209.15,0,0
90700.7,50.9921,-1204.66,0,0
90961,51.2469,-1200.02,0,0
91221.3,51.7895,-1195.77,0,0
91481.7,52.1471,-1191.89,0,0
91742,52.1423,-1187.8,0,0
92002.3,52.4426,-1183.35,0,0
92262.6,52.9904,-1179.07,0,0
92523,53.8748,-1175.13,0,0
92783.3,54.5643,-1171.59,0,0
93043.6,54.9522,-1168.28,0,0
93303.9,55.1391,-1164.71,0,0
93564.3,55.6467,-1160.99,0,0
93824.6,56.1572,-1157.86,0,0
94084.9,56.0996,-1154.9,0,0
94345.2,55.7447,-1151.85,0,0
94605.6,55.2396,-1148.3,0,0
94865.9,54.9421,-1144.82,0,0
95126.2,54.3106,-1141.12,0,0
95386.5,53.6655,-1137.04,0,0
95646.9,53.3877,-1132.37,0,0
95907.2,54.0537,-1127.89,0,0
96167.5,54.992,-1124.02,0,0
96427.8,55.6441,-1120.77,0,0
96688.2,55.8774,-1117.33,0,0
96948.5,56.5395,-1113.83,0,0
97208.8,57.2926,-1110.8,0,0
97469.1,57.6497,-1108.26,0,0
97729.5,57.386,-1105.57,0,0
97989.8,57.0385,-1102.53,0,0
98250.1,56.9089,-1099.33,0,0
98510.4,56.7772,-1096.37,0,0
98770.8,56.5938,-1093.44,0,0
99031.1,56.1937,-1090.73,0,0
99291.4,55.5011,-1087.95,0,0
99551.7,54.3591,-1084.92,0,0
99812.1,53.3438,-1081.16,0,0
100072,52.8903,-1077.3,0,0
100333,52.7638,-1073.75,0,0
100593,52.5261,-1070.74,0,0
100853,51.6766,-1067.73,0,0
101114,50.6971,-1064.42,0,0
101374,49.4729,-1060.9,0,0
101634,48.2638,-1056.63,0,0
101895,47.7876,-1052.24,0,0
102155,47.4779,-1048.19,0,0
102415,47.1453,-1044.2,0,0
102676,46.7472,-1040.28,0,0
102936,46.271,-1036.11,0,0
103196,45.9146,-1031.79,0,0
103457,45.8094,-1027.39,0,0
103717,45.9109,-1022.94,0,0
103977,46.2718,-1018.48,0,0
104238,46.8784,-1014.33,0,0
104498,47.5107,-1010.21,0,0
104758,48.3141,-1006.28,0,0
105019,49.0589,-1002.51,0,0
105279,49.8617,-998.917,0,0
105539,50.5932,-995.297,0,0
105800,51.4535,-991.659,0,0
106060,52.5618,-988.147,0,0
106320.175,53.7561,-984.95,0,0
106580.5,54.889,-982.09,0,0
106840.825,55.8808,-979.317,0,0
107101.15,56.9278,-976.782,0,0
107361.475,57.7873,-974.739,0,0
107621.8,58.0975,-972.934,0,0
107882.125,57.8396,-970.682,0,0
108142.45,57.8812,-968.298,0,0
108402.775,57.7426,-965.996,0,0
108663.1,57.5104,-963.742,0,0
108923.425,56.8927,-961.425,0,0
109183.75,55.9682,-958.756,0,0
109444.075,55.4102,-955.772,0,0
109704.4,54.7787,-952.956,0,0
109964.725,53.924,-949.949,0,0
110225.05,53.0774,-946.61,0,0
110485.375,52.4678,-943.005,0,0
110745.7,52.0548,-939.517,0,0
111006.025,51.7111,-936.005,0,0
111266.35,51.4106,-932.37,0,0
111526.675,51.2939,-928.749,0,0
111787.0,51.2052,-925.183,0,0
112047.325,51.3048,-921.714,0,0
112307.65,51.2747,-918.283,0,0
112567.975,51.3272,-914.816,0,0
112828.3,51.4366,-911.266,0,0
113088.625,51.4728,-907.806,0,0
113348.95,51.6174,-904.253,0,0
113609.275,51.8988,-900.765,0,0
113869.6,52.0949,-897.329,0,0
114129.925,52.3877,-893.86,0,0
114390.25,52.6921,-890.389,0,0
114650.575,53.113,-886.935,0,0
114910.9,53.6348,-883.573,0,0
115171.225,54.2021,-880.323,0,0
115431.55,54.7029,-877.163,0,0
115691.875,55.0419,-873.947,0,0
115952.2,55.4428,-870.661,0,0
116212.525,55.914,-867.396,0,0
116472.85,56.5229,-864.102,0,0
116733.175,57.1916,-860.849,0,0
116993.5,57.8695,-857.695,0,0
117253.825,58.5211,-854.603,0,0
117514.15,59.2959,-851.444,0,0
117774.475,60.1809,-848.474,0,0
118034.8,60.8899,-845.662,0,0
118295.125,61.5525,-842.754,0,0
118555.45,62.2946,-839.777,0,0
118815.775,63.2518,-836.821,0,0
119076.1,64.281,-834.191,0,0
119336.425,65.1578,-831.708,0,0
119596.75,66.0081,-829.163,0,0
119857.075,66.9072,-826.751,0,0
120117.4,67.7053,-824.512,0,0
120377.725,68.4319,-822.333,0,0
120638.05,69.1141,-820.369,0,0
120898.375,69.3755,-818.558,0,0
121158.7,69.3898,-816.471,0,0
121419.025,69.4613,-814.182,0,0
121679.35,69.4951,-811.956,0,0
121939.675,69.4375,-809.58,0,0
122200.0,69.409,-807.125,0,0
122460,69.312,-804.606,0,0
122721,69.2834,-801.969,0,0
122981,69.306,-799.304,0,0
123241,69.4461,-796.61,0,0
123502,69.6011,-793.982,0,0
123762,69.6939,-791.409,0,0
124022,69.7617,-788.758,0,0
124283,69.8814,-786.125,0,0
124543,69.9685,-783.498,0,0
124803,69.9925,-780.905,0,0
125064,69.9756,-778.253,0,0
125324,69.9541,-775.507,0,0
125584,69.925,-772.657,0,0
125845,69.9923,-769.778,0,0
126105,70.0502,-766.92,0,0
126365,70.0286,-763.984,0,0
126626,70.1266,-760.898,0,0
126886,70.3662,-757.789,0,0
127146,70.6855,-754.71,0,0
127406,71.1205,-751.543,0,0
127667,71.5355,-748.454,0,0
127927,72.0417,-745.469,0,0
128187,72.5481,-742.462,0,0
128448,73.1331,-739.43,0,0
128708,73.8026,-736.418,0,0
128968,74.5427,-733.439,0,0
129229,75.3182,-730.565,0,0
129489,76.1424,-727.762,0,0
129749,76.9255,-724.951,0,0
130010,77.8084,-722.134,0,0
130270,78.8347,-719.366,0,0
130530,79.9177,-716.793,0,0
130791,81.0333,-714.399,0,0
131051,82.0366,-712.244,0,0
131311,82.8355,-710.133,0,0
131572,83.4766,-708.023,0,0
131832,84.1384,-705.882,0,0
132092,84.7248,-703.796,0,0
132353,85.1284,-701.718,0,0
132613,85.4757,-699.494,0,0
132873,85.8429,-697.219,0,0
133134,86.2429,-694.925,0,0
133394,86.6603,-692.685,0,0
133654,87.01,-690.463,0,0
133915,87.3399,-688.305,0,0
134175,87.491,-686.184,0,0
134435,87.5296,-683.949,0,0
134696,87.4331,-681.581,0,0
134956,87.3751,-679.054,0,0
135216,87.3698,-676.384,0,0
135477,87.4046,-673.671,0,0
135737,87.5334,-670.88,0,0
135997,87.6875,-668.066,0,0
136258,87.9279,-665.231,0,0
136518,88.1966,-662.482,0,0
136778,88.3935,-659.647,0,0
137039,88.6161,-656.687,0,0
137299,89.0088,-653.68,0,0
137559,89.4922,-650.781,0,0
137819,89.9377,-647.95,0,0
138080,90.3429,-645.168,0,0
138340.125,90.6628,-642.407,0,0
138600.45,90.8411,-639.511,0,0
138860.775,91.0884,-636.494,0,0
139121.1,91.3609,-633.363,0,0
139381.425,91.6902,-630.191,0,0
139641.75,92.0014,-626.98,0,0
139902.075,92.2968,-623.603,0,0
140162.4,92.791,-620.087,0,0
140422.725,93.3158,-616.577,0,0
140683.05,93.9163,-612.882,0,0
140943.375,94.7501,-609.066,0,0
141203.7,95.8136,-605.249,0,0
141464.025,97.1087,-601.468,0,0
141724.35,98.583,-597.804,0,0
141984.675,100.29,-594.268,0,0
142245.0,102.116,-591.067,0,0
142505.325,103.753,-588.144,0,0
142765.65,105.162,-585.234,0,0
143025.975,106.474,-582.229,0,0
143286.3,107.755,-579.092,0,0
143546.625,109.169,-575.798,0,0
143806.95,110.782,-572.564,0,0
144067.275,112.413,-569.459,0,0
144327.6,113.978,-566.384,0,0
144587.925,115.504,-563.233,0,0
144848.25,117.165,-559.966,0,0
145108.575,118.953,-556.779,0,0
145368.9,120.73,-553.633,0,0
145629.225,122.565,-550.532,0,0
145889.55,124.314,-547.448,0,0
146149.875,126.017,-544.215,0,0
146410.2,127.793,-540.87,0,0
146670.525,129.684,-537.374,0,0
146930.85,131.752,-533.789,0,0
147191.175,134.023,-530.177,0,0
147451.5,136.458,-526.599,0,0
147711.825,139.016,-523,0,0
147972.15,141.733,-519.35,0,0
148232.475,144.625,-515.635,0,0
148492.8,147.827,-511.873,0,0
148753.125,151.293,-508.124,0,0
149013.45,155.208,-504.362,0,0
149273.775,159.592,-500.902,0,0
149534.1,164.242,-497.777,0,0
149794.425,169.144,-495.023,0,0
150054.75,174.088,-492.596,0,0
150315.075,179.316,-490.261,0,0
150575.4,185.015,-488.478,0,0
150835.725,190.723,-487.476,0,0
151096.05,196.218,-486.902,0,0
151356.375,201.687,-486.684,0,0
151616.7,207.081,-486.988,0,0
151877.025,212.324,-487.814,0,0
152137.35,217.152,-489.236,0,0
152397.675,221.427,-490.881,0,0
152658.0,225.326,-492.668,0,0
152918.325,228.914,-494.509,0,0
153178.65,232.321,-496.539,0,0
153438.975,235.335,-498.924,0,0
153699.3,237.66,-501.338,0,0
153959.625,239.628,-503.573,0,0
154219.95,241.235,-505.686,0,0
154480,242.577,-507.521,0,0
154741,243.801,-509.029,0,0
155001,245.01,-510.517,0,0
155261,246.211,-511.865,0,0
155522,247.508,-513.22,0,0
155782,248.889,-514.819,0,0
156042,249.718,-516.582,0,0
156303,250.342,-518.276,0,0
156563,250.783,-519.913,0,0
156823,251.078,-521.637,0,0
157084,250.916,-523.167,0,0
157344,250.581,-524.5,0,0
157604,249.984,-525.647,0,0
157864,249.434,-526.423,0,0
158125,249.056,-527.166,0,0
158385,248.132,-528.015,0,0
158645,247.118,-528.423,0,0
158906,246.075,-528.634,0,0
159166,244.781,-528.498,0,0
159426,243.629,-527.844,0,0
159687,242.674,-526.893,0,0
159947,242.112,-525.52,0,0
160207,242.353,-524.439,0,0
160468,242.357,-523.797,0,0
160728,241.909,-522.806,0,0
160988,242.095,-521.059,0,0
161249,242.937,-519.715,0,0
161509,244.142,-518.568,0,0
161769,245.74,-517.68,0,0
162030,248.122,-517.534,0,0
162290,250.341,-519.128,0,0
162550,251.301,-521.409,0,0
162811,251.404,-523.853,0,0
163071,250.31,-526.364,0,0
163331,248.3,-528.278,0,0
163592,245.94,-529.241,0,0
163852,243.69,-529.672,0,0
164112,241.527,-530.021,0,0
164373,239.137,-530.257,0,0
164633,236.389,-530.253,0,0
164893,233.53,-529.986,0,0
165154,230.116,-529.416,0,0
165414,226.48,-527.773,0,0
165674,223.272,-525.402,0,0
165935,220.606,-522.738,0,0
166195,218.472,-520.001,0,0
166455,216.482,-517.327,0,0
166716,214.396,-514.79,0,0
166976,212.154,-511.853,0,0
167236,210.313,-508.916,0,0
167497,208.334,-505.747,0,0
167757,206.192,-502.295,0,0
168017,204.165,-498.413,0,0
168277,202.595,-493.923,0,0
168538,201.756,-489.289,0,0
168798,201.305,-485.024,0,0
169058,200.885,-480.964,0,0
169319,200.372,-476.874,0,0
169579,200.031,-472.521,0,0
169839,199.943,-468.086,0,0
170100,200.019,-463.562,0,0
170360.075,200.534,-459.197,0,0
170620.4,201.101,-455.078,0,0
170880.725,201.404,-451.082,0,0
171141.05,201.592,-446.56,0,0
171401.375,202.193,-441.806,0,0
171661.7,203.127,-437.127,0,0
171922.025,204.51,-432.427,0,0
172182.35,205.883,-428.077,0,0
172442.675,207.119,-423.523,0,0
172703.0,208.859,-418.762,0,0
172963.325,211.132,-414.423,0,0
173223.65,213.123,-410.644,0,0
173483.975,214.683,-406.687,0,0
173744.3,216.312,-402.444,0,0
174004.625,218.193,-397.918,0,0
174264.95,220.184,-393.42,0,0
174525.275,222.305,-388.568,0,0
174785.6,225.037,-383.594,0,0
175045.925,228.346,-378.861,0,0
175306.25,231.752,-374.421,0,0
175566.575,235.445,-370.178,0,0
175826.9,239.292,-366.301,0,0
176087.225,242.898,-362.507,0,0
176347.55,246.85,-358.524,0,0
176607.875,251.153,-354.751,0,0
176868.2,255.754,-351.331,0,0
177128.525,260.685,-348.25,0,0
177388.85,265.734,-345.913,0,0
177649.175,270.317,-344.238,0,0
177909.5,274.313,-342.537,0,0
178169.825,278.121,-340.544,0,0
178430.15,282.246,-338.306,0,0
178690.475,286.849,-336.514,0,0
178950.8,291.462,-335.435,0,0
179211.125,295.668,-334.7,0,0
179471.45,299.605,-334.611,0,0
179731.775,302.561,-334.925,0,0
179992.1,304.423,-334.886,0,0
180252.425,305.678,-333.842,0,0
180512.75,307.299,-332.073,0,0
180773.075,309.162,-330.188,0,0
181033.4,310.884,-328.209,0,0
181293.725,312.519,-325.946,0,0
181554.05,314.085,-323.013,0,0
181814.375,316.214,-319.679,0,0
182074.7,318.649,-317.65,0,0
182335.025,321.06,-314.333,0,0
182595.35,323.485,-311.095,0,0
182855.675,325.651,-307.642,0,0
183116.0,327.937,-303.607,0,0
183376.325,330.646,-299.037,0,0
183636.65,333.922,-294.016,0,0
183896.975,337.974,-289.014,0,0
184157.3,342.694,-284.097,0,0
184417.625,347.912,-279.387,0,0
184677.95,353.658,-275.215,0,0
184938.275,359.572,-271.411,0,0
185198.6,365.582,-268.088,0,0
185458.925,371.48,-265.099,0,0
185719.25,377.242,-262.047,0,0
185979.575,383.409,-259.031,0,0
186239.9,389.512,-256.478,0,0
186500,395.247,-254.147,0,0
186761,400.535,-251.345,0,0
187021,406.183,-247.497,0,0
187281,413.221,-243.45,0,0
187542,421.212,-240.438,0,0
187802,429.019,-238.466,0,0
188062,436.451,-236.627,0,0
188322,443.883,-235.063,0,0
188583,451.26,-233.745,0,0
188843,458.298,-232.587,0,0
189103,464.989,-231.397,0,0
189364,471.188,-229.682,0,0
189624,477.722,-227.368,0,0
189884,484.642,-224.475,0,0
190145,492.537,-221.177,0,0
190405,501.211,-218.181,0,0
190665,510.388,-215.337,0,0
190926,519.983,-212.89,0,0
191186,530.152,-210.339,0,0
191446,541.082,-208.391,0,0
191707,552.35,-207.202,0,0
191967,563.648,-206.241,0,0
192227,575.449,-205.352,0,0
192488,587.896,-204.847,0,0
192748,600.93,-204.918,0,0
193008,614.561,-205.561,0,0
193269,628.943,-207.133,0,0
193529,643.624,-210.082,0,0
193789,658.119,-214.095,0,0
194050,672.453,-219.096,0,0
194310,686.37,-224.879,0,0
194570,700.002,-231.133,0,0
194831,713.89,-238.025,0,0
195091,727.767,-246.061,0,0
195351,740.777,-255.538,0,0
195612,752.571,-265.402,0,0
195872,763.579,-275.069,0,0
196132,774.494,-284.497,0,0
196393,785.737,-294.037,0,0
196653,797.095,-304.35,0,0
196913,808.388,-315.281,0,0
197174,819.413,-327.09,0,0
197434,830.025,-339.466,0,0
197694,840.509,-352.484,0,0
197955,850.68,-366.578,0,0
198215,859.902,-381.556,0,0
198475,868.191,-397.053,0,0
198735,875.697,-412.858,0,0
198996,882.689,-429.021,0,0
199256,888.957,-445.961,0,0
199516,894.012,-463.318,0,0
199777,898.326,-480.911,0,0
200037,901.327,-498.402,0,0
200297,903.766,-515.781,0,0
200558,905.565,-533.44,0,0
200818,906.733,-551.419,0,0
201078,906.851,-569.769,0,0
201339,905.39,-588.095,0,0
201599,902.897,-606.019,0,0
201859,899.388,-623.411,0,0
202120,895.098,-640.362,0,0
202380.025,889.851,-656.686,0,0
202640.35,884.332,-672.511,0,0
202900.675,878.167,-688.173,0,0
203161.0,871.007,-703.411,0,0
203421.325,862.869,-717.748,0,0
203681.65,853.931,-730.671,0,0
203941.975,845.273,-742.24,0,0
204202.3,837.438,-753.101,0,0
204462.625,830.131,-764.102,0,0
204722.95,822.996,-775.682,0,0
204983.275,815.11,-787.864,0,0
205243.6,805.824,-800.071,0,0
205503.925,795.426,-811.401,0,0
205764.25,784.4,-821.572,0,0
206024.575,773.161,-830.747,0,0
206284.9,761.968,-839.091,0,0
206545.225,750.626,-846.894,0,0
206805.55,738.991,-853.956,0,0
207065.875,727.392,-859.998,0,0
207326.2,715.972,-865.557,0,0
207586.525,704.367,-870.216,0,0
207846.85,692.941,-873.603,0,0
208107.175,682.603,-875.812,0,0
208367.5,673.841,-877.952,0,0
208627.825,665.587,-880.435,0,0
208888.15,657.824,-883.194,0,0
209148.475,650.615,-886.313,0,0
209408.8,643.69,-890.181,0,0
209669.125,636.353,-895.023,0,0
209929.45,627.731,-899.96,0,0
210189.775,618.71,-904.379,0,0
210450.1,609.377,-908.452,0,0
210710.425,599.717,-912.448,0,0
210970.75,589.556,-916.052,0,0
211231.075,578.968,-919.052,0,0
211491.4,567.973,-921.454,0,0
211751.725,556.738,-923.001,0,0
212012.05,545.514,-923.396,0,0
212272.375,534.893,-922.885,0,0
212532.7,525.077,-922.072,0,0
212793.025,515.553,-921.216,0,0
213053.35,505.972,-920.126,0,0
213313.675,496.599,-918.434,0,0
213574.0,487.596,-916.247,0,0
213834.325,479.154,-913.754,0,0
214094.65,471.07,-911.124,0,0
214354.975,463.537,-908.484,0,0
214615.3,456.031,-905.76,0,0
214875.625,448.882,-902.858,0,0
215135.95,441.963,-899.87,0,0
215396.275,435.106,-896.784,0,0
215656.6,428.54,-893.348,0,0
215916.925,422.249,-889.66,0,0
216177.25,416.403,-885.817,0,0
216437.575,410.874,-881.991,0,0
216697.9,405.708,-878.038,0,0
216958.225,400.867,-874.055,0,0
217218.55,396.409,-870.072,0,0
217478.875,392.296,-866.184,0,0
217739.2,388.472,-862.414,0,0
217999.525,384.867,-858.724,0,0
218259.85,381.385,-855.139,0,0
218520,378.107,-851.538,0,0
218780,375.075,-847.936,0,0
219041,372.293,-844.518,0,0
219301,369.671,-841.18,0,0
219561,367.283,-837.938,0,0
219822,364.989,-834.835,0,0
220082,362.744,-831.874,0,0
220342,360.526,-829.045,0,0
220603,358.393,-826.103,0,0
220863,356.31,-823.042,0,0
221123,354.749,-819.897,0,0
221384,353.496,-817.026,0,0
221644,352.322,-814.425,0,0
221904,351.353,-812.025,0,0
222165,350.439,-809.766,0,0
222425,349.651,-807.828,0,0
222685,348.815,-806.088,0,0
222946,347.967,-804.638,0,0
223206,346.894,-803.38,0,0
223466,345.579,-802.191,0,0
223727,344.155,-800.872,0,0
223987,342.723,-799.362,0,0
224247,341.286,-797.748,0,0
224508,340.12,-796.09,0,0
224768,339.175,-794.532,0,0
225028,338.117,-793.104,0,0
225289,337.119,-791.656,0,0
225549,336.137,-790.142,0,0
225809,335.249,-788.687,0,0
226070,334.563,-787.199,0,0
226330,334.085,-785.73,0,0
226590,333.677,-784.42,0,0
226851,333.436,-783.262,0,0
227111,333.184,-782.232,0,0
227371,333.104,-781.22,0,0
227632,333.249,-780.348,0,0
227892,333.672,-779.746,0,0
228152,334.183,-779.626,0,0
228413,334.548,-779.884,0,0
228673,334.745,-780.472,0,0
228933,334.671,-781.344,0,0
229193,334.455,-782.367,0,0
229454,333.852,-783.597,0,0
229714,333.014,-784.812,0,0
229974,331.932,-786.116,0,0
230235,330.79,-787.217,0,0
230495,329.36,-788.392,0,0
230755,327.855,-789.524,0,0
231016,326.176,-790.64,0,0
231276,324.411,-791.615,0,0
231536,322.652,-792.597,0,0
231797,320.803,-793.699,0,0
232057,318.777,-794.805,0,0
232317,316.506,-795.923,0,0
232578,314.098,-796.852,0,0
232838,311.607,-797.646,0,0
233098,309.087,-798.427,0,0
233359,306.462,-799.124,0,0
233619,303.714,-799.713,0,0
233879,300.914,-800.153,0,0
234140,298.07,-800.462,0,0
234400,295.293,-800.689,0,0
234660.3,292.484,-800.916,0,0
234920.625,289.693,-801.028,0,0
235180.95,286.957,-801.133,0,0
235441.275,284.085,-801.152,0,0
235701.6,281.16,-801.185,0,0
235961.925,278.249,-801.116,0,0
236222.25,275.326,-801.005,0,0
236482.575,272.354,-800.905,0,0
236742.9,269.255,-800.702,0,0
237003.225,266.105,-800.407,0,0
237263.55,262.879,-799.997,0,0
237523.875,259.621,-799.414,0,0
237784.2,256.402,-798.626,0,0
238044.525,253.269,-797.708,0,0
238304.85,250.255,-796.704,0,0
238565.175,247.311,-795.715,0,0
238825.5,244.445,-794.729,0,0
239085.825,241.46,-793.748,0,0
239346.15,238.466,-792.651,0,0
239606.475,235.47,-791.464,0,0
239866.8,232.502,-790.179,0,0
240127.125,229.493,-788.744,0,0
240387.45,226.524,-787.289,0,0
240647.775,223.607,-785.611,0,0
240908.1,220.822,-783.899,0,0
241168.425,218.096,-782,0,0
241428.75,215.415,-780.064,0,0
241689.075,212.944,-777.974,0,0
241949.4,210.714,-775.81,0,0
242209.725,208.561,-773.667,0,0
242470.05,206.57,-771.559,0,0
242730.375,204.751,-769.427,0,0
242990.7,203.012,-767.366,0,0
243251.025,201.414,-765.319,0,0
243511.35,199.917,-763.346,0,0
243771.675,198.614,-761.439,0,0
244032.0,197.465,-759.634,0,0
244292.325,196.335,-758.063,0,0
244552.65,195.338,-756.643,0,0
244812.975,194.207,-755.459,0,0
245073.3,193.182,-754.345,0,0
245333.625,192.062,-753.419,0,0
245593.95,190.891,-752.709,0,0
245854.275,189.564,-752.106,0,0
246114.6,188.121,-751.79,0,0
246374.925,186.369,-751.635,0,0
246635.25,184.205,-751.53,0,0
246895.575,181.608,-751.236,0,0
247155.9,178.812,-750.62,0,0
247416.225,175.947,-749.797,0,0
247676.55,172.961,-748.761,0,0
247936.875,170.05,-747.482,0,0
248197.2,167.071,-746.064,0,0
248457.525,164.141,-744.485,0,0
248717.85,161.15,-742.784,0,0
248978.175,158.175,-740.975,0,0
249238.5,155.15,-738.929,0,0
249498.825,152.174,-736.763,0,0
249759.15,149.199,-734.404,0,0
250019.475,146.259,-731.807,0,0
250279.8,143.409,-729.043,0,0
250540,140.704,-726.119,0,0
250800,138.103,-723.024,0,0
251061,135.635,-719.734,0,0
251321,133.379,-716.314,0,0
251581,131.321,-712.741,0,0
251842,129.515,-709.099,0,0
252102,127.909,-705.416,0,0
252362,126.563,-701.746,0,0
252623,125.449,-698.128,0,0
252883,124.485,-694.632,0,0
253143,123.602,-691.249,0,0
253404,122.761,-687.86,0,0
253664,122.019,-684.516,0,0
253924,121.374,-681.181,0,0
254185,120.824,-677.913,0,0
254445,120.339,-674.687,0,0
254705,119.889,-671.436,0,0
254966,119.506,-668.204,0,0
255226,119.142,-665.049,0,0
255486,118.99,-661.73,0,0
255747,118.874,-658.498,0,0
256007,118.917,-655.299,0,0
256267,119.011,-652.132,0,0
256528,119.228,-649.038,0,0
256788,119.535,-645.937,0,0
257048,119.897,-642.889,0,0
257309,120.43,-639.88,0,0
257569,121.004,-636.995,0,0
257829,121.602,-634.144,0,0
258090,122.285,-631.34,0,0
258350,123.034,-628.582,0,0
258610,123.831,-625.879,0,0
258871,124.706,-623.197,0,0
259131,125.68,-620.542,0,0
259391,126.728,-617.933,0,0
259651,127.876,-615.403,0,0
259912,129.159,-612.969,0,0
260172,130.448,-610.606,0,0
260432,131.885,-608.393,0,0
260693,133.364,-606.281,0,0
260953,134.863,-604.241,0,0
261213,136.434,-602.323,0,0
261474,138.05,-600.547,0,0
261734,139.661,-598.886,0,0
261994,141.268,-597.379,0,0
262255,142.852,-595.969,0,0
262515,144.384,-594.666,0,0
262775,145.889,-593.402,0,0
263036,147.378,-592.209,0,0
263296,148.834,-591.051,0,0
263556,150.319,-589.966,0,0
263817,151.783,-588.966,0,0
264077,153.215,-588.001,0,0
264337,154.632,-587.043,0,0
264598,156.105,-586.168,0,0
264858,157.591,-585.328,0,0
265118,159.101,-584.582,0,0
265379,160.596,-584.034,0,0
265639,162.048,-583.544,0,0
265899,163.341,-583.124,0,0
266160,164.595,-582.67,0,0
266420,165.83,-582.245,0,0
266680.25,167.082,-581.806,0,0
266940.575,168.363,-581.416,0,0
267200.9,169.652,-581.049,0,0
267461.225,171.026,-580.785,0,0
267721.55,172.388,-580.606,0,0
267981.875,173.773,-580.547,0,0
268242.2,175.113,-580.629,0,0
268502.525,176.428,-580.921,0,0
268762.85,177.585,-581.378,0,0
269023.175,178.504,-581.926,0,0
269283.5,179.209,-582.51,0,0
269543.825,179.672,-583.002,0,0
269804.15,179.988,-583.365,0,0
270064.475,180.293,-583.543,0,0
270324.8,180.608,-583.608,0,0
270585.125,180.885,-583.711,0,0
270845.45,181.158,-583.691,0,0
271105.775,181.458,-583.681,0,0
271366.1,181.718,-583.658,0,0
271626.425,181.926,-583.559,0,0
271886.75,182.088,-583.358,0,0
272147.075,182.275,-583.026,0,0
272407.4,182.507,-582.575,0,0
272667.725,182.863,-582.011,0,0
272928.05,183.292,-581.37,0,0
273188.375,183.882,-580.625,0,0
273448.7,184.648,-579.833,0,0
273709.025,185.633,-579.011,0,0
273969.35,186.91,-578.239,0,0
274229.675,188.402,-577.591,0,0
274490.0,190.087,-577.095,0,0
274750.325,191.99,-576.818,0,0
275010.65,194.023,-576.768,0,0
275270.975,196.2,-576.94,0,0
275531.3,198.566,-577.442,0,0
275791.625,200.999,-578.325,0,0
276051.95,203.425,-579.702,0,0
276312.275,205.705,-581.555,0,0
276572.6,207.732,-583.812,0,0
276832.925,209.409,-586.371,0,0
277093.25,210.637,-589.187,0,0
277353.575,211.519,-592.076,0,0
277613.9,212.072,-595.022,0,0
277874.225,212.297,-598.041,0,0
278134.55,212.212,-601.103,0,0
278394.875,211.734,-604.18,0,0
278655.2,210.868,-607.139,0,0
278915.525,209.688,-609.846,0,0
279175.85,208.385,-612.396,0,0
279436.175,206.901,-614.736,0,0
279696.5,205.314,-617.048,0,0
279956.825,203.455,-619.196,0,0
280217.15,201.506,-621.123,0,0
280477.475,199.454,-622.815,0,0
280737.8,197.445,-624.345,0,0
280998.125,195.463,-625.807,0,0
281258.45,193.43,-627.27,0,0
281518.775,191.299,-628.755,0,0
281779.1,188.996,-630.21,0,0
282039.425,186.502,-631.581,0,0
282299.75,183.764,-632.824,0,0
282560,180.813,-633.854,0,0
282820,177.705,-634.598,0,0
283081,174.468,-634.997,0,0
283341,171.245,-635.013,0,0
283601,168.142,-634.652,0,0
283862,165.291,-634.015,0,0
284122,162.787,-633.245,0,0
284382,160.513,-632.601,0,0
284643,158.297,-632.099,0,0
284903,156.06,-631.713,0,0
285163,153.596,-631.331,0,0
285424,150.986,-630.876,0,0
285684,148.262,-630.243,0,0
285944,145.436,-629.436,0,0
286205,142.529,-628.426,0,0
286465,139.52,-627.139,0,0
286725,136.551,-625.561,0,0
286986,133.612,-623.679,0,0
287246,130.778,-621.475,0,0
287506,128.098,-618.975,0,0
287767,125.593,-616.198,0,0
288027,123.313,-613.143,0,0
288287,121.307,-609.806,0,0
288548,119.637,-606.2,0,0
288808,118.405,-602.4,0,0
289068,117.619,-598.466,0,0
289329,117.334,-594.545,0,0
289589,117.527,-590.671,0,0
289849,118.162,-587.006,0,0
290109,119.115,-583.592,0,0
290370,120.332,-580.367,0,0
290630,121.794,-577.323,0,0
290890,123.559,-574.442,0,0
291151,125.659,-571.828,0,0
291411,128.015,-569.504,0,0
291671,130.65,-567.55,0,0
291932,133.5,-565.99,0,0
292192,136.544,-564.922,0,0
292452,139.676,-564.431,0,0
292713,142.784,-564.571,0,0
292973,145.636,-565.366,0,0
293233,148.028,-566.728,0,0
293494,149.838,-568.421,0,0
293754,151.019,-570.22,0,0
294014,151.635,-571.964,0,0
294275,151.822,-573.511,0,0
294535,151.624,-574.754,0,0
294795,151.173,-575.639,0,0
295056,150.687,-576.047,0,0
295316,150.324,-576.023,0,0
295576,150.304,-575.685,0,0
295837,150.786,-575.183,0,0
296097,151.832,-574.778,0,0
296357,153.447,-574.783,0,0
296618,155.376,-575.536,0,0
296878,157.238,-577.12,0,0
297138,158.664,-579.44,0,0
297399,159.392,-582.22,0,0
297659,159.377,-585.173,0,0
297919,158.665,-588.017,0,0
298180,157.413,-590.573,0,0
298440,155.81,-592.775,0,0
298700.2,154.006,-594.634,0,0
298960.525,152.066,-596.207,0,0
299220.85,150.014,-597.539,0,0
299481.175,147.896,-598.639,0,0
299741.5,145.688,-599.523,0,0
300001.825,143.397,-600.126,0,0
300262.15,141.108,-600.467,0,0
300522.475,138.906,-600.537,0,0
300782.8,136.827,-600.401,0,0
301043.125,134.887,-600.095,0,0
301303.45,133.107,-599.678,0,0
301563.775,131.468,-599.183,0,0
301824.1,129.95,-598.639,0,0
302084.425,128.632,-598.049,0,0
302344.75,127.485,-597.492,0,0
302605.075,126.481,-597.057,0,0
302865.4,125.53,-596.774,0,0
303125.725,124.561,-596.603,0,0
303386.05,123.534,-596.522,0,0
303646.375,122.434,-596.494,0,0
303906.7,121.269,-596.481,0,0
304167.025,120.05,-596.499,0,0
304427.35,118.769,-596.503,0,0
304687.675,117.417,-596.522,0,0
304948.0,115.961,-596.55,0,0
305208.325,114.398,-596.499,0,0
305468.65,112.727,-596.36,0,0
305728.975,111.045,-596.102,0,0
305989.3,109.322,-595.744,0,0
306249.625,107.637,-595.271,0,0
306509.95,105.963,-594.717,0,0
306770.275,104.335,-594.106,0,0
307030.6,102.726,-593.425,0,0
307290.925,101.167,-592.7,0,0
307551.25,99.6302,-591.94,0,0
307811.575,98.1137,-591.158,0,0
308071.9,96.6388,-590.351,0,0
308332.225,95.1504,-589.523,0,0
308592.55,93.6341,-588.648,0,0
308852.875,92.1354,-587.699,0,0
309113.2,90.6747,-586.661,0,0
309373.525,89.2809,-585.588,0,0
309633.85,87.9518,-584.488,0,0
309894.175,86.6521,-583.394,0,0
310154.5,85.3736,-582.264,0,0
310414.825,84.1105,-581.148,0,0
310675.15,82.8842,-579.976,0,0
310935.475,81.6867,-578.768,0,0
311195.8,80.5349,-577.536,0,0
311456.125,79.4051,-576.294,0,0
311716.45,78.3631,-575.028,0,0
311976.775,77.3269,-573.768,0,0
312237.1,76.3242,-572.5,0,0
312497.425,75.3464,-571.244,0,0
312757.75,74.4197,-569.949,0,0
313018.075,73.4927,-568.678,0,0
313278.4,72.5926,-567.406,0,0
313538.725,71.7224,-566.14,0,0
313799.05,70.8606,-564.835,0,0
314059.375,70.0107,-563.526,0,0
314319.7,69.213,-562.192,0,0
314580,68.4503,-560.861,0,0
314840,67.7233,-559.548,0,0
315101,67.0136,-558.165,0,0
315361,66.3421,-556.92,0,0
315621,65.6585,-555.563,0,0
315882,65.0142,-554.213,0,0
316142,64.3232,-552.926,0,0
316402,63.673,-551.57,0,0
316663,63.0705,-550.271,0,0
316923,62.5277,-548.911,0,0
317183,61.9892,-547.575,0,0
317444,61.4193,-546.245,0,0
317704,61.0206,-544.856,0,0
317964,60.4765,-543.454,0,0
318225,60.0291,-542.088,0,0
318485,59.6356,-540.79,0,0
318745,59.2445,-539.49,0,0
319006,58.8453,-538.169,0,0
319266,58.5431,-536.891,0,0
319526,58.149,-535.606,0,0
319787,57.7336,-534.241,0,0
320047,57.4437,-533,0,0
320307,57.091,-531.726,0,0
320567,56.7895,-530.382,0,0
320828,56.4385,-529.033,0,0
321088,56.1597,-527.745,0,0
321348,55.9013,-526.408,0,0
321609,55.6145,-525.033,0,0
321869,55.3867,-523.767,0,0
322129,55.1454,-522.36,0,0
322390,55.0177,-521.019,0,0
322650,54.8709,-519.624,0,0
322910,54.6917,-518.26,0,0
323171,54.6016,-516.924,0,0
323431,54.4978,-515.547,0,0
323691,54.424,-514.121,0,0
323952,54.4396,-512.744,0,0
324212,54.4309,-511.284,0,0
324472,54.4623,-509.863,0,0
324733,54.6241,-508.39,0,0
324993,54.7779,-506.912,0,0
325253,55.0349,-505.51,0,0
325514,55.3819,-504.015,0,0
325774,55.8572,-502.73,0,0
326034,56.369,-501.323,0,0
326295,56.9492,-500.046,0,0
326555,57.6189,-498.891,0,0
326815,58.3143,-497.838,0,0
327076,59.0476,-496.869,0,0
327336,59.7225,-496.035,0,0
327596,60.4256,-495.208,0,0
327857,61.0357,-494.574,0,0
328117,61.5507,-493.946,0,0
328377,62.1063,-493.335,0,0
328638,62.6368,-492.683,0,0
328898,63.1574,-492.102,0,0
329158,63.6233,-491.498,0,0
329419,64.2063,-490.977,0,0
329679,64.718,-490.454,0,0
329939,65.2785,-490.016,0,0
330200,65.8046,-489.608,0,0
330460,66.2834,-489.313,0,0
330720.15,66.7708,-489.053,0,0
330980.475,67.2804,-488.853,0,0
331240.8,67.7198,-488.765,0,0
331501.125,68.1115,-488.708,0,0
331761.45,68.4835,-488.699,0,0
332021.775,68.6539,-488.802,0,0
332282.1,68.7762,-488.866,0,0
332542.425,68.7752,-489.057,0,0
332802.75,68.7309,-489.241,0,0
333063.075,68.4841,-489.293,0,0
333323.4,68.2392,-489.413,0,0
333583.725,67.8248,-489.352,0,0
333844.05,67.3526,-489.277,0,0
334104.375,66.9617,-489.175,0,0
334364.7,66.4286,-488.961,0,0
334625.025,65.9008,-488.699,0,0
334885.35,65.3612,-488.303,0,0
335145.675,64.9052,-487.928,0,0
335406.0,64.367,-487.467,0,0
335666.325,63.9016,-487.035,0,0
335926.65,63.4456,-486.453,0,0
336186.975,62.9073,-485.915,0,0
336447.3,62.4829,-485.386,0,0
336707.625,61.9997,-484.828,0,0
336967.95,61.6258,-484.203,0,0
337228.275,61.1713,-483.544,0,0
337488.6,60.7413,-482.861,0,0
337748.925,60.3658,-482.18,0,0
338009.25,60.0253,-481.469,0,0
338269.575,59.673,-480.755,0,0
338529.9,59.3253,-480.078,0,0
338790.225,58.9896,-479.406,0,0
339050.55,58.7205,-478.669,0,0
339310.875,58.3777,-477.952,0,0
339571.2,58.0505,-477.274,0,0
339831.525,57.7733,-476.531,0,0
340091.85,57.421,-475.836,0,0
340352.175,57.1866,-475.062,0,0
340612.5,56.8777,-474.269,0,0
340872.825,56.5698,-473.533,0,0
341133.15,56.2869,-472.773,0,0
341393.475,56.0124,-471.975,0,0
341653.8,55.7767,-471.165,0,0
341914.125,55.4513,-470.438,0,0
342174.45,55.1711,-469.533,0,0
342434.775,54.8984,-468.659,0,0
342695.1,54.6792,-467.835,0,0
342955.425,54.4652,-466.952,0,0
343215.75,54.2129,-465.985,0,0
343476.075,54.0246,-465.019,0,0
343736.4,53.8975,-464.139,0,0
343996.725,53.7476,-463.122,0,0
344257.05,53.6687,-462.208,0,0
344517.375,53.5712,-461.234,0,0
344777.7,53.561,-460.288,0,0
345038.025,53.5346,-459.329,0,0
345298.35,53.5767,-458.39,0,0
345558.675,53.4865,-457.42,0,0
345819.0,53.632,-456.488,0,0
346079.325,53.6879,-455.534,0,0
346339.65,53.8008,-454.543,0,0
346599.975,53.8823,-453.684,0,0
346860,54.0524,-452.764,0,0
347121,54.2146,-451.816,0,0
347381,54.3696,-450.972,0,0
347641,54.5611,-450.087,0,0
347902,54.7996,-449.216,0,0
348162,55.0005,-448.354,0,0
348422,55.2758,-447.457,0,0
348683,55.5937,-446.691,0,0
348943,55.8992,-445.806,0,0
349203,56.1778,-445.075,0,0
349464,56.5216,-444.319,0,0
349724,56.8513,-443.606,0,0
349984,57.2471,-442.908,0,0
350245,57.6255,-442.262,0,0
350505,57.9967,-441.606,0,0
350765,58.3662,-440.901,0,0
351025,58.7491,-440.39,0,0
351286,59.1061,-439.821,0,0
351546,59.4523,-439.355,0,0
351806,59.7693,-438.865,0,0
352067,60.0738,-438.379,0,0
352327,60.3159,-437.974,0,0
352587,60.5174,-437.48,0,0
352848,60.7807,-437.009,0,0
353108,60.9306,-436.493,0,0
353368,61.1413,-436.021,0,0
353629,61.3512,-435.441,0,0
353889,61.5716,-434.928,0,0
354149,61.8454,-434.364,0,0
354410,62.0814,-433.812,0,0
354670,62.334,-433.302,0,0
354930,62.594,-432.74,0,0
355191,62.9085,-432.211,0,0
355451,63.1151,-431.669,0,0
355711,63.4001,-431.174,0,0
355972,63.7081,-430.644,0,0
356232,64.0652,-430.119,0,0
356492,64.3689,-429.57,0,0
356753,64.771,-429.067,0,0
357013,65.1313,-428.575,0,0
357273,65.5306,-428.124,0,0
357534,66.0106,-427.648,0,0
357794,66.4467,-427.241,0,0
358054,66.9338,-426.91,0,0
358315,67.3826,-426.575,0,0
358575,67.7975,-426.28,0,0
358835,68.2709,-426.021,0,0
359096,68.7184,-425.747,0,0
359356,69.1347,-425.608,0,0
359616,69.5343,-425.461,0,0
359877,69.9394,-425.267,0,0
360137,70.363,-425.201,0,0
360397,70.6991,-425.116,0,0
360658,71.0188,-425.078,0,0
360918,71.3344,-425.081,0,0
361178,71.5874,-425.075,0,0
361438,71.7539,-425.06,0,0
361699,71.9748,-425.076,0,0
361959,72.1241,-425.065,0,0
362219,72.2609,-425.084,0,0
362480,72.3509,-425.101,0,0
362740.1,72.3964,-425.079,0,0
363000.425,72.4585,-425.053,0,0
363260.75,72.4732,-425.041,0,0
363521.075,72.4612,-425.02,0,0
363781.4,72.4485,-424.908,0,0
364041.725,72.3805,-424.828,0,0
364302.05,72.3905,-424.744,0,0
364562.375,72.3099,-424.601,0,0
364822.7,72.2245,-424.461,0,0
365083.025,72.2433,-424.267,0,0
365343.35,72.1316,-424.121,0,0
365603.675,72.1089,-423.935,0,0
365864.0,72.0935,-423.761,0,0
366124.325,72.0765,-423.554,0,0
366384.65,71.9954,-423.274,0,0
366644.975,72.0089,-423.045,0,0
366905.3,72.0238,-422.816,0,0
367165.625,72.0135,-422.555,0,0
367425.95,72.0353,-422.329,0,0
367686.275,72.0946,-422.043,0,0
367946.6,72.1728,-421.794,0,0
368206.925,72.2915,-421.589,0,0
368467.25,72.439,-421.315,0,0
368727.575,72.6592,-421.199,0,0
368987.9,72.8367,-421.065,0,0
369248.225,73.0491,-421.056,0,0
369508.55,73.2108,-420.994,0,0
369768.875,73.3697,-421.093,0,0
370029.2,73.4486,-421.188,0,0
370289.525,73.4266,-421.345,0,0
370549.85,73.3341,-421.486,0,0
370810.175,73.2636,-421.609,0,0
371070.5,73.038,-421.639,0,0
371330.825,72.8796,-421.666,0,0
371591.15,72.6719,-421.614,0,0
371851.475,72.4835,-421.557,0,0
372111.8,72.3357,-421.532,0,0
372372.125,72.1879,-421.401,0,0
372632.45,72.0495,-421.278,0,0
372892.775,71.9453,-421.285,0,0
373153.1,71.8022,-421.231,0,0
373413.425,71.6749,-421.207,0,0
373673.75,71.511,-421.237,0,0
373934.075,71.3778,-421.263,0,0
374194.4,71.1756,-421.262,0,0
374454.725,70.9393,-421.337,0,0
374715.05,70.675,-421.321,0,0
374975.375,70.334,-421.389,0,0
375235.7,69.9913,-421.38,0,0
375496.025,69.6484,-421.353,0,0
375756.35,69.2801,-421.301,0,0
376016.675,68.9089,-421.207,0,0
376277.0,68.5225,-421.114,0,0
376537.325,68.1858,-421.005,0,0
376797.65,67.8361,-420.902,0,0
377057.975,67.4757,-420.785,0,0
377318.3,67.1278,-420.692,0,0
377578.625,66.7343,-420.55,0,0
377838.95,66.3653,-420.5,0,0
378099.275,65.9104,-420.445,0,0
378359.6,65.4547,-420.316,0,0
378619.925,64.9547,-420.25,0,0
378880,64.4157,-420.162,0,0
379141,63.7752,-420.066,0,0
379401,63.0539,-419.851,0,0
379661,62.3138,-419.611,0,0
379922,61.5948,-419.173,0,0
380182,60.8016,-418.618,0,0
380442,60.1608,-417.94,0,0
380703,59.5893,-417.183,0,0
380963,59.2002,-416.35,0,0
381223,59.0122,-415.533,0,0
381483,58.9087,-414.826,0,0
381744,58.9504,-414.217,0,0
382004,58.9972,-413.726,0,0
382264,59.0119,-413.41,0,0
382525,58.974,-413.191,0,0
382785,58.8836,-413.01,0,0
383045,58.6947,-412.896,0,0
383306,58.4359,-412.792,0,0
383566,58.1123,-412.69,0,0
383826,57.7262,-412.536,0,0
384087,57.1771,-412.347,0,0
384347,56.7054,-412.162,0,0
384607,56.1399,-411.815,0,0
384868,55.5365,-411.495,0,0
385128,54.9888,-411.09,0,0
385388,54.464,-410.643,0,0
385649,53.8977,-410.153,0,0
385909,53.3365,-409.612,0,0
386169,52.8228,-409.015,0,0
386430,52.3688,-408.468,0,0
386690,51.8641,-407.802,0,0
386950,51.4749,-407.199,0,0
387211,51.0886,-406.515,0,0
387471,50.7091,-405.868,0,0
387731,50.3309,-405.248,0,0
387992,49.9702,-404.547,0,0
388252,49.6397,-403.889,0,0
388512,49.295,-403.188,0,0
388773,48.9866,-402.434,0,0
389033,48.7528,-401.71,0,0
389293,48.4942,-400.974,0,0
389554,48.3383,-400.283,0,0
389814,48.181,-399.538,0,0
390074,48.1273,-398.818,0,0
390335,48.0417,-398.154,0,0
390595,47.9718,-397.498,0,0
390855,47.9996,-396.919,0,0
391116,47.958,-396.363,0,0
391376,47.9889,-395.854,0,0
391636,47.9346,-395.423,0,0
391896,47.8539,-395.032,0,0
392157,47.7259,-394.693,0,0
392417,47.5428,-394.361,0,0
392677,47.2724,-394.005,0,0
392938,46.9876,-393.64,0,0
393198,46.587,-393.2,0,0
393458,46.19,-392.785,0,0
393719,45.7942,-392.263,0,0
393979,45.3436,-391.699,0,0
394239,44.8856,-391.11,0,0
394500,44.4597,-390.445,0,0
394760.05,44.0476,-389.712,0,0
395020.375,43.6337,-388.911,0,0
395280.7,43.2616,-388.126,0,0
395541.025,42.9338,-387.264,0,0
395801.35,42.6531,-386.435,0,0
396061.675,42.4158,-385.538,0,0
396322.0,42.2515,-384.632,0,0
396582.325,42.0634,-383.717,0,0
396842.65,41.9511,-382.818,0,0
397102.975,41.8692,-381.912,0,0
397363.3,41.7766,-381.03,0,0
397623.625,41.7742,-380.126,0,0
397883.95,41.8062,-379.226,0,0
398144.275,41.8048,-378.365,0,0
398404.6,41.8879,-377.501,0,0
398664.925,41.9589,-376.655,0,0
398925.25,42.068,-375.817,0,0
399185.575,42.1833,-375.037,0,0
399445.9,42.3553,-374.243,0,0
399706.225,42.4746,-373.462,0,0
399966.55,42.7052,-372.716,0,0
400006.6,42.6853,-372.628,0,0