File: Accelerated corrosion test data/2025-10-19_06-00-03/sample_1.csv
Frequency (Hz),Impedance (ohms),Phase (Radians),Temperature (C),Humidity (%)
10000.0,244.936,-12310.6,0,0
10260.325,250.269,-11992.6,0,0
10520.65,233.911,-11711,0,0
10780.975,230.819,-11424.7,0,0
11041.3,223.895,-11163,0,0
11301.625,218.052,-10903.9,0,0
11561.95,214.126,-10657.8,0,0
11822.275,212.703,-10416.2,0,0
12082.6,239.619,-10184.4,0,0
12342.925,214.012,-10009.5,0,0
12603.25,198.048,-9794.07,0,0
12863.575,194.636,-9590.41,0,0
13123.9,208.891,-9398.01,0,0
13384.225,188.355,-9224.63,0,0
13644.55,185.088,-9042.17,0,0
13904.875,186.966,-8860.76,0,0
14165.2,190.659,-8723.87,0,0
14425.525,217.383,-8565.44,0,0
14685.8,214.179,-8392.53,0,0
14946.175,180.154,-8288.28,0,0
15206.5,193.144,-8124.03,0,0
15466.825,176.184,-8009.82,0,0
15727.15,175.352,-7877.72,0,0
15987.5,162.803,-7746.2,0,0
16247.8,159.558,-7618.78,0,0
16508.125,157.696,-7494.61,0,0
16768.45,161.296,-7375.67,0,0
17028.775,166.505,-7267.02,0,0
17289.1,156.83,-7162.96,0,0
17549.425,154.129,-7058.6,0,0
17809.75,149.022,-6952.95,0,0
18070.075,150.695,-6854.08,0,0
18330.4,144.661,-6755.67,0,0
18590.725,140.097,-6661.32,0,0
18851.05,141.381,-6561.94,0,0
19111.375,137.654,-6480.24,0,0
19371.7,135.148,-6387.25,0,0
19632.025,134.554,-6297.36,0,0
19892.35,139.526,-6210.85,0,0
20152.675,138.326,-6122.31,0,0
20413.0,160.556,-6031.86,0,0
20673.3,173.393,-5992.96,0,0
20933.65,151.132,-5923.72,0,0
21193.975,166.932,-5859.7,0,0
21454.3,144.182,-5788.82,0,0
21714.625,137.011,-5713.34,0,0
21974.9,143.964,-5630.86,0,0
22235.275,179.93,-5590.53,0,0
22495.6,144.026,-5548.8,0,0
22755.925,129.164,-5478.26,0,0
23016.25,124.243,-5410.37,0,0
23276.6,120.902,-5348.11,0,0
23536.9,117.646,-5286.65,0,0
23797.225,115.07,-5224.69,0,0
24057.55,117.179,-5163.59,0,0
24317.875,114.669,-5114.91,0,0
24578.2,112.945,-5054.61,0,0
24838.525,112.567,-5003.82,0,0
25098.85,112.618,-4949.66,0,0
25359.175,108.033,-4899.95,0,0
25619.5,106.846,-4847.78,0,0
25879.8,105.056,-4796.29,0,0
26140.1,105.212,-4746.29,0,0
26400.5,104.651,-4695.59,0,0
26660.8,106.923,-4644.88,0,0
26921.1,117.209,-4595.03,0,0
27181.4,125.386,-4565.77,0,0
27441.8,112.594,-4529.98,0,0
27702.1,105.515,-4480,0,0
27962.4,113.487,-4429.62,0,0
28222.7,113.298,-4391.41,0,0
28483.1,122.938,-4346.84,0,0
28743.4,135.17,-4328.84,0,0
29003.7,120.041,-4291.71,0,0
29264,122.446,-4258.83,0,0
29524.4,110.605,-4226.16,0,0
29784.7,108.426,-4181.79,0,0
30045,104.045,-4150.75,0,0
30305.3,101.803,-4110.92,0,0
30565.7,98.7003,-4072.45,0,0
30826,102.479,-4034.73,0,0
31086.3,107.288,-4008.87,0,0
31346.6,101.66,-3978.24,0,0
31607,95.6967,-3940.95,0,0
31867.3,101.157,-3907.65,0,0
32127.6,99.3989,-3877.61,0,0
32387.9,99.6457,-3849.94,0,0
32648.3,95.4847,-3817.52,0,0
32908.6,97.7551,-3789.49,0,0
33168.9,92.5885,-3761.63,0,0
33429.2,89.9961,-3731.43,0,0
33689.6,87.925,-3701.5,0,0
33949.9,87.1509,-3670.18,0,0
34210.2,88.3626,-3643.68,0,0
34470.5,85.5101,-3616.97,0,0
34730.9,83.7423,-3588.62,0,0
34991.2,82.9824,-3561.16,0,0
35251.5,82.0273,-3534.34,0,0
35511.8,80.9249,-3507.59,0,0
35772.2,80.611,-3482.04,0,0
36032.5,79.2448,-3456.29,0,0
36292.8,78.9209,-3430.59,0,0
36553.1,77.877,-3405.59,0,0
36813.5,77.6253,-3380.66,0,0
37073.8,77.2718,-3356.66,0,0
37334.1,76.5908,-3332.78,0,0
37594.4,76.4947,-3309.06,0,0
37854.8,75.5938,-3286.51,0,0
38115.1,74.6313,-3263.21,0,0
38375.4,74.6451,-3239.97,0,0
38635.7,74.2317,-3218.24,0,0
38896.1,73.6453,-3195.65,0,0
39156.4,73.9277,-3173.63,0,0
39416.7,73.4239,-3153.16,0,0
39677,72.354,-3131.46,0,0
39937.4,72.4554,-3110.3,0,0
40197.7,72.3514,-3089.58,0,0
40458,72.1262,-3069.02,0,0
40718.3,72.3848,-3048.11,0,0
40978.7,74.0594,-3028.82,0,0
41239,74.0505,-3010.79,0,0
41499.3,73.0773,-2992.7,0,0
41759.6,72.0234,-2973.66,0,0
42020,71.5813,-2953.89,0,0
42280.275,71.5744,-2935.44,0,0
42540.6,72.566,-2918.08,0,0
42800.925,71.1032,-2901.1,0,0
43061.25,70.6433,-2882.4,0,0
43321.575,70.098,-2865.27,0,0
43581.9,69.5525,-2847.86,0,0
43842.225,68.6841,-2829.88,0,0
44102.55,69.0835,-2812.45,0,0
44362.875,69.8464,-2794.99,0,0
44623.2,70.2387,-2779.65,0,0
44883.525,69.3121,-2764.17,0,0
45143.85,69.9164,-2747.73,0,0
45404.175,69.7934,-2732.54,0,0
45664.5,68.7907,-2717.24,0,0
45924.825,67.9203,-2701.63,0,0
46185.15,66.8664,-2686.26,0,0
46445.475,66.1997,-2669.94,0,0
46705.8,66.4051,-2654.86,0,0
46966.125,66.2454,-2640.6,0,0
47226.45,65.654,-2624.99,0,0
47486.775,65.5808,-2610.51,0,0
47747.1,65.2339,-2596.33,0,0
48007.425,64.7782,-2582.11,0,0
48267.75,64.5172,-2567.98,0,0
48528.075,63.3553,-2554.42,0,0
48788.4,62.6777,-2539.79,0,0
49048.725,62.5739,-2525.71,0,0
49309.05,62.5374,-2511.87,0,0
49569.375,62.2773,-2498.62,0,0
49829.7,61.8915,-2485.67,0,0
50090.025,61.0157,-2471.97,0,0
50350.35,60.5154,-2458.46,0,0
50610.675,60.4328,-2445.2,0,0
50871.0,60.4419,-2432.22,0,0
51131.325,60.2172,-2419.39,0,0
51391.65,60.1161,-2406.84,0,0
51651.975,59.4982,-2394.48,0,0
51912.3,59.2085,-2381.78,0,0
52172.625,58.9906,-2369.32,0,0
52432.95,58.9325,-2357.06,0,0
52693.275,58.7619,-2345.15,0,0
52953.6,58.6189,-2332.95,0,0
53213.925,58.6396,-2321.15,0,0
53474.25,58.2885,-2309.74,0,0
53734.575,58.1734,-2297.95,0,0
53994.9,58.0874,-2286.74,0,0
54255.225,57.5232,-2275.52,0,0
54515.55,57.163,-2263.98,0,0
54775.875,56.8308,-2252.7,0,0
55036.2,56.5586,-2241.34,0,0
55296.525,56.6628,-2230.34,0,0
55556.85,56.4013,-2219.53,0,0
55817.175,56.1492,-2208.8,0,0
56077.5,55.7475,-2197.94,0,0
56337.825,55.684,-2187.11,0,0
56598.15,55.6199,-2176.42,0,0
56858.475,55.5762,-2165.94,0,0
57118.8,55.3448,-2155.61,0,0
57379.125,55.3152,-2145.19,0,0
57639.45,55.3647,-2135.12,0,0
57899.775,55.2761,-2124.95,0,0
58160.1,55.2595,-2114.99,0,0
58420.4,55.1466,-2105.18,0,0
58680.7,55.0218,-2095.41,0,0
58941.1,54.9483,-2085.4,0,0
59201.4,55.1207,-2075.73,0,0
59461.7,55.0178,-2066.52,0,0
59722,54.8461,-2056.99,0,0
59982.4,54.7863,-2047.53,0,0
60242.7,54.7478,-2038.18,0,0
60503,54.9221,-2028.78,0,0
60763.3,55.2087,-2020.15,0,0
61023.7,54.6874,-2011.58,0,0
61284,54.0508,-2002.32,0,0
61544.3,53.8847,-1993.09,0,0
61804.6,54.134,-1984.22,0,0
62065,53.7937,-1975.77,0,0
62325.3,53.3813,-1966.79,0,0
62585.6,53.1943,-1957.94,0,0
62845.9,53.1893,-1949.1,0,0
63106.3,53.315,-1940.37,0,0
63366.6,53.1766,-1931.89,0,0
63626.9,53.0436,-1923.38,0,0
63887.2,53.1218,-1914.76,0,0
64147.6,53.2768,-1906.37,0,0
64407.9,53.4646,-1897.67,0,0
64668.2,53.6699,-1889.39,0,0
64928.5,54.0591,-1881.06,0,0
65188.9,54.6843,-1872.98,0,0
65449.2,55.5275,-1865.38,0,0
65709.5,56.1791,-1858.32,0,0
65969.8,55.8575,-1851.57,0,0
66230.2,55.5688,-1844.02,0,0
66490.5,55.5115,-1836.8,0,0
66750.8,55.3826,-1829.58,0,0
67011.1,54.7252,-1822.25,0,0
67271.5,54.1665,-1814.36,0,0
67531.8,54.8406,-1806.52,0,0
67792.1,55.1852,-1799.89,0,0
68052.4,54.6798,-1793.57,0,0
68312.8,53.7208,-1786.23,0,0
68573.1,53.4316,-1778.5,0,0
68833.4,53.6622,-1771.17,0,0
69093.7,53.5433,-1764.37,0,0
69354.1,53.3304,-1757.34,0,0
69614.4,53.2531,-1750.67,0,0
69874.7,52.8842,-1743.77,0,0
70135,52.7293,-1737.19,0,0
70395.4,52.0047,-1730.48,0,0
70655.7,51.3958,-1723.37,0,0
70916,51.095,-1716.29,0,0
71176.3,50.9343,-1709.31,0,0
71436.7,50.8448,-1702.57,0,0
71697,50.3988,-1696.14,0,0
71957.3,49.7804,-1689.23,0,0
72217.6,49.3106,-1682.33,0,0
72478,49.1162,-1675.28,0,0
72738.3,48.9944,-1668.37,0,0
72998.6,49.0029,-1661.55,0,0
73258.9,48.9865,-1654.96,0,0
73519.3,48.7932,-1648.4,0,0
73779.6,48.6723,-1641.72,0,0
74039.9,48.6121,-1634.96,0,0
74300.225,48.6562,-1628.52,0,0
74560.55,48.6745,-1621.91,0,0
74820.875,48.915,-1615.49,0,0
75081.2,49.056,-1609.21,0,0
75341.525,49.0245,-1602.97,0,0
75601.85,48.9931,-1596.58,0,0
75862.175,49.1851,-1590.19,0,0
76122.5,49.421,-1583.95,0,0
76382.825,49.7104,-1577.93,0,0
76643.15,49.8916,-1571.94,0,0
76903.475,50.0173,-1565.86,0,0
77163.8,50.2076,-1559.84,0,0
77424.125,50.4261,-1554.01,0,0
77684.45,50.6448,-1548.16,0,0
77944.775,50.8179,-1542.26,0,0
78205.1,51.1714,-1536.26,0,0
78465.425,51.8377,-1530.68,0,0
78725.75,52.2979,-1525.48,0,0
78986.075,52.4461,-1520.27,0,0
79246.4,52.4728,-1515.11,0,0
79506.725,52.3646,-1509.98,0,0
79767.05,52.0149,-1504.64,0,0
80027.375,51.8202,-1499.13,0,0
80287.7,51.6468,-1493.84,0,0
80548.025,51.2354,-1488.26,0,0
80808.35,51.071,-1482.7,0,0
81068.675,50.9839,-1477.08,0,0
81329.0,50.8907,-1471.43,0,0
81589.325,50.9204,-1465.85,0,0
81849.65,51.092,-1460.29,0,0
82109.975,51.1863,-1454.92,0,0
82370.3,51.3722,-1449.51,0,0
82630.625,51.4072,-1444.23,0,0
82890.95,51.4456,-1438.79,0,0
83151.275,51.6136,-1433.35,0,0
83411.6,51.9241,-1427.97,0,0
83671.925,52.0922,-1422.77,0,0
83932.25,52.3451,-1417.48,0,0
84192.575,52.7118,-1412.17,0,0
84452.9,53.1475,-1407.07,0,0
84713.225,53.5042,-1402.05,0,0
84973.55,53.8895,-1397,0,0
85233.875,54.4283,-1392.02,0,0
85494.2,54.8471,-1387.35,0,0
85754.525,54.9904,-1382.73,0,0
86014.85,55.1511,-1377.92,0,0
86275.175,55.3446,-1373.03,0,0
86535.5,55.6403,-1368.37,0,0
86795.825,55.7347,-1363.64,0,0
87056.15,55.8617,-1358.73,0,0
87316.475,56.3797,-1354.1,0,0
87576.8,56.4554,-1349.63,0,0
87837.125,56.3915,-1344.92,0,0
88097.45,56.3602,-1340.04,0,0
88357.775,56.4145,-1335.15,0,0
88618.1,56.7038,-1330.04,0,0
88878.425,57.1966,-1325.27,0,0
89138.75,57.4559,-1320.23,0,0
89399.075,57.9878,-1315.33,0,0
89659.4,58.6248,-1310.54,0,0
89919.725,59.3131,-1305.73,0,0
90180,60.0424,-1301.29,0,0
90440.4,60.5032,-1296.51,0,0
90700.7,61.2109,-1291.85,0,0
90961,62.0289,-1287.06,0,0
91221.3,63.4006,-1282.12,0,0
91481.7,64.8969,-1278.07,0,0
91742,65.8869,-1274.02,0,0
92002.3,66.9258,-1269.76,0,0
92262.6,68.3093,-1265.51,0,0
92523,69.7771,-1261.62,0,0
92783.3,71.6917,-1257.73,0,0
93043.6,73.5785,-1254.85,0,0
93303.9,75.1192,-1251.89,0,0
93564.3,77.1028,-1249.09,0,0
93824.6,79.7961,-1248.05,0,0
94084.9,79.7777,-1248.87,0,0
94345.2,77.4686,-1248,0,0
94605.6,75.1947,-1245.23,0,0
94865.9,73.7028,-1242.34,0,0
95126.2,71.877,-1238.57,0,0
95386.5,70.7515,-1234.82,0,0
95646.9,69.4652,-1231.1,0,0
95907.2,68.0854,-1226.81,0,0
96167.5,67.4164,-1221.92,0,0
96427.8,67.7086,-1217.61,0,0
96688.2,67.6935,-1214.25,0,0
96948.5,66.791,-1210.51,0,0
97208.8,66.2638,-1206.34,0,0
97469.1,65.8509,-1202.19,0,0
97729.5,65.5885,-1198.02,0,0
97989.8,65.4059,-1193.86,0,0
98250.1,65.582,-1189.68,0,0
98510.4,65.7686,-1186.06,0,0
98770.8,65.4073,-1182.47,0,0
99031.1,65.0351,-1178.46,0,0
99291.4,64.8802,-1174.46,0,0
99551.7,64.742,-1170.5,0,0
99812.1,64.6249,-1166.5,0,0
100072,64.5691,-1162.7,0,0
100333,64.198,-1158.86,0,0
100593,63.9213,-1154.64,0,0
100853,63.8801,-1150.45,0,0
101114,63.9245,-1146.36,0,0
101374,63.896,-1142.36,0,0
101634,63.7283,-1138.23,0,0
101895,63.4661,-1133.83,0,0
102155,63.543,-1129.12,0,0
102415,64.0031,-1124.35,0,0
102676,64.8645,-1119.74,0,0
102936,65.9091,-1115.55,0,0
103196,66.7038,-1111.49,0,0
103457,67.5176,-1107.33,0,0
103717,68.4553,-1103.24,0,0
103977,69.6585,-1099,0,0
104238,71.3199,-1095.03,0,0
104498,72.9513,-1091.74,0,0
104758,74.1449,-1088.7,0,0
105019,75.079,-1085.74,0,0
105279,75.7493,-1082.44,0,0
105539,76.6675,-1078.75,0,0
105800,77.9284,-1075.31,0,0
106060,79.2264,-1072,0,0
106320.175,80.718,-1068.9,0,0
106580.5,82.1412,-1066.13,0,0
106840.825,83.3494,-1063.58,0,0
107101.15,84.2654,-1060.82,0,0
107361.475,85.5728,-1058.04,0,0
107621.8,86.6832,-1055.77,0,0
107882.125,87.5446,-1053.37,0,0
108142.45,88.3182,-1050.89,0,0
108402.775,89.1475,-1048.37,0,0
108663.1,89.9915,-1045.84,0,0
108923.425,90.9662,-1043.45,0,0
109183.75,91.9387,-1041.07,0,0
109444.075,93.0123,-1038.97,0,0
109704.4,93.9265,-1037.26,0,0
109964.725,94.3761,-1035.7,0,0
110225.05,94.4841,-1034.08,0,0
110485.375,93.9875,-1032.05,0,0
110745.7,93.7757,-1029.29,0,0
111006.025,94.0237,-1026.39,0,0
111266.35,94.6737,-1023.64,0,0
111526.675,95.3507,-1021.1,0,0
111787.0,96.0859,-1018.75,0,0
112047.325,96.9913,-1016.63,0,0
112307.65,97.7353,-1014.72,0,0
112567.975,98.3489,-1012.84,0,0
112828.3,99.0565,-1011.15,0,0
113088.625,99.6324,-1009.54,0,0
113348.95,100.071,-1008.25,0,0
113609.275,100.158,-1007,0,0
113869.6,99.8768,-1005.62,0,0
114129.925,99.644,-1003.93,0,0
114390.25,99.402,-1002.43,0,0
114650.575,98.9662,-1000.88,0,0
114910.9,98.5503,-999.325,0,0
115171.225,97.9109,-997.851,0,0
115431.55,97.0761,-996.215,0,0
115691.875,96.1569,-994.425,0,0
115952.2,95.1523,-992.444,0,0
116212.525,94.1615,-990.396,0,0
116472.85,93.1421,-988.189,0,0
116733.175,92.2325,-985.948,0,0
116993.5,91.1228,-983.7,0,0
117253.825,89.8999,-981.219,0,0
117514.15,88.8118,-978.484,0,0
117774.475,87.844,-975.769,0,0
118034.8,86.7506,-972.784,0,0
118295.125,85.9948,-969.639,0,0
118555.45,85.4282,-966.587,0,0
118815.775,84.863,-963.6,0,0
119076.1,84.3472,-960.5,0,0
119336.425,83.9731,-957.439,0,0
119596.75,83.7129,-954.358,0,0
119857.075,83.5508,-951.329,0,0
120117.4,83.577,-948.452,0,0
120377.725,83.4403,-945.744,0,0
120638.05,83.3922,-943.021,0,0
120898.375,83.3111,-940.389,0,0
121158.7,83.1033,-938.018,0,0
121419.025,82.5838,-935.531,0,0
121679.35,82.0156,-932.923,0,0
121939.675,81.3655,-930.144,0,0
122200.0,80.8518,-927.133,0,0
122460,80.4225,-924.138,0,0
122721,80.0146,-921.064,0,0
122981,79.7393,-917.946,0,0
123241,79.4587,-914.814,0,0
123502,79.3582,-911.62,0,0
123762,79.3414,-908.473,0,0
124022,79.4165,-905.398,0,0
124283,79.5284,-902.462,0,0
124543,79.5516,-899.537,0,0
124803,79.5831,-896.622,0,0
125064,79.6236,-893.638,0,0
125324,79.6251,-890.63,0,0
125584,79.7899,-887.578,0,0
125845,80.0597,-884.629,0,0
126105,80.2066,-881.819,0,0
126365,80.2974,-878.904,0,0
126626,80.489,-875.93,0,0
126886,80.6824,-873.041,0,0
127146,80.9456,-870.126,0,0
127406,81.188,-866.993,0,0
127667,81.3417,-864.061,0,0
127927,81.7288,-861.069,0,0
128187,82.1978,-858.067,0,0
128448,82.7251,-855.189,0,0
128708,83.176,-852.361,0,0
128968,83.5927,-849.656,0,0
129229,83.8926,-846.741,0,0
129489,84.3342,-843.656,0,0
129749,84.9361,-840.623,0,0
130010,85.6876,-837.538,0,0
130270,86.683,-834.667,0,0
130530,87.6299,-832.009,0,0
130791,88.4867,-829.387,0,0
131051,89.3551,-826.754,0,0
131311,90.3468,-824.18,0,0
131572,91.3725,-821.859,0,0
131832,92.2495,-819.601,0,0
132092,93.0509,-817.369,0,0
132353,93.7658,-815.136,0,0
132613,94.4384,-812.887,0,0
132873,95.1586,-810.575,0,0
133134,95.8858,-808.355,0,0
133394,96.5502,-806.145,0,0
133654,97.1682,-803.924,0,0
133915,97.8495,-801.548,0,0
134175,98.6425,-799.169,0,0
134435,99.5427,-796.974,0,0
134696,100.375,-794.915,0,0
134956,101.079,-792.782,0,0
135216,101.861,-790.694,0,0
135477,102.639,-788.68,0,0
135737,103.272,-786.636,0,0
135997,103.922,-784.474,0,0
136258,104.584,-782.248,0,0
136518,105.463,-779.894,0,0
136778,106.663,-777.717,0,0
137039,107.827,-775.793,0,0
137299,109,-773.884,0,0
137559,110.458,-772.261,0,0
137819,111.701,-771.085,0,0
138080,112.568,-770.153,0,0
138340.125,113.044,-769.161,0,0
138600.45,113.524,-767.932,0,0
138860.775,113.926,-766.927,0,0
139121.1,114.037,-765.856,0,0
139381.425,113.978,-764.666,0,0
139641.75,113.77,-763.363,0,0
139902.075,113.568,-761.789,0,0
140162.4,113.427,-760.187,0,0
140422.725,113.194,-758.57,0,0
140683.05,112.858,-756.887,0,0
140943.375,112.476,-754.999,0,0
141203.7,112.155,-752.913,0,0
141464.025,112.004,-750.679,0,0
141724.35,111.986,-748.562,0,0
141984.675,111.788,-746.454,0,0
142245.0,111.631,-744.024,0,0
142505.325,111.78,-741.558,0,0
142765.65,112.1,-739.262,0,0
143025.975,112.286,-737.13,0,0
143286.3,112.407,-734.892,0,0
143546.625,112.635,-732.394,0,0
143806.95,113.051,-730.003,0,0
144067.275,113.502,-727.788,0,0
144327.6,113.894,-725.614,0,0
144587.925,114.206,-723.419,0,0
144848.25,114.528,-721.107,0,0
145108.575,114.955,-718.661,0,0
145368.9,115.605,-716.331,0,0
145629.225,116.225,-714.019,0,0
145889.55,116.952,-711.729,0,0
146149.875,117.86,-709.548,0,0
146410.2,118.745,-707.635,0,0
146670.525,119.502,-705.759,0,0
146930.85,120.318,-703.893,0,0
147191.175,121.185,-702.263,0,0
147451.5,121.813,-700.746,0,0
147711.825,122.23,-699.413,0,0
147972.15,122.336,-697.927,0,0
148232.475,122.333,-696.179,0,0
148492.8,122.362,-694.157,0,0
148753.125,122.52,-692.118,0,0
149013.45,122.67,-689.911,0,0
149273.775,123.14,-687.508,0,0
149534.1,123.895,-685.382,0,0
149794.425,124.675,-683.655,0,0
150054.75,125.197,-681.951,0,0
150315.075,125.697,-680.351,0,0
150575.4,126.108,-678.943,0,0
150835.725,126.109,-677.691,0,0
151096.05,125.583,-676.159,0,0
151356.375,124.989,-674.115,0,0
151616.7,124.664,-671.793,0,0
151877.025,124.451,-669.538,0,0
152137.35,124.063,-667.275,0,0
152397.675,123.545,-664.634,0,0
152658.0,123.168,-661.687,0,0
152918.325,123.063,-658.511,0,0
153178.65,123.241,-655.271,0,0
153438.975,123.584,-652.17,0,0
153699.3,123.901,-649.033,0,0
153959.625,124.29,-645.778,0,0
154219.95,124.929,-642.401,0,0
154480,125.654,-639.064,0,0
154741,126.496,-635.573,0,0
155001,127.643,-632.093,0,0
155261,128.869,-628.849,0,0
155522,129.991,-625.428,0,0
155782,131.376,-621.68,0,0
156042,133.356,-617.995,0,0
156303,135.712,-614.705,0,0
156563,138.034,-611.878,0,0
156823,140.155,-609.041,0,0
157084,142.497,-606.075,0,0
157344,145.197,-603.425,0,0
157604,147.84,-601.14,0,0
157864,150.422,-599.069,0,0
158125,152.766,-597.274,0,0
158385,155.026,-595.37,0,0
158645,157.216,-593.712,0,0
158906,158.894,-592.108,0,0
159166,160.282,-589.957,0,0
159426,161.95,-587.142,0,0
159687,164.221,-584.145,0,0
159947,166.954,-581.186,0,0
160207,170.245,-578.478,0,0
160468,173.829,-576.242,0,0
160728,177.464,-574.209,0,0
160988,181.402,-572.568,0,0
161249,185.464,-571.526,0,0
161509,189.225,-571.043,0,0
161769,192.572,-570.645,0,0
162030,195.939,-570.373,0,0
162290,199.18,-570.31,0,0
162550,202.3,-570.506,0,0
162811,205.052,-571.06,0,0
163071,207.199,-571.624,0,0
163331,208.979,-571.758,0,0
163592,210.828,-571.374,0,0
163852,213.069,-570.927,0,0
164112,215.415,-570.542,0,0
164373,217.872,-570.241,0,0
164633,220.515,-570.043,0,0
164893,223.06,-569.976,0,0
165154,225.951,-569.917,0,0
165414,228.958,-570.265,0,0
165674,231.951,-570.916,0,0
165935,234.941,-571.89,0,0
166195,237.69,-573.309,0,0
166455,240.146,-574.901,0,0
166716,242.303,-576.617,0,0
166976,244.274,-578.344,0,0
167236,246.194,-580.111,0,0
167497,248.079,-582.205,0,0
167757,249.576,-584.734,0,0
168017,250.452,-587.246,0,0
168277,250.999,-589.544,0,0
168538,251.479,-591.743,0,0
168798,251.801,-594.008,0,0
169058,251.801,-596.458,0,0
169319,251.365,-598.855,0,0
169579,250.583,-601.213,0,0
169839,249.199,-603.439,0,0
170100,247.37,-605.087,0,0
170360.075,245.261,-606.091,0,0
170620.4,243.391,-606.553,0,0
170880.725,241.603,-606.899,0,0
171141.05,239.722,-606.845,0,0
171401.375,238.017,-606.21,0,0
171661.7,236.857,-605.262,0,0
171922.025,236.087,-604.506,0,0
172182.35,235.422,-603.808,0,0
172442.675,234.882,-603.033,0,0
172703.0,234.712,-602.362,0,0
172963.325,234.629,-602.137,0,0
173223.65,234.13,-602.123,0,0
173483.975,233.351,-601.919,0,0
173744.3,232.452,-601.334,0,0
174004.625,232.002,-600.372,0,0
174264.95,231.922,-599.763,0,0
174525.275,231.617,-599.41,0,0
174785.6,231.309,-598.914,0,0
175045.925,231.052,-598.455,0,0
175306.25,230.876,-598.081,0,0
175566.575,230.63,-597.748,0,0
175826.9,230.48,-597.645,0,0
176087.225,230.069,-597.753,0,0
176347.55,229.289,-597.742,0,0
176607.875,228.53,-597.552,0,0
176868.2,227.68,-597.318,0,0
177128.525,226.819,-597.001,0,0
177388.85,225.832,-596.56,0,0
177649.175,224.889,-595.9,0,0
177909.5,224.228,-595.241,0,0
178169.825,223.605,-594.79,0,0
178430.15,222.79,-594.534,0,0
178690.475,221.665,-594.248,0,0
178950.8,220.302,-593.661,0,0
179211.125,219.088,-592.631,0,0
179471.45,218.353,-591.755,0,0
179731.775,217.547,-591.316,0,0
179992.1,216.245,-591.084,0,0
180252.425,214.452,-590.448,0,0
180512.75,212.732,-589.342,0,0
180773.075,211.213,-588.071,0,0
181033.4,209.753,-586.867,0,0
181293.725,208.178,-585.544,0,0
181554.05,206.627,-584.067,0,0
181814.375,205.123,-582.488,0,0
182074.7,203.58,-580.888,0,0
182335.025,201.921,-579.122,0,0
182595.35,200.224,-577.129,0,0
182855.675,198.696,-574.776,0,0
183116.0,197.46,-572.375,0,0
183376.325,196.332,-570.109,0,0
183636.65,195.16,-567.876,0,0
183896.975,193.866,-565.528,0,0
184157.3,192.477,-562.93,0,0
184417.625,191.237,-560.018,0,0
184677.95,190.254,-556.966,0,0
184938.275,189.504,-553.863,0,0
185198.6,188.906,-550.698,0,0
185458.925,188.577,-547.645,0,0
185719.25,188.237,-544.736,0,0
185979.575,187.805,-541.746,0,0
186239.9,187.497,-538.572,0,0
186500,187.414,-535.337,0,0
186761,187.318,-532.313,0,0
187021,187.117,-529.183,0,0
187281,187.049,-525.824,0,0
187542,187.218,-522.254,0,0
187802,187.874,-518.731,0,0
188062,188.681,-515.548,0,0
188322,189.406,-512.499,0,0
188583,190.041,-509.535,0,0
188843,190.782,-506.533,0,0
189103,191.642,-503.594,0,0
189364,192.408,-500.825,0,0
189624,193.029,-497.981,0,0
189884,193.618,-495.039,0,0
190145,194.255,-491.98,0,0
190405,194.986,-488.992,0,0
190665,195.688,-485.809,0,0
190926,196.376,-482.502,0,0
191186,197.285,-479.125,0,0
191446,198.318,-475.907,0,0
191707,199.265,-472.504,0,0
191967,200.403,-468.899,0,0
192227,201.755,-465.227,0,0
192488,203.253,-461.625,0,0
192748,204.963,-458.135,0,0
193008,206.793,-454.642,0,0
193269,208.715,-451.164,0,0
193529,210.774,-447.826,0,0
193789,212.869,-444.616,0,0
194050,214.882,-441.389,0,0
194310,217.081,-438.258,0,0
194570,219.168,-435.099,0,0
194831,221.206,-431.921,0,0
195091,223.346,-428.426,0,0
195351,225.802,-424.971,0,0
195612,228.402,-421.491,0,0
195872,231.154,-418.129,0,0
196132,234.074,-414.804,0,0
196393,237.175,-411.481,0,0
196653,240.475,-408.542,0,0
196913,243.691,-405.678,0,0
197174,246.796,-402.98,0,0
197434,249.834,-400.235,0,0
197694,253.133,-397.35,0,0
197955,256.435,-394.692,0,0
198215,259.628,-392.201,0,0
198475,262.636,-389.6,0,0
198735,265.678,-386.8,0,0
198996,268.774,-383.804,0,0
199256,271.99,-380.843,0,0
199516,275.241,-377.677,0,0
199777,278.753,-374.319,0,0
200037,282.528,-370.846,0,0
200297,286.692,-367.471,0,0
200558,290.952,-364.231,0,0
200818,295.249,-361.054,0,0
201078,299.604,-357.803,0,0
201339,304.09,-354.34,0,0
201599,308.783,-350.655,0,0
201859,313.942,-346.76,0,0
202120,319.668,-342.783,0,0
202380.025,325.89,-338.942,0,0
202640.35,332.759,-335.211,0,0
202900.675,340.187,-331.977,0,0
203161.0,347.841,-329.165,0,0
203421.325,355.76,-326.623,0,0
203681.65,363.877,-324.117,0,0
203941.975,372.65,-321.861,0,0
204202.3,382.147,-320.153,0,0
204462.625,392.089,-319.168,0,0
204722.95,402.198,-319.012,0,0
204983.275,412.618,-319.525,0,0
205243.6,423.051,-321.184,0,0
205503.925,433.356,-323.447,0,0
205764.25,443.484,-326.353,0,0
206024.575,453.535,-330.094,0,0
206284.9,463.113,-334.545,0,0
206545.225,472.443,-339.698,0,0
206805.55,481.411,-345.599,0,0
207065.875,489.584,-352.101,0,0
207326.2,497.064,-359.003,0,0
207586.525,503.768,-366.001,0,0
207846.85,510.065,-373.021,0,0
208107.175,516.086,-380.231,0,0
208367.5,521.831,-387.817,0,0
208627.825,527.12,-395.86,0,0
208888.15,531.606,-404.307,0,0
209148.475,535.317,-412.794,0,0
209408.8,538.45,-421.346,0,0
209669.125,540.936,-430.101,0,0
209929.45,542.752,-438.889,0,0
210189.775,543.492,-447.782,0,0
210450.1,543.06,-456.454,0,0
210710.425,541.346,-464.437,0,0
210970.75,538.964,-471.088,0,0
211231.075,536.34,-476.693,0,0
211491.4,533.76,-481.513,0,0
211751.725,530.999,-485.531,0,0
212012.05,528.138,-488.508,0,0
212272.375,525.644,-490.335,0,0
212532.7,523.879,-491.222,0,0
212793.025,523.082,-491.431,0,0
213053.35,523.437,-491.435,0,0
213313.675,524.72,-491.627,0,0
213574.0,526.962,-492.15,0,0
213834.325,529.894,-493.208,0,0
214094.65,533.138,-495.184,0,0
214354.975,536.45,-497.884,0,0
214615.3,539.593,-501.16,0,0
214875.625,542.507,-505.012,0,0
215135.95,544.917,-509.411,0,0
215396.275,546.74,-514.008,0,0
215656.6,547.81,-518.398,0,0
215916.925,547.852,-522.456,0,0
216177.25,548.469,-525.658,0,0
216437.575,549.429,-528.532,0,0
216697.9,550.733,-531.438,0,0
216958.225,552.156,-534.58,0,0
217218.55,553.641,-537.684,0,0
217478.875,555.209,-540.94,0,0
217739.2,556.75,-544.372,0,0
217999.525,558.16,-547.864,0,0
218259.85,559.358,-551.247,0,0
218520,560.516,-554.364,0,0
218780,561.983,-557.159,0,0
219041,563.833,-559.859,0,0
219301,566.172,-562.898,0,0
219561,568.504,-566.232,0,0
219822,570.92,-569.637,0,0
220082,573.547,-573.029,0,0
220342,576.674,-576.77,0,0
220603,580.006,-581.081,0,0
220863,583.29,-585.942,0,0
221123,586.463,-591.062,0,0
221384,589.513,-596.453,0,0
221644,592.81,-602.263,0,0
221904,596.2,-608.739,0,0
222165,599.317,-616.155,0,0
222425,601.739,-624.119,0,0
222685,603.285,-632.357,0,0
222946,604.357,-640.592,0,0
223206,605.077,-648.943,0,0
223466,605.393,-657.339,0,0
223727,605.229,-665.91,0,0
223987,604.664,-674.262,0,0
224247,603.99,-682.647,0,0
224508,602.976,-691.36,0,0
224768,601.536,-700.267,0,0
225028,599.5,-709.287,0,0
225289,596.636,-718.291,0,0
225549,593.085,-726.684,0,0
225809,589.396,-734.826,0,0
226070,585.876,-742.426,0,0
226330,582.354,-750.407,0,0
226590,578.46,-758.628,0,0
226851,573.991,-766.881,0,0
227111,569.018,-775.192,0,0
227371,563.341,-783.286,0,0
227632,557.122,-791.163,0,0
227892,550.264,-798.535,0,0
228152,542.98,-805.387,0,0
228413,535.388,-811.786,0,0
228673,527.472,-817.766,0,0
228933,519.332,-823.01,0,0
229193,511.047,-827.8,0,0
229454,502.72,-832.113,0,0
229714,494.386,-836.047,0,0
229974,485.833,-839.38,0,0
230235,477.356,-842.236,0,0
230495,468.685,-844.708,0,0
230755,460.213,-846.599,0,0
231016,451.791,-847.871,0,0
231276,443.613,-848.862,0,0
231536,435.529,-849.261,0,0
231797,427.79,-849.294,0,0
232057,420.29,-849.026,0,0
232317,413.086,-848.403,0,0
232578,406.21,-847.344,0,0
232838,399.89,-846.075,0,0
233098,393.959,-844.722,0,0
233359,388.592,-843.422,0,0
233619,383.442,-842.256,0,0
233879,378.442,-841.179,0,0
234140,373.646,-840.06,0,0
234400,369.131,-838.967,0,0
234660.3,364.947,-838.038,0,0
234920.625,360.74,-837.402,0,0
235180.95,356.486,-837.028,0,0
235441.275,351.916,-836.682,0,0
235701.6,347.301,-836.038,0,0
235961.925,342.835,-835.269,0,0
236222.25,338.53,-834.427,0,0
236482.575,334.45,-833.688,0,0
236742.9,330.318,-833.087,0,0
237003.225,326.273,-832.541,0,0
237263.55,322.047,-832.203,0,0
237523.875,317.659,-831.837,0,0
237784.2,313.01,-831.343,0,0
238044.525,308.253,-830.616,0,0
238304.85,303.521,-829.693,0,0
238565.175,298.759,-828.479,0,0
238825.5,293.97,-827.106,0,0
239085.825,289.478,-825.483,0,0
239346.15,285.16,-823.707,0,0
239606.475,281.051,-821.767,0,0
239866.8,277.062,-819.988,0,0
240127.125,273.051,-818.113,0,0
240387.45,269.129,-816.1,0,0
240647.775,265.413,-814.093,0,0
240908.1,261.91,-811.972,0,0
241168.425,258.5,-809.907,0,0
241428.75,255.118,-807.987,0,0
241689.075,251.79,-806.016,0,0
241949.4,248.355,-804.078,0,0
242209.725,245.137,-802.035,0,0
242470.05,241.871,-799.889,0,0
242730.375,238.603,-797.616,0,0
242990.7,235.552,-795.294,0,0
243251.025,232.646,-792.974,0,0
243511.35,229.894,-790.625,0,0
243771.675,227.257,-788.28,0,0
244032.0,224.832,-786.036,0,0
244292.325,222.477,-783.897,0,0
244552.65,220.126,-781.856,0,0
244812.975,217.646,-779.993,0,0
245073.3,215.23,-777.985,0,0
245333.625,212.779,-776.211,0,0
245593.95,210.189,-774.119,0,0
245854.275,207.664,-772.134,0,0
246114.6,205.187,-770.055,0,0
246374.925,202.736,-767.947,0,0
246635.25,200.269,-765.826,0,0
246895.575,197.823,-763.569,0,0
247155.9,195.437,-761.315,0,0
247416.225,193.142,-759.022,0,0
247676.55,190.927,-756.655,0,0
247936.875,188.704,-754.334,0,0
248197.2,186.554,-751.925,0,0
248457.525,184.513,-749.476,0,0
248717.85,182.437,-747.039,0,0
248978.175,180.546,-744.493,0,0
249238.5,178.642,-741.969,0,0
249498.825,176.888,-739.374,0,0
249759.15,175.169,-736.883,0,0
250019.475,173.563,-734.32,0,0
250279.8,172.082,-731.89,0,0
250540,170.628,-729.469,0,0
250800,169.086,-727.016,0,0
251061,167.683,-724.508,0,0
251321,166.377,-722.055,0,0
251581,165.106,-719.651,0,0
251842,163.894,-717.33,0,0
252102,162.641,-715.042,0,0
252362,161.392,-712.726,0,0
252623,160.118,-710.435,0,0
252883,158.885,-708.069,0,0
253143,157.627,-705.707,0,0
253404,156.396,-703.244,0,0
253664,155.255,-700.727,0,0
253924,154.169,-698.228,0,0
254185,153.177,-695.613,0,0
254445,152.324,-693.046,0,0
254705,151.532,-690.483,0,0
254966,150.899,-687.913,0,0
255226,150.234,-685.434,0,0
255486,149.751,-682.99,0,0
255747,149.29,-680.595,0,0
256007,148.791,-678.334,0,0
256267,148.362,-676.047,0,0
256528,147.882,-673.79,0,0
256788,147.417,-671.487,0,0
257048,147.009,-669.175,0,0
257309,146.662,-666.897,0,0
257569,146.298,-664.62,0,0
257829,145.943,-662.322,0,0
258090,145.657,-659.979,0,0
258350,145.419,-657.642,0,0
258610,145.271,-655.25,0,0
258871,145.168,-652.827,0,0
259131,145.189,-650.396,0,0
259391,145.32,-647.945,0,0
259651,145.613,-645.512,0,0
259912,146.117,-643.146,0,0
260172,146.641,-640.83,0,0
260432,147.317,-638.73,0,0
260693,148.075,-636.709,0,0
260953,148.822,-634.769,0,0
261213,149.61,-632.95,0,0
261474,150.438,-631.243,0,0
261734,151.301,-629.606,0,0
261994,152.126,-628.097,0,0
262255,152.933,-626.639,0,0
262515,153.748,-625.196,0,0
262775,154.595,-623.819,0,0
263036,155.456,-622.477,0,0
263296,156.36,-621.189,0,0
263556,157.263,-619.95,0,0
263817,158.224,-618.814,0,0
264077,159.183,-617.665,0,0
264337,160.271,-616.641,0,0
264598,161.341,-615.619,0,0
264858,162.501,-614.766,0,0
265118,163.683,-613.937,0,0
265379,165.043,-613.276,0,0
265639,166.257,-612.785,0,0
265899,167.534,-612.387,0,0
266160,168.879,-612.148,0,0
266420,170.237,-612.098,0,0
266680.25,171.601,-612.242,0,0
266940.575,172.933,-612.616,0,0
267200.9,174.199,-613.282,0,0
267461.225,175.325,-614.21,0,0
267721.55,176.272,-615.386,0,0
267981.875,176.878,-616.792,0,0
268242.2,177.208,-618.375,0,0
268502.525,177.175,-619.996,0,0
268762.85,176.822,-621.691,0,0
269023.175,176.107,-623.39,0,0
269283.5,174.945,-624.953,0,0
269543.825,173.497,-626.34,0,0
269804.15,171.746,-627.479,0,0
270064.475,169.836,-628.384,0,0
270324.8,167.708,-628.919,0,0
270585.125,165.502,-629.243,0,0
270845.45,163.263,-629.213,0,0
271105.775,161.033,-628.947,0,0
271366.1,158.739,-628.414,0,0
271626.425,156.601,-627.685,0,0
271886.75,154.523,-626.722,0,0
272147.075,152.549,-625.544,0,0
272407.4,150.705,-624.18,0,0
272667.725,149.038,-622.657,0,0
272928.05,147.538,-621.095,0,0
273188.375,146.192,-619.437,0,0
273448.7,144.989,-617.756,0,0
273709.025,143.889,-616.026,0,0
273969.35,142.909,-614.287,0,0
274229.675,142.037,-612.51,0,0
274490.0,141.345,-610.676,0,0
274750.325,140.758,-608.938,0,0
275010.65,140.318,-607.152,0,0
275270.975,139.956,-605.513,0,0
275531.3,139.617,-603.835,0,0
275791.625,139.377,-602.252,0,0
276051.95,139.185,-600.655,0,0
276312.275,139.084,-599.104,0,0
276572.6,139.053,-597.593,0,0
276832.925,139.1,-596.138,0,0
277093.25,139.187,-594.735,0,0
277353.575,139.345,-593.4,0,0
277613.9,139.586,-592.119,0,0
277874.225,139.864,-590.95,0,0
278134.55,140.151,-589.947,0,0
278394.875,140.413,-589.018,0,0
278655.2,140.609,-588.179,0,0
278915.525,140.767,-587.388,0,0
279175.85,140.809,-586.649,0,0
279436.175,140.777,-585.879,0,0
279696.5,140.763,-585.026,0,0
279956.825,140.805,-584.254,0,0
280217.15,140.818,-583.416,0,0
280477.475,140.818,-582.649,0,0
280737.8,140.821,-581.843,0,0
280998.125,140.856,-581.073,0,0
281258.45,140.961,-580.332,0,0
281518.775,141.043,-579.698,0,0
281779.1,141.072,-579.16,0,0
282039.425,141.045,-578.648,0,0
282299.75,140.918,-578.217,0,0
282560,140.659,-577.73,0,0
282820,140.329,-577.195,0,0
283081,139.92,-576.568,0,0
283341,139.491,-575.805,0,0
283601,139.256,-574.945,0,0
283862,138.986,-574.089,0,0
284122,138.829,-573.253,0,0
284382,138.663,-572.465,0,0
284643,138.549,-571.709,0,0
284903,138.373,-570.958,0,0
285163,138.225,-570.305,0,0
285424,138.008,-569.628,0,0
285684,137.772,-569.018,0,0
285944,137.436,-568.381,0,0
286205,137.041,-567.719,0,0
286465,136.564,-566.992,0,0
286725,136.004,-566.166,0,0
286986,135.467,-565.259,0,0
287246,134.918,-564.217,0,0
287506,134.366,-563.105,0,0
287767,133.851,-561.859,0,0
288027,133.418,-560.449,0,0
288287,133.102,-558.94,0,0
288548,132.938,-557.323,0,0
288808,132.986,-555.645,0,0
289068,133.293,-553.961,0,0
289329,133.829,-552.378,0,0
289589,134.544,-550.975,0,0
289849,135.363,-549.769,0,0
290109,136.25,-548.822,0,0
290370,137.086,-548.049,0,0
290630,137.814,-547.484,0,0
290890,138.487,-547.024,0,0
291151,139.017,-546.583,0,0
291411,139.436,-546.227,0,0
291671,139.809,-545.869,0,0
291932,140.125,-545.569,0,0
292192,140.289,-545.302,0,0
292452,140.363,-544.993,0,0
292713,140.349,-544.668,0,0
292973,140.238,-544.272,0,0
293233,140.091,-543.832,0,0
293494,139.853,-543.32,0,0
293754,139.586,-542.692,0,0
294014,139.277,-541.923,0,0
294275,139.025,-541.047,0,0
294535,138.82,-540.07,0,0
294795,138.67,-539.04,0,0
295056,138.626,-537.896,0,0
295316,138.695,-536.746,0,0
295576,138.846,-535.529,0,0
295837,139.11,-534.339,0,0
296097,139.472,-533.141,0,0
296357,139.909,-531.981,0,0
296618,140.444,-530.865,0,0
296878,141.03,-529.796,0,0
297138,141.647,-528.768,0,0
297399,142.314,-527.771,0,0
297659,143.028,-526.804,0,0
297919,143.806,-525.848,0,0
298180,144.638,-524.927,0,0
298440,145.53,-524.073,0,0
298700.2,146.524,-523.266,0,0
298960.525,147.564,-522.565,0,0
299220.85,148.62,-521.982,0,0
299481.175,149.617,-521.402,0,0
299741.5,150.675,-521.033,0,0
300001.825,151.632,-520.62,0,0
300262.15,152.557,-520.295,0,0
300522.475,153.53,-519.835,0,0
300782.8,154.474,-519.55,0,0
301043.125,155.48,-519.126,0,0
301303.45,156.595,-518.793,0,0
301563.775,157.651,-518.541,0,0
301824.1,158.956,-518.291,0,0
302084.425,160.241,-518.225,0,0
302344.75,161.66,-518.326,0,0
302605.075,162.949,-518.542,0,0
302865.4,164.231,-519.032,0,0
303125.725,165.324,-519.524,0,0
303386.05,166.391,-520.156,0,0
303646.375,167.266,-520.823,0,0
303906.7,167.97,-521.464,0,0
304167.025,168.673,-522.047,0,0
304427.35,169.383,-522.583,0,0
304687.675,170.03,-523.106,0,0
304948.0,170.688,-523.621,0,0
305208.325,171.43,-524.194,0,0
305468.65,172.165,-524.754,0,0
305728.975,172.904,-525.339,0,0
305989.3,173.659,-526.111,0,0
306249.625,174.432,-526.855,0,0
306509.95,175.188,-527.77,0,0
306770.275,175.864,-528.79,0,0
307030.6,176.504,-529.882,0,0
307290.925,176.973,-531.054,0,0
307551.25,177.356,-532.375,0,0
307811.575,177.611,-533.692,0,0
308071.9,177.872,-534.908,0,0
308332.225,177.918,-536.168,0,0
308592.55,178.019,-537.592,0,0
308852.875,177.876,-538.972,0,0
309113.2,177.558,-540.161,0,0
309373.525,177.228,-541.359,0,0
309633.85,176.9,-542.61,0,0
309894.175,176.442,-543.729,0,0
310154.5,176.064,-544.787,0,0
310414.825,175.637,-545.834,0,0
310675.15,175.167,-546.897,0,0
310935.475,174.777,-548.046,0,0
311195.8,174.341,-549.274,0,0
311456.125,173.717,-550.535,0,0
311716.45,172.947,-551.885,0,0
311976.775,171.981,-553.153,0,0
312237.1,170.944,-554.303,0,0
312497.425,169.792,-555.335,0,0
312757.75,168.488,-556.272,0,0
313018.075,167.173,-556.991,0,0
313278.4,165.884,-557.553,0,0
313538.725,164.714,-558.086,0,0
313799.05,163.526,-558.487,0,0
314059.375,162.43,-558.913,0,0
314319.7,161.41,-559.322,0,0
314580,160.485,-559.676,0,0
314840,159.598,-560.131,0,0
315101,158.674,-560.628,0,0
315361,157.788,-561.185,0,0
315621,156.805,-561.841,0,0
315882,155.712,-562.504,0,0
316142,154.597,-563.219,0,0
316402,153.262,-563.845,0,0
316663,151.949,-564.428,0,0
316923,150.535,-564.979,0,0
317183,149.131,-565.471,0,0
317444,147.671,-565.88,0,0
317704,146.081,-566.249,0,0
317964,144.544,-566.625,0,0
318225,142.779,-566.969,0,0
318485,141.126,-567.046,0,0
318745,139.389,-567.158,0,0
319006,137.589,-567.162,0,0
319266,135.845,-567.046,0,0
319526,134.079,-566.885,0,0
319787,132.267,-566.682,0,0
320047,130.483,-566.329,0,0
320307,128.798,-565.779,0,0
320567,127.054,-565.309,0,0
320828,125.293,-564.73,0,0
321088,123.626,-563.96,0,0
321348,121.998,-563.178,0,0
321609,120.429,-562.241,0,0
321869,118.827,-561.408,0,0
322129,117.401,-560.37,0,0
322390,116.034,-559.247,0,0
322650,114.774,-558.08,0,0
322910,113.572,-556.898,0,0
323171,112.401,-555.682,0,0
323431,111.435,-554.379,0,0
323691,110.487,-553.136,0,0
323952,109.649,-551.823,0,0
324212,108.89,-550.608,0,0
324472,108.271,-549.381,0,0
324733,107.808,-548.108,0,0
324993,107.255,-547.022,0,0
325253,106.895,-545.911,0,0
325514,106.535,-544.839,0,0
325774,106.236,-543.843,0,0
326034,106.004,-542.886,0,0
326295,105.8,-541.971,0,0
326555,105.57,-541.164,0,0
326815,105.419,-540.448,0,0
327076,105.283,-539.873,0,0
327336,105.136,-539.325,0,0
327596,104.857,-538.737,0,0
327857,104.693,-538.254,0,0
328117,104.43,-537.729,0,0
328377,104.185,-537.353,0,0
328638,103.861,-536.941,0,0
328898,103.548,-536.602,0,0
329158,103.23,-536.19,0,0
329419,102.759,-535.86,0,0
329679,102.43,-535.59,0,0
329939,102,-535.283,0,0
330200,101.482,-534.919,0,0
330460,101.008,-534.684,0,0
330720.15,100.474,-534.396,0,0
330980.475,99.9317,-534.041,0,0
331240.8,99.3533,-533.785,0,0
331501.125,98.7672,-533.432,0,0
331761.45,98.2132,-533.159,0,0
332021.775,97.5027,-532.77,0,0
332282.1,96.8781,-532.448,0,0
332542.425,96.2279,-532.129,0,0
332802.75,95.4787,-531.775,0,0
333063.075,94.7945,-531.461,0,0
333323.4,94.0916,-531.147,0,0
333583.725,93.266,-530.753,0,0
333844.05,92.4657,-530.386,0,0
334104.375,91.6293,-529.964,0,0
334364.7,90.7173,-529.444,0,0
334625.025,89.8497,-528.903,0,0
334885.35,89.0141,-528.304,0,0
335145.675,88.1377,-527.741,0,0
335406.0,87.2951,-527.108,0,0
335666.325,86.4213,-526.407,0,0
335926.65,85.7126,-525.611,0,0
336186.975,84.9265,-524.877,0,0
336447.3,84.103,-524.166,0,0
336707.625,83.3448,-523.339,0,0
336967.95,82.6694,-522.637,0,0
337228.275,81.9252,-521.822,0,0
337488.6,81.2745,-521.055,0,0
337748.925,80.6371,-520.249,0,0
338009.25,79.9417,-519.368,0,0
338269.575,79.3358,-518.537,0,0
338529.9,78.7753,-517.683,0,0
338790.225,78.1899,-516.826,0,0
339050.55,77.6261,-515.966,0,0
339310.875,77.1634,-515.206,0,0
339571.2,76.5885,-514.347,0,0
339831.525,76.0561,-513.55,0,0
340091.85,75.5833,-512.719,0,0
340352.175,75.083,-511.866,0,0
340612.5,74.5406,-511.04,0,0
340872.825,74.1217,-510.239,0,0
341133.15,73.6823,-509.389,0,0
341393.475,73.2303,-508.664,0,0
341653.8,72.7407,-507.825,0,0
341914.125,72.3214,-507.008,0,0
342174.45,71.8912,-506.287,0,0
342434.775,71.3968,-505.446,0,0
342695.1,71.0091,-504.75,0,0
342955.425,70.5245,-503.91,0,0
343215.75,70.0411,-503.106,0,0
343476.075,69.5876,-502.27,0,0
343736.4,69.1596,-501.476,0,0
343996.725,68.6936,-500.635,0,0
344257.05,68.2815,-499.876,0,0
344517.375,67.9071,-499.031,0,0
344777.7,67.4589,-498.24,0,0
345038.025,67.0464,-497.415,0,0
345298.35,66.6388,-496.585,0,0
345558.675,66.2141,-495.726,0,0
345819.0,65.7749,-494.901,0,0
346079.325,65.3907,-494.081,0,0
346339.65,64.9958,-493.262,0,0
346599.975,64.5621,-492.309,0,0
346860,64.1447,-491.47,0,0
347121,63.7499,-490.534,0,0
347381,63.416,-489.589,0,0
347641,63.0327,-488.658,0,0
347902,62.6944,-487.666,0,0
348162,62.4335,-486.764,0,0
348422,62.1913,-485.795,0,0
348683,61.9376,-484.819,0,0
348943,61.7608,-483.887,0,0
349203,61.5259,-483.026,0,0
349464,61.3641,-482.102,0,0
349724,61.1947,-481.222,0,0
349984,61.0426,-480.36,0,0
350245,60.788,-479.546,0,0
350505,60.644,-478.622,0,0
350765,60.4462,-477.818,0,0
351025,60.3036,-476.984,0,0
351286,60.1437,-476.102,0,0
351546,59.9353,-475.236,0,0
351806,59.8119,-474.344,0,0
352067,59.6994,-473.53,0,0
352327,59.5863,-472.67,0,0
352587,59.4754,-471.826,0,0
352848,59.3806,-471.02,0,0
353108,59.3155,-470.241,0,0
353368,59.1953,-469.452,0,0
353629,59.0442,-468.636,0,0
353889,58.9598,-467.854,0,0
354149,58.8681,-467.078,0,0
354410,58.7935,-466.354,0,0
354670,58.661,-465.551,0,0
354930,58.6305,-464.777,0,0
355191,58.5218,-463.999,0,0
355451,58.4081,-463.221,0,0
355711,58.3405,-462.46,0,0
355972,58.243,-461.72,0,0
356232,58.1227,-460.978,0,0
356492,58.0504,-460.183,0,0
356753,57.959,-459.441,0,0
357013,57.8497,-458.669,0,0
357273,57.7494,-457.895,0,0
357534,57.6717,-457.206,0,0
357794,57.5574,-456.39,0,0
358054,57.471,-455.641,0,0
358315,57.3853,-454.842,0,0
358575,57.268,-454.061,0,0
358835,57.1967,-453.273,0,0
359096,57.1198,-452.504,0,0
359356,57.0704,-451.648,0,0
359616,56.9778,-450.849,0,0
359877,57.0337,-450.068,0,0
360137,57.0127,-449.275,0,0
360397,57.0609,-448.456,0,0
360658,57.0493,-447.733,0,0
360918,56.9663,-446.94,0,0
361178,57.0345,-446.213,0,0
361438,56.9503,-445.457,0,0
361699,56.9703,-444.702,0,0
361959,56.9484,-443.94,0,0
362219,56.9309,-443.16,0,0
362480,56.9507,-442.352,0,0
362740.1,56.9764,-441.589,0,0
363000.425,57.0314,-440.78,0,0
363260.75,57.0452,-440.056,0,0
363521.075,57.0497,-439.284,0,0
363781.4,57.0631,-438.479,0,0
364041.725,57.1259,-437.727,0,0
364302.05,57.22,-436.903,0,0
364562.375,57.3114,-436.1,0,0
364822.7,57.3788,-435.342,0,0
365083.025,57.4734,-434.578,0,0
365343.35,57.5653,-433.778,0,0
365603.675,57.7218,-433.023,0,0
365864.0,57.846,-432.315,0,0
366124.325,57.9722,-431.586,0,0
366384.65,58.0446,-430.849,0,0
366644.975,58.1951,-430.134,0,0
366905.3,58.3004,-429.417,0,0
367165.625,58.3679,-428.783,0,0
367425.95,58.4005,-427.987,0,0
367686.275,58.4677,-427.282,0,0
367946.6,58.4792,-426.449,0,0
368206.925,58.5719,-425.659,0,0
368467.25,58.6351,-424.836,0,0
368727.575,58.7814,-423.953,0,0
368987.9,58.8831,-423.043,0,0
369248.225,59.0737,-422.123,0,0
369508.55,59.322,-421.182,0,0
369768.875,59.5911,-420.292,0,0
370029.2,59.8789,-419.374,0,0
370289.525,60.2102,-418.467,0,0
370549.85,60.6098,-417.565,0,0
370810.175,61.0213,-416.763,0,0
371070.5,61.4676,-415.858,0,0
371330.825,61.9748,-414.994,0,0
371591.15,62.5029,-414.196,0,0
371851.475,63.0626,-413.399,0,0
372111.8,63.714,-412.648,0,0
372372.125,64.3679,-411.94,0,0
372632.45,65.0195,-411.316,0,0
372892.775,65.7104,-410.701,0,0
373153.1,66.3803,-410.149,0,0
373413.425,67.0776,-409.715,0,0
373673.75,67.7683,-409.279,0,0
373934.075,68.4253,-408.884,0,0
374194.4,69.0661,-408.503,0,0
374454.725,69.7299,-408.198,0,0
374715.05,70.3062,-407.882,0,0
374975.375,70.8782,-407.655,0,0
375235.7,71.4807,-407.438,0,0
375496.025,71.995,-407.184,0,0
375756.35,72.5199,-407.021,0,0
376016.675,73.0382,-406.85,0,0
376277.0,73.4671,-406.676,0,0
376537.325,73.9471,-406.506,0,0
376797.65,74.4094,-406.335,0,0
377057.975,74.8412,-406.161,0,0
377318.3,75.2858,-405.995,0,0
377578.625,75.7121,-405.88,0,0
377838.95,76.0913,-405.751,0,0
378099.275,76.5514,-405.674,0,0
378359.6,76.949,-405.551,0,0
378619.925,77.3055,-405.42,0,0
378880,77.65,-405.361,0,0
379141,78.0079,-405.259,0,0
379401,78.3358,-405.214,0,0
379661,78.6858,-405.109,0,0
379922,78.9918,-405.014,0,0
380182,79.3212,-404.901,0,0
380442,79.6608,-404.75,0,0
380703,80.0845,-404.591,0,0
380963,80.5329,-404.543,0,0
381223,81.0185,-404.463,0,0
381483,81.5092,-404.482,0,0
381744,82.0389,-404.569,0,0
382004,82.5223,-404.735,0,0
382264,82.9778,-404.946,0,0
382525,83.3833,-405.217,0,0
382785,83.7456,-405.549,0,0
383045,84.061,-405.907,0,0
383306,84.31,-406.253,0,0
383566,84.5269,-406.648,0,0
383826,84.6685,-407.107,0,0
384087,84.7913,-407.526,0,0
384347,84.8165,-407.992,0,0
384607,84.755,-408.498,0,0
384868,84.6573,-408.943,0,0
385128,84.4979,-409.426,0,0
385388,84.2508,-409.836,0,0
385649,83.9779,-410.211,0,0
385909,83.6062,-410.575,0,0
386169,83.2661,-410.914,0,0
386430,82.813,-411.2,0,0
386690,82.3937,-411.42,0,0
386950,81.8952,-411.62,0,0
387211,81.4056,-411.768,0,0
387471,80.8979,-411.875,0,0
387731,80.2752,-411.934,0,0
387992,79.8086,-411.96,0,0
388252,79.261,-411.872,0,0
388512,78.6606,-411.872,0,0
388773,78.1373,-411.709,0,0
389033,77.5741,-411.549,0,0
389293,77.0624,-411.388,0,0
389554,76.5808,-411.103,0,0
389814,76.1947,-410.826,0,0
390074,75.7193,-410.551,0,0
390335,75.3605,-410.287,0,0
390595,74.9967,-410.024,0,0
390855,74.6925,-409.733,0,0
391116,74.3443,-409.51,0,0
391376,74.0699,-409.3,0,0
391636,73.7066,-409.122,0,0
391896,73.3737,-408.96,0,0
392157,72.9983,-408.801,0,0
392417,72.5732,-408.661,0,0
392677,72.162,-408.511,0,0
392938,71.6591,-408.323,0,0
393198,71.1299,-408.161,0,0
393458,70.5948,-407.907,0,0
393719,70.0374,-407.628,0,0
393979,69.4873,-407.331,0,0
394239,68.9187,-406.963,0,0
394500,68.3431,-406.591,0,0
394760.05,67.7623,-406.199,0,0
395020.375,67.1963,-405.696,0,0
395280.7,66.6303,-405.238,0,0
395541.025,66.0554,-404.699,0,0
395801.35,65.5434,-404.158,0,0
396061.675,65.015,-403.564,0,0
396322.0,64.5242,-402.918,0,0
396582.325,64.0373,-402.273,0,0
396842.65,63.6179,-401.588,0,0
397102.975,63.2306,-400.896,0,0
397363.3,62.8497,-400.178,0,0
397623.625,62.4931,-399.456,0,0
397883.95,62.1769,-398.718,0,0
398144.275,61.8933,-397.97,0,0
398404.6,61.6397,-397.243,0,0
398664.925,61.387,-396.533,0,0
398925.25,61.2011,-395.798,0,0
399185.575,61.0192,-395.048,0,0
399445.9,60.8475,-394.329,0,0
399706.225,60.6315,-393.656,0,0
399966.55,60.5015,-392.923,0,0
400006.6,60.4969,-392.843,0,0