File: Accelerated corrosion test data/2025-10-19_06-00-03/sample_3.csv
Frequency (Hz),Impedance (ohms),Phase (Radians),Temperature (C),Humidity (%)
10000.0,255.91,-11953,0,0
10260.325,249.689,-11651.7,0,0
10520.65,244.07,-11365.1,0,0
10780.975,240.299,-11091,0,0
11041.3,233.705,-10835.9,0,0
11301.625,228.18,-10587.4,0,0
11561.95,223.265,-10350.5,0,0
11822.275,218.897,-10123.9,0,0
12082.6,215.83,-9907.63,0,0
12342.925,214.629,-9699.42,0,0
12603.25,206.918,-9501.79,0,0
12863.575,203.399,-9309.02,0,0
13123.9,204.361,-9123.13,0,0
13384.225,196.309,-8953.64,0,0
13644.55,192.81,-8783.66,0,0
13904.875,188.955,-8617.5,0,0
14165.2,189.479,-8458.62,0,0
14425.525,184.99,-8305.83,0,0
14685.8,183.045,-8158.87,0,0
14946.175,178.64,-8018.11,0,0
15206.5,177.534,-7875.57,0,0
15466.825,188.185,-7732.73,0,0
15727.15,197.05,-7640.77,0,0
15987.5,174.468,-7518.59,0,0
16247.8,171.306,-7388.16,0,0
16508.125,164.616,-7273.66,0,0
16768.45,170.474,-7151.61,0,0
17028.775,160.804,-7052.04,0,0
17289.1,166.321,-6937.2,0,0
17549.425,160.219,-6845.82,0,0
17809.75,159.878,-6738.82,0,0
18070.075,165.828,-6651.56,0,0
18330.4,154.805,-6555.74,0,0
18590.725,151.132,-6463.13,0,0
18851.05,148.333,-6370.82,0,0
19111.375,149.729,-6281.37,0,0
19371.7,148.34,-6196.11,0,0
19632.025,149.947,-6110.74,0,0
19892.35,151.613,-6029.36,0,0
20152.675,152.129,-5953.06,0,0
20413.0,164.515,-5875.65,0,0
20673.3,172.965,-5807.21,0,0
20933.65,165.454,-5753.65,0,0
21193.975,166.795,-5690.69,0,0
21454.3,147.938,-5626.26,0,0
21714.625,143.58,-5549.32,0,0
21974.9,145.691,-5485.29,0,0
22235.275,140.391,-5426.56,0,0
22495.6,137.9,-5361.26,0,0
22755.925,131.563,-5300.2,0,0
23016.25,130.085,-5239.95,0,0
23276.6,130.622,-5176.24,0,0
23536.9,131.825,-5131.2,0,0
23797.225,123.49,-5071.43,0,0
24057.55,121.612,-5012.8,0,0
24317.875,122.468,-4957.07,0,0
24578.2,119.274,-4906.54,0,0
24838.525,121.39,-4852.58,0,0
25098.85,118.2,-4805.49,0,0
25359.175,116.222,-4754.69,0,0
25619.5,115.722,-4706.47,0,0
25879.8,113.256,-4658.7,0,0
26140.1,111.017,-4610.91,0,0
26400.5,110.474,-4563.54,0,0
26660.8,109.663,-4517.42,0,0
26921.1,111.515,-4472.32,0,0
27181.4,111.234,-4432.46,0,0
27441.8,109.713,-4387.81,0,0
27702.1,110.508,-4347.81,0,0
27962.4,107.764,-4306.05,0,0
28222.7,106.336,-4262.32,0,0
28483.1,115.349,-4220.3,0,0
28743.4,117.541,-4186.92,0,0
29003.7,117.058,-4156.74,0,0
29264,109.775,-4121.59,0,0
29524.4,110.731,-4084.01,0,0
29784.7,106.704,-4048.24,0,0
30045,104.522,-4014.19,0,0
30305.3,102.96,-3976.37,0,0
30565.7,104.322,-3942.02,0,0
30826,103.617,-3909.53,0,0
31086.3,104.833,-3876.61,0,0
31346.6,100.917,-3846.03,0,0
31607,100.214,-3811.48,0,0
31867.3,100.218,-3776.15,0,0
32127.6,104.295,-3741.45,0,0
32387.9,113.088,-3714.1,0,0
32648.3,116.585,-3697.76,0,0
32908.6,105.901,-3673.09,0,0
33168.9,103.863,-3643.93,0,0
33429.2,101.358,-3618.45,0,0
33689.6,94.8773,-3589.28,0,0
33949.9,92.7543,-3558.91,0,0
34210.2,92.8685,-3530.71,0,0
34470.5,91.3352,-3504.23,0,0
34730.9,89.4239,-3477.37,0,0
34991.2,88.0706,-3450.31,0,0
35251.5,87.4685,-3424.06,0,0
35511.8,86.5939,-3398.48,0,0
35772.2,85.819,-3372.79,0,0
36032.5,84.8772,-3347.73,0,0
36292.8,84.2284,-3323.05,0,0
36553.1,83.6544,-3298.74,0,0
36813.5,82.9437,-3275.16,0,0
37073.8,82.2862,-3251.38,0,0
37334.1,81.7229,-3228.11,0,0
37594.4,81.2624,-3205.18,0,0
37854.8,80.7512,-3182.66,0,0
38115.1,80.1068,-3160.28,0,0
38375.4,79.6662,-3138.28,0,0
38635.7,79.2661,-3116.53,0,0
38896.1,78.9406,-3095.11,0,0
39156.4,78.599,-3074.16,0,0
39416.7,78.0938,-3053.48,0,0
39677,77.5508,-3032.93,0,0
39937.4,77.2626,-3012.62,0,0
40197.7,76.8104,-2992.37,0,0
40458,76.231,-2972.54,0,0
40718.3,75.9692,-2952.81,0,0
40978.7,75.8965,-2933.26,0,0
41239,75.766,-2914.35,0,0
41499.3,75.6434,-2895.33,0,0
41759.6,75.8214,-2877.08,0,0
42020,75.4512,-2859.49,0,0
42280.275,74.9522,-2841.32,0,0
42540.6,74.3971,-2823.29,0,0
42800.925,74.4933,-2805.78,0,0
43061.25,73.7178,-2788.62,0,0
43321.575,73.2891,-2771.17,0,0
43581.9,73.0623,-2753.87,0,0
43842.225,73.1741,-2736.56,0,0
44102.55,73.2526,-2720.22,0,0
44362.875,73.4012,-2704.18,0,0
44623.2,72.61,-2688.27,0,0
44883.525,72.258,-2672.14,0,0
45143.85,71.9754,-2655.92,0,0
45404.175,71.8836,-2639.96,0,0
45664.5,71.3579,-2624.13,0,0
45924.825,72.4085,-2609.06,0,0
46185.15,71.3616,-2594.53,0,0
46445.475,70.8359,-2578.83,0,0
46705.8,71.2468,-2563.35,0,0
46966.125,71.3158,-2549.62,0,0
47226.45,70.8466,-2534.8,0,0
47486.775,70.9543,-2520.21,0,0
47747.1,71.8049,-2505.56,0,0
48007.425,71.4964,-2492.92,0,0
48267.75,71.5255,-2479.38,0,0
48528.075,70.9047,-2466.18,0,0
48788.4,70.2188,-2452.85,0,0
49048.725,69.5795,-2439.36,0,0
49309.05,69.1024,-2425.84,0,0
49569.375,68.7624,-2412.27,0,0
49829.7,68.5567,-2399.52,0,0
50090.025,67.8098,-2386.49,0,0
50350.35,67.5589,-2373.18,0,0
50610.675,67.3732,-2360.09,0,0
50871.0,67.2397,-2347.43,0,0
51131.325,67.1228,-2334.73,0,0
51391.65,66.863,-2322.15,0,0
51651.975,67.0717,-2309.9,0,0
51912.3,67.0537,-2297.8,0,0
52172.625,66.7207,-2285.58,0,0
52432.95,66.7108,-2273.36,0,0
52693.275,66.9185,-2261.28,0,0
52953.6,67.1975,-2249.28,0,0
53213.925,67.9077,-2237.62,0,0
53474.25,68.2786,-2226.71,0,0
53734.575,68.3929,-2215.52,0,0
53994.9,68.6241,-2204.35,0,0
54255.225,69.7235,-2193.25,0,0
54515.55,70.7731,-2184,0,0
54775.875,69.55,-2174.51,0,0
55036.2,69.2692,-2164.12,0,0
55296.525,68.8762,-2154.59,0,0
55556.85,67.7096,-2144.77,0,0
55817.175,66.1608,-2134.32,0,0
56077.5,65.1197,-2123.73,0,0
56337.825,64.2289,-2113.14,0,0
56598.15,63.2311,-2102.48,0,0
56858.475,62.4883,-2091.65,0,0
57118.8,62.0142,-2080.75,0,0
57379.125,61.7891,-2070.05,0,0
57639.45,61.8012,-2059.46,0,0
57899.775,61.7902,-2049.28,0,0
58160.1,61.8319,-2039.04,0,0
58420.4,61.6778,-2029.06,0,0
58680.7,61.6865,-2018.88,0,0
58941.1,61.6703,-2008.88,0,0
59201.4,61.94,-1998.84,0,0
59461.7,62.2753,-1989.12,0,0
59722,62.5041,-1979.52,0,0
59982.4,62.7331,-1970.05,0,0
60242.7,62.9496,-1960.63,0,0
60503,63.1772,-1951.22,0,0
60763.3,63.4772,-1941.92,0,0
61023.7,63.7009,-1932.67,0,0
61284,64.0976,-1923.51,0,0
61544.3,64.6319,-1914.2,0,0
61804.6,65.0601,-1905.52,0,0
62065,65.3334,-1896.4,0,0
62325.3,65.9328,-1887.61,0,0
62585.6,66.3235,-1878.6,0,0
62845.9,67.1142,-1869.48,0,0
63106.3,67.9866,-1860.75,0,0
63366.6,68.8902,-1852.2,0,0
63626.9,69.9577,-1843.43,0,0
63887.2,70.766,-1834.81,0,0
64147.6,72.4249,-1825.54,0,0
64407.9,75.1413,-1817.07,0,0
64668.2,77.2451,-1809.71,0,0
64928.5,79.9075,-1801.77,0,0
65188.9,83.7996,-1795.09,0,0
65449.2,86.5338,-1790.09,0,0
65709.5,88.9653,-1785.01,0,0
65969.8,93.1942,-1781.67,0,0
66230.2,93.4015,-1783.06,0,0
66490.5,87.6136,-1781.6,0,0
66750.8,81.8627,-1774.68,0,0
67011.1,78.696,-1766.54,0,0
67271.5,75.8891,-1757.71,0,0
67531.8,75.0205,-1748.92,0,0
67792.1,75.0825,-1740.38,0,0
68052.4,75.4754,-1732.58,0,0
68312.8,76.2805,-1725.55,0,0
68573.1,76.0328,-1718.87,0,0
68833.4,76.4765,-1711.56,0,0
69093.7,77.5427,-1704.86,0,0
69354.1,78.6236,-1699.37,0,0
69614.4,78.448,-1694.54,0,0
69874.7,77.5165,-1689.01,0,0
70135,76.7269,-1682.9,0,0
70395.4,76.2778,-1677.12,0,0
70655.7,74.9096,-1671.42,0,0
70916,73.7057,-1665.06,0,0
71176.3,72.9833,-1658.39,0,0
71436.7,72.1234,-1652.1,0,0
71697,71.1252,-1645,0,0
71957.3,71.1251,-1637.98,0,0
72217.6,71.3821,-1631.46,0,0
72478,71.6955,-1625.32,0,0
72738.3,71.943,-1619.78,0,0
72998.6,71.7387,-1614.21,0,0
73258.9,71.2793,-1608.54,0,0
73519.3,71.0255,-1602.79,0,0
73779.6,70.6925,-1597.29,0,0
74039.9,70.1256,-1591.94,0,0
74300.225,69.41,-1586.4,0,0
74560.55,68.6006,-1580.89,0,0
74820.875,67.8557,-1575.27,0,0
75081.2,66.9891,-1569.59,0,0
75341.525,66.2677,-1563.81,0,0
75601.85,65.4327,-1558.19,0,0
75862.175,64.6078,-1552.36,0,0
76122.5,63.7641,-1546.44,0,0
76382.825,63.0105,-1540.63,0,0
76643.15,62.3972,-1534.8,0,0
76903.475,61.7195,-1528.86,0,0
77163.8,61.1929,-1523.03,0,0
77424.125,60.6135,-1517.31,0,0
77684.45,59.9862,-1511.57,0,0
77944.775,59.3674,-1505.79,0,0
78205.1,58.845,-1500.06,0,0
78465.425,58.3026,-1494.29,0,0
78725.75,57.7824,-1488.49,0,0
78986.075,57.312,-1482.8,0,0
79246.4,56.8593,-1477.06,0,0
79506.725,56.4051,-1471.29,0,0
79767.05,56.057,-1465.63,0,0
80027.375,55.7417,-1459.96,0,0
80287.7,55.4677,-1454.3,0,0
80548.025,55.1955,-1448.73,0,0
80808.35,54.898,-1443.21,0,0
81068.675,54.6737,-1437.73,0,0
81329.0,54.4232,-1432.18,0,0
81589.325,54.208,-1426.66,0,0
81849.65,54.0175,-1421.24,0,0
82109.975,53.8846,-1415.84,0,0
82370.3,53.7314,-1410.48,0,0
82630.625,53.5898,-1405.13,0,0
82890.95,53.5374,-1399.85,0,0
83151.275,53.4077,-1394.58,0,0
83411.6,53.3068,-1389.31,0,0
83671.925,53.1669,-1384.15,0,0
83932.25,53.1493,-1378.95,0,0
84192.575,53.1285,-1373.77,0,0
84452.9,53.0199,-1368.69,0,0
84713.225,52.9626,-1363.64,0,0
84973.55,52.8768,-1358.52,0,0
85233.875,52.8746,-1353.49,0,0
85494.2,52.8401,-1348.49,0,0
85754.525,52.8944,-1343.52,0,0
86014.85,52.8688,-1338.51,0,0
86275.175,52.8212,-1333.64,0,0
86535.5,52.8936,-1328.67,0,0
86795.825,52.8999,-1323.79,0,0
87056.15,52.8838,-1318.89,0,0
87316.475,52.9334,-1314.02,0,0
87576.8,53.0759,-1309.07,0,0
87837.125,53.1688,-1304.36,0,0
88097.45,53.2749,-1299.63,0,0
88357.775,53.3085,-1294.81,0,0
88618.1,53.3841,-1289.89,0,0
88878.425,53.6185,-1284.92,0,0
89138.75,54.0754,-1280.26,0,0
89399.075,54.532,-1275.51,0,0
89659.4,54.9344,-1271.06,0,0
89919.725,55.4414,-1266.49,0,0
90180,55.7633,-1262.29,0,0
90440.4,56.0105,-1257.87,0,0
90700.7,56.274,-1253.41,0,0
90961,56.7752,-1249.11,0,0
91221.3,57.1675,-1244.81,0,0
91481.7,57.5488,-1240.61,0,0
91742,57.8779,-1236.28,0,0
92002.3,58.3705,-1232.24,0,0
92262.6,58.8746,-1228,0,0
92523,59.6509,-1224.07,0,0
92783.3,60.1174,-1220.43,0,0
93043.6,60.4342,-1216.55,0,0
93303.9,61.0856,-1212.7,0,0
93564.3,61.7499,-1209.15,0,0
93824.6,62.5373,-1205.79,0,0
94084.9,63.0551,-1203.07,0,0
94345.2,63.0162,-1200.5,0,0
94605.6,62.5118,-1197.8,0,0
94865.9,61.6392,-1194.87,0,0
95126.2,60.5456,-1191.69,0,0
95386.5,59.0464,-1187.96,0,0
95646.9,58.091,-1183.59,0,0
95907.2,57.3939,-1179.43,0,0
96167.5,56.6502,-1175.21,0,0
96427.8,56.2701,-1170.59,0,0
96688.2,56.1535,-1166.26,0,0
96948.5,56.059,-1162.05,0,0
97208.8,55.9658,-1157.97,0,0
97469.1,55.9256,-1153.89,0,0
97729.5,55.8612,-1149.86,0,0
97989.8,55.8267,-1145.8,0,0
98250.1,55.8056,-1141.75,0,0
98510.4,55.8847,-1137.82,0,0
98770.8,55.9576,-1133.95,0,0
99031.1,55.8862,-1130.12,0,0
99291.4,55.8248,-1126.24,0,0
99551.7,55.7662,-1122.37,0,0
99812.1,55.7192,-1118.42,0,0
100072,55.6851,-1114.56,0,0
100333,55.6554,-1110.67,0,0
100593,55.5342,-1106.8,0,0
100853,55.4108,-1102.8,0,0
101114,55.4294,-1098.64,0,0
101374,55.5549,-1094.61,0,0
101634,55.6544,-1090.46,0,0
101895,55.9623,-1086.36,0,0
102155,56.2777,-1082.23,0,0
102415,56.8277,-1078.05,0,0
102676,57.6492,-1073.95,0,0
102936,58.7012,-1070.33,0,0
103196,59.4623,-1067.02,0,0
103457,59.9077,-1063.71,0,0
103717,60.4102,-1060.07,0,0
103977,61.1967,-1056.42,0,0
104238,62.2496,-1053.12,0,0
104498,63.3671,-1050.31,0,0
104758,63.9141,-1047.85,0,0
105019,64.1722,-1045.34,0,0
105279,64.0862,-1042.55,0,0
105539,64.2535,-1039.49,0,0
105800,64.4706,-1036.83,0,0
106060,64.3958,-1034.22,0,0
106320.175,64.1071,-1031.47,0,0
106580.5,63.7925,-1028.54,0,0
106840.825,63.4379,-1025.6,0,0
107101.15,62.9981,-1022.41,0,0
107361.475,62.7898,-1019.23,0,0
107621.8,62.4097,-1016.14,0,0
107882.125,62.0168,-1012.86,0,0
108142.45,61.7125,-1009.64,0,0
108402.775,61.2838,-1006.51,0,0
108663.1,60.6806,-1003.01,0,0
108923.425,60.2153,-999.27,0,0
109183.75,60.0627,-995.507,0,0
109444.075,59.983,-991.844,0,0
109704.4,59.8739,-988.296,0,0
109964.725,59.8632,-984.591,0,0
110225.05,59.7511,-980.846,0,0
110485.375,59.8775,-976.975,0,0
110745.7,60.2031,-973.132,0,0
111006.025,60.7772,-969.506,0,0
111266.35,61.3094,-965.991,0,0
111526.675,61.7002,-962.552,0,0
111787.0,62.1562,-959.237,0,0
112047.325,62.6633,-955.942,0,0
112307.65,63.1856,-952.763,0,0
112567.975,63.5596,-949.595,0,0
112828.3,63.9515,-946.444,0,0
113088.625,64.3754,-943.404,0,0
113348.95,64.5706,-940.446,0,0
113609.275,64.6105,-937.305,0,0
113869.6,64.8048,-934.006,0,0
114129.925,64.9837,-930.785,0,0
114390.25,65.1461,-927.483,0,0
114650.575,65.3111,-924.108,0,0
114910.9,65.578,-920.677,0,0
115171.225,65.9228,-917.235,0,0
115431.55,66.3672,-913.755,0,0
115691.875,66.812,-910.352,0,0
115952.2,67.3726,-906.93,0,0
116212.525,67.9546,-903.475,0,0
116472.85,68.5908,-900.003,0,0
116733.175,69.3717,-896.606,0,0
116993.5,70.1676,-893.308,0,0
117253.825,70.911,-889.918,0,0
117514.15,71.7291,-886.222,0,0
117774.475,73.2701,-882.464,0,0
118034.8,75.105,-879.509,0,0
118295.125,76.5658,-876.807,0,0
118555.45,78.1003,-874.269,0,0
118815.775,79.1979,-871.894,0,0
119076.1,80.2879,-869.03,0,0
119336.425,82.043,-866.15,0,0
119596.75,84.1383,-863.899,0,0
119857.075,86.1315,-862.199,0,0
120117.4,88.0421,-861.158,0,0
120377.725,89.0046,-860.78,0,0
120638.05,89.3261,-860.047,0,0
120898.375,89.3004,-859.412,0,0
121158.7,88.5352,-858.35,0,0
121419.025,87.5889,-856.714,0,0
121679.35,86.5475,-854.649,0,0
121939.675,85.6398,-851.911,0,0
122200.0,85.2154,-848.979,0,0
122460,85.0427,-846.012,0,0
122721,85.1806,-843.025,0,0
122981,85.5697,-840.144,0,0
123241,86.093,-837.569,0,0
123502,86.3769,-835.131,0,0
123762,86.647,-832.551,0,0
124022,87.0745,-829.949,0,0
124283,87.5665,-827.488,0,0
124543,88.1075,-825.116,0,0
124803,88.5874,-822.848,0,0
125064,89.0501,-820.572,0,0
125324,89.5359,-818.379,0,0
125584,89.9747,-816.278,0,0
125845,90.4072,-814.236,0,0
126105,90.7458,-812.366,0,0
126365,90.8943,-810.548,0,0
126626,90.8199,-808.512,0,0
126886,90.838,-806.366,0,0
127146,90.9107,-804.236,0,0
127406,91.0925,-802.171,0,0
127667,91.1606,-800.313,0,0
127927,90.9832,-798.406,0,0
128187,90.6657,-796.392,0,0
128448,90.203,-794.188,0,0
128708,89.8787,-791.674,0,0
128968,89.8116,-789.194,0,0
129229,89.769,-786.804,0,0
129489,89.7068,-784.454,0,0
129749,89.4497,-782.038,0,0
130010,89.4038,-779.389,0,0
130270,89.6366,-776.85,0,0
130530,89.9069,-774.428,0,0
130791,90.2337,-772.228,0,0
131051,90.4429,-770.282,0,0
131311,90.3478,-768.352,0,0
131572,90.1239,-766.328,0,0
131832,89.7324,-764.192,0,0
132092,89.3457,-761.862,0,0
132353,89.0483,-759.431,0,0
132613,88.8627,-756.921,0,0
132873,88.7355,-754.538,0,0
133134,88.5472,-752.188,0,0
133394,88.3229,-749.891,0,0
133654,87.9924,-747.535,0,0
133915,87.6059,-745.015,0,0
134175,87.3026,-742.426,0,0
134435,87.1248,-739.783,0,0
134696,86.9671,-737.308,0,0
134956,86.667,-734.74,0,0
135216,86.4358,-732.06,0,0
135477,86.3093,-729.435,0,0
135737,86.1191,-726.912,0,0
135997,85.7535,-724.409,0,0
136258,85.3301,-721.631,0,0
136518,84.9982,-718.703,0,0
136778,84.8041,-715.744,0,0
137039,84.7092,-712.755,0,0
137299,84.5997,-709.742,0,0
137559,84.7226,-706.594,0,0
137819,85.0202,-703.598,0,0
138080,85.356,-700.838,0,0
138340.125,85.7071,-698.069,0,0
138600.45,86.1229,-695.532,0,0
138860.775,86.3005,-693.2,0,0
139121.1,86.1989,-690.739,0,0
139381.425,86.1534,-688.167,0,0
139641.75,86.0414,-685.618,0,0
139902.075,85.8082,-682.919,0,0
140162.4,85.7784,-680.051,0,0
140422.725,85.8714,-677.392,0,0
140683.05,85.7559,-674.818,0,0
140943.375,85.5606,-672.16,0,0
141203.7,85.2878,-669.461,0,0
141464.025,84.9284,-666.685,0,0
141724.35,84.4575,-663.73,0,0
141984.675,84.0993,-660.565,0,0
142245.0,83.8746,-657.368,0,0
142505.325,83.6437,-654.175,0,0
142765.65,83.4128,-650.857,0,0
143025.975,83.2955,-647.467,0,0
143286.3,83.2207,-644.027,0,0
143546.625,83.2653,-640.559,0,0
143806.95,83.3326,-637.133,0,0
144067.275,83.3476,-633.641,0,0
144327.6,83.474,-630.044,0,0
144587.925,83.6751,-626.441,0,0
144848.25,83.9216,-622.794,0,0
145108.575,84.329,-619.135,0,0
145368.9,84.7184,-615.589,0,0
145629.225,85.0817,-612.029,0,0
145889.55,85.3664,-608.4,0,0
146149.875,85.6664,-604.559,0,0
146410.2,86.2339,-600.587,0,0
146670.525,86.9446,-596.776,0,0
146930.85,87.548,-592.989,0,0
147191.175,88.2143,-589.064,0,0
147451.5,89.0612,-585.116,0,0
147711.825,89.9648,-581.246,0,0
147972.15,90.8176,-577.331,0,0
148232.475,91.7599,-573.297,0,0
148492.8,92.8458,-569.225,0,0
148753.125,94.041,-565.169,0,0
149013.45,95.3129,-561.122,0,0
149273.775,96.6094,-556.986,0,0
149534.1,98.1362,-552.748,0,0
149794.425,99.9031,-548.574,0,0
150054.75,101.817,-544.548,0,0
150315.075,103.821,-540.593,0,0
150575.4,105.948,-536.748,0,0
150835.725,108.11,-533.014,0,0
151096.05,110.315,-529.345,0,0
151356.375,112.571,-525.736,0,0
151616.7,114.945,-522.148,0,0
151877.025,117.5,-518.673,0,0
152137.35,120.162,-515.523,0,0
152397.675,122.635,-512.592,0,0
152658.0,124.993,-509.674,0,0
152918.325,127.381,-506.786,0,0
153178.65,129.684,-504.086,0,0
153438.975,131.722,-501.413,0,0
153699.3,133.701,-498.461,0,0
153959.625,135.928,-495.403,0,0
154219.95,138.4,-492.578,0,0
154480,140.716,-490.218,0,0
154741,142.441,-487.735,0,0
155001,144.066,-484.857,0,0
155261,145.85,-481.726,0,0
155522,147.907,-478.533,0,0
155782,149.914,-475.519,0,0
156042,151.94,-472.326,0,0
156303,153.993,-469.033,0,0
156563,156.104,-465.661,0,0
156823,158.432,-461.924,0,0
157084,161.312,-458.217,0,0
157344,164.634,-454.573,0,0
157604,168.642,-451.608,0,0
157864,172.453,-449.615,0,0
158125,175.806,-448.391,0,0
158385,177.853,-447.617,0,0
158645,178.982,-446.006,0,0
158906,179.894,-443.678,0,0
159166,180.897,-440.93,0,0
159426,181.679,-437.743,0,0
159687,182.529,-433.914,0,0
159947,183.527,-429.399,0,0
160207,185.019,-424.104,0,0
160468,187.675,-418.452,0,0
160728,191.198,-413.469,0,0
160988,194.434,-409.183,0,0
161249,196.972,-404.301,0,0
161509,200.174,-398.196,0,0
161769,204.817,-391.929,0,0
162030,210.506,-386.514,0,0
162290,216.042,-381.826,0,0
162550,221.729,-377.2,0,0
162811,227.426,-372.686,0,0
163071,233.124,-367.785,0,0
163331,239.838,-362.39,0,0
163592,247.817,-357.509,0,0
163852,256.305,-353.672,0,0
164112,264.812,-350.273,0,0
164373,273.575,-347.065,0,0
164633,283.036,-344.173,0,0
164893,293.394,-341.689,0,0
165154,304.751,-340.967,0,0
165414,315.776,-341.907,0,0
165674,325.798,-343.887,0,0
165935,335.129,-345.987,0,0
166195,344.638,-348.441,0,0
166455,353.87,-351.881,0,0
166716,362.71,-355.543,0,0
166976,371.842,-359.976,0,0
167236,380.299,-365.597,0,0
167497,387.91,-372.08,0,0
167757,394.114,-378.886,0,0
168017,399.46,-385.725,0,0
168277,403.916,-392.26,0,0
168538,407.873,-398.374,0,0
168798,412.179,-404.382,0,0
169058,416.326,-411.238,0,0
169319,419.734,-418.822,0,0
169579,421.745,-426.921,0,0
169839,421.854,-435.02,0,0
170100,420.13,-441.575,0,0
170360.075,418.136,-445.997,0,0
170620.4,416.981,-449.104,0,0
170880.725,416.651,-452.275,0,0
171141.05,415.793,-455.153,0,0
171401.375,415.623,-456.729,0,0
171661.7,416.813,-458.745,0,0
171922.025,417.875,-461.656,0,0
172182.35,418.198,-464.884,0,0
172442.675,417.823,-467.239,0,0
172703.0,418.097,-468.468,0,0
172963.325,419.649,-469.621,0,0
173223.65,421.816,-471.756,0,0
173483.975,423.882,-474.611,0,0
173744.3,425.353,-478.021,0,0
174004.625,426.242,-481.035,0,0
174264.95,427.74,-483.628,0,0
174525.275,429.747,-487.095,0,0
174785.6,430.764,-491.251,0,0
175045.925,431.419,-494.567,0,0
175306.25,433.014,-497.728,0,0
175566.575,435.432,-501.916,0,0
175826.9,437.702,-508.073,0,0
176087.225,437.818,-515.183,0,0
176347.55,436.666,-521.704,0,0
176607.875,435.513,-528.126,0,0
176868.2,433.48,-535.788,0,0
177128.525,428.662,-543.761,0,0
177388.85,421.771,-549.587,0,0
177649.175,414.688,-553.359,0,0
177909.5,407.733,-556.436,0,0
178169.825,399.582,-558.558,0,0
178430.15,391.107,-558.004,0,0
178690.475,384.056,-555.447,0,0
178950.8,378.566,-552.125,0,0
179211.125,374.198,-548.386,0,0
179471.45,370.963,-544.283,0,0
179731.775,368.865,-540.16,0,0
179992.1,367.755,-536.248,0,0
180252.425,367.556,-532.783,0,0
180512.75,368.015,-529.785,0,0
180773.075,369.125,-527.298,0,0
181033.4,370.723,-525.714,0,0
181293.725,372.554,-525.111,0,0
181554.05,373.997,-525.524,0,0
181814.375,374.946,-526.409,0,0
182074.7,375.46,-527.742,0,0
182335.025,375.163,-529.472,0,0
182595.35,374.243,-530.941,0,0
182855.675,373.048,-532.299,0,0
183116.0,371.485,-533.557,0,0
183376.325,369.67,-534.734,0,0
183636.65,367.393,-535.826,0,0
183896.975,364.574,-536.689,0,0
184157.3,361.409,-536.904,0,0
184417.625,358.398,-536.729,0,0
184677.95,355.023,-536.596,0,0
184938.275,351.19,-535.518,0,0
185198.6,347.911,-533.802,0,0
185458.925,344.618,-532.058,0,0
185719.25,341.243,-529.885,0,0
185979.575,337.96,-527.19,0,0
186239.9,334.697,-523.915,0,0
186500,331.812,-519.678,0,0
186761,330.121,-514.997,0,0
187021,329.387,-510.73,0,0
187281,328.793,-507.035,0,0
187542,328.106,-503.3,0,0
187802,327.753,-499.454,0,0
188062,327.743,-495.732,0,0
188322,327.972,-492.352,0,0
188583,327.892,-489.287,0,0
188843,327.387,-486.065,0,0
189103,326.819,-482.067,0,0
189364,326.957,-477.431,0,0
189624,327.924,-472.945,0,0
189884,329.29,-468.876,0,0
190145,330.828,-465.146,0,0
190405,332.373,-461.549,0,0
190665,334.014,-458,0,0
190926,335.887,-454.655,0,0
191186,337.706,-451.556,0,0
191446,339.389,-448.573,0,0
191707,340.981,-445.384,0,0
191967,342.813,-442.177,0,0
192227,344.568,-439.209,0,0
192488,345.929,-435.971,0,0
192748,347.372,-432.077,0,0
193008,349.363,-427.618,0,0
193269,352.192,-423.005,0,0
193529,355.801,-418.659,0,0
193789,359.912,-414.863,0,0
194050,364.181,-411.482,0,0
194310,368.619,-408.448,0,0
194570,373.137,-405.793,0,0
194831,377.639,-403.405,0,0
195091,382.181,-401.023,0,0
195351,386.827,-398.784,0,0
195612,391.693,-396.465,0,0
195872,397.328,-394.276,0,0
196132,403.736,-392.897,0,0
196393,410.351,-392.857,0,0
196653,416.355,-393.991,0,0
196913,421.301,-395.757,0,0
197174,424.99,-397.419,0,0
197434,428.352,-398.276,0,0
197694,432.251,-398.951,0,0
197955,436.37,-400.361,0,0
198215,439.683,-402.453,0,0
198475,442.082,-404.45,0,0
198735,443.723,-406.104,0,0
198996,444.912,-406.903,0,0
199256,446.36,-407.018,0,0
199516,448.127,-407.072,0,0
199777,449.9,-407.112,0,0
200037,451.35,-407.209,0,0
200297,452.299,-406.882,0,0
200558,452.892,-405.525,0,0
200818,454.215,-402.925,0,0
201078,456.788,-400.098,0,0
201339,460.085,-397.551,0,0
201599,463.79,-395.333,0,0
201859,467.614,-393.168,0,0
202120,471.81,-390.797,0,0
202380.025,476.806,-388.293,0,0
202640.35,482.849,-386.28,0,0
202900.675,489.418,-385.236,0,0
203161.0,496.011,-385.093,0,0
203421.325,502.352,-385.565,0,0
203681.65,508.667,-386.177,0,0
203941.975,515.251,-387.346,0,0
204202.3,521.666,-389.388,0,0
204462.625,527.707,-391.986,0,0
204722.95,533.263,-395.122,0,0
204983.275,538.192,-398.663,0,0
205243.6,542.439,-402.728,0,0
205503.925,545.263,-406.76,0,0
205764.25,547.071,-409.817,0,0
206024.575,548.722,-411.712,0,0
206284.9,550.534,-412.897,0,0
206545.225,552.564,-413.2,0,0
206805.55,555.456,-412.723,0,0
207065.875,559.105,-412.192,0,0
207326.2,563.622,-411.836,0,0
207586.525,568.397,-411.867,0,0
207846.85,573.217,-411.811,0,0
208107.175,578.854,-411.373,0,0
208367.5,585.72,-411.365,0,0
208627.825,593.262,-412.388,0,0
208888.15,601.023,-414.437,0,0
209148.475,608.626,-417.619,0,0
209408.8,615.47,-421.429,0,0
209669.125,621.887,-425.176,0,0
209929.45,628.516,-429.127,0,0
210189.775,635.055,-433.389,0,0
210450.1,641.516,-437.888,0,0
210710.425,648.027,-442.781,0,0
210970.75,654.473,-447.944,0,0
211231.075,661.016,-453.732,0,0
211491.4,667.215,-460.265,0,0
211751.725,672.791,-467.198,0,0
212012.05,677.786,-474.037,0,0
212272.375,682.586,-480.691,0,0
212532.7,687.605,-487.391,0,0
212793.025,692.88,-494.449,0,0
213053.35,698.181,-502.278,0,0
213313.675,703.091,-510.943,0,0
213574.0,707.189,-520.188,0,0
213834.325,710.415,-529.612,0,0
214094.65,713.085,-538.94,0,0
214354.975,715.311,-548.283,0,0
214615.3,716.716,-557.558,0,0
214875.625,717.781,-566.455,0,0
215135.95,718.761,-574.918,0,0
215396.275,719.824,-583.532,0,0
215656.6,720.734,-592.102,0,0
215916.925,721.555,-600.84,0,0
216177.25,722.224,-609.767,0,0
216437.575,722.74,-618.923,0,0
216697.9,722.828,-628.572,0,0
216958.225,722.197,-638.51,0,0
217218.55,720.788,-648.243,0,0
217478.875,718.898,-657.907,0,0
217739.2,716.208,-667.446,0,0
217999.525,712.853,-676.311,0,0
218259.85,709.359,-684.47,0,0
218520,705.875,-692.203,0,0
218780,702.275,-699.478,0,0
219041,698.826,-706.313,0,0
219301,695.687,-713.039,0,0
219561,692.696,-719.64,0,0
219822,689.867,-726.444,0,0
220082,687.201,-733.293,0,0
220342,684.492,-740.535,0,0
220603,681.658,-748.037,0,0
220863,678.592,-756.031,0,0
221123,674.882,-764.077,0,0
221384,670.976,-772.301,0,0
221644,666.686,-780.88,0,0
221904,661.534,-790.041,0,0
222165,654.967,-799.118,0,0
222425,647.209,-807.499,0,0
222685,638.528,-814.891,0,0
222946,629.528,-821.025,0,0
223206,620.499,-826.351,0,0
223466,611.381,-830.987,0,0
223727,601.994,-834.64,0,0
223987,592.885,-837.396,0,0
224247,584.132,-839.276,0,0
224508,575.823,-840.345,0,0
224768,568.119,-840.755,0,0
225028,561.437,-840.672,0,0
225289,555.639,-840.707,0,0
225549,550.455,-841.124,0,0
225809,545.572,-841.855,0,0
226070,540.909,-842.683,0,0
226330,536.331,-843.922,0,0
226590,531.767,-845.131,0,0
226851,527.434,-846.417,0,0
227111,523.395,-847.934,0,0
227371,519.357,-850.289,0,0
227632,514.609,-852.898,0,0
227892,509.366,-855.342,0,0
228152,503.686,-857.6,0,0
228413,497.755,-859.37,0,0
228673,491.89,-860.71,0,0
228933,486.186,-861.672,0,0
229193,480.864,-862.425,0,0
229454,475.701,-863.394,0,0
229714,470.59,-864.562,0,0
229974,465.112,-865.756,0,0
230235,459.424,-866.874,0,0
230495,453.445,-867.522,0,0
230755,447.644,-867.921,0,0
231016,441.843,-867.987,0,0
231276,436.211,-867.896,0,0
231536,430.661,-867.574,0,0
231797,425.375,-867.02,0,0
232057,420.294,-866.563,0,0
232317,415.238,-866.014,0,0
232578,410.291,-865.324,0,0
232838,405.565,-864.589,0,0
233098,400.98,-863.963,0,0
233359,396.364,-863.378,0,0
233619,391.689,-862.759,0,0
233879,386.987,-862.009,0,0
234140,382.404,-861.049,0,0
234400,378.192,-859.996,0,0
234660.3,373.973,-859.125,0,0
234920.625,369.882,-858.355,0,0
235180.95,365.828,-857.705,0,0
235441.275,361.67,-857.246,0,0
235701.6,357.394,-856.791,0,0
235961.925,352.843,-856.307,0,0
236222.25,348.173,-855.678,0,0
236482.575,343.42,-854.722,0,0
236742.9,338.754,-853.516,0,0
237003.225,334.281,-852.42,0,0
237263.55,329.657,-851.407,0,0
237523.875,324.801,-850.267,0,0
237784.2,319.875,-848.942,0,0
238044.525,314.865,-847.16,0,0
238304.85,309.999,-845.141,0,0
238565.175,305.278,-842.883,0,0
238825.5,300.671,-840.477,0,0
239085.825,296.335,-837.877,0,0
239346.15,292.228,-835.261,0,0
239606.475,288.205,-832.582,0,0
239866.8,284.335,-829.927,0,0
240127.125,280.436,-827.186,0,0
240387.45,276.609,-824.422,0,0
240647.775,272.906,-821.444,0,0
240908.1,269.298,-818.414,0,0
241168.425,265.722,-815.27,0,0
241428.75,262.219,-811.939,0,0
241689.075,259.052,-808.297,0,0
241949.4,256.105,-804.596,0,0
242209.725,253.486,-800.827,0,0
242470.05,251.226,-797.127,0,0
242730.375,249.003,-793.562,0,0
242990.7,247.252,-789.902,0,0
243251.025,245.915,-786.519,0,0
243511.35,244.75,-783.463,0,0
243771.675,243.665,-780.843,0,0
244032.0,242.321,-778.593,0,0
244292.325,240.725,-776.504,0,0
244552.65,238.816,-774.345,0,0
244812.975,236.729,-772.014,0,0
245073.3,234.617,-769.45,0,0
245333.625,232.557,-766.722,0,0
245593.95,230.622,-763.771,0,0
245854.275,228.946,-760.814,0,0
246114.6,227.322,-757.748,0,0
246374.925,225.888,-754.785,0,0
246635.25,224.632,-751.65,0,0
246895.575,223.595,-748.757,0,0
247155.9,222.606,-745.929,0,0
247416.225,221.643,-743.287,0,0
247676.55,220.514,-740.638,0,0
247936.875,219.4,-737.84,0,0
248197.2,218.427,-734.864,0,0
248457.525,217.603,-731.817,0,0
248717.85,217.111,-728.675,0,0
248978.175,217.013,-725.605,0,0
249238.5,217.264,-722.852,0,0
249498.825,217.657,-720.536,0,0
249759.15,217.97,-718.536,0,0
250019.475,218.235,-716.798,0,0
250279.8,218.383,-715.326,0,0
250540,218.322,-714.1,0,0
250800,217.971,-712.942,0,0
251061,217.471,-711.813,0,0
251321,216.775,-710.641,0,0
251581,215.954,-709.452,0,0
251842,214.956,-708.213,0,0
252102,213.817,-706.923,0,0
252362,212.609,-705.446,0,0
252623,211.307,-703.829,0,0
252883,209.976,-702.081,0,0
253143,208.694,-700.28,0,0
253404,207.29,-698.412,0,0
253664,205.775,-696.375,0,0
253924,204.214,-694.024,0,0
254185,202.816,-691.339,0,0
254445,201.571,-688.486,0,0
254705,200.579,-685.502,0,0
254966,199.68,-682.48,0,0
255226,198.96,-679.26,0,0
255486,198.464,-675.886,0,0
255747,198.271,-672.396,0,0
256007,198.412,-668.895,0,0
256267,198.894,-665.506,0,0
256528,199.598,-662.166,0,0
256788,200.542,-659.005,0,0
257048,201.792,-656.086,0,0
257309,203.068,-653.36,0,0
257569,204.376,-650.834,0,0
257829,205.675,-648.435,0,0
258090,206.896,-645.98,0,0
258350,208.289,-643.416,0,0
258610,209.941,-640.82,0,0
258871,211.915,-638.265,0,0
259131,214.166,-635.86,0,0
259391,216.723,-633.733,0,0
259651,219.564,-631.902,0,0
259912,222.441,-630.46,0,0
260172,225.393,-629.216,0,0
260432,228.49,-628.171,0,0
260693,231.834,-627.337,0,0
260953,235.539,-626.947,0,0
261213,239.466,-627.192,0,0
261474,243.321,-628.258,0,0
261734,246.907,-630.054,0,0
261994,249.96,-632.402,0,0
262255,252.523,-635.197,0,0
262515,254.466,-638.362,0,0
262775,255.739,-641.601,0,0
263036,256.484,-644.75,0,0
263296,256.913,-647.837,0,0
263556,257.003,-650.94,0,0
263817,256.655,-654.034,0,0
264077,255.939,-657.101,0,0
264337,254.732,-659.978,0,0
264598,253.198,-662.621,0,0
264858,251.58,-664.987,0,0
265118,249.714,-667.29,0,0
265379,247.615,-669.503,0,0
265639,245.178,-671.519,0,0
265899,242.465,-673.289,0,0
266160,239.481,-674.778,0,0
266420,236.284,-675.987,0,0
266680.25,232.87,-676.778,0,0
266940.575,229.259,-677.138,0,0
267200.9,225.628,-676.962,0,0
267461.225,222.119,-676.29,0,0
267721.55,218.826,-675.185,0,0
267981.875,215.881,-673.75,0,0
268242.2,213.228,-672.1,0,0
268502.525,210.923,-670.401,0,0
268762.85,208.907,-668.663,0,0
269023.175,206.994,-666.975,0,0
269283.5,205.14,-665.24,0,0
269543.825,203.412,-663.418,0,0
269804.15,201.833,-661.503,0,0
270064.475,200.31,-659.508,0,0
270324.8,199.096,-657.492,0,0
270585.125,198.092,-655.396,0,0
270845.45,197.246,-653.443,0,0
271105.775,196.52,-651.559,0,0
271366.1,195.82,-649.763,0,0
271626.425,195.223,-647.908,0,0
271886.75,194.81,-646.168,0,0
272147.075,194.48,-644.524,0,0
272407.4,194.089,-643.097,0,0
272667.725,193.565,-641.713,0,0
272928.05,192.964,-640.296,0,0
273188.375,192.307,-638.677,0,0
273448.7,191.745,-636.997,0,0
273709.025,191.252,-635.178,0,0
273969.35,190.875,-633.25,0,0
274229.675,190.739,-631.305,0,0
274490.0,190.692,-629.434,0,0
274750.325,190.7,-627.472,0,0
275010.65,190.829,-625.482,0,0
275270.975,191.134,-623.502,0,0
275531.3,191.658,-621.5,0,0
275791.625,192.313,-619.552,0,0
276051.95,193.203,-617.658,0,0
276312.275,194.313,-615.85,0,0
276572.6,195.663,-614.205,0,0
276832.925,197.219,-612.828,0,0
277093.25,198.813,-611.709,0,0
277353.575,200.469,-610.86,0,0
277613.9,202.15,-610.204,0,0
277874.225,203.781,-609.732,0,0
278134.55,205.473,-609.445,0,0
278394.875,207.216,-609.425,0,0
278655.2,208.884,-609.662,0,0
278915.525,210.4,-610.187,0,0
279175.85,211.779,-610.897,0,0
279436.175,212.989,-611.764,0,0
279696.5,214.055,-612.752,0,0
279956.825,214.978,-613.901,0,0
280217.15,215.716,-615.215,0,0
280477.475,216.117,-616.61,0,0
280737.8,216.325,-618.041,0,0
280998.125,216.28,-619.391,0,0
281258.45,216.086,-620.714,0,0
281518.775,215.717,-622.028,0,0
281779.1,215.19,-623.303,0,0
282039.425,214.5,-624.513,0,0
282299.75,213.674,-625.563,0,0
282560,212.793,-626.538,0,0
282820,211.829,-627.48,0,0
283081,210.718,-628.409,0,0
283341,209.455,-629.194,0,0
283601,208.112,-629.836,0,0
283862,206.712,-630.315,0,0
284122,205.331,-630.669,0,0
284382,203.928,-630.941,0,0
284643,202.463,-631.167,0,0
284903,200.915,-631.242,0,0
285163,199.373,-631.161,0,0
285424,197.854,-630.892,0,0
285684,196.429,-630.516,0,0
285944,195.057,-630.031,0,0
286205,193.75,-629.514,0,0
286465,192.481,-628.836,0,0
286725,191.298,-628.065,0,0
286986,190.288,-627.21,0,0
287246,189.433,-626.323,0,0
287506,188.759,-625.514,0,0
287767,188.154,-624.782,0,0
288027,187.557,-624.113,0,0
288287,186.993,-623.506,0,0
288548,186.407,-622.894,0,0
288808,185.867,-622.195,0,0
289068,185.464,-621.513,0,0
289329,185.22,-620.86,0,0
289589,185.095,-620.375,0,0
289849,185.039,-620.099,0,0
290109,184.97,-620.025,0,0
290370,184.753,-620.148,0,0
290630,184.313,-620.448,0,0
290890,183.679,-620.806,0,0
291151,182.787,-621.067,0,0
291411,181.744,-621.231,0,0
291671,180.59,-621.25,0,0
291932,179.411,-621.13,0,0
292192,178.15,-620.898,0,0
292452,176.85,-620.544,0,0
292713,175.537,-620.016,0,0
292973,174.307,-619.309,0,0
293233,173.157,-618.496,0,0
293494,172.161,-617.569,0,0
293754,171.266,-616.615,0,0
294014,170.487,-615.674,0,0
294275,169.766,-614.655,0,0
294535,169.148,-613.634,0,0
294795,168.71,-612.596,0,0
295056,168.411,-611.624,0,0
295316,168.228,-610.712,0,0
295576,168.151,-609.952,0,0
295837,168.107,-609.317,0,0
296097,168.063,-608.819,0,0
296357,168.026,-608.424,0,0
296618,167.931,-608.159,0,0
296878,167.759,-607.976,0,0
297138,167.512,-607.825,0,0
297399,167.228,-607.702,0,0
297659,166.902,-607.626,0,0
297919,166.464,-607.587,0,0
298180,165.986,-607.522,0,0
298440,165.476,-607.469,0,0
298700.2,164.897,-607.398,0,0
298960.525,164.312,-607.333,0,0
299220.85,163.68,-607.27,0,0
299481.175,163.036,-607.209,0,0
299741.5,162.337,-607.149,0,0
300001.825,161.591,-607.109,0,0
300262.15,160.781,-607.051,0,0
300522.475,159.926,-606.959,0,0
300782.8,159.022,-606.873,0,0
301043.125,158.097,-606.728,0,0
301303.45,157.114,-606.563,0,0
301563.775,156.123,-606.354,0,0
301824.1,155.054,-606.105,0,0
302084.425,153.958,-605.815,0,0
302344.75,152.843,-605.446,0,0
302605.075,151.71,-604.998,0,0
302865.4,150.578,-604.508,0,0
303125.725,149.481,-603.96,0,0
303386.05,148.393,-603.377,0,0
303646.375,147.31,-602.748,0,0
303906.7,146.216,-602.091,0,0
304167.025,145.131,-601.367,0,0
304427.35,144.077,-600.585,0,0
304687.675,143.03,-599.778,0,0
304948.0,142.034,-598.896,0,0
305208.325,141.063,-597.981,0,0
305468.65,140.148,-596.995,0,0
305728.975,139.299,-595.996,0,0
305989.3,138.512,-594.991,0,0
306249.625,137.764,-593.97,0,0
306509.95,137.067,-592.955,0,0
306770.275,136.384,-591.922,0,0
307030.6,135.767,-590.86,0,0
307290.925,135.212,-589.787,0,0
307551.25,134.734,-588.749,0,0
307811.575,134.309,-587.732,0,0
308071.9,133.941,-586.758,0,0
308332.225,133.596,-585.799,0,0
308592.55,133.27,-584.902,0,0
308852.875,132.992,-584.036,0,0
309113.2,132.725,-583.215,0,0
309373.525,132.468,-582.437,0,0
309633.85,132.213,-581.679,0,0
309894.175,131.995,-580.983,0,0
310154.5,131.798,-580.305,0,0
310414.825,131.593,-579.724,0,0
310675.15,131.361,-579.24,0,0
310935.475,131.059,-578.811,0,0
311195.8,130.682,-578.398,0,0
311456.125,130.235,-577.998,0,0
311716.45,129.732,-577.596,0,0
311976.775,129.171,-577.175,0,0
312237.1,128.547,-576.745,0,0
312497.425,127.875,-576.286,0,0
312757.75,127.138,-575.768,0,0
313018.075,126.361,-575.204,0,0
313278.4,125.529,-574.564,0,0
313538.725,124.678,-573.859,0,0
313799.05,123.832,-573.019,0,0
314059.375,122.99,-572.11,0,0
314319.7,122.216,-571.097,0,0
314580,121.468,-569.995,0,0
314840,120.836,-568.874,0,0
315101,120.315,-567.625,0,0
315361,119.946,-566.445,0,0
315621,119.577,-565.162,0,0
315882,119.341,-564.014,0,0
316142,119.178,-562.888,0,0
316402,119.132,-561.804,0,0
316663,119.031,-560.782,0,0
316923,119.056,-559.753,0,0
317183,119.126,-558.882,0,0
317444,119.1,-558.043,0,0
317704,119.183,-557.235,0,0
317964,119.13,-556.497,0,0
318225,119.185,-555.82,0,0
318485,119.181,-555.085,0,0
318745,119.013,-554.421,0,0
319006,118.953,-553.731,0,0
319266,119.024,-552.996,0,0
319526,118.958,-552.284,0,0
319787,118.903,-551.599,0,0
320047,118.968,-550.97,0,0
320307,118.966,-550.316,0,0
320567,118.933,-549.644,0,0
320828,119.006,-548.921,0,0
321088,118.992,-548.248,0,0
321348,119.162,-547.595,0,0
321609,119.293,-547.029,0,0
321869,119.562,-546.411,0,0
322129,119.828,-545.837,0,0
322390,120.075,-545.393,0,0
322650,120.466,-545.002,0,0
322910,120.848,-544.748,0,0
323171,121.247,-544.522,0,0
323431,121.502,-544.452,0,0
323691,121.846,-544.511,0,0
323952,122.07,-544.635,0,0
324212,122.179,-544.919,0,0
324472,122.216,-545.167,0,0
324733,122.185,-545.486,0,0
324993,121.884,-545.856,0,0
325253,121.597,-546.182,0,0
325514,121.22,-546.549,0,0
325774,120.787,-546.744,0,0
326034,120.168,-546.984,0,0
326295,119.512,-547.254,0,0
326555,118.849,-547.442,0,0
326815,118.091,-547.533,0,0
327076,117.34,-547.57,0,0
327336,116.509,-547.618,0,0
327596,115.657,-547.573,0,0
327857,114.761,-547.513,0,0
328117,113.915,-547.442,0,0
328377,112.963,-547.267,0,0
328638,111.971,-546.995,0,0
328898,111.04,-546.689,0,0
329158,110.058,-546.31,0,0
329419,109.205,-545.932,0,0
329679,108.265,-545.527,0,0
329939,107.418,-545.057,0,0
330200,106.575,-544.581,0,0
330460,105.666,-544.153,0,0
330720.15,104.856,-543.63,0,0
330980.475,103.992,-543.235,0,0
331240.8,103.128,-542.691,0,0
331501.125,102.279,-542.15,0,0
331761.45,101.315,-541.658,0,0
332021.775,100.385,-541.088,0,0
332282.1,99.3992,-540.452,0,0
332542.425,98.4205,-539.815,0,0
332802.75,97.5337,-539.081,0,0
333063.075,96.5367,-538.326,0,0
333323.4,95.6495,-537.634,0,0
333583.725,94.6607,-536.748,0,0
333844.05,93.7207,-536.011,0,0
334104.375,92.893,-535.066,0,0
334364.7,91.9598,-534.09,0,0
334625.025,91.1549,-533.141,0,0
334885.35,90.2495,-532.107,0,0
335145.675,89.4493,-531.118,0,0
335406.0,88.6635,-529.997,0,0
335666.325,87.8465,-528.906,0,0
335926.65,87.2377,-527.731,0,0
336186.975,86.5883,-526.625,0,0
336447.3,85.9789,-525.504,0,0
336707.625,85.3789,-524.283,0,0
336967.95,84.7783,-523.139,0,0
337228.275,84.3284,-521.996,0,0
337488.6,83.8156,-520.82,0,0
337748.925,83.3273,-519.647,0,0
338009.25,82.8172,-518.456,0,0
338269.575,82.3833,-517.279,0,0
338529.9,81.9968,-515.998,0,0
338790.225,81.5762,-514.852,0,0
339050.55,81.1906,-513.61,0,0
339310.875,80.7553,-512.39,0,0
339571.2,80.4957,-510.968,0,0
339831.525,80.1554,-509.699,0,0
340091.85,79.9066,-508.347,0,0
340352.175,79.7322,-506.954,0,0
340612.5,79.6292,-505.518,0,0
340872.825,79.6118,-504.11,0,0
341133.15,79.7211,-502.631,0,0
341393.475,79.8182,-501.288,0,0
341653.8,80.1626,-499.923,0,0
341914.125,80.4517,-498.619,0,0
342174.45,80.7901,-497.396,0,0
342434.775,81.3115,-496.287,0,0
342695.1,81.7772,-495.151,0,0
342955.425,82.3764,-494.237,0,0
343215.75,82.9374,-493.456,0,0
343476.075,83.4542,-492.625,0,0
343736.4,83.9911,-491.949,0,0
343996.725,84.4658,-491.401,0,0
344257.05,84.9067,-490.873,0,0
344517.375,85.308,-490.473,0,0
344777.7,85.6876,-489.998,0,0
345038.025,85.8982,-489.653,0,0
345298.35,86.1034,-489.26,0,0
345558.675,86.2756,-488.923,0,0
345819.0,86.3559,-488.504,0,0
346079.325,86.465,-488.185,0,0
346339.65,86.4497,-487.737,0,0
346599.975,86.491,-487.454,0,0
346860,86.4202,-487.071,0,0
347121,86.3388,-486.64,0,0
347381,86.2686,-486.348,0,0
347641,86.0693,-485.92,0,0
347902,85.8423,-485.449,0,0
348162,85.5976,-484.887,0,0
348422,85.3476,-484.255,0,0
348683,85.1499,-483.644,0,0
348943,84.8855,-482.944,0,0
349203,84.7178,-482.169,0,0
349464,84.6481,-481.296,0,0
349724,84.6208,-480.477,0,0
349984,84.6608,-479.608,0,0
350245,84.8385,-478.682,0,0
350505,85.0027,-477.899,0,0
350765,85.3128,-477.16,0,0
351025,85.6167,-476.443,0,0
351286,86.0141,-475.826,0,0
351546,86.4395,-475.349,0,0
351806,86.8124,-474.96,0,0
352067,87.0862,-474.612,0,0
352327,87.4543,-474.318,0,0
352587,87.6435,-474.137,0,0
352848,87.8736,-473.955,0,0
353108,88.0205,-473.794,0,0
353368,88.0702,-473.702,0,0
353629,88.0318,-473.513,0,0
353889,87.9733,-473.371,0,0
354149,87.8234,-473.27,0,0
354410,87.6142,-473.013,0,0
354670,87.4361,-472.821,0,0
354930,87.2285,-472.527,0,0
355191,86.9551,-472.228,0,0
355451,86.6978,-471.908,0,0
355711,86.4982,-471.593,0,0
355972,86.2322,-471.253,0,0
356232,85.9459,-470.847,0,0
356492,85.612,-470.466,0,0
356753,85.3081,-470.002,0,0
357013,84.9385,-469.566,0,0
357273,84.5747,-469.025,0,0
357534,84.2172,-468.495,0,0
357794,83.8832,-467.806,0,0
358054,83.5827,-467.16,0,0
358315,83.38,-466.456,0,0
358575,83.2218,-465.711,0,0
358835,83.0962,-464.982,0,0
359096,83.0387,-464.288,0,0
359356,83.0257,-463.554,0,0
359616,83.061,-462.865,0,0
359877,83.111,-462.305,0,0
360137,83.1367,-461.767,0,0
360397,83.1776,-461.216,0,0
360658,83.2085,-460.745,0,0
360918,83.1548,-460.257,0,0
361178,83.1446,-459.813,0,0
361438,83.0896,-459.312,0,0
361699,83.0054,-458.816,0,0
361959,82.8972,-458.36,0,0
362219,82.7471,-457.793,0,0
362480,82.6086,-457.302,0,0
362740.1,82.4484,-456.67,0,0
363000.425,82.3739,-455.968,0,0
363260.75,82.3954,-455.318,0,0
363521.075,82.41,-454.657,0,0
363781.4,82.5138,-453.956,0,0
364041.725,82.6075,-453.255,0,0
364302.05,82.8621,-452.719,0,0
364562.375,83.0406,-452.177,0,0
364822.7,83.2711,-451.694,0,0
365083.025,83.5121,-451.218,0,0
365343.35,83.7952,-450.822,0,0
365603.675,83.9943,-450.471,0,0
365864.0,84.1995,-450.17,0,0
366124.325,84.4436,-449.957,0,0
366384.65,84.5722,-449.824,0,0
366644.975,84.6783,-449.758,0,0
366905.3,84.6945,-449.665,0,0
367165.625,84.6191,-449.635,0,0
367425.95,84.4556,-449.586,0,0
367686.275,84.2214,-449.467,0,0
367946.6,83.8612,-449.341,0,0
368206.925,83.4904,-449.177,0,0
368467.25,83.0493,-448.9,0,0
368727.575,82.4935,-448.511,0,0
368987.9,81.9471,-448.033,0,0
369248.225,81.5271,-447.349,0,0
369508.55,81.1405,-446.591,0,0
369768.875,80.8431,-445.825,0,0
370029.2,80.6973,-444.92,0,0
370289.525,80.63,-444.061,0,0
370549.85,80.7267,-443.316,0,0
370810.175,80.9365,-442.541,0,0
371070.5,81.1642,-441.851,0,0
371330.825,81.4431,-441.344,0,0
371591.15,81.8263,-440.816,0,0
371851.475,82.0651,-440.472,0,0
372111.8,82.3582,-440.231,0,0
372372.125,82.5676,-440.048,0,0
372632.45,82.6784,-439.991,0,0
372892.775,82.6996,-439.919,0,0
373153.1,82.6175,-439.919,0,0
373413.425,82.3927,-439.874,0,0
373673.75,82.094,-439.687,0,0
373934.075,81.7377,-439.514,0,0
374194.4,81.3815,-439.224,0,0
374454.725,80.9449,-438.849,0,0
374715.05,80.5716,-438.424,0,0
374975.375,80.2271,-437.952,0,0
375235.7,79.7927,-437.429,0,0
375496.025,79.4516,-436.844,0,0
375756.35,79.0995,-436.158,0,0
376016.675,78.8245,-435.447,0,0
376277.0,78.638,-434.696,0,0
376537.325,78.481,-433.978,0,0
376797.65,78.3997,-433.257,0,0
377057.975,78.3304,-432.477,0,0
377318.3,78.3754,-431.79,0,0
377578.625,78.425,-431.021,0,0
377838.95,78.4338,-430.321,0,0
378099.275,78.556,-429.62,0,0
378359.6,78.728,-428.969,0,0
378619.925,78.911,-428.306,0,0
378880,79.147,-427.709,0,0
379141,79.4071,-427.178,0,0
379401,79.6753,-426.642,0,0
379661,80.0174,-426.239,0,0
379922,80.3583,-425.868,0,0
380182,80.6129,-425.58,0,0
380442,80.8613,-425.355,0,0
380703,81.0471,-425.146,0,0
380963,81.1336,-425.035,0,0
381223,81.2116,-424.829,0,0
381483,81.2221,-424.593,0,0
381744,81.1404,-424.386,0,0
382004,81.1817,-424.186,0,0
382264,81.1654,-424.027,0,0
382525,81.1624,-423.761,0,0
382785,81.1333,-423.57,0,0
383045,81.0099,-423.351,0,0
383306,80.9204,-423.214,0,0
383566,80.786,-423.021,0,0
383826,80.6441,-422.848,0,0
384087,80.4118,-422.691,0,0
384347,80.1902,-422.457,0,0
384607,79.8719,-422.235,0,0
384868,79.579,-421.94,0,0
385128,79.2482,-421.68,0,0
385388,78.9134,-421.301,0,0
385649,78.5567,-420.898,0,0
385909,78.2335,-420.524,0,0
386169,77.8645,-420.068,0,0
386430,77.5274,-419.6,0,0
386690,77.1702,-419.074,0,0
386950,76.7798,-418.509,0,0
387211,76.4179,-417.917,0,0
387471,76.1152,-417.301,0,0
387731,75.7329,-416.625,0,0
387992,75.4515,-415.911,0,0
388252,75.1356,-415.187,0,0
388512,74.8926,-414.414,0,0
388773,74.6966,-413.603,0,0
389033,74.5705,-412.754,0,0
389293,74.3768,-411.877,0,0
389554,74.3048,-410.968,0,0
389814,74.302,-410.045,0,0
390074,74.3552,-409.109,0,0
390335,74.4283,-408.215,0,0
390595,74.5855,-407.243,0,0
390855,74.7924,-406.361,0,0
391116,75.0867,-405.437,0,0
391376,75.415,-404.626,0,0
391636,75.839,-403.82,0,0
391896,76.2925,-403.03,0,0
392157,76.7928,-402.331,0,0
392417,77.3403,-401.665,0,0
392677,77.8959,-401.095,0,0
392938,78.4876,-400.639,0,0
393198,79.0164,-400.224,0,0
393458,79.5441,-399.841,0,0
393719,80.0234,-399.481,0,0
393979,80.4928,-399.263,0,0
394239,80.9303,-398.976,0,0
394500,81.3395,-398.695,0,0
394760.05,81.7904,-398.454,0,0
395020.375,82.202,-398.295,0,0
395280.7,82.5886,-398.093,0,0
395541.025,83.011,-397.955,0,0
395801.35,83.3865,-397.823,0,0
396061.675,83.7426,-397.735,0,0
396322.0,84.0968,-397.679,0,0
396582.325,84.3853,-397.634,0,0
396842.65,84.695,-397.595,0,0
397102.975,84.9287,-397.667,0,0
397363.3,85.1868,-397.69,0,0
397623.625,85.4188,-397.737,0,0
397883.95,85.5597,-397.804,0,0
398144.275,85.6495,-397.907,0,0
398404.6,85.7608,-397.917,0,0
398664.925,85.8083,-398.015,0,0
398925.25,85.8816,-398.081,0,0
399185.575,85.8845,-398.146,0,0
399445.9,85.9056,-398.255,0,0
399706.225,85.8932,-398.353,0,0
399966.55,85.814,-398.523,0,0
400006.6,85.781,-398.52,0,0