File: Accelerated corrosion test data/2025-10-19_06-00-03/sample_7.csv
Frequency (Hz),Impedance (ohms),Phase (Radians),Temperature (C),Humidity (%)
10000.0,277.271,-12163.8,0,0
10260.325,279.313,-11872.1,0,0
10520.65,260.287,-11569.7,0,0
10780.975,254.517,-11286.2,0,0
11041.3,251.649,-11016.8,0,0
11301.625,249.087,-10759.2,0,0
11561.95,253.191,-10509.2,0,0
11822.275,257.458,-10281,0,0
12082.6,268.39,-10044.6,0,0
12342.925,331.753,-9874.21,0,0
12603.25,265.843,-9707.63,0,0
12863.575,272.593,-9517.17,0,0
13123.9,239.95,-9328.76,0,0
13384.225,233.699,-9158.2,0,0
13644.55,226.645,-8971.28,0,0
13904.875,210.587,-8804.89,0,0
14165.2,208.226,-8629.53,0,0
14425.525,205.501,-8491.06,0,0
14685.8,206.219,-8340.01,0,0
14946.175,200.271,-8191.93,0,0
15206.5,199.012,-8060.74,0,0
15466.825,186.642,-7918.15,0,0
15727.15,186.726,-7790.5,0,0
15987.5,180.59,-7661.03,0,0
16247.8,179.134,-7539.58,0,0
16508.125,172.874,-7417.42,0,0
16768.45,171.882,-7297.76,0,0
17028.775,171.45,-7187.82,0,0
17289.1,166.691,-7077.56,0,0
17549.425,166.252,-6968.98,0,0
17809.75,169.117,-6858.57,0,0
18070.075,168.649,-6760.3,0,0
18330.4,177.878,-6652.21,0,0
18590.725,197.734,-6563.93,0,0
18851.05,194.575,-6501.39,0,0
19111.375,181.739,-6408.34,0,0
19371.7,215.432,-6342.98,0,0
19632.025,172.704,-6274.43,0,0
19892.35,158.653,-6171.43,0,0
20152.675,174.924,-6088.03,0,0
20413.0,172.43,-6025.49,0,0
20673.3,170.958,-5937.81,0,0
20933.65,185.545,-5877.69,0,0
21193.975,164.622,-5818.36,0,0
21454.3,157.359,-5741.94,0,0
21714.625,158.105,-5679.55,0,0
21974.9,146.071,-5612.92,0,0
22235.275,141.64,-5543.34,0,0
22495.6,138.551,-5479.26,0,0
22755.925,133.629,-5414.45,0,0
23016.25,130.632,-5350.27,0,0
23276.6,128.714,-5287.13,0,0
23536.9,128.922,-5226.44,0,0
23797.225,127.908,-5170.31,0,0
24057.55,125.009,-5113.16,0,0
24317.875,122.917,-5055.1,0,0
24578.2,124.381,-5000.22,0,0
24838.525,122.765,-4947.12,0,0
25098.85,120.651,-4893.95,0,0
25359.175,119.489,-4842.12,0,0
25619.5,118.89,-4788.86,0,0
25879.8,119.351,-4738.86,0,0
26140.1,119.593,-4686.96,0,0
26400.5,124.367,-4641.66,0,0
26660.8,120.11,-4593.53,0,0
26921.1,121.081,-4542.38,0,0
27181.4,126.766,-4494.08,0,0
27441.8,129.66,-4445.92,0,0
27702.1,139.077,-4397.35,0,0
27962.4,153.337,-4350.12,0,0
28222.7,181.237,-4314.66,0,0
28483.1,201.88,-4301.55,0,0
28743.4,198.89,-4293.27,0,0
29003.7,179.809,-4282.4,0,0
29264,155.229,-4246.31,0,0
29524.4,143.056,-4207.62,0,0
29784.7,132.849,-4168.1,0,0
30045,126.569,-4122.49,0,0
30305.3,128.854,-4081.76,0,0
30565.7,130.574,-4045.9,0,0
30826,130.432,-4013.57,0,0
31086.3,133.355,-3982.37,0,0
31346.6,132.094,-3952.82,0,0
31607,131.47,-3929.29,0,0
31867.3,121.634,-3897.05,0,0
32127.6,119.805,-3864.93,0,0
32387.9,116.383,-3835.93,0,0
32648.3,111.939,-3805.77,0,0
32908.6,108.205,-3774.63,0,0
33168.9,104.794,-3744.55,0,0
33429.2,101.942,-3714.4,0,0
33689.6,99.1512,-3684.31,0,0
33949.9,97.1704,-3654.32,0,0
34210.2,95.417,-3625.42,0,0
34470.5,93.9709,-3596.48,0,0
34730.9,92.8821,-3568.27,0,0
34991.2,91.5204,-3540.36,0,0
35251.5,90.3848,-3513.07,0,0
35511.8,89.3207,-3485.98,0,0
35772.2,89.0133,-3459.23,0,0
36032.5,88.9079,-3433.31,0,0
36292.8,88.0087,-3408.37,0,0
36553.1,86.8898,-3382.82,0,0
36813.5,86.3971,-3357.46,0,0
37073.8,86.4881,-3332.86,0,0
37334.1,86.3263,-3308.82,0,0
37594.4,86.2052,-3285.29,0,0
37854.8,85.3172,-3261.23,0,0
38115.1,85.6172,-3237.09,0,0
38375.4,85.934,-3213.92,0,0
38635.7,86.8339,-3190.52,0,0
38896.1,88.7064,-3167.44,0,0
39156.4,90.5396,-3145.58,0,0
39416.7,94.5161,-3123.85,0,0
39677,98.8531,-3105.68,0,0
39937.4,100.623,-3090.45,0,0
40197.7,100.802,-3075.07,0,0
40458,98.018,-3059.88,0,0
40718.3,93.7923,-3042.73,0,0
40978.7,91.031,-3023.53,0,0
41239,87.9645,-3004.76,0,0
41499.3,85.4918,-2984.96,0,0
41759.6,84.0783,-2965.48,0,0
42020,82.5595,-2946.43,0,0
42280.275,80.6252,-2927.02,0,0
42540.6,79.7146,-2907.3,0,0
42800.925,80.4109,-2888.6,0,0
43061.25,79.8804,-2869.91,0,0
43321.575,80.8899,-2853.5,0,0
43581.9,78.9396,-2835.87,0,0
43842.225,78.7408,-2817.05,0,0
44102.55,80.4139,-2798.81,0,0
44362.875,82.2246,-2782.56,0,0
44623.2,83.7291,-2768.16,0,0
44883.525,82.6486,-2755.5,0,0
45143.85,80.7252,-2739.24,0,0
45404.175,79.5847,-2723.87,0,0
45664.5,79.3319,-2706.59,0,0
45924.825,81.0563,-2692.2,0,0
46185.15,80.5039,-2680.59,0,0
46445.475,77.5058,-2667.01,0,0
46705.8,74.5817,-2651.68,0,0
46966.125,72.4869,-2635.85,0,0
47226.45,71.2895,-2619.82,0,0
47486.775,71.0784,-2604.38,0,0
47747.1,70.3318,-2589.56,0,0
48007.425,70.098,-2575.06,0,0
48267.75,69.9227,-2560.8,0,0
48528.075,69.1508,-2546.77,0,0
48788.4,68.6798,-2532.8,0,0
49048.725,68.2185,-2518.84,0,0
49309.05,67.6478,-2504.96,0,0
49569.375,66.9567,-2491.24,0,0
49829.7,66.6574,-2477.72,0,0
50090.025,66.2776,-2464.32,0,0
50350.35,66.0013,-2451.06,0,0
50610.675,65.8187,-2438.21,0,0
50871.0,65.5447,-2425.33,0,0
51131.325,65.0739,-2412.62,0,0
51391.65,64.7141,-2399.83,0,0
51651.975,64.4176,-2387.25,0,0
51912.3,64.1272,-2374.67,0,0
52172.625,64.2252,-2362.24,0,0
52432.95,63.9596,-2350.35,0,0
52693.275,63.7205,-2338.23,0,0
52953.6,63.7716,-2326.28,0,0
53213.925,63.767,-2314.73,0,0
53474.25,63.6618,-2303.55,0,0
53734.575,63.1887,-2292.08,0,0
53994.9,62.6583,-2281,0,0
54255.225,62.2987,-2269.52,0,0
54515.55,61.9193,-2258.41,0,0
54775.875,61.6957,-2247.23,0,0
55036.2,61.3852,-2236.19,0,0
55296.525,61.1393,-2225.27,0,0
55556.85,60.9051,-2214.49,0,0
55817.175,60.4637,-2203.68,0,0
56077.5,60.2676,-2192.88,0,0
56337.825,60.1924,-2182.11,0,0
56598.15,60.2669,-2171.85,0,0
56858.475,60.0414,-2161.55,0,0
57118.8,59.9147,-2151.41,0,0
57379.125,59.8084,-2141.26,0,0
57639.45,59.5369,-2131.26,0,0
57899.775,59.1904,-2121.01,0,0
58160.1,59.2287,-2110.83,0,0
58420.4,59.5828,-2101.1,0,0
58680.7,59.7052,-2091.72,0,0
58941.1,59.3875,-2082.45,0,0
59201.4,59.2343,-2072.99,0,0
59461.7,59.162,-2063.35,0,0
59722,59.3929,-2054.19,0,0
59982.4,59.2268,-2045.05,0,0
60242.7,59.3673,-2036.09,0,0
60503,59.486,-2027.69,0,0
60763.3,58.8481,-2019.16,0,0
61023.7,58.2804,-2010.31,0,0
61284,57.9634,-2001.42,0,0
61544.3,57.6558,-1992.68,0,0
61804.6,57.2461,-1983.95,0,0
62065,56.7678,-1975.42,0,0
62325.3,56.4214,-1966.7,0,0
62585.6,56.1033,-1958.05,0,0
62845.9,55.7885,-1949.45,0,0
63106.3,55.656,-1940.89,0,0
63366.6,55.3908,-1932.36,0,0
63626.9,55.3307,-1923.99,0,0
63887.2,55.3191,-1915.91,0,0
64147.6,55.0736,-1907.66,0,0
64407.9,55.0243,-1899.47,0,0
64668.2,54.7417,-1891.4,0,0
64928.5,54.8287,-1883.43,0,0
65188.9,54.6664,-1875.42,0,0
65449.2,54.7655,-1867.56,0,0
65709.5,55.0629,-1860.21,0,0
65969.8,54.7982,-1852.75,0,0
66230.2,54.7148,-1845.27,0,0
66490.5,54.423,-1838.02,0,0
66750.8,53.9352,-1830.69,0,0
67011.1,53.5849,-1823.3,0,0
67271.5,53.1572,-1815.83,0,0
67531.8,52.788,-1808.3,0,0
67792.1,52.5088,-1800.85,0,0
68052.4,52.2798,-1793.54,0,0
68312.8,52.0375,-1786.08,0,0
68573.1,51.8845,-1778.82,0,0
68833.4,51.6454,-1771.69,0,0
69093.7,51.505,-1764.46,0,0
69354.1,51.3908,-1757.39,0,0
69614.4,51.2871,-1750.38,0,0
69874.7,51.2673,-1743.41,0,0
70135,51.0704,-1736.55,0,0
70395.4,51.0418,-1729.58,0,0
70655.7,50.9414,-1722.65,0,0
70916,51.1245,-1716,0,0
71176.3,51.0184,-1709.5,0,0
71436.7,50.9174,-1702.91,0,0
71697,50.7244,-1696.5,0,0
71957.3,50.4834,-1689.93,0,0
72217.6,50.3021,-1683.43,0,0
72478,50.0882,-1677.05,0,0
72738.3,49.8264,-1670.62,0,0
72998.6,49.6178,-1664.12,0,0
73258.9,49.4259,-1657.78,0,0
73519.3,49.2784,-1651.45,0,0
73779.6,49.1487,-1645.12,0,0
74039.9,48.9367,-1638.81,0,0
74300.225,48.9111,-1632.54,0,0
74560.55,48.7276,-1626.38,0,0
74820.875,48.7449,-1620.23,0,0
75081.2,48.5856,-1614.13,0,0
75341.525,48.5363,-1608.07,0,0
75601.85,48.3921,-1602.09,0,0
75862.175,48.2436,-1596.08,0,0
76122.5,48.1519,-1590.13,0,0
76382.825,48.093,-1584.19,0,0
76643.15,47.9554,-1578.28,0,0
76903.475,47.9317,-1572.44,0,0
77163.8,47.9149,-1566.57,0,0
77424.125,47.7948,-1560.9,0,0
77684.45,47.785,-1555.13,0,0
77944.775,47.7187,-1549.48,0,0
78205.1,47.6658,-1543.85,0,0
78465.425,47.5217,-1538.15,0,0
78725.75,47.4726,-1532.61,0,0
78986.075,47.371,-1527.05,0,0
79246.4,47.3571,-1521.46,0,0
79506.725,47.3619,-1516,0,0
79767.05,47.3913,-1510.56,0,0
80027.375,47.3909,-1505.22,0,0
80287.7,47.3376,-1499.93,0,0
80548.025,47.2379,-1494.59,0,0
80808.35,47.2246,-1489.33,0,0
81068.675,47.0682,-1483.99,0,0
81329.0,47.0216,-1478.75,0,0
81589.325,46.9289,-1473.59,0,0
81849.65,46.8098,-1468.34,0,0
82109.975,46.7723,-1463.17,0,0
82370.3,46.7332,-1457.95,0,0
82630.625,46.6844,-1452.86,0,0
82890.95,46.6541,-1447.74,0,0
83151.275,46.4829,-1442.62,0,0
83411.6,46.4732,-1437.52,0,0
83671.925,46.4627,-1432.39,0,0
83932.25,46.538,-1427.43,0,0
84192.575,46.5254,-1422.42,0,0
84452.9,46.6196,-1417.53,0,0
84713.225,46.617,-1412.57,0,0
84973.55,46.6983,-1407.71,0,0
85233.875,46.895,-1402.89,0,0
85494.2,46.8732,-1398.22,0,0
85754.525,46.8271,-1393.51,0,0
86014.85,46.7806,-1388.81,0,0
86275.175,46.8476,-1383.93,0,0
86535.5,46.9461,-1379.41,0,0
86795.825,46.9558,-1374.79,0,0
87056.15,46.7301,-1370.07,0,0
87316.475,46.8692,-1365.38,0,0
87576.8,46.9765,-1360.88,0,0
87837.125,47.1042,-1356.45,0,0
88097.45,46.9889,-1352.02,0,0
88357.775,46.9031,-1347.66,0,0
88618.1,46.7897,-1343.22,0,0
88878.425,46.6671,-1338.79,0,0
89138.75,46.5009,-1334.28,0,0
89399.075,46.3785,-1329.74,0,0
89659.4,46.3317,-1325.25,0,0
89919.725,46.2176,-1320.64,0,0
90180,46.2294,-1316.23,0,0
90440.4,46.3251,-1311.69,0,0
90700.7,46.3861,-1307.28,0,0
90961,46.4789,-1303,0,0
91221.3,46.4125,-1298.64,0,0
91481.7,46.3282,-1294.17,0,0
91742,46.4957,-1289.74,0,0
92002.3,46.6531,-1285.53,0,0
92262.6,46.7086,-1281.18,0,0
92523,46.7283,-1276.84,0,0
92783.3,46.739,-1272.68,0,0
93043.6,46.68,-1268.15,0,0
93303.9,46.9021,-1263.65,0,0
93564.3,47.2871,-1259.09,0,0
93824.6,47.965,-1254.62,0,0
94084.9,48.7153,-1250.55,0,0
94345.2,49.5377,-1246.73,0,0
94605.6,50.4181,-1243.11,0,0
94865.9,50.8956,-1239.86,0,0
95126.2,51.2229,-1236.83,0,0
95386.5,51.0624,-1234.02,0,0
95646.9,50.1781,-1230.69,0,0
95907.2,49.4818,-1226.76,0,0
96167.5,49.2126,-1222.64,0,0
96427.8,48.9504,-1218.75,0,0
96688.2,48.592,-1214.63,0,0
96948.5,48.5284,-1210.46,0,0
97208.8,48.5746,-1206.31,0,0
97469.1,48.6763,-1202.26,0,0
97729.5,48.8367,-1198.25,0,0
97989.8,49.1356,-1194.32,0,0
98250.1,49.4643,-1190.58,0,0
98510.4,49.6556,-1186.99,0,0
98770.8,49.6435,-1183.34,0,0
99031.1,49.675,-1179.63,0,0
99291.4,49.7699,-1175.89,0,0
99551.7,49.8612,-1172.25,0,0
99812.1,49.8218,-1168.65,0,0
100072,49.5916,-1164.93,0,0
100333,49.5008,-1160.8,0,0
100593,49.7647,-1156.72,0,0
100853,50.2051,-1152.88,0,0
101114,50.5961,-1149.19,0,0
101374,50.9179,-1145.68,0,0
101634,50.8997,-1142,0,0
101895,51.2947,-1138.02,0,0
102155,51.9228,-1134.34,0,0
102415,52.4151,-1130.94,0,0
102676,52.8521,-1127.55,0,0
102936,53.0829,-1124.18,0,0
103196,53.5191,-1120.55,0,0
103457,54.0788,-1117.1,0,0
103717,54.8673,-1113.91,0,0
103977,55.2971,-1111.17,0,0
104238,55.2203,-1108.09,0,0
104498,55.5752,-1104.71,0,0
104758,56.1004,-1101.77,0,0
105019,56.1915,-1099.12,0,0
105279,56.0733,-1096.09,0,0
105539,55.9521,-1093.07,0,0
105800,55.8438,-1089.98,0,0
106060,55.5831,-1086.57,0,0
106320.175,55.5315,-1083.36,0,0
106580.5,55.2336,-1079.99,0,0
106840.825,55.2671,-1076.27,0,0
107101.15,55.681,-1072.82,0,0
107361.475,55.7555,-1069.6,0,0
107621.8,55.9679,-1066.2,0,0
107882.125,56.1141,-1063.05,0,0
108142.45,56.1694,-1059.61,0,0
108402.775,56.4333,-1056.22,0,0
108663.1,56.8134,-1052.93,0,0
108923.425,57.0014,-1049.8,0,0
109183.75,57.0976,-1046.56,0,0
109444.075,57.2697,-1043.31,0,0
109704.4,57.172,-1039.97,0,0
109964.725,57.2777,-1036.33,0,0
110225.05,57.6915,-1032.7,0,0
110485.375,58.1702,-1029.17,0,0
110745.7,58.7634,-1025.59,0,0
111006.025,59.4403,-1022.18,0,0
111266.35,59.9976,-1018.91,0,0
111526.675,60.5245,-1015.59,0,0
111787.0,61.1158,-1012.05,0,0
112047.325,61.9427,-1008.52,0,0
112307.65,63.0208,-1005.16,0,0
112567.975,64.0378,-1001.97,0,0
112828.3,65.1299,-998.782,0,0
113088.625,66.3314,-995.806,0,0
113348.95,67.5462,-992.905,0,0
113609.275,68.6006,-990.159,0,0
113869.6,69.5738,-987.397,0,0
114129.925,70.6626,-984.453,0,0
114390.25,71.9089,-981.596,0,0
114650.575,73.2875,-978.902,0,0
114910.9,74.5523,-976.476,0,0
115171.225,75.6762,-973.898,0,0
115431.55,77.1526,-971.12,0,0
115691.875,78.9879,-968.621,0,0
115952.2,80.7527,-966.461,0,0
116212.525,82.6338,-964.585,0,0
116472.85,84.5706,-963.015,0,0
116733.175,86.2091,-961.885,0,0
116993.5,87.6172,-960.801,0,0
117253.825,88.8274,-959.853,0,0
117514.15,89.9132,-958.828,0,0
117774.475,90.953,-958.105,0,0
118034.8,91.6955,-957.285,0,0
118295.125,92.595,-956.321,0,0
118555.45,93.6271,-955.784,0,0
118815.775,94.4186,-955.439,0,0
119076.1,95.2167,-955.461,0,0
119336.425,95.5142,-955.875,0,0
119596.75,95.4694,-956.491,0,0
119857.075,94.6939,-957.422,0,0
120117.4,92.9748,-957.867,0,0
120377.725,91.2628,-957.777,0,0
120638.05,89.169,-957.823,0,0
120898.375,86.3784,-957.363,0,0
121158.7,83.2758,-955.974,0,0
121419.025,80.6262,-953.706,0,0
121679.35,78.4897,-951.253,0,0
121939.675,76.7199,-948.801,0,0
122200.0,74.8997,-946.462,0,0
122460,73.1499,-943.797,0,0
122721,71.719,-941.056,0,0
122981,70.3726,-938.599,0,0
123241,68.7959,-936.008,0,0
123502,67.2406,-933.105,0,0
123762,65.883,-929.977,0,0
124022,64.9686,-926.706,0,0
124283,64.4121,-923.837,0,0
124543,63.5982,-921.213,0,0
124803,62.6676,-918.481,0,0
125064,61.7938,-915.727,0,0
125324,60.8688,-912.982,0,0
125584,59.9341,-910.07,0,0
125845,59.1837,-907.103,0,0
126105,58.5353,-904.257,0,0
126365,57.8398,-901.536,0,0
126626,56.9725,-898.715,0,0
126886,56.1146,-895.739,0,0
127146,55.3221,-892.762,0,0
127406,54.5873,-889.587,0,0
127667,54.0511,-886.244,0,0
127927,53.7853,-883.113,0,0
128187,53.5043,-880.118,0,0
128448,53.2756,-877.319,0,0
128708,52.7964,-874.513,0,0
128968,52.3076,-871.503,0,0
129229,51.9544,-868.455,0,0
129489,51.6959,-865.509,0,0
129749,51.3766,-862.619,0,0
130010,51.0032,-859.608,0,0
130270,50.8925,-856.485,0,0
130530,50.8629,-853.614,0,0
130791,50.6766,-850.952,0,0
131051,50.3328,-848.184,0,0
131311,49.8945,-845.285,0,0
131572,49.5014,-842.2,0,0
131832,49.1994,-839.092,0,0
132092,49.0779,-835.907,0,0
132353,48.9968,-832.783,0,0
132613,48.9634,-829.655,0,0
132873,48.9706,-826.542,0,0
133134,49.014,-823.464,0,0
133394,49.078,-820.239,0,0
133654,49.299,-817.063,0,0
133915,49.5694,-813.885,0,0
134175,50.009,-810.618,0,0
134435,50.7283,-807.468,0,0
134696,51.5425,-804.598,0,0
134956,52.2287,-801.893,0,0
135216,52.9541,-799.167,0,0
135477,53.801,-796.663,0,0
135737,54.6643,-794.404,0,0
135997,55.3113,-792.232,0,0
136258,55.8095,-790.076,0,0
136518,56.5308,-787.879,0,0
136778,57.3245,-786.218,0,0
137039,57.4942,-785.05,0,0
137299,56.9936,-783.496,0,0
137559,56.427,-781.474,0,0
137819,55.9871,-779.287,0,0
138080,55.4996,-777.095,0,0
138340.125,54.8497,-774.751,0,0
138600.45,54.1765,-772.113,0,0
138860.775,53.6592,-769.171,0,0
139121.1,53.527,-766.158,0,0
139381.425,53.511,-763.444,0,0
139641.75,53.2935,-760.697,0,0
139902.075,53.1276,-757.747,0,0
140162.4,53.2788,-754.809,0,0
140422.725,53.4183,-752.074,0,0
140683.05,53.4951,-749.34,0,0
140943.375,53.5634,-746.619,0,0
141203.7,53.578,-743.866,0,0
141464.025,53.5878,-741.089,0,0
141724.35,53.5478,-738.183,0,0
141984.675,53.7611,-735.141,0,0
142245.0,54.1007,-732.302,0,0
142505.325,54.2769,-729.497,0,0
142765.65,54.5113,-726.514,0,0
143025.975,54.885,-723.505,0,0
143286.3,55.451,-720.551,0,0
143546.625,56.0792,-717.77,0,0
143806.95,56.6964,-715.058,0,0
144067.275,57.3699,-712.434,0,0
144327.6,57.985,-709.907,0,0
144587.925,58.6014,-707.454,0,0
144848.25,59.157,-705.071,0,0
145108.575,59.7132,-702.793,0,0
145368.9,60.0621,-700.754,0,0
145629.225,60.0187,-698.562,0,0
145889.55,59.9454,-695.955,0,0
146149.875,60.0822,-693.228,0,0
146410.2,60.4084,-690.515,0,0
146670.525,60.7773,-687.93,0,0
146930.85,61.0713,-685.366,0,0
147191.175,61.4376,-682.814,0,0
147451.5,61.6563,-680.357,0,0
147711.825,61.8492,-677.735,0,0
147972.15,62.2179,-675.128,0,0
148232.475,62.5596,-672.727,0,0
148492.8,62.7156,-670.351,0,0
148753.125,62.694,-667.958,0,0
149013.45,62.5419,-665.448,0,0
149273.775,62.2923,-662.692,0,0
149534.1,62.1754,-659.735,0,0
149794.425,62.1551,-656.809,0,0
150054.75,62.073,-653.826,0,0
150315.075,62.018,-650.734,0,0
150575.4,61.9696,-647.546,0,0
150835.725,61.9767,-644.233,0,0
151096.05,62.0691,-640.799,0,0
151356.375,62.2866,-637.283,0,0
151616.7,62.5934,-633.775,0,0
151877.025,62.9681,-630.222,0,0
152137.35,63.4397,-626.584,0,0
152397.675,63.9892,-622.969,0,0
152658.0,64.5893,-619.309,0,0
152918.325,65.2799,-615.596,0,0
153178.65,66.106,-611.839,0,0
153438.975,67.0611,-608.123,0,0
153699.3,68.0262,-604.472,0,0
153959.625,69.0267,-600.779,0,0
154219.95,70.0896,-597.017,0,0
154480,71.2496,-593.236,0,0
154741,72.4584,-589.426,0,0
155001,73.8364,-585.57,0,0
155261,75.3147,-581.67,0,0
155522,76.9682,-577.794,0,0
155782,78.8009,-573.993,0,0
156042,80.6582,-570.262,0,0
156303,82.6117,-566.569,0,0
156563,84.6686,-562.856,0,0
156823,86.8933,-559.215,0,0
157084,89.2057,-555.66,0,0
157344,91.6371,-552.104,0,0
157604,94.3166,-548.632,0,0
157864,97.2211,-545.472,0,0
158125,100.091,-542.629,0,0
158385,102.823,-539.936,0,0
158645,105.661,-537.309,0,0
158906,108.613,-535.028,0,0
159166,111.369,-533.21,0,0
159426,113.672,-531.72,0,0
159687,115.416,-530.251,0,0
159947,116.761,-528.601,0,0
160207,117.678,-526.692,0,0
160468,118.331,-524.331,0,0
160728,119.027,-521.451,0,0
160988,119.737,-518.428,0,0
161249,120.253,-515.033,0,0
161509,120.811,-510.906,0,0
161769,121.858,-506.277,0,0
162030,123.39,-501.401,0,0
162290,125.421,-496.272,0,0
162550,128.145,-491.384,0,0
162811,130.756,-486.814,0,0
163071,133.375,-481.802,0,0
163331,136.571,-476.526,0,0
163592,140.323,-471.283,0,0
163852,144.617,-466.385,0,0
164112,148.898,-461.693,0,0
164373,153.561,-456.981,0,0
164633,158.589,-452.608,0,0
164893,163.658,-448.638,0,0
165154,168.307,-444.955,0,0
165414,172.739,-440.738,0,0
165674,177.515,-436.025,0,0
165935,182.643,-430.983,0,0
166195,188.258,-425.514,0,0
166455,194.941,-419.771,0,0
166716,202.706,-414.163,0,0
166976,211.27,-409.225,0,0
167236,220.393,-404.55,0,0
167497,230.461,-400.377,0,0
167757,241.083,-396.923,0,0
168017,252.335,-394.207,0,0
168277,264.166,-392.245,0,0
168538,276.47,-391.119,0,0
168798,289.326,-391.011,0,0
169058,302.581,-392.181,0,0
169319,315.893,-394.673,0,0
169579,328.951,-398.469,0,0
169839,341.664,-403.071,0,0
170100,354.256,-408.641,0,0
170360.075,366.788,-415.289,0,0
170620.4,379.309,-423.52,0,0
170880.725,390.845,-433.394,0,0
171141.05,401.051,-444.423,0,0
171401.375,409.874,-456.2,0,0
171661.7,417.556,-468.36,0,0
171922.025,424.034,-480.837,0,0
172182.35,429.903,-493.141,0,0
172442.675,435.957,-506.297,0,0
172703.0,440.789,-521.158,0,0
172963.325,443.797,-537.24,0,0
173223.65,444.352,-553.627,0,0
173483.975,443.29,-569.979,0,0
173744.3,439.732,-587.23,0,0
174004.625,431.897,-603.444,0,0
174264.95,421.661,-615.953,0,0
174525.275,411.633,-625.514,0,0
174785.6,401.775,-634.093,0,0
175045.925,390.468,-641.157,0,0
175306.25,379.345,-645.216,0,0
175566.575,368.88,-648.201,0,0
175826.9,357.707,-648.679,0,0
176087.225,348.995,-645.656,0,0
176347.55,343.867,-642.507,0,0
176607.875,340.086,-640.443,0,0
176868.2,336.979,-638.442,0,0
177128.525,334.969,-636.17,0,0
177388.85,334.705,-634.421,0,0
177649.175,335.04,-633.922,0,0
177909.5,336.11,-633.527,0,0
178169.825,338.609,-634.338,0,0
178430.15,342.059,-636.921,0,0
178690.475,345.46,-642.437,0,0
178950.8,347.105,-650.077,0,0
179211.125,346.873,-659.106,0,0
179471.45,343.791,-668.916,0,0
179731.775,337.899,-677.916,0,0
179992.1,329.869,-684.876,0,0
180252.425,321.742,-689.252,0,0
180512.75,314.452,-692.272,0,0
180773.075,308.076,-695.095,0,0
181033.4,302.21,-698.148,0,0
181293.725,295.71,-702.264,0,0
181554.05,287.515,-705.879,0,0
181814.375,278.75,-708.106,0,0
182074.7,270.187,-709.466,0,0
182335.025,261.407,-710.663,0,0
182595.35,251.718,-711.093,0,0
182855.675,241.687,-709.861,0,0
183116.0,232.284,-706.99,0,0
183376.325,224.164,-703.264,0,0
183636.65,216.815,-699.524,0,0
183896.975,209.803,-695.444,0,0
184157.3,203.364,-691.029,0,0
184417.625,197.332,-686.359,0,0
184677.95,191.938,-681.247,0,0
184938.275,187.603,-676.323,0,0
185198.6,183.491,-672.119,0,0
185458.925,179.121,-668.147,0,0
185719.25,174.344,-663.922,0,0
185979.575,169.512,-658.957,0,0
186239.9,165.345,-653.321,0,0
186500,162.005,-647.631,0,0
186761,159.044,-642.223,0,0
187021,156.129,-636.819,0,0
187281,153.534,-631.041,0,0
187542,151.707,-625.187,0,0
187802,150.443,-619.688,0,0
188062,149.498,-614.576,0,0
188322,148.787,-609.889,0,0
188583,148.026,-605.618,0,0
188843,147.097,-601.583,0,0
189103,145.983,-597.511,0,0
189364,145.034,-593.53,0,0
189624,143.92,-589.831,0,0
189884,142.365,-586.058,0,0
190145,140.728,-581.812,0,0
190405,139.344,-577.409,0,0
190665,137.929,-573.012,0,0
190926,136.395,-568.194,0,0
191186,135.266,-562.871,0,0
191446,134.847,-557.474,0,0
191707,134.896,-552.552,0,0
191967,134.782,-548.136,0,0
192227,134.216,-543.554,0,0
192488,133.831,-538.611,0,0
192748,133.639,-533.545,0,0
193008,133.651,-528.254,0,0
193269,134.164,-522.895,0,0
193529,134.912,-517.836,0,0
193789,135.702,-512.792,0,0
194050,136.709,-507.774,0,0
194310,137.825,-502.823,0,0
194570,139.126,-497.827,0,0
194831,140.677,-492.904,0,0
195091,142.494,-488.083,0,0
195351,144.479,-483.457,0,0
195612,146.598,-479.03,0,0
195872,148.767,-474.752,0,0
196132,151.053,-470.541,0,0
196393,153.478,-466.617,0,0
196653,155.821,-462.854,0,0
196913,158.189,-459.078,0,0
197174,160.731,-455.405,0,0
197434,163.396,-452.11,0,0
197694,165.908,-449.147,0,0
197955,167.978,-446.274,0,0
198215,170.072,-443.228,0,0
198475,172.027,-440.264,0,0
198735,173.905,-437.38,0,0
198996,175.551,-434.349,0,0
199256,177.169,-431.244,0,0
199516,178.491,-427.892,0,0
199777,179.842,-424.192,0,0
200037,181.281,-420.101,0,0
200297,183.011,-415.804,0,0
200558,185.041,-411.338,0,0
200818,187.434,-406.877,0,0
201078,189.908,-402.542,0,0
201339,192.381,-398.028,0,0
201599,195.053,-393.348,0,0
201859,198.028,-388.502,0,0
202120,201.342,-383.404,0,0
202380.025,205.189,-378.339,0,0
202640.35,209.386,-373.489,0,0
202900.675,213.843,-368.734,0,0
203161.0,218.673,-364.075,0,0
203421.325,223.74,-359.773,0,0
203681.65,228.887,-355.633,0,0
203941.975,234.22,-351.497,0,0
204202.3,239.786,-347.537,0,0
204462.625,245.581,-343.765,0,0
204722.95,251.538,-340.121,0,0
204983.275,257.47,-336.584,0,0
205243.6,263.532,-332.65,0,0
205503.925,270.499,-328.635,0,0
205764.25,278.368,-325.12,0,0
206024.575,286.713,-322.451,0,0
206284.9,295.126,-320.581,0,0
206545.225,303.636,-319.306,0,0
206805.55,312.011,-318.924,0,0
207065.875,319.864,-319.189,0,0
207326.2,327.044,-319.83,0,0
207586.525,333.805,-320.424,0,0
207846.85,339.885,-321.02,0,0
208107.175,345.404,-321.017,0,0
208367.5,350.969,-319.949,0,0
208627.825,357.497,-318.225,0,0
208888.15,364.823,-316.551,0,0
209148.475,372.908,-314.722,0,0
209408.8,382.037,-313.042,0,0
209669.125,392.133,-311.964,0,0
209929.45,403.465,-311.73,0,0
210189.775,415.484,-312.943,0,0
210450.1,427.747,-315.782,0,0
210710.425,439.923,-320.294,0,0
210970.75,451.426,-326.272,0,0
211231.075,461.98,-333.389,0,0
211491.4,471.449,-341.076,0,0
211751.725,479.759,-349.246,0,0
212012.05,487.595,-357.323,0,0
212272.375,495.165,-366.103,0,0
212532.7,501.47,-375.71,0,0
212793.025,506.451,-385.08,0,0
213053.35,510.619,-394.002,0,0
213313.675,514.217,-402.329,0,0
213574.0,517.718,-409.977,0,0
213834.325,521.707,-417.337,0,0
214094.65,526.056,-425.004,0,0
214354.975,530.713,-433.334,0,0
214615.3,534.884,-442.995,0,0
214875.625,537.55,-453.052,0,0
215135.95,539.344,-462.568,0,0
215396.275,541.013,-471.692,0,0
215656.6,542.47,-480.958,0,0
215916.925,543.442,-490.161,0,0
216177.25,544.5,-499.154,0,0
216437.575,545.744,-508.822,0,0
216697.9,546.325,-519.462,0,0
216958.225,545.832,-530.615,0,0
217218.55,543.92,-541.934,0,0
217478.875,540.729,-552.825,0,0
217739.2,536.432,-563.054,0,0
217999.525,531.644,-572.192,0,0
218259.85,527,-580.872,0,0
218520,522.132,-589.875,0,0
218780,516.048,-599.23,0,0
219041,508.38,-607.932,0,0
219301,499.456,-615.425,0,0
219561,489.647,-621.341,0,0
219822,479.546,-625.526,0,0
220082,469.583,-627.836,0,0
220342,460.334,-628.631,0,0
220603,452.087,-628.345,0,0
220863,444.851,-627.496,0,0
221123,438.302,-626.186,0,0
221384,432.512,-624.516,0,0
221644,427.449,-622.562,0,0
221904,423.097,-620.439,0,0
222165,419.399,-618.363,0,0
222425,416.188,-616.166,0,0
222685,413.735,-613.858,0,0
222946,411.895,-611.973,0,0
223206,410.37,-610.566,0,0
223466,408.853,-609.404,0,0
223727,407.443,-608.146,0,0
223987,406.409,-606.928,0,0
224247,405.76,-606.086,0,0
224508,405.052,-605.628,0,0
224768,403.971,-605.254,0,0
225028,402.734,-604.642,0,0
225289,401.529,-603.613,0,0
225549,400.705,-602.174,0,0
225809,400.511,-600.46,0,0
226070,401.071,-598.848,0,0
226330,402.223,-597.564,0,0
226590,403.878,-596.853,0,0
226851,405.631,-596.686,0,0
227111,407.531,-596.878,0,0
227371,409.58,-597.457,0,0
227632,411.642,-598.509,0,0
227892,413.73,-599.909,0,0
228152,415.77,-601.76,0,0
228413,417.617,-604.05,0,0
228673,419.202,-606.581,0,0
228933,420.7,-609.176,0,0
229193,422.397,-612.052,0,0
229454,423.961,-615.542,0,0
229714,425.001,-619.472,0,0
229974,425.579,-623.258,0,0
230235,426.299,-626.885,0,0
230495,427.306,-631,0,0
230755,428.002,-635.997,0,0
231016,427.784,-641.469,0,0
231276,426.891,-646.76,0,0
231536,425.612,-651.891,0,0
231797,423.972,-656.828,0,0
232057,422.272,-661.437,0,0
232317,421.017,-666.075,0,0
232578,419.946,-671.551,0,0
232838,418.221,-678.023,0,0
233098,415.121,-684.952,0,0
233359,411.042,-691.46,0,0
233619,406.404,-697.822,0,0
233879,400.864,-704.344,0,0
234140,393.973,-710.439,0,0
234400,385.939,-715.498,0,0
234660.3,377.425,-719.097,0,0
234920.625,368.798,-721.727,0,0
235180.95,360.081,-723.385,0,0
235441.275,351.299,-724.076,0,0
235701.6,342.734,-723.55,0,0
235961.925,334.899,-721.935,0,0
236222.25,327.976,-719.796,0,0
236482.575,321.623,-717.354,0,0
236742.9,316.108,-714.409,0,0
237003.225,311.801,-711.63,0,0
237263.55,307.973,-709.821,0,0
237523.875,303.849,-708.478,0,0
237784.2,299.492,-707.25,0,0
238044.525,294.545,-706.139,0,0
238304.85,288.936,-704.362,0,0
238565.175,283.307,-701.363,0,0
238825.5,278.537,-697.48,0,0
239085.825,274.592,-693.23,0,0
239346.15,271.531,-688.945,0,0
239606.475,269.265,-684.732,0,0
239866.8,267.551,-680.889,0,0
240127.125,266.358,-677.322,0,0
240387.45,265.729,-674.143,0,0
240647.775,265.857,-671.713,0,0
240908.1,265.855,-670.531,0,0
241168.425,265.128,-670.215,0,0
241428.75,263.557,-670.099,0,0
241689.075,261.353,-669.894,0,0
241949.4,258.735,-669.51,0,0
242209.725,255.478,-669.061,0,0
242470.05,251.384,-667.927,0,0
242730.375,247.226,-665.518,0,0
242990.7,243.718,-662.229,0,0
243251.025,240.999,-658.691,0,0
243511.35,238.657,-655.291,0,0
243771.675,236.438,-651.64,0,0
244032.0,234.622,-647.586,0,0
244292.325,233.548,-643.339,0,0
244552.65,233.312,-639.164,0,0
244812.975,233.847,-635.514,0,0
245073.3,234.824,-632.54,0,0
245333.625,235.947,-630.484,0,0
245593.95,236.72,-629.036,0,0
245854.275,237.139,-628.012,0,0
246114.6,237.209,-627.314,0,0
246374.925,236.757,-626.725,0,0
246635.25,235.772,-625.984,0,0
246895.575,234.67,-625.034,0,0
247155.9,233.329,-623.953,0,0
247416.225,231.789,-622.62,0,0
247676.55,230.138,-620.962,0,0
247936.875,228.502,-618.955,0,0
248197.2,227.046,-616.668,0,0
248457.525,225.801,-614.146,0,0
248717.85,224.756,-611.424,0,0
248978.175,223.921,-608.728,0,0
249238.5,223.243,-605.945,0,0
249498.825,222.797,-603.07,0,0
249759.15,222.453,-600.223,0,0
250019.475,222.199,-597.344,0,0
250279.8,222.089,-594.273,0,0
250540,222.26,-591.04,0,0
250800,222.789,-587.821,0,0
251061,223.569,-584.598,0,0
251321,224.693,-581.433,0,0
251581,226.092,-578.368,0,0
251842,227.849,-575.423,0,0
252102,229.885,-572.637,0,0
252362,232.269,-570.088,0,0
252623,234.841,-567.893,0,0
252883,237.637,-565.879,0,0
253143,240.723,-564.211,0,0
253404,244.055,-563.006,0,0
253664,247.468,-562.341,0,0
253924,250.885,-562.196,0,0
254185,254.213,-562.559,0,0
254445,257.322,-563.454,0,0
254705,260.063,-564.803,0,0
254966,262.392,-566.49,0,0
255226,264.351,-568.305,0,0
255486,265.884,-570.309,0,0
255747,267.006,-572.403,0,0
256007,267.666,-574.467,0,0
256267,268.013,-576.352,0,0
256528,268.147,-578.057,0,0
256788,268.188,-579.743,0,0
257048,267.961,-581.451,0,0
257309,267.366,-583.035,0,0
257569,266.514,-584.306,0,0
257829,265.534,-585.202,0,0
258090,264.577,-585.78,0,0
258350,263.747,-586.084,0,0
258610,263.162,-586.194,0,0
258871,262.853,-586.294,0,0
259131,262.736,-586.625,0,0
259391,262.54,-587.203,0,0
259651,262.114,-587.836,0,0
259912,261.472,-588.451,0,0
260172,260.76,-588.876,0,0
260432,259.968,-589.174,0,0
260693,259.203,-589.39,0,0
260953,258.385,-589.525,0,0
261213,257.459,-589.529,0,0
261474,256.541,-589.267,0,0
261734,255.699,-588.82,0,0
261994,254.997,-588.101,0,0
262255,254.487,-587.199,0,0
262515,254.302,-586.141,0,0
262775,254.542,-584.969,0,0
263036,255.275,-583.898,0,0
263296,256.445,-583.156,0,0
263556,257.879,-582.932,0,0
263817,259.358,-583.209,0,0
264077,260.813,-583.934,0,0
264337,262.053,-585.177,0,0
264598,262.829,-586.819,0,0
264858,263.097,-588.598,0,0
265118,262.771,-590.288,0,0
265379,262.094,-591.575,0,0
265639,261.448,-592.561,0,0
265899,260.744,-593.238,0,0
266160,260.206,-593.678,0,0
266420,259.989,-594.028,0,0
266680.25,259.999,-594.486,0,0
266940.575,260.158,-595.17,0,0
267200.9,260.453,-596.117,0,0
267461.225,260.621,-597.438,0,0
267721.55,260.536,-599.079,0,0
267981.875,260.029,-600.887,0,0
268242.2,259.135,-602.625,0,0
268502.525,257.831,-604.218,0,0
268762.85,256.161,-605.531,0,0
269023.175,254.273,-606.251,0,0
269283.5,252.612,-606.499,0,0
269543.825,251.24,-606.425,0,0
269804.15,250.218,-606.31,0,0
270064.475,249.376,-606.137,0,0
270324.8,248.635,-605.962,0,0
270585.125,248.134,-605.573,0,0
270845.45,247.995,-605.147,0,0
271105.775,248.233,-604.794,0,0
271366.1,248.992,-604.552,0,0
271626.425,250.225,-604.73,0,0
271886.75,251.796,-605.408,0,0
272147.075,253.649,-606.692,0,0
272407.4,255.753,-608.826,0,0
272667.725,257.732,-612.087,0,0
272928.05,259.12,-616.305,0,0
273188.375,259.635,-621.278,0,0
273448.7,259.201,-626.752,0,0
273709.025,257.651,-632.604,0,0
273969.35,254.881,-638.382,0,0
274229.675,251.013,-643.752,0,0
274490.0,246.273,-648.55,0,0
274750.325,240.966,-652.709,0,0
275010.65,235.218,-656.279,0,0
275270.975,228.943,-659.449,0,0
275531.3,221.995,-661.912,0,0
275791.625,214.64,-663.367,0,0
276051.95,207.189,-663.9,0,0
276312.275,199.778,-663.462,0,0
276572.6,192.61,-662.235,0,0
276832.925,185.735,-660.348,0,0
277093.25,179.206,-657.835,0,0
277353.575,173.022,-654.843,0,0
277613.9,167.188,-651.263,0,0
277874.225,161.839,-647.189,0,0
278134.55,157.076,-642.696,0,0
278394.875,152.964,-637.913,0,0
278655.2,149.473,-632.992,0,0
278915.525,146.614,-628.097,0,0
279175.85,144.224,-623.304,0,0
279436.175,142.258,-618.672,0,0
279696.5,140.582,-614.119,0,0
279956.825,139.265,-609.631,0,0
280217.15,138.324,-605.278,0,0
280477.475,137.699,-601.151,0,0
280737.8,137.424,-597.292,0,0
280998.125,137.328,-593.722,0,0
281258.45,137.334,-590.514,0,0
281518.775,137.377,-587.683,0,0
281779.1,137.226,-585.151,0,0
282039.425,136.825,-582.727,0,0
282299.75,136.239,-580.297,0,0
282560,135.442,-577.794,0,0
282820,134.527,-575.073,0,0
283081,133.6,-572.029,0,0
283341,132.833,-568.705,0,0
283601,132.369,-565.2,0,0
283862,132.186,-561.569,0,0
284122,132.381,-557.89,0,0
284382,132.904,-554.32,0,0
284643,133.703,-550.883,0,0
284903,134.67,-547.587,0,0
285163,135.899,-544.384,0,0
285424,137.406,-541.368,0,0
285684,139.115,-538.67,0,0
285944,140.927,-536.262,0,0
286205,142.803,-534.113,0,0
286465,144.755,-532.225,0,0
286725,146.763,-530.676,0,0
286986,148.681,-529.485,0,0
287246,150.453,-528.609,0,0
287506,151.958,-527.989,0,0
287767,153.172,-527.526,0,0
288027,154.069,-527.118,0,0
288287,154.687,-526.679,0,0
288548,155.072,-526.158,0,0
288808,155.239,-525.475,0,0
289068,155.267,-524.554,0,0
289329,155.289,-523.403,0,0
289589,155.386,-522.099,0,0
289849,155.526,-520.691,0,0
290109,155.688,-519.193,0,0
290370,155.894,-517.534,0,0
290630,156.22,-515.711,0,0
290890,156.741,-513.776,0,0
291151,157.462,-511.802,0,0
291411,158.425,-509.88,0,0
291671,159.527,-508.077,0,0
291932,160.728,-506.453,0,0
292192,161.883,-504.907,0,0
292452,162.995,-503.355,0,0
292713,164.16,-501.729,0,0
292973,165.474,-500.086,0,0
293233,166.899,-498.507,0,0
293494,168.41,-496.983,0,0
293754,169.987,-495.522,0,0
294014,171.664,-494.133,0,0
294275,173.365,-492.841,0,0
294535,175.039,-491.599,0,0
294795,176.741,-490.341,0,0
295056,178.52,-489.025,0,0
295316,180.41,-487.718,0,0
295576,182.482,-486.43,0,0
295837,184.71,-485.257,0,0
296097,187.009,-484.173,0,0
296357,189.394,-483.17,0,0
296618,191.908,-482.245,0,0
296878,194.545,-481.439,0,0
297138,197.285,-480.769,0,0
297399,200.093,-480.221,0,0
297659,203.012,-479.816,0,0
297919,206.001,-479.563,0,0
298180,209.075,-479.458,0,0
298440,212.217,-479.523,0,0
298700.2,215.403,-479.741,0,0
298960.525,218.672,-480.144,0,0
299220.85,221.957,-480.737,0,0
299481.175,225.21,-481.502,0,0
299741.5,228.524,-482.364,0,0
300001.825,232.061,-483.412,0,0
300262.15,235.693,-484.719,0,0
300522.475,239.286,-486.213,0,0
300782.8,242.991,-488.028,0,0
301043.125,246.721,-490.137,0,0
301303.45,250.52,-492.435,0,0
301563.775,254.515,-495.092,0,0
301824.1,258.55,-498.191,0,0
302084.425,262.744,-501.961,0,0
302344.75,266.84,-506.421,0,0
302605.075,270.68,-511.574,0,0
302865.4,274.07,-517.627,0,0
303125.725,276.602,-524.505,0,0
303386.05,278.202,-531.798,0,0
303646.375,278.717,-539.311,0,0
303906.7,278.171,-546.713,0,0
304167.025,276.695,-553.801,0,0
304427.35,274.491,-560.391,0,0
304687.675,271.727,-566.451,0,0
304948.0,268.61,-571.936,0,0
305208.325,265.311,-576.926,0,0
305468.65,261.883,-581.61,0,0
305728.975,258.303,-586.036,0,0
305989.3,254.487,-590.229,0,0
306249.625,250.404,-594.17,0,0
306509.95,246.031,-597.746,0,0
306770.275,241.497,-600.905,0,0
307030.6,236.854,-603.609,0,0
307290.925,232.233,-605.989,0,0
307551.25,227.597,-608.052,0,0
307811.575,222.932,-609.866,0,0
308071.9,218.201,-611.413,0,0
308332.225,213.431,-612.646,0,0
308592.55,208.623,-613.56,0,0
308852.875,203.838,-614.111,0,0
309113.2,199.113,-614.295,0,0
309373.525,194.531,-614.124,0,0
309633.85,190.156,-613.648,0,0
309894.175,185.976,-612.949,0,0
310154.5,182.046,-612.048,0,0
310414.825,178.369,-610.992,0,0
310675.15,174.92,-609.896,0,0
310935.475,171.608,-608.751,0,0
311195.8,168.431,-607.551,0,0
311456.125,165.409,-606.245,0,0
311716.45,162.555,-604.914,0,0
311976.775,159.823,-603.573,0,0
312237.1,157.243,-602.25,0,0
312497.425,154.73,-600.961,0,0
312757.75,152.27,-599.698,0,0
313018.075,149.816,-598.436,0,0
313278.4,147.358,-597.091,0,0
313538.725,144.922,-595.688,0,0
313799.05,142.512,-594.217,0,0
314059.375,140.151,-592.612,0,0
314319.7,137.876,-590.899,0,0
314580,135.71,-589.087,0,0
314840,133.66,-587.186,0,0
315101,131.755,-585.239,0,0
315361,129.991,-583.209,0,0
315621,128.387,-581.175,0,0
315882,126.956,-579.097,0,0
316142,125.663,-577.068,0,0
316402,124.515,-575.09,0,0
316663,123.473,-573.189,0,0
316923,122.517,-571.333,0,0
317183,121.661,-569.527,0,0
317444,120.83,-567.774,0,0
317704,120.082,-566.096,0,0
317964,119.386,-564.461,0,0
318225,118.701,-562.898,0,0
318485,118.041,-561.385,0,0
318745,117.388,-559.836,0,0
319006,116.8,-558.295,0,0
319266,116.283,-556.763,0,0
319526,115.845,-555.254,0,0
319787,115.496,-553.781,0,0
320047,115.199,-552.434,0,0
320307,114.978,-551.184,0,0
320567,114.747,-549.997,0,0
320828,114.483,-548.918,0,0
321088,114.189,-547.878,0,0
321348,113.87,-546.88,0,0
321609,113.548,-545.889,0,0
321869,113.201,-544.92,0,0
322129,112.861,-543.956,0,0
322390,112.522,-542.991,0,0
322650,112.194,-542.05,0,0
322910,111.871,-541.128,0,0
323171,111.558,-540.214,0,0
323431,111.272,-539.319,0,0
323691,110.977,-538.457,0,0
323952,110.712,-537.637,0,0
324212,110.413,-536.839,0,0
324472,110.117,-536.056,0,0
324733,109.823,-535.265,0,0
324993,109.515,-534.493,0,0
325253,109.218,-533.711,0,0
325514,108.919,-532.937,0,0
325774,108.685,-532.158,0,0
326034,108.486,-531.403,0,0
326295,108.327,-530.695,0,0
326555,108.187,-530.044,0,0
326815,108.056,-529.457,0,0
327076,107.923,-528.936,0,0
327336,107.799,-528.489,0,0
327596,107.635,-528.117,0,0
327857,107.416,-527.797,0,0
328117,107.121,-527.56,0,0
328377,106.759,-527.319,0,0
328638,106.284,-527.092,0,0
328898,105.781,-526.823,0,0
329158,105.227,-526.535,0,0
329419,104.685,-526.231,0,0
329679,104.104,-525.888,0,0
329939,103.534,-525.57,0,0
330200,102.923,-525.257,0,0
330460,102.303,-524.965,0,0
330720.15,101.671,-524.719,0,0
330980.475,100.977,-524.38,0,0
331240.8,100.25,-524.07,0,0
331501.125,99.5149,-523.903,0,0
331761.45,98.6224,-523.652,0,0
332021.775,97.735,-523.353,0,0
332282.1,96.7354,-523.02,0,0
332542.425,95.7341,-522.713,0,0
332802.75,94.6489,-522.251,0,0
333063.075,93.4885,-521.805,0,0
333323.4,92.4052,-521.242,0,0
333583.725,91.2571,-520.67,0,0
333844.05,90.0071,-519.925,0,0
334104.375,88.9694,-519.14,0,0
334364.7,87.7858,-518.35,0,0
334625.025,86.7852,-517.506,0,0
334885.35,85.6453,-516.538,0,0
335145.675,84.5931,-515.65,0,0
335406.0,83.6427,-514.691,0,0
335666.325,82.5893,-513.701,0,0
335926.65,81.6379,-512.718,0,0
336186.975,80.5505,-511.68,0,0
336447.3,79.5835,-510.58,0,0
336707.625,78.5319,-509.552,0,0
336967.95,77.5481,-508.343,0,0
337228.275,76.6666,-507.164,0,0
337488.6,75.7647,-505.914,0,0
337748.925,74.936,-504.541,0,0
338009.25,74.1376,-503.253,0,0
338269.575,73.4401,-501.928,0,0
338529.9,72.7859,-500.609,0,0
338790.225,72.0413,-499.216,0,0
339050.55,71.3943,-497.966,0,0
339310.875,70.8424,-496.639,0,0
339571.2,70.298,-495.343,0,0
339831.525,69.7142,-493.971,0,0
340091.85,69.1185,-492.632,0,0
340352.175,68.6386,-491.368,0,0
340612.5,68.1538,-489.992,0,0
340872.825,67.7034,-488.61,0,0
341133.15,67.2065,-487.243,0,0
341393.475,66.6586,-485.835,0,0
341653.8,66.3654,-484.445,0,0
341914.125,65.9691,-482.963,0,0
342174.45,65.6839,-481.549,0,0
342434.775,65.3883,-480.095,0,0
342695.1,65.1765,-478.631,0,0
342955.425,65.0473,-477.281,0,0
343215.75,64.9311,-475.83,0,0
343476.075,64.8055,-474.424,0,0
343736.4,64.8159,-472.998,0,0
343996.725,64.824,-471.61,0,0
344257.05,64.9036,-470.278,0,0
344517.375,65.0214,-468.949,0,0
344777.7,65.1738,-467.715,0,0
345038.025,65.3807,-466.481,0,0
345298.35,65.6525,-465.323,0,0
345558.675,65.8567,-464.315,0,0
345819.0,66.1428,-463.278,0,0
346079.325,66.3746,-462.364,0,0
346339.65,66.5889,-461.489,0,0
346599.975,66.7407,-460.74,0,0
346860,66.8184,-459.988,0,0
347121,66.8889,-459.305,0,0
347381,66.8786,-458.594,0,0
347641,66.7696,-457.9,0,0
347902,66.6085,-457.21,0,0
348162,66.3966,-456.498,0,0
348422,66.1085,-455.694,0,0
348683,65.7984,-454.857,0,0
348943,65.4047,-453.925,0,0
349203,65.1543,-452.953,0,0
349464,64.8334,-451.934,0,0
349724,64.5535,-450.783,0,0
349984,64.297,-449.767,0,0
350245,64.0588,-448.667,0,0
350505,63.8441,-447.56,0,0
350765,63.6354,-446.336,0,0
351025,63.4786,-445.131,0,0
351286,63.2801,-443.832,0,0
351546,63.1951,-442.587,0,0
351806,63.1497,-441.184,0,0
352067,63.2104,-439.858,0,0
352327,63.3195,-438.537,0,0
352587,63.4862,-437.168,0,0
352848,63.788,-435.832,0,0
353108,64.0629,-434.525,0,0
353368,64.4535,-433.303,0,0
353629,64.8518,-432.121,0,0
353889,65.3649,-431.013,0,0
354149,65.8916,-429.894,0,0
354410,66.3657,-428.956,0,0
354670,66.9326,-428.019,0,0
354930,67.4975,-427.186,0,0
355191,67.9839,-426.408,0,0
355451,68.5214,-425.708,0,0
355711,69.008,-425.045,0,0
355972,69.4357,-424.466,0,0
356232,69.8089,-423.951,0,0
356492,70.1407,-423.494,0,0
356753,70.3377,-423.002,0,0
357013,70.5258,-422.615,0,0
357273,70.5877,-422.141,0,0
357534,70.5956,-421.649,0,0
357794,70.5203,-421.173,0,0
358054,70.3497,-420.643,0,0
358315,70.1754,-420.003,0,0
358575,69.8966,-419.295,0,0
358835,69.6245,-418.493,0,0
359096,69.3433,-417.608,0,0
359356,69.1274,-416.66,0,0
359616,68.9747,-415.546,0,0
359877,68.8484,-414.481,0,0
360137,68.7526,-413.297,0,0
360397,68.8074,-412.129,0,0
360658,68.821,-410.962,0,0
360918,68.9903,-409.773,0,0
361178,69.132,-408.567,0,0
361438,69.3564,-407.398,0,0
361699,69.6144,-406.147,0,0
361959,69.927,-404.985,0,0
362219,70.2635,-403.723,0,0
362480,70.6619,-402.516,0,0
362740.1,71.1339,-401.356,0,0
363000.425,71.7145,-400.216,0,0
363260.75,72.2681,-399.118,0,0
363521.075,72.8835,-398.044,0,0
363781.4,73.5287,-397.017,0,0
364041.725,74.2064,-396.008,0,0
364302.05,74.9207,-395.11,0,0
364562.375,75.6266,-394.229,0,0
364822.7,76.378,-393.335,0,0
365083.025,77.1301,-392.533,0,0
365343.35,77.9233,-391.796,0,0
365603.675,78.7281,-391.112,0,0
365864.0,79.4966,-390.496,0,0
366124.325,80.251,-389.949,0,0
366384.65,80.929,-389.458,0,0
366644.975,81.5583,-388.96,0,0
366905.3,82.1939,-388.511,0,0
367165.625,82.7432,-388.039,0,0
367425.95,83.239,-387.556,0,0
367686.275,83.837,-386.969,0,0
367946.6,84.409,-386.471,0,0
368206.925,85.018,-385.95,0,0
368467.25,85.6302,-385.482,0,0
368727.575,86.2416,-385.011,0,0
368987.9,86.8668,-384.63,0,0
369248.225,87.5422,-384.279,0,0
369508.55,88.1236,-383.914,0,0
369768.875,88.7124,-383.658,0,0
370029.2,89.3045,-383.421,0,0
370289.525,89.8375,-383.213,0,0
370549.85,90.3159,-383.095,0,0
370810.175,90.7428,-382.985,0,0
371070.5,91.0929,-382.929,0,0
371330.825,91.2937,-382.832,0,0
371591.15,91.4525,-382.708,0,0
371851.475,91.5235,-382.51,0,0
372111.8,91.5445,-382.23,0,0
372372.125,91.5752,-381.891,0,0
372632.45,91.5491,-381.451,0,0
372892.775,91.5964,-380.923,0,0
373153.1,91.6733,-380.359,0,0
373413.425,91.7846,-379.742,0,0
373673.75,91.962,-379.098,0,0
373934.075,92.217,-378.442,0,0
374194.4,92.5267,-377.763,0,0
374454.725,92.8613,-377.16,0,0
374715.05,93.2439,-376.609,0,0
374975.375,93.6108,-376.05,0,0
375235.7,93.998,-375.545,0,0
375496.025,94.401,-375.083,0,0
375756.35,94.7376,-374.582,0,0
376016.675,95.1171,-374.12,0,0
376277.0,95.5308,-373.693,0,0
376537.325,95.8521,-373.29,0,0
376797.65,96.1874,-372.843,0,0
377057.975,96.4634,-372.453,0,0
377318.3,96.7088,-372.057,0,0
377578.625,96.917,-371.637,0,0
377838.95,97.1462,-371.137,0,0
378099.275,97.2981,-370.622,0,0
378359.6,97.5435,-370.049,0,0
378619.925,97.8161,-369.461,0,0
378880,98.0995,-368.829,0,0
379141,98.3867,-368.197,0,0
379401,98.7393,-367.558,0,0
379661,99.1351,-366.972,0,0
379922,99.5557,-366.37,0,0
380182,99.9989,-365.798,0,0
380442,100.421,-365.217,0,0
380703,100.827,-364.646,0,0
380963,101.258,-364.096,0,0
381223,101.704,-363.568,0,0
381483,102.157,-363.011,0,0
381744,102.614,-362.51,0,0
382004,103.061,-361.956,0,0
382264,103.535,-361.413,0,0
382525,104.033,-360.891,0,0
382785,104.544,-360.333,0,0
383045,105.073,-359.848,0,0
383306,105.58,-359.389,0,0
383566,106.109,-358.927,0,0
383826,106.596,-358.498,0,0
384087,107.055,-358.054,0,0
384347,107.522,-357.562,0,0
384607,108.023,-357.117,0,0
384868,108.508,-356.616,0,0
385128,109.065,-356.128,0,0
385388,109.584,-355.698,0,0
385649,110.112,-355.303,0,0
385909,110.565,-354.951,0,0
386169,111.012,-354.505,0,0
386430,111.475,-354.013,0,0
386690,111.88,-353.513,0,0
386950,112.373,-353.013,0,0
387211,112.862,-352.526,0,0
387471,113.343,-352.053,0,0
387731,113.759,-351.554,0,0
387992,114.196,-351.029,0,0
388252,114.643,-350.399,0,0
388512,115.047,-349.724,0,0
388773,115.558,-348.993,0,0
389033,116.179,-348.2,0,0
389293,116.81,-347.413,0,0
389554,117.581,-346.578,0,0
389814,118.51,-345.786,0,0
390074,119.467,-345.067,0,0
390335,120.475,-344.41,0,0
390595,121.532,-343.851,0,0
390855,122.615,-343.367,0,0
391116,123.696,-342.924,0,0
391376,124.784,-342.572,0,0
391636,125.77,-342.251,0,0
391896,126.755,-341.92,0,0
392157,127.768,-341.611,0,0
392417,128.772,-341.282,0,0
392677,129.778,-340.984,0,0
392938,130.826,-340.729,0,0
393198,131.838,-340.486,0,0
393458,132.848,-340.255,0,0
393719,133.835,-340.043,0,0
393979,134.848,-339.84,0,0
394239,135.805,-339.581,0,0
394500,136.796,-339.315,0,0
394760.05,137.722,-339.035,0,0
395020.375,138.768,-338.69,0,0
395280.7,139.805,-338.3,0,0
395541.025,140.943,-337.88,0,0
395801.35,142.17,-337.476,0,0
396061.675,143.422,-337.046,0,0
396322.0,144.77,-336.631,0,0
396582.325,146.245,-336.212,0,0
396842.65,147.814,-335.783,0,0
397102.975,149.504,-335.432,0,0
397363.3,151.343,-335.055,0,0
397623.625,153.328,-334.778,0,0
397883.95,155.467,-334.595,0,0
398144.275,157.761,-334.587,0,0
398404.6,160.201,-334.752,0,0
398664.925,162.735,-335.136,0,0
398925.25,165.399,-335.746,0,0
399185.575,168.087,-336.546,0,0
399445.9,170.86,-337.642,0,0
399706.225,173.63,-339.062,0,0
399966.55,176.404,-340.841,0,0
400006.6,176.795,-341.166,0,0