File: Accelerated corrosion test data/2025-10-19_06-00-03/sample_8.csv
Frequency (Hz),Impedance (ohms),Phase (Radians),Temperature (C),Humidity (%)
10000.0,306.825,-11059.1,0,0
10260.325,298.53,-10781.6,0,0
10520.65,291.625,-10517.9,0,0
10780.975,284.868,-10267,0,0
11041.3,278.495,-10027.8,0,0
11301.625,272.193,-9800.18,0,0
11561.95,266.624,-9581.68,0,0
11822.275,260.772,-9372.82,0,0
12082.6,258.108,-9171.44,0,0
12342.925,255.619,-8983.14,0,0
12603.25,251,-8800.83,0,0
12863.575,247.502,-8628.48,0,0
13123.9,239.824,-8462.23,0,0
13384.225,234.227,-8299.64,0,0
13644.55,230.794,-8142.24,0,0
13904.875,222.477,-7994.09,0,0
14165.2,217.02,-7847.49,0,0
14425.525,212.983,-7708.16,0,0
14685.8,209.84,-7572.13,0,0
14946.175,205.888,-7440.01,0,0
15206.5,202.615,-7314.57,0,0
15466.825,199.516,-7192.67,0,0
15727.15,196.303,-7074.58,0,0
15987.5,193.003,-6960.91,0,0
16247.8,190.006,-6850.1,0,0
16508.125,187.202,-6743.13,0,0
16768.45,184,-6639.5,0,0
17028.775,181.212,-6538.68,0,0
17289.1,178.708,-6440.79,0,0
17549.425,175.561,-6345.57,0,0
17809.75,173.995,-6252.75,0,0
18070.075,172.226,-6164.27,0,0
18330.4,169.2,-6076.03,0,0
18590.725,166.836,-5990.29,0,0
18851.05,167.674,-5906.19,0,0
19111.375,166.144,-5826.5,0,0
19371.7,168.991,-5750.12,0,0
19632.025,165.743,-5677.63,0,0
19892.35,162.969,-5606.53,0,0
20152.675,159.688,-5533.05,0,0
20413.0,159.691,-5462.45,0,0
20673.3,159.742,-5394.78,0,0
20933.65,156.878,-5332.33,0,0
21193.975,152.72,-5268.23,0,0
21454.3,150.341,-5203.21,0,0
21714.625,148.329,-5140.17,0,0
21974.9,148.048,-5079.68,0,0
22235.275,148.121,-5020.53,0,0
22495.6,147.117,-4964.17,0,0
22755.925,145.167,-4909.7,0,0
23016.25,143.22,-4854.5,0,0
23276.6,139.174,-4802.61,0,0
23536.9,136.491,-4748.69,0,0
23797.225,134.783,-4697.2,0,0
24057.55,133.219,-4646.08,0,0
24317.875,131.385,-4595.94,0,0
24578.2,129.803,-4547.28,0,0
24838.525,128.278,-4498.48,0,0
25098.85,127.129,-4451.68,0,0
25359.175,125.951,-4406.21,0,0
25619.5,124.411,-4360.9,0,0
25879.8,123.649,-4316.39,0,0
26140.1,122.585,-4273.69,0,0
26400.5,121.022,-4232.31,0,0
26660.8,119.761,-4190.15,0,0
26921.1,119.812,-4148.18,0,0
27181.4,119.948,-4109.06,0,0
27441.8,118.586,-4069.9,0,0
27702.1,117.943,-4032.48,0,0
27962.4,116.082,-3995.2,0,0
28222.7,116.958,-3957,0,0
28483.1,115.701,-3920.87,0,0
28743.4,115.386,-3885.48,0,0
29003.7,114.266,-3851.36,0,0
29264,114.707,-3816.22,0,0
29524.4,113.301,-3783.22,0,0
29784.7,113.139,-3749.95,0,0
30045,112.663,-3718.1,0,0
30305.3,111.767,-3686.59,0,0
30565.7,110.401,-3655.64,0,0
30826,109.273,-3624.46,0,0
31086.3,108.125,-3593.94,0,0
31346.6,107.124,-3563.26,0,0
31607,106.56,-3533.39,0,0
31867.3,106.111,-3503.98,0,0
32127.6,105.287,-3475.04,0,0
32387.9,104.781,-3446.38,0,0
32648.3,104.696,-3418.23,0,0
32908.6,105.098,-3391.03,0,0
33168.9,104.572,-3363.82,0,0
33429.2,105.182,-3337.24,0,0
33689.6,105.368,-3311.23,0,0
33949.9,105.494,-3286.03,0,0
34210.2,105.942,-3260.74,0,0
34470.5,105.97,-3236.14,0,0
34730.9,106.123,-3211.66,0,0
34991.2,107.178,-3187.56,0,0
35251.5,107.954,-3164.68,0,0
35511.8,108.767,-3142.46,0,0
35772.2,109.151,-3121.06,0,0
36032.5,109.659,-3099.95,0,0
36292.8,109.057,-3079.23,0,0
36553.1,109.149,-3059.06,0,0
36813.5,107.946,-3039.43,0,0
37073.8,107.575,-3019.15,0,0
37334.1,106.329,-3000.04,0,0
37594.4,104.345,-2980.73,0,0
37854.8,102.197,-2961.24,0,0
38115.1,100.167,-2941.93,0,0
38375.4,98.0311,-2922.43,0,0
38635.7,95.9527,-2902.84,0,0
38896.1,94.0171,-2883.11,0,0
39156.4,91.992,-2863.35,0,0
39416.7,90.5627,-2843.54,0,0
39677,89.3879,-2824.38,0,0
39937.4,88.1928,-2805,0,0
40197.7,87.3215,-2785.51,0,0
40458,87.3187,-2767.04,0,0
40718.3,86.9314,-2749.26,0,0
40978.7,86.0763,-2731.74,0,0
41239,85.4809,-2714.03,0,0
41499.3,84.6104,-2696.49,0,0
41759.6,84.2759,-2679.39,0,0
42020,83.3731,-2662.44,0,0
42280.275,82.5102,-2645.56,0,0
42540.6,82.0102,-2628.49,0,0
42800.925,82.0587,-2611.79,0,0
43061.25,82.0822,-2595.28,0,0
43321.575,82.2229,-2579.99,0,0
43581.9,82.3965,-2564.84,0,0
43842.225,81.7176,-2550.11,0,0
44102.55,80.1642,-2535.32,0,0
44362.875,79.4073,-2519.93,0,0
44623.2,78.5142,-2504.99,0,0
44883.525,77.7642,-2490,0,0
45143.85,77.028,-2475.08,0,0
45404.175,76.4626,-2460.61,0,0
45664.5,75.8682,-2445.97,0,0
45924.825,75.3674,-2431.83,0,0
46185.15,74.7533,-2417.55,0,0
46445.475,74.2514,-2403.53,0,0
46705.8,73.642,-2389.65,0,0
46966.125,73.4141,-2375.78,0,0
47226.45,73.0778,-2362.22,0,0
47486.775,72.472,-2348.86,0,0
47747.1,72.2534,-2335.56,0,0
48007.425,72.0653,-2322.51,0,0
48267.75,71.5238,-2309.47,0,0
48528.075,71.2364,-2296.62,0,0
48788.4,70.7035,-2284.16,0,0
49048.725,70.3196,-2271.6,0,0
49309.05,69.8976,-2259.16,0,0
49569.375,69.4528,-2246.6,0,0
49829.7,68.9754,-2234.48,0,0
50090.025,68.5673,-2222.11,0,0
50350.35,68.4507,-2210.15,0,0
50610.675,68.0494,-2198.26,0,0
50871.0,67.8261,-2186.48,0,0
51131.325,67.4448,-2174.68,0,0
51391.65,67.3032,-2163.14,0,0
51651.975,67.324,-2151.58,0,0
51912.3,67.1361,-2140.37,0,0
52172.625,67.0426,-2129.16,0,0
52432.95,66.7508,-2118.22,0,0
52693.275,66.7368,-2107.1,0,0
52953.6,66.7517,-2096.32,0,0
53213.925,66.8849,-2085.62,0,0
53474.25,67.0784,-2075.26,0,0
53734.575,67.3681,-2065.34,0,0
53994.9,66.8698,-2055.93,0,0
54255.225,66.0054,-2045.95,0,0
54515.55,65.5013,-2035.82,0,0
54775.875,64.9908,-2025.78,0,0
55036.2,64.4625,-2016.04,0,0
55296.525,63.6838,-2006.19,0,0
55556.85,62.9838,-1996.26,0,0
55817.175,62.5237,-1986.38,0,0
56077.5,62.0069,-1976.49,0,0
56337.825,61.5193,-1966.52,0,0
56598.15,61.1631,-1956.76,0,0
56858.475,60.9384,-1947.03,0,0
57118.8,60.6109,-1937.46,0,0
57379.125,60.3629,-1927.91,0,0
57639.45,60.2363,-1918.72,0,0
57899.775,60.0249,-1909.38,0,0
58160.1,59.8344,-1900.15,0,0
58420.4,59.7287,-1891.12,0,0
58680.7,59.5792,-1882.1,0,0
58941.1,59.4971,-1873.25,0,0
59201.4,59.412,-1864.62,0,0
59461.7,59.112,-1855.94,0,0
59722,58.835,-1847.34,0,0
59982.4,58.4989,-1838.72,0,0
60242.7,58.1529,-1830.02,0,0
60503,57.9746,-1821.4,0,0
60763.3,57.8387,-1812.93,0,0
61023.7,57.837,-1804.47,0,0
61284,57.6583,-1795.97,0,0
61544.3,57.8045,-1787.82,0,0
61804.6,57.6652,-1779.84,0,0
62065,57.4248,-1771.78,0,0
62325.3,57.2487,-1763.62,0,0
62585.6,57.2219,-1755.42,0,0
62845.9,57.4046,-1747.5,0,0
63106.3,57.5623,-1739.61,0,0
63366.6,57.724,-1731.89,0,0
63626.9,57.942,-1724.36,0,0
63887.2,57.9754,-1717.01,0,0
64147.6,58.1,-1709.58,0,0
64407.9,58.2006,-1702.58,0,0
64668.2,57.9732,-1695.42,0,0
64928.5,57.8005,-1688.1,0,0
65188.9,57.5975,-1681.07,0,0
65449.2,57.4533,-1674.11,0,0
65709.5,57.078,-1666.82,0,0
65969.8,57.1707,-1659.82,0,0
66230.2,56.9352,-1653.23,0,0
66490.5,56.4773,-1646.35,0,0
66750.8,55.9645,-1639.43,0,0
67011.1,55.5563,-1632.22,0,0
67271.5,55.3486,-1625.25,0,0
67531.8,55.2067,-1618.24,0,0
67792.1,55.1428,-1611.41,0,0
68052.4,54.8389,-1604.65,0,0
68312.8,54.6934,-1597.92,0,0
68573.1,54.3503,-1591.11,0,0
68833.4,54.1356,-1584.4,0,0
69093.7,54.0567,-1577.57,0,0
69354.1,53.9413,-1570.94,0,0
69614.4,53.9585,-1564.3,0,0
69874.7,53.954,-1557.73,0,0
70135,54.0365,-1551.28,0,0
70395.4,54.0413,-1544.83,0,0
70655.7,54.0853,-1538.62,0,0
70916,53.9764,-1532.35,0,0
71176.3,54.0474,-1526.08,0,0
71436.7,53.9798,-1519.94,0,0
71697,54.1389,-1513.82,0,0
71957.3,54.1151,-1508,0,0
72217.6,53.8916,-1501.95,0,0
72478,53.914,-1496.01,0,0
72738.3,53.7025,-1490.33,0,0
72998.6,53.4995,-1484.44,0,0
73258.9,53.2321,-1478.41,0,0
73519.3,53.1468,-1472.4,0,0
73779.6,53.1509,-1466.59,0,0
74039.9,53.0176,-1460.89,0,0
74300.225,52.8638,-1455.22,0,0
74560.55,52.6374,-1449.49,0,0
74820.875,52.3989,-1443.69,0,0
75081.2,52.2652,-1437.94,0,0
75341.525,52.1695,-1432.21,0,0
75601.85,52.0758,-1426.56,0,0
75862.175,52.0146,-1420.87,0,0
76122.5,51.9839,-1415.24,0,0
76382.825,51.9876,-1409.68,0,0
76643.15,52.0079,-1404.26,0,0
76903.475,51.9248,-1398.9,0,0
77163.8,51.8098,-1393.5,0,0
77424.125,51.6643,-1388.12,0,0
77684.45,51.572,-1382.72,0,0
77944.775,51.4897,-1377.36,0,0
78205.1,51.4451,-1372.08,0,0
78465.425,51.2802,-1366.88,0,0
78725.75,51.0479,-1361.63,0,0
78986.075,50.9344,-1356.25,0,0
79246.4,50.8443,-1351.02,0,0
79506.725,50.638,-1345.82,0,0
79767.05,50.5555,-1340.51,0,0
80027.375,50.4288,-1335.31,0,0
80287.7,50.3137,-1329.99,0,0
80548.025,50.3256,-1324.78,0,0
80808.35,50.2813,-1319.54,0,0
81068.675,50.2183,-1314.35,0,0
81329.0,50.2741,-1309.14,0,0
81589.325,50.3531,-1304,0,0
81849.65,50.5115,-1298.82,0,0
82109.975,50.6757,-1293.8,0,0
82370.3,50.8635,-1288.81,0,0
82630.625,51.0059,-1283.92,0,0
82890.95,51.1284,-1278.88,0,0
83151.275,51.3642,-1274.01,0,0
83411.6,51.5109,-1269.21,0,0
83671.925,51.8023,-1264.29,0,0
83932.25,52.1013,-1259.59,0,0
84192.575,52.4129,-1255.05,0,0
84452.9,52.5604,-1250.4,0,0
84713.225,52.9497,-1245.92,0,0
84973.55,53.1243,-1241.75,0,0
85233.875,52.9072,-1237.67,0,0
85494.2,52.5359,-1233.06,0,0
85754.525,52.3456,-1228.42,0,0
86014.85,52.1485,-1223.72,0,0
86275.175,52.1238,-1218.98,0,0
86535.5,51.9848,-1214.29,0,0
86795.825,52.0588,-1209.51,0,0
87056.15,52.2401,-1204.73,0,0
87316.475,52.5312,-1200.26,0,0
87576.8,52.5756,-1195.76,0,0
87837.125,52.663,-1191.17,0,0
88097.45,52.7749,-1186.62,0,0
88357.775,52.959,-1182.16,0,0
88618.1,53.0116,-1177.66,0,0
88878.425,53.204,-1173.18,0,0
89138.75,53.3053,-1168.65,0,0
89399.075,53.432,-1164.02,0,0
89659.4,53.5463,-1159.44,0,0
89919.725,53.8911,-1154.76,0,0
90180,54.3515,-1150.09,0,0
90440.4,54.7288,-1145.59,0,0
90700.7,55.1895,-1141.02,0,0
90961,55.8607,-1136.37,0,0
91221.3,56.7839,-1131.96,0,0
91481.7,57.7721,-1127.7,0,0
91742,58.6655,-1123.79,0,0
92002.3,59.3872,-1120.1,0,0
92262.6,59.9244,-1116.33,0,0
92523,60.5596,-1112.61,0,0
92783.3,60.8964,-1108.88,0,0
93043.6,61.1637,-1105.03,0,0
93303.9,61.5622,-1101.27,0,0
93564.3,61.9125,-1097.38,0,0
93824.6,62.2125,-1093.61,0,0
94084.9,62.5796,-1089.69,0,0
94345.2,63.098,-1085.75,0,0
94605.6,63.4562,-1082.21,0,0
94865.9,63.6743,-1078.41,0,0
95126.2,63.9386,-1074.59,0,0
95386.5,64.0954,-1070.65,0,0
95646.9,64.529,-1066.5,0,0
95907.2,64.9792,-1062.6,0,0
96167.5,65.4589,-1058.61,0,0
96427.8,65.9435,-1054.62,0,0
96688.2,66.6666,-1050.5,0,0
96948.5,67.5531,-1046.67,0,0
97208.8,68.31,-1042.9,0,0
97469.1,69.0091,-1039.09,0,0
97729.5,69.9721,-1035.25,0,0
97989.8,70.8956,-1031.5,0,0
98250.1,71.9925,-1027.78,0,0
98510.4,73.1986,-1024.2,0,0
98770.8,74.5336,-1020.8,0,0
99031.1,75.7968,-1017.77,0,0
99291.4,76.8265,-1014.81,0,0
99551.7,77.7231,-1011.86,0,0
99812.1,78.5376,-1008.8,0,0
100072,79.483,-1005.6,0,0
100333,80.6214,-1002.59,0,0
100593,81.7446,-999.738,0,0
100853,82.8534,-997.055,0,0
101114,83.9894,-994.49,0,0
101374,84.9375,-992.088,0,0
101634,85.9033,-989.708,0,0
101895,86.7739,-987.558,0,0
102155,87.4275,-985.454,0,0
102415,88.0019,-983.42,0,0
102676,88.3978,-981.471,0,0
102936,88.5336,-979.583,0,0
103196,88.4671,-977.56,0,0
103457,88.2285,-975.288,0,0
103717,88.0767,-972.857,0,0
103977,88.0657,-970.313,0,0
104238,88.0688,-967.924,0,0
104498,88.0178,-965.627,0,0
104758,87.726,-963.386,0,0
105019,87.2634,-960.971,0,0
105279,86.7404,-958.231,0,0
105539,86.4101,-955.328,0,0
105800,86.1741,-952.488,0,0
106060,85.9743,-949.529,0,0
106320.175,85.9562,-946.572,0,0
106580.5,85.9348,-943.716,0,0
106840.825,86.0596,-940.86,0,0
107101.15,86.1598,-938.213,0,0
107361.475,86.1571,-935.565,0,0
107621.8,86.0322,-933.005,0,0
107882.125,85.619,-930.311,0,0
108142.45,85.2918,-927.273,0,0
108402.775,85.229,-924.095,0,0
108663.1,85.3581,-921.041,0,0
108923.425,85.4343,-918.068,0,0
109183.75,85.7026,-914.897,0,0
109444.075,86.1673,-911.954,0,0
109704.4,86.5849,-909.316,0,0
109964.725,86.9432,-906.617,0,0
110225.05,87.3705,-904.052,0,0
110485.375,87.6057,-901.637,0,0
110745.7,87.7509,-899.014,0,0
111006.025,87.9738,-896.633,0,0
111266.35,87.9731,-894.072,0,0
111526.675,88.1669,-891.302,0,0
111787.0,88.441,-888.694,0,0
112047.325,88.7565,-886.244,0,0
112307.65,88.9387,-883.942,0,0
112567.975,89.0363,-881.581,0,0
112828.3,89.0822,-879.209,0,0
113088.625,89.1585,-876.793,0,0
113348.95,89.1963,-874.401,0,0
113609.275,89.2091,-872.007,0,0
113869.6,89.1818,-869.608,0,0
114129.925,89.105,-867.167,0,0
114390.25,89.0378,-864.705,0,0
114650.575,89.1359,-862.166,0,0
114910.9,89.2042,-859.654,0,0
115171.225,89.3925,-857.286,0,0
115431.55,89.5029,-855.066,0,0
115691.875,89.4673,-853.008,0,0
115952.2,89.1227,-850.844,0,0
116212.525,88.7281,-848.376,0,0
116472.85,88.4461,-845.817,0,0
116733.175,88.2164,-843.165,0,0
116993.5,88.1084,-840.54,0,0
117253.825,88.0289,-837.83,0,0
117514.15,88.1352,-835.22,0,0
117774.475,88.2405,-832.71,0,0
118034.8,88.3068,-830.314,0,0
118295.125,88.2818,-827.895,0,0
118555.45,88.2374,-825.461,0,0
118815.775,88.2507,-822.994,0,0
119076.1,88.2716,-820.52,0,0
119336.425,88.3924,-818.191,0,0
119596.75,88.2994,-815.976,0,0
119857.075,88.1278,-813.655,0,0
120117.4,88.0125,-811.228,0,0
120377.725,87.8783,-808.832,0,0
120638.05,87.7436,-806.435,0,0
120898.375,87.5516,-803.996,0,0
121158.7,87.4682,-801.449,0,0
121419.025,87.4761,-799.029,0,0
121679.35,87.4068,-796.648,0,0
121939.675,87.2764,-794.277,0,0
122200.0,87.0967,-791.868,0,0
122460,87.0439,-789.434,0,0
122721,86.9549,-787.074,0,0
122981,86.8245,-784.72,0,0
123241,86.633,-782.359,0,0
123502,86.4687,-779.947,0,0
123762,86.2802,-777.578,0,0
124022,86.0802,-775.213,0,0
124283,85.8427,-772.826,0,0
124543,85.549,-770.445,0,0
124803,85.2141,-767.966,0,0
125064,84.892,-765.431,0,0
125324,84.6157,-762.909,0,0
125584,84.3179,-760.362,0,0
125845,84.0256,-757.797,0,0
126105,83.703,-755.224,0,0
126365,83.3646,-752.549,0,0
126626,83.088,-749.801,0,0
126886,82.839,-747.07,0,0
127146,82.6386,-744.285,0,0
127406,82.494,-741.552,0,0
127667,82.3596,-738.781,0,0
127927,82.1363,-735.927,0,0
128187,82.0818,-733.126,0,0
128448,82.0342,-730.306,0,0
128708,82.0704,-727.566,0,0
128968,81.9948,-724.859,0,0
129229,81.9184,-722.099,0,0
129489,81.8773,-719.287,0,0
129749,81.8054,-716.489,0,0
130010,81.6962,-713.632,0,0
130270,81.6614,-710.619,0,0
130530,81.7959,-707.491,0,0
130791,82.1799,-704.448,0,0
131051,82.6497,-701.644,0,0
131311,83.0611,-698.997,0,0
131572,83.4533,-696.406,0,0
131832,83.6901,-693.955,0,0
132092,83.7736,-691.374,0,0
132353,83.9549,-688.721,0,0
132613,84.1442,-686.104,0,0
132873,84.3735,-683.53,0,0
133134,84.4707,-681.02,0,0
133394,84.4653,-678.434,0,0
133654,84.4434,-675.734,0,0
133915,84.467,-673.008,0,0
134175,84.49,-670.179,0,0
134435,84.5291,-667.304,0,0
134696,84.6899,-664.336,0,0
134956,84.9185,-661.307,0,0
135216,85.3728,-658.364,0,0
135477,85.8525,-655.566,0,0
135737,86.2763,-652.761,0,0
135997,86.923,-650.009,0,0
136258,87.6352,-647.58,0,0
136518,87.9902,-645.376,0,0
136778,88.2103,-643.112,0,0
137039,88.2282,-640.853,0,0
137299,88.0643,-638.412,0,0
137559,87.8568,-635.897,0,0
137819,87.5173,-633.211,0,0
138080,87.155,-630.271,0,0
138340.125,86.8473,-627.163,0,0
138600.45,86.7354,-623.782,0,0
138860.775,86.8961,-620.398,0,0
139121.1,87.2016,-617.055,0,0
139381.425,87.6208,-613.857,0,0
139641.75,87.94,-610.73,0,0
139902.075,88.2462,-607.419,0,0
140162.4,88.8166,-604.139,0,0
140422.725,89.387,-601.069,0,0
140683.05,89.8266,-598.043,0,0
140943.375,90.1604,-594.883,0,0
141203.7,90.633,-591.574,0,0
141464.025,91.2296,-588.348,0,0
141724.35,91.7567,-585.266,0,0
141984.675,92.1043,-582.1,0,0
142245.0,92.4676,-578.691,0,0
142505.325,92.9978,-575.19,0,0
142765.65,93.6154,-571.678,0,0
143025.975,94.2796,-568.147,0,0
143286.3,95.0538,-564.521,0,0
143546.625,95.9718,-560.859,0,0
143806.95,96.9978,-557.334,0,0
144067.275,97.9574,-553.831,0,0
144327.6,98.9314,-550.243,0,0
144587.925,99.969,-546.649,0,0
144848.25,101.083,-542.883,0,0
145108.575,102.444,-539.082,0,0
145368.9,103.947,-535.406,0,0
145629.225,105.518,-531.791,0,0
145889.55,107.148,-528.246,0,0
146149.875,108.744,-524.742,0,0
146410.2,110.39,-521.134,0,0
146670.525,112.192,-517.508,0,0
146930.85,114.214,-513.927,0,0
147191.175,116.397,-510.565,0,0
147451.5,118.522,-507.469,0,0
147711.825,120.391,-504.598,0,0
147972.15,121.937,-501.556,0,0
148232.475,123.332,-498.185,0,0
148492.8,124.819,-494.367,0,0
148753.125,126.695,-490.282,0,0
149013.45,128.924,-486.096,0,0
149273.775,131.519,-481.949,0,0
149534.1,134.286,-477.929,0,0
149794.425,137.191,-473.77,0,0
150054.75,140.599,-469.462,0,0
150315.075,144.536,-465.213,0,0
150575.4,148.956,-461.352,0,0
150835.725,153.853,-457.9,0,0
151096.05,159.014,-454.899,0,0
151356.375,164.599,-452.369,0,0
151616.7,170.234,-450.776,0,0
151877.025,175.627,-449.821,0,0
152137.35,180.708,-449.369,0,0
152397.675,185.698,-449.176,0,0
152658.0,190.178,-449.703,0,0
152918.325,194.098,-450.082,0,0
153178.65,198.228,-450.638,0,0
153438.975,201.938,-451.819,0,0
153699.3,205.001,-453.425,0,0
153959.625,206.933,-454.856,0,0
154219.95,208.66,-455.578,0,0
154480,210.352,-456.052,0,0
154741,211.413,-456.31,0,0
155001,212.767,-455.28,0,0
155261,215.527,-454.171,0,0
155522,218.751,-453.721,0,0
155782,222.342,-453.864,0,0
156042,226.451,-455.234,0,0
156303,229.673,-458.009,0,0
156563,231.778,-461.701,0,0
156823,232.108,-465.578,0,0
157084,230.632,-468.97,0,0
157344,228.004,-470.79,0,0
157604,224.91,-471.014,0,0
157864,222.308,-469.429,0,0
158125,220.915,-466.815,0,0
158385,221.021,-464.085,0,0
158645,221.77,-461.687,0,0
158906,223.286,-459.876,0,0
159166,224.811,-458.655,0,0
159426,226.867,-457.728,0,0
159687,228.712,-458.091,0,0
159947,229.642,-459.157,0,0
160207,229.488,-460.233,0,0
160468,228.502,-460.887,0,0
160728,226.747,-460.958,0,0
160988,224.377,-459.718,0,0
161249,222.563,-457.326,0,0
161509,221.35,-454.179,0,0
161769,221.088,-450.637,0,0
162030,221.716,-447.114,0,0
162290,223.161,-443.787,0,0
162550,225.131,-440.936,0,0
162811,227.482,-439.06,0,0
163071,229.328,-437.902,0,0
163331,230.934,-436.606,0,0
163592,232.559,-435.659,0,0
163852,233.84,-434.937,0,0
164112,234.849,-433.971,0,0
164373,236.058,-432.714,0,0
164633,237.655,-431.7,0,0
164893,239.295,-431.295,0,0
165154,240.515,-431.157,0,0
165414,241.721,-431.128,0,0
165674,242.906,-431.767,0,0
165935,243.149,-433.151,0,0
166195,241.935,-434.177,0,0
166455,240.414,-434.008,0,0
166716,239.118,-433.781,0,0
166976,237.326,-433.461,0,0
167236,235.005,-432.462,0,0
167497,232.76,-430.574,0,0
167757,231.101,-428.52,0,0
168017,229.432,-426.484,0,0
168277,227.439,-424.197,0,0
168538,225.463,-421.483,0,0
168798,223.504,-418.494,0,0
169058,221.541,-414.957,0,0
169319,219.77,-410.964,0,0
169579,218.571,-406.58,0,0
169839,217.73,-402.335,0,0
170100,216.867,-398.024,0,0
170360.075,216.111,-393.451,0,0
170620.4,215.637,-388.643,0,0
170880.725,215.351,-383.776,0,0
171141.05,215.292,-378.913,0,0
171401.375,215.134,-373.894,0,0
171661.7,214.851,-368.408,0,0
171922.025,215.17,-362.272,0,0
172182.35,216.251,-355.976,0,0
172442.675,218.062,-349.929,0,0
172703.0,220.1,-344.377,0,0
172963.325,221.915,-338.906,0,0
173223.65,224.187,-333.021,0,0
173483.975,226.887,-327.375,0,0
173744.3,230.027,-322.044,0,0
174004.625,233.189,-317.124,0,0
174264.95,236.366,-312.458,0,0
174525.275,239.641,-308.147,0,0
174785.6,242.422,-304.289,0,0
175045.925,244.553,-300.058,0,0
175306.25,246.603,-295.277,0,0
175566.575,248.758,-290.07,0,0
175826.9,251.152,-284.36,0,0
176087.225,254.151,-278.395,0,0
176347.55,257.469,-272.405,0,0
176607.875,261.325,-266.324,0,0
176868.2,265.715,-260.564,0,0
177128.525,270.318,-255.166,0,0
177388.85,274.708,-250.255,0,0
177649.175,278.524,-245.219,0,0
177909.5,282.233,-239.242,0,0
178169.825,286.514,-232.455,0,0
178430.15,291.925,-225.502,0,0
178690.475,298.232,-218.795,0,0
178950.8,304.982,-212.618,0,0
179211.125,312.109,-206.592,0,0
179471.45,319.804,-201.128,0,0
179731.775,327.246,-196.376,0,0
179992.1,334.638,-191.183,0,0
180252.425,342.863,-185.977,0,0
180512.75,351.567,-181.519,0,0
180773.075,359.831,-177.453,0,0
181033.4,368.16,-173.052,0,0
181293.725,377.066,-168.629,0,0
181554.05,386.5,-164.242,0,0
181814.375,396.951,-159.932,0,0
182074.7,408.441,-156.804,0,0
182335.025,419.938,-154.817,0,0
182595.35,431.133,-153.771,0,0
182855.675,442.129,-153.285,0,0
183116.0,452.721,-153.356,0,0
183376.325,463.043,-153.72,0,0
183636.65,473.411,-154.526,0,0
183896.975,483.149,-156.28,0,0
184157.3,491.423,-158.034,0,0
184417.625,499.097,-158.411,0,0
184677.95,507.765,-157.843,0,0
184938.275,517.379,-157.296,0,0
185198.6,527.679,-157.083,0,0
185458.925,539.152,-157.384,0,0
185719.25,551.044,-159.344,0,0
185979.575,562.222,-162.308,0,0
186239.9,573.166,-165.635,0,0
186500,584.346,-169.796,0,0
186761,594.608,-175.268,0,0
187021,603.696,-180.893,0,0
187281,612.206,-186.525,0,0
187542,620.035,-192.054,0,0
187802,627.313,-197.396,0,0
188062,634.242,-202.181,0,0
188322,641.534,-206.466,0,0
188583,649.328,-211.205,0,0
188843,656.878,-216.508,0,0
189103,664.036,-222.327,0,0
189364,670.194,-228.204,0,0
189624,675.774,-233.426,0,0
189884,681.617,-238.239,0,0
190145,687.194,-243.499,0,0
190405,691.584,-248.348,0,0
190665,695.748,-251.578,0,0
190926,700.874,-253.462,0,0
191186,707.903,-255.036,0,0
191446,716.142,-257.669,0,0
191707,724.712,-261.553,0,0
191967,733.067,-266.55,0,0
192227,740.382,-272.501,0,0
192488,745.955,-278.148,0,0
192748,750.632,-282.314,0,0
193008,755.25,-284.275,0,0
193269,761.83,-284.289,0,0
193529,770.944,-283.843,0,0
193789,782.656,-283.822,0,0
194050,796.582,-285.406,0,0
194310,811.837,-289.26,0,0
194570,827.485,-294.845,0,0
194831,843.778,-302.583,0,0
195091,859.537,-312.49,0,0
195351,874.414,-323.802,0,0
195612,889.032,-335.808,0,0
195872,903.667,-348.692,0,0
196132,919.038,-363.247,0,0
196393,934.119,-380.648,0,0
196653,947.257,-400.619,0,0
196913,958.337,-421.468,0,0
197174,968.128,-442.997,0,0
197434,976.829,-465.495,0,0
197694,984.073,-489.439,0,0
197955,989.618,-514.654,0,0
198215,992.848,-540.973,0,0
198475,993.207,-567.788,0,0
198735,991.129,-594.398,0,0
198996,986.412,-620.767,0,0
199256,979.44,-646.194,0,0
199516,970.439,-670.387,0,0
199777,959.541,-693.63,0,0
200037,946.577,-715.406,0,0
200297,931.447,-734.599,0,0
200558,915.992,-750.934,0,0
200818,901.228,-765.222,0,0
201078,886.986,-778.218,0,0
201339,873.59,-790.432,0,0
201599,860.734,-803.008,0,0
201859,847.146,-816.336,0,0
202120,831.779,-829.882,0,0
202380.025,814.042,-841.972,0,0
202640.35,794.373,-851.841,0,0
202900.675,773.952,-858.513,0,0
203161.0,754.508,-862.143,0,0
203421.325,736.423,-864.052,0,0
203681.65,719.041,-864.711,0,0
203941.975,702.865,-863.773,0,0
204202.3,688.397,-861.7,0,0
204462.625,675.309,-859.332,0,0
204722.95,663.173,-857.22,0,0
204983.275,651.527,-854.824,0,0
205243.6,640.188,-852.068,0,0
205503.925,629.357,-848.89,0,0
205764.25,618.99,-845.217,0,0
206024.575,609.1,-840.967,0,0
206284.9,599.656,-835.862,0,0
206545.225,591.141,-829.803,0,0
206805.55,584.289,-822.943,0,0
207065.875,579.361,-816.188,0,0
207326.2,575.809,-810.107,0,0
207586.525,573.117,-804.592,0,0
207846.85,571.338,-799.941,0,0
208107.175,570.153,-796.207,0,0
208367.5,569.083,-793.434,0,0
208627.825,567.825,-791.345,0,0
208888.15,566.434,-789.461,0,0
209148.475,565.051,-787.968,0,0
209408.8,563.322,-786.527,0,0
209669.125,561.625,-784.725,0,0
209929.45,560.199,-782.667,0,0
210189.775,559.457,-780.572,0,0
210450.1,559.284,-778.799,0,0
210710.425,559.615,-777.248,0,0
210970.75,560.498,-776.325,0,0
211231.075,561.677,-775.922,0,0
211491.4,562.955,-776.279,0,0
211751.725,564.308,-777.264,0,0
212012.05,565.576,-778.922,0,0
212272.375,566.601,-781.065,0,0
212532.7,567.312,-783.786,0,0
212793.025,567.735,-786.944,0,0
213053.35,567.618,-790.53,0,0
213313.675,567.127,-794.445,0,0
213574.0,565.965,-798.457,0,0
213834.325,564.249,-802.306,0,0
214094.65,562.227,-805.81,0,0
214354.975,560.07,-809.168,0,0
214615.3,557.813,-812.291,0,0
214875.625,555.642,-815.343,0,0
215135.95,553.534,-818.384,0,0
215396.275,551.378,-821.626,0,0
215656.6,549.079,-825.048,0,0
215916.925,546.465,-828.371,0,0
216177.25,543.927,-831.783,0,0
216437.575,541.328,-835.214,0,0
216697.9,538.45,-838.94,0,0
216958.225,535.027,-842.669,0,0
217218.55,531.378,-845.594,0,0
217478.875,528.189,-848.685,0,0
217739.2,525.01,-852.059,0,0
217999.525,521.698,-855.733,0,0
218259.85,518.119,-859.612,0,0
218520,514.169,-863.652,0,0
218780,509.702,-867.899,0,0
219041,504.606,-871.948,0,0
219301,499.062,-875.749,0,0
219561,493.258,-879.19,0,0
219822,487.217,-882.337,0,0
220082,480.988,-885.478,0,0
220342,474.14,-888.355,0,0
220603,466.736,-890.655,0,0
220863,459.044,-892.049,0,0
221123,451.421,-892.793,0,0
221384,443.986,-892.881,0,0
221644,436.72,-892.272,0,0
221904,429.837,-891.294,0,0
222165,423.383,-890.005,0,0
222425,417.139,-888.499,0,0
222685,411.239,-886.727,0,0
222946,405.427,-884.675,0,0
223206,400.013,-882.102,0,0
223466,395.049,-879.293,0,0
223727,390.815,-876.328,0,0
223987,386.982,-873.562,0,0
224247,383.737,-870.801,0,0
224508,380.767,-868.146,0,0
224768,378.225,-865.592,0,0
225028,376.096,-863.271,0,0
225289,374.404,-861.278,0,0
225549,372.875,-859.689,0,0
225809,371.553,-858.716,0,0
226070,370.099,-858.02,0,0
226330,368.626,-857.69,0,0
226590,367.055,-857.761,0,0
226851,365.143,-858.232,0,0
227111,363.117,-858.813,0,0
227371,360.459,-859.486,0,0
227632,357.787,-860.153,0,0
227892,354.866,-860.747,0,0
228152,351.759,-861.162,0,0
228413,348.681,-861.334,0,0
228673,345.663,-861.401,0,0
228933,342.857,-861.558,0,0
229193,340.039,-861.891,0,0
229454,337.275,-862.469,0,0
229714,334.311,-863.202,0,0
229974,331.177,-864.197,0,0
230235,327.74,-865.346,0,0
230495,323.92,-866.462,0,0
230755,319.704,-867.713,0,0
231016,314.997,-868.592,0,0
231276,310.109,-869.159,0,0
231536,304.997,-869.462,0,0
231797,299.805,-869.427,0,0
232057,294.603,-869.019,0,0
232317,289.427,-868.447,0,0
232578,284.258,-867.741,0,0
232838,279.079,-866.927,0,0
233098,273.808,-865.983,0,0
233359,268.371,-864.906,0,0
233619,262.666,-863.59,0,0
233879,256.818,-861.685,0,0
234140,251.052,-859.37,0,0
234400,245.483,-856.552,0,0
234660.3,240.076,-853.459,0,0
234920.625,234.787,-850.03,0,0
235180.95,229.961,-846.25,0,0
235441.275,225.404,-842.201,0,0
235701.6,221.289,-838.001,0,0
235961.925,217.485,-833.691,0,0
236222.25,214.077,-829.443,0,0
236482.575,210.861,-825.173,0,0
236742.9,207.963,-820.835,0,0
237003.225,205.297,-816.58,0,0
237263.55,202.848,-812.378,0,0
237523.875,200.568,-808.256,0,0
237784.2,198.459,-804.113,0,0
238044.525,196.496,-800.027,0,0
238304.85,194.597,-795.952,0,0
238565.175,192.949,-791.834,0,0
238825.5,191.558,-787.444,0,0
239085.825,190.583,-783.207,0,0
239346.15,190.06,-779.163,0,0
239606.475,189.807,-775.447,0,0
239866.8,189.708,-771.976,0,0
240127.125,189.585,-768.982,0,0
240387.45,189.588,-766.145,0,0
240647.775,189.457,-763.416,0,0
240908.1,189.568,-760.857,0,0
241168.425,189.712,-758.72,0,0
241428.75,189.785,-756.945,0,0
241689.075,189.584,-755.442,0,0
241949.4,189.087,-754.124,0,0
242209.725,188.188,-752.797,0,0
242470.05,187.097,-751.38,0,0
242730.375,185.752,-749.841,0,0
242990.7,184.3,-748.041,0,0
243251.025,182.946,-745.998,0,0
243511.35,181.669,-743.933,0,0
243771.675,180.408,-741.827,0,0
244032.0,179.126,-739.529,0,0
244292.325,177.965,-737.136,0,0
244552.65,176.966,-734.71,0,0
244812.975,176.206,-732.251,0,0
245073.3,175.403,-729.97,0,0
245333.625,174.637,-727.676,0,0
245593.95,173.818,-725.464,0,0
245854.275,173.07,-722.938,0,0
246114.6,172.462,-720.505,0,0
246374.925,172.086,-718.043,0,0
246635.25,171.832,-715.748,0,0
246895.575,171.739,-713.595,0,0
247155.9,171.626,-711.627,0,0
247416.225,171.34,-709.87,0,0
247676.55,170.989,-708.088,0,0
247936.875,170.486,-706.315,0,0
248197.2,170.046,-704.49,0,0
248457.525,169.502,-702.622,0,0
248717.85,168.978,-700.641,0,0
248978.175,168.562,-698.665,0,0
249238.5,168.217,-696.54,0,0
249498.825,167.889,-694.566,0,0
249759.15,167.683,-692.556,0,0
250019.475,167.566,-690.491,0,0
250279.8,167.415,-688.441,0,0
250540,167.347,-686.454,0,0
250800,167.364,-684.471,0,0
251061,167.459,-682.446,0,0
251321,167.738,-680.443,0,0
251581,168.154,-678.55,0,0
251842,168.656,-676.85,0,0
252102,169.216,-675.291,0,0
252362,169.799,-673.876,0,0
252623,170.389,-672.54,0,0
252883,171.007,-671.429,0,0
253143,171.651,-670.517,0,0
253404,172.106,-669.832,0,0
253664,172.415,-669.204,0,0
253924,172.58,-668.719,0,0
254185,172.577,-668.289,0,0
254445,172.294,-667.874,0,0
254705,171.969,-667.438,0,0
254966,171.519,-666.93,0,0
255226,170.889,-666.345,0,0
255486,170.177,-665.735,0,0
255747,169.317,-665.049,0,0
256007,168.354,-664.233,0,0
256267,167.336,-663.285,0,0
256528,166.251,-662.263,0,0
256788,165.031,-661.081,0,0
257048,163.737,-659.672,0,0
257309,162.495,-657.981,0,0
257569,161.363,-656.067,0,0
257829,160.427,-653.986,0,0
258090,159.653,-651.769,0,0
258350,159.09,-649.502,0,0
258610,158.627,-647.213,0,0
258871,158.379,-644.843,0,0
259131,158.304,-642.441,0,0
259391,158.443,-640.06,0,0
259651,158.771,-637.81,0,0
259912,159.318,-635.641,0,0
260172,159.961,-633.698,0,0
260432,160.558,-631.924,0,0
260693,161.1,-630.24,0,0
260953,161.587,-628.591,0,0
261213,162.108,-626.87,0,0
261474,162.709,-625.202,0,0
261734,163.353,-623.579,0,0
261994,164.088,-622.007,0,0
262255,164.816,-620.596,0,0
262515,165.494,-619.291,0,0
262775,165.945,-618.024,0,0
263036,166.287,-616.583,0,0
263296,166.708,-614.961,0,0
263556,167.284,-613.31,0,0
263817,167.932,-611.69,0,0
264077,168.542,-610.102,0,0
264337,169.166,-608.382,0,0
264598,169.823,-606.625,0,0
264858,170.589,-604.711,0,0
265118,171.433,-602.705,0,0
265379,172.431,-600.57,0,0
265639,173.654,-598.392,0,0
265899,175.096,-596.173,0,0
266160,176.772,-593.823,0,0
266420,178.771,-591.463,0,0
266680.25,181.188,-589.199,0,0
266940.575,183.933,-587.095,0,0
267200.9,186.949,-585.179,0,0
267461.225,190.271,-583.474,0,0
267721.55,193.931,-582.004,0,0
267981.875,197.927,-580.936,0,0
268242.2,202.119,-580.331,0,0
268502.525,206.465,-580.227,0,0
268762.85,210.761,-580.665,0,0
269023.175,214.964,-581.433,0,0
269283.5,219.101,-582.573,0,0
269543.825,223.196,-584.041,0,0
269804.15,227.235,-585.746,0,0
270064.475,231.313,-587.827,0,0
270324.8,235.422,-590.282,0,0
270585.125,239.528,-593.307,0,0
270845.45,243.451,-596.928,0,0
271105.775,247.063,-601.096,0,0
271366.1,250.245,-605.758,0,0
271626.425,253.001,-610.82,0,0
271886.75,255.263,-616.252,0,0
272147.075,257.03,-621.928,0,0
272407.4,258.376,-627.858,0,0
272667.725,259.167,-634.131,0,0
272928.05,259.433,-640.784,0,0
273188.375,258.857,-647.66,0,0
273448.7,257.441,-654.641,0,0
273709.025,255.035,-661.603,0,0
273969.35,251.782,-668.26,0,0
274229.675,247.549,-674.477,0,0
274490.0,242.484,-680.108,0,0
274750.325,236.93,-684.846,0,0
275010.65,230.881,-688.802,0,0
275270.975,224.73,-691.822,0,0
275531.3,218.542,-694.113,0,0
275791.625,212.487,-695.718,0,0
276051.95,206.573,-696.74,0,0
276312.275,200.904,-697.255,0,0
276572.6,195.44,-697.394,0,0
276832.925,190.201,-697.223,0,0
277093.25,185.085,-696.705,0,0
277353.575,180.184,-695.866,0,0
277613.9,175.551,-694.72,0,0
277874.225,171.168,-693.378,0,0
278134.55,167.01,-691.879,0,0
278394.875,163.052,-690.224,0,0
278655.2,159.242,-688.448,0,0
278915.525,155.576,-686.517,0,0
279175.85,152.092,-684.37,0,0
279436.175,148.809,-681.981,0,0
279696.5,145.804,-679.418,0,0
279956.825,143.109,-676.746,0,0
280217.15,140.766,-674.029,0,0
280477.475,138.69,-671.175,0,0
280737.8,137.035,-668.419,0,0
280998.125,135.612,-665.821,0,0
281258.45,134.439,-663.38,0,0
281518.775,133.423,-661.07,0,0
281779.1,132.516,-658.962,0,0
282039.425,131.655,-656.956,0,0
282299.75,130.893,-655.052,0,0
282560,130.201,-653.222,0,0
282820,129.563,-651.541,0,0
283081,128.93,-649.983,0,0
283341,128.258,-648.509,0,0
283601,127.532,-647.076,0,0
283862,126.78,-645.624,0,0
284122,126.002,-644.122,0,0
284382,125.245,-642.515,0,0
284643,124.619,-640.848,0,0
284903,124.149,-639.118,0,0
285163,123.785,-637.372,0,0
285424,123.641,-635.658,0,0
285684,123.687,-633.988,0,0
285944,123.937,-632.436,0,0
286205,124.394,-631.044,0,0
286465,124.976,-629.825,0,0
286725,125.684,-628.83,0,0
286986,126.545,-628.03,0,0
287246,127.579,-627.58,0,0
287506,128.607,-627.549,0,0
287767,129.553,-627.971,0,0
288027,130.253,-628.765,0,0
288287,130.642,-629.871,0,0
288548,130.641,-631.216,0,0
288808,130.22,-632.669,0,0
289068,129.414,-634.138,0,0
289329,128.246,-635.564,0,0
289589,126.724,-636.918,0,0
289849,124.853,-638.087,0,0
290109,122.684,-639.053,0,0
290370,120.273,-639.686,0,0
290630,117.733,-639.981,0,0
290890,115.199,-639.942,0,0
291151,112.717,-639.624,0,0
291411,110.34,-639.182,0,0
291671,108.014,-638.606,0,0
291932,105.714,-637.952,0,0
292192,103.397,-637.182,0,0
292452,101.095,-636.241,0,0
292713,98.8591,-635.156,0,0
292973,96.6925,-633.941,0,0
293233,94.6381,-632.622,0,0
293494,92.671,-631.277,0,0
293754,90.7306,-629.85,0,0
294014,88.8374,-628.337,0,0
294275,86.9916,-626.773,0,0
294535,85.2343,-625.104,0,0
294795,83.5215,-623.372,0,0
295056,81.949,-621.568,0,0
295316,80.4528,-619.716,0,0
295576,79.062,-617.813,0,0
295837,77.773,-615.89,0,0
296097,76.5955,-613.972,0,0
296357,75.4896,-612.061,0,0
296618,74.4778,-610.178,0,0
296878,73.5325,-608.338,0,0
297138,72.6055,-606.489,0,0
297399,71.7155,-604.691,0,0
297659,70.8504,-602.877,0,0
297919,70.0106,-601.037,0,0
298180,69.2056,-599.204,0,0
298440,68.4396,-597.336,0,0
298700.2,67.7227,-595.467,0,0
298960.525,67.071,-593.548,0,0
299220.85,66.467,-591.654,0,0
299481.175,65.947,-589.742,0,0
299741.5,65.47,-587.846,0,0
300001.825,65.0448,-585.908,0,0
300262.15,64.6913,-584.003,0,0
300522.475,64.385,-582.103,0,0
300782.8,64.1674,-580.205,0,0
301043.125,63.9984,-578.338,0,0
301303.45,63.8933,-576.467,0,0
301563.775,63.8606,-574.615,0,0
301824.1,63.9014,-572.791,0,0
302084.425,64.0207,-571,0,0
302344.75,64.2226,-569.266,0,0
302605.075,64.4925,-567.593,0,0
302865.4,64.8135,-566.009,0,0
303125.725,65.1604,-564.48,0,0
303386.05,65.557,-563.038,0,0
303646.375,65.9624,-561.671,0,0
303906.7,66.3739,-560.377,0,0
304167.025,66.7768,-559.13,0,0
304427.35,67.1794,-557.922,0,0
304687.675,67.6022,-556.769,0,0
304948.0,68.0293,-555.669,0,0
305208.325,68.4873,-554.612,0,0
305468.65,68.9226,-553.584,0,0
305728.975,69.3825,-552.614,0,0
305989.3,69.8723,-551.733,0,0
306249.625,70.3459,-550.916,0,0
306509.95,70.7941,-550.193,0,0
306770.275,71.1987,-549.507,0,0
307030.6,71.5705,-548.874,0,0
307290.925,71.8775,-548.265,0,0
307551.25,72.1649,-547.657,0,0
307811.575,72.4381,-547.07,0,0
308071.9,72.7314,-546.497,0,0
308332.225,73.0549,-545.987,0,0
308592.55,73.3394,-545.58,0,0
308852.875,73.5843,-545.244,0,0
309113.2,73.7406,-544.976,0,0
309373.525,73.7744,-544.759,0,0
309633.85,73.6929,-544.528,0,0
309894.175,73.5063,-544.25,0,0
310154.5,73.272,-543.876,0,0
310414.825,73.0405,-543.445,0,0
310675.15,72.7829,-542.979,0,0
310935.475,72.5513,-542.455,0,0
311195.8,72.3199,-541.91,0,0
311456.125,72.1216,-541.349,0,0
311716.45,71.952,-540.806,0,0
311976.775,71.8026,-540.262,0,0
312237.1,71.6597,-539.754,0,0
312497.425,71.495,-539.261,0,0
312757.75,71.3218,-538.801,0,0
313018.075,71.1003,-538.361,0,0
313278.4,70.8566,-537.93,0,0
313538.725,70.5896,-537.498,0,0
313799.05,70.2605,-537.059,0,0
314059.375,69.9045,-536.585,0,0
314319.7,69.5125,-536.097,0,0
314580,69.0368,-535.558,0,0
314840,68.642,-534.961,0,0
315101,68.232,-534.354,0,0
315361,67.8746,-533.754,0,0
315621,67.3975,-533.134,0,0
315882,67.0664,-532.399,0,0
316142,66.567,-531.667,0,0
316402,66.2504,-530.878,0,0
316663,65.9552,-530.036,0,0
316923,65.6561,-529.303,0,0
317183,65.4676,-528.504,0,0
317444,65.2881,-527.69,0,0
317704,65.1361,-527.05,0,0
317964,64.9169,-526.381,0,0
318225,64.7331,-525.627,0,0
318485,64.4668,-524.963,0,0
318745,64.2647,-524.292,0,0
319006,64.07,-523.525,0,0
319266,63.8315,-522.785,0,0
319526,63.6916,-522.03,0,0
319787,63.5932,-521.321,0,0
320047,63.5117,-520.592,0,0
320307,63.5022,-519.85,0,0
320567,63.4703,-519.27,0,0
320828,63.4556,-518.633,0,0
321088,63.4648,-518.153,0,0
321348,63.3987,-517.663,0,0
321609,63.3407,-517.136,0,0
321869,63.222,-516.731,0,0
322129,63.1165,-516.328,0,0
322390,62.918,-515.929,0,0
322650,62.7415,-515.456,0,0
322910,62.52,-515.127,0,0
323171,62.2837,-514.706,0,0
323431,62.0696,-514.393,0,0
323691,61.7041,-514.021,0,0
323952,61.4787,-513.701,0,0
324212,61.0502,-513.371,0,0
324472,60.569,-512.914,0,0
324733,60.1638,-512.525,0,0
324993,59.6366,-512.086,0,0
325253,59.1377,-511.569,0,0
325514,58.5238,-511.042,0,0
325774,58.0118,-510.455,0,0
326034,57.5579,-509.812,0,0
326295,56.9754,-509.123,0,0
326555,56.548,-508.422,0,0
326815,56.1223,-507.747,0,0
327076,55.642,-507.035,0,0
327336,55.2114,-506.342,0,0
327596,54.8034,-505.653,0,0
327857,54.3683,-504.965,0,0
328117,53.9596,-504.249,0,0
328377,53.5542,-503.518,0,0
328638,53.151,-502.774,0,0
328898,52.7536,-502.088,0,0
329158,52.3067,-501.331,0,0
329419,51.9021,-500.592,0,0
329679,51.4544,-499.836,0,0
329939,51.057,-498.953,0,0
330200,50.6666,-498.196,0,0
330460,50.2928,-497.348,0,0
330720.15,49.8834,-496.518,0,0
330980.475,49.5394,-495.625,0,0
331240.8,49.1564,-494.752,0,0
331501.125,48.8624,-493.837,0,0
331761.45,48.5284,-492.992,0,0
332021.775,48.1948,-492.086,0,0
332282.1,47.9118,-491.17,0,0
332542.425,47.6481,-490.279,0,0
332802.75,47.387,-489.274,0,0
333063.075,47.143,-488.365,0,0
333323.4,46.9436,-487.391,0,0
333583.725,46.7875,-486.415,0,0
333844.05,46.5807,-485.43,0,0
334104.375,46.4851,-484.479,0,0
334364.7,46.4259,-483.497,0,0
334625.025,46.3383,-482.479,0,0
334885.35,46.4137,-481.578,0,0
335145.675,46.4675,-480.666,0,0
335406.0,46.557,-479.801,0,0
335666.325,46.6572,-478.996,0,0
335926.65,46.7203,-478.199,0,0
336186.975,46.8512,-477.429,0,0
336447.3,46.9787,-476.743,0,0
336707.625,47.0331,-476.085,0,0
336967.95,47.0999,-475.456,0,0
337228.275,47.1677,-474.842,0,0
337488.6,47.2269,-474.201,0,0
337748.925,47.2285,-473.67,0,0
338009.25,47.2613,-473.095,0,0
338269.575,47.2215,-472.579,0,0
338529.9,47.1879,-472.001,0,0
338790.225,47.1013,-471.544,0,0
339050.55,46.9591,-470.985,0,0
339310.875,46.868,-470.467,0,0
339571.2,46.7133,-469.913,0,0
339831.525,46.5975,-469.345,0,0
340091.85,46.4004,-468.776,0,0
340352.175,46.1418,-468.209,0,0
340612.5,45.9568,-467.61,0,0
340872.825,45.7244,-467.047,0,0
341133.15,45.5286,-466.435,0,0
341393.475,45.2547,-465.774,0,0
341653.8,44.999,-465.15,0,0
341914.125,44.7126,-464.468,0,0
342174.45,44.4696,-463.747,0,0
342434.775,44.2675,-463.014,0,0
342695.1,43.9894,-462.251,0,0
342955.425,43.7865,-461.505,0,0
343215.75,43.5789,-460.705,0,0
343476.075,43.3791,-459.938,0,0
343736.4,43.2213,-459.128,0,0
343996.725,43.0344,-458.326,0,0
344257.05,42.8948,-457.521,0,0
344517.375,42.7265,-456.704,0,0
344777.7,42.5895,-455.836,0,0
345038.025,42.5363,-455.006,0,0
345298.35,42.406,-454.143,0,0
345558.675,42.3207,-453.293,0,0
345819.0,42.2773,-452.488,0,0
346079.325,42.2029,-451.619,0,0
346339.65,42.1917,-450.783,0,0
346599.975,42.169,-449.907,0,0
346860,42.16,-449.075,0,0
347121,42.1647,-448.22,0,0
347381,42.2453,-447.404,0,0
347641,42.2379,-446.563,0,0
347902,42.3071,-445.774,0,0
348162,42.3432,-444.949,0,0
348422,42.4339,-444.134,0,0
348683,42.4813,-443.311,0,0
348943,42.6248,-442.549,0,0
349203,42.6784,-441.666,0,0
349464,42.7903,-440.901,0,0
349724,42.9405,-440.143,0,0
349984,43.083,-439.323,0,0
350245,43.2053,-438.506,0,0
350505,43.3861,-437.715,0,0
350765,43.5694,-436.951,0,0
351025,43.8015,-436.193,0,0
351286,44.0449,-435.389,0,0
351546,44.3091,-434.691,0,0
351806,44.5448,-433.983,0,0
352067,44.8248,-433.284,0,0
352327,45.0887,-432.665,0,0
352587,45.3719,-432.018,0,0
352848,45.6684,-431.384,0,0
353108,45.9042,-430.799,0,0
353368,46.1958,-430.219,0,0
353629,46.503,-429.61,0,0
353889,46.7586,-429.092,0,0
354149,47.0137,-428.553,0,0
354410,47.2672,-428.051,0,0
354670,47.5132,-427.537,0,0
354930,47.777,-427.071,0,0
355191,47.9899,-426.579,0,0
355451,48.2767,-426.098,0,0
355711,48.529,-425.638,0,0
355972,48.6943,-425.202,0,0
356232,48.9152,-424.751,0,0
356492,49.1155,-424.347,0,0
356753,49.3425,-423.909,0,0
357013,49.5064,-423.542,0,0
357273,49.6486,-423.143,0,0
357534,49.8273,-422.698,0,0
357794,49.9402,-422.303,0,0
358054,50.0127,-421.93,0,0
358315,50.208,-421.48,0,0
358575,50.3112,-421.056,0,0
358835,50.4312,-420.637,0,0
359096,50.5554,-420.223,0,0
359356,50.7215,-419.8,0,0
359616,50.818,-419.391,0,0
359877,50.9146,-418.978,0,0
360137,51.0584,-418.57,0,0
360397,51.151,-418.158,0,0
360658,51.2814,-417.722,0,0
360918,51.4182,-417.308,0,0
361178,51.565,-416.906,0,0
361438,51.7057,-416.481,0,0
361699,51.8282,-416.143,0,0
361959,51.9783,-415.779,0,0
362219,52.1226,-415.395,0,0
362480,52.2343,-415.029,0,0
362740.1,52.3333,-414.681,0,0
363000.425,52.4341,-414.335,0,0
363260.75,52.5141,-413.993,0,0
363521.075,52.6203,-413.651,0,0
363781.4,52.6819,-413.317,0,0
364041.725,52.7552,-412.977,0,0
364302.05,52.8228,-412.609,0,0
364562.375,52.8786,-412.252,0,0
364822.7,52.9341,-411.913,0,0
365083.025,53.0111,-411.525,0,0
365343.35,53.056,-411.208,0,0
365603.675,53.1482,-410.905,0,0
365864.0,53.1867,-410.549,0,0
366124.325,53.2014,-410.202,0,0
366384.65,53.2684,-409.867,0,0
366644.975,53.2562,-409.525,0,0
366905.3,53.2923,-409.148,0,0
367165.625,53.293,-408.784,0,0
367425.95,53.33,-408.429,0,0
367686.275,53.3138,-408.072,0,0
367946.6,53.3247,-407.643,0,0
368206.925,53.3105,-407.263,0,0
368467.25,53.3365,-406.809,0,0
368727.575,53.3715,-406.399,0,0
368987.9,53.4116,-406.002,0,0
369248.225,53.4122,-405.524,0,0
369508.55,53.5498,-405.075,0,0
369768.875,53.6256,-404.566,0,0
370029.2,53.7505,-404.126,0,0
370289.525,53.947,-403.713,0,0
370549.85,54.1338,-403.298,0,0
370810.175,54.3409,-402.964,0,0
371070.5,54.5831,-402.623,0,0
371330.825,54.8362,-402.321,0,0
371591.15,55.0085,-402.099,0,0
371851.475,55.2343,-401.896,0,0
372111.8,55.3787,-401.692,0,0
372372.125,55.542,-401.506,0,0
372632.45,55.6398,-401.382,0,0
372892.775,55.7862,-401.222,0,0
373153.1,55.8542,-401.141,0,0
373413.425,55.856,-401.025,0,0
373673.75,55.8991,-400.909,0,0
373934.075,55.8727,-400.803,0,0
374194.4,55.8254,-400.695,0,0
374454.725,55.7404,-400.592,0,0
374715.05,55.62,-400.489,0,0
374975.375,55.466,-400.32,0,0
375235.7,55.2864,-400.147,0,0
375496.025,55.1108,-399.915,0,0
375756.35,54.9223,-399.711,0,0
376016.675,54.7391,-399.428,0,0
376277.0,54.5418,-399.127,0,0
376537.325,54.3307,-398.846,0,0
376797.65,54.207,-398.513,0,0
377057.975,54.1066,-398.139,0,0
377318.3,54.0222,-397.867,0,0
377578.625,53.9288,-397.5,0,0
377838.95,53.8433,-397.26,0,0
378099.275,53.7129,-396.984,0,0
378359.6,53.5812,-396.761,0,0
378619.925,53.4054,-396.533,0,0
378880,53.1632,-396.264,0,0
379141,52.8891,-395.96,0,0
379401,52.6305,-395.585,0,0
379661,52.3627,-395.149,0,0
379922,52.0783,-394.657,0,0
380182,51.9462,-394.122,0,0
380442,51.8455,-393.504,0,0
380703,51.8545,-392.936,0,0
380963,51.9162,-392.444,0,0
381223,52.068,-391.964,0,0
381483,52.2173,-391.621,0,0
381744,52.3545,-391.382,0,0
382004,52.4631,-391.169,0,0
382264,52.5337,-391.037,0,0
382525,52.4879,-390.916,0,0
382785,52.4184,-390.852,0,0
383045,52.2494,-390.774,0,0
383306,52.0389,-390.651,0,0
383566,51.7891,-390.415,0,0
383826,51.5203,-390.278,0,0
384087,51.2337,-390.034,0,0
384347,50.9362,-389.81,0,0
384607,50.6549,-389.548,0,0
384868,50.2728,-389.267,0,0
385128,49.922,-388.991,0,0
385388,49.5695,-388.61,0,0
385649,49.2086,-388.212,0,0
385909,48.7935,-387.805,0,0
386169,48.4506,-387.344,0,0
386430,48.1381,-386.871,0,0
386690,47.821,-386.374,0,0
386950,47.4713,-385.886,0,0
387211,47.1507,-385.325,0,0
387471,46.8325,-384.752,0,0
387731,46.5269,-384.212,0,0
387992,46.3096,-383.601,0,0
388252,46.0276,-382.987,0,0
388512,45.802,-382.329,0,0
388773,45.6142,-381.727,0,0
389033,45.412,-381.07,0,0
389293,45.2658,-380.421,0,0
389554,45.1493,-379.789,0,0
389814,45.0292,-379.171,0,0
390074,44.9751,-378.51,0,0
390335,44.9349,-377.898,0,0
390595,44.8761,-377.317,0,0
390855,44.8147,-376.735,0,0
391116,44.7087,-376.157,0,0
391376,44.6911,-375.584,0,0
391636,44.6283,-375.068,0,0
391896,44.5311,-374.474,0,0
392157,44.4692,-373.933,0,0
392417,44.4154,-373.41,0,0
392677,44.3598,-372.816,0,0
392938,44.283,-372.288,0,0
393198,44.2381,-371.715,0,0
393458,44.1783,-371.147,0,0
393719,44.0881,-370.575,0,0
393979,44.0269,-369.995,0,0
394239,43.9638,-369.409,0,0
394500,43.9386,-368.825,0,0
394760.05,43.9171,-368.233,0,0
395020.375,43.8688,-367.625,0,0
395280.7,43.8437,-366.988,0,0
395541.025,43.8428,-366.4,0,0
395801.35,43.8675,-365.841,0,0
396061.675,43.9004,-365.21,0,0
396322.0,43.909,-364.593,0,0
396582.325,43.9841,-364.007,0,0
396842.65,44.0583,-363.446,0,0
397102.975,44.1406,-362.882,0,0
397363.3,44.2021,-362.331,0,0
397623.625,44.2702,-361.817,0,0
397883.95,44.336,-361.297,0,0
398144.275,44.3796,-360.741,0,0
398404.6,44.4361,-360.251,0,0
398664.925,44.4866,-359.753,0,0
398925.25,44.5606,-359.238,0,0
399185.575,44.5926,-358.737,0,0
399445.9,44.6141,-358.227,0,0
399706.225,44.6725,-357.733,0,0
399966.55,44.7063,-357.254,0,0
400006.6,44.6837,-357.167,0,0