File: Accelerated corrosion test data/2025-10-19_06-00-03/sample_4.csv
Frequency (Hz),Impedance (ohms),Phase (Radians),Temperature (C),Humidity (%)
10000.0,265.377,-11983,0,0
10260.325,261.339,-11683.4,0,0
10520.65,252.532,-11395.4,0,0
10780.975,246.379,-11121.8,0,0
11041.3,241.751,-10860.9,0,0
11301.625,235.863,-10615.9,0,0
11561.95,230.683,-10377.6,0,0
11822.275,225.709,-10150.6,0,0
12082.6,221.263,-9933.42,0,0
12342.925,216.891,-9724.35,0,0
12603.25,214.844,-9523.35,0,0
12863.575,209.45,-9335.36,0,0
13123.9,207.663,-9155.72,0,0
13384.225,201.185,-8974.47,0,0
13644.55,197.3,-8801.08,0,0
13904.875,195.277,-8633.1,0,0
14165.2,198.654,-8468.8,0,0
14425.525,204.77,-8315.14,0,0
14685.8,196.022,-8206.59,0,0
14946.175,183.361,-8049.2,0,0
15206.5,182.209,-7902.29,0,0
15466.825,201.375,-7754.66,0,0
15727.15,191.655,-7657.32,0,0
15987.5,185.898,-7542.94,0,0
16247.8,172.189,-7410.99,0,0
16508.125,196.687,-7287.88,0,0
16768.45,184.001,-7184.61,0,0
17028.775,168.666,-7091.87,0,0
17289.1,161.215,-6977.21,0,0
17549.425,159.967,-6873.7,0,0
17809.75,157.339,-6771.5,0,0
18070.075,153.168,-6671.49,0,0
18330.4,155.884,-6576.64,0,0
18590.725,152.406,-6486.38,0,0
18851.05,150.219,-6400.63,0,0
19111.375,146.401,-6310.44,0,0
19371.7,143.903,-6224.06,0,0
19632.025,142.981,-6139.31,0,0
19892.35,145.279,-6058.45,0,0
20152.675,144.689,-5981.18,0,0
20413.0,141.546,-5906.11,0,0
20673.3,142.89,-5830.52,0,0
20933.65,138.362,-5756.66,0,0
21193.975,141.642,-5680.69,0,0
21454.3,155.37,-5614.56,0,0
21714.625,147.483,-5557.77,0,0
21974.9,154.332,-5490.82,0,0
22235.275,150.705,-5439.9,0,0
22495.6,136.185,-5384.34,0,0
22755.925,128.751,-5318.52,0,0
23016.25,126.035,-5255.76,0,0
23276.6,123.708,-5195.15,0,0
23536.9,121.613,-5137.41,0,0
23797.225,119.749,-5079.7,0,0
24057.55,117.996,-5023.25,0,0
24317.875,117.099,-4968.74,0,0
24578.2,115.476,-4914.46,0,0
24838.525,115.042,-4862,0,0
25098.85,116.056,-4811.43,0,0
25359.175,113.324,-4762.62,0,0
25619.5,113.425,-4713.11,0,0
25879.8,111.31,-4668.47,0,0
26140.1,108.679,-4619.03,0,0
26400.5,107.85,-4571.9,0,0
26660.8,107.768,-4524.86,0,0
26921.1,107.377,-4481.15,0,0
27181.4,106.545,-4435.97,0,0
27441.8,106.639,-4389.72,0,0
27702.1,111.566,-4345.7,0,0
27962.4,117.547,-4305.7,0,0
28222.7,122.708,-4275.66,0,0
28483.1,114.045,-4244.42,0,0
28743.4,111.36,-4200.11,0,0
29003.7,111.417,-4159.66,0,0
29264,117.716,-4123.05,0,0
29524.4,117.164,-4098.22,0,0
29784.7,109.231,-4063.85,0,0
30045,107.248,-4028.27,0,0
30305.3,102.619,-3992.71,0,0
30565.7,101.552,-3956.62,0,0
30826,99.7933,-3922.7,0,0
31086.3,99.0211,-3888.29,0,0
31346.6,100.267,-3854.72,0,0
31607,99.5575,-3823.4,0,0
31867.3,97.8339,-3791.58,0,0
32127.6,101.796,-3761.17,0,0
32387.9,99.2066,-3734.54,0,0
32648.3,98.5751,-3704.81,0,0
32908.6,95.3902,-3677.76,0,0
33168.9,92.7526,-3647.39,0,0
33429.2,90.684,-3618.46,0,0
33689.6,89.3129,-3589.26,0,0
33949.9,88.0801,-3560.59,0,0
34210.2,88.712,-3533.18,0,0
34470.5,86.284,-3506.63,0,0
34730.9,85.5196,-3478.61,0,0
34991.2,85.4949,-3452.24,0,0
35251.5,84.6263,-3426.11,0,0
35511.8,83.7667,-3400.25,0,0
35772.2,83.0908,-3375.2,0,0
36032.5,82.135,-3350,0,0
36292.8,81.4346,-3324.91,0,0
36553.1,81.3399,-3300.23,0,0
36813.5,81.15,-3275.97,0,0
37073.8,81.413,-3253.68,0,0
37334.1,79.9151,-3230.32,0,0
37594.4,79.3179,-3206.68,0,0
37854.8,79.3733,-3184.23,0,0
38115.1,78.4273,-3162.25,0,0
38375.4,77.9362,-3139.4,0,0
38635.7,77.6125,-3116.94,0,0
38896.1,78.0284,-3095.57,0,0
39156.4,77.2405,-3074.2,0,0
39416.7,77.3471,-3053.1,0,0
39677,77.0164,-3031.63,0,0
39937.4,77.6227,-3010.52,0,0
40197.7,79.6418,-2989.7,0,0
40458,81.9689,-2973.1,0,0
40718.3,78.5875,-2953.71,0,0
40978.7,79.5743,-2933.31,0,0
41239,80.8439,-2914.69,0,0
41499.3,82.0554,-2898.39,0,0
41759.6,80.134,-2881.93,0,0
42020,78.0212,-2863.58,0,0
42280.275,77.666,-2843.67,0,0
42540.6,79.7955,-2827.06,0,0
42800.925,77.7557,-2811.83,0,0
43061.25,76.8598,-2793.1,0,0
43321.575,76.5635,-2777.11,0,0
43581.9,74.6483,-2760.24,0,0
43842.225,74.1425,-2742.27,0,0
44102.55,74.1777,-2726.47,0,0
44362.875,72.9377,-2708.97,0,0
44623.2,73.0576,-2692.32,0,0
44883.525,72.4557,-2676.73,0,0
45143.85,71.4304,-2660.21,0,0
45404.175,71.6499,-2643.95,0,0
45664.5,72.2916,-2627.62,0,0
45924.825,72.5177,-2613.16,0,0
46185.15,71.6768,-2598.44,0,0
46445.475,71.3733,-2582.2,0,0
46705.8,71.9837,-2567.9,0,0
46966.125,72.0457,-2553.23,0,0
47226.45,73.0094,-2539.83,0,0
47486.775,71.4272,-2527.22,0,0
47747.1,70.0442,-2512.5,0,0
48007.425,69.6403,-2497.69,0,0
48267.75,69.1699,-2484.1,0,0
48528.075,68.3708,-2470.56,0,0
48788.4,67.3238,-2456.8,0,0
49048.725,66.3765,-2442.28,0,0
49309.05,66.7161,-2428.47,0,0
49569.375,65.6642,-2415.18,0,0
49829.7,65.3143,-2401.32,0,0
50090.025,65.0865,-2387.91,0,0
50350.35,64.7755,-2374.67,0,0
50610.675,64.5054,-2361.43,0,0
50871.0,64.2852,-2348.22,0,0
51131.325,64.1173,-2335.18,0,0
51391.65,64.1084,-2322.17,0,0
51651.975,64.2714,-2309.63,0,0
51912.3,63.927,-2296.6,0,0
52172.625,64.3777,-2283.8,0,0
52432.95,64.3785,-2271.41,0,0
52693.275,64.8316,-2258.26,0,0
52953.6,66.1856,-2245.86,0,0
53213.925,66.7597,-2234.38,0,0
53474.25,67.1962,-2222.39,0,0
53734.575,68.6541,-2209.54,0,0
53994.9,71.3966,-2198.16,0,0
54255.225,73.9297,-2187.92,0,0
54515.55,76.8911,-2180.1,0,0
54775.875,76.3205,-2173.23,0,0
55036.2,74.3557,-2163.6,0,0
55296.525,74.2143,-2154.81,0,0
55556.85,71.6716,-2145.57,0,0
55817.175,70.1087,-2135.17,0,0
56077.5,68.3681,-2124.6,0,0
56337.825,66.9588,-2113.81,0,0
56598.15,65.7906,-2102.26,0,0
56858.475,65.6001,-2090.61,0,0
57118.8,66.0786,-2079.61,0,0
57379.125,66.1196,-2069.42,0,0
57639.45,66.3821,-2059.05,0,0
57899.775,66.0996,-2048.77,0,0
58160.1,66.3328,-2037.96,0,0
58420.4,67.5439,-2027.6,0,0
58680.7,67.7225,-2018.72,0,0
58941.1,67.8693,-2008.16,0,0
59201.4,68.607,-1997.85,0,0
59461.7,70.196,-1987.24,0,0
59722,72.9842,-1978.06,0,0
59982.4,75.0098,-1970.39,0,0
60242.7,76.5577,-1962.63,0,0
60503,77.6514,-1954.94,0,0
60763.3,80.6705,-1948.1,0,0
61023.7,81.273,-1944.81,0,0
61284,78.715,-1940.35,0,0
61544.3,74.2563,-1933.78,0,0
61804.6,71.2744,-1924.34,0,0
62065,69.6504,-1915.09,0,0
62325.3,68.3133,-1906.95,0,0
62585.6,65.8087,-1897.86,0,0
62845.9,64.8248,-1888.13,0,0
63106.3,63.8173,-1878.27,0,0
63366.6,64.2952,-1868.86,0,0
63626.9,64.0681,-1860.44,0,0
63887.2,63.9799,-1852.09,0,0
64147.6,63.0855,-1843,0,0
64407.9,63.4752,-1833.68,0,0
64668.2,64.1506,-1825.33,0,0
64928.5,64.5302,-1817.45,0,0
65188.9,64.236,-1809.42,0,0
65449.2,64.5496,-1800.89,0,0
65709.5,64.7723,-1792.14,0,0
65969.8,66.232,-1783.91,0,0
66230.2,67.1997,-1776.61,0,0
66490.5,68.0611,-1769.68,0,0
66750.8,68.1674,-1762.83,0,0
67011.1,68.2413,-1755.14,0,0
67271.5,69.109,-1747.22,0,0
67531.8,70.4361,-1740.26,0,0
67792.1,71.8393,-1733.58,0,0
68052.4,73.1652,-1727.67,0,0
68312.8,74.0886,-1722.43,0,0
68573.1,74.3092,-1717.27,0,0
68833.4,74.1483,-1712.85,0,0
69093.7,72.5839,-1707.99,0,0
69354.1,70.4377,-1702.38,0,0
69614.4,68.5483,-1695.51,0,0
69874.7,67.0562,-1688.88,0,0
70135,65.602,-1681.57,0,0
70395.4,64.5499,-1674.11,0,0
70655.7,64.4436,-1665.84,0,0
70916,65.4269,-1659.8,0,0
71176.3,64.9443,-1653.62,0,0
71436.7,64.9692,-1647.43,0,0
71697,64.2934,-1642.4,0,0
71957.3,62.3133,-1636.56,0,0
72217.6,60.2701,-1629.5,0,0
72478,59.1639,-1621.89,0,0
72738.3,58.6589,-1614.93,0,0
72998.6,57.5011,-1607.61,0,0
73258.9,57.112,-1599.81,0,0
73519.3,57.2295,-1592.43,0,0
73779.6,57.5474,-1585.3,0,0
74039.9,57.8647,-1578.65,0,0
74300.225,57.8368,-1571.85,0,0
74560.55,58.1991,-1565.05,0,0
74820.875,58.611,-1558.32,0,0
75081.2,59.4855,-1551.74,0,0
75341.525,60.18,-1545.74,0,0
75601.85,60.6145,-1539.73,0,0
75862.175,61.0964,-1533.82,0,0
76122.5,61.6703,-1527.92,0,0
76382.825,62.0292,-1522.43,0,0
76643.15,62.0997,-1516.77,0,0
76903.475,61.9049,-1510.6,0,0
77163.8,63.0687,-1504.04,0,0
77424.125,64.4477,-1498.78,0,0
77684.45,65.5968,-1493.95,0,0
77944.775,66.2038,-1489.62,0,0
78205.1,66.2772,-1485.3,0,0
78465.425,66.195,-1480.94,0,0
78725.75,65.6526,-1476.5,0,0
78986.075,64.7705,-1471.88,0,0
79246.4,63.8221,-1466.72,0,0
79506.725,63.1367,-1461.39,0,0
79767.05,62.5807,-1455.98,0,0
80027.375,62.1638,-1450.56,0,0
80287.7,61.6608,-1445.01,0,0
80548.025,61.4935,-1439.4,0,0
80808.35,61.495,-1433.99,0,0
81068.675,61.6072,-1428.83,0,0
81329.0,61.5654,-1423.79,0,0
81589.325,61.4514,-1418.89,0,0
81849.65,61.2796,-1413.94,0,0
82109.975,61.0124,-1408.95,0,0
82370.3,60.7183,-1403.99,0,0
82630.625,60.5023,-1399.07,0,0
82890.95,60.2112,-1394.17,0,0
83151.275,59.9028,-1389.24,0,0
83411.6,59.6082,-1384.24,0,0
83671.925,59.2759,-1379.28,0,0
83932.25,59.0047,-1374.37,0,0
84192.575,58.7429,-1369.43,0,0
84452.9,58.4526,-1364.49,0,0
84713.225,58.298,-1359.59,0,0
84973.55,58.0436,-1354.75,0,0
85233.875,57.8192,-1349.88,0,0
85494.2,57.5975,-1345.14,0,0
85754.525,57.2602,-1340.28,0,0
86014.85,56.9825,-1335.38,0,0
86275.175,56.8952,-1330.47,0,0
86535.5,56.7697,-1325.83,0,0
86795.825,56.5328,-1321.12,0,0
87056.15,56.2778,-1316.43,0,0
87316.475,56.0016,-1311.75,0,0
87576.8,55.7837,-1307.07,0,0
87837.125,55.4123,-1302.58,0,0
88097.45,54.881,-1297.94,0,0
88357.775,54.3808,-1293,0,0
88618.1,54.1765,-1287.93,0,0
88878.425,54.0577,-1283.17,0,0
89138.75,53.854,-1278.3,0,0
89399.075,53.7785,-1273.32,0,0
89659.4,53.8895,-1268.6,0,0
89919.725,53.904,-1263.96,0,0
90180,53.8805,-1259.41,0,0
90440.4,53.7608,-1254.78,0,0
90700.7,53.8053,-1250.17,0,0
90961,53.6107,-1245.67,0,0
91221.3,53.5787,-1240.83,0,0
91481.7,53.6466,-1236.2,0,0
91742,53.806,-1231.58,0,0
92002.3,54.0119,-1227.01,0,0
92262.6,54.3027,-1222.42,0,0
92523,54.6684,-1218.05,0,0
92783.3,55.0354,-1213.84,0,0
93043.6,55.3679,-1209.68,0,0
93303.9,55.6876,-1205.74,0,0
93564.3,55.8218,-1201.97,0,0
93824.6,55.7225,-1198.26,0,0
94084.9,55.3508,-1194.46,0,0
94345.2,54.792,-1190.42,0,0
94605.6,54.2346,-1186.11,0,0
94865.9,53.8948,-1181.7,0,0
95126.2,53.6504,-1177.25,0,0
95386.5,53.4726,-1172.83,0,0
95646.9,53.3456,-1168.26,0,0
95907.2,53.3244,-1163.85,0,0
96167.5,53.3171,-1159.38,0,0
96427.8,53.4163,-1155.05,0,0
96688.2,53.4813,-1150.82,0,0
96948.5,53.4613,-1146.42,0,0
97208.8,53.5618,-1142,0,0
97469.1,53.7263,-1137.69,0,0
97729.5,53.8482,-1133.4,0,0
97989.8,53.9185,-1129,0,0
98250.1,54.2159,-1124.66,0,0
98510.4,54.5303,-1120.3,0,0
98770.8,54.9346,-1116.01,0,0
99031.1,55.3685,-1111.75,0,0
99291.4,55.9536,-1107.63,0,0
99551.7,56.3378,-1103.76,0,0
99812.1,56.6135,-1099.62,0,0
100072,57.0105,-1095.41,0,0
100333,57.7381,-1091.16,0,0
100593,58.6626,-1087.25,0,0
100853,59.5353,-1083.78,0,0
101114,60.066,-1080.32,0,0
101374,60.812,-1076.95,0,0
101634,61.3614,-1074.17,0,0
101895,61.1185,-1071.46,0,0
102155,60.4345,-1068.37,0,0
102415,59.6565,-1064.78,0,0
102676,58.8932,-1060.94,0,0
102936,58.0273,-1056.77,0,0
103196,57.4406,-1052.2,0,0
103457,57.1588,-1047.44,0,0
103717,57.1887,-1042.64,0,0
103977,57.4476,-1037.96,0,0
104238,57.7202,-1033.33,0,0
104498,58.2269,-1028.45,0,0
104758,59.0065,-1023.73,0,0
105019,59.9562,-1019.19,0,0
105279,60.9345,-1014.74,0,0
105539,62.0827,-1010.33,0,0
105800,63.2847,-1006.11,0,0
106060,64.5821,-1002.02,0,0
106320.175,65.8924,-998.068,0,0
106580.5,67.2221,-994.252,0,0
106840.825,68.4654,-990.516,0,0
107101.15,69.6761,-986.802,0,0
107361.475,70.8855,-983.141,0,0
107621.8,72.057,-979.39,0,0
107882.125,73.3865,-975.626,0,0
108142.45,74.8706,-971.879,0,0
108402.775,76.5214,-968.264,0,0
108663.1,78.1362,-964.841,0,0
108923.425,79.8761,-961.485,0,0
109183.75,81.6935,-958.251,0,0
109444.075,83.5986,-955.394,0,0
109704.4,85.2843,-952.813,0,0
109964.725,86.7087,-950.118,0,0
110225.05,88.2809,-947.487,0,0
110485.375,89.7987,-944.987,0,0
110745.7,91.1614,-942.568,0,0
111006.025,92.4026,-940.276,0,0
111266.35,93.5776,-937.828,0,0
111526.675,94.7697,-935.336,0,0
111787.0,95.9378,-932.883,0,0
112047.325,97.248,-930.575,0,0
112307.65,98.3976,-928.315,0,0
112567.975,99.608,-926.172,0,0
112828.3,100.88,-924.004,0,0
113088.625,101.983,-922.006,0,0
113348.95,103.06,-920.067,0,0
113609.275,104.022,-918.188,0,0
113869.6,104.961,-916.343,0,0
114129.925,105.737,-914.427,0,0
114390.25,106.58,-912.625,0,0
114650.575,107.457,-910.849,0,0
114910.9,108.292,-909.153,0,0
115171.225,108.836,-907.67,0,0
115431.55,109.223,-906.131,0,0
115691.875,109.511,-904.465,0,0
115952.2,109.806,-902.757,0,0
116212.525,110.065,-901.102,0,0
116472.85,110.267,-899.413,0,0
116733.175,110.293,-897.675,0,0
116993.5,110.298,-895.869,0,0
117253.825,110.178,-894.004,0,0
117514.15,110.12,-891.931,0,0
117774.475,110.016,-889.825,0,0
118034.8,110.041,-887.557,0,0
118295.125,110.115,-885.315,0,0
118555.45,110.195,-883.003,0,0
118815.775,110.247,-880.49,0,0
119076.1,110.717,-877.669,0,0
119336.425,111.796,-875.069,0,0
119596.75,113.115,-872.877,0,0
119857.075,114.858,-870.915,0,0
120117.4,117.023,-870.343,0,0
120377.725,117.909,-870.81,0,0
120638.05,117.849,-871.186,0,0
120898.375,116.845,-871.425,0,0
121158.7,115.227,-870.956,0,0
121419.025,113.488,-869.843,0,0
121679.35,111.781,-868.235,0,0
121939.675,110.197,-866.263,0,0
122200.0,108.789,-864.085,0,0
122460,107.582,-861.653,0,0
122721,106.549,-859.22,0,0
122981,105.62,-856.757,0,0
123241,104.731,-854.2,0,0
123502,103.993,-851.58,0,0
123762,103.344,-849.008,0,0
124022,102.764,-846.396,0,0
124283,102.262,-843.818,0,0
124543,101.795,-841.195,0,0
124803,101.382,-838.521,0,0
125064,101.252,-835.887,0,0
125324,101.196,-833.366,0,0
125584,101.21,-831.034,0,0
125845,101.213,-828.959,0,0
126105,101.107,-826.99,0,0
126365,100.87,-825.209,0,0
126626,100.395,-823.442,0,0
126886,99.7814,-821.686,0,0
127146,99.0326,-819.792,0,0
127406,98.3384,-817.772,0,0
127667,97.7555,-815.92,0,0
127927,96.8824,-814.302,0,0
128187,95.6335,-812.609,0,0
128448,94.2367,-810.692,0,0
128708,92.7337,-808.718,0,0
128968,90.9599,-806.619,0,0
129229,88.9653,-804.157,0,0
129489,87.002,-801.227,0,0
129749,85.2257,-798.071,0,0
130010,83.6285,-794.721,0,0
130270,82.2488,-791.253,0,0
130530,80.9157,-787.806,0,0
130791,79.6046,-784.234,0,0
131051,78.4682,-780.507,0,0
131311,77.5121,-776.734,0,0
131572,76.6537,-772.984,0,0
131832,75.8446,-769.213,0,0
132092,75.1032,-765.403,0,0
132353,74.5038,-761.53,0,0
132613,73.9915,-757.679,0,0
132873,73.5787,-753.823,0,0
133134,73.2191,-749.977,0,0
133394,72.9075,-746.135,0,0
133654,72.6636,-742.257,0,0
133915,72.4954,-738.387,0,0
134175,72.4501,-734.555,0,0
134435,72.3716,-730.736,0,0
134696,72.3469,-726.869,0,0
134956,72.4264,-722.989,0,0
135216,72.5897,-719.121,0,0
135477,72.8444,-715.329,0,0
135737,73.0941,-711.591,0,0
135997,73.3726,-707.892,0,0
136258,73.6445,-704.163,0,0
136518,73.9958,-700.397,0,0
136778,74.4754,-696.66,0,0
137039,74.9984,-693.074,0,0
137299,75.4222,-689.63,0,0
137559,75.7032,-686.129,0,0
137819,75.9505,-682.565,0,0
138080,76.2291,-678.861,0,0
138340.125,76.5677,-675.112,0,0
138600.45,76.9637,-671.335,0,0
138860.775,77.3984,-667.518,0,0
139121.1,77.908,-663.634,0,0
139381.425,78.5562,-659.736,0,0
139641.75,79.2079,-655.89,0,0
139902.075,79.893,-652.037,0,0
140162.4,80.6353,-648.113,0,0
140422.725,81.5017,-644.177,0,0
140683.05,82.4703,-640.272,0,0
140943.375,83.5161,-636.417,0,0
141203.7,84.6334,-632.588,0,0
141464.025,85.7991,-628.836,0,0
141724.35,87.0273,-625.121,0,0
141984.675,88.2555,-621.499,0,0
142245.0,89.4615,-617.913,0,0
142505.325,90.6385,-614.314,0,0
142765.65,91.8607,-610.679,0,0
143025.975,93.1504,-607.114,0,0
143286.3,94.4992,-603.493,0,0
143546.625,95.8212,-600.011,0,0
143806.95,97.1009,-596.492,0,0
144067.275,98.4486,-592.953,0,0
144327.6,99.7489,-589.448,0,0
144587.925,101.066,-585.926,0,0
144848.25,102.306,-582.371,0,0
145108.575,103.608,-578.697,0,0
145368.9,105.03,-575.018,0,0
145629.225,106.487,-571.3,0,0
145889.55,107.977,-567.539,0,0
146149.875,109.603,-563.745,0,0
146410.2,111.283,-559.947,0,0
146670.525,113.059,-556.148,0,0
146930.85,114.929,-552.392,0,0
147191.175,116.821,-548.658,0,0
147451.5,118.789,-544.867,0,0
147711.825,120.857,-541.137,0,0
147972.15,122.946,-537.452,0,0
148232.475,125.121,-533.725,0,0
148492.8,127.391,-530.019,0,0
148753.125,129.674,-526.336,0,0
149013.45,132.079,-522.662,0,0
149273.775,134.474,-519.086,0,0
149534.1,136.796,-515.418,0,0
149794.425,139.199,-511.578,0,0
150054.75,141.832,-507.615,0,0
150315.075,144.734,-503.639,0,0
150575.4,147.896,-499.732,0,0
150835.725,151.245,-496.029,0,0
151096.05,154.597,-492.474,0,0
151356.375,158.086,-488.857,0,0
151616.7,161.754,-485.327,0,0
151877.025,165.593,-481.857,0,0
152137.35,169.691,-478.457,0,0
152397.675,174.093,-475.327,0,0
152658.0,178.581,-472.531,0,0
152918.325,183.148,-469.98,0,0
153178.65,187.726,-467.685,0,0
153438.975,192.382,-465.568,0,0
153699.3,197.161,-463.86,0,0
153959.625,201.74,-462.588,0,0
154219.95,206.024,-461.481,0,0
154480,210.187,-460.494,0,0
154741,214.146,-459.734,0,0
155001,217.711,-458.779,0,0
155261,221.41,-457.581,0,0
155522,225.434,-456.405,0,0
155782,229.655,-455.735,0,0
156042,233.484,-455.554,0,0
156303,236.892,-455.438,0,0
156563,239.953,-455.005,0,0
156823,243.218,-454.354,0,0
157084,246.664,-453.93,0,0
157344,249.765,-453.827,0,0
157604,252.581,-453.413,0,0
157864,255.248,-452.672,0,0
158125,258.299,-451.808,0,0
158385,261.497,-450.937,0,0
158645,265.287,-450.164,0,0
158906,268.968,-449.823,0,0
159166,272.421,-449.834,0,0
159426,275.885,-449.786,0,0
159687,279.356,-449.888,0,0
159947,282.637,-450.176,0,0
160207,285.925,-450.507,0,0
160468,289.513,-451.091,0,0
160728,292.729,-452.202,0,0
160988,295.547,-453.467,0,0
161249,297.943,-454.654,0,0
161509,300.088,-455.817,0,0
161769,302.179,-456.871,0,0
162030,304.03,-457.958,0,0
162290,305.717,-459.096,0,0
162550,307.075,-460.393,0,0
162811,307.834,-461.52,0,0
163071,308.345,-462.203,0,0
163331,308.515,-462.39,0,0
163592,308.599,-462.026,0,0
163852,308.95,-461.203,0,0
164112,309.436,-460.004,0,0
164373,310.238,-458.292,0,0
164633,311.543,-456.554,0,0
164893,313.05,-454.835,0,0
165154,314.452,-452.823,0,0
165414,316.317,-450.264,0,0
165674,318.98,-447.524,0,0
165935,322.208,-444.926,0,0
166195,326.161,-442.454,0,0
166455,330.516,-440.546,0,0
166716,335.271,-438.751,0,0
166976,340.676,-437.404,0,0
167236,346.404,-436.756,0,0
167497,352.2,-436.69,0,0
167757,358.271,-437.297,0,0
168017,364.375,-438.797,0,0
168277,369.846,-440.843,0,0
168538,375.207,-443.016,0,0
168798,380.706,-445.361,0,0
169058,386.519,-448.255,0,0
169319,392.368,-452.332,0,0
169579,397.632,-457.204,0,0
169839,402.401,-462.606,0,0
170100,406.852,-468.732,0,0
170360.075,410.527,-475.711,0,0
170620.4,413.119,-483.295,0,0
170880.725,414.485,-491.152,0,0
171141.05,414.798,-498.816,0,0
171401.375,414.438,-506.351,0,0
171661.7,413.261,-513.927,0,0
171922.025,410.944,-521.522,0,0
172182.35,407.541,-528.594,0,0
172442.675,403.307,-535.096,0,0
172703.0,398.127,-540.898,0,0
172963.325,392.362,-545.64,0,0
173223.65,386.415,-549.563,0,0
173483.975,380.082,-552.881,0,0
173744.3,373.379,-555.312,0,0
174004.625,366.573,-556.712,0,0
174264.95,359.944,-557.249,0,0
174525.275,353.639,-557.064,0,0
174785.6,347.631,-556.642,0,0
175045.925,341.373,-555.853,0,0
175306.25,334.944,-554.233,0,0
175566.575,328.725,-551.642,0,0
175826.9,323.084,-548.279,0,0
176087.225,317.979,-544.384,0,0
176347.55,313.516,-540.019,0,0
176607.875,309.718,-535.366,0,0
176868.2,306.498,-530.608,0,0
177128.525,303.842,-525.83,0,0
177388.85,301.582,-521.041,0,0
177649.175,299.73,-516.286,0,0
177909.5,298.174,-511.651,0,0
178169.825,296.814,-506.971,0,0
178430.15,295.732,-502.247,0,0
178690.475,294.959,-497.496,0,0
178950.8,294.499,-492.752,0,0
179211.125,294.378,-488.007,0,0
179471.45,294.643,-483.36,0,0
179731.775,295.227,-479.02,0,0
179992.1,295.914,-474.935,0,0
180252.425,296.708,-471.006,0,0
180512.75,297.58,-467.311,0,0
180773.075,298.42,-463.774,0,0
181033.4,299.259,-460.257,0,0
181293.725,300.123,-456.788,0,0
181554.05,301.055,-453.409,0,0
181814.375,302.027,-450.131,0,0
182074.7,302.903,-446.975,0,0
182335.025,303.763,-443.817,0,0
182595.35,304.538,-440.725,0,0
182855.675,305.165,-437.6,0,0
183116.0,305.674,-434.286,0,0
183376.325,306.275,-430.777,0,0
183636.65,306.927,-427.196,0,0
183896.975,307.623,-423.486,0,0
184157.3,308.389,-419.657,0,0
184417.625,309.308,-415.7,0,0
184677.95,310.333,-411.698,0,0
184938.275,311.465,-407.629,0,0
185198.6,312.748,-403.509,0,0
185458.925,314.141,-399.396,0,0
185719.25,315.578,-395.262,0,0
185979.575,317.069,-391.115,0,0
186239.9,318.547,-386.864,0,0
186500,320.066,-382.446,0,0
186761,321.772,-378.048,0,0
187021,323.517,-373.506,0,0
187281,325.197,-368.754,0,0
187542,327.186,-363.809,0,0
187802,329.272,-358.729,0,0
188062,331.54,-353.475,0,0
188322,334.06,-348.208,0,0
188583,336.825,-342.781,0,0
188843,339.713,-337.253,0,0
189103,342.875,-331.71,0,0
189364,346.221,-325.909,0,0
189624,349.883,-320.05,0,0
189884,353.831,-314.125,0,0
190145,357.995,-308.066,0,0
190405,362.568,-301.959,0,0
190665,367.442,-295.886,0,0
190926,372.583,-289.817,0,0
191186,377.996,-283.588,0,0
191446,383.931,-277.262,0,0
191707,390.126,-271.038,0,0
191967,396.815,-264.902,0,0
192227,403.974,-258.774,0,0
192488,411.416,-252.85,0,0
192748,419.23,-246.982,0,0
193008,427.513,-241.394,0,0
193269,436.064,-235.873,0,0
193529,444.923,-230.503,0,0
193789,454.221,-225.284,0,0
194050,464.01,-220.357,0,0
194310,473.92,-215.634,0,0
194570,484.071,-211.134,0,0
194831,494.641,-206.707,0,0
195091,505.54,-202.441,0,0
195351,516.826,-198.249,0,0
195612,528.535,-194.213,0,0
195872,540.813,-190.375,0,0
196132,553.562,-186.869,0,0
196393,566.887,-183.574,0,0
196653,580.67,-180.65,0,0
196913,594.999,-178.013,0,0
197174,609.917,-175.768,0,0
197434,625.45,-173.961,0,0
197694,641.65,-172.616,0,0
197955,658.494,-171.852,0,0
198215,675.983,-171.642,0,0
198475,694.345,-172.002,0,0
198735,713.775,-173.222,0,0
198996,734.254,-175.719,0,0
199256,755.484,-179.976,0,0
199516,777.044,-186.041,0,0
199777,798.602,-193.816,0,0
200037,819.968,-203.098,0,0
200297,841.221,-214.039,0,0
200558,862.289,-226.803,0,0
200818,882.573,-241.232,0,0
201078,902.099,-257.138,0,0
201339,920.883,-274.584,0,0
201599,938.59,-293.786,0,0
201859,954.525,-314.224,0,0
202120,969.151,-335.421,0,0
202380.025,982.66,-357.292,0,0
202640.35,994.383,-379.863,0,0
202900.675,1005.01,-402.545,0,0
203161.0,1015.23,-425.771,0,0
203421.325,1024.9,-450.429,0,0
203681.65,1032.67,-476.814,0,0
203941.975,1037.69,-504.031,0,0
204202.3,1040.08,-530.62,0,0
204462.625,1040.97,-556.358,0,0
204722.95,1041.05,-581.458,0,0
204983.275,1040.02,-606.864,0,0
205243.6,1037.81,-632.055,0,0
205503.925,1034.2,-657.203,0,0
205764.25,1028.98,-682.146,0,0
206024.575,1022.29,-706.351,0,0
206284.9,1014.69,-730.156,0,0
206545.225,1005.83,-753.754,0,0
206805.55,995.055,-776.771,0,0
207065.875,982.764,-799.142,0,0
207326.2,969.034,-820.001,0,0
207586.525,954.164,-839.839,0,0
207846.85,938.113,-858.198,0,0
208107.175,921.265,-874.986,0,0
208367.5,903.722,-890.404,0,0
208627.825,885.29,-904.38,0,0
208888.15,866.374,-916.485,0,0
209148.475,847.285,-926.579,0,0
209408.8,828.452,-934.948,0,0
209669.125,810.25,-941.58,0,0
209929.45,792.672,-947.329,0,0
210189.775,775.923,-951.87,0,0
210450.1,759.489,-955.842,0,0
210710.425,743.37,-958.984,0,0
210970.75,727.748,-960.929,0,0
211231.075,713.033,-961.982,0,0
211491.4,699.315,-962.763,0,0
211751.725,686.064,-963.401,0,0
212012.05,673.067,-963.568,0,0
212272.375,660.476,-963.311,0,0
212532.7,648.483,-962.644,0,0
212793.025,636.821,-961.774,0,0
213053.35,625.406,-960.364,0,0
213313.675,614.369,-958.191,0,0
213574.0,604.139,-955.466,0,0
213834.325,594.712,-952.213,0,0
214094.65,586.577,-948.552,0,0
214354.975,579.713,-945.224,0,0
214615.3,573.797,-942.685,0,0
214875.625,568.131,-940.735,0,0
215135.95,562.73,-939.487,0,0
215396.275,557.417,-938.64,0,0
215656.6,551.981,-938.392,0,0
215916.925,546.302,-938.351,0,0
216177.25,540.25,-938.408,0,0
216437.575,534.069,-938.214,0,0
216697.9,527.935,-937.933,0,0
216958.225,521.923,-937.537,0,0
217218.55,515.91,-937.26,0,0
217478.875,509.877,-936.95,0,0
217739.2,503.686,-936.481,0,0
217999.525,497.608,-935.873,0,0
218259.85,491.592,-935.075,0,0
218520,485.774,-934.155,0,0
218780,480.245,-933.325,0,0
219041,474.822,-932.686,0,0
219301,469.13,-932.017,0,0
219561,463.38,-931.317,0,0
219822,457.655,-930.433,0,0
220082,451.706,-929.49,0,0
220342,445.867,-928.345,0,0
220603,439.953,-926.782,0,0
220863,434.292,-925.029,0,0
221123,428.855,-922.962,0,0
221384,423.68,-920.842,0,0
221644,418.836,-918.655,0,0
221904,414.193,-916.52,0,0
222165,409.723,-914.398,0,0
222425,405.428,-912.262,0,0
222685,401.198,-910.02,0,0
222946,397.384,-907.777,0,0
223206,393.709,-905.525,0,0
223466,390.439,-903.381,0,0
223727,387.578,-901.47,0,0
223987,384.822,-900.135,0,0
224247,381.939,-899.121,0,0
224508,378.901,-898.346,0,0
224768,375.714,-897.71,0,0
225028,372.125,-897.162,0,0
225289,368.595,-896.643,0,0
225549,364.963,-895.946,0,0
225809,361.254,-895.372,0,0
226070,357.508,-894.904,0,0
226330,353.534,-894.435,0,0
226590,349.455,-893.897,0,0
226851,345.206,-893.283,0,0
227111,340.842,-892.679,0,0
227371,336.278,-891.952,0,0
227632,331.573,-891.003,0,0
227892,326.725,-889.861,0,0
228152,321.831,-888.532,0,0
228413,316.921,-886.868,0,0
228673,312.044,-884.954,0,0
228933,307.327,-882.809,0,0
229193,302.73,-880.44,0,0
229454,298.328,-878.1,0,0
229714,293.97,-875.551,0,0
229974,289.929,-872.929,0,0
230235,285.954,-870.288,0,0
230495,281.9,-867.695,0,0
230755,277.838,-864.888,0,0
231016,273.897,-861.807,0,0
231276,270.166,-858.615,0,0
231536,266.762,-855.337,0,0
231797,263.611,-852.059,0,0
232057,260.646,-848.93,0,0
232317,257.767,-845.941,0,0
232578,254.834,-843.06,0,0
232838,251.945,-840.136,0,0
233098,248.98,-837.259,0,0
233359,245.947,-834.148,0,0
233619,243.052,-830.849,0,0
233879,240.462,-827.42,0,0
234140,238.149,-824.05,0,0
234400,235.998,-820.949,0,0
234660.3,233.763,-817.853,0,0
234920.625,231.599,-814.707,0,0
235180.95,229.575,-811.625,0,0
235441.275,227.562,-808.628,0,0
235701.6,225.536,-805.726,0,0
235961.925,223.57,-802.749,0,0
236222.25,221.571,-799.78,0,0
236482.575,219.576,-796.776,0,0
236742.9,217.581,-793.717,0,0
237003.225,215.598,-790.503,0,0
237263.55,213.8,-787.165,0,0
237523.875,212.237,-783.768,0,0
237784.2,210.834,-780.423,0,0
238044.525,209.6,-777.168,0,0
238304.85,208.442,-773.991,0,0
238565.175,207.359,-770.906,0,0
238825.5,206.345,-767.802,0,0
239085.825,205.443,-764.728,0,0
239346.15,204.565,-761.763,0,0
239606.475,203.756,-758.78,0,0
239866.8,203.075,-755.857,0,0
240127.125,202.5,-753.042,0,0
240387.45,202.004,-750.275,0,0
240647.775,201.526,-747.562,0,0
240908.1,201.115,-744.96,0,0
241168.425,200.766,-742.455,0,0
241428.75,200.374,-740.052,0,0
241689.075,200.078,-737.733,0,0
241949.4,199.86,-735.484,0,0
242209.725,199.567,-733.371,0,0
242470.05,199.287,-731.25,0,0
242730.375,199.109,-729.245,0,0
242990.7,198.877,-727.459,0,0
243251.025,198.542,-725.745,0,0
243511.35,198.181,-724.126,0,0
243771.675,197.662,-722.632,0,0
244032.0,197.085,-721.096,0,0
244292.325,196.303,-719.627,0,0
244552.65,195.458,-718.136,0,0
244812.975,194.558,-716.553,0,0
245073.3,193.52,-714.909,0,0
245333.625,192.446,-713.129,0,0
245593.95,191.406,-711.344,0,0
245854.275,190.364,-709.455,0,0
246114.6,189.216,-707.506,0,0
246374.925,188.069,-705.504,0,0
246635.25,187.013,-703.4,0,0
246895.575,185.929,-701.135,0,0
247155.9,184.998,-698.826,0,0
247416.225,184.133,-696.582,0,0
247676.55,183.257,-694.229,0,0
247936.875,182.404,-691.803,0,0
248197.2,181.623,-689.333,0,0
248457.525,180.968,-686.816,0,0
248717.85,180.437,-684.268,0,0
248978.175,180.042,-681.725,0,0
249238.5,179.713,-679.181,0,0
249498.825,179.507,-676.673,0,0
249759.15,179.417,-674.219,0,0
250019.475,179.49,-671.862,0,0
250279.8,179.549,-669.782,0,0
250540,179.614,-667.729,0,0
250800,179.62,-665.86,0,0
251061,179.533,-664.034,0,0
251321,179.321,-662.265,0,0
251581,178.997,-660.499,0,0
251842,178.549,-658.657,0,0
252102,177.99,-656.72,0,0
252362,177.469,-654.636,0,0
252623,176.966,-652.445,0,0
252883,176.523,-650.181,0,0
253143,176.148,-647.86,0,0
253404,175.878,-645.528,0,0
253664,175.664,-643.197,0,0
253924,175.467,-640.938,0,0
254185,175.204,-638.75,0,0
254445,174.79,-636.577,0,0
254705,174.271,-634.193,0,0
254966,173.743,-631.601,0,0
255226,173.265,-628.774,0,0
255486,172.945,-625.8,0,0
255747,172.729,-622.729,0,0
256007,172.628,-619.485,0,0
256267,172.71,-616.196,0,0
256528,172.955,-612.787,0,0
256788,173.363,-609.309,0,0
257048,173.951,-605.769,0,0
257309,174.736,-602.159,0,0
257569,175.796,-598.519,0,0
257829,177.067,-594.86,0,0
258090,178.586,-591.298,0,0
258350,180.273,-587.749,0,0
258610,182.203,-584.236,0,0
258871,184.439,-580.821,0,0
259131,186.848,-577.603,0,0
259391,189.325,-574.512,0,0
259651,191.935,-571.527,0,0
259912,194.689,-568.519,0,0
260172,197.706,-565.604,0,0
260432,200.966,-562.868,0,0
260693,204.428,-560.234,0,0
260953,208.1,-557.89,0,0
261213,211.906,-555.775,0,0
261474,215.795,-553.837,0,0
261734,219.862,-552.053,0,0
261994,224.115,-550.456,0,0
262255,228.613,-549.162,0,0
262515,233.355,-548.232,0,0
262775,238.232,-547.776,0,0
263036,243.077,-547.889,0,0
263296,247.695,-548.488,0,0
263556,251.989,-549.4,0,0
263817,256.078,-550.436,0,0
264077,260.014,-551.595,0,0
264337,263.823,-552.944,0,0
264598,267.487,-554.446,0,0
264858,270.984,-556.052,0,0
265118,274.429,-557.693,0,0
265379,277.851,-559.486,0,0
265639,281.105,-561.409,0,0
265899,284.356,-563.306,0,0
266160,287.783,-565.221,0,0
266420,291.422,-567.437,0,0
266680.25,295.164,-570.134,0,0
266940.575,298.85,-573.309,0,0
267200.9,302.404,-577.034,0,0
267461.225,305.626,-581.305,0,0
267721.55,308.418,-586.065,0,0
267981.875,310.605,-591.175,0,0
268242.2,312.109,-596.563,0,0
268502.525,312.918,-601.95,0,0
268762.85,313.061,-607.169,0,0
269023.175,312.799,-612.204,0,0
269283.5,312.054,-617.038,0,0
269543.825,310.966,-621.582,0,0
269804.15,309.52,-625.774,0,0
270064.475,307.928,-629.661,0,0
270324.8,306.166,-633.248,0,0
270585.125,304.466,-636.5,0,0
270845.45,302.743,-639.648,0,0
271105.775,301.063,-642.755,0,0
271366.1,299.189,-645.832,0,0
271626.425,297.275,-648.829,0,0
271886.75,295.088,-651.77,0,0
272147.075,292.748,-654.513,0,0
272407.4,290.329,-657.072,0,0
272667.725,287.76,-659.456,0,0
272928.05,285.185,-661.61,0,0
273188.375,282.606,-663.555,0,0
273448.7,280.218,-665.406,0,0
273709.025,277.966,-667.369,0,0
273969.35,275.622,-669.476,0,0
274229.675,272.992,-671.709,0,0
274490.0,270.062,-673.971,0,0
274750.325,266.958,-676.044,0,0
275010.65,263.414,-677.982,0,0
275270.975,259.692,-679.672,0,0
275531.3,255.834,-681.069,0,0
275791.625,251.793,-682.211,0,0
276051.95,247.584,-683.033,0,0
276312.275,243.279,-683.535,0,0
276572.6,238.903,-683.649,0,0
276832.925,234.513,-683.429,0,0
277093.25,230.078,-682.788,0,0
277353.575,225.737,-681.66,0,0
277613.9,221.584,-680.049,0,0
277874.225,217.729,-678.076,0,0
278134.55,214.255,-675.707,0,0
278394.875,211.194,-673.078,0,0
278655.2,208.611,-670.329,0,0
278915.525,206.481,-667.521,0,0
279175.85,204.785,-664.742,0,0
279436.175,203.533,-662.121,0,0
279696.5,202.573,-659.758,0,0
279956.825,201.878,-657.686,0,0
280217.15,201.21,-655.985,0,0
280477.475,200.413,-654.451,0,0
280737.8,199.511,-652.905,0,0
280998.125,198.525,-651.313,0,0
281258.45,197.649,-649.556,0,0
281518.775,196.928,-647.629,0,0
281779.1,196.61,-645.708,0,0
282039.425,196.611,-643.988,0,0
282299.75,196.77,-642.56,0,0
282560,197.004,-641.368,0,0
282820,197.263,-640.392,0,0
283081,197.565,-639.665,0,0
283341,197.807,-639.198,0,0
283601,197.936,-638.931,0,0
283862,197.933,-638.826,0,0
284122,197.833,-638.891,0,0
284382,197.624,-639.133,0,0
284643,197.089,-639.533,0,0
284903,196.266,-639.95,0,0
285163,195.208,-640.284,0,0
285424,193.902,-640.531,0,0
285684,192.421,-640.645,0,0
285944,190.739,-640.573,0,0
286205,188.942,-640.286,0,0
286465,187.11,-639.81,0,0
286725,185.224,-639.128,0,0
286986,183.316,-638.277,0,0
287246,181.363,-637.161,0,0
287506,179.5,-635.823,0,0
287767,177.657,-634.22,0,0
288027,175.977,-632.362,0,0
288287,174.498,-630.273,0,0
288548,173.287,-628.018,0,0
288808,172.295,-625.666,0,0
289068,171.602,-623.269,0,0
289329,171.129,-620.853,0,0
289589,170.86,-618.424,0,0
289849,170.81,-615.994,0,0
290109,171.004,-613.514,0,0
290370,171.495,-611.053,0,0
290630,172.284,-608.711,0,0
290890,173.338,-606.492,0,0
291151,174.658,-604.385,0,0
291411,176.291,-602.501,0,0
291671,178.176,-600.876,0,0
291932,180.291,-599.619,0,0
292192,182.565,-598.72,0,0
292452,184.852,-598.279,0,0
292713,187.103,-598.242,0,0
292973,189.241,-598.494,0,0
293233,191.308,-599.035,0,0
293494,193.281,-599.873,0,0
293754,195.14,-601.043,0,0
294014,196.878,-602.528,0,0
294275,198.356,-604.39,0,0
294535,199.443,-606.555,0,0
294795,200.07,-608.912,0,0
295056,200.258,-611.349,0,0
295316,200.05,-613.701,0,0
295576,199.498,-616.005,0,0
295837,198.628,-618.174,0,0
296097,197.47,-620.176,0,0
296357,196.07,-621.994,0,0
296618,194.487,-623.593,0,0
296878,192.796,-624.955,0,0
297138,191.022,-626.122,0,0
297399,189.211,-627.107,0,0
297659,187.341,-627.947,0,0
297919,185.445,-628.569,0,0
298180,183.621,-629.06,0,0
298440,181.824,-629.452,0,0
298700.2,180.055,-629.797,0,0
298960.525,178.269,-630.092,0,0
299220.85,176.465,-630.331,0,0
299481.175,174.607,-630.497,0,0
299741.5,172.714,-630.538,0,0
300001.825,170.855,-630.483,0,0
300262.15,168.995,-630.314,0,0
300522.475,167.166,-630.079,0,0
300782.8,165.344,-629.768,0,0
301043.125,163.53,-629.36,0,0
301303.45,161.773,-628.857,0,0
301563.775,160.069,-628.277,0,0
301824.1,158.456,-627.636,0,0
302084.425,156.908,-626.964,0,0
302344.75,155.431,-626.291,0,0
302605.075,154.013,-625.642,0,0
302865.4,152.586,-625.042,0,0
303125.725,151.099,-624.419,0,0
303386.05,149.59,-623.763,0,0
303646.375,148.08,-622.999,0,0
303906.7,146.578,-622.179,0,0
304167.025,145.121,-621.289,0,0
304427.35,143.71,-620.358,0,0
304687.675,142.349,-619.375,0,0
304948.0,141.01,-618.371,0,0
305208.325,139.713,-617.324,0,0
305468.65,138.451,-616.27,0,0
305728.975,137.249,-615.152,0,0
305989.3,136.095,-614.01,0,0
306249.625,134.995,-612.839,0,0
306509.95,133.956,-611.604,0,0
306770.275,132.991,-610.373,0,0
307030.6,132.117,-609.154,0,0
307290.925,131.326,-607.964,0,0
307551.25,130.588,-606.814,0,0
307811.575,129.882,-605.681,0,0
308071.9,129.225,-604.593,0,0
308332.225,128.608,-603.554,0,0
308592.55,128.005,-602.599,0,0
308852.875,127.367,-601.69,0,0
309113.2,126.716,-600.807,0,0
309373.525,125.995,-599.938,0,0
309633.85,125.257,-599.058,0,0
309894.175,124.496,-598.164,0,0
310154.5,123.704,-597.197,0,0
310414.825,122.927,-596.19,0,0
310675.15,122.194,-595.133,0,0
310935.475,121.516,-594.04,0,0
311195.8,120.881,-592.975,0,0
311456.125,120.289,-591.896,0,0
311716.45,119.701,-590.837,0,0
311976.775,119.153,-589.769,0,0
312237.1,118.629,-588.702,0,0
312497.425,118.112,-587.62,0,0
312757.75,117.66,-586.521,0,0
313018.075,117.237,-585.438,0,0
313278.4,116.909,-584.366,0,0
313538.725,116.602,-583.332,0,0
313799.05,116.315,-582.329,0,0
314059.375,116.07,-581.379,0,0
314319.7,115.833,-580.455,0,0
314580,115.599,-579.632,0,0
314840,115.388,-578.775,0,0
315101,115.139,-577.987,0,0
315361,114.9,-577.177,0,0
315621,114.656,-576.334,0,0
315882,114.399,-575.529,0,0
316142,114.068,-574.79,0,0
316402,113.922,-574.099,0,0
316663,113.777,-573.203,0,0
316923,113.535,-572.655,0,0
317183,113.337,-571.951,0,0
317444,113.248,-571.234,0,0
317704,113.06,-570.515,0,0
317964,112.903,-569.95,0,0
318225,112.94,-569.374,0,0
318485,112.845,-568.85,0,0
318745,112.763,-568.452,0,0
319006,112.669,-568.123,0,0
319266,112.638,-567.914,0,0
319526,112.419,-567.742,0,0
319787,112.182,-567.607,0,0
320047,111.875,-567.578,0,0
320307,111.448,-567.553,0,0
320567,110.987,-567.438,0,0
320828,110.302,-567.552,0,0
321088,109.694,-567.583,0,0
321348,108.812,-567.626,0,0
321609,107.897,-567.536,0,0
321869,106.86,-567.416,0,0
322129,105.711,-567.207,0,0
322390,104.527,-566.997,0,0
322650,103.265,-566.515,0,0
322910,101.987,-566.058,0,0
323171,100.679,-565.405,0,0
323431,99.351,-564.657,0,0
323691,98.1136,-563.782,0,0
323952,96.9154,-562.762,0,0
324212,95.8156,-561.748,0,0
324472,94.78,-560.685,0,0
324733,93.7294,-559.531,0,0
324993,92.772,-558.383,0,0
325253,91.9983,-557.212,0,0
325514,91.1259,-556,0,0
325774,90.2814,-554.798,0,0
326034,89.5176,-553.605,0,0
326295,88.8637,-552.439,0,0
326555,88.1378,-551.223,0,0
326815,87.5204,-550.036,0,0
327076,86.8748,-548.855,0,0
327336,86.1799,-547.62,0,0
327596,85.6637,-546.349,0,0
327857,85.0084,-545.066,0,0
328117,84.4566,-543.799,0,0
328377,83.8701,-542.504,0,0
328638,83.3788,-541.141,0,0
328898,82.9262,-539.72,0,0
329158,82.4376,-538.251,0,0
329419,82.1905,-536.86,0,0
329679,82.0081,-535.385,0,0
329939,81.7581,-533.977,0,0
330200,81.6665,-532.643,0,0
330460,81.5925,-531.207,0,0
330720.15,81.612,-529.855,0,0
330980.475,81.7929,-528.473,0,0
331240.8,82.0027,-527.205,0,0
331501.125,82.2829,-526.072,0,0
331761.45,82.56,-524.981,0,0
332021.775,82.9344,-524.077,0,0
332282.1,83.2677,-523.295,0,0
332542.425,83.5605,-522.657,0,0
332802.75,83.7109,-522.083,0,0
333063.075,83.801,-521.521,0,0
333323.4,83.7791,-520.989,0,0
333583.725,83.6777,-520.508,0,0
333844.05,83.4621,-519.991,0,0
334104.375,83.2165,-519.413,0,0
334364.7,83.0096,-518.825,0,0
334625.025,82.6399,-518.201,0,0
334885.35,82.3403,-517.582,0,0
335145.675,81.9505,-516.829,0,0
335406.0,81.5163,-516.08,0,0
335666.325,81.1882,-515.273,0,0
335926.65,80.7635,-514.492,0,0
336186.975,80.3287,-513.63,0,0
336447.3,79.9287,-512.785,0,0
336707.625,79.5935,-511.811,0,0
336967.95,79.1433,-510.858,0,0
337228.275,78.8353,-509.856,0,0
337488.6,78.4424,-508.812,0,0
337748.925,78.0529,-507.813,0,0
338009.25,77.7741,-506.738,0,0
338269.575,77.4077,-505.64,0,0
338529.9,77.0712,-504.497,0,0
338790.225,76.7592,-503.231,0,0
339050.55,76.5227,-501.97,0,0
339310.875,76.3491,-500.675,0,0
339571.2,76.299,-499.379,0,0
339831.525,76.2349,-497.95,0,0
340091.85,76.255,-496.547,0,0
340352.175,76.3499,-495.17,0,0
340612.5,76.6016,-493.834,0,0
340872.825,76.8633,-492.473,0,0
341133.15,77.2079,-491.102,0,0
341393.475,77.628,-489.791,0,0
341653.8,78.1816,-488.535,0,0
341914.125,78.7755,-487.423,0,0
342174.45,79.4125,-486.284,0,0
342434.775,80.146,-485.258,0,0
342695.1,80.8565,-484.393,0,0
342955.425,81.5332,-483.548,0,0
343215.75,82.3195,-482.786,0,0
343476.075,83.1138,-482.06,0,0
343736.4,83.8145,-481.479,0,0
343996.725,84.6004,-480.986,0,0
344257.05,85.2983,-480.531,0,0
344517.375,85.9997,-480.188,0,0
344777.7,86.6476,-479.853,0,0
345038.025,87.2027,-479.638,0,0
345298.35,87.7527,-479.407,0,0
345558.675,88.2467,-479.28,0,0
345819.0,88.7364,-479.167,0,0
346079.325,89.1271,-479.141,0,0
346339.65,89.4576,-479.094,0,0
346599.975,89.6946,-479.15,0,0
346860,89.8903,-479.171,0,0
347121,90.0091,-479.165,0,0
347381,90.0217,-479.179,0,0
347641,90.0178,-479.134,0,0
347902,89.9486,-479.083,0,0
348162,89.8811,-478.977,0,0
348422,89.7103,-478.852,0,0
348683,89.6233,-478.712,0,0
348943,89.4746,-478.553,0,0
349203,89.3535,-478.415,0,0
349464,89.1085,-478.176,0,0
349724,88.9239,-478.092,0,0
349984,88.6394,-477.861,0,0
350245,88.3984,-477.719,0,0
350505,88.0116,-477.493,0,0
350765,87.6694,-477.245,0,0
351025,87.192,-477,0,0
351286,86.6885,-476.574,0,0
351546,86.1982,-476.089,0,0
351806,85.7868,-475.578,0,0
352067,85.4337,-474.958,0,0
352327,85.0247,-474.332,0,0
352587,84.7984,-473.614,0,0
352848,84.5672,-472.918,0,0
353108,84.3792,-472.305,0,0
353368,84.2701,-471.695,0,0
353629,84.113,-471.192,0,0
353889,83.9496,-470.585,0,0
354149,83.7743,-470.071,0,0
354410,83.5562,-469.46,0,0
354670,83.4356,-468.899,0,0
354930,83.2274,-468.349,0,0
355191,83.0407,-467.693,0,0
355451,82.8347,-467.127,0,0
355711,82.7361,-466.49,0,0
355972,82.5776,-465.892,0,0
356232,82.4373,-465.242,0,0
356492,82.3708,-464.637,0,0
356753,82.2772,-464.053,0,0
357013,82.1479,-463.422,0,0
357273,82.0902,-462.915,0,0
357534,81.9534,-462.318,0,0
357794,81.8503,-461.785,0,0
358054,81.7237,-461.194,0,0
358315,81.5211,-460.593,0,0
358575,81.3868,-460.009,0,0
358835,81.2939,-459.409,0,0
359096,81.131,-458.831,0,0
359356,80.9653,-458.293,0,0
359616,80.8413,-457.715,0,0
359877,80.627,-457.1,0,0
360137,80.3715,-456.472,0,0
360397,80.1403,-455.829,0,0
360658,79.9257,-455.052,0,0
360918,79.689,-454.259,0,0
361178,79.5599,-453.376,0,0
361438,79.4826,-452.557,0,0
361699,79.4671,-451.771,0,0
361959,79.5025,-450.939,0,0
362219,79.5763,-450.205,0,0
362480,79.589,-449.514,0,0
362740.1,79.6433,-448.876,0,0
363000.425,79.6533,-448.186,0,0
363260.75,79.6561,-447.573,0,0
363521.075,79.5691,-446.925,0,0
363781.4,79.575,-446.229,0,0
364041.725,79.4609,-445.591,0,0
364302.05,79.4271,-444.824,0,0
364562.375,79.3568,-444.016,0,0
364822.7,79.1926,-443.245,0,0
365083.025,79.1935,-442.429,0,0
365343.35,79.1252,-441.584,0,0
365603.675,79.1783,-440.718,0,0
365864.0,79.1791,-439.841,0,0
366124.325,79.2479,-438.911,0,0
366384.65,79.3051,-438.063,0,0
366644.975,79.4464,-437.114,0,0
366905.3,79.5229,-436.167,0,0
367165.625,79.6444,-435.239,0,0
367425.95,79.8111,-434.189,0,0
367686.275,79.9968,-433.175,0,0
367946.6,80.2304,-432.137,0,0
368206.925,80.6107,-431.079,0,0
368467.25,80.9928,-429.957,0,0
368727.575,81.4456,-428.896,0,0
368987.9,82.0508,-427.831,0,0
369248.225,82.6903,-426.817,0,0
369508.55,83.3141,-425.826,0,0
369768.875,84.0371,-424.809,0,0
370029.2,84.8909,-423.901,0,0
370289.525,85.7376,-423,0,0
370549.85,86.7534,-422.142,0,0
370810.175,87.7561,-421.305,0,0
371070.5,88.8472,-420.59,0,0
371330.825,90.0928,-419.988,0,0
371591.15,91.3943,-419.498,0,0
371851.475,92.6774,-419.195,0,0
372111.8,93.9534,-419.017,0,0
372372.125,95.2774,-418.902,0,0
372632.45,96.5479,-419.03,0,0
372892.775,97.7006,-419.268,0,0
373153.1,98.8151,-419.664,0,0
373413.425,99.7549,-420.15,0,0
373673.75,100.57,-420.678,0,0
373934.075,101.301,-421.276,0,0
374194.4,101.872,-421.871,0,0
374454.725,102.401,-422.453,0,0
374715.05,102.767,-423.02,0,0
374975.375,103.086,-423.581,0,0
375235.7,103.376,-424.06,0,0
375496.025,103.564,-424.59,0,0
375756.35,103.711,-425.088,0,0
376016.675,103.788,-425.543,0,0
376277.0,103.796,-425.997,0,0
376537.325,103.763,-426.358,0,0
376797.65,103.623,-426.681,0,0
377057.975,103.48,-426.944,0,0
377318.3,103.45,-427.072,0,0
377578.625,103.39,-427.194,0,0
377838.95,103.356,-427.326,0,0
378099.275,103.414,-427.548,0,0
378359.6,103.442,-427.685,0,0
378619.925,103.418,-427.856,0,0
378880,103.431,-428.094,0,0
379141,103.393,-428.272,0,0
379401,103.304,-428.542,0,0
379661,103.197,-428.771,0,0
379922,103.111,-429.031,0,0
380182,102.907,-429.272,0,0
380442,102.609,-429.408,0,0
380703,102.285,-429.53,0,0
380963,101.983,-429.522,0,0
381223,101.77,-429.402,0,0
381483,101.583,-429.316,0,0
381744,101.538,-429.127,0,0
382004,101.604,-428.945,0,0
382264,101.735,-428.901,0,0
382525,101.987,-428.968,0,0
382785,102.201,-429.108,0,0
383045,102.369,-429.37,0,0
383306,102.483,-429.73,0,0
383566,102.581,-430.217,0,0
383826,102.559,-430.757,0,0
384087,102.42,-431.292,0,0
384347,102.211,-431.894,0,0
384607,101.92,-432.471,0,0
384868,101.53,-433.088,0,0
385128,101.007,-433.676,0,0
385388,100.42,-434.298,0,0
385649,99.7087,-434.812,0,0
385909,98.8311,-435.324,0,0
386169,97.8757,-435.684,0,0
386430,96.8983,-435.901,0,0
386690,95.8895,-436.017,0,0
386950,94.8178,-436.026,0,0
387211,93.6856,-435.899,0,0
387471,92.6371,-435.624,0,0
387731,91.6376,-435.221,0,0
387992,90.8099,-434.76,0,0
388252,89.9559,-434.213,0,0
388512,89.1796,-433.602,0,0
388773,88.5558,-432.925,0,0
389033,88.0015,-432.282,0,0
389293,87.5955,-431.586,0,0
389554,87.3394,-430.958,0,0
389814,87.1093,-430.438,0,0
390074,86.9983,-429.977,0,0
390335,86.9566,-429.566,0,0
390595,86.8621,-429.309,0,0
390855,86.7315,-429.184,0,0
391116,86.5821,-429.141,0,0
391376,86.2826,-429.116,0,0
391636,85.9622,-429.184,0,0
391896,85.491,-429.218,0,0
392157,84.9679,-429.185,0,0
392417,84.4034,-429.147,0,0
392677,83.8338,-429.079,0,0
392938,83.2305,-429.029,0,0
393198,82.5408,-429.02,0,0
393458,81.8324,-428.885,0,0
393719,81.0744,-428.727,0,0
393979,80.2406,-428.606,0,0
394239,79.3764,-428.325,0,0
394500,78.5276,-427.953,0,0
394760.05,77.6615,-427.629,0,0
395020.375,76.7703,-427.187,0,0
395280.7,75.9042,-426.788,0,0
395541.025,74.9906,-426.249,0,0
395801.35,74.1194,-425.694,0,0
396061.675,73.2643,-425.075,0,0
396322.0,72.3916,-424.41,0,0
396582.325,71.5422,-423.616,0,0
396842.65,70.7765,-422.884,0,0
397102.975,69.9534,-422.048,0,0
397363.3,69.1892,-421.175,0,0
397623.625,68.453,-420.283,0,0
397883.95,67.7811,-419.298,0,0
398144.275,67.1196,-418.372,0,0
398404.6,66.5093,-417.353,0,0
398664.925,65.9285,-416.351,0,0
398925.25,65.4046,-415.305,0,0
399185.575,64.9056,-414.215,0,0
399445.9,64.4412,-413.086,0,0
399706.225,64.0317,-411.953,0,0
399966.55,63.6619,-410.793,0,0
400006.6,63.5877,-410.605,0,0