File: Accelerated corrosion test data/2025-10-06_06-00-03/sample_3.csv
Frequency (Hz),Impedance (ohms),Phase (Radians),Temperature (C),Humidity (%)
10000.0,251.075,-11766.4,0,0
10260.325,245.444,-11469.7,0,0
10520.65,239.243,-11187.8,0,0
10780.975,235.3,-10918.7,0,0
11041.3,229.104,-10667.2,0,0
11301.625,223.974,-10422.3,0,0
11561.95,218.908,-10189.1,0,0
11822.275,214.978,-9966.3,0,0
12082.6,211.285,-9753.1,0,0
12342.925,209.331,-9547.31,0,0
12603.25,202.734,-9353.59,0,0
12863.575,199.122,-9164.98,0,0
13123.9,199.175,-8981.4,0,0
13384.225,192.629,-8813.94,0,0
13644.55,189.178,-8645.41,0,0
13904.875,185.688,-8482.62,0,0
14165.2,184.609,-8327.02,0,0
14425.525,180.824,-8177.26,0,0
14685.8,179.061,-8032.97,0,0
14946.175,176.744,-7894.69,0,0
15206.5,172.836,-7754.61,0,0
15466.825,179.052,-7616.54,0,0
15727.15,193.367,-7511.43,0,0
15987.5,174.372,-7402.29,0,0
16247.8,167.993,-7273.04,0,0
16508.125,161.876,-7161.22,0,0
16768.45,164.735,-7040.33,0,0
17028.775,157.56,-6942.65,0,0
17289.1,160.357,-6829.26,0,0
17549.425,156.072,-6737.74,0,0
17809.75,156.415,-6632.87,0,0
18070.075,163.542,-6544.81,0,0
18330.4,150.932,-6453.16,0,0
18590.725,148.586,-6361.62,0,0
18851.05,144.885,-6272.05,0,0
19111.375,146.023,-6182.09,0,0
19371.7,145.261,-6100,0,0
19632.025,146.059,-6017.21,0,0
19892.35,145.413,-5936.77,0,0
20152.675,149.699,-5860.23,0,0
20413.0,158.017,-5783.38,0,0
20673.3,161.942,-5717.08,0,0
20933.65,160.562,-5661,0,0
21193.975,163.729,-5597.93,0,0
21454.3,145.13,-5537.85,0,0
21714.625,138.158,-5462.94,0,0
21974.9,141.907,-5396.79,0,0
22235.275,138.578,-5337.97,0,0
22495.6,137.423,-5276.82,0,0
22755.925,129.236,-5217.13,0,0
23016.25,128.137,-5157.42,0,0
23276.6,127.753,-5095.95,0,0
23536.9,129.36,-5049.44,0,0
23797.225,121.224,-4991.47,0,0
24057.55,119.087,-4933.8,0,0
24317.875,118.318,-4878.93,0,0
24578.2,116.885,-4829.11,0,0
24838.525,117.862,-4775.96,0,0
25098.85,116.408,-4729.67,0,0
25359.175,114.085,-4679.67,0,0
25619.5,113.68,-4631.77,0,0
25879.8,110.786,-4586.12,0,0
26140.1,108.322,-4538.52,0,0
26400.5,107.366,-4491.55,0,0
26660.8,107.732,-4446.55,0,0
26921.1,108.388,-4402.26,0,0
27181.4,107.762,-4361.73,0,0
27441.8,106.992,-4317.94,0,0
27702.1,108.461,-4278.72,0,0
27962.4,104.964,-4239.38,0,0
28222.7,103.582,-4196.17,0,0
28483.1,109.662,-4153.65,0,0
28743.4,112.623,-4118.21,0,0
29003.7,115.739,-4089.07,0,0
29264,106.651,-4056.2,0,0
29524.4,109.465,-4017.8,0,0
29784.7,104.6,-3984.78,0,0
30045,102.418,-3951.04,0,0
30305.3,100.171,-3914.1,0,0
30565.7,102.175,-3879.54,0,0
30826,100.428,-3847.43,0,0
31086.3,102.101,-3814.47,0,0
31346.6,98.7913,-3785.06,0,0
31607,97.3357,-3750.4,0,0
31867.3,97.9446,-3716.54,0,0
32127.6,101.066,-3683.91,0,0
32387.9,108.834,-3655.11,0,0
32648.3,112.076,-3637.06,0,0
32908.6,103.383,-3613.15,0,0
33168.9,101.021,-3585.8,0,0
33429.2,99.735,-3558.37,0,0
33689.6,93.8384,-3531.98,0,0
33949.9,90.7309,-3501.83,0,0
34210.2,90.6491,-3473.96,0,0
34470.5,89.5397,-3447.52,0,0
34730.9,87.8278,-3421.61,0,0
34991.2,86.4992,-3395.13,0,0
35251.5,85.7515,-3369.08,0,0
35511.8,84.8025,-3343.75,0,0
35772.2,84.1714,-3318.67,0,0
36032.5,83.1974,-3293.83,0,0
36292.8,82.552,-3269.6,0,0
36553.1,82.4112,-3245.88,0,0
36813.5,81.9379,-3222.6,0,0
37073.8,81.2107,-3199.52,0,0
37334.1,80.2427,-3176.67,0,0
37594.4,79.9695,-3153.79,0,0
37854.8,79.1913,-3131.81,0,0
38115.1,78.9145,-3109.83,0,0
38375.4,78.3568,-3088.16,0,0
38635.7,77.8968,-3066.62,0,0
38896.1,77.3974,-3045.64,0,0
39156.4,77.2022,-3024.77,0,0
39416.7,76.8553,-3004.66,0,0
39677,76.5161,-2984.46,0,0
39937.4,75.8851,-2964.38,0,0
40197.7,75.399,-2944.58,0,0
40458,75.0062,-2925.21,0,0
40718.3,74.6789,-2905.88,0,0
40978.7,74.1821,-2886.97,0,0
41239,74.1341,-2867.81,0,0
41499.3,74.1047,-2849.37,0,0
41759.6,74.1293,-2830.96,0,0
42020,73.7861,-2813.22,0,0
42280.275,73.5658,-2795.56,0,0
42540.6,73.276,-2778.25,0,0
42800.925,73.1284,-2760.77,0,0
43061.25,72.6126,-2744.03,0,0
43321.575,71.8747,-2726.99,0,0
43581.9,71.6783,-2709.77,0,0
43842.225,71.7897,-2692.68,0,0
44102.55,71.75,-2676.41,0,0
44362.875,71.8393,-2660.57,0,0
44623.2,71.2575,-2644.63,0,0
44883.525,71.2713,-2628.99,0,0
45143.85,70.8939,-2613.22,0,0
45404.175,70.3159,-2598.27,0,0
45664.5,70.2032,-2582.28,0,0
45924.825,70.6912,-2566.96,0,0
46185.15,70.3675,-2552.85,0,0
46445.475,69.7364,-2537.78,0,0
46705.8,69.6082,-2522.76,0,0
46966.125,70.0015,-2508.23,0,0
47226.45,69.3463,-2494.11,0,0
47486.775,69.2441,-2479.73,0,0
47747.1,69.9525,-2465.22,0,0
48007.425,70.6377,-2452.35,0,0
48267.75,70.5254,-2439.58,0,0
48528.075,69.3803,-2426.34,0,0
48788.4,69.3594,-2412.92,0,0
49048.725,68.4812,-2400.02,0,0
49309.05,67.9844,-2386.65,0,0
49569.375,67.8641,-2373.14,0,0
49829.7,67.6754,-2360.49,0,0
50090.025,67.0568,-2348,0,0
50350.35,66.6472,-2334.96,0,0
50610.675,66.3851,-2322.14,0,0
50871.0,66.3958,-2309.43,0,0
51131.325,66.3135,-2297.04,0,0
51391.65,66.1334,-2284.69,0,0
51651.975,66.139,-2272.37,0,0
51912.3,66.1248,-2260.46,0,0
52172.625,65.9952,-2248.47,0,0
52432.95,66.0011,-2236.37,0,0
52693.275,66.2318,-2224.53,0,0
52953.6,66.4313,-2212.84,0,0
53213.925,67.0903,-2201.24,0,0
53474.25,68.0047,-2190.47,0,0
53734.575,68.1535,-2179.7,0,0
53994.9,68.2585,-2168.81,0,0
54255.225,69.246,-2158.09,0,0
54515.55,70.1363,-2148.84,0,0
54775.875,69.6466,-2139.77,0,0
55036.2,68.6948,-2129.95,0,0
55296.525,68.0699,-2120.3,0,0
55556.85,66.6203,-2110.75,0,0
55817.175,65.1112,-2100.28,0,0
56077.5,64.2494,-2089.73,0,0
56337.825,63.3693,-2079.16,0,0
56598.15,62.4759,-2068.63,0,0
56858.475,61.6516,-2058.15,0,0
57118.8,61.3026,-2047.18,0,0
57379.125,61.1197,-2036.7,0,0
57639.45,61.0582,-2026.25,0,0
57899.775,61.2022,-2016.18,0,0
58160.1,61.2373,-2006.14,0,0
58420.4,61.0709,-1996.25,0,0
58680.7,61.0571,-1986.14,0,0
58941.1,61.2563,-1976.53,0,0
59201.4,61.4209,-1966.57,0,0
59461.7,61.7073,-1957.15,0,0
59722,61.9399,-1947.61,0,0
59982.4,62.2742,-1938.21,0,0
60242.7,62.5154,-1928.86,0,0
60503,62.6684,-1919.73,0,0
60763.3,63.0312,-1910.42,0,0
61023.7,63.4448,-1901.34,0,0
61284,63.9129,-1892.38,0,0
61544.3,64.4485,-1883.26,0,0
61804.6,65.0512,-1874.69,0,0
62065,65.2892,-1865.95,0,0
62325.3,65.7275,-1857.15,0,0
62585.6,66.2697,-1848.46,0,0
62845.9,66.765,-1839.42,0,0
63106.3,68.0016,-1830.71,0,0
63366.6,68.778,-1822.34,0,0
63626.9,69.7164,-1813.41,0,0
63887.2,71.5997,-1805.09,0,0
64147.6,73.0595,-1796.82,0,0
64407.9,74.9682,-1788.73,0,0
64668.2,77.487,-1780.55,0,0
64928.5,80.3649,-1773.31,0,0
65188.9,84.5304,-1767.15,0,0
65449.2,87.1747,-1763.11,0,0
65709.5,89.0651,-1758.68,0,0
65969.8,91.5364,-1755.86,0,0
66230.2,91.0325,-1755.25,0,0
66490.5,86.3083,-1753.27,0,0
66750.8,80.9063,-1747.3,0,0
67011.1,77.6013,-1738,0,0
67271.5,76.4788,-1730.16,0,0
67531.8,74.7317,-1722.06,0,0
67792.1,75.023,-1713.59,0,0
68052.4,75.1406,-1705.99,0,0
68312.8,76.044,-1698.98,0,0
68573.1,76.3685,-1692.83,0,0
68833.4,76.4559,-1686.68,0,0
69093.7,76.5612,-1680.26,0,0
69354.1,76.8923,-1674.56,0,0
69614.4,76.4347,-1669.34,0,0
69874.7,75.6996,-1663.68,0,0
70135,74.6983,-1658.09,0,0
70395.4,73.7198,-1652.04,0,0
70655.7,72.8129,-1646.12,0,0
70916,71.632,-1639.74,0,0
71176.3,70.5063,-1633.28,0,0
71436.7,69.6613,-1626.57,0,0
71697,68.9655,-1619.75,0,0
71957.3,68.8877,-1612.91,0,0
72217.6,69.0793,-1606.66,0,0
72478,68.9976,-1600.59,0,0
72738.3,69.0211,-1594.81,0,0
72998.6,68.8769,-1589.28,0,0
73258.9,68.3121,-1583.67,0,0
73519.3,67.7398,-1577.93,0,0
73779.6,67.3809,-1572.2,0,0
74039.9,66.7281,-1566.71,0,0
74300.225,66.0214,-1561.07,0,0
74560.55,65.3402,-1555.33,0,0
74820.875,64.5622,-1549.59,0,0
75081.2,63.7895,-1543.94,0,0
75341.525,63.0762,-1538.09,0,0
75601.85,62.3578,-1532.19,0,0
75862.175,61.6537,-1526.47,0,0
76122.5,60.9401,-1520.47,0,0
76382.825,60.3582,-1514.6,0,0
76643.15,59.8229,-1508.73,0,0
76903.475,59.3185,-1502.93,0,0
77163.8,58.8714,-1497.1,0,0
77424.125,58.4131,-1491.39,0,0
77684.45,57.9074,-1485.76,0,0
77944.775,57.4057,-1480.07,0,0
78205.1,56.9514,-1474.31,0,0
78465.425,56.5661,-1468.59,0,0
78725.75,56.1429,-1462.93,0,0
78986.075,55.7673,-1457.32,0,0
79246.4,55.4076,-1451.61,0,0
79506.725,55.0667,-1446.02,0,0
79767.05,54.7644,-1440.43,0,0
80027.375,54.5835,-1434.82,0,0
80287.7,54.2689,-1429.35,0,0
80548.025,54.0709,-1423.83,0,0
80808.35,53.8349,-1418.41,0,0
81068.675,53.6373,-1412.94,0,0
81329.0,53.4747,-1407.57,0,0
81589.325,53.3137,-1402.17,0,0
81849.65,53.173,-1396.83,0,0
82109.975,53.0402,-1391.54,0,0
82370.3,52.897,-1386.2,0,0
82630.625,52.81,-1380.94,0,0
82890.95,52.7477,-1375.76,0,0
83151.275,52.6588,-1370.62,0,0
83411.6,52.6304,-1365.43,0,0
83671.925,52.558,-1360.26,0,0
83932.25,52.5453,-1355.17,0,0
84192.575,52.5223,-1350.12,0,0
84452.9,52.4825,-1345.09,0,0
84713.225,52.4441,-1340.06,0,0
84973.55,52.3539,-1335.07,0,0
85233.875,52.448,-1330.05,0,0
85494.2,52.4803,-1325.05,0,0
85754.525,52.5066,-1320.22,0,0
86014.85,52.5975,-1315.34,0,0
86275.175,52.6223,-1310.47,0,0
86535.5,52.5763,-1305.73,0,0
86795.825,52.6443,-1300.94,0,0
87056.15,52.7013,-1296.08,0,0
87316.475,52.8161,-1291.25,0,0
87576.8,52.8645,-1286.4,0,0
87837.125,53.0584,-1281.69,0,0
88097.45,53.2525,-1276.93,0,0
88357.775,53.4339,-1272.18,0,0
88618.1,53.53,-1267.55,0,0
88878.425,53.7789,-1262.72,0,0
89138.75,54.0233,-1257.94,0,0
89399.075,54.5765,-1253.25,0,0
89659.4,55.0013,-1248.74,0,0
89919.725,55.5625,-1244.27,0,0
90180,56.0687,-1239.84,0,0
90440.4,56.4906,-1235.63,0,0
90700.7,56.9509,-1231.43,0,0
90961,57.299,-1227.14,0,0
91221.3,57.8623,-1222.84,0,0
91481.7,58.4426,-1218.58,0,0
91742,59.0595,-1214.58,0,0
92002.3,59.5449,-1210.61,0,0
92262.6,60.1698,-1206.64,0,0
92523,60.8678,-1202.81,0,0
92783.3,61.5815,-1199.16,0,0
93043.6,62.0968,-1195.44,0,0
93303.9,62.8982,-1191.92,0,0
93564.3,63.6895,-1188.76,0,0
93824.6,64.1253,-1185.9,0,0
94084.9,64.3388,-1183.11,0,0
94345.2,64.212,-1180.36,0,0
94605.6,64.0412,-1177.51,0,0
94865.9,63.7389,-1175.08,0,0
95126.2,62.2711,-1172.56,0,0
95386.5,60.5529,-1169.03,0,0
95646.9,59.237,-1164.74,0,0
95907.2,58.4612,-1160.28,0,0
96167.5,57.9234,-1156.02,0,0
96427.8,57.5286,-1151.61,0,0
96688.2,57.4723,-1147.33,0,0
96948.5,57.4715,-1143.3,0,0
97208.8,57.4417,-1139.32,0,0
97469.1,57.378,-1135.37,0,0
97729.5,57.3726,-1131.52,0,0
97989.8,57.3045,-1127.74,0,0
98250.1,57.2166,-1123.92,0,0
98510.4,57.2057,-1120.08,0,0
98770.8,57.2195,-1116.33,0,0
99031.1,57.12,-1112.67,0,0
99291.4,56.971,-1109.07,0,0
99551.7,56.6744,-1105.34,0,0
99812.1,56.4383,-1101.49,0,0
100072,56.2635,-1097.63,0,0
100333,56.1601,-1093.76,0,0
100593,55.9417,-1089.93,0,0
100853,55.7918,-1085.86,0,0
101114,55.7515,-1081.86,0,0
101374,55.7541,-1077.78,0,0
101634,55.8536,-1073.68,0,0
101895,56.1009,-1069.57,0,0
102155,56.4354,-1065.5,0,0
102415,56.8751,-1061.35,0,0
102676,57.7061,-1057.25,0,0
102936,58.7255,-1053.56,0,0
103196,59.6582,-1050.25,0,0
103457,60.199,-1047,0,0
103717,60.7412,-1043.56,0,0
103977,61.5584,-1040.09,0,0
104238,62.6372,-1036.97,0,0
104498,63.5561,-1034.38,0,0
104758,64.1864,-1032.13,0,0
105019,64.1974,-1029.7,0,0
105279,64.0817,-1027.05,0,0
105539,64.0905,-1024.32,0,0
105800,64.0372,-1021.72,0,0
106060,63.7012,-1019.14,0,0
106320.175,63.1806,-1016.4,0,0
106580.5,62.6119,-1013.39,0,0
106840.825,62.1357,-1010.35,0,0
107101.15,61.4691,-1007.28,0,0
107361.475,60.849,-1003.99,0,0
107621.8,60.357,-1000.51,0,0
107882.125,59.9322,-997.049,0,0
108142.45,59.5197,-993.539,0,0
108402.775,59.1512,-989.946,0,0
108663.1,58.8743,-986.36,0,0
108923.425,58.548,-982.659,0,0
109183.75,58.3339,-978.874,0,0
109444.075,58.3021,-974.966,0,0
109704.4,58.4836,-971.195,0,0
109964.725,58.6626,-967.578,0,0
110225.05,58.7022,-963.865,0,0
110485.375,58.9378,-960.089,0,0
110745.7,59.3501,-956.27,0,0
111006.025,59.9424,-952.626,0,0
111266.35,60.5792,-949.378,0,0
111526.675,61.1096,-946.11,0,0
111787.0,61.5299,-942.746,0,0
112047.325,61.9996,-939.496,0,0
112307.65,62.4782,-936.352,0,0
112567.975,62.8828,-933.202,0,0
112828.3,63.1681,-930.096,0,0
113088.625,63.4575,-926.845,0,0
113348.95,63.815,-923.572,0,0
113609.275,64.2221,-920.383,0,0
113869.6,64.5107,-917.206,0,0
114129.925,64.7877,-913.957,0,0
114390.25,65.2559,-910.741,0,0
114650.575,65.4849,-907.36,0,0
114910.9,65.874,-903.952,0,0
115171.225,66.4778,-900.587,0,0
115431.55,67.1393,-897.196,0,0
115691.875,67.8009,-893.936,0,0
115952.2,68.4705,-890.718,0,0
116212.525,69.1474,-887.43,0,0
116472.85,69.9033,-884.029,0,0
116733.175,70.9324,-880.683,0,0
116993.5,72.1064,-877.657,0,0
117253.825,73.0206,-874.766,0,0
117514.15,73.7648,-871.634,0,0
117774.475,74.9368,-868.168,0,0
118034.8,76.6502,-865.062,0,0
118295.125,78.364,-862.475,0,0
118555.45,80.0537,-860.243,0,0
118815.775,81.3123,-858.319,0,0
119076.1,82.2091,-856.135,0,0
119336.425,83.3179,-853.603,0,0
119596.75,85.1277,-851.282,0,0
119857.075,87.0159,-849.957,0,0
120117.4,88.1103,-849.151,0,0
120377.725,88.6096,-848.166,0,0
120638.05,88.8021,-847.014,0,0
120898.375,88.7922,-845.847,0,0
121158.7,88.5457,-844.48,0,0
121419.025,87.9394,-842.96,0,0
121679.35,87.2004,-840.964,0,0
121939.675,86.572,-838.497,0,0
122200.0,86.3152,-835.834,0,0
122460,86.2564,-833.252,0,0
122721,86.3392,-830.649,0,0
122981,86.5264,-828.084,0,0
123241,86.8718,-825.551,0,0
123502,87.3026,-823.223,0,0
123762,87.5933,-821.113,0,0
124022,87.7533,-818.889,0,0
124283,88.0035,-816.596,0,0
124543,88.2929,-814.383,0,0
124803,88.5458,-812.265,0,0
125064,88.8061,-810.162,0,0
125324,89.0022,-808.176,0,0
125584,89.1344,-806.127,0,0
125845,89.3119,-804.099,0,0
126105,89.4282,-802.253,0,0
126365,89.4178,-800.377,0,0
126626,89.1531,-798.539,0,0
126886,88.8468,-796.55,0,0
127146,88.5719,-794.51,0,0
127406,88.1819,-792.348,0,0
127667,87.8165,-790.183,0,0
127927,87.4287,-787.872,0,0
128187,87.1533,-785.581,0,0
128448,86.7077,-783.357,0,0
128708,86.1626,-780.907,0,0
128968,85.6522,-778.287,0,0
129229,85.3722,-775.529,0,0
129489,85.1764,-772.851,0,0
129749,84.9807,-770.069,0,0
130010,84.8875,-767.225,0,0
130270,85.0298,-764.364,0,0
130530,85.3275,-761.74,0,0
130791,85.7202,-759.164,0,0
131051,86.0914,-756.963,0,0
131311,86.1937,-754.802,0,0
131572,86.1854,-752.618,0,0
131832,86.1247,-750.384,0,0
132092,85.9552,-748.192,0,0
132353,85.6812,-745.833,0,0
132613,85.494,-743.307,0,0
132873,85.504,-740.862,0,0
133134,85.4092,-738.523,0,0
133394,85.2673,-736.172,0,0
133654,85.1231,-733.798,0,0
133915,84.8395,-731.395,0,0
134175,84.4962,-728.951,0,0
134435,84.2268,-726.415,0,0
134696,83.9863,-723.945,0,0
134956,83.615,-721.393,0,0
135216,83.2538,-718.621,0,0
135477,83.0378,-715.834,0,0
135737,82.8536,-713.148,0,0
135997,82.6107,-710.465,0,0
136258,82.3334,-707.632,0,0
136518,82.0724,-704.772,0,0
136778,81.8481,-701.738,0,0
137039,81.837,-698.607,0,0
137299,81.9636,-695.624,0,0
137559,82.1465,-692.672,0,0
137819,82.4238,-689.84,0,0
138080,82.5774,-687.006,0,0
138340.125,82.8449,-684.125,0,0
138600.45,83.2969,-681.481,0,0
138860.775,83.4997,-679.15,0,0
139121.1,83.4073,-676.711,0,0
139381.425,83.2432,-674.069,0,0
139641.75,83.0831,-671.369,0,0
139902.075,82.905,-668.545,0,0
140162.4,82.7014,-665.592,0,0
140422.725,82.7118,-662.571,0,0
140683.05,82.867,-659.688,0,0
140943.375,82.9075,-656.961,0,0
141203.7,82.8037,-654.163,0,0
141464.025,82.627,-651.263,0,0
141724.35,82.3978,-648.27,0,0
141984.675,82.2332,-645.127,0,0
142245.0,82.1468,-641.913,0,0
142505.325,82.1337,-638.672,0,0
142765.65,82.1053,-635.47,0,0
143025.975,82.0309,-632.191,0,0
143286.3,82.0618,-628.798,0,0
143546.625,82.1014,-625.341,0,0
143806.95,82.211,-621.854,0,0
144067.275,82.4042,-618.31,0,0
144327.6,82.6629,-614.787,0,0
144587.925,82.9438,-611.225,0,0
144848.25,83.2724,-607.636,0,0
145108.575,83.6416,-603.991,0,0
145368.9,84.0805,-600.392,0,0
145629.225,84.4933,-596.763,0,0
145889.55,84.921,-593.057,0,0
146149.875,85.4104,-589.239,0,0
146410.2,86.025,-585.383,0,0
146670.525,86.7396,-581.531,0,0
146930.85,87.4581,-577.644,0,0
147191.175,88.2934,-573.721,0,0
147451.5,89.1845,-569.819,0,0
147711.825,90.0829,-565.802,0,0
147972.15,91.1772,-561.704,0,0
148232.475,92.4453,-557.679,0,0
148492.8,93.7451,-553.743,0,0
148753.125,94.9969,-549.784,0,0
149013.45,96.3527,-545.69,0,0
149273.775,97.8483,-541.582,0,0
149534.1,99.405,-537.388,0,0
149794.425,101.228,-533.056,0,0
150054.75,103.435,-528.842,0,0
150315.075,105.828,-524.845,0,0
150575.4,108.289,-521.091,0,0
150835.725,110.818,-517.454,0,0
151096.05,113.399,-513.98,0,0
151356.375,116.001,-510.645,0,0
151616.7,118.608,-507.47,0,0
151877.025,121.174,-504.391,0,0
152137.35,123.779,-501.366,0,0
152397.675,126.462,-498.524,0,0
152658.0,129.044,-495.902,0,0
152918.325,131.506,-493.345,0,0
153178.65,133.927,-490.952,0,0
153438.975,136.064,-488.715,0,0
153699.3,137.883,-486.261,0,0
153959.625,139.833,-483.579,0,0
154219.95,141.909,-480.999,0,0
154480,143.824,-478.663,0,0
154741,145.255,-476.26,0,0
155001,146.456,-473.359,0,0
155261,147.684,-469.914,0,0
155522,149.709,-465.928,0,0
155782,152.265,-462.431,0,0
156042,154.855,-459.44,0,0
156303,156.934,-456.606,0,0
156563,158.736,-453.215,0,0
156823,161.023,-449.321,0,0
157084,164.072,-445.418,0,0
157344,167.495,-442.029,0,0
157604,171.22,-439.301,0,0
157864,174.435,-437.19,0,0
158125,177.1,-435.042,0,0
158385,179.765,-432.916,0,0
158645,181.946,-431.284,0,0
158906,183.205,-429.271,0,0
159166,183.714,-426.362,0,0
159426,184.973,-422.397,0,0
159687,186.311,-418.358,0,0
159947,187.477,-413.503,0,0
160207,189.464,-407.67,0,0
160468,192.453,-401.794,0,0
160728,196.28,-395.57,0,0
160988,201.393,-389.869,0,0
161249,206.759,-385.539,0,0
161509,211.097,-381.298,0,0
161769,215.506,-375.874,0,0
162030,221.346,-370.042,0,0
162290,228.178,-364.986,0,0
162550,235.285,-360.571,0,0
162811,242.633,-356.805,0,0
163071,249.915,-353.045,0,0
163331,257.703,-349.565,0,0
163592,265.713,-346.185,0,0
163852,274.292,-343.024,0,0
164112,283.684,-340.225,0,0
164373,293.472,-338.656,0,0
164633,303.053,-337.494,0,0
164893,313.022,-336.452,0,0
165154,324.321,-335.888,0,0
165414,336.304,-337.666,0,0
165674,347.134,-341.32,0,0
165935,356.671,-345.095,0,0
166195,366.69,-348.924,0,0
166455,376.542,-354.43,0,0
166716,385.287,-361.006,0,0
166976,392.895,-367.873,0,0
167236,399.833,-375.261,0,0
167497,405.76,-382.74,0,0
167757,411.024,-390.234,0,0
168017,416.156,-397.935,0,0
168277,420.447,-406.422,0,0
168538,423.223,-415.387,0,0
168798,424.591,-423.588,0,0
169058,425.63,-430.802,0,0
169319,427.116,-437.726,0,0
169579,428.47,-446.084,0,0
169839,427.481,-455.183,0,0
170100,424.283,-462.985,0,0
170360.075,420.11,-468.64,0,0
170620.4,416.355,-472.605,0,0
170880.725,412.968,-475.909,0,0
171141.05,409.555,-478.46,0,0
171401.375,406.28,-479.847,0,0
171661.7,403.997,-480.226,0,0
171922.025,402.784,-480.575,0,0
172182.35,401.825,-480.987,0,0
172442.675,401.423,-481.397,0,0
172703.0,401.014,-481.525,0,0
172963.325,401.657,-480.964,0,0
173223.65,403.959,-480.992,0,0
173483.975,406.671,-483.01,0,0
173744.3,407.954,-485.973,0,0
174004.625,408.58,-488.371,0,0
174264.95,409.74,-490.053,0,0
174525.275,412.221,-492.683,0,0
174785.6,413.93,-497.237,0,0
175045.925,414.155,-501.861,0,0
175306.25,413.859,-506.081,0,0
175566.575,413.362,-510.417,0,0
175826.9,412.018,-515.012,0,0
176087.225,409.861,-519.126,0,0
176347.55,407.503,-522.693,0,0
176607.875,405.246,-525.863,0,0
176868.2,402.957,-529.507,0,0
177128.525,399.477,-533.49,0,0
177388.85,394.803,-536.461,0,0
177649.175,390.2,-538.208,0,0
177909.5,385.803,-539.768,0,0
178169.825,380.476,-540.996,0,0
178430.15,374.639,-540.531,0,0
178690.475,369.72,-538.525,0,0
178950.8,365.958,-536.008,0,0
179211.125,363.012,-533.306,0,0
179471.45,360.784,-530.693,0,0
179731.775,358.655,-528.01,0,0
179992.1,357.215,-524.771,0,0
180252.425,357.099,-521.612,0,0
180512.75,357.75,-519.42,0,0
180773.075,358.513,-518.055,0,0
181033.4,358.962,-517.252,0,0
181293.725,359.251,-516.382,0,0
181554.05,360.026,-515.674,0,0
181814.375,361.111,-515.773,0,0
182074.7,361.878,-517.214,0,0
182335.025,361.157,-519.377,0,0
182595.35,359.045,-520.819,0,0
182855.675,356.553,-521.365,0,0
183116.0,354.146,-521.332,0,0
183376.325,351.841,-520.876,0,0
183636.65,349.542,-520.542,0,0
183896.975,346.933,-520.069,0,0
184157.3,344.005,-519.148,0,0
184417.625,341.004,-517.607,0,0
184677.95,338.324,-515.587,0,0
184938.275,335.819,-513.512,0,0
185198.6,333.164,-511.173,0,0
185458.925,330.508,-508.332,0,0
185719.25,328.013,-505.034,0,0
185979.575,325.714,-501.225,0,0
186239.9,323.789,-496.853,0,0
186500,322.506,-491.99,0,0
186761,322.053,-486.947,0,0
187021,322.6,-481.882,0,0
187281,323.655,-477.652,0,0
187542,324.809,-473.768,0,0
187802,326.034,-469.843,0,0
188062,327.709,-466.263,0,0
188322,329.586,-462.916,0,0
188583,331.536,-460.22,0,0
188843,333.157,-458.086,0,0
189103,334.003,-455.848,0,0
189364,334.704,-452.892,0,0
189624,335.792,-449.553,0,0
189884,337.488,-446.046,0,0
190145,339.695,-443.027,0,0
190405,341.843,-440.449,0,0
190665,343.655,-438.083,0,0
190926,345.331,-435.529,0,0
191186,347.116,-432.846,0,0
191446,349.052,-430.189,0,0
191707,350.851,-427.471,0,0
191967,352.774,-424.589,0,0
192227,354.932,-421.776,0,0
192488,357.026,-419.035,0,0
192748,359.015,-416.049,0,0
193008,361.023,-412.85,0,0
193269,363.381,-409.09,0,0
193529,366.338,-405.023,0,0
193789,369.899,-401.057,0,0
194050,373.918,-397.205,0,0
194310,378.438,-393.272,0,0
194570,383.893,-389.562,0,0
194831,390.129,-386.544,0,0
195091,396.89,-384.587,0,0
195351,403.609,-383.678,0,0
195612,409.98,-383.653,0,0
195872,415.636,-383.864,0,0
196132,421.417,-384.1,0,0
196393,427.323,-384.945,0,0
196653,433.392,-386.423,0,0
196913,438.923,-389.207,0,0
197174,443.041,-392.773,0,0
197434,445.467,-395.807,0,0
197694,447.39,-397.517,0,0
197955,449.951,-398.507,0,0
198215,453.051,-399.942,0,0
198475,455.703,-401.998,0,0
198735,457.406,-404.117,0,0
198996,458.339,-405.42,0,0
199256,459.305,-405.545,0,0
199516,461.307,-405.069,0,0
199777,464.172,-405.199,0,0
200037,466.806,-406.35,0,0
200297,468.233,-407.829,0,0
200558,468.77,-408.38,0,0
200818,469.278,-407.779,0,0
201078,470.356,-406.381,0,0
201339,472.041,-404.606,0,0
201599,474.442,-402.549,0,0
201859,477.24,-400.685,0,0
202120,480.311,-398.586,0,0
202380.025,483.965,-396.249,0,0
202640.35,488.66,-393.956,0,0
202900.675,494.065,-392.346,0,0
203161.0,499.862,-391.257,0,0
203421.325,505.833,-390.716,0,0
203681.65,512.142,-390.685,0,0
203941.975,518.523,-391.542,0,0
204202.3,524.664,-392.935,0,0
204462.625,530.631,-394.765,0,0
204722.95,536.29,-396.986,0,0
204983.275,541.879,-399.444,0,0
205243.6,547.489,-402.442,0,0
205503.925,552.419,-406.162,0,0
205764.25,556.535,-410.239,0,0
206024.575,559.707,-414.345,0,0
206284.9,561.705,-418.02,0,0
206545.225,563.101,-420.364,0,0
206805.55,564.75,-421.349,0,0
207065.875,567.189,-421.741,0,0
207326.2,570.485,-421.738,0,0
207586.525,574.694,-421.774,0,0
207846.85,579.545,-422.161,0,0
208107.175,584.741,-422.895,0,0
208367.5,590.325,-423.803,0,0
208627.825,596.479,-425.026,0,0
208888.15,602.975,-426.925,0,0
209148.475,609.661,-429.402,0,0
209408.8,616.385,-432.53,0,0
209669.125,623.196,-436.258,0,0
209929.45,629.957,-440.59,0,0
210189.775,636.272,-445.434,0,0
210450.1,642.324,-450.646,0,0
210710.425,648.073,-456.153,0,0
210970.75,653.562,-461.899,0,0
211231.075,658.894,-467.887,0,0
211491.4,664.03,-473.999,0,0
211751.725,669.025,-480.416,0,0
212012.05,673.793,-487.111,0,0
212272.375,678.216,-494.108,0,0
212532.7,682.399,-501.197,0,0
212793.025,686.354,-508.253,0,0
213053.35,690.385,-515.528,0,0
213313.675,694.361,-523.097,0,0
213574.0,698.154,-531.164,0,0
213834.325,701.476,-539.704,0,0
214094.65,704.149,-548.476,0,0
214354.975,706.132,-557.007,0,0
214615.3,708.104,-565.196,0,0
214875.625,710.221,-573.555,0,0
215135.95,712.475,-582.359,0,0
215396.275,714.326,-591.827,0,0
215656.6,715.291,-601.389,0,0
215916.925,716.056,-610.89,0,0
216177.25,716.686,-620.72,0,0
216437.575,716.559,-631.025,0,0
216697.9,715.588,-641.368,0,0
216958.225,713.834,-651.684,0,0
217218.55,711.106,-661.423,0,0
217478.875,708.083,-670.46,0,0
217739.2,705.061,-678.997,0,0
217999.525,702.019,-687.417,0,0
218259.85,698.819,-695.912,0,0
218520,695.46,-704.38,0,0
218780,691.327,-712.7,0,0
219041,686.684,-720.377,0,0
219301,681.948,-727.159,0,0
219561,677.882,-733.42,0,0
219822,674.157,-739.554,0,0
220082,671.079,-746.016,0,0
220342,668.277,-753.336,0,0
220603,664.744,-761.675,0,0
220863,660.11,-770.07,0,0
221123,654.618,-778.311,0,0
221384,648.296,-786.034,0,0
221644,641.892,-793.109,0,0
221904,635.344,-799.949,0,0
222165,628.345,-806.909,0,0
222425,620.71,-813.522,0,0
222685,612.326,-819.572,0,0
222946,603.687,-825.109,0,0
223206,594.39,-829.923,0,0
223466,584.457,-833.702,0,0
223727,574.476,-836.183,0,0
223987,564.885,-837.142,0,0
224247,556.397,-837.268,0,0
224508,548.883,-836.862,0,0
224768,541.948,-836.117,0,0
225028,535.517,-835.248,0,0
225289,530.094,-833.977,0,0
225549,525.569,-832.99,0,0
225809,521.831,-832.313,0,0
226070,518.859,-832.144,0,0
226330,516.119,-832.836,0,0
226590,513.274,-834.35,0,0
226851,510.116,-836.231,0,0
227111,506.742,-838.558,0,0
227371,503.044,-841.032,0,0
227632,498.97,-843.642,0,0
227892,494.335,-846.478,0,0
228152,489.477,-849.007,0,0
228413,484.351,-851.356,0,0
228673,479.036,-853.637,0,0
228933,473.327,-855.815,0,0
229193,467.464,-857.625,0,0
229454,461.538,-859.032,0,0
229714,455.628,-860.099,0,0
229974,449.585,-860.968,0,0
230235,443.871,-861.814,0,0
230495,438.048,-862.346,0,0
230755,432.156,-862.807,0,0
231016,426.233,-862.89,0,0
231276,420.437,-862.622,0,0
231536,414.898,-862.179,0,0
231797,409.719,-861.852,0,0
232057,404.424,-861.442,0,0
232317,399.207,-860.899,0,0
232578,394.112,-860.248,0,0
232838,389.059,-859.537,0,0
233098,384.144,-858.773,0,0
233359,379.224,-857.899,0,0
233619,374.528,-856.946,0,0
233879,369.977,-856.038,0,0
234140,365.484,-855.274,0,0
234400,360.813,-854.537,0,0
234660.3,356.118,-853.549,0,0
234920.625,351.496,-852.584,0,0
235180.95,347.232,-851.762,0,0
235441.275,342.58,-850.965,0,0
235701.6,337.842,-850.15,0,0
235961.925,332.979,-849.309,0,0
236222.25,327.895,-848.193,0,0
236482.575,322.762,-846.823,0,0
236742.9,317.623,-845.132,0,0
237003.225,312.668,-843.182,0,0
237263.55,307.957,-841.195,0,0
237523.875,303.22,-839.212,0,0
237784.2,298.482,-837.136,0,0
238044.525,293.608,-834.917,0,0
238304.85,288.823,-832.32,0,0
238565.175,283.996,-829.589,0,0
238825.5,279.365,-826.489,0,0
239085.825,275.029,-823.064,0,0
239346.15,270.904,-819.63,0,0
239606.475,266.969,-815.87,0,0
239866.8,263.44,-811.98,0,0
240127.125,260.365,-808.315,0,0
240387.45,257.477,-804.621,0,0
240647.775,254.651,-801.045,0,0
240908.1,251.892,-797.526,0,0
241168.425,249.27,-793.886,0,0
241428.75,246.791,-790.21,0,0
241689.075,244.501,-786.575,0,0
241949.4,242.317,-782.85,0,0
242209.725,240.397,-779.003,0,0
242470.05,238.922,-775.204,0,0
242730.375,237.605,-771.814,0,0
242990.7,236.267,-768.505,0,0
243251.025,235.082,-765.271,0,0
243511.35,234.05,-762.033,0,0
243771.675,233.157,-758.985,0,0
244032.0,232.425,-756.079,0,0
244292.325,231.722,-753.395,0,0
244552.65,230.645,-750.995,0,0
244812.975,229.789,-748.429,0,0
245073.3,229.041,-746.013,0,0
245333.625,228.252,-743.696,0,0
245593.95,227.537,-741.527,0,0
245854.275,226.53,-739.42,0,0
246114.6,225.587,-737.34,0,0
246374.925,224.595,-735.097,0,0
246635.25,223.575,-732.854,0,0
246895.575,222.679,-730.601,0,0
247155.9,221.753,-728.348,0,0
247416.225,220.894,-726.048,0,0
247676.55,220.062,-723.783,0,0
247936.875,219.264,-721.468,0,0
248197.2,218.566,-719.068,0,0
248457.525,218.076,-716.673,0,0
248717.85,217.715,-714.382,0,0
248978.175,217.585,-712.108,0,0
249238.5,217.593,-710.136,0,0
249498.825,217.603,-708.417,0,0
249759.15,217.507,-706.915,0,0
250019.475,217.37,-705.65,0,0
250279.8,217.102,-704.486,0,0
250540,216.71,-703.394,0,0
250800,216.004,-702.489,0,0
251061,215.182,-701.5,0,0
251321,214.048,-700.368,0,0
251581,212.807,-699.224,0,0
251842,211.45,-697.994,0,0
252102,209.947,-696.583,0,0
252362,208.338,-695.007,0,0
252623,206.643,-693.156,0,0
252883,204.947,-691.066,0,0
253143,203.3,-688.741,0,0
253404,201.795,-686.146,0,0
253664,200.384,-683.32,0,0
253924,199.295,-680.329,0,0
254185,198.418,-677.262,0,0
254445,197.71,-674.12,0,0
254705,197.169,-670.908,0,0
254966,196.871,-667.744,0,0
255226,196.73,-664.406,0,0
255486,196.789,-661.04,0,0
255747,197.206,-657.694,0,0
256007,197.915,-654.304,0,0
256267,198.944,-651.017,0,0
256528,200.359,-647.876,0,0
256788,201.921,-645.091,0,0
257048,203.706,-642.495,0,0
257309,205.653,-640.215,0,0
257569,207.646,-638.296,0,0
257829,209.57,-636.593,0,0
258090,211.338,-635.128,0,0
258350,212.962,-633.748,0,0
258610,214.55,-632.351,0,0
258871,216.174,-630.859,0,0
259131,217.91,-629.266,0,0
259391,219.988,-627.672,0,0
259651,222.366,-626.291,0,0
259912,225.044,-625.156,0,0
260172,227.927,-624.478,0,0
260432,230.718,-624.172,0,0
260693,233.587,-624.23,0,0
260953,236.465,-624.499,0,0
261213,239.528,-625.216,0,0
261474,242.477,-626.538,0,0
261734,245.222,-628.442,0,0
261994,247.485,-630.852,0,0
262255,249.212,-633.606,0,0
262515,250.515,-636.506,0,0
262775,251.221,-639.553,0,0
263036,251.436,-642.636,0,0
263296,251.165,-645.582,0,0
263556,250.525,-648.402,0,0
263817,249.6,-651.079,0,0
264077,248.345,-653.707,0,0
264337,246.795,-656.177,0,0
264598,244.897,-658.469,0,0
264858,242.643,-660.479,0,0
265118,240.131,-662.199,0,0
265379,237.482,-663.707,0,0
265639,234.665,-664.814,0,0
265899,231.612,-665.615,0,0
266160,228.52,-666.056,0,0
266420,225.487,-666.13,0,0
266680.25,222.452,-665.921,0,0
266940.575,219.424,-665.39,0,0
267200.9,216.499,-664.446,0,0
267461.225,213.726,-663.206,0,0
267721.55,211.27,-661.794,0,0
267981.875,209.044,-660.223,0,0
268242.2,206.971,-658.527,0,0
268502.525,205.1,-656.722,0,0
268762.85,203.413,-654.876,0,0
269023.175,201.951,-652.915,0,0
269283.5,200.664,-650.923,0,0
269543.825,199.608,-649.02,0,0
269804.15,198.707,-647.14,0,0
270064.475,197.811,-645.367,0,0
270324.8,197.009,-643.587,0,0
270585.125,196.297,-641.748,0,0
270845.45,195.635,-639.752,0,0
271105.775,195.24,-637.806,0,0
271366.1,195.02,-635.962,0,0
271626.425,194.961,-634.18,0,0
271886.75,194.951,-632.442,0,0
272147.075,195.141,-630.903,0,0
272407.4,195.322,-629.473,0,0
272667.725,195.566,-628.267,0,0
272928.05,195.688,-627.166,0,0
273188.375,195.639,-626.087,0,0
273448.7,195.488,-624.857,0,0
273709.025,195.379,-623.509,0,0
273969.35,195.314,-622.115,0,0
274229.675,195.456,-620.593,0,0
274490.0,195.67,-619.121,0,0
274750.325,196.071,-617.588,0,0
275010.65,196.611,-616.088,0,0
275270.975,197.3,-614.59,0,0
275531.3,198.217,-613.151,0,0
275791.625,199.349,-611.802,0,0
276051.95,200.69,-610.638,0,0
276312.275,202.154,-609.714,0,0
276572.6,203.793,-609.022,0,0
276832.925,205.492,-608.654,0,0
277093.25,207.244,-608.581,0,0
277353.575,208.977,-608.817,0,0
277613.9,210.561,-609.393,0,0
277874.225,211.96,-610.203,0,0
278134.55,213.203,-611.207,0,0
278394.875,214.292,-612.39,0,0
278655.2,215.171,-613.844,0,0
278915.525,215.761,-615.458,0,0
279175.85,215.997,-617.154,0,0
279436.175,215.96,-618.798,0,0
279696.5,215.693,-620.413,0,0
279956.825,215.135,-621.997,0,0
280217.15,214.447,-623.528,0,0
280477.475,213.549,-624.973,0,0
280737.8,212.406,-626.222,0,0
280998.125,211.175,-627.36,0,0
281258.45,209.858,-628.332,0,0
281518.775,208.486,-629.2,0,0
281779.1,207.059,-630.011,0,0
282039.425,205.528,-630.803,0,0
282299.75,203.832,-631.459,0,0
282560,202.056,-631.904,0,0
282820,200.179,-632.213,0,0
283081,198.299,-632.33,0,0
283341,196.424,-632.279,0,0
283601,194.542,-632.093,0,0
283862,192.759,-631.756,0,0
284122,190.998,-631.34,0,0
284382,189.243,-630.783,0,0
284643,187.648,-630.193,0,0
284903,186.025,-629.511,0,0
285163,184.399,-628.744,0,0
285424,182.803,-627.859,0,0
285684,181.234,-626.821,0,0
285944,179.76,-625.694,0,0
286205,178.371,-624.426,0,0
286465,177.119,-623.085,0,0
286725,175.975,-621.643,0,0
286986,174.963,-620.119,0,0
287246,174.131,-618.514,0,0
287506,173.499,-616.884,0,0
287767,173.115,-615.189,0,0
288027,172.983,-613.677,0,0
288287,173.044,-612.336,0,0
288548,173.2,-611.206,0,0
288808,173.36,-610.261,0,0
289068,173.512,-609.504,0,0
289329,173.594,-608.878,0,0
289589,173.555,-608.387,0,0
289849,173.451,-607.902,0,0
290109,173.282,-607.398,0,0
290370,173.053,-606.907,0,0
290630,172.881,-606.41,0,0
290890,172.67,-605.99,0,0
291151,172.431,-605.626,0,0
291411,172.08,-605.283,0,0
291671,171.626,-604.939,0,0
291932,171.065,-604.496,0,0
292192,170.468,-603.932,0,0
292452,169.908,-603.215,0,0
292713,169.41,-602.433,0,0
292973,169.018,-601.553,0,0
293233,168.723,-600.669,0,0
293494,168.529,-599.71,0,0
293754,168.464,-598.743,0,0
294014,168.566,-597.768,0,0
294275,168.811,-596.889,0,0
294535,169.175,-596.124,0,0
294795,169.652,-595.484,0,0
295056,170.259,-595.015,0,0
295316,170.932,-594.71,0,0
295576,171.605,-594.65,0,0
295837,172.197,-594.781,0,0
296097,172.69,-595.144,0,0
296357,173.06,-595.576,0,0
296618,173.285,-596.135,0,0
296878,173.401,-596.748,0,0
297138,173.398,-597.498,0,0
297399,173.235,-598.262,0,0
297659,172.897,-599.06,0,0
297919,172.423,-599.872,0,0
298180,171.78,-600.676,0,0
298440,170.984,-601.396,0,0
298700.2,170.054,-602.059,0,0
298960.525,169.067,-602.618,0,0
299220.85,167.997,-603.106,0,0
299481.175,166.826,-603.538,0,0
299741.5,165.68,-603.87,0,0
300001.825,164.482,-604.105,0,0
300262.15,163.24,-604.332,0,0
300522.475,161.933,-604.471,0,0
300782.8,160.6,-604.527,0,0
301043.125,159.23,-604.525,0,0
301303.45,157.825,-604.463,0,0
301563.775,156.427,-604.296,0,0
301824.1,155.02,-604.066,0,0
302084.425,153.592,-603.763,0,0
302344.75,152.18,-603.355,0,0
302605.075,150.772,-602.859,0,0
302865.4,149.433,-602.291,0,0
303125.725,148.136,-601.665,0,0
303386.05,146.863,-601.024,0,0
303646.375,145.635,-600.349,0,0
303906.7,144.433,-599.634,0,0
304167.025,143.251,-598.888,0,0
304427.35,142.078,-598.082,0,0
304687.675,140.954,-597.213,0,0
304948.0,139.894,-596.347,0,0
305208.325,138.844,-595.403,0,0
305468.65,137.831,-594.453,0,0
305728.975,136.873,-593.496,0,0
305989.3,135.93,-592.489,0,0
306249.625,135.067,-591.422,0,0
306509.95,134.287,-590.331,0,0
306770.275,133.601,-589.247,0,0
307030.6,132.97,-588.181,0,0
307290.925,132.443,-587.126,0,0
307551.25,131.954,-586.125,0,0
307811.575,131.533,-585.186,0,0
308071.9,131.179,-584.276,0,0
308332.225,130.866,-583.463,0,0
308592.55,130.542,-582.751,0,0
308852.875,130.199,-582.105,0,0
309113.2,129.831,-581.53,0,0
309373.525,129.384,-580.985,0,0
309633.85,128.923,-580.478,0,0
309894.175,128.395,-580.012,0,0
310154.5,127.776,-579.524,0,0
310414.825,127.143,-579.04,0,0
310675.15,126.451,-578.52,0,0
310935.475,125.722,-577.981,0,0
311195.8,124.979,-577.426,0,0
311456.125,124.213,-576.859,0,0
311716.45,123.392,-576.253,0,0
311976.775,122.541,-575.629,0,0
312237.1,121.609,-574.954,0,0
312497.425,120.646,-574.187,0,0
312757.75,119.678,-573.327,0,0
313018.075,118.716,-572.343,0,0
313278.4,117.803,-571.279,0,0
313538.725,116.935,-570.143,0,0
313799.05,116.127,-568.911,0,0
314059.375,115.396,-567.616,0,0
314319.7,114.783,-566.269,0,0
314580,114.245,-564.895,0,0
314840,113.801,-563.534,0,0
315101,113.537,-562.05,0,0
315361,113.285,-560.771,0,0
315621,113.312,-559.359,0,0
315882,113.218,-558.084,0,0
316142,113.35,-556.839,0,0
316402,113.587,-555.792,0,0
316663,113.778,-554.687,0,0
316923,114,-553.79,0,0
317183,114.238,-552.9,0,0
317444,114.547,-552.212,0,0
317704,114.739,-551.562,0,0
317964,114.971,-550.981,0,0
318225,115.043,-550.452,0,0
318485,115.066,-550.003,0,0
318745,115.223,-549.467,0,0
319006,115.176,-549.068,0,0
319266,115.125,-548.506,0,0
319526,115.035,-548.027,0,0
319787,114.996,-547.576,0,0
320047,114.83,-547.101,0,0
320307,114.705,-546.526,0,0
320567,114.674,-545.984,0,0
320828,114.651,-545.422,0,0
321088,114.63,-544.887,0,0
321348,114.7,-544.378,0,0
321609,114.793,-543.795,0,0
321869,114.877,-543.425,0,0
322129,115.077,-543.007,0,0
322390,115.299,-542.717,0,0
322650,115.449,-542.536,0,0
322910,115.502,-542.464,0,0
323171,115.627,-542.413,0,0
323431,115.643,-542.406,0,0
323691,115.643,-542.511,0,0
323952,115.534,-542.647,0,0
324212,115.252,-542.763,0,0
324472,114.968,-542.938,0,0
324733,114.603,-543.074,0,0
324993,114.18,-543.23,0,0
325253,113.672,-543.349,0,0
325514,112.999,-543.474,0,0
325774,112.364,-543.548,0,0
326034,111.716,-543.567,0,0
326295,110.985,-543.519,0,0
326555,110.131,-543.424,0,0
326815,109.331,-543.349,0,0
327076,108.456,-543.226,0,0
327336,107.544,-543.004,0,0
327596,106.632,-542.71,0,0
327857,105.781,-542.358,0,0
328117,104.875,-541.941,0,0
328377,104.087,-541.495,0,0
328638,103.223,-541.005,0,0
328898,102.406,-540.528,0,0
329158,101.605,-540.092,0,0
329419,100.78,-539.574,0,0
329679,99.9727,-538.977,0,0
329939,99.2858,-538.495,0,0
330200,98.4207,-537.947,0,0
330460,97.6077,-537.409,0,0
330720.15,96.8181,-536.863,0,0
330980.475,95.954,-536.388,0,0
331240.8,95.1433,-535.771,0,0
331501.125,94.2861,-535.146,0,0
331761.45,93.3903,-534.535,0,0
332021.775,92.4633,-533.793,0,0
332282.1,91.548,-533.075,0,0
332542.425,90.7145,-532.335,0,0
332802.75,89.8647,-531.521,0,0
333063.075,88.9481,-530.711,0,0
333323.4,88.152,-529.841,0,0
333583.725,87.2365,-528.992,0,0
333844.05,86.4072,-528.049,0,0
334104.375,85.5417,-527.053,0,0
334364.7,84.6728,-525.985,0,0
334625.025,83.8403,-524.855,0,0
334885.35,83.1405,-523.798,0,0
335145.675,82.4184,-522.593,0,0
335406.0,81.8354,-521.474,0,0
335666.325,81.179,-520.198,0,0
335926.65,80.6323,-518.995,0,0
336186.975,80.0643,-517.769,0,0
336447.3,79.5774,-516.545,0,0
336707.625,79.202,-515.286,0,0
336967.95,78.7991,-514.123,0,0
337228.275,78.3537,-512.904,0,0
337488.6,78.0234,-511.694,0,0
337748.925,77.6973,-510.417,0,0
338009.25,77.3702,-509.197,0,0
338269.575,77.0801,-507.963,0,0
338529.9,76.7677,-506.718,0,0
338790.225,76.5295,-505.488,0,0
339050.55,76.3726,-504.155,0,0
339310.875,76.2367,-502.808,0,0
339571.2,76.1434,-501.481,0,0
339831.525,76.1191,-500.098,0,0
340091.85,76.1014,-498.757,0,0
340352.175,76.2544,-497.406,0,0
340612.5,76.4865,-496.074,0,0
340872.825,76.7762,-494.827,0,0
341133.15,77.1391,-493.622,0,0
341393.475,77.5709,-492.494,0,0
341653.8,78.0149,-491.466,0,0
341914.125,78.5302,-490.447,0,0
342174.45,79.0535,-489.546,0,0
342434.775,79.6052,-488.787,0,0
342695.1,80.1367,-488.101,0,0
342955.425,80.6319,-487.435,0,0
343215.75,81.1604,-486.919,0,0
343476.075,81.5569,-486.399,0,0
343736.4,81.9498,-486.007,0,0
343996.725,82.2803,-485.61,0,0
344257.05,82.5434,-485.305,0,0
344517.375,82.7566,-484.979,0,0
344777.7,82.8747,-484.703,0,0
345038.025,82.9542,-484.368,0,0
345298.35,82.9505,-484.051,0,0
345558.675,82.9205,-483.695,0,0
345819.0,82.8458,-483.339,0,0
346079.325,82.8314,-482.896,0,0
346339.65,82.7001,-482.452,0,0
346599.975,82.6637,-482.076,0,0
346860,82.4885,-481.601,0,0
347121,82.3787,-481.13,0,0
347381,82.2516,-480.611,0,0
347641,82.0896,-480.153,0,0
347902,81.9549,-479.605,0,0
348162,81.8197,-479.007,0,0
348422,81.653,-478.44,0,0
348683,81.533,-477.789,0,0
348943,81.4003,-477.134,0,0
349203,81.3002,-476.419,0,0
349464,81.2897,-475.729,0,0
349724,81.2467,-475.024,0,0
349984,81.2998,-474.243,0,0
350245,81.5217,-473.562,0,0
350505,81.6502,-472.868,0,0
350765,81.8469,-472.221,0,0
351025,82.0852,-471.598,0,0
351286,82.4024,-471.121,0,0
351546,82.7127,-470.657,0,0
351806,83.058,-470.286,0,0
352067,83.3613,-469.989,0,0
352327,83.5486,-469.783,0,0
352587,83.7668,-469.646,0,0
352848,83.8396,-469.533,0,0
353108,83.9019,-469.504,0,0
353368,83.8792,-469.516,0,0
353629,83.7058,-469.416,0,0
353889,83.4629,-469.301,0,0
354149,83.1619,-469.199,0,0
354410,82.8415,-468.966,0,0
354670,82.5173,-468.691,0,0
354930,82.084,-468.414,0,0
355191,81.6408,-468.046,0,0
355451,81.3473,-467.635,0,0
355711,80.915,-467.19,0,0
355972,80.546,-466.662,0,0
356232,80.221,-466.183,0,0
356492,79.8926,-465.591,0,0
356753,79.5614,-465.079,0,0
357013,79.2707,-464.537,0,0
357273,78.9798,-463.913,0,0
357534,78.6322,-463.353,0,0
357794,78.4097,-462.69,0,0
358054,78.0819,-462.111,0,0
358315,77.7685,-461.315,0,0
358575,77.5971,-460.581,0,0
358835,77.3868,-459.882,0,0
359096,77.2487,-459.145,0,0
359356,77.1274,-458.401,0,0
359616,77.1235,-457.661,0,0
359877,77.08,-456.999,0,0
360137,77.0737,-456.265,0,0
360397,77.0989,-455.606,0,0
360658,77.1332,-454.956,0,0
360918,77.1159,-454.4,0,0
361178,77.1717,-453.805,0,0
361438,77.1635,-453.235,0,0
361699,77.1371,-452.683,0,0
361959,77.1695,-452.046,0,0
362219,77.1647,-451.491,0,0
362480,77.1776,-450.913,0,0
362740.1,77.1505,-450.237,0,0
363000.425,77.241,-449.57,0,0
363260.75,77.2856,-448.944,0,0
363521.075,77.4221,-448.337,0,0
363781.4,77.5692,-447.684,0,0
364041.725,77.764,-447.06,0,0
364302.05,78.0993,-446.606,0,0
364562.375,78.3964,-446.067,0,0
364822.7,78.7537,-445.711,0,0
365083.025,79.0206,-445.379,0,0
365343.35,79.307,-445.16,0,0
365603.675,79.5911,-444.948,0,0
365864.0,79.7686,-444.935,0,0
366124.325,79.8637,-444.925,0,0
366384.65,79.9095,-444.944,0,0
366644.975,79.7586,-444.968,0,0
366905.3,79.5595,-444.951,0,0
367165.625,79.2665,-444.943,0,0
367425.95,78.9089,-444.84,0,0
367686.275,78.4072,-444.721,0,0
367946.6,77.9083,-444.487,0,0
368206.925,77.3771,-444.116,0,0
368467.25,76.7901,-443.717,0,0
368727.575,76.2824,-443.17,0,0
368987.9,75.6989,-442.477,0,0
369248.225,75.1877,-441.663,0,0
369508.55,74.7941,-440.774,0,0
369768.875,74.537,-439.796,0,0
370029.2,74.4808,-438.809,0,0
370289.525,74.5532,-437.844,0,0
370549.85,74.691,-436.868,0,0
370810.175,75.0457,-436.076,0,0
371070.5,75.4174,-435.402,0,0
371330.825,75.8594,-434.896,0,0
371591.15,76.2544,-434.529,0,0
371851.475,76.6125,-434.252,0,0
372111.8,76.9097,-434.046,0,0
372372.125,77.0715,-434.002,0,0
372632.45,77.1918,-433.871,0,0
372892.775,77.1445,-433.865,0,0
373153.1,77.0502,-433.851,0,0
373413.425,76.7965,-433.756,0,0
373673.75,76.4999,-433.59,0,0
373934.075,76.103,-433.385,0,0
374194.4,75.7673,-433.087,0,0
374454.725,75.2966,-432.649,0,0
374715.05,74.9269,-432.232,0,0
374975.375,74.5372,-431.729,0,0
375235.7,74.1484,-431.178,0,0
375496.025,73.8216,-430.616,0,0
375756.35,73.4843,-429.967,0,0
376016.675,73.2089,-429.258,0,0
376277.0,73.0423,-428.481,0,0
376537.325,72.8328,-427.772,0,0
376797.65,72.7156,-426.968,0,0
377057.975,72.6875,-426.185,0,0
377318.3,72.7155,-425.459,0,0
377578.625,72.7672,-424.7,0,0
377838.95,72.8615,-424.013,0,0
378099.275,72.987,-423.377,0,0
378359.6,73.1333,-422.732,0,0
378619.925,73.266,-422.202,0,0
378880,73.4306,-421.591,0,0
379141,73.6329,-421.032,0,0
379401,73.8414,-420.546,0,0
379661,74.0368,-420.098,0,0
379922,74.2408,-419.655,0,0
380182,74.4157,-419.337,0,0
380442,74.5578,-418.897,0,0
380703,74.6419,-418.578,0,0
380963,74.812,-418.243,0,0
381223,74.8936,-417.959,0,0
381483,74.9663,-417.613,0,0
381744,75.0748,-417.294,0,0
382004,75.1287,-417.004,0,0
382264,75.187,-416.766,0,0
382525,75.1567,-416.5,0,0
382785,75.2419,-416.281,0,0
383045,75.161,-416.073,0,0
383306,75.1282,-415.805,0,0
383566,75.0122,-415.583,0,0
383826,74.9325,-415.363,0,0
384087,74.7711,-415.084,0,0
384347,74.6371,-414.816,0,0
384607,74.4531,-414.544,0,0
384868,74.178,-414.298,0,0
385128,73.9351,-413.93,0,0
385388,73.6614,-413.559,0,0
385649,73.4074,-413.155,0,0
385909,73.1762,-412.741,0,0
386169,72.9179,-412.257,0,0
386430,72.6479,-411.77,0,0
386690,72.41,-411.253,0,0
386950,72.1561,-410.727,0,0
387211,71.9956,-410.191,0,0
387471,71.785,-409.628,0,0
387731,71.5677,-409.067,0,0
387992,71.321,-408.454,0,0
388252,71.1167,-407.86,0,0
388512,70.9469,-407.2,0,0
388773,70.7578,-406.503,0,0
389033,70.6119,-405.795,0,0
389293,70.4607,-405.041,0,0
389554,70.3279,-404.282,0,0
389814,70.3322,-403.491,0,0
390074,70.2705,-402.675,0,0
390335,70.3325,-401.883,0,0
390595,70.4187,-401.06,0,0
390855,70.5119,-400.221,0,0
391116,70.7158,-399.452,0,0
391376,70.9066,-398.634,0,0
391636,71.1525,-397.882,0,0
391896,71.4854,-397.115,0,0
392157,71.7923,-396.352,0,0
392417,72.186,-395.63,0,0
392677,72.6043,-395.002,0,0
392938,73.1064,-394.368,0,0
393198,73.6081,-393.822,0,0
393458,74.0971,-393.322,0,0
393719,74.6303,-392.874,0,0
393979,75.1078,-392.457,0,0
394239,75.632,-392.114,0,0
394500,76.1568,-391.784,0,0
394760.05,76.657,-391.529,0,0
395020.375,77.1279,-391.282,0,0
395280.7,77.6056,-391.096,0,0
395541.025,78.0885,-390.98,0,0
395801.35,78.4823,-390.908,0,0
396061.675,78.914,-390.872,0,0
396322.0,79.2882,-390.829,0,0
396582.325,79.6085,-390.908,0,0
396842.65,79.8844,-390.907,0,0
397102.975,80.1315,-391.013,0,0
397363.3,80.371,-391.091,0,0
397623.625,80.5473,-391.235,0,0
397883.95,80.6644,-391.39,0,0
398144.275,80.6991,-391.5,0,0
398404.6,80.7396,-391.632,0,0
398664.925,80.6309,-391.771,0,0
398925.25,80.5706,-391.89,0,0
399185.575,80.4414,-391.935,0,0
399445.9,80.2673,-391.971,0,0
399706.225,80.0998,-392.02,0,0
399966.55,79.8949,-392.002,0,0
400006.6,79.8567,-392,0,0