File: Accelerated corrosion test data/2025-10-06_06-00-03/sample_8.csv
Frequency (Hz),Impedance (ohms),Phase (Radians),Temperature (C),Humidity (%)
10000.0,310.371,-10936.8,0,0
10260.325,302.168,-10662.8,0,0
10520.65,295.259,-10401.7,0,0
10780.975,287.408,-10154.2,0,0
11041.3,281.389,-9917.46,0,0
11301.625,275.031,-9692.32,0,0
11561.95,268.976,-9476.01,0,0
11822.275,263.335,-9270.21,0,0
12082.6,261.022,-9070.75,0,0
12342.925,258.165,-8884.75,0,0
12603.25,252.948,-8703.9,0,0
12863.575,249.097,-8533.69,0,0
13123.9,241.043,-8369.12,0,0
13384.225,235.256,-8207.5,0,0
13644.55,231.971,-8052.19,0,0
13904.875,225.011,-7904.94,0,0
14165.2,220.806,-7760.55,0,0
14425.525,216.267,-7622.54,0,0
14685.8,211.843,-7487.83,0,0
14946.175,207.771,-7358.54,0,0
15206.5,204.545,-7233.44,0,0
15466.825,201.536,-7113.65,0,0
15727.15,198.173,-6996.74,0,0
15987.5,195.141,-6884.23,0,0
16247.8,192.273,-6774.57,0,0
16508.125,188.871,-6668.65,0,0
16768.45,185.927,-6566.5,0,0
17028.775,183.228,-6466.8,0,0
17289.1,180.471,-6370.15,0,0
17549.425,177.749,-6275.91,0,0
17809.75,175.598,-6184.36,0,0
18070.075,174.558,-6096.9,0,0
18330.4,170.96,-6009.63,0,0
18590.725,168.453,-5924.89,0,0
18851.05,168.982,-5842.18,0,0
19111.375,167.087,-5763.36,0,0
19371.7,169.783,-5686.72,0,0
19632.025,165.647,-5614.52,0,0
19892.35,163.064,-5544.33,0,0
20152.675,159.981,-5471.68,0,0
20413.0,159.469,-5401.98,0,0
20673.3,158.797,-5334.95,0,0
20933.65,157.193,-5271.33,0,0
21193.975,154.198,-5207.97,0,0
21454.3,151.788,-5144.08,0,0
21714.625,149.927,-5082.28,0,0
21974.9,150.053,-5022.54,0,0
22235.275,149.96,-4964.53,0,0
22495.6,148.36,-4908.44,0,0
22755.925,146.337,-4854.62,0,0
23016.25,143.795,-4799.82,0,0
23276.6,140.583,-4748.01,0,0
23536.9,139.336,-4695.05,0,0
23797.225,137.157,-4644,0,0
24057.55,135.512,-4593.68,0,0
24317.875,133.689,-4544.02,0,0
24578.2,132.264,-4495.83,0,0
24838.525,130.24,-4448.1,0,0
25098.85,129.411,-4401.98,0,0
25359.175,128.371,-4356.79,0,0
25619.5,126.701,-4311.82,0,0
25879.8,125.662,-4268.35,0,0
26140.1,125.232,-4226.32,0,0
26400.5,123.592,-4184.34,0,0
26660.8,122.618,-4143.16,0,0
26921.1,121.564,-4101.96,0,0
27181.4,121.866,-4062.62,0,0
27441.8,120.174,-4024.38,0,0
27702.1,120.11,-3986.56,0,0
27962.4,118.271,-3950.24,0,0
28222.7,118.599,-3912.06,0,0
28483.1,118.018,-3876.72,0,0
28743.4,117.578,-3841.05,0,0
29003.7,117.068,-3806.62,0,0
29264,117.129,-3772.27,0,0
29524.4,116.085,-3739.07,0,0
29784.7,115.748,-3706.16,0,0
30045,116.392,-3674.71,0,0
30305.3,116.194,-3643.7,0,0
30565.7,114.775,-3612.9,0,0
30826,114.206,-3582.28,0,0
31086.3,113.443,-3552.57,0,0
31346.6,112.951,-3522.7,0,0
31607,112.278,-3493.56,0,0
31867.3,112.24,-3464.81,0,0
32127.6,112.14,-3437.18,0,0
32387.9,111.197,-3409.14,0,0
32648.3,111.485,-3381.54,0,0
32908.6,112.115,-3353.88,0,0
33168.9,111.98,-3328.33,0,0
33429.2,113.367,-3302.51,0,0
33689.6,114.528,-3278.3,0,0
33949.9,113.942,-3255.63,0,0
34210.2,113.188,-3231.85,0,0
34470.5,112.26,-3208.56,0,0
34730.9,111.648,-3185.25,0,0
34991.2,111.277,-3162.48,0,0
35251.5,110.628,-3140.32,0,0
35511.8,109.338,-3118.93,0,0
35772.2,107.424,-3097.32,0,0
36032.5,106.09,-3075.52,0,0
36292.8,104.562,-3054.05,0,0
36553.1,102.902,-3032.69,0,0
36813.5,101.38,-3011.41,0,0
37073.8,100.267,-2990.15,0,0
37334.1,98.8786,-2969.6,0,0
37594.4,97.3354,-2949.17,0,0
37854.8,95.9075,-2928.59,0,0
38115.1,94.6551,-2908.6,0,0
38375.4,93.4891,-2888.55,0,0
38635.7,92.0211,-2868.67,0,0
38896.1,90.8182,-2849.01,0,0
39156.4,89.5203,-2829.65,0,0
39416.7,88.5269,-2810.33,0,0
39677,87.5544,-2791.4,0,0
39937.4,86.554,-2772.52,0,0
40197.7,85.7741,-2753.46,0,0
40458,85.6905,-2734.78,0,0
40718.3,85.3603,-2717.08,0,0
40978.7,84.8933,-2699.42,0,0
41239,84.347,-2682,0,0
41499.3,83.6308,-2664.53,0,0
41759.6,83.401,-2647.68,0,0
42020,82.8276,-2630.7,0,0
42280.275,82.1316,-2613.73,0,0
42540.6,81.862,-2597.01,0,0
42800.925,81.7151,-2580.66,0,0
43061.25,81.7202,-2564.62,0,0
43321.575,81.8169,-2548.97,0,0
43581.9,81.8722,-2533.8,0,0
43842.225,81.0555,-2519.35,0,0
44102.55,80.4416,-2504.25,0,0
44362.875,79.8841,-2489.33,0,0
44623.2,79.2665,-2474.62,0,0
44883.525,78.5242,-2459.75,0,0
45143.85,78.0759,-2445.21,0,0
45404.175,77.5445,-2430.81,0,0
45664.5,76.9787,-2416.39,0,0
45924.825,76.6531,-2402.45,0,0
46185.15,75.9014,-2388.21,0,0
46445.475,75.544,-2374.39,0,0
46705.8,75.1395,-2360.49,0,0
46966.125,74.8588,-2346.94,0,0
47226.45,74.6613,-2333.57,0,0
47486.775,74.3204,-2320.44,0,0
47747.1,74.1827,-2307.32,0,0
48007.425,73.9409,-2294.57,0,0
48267.75,73.6249,-2281.94,0,0
48528.075,73.1623,-2269.29,0,0
48788.4,72.8058,-2256.95,0,0
49048.725,72.0917,-2244.59,0,0
49309.05,71.7078,-2232.19,0,0
49569.375,71.4716,-2219.84,0,0
49829.7,71.0429,-2207.84,0,0
50090.025,70.5837,-2195.8,0,0
50350.35,70.4017,-2183.83,0,0
50610.675,70.0973,-2172.04,0,0
50871.0,69.9502,-2160.31,0,0
51131.325,69.7129,-2148.73,0,0
51391.65,69.5758,-2137.3,0,0
51651.975,69.4938,-2125.82,0,0
51912.3,69.597,-2114.87,0,0
52172.625,69.3882,-2103.91,0,0
52432.95,69.3042,-2093.29,0,0
52693.275,69.1099,-2082.28,0,0
52953.6,69.1526,-2071.68,0,0
53213.925,69.1953,-2061.33,0,0
53474.25,69.1385,-2051.15,0,0
53734.575,69.1603,-2041.55,0,0
53994.9,68.4439,-2031.86,0,0
54255.225,67.826,-2021.79,0,0
54515.55,67.2023,-2011.78,0,0
54775.875,66.6623,-2001.65,0,0
55036.2,66.1428,-1992.08,0,0
55296.525,65.4482,-1982.26,0,0
55556.85,64.8881,-1972.29,0,0
55817.175,64.4461,-1962.39,0,0
56077.5,63.7822,-1952.72,0,0
56337.825,63.3188,-1942.81,0,0
56598.15,62.9428,-1933.05,0,0
56858.475,62.6497,-1923.44,0,0
57118.8,62.5578,-1913.85,0,0
57379.125,62.3815,-1904.53,0,0
57639.45,62.3659,-1895.19,0,0
57899.775,62.147,-1885.99,0,0
58160.1,61.9716,-1876.86,0,0
58420.4,61.9594,-1867.79,0,0
58680.7,61.9808,-1858.88,0,0
58941.1,62.0448,-1849.99,0,0
59201.4,62.0896,-1841.53,0,0
59461.7,61.773,-1833.32,0,0
59722,61.4178,-1824.81,0,0
59982.4,61.0179,-1816.22,0,0
60242.7,60.7104,-1807.67,0,0
60503,60.5394,-1799.1,0,0
60763.3,60.2836,-1790.46,0,0
61023.7,60.2976,-1782.04,0,0
61284,60.3163,-1773.7,0,0
61544.3,60.4127,-1765.59,0,0
61804.6,60.4903,-1757.62,0,0
62065,60.1729,-1749.66,0,0
62325.3,60.0285,-1741.52,0,0
62585.6,60.2299,-1733.42,0,0
62845.9,60.3414,-1725.43,0,0
63106.3,60.5177,-1717.68,0,0
63366.6,60.7741,-1709.83,0,0
63626.9,61.2013,-1702.48,0,0
63887.2,61.3518,-1695.02,0,0
64147.6,61.5746,-1687.63,0,0
64407.9,62.1014,-1680.75,0,0
64668.2,62.1595,-1673.97,0,0
64928.5,61.9041,-1667.23,0,0
65188.9,61.8255,-1660.28,0,0
65449.2,61.5401,-1653.43,0,0
65709.5,60.993,-1646.77,0,0
65969.8,60.9332,-1639.77,0,0
66230.2,60.6629,-1633.04,0,0
66490.5,59.98,-1626.38,0,0
66750.8,59.58,-1619.34,0,0
67011.1,59.2822,-1612.33,0,0
67271.5,58.9321,-1605.33,0,0
67531.8,58.7526,-1598.38,0,0
67792.1,58.3902,-1591.73,0,0
68052.4,58.2529,-1584.7,0,0
68312.8,58.1114,-1578,0,0
68573.1,57.9822,-1571.31,0,0
68833.4,57.8134,-1564.66,0,0
69093.7,57.6604,-1557.89,0,0
69354.1,57.7033,-1551.16,0,0
69614.4,57.7348,-1544.53,0,0
69874.7,57.7952,-1538.09,0,0
70135,57.9156,-1531.74,0,0
70395.4,58.1018,-1525.31,0,0
70655.7,58.1716,-1519.17,0,0
70916,58.1482,-1512.96,0,0
71176.3,58.2494,-1506.86,0,0
71436.7,58.3096,-1500.82,0,0
71697,58.5048,-1494.63,0,0
71957.3,58.5236,-1488.93,0,0
72217.6,58.4989,-1483.07,0,0
72478,58.5331,-1477.31,0,0
72738.3,58.358,-1471.75,0,0
72998.6,57.9683,-1466,0,0
73258.9,57.6369,-1460.11,0,0
73519.3,57.3854,-1454.11,0,0
73779.6,57.3824,-1448.17,0,0
74039.9,57.3941,-1442.33,0,0
74300.225,57.4004,-1436.75,0,0
74560.55,57.2277,-1431.07,0,0
74820.875,57.1174,-1425.32,0,0
75081.2,56.9937,-1419.6,0,0
75341.525,56.9627,-1414,0,0
75601.85,56.8565,-1408.29,0,0
75862.175,56.9637,-1402.62,0,0
76122.5,57.0651,-1397.13,0,0
76382.825,57.132,-1391.72,0,0
76643.15,57.1122,-1386.32,0,0
76903.475,57.1228,-1381.02,0,0
77163.8,57.1009,-1375.74,0,0
77424.125,57.0011,-1370.44,0,0
77684.45,56.9334,-1365.11,0,0
77944.775,56.9234,-1359.82,0,0
78205.1,56.7713,-1354.61,0,0
78465.425,56.6458,-1349.36,0,0
78725.75,56.4651,-1344.09,0,0
78986.075,56.4401,-1338.74,0,0
79246.4,56.4496,-1333.46,0,0
79506.725,56.4634,-1328.25,0,0
79767.05,56.4768,-1322.98,0,0
80027.375,56.589,-1317.77,0,0
80287.7,56.674,-1312.63,0,0
80548.025,56.7952,-1307.53,0,0
80808.35,56.8158,-1302.57,0,0
81068.675,56.7748,-1297.48,0,0
81329.0,56.8381,-1292.2,0,0
81589.325,57.0079,-1287.1,0,0
81849.65,57.294,-1281.98,0,0
82109.975,57.5888,-1276.99,0,0
82370.3,58.0152,-1272.06,0,0
82630.625,58.2926,-1267.2,0,0
82890.95,58.6363,-1262.42,0,0
83151.275,58.9826,-1257.71,0,0
83411.6,59.3195,-1253.05,0,0
83671.925,59.5647,-1248.26,0,0
83932.25,59.9878,-1243.6,0,0
84192.575,60.4889,-1239.11,0,0
84452.9,60.9131,-1234.74,0,0
84713.225,61.3078,-1230.41,0,0
84973.55,61.6676,-1226.37,0,0
85233.875,61.4901,-1222.48,0,0
85494.2,61.2002,-1218.09,0,0
85754.525,60.992,-1213.62,0,0
86014.85,60.8712,-1208.92,0,0
86275.175,60.998,-1204.23,0,0
86535.5,61.0551,-1199.69,0,0
86795.825,61.2328,-1194.95,0,0
87056.15,61.5118,-1190.37,0,0
87316.475,61.9898,-1185.92,0,0
87576.8,62.2154,-1181.52,0,0
87837.125,62.481,-1177.04,0,0
88097.45,62.9094,-1172.56,0,0
88357.775,63.3524,-1168.19,0,0
88618.1,63.7726,-1163.89,0,0
88878.425,64.1299,-1159.68,0,0
89138.75,64.4896,-1155.39,0,0
89399.075,64.9689,-1151.04,0,0
89659.4,65.4961,-1146.78,0,0
89919.725,66.0337,-1142.54,0,0
90180,66.5828,-1138.18,0,0
90440.4,67.3299,-1134.04,0,0
90700.7,68.1303,-1129.82,0,0
90961,69.1005,-1125.85,0,0
91221.3,70.1306,-1121.98,0,0
91481.7,71.2043,-1118.25,0,0
91742,72.2544,-1114.96,0,0
92002.3,73.1332,-1111.73,0,0
92262.6,73.8504,-1108.57,0,0
92523,74.49,-1105.6,0,0
92783.3,74.8284,-1102.79,0,0
93043.6,74.952,-1099.87,0,0
93303.9,74.71,-1097.09,0,0
93564.3,74.1129,-1093.58,0,0
93824.6,74.0512,-1089.7,0,0
94084.9,74.3584,-1085.96,0,0
94345.2,74.5512,-1082.58,0,0
94605.6,74.6052,-1079.05,0,0
94865.9,74.7828,-1075.38,0,0
95126.2,75.0971,-1071.89,0,0
95386.5,75.3059,-1068.23,0,0
95646.9,75.8756,-1064.78,0,0
95907.2,76.0786,-1061.67,0,0
96167.5,76.1517,-1058.13,0,0
96427.8,76.4341,-1054.5,0,0
96688.2,76.9988,-1050.97,0,0
96948.5,77.5919,-1047.78,0,0
97208.8,77.9924,-1044.57,0,0
97469.1,78.4211,-1041.24,0,0
97729.5,78.9952,-1038.1,0,0
97989.8,79.5936,-1035.15,0,0
98250.1,80.0225,-1032.32,0,0
98510.4,80.4031,-1029.54,0,0
98770.8,80.6812,-1026.81,0,0
99031.1,80.8264,-1024.25,0,0
99291.4,80.6219,-1021.57,0,0
99551.7,80.4075,-1018.51,0,0
99812.1,80.3315,-1015.35,0,0
100072,80.5287,-1012.31,0,0
100333,80.6855,-1009.37,0,0
100593,80.831,-1006.48,0,0
100853,80.9394,-1003.75,0,0
101114,80.8449,-1001.02,0,0
101374,80.6628,-998.146,0,0
101634,80.6059,-995.294,0,0
101895,80.4503,-992.6,0,0
102155,80.0574,-989.723,0,0
102415,79.735,-986.764,0,0
102676,79.3864,-983.676,0,0
102936,79.1231,-980.511,0,0
103196,78.8869,-977.28,0,0
103457,78.7502,-973.974,0,0
103717,78.8246,-970.677,0,0
103977,78.9231,-967.512,0,0
104238,79.073,-964.556,0,0
104498,79.0466,-961.7,0,0
104758,78.8454,-958.734,0,0
105019,78.6299,-955.633,0,0
105279,78.4807,-952.272,0,0
105539,78.6423,-948.882,0,0
105800,78.9346,-945.674,0,0
106060,79.2677,-942.635,0,0
106320.175,79.5208,-939.633,0,0
106580.5,79.885,-936.607,0,0
106840.825,80.3002,-933.755,0,0
107101.15,80.6438,-931.123,0,0
107361.475,80.8379,-928.501,0,0
107621.8,80.9048,-925.919,0,0
107882.125,80.8797,-923.355,0,0
108142.45,80.7285,-920.642,0,0
108402.775,80.5773,-917.803,0,0
108663.1,80.5238,-914.805,0,0
108923.425,80.6412,-911.915,0,0
109183.75,80.7575,-909.015,0,0
109444.075,80.9239,-906.115,0,0
109704.4,81.1703,-903.338,0,0
109964.725,81.3977,-900.614,0,0
110225.05,81.4817,-898.033,0,0
110485.375,81.5761,-895.459,0,0
110745.7,81.737,-892.838,0,0
111006.025,81.6741,-890.247,0,0
111266.35,81.5652,-887.633,0,0
111526.675,81.538,-884.886,0,0
111787.0,81.543,-882.141,0,0
112047.325,81.5799,-879.533,0,0
112307.65,81.5881,-876.925,0,0
112567.975,81.6275,-874.297,0,0
112828.3,81.6382,-871.656,0,0
113088.625,81.6048,-869.073,0,0
113348.95,81.5844,-866.447,0,0
113609.275,81.4757,-863.848,0,0
113869.6,81.4469,-861.286,0,0
114129.925,81.3544,-858.668,0,0
114390.25,81.1998,-855.99,0,0
114650.575,81.1007,-853.343,0,0
114910.9,81.0847,-850.608,0,0
115171.225,81.0723,-847.969,0,0
115431.55,81.0315,-845.344,0,0
115691.875,80.9265,-842.786,0,0
115952.2,80.7345,-840.153,0,0
116212.525,80.6513,-837.44,0,0
116472.85,80.5937,-834.783,0,0
116733.175,80.4676,-832.17,0,0
116993.5,80.2393,-829.44,0,0
117253.825,80.0723,-826.545,0,0
117514.15,80.0775,-823.716,0,0
117774.475,80.1108,-820.88,0,0
118034.8,80.1775,-818.143,0,0
118295.125,80.2345,-815.361,0,0
118555.45,80.3937,-812.633,0,0
118815.775,80.6445,-809.989,0,0
119076.1,80.7513,-807.519,0,0
119336.425,80.736,-805.076,0,0
119596.75,80.5717,-802.453,0,0
119857.075,80.5284,-799.905,0,0
120117.4,80.4578,-797.189,0,0
120377.725,80.4705,-794.482,0,0
120638.05,80.4496,-791.898,0,0
120898.375,80.3324,-789.204,0,0
121158.7,80.2897,-786.407,0,0
121419.025,80.4034,-783.668,0,0
121679.35,80.3898,-780.953,0,0
121939.675,80.4325,-778.223,0,0
122200.0,80.5458,-775.485,0,0
122460,80.7287,-772.772,0,0
122721,80.9249,-770.234,0,0
122981,80.9221,-767.78,0,0
123241,80.7657,-765.249,0,0
123502,80.6262,-762.435,0,0
123762,80.616,-759.573,0,0
124022,80.7073,-756.713,0,0
124283,80.8639,-753.896,0,0
124543,81.0329,-751.061,0,0
124803,81.2962,-748.244,0,0
125064,81.6493,-745.497,0,0
125324,81.9481,-742.814,0,0
125584,82.2873,-740.222,0,0
125845,82.5557,-737.644,0,0
126105,82.8282,-735.107,0,0
126365,83.0203,-732.597,0,0
126626,83.251,-730.008,0,0
126886,83.504,-727.444,0,0
127146,83.68,-724.923,0,0
127406,84.0234,-722.355,0,0
127667,84.1811,-719.976,0,0
127927,84.3323,-717.498,0,0
128187,84.4297,-714.997,0,0
128448,84.5917,-712.471,0,0
128708,84.7108,-710.009,0,0
128968,84.7976,-707.479,0,0
129229,84.8209,-704.947,0,0
129489,84.7952,-702.353,0,0
129749,84.856,-699.66,0,0
130010,84.8524,-696.903,0,0
130270,84.948,-694.084,0,0
130530,85.2014,-691.188,0,0
130791,85.6428,-688.359,0,0
131051,86.1557,-685.723,0,0
131311,86.5842,-683.242,0,0
131572,86.9643,-680.806,0,0
131832,87.1998,-678.547,0,0
132092,87.1494,-676.191,0,0
132353,87.0272,-673.565,0,0
132613,86.9971,-670.757,0,0
132873,87.0924,-667.847,0,0
133134,87.373,-664.955,0,0
133394,87.7804,-662.17,0,0
133654,88.1053,-659.451,0,0
133915,88.4429,-656.727,0,0
134175,88.7293,-654.025,0,0
134435,89.042,-651.257,0,0
134696,89.3546,-648.455,0,0
134956,89.758,-645.541,0,0
135216,90.2714,-642.648,0,0
135477,91.0193,-639.826,0,0
135737,91.8272,-637.182,0,0
135997,92.6443,-634.691,0,0
136258,93.4186,-632.481,0,0
136518,93.9336,-630.403,0,0
136778,94.2816,-628.295,0,0
137039,94.4552,-626.218,0,0
137299,94.3797,-624.077,0,0
137559,94.2004,-621.72,0,0
137819,93.9059,-619.182,0,0
138080,93.6453,-616.434,0,0
138340.125,93.3753,-613.509,0,0
138600.45,93.3045,-610.319,0,0
138860.775,93.4901,-607.154,0,0
139121.1,93.7467,-604.035,0,0
139381.425,94.1259,-600.949,0,0
139641.75,94.4745,-598.003,0,0
139902.075,94.6742,-594.992,0,0
140162.4,95.0422,-591.833,0,0
140422.725,95.4213,-588.789,0,0
140683.05,95.7316,-585.758,0,0
140943.375,95.9964,-582.574,0,0
141203.7,96.3628,-579.237,0,0
141464.025,96.8727,-575.886,0,0
141724.35,97.4933,-572.608,0,0
141984.675,98.0577,-569.398,0,0
142245.0,98.5368,-566.101,0,0
142505.325,99.0891,-562.673,0,0
142765.65,99.7867,-559.143,0,0
143025.975,100.593,-555.687,0,0
143286.3,101.392,-552.256,0,0
143546.625,102.209,-548.78,0,0
143806.95,103.077,-545.288,0,0
144067.275,103.952,-541.677,0,0
144327.6,104.926,-537.973,0,0
144587.925,105.968,-534.198,0,0
144848.25,107.175,-530.231,0,0
145108.575,108.714,-526.229,0,0
145368.9,110.529,-522.337,0,0
145629.225,112.536,-518.608,0,0
145889.55,114.711,-515.136,0,0
146149.875,116.798,-511.947,0,0
146410.2,118.792,-508.774,0,0
146670.525,120.78,-505.56,0,0
146930.85,122.946,-502.419,0,0
147191.175,125.154,-499.515,0,0
147451.5,127.254,-496.764,0,0
147711.825,129.216,-494.265,0,0
147972.15,130.599,-491.741,0,0
148232.475,131.743,-488.616,0,0
148492.8,133.176,-484.952,0,0
148753.125,135.088,-481.167,0,0
149013.45,137.254,-477.471,0,0
149273.775,139.533,-473.63,0,0
149534.1,142.202,-469.818,0,0
149794.425,145.148,-466.008,0,0
150054.75,148.3,-462.369,0,0
150315.075,151.781,-458.782,0,0
150575.4,155.691,-455.16,0,0
150835.725,160.186,-451.857,0,0
151096.05,165.023,-449.111,0,0
151356.375,170.166,-447.171,0,0
151616.7,175.299,-446.051,0,0
151877.025,179.978,-445.704,0,0
152137.35,184.146,-445.856,0,0
152397.675,187.722,-446.323,0,0
152658.0,190.531,-446.992,0,0
152918.325,192.615,-447.338,0,0
153178.65,194.628,-447.26,0,0
153438.975,196.496,-447.076,0,0
153699.3,198.022,-446.713,0,0
153959.625,199.557,-446.064,0,0
154219.95,201.068,-445.24,0,0
154480,202.513,-444.224,0,0
154741,203.967,-442.867,0,0
155001,205.6,-441.046,0,0
155261,208.247,-439.034,0,0
155522,211.443,-437.76,0,0
155782,214.673,-437.072,0,0
156042,218.089,-437.016,0,0
156303,221.387,-438.009,0,0
156563,223.631,-440.341,0,0
156823,223.704,-442.681,0,0
157084,222.326,-443.818,0,0
157344,220.458,-443.294,0,0
157604,219.04,-441.152,0,0
157864,218.525,-438.235,0,0
158125,218.856,-434.994,0,0
158385,219.634,-431.491,0,0
158645,221.665,-427.962,0,0
158906,224.603,-424.98,0,0
159166,228.099,-422.889,0,0
159426,231.701,-421.861,0,0
159687,234.784,-421.884,0,0
159947,236.951,-422.566,0,0
160207,237.833,-422.975,0,0
160468,238.208,-422.811,0,0
160728,238.212,-422.067,0,0
160988,237.821,-420.307,0,0
161249,238.201,-417.426,0,0
161509,239.456,-414.309,0,0
161769,241.604,-411.238,0,0
162030,244.227,-408.584,0,0
162290,247.216,-406.236,0,0
162550,250.766,-404.208,0,0
162811,254.509,-403.065,0,0
163071,258.016,-402.507,0,0
163331,261.38,-402.175,0,0
163592,264.878,-402.317,0,0
163852,267.808,-403.246,0,0
164112,270.171,-404.4,0,0
164373,271.822,-405.68,0,0
164633,273.137,-406.249,0,0
164893,274.575,-406.974,0,0
165154,275.9,-407.793,0,0
165414,277.375,-408.979,0,0
165674,278.272,-410.965,0,0
165935,277.666,-413.105,0,0
166195,276.185,-414.204,0,0
166455,274.638,-414.501,0,0
166716,273.044,-414.627,0,0
166976,270.962,-414.279,0,0
167236,268.708,-413.03,0,0
167497,266.828,-411.19,0,0
167757,265.19,-409.117,0,0
168017,263.605,-406.749,0,0
168277,262.033,-403.897,0,0
168538,260.8,-400.726,0,0
168798,259.657,-397.295,0,0
169058,258.929,-393.564,0,0
169319,258.316,-389.507,0,0
169579,258.418,-385.243,0,0
169839,258.996,-381.137,0,0
170100,259.504,-377.432,0,0
170360.075,259.586,-373.509,0,0
170620.4,259.995,-368.956,0,0
170880.725,260.844,-364.343,0,0
171141.05,262.016,-359.613,0,0
171401.375,263.396,-354.994,0,0
171661.7,264.755,-350.06,0,0
171922.025,266.641,-344.716,0,0
172182.35,269.189,-339.252,0,0
172442.675,272.559,-334.024,0,0
172703.0,276.349,-329.6,0,0
172963.325,280.094,-325.502,0,0
173223.65,283.872,-321.635,0,0
173483.975,287.574,-317.861,0,0
173744.3,291.458,-314.294,0,0
174004.625,295.442,-310.838,0,0
174264.95,299.528,-307.612,0,0
174525.275,303.559,-304.698,0,0
174785.6,307.419,-302.195,0,0
175045.925,310.848,-299.544,0,0
175306.25,314.094,-296.714,0,0
175566.575,317.16,-293.718,0,0
175826.9,320.099,-290.248,0,0
176087.225,323.334,-286.095,0,0
176347.55,327.331,-281.794,0,0
176607.875,331.819,-277.526,0,0
176868.2,336.864,-273.448,0,0
177128.525,342.232,-269.64,0,0
177388.85,347.825,-266.405,0,0
177649.175,353.106,-263.703,0,0
177909.5,357.746,-260.468,0,0
178169.825,363.269,-256.662,0,0
178430.15,369.164,-252.901,0,0
178690.475,375.805,-249.366,0,0
178950.8,383.122,-246.372,0,0
179211.125,390.584,-243.908,0,0
179471.45,398.096,-242.113,0,0
179731.775,405.365,-240.867,0,0
179992.1,412.467,-239.742,0,0
180252.425,419.905,-238.86,0,0
180512.75,427.517,-238.825,0,0
180773.075,434.264,-239.179,0,0
181033.4,440.802,-239.313,0,0
181293.725,447.087,-239.618,0,0
181554.05,452.926,-239.873,0,0
181814.375,458.917,-239.686,0,0
182074.7,465.198,-239.743,0,0
182335.025,471.399,-239.926,0,0
182595.35,477.592,-239.827,0,0
182855.675,484.609,-240.099,0,0
183116.0,491.506,-241.429,0,0
183376.325,497.275,-243.452,0,0
183636.65,502.014,-244.775,0,0
183896.975,506.85,-245.093,0,0
184157.3,511.885,-245.209,0,0
184417.625,516.839,-244.844,0,0
184677.95,522.439,-243.912,0,0
184938.275,528.894,-243.096,0,0
185198.6,535.694,-242.811,0,0
185458.925,542.451,-242.508,0,0
185719.25,549.638,-242.14,0,0
185979.575,557.199,-241.995,0,0
186239.9,565.019,-241.995,0,0
186500,573.755,-242.086,0,0
186761,582.812,-243.588,0,0
187021,591.228,-245.665,0,0
187281,599.27,-247.897,0,0
187542,606.984,-249.735,0,0
187802,615.279,-251.303,0,0
188062,624.206,-253.069,0,0
188322,633.768,-255.348,0,0
188583,643.725,-258.559,0,0
188843,653.778,-263.011,0,0
189103,663.237,-268.41,0,0
189364,671.676,-274.768,0,0
189624,678.667,-281.096,0,0
189884,685.026,-286.71,0,0
190145,691.218,-291.784,0,0
190405,697.306,-296.502,0,0
190665,703.308,-300.602,0,0
190926,709.802,-303.81,0,0
191186,717.67,-306.763,0,0
191446,726.561,-310.578,0,0
191707,735.68,-315.123,0,0
191967,745.267,-320.589,0,0
192227,754.391,-327.135,0,0
192488,762.702,-333.884,0,0
192748,770.498,-340.303,0,0
193008,778.301,-345.479,0,0
193269,788.319,-349.831,0,0
193529,800.216,-355.653,0,0
193789,812.964,-363.304,0,0
194050,826.175,-372.675,0,0
194310,839.287,-384.247,0,0
194570,852.076,-397.813,0,0
194831,863.542,-413.345,0,0
195091,873.109,-430.334,0,0
195351,880.759,-447.327,0,0
195612,887.479,-463.879,0,0
195872,894.501,-480.583,0,0
196132,901.625,-498.712,0,0
196393,907.57,-519.127,0,0
196653,911.204,-540.718,0,0
196913,912.437,-562.747,0,0
197174,911.405,-584.402,0,0
197434,908.878,-605.267,0,0
197694,905.157,-625.842,0,0
197955,900.012,-646.273,0,0
198215,893.045,-665.917,0,0
198475,884.636,-684.259,0,0
198735,875.712,-701.5,0,0
198996,866.254,-717.98,0,0
199256,856.038,-733.542,0,0
199516,845.511,-748.646,0,0
199777,833.767,-763.651,0,0
200037,821.123,-777.3,0,0
200297,807.361,-790.09,0,0
200558,792.954,-801.679,0,0
200818,777.993,-811.695,0,0
201078,762.779,-819.669,0,0
201339,748.287,-826.159,0,0
201599,734.733,-832.222,0,0
201859,721.36,-837.952,0,0
202120,707.537,-843.498,0,0
202380.025,693.503,-848.388,0,0
202640.35,678.69,-852.268,0,0
202900.675,663.711,-854.437,0,0
203161.0,649.241,-854.955,0,0
203421.325,635.978,-854.335,0,0
203681.65,623.542,-853.326,0,0
203941.975,611.66,-851.432,0,0
204202.3,600.867,-849.104,0,0
204462.625,590.755,-846.71,0,0
204722.95,581.267,-843.835,0,0
204983.275,572.481,-841.419,0,0
205243.6,564.012,-838.86,0,0
205503.925,555.712,-836.28,0,0
205764.25,547.51,-833.454,0,0
206024.575,539.355,-830.186,0,0
206284.9,531.473,-826.249,0,0
206545.225,524.175,-821.484,0,0
206805.55,518.022,-816.174,0,0
207065.875,512.859,-810.884,0,0
207326.2,508.605,-805.638,0,0
207586.525,505.19,-800.928,0,0
207846.85,502.322,-796.521,0,0
208107.175,499.905,-792.647,0,0
208367.5,497.594,-789.391,0,0
208627.825,495.264,-786.365,0,0
208888.15,492.896,-783.358,0,0
209148.475,490.643,-780.27,0,0
209408.8,488.776,-776.983,0,0
209669.125,487.325,-773.642,0,0
209929.45,486.479,-770.471,0,0
210189.775,486.471,-767.713,0,0
210450.1,486.709,-765.608,0,0
210710.425,486.93,-763.925,0,0
210970.75,487.331,-762.87,0,0
211231.075,487.538,-762.279,0,0
211491.4,487.502,-761.814,0,0
211751.725,487.598,-761.38,0,0
212012.05,487.979,-761.391,0,0
212272.375,488.218,-761.795,0,0
212532.7,488.249,-762.499,0,0
212793.025,488.149,-763.455,0,0
213053.35,487.94,-764.942,0,0
213313.675,487.303,-766.546,0,0
213574.0,486.411,-768.196,0,0
213834.325,485.27,-769.964,0,0
214094.65,483.916,-771.807,0,0
214354.975,482.16,-773.767,0,0
214615.3,480.119,-775.747,0,0
214875.625,477.735,-777.571,0,0
215135.95,474.847,-779.21,0,0
215396.275,471.927,-780.472,0,0
215656.6,468.758,-781.521,0,0
215916.925,465.448,-782.206,0,0
216177.25,462.006,-782.385,0,0
216437.575,458.752,-782.127,0,0
216697.9,455.619,-781.367,0,0
216958.225,452.988,-780.168,0,0
217218.55,450.841,-778.721,0,0
217478.875,449.383,-777.231,0,0
217739.2,448.454,-775.926,0,0
217999.525,447.973,-775,0,0
218259.85,447.765,-774.307,0,0
218520,447.803,-774.105,0,0
218780,447.903,-774.324,0,0
219041,448.017,-774.842,0,0
219301,448.062,-775.676,0,0
219561,447.975,-776.803,0,0
219822,447.703,-778.278,0,0
220082,447.35,-779.793,0,0
220342,446.703,-781.533,0,0
220603,445.989,-783.074,0,0
220863,445.274,-784.836,0,0
221123,444.55,-786.618,0,0
221384,443.712,-788.53,0,0
221644,443,-790.448,0,0
221904,442.383,-792.638,0,0
222165,441.673,-795.472,0,0
222425,440.587,-798.637,0,0
222685,438.875,-801.958,0,0
222946,436.741,-805.404,0,0
223206,434.097,-808.603,0,0
223466,431.1,-811.429,0,0
223727,427.931,-813.874,0,0
223987,425.104,-816.008,0,0
224247,422.363,-818.075,0,0
224508,419.772,-820.438,0,0
224768,417.101,-822.854,0,0
225028,414.149,-825.51,0,0
225289,411.205,-828.264,0,0
225549,407.89,-831.419,0,0
225809,403.885,-834.705,0,0
226070,399.381,-837.703,0,0
226330,394.511,-840.045,0,0
226590,389.365,-842.335,0,0
226851,384.269,-844.015,0,0
227111,379.012,-845.417,0,0
227371,373.745,-846.659,0,0
227632,368.311,-847.712,0,0
227892,362.546,-848.295,0,0
228152,356.858,-848.212,0,0
228413,351.575,-847.561,0,0
228673,346.82,-846.583,0,0
228933,342.532,-845.822,0,0
229193,338.534,-845.054,0,0
229454,334.834,-844.624,0,0
229714,331.151,-844.407,0,0
229974,327.305,-844.466,0,0
230235,323.269,-844.799,0,0
230495,318.803,-845.145,0,0
230755,313.885,-845.346,0,0
231016,308.635,-845.072,0,0
231276,303.442,-844.25,0,0
231536,298.462,-843.108,0,0
231797,293.536,-841.936,0,0
232057,288.691,-840.581,0,0
232317,283.88,-838.998,0,0
232578,279.128,-837.239,0,0
232838,274.435,-835.304,0,0
233098,269.968,-833.071,0,0
233359,265.616,-830.758,0,0
233619,261.465,-828.478,0,0
233879,257.318,-826.071,0,0
234140,253.146,-823.454,0,0
234400,249.132,-820.714,0,0
234660.3,245.221,-817.748,0,0
234920.625,241.634,-814.713,0,0
235180.95,238.092,-811.435,0,0
235441.275,234.853,-808.099,0,0
235701.6,231.868,-804.703,0,0
235961.925,229.106,-801.239,0,0
236222.25,226.598,-797.868,0,0
236482.575,224.229,-794.429,0,0
236742.9,222.119,-791.076,0,0
237003.225,220.215,-787.775,0,0
237263.55,218.478,-784.55,0,0
237523.875,216.924,-781.439,0,0
237784.2,215.418,-778.382,0,0
238044.525,214.037,-775.467,0,0
238304.85,212.713,-772.621,0,0
238565.175,211.401,-769.814,0,0
238825.5,210.364,-766.958,0,0
239085.825,209.566,-763.993,0,0
239346.15,209.082,-761.618,0,0
239606.475,208.672,-759.399,0,0
239866.8,208.372,-757.747,0,0
240127.125,207.64,-756.362,0,0
240387.45,206.791,-755.187,0,0
240647.775,205.648,-753.966,0,0
240908.1,204.306,-752.745,0,0
241168.425,202.921,-751.614,0,0
241428.75,201.234,-750.438,0,0
241689.075,199.412,-749.115,0,0
241949.4,197.538,-747.721,0,0
242209.725,195.486,-746.263,0,0
242470.05,193.206,-744.614,0,0
242730.375,190.94,-742.666,0,0
242990.7,188.767,-740.487,0,0
243251.025,186.727,-738.166,0,0
243511.35,184.779,-735.758,0,0
243771.675,182.897,-733.287,0,0
244032.0,181.175,-730.604,0,0
244292.325,179.486,-727.816,0,0
244552.65,177.977,-725.036,0,0
244812.975,176.772,-722.169,0,0
245073.3,175.511,-719.58,0,0
245333.625,174.446,-716.832,0,0
245593.95,173.384,-714.159,0,0
245854.275,172.304,-711.331,0,0
246114.6,171.484,-708.388,0,0
246374.925,170.899,-705.518,0,0
246635.25,170.509,-702.756,0,0
246895.575,170.241,-700.155,0,0
247155.9,170.102,-697.781,0,0
247416.225,169.829,-695.646,0,0
247676.55,169.45,-693.657,0,0
247936.875,168.926,-691.634,0,0
248197.2,168.312,-689.624,0,0
248457.525,167.544,-687.551,0,0
248717.85,166.715,-685.273,0,0
248978.175,165.986,-682.845,0,0
249238.5,165.312,-680.272,0,0
249498.825,164.625,-677.621,0,0
249759.15,164.201,-674.839,0,0
250019.475,163.876,-671.991,0,0
250279.8,163.754,-669.076,0,0
250540,163.815,-666.231,0,0
250800,163.957,-663.415,0,0
251061,164.306,-660.574,0,0
251321,164.81,-657.784,0,0
251581,165.531,-654.958,0,0
251842,166.447,-652.309,0,0
252102,167.649,-649.738,0,0
252362,169.092,-647.428,0,0
252623,170.563,-645.463,0,0
252883,172.158,-643.806,0,0
253143,173.695,-642.541,0,0
253404,175.021,-641.527,0,0
253664,176.074,-640.692,0,0
253924,176.894,-639.91,0,0
254185,177.529,-639.135,0,0
254445,177.994,-638.312,0,0
254705,178.23,-637.366,0,0
254966,178.431,-636.242,0,0
255226,178.674,-635.028,0,0
255486,179.002,-633.701,0,0
255747,179.431,-632.341,0,0
256007,179.869,-630.893,0,0
256267,180.417,-629.51,0,0
256528,181.07,-628.145,0,0
256788,181.688,-626.811,0,0
257048,182.398,-625.494,0,0
257309,183.092,-624.151,0,0
257569,183.862,-622.755,0,0
257829,184.793,-621.374,0,0
258090,185.83,-620.084,0,0
258350,186.967,-618.838,0,0
258610,188.178,-617.707,0,0
258871,189.523,-616.71,0,0
259131,190.868,-615.799,0,0
259391,192.276,-615.069,0,0
259651,193.657,-614.462,0,0
259912,195.141,-614.009,0,0
260172,196.457,-613.785,0,0
260432,197.591,-613.65,0,0
260693,198.593,-613.474,0,0
260953,199.603,-613.331,0,0
261213,200.597,-613.224,0,0
261474,201.578,-613.158,0,0
261734,202.474,-613.135,0,0
261994,203.373,-613.185,0,0
262255,204.218,-613.294,0,0
262515,204.992,-613.496,0,0
262775,205.541,-613.72,0,0
263036,205.923,-613.85,0,0
263296,206.309,-613.764,0,0
263556,206.815,-613.644,0,0
263817,207.344,-613.565,0,0
264077,207.756,-613.595,0,0
264337,208.159,-613.517,0,0
264598,208.425,-613.31,0,0
264858,208.79,-612.885,0,0
265118,209.149,-612.272,0,0
265379,209.892,-611.552,0,0
265639,210.76,-610.795,0,0
265899,211.808,-610.068,0,0
266160,213.068,-609.319,0,0
266420,214.651,-608.63,0,0
266680.25,216.509,-608.094,0,0
266940.575,218.631,-607.765,0,0
267200.9,220.934,-607.699,0,0
267461.225,223.362,-607.846,0,0
267721.55,226.042,-608.394,0,0
267981.875,228.779,-609.396,0,0
268242.2,231.481,-610.703,0,0
268502.525,234.222,-612.434,0,0
268762.85,236.855,-614.64,0,0
269023.175,239.337,-617.344,0,0
269283.5,241.485,-620.443,0,0
269543.825,243.191,-623.908,0,0
269804.15,244.499,-627.447,0,0
270064.475,245.588,-631.175,0,0
270324.8,246.384,-634.956,0,0
270585.125,246.961,-639.099,0,0
270845.45,247.055,-643.267,0,0
271105.775,246.789,-647.574,0,0
271366.1,246.065,-652.118,0,0
271626.425,244.829,-656.559,0,0
271886.75,243.17,-660.884,0,0
272147.075,241.132,-665.082,0,0
272407.4,238.737,-669.242,0,0
272667.725,235.912,-673.273,0,0
272928.05,232.677,-677.086,0,0
273188.375,229.004,-680.572,0,0
273448.7,225.019,-683.779,0,0
273709.025,220.708,-686.558,0,0
273969.35,216.157,-688.89,0,0
274229.675,211.454,-690.852,0,0
274490.0,206.631,-692.37,0,0
274750.325,201.691,-693.439,0,0
275010.65,196.761,-694.018,0,0
275270.975,191.977,-694.24,0,0
275531.3,187.237,-693.889,0,0
275791.625,182.772,-693.277,0,0
276051.95,178.518,-692.342,0,0
276312.275,174.668,-691.393,0,0
276572.6,170.804,-690.187,0,0
276832.925,167.138,-688.796,0,0
277093.25,163.655,-687.286,0,0
277353.575,160.381,-685.593,0,0
277613.9,157.291,-683.834,0,0
277874.225,154.41,-682.078,0,0
278134.55,151.649,-680.218,0,0
278394.875,148.949,-678.354,0,0
278655.2,146.348,-676.402,0,0
278915.525,143.87,-674.331,0,0
279175.85,141.57,-672.151,0,0
279436.175,139.405,-669.868,0,0
279696.5,137.462,-667.556,0,0
279956.825,135.681,-665.163,0,0
280217.15,134.144,-662.79,0,0
280477.475,132.83,-660.39,0,0
280737.8,131.699,-658.114,0,0
280998.125,130.77,-655.863,0,0
281258.45,129.971,-653.737,0,0
281518.775,129.289,-651.734,0,0
281779.1,128.736,-649.862,0,0
282039.425,128.202,-648.129,0,0
282299.75,127.732,-646.47,0,0
282560,127.306,-644.91,0,0
282820,126.921,-643.462,0,0
283081,126.526,-642.131,0,0
283341,126.056,-640.903,0,0
283601,125.514,-639.687,0,0
283862,124.965,-638.408,0,0
284122,124.406,-637.152,0,0
284382,123.897,-635.786,0,0
284643,123.476,-634.459,0,0
284903,123.059,-633.079,0,0
285163,122.759,-631.671,0,0
285424,122.614,-630.226,0,0
285684,122.701,-628.839,0,0
285944,122.984,-627.575,0,0
286205,123.409,-626.502,0,0
286465,123.965,-625.64,0,0
286725,124.596,-625.038,0,0
286986,125.278,-624.744,0,0
287246,125.921,-624.822,0,0
287506,126.352,-625.232,0,0
287767,126.51,-625.945,0,0
288027,126.321,-626.809,0,0
288287,125.745,-627.709,0,0
288548,124.834,-628.564,0,0
288808,123.677,-629.263,0,0
289068,122.303,-629.815,0,0
289329,120.771,-630.177,0,0
289589,119.126,-630.415,0,0
289849,117.363,-630.4,0,0
290109,115.62,-630.238,0,0
290370,113.834,-629.909,0,0
290630,112.132,-629.384,0,0
290890,110.526,-628.788,0,0
291151,109.04,-628.165,0,0
291411,107.565,-627.593,0,0
291671,106.042,-627.023,0,0
291932,104.485,-626.462,0,0
292192,102.825,-625.819,0,0
292452,101.122,-625.064,0,0
292713,99.4038,-624.219,0,0
292973,97.697,-623.199,0,0
293233,96.0233,-622.096,0,0
293494,94.454,-620.947,0,0
293754,92.9304,-619.688,0,0
294014,91.4535,-618.43,0,0
294275,90.0104,-617.109,0,0
294535,88.6227,-615.754,0,0
294795,87.2696,-614.312,0,0
295056,85.9903,-612.848,0,0
295316,84.7473,-611.368,0,0
295576,83.5524,-609.834,0,0
295837,82.4121,-608.268,0,0
296097,81.3632,-606.651,0,0
296357,80.3763,-605.036,0,0
296618,79.4815,-603.443,0,0
296878,78.6304,-601.836,0,0
297138,77.8308,-600.259,0,0
297399,77.0707,-598.684,0,0
297659,76.3316,-597.13,0,0
297919,75.6441,-595.58,0,0
298180,74.9759,-594.013,0,0
298440,74.3333,-592.464,0,0
298700.2,73.7299,-590.889,0,0
298960.525,73.1741,-589.336,0,0
299220.85,72.6362,-587.822,0,0
299481.175,72.116,-586.255,0,0
299741.5,71.6317,-584.696,0,0
300001.825,71.1912,-583.122,0,0
300262.15,70.764,-581.519,0,0
300522.475,70.4244,-579.93,0,0
300782.8,70.1394,-578.314,0,0
301043.125,69.9228,-576.704,0,0
301303.45,69.801,-575.105,0,0
301563.775,69.7472,-573.547,0,0
301824.1,69.7593,-572.054,0,0
302084.425,69.8114,-570.611,0,0
302344.75,69.9166,-569.239,0,0
302605.075,70.0198,-567.963,0,0
302865.4,70.1578,-566.705,0,0
303125.725,70.301,-565.534,0,0
303386.05,70.4323,-564.403,0,0
303646.375,70.5648,-563.31,0,0
303906.7,70.6689,-562.231,0,0
304167.025,70.7911,-561.198,0,0
304427.35,70.8924,-560.189,0,0
304687.675,71.0213,-559.216,0,0
304948.0,71.1346,-558.232,0,0
305208.325,71.2722,-557.27,0,0
305468.65,71.4098,-556.333,0,0
305728.975,71.5776,-555.442,0,0
305989.3,71.7799,-554.589,0,0
306249.625,71.9703,-553.794,0,0
306509.95,72.1508,-553.057,0,0
306770.275,72.316,-552.363,0,0
307030.6,72.444,-551.691,0,0
307290.925,72.5728,-551.049,0,0
307551.25,72.6733,-550.422,0,0
307811.575,72.7775,-549.823,0,0
308071.9,72.9022,-549.279,0,0
308332.225,73.0054,-548.778,0,0
308592.55,73.076,-548.354,0,0
308852.875,73.1021,-547.994,0,0
309113.2,73.0421,-547.682,0,0
309373.525,72.878,-547.381,0,0
309633.85,72.6257,-547.041,0,0
309894.175,72.3271,-546.668,0,0
310154.5,71.9866,-546.231,0,0
310414.825,71.6381,-545.739,0,0
310675.15,71.3003,-545.21,0,0
310935.475,70.9701,-544.675,0,0
311195.8,70.6263,-544.142,0,0
311456.125,70.313,-543.586,0,0
311716.45,69.9729,-543.015,0,0
311976.775,69.644,-542.47,0,0
312237.1,69.2999,-541.924,0,0
312497.425,68.9519,-541.382,0,0
312757.75,68.566,-540.835,0,0
313018.075,68.1904,-540.284,0,0
313278.4,67.7849,-539.718,0,0
313538.725,67.3536,-539.154,0,0
313799.05,66.8908,-538.59,0,0
314059.375,66.4146,-537.973,0,0
314319.7,65.8792,-537.31,0,0
314580,65.4138,-536.645,0,0
314840,64.8368,-535.863,0,0
315101,64.3874,-535.135,0,0
315361,63.9491,-534.257,0,0
315621,63.4581,-533.4,0,0
315882,63.2002,-532.597,0,0
316142,62.8159,-531.743,0,0
316402,62.4872,-530.929,0,0
316663,62.0892,-529.994,0,0
316923,61.8807,-529.109,0,0
317183,61.6072,-528.253,0,0
317444,61.3815,-527.416,0,0
317704,61.2047,-526.634,0,0
317964,61.0088,-525.752,0,0
318225,60.9064,-524.946,0,0
318485,60.6891,-524.189,0,0
318745,60.6608,-523.401,0,0
319006,60.4985,-522.645,0,0
319266,60.4345,-521.842,0,0
319526,60.3507,-521.214,0,0
319787,60.2841,-520.505,0,0
320047,60.2044,-519.967,0,0
320307,60.1572,-519.273,0,0
320567,60.0769,-518.661,0,0
320828,60.022,-518.147,0,0
321088,59.8202,-517.713,0,0
321348,59.7136,-517.221,0,0
321609,59.5307,-516.74,0,0
321869,59.2474,-516.297,0,0
322129,59.0327,-515.82,0,0
322390,58.7447,-515.343,0,0
322650,58.4598,-514.787,0,0
322910,58.0828,-514.319,0,0
323171,57.8031,-513.782,0,0
323431,57.5354,-513.3,0,0
323691,57.129,-512.858,0,0
323952,56.7879,-512.304,0,0
324212,56.3694,-511.836,0,0
324472,55.9485,-511.304,0,0
324733,55.5058,-510.769,0,0
324993,55.0254,-510.181,0,0
325253,54.5256,-509.598,0,0
325514,54.0492,-508.948,0,0
325774,53.5629,-508.273,0,0
326034,53.0417,-507.573,0,0
326295,52.6025,-506.831,0,0
326555,52.2055,-506.074,0,0
326815,51.7646,-505.256,0,0
327076,51.3756,-504.568,0,0
327336,51.0024,-503.752,0,0
327596,50.6386,-502.99,0,0
327857,50.2234,-502.187,0,0
328117,49.8285,-501.36,0,0
328377,49.538,-500.621,0,0
328638,49.2088,-499.769,0,0
328898,48.836,-498.963,0,0
329158,48.5392,-498.174,0,0
329419,48.1994,-497.429,0,0
329679,47.8952,-496.55,0,0
329939,47.6008,-495.763,0,0
330200,47.2781,-494.944,0,0
330460,46.9669,-494.106,0,0
330720.15,46.675,-493.253,0,0
330980.475,46.4005,-492.434,0,0
331240.8,46.0767,-491.534,0,0
331501.125,45.8696,-490.638,0,0
331761.45,45.6387,-489.814,0,0
332021.775,45.3733,-488.918,0,0
332282.1,45.1698,-488.068,0,0
332542.425,44.9486,-487.174,0,0
332802.75,44.8137,-486.252,0,0
333063.075,44.6061,-485.401,0,0
333323.4,44.4742,-484.527,0,0
333583.725,44.3944,-483.626,0,0
333844.05,44.2153,-482.738,0,0
334104.375,44.1735,-481.86,0,0
334364.7,44.0827,-481.047,0,0
334625.025,44.0024,-480.167,0,0
334885.35,43.9994,-479.283,0,0
335145.675,44.0004,-478.451,0,0
335406.0,44.0278,-477.674,0,0
335666.325,44,-476.881,0,0
335926.65,44.0138,-476.174,0,0
336186.975,44.0418,-475.428,0,0
336447.3,44.0509,-474.698,0,0
336707.625,44.0541,-474.025,0,0
336967.95,44.0338,-473.329,0,0
337228.275,44.0481,-472.649,0,0
337488.6,44.0253,-471.973,0,0
337748.925,44.0241,-471.371,0,0
338009.25,44.0409,-470.686,0,0
338269.575,43.9316,-470.061,0,0
338529.9,43.979,-469.494,0,0
338790.225,43.8824,-468.901,0,0
339050.55,43.8568,-468.322,0,0
339310.875,43.7588,-467.687,0,0
339571.2,43.6438,-467.132,0,0
339831.525,43.5695,-466.472,0,0
340091.85,43.4103,-465.954,0,0
340352.175,43.2677,-465.325,0,0
340612.5,43.1721,-464.685,0,0
340872.825,42.98,-464.163,0,0
341133.15,42.8689,-463.43,0,0
341393.475,42.6675,-462.891,0,0
341653.8,42.4951,-462.24,0,0
341914.125,42.3412,-461.552,0,0
342174.45,42.1499,-460.847,0,0
342434.775,42.0176,-460.197,0,0
342695.1,41.8376,-459.473,0,0
342955.425,41.6721,-458.833,0,0
343215.75,41.5333,-458.079,0,0
343476.075,41.378,-457.385,0,0
343736.4,41.2788,-456.658,0,0
343996.725,41.1545,-455.9,0,0
344257.05,40.9995,-455.153,0,0
344517.375,40.9041,-454.423,0,0
344777.7,40.8168,-453.708,0,0
345038.025,40.7523,-452.998,0,0
345298.35,40.6094,-452.246,0,0
345558.675,40.54,-451.486,0,0
345819.0,40.547,-450.761,0,0
346079.325,40.4395,-450.001,0,0
346339.65,40.3942,-449.208,0,0
346599.975,40.3644,-448.507,0,0
346860,40.3745,-447.744,0,0
347121,40.3824,-446.987,0,0
347381,40.3543,-446.262,0,0
347641,40.3667,-445.5,0,0
347902,40.3811,-444.771,0,0
348162,40.4191,-444.06,0,0
348422,40.4161,-443.359,0,0
348683,40.4688,-442.674,0,0
348943,40.5145,-441.976,0,0
349203,40.6016,-441.258,0,0
349464,40.6665,-440.547,0,0
349724,40.6848,-439.886,0,0
349984,40.768,-439.18,0,0
350245,40.7852,-438.52,0,0
350505,40.9617,-437.838,0,0
350765,41.035,-437.24,0,0
351025,41.1327,-436.582,0,0
351286,41.2528,-435.972,0,0
351546,41.3686,-435.318,0,0
351806,41.4722,-434.722,0,0
352067,41.4938,-434.196,0,0
352327,41.5968,-433.579,0,0
352587,41.6805,-433.021,0,0
352848,41.7158,-432.418,0,0
353108,41.8355,-431.841,0,0
353368,41.9279,-431.315,0,0
353629,41.985,-430.67,0,0
353889,42.0579,-430.174,0,0
354149,42.1538,-429.554,0,0
354410,42.2421,-429.004,0,0
354670,42.3019,-428.503,0,0
354930,42.3804,-427.944,0,0
355191,42.4992,-427.454,0,0
355451,42.5317,-426.906,0,0
355711,42.6867,-426.389,0,0
355972,42.719,-425.948,0,0
356232,42.8156,-425.467,0,0
356492,42.8368,-424.999,0,0
356753,42.8615,-424.513,0,0
357013,42.8647,-424.096,0,0
357273,42.8528,-423.636,0,0
357534,42.8183,-423.116,0,0
357794,42.7919,-422.636,0,0
358054,42.7731,-422.146,0,0
358315,42.7201,-421.614,0,0
358575,42.7292,-421.116,0,0
358835,42.6401,-420.569,0,0
359096,42.5988,-420.045,0,0
359356,42.5767,-419.539,0,0
359616,42.5015,-418.945,0,0
359877,42.5037,-418.374,0,0
360137,42.4171,-417.798,0,0
360397,42.4275,-417.214,0,0
360658,42.4487,-416.628,0,0
360918,42.4355,-416.086,0,0
361178,42.4441,-415.523,0,0
361438,42.4354,-414.898,0,0
361699,42.4192,-414.389,0,0
361959,42.4635,-413.729,0,0
362219,42.5041,-413.166,0,0
362480,42.5373,-412.567,0,0
362740.1,42.4958,-411.965,0,0
363000.425,42.5567,-411.324,0,0
363260.75,42.6277,-410.767,0,0
363521.075,42.6734,-410.133,0,0
363781.4,42.7484,-409.51,0,0
364041.725,42.8249,-408.914,0,0
364302.05,42.9028,-408.304,0,0
364562.375,43.0147,-407.709,0,0
364822.7,43.1237,-407.134,0,0
365083.025,43.2685,-406.549,0,0
365343.35,43.4154,-405.934,0,0
365603.675,43.5487,-405.389,0,0
365864.0,43.7305,-404.853,0,0
366124.325,43.9152,-404.334,0,0
366384.65,44.0366,-403.83,0,0
366644.975,44.2283,-403.344,0,0
366905.3,44.3623,-402.863,0,0
367165.625,44.465,-402.402,0,0
367425.95,44.5975,-401.912,0,0
367686.275,44.685,-401.449,0,0
367946.6,44.8123,-400.956,0,0
368206.925,44.884,-400.466,0,0
368467.25,44.9578,-399.958,0,0
368727.575,45.0798,-399.405,0,0
368987.9,45.2188,-398.868,0,0
369248.225,45.3318,-398.344,0,0
369508.55,45.5256,-397.764,0,0
369768.875,45.6814,-397.235,0,0
370029.2,45.9951,-396.712,0,0
370289.525,46.2386,-396.226,0,0
370549.85,46.5166,-395.737,0,0
370810.175,46.8137,-395.329,0,0
371070.5,47.1015,-394.987,0,0
371330.825,47.3465,-394.608,0,0
371591.15,47.6073,-394.302,0,0
371851.475,47.8026,-394.05,0,0
372111.8,48.013,-393.763,0,0
372372.125,48.2057,-393.477,0,0
372632.45,48.3517,-393.237,0,0
372892.775,48.4944,-392.949,0,0
373153.1,48.6019,-392.697,0,0
373413.425,48.7118,-392.496,0,0
373673.75,48.7981,-392.234,0,0
373934.075,48.8415,-391.978,0,0
374194.4,48.8547,-391.735,0,0
374454.725,48.8532,-391.448,0,0
374715.05,48.8777,-391.157,0,0
374975.375,48.865,-390.879,0,0
375235.7,48.8647,-390.528,0,0
375496.025,48.8619,-390.201,0,0
375756.35,48.9018,-389.811,0,0
376016.675,48.9274,-389.465,0,0
376277.0,48.9842,-389.103,0,0
376537.325,49.0184,-388.777,0,0
376797.65,49.1006,-388.448,0,0
377057.975,49.2208,-388.102,0,0
377318.3,49.2798,-387.833,0,0
377578.625,49.3239,-387.52,0,0
377838.95,49.4142,-387.332,0,0
378099.275,49.3961,-387.104,0,0
378359.6,49.3795,-386.918,0,0
378619.925,49.3268,-386.675,0,0
378880,49.1943,-386.394,0,0
379141,49.0827,-386.085,0,0
379401,48.9274,-385.744,0,0
379661,48.8154,-385.375,0,0
379922,48.6975,-384.87,0,0
380182,48.716,-384.414,0,0
380442,48.7516,-383.877,0,0
380703,48.9006,-383.4,0,0
380963,49.0691,-383.04,0,0
381223,49.2614,-382.736,0,0
381483,49.4799,-382.52,0,0
381744,49.6382,-382.406,0,0
382004,49.7213,-382.32,0,0
382264,49.7,-382.264,0,0
382525,49.6467,-382.214,0,0
382785,49.4748,-382.138,0,0
383045,49.3019,-382.035,0,0
383306,49.019,-381.884,0,0
383566,48.7482,-381.68,0,0
383826,48.4697,-381.455,0,0
384087,48.1224,-381.162,0,0
384347,47.8472,-380.874,0,0
384607,47.5313,-380.482,0,0
384868,47.2223,-380.133,0,0
385128,46.9052,-379.685,0,0
385388,46.6248,-379.222,0,0
385649,46.2949,-378.717,0,0
385909,46.0631,-378.21,0,0
386169,45.8266,-377.699,0,0
386430,45.5944,-377.174,0,0
386690,45.3696,-376.6,0,0
386950,45.2243,-376.048,0,0
387211,44.9966,-375.49,0,0
387471,44.863,-374.879,0,0
387731,44.7176,-374.273,0,0
387992,44.6186,-373.657,0,0
388252,44.5045,-373.06,0,0
388512,44.4403,-372.435,0,0
388773,44.4151,-371.829,0,0
389033,44.362,-371.236,0,0
389293,44.3887,-370.69,0,0
389554,44.36,-370.075,0,0
389814,44.4136,-369.524,0,0
390074,44.4449,-368.975,0,0
390335,44.4684,-368.48,0,0
390595,44.5185,-367.969,0,0
390855,44.5076,-367.517,0,0
391116,44.5193,-366.997,0,0
391376,44.5305,-366.525,0,0
391636,44.5356,-366.012,0,0
391896,44.4742,-365.536,0,0
392157,44.4836,-365.031,0,0
392417,44.4613,-364.506,0,0
392677,44.4521,-364.008,0,0
392938,44.4743,-363.462,0,0
393198,44.4661,-362.998,0,0
393458,44.4616,-362.46,0,0
393719,44.4809,-361.972,0,0
393979,44.4705,-361.442,0,0
394239,44.535,-360.914,0,0
394500,44.5549,-360.403,0,0
394760.05,44.5551,-359.901,0,0
395020.375,44.5962,-359.373,0,0
395280.7,44.5928,-358.871,0,0
395541.025,44.6539,-358.329,0,0
395801.35,44.6743,-357.833,0,0
396061.675,44.7509,-357.32,0,0
396322.0,44.8295,-356.773,0,0
396582.325,44.8702,-356.281,0,0
396842.65,44.9425,-355.799,0,0
397102.975,45.0466,-355.297,0,0
397363.3,45.0818,-354.841,0,0
397623.625,45.1807,-354.368,0,0
397883.95,45.2359,-353.932,0,0
398144.275,45.292,-353.495,0,0
398404.6,45.3259,-353.017,0,0
398664.925,45.3577,-352.574,0,0
398925.25,45.3978,-352.151,0,0
399185.575,45.4264,-351.675,0,0
399445.9,45.438,-351.194,0,0
399706.225,45.4424,-350.723,0,0
399966.55,45.4423,-350.269,0,0
400006.6,45.4426,-350.191,0,0