File: Accelerated corrosion test data/2025-10-06_06-00-03/sample_2.csv
Frequency (Hz),Impedance (ohms),Phase (Radians),Temperature (C),Humidity (%)
10000.0,231.488,-11370.5,0,0
10260.325,225.6,-11083.9,0,0
10520.65,220.531,-10812,0,0
10780.975,215.342,-10552.9,0,0
11041.3,209.844,-10306.7,0,0
11301.625,205.696,-10070.2,0,0
11561.95,202.263,-9844.66,0,0
11822.275,199.27,-9633.97,0,0
12082.6,196.683,-9427.78,0,0
12342.925,189.063,-9231.38,0,0
12603.25,185.377,-9041.25,0,0
12863.575,181.647,-8858.35,0,0
13123.9,179.488,-8686.61,0,0
13384.225,175.271,-8516.16,0,0
13644.55,172.117,-8351.46,0,0
13904.875,186.154,-8196.64,0,0
14165.2,166.454,-8054.31,0,0
14425.525,164.004,-7907.79,0,0
14685.8,164.476,-7761.24,0,0
14946.175,162.19,-7634.71,0,0
15206.5,168.502,-7508.14,0,0
15466.825,162.78,-7377.48,0,0
15727.15,152.91,-7265.83,0,0
15987.5,149.145,-7145.15,0,0
16247.8,148.854,-7030.51,0,0
16508.125,144.421,-6921.8,0,0
16768.45,142.128,-6814.1,0,0
17028.775,140.886,-6710.45,0,0
17289.1,139.487,-6610.32,0,0
17549.425,135.817,-6511.83,0,0
17809.75,134.4,-6416.61,0,0
18070.075,132.511,-6323.78,0,0
18330.4,130.329,-6233.78,0,0
18590.725,129.018,-6146.12,0,0
18851.05,127.969,-6060.82,0,0
19111.375,129.517,-5979.29,0,0
19371.7,129.172,-5901.68,0,0
19632.025,123.896,-5824.78,0,0
19892.35,121.327,-5747.26,0,0
20152.675,119.762,-5672.04,0,0
20413.0,118.925,-5598.23,0,0
20673.3,118.073,-5526.06,0,0
20933.65,118.715,-5454.98,0,0
21193.975,124.034,-5387.72,0,0
21454.3,129.385,-5324.18,0,0
21714.625,128.38,-5269.13,0,0
21974.9,121.697,-5206.73,0,0
22235.275,119.976,-5152.66,0,0
22495.6,115.348,-5092.25,0,0
22755.925,111.867,-5031.66,0,0
23016.25,112.315,-4976.32,0,0
23276.6,113.414,-4920.35,0,0
23536.9,109.024,-4866.64,0,0
23797.225,107.496,-4813.07,0,0
24057.55,106.776,-4762.18,0,0
24317.875,103.964,-4711.87,0,0
24578.2,101.936,-4660.54,0,0
24838.525,100.473,-4611.41,0,0
25098.85,99.1695,-4562.56,0,0
25359.175,98.594,-4515.43,0,0
25619.5,97.7258,-4469.67,0,0
25879.8,96.7404,-4423.52,0,0
26140.1,96.8886,-4378.75,0,0
26400.5,96.3076,-4335.77,0,0
26660.8,96.6956,-4294.13,0,0
26921.1,95.346,-4252.34,0,0
27181.4,94.5039,-4212.67,0,0
27441.8,92.6948,-4172.33,0,0
27702.1,91.0932,-4132.51,0,0
27962.4,89.9805,-4092.71,0,0
28222.7,90.7734,-4053.52,0,0
28483.1,90.0679,-4016.73,0,0
28743.4,89.423,-3980.2,0,0
29003.7,90.4878,-3941.59,0,0
29264,91.6363,-3907.69,0,0
29524.4,92.5991,-3870.71,0,0
29784.7,97.1011,-3841.59,0,0
30045,92.9838,-3810.85,0,0
30305.3,94.0678,-3777.77,0,0
30565.7,91.2564,-3750.4,0,0
30826,88.1708,-3717.96,0,0
31086.3,86.9061,-3685.46,0,0
31346.6,85.0943,-3655.45,0,0
31607,84.9454,-3623.81,0,0
31867.3,83.9339,-3595.06,0,0
32127.6,82.189,-3564.7,0,0
32387.9,82.3573,-3534.43,0,0
32648.3,83.5054,-3506.62,0,0
32908.6,83.5512,-3480.7,0,0
33168.9,81.6564,-3453.75,0,0
33429.2,79.7818,-3426.83,0,0
33689.6,79.8009,-3399.7,0,0
33949.9,78.6243,-3373.97,0,0
34210.2,77.4101,-3348.22,0,0
34470.5,76.4491,-3322.4,0,0
34730.9,76.1003,-3296.69,0,0
34991.2,75.316,-3271.67,0,0
35251.5,74.9414,-3247.16,0,0
35511.8,74.4507,-3222.92,0,0
35772.2,73.8512,-3199.23,0,0
36032.5,73.4692,-3175.8,0,0
36292.8,72.5444,-3152.69,0,0
36553.1,72.1274,-3129.83,0,0
36813.5,71.9016,-3107.26,0,0
37073.8,71.2453,-3084.93,0,0
37334.1,71.0128,-3063.33,0,0
37594.4,70.8992,-3041.67,0,0
37854.8,70.4677,-3020.36,0,0
38115.1,70.0433,-2999.8,0,0
38375.4,69.3339,-2979.19,0,0
38635.7,68.938,-2958.55,0,0
38896.1,68.8478,-2938.31,0,0
39156.4,68.3111,-2918.41,0,0
39416.7,67.7444,-2898.78,0,0
39677,67.2839,-2879.33,0,0
39937.4,66.9646,-2860.23,0,0
40197.7,66.7852,-2841.21,0,0
40458,66.4408,-2822.39,0,0
40718.3,66.1087,-2803.71,0,0
40978.7,66.093,-2785.82,0,0
41239,65.6978,-2767.93,0,0
41499.3,65.8133,-2749.95,0,0
41759.6,65.1943,-2732.86,0,0
42020,65.1003,-2715.14,0,0
42280.275,65.1532,-2698.27,0,0
42540.6,64.7508,-2681.84,0,0
42800.925,64.2586,-2664.8,0,0
43061.25,64.0285,-2648.42,0,0
43321.575,63.6773,-2632.01,0,0
43581.9,63.4615,-2615.87,0,0
43842.225,63.2909,-2599.94,0,0
44102.55,63.0085,-2584.09,0,0
44362.875,62.8605,-2568.79,0,0
44623.2,62.439,-2553.49,0,0
44883.525,62.0608,-2538.21,0,0
45143.85,62.0058,-2522.73,0,0
45404.175,61.9963,-2507.98,0,0
45664.5,61.7253,-2493.32,0,0
45924.825,61.2831,-2478.57,0,0
46185.15,61.8882,-2464.32,0,0
46445.475,61.3724,-2450.6,0,0
46705.8,60.9374,-2436.41,0,0
46966.125,60.7436,-2422.31,0,0
47226.45,60.7075,-2408.4,0,0
47486.775,61.1533,-2394.9,0,0
47747.1,60.7979,-2381.79,0,0
48007.425,60.5618,-2368.27,0,0
48267.75,60.9317,-2354.67,0,0
48528.075,61.7793,-2342.29,0,0
48788.4,61.1914,-2330.46,0,0
49048.725,60.4592,-2318.05,0,0
49309.05,60.0865,-2305.63,0,0
49569.375,59.2744,-2293.43,0,0
49829.7,58.9314,-2280.92,0,0
50090.025,58.4414,-2268.61,0,0
50350.35,58.0302,-2256.39,0,0
50610.675,57.6641,-2244.14,0,0
50871.0,57.6753,-2232.12,0,0
51131.325,57.7078,-2220.56,0,0
51391.65,57.2855,-2209.17,0,0
51651.975,56.6383,-2197.55,0,0
51912.3,56.3595,-2185.96,0,0
52172.625,55.8418,-2174.45,0,0
52432.95,55.6199,-2163.09,0,0
52693.275,55.3451,-2151.78,0,0
52953.6,55.1885,-2140.57,0,0
53213.925,54.9578,-2129.45,0,0
53474.25,54.8631,-2118.49,0,0
53734.575,54.6999,-2107.7,0,0
53994.9,54.4425,-2096.89,0,0
54255.225,54.3738,-2086.22,0,0
54515.55,54.3117,-2075.62,0,0
54775.875,54.2141,-2065.31,0,0
55036.2,54.0815,-2054.93,0,0
55296.525,54.0808,-2044.58,0,0
55556.85,54.0332,-2034.44,0,0
55817.175,53.9552,-2024.34,0,0
56077.5,53.9477,-2014.45,0,0
56337.825,53.865,-2004.51,0,0
56598.15,53.7751,-1994.64,0,0
56858.475,53.7905,-1984.85,0,0
57118.8,53.964,-1975.23,0,0
57379.125,53.9098,-1965.82,0,0
57639.45,53.9179,-1956.23,0,0
57899.775,54.0093,-1946.9,0,0
58160.1,54.2233,-1937.91,0,0
58420.4,53.947,-1928.61,0,0
58680.7,53.9696,-1919.33,0,0
58941.1,54.2189,-1910.1,0,0
59201.4,54.332,-1901.15,0,0
59461.7,54.6124,-1892.1,0,0
59722,54.73,-1883.29,0,0
59982.4,55.372,-1874.37,0,0
60242.7,56.1927,-1866.1,0,0
60503,56.3304,-1858.15,0,0
60763.3,56.314,-1849.96,0,0
61023.7,56.4255,-1841.48,0,0
61284,57.0548,-1832.94,0,0
61544.3,58.3113,-1825.34,0,0
61804.6,58.7532,-1818.32,0,0
62065,58.7581,-1811.54,0,0
62325.3,58.129,-1804.59,0,0
62585.6,57.465,-1796.83,0,0
62845.9,57.1878,-1789.51,0,0
63106.3,57.0373,-1782.45,0,0
63366.6,56.0222,-1775.32,0,0
63626.9,55.0096,-1767.59,0,0
63887.2,54.5322,-1759.89,0,0
64147.6,53.9516,-1752.29,0,0
64407.9,53.3431,-1744.91,0,0
64668.2,52.6571,-1737.3,0,0
64928.5,52.0811,-1729.56,0,0
65188.9,51.3817,-1721.84,0,0
65449.2,50.9453,-1713.96,0,0
65709.5,50.776,-1706.08,0,0
65969.8,50.7889,-1698.43,0,0
66230.2,50.7853,-1690.74,0,0
66490.5,50.7692,-1683.31,0,0
66750.8,50.9849,-1676.07,0,0
67011.1,50.7643,-1668.6,0,0
67271.5,51.2429,-1660.81,0,0
67531.8,51.844,-1653.61,0,0
67792.1,52.6311,-1646.8,0,0
68052.4,53.2124,-1640.2,0,0
68312.8,53.4968,-1633.85,0,0
68573.1,53.6711,-1627.32,0,0
68833.4,53.9924,-1620.97,0,0
69093.7,54.4812,-1614.42,0,0
69354.1,55.0914,-1608.63,0,0
69614.4,55.0047,-1602.66,0,0
69874.7,55.7259,-1596.81,0,0
70135,55.7401,-1591.86,0,0
70395.4,55.1273,-1586.55,0,0
70655.7,54.2456,-1581.27,0,0
70916,52.9995,-1575.3,0,0
71176.3,52.4285,-1569.02,0,0
71436.7,51.8658,-1563.15,0,0
71697,51.161,-1557.31,0,0
71957.3,50.1717,-1551.56,0,0
72217.6,48.7295,-1545.35,0,0
72478,47.7709,-1538.69,0,0
72738.3,47.0807,-1531.93,0,0
72998.6,46.5787,-1525.39,0,0
73258.9,46.4112,-1518.97,0,0
73519.3,45.8113,-1512.65,0,0
73779.6,45.2781,-1506.02,0,0
74039.9,45.0295,-1499.33,0,0
74300.225,45.0976,-1492.75,0,0
74560.55,45.1514,-1486.56,0,0
74820.875,45.1236,-1480.22,0,0
75081.2,45.3252,-1473.92,0,0
75341.525,45.4747,-1467.7,0,0
75601.85,45.6471,-1461.55,0,0
75862.175,45.9789,-1455.47,0,0
76122.5,46.4868,-1449.46,0,0
76382.825,46.9773,-1443.59,0,0
76643.15,47.4161,-1437.93,0,0
76903.475,47.836,-1432.23,0,0
77163.8,48.2405,-1426.51,0,0
77424.125,48.9618,-1420.88,0,0
77684.45,49.7357,-1415.55,0,0
77944.775,50.4001,-1410.25,0,0
78205.1,51.2044,-1405.17,0,0
78465.425,51.9764,-1400.46,0,0
78725.75,52.4635,-1395.95,0,0
78986.075,52.8817,-1391.31,0,0
79246.4,53.2825,-1387.01,0,0
79506.725,53.3683,-1382.86,0,0
79767.05,53.0932,-1378.78,0,0
80027.375,52.616,-1374.47,0,0
80287.7,51.8859,-1369.94,0,0
80548.025,51.2097,-1365.24,0,0
80808.35,50.4869,-1360.25,0,0
81068.675,50.0113,-1355.16,0,0
81329.0,49.554,-1350.18,0,0
81589.325,49.1798,-1345.04,0,0
81849.65,48.9007,-1339.95,0,0
82109.975,48.5449,-1334.88,0,0
82370.3,48.3329,-1329.81,0,0
82630.625,48.1795,-1324.74,0,0
82890.95,48.0246,-1319.54,0,0
83151.275,48.0895,-1314.45,0,0
83411.6,48.1887,-1309.36,0,0
83671.925,48.4062,-1304.4,0,0
83932.25,48.6326,-1299.53,0,0
84192.575,48.8486,-1294.81,0,0
84452.9,49.048,-1290.11,0,0
84713.225,49.1579,-1285.52,0,0
84973.55,49.1556,-1280.83,0,0
85233.875,49.3917,-1276.1,0,0
85494.2,49.6643,-1271.48,0,0
85754.525,49.8714,-1266.93,0,0
86014.85,50.1296,-1262.59,0,0
86275.175,50.3302,-1258.2,0,0
86535.5,50.4836,-1253.93,0,0
86795.825,50.4511,-1249.58,0,0
87056.15,50.6127,-1245.02,0,0
87316.475,50.9879,-1240.67,0,0
87576.8,51.4222,-1236.74,0,0
87837.125,51.2802,-1232.7,0,0
88097.45,51.1733,-1228.68,0,0
88357.775,51.0563,-1224.17,0,0
88618.1,51.4469,-1220.12,0,0
88878.425,51.1206,-1216.14,0,0
89138.75,50.8402,-1211.54,0,0
89399.075,51.1149,-1207.06,0,0
89659.4,51.2401,-1202.81,0,0
89919.725,51.8899,-1198.56,0,0
90180,51.9368,-1194.99,0,0
90440.4,51.9066,-1191.03,0,0
90700.7,51.5918,-1186.94,0,0
90961,51.4115,-1182.3,0,0
91221.3,52.0566,-1177.81,0,0
91481.7,52.5455,-1173.86,0,0
91742,52.8364,-1169.97,0,0
92002.3,52.9998,-1165.98,0,0
92262.6,53.3652,-1161.76,0,0
92523,54.1383,-1157.9,0,0
92783.3,54.5714,-1154.33,0,0
93043.6,55.0185,-1150.59,0,0
93303.9,55.582,-1147.03,0,0
93564.3,56.0097,-1143.86,0,0
93824.6,56.3899,-1140.58,0,0
94084.9,56.3002,-1137.77,0,0
94345.2,55.799,-1134.57,0,0
94605.6,55.122,-1130.84,0,0
94865.9,55.1696,-1126.77,0,0
95126.2,55.2358,-1123.29,0,0
95386.5,54.9121,-1119.67,0,0
95646.9,54.5235,-1115.74,0,0
95907.2,54.699,-1111.42,0,0
96167.5,55.2948,-1107.3,0,0
96427.8,56.2713,-1103.61,0,0
96688.2,57.1446,-1100.56,0,0
96948.5,57.4615,-1097.71,0,0
97208.8,57.7046,-1094.59,0,0
97469.1,58.1159,-1091.58,0,0
97729.5,58.3264,-1088.89,0,0
97989.8,58.4032,-1086.11,0,0
98250.1,58.2053,-1083.67,0,0
98510.4,57.7903,-1080.93,0,0
98770.8,57.3829,-1078.1,0,0
99031.1,56.9962,-1075.48,0,0
99291.4,56.0723,-1072.98,0,0
99551.7,54.7036,-1070.03,0,0
99812.1,53.4359,-1066.59,0,0
100072,52.3716,-1062.74,0,0
100333,51.6684,-1058.82,0,0
100593,51.243,-1054.97,0,0
100853,50.9355,-1051.49,0,0
101114,50.3502,-1048.1,0,0
101374,49.4961,-1044.64,0,0
101634,48.5644,-1040.77,0,0
101895,47.8522,-1036.7,0,0
102155,47.3357,-1032.53,0,0
102415,47.0732,-1028.39,0,0
102676,46.7896,-1024.41,0,0
102936,46.3674,-1020.3,0,0
103196,46.2322,-1015.96,0,0
103457,46.3619,-1011.79,0,0
103717,46.3733,-1007.73,0,0
103977,46.3933,-1003.25,0,0
104238,46.9701,-998.843,0,0
104498,47.731,-994.67,0,0
104758,48.6919,-990.714,0,0
105019,49.7158,-987.144,0,0
105279,50.5053,-983.739,0,0
105539,51.1721,-980.162,0,0
105800,52.2507,-976.541,0,0
106060,53.5418,-973.394,0,0
106320.175,54.5284,-970.579,0,0
106580.5,55.5138,-967.701,0,0
106840.825,56.5757,-965.341,0,0
107101.15,57.0619,-963.18,0,0
107361.475,57.2547,-960.868,0,0
107621.8,57.5914,-958.418,0,0
107882.125,57.8768,-956.105,0,0
108142.45,57.8134,-954.098,0,0
108402.775,57.2028,-951.87,0,0
108663.1,56.7147,-949.07,0,0
108923.425,56.3962,-946.53,0,0
109183.75,55.7102,-943.938,0,0
109444.075,54.8735,-940.958,0,0
109704.4,54.2864,-937.725,0,0
109964.725,53.7082,-934.614,0,0
110225.05,53.1166,-931.312,0,0
110485.375,52.7422,-927.79,0,0
110745.7,52.4,-924.275,0,0
111006.025,52.12,-920.708,0,0
111266.35,51.8826,-917.029,0,0
111526.675,52.1556,-913.583,0,0
111787.0,52.2312,-910.204,0,0
112047.325,52.2904,-906.768,0,0
112307.65,52.4197,-903.349,0,0
112567.975,52.4621,-899.987,0,0
112828.3,52.573,-896.429,0,0
113088.625,52.8301,-893.012,0,0
113348.95,53.089,-889.565,0,0
113609.275,53.4051,-886.097,0,0
113869.6,53.8178,-882.768,0,0
114129.925,54.1989,-879.405,0,0
114390.25,54.7198,-876.05,0,0
114650.575,55.2892,-872.781,0,0
114910.9,55.8405,-869.579,0,0
115171.225,56.3668,-866.364,0,0
115431.55,57.0061,-863.21,0,0
115691.875,57.7036,-860.115,0,0
115952.2,58.3296,-857.081,0,0
116212.525,58.9611,-854.012,0,0
116472.85,59.6636,-850.944,0,0
116733.175,60.4245,-848.02,0,0
116993.5,61.2439,-845.155,0,0
117253.825,62.0218,-842.406,0,0
117514.15,62.759,-839.672,0,0
117774.475,63.5094,-836.943,0,0
118034.8,64.3175,-834.295,0,0
118295.125,65.1121,-831.781,0,0
118555.45,65.7994,-829.312,0,0
118815.775,66.5568,-826.814,0,0
119076.1,67.3658,-824.472,0,0
119336.425,68.0136,-822.282,0,0
119596.75,68.6668,-820.05,0,0
119857.075,69.3236,-818.051,0,0
120117.4,69.7059,-816.215,0,0
120377.725,69.9424,-814.135,0,0
120638.05,70.1492,-812.198,0,0
120898.375,70.1313,-810.324,0,0
121158.7,69.8864,-808.225,0,0
121419.025,69.6333,-805.965,0,0
121679.35,69.4091,-803.56,0,0
121939.675,69.2396,-801.106,0,0
122200.0,69.0775,-798.714,0,0
122460,68.8911,-796.204,0,0
122721,68.6864,-793.624,0,0
122981,68.4715,-791.029,0,0
123241,68.3534,-788.374,0,0
123502,68.2306,-785.665,0,0
123762,68.1516,-782.953,0,0
124022,68.0274,-780.294,0,0
124283,67.8957,-777.544,0,0
124543,67.7444,-774.783,0,0
124803,67.571,-771.938,0,0
125064,67.4373,-768.986,0,0
125324,67.4331,-766.011,0,0
125584,67.4747,-762.985,0,0
125845,67.5447,-759.949,0,0
126105,67.6836,-756.923,0,0
126365,67.8938,-753.843,0,0
126626,68.1894,-750.802,0,0
126886,68.4782,-747.826,0,0
127146,68.9075,-744.784,0,0
127406,69.3306,-741.837,0,0
127667,69.8446,-738.739,0,0
127927,70.4194,-735.792,0,0
128187,70.9508,-733.086,0,0
128448,71.5031,-730.32,0,0
128708,72.0652,-727.55,0,0
128968,72.6552,-724.882,0,0
129229,73.2003,-722.235,0,0
129489,73.7427,-719.629,0,0
129749,74.2072,-717.054,0,0
130010,74.6234,-714.412,0,0
130270,75.1025,-711.811,0,0
130530,75.5794,-709.193,0,0
130791,76.0845,-706.614,0,0
131051,76.5444,-704.109,0,0
131311,76.9616,-701.582,0,0
131572,77.3549,-699.074,0,0
131832,77.7268,-696.572,0,0
132092,78.0345,-694.116,0,0
132353,78.2108,-691.589,0,0
132613,78.3576,-688.926,0,0
132873,78.5277,-686.182,0,0
133134,78.797,-683.38,0,0
133394,79.1284,-680.55,0,0
133654,79.4816,-677.755,0,0
133915,79.8622,-674.968,0,0
134175,80.2179,-672.205,0,0
134435,80.5209,-669.463,0,0
134696,80.7156,-666.533,0,0
134956,81.1366,-663.529,0,0
135216,81.6138,-660.57,0,0
135477,82.0969,-657.629,0,0
135737,82.6407,-654.717,0,0
135997,83.1163,-651.792,0,0
136258,83.5995,-648.786,0,0
136518,84.2062,-645.807,0,0
136778,84.7838,-642.818,0,0
137039,85.38,-639.854,0,0
137299,86.0348,-636.789,0,0
137559,86.8091,-633.779,0,0
137819,87.5765,-630.878,0,0
138080,88.2531,-628.03,0,0
138340.125,88.8396,-625.152,0,0
138600.45,89.3979,-622.174,0,0
138860.775,89.9335,-619.13,0,0
139121.1,90.4905,-615.95,0,0
139381.425,91.1528,-612.719,0,0
139641.75,91.8341,-609.487,0,0
139902.075,92.5288,-606.235,0,0
140162.4,93.1207,-602.891,0,0
140422.725,93.8086,-599.246,0,0
140683.05,94.7478,-595.376,0,0
140943.375,96.0029,-591.589,0,0
141203.7,97.3495,-587.974,0,0
141464.025,98.7027,-584.3,0,0
141724.35,100.248,-580.538,0,0
141984.675,101.981,-576.806,0,0
142245.0,103.94,-573.168,0,0
142505.325,106.003,-569.719,0,0
142765.65,108.093,-566.316,0,0
143025.975,110.384,-562.93,0,0
143286.3,112.802,-559.869,0,0
143546.625,115.073,-557.02,0,0
143806.95,117.191,-554.178,0,0
144067.275,119.35,-551.263,0,0
144327.6,121.532,-548.377,0,0
144587.925,123.712,-545.525,0,0
144848.25,125.878,-542.612,0,0
145108.575,128.17,-539.559,0,0
145368.9,130.717,-536.612,0,0
145629.225,133.263,-533.827,0,0
145889.55,135.805,-531.102,0,0
146149.875,138.329,-528.392,0,0
146410.2,140.877,-525.627,0,0
146670.525,143.516,-522.811,0,0
146930.85,146.266,-519.933,0,0
147191.175,149.174,-517.013,0,0
147451.5,152.348,-514.103,0,0
147711.825,155.746,-511.339,0,0
147972.15,159.278,-508.773,0,0
148232.475,162.793,-506.246,0,0
148492.8,166.513,-503.596,0,0
148753.125,170.616,-501.054,0,0
149013.45,174.97,-498.673,0,0
149273.775,179.74,-496.404,0,0
149534.1,185.088,-494.563,0,0
149794.425,190.64,-493.511,0,0
150054.75,196.157,-493.057,0,0
150315.075,201.679,-493.046,0,0
150575.4,207.233,-493.669,0,0
150835.725,212.608,-495.04,0,0
151096.05,217.558,-497.158,0,0
151356.375,221.789,-499.73,0,0
151616.7,225.41,-502.435,0,0
151877.025,228.757,-505.306,0,0
152137.35,231.583,-508.585,0,0
152397.675,233.629,-512.043,0,0
152658.0,235.002,-515.348,0,0
152918.325,235.888,-518.514,0,0
153178.65,236.162,-521.463,0,0
153438.975,236.04,-523.953,0,0
153699.3,235.798,-526.159,0,0
153959.625,235.288,-528.204,0,0
154219.95,234.442,-529.963,0,0
154480,233.314,-531.182,0,0
154741,232.432,-532.132,0,0
155001,231.43,-532.893,0,0
155261,230.224,-533.444,0,0
155522,229.262,-533.674,0,0
155782,228.172,-533.787,0,0
156042,227.191,-533.472,0,0
156303,226.344,-533.187,0,0
156563,225.555,-532.964,0,0
156823,224.479,-532.692,0,0
157084,223.383,-532.138,0,0
157344,222.304,-531.312,0,0
157604,221.164,-530.158,0,0
157864,220.266,-528.656,0,0
158125,219.975,-526.968,0,0
158385,219.922,-525.639,0,0
158645,219.745,-524.539,0,0
158906,219.505,-523.302,0,0
159166,219.305,-521.995,0,0
159426,219.139,-520.648,0,0
159687,219.019,-519.226,0,0
159947,218.948,-517.66,0,0
160207,219.177,-515.813,0,0
160468,219.792,-514.332,0,0
160728,220.242,-513.202,0,0
160988,220.61,-511.874,0,0
161249,221.008,-510.262,0,0
161509,222.184,-508.313,0,0
161769,224.105,-507.077,0,0
162030,226.171,-507.037,0,0
162290,227.789,-507.622,0,0
162550,228.69,-508.752,0,0
162811,229.071,-510.199,0,0
163071,228.671,-511.939,0,0
163331,227.237,-513.433,0,0
163592,225.107,-514.187,0,0
163852,222.956,-514.386,0,0
164112,220.688,-514.538,0,0
164373,218.066,-514.357,0,0
164633,215.037,-513.817,0,0
164893,211.655,-512.306,0,0
165154,208.797,-510.171,0,0
165414,206.194,-507.964,0,0
165674,203.375,-505.676,0,0
165935,200.435,-502.624,0,0
166195,197.94,-499.059,0,0
166455,195.894,-495.227,0,0
166716,194.117,-491.257,0,0
166976,192.725,-487.168,0,0
167236,191.528,-483.037,0,0
167497,190.612,-478.846,0,0
167757,189.771,-474.811,0,0
168017,189.005,-470.532,0,0
168277,188.366,-466.025,0,0
168538,188.012,-461.381,0,0
168798,188.068,-456.459,0,0
169058,188.773,-451.914,0,0
169319,189.533,-447.829,0,0
169579,189.913,-444.019,0,0
169839,190.06,-439.799,0,0
170100,190.454,-435.247,0,0
170360.075,191.103,-430.762,0,0
170620.4,191.915,-426.259,0,0
170880.725,192.754,-421.833,0,0
171141.05,193.472,-417.16,0,0
171401.375,194.468,-412.136,0,0
171661.7,195.939,-407.173,0,0
171922.025,197.557,-402.273,0,0
172182.35,199.397,-397.465,0,0
172442.675,201.354,-392.759,0,0
172703.0,203.207,-387.88,0,0
172963.325,205.418,-382.945,0,0
173223.65,207.826,-378.013,0,0
173483.975,210.494,-373.078,0,0
173744.3,213.297,-368.248,0,0
174004.625,216.2,-363.358,0,0
174264.95,219.354,-358.348,0,0
174525.275,222.863,-353.145,0,0
174785.6,226.971,-348.044,0,0
175045.925,231.701,-343.398,0,0
175306.25,236.454,-339.267,0,0
175566.575,241.187,-335.373,0,0
175826.9,246.022,-331.652,0,0
176087.225,251.052,-328.07,0,0
176347.55,256.292,-324.808,0,0
176607.875,261.5,-321.993,0,0
176868.2,266.588,-319.143,0,0
177128.525,272.014,-316.213,0,0
177388.85,278.107,-313.581,0,0
177649.175,284.707,-312.002,0,0
177909.5,291.109,-311.652,0,0
178169.825,296.625,-312.33,0,0
178430.15,300.846,-313.223,0,0
178690.475,304.472,-313.61,0,0
178950.8,307.79,-313.892,0,0
179211.125,310.696,-312.953,0,0
179471.45,313.588,-313.127,0,0
179731.775,316.055,-313.198,0,0
179992.1,318.058,-313.117,0,0
180252.425,319.573,-312.917,0,0
180512.75,320.396,-312.194,0,0
180773.075,320.753,-310.431,0,0
181033.4,321.403,-307.831,0,0
181293.725,322.145,-304.459,0,0
181554.05,323.461,-300.379,0,0
181814.375,325.546,-295.888,0,0
182074.7,328.242,-291.58,0,0
182335.025,331.183,-287.169,0,0
182595.35,334.465,-282.631,0,0
182855.675,338.037,-278.003,0,0
183116.0,341.929,-273.292,0,0
183376.325,346.189,-268.356,0,0
183636.65,350.909,-263.202,0,0
183896.975,356.536,-258.079,0,0
184157.3,362.506,-253.54,0,0
184417.625,368.639,-248.968,0,0
184677.95,375.352,-244.427,0,0
184938.275,382.621,-240.183,0,0
185198.6,390.287,-236.499,0,0
185458.925,398.034,-233.351,0,0
185719.25,405.893,-230.189,0,0
185979.575,414.188,-227.394,0,0
186239.9,422.641,-225.129,0,0
186500,431.24,-223.703,0,0
186761,439.47,-222.728,0,0
187021,446.831,-221.834,0,0
187281,454.157,-220.038,0,0
187542,462.442,-217.789,0,0
187802,471.749,-216.14,0,0
188062,481.334,-215.82,0,0
188322,490.118,-216.332,0,0
188583,498.187,-216.754,0,0
188843,506.25,-216.719,0,0
189103,514.53,-216.817,0,0
189364,522.648,-217.103,0,0
189624,530.581,-216.988,0,0
189884,538.815,-216.712,0,0
190145,547.472,-216.306,0,0
190405,556.388,-215.897,0,0
190665,565.685,-215.544,0,0
190926,575.318,-215.078,0,0
191186,585.711,-214.416,0,0
191446,597.174,-214.107,0,0
191707,609.364,-214.606,0,0
191967,621.911,-215.97,0,0
192227,634.647,-217.884,0,0
192488,647.896,-220.309,0,0
192748,661.664,-223.629,0,0
193008,675.86,-227.927,0,0
193269,690.372,-233.483,0,0
193529,704.829,-240.563,0,0
193789,718.604,-249.211,0,0
194050,731.128,-258.79,0,0
194310,742.538,-268.454,0,0
194570,753.599,-278.065,0,0
194831,764.589,-287.762,0,0
195091,775.769,-298.103,0,0
195351,786.752,-309.379,0,0
195612,797.103,-321.646,0,0
195872,806.575,-334.774,0,0
196132,814.669,-347.95,0,0
196393,822.152,-360.575,0,0
196653,829.742,-373.314,0,0
196913,837.175,-386.532,0,0
197174,844.275,-400.141,0,0
197434,851.022,-414.487,0,0
197694,856.683,-429.371,0,0
197955,861.508,-443.875,0,0
198215,866.565,-458.233,0,0
198475,871.621,-473.572,0,0
198735,875.689,-489.87,0,0
198996,878.631,-506.624,0,0
199256,880.299,-523.429,0,0
199516,880.816,-539.869,0,0
199777,880.633,-555.62,0,0
200037,880.478,-570.866,0,0
200297,880.86,-586.242,0,0
200558,880.808,-602.833,0,0
200818,879.477,-620.389,0,0
201078,876.573,-637.982,0,0
201339,872.361,-655.226,0,0
201599,867.047,-672.028,0,0
201859,861.003,-688.446,0,0
202120,853.816,-704.505,0,0
202380.025,845.685,-720.036,0,0
202640.35,836.367,-735.12,0,0
202900.675,825.511,-748.863,0,0
203161.0,814.358,-760.657,0,0
203421.325,803.449,-771.389,0,0
203681.65,792.598,-781.283,0,0
203941.975,781.969,-790.398,0,0
204202.3,771.485,-799.027,0,0
204462.625,760.852,-807.093,0,0
204722.95,750.689,-814.391,0,0
204983.275,740.882,-821.781,0,0
205243.6,730.85,-829.629,0,0
205503.925,719.672,-837.243,0,0
205764.25,707.45,-843.923,0,0
206024.575,694.997,-848.768,0,0
206284.9,683.292,-852.321,0,0
206545.225,672.231,-855.351,0,0
206805.55,661.63,-857.756,0,0
207065.875,651.832,-859.746,0,0
207326.2,642.432,-861.649,0,0
207586.525,633.232,-863.56,0,0
207846.85,624.029,-865.013,0,0
208107.175,615.363,-865.878,0,0
208367.5,607.462,-866.528,0,0
208627.825,600.354,-867.431,0,0
208888.15,593.393,-868.69,0,0
209148.475,586.742,-870.373,0,0
209408.8,579.956,-872.352,0,0
209669.125,572.882,-874.744,0,0
209929.45,565.382,-877.206,0,0
210189.775,557.24,-879.717,0,0
210450.1,548.615,-881.454,0,0
210710.425,539.744,-882.715,0,0
210970.75,531.123,-883.618,0,0
211231.075,522.258,-884.123,0,0
211491.4,513.147,-884.079,0,0
211751.725,504.153,-883.175,0,0
212012.05,495.596,-881.441,0,0
212272.375,487.744,-879.081,0,0
212532.7,480.779,-877.177,0,0
212793.025,473.763,-875.277,0,0
213053.35,466.862,-873.255,0,0
213313.675,460.049,-871.04,0,0
213574.0,453.445,-868.349,0,0
213834.325,447.279,-865.394,0,0
214094.65,441.524,-862.39,0,0
214354.975,436.174,-859.36,0,0
214615.3,431.107,-856.237,0,0
214875.625,426.512,-853.175,0,0
215135.95,422.073,-850.404,0,0
215396.275,417.601,-847.77,0,0
215656.6,413.212,-845.048,0,0
215916.925,409.023,-842.121,0,0
216177.25,404.941,-839.101,0,0
216437.575,401.129,-836.078,0,0
216697.9,397.552,-832.992,0,0
216958.225,394.181,-829.948,0,0
217218.55,390.986,-826.835,0,0
217478.875,388.023,-823.724,0,0
217739.2,385.311,-820.637,0,0
217999.525,382.892,-817.583,0,0
218259.85,380.743,-814.746,0,0
218520,378.613,-812.073,0,0
218780,376.531,-809.385,0,0
219041,374.722,-806.651,0,0
219301,373.096,-804.111,0,0
219561,371.635,-801.699,0,0
219822,370.292,-799.421,0,0
220082,369.001,-797.346,0,0
220342,367.673,-795.406,0,0
220603,366.282,-793.5,0,0
220863,364.905,-791.534,0,0
221123,363.664,-789.431,0,0
221384,362.633,-787.213,0,0
221644,361.903,-785.159,0,0
221904,361.512,-783.141,0,0
222165,361.232,-781.456,0,0
222425,361.211,-779.934,0,0
222685,361.214,-778.773,0,0
222946,361.29,-777.869,0,0
223206,361.336,-777.252,0,0
223466,361.349,-776.895,0,0
223727,361.116,-776.852,0,0
223987,360.664,-776.744,0,0
224247,360.17,-776.708,0,0
224508,359.694,-776.774,0,0
224768,359.034,-776.867,0,0
225028,358.265,-777.144,0,0
225289,357.306,-777.422,0,0
225549,356.373,-777.431,0,0
225809,355.36,-777.425,0,0
226070,354.533,-777.216,0,0
226330,353.952,-777.128,0,0
226590,353.423,-777.219,0,0
226851,353.099,-777.494,0,0
227111,352.672,-777.887,0,0
227371,352.288,-778.525,0,0
227632,351.891,-779.318,0,0
227892,351.52,-780.248,0,0
228152,350.953,-781.491,0,0
228413,350.374,-782.896,0,0
228673,349.634,-784.554,0,0
228933,348.717,-786.49,0,0
229193,347.397,-788.517,0,0
229454,345.779,-790.733,0,0
229714,343.804,-792.856,0,0
229974,341.546,-794.952,0,0
230235,339.029,-796.967,0,0
230495,336.243,-798.789,0,0
230755,333.38,-800.41,0,0
231016,330.317,-801.949,0,0
231276,327.143,-803.342,0,0
231536,323.779,-804.562,0,0
231797,320.379,-805.562,0,0
232057,316.96,-806.403,0,0
232317,313.534,-807.111,0,0
232578,310.064,-807.787,0,0
232838,306.54,-808.366,0,0
233098,302.89,-808.782,0,0
233359,299.186,-809.02,0,0
233619,295.502,-809.07,0,0
233879,291.881,-808.94,0,0
234140,288.417,-808.691,0,0
234400,284.939,-808.489,0,0
234660.3,281.509,-808.181,0,0
234920.625,278.047,-807.778,0,0
235180.95,274.606,-807.478,0,0
235441.275,271.088,-807.054,0,0
235701.6,267.527,-806.507,0,0
235961.925,263.917,-805.948,0,0
236222.25,260.318,-805.153,0,0
236482.575,256.743,-804.197,0,0
236742.9,253.255,-803.182,0,0
237003.225,249.758,-802.169,0,0
237263.55,246.277,-801.025,0,0
237523.875,242.782,-799.702,0,0
237784.2,239.344,-798.316,0,0
238044.525,235.909,-796.741,0,0
238304.85,232.681,-794.985,0,0
238565.175,229.597,-793.206,0,0
238825.5,226.566,-791.445,0,0
239085.825,223.631,-789.596,0,0
239346.15,220.705,-787.72,0,0
239606.475,217.893,-785.757,0,0
239866.8,215.093,-783.76,0,0
240127.125,212.538,-781.812,0,0
240387.45,210.129,-779.633,0,0
240647.775,207.655,-777.697,0,0
240908.1,205.314,-775.7,0,0
241168.425,203.014,-773.582,0,0
241428.75,200.829,-771.54,0,0
241689.075,198.68,-769.501,0,0
241949.4,196.631,-767.523,0,0
242209.725,194.658,-765.49,0,0
242470.05,192.639,-763.456,0,0
242730.375,190.821,-761.458,0,0
242990.7,189.042,-759.468,0,0
243251.025,187.415,-757.614,0,0
243511.35,185.794,-755.868,0,0
243771.675,184.119,-754.181,0,0
244032.0,182.298,-752.511,0,0
244292.325,180.604,-750.949,0,0
244552.65,178.889,-749.293,0,0
244812.975,177.098,-747.734,0,0
245073.3,175.449,-746.144,0,0
245333.625,173.599,-744.652,0,0
245593.95,171.914,-743.323,0,0
245854.275,169.998,-741.979,0,0
246114.6,167.886,-740.764,0,0
246374.925,165.687,-739.459,0,0
246635.25,163.262,-738.051,0,0
246895.575,160.662,-736.498,0,0
247155.9,157.91,-734.731,0,0
247416.225,155.266,-732.66,0,0
247676.55,152.655,-730.364,0,0
247936.875,150.125,-727.909,0,0
248197.2,147.71,-725.386,0,0
248457.525,145.451,-722.674,0,0
248717.85,143.25,-719.98,0,0
248978.175,141.179,-717.25,0,0
249238.5,139.142,-714.371,0,0
249498.825,137.146,-711.381,0,0
249759.15,135.285,-708.352,0,0
250019.475,133.623,-705.301,0,0
250279.8,131.938,-702.138,0,0
250540,130.385,-698.878,0,0
250800,129.014,-695.658,0,0
251061,127.743,-692.337,0,0
251321,126.583,-689.022,0,0
251581,125.599,-685.743,0,0
251842,124.67,-682.469,0,0
252102,123.9,-679.186,0,0
252362,123.183,-675.889,0,0
252623,122.57,-672.639,0,0
252883,122.104,-669.321,0,0
253143,121.777,-666.085,0,0
253404,121.524,-662.947,0,0
253664,121.384,-659.85,0,0
253924,121.179,-656.842,0,0
254185,121.069,-653.762,0,0
254445,120.992,-650.748,0,0
254705,120.959,-647.785,0,0
254966,120.994,-644.702,0,0
255226,121.128,-641.606,0,0
255486,121.297,-638.491,0,0
255747,121.656,-635.357,0,0
256007,122.224,-632.203,0,0
256267,122.937,-629.163,0,0
256528,123.779,-626.247,0,0
256788,124.696,-623.416,0,0
257048,125.683,-620.707,0,0
257309,126.728,-618.099,0,0
257569,127.859,-615.553,0,0
257829,129.014,-613.116,0,0
258090,130.181,-610.744,0,0
258350,131.403,-608.458,0,0
258610,132.667,-606.245,0,0
258871,133.952,-604.082,0,0
259131,135.256,-601.958,0,0
259391,136.613,-599.851,0,0
259651,138.07,-597.734,0,0
259912,139.631,-595.733,0,0
260172,141.313,-593.868,0,0
260432,143.054,-592.062,0,0
260693,144.838,-590.413,0,0
260953,146.71,-588.877,0,0
261213,148.634,-587.462,0,0
261474,150.613,-586.224,0,0
261734,152.577,-585.2,0,0
261994,154.518,-584.328,0,0
262255,156.352,-583.592,0,0
262515,158.128,-582.948,0,0
262775,159.851,-582.373,0,0
263036,161.549,-581.873,0,0
263296,163.221,-581.424,0,0
263556,164.916,-581.101,0,0
263817,166.634,-580.894,0,0
264077,168.316,-580.876,0,0
264337,169.827,-581.046,0,0
264598,171.256,-581.334,0,0
264858,172.552,-581.744,0,0
265118,173.535,-582.229,0,0
265379,174.403,-582.732,0,0
265639,175.052,-583.212,0,0
265899,175.566,-583.528,0,0
266160,176,-583.783,0,0
266420,176.371,-583.906,0,0
266680.25,176.738,-583.894,0,0
266940.575,177.261,-583.903,0,0
267200.9,177.774,-583.963,0,0
267461.225,178.276,-584.088,0,0
267721.55,178.672,-584.313,0,0
267981.875,178.926,-584.551,0,0
268242.2,179.036,-584.755,0,0
268502.525,179.071,-584.869,0,0
268762.85,178.965,-584.899,0,0
269023.175,178.809,-584.779,0,0
269283.5,178.582,-584.433,0,0
269543.825,178.408,-583.984,0,0
269804.15,178.303,-583.358,0,0
270064.475,178.344,-582.564,0,0
270324.8,178.405,-581.715,0,0
270585.125,178.632,-580.727,0,0
270845.45,179.054,-579.67,0,0
271105.775,179.674,-578.563,0,0
271366.1,180.562,-577.452,0,0
271626.425,181.682,-576.457,0,0
271886.75,182.948,-575.646,0,0
272147.075,184.244,-574.973,0,0
272407.4,185.58,-574.375,0,0
272667.725,187.005,-573.732,0,0
272928.05,188.635,-573.132,0,0
273188.375,190.434,-572.601,0,0
273448.7,192.503,-572.229,0,0
273709.025,194.836,-572.061,0,0
273969.35,197.371,-572.215,0,0
274229.675,200.032,-572.784,0,0
274490.0,202.75,-573.738,0,0
274750.325,205.46,-575.181,0,0
275010.65,208.099,-577.066,0,0
275270.975,210.598,-579.366,0,0
275531.3,212.773,-582.101,0,0
275791.625,214.644,-585.255,0,0
276051.95,216.117,-588.736,0,0
276312.275,217.062,-592.553,0,0
276572.6,217.435,-596.492,0,0
276832.925,217.195,-600.463,0,0
277093.25,216.388,-604.296,0,0
277353.575,215.103,-607.886,0,0
277613.9,213.44,-611.16,0,0
277874.225,211.533,-614.129,0,0
278134.55,209.457,-616.784,0,0
278394.875,207.253,-619.186,0,0
278655.2,204.946,-621.366,0,0
278915.525,202.565,-623.364,0,0
279175.85,200.092,-625.126,0,0
279436.175,197.542,-626.722,0,0
279696.5,194.943,-628.006,0,0
279956.825,192.37,-629.251,0,0
280217.15,189.777,-630.251,0,0
280477.475,187.246,-631.164,0,0
280737.8,184.706,-631.963,0,0
280998.125,182.145,-632.674,0,0
281258.45,179.544,-633.323,0,0
281518.775,176.922,-633.888,0,0
281779.1,174.231,-634.368,0,0
282039.425,171.487,-634.795,0,0
282299.75,168.594,-635.096,0,0
282560,165.573,-635.213,0,0
282820,162.394,-635.049,0,0
283081,159.228,-634.541,0,0
283341,156.145,-633.715,0,0
283601,153.263,-632.582,0,0
283862,150.731,-631.231,0,0
284122,148.514,-629.889,0,0
284382,146.553,-628.683,0,0
284643,144.641,-627.681,0,0
284903,142.675,-626.882,0,0
285163,140.512,-626.148,0,0
285424,138.079,-625.3,0,0
285684,135.522,-624.303,0,0
285944,132.866,-623.059,0,0
286205,130.129,-621.579,0,0
286465,127.362,-619.8,0,0
286725,124.601,-617.657,0,0
286986,121.995,-615.157,0,0
287246,119.608,-612.393,0,0
287506,117.454,-609.349,0,0
287767,115.558,-606.065,0,0
288027,113.998,-602.552,0,0
288287,112.755,-598.874,0,0
288548,111.878,-595.065,0,0
288808,111.411,-591.115,0,0
289068,111.411,-587.103,0,0
289329,111.985,-583.091,0,0
289589,113.082,-579.246,0,0
289849,114.673,-575.634,0,0
290109,116.714,-572.413,0,0
290370,119.088,-569.614,0,0
290630,121.691,-567.29,0,0
290890,124.449,-565.429,0,0
291151,127.32,-564.007,0,0
291411,130.243,-563.031,0,0
291671,133.198,-562.528,0,0
291932,136.088,-562.539,0,0
292192,138.84,-563.059,0,0
292452,141.267,-564.05,0,0
292713,143.353,-565.423,0,0
292973,145.028,-567.123,0,0
293233,146.101,-569.057,0,0
293494,146.621,-570.974,0,0
293754,146.633,-572.717,0,0
294014,146.269,-574.19,0,0
294275,145.703,-575.357,0,0
294535,144.926,-576.172,0,0
294795,144.127,-576.595,0,0
295056,143.507,-576.604,0,0
295316,143.25,-576.299,0,0
295576,143.518,-576.033,0,0
295837,144.206,-576.042,0,0
296097,145.105,-576.517,0,0
296357,146.032,-577.553,0,0
296618,146.701,-579.084,0,0
296878,146.924,-580.986,0,0
297138,146.631,-583.039,0,0
297399,145.839,-585.026,0,0
297659,144.555,-586.851,0,0
297919,143.011,-588.375,0,0
298180,141.276,-589.611,0,0
298440,139.442,-590.572,0,0
298700.2,137.582,-591.248,0,0
298960.525,135.78,-591.738,0,0
299220.85,134,-592.118,0,0
299481.175,132.221,-592.406,0,0
299741.5,130.43,-592.606,0,0
300001.825,128.572,-592.677,0,0
300262.15,126.691,-592.574,0,0
300522.475,124.849,-592.283,0,0
300782.8,123.061,-591.829,0,0
301043.125,121.393,-591.233,0,0
301303.45,119.831,-590.521,0,0
301563.775,118.422,-589.66,0,0
301824.1,117.222,-588.752,0,0
302084.425,116.254,-587.843,0,0
302344.75,115.483,-587.016,0,0
302605.075,114.859,-586.362,0,0
302865.4,114.332,-585.886,0,0
303125.725,113.828,-585.617,0,0
303386.05,113.249,-585.568,0,0
303646.375,112.543,-585.649,0,0
303906.7,111.677,-585.849,0,0
304167.025,110.647,-586.065,0,0
304427.35,109.449,-586.292,0,0
304687.675,108.06,-586.503,0,0
304948.0,106.549,-586.603,0,0
305208.325,104.886,-586.618,0,0
305468.65,103.09,-586.464,0,0
305728.975,101.287,-586.153,0,0
305989.3,99.4218,-585.706,0,0
306249.625,97.6018,-585.095,0,0
306509.95,95.7991,-584.349,0,0
306770.275,94.0387,-583.483,0,0
307030.6,92.358,-582.509,0,0
307290.925,90.7464,-581.443,0,0
307551.25,89.2385,-580.305,0,0
307811.575,87.8071,-579.151,0,0
308071.9,86.4595,-577.974,0,0
308332.225,85.1666,-576.793,0,0
308592.55,83.9202,-575.603,0,0
308852.875,82.7032,-574.381,0,0
309113.2,81.543,-573.141,0,0
309373.525,80.4038,-571.902,0,0
309633.85,79.3143,-570.648,0,0
309894.175,78.2767,-569.352,0,0
310154.5,77.2611,-568.125,0,0
310414.825,76.274,-566.824,0,0
310675.15,75.2948,-565.554,0,0
310935.475,74.3508,-564.238,0,0
311195.8,73.4463,-562.87,0,0
311456.125,72.5844,-561.495,0,0
311716.45,71.7871,-560.097,0,0
311976.775,71.067,-558.719,0,0
312237.1,70.3808,-557.338,0,0
312497.425,69.7525,-555.991,0,0
312757.75,69.1515,-554.663,0,0
313018.075,68.5846,-553.382,0,0
313278.4,68.0433,-552.111,0,0
313538.725,67.4999,-550.858,0,0
313799.05,66.9508,-549.626,0,0
314059.375,66.4311,-548.403,0,0
314319.7,65.9192,-547.189,0,0
314580,65.359,-545.963,0,0
314840,64.8664,-544.792,0,0
315101,64.3891,-543.469,0,0
315361,63.9199,-542.239,0,0
315621,63.4519,-541.079,0,0
315882,63.0347,-539.802,0,0
316142,62.5712,-538.523,0,0
316402,62.1619,-537.267,0,0
316663,61.788,-536.037,0,0
316923,61.4974,-534.689,0,0
317183,61.1265,-533.451,0,0
317444,60.8722,-532.252,0,0
317704,60.6903,-530.981,0,0
317964,60.4424,-529.776,0,0
318225,60.2766,-528.6,0,0
318485,60.1292,-527.536,0,0
318745,59.9749,-526.432,0,0
319006,59.7946,-525.275,0,0
319266,59.618,-524.224,0,0
319526,59.4266,-523.204,0,0
319787,59.2443,-522.101,0,0
320047,59.0368,-521.122,0,0
320307,58.8379,-520.059,0,0
320567,58.6339,-518.995,0,0
320828,58.4425,-518.003,0,0
321088,58.2457,-516.985,0,0
321348,58.021,-515.849,0,0
321609,57.8845,-514.817,0,0
321869,57.6739,-513.807,0,0
322129,57.4665,-512.726,0,0
322390,57.3054,-511.628,0,0
322650,57.0702,-510.592,0,0
322910,56.8889,-509.522,0,0
323171,56.7597,-508.43,0,0
323431,56.5427,-507.301,0,0
323691,56.29,-506.162,0,0
323952,56.1196,-504.917,0,0
324212,55.9846,-503.608,0,0
324472,55.9177,-502.322,0,0
324733,56.0054,-500.932,0,0
324993,56.0213,-499.587,0,0
325253,56.2909,-498.219,0,0
325514,56.6191,-496.823,0,0
325774,57.0509,-495.521,0,0
326034,57.5432,-494.23,0,0
326295,58.1861,-493.207,0,0
326555,58.8331,-492.171,0,0
326815,59.4832,-491.322,0,0
327076,60.19,-490.596,0,0
327336,60.7677,-489.939,0,0
327596,61.3455,-489.34,0,0
327857,61.8354,-488.929,0,0
328117,62.2861,-488.392,0,0
328377,62.6429,-488.001,0,0
328638,63.0247,-487.548,0,0
328898,63.3297,-487.093,0,0
329158,63.6605,-486.753,0,0
329419,63.9944,-486.296,0,0
329679,64.2793,-485.963,0,0
329939,64.5544,-485.583,0,0
330200,64.8475,-485.36,0,0
330460,65.0584,-485.112,0,0
330720.15,65.2281,-484.959,0,0
330980.475,65.3775,-484.788,0,0
331240.8,65.5039,-484.698,0,0
331501.125,65.5453,-484.566,0,0
331761.45,65.5441,-484.452,0,0
332021.775,65.4406,-484.375,0,0
332282.1,65.3182,-484.278,0,0
332542.425,65.0538,-484.228,0,0
332802.75,64.756,-484.132,0,0
333063.075,64.4136,-484.02,0,0
333323.4,63.9532,-483.74,0,0
333583.725,63.4564,-483.484,0,0
333844.05,62.9586,-483.191,0,0
334104.375,62.4632,-482.779,0,0
334364.7,61.9578,-482.259,0,0
334625.025,61.4207,-481.746,0,0
334885.35,60.9806,-481.185,0,0
335145.675,60.5029,-480.582,0,0
335406.0,60.0104,-479.964,0,0
335666.325,59.6262,-479.364,0,0
335926.65,59.2357,-478.612,0,0
336186.975,58.8789,-477.952,0,0
336447.3,58.4763,-477.298,0,0
336707.625,58.1038,-476.581,0,0
336967.95,57.6692,-475.893,0,0
337228.275,57.3391,-475.115,0,0
337488.6,57.0395,-474.333,0,0
337748.925,56.6679,-473.513,0,0
338009.25,56.4446,-472.727,0,0
338269.575,56.1241,-471.883,0,0
338529.9,55.841,-471.088,0,0
338790.225,55.5829,-470.309,0,0
339050.55,55.3728,-469.411,0,0
339310.875,55.1603,-468.525,0,0
339571.2,54.9649,-467.649,0,0
339831.525,54.8111,-466.824,0,0
340091.85,54.6417,-465.939,0,0
340352.175,54.5226,-465.105,0,0
340612.5,54.4103,-464.236,0,0
340872.825,54.3327,-463.359,0,0
341133.15,54.2082,-462.459,0,0
341393.475,54.1821,-461.619,0,0
341653.8,54.1293,-460.768,0,0
341914.125,54.038,-459.926,0,0
342174.45,54.0447,-459.062,0,0
342434.775,54.0024,-458.213,0,0
342695.1,54.0262,-457.356,0,0
342955.425,53.9931,-456.499,0,0
343215.75,54.0272,-455.638,0,0
343476.075,54.0974,-454.737,0,0
343736.4,54.1375,-453.872,0,0
343996.725,54.213,-453.043,0,0
344257.05,54.3304,-452.198,0,0
344517.375,54.4829,-451.33,0,0
344777.7,54.6209,-450.495,0,0
345038.025,54.7389,-449.725,0,0
345298.35,54.9792,-448.88,0,0
345558.675,55.1315,-448.04,0,0
345819.0,55.3737,-447.296,0,0
346079.325,55.5797,-446.568,0,0
346339.65,55.8013,-445.814,0,0
346599.975,55.9969,-445.055,0,0
346860,56.2794,-444.337,0,0
347121,56.5462,-443.617,0,0
347381,56.8043,-442.966,0,0
347641,57.0748,-442.283,0,0
347902,57.3322,-441.618,0,0
348162,57.6267,-440.946,0,0
348422,57.9033,-440.298,0,0
348683,58.1971,-439.648,0,0
348943,58.5077,-439.004,0,0
349203,58.8369,-438.426,0,0
349464,59.2041,-437.844,0,0
349724,59.5024,-437.293,0,0
349984,59.8882,-436.768,0,0
350245,60.2433,-436.219,0,0
350505,60.6042,-435.798,0,0
350765,60.9373,-435.341,0,0
351025,61.2653,-434.95,0,0
351286,61.616,-434.539,0,0
351546,61.8813,-434.16,0,0
351806,62.1101,-433.798,0,0
352067,62.2951,-433.453,0,0
352327,62.5848,-433.058,0,0
352587,62.802,-432.646,0,0
352848,63.0264,-432.245,0,0
353108,63.2093,-431.825,0,0
353368,63.4407,-431.432,0,0
353629,63.6834,-431.018,0,0
353889,63.9349,-430.614,0,0
354149,64.1409,-430.269,0,0
354410,64.3972,-429.889,0,0
354670,64.6361,-429.519,0,0
354930,64.9023,-429.186,0,0
355191,65.1347,-428.86,0,0
355451,65.3912,-428.507,0,0
355711,65.5837,-428.145,0,0
355972,65.7886,-427.821,0,0
356232,66.0418,-427.486,0,0
356492,66.2847,-427.104,0,0
356753,66.5329,-426.787,0,0
357013,66.7666,-426.443,0,0
357273,67.0664,-426.147,0,0
357534,67.3882,-425.827,0,0
357794,67.687,-425.572,0,0
358054,68.048,-425.312,0,0
358315,68.3567,-425.135,0,0
358575,68.7036,-424.85,0,0
358835,69.0271,-424.735,0,0
359096,69.3963,-424.63,0,0
359356,69.6742,-424.604,0,0
359616,70.0232,-424.609,0,0
359877,70.2156,-424.627,0,0
360137,70.4371,-424.625,0,0
360397,70.5622,-424.747,0,0
360658,70.6824,-424.794,0,0
360918,70.7647,-424.815,0,0
361178,70.8045,-424.848,0,0
361438,70.8079,-424.89,0,0
361699,70.8425,-424.92,0,0
361959,70.8352,-424.974,0,0
362219,70.7945,-425.003,0,0
362480,70.788,-425.044,0,0
362740.1,70.6802,-425.028,0,0
363000.425,70.5858,-425.058,0,0
363260.75,70.4881,-425.083,0,0
363521.075,70.3369,-425.085,0,0
363781.4,70.1292,-425.098,0,0
364041.725,69.9172,-425.05,0,0
364302.05,69.665,-425.028,0,0
364562.375,69.4399,-424.942,0,0
364822.7,69.1822,-424.819,0,0
365083.025,68.9604,-424.694,0,0
365343.35,68.6919,-424.601,0,0
365603.675,68.4161,-424.427,0,0
365864.0,68.1345,-424.181,0,0
366124.325,67.8249,-424.028,0,0
366384.65,67.5269,-423.747,0,0
366644.975,67.2622,-423.471,0,0
366905.3,67.0066,-423.132,0,0
367165.625,66.8057,-422.823,0,0
367425.95,66.623,-422.427,0,0
367686.275,66.4618,-422.048,0,0
367946.6,66.3705,-421.714,0,0
368206.925,66.2721,-421.437,0,0
368467.25,66.253,-421.104,0,0
368727.575,66.2624,-420.847,0,0
368987.9,66.2175,-420.621,0,0
369248.225,66.1499,-420.391,0,0
369508.55,66.1708,-420.277,0,0
369768.875,66.0986,-420.163,0,0
370029.2,65.9705,-420.056,0,0
370289.525,65.8579,-419.943,0,0
370549.85,65.6424,-419.942,0,0
370810.175,65.4122,-419.821,0,0
371070.5,65.131,-419.677,0,0
371330.825,64.8522,-419.543,0,0
371591.15,64.6216,-419.34,0,0
371851.475,64.3629,-419.123,0,0
372111.8,64.0693,-418.893,0,0
372372.125,63.8273,-418.627,0,0
372632.45,63.5568,-418.388,0,0
372892.775,63.3416,-418.152,0,0
373153.1,63.1143,-417.86,0,0
373413.425,62.9032,-417.672,0,0
373673.75,62.6703,-417.462,0,0
373934.075,62.3963,-417.251,0,0
374194.4,62.1468,-417.014,0,0
374454.725,61.906,-416.801,0,0
374715.05,61.6373,-416.597,0,0
374975.375,61.3396,-416.356,0,0
375235.7,61.0602,-416.122,0,0
375496.025,60.7403,-415.875,0,0
375756.35,60.4252,-415.601,0,0
376016.675,60.1004,-415.356,0,0
376277.0,59.7997,-415.005,0,0
376537.325,59.4977,-414.714,0,0
376797.65,59.2318,-414.432,0,0
377057.975,58.96,-414.173,0,0
377318.3,58.6953,-413.877,0,0
377578.625,58.4369,-413.613,0,0
377838.95,58.1693,-413.438,0,0
378099.275,57.8259,-413.241,0,0
378359.6,57.4315,-413.089,0,0
378619.925,57.0251,-412.907,0,0
378880,56.5204,-412.72,0,0
379141,56.0027,-412.487,0,0
379401,55.3623,-412.161,0,0
379661,54.6642,-411.742,0,0
379922,54.0003,-411.15,0,0
380182,53.4179,-410.475,0,0
380442,52.8884,-409.729,0,0
380703,52.5428,-408.871,0,0
380963,52.2464,-408.055,0,0
381223,52.1898,-407.367,0,0
381483,52.1552,-406.621,0,0
381744,52.1566,-406.091,0,0
382004,52.172,-405.614,0,0
382264,52.1333,-405.229,0,0
382525,52.039,-404.92,0,0
382785,51.895,-404.627,0,0
383045,51.6718,-404.333,0,0
383306,51.4266,-404.065,0,0
383566,51.1301,-403.696,0,0
383826,50.8116,-403.369,0,0
384087,50.4686,-403.004,0,0
384347,50.0804,-402.594,0,0
384607,49.6944,-402.145,0,0
384868,49.3139,-401.675,0,0
385128,48.9016,-401.193,0,0
385388,48.555,-400.678,0,0
385649,48.2135,-400.11,0,0
385909,47.8694,-399.57,0,0
386169,47.4843,-399.001,0,0
386430,47.1269,-398.419,0,0
386690,46.8185,-397.783,0,0
386950,46.4762,-397.143,0,0
387211,46.1557,-396.489,0,0
387471,45.8626,-395.791,0,0
387731,45.6062,-395.104,0,0
387992,45.4315,-394.388,0,0
388252,45.173,-393.66,0,0
388512,45.0188,-392.912,0,0
388773,44.895,-392.24,0,0
389033,44.7355,-391.482,0,0
389293,44.6713,-390.773,0,0
389554,44.6761,-390.101,0,0
389814,44.6023,-389.43,0,0
390074,44.6889,-388.723,0,0
390335,44.6625,-388.11,0,0
390595,44.7292,-387.533,0,0
390855,44.7969,-386.981,0,0
391116,44.8637,-386.519,0,0
391376,44.9239,-386.095,0,0
391636,44.9702,-385.737,0,0
391896,44.9265,-385.373,0,0
392157,44.8392,-385.073,0,0
392417,44.6626,-384.737,0,0
392677,44.406,-384.391,0,0
392938,44.1679,-384.007,0,0
393198,43.8609,-383.582,0,0
393458,43.5395,-383.129,0,0
393719,43.243,-382.587,0,0
393979,42.8575,-382.018,0,0
394239,42.5364,-381.385,0,0
394500,42.231,-380.745,0,0
394760.05,41.9302,-380.057,0,0
395020.375,41.6442,-379.324,0,0
395280.7,41.405,-378.595,0,0
395541.025,41.1969,-377.801,0,0
395801.35,41.0339,-377.014,0,0
396061.675,40.8809,-376.214,0,0
396322.0,40.7338,-375.43,0,0
396582.325,40.6518,-374.624,0,0
396842.65,40.6224,-373.806,0,0
397102.975,40.6118,-372.989,0,0
397363.3,40.6044,-372.25,0,0
397623.625,40.6415,-371.433,0,0
397883.95,40.6735,-370.665,0,0
398144.275,40.7516,-369.93,0,0
398404.6,40.8477,-369.146,0,0
398664.925,40.9149,-368.457,0,0
398925.25,41.0357,-367.714,0,0
399185.575,41.1702,-367.011,0,0
399445.9,41.2976,-366.371,0,0
399706.225,41.4165,-365.661,0,0
399966.55,41.5428,-365.005,0,0
400006.6,41.567,-364.905,0,0