File: Accelerated corrosion test data/2025-10-06_06-00-03/sample_4.csv
Frequency (Hz),Impedance (ohms),Phase (Radians),Temperature (C),Humidity (%)
10000.0,263.786,-11841.9,0,0
10260.325,260.779,-11543.1,0,0
10520.65,250.741,-11261.4,0,0
10780.975,245.155,-10991.6,0,0
11041.3,239.864,-10733.6,0,0
11301.625,234.587,-10491.4,0,0
11561.95,229.444,-10256,0,0
11822.275,224.393,-10031.5,0,0
12082.6,219.653,-9817.04,0,0
12342.925,215.179,-9611.16,0,0
12603.25,212.734,-9411.79,0,0
12863.575,208.741,-9225.91,0,0
13123.9,207.764,-9047.52,0,0
13384.225,199.199,-8869.38,0,0
13644.55,196.234,-8698.7,0,0
13904.875,193.324,-8534.4,0,0
14165.2,194.453,-8372.08,0,0
14425.525,199.414,-8223.32,0,0
14685.8,202.409,-8110.09,0,0
14946.175,182.478,-7955.14,0,0
15206.5,182.276,-7811.29,0,0
15466.825,187.125,-7669.99,0,0
15727.15,191.308,-7572.28,0,0
15987.5,187.843,-7452.05,0,0
16247.8,170.919,-7325.38,0,0
16508.125,186.426,-7195.81,0,0
16768.45,178.468,-7098.06,0,0
17028.775,171.663,-7009.93,0,0
17289.1,160.924,-6897.02,0,0
17549.425,159.088,-6792.33,0,0
17809.75,155.446,-6691.99,0,0
18070.075,152.923,-6593.48,0,0
18330.4,153.521,-6497.78,0,0
18590.725,153.924,-6409.82,0,0
18851.05,150.788,-6325.93,0,0
19111.375,145.272,-6237,0,0
19371.7,142.96,-6151.81,0,0
19632.025,141.963,-6067.57,0,0
19892.35,143.974,-5986.97,0,0
20152.675,143.723,-5910.21,0,0
20413.0,141.354,-5837.72,0,0
20673.3,140.527,-5762.94,0,0
20933.65,137.419,-5689.78,0,0
21193.975,139.682,-5615.21,0,0
21454.3,152.326,-5549.06,0,0
21714.625,145.337,-5492.27,0,0
21974.9,148.167,-5422.03,0,0
22235.275,148.455,-5376.63,0,0
22495.6,136.197,-5320.63,0,0
22755.925,128.267,-5255.56,0,0
23016.25,125.62,-5193.97,0,0
23276.6,122.795,-5133.92,0,0
23536.9,121.293,-5076.79,0,0
23797.225,119.187,-5019.84,0,0
24057.55,117.385,-4964.36,0,0
24317.875,115.844,-4910.08,0,0
24578.2,115.007,-4856.79,0,0
24838.525,114.339,-4805.13,0,0
25098.85,114.128,-4754.28,0,0
25359.175,113.157,-4706.81,0,0
25619.5,112.429,-4657.36,0,0
25879.8,111.45,-4613.21,0,0
26140.1,108.108,-4565.13,0,0
26400.5,107.855,-4518.62,0,0
26660.8,106.474,-4472.3,0,0
26921.1,107.021,-4428.66,0,0
27181.4,105.923,-4384.13,0,0
27441.8,106.013,-4339.59,0,0
27702.1,108.853,-4295.9,0,0
27962.4,116.495,-4254.29,0,0
28222.7,119.908,-4223.66,0,0
28483.1,114.578,-4191.73,0,0
28743.4,109.56,-4152.07,0,0
29003.7,111.442,-4109.92,0,0
29264,117.021,-4078.17,0,0
29524.4,112.134,-4047.34,0,0
29784.7,109.243,-4015.58,0,0
30045,106.417,-3979.91,0,0
30305.3,102.46,-3945.81,0,0
30565.7,100.111,-3910.72,0,0
30826,98.7951,-3875.29,0,0
31086.3,98.5326,-3841.89,0,0
31346.6,99.0871,-3808.92,0,0
31607,98.0634,-3778.5,0,0
31867.3,97.5698,-3746.87,0,0
32127.6,99.4412,-3715.9,0,0
32387.9,98.1488,-3689.77,0,0
32648.3,97.0027,-3659.52,0,0
32908.6,95.1349,-3633.03,0,0
33168.9,92.833,-3604.17,0,0
33429.2,90.1631,-3575.71,0,0
33689.6,88.7034,-3546.7,0,0
33949.9,87.6341,-3518.29,0,0
34210.2,87.7564,-3490.45,0,0
34470.5,86.6472,-3464.7,0,0
34730.9,85.1925,-3437.67,0,0
34991.2,85.0599,-3411.05,0,0
35251.5,84.4274,-3385.35,0,0
35511.8,83.4687,-3360.04,0,0
35772.2,82.8058,-3335.3,0,0
36032.5,82.0623,-3310.28,0,0
36292.8,81.2327,-3285.76,0,0
36553.1,80.8042,-3261.26,0,0
36813.5,80.982,-3237.45,0,0
37073.8,80.9885,-3214.47,0,0
37334.1,80.0986,-3192.11,0,0
37594.4,79.1712,-3168.64,0,0
37854.8,79.4035,-3146.6,0,0
38115.1,78.2834,-3125.05,0,0
38375.4,77.5752,-3102.63,0,0
38635.7,77.3303,-3080.44,0,0
38896.1,77.5668,-3058.91,0,0
39156.4,77.3463,-3038.08,0,0
39416.7,76.8087,-3017.2,0,0
39677,76.3604,-2995.78,0,0
39937.4,77.0974,-2975.12,0,0
40197.7,78.4912,-2954.44,0,0
40458,80.5729,-2935.63,0,0
40718.3,79.7675,-2919.05,0,0
40978.7,79.4361,-2899.23,0,0
41239,79.2131,-2880.76,0,0
41499.3,81.9104,-2863.04,0,0
41759.6,79.6909,-2847.78,0,0
42020,78.0458,-2829.8,0,0
42280.275,77.1351,-2810.63,0,0
42540.6,78.8025,-2793.25,0,0
42800.925,78.1062,-2778.47,0,0
43061.25,75.7712,-2760.52,0,0
43321.575,75.9688,-2743.61,0,0
43581.9,74.6765,-2727.22,0,0
43842.225,73.7473,-2709.84,0,0
44102.55,74.1897,-2693.7,0,0
44362.875,72.3935,-2677.25,0,0
44623.2,72.5296,-2660.45,0,0
44883.525,72.2173,-2644.78,0,0
45143.85,71.4667,-2628.96,0,0
45404.175,70.4968,-2612.64,0,0
45664.5,71.369,-2595.79,0,0
45924.825,72.5391,-2581.19,0,0
46185.15,72.5299,-2567.79,0,0
46445.475,70.8362,-2552.31,0,0
46705.8,71.4342,-2537.27,0,0
46966.125,71.748,-2523.16,0,0
47226.45,71.3353,-2508.85,0,0
47486.775,71.6602,-2496.17,0,0
47747.1,69.9537,-2482.1,0,0
48007.425,69.5715,-2468.26,0,0
48267.75,68.8873,-2454.91,0,0
48528.075,68.1049,-2441.17,0,0
48788.4,67.1424,-2426.98,0,0
49048.725,66.4721,-2413.61,0,0
49309.05,66.1412,-2399.14,0,0
49569.375,65.6971,-2386.36,0,0
49829.7,65.0782,-2372.42,0,0
50090.025,64.9759,-2359.34,0,0
50350.35,64.6598,-2346.24,0,0
50610.675,64.4314,-2333.06,0,0
50871.0,64.2548,-2320.08,0,0
51131.325,64.0836,-2307.2,0,0
51391.65,63.8986,-2294.33,0,0
51651.975,63.9351,-2281.51,0,0
51912.3,64.1929,-2268.92,0,0
52172.625,64.3899,-2256.18,0,0
52432.95,64.5374,-2244.17,0,0
52693.275,64.6233,-2231.34,0,0
52953.6,65.8608,-2218.77,0,0
53213.925,66.7341,-2207.17,0,0
53474.25,67.9827,-2195.23,0,0
53734.575,69.122,-2183.58,0,0
53994.9,71.7707,-2172.16,0,0
54255.225,73.9631,-2162.76,0,0
54515.55,75.909,-2153.92,0,0
54775.875,76.2617,-2146.53,0,0
55036.2,74.4196,-2138.4,0,0
55296.525,73.32,-2128.23,0,0
55556.85,72.1429,-2119.38,0,0
55817.175,70.4385,-2109.06,0,0
56077.5,68.9897,-2099.27,0,0
56337.825,67.4229,-2088.36,0,0
56598.15,66.3125,-2077.15,0,0
56858.475,65.9579,-2066.16,0,0
57118.8,65.7282,-2055.04,0,0
57379.125,66.1289,-2044.4,0,0
57639.45,66.3085,-2034.14,0,0
57899.775,66.7048,-2023.86,0,0
58160.1,66.7219,-2013.84,0,0
58420.4,67.4644,-2003.52,0,0
58680.7,68.3264,-1994.31,0,0
58941.1,67.6736,-1984.11,0,0
59201.4,68.9065,-1973.26,0,0
59461.7,71.1346,-1963.1,0,0
59722,73.7914,-1954.64,0,0
59982.4,75.9598,-1946.93,0,0
60242.7,76.9057,-1939.88,0,0
60503,78.2083,-1932.19,0,0
60763.3,80.301,-1925.7,0,0
61023.7,80.7508,-1921.74,0,0
61284,78.589,-1916.81,0,0
61544.3,74.6537,-1910.49,0,0
61804.6,71.7177,-1901.3,0,0
62065,69.9788,-1892.66,0,0
62325.3,68.6548,-1884.05,0,0
62585.6,66.3031,-1875.65,0,0
62845.9,65.1521,-1865.1,0,0
63106.3,64.8131,-1856.22,0,0
63366.6,64.4152,-1847.05,0,0
63626.9,64.7579,-1837.91,0,0
63887.2,64.958,-1829.93,0,0
64147.6,63.8562,-1821.48,0,0
64407.9,63.7551,-1812.34,0,0
64668.2,64.5469,-1803.65,0,0
64928.5,65.132,-1795.64,0,0
65188.9,65.3487,-1787.72,0,0
65449.2,65.8295,-1779.84,0,0
65709.5,65.5534,-1771.82,0,0
65969.8,66.6411,-1763.44,0,0
66230.2,67.6827,-1756.15,0,0
66490.5,68.2003,-1748.81,0,0
66750.8,68.8842,-1741.74,0,0
67011.1,69.5813,-1734.49,0,0
67271.5,70.6186,-1727.35,0,0
67531.8,71.8253,-1720.97,0,0
67792.1,72.644,-1714.95,0,0
68052.4,73.2768,-1709.25,0,0
68312.8,73.6536,-1703.79,0,0
68573.1,73.7135,-1698.6,0,0
68833.4,73.3163,-1693.82,0,0
69093.7,71.3075,-1688.88,0,0
69354.1,69.3422,-1682.69,0,0
69614.4,67.3489,-1675.83,0,0
69874.7,66.2977,-1668.27,0,0
70135,65.7971,-1661.47,0,0
70395.4,64.5634,-1654.65,0,0
70655.7,64.0596,-1646.61,0,0
70916,65.2246,-1639.86,0,0
71176.3,65.2385,-1634.48,0,0
71436.7,64.3459,-1628.58,0,0
71697,63.6447,-1622.45,0,0
71957.3,62.4197,-1616.7,0,0
72217.6,60.7975,-1610.32,0,0
72478,59.3871,-1603.08,0,0
72738.3,58.4927,-1595.91,0,0
72998.6,57.6685,-1588.54,0,0
73258.9,57.3287,-1580.94,0,0
73519.3,57.5417,-1573.58,0,0
73779.6,57.8281,-1566.71,0,0
74039.9,58.169,-1559.76,0,0
74300.225,58.7422,-1553.22,0,0
74560.55,59.0397,-1546.8,0,0
74820.875,59.4464,-1540.5,0,0
75081.2,59.9339,-1534.02,0,0
75341.525,60.7518,-1528.09,0,0
75601.85,61.2487,-1522.41,0,0
75862.175,61.4611,-1516.71,0,0
76122.5,61.7932,-1510.8,0,0
76382.825,62.3119,-1505.27,0,0
76643.15,62.3317,-1499.91,0,0
76903.475,62.241,-1493.95,0,0
77163.8,62.9764,-1487.66,0,0
77424.125,64.2864,-1482.38,0,0
77684.45,65.0157,-1477.77,0,0
77944.775,65.4987,-1473.21,0,0
78205.1,65.4704,-1468.95,0,0
78465.425,65.1994,-1464.43,0,0
78725.75,64.6817,-1459.87,0,0
78986.075,63.9285,-1455.08,0,0
79246.4,63.0463,-1450.12,0,0
79506.725,62.2954,-1444.8,0,0
79767.05,61.6445,-1439.35,0,0
80027.375,61.1629,-1433.9,0,0
80287.7,60.9363,-1428.37,0,0
80548.025,60.6652,-1422.97,0,0
80808.35,60.5619,-1417.59,0,0
81068.675,60.4889,-1412.41,0,0
81329.0,60.47,-1407.33,0,0
81589.325,60.3162,-1402.39,0,0
81849.65,60.1056,-1397.38,0,0
82109.975,59.7855,-1392.42,0,0
82370.3,59.4589,-1387.36,0,0
82630.625,59.2032,-1382.41,0,0
82890.95,59.0616,-1377.34,0,0
83151.275,58.8199,-1372.46,0,0
83411.6,58.5311,-1367.51,0,0
83671.925,58.2235,-1362.43,0,0
83932.25,58.0834,-1357.45,0,0
84192.575,57.9232,-1352.54,0,0
84452.9,57.7308,-1347.66,0,0
84713.225,57.4669,-1342.74,0,0
84973.55,57.3879,-1337.91,0,0
85233.875,57.2764,-1333.01,0,0
85494.2,57.0931,-1328.33,0,0
85754.525,56.9554,-1323.58,0,0
86014.85,56.7608,-1318.69,0,0
86275.175,56.6694,-1313.99,0,0
86535.5,56.6261,-1309.36,0,0
86795.825,56.4507,-1304.8,0,0
87056.15,56.3381,-1300.28,0,0
87316.475,56.1177,-1295.61,0,0
87576.8,55.9285,-1291.07,0,0
87837.125,55.6422,-1286.69,0,0
88097.45,55.2013,-1282.38,0,0
88357.775,54.4447,-1277.64,0,0
88618.1,53.9396,-1272.68,0,0
88878.425,53.8762,-1267.63,0,0
89138.75,53.7902,-1262.93,0,0
89399.075,53.6176,-1258.09,0,0
89659.4,53.6189,-1253.3,0,0
89919.725,53.6638,-1248.58,0,0
90180,53.6129,-1244.14,0,0
90440.4,53.5939,-1239.55,0,0
90700.7,53.5483,-1234.97,0,0
90961,53.4709,-1230.42,0,0
91221.3,53.3574,-1225.81,0,0
91481.7,53.4842,-1221.14,0,0
91742,53.5676,-1216.52,0,0
92002.3,53.8131,-1211.98,0,0
92262.6,54.129,-1207.51,0,0
92523,54.4221,-1203.29,0,0
92783.3,54.7903,-1199.11,0,0
93043.6,55.008,-1195.14,0,0
93303.9,55.0498,-1191.28,0,0
93564.3,54.8957,-1187.33,0,0
93824.6,54.7109,-1183.3,0,0
94084.9,54.4572,-1179.32,0,0
94345.2,54.0622,-1175.15,0,0
94605.6,53.7482,-1170.93,0,0
94865.9,53.3716,-1166.42,0,0
95126.2,53.1591,-1161.93,0,0
95386.5,53.0344,-1157.44,0,0
95646.9,52.963,-1152.93,0,0
95907.2,53.038,-1148.39,0,0
96167.5,53.2736,-1143.97,0,0
96427.8,53.4928,-1139.62,0,0
96688.2,53.7036,-1135.35,0,0
96948.5,53.8643,-1131.13,0,0
97208.8,54.0314,-1126.81,0,0
97469.1,54.2843,-1122.56,0,0
97729.5,54.4218,-1118.4,0,0
97989.8,54.6184,-1114.05,0,0
98250.1,54.9782,-1109.72,0,0
98510.4,55.3252,-1105.51,0,0
98770.8,55.6275,-1101.22,0,0
99031.1,56.1216,-1096.96,0,0
99291.4,56.6964,-1092.72,0,0
99551.7,57.3547,-1088.71,0,0
99812.1,57.9309,-1084.74,0,0
100072,58.4243,-1080.69,0,0
100333,59.2827,-1076.54,0,0
100593,60.4032,-1072.74,0,0
100853,61.532,-1069.37,0,0
101114,62.2139,-1066.38,0,0
101374,62.8592,-1063.28,0,0
101634,63.3836,-1060.57,0,0
101895,63.2559,-1058.11,0,0
102155,62.4269,-1055.43,0,0
102415,61.2639,-1052.02,0,0
102676,60.3221,-1048.08,0,0
102936,59.3675,-1043.89,0,0
103196,58.7155,-1039.31,0,0
103457,58.3049,-1034.43,0,0
103717,58.2739,-1029.48,0,0
103977,58.6492,-1024.45,0,0
104238,59.3569,-1019.7,0,0
104498,60.0326,-1015.07,0,0
104758,60.9295,-1010.42,0,0
105019,62.1033,-1005.88,0,0
105279,63.3696,-1001.57,0,0
105539,64.598,-997.495,0,0
105800,65.8663,-993.436,0,0
106060,67.204,-989.477,0,0
106320.175,68.5764,-985.667,0,0
106580.5,69.9385,-981.89,0,0
106840.825,71.3539,-978.297,0,0
107101.15,72.7191,-974.861,0,0
107361.475,73.9745,-971.339,0,0
107621.8,75.2432,-967.85,0,0
107882.125,76.6029,-964.234,0,0
108142.45,78.154,-960.693,0,0
108402.775,79.7972,-957.287,0,0
108663.1,81.6081,-954.082,0,0
108923.425,83.4206,-951.11,0,0
109183.75,85.1256,-948.264,0,0
109444.075,86.8456,-945.6,0,0
109704.4,88.5882,-943.11,0,0
109964.725,90.0174,-940.761,0,0
110225.05,91.3779,-938.319,0,0
110485.375,92.8205,-936.001,0,0
110745.7,94.0976,-933.855,0,0
111006.025,95.3735,-931.551,0,0
111266.35,96.6058,-929.525,0,0
111526.675,97.5964,-927.237,0,0
111787.0,98.778,-925.208,0,0
112047.325,99.8422,-923.037,0,0
112307.65,100.94,-921.142,0,0
112567.975,101.987,-919.228,0,0
112828.3,102.914,-917.438,0,0
113088.625,103.734,-915.662,0,0
113348.95,104.623,-913.856,0,0
113609.275,105.311,-912.192,0,0
113869.6,105.986,-910.47,0,0
114129.925,106.542,-908.783,0,0
114390.25,107.03,-907.111,0,0
114650.575,107.498,-905.436,0,0
114910.9,107.893,-903.797,0,0
115171.225,108.31,-902.265,0,0
115431.55,108.539,-900.816,0,0
115691.875,108.551,-899.232,0,0
115952.2,108.501,-897.634,0,0
116212.525,108.455,-895.959,0,0
116472.85,108.314,-894.359,0,0
116733.175,107.986,-892.706,0,0
116993.5,107.536,-890.845,0,0
117253.825,107.098,-888.804,0,0
117514.15,106.704,-886.73,0,0
117774.475,106.213,-884.536,0,0
118034.8,105.753,-882.114,0,0
118295.125,105.372,-879.511,0,0
118555.45,105.132,-876.729,0,0
118815.775,105.328,-873.725,0,0
119076.1,105.867,-870.853,0,0
119336.425,106.744,-868.215,0,0
119596.75,107.978,-865.747,0,0
119857.075,109.65,-864.114,0,0
120117.4,110.992,-863.249,0,0
120377.725,111.678,-863.02,0,0
120638.05,111.573,-862.917,0,0
120898.375,110.727,-862.713,0,0
121158.7,109.193,-861.962,0,0
121419.025,107.597,-860.525,0,0
121679.35,106.101,-858.714,0,0
121939.675,104.73,-856.649,0,0
122200.0,103.449,-854.42,0,0
122460,102.251,-852.013,0,0
122721,101.201,-849.387,0,0
122981,100.485,-846.751,0,0
123241,99.7969,-844.32,0,0
123502,99.1053,-841.778,0,0
123762,98.4586,-839.279,0,0
124022,97.8377,-836.789,0,0
124283,97.2642,-834.282,0,0
124543,96.6461,-831.782,0,0
124803,96.0259,-829.24,0,0
125064,95.5319,-826.652,0,0
125324,95.0932,-824.137,0,0
125584,94.6744,-821.658,0,0
125845,94.2837,-819.253,0,0
126105,93.8884,-816.904,0,0
126365,93.4766,-814.762,0,0
126626,92.8207,-812.725,0,0
126886,91.8864,-810.528,0,0
127146,90.9748,-808.201,0,0
127406,90.2171,-805.631,0,0
127667,89.3414,-803.115,0,0
127927,88.5442,-800.751,0,0
128187,87.5998,-798.456,0,0
128448,86.3353,-796.03,0,0
128708,85.0515,-793.308,0,0
128968,83.8196,-790.45,0,0
129229,82.5413,-787.544,0,0
129489,81.2656,-784.43,0,0
129749,80.068,-781.163,0,0
130010,78.989,-777.745,0,0
130270,78.0181,-774.259,0,0
130530,77.1234,-770.684,0,0
130791,76.34,-767.171,0,0
131051,75.5589,-763.59,0,0
131311,74.8515,-759.841,0,0
131572,74.3239,-756.058,0,0
131832,73.9373,-752.323,0,0
132092,73.575,-748.707,0,0
132353,73.17,-745.001,0,0
132613,72.8518,-741.219,0,0
132873,72.6729,-737.412,0,0
133134,72.5664,-733.649,0,0
133394,72.489,-729.896,0,0
133654,72.4209,-726.17,0,0
133915,72.4097,-722.378,0,0
134175,72.517,-718.564,0,0
134435,72.7422,-714.82,0,0
134696,72.9318,-711.046,0,0
134956,73.1718,-707.307,0,0
135216,73.4672,-703.544,0,0
135477,73.9008,-699.802,0,0
135737,74.4188,-696.127,0,0
135997,74.8934,-692.541,0,0
136258,75.4115,-689.016,0,0
136518,75.927,-685.432,0,0
136778,76.488,-681.927,0,0
137039,77.0752,-678.423,0,0
137299,77.7008,-675.072,0,0
137559,78.2144,-671.768,0,0
137819,78.5753,-668.448,0,0
138080,78.9034,-665.007,0,0
138340.125,79.2071,-661.456,0,0
138600.45,79.5878,-657.823,0,0
138860.775,80.0345,-654.123,0,0
139121.1,80.5357,-650.362,0,0
139381.425,81.129,-646.572,0,0
139641.75,81.8269,-642.802,0,0
139902.075,82.5727,-639.043,0,0
140162.4,83.3397,-635.216,0,0
140422.725,84.1887,-631.373,0,0
140683.05,85.1614,-627.562,0,0
140943.375,86.1602,-623.779,0,0
141203.7,87.2249,-619.97,0,0
141464.025,88.3642,-616.274,0,0
141724.35,89.577,-612.678,0,0
141984.675,90.6985,-609.055,0,0
142245.0,91.8221,-605.394,0,0
142505.325,93.0587,-601.718,0,0
142765.65,94.3203,-598.069,0,0
143025.975,95.5481,-594.451,0,0
143286.3,96.8438,-590.725,0,0
143546.625,98.1986,-587.07,0,0
143806.95,99.563,-583.38,0,0
144067.275,101.011,-579.7,0,0
144327.6,102.465,-576.035,0,0
144587.925,103.98,-572.33,0,0
144848.25,105.554,-568.61,0,0
145108.575,107.191,-564.907,0,0
145368.9,108.824,-561.211,0,0
145629.225,110.571,-557.464,0,0
145889.55,112.443,-553.745,0,0
146149.875,114.317,-550.032,0,0
146410.2,116.241,-546.319,0,0
146670.525,118.284,-542.628,0,0
146930.85,120.433,-538.96,0,0
147191.175,122.557,-535.385,0,0
147451.5,124.746,-531.786,0,0
147711.825,127.003,-528.211,0,0
147972.15,129.265,-524.681,0,0
148232.475,131.506,-521.09,0,0
148492.8,133.873,-517.401,0,0
148753.125,136.387,-513.692,0,0
149013.45,139.081,-510.05,0,0
149273.775,141.849,-506.532,0,0
149534.1,144.606,-502.981,0,0
149794.425,147.472,-499.348,0,0
150054.75,150.532,-495.766,0,0
150315.075,153.724,-492.258,0,0
150575.4,157.068,-488.805,0,0
150835.725,160.49,-485.463,0,0
151096.05,164.031,-482.097,0,0
151356.375,167.869,-478.775,0,0
151616.7,171.916,-475.755,0,0
151877.025,175.963,-472.981,0,0
152137.35,179.971,-470.297,0,0
152397.675,184.13,-467.539,0,0
152658.0,188.634,-465.008,0,0
152918.325,193.286,-462.956,0,0
153178.65,197.815,-461.241,0,0
153438.975,202.289,-459.703,0,0
153699.3,206.766,-458.438,0,0
153959.625,211.12,-457.538,0,0
154219.95,215.169,-456.885,0,0
154480,218.958,-456.277,0,0
154741,222.558,-455.741,0,0
155001,225.817,-455.211,0,0
155261,228.867,-454.3,0,0
155522,232.266,-453.29,0,0
155782,235.913,-452.515,0,0
156042,239.324,-452.03,0,0
156303,242.618,-451.678,0,0
156563,245.791,-451.321,0,0
156823,248.487,-451.191,0,0
157084,250.973,-450.408,0,0
157344,253.615,-449.47,0,0
157604,256.436,-448.509,0,0
157864,259.223,-447.388,0,0
158125,262.115,-445.907,0,0
158385,265.697,-444.431,0,0
158645,269.564,-443.332,0,0
158906,273.457,-442.326,0,0
159166,277.789,-441.579,0,0
159426,282.397,-441.392,0,0
159687,286.888,-441.68,0,0
159947,291.474,-442.376,0,0
160207,295.648,-444.045,0,0
160468,299.107,-445.896,0,0
160728,302.058,-447.75,0,0
160988,304.524,-449.703,0,0
161249,306.822,-451.637,0,0
161509,308.402,-453.654,0,0
161769,309.141,-455.165,0,0
162030,309.9,-455.893,0,0
162290,310.863,-456.37,0,0
162550,311.656,-456.608,0,0
162811,312.502,-456.531,0,0
163071,313.458,-456.156,0,0
163331,314.597,-455.579,0,0
163592,315.784,-454.82,0,0
163852,317.011,-453.803,0,0
164112,318.585,-452.395,0,0
164373,320.673,-450.81,0,0
164633,323.169,-449.332,0,0
164893,325.94,-448.1,0,0
165154,329.066,-447.07,0,0
165414,332.114,-446.204,0,0
165674,335.068,-445.323,0,0
165935,338.359,-444.379,0,0
166195,341.929,-443.22,0,0
166455,345.941,-442.112,0,0
166716,350.72,-441.159,0,0
166976,356.042,-440.755,0,0
167236,361.772,-441.075,0,0
167497,367.744,-442.086,0,0
167757,373.766,-443.952,0,0
168017,379.737,-446.564,0,0
168277,385.701,-450.148,0,0
168538,390.954,-454.78,0,0
168798,395.29,-459.745,0,0
169058,399.211,-464.843,0,0
169319,402.865,-470.262,0,0
169579,406.038,-476.337,0,0
169839,408.466,-482.634,0,0
170100,410.413,-489.183,0,0
170360.075,411.981,-496.201,0,0
170620.4,412.549,-504.028,0,0
170880.725,411.69,-512.037,0,0
171141.05,409.441,-519.795,0,0
171401.375,405.987,-526.869,0,0
171661.7,401.721,-533.021,0,0
171922.025,397.041,-538.406,0,0
172182.35,391.942,-543.208,0,0
172442.675,386.47,-547.361,0,0
172703.0,380.521,-550.943,0,0
172963.325,374.081,-553.774,0,0
173223.65,367.298,-555.674,0,0
173483.975,360.509,-556.604,0,0
173744.3,353.77,-556.629,0,0
174004.625,347.295,-555.764,0,0
174264.95,341.267,-554.35,0,0
174525.275,335.399,-552.486,0,0
174785.6,329.849,-549.855,0,0
175045.925,324.924,-546.84,0,0
175306.25,320.311,-543.522,0,0
175566.575,315.88,-539.92,0,0
175826.9,311.906,-535.803,0,0
176087.225,308.505,-531.315,0,0
176347.55,305.67,-526.789,0,0
176607.875,303.221,-522.226,0,0
176868.2,301.152,-517.493,0,0
177128.525,299.531,-512.766,0,0
177388.85,298.325,-508.05,0,0
177649.175,297.426,-503.435,0,0
177909.5,296.942,-498.891,0,0
178169.825,296.711,-494.584,0,0
178430.15,296.597,-490.529,0,0
178690.475,296.45,-486.51,0,0
178950.8,296.465,-482.442,0,0
179211.125,296.649,-478.389,0,0
179471.45,297.012,-474.436,0,0
179731.775,297.561,-470.491,0,0
179992.1,298.322,-466.721,0,0
180252.425,299.141,-463.152,0,0
180512.75,299.934,-459.677,0,0
180773.075,300.704,-456.255,0,0
181033.4,301.505,-452.852,0,0
181293.725,302.319,-449.492,0,0
181554.05,303.151,-446.166,0,0
181814.375,303.978,-442.894,0,0
182074.7,304.715,-439.639,0,0
182335.025,305.34,-436.318,0,0
182595.35,305.944,-432.814,0,0
182855.675,306.597,-429.228,0,0
183116.0,307.22,-425.51,0,0
183376.325,307.889,-421.599,0,0
183636.65,308.686,-417.486,0,0
183896.975,309.613,-413.216,0,0
184157.3,310.715,-408.829,0,0
184417.625,311.969,-404.359,0,0
184677.95,313.405,-399.772,0,0
184938.275,314.997,-395.131,0,0
185198.6,316.744,-390.422,0,0
185458.925,318.626,-385.558,0,0
185719.25,320.742,-380.602,0,0
185979.575,323.082,-375.551,0,0
186239.9,325.624,-370.468,0,0
186500,328.473,-365.386,0,0
186761,331.411,-360.308,0,0
187021,334.611,-355.141,0,0
187281,338.012,-350.008,0,0
187542,341.627,-344.749,0,0
187802,345.419,-339.463,0,0
188062,349.446,-334.067,0,0
188322,353.995,-328.691,0,0
188583,358.69,-323.418,0,0
188843,363.603,-317.987,0,0
189103,368.947,-312.715,0,0
189364,374.578,-307.482,0,0
189624,380.393,-302.244,0,0
189884,386.624,-297.041,0,0
190145,393.288,-291.814,0,0
190405,400.288,-286.828,0,0
190665,407.755,-282.05,0,0
190926,415.591,-277.548,0,0
191186,423.623,-273.297,0,0
191446,432.029,-269.286,0,0
191707,440.669,-265.391,0,0
191967,449.683,-261.698,0,0
192227,459.059,-258.517,0,0
192488,468.65,-255.578,0,0
192748,478.551,-253.008,0,0
193008,488.648,-250.823,0,0
193269,499.036,-249.034,0,0
193529,509.566,-247.7,0,0
193789,520.121,-246.778,0,0
194050,530.696,-246.161,0,0
194310,541.546,-245.779,0,0
194570,552.478,-245.706,0,0
194831,563.652,-246.026,0,0
195091,574.921,-246.785,0,0
195351,586.221,-247.98,0,0
195612,597.523,-249.415,0,0
195872,608.967,-251.072,0,0
196132,620.623,-253.042,0,0
196393,632.563,-255.33,0,0
196653,644.713,-258.051,0,0
196913,657.114,-261.143,0,0
197174,669.876,-264.732,0,0
197434,683.014,-268.949,0,0
197694,696.445,-274.017,0,0
197955,709.981,-279.955,0,0
198215,723.524,-286.791,0,0
198475,737.017,-294.535,0,0
198735,750.34,-303.07,0,0
198996,763.579,-312.58,0,0
199256,776.682,-323.093,0,0
199516,789.371,-334.905,0,0
199777,801.307,-347.785,0,0
200037,812.275,-361.394,0,0
200297,822.452,-375.877,0,0
200558,831.67,-391.06,0,0
200818,839.937,-406.65,0,0
201078,847.166,-422.814,0,0
201339,853.281,-439.467,0,0
201599,858.251,-456.119,0,0
201859,862.268,-472.982,0,0
202120,865.1,-489.98,0,0
202380.025,866.912,-506.702,0,0
202640.35,867.409,-523.257,0,0
202900.675,866.719,-539.173,0,0
203161.0,865.462,-553.999,0,0
203421.325,864.415,-568.211,0,0
203681.65,863.245,-582.733,0,0
203941.975,861.276,-597.201,0,0
204202.3,858.83,-611.456,0,0
204462.625,855.584,-625.402,0,0
204722.95,851.915,-638.699,0,0
204983.275,848.185,-651.766,0,0
205243.6,844.244,-664.808,0,0
205503.925,839.342,-677.816,0,0
205764.25,833.844,-690.061,0,0
206024.575,828.233,-701.662,0,0
206284.9,822.669,-713.005,0,0
206545.225,817.107,-724.088,0,0
206805.55,811.259,-735.313,0,0
207065.875,805.41,-746.601,0,0
207326.2,798.964,-758.098,0,0
207586.525,791.755,-769.824,0,0
207846.85,783.453,-781.353,0,0
208107.175,774.092,-792.482,0,0
208367.5,763.742,-802.655,0,0
208627.825,752.624,-811.671,0,0
208888.15,741.37,-819.644,0,0
209148.475,729.804,-826.547,0,0
209408.8,718.146,-832.394,0,0
209669.125,706.737,-836.957,0,0
209929.45,695.905,-840.87,0,0
210189.775,685.362,-844.16,0,0
210450.1,674.966,-846.926,0,0
210710.425,665.155,-849.232,0,0
210970.75,655.509,-851.05,0,0
211231.075,646.193,-852.463,0,0
211491.4,637.114,-853.357,0,0
211751.725,628.418,-853.868,0,0
212012.05,620.014,-853.902,0,0
212272.375,612.236,-853.541,0,0
212532.7,604.977,-852.813,0,0
212793.025,598.302,-852.059,0,0
213053.35,592.071,-851.36,0,0
213313.675,585.986,-850.538,0,0
213574.0,580.297,-849.453,0,0
213834.325,575.161,-848.079,0,0
214094.65,570.731,-846.736,0,0
214354.975,566.998,-845.521,0,0
214615.3,563.81,-844.792,0,0
214875.625,560.961,-844.482,0,0
215135.95,558.438,-844.78,0,0
215396.275,555.829,-845.702,0,0
215656.6,552.916,-847.078,0,0
215916.925,549.876,-848.534,0,0
216177.25,546.731,-850.298,0,0
216437.575,543.29,-852.273,0,0
216697.9,539.431,-854.279,0,0
216958.225,535.224,-856.154,0,0
217218.55,530.9,-857.67,0,0
217478.875,526.718,-859.032,0,0
217739.2,522.555,-860.381,0,0
217999.525,518.489,-861.748,0,0
218259.85,514.284,-863.008,0,0
218520,510.054,-864.409,0,0
218780,505.916,-865.635,0,0
219041,501.76,-866.704,0,0
219301,497.738,-867.803,0,0
219561,493.69,-869.227,0,0
219822,489.718,-870.513,0,0
220082,485.573,-871.888,0,0
220342,481.305,-873.426,0,0
220603,476.831,-874.931,0,0
220863,472.141,-876.319,0,0
221123,467.324,-877.553,0,0
221384,462.483,-878.563,0,0
221644,457.639,-879.66,0,0
221904,452.674,-880.411,0,0
222165,447.719,-881.106,0,0
222425,442.594,-881.604,0,0
222685,437.666,-881.797,0,0
222946,432.982,-881.991,0,0
223206,428.475,-882.236,0,0
223466,423.764,-882.542,0,0
223727,419.183,-882.873,0,0
223987,414.463,-883.067,0,0
224247,409.741,-883.39,0,0
224508,405.096,-883.579,0,0
224768,400.371,-884.081,0,0
225028,395.53,-884.285,0,0
225289,390.481,-884.625,0,0
225549,385.297,-884.95,0,0
225809,379.816,-885.091,0,0
226070,374.116,-885.02,0,0
226330,368.351,-884.649,0,0
226590,362.437,-884.002,0,0
226851,356.635,-882.995,0,0
227111,350.884,-881.783,0,0
227371,345.286,-880.431,0,0
227632,339.645,-878.854,0,0
227892,333.991,-877.192,0,0
228152,328.322,-875.315,0,0
228413,322.64,-873.013,0,0
228673,317.061,-870.518,0,0
228933,311.684,-867.605,0,0
229193,306.548,-864.518,0,0
229454,301.57,-861.253,0,0
229714,296.867,-857.726,0,0
229974,292.585,-854.046,0,0
230235,288.573,-850.343,0,0
230495,284.738,-846.68,0,0
230755,281.192,-842.944,0,0
231016,277.877,-839.183,0,0
231276,274.81,-835.461,0,0
231536,271.882,-831.915,0,0
231797,269.007,-828.395,0,0
232057,266.253,-824.91,0,0
232317,263.623,-821.326,0,0
232578,261.127,-817.754,0,0
232838,258.792,-814.213,0,0
233098,256.535,-810.751,0,0
233359,254.479,-807.172,0,0
233619,252.647,-803.663,0,0
233879,250.946,-800.287,0,0
234140,249.335,-797.077,0,0
234400,247.772,-793.848,0,0
234660.3,246.224,-790.706,0,0
234920.625,244.854,-787.469,0,0
235180.95,243.552,-784.446,0,0
235441.275,242.488,-781.403,0,0
235701.6,241.52,-778.591,0,0
235961.925,240.435,-775.937,0,0
236222.25,239.24,-773.299,0,0
236482.575,238.113,-770.649,0,0
236742.9,236.958,-767.917,0,0
237003.225,235.861,-765.139,0,0
237263.55,234.903,-762.384,0,0
237523.875,234.062,-759.572,0,0
237784.2,233.39,-756.741,0,0
238044.525,232.852,-754.034,0,0
238304.85,232.527,-751.431,0,0
238565.175,232.351,-748.973,0,0
238825.5,232.098,-746.785,0,0
239085.825,231.933,-744.682,0,0
239346.15,231.712,-742.803,0,0
239606.475,231.479,-740.851,0,0
239866.8,231.183,-739.094,0,0
240127.125,230.999,-737.516,0,0
240387.45,230.792,-735.871,0,0
240647.775,230.512,-734.477,0,0
240908.1,230.127,-733.133,0,0
241168.425,229.605,-731.817,0,0
241428.75,229.153,-730.516,0,0
241689.075,228.584,-729.257,0,0
241949.4,227.956,-728.051,0,0
242209.725,227.34,-726.829,0,0
242470.05,226.633,-725.755,0,0
242730.375,225.866,-724.686,0,0
242990.7,224.94,-723.602,0,0
243251.025,224.003,-722.49,0,0
243511.35,222.984,-721.32,0,0
243771.675,221.974,-720.196,0,0
244032.0,220.871,-719.088,0,0
244292.325,219.643,-717.891,0,0
244552.65,218.277,-716.63,0,0
244812.975,216.898,-715.272,0,0
245073.3,215.543,-713.702,0,0
245333.625,214.146,-712.121,0,0
245593.95,212.766,-710.428,0,0
245854.275,211.468,-708.646,0,0
246114.6,210.158,-706.679,0,0
246374.925,208.984,-704.673,0,0
246635.25,207.931,-702.594,0,0
246895.575,206.992,-700.56,0,0
247155.9,206.192,-698.389,0,0
247416.225,205.532,-696.263,0,0
247676.55,204.91,-694.184,0,0
247936.875,204.511,-692.221,0,0
248197.2,204.09,-690.454,0,0
248457.525,203.717,-688.786,0,0
248717.85,203.275,-687.137,0,0
248978.175,202.794,-685.62,0,0
249238.5,202.166,-684.088,0,0
249498.825,201.498,-682.544,0,0
249759.15,200.847,-681.018,0,0
250019.475,200.162,-679.373,0,0
250279.8,199.517,-677.713,0,0
250540,198.996,-676.066,0,0
250800,198.346,-674.617,0,0
251061,197.655,-673.103,0,0
251321,196.95,-671.632,0,0
251581,196.139,-670.163,0,0
251842,195.218,-668.7,0,0
252102,194.171,-667.235,0,0
252362,192.969,-665.652,0,0
252623,191.644,-663.961,0,0
252883,190.223,-662.016,0,0
253143,188.761,-659.811,0,0
253404,187.382,-657.315,0,0
253664,186.188,-654.607,0,0
253924,185.182,-651.776,0,0
254185,184.326,-648.875,0,0
254445,183.562,-646.017,0,0
254705,182.976,-643.086,0,0
254966,182.298,-639.975,0,0
255226,181.819,-636.839,0,0
255486,181.482,-633.575,0,0
255747,181.23,-630.15,0,0
256007,181.117,-626.567,0,0
256267,181.272,-622.92,0,0
256528,181.766,-619.125,0,0
256788,182.516,-615.441,0,0
257048,183.472,-611.817,0,0
257309,184.578,-608.264,0,0
257569,185.829,-604.704,0,0
257829,187.301,-601.121,0,0
258090,189.011,-597.565,0,0
258350,190.964,-594.096,0,0
258610,193.096,-590.715,0,0
258871,195.464,-587.364,0,0
259131,198.081,-584.053,0,0
259391,201.114,-580.89,0,0
259651,204.366,-577.994,0,0
259912,207.92,-575.438,0,0
260172,211.571,-573.143,0,0
260432,215.377,-571.103,0,0
260693,219.212,-569.311,0,0
260953,223.21,-567.838,0,0
261213,227.327,-566.62,0,0
261474,231.484,-565.797,0,0
261734,235.582,-565.279,0,0
261994,239.597,-565.009,0,0
262255,243.558,-564.908,0,0
262515,247.482,-564.948,0,0
262775,251.484,-565.055,0,0
263036,255.906,-565.502,0,0
263296,260.171,-566.436,0,0
263556,264.309,-567.806,0,0
263817,268.24,-569.532,0,0
264077,271.956,-571.436,0,0
264337,275.485,-573.528,0,0
264598,278.942,-575.794,0,0
264858,282.292,-578.253,0,0
265118,285.623,-581.028,0,0
265379,288.625,-584.139,0,0
265639,291.437,-587.45,0,0
265899,294.045,-590.939,0,0
266160,296.528,-594.739,0,0
266420,298.679,-598.919,0,0
266680.25,300.339,-603.385,0,0
266940.575,301.445,-608.008,0,0
267200.9,302.02,-612.649,0,0
267461.225,302.086,-617.122,0,0
267721.55,301.832,-621.328,0,0
267981.875,301.416,-625.393,0,0
268242.2,300.836,-629.312,0,0
268502.525,300.094,-633.309,0,0
268762.85,299.089,-637.318,0,0
269023.175,297.764,-641.422,0,0
269283.5,296.015,-645.504,0,0
269543.825,293.62,-649.468,0,0
269804.15,290.796,-653.003,0,0
270064.475,287.463,-655.932,0,0
270324.8,284.113,-658.076,0,0
270585.125,280.906,-659.727,0,0
270845.45,278.001,-660.916,0,0
271105.775,275.415,-661.913,0,0
271366.1,273.171,-662.69,0,0
271626.425,271.353,-663.459,0,0
271886.75,269.796,-664.505,0,0
272147.075,268.322,-665.82,0,0
272407.4,266.746,-667.362,0,0
272667.725,265.007,-669.054,0,0
272928.05,263.061,-670.807,0,0
273188.375,260.867,-672.499,0,0
273448.7,258.571,-674.15,0,0
273709.025,256.228,-675.729,0,0
273969.35,253.823,-677.36,0,0
274229.675,251.192,-679.108,0,0
274490.0,248.336,-680.81,0,0
274750.325,245.098,-682.406,0,0
275010.65,241.541,-683.883,0,0
275270.975,237.861,-685.016,0,0
275531.3,233.861,-685.852,0,0
275791.625,229.758,-686.418,0,0
276051.95,225.464,-686.59,0,0
276312.275,221.173,-686.345,0,0
276572.6,216.889,-685.724,0,0
276832.925,212.71,-684.725,0,0
277093.25,208.634,-683.357,0,0
277353.575,204.76,-681.688,0,0
277613.9,201.046,-679.755,0,0
277874.225,197.496,-677.48,0,0
278134.55,194.223,-674.866,0,0
278394.875,191.344,-671.989,0,0
278655.2,188.833,-668.968,0,0
278915.525,186.75,-665.859,0,0
279175.85,185.065,-662.687,0,0
279436.175,183.783,-659.564,0,0
279696.5,182.941,-656.527,0,0
279956.825,182.461,-653.826,0,0
280217.15,182.155,-651.372,0,0
280477.475,182.017,-649.164,0,0
280737.8,181.921,-647.29,0,0
280998.125,181.839,-645.667,0,0
281258.45,181.682,-644.226,0,0
281518.775,181.424,-642.936,0,0
281779.1,180.979,-641.749,0,0
282039.425,180.384,-640.496,0,0
282299.75,179.742,-639.082,0,0
282560,179.182,-637.491,0,0
282820,178.817,-635.783,0,0
283081,178.754,-634.087,0,0
283341,178.953,-632.55,0,0
283601,179.347,-631.373,0,0
283862,179.75,-630.474,0,0
284122,179.956,-629.931,0,0
284382,179.954,-629.492,0,0
284643,179.715,-629.172,0,0
284903,179.363,-628.739,0,0
285163,178.937,-628.276,0,0
285424,178.425,-627.835,0,0
285684,177.9,-627.413,0,0
285944,177.222,-627.041,0,0
286205,176.374,-626.74,0,0
286465,175.226,-626.317,0,0
286725,173.867,-625.706,0,0
286986,172.41,-624.739,0,0
287246,171.004,-623.52,0,0
287506,169.649,-622.041,0,0
287767,168.393,-620.36,0,0
288027,167.252,-618.424,0,0
288287,166.306,-616.291,0,0
288548,165.558,-613.978,0,0
288808,165.101,-611.472,0,0
289068,164.91,-608.807,0,0
289329,165.11,-606.062,0,0
289589,165.73,-603.264,0,0
289849,166.791,-600.583,0,0
290109,168.33,-598.151,0,0
290370,170.178,-595.944,0,0
290630,172.31,-594.109,0,0
290890,174.671,-592.7,0,0
291151,177.186,-591.659,0,0
291411,179.739,-591.07,0,0
291671,182.299,-590.88,0,0
291932,184.805,-591.055,0,0
292192,187.16,-591.589,0,0
292452,189.373,-592.394,0,0
292713,191.482,-593.492,0,0
292973,193.457,-594.887,0,0
293233,195.246,-596.607,0,0
293494,196.792,-598.618,0,0
293754,198.011,-600.917,0,0
294014,198.878,-603.403,0,0
294275,199.354,-605.99,0,0
294535,199.463,-608.672,0,0
294795,199.131,-611.404,0,0
295056,198.429,-614.095,0,0
295316,197.334,-616.703,0,0
295576,195.848,-619.093,0,0
295837,194.058,-621.258,0,0
296097,192.052,-623.165,0,0
296357,189.831,-624.757,0,0
296618,187.511,-626.063,0,0
296878,185.099,-627.07,0,0
297138,182.679,-627.794,0,0
297399,180.302,-628.268,0,0
297659,177.997,-628.515,0,0
297919,175.76,-628.592,0,0
298180,173.632,-628.513,0,0
298440,171.602,-628.333,0,0
298700.2,169.687,-628.045,0,0
298960.525,167.88,-627.733,0,0
299220.85,166.133,-627.44,0,0
299481.175,164.4,-627.091,0,0
299741.5,162.723,-626.707,0,0
300001.825,161.078,-626.299,0,0
300262.15,159.438,-625.901,0,0
300522.475,157.812,-625.456,0,0
300782.8,156.167,-624.99,0,0
301043.125,154.517,-624.506,0,0
301303.45,152.848,-623.934,0,0
301563.775,151.187,-623.304,0,0
301824.1,149.525,-622.558,0,0
302084.425,147.887,-621.725,0,0
302344.75,146.339,-620.809,0,0
302605.075,144.882,-619.828,0,0
302865.4,143.508,-618.854,0,0
303125.725,142.181,-617.905,0,0
303386.05,140.86,-616.955,0,0
303646.375,139.538,-615.959,0,0
303906.7,138.213,-614.912,0,0
304167.025,136.962,-613.792,0,0
304427.35,135.794,-612.629,0,0
304687.675,134.69,-611.438,0,0
304948.0,133.607,-610.266,0,0
305208.325,132.628,-609.057,0,0
305468.65,131.677,-607.816,0,0
305728.975,130.826,-606.584,0,0
305989.3,130.018,-605.343,0,0
306249.625,129.254,-604.118,0,0
306509.95,128.581,-602.896,0,0
306770.275,127.968,-601.669,0,0
307030.6,127.466,-600.497,0,0
307290.925,127.012,-599.385,0,0
307551.25,126.59,-598.343,0,0
307811.575,126.217,-597.37,0,0
308071.9,125.861,-596.47,0,0
308332.225,125.473,-595.648,0,0
308592.55,125.066,-594.861,0,0
308852.875,124.646,-594.124,0,0
309113.2,124.202,-593.41,0,0
309373.525,123.747,-592.738,0,0
309633.85,123.254,-592.064,0,0
309894.175,122.706,-591.449,0,0
310154.5,122.148,-590.78,0,0
310414.825,121.57,-590.155,0,0
310675.15,120.961,-589.521,0,0
310935.475,120.272,-588.875,0,0
311195.8,119.568,-588.172,0,0
311456.125,118.858,-587.431,0,0
311716.45,118.152,-586.67,0,0
311976.775,117.457,-585.837,0,0
312237.1,116.772,-584.997,0,0
312497.425,116.132,-584.14,0,0
312757.75,115.494,-583.246,0,0
313018.075,114.895,-582.345,0,0
313278.4,114.331,-581.418,0,0
313538.725,113.811,-580.468,0,0
313799.05,113.328,-579.521,0,0
314059.375,112.883,-578.593,0,0
314319.7,112.495,-577.666,0,0
314580,112.161,-576.726,0,0
314840,111.804,-575.926,0,0
315101,111.557,-575.054,0,0
315361,111.249,-574.273,0,0
315621,110.998,-573.516,0,0
315882,110.858,-572.827,0,0
316142,110.638,-572.141,0,0
316402,110.385,-571.499,0,0
316663,110.111,-570.92,0,0
316923,109.868,-570.369,0,0
317183,109.688,-569.799,0,0
317444,109.405,-569.433,0,0
317704,109.226,-568.99,0,0
317964,108.877,-568.548,0,0
318225,108.555,-568.208,0,0
318485,108.076,-567.96,0,0
318745,107.756,-567.603,0,0
319006,107.304,-567.317,0,0
319266,106.852,-567.122,0,0
319526,106.299,-566.917,0,0
319787,105.702,-566.758,0,0
320047,105.05,-566.509,0,0
320307,104.313,-566.23,0,0
320567,103.49,-566.163,0,0
320828,102.667,-565.998,0,0
321088,101.604,-565.752,0,0
321348,100.594,-565.513,0,0
321609,99.465,-565.244,0,0
321869,98.2132,-564.933,0,0
322129,96.8806,-564.451,0,0
322390,95.4995,-563.85,0,0
322650,94.0603,-563.175,0,0
322910,92.5686,-562.26,0,0
323171,91.1453,-561.171,0,0
323431,89.798,-559.99,0,0
323691,88.5168,-558.695,0,0
323952,87.4019,-557.211,0,0
324212,86.352,-555.799,0,0
324472,85.4911,-554.343,0,0
324733,84.7639,-552.834,0,0
324993,84.0716,-551.421,0,0
325253,83.4425,-550.025,0,0
325514,82.9365,-548.602,0,0
325774,82.3255,-547.368,0,0
326034,81.7918,-546.011,0,0
326295,81.2949,-544.753,0,0
326555,80.7358,-543.461,0,0
326815,80.2244,-542.126,0,0
327076,79.7342,-540.859,0,0
327336,79.3382,-539.472,0,0
327596,78.9424,-538.113,0,0
327857,78.4645,-536.686,0,0
328117,78.0592,-535.395,0,0
328377,77.7276,-533.948,0,0
328638,77.5161,-532.509,0,0
328898,77.2228,-531.05,0,0
329158,77.0446,-529.568,0,0
329419,76.941,-528.178,0,0
329679,76.9265,-526.715,0,0
329939,76.9775,-525.259,0,0
330200,77.1142,-523.912,0,0
330460,77.301,-522.654,0,0
330720.15,77.5712,-521.333,0,0
330980.475,77.8716,-520.216,0,0
331240.8,78.184,-519.198,0,0
331501.125,78.518,-518.18,0,0
331761.45,78.8708,-517.309,0,0
332021.775,79.0976,-516.453,0,0
332282.1,79.3429,-515.617,0,0
332542.425,79.5382,-514.975,0,0
332802.75,79.7736,-514.274,0,0
333063.075,79.8684,-513.665,0,0
333323.4,79.8756,-513.074,0,0
333583.725,79.9875,-512.504,0,0
333844.05,79.9293,-511.962,0,0
334104.375,79.8194,-511.418,0,0
334364.7,79.6276,-510.88,0,0
334625.025,79.4191,-510.191,0,0
334885.35,79.186,-509.601,0,0
335145.675,78.8802,-508.966,0,0
335406.0,78.5926,-508.213,0,0
335666.325,78.2448,-507.537,0,0
335926.65,77.8764,-506.7,0,0
336186.975,77.5543,-505.915,0,0
336447.3,77.1224,-505.051,0,0
336707.625,76.7289,-504.149,0,0
336967.95,76.3694,-503.13,0,0
337228.275,75.9859,-502.059,0,0
337488.6,75.7093,-501.019,0,0
337748.925,75.4552,-499.735,0,0
338009.25,75.22,-498.55,0,0
338269.575,75.0547,-497.377,0,0
338529.9,74.9615,-496.078,0,0
338790.225,74.8784,-494.874,0,0
339050.55,74.969,-493.589,0,0
339310.875,75.0647,-492.265,0,0
339571.2,75.205,-491.014,0,0
339831.525,75.3668,-489.709,0,0
340091.85,75.6117,-488.435,0,0
340352.175,75.9522,-487.219,0,0
340612.5,76.3636,-486.003,0,0
340872.825,76.8137,-484.754,0,0
341133.15,77.3015,-483.582,0,0
341393.475,77.934,-482.405,0,0
341653.8,78.665,-481.338,0,0
341914.125,79.4289,-480.326,0,0
342174.45,80.2494,-479.4,0,0
342434.775,81.1508,-478.603,0,0
342695.1,82.095,-477.921,0,0
342955.425,83.0208,-477.386,0,0
343215.75,83.9519,-476.962,0,0
343476.075,84.8166,-476.669,0,0
343736.4,85.6659,-476.473,0,0
343996.725,86.4077,-476.376,0,0
344257.05,87.0449,-476.329,0,0
344517.375,87.6526,-476.382,0,0
344777.7,88.0619,-476.415,0,0
345038.025,88.4756,-476.552,0,0
345298.35,88.8486,-476.654,0,0
345558.675,89.0857,-476.814,0,0
345819.0,89.2253,-476.909,0,0
346079.325,89.2037,-477.025,0,0
346339.65,89.2577,-477.149,0,0
346599.975,89.2493,-477.233,0,0
346860,89.1769,-477.298,0,0
347121,88.9614,-477.332,0,0
347381,88.7685,-477.292,0,0
347641,88.5371,-477.267,0,0
347902,88.2754,-477.19,0,0
348162,87.9619,-477.129,0,0
348422,87.6962,-476.974,0,0
348683,87.2767,-476.796,0,0
348943,86.9015,-476.643,0,0
349203,86.4332,-476.357,0,0
349464,86.0586,-476.028,0,0
349724,85.6318,-475.69,0,0
349984,85.1819,-475.279,0,0
350245,84.7942,-474.872,0,0
350505,84.3482,-474.466,0,0
350765,83.8989,-473.895,0,0
351025,83.5613,-473.375,0,0
351286,83.1177,-472.9,0,0
351546,82.7369,-472.3,0,0
351806,82.3432,-471.652,0,0
352067,81.9688,-470.998,0,0
352327,81.6186,-470.304,0,0
352587,81.3521,-469.576,0,0
352848,81.041,-468.795,0,0
353108,80.7997,-468.022,0,0
353368,80.6233,-467.259,0,0
353629,80.5189,-466.385,0,0
353889,80.4601,-465.547,0,0
354149,80.506,-464.743,0,0
354410,80.5634,-463.995,0,0
354670,80.6744,-463.295,0,0
354930,80.8416,-462.641,0,0
355191,80.9748,-462.121,0,0
355451,81.1246,-461.615,0,0
355711,81.107,-461.184,0,0
355972,81.1547,-460.756,0,0
356232,81.1446,-460.352,0,0
356492,81.1148,-459.917,0,0
356753,81.0931,-459.541,0,0
357013,80.9925,-459.145,0,0
357273,80.8376,-458.742,0,0
357534,80.6698,-458.381,0,0
357794,80.4615,-457.965,0,0
358054,80.2129,-457.518,0,0
358315,79.9026,-457.11,0,0
358575,79.5657,-456.553,0,0
358835,79.2278,-456.022,0,0
359096,78.8281,-455.305,0,0
359356,78.4919,-454.62,0,0
359616,78.1714,-453.77,0,0
359877,77.9569,-452.914,0,0
360137,77.7833,-451.994,0,0
360397,77.6748,-451.122,0,0
360658,77.6008,-450.236,0,0
360918,77.5564,-449.362,0,0
361178,77.5964,-448.515,0,0
361438,77.6811,-447.688,0,0
361699,77.7468,-446.828,0,0
361959,77.8407,-445.997,0,0
362219,78.0242,-445.201,0,0
362480,78.2278,-444.415,0,0
362740.1,78.4205,-443.653,0,0
363000.425,78.6808,-442.96,0,0
363260.75,78.9097,-442.304,0,0
363521.075,79.1606,-441.684,0,0
363781.4,79.338,-441.187,0,0
364041.725,79.5178,-440.675,0,0
364302.05,79.6751,-440.154,0,0
364562.375,79.7602,-439.614,0,0
364822.7,79.7456,-439.102,0,0
365083.025,79.6998,-438.542,0,0
365343.35,79.6842,-437.924,0,0
365603.675,79.6585,-437.195,0,0
365864.0,79.6364,-436.46,0,0
366124.325,79.5847,-435.665,0,0
366384.65,79.6685,-434.846,0,0
366644.975,79.7075,-433.94,0,0
366905.3,79.9123,-433.024,0,0
367165.625,80.0729,-432.097,0,0
367425.95,80.3184,-431.147,0,0
367686.275,80.6907,-430.167,0,0
367946.6,81.0536,-429.203,0,0
368206.925,81.4997,-428.239,0,0
368467.25,82.0515,-427.321,0,0
368727.575,82.6635,-426.42,0,0
368987.9,83.3406,-425.608,0,0
369248.225,84.0725,-424.796,0,0
369508.55,84.8988,-424.035,0,0
369768.875,85.722,-423.262,0,0
370029.2,86.6351,-422.63,0,0
370289.525,87.5966,-422.109,0,0
370549.85,88.5953,-421.554,0,0
370810.175,89.5554,-421.161,0,0
371070.5,90.6708,-420.828,0,0
371330.825,91.7286,-420.619,0,0
371591.15,92.8664,-420.503,0,0
371851.475,93.9337,-420.518,0,0
372111.8,95.0662,-420.65,0,0
372372.125,96.1042,-420.922,0,0
372632.45,97.0706,-421.274,0,0
372892.775,97.957,-421.866,0,0
373153.1,98.7402,-422.46,0,0
373413.425,99.376,-423.155,0,0
373673.75,99.8444,-423.884,0,0
373934.075,100.218,-424.625,0,0
374194.4,100.428,-425.291,0,0
374454.725,100.526,-426.052,0,0
374715.05,100.519,-426.653,0,0
374975.375,100.465,-427.212,0,0
375235.7,100.288,-427.754,0,0
375496.025,100.14,-428.205,0,0
375756.35,99.9075,-428.545,0,0
376016.675,99.729,-428.852,0,0
376277.0,99.463,-429.121,0,0
376537.325,99.2566,-429.367,0,0
376797.65,98.9904,-429.545,0,0
377057.975,98.7789,-429.787,0,0
377318.3,98.5514,-429.908,0,0
377578.625,98.3082,-430.088,0,0
377838.95,98.0825,-430.18,0,0
378099.275,97.8745,-430.326,0,0
378359.6,97.6725,-430.461,0,0
378619.925,97.4114,-430.596,0,0
378880,97.0634,-430.651,0,0
379141,96.8353,-430.708,0,0
379401,96.5142,-430.811,0,0
379661,96.2406,-430.801,0,0
379922,95.9537,-430.807,0,0
380182,95.6837,-430.813,0,0
380442,95.3438,-430.883,0,0
380703,95.0728,-430.856,0,0
380963,94.7249,-430.889,0,0
381223,94.2953,-430.805,0,0
381483,93.9878,-430.71,0,0
381744,93.66,-430.444,0,0
382004,93.4346,-430.296,0,0
382264,93.2422,-429.948,0,0
382525,93.208,-429.738,0,0
382785,93.274,-429.616,0,0
383045,93.4408,-429.61,0,0
383306,93.5711,-429.784,0,0
383566,93.6348,-430.079,0,0
383826,93.6001,-430.406,0,0
384087,93.5196,-430.941,0,0
384347,93.1954,-431.507,0,0
384607,92.7743,-432.062,0,0
384868,92.1299,-432.641,0,0
385128,91.3836,-433.112,0,0
385388,90.5515,-433.532,0,0
385649,89.6036,-433.817,0,0
385909,88.5088,-434.028,0,0
386169,87.46,-434.068,0,0
386430,86.333,-433.999,0,0
386690,85.1677,-433.79,0,0
386950,84.0378,-433.493,0,0
387211,82.9135,-433.091,0,0
387471,81.8457,-432.478,0,0
387731,80.8339,-431.789,0,0
387992,79.9303,-431.056,0,0
388252,79.089,-430.127,0,0
388512,78.3841,-429.184,0,0
388773,77.8592,-428.181,0,0
389033,77.4079,-427.216,0,0
389293,77.1104,-426.267,0,0
389554,76.9691,-425.337,0,0
389814,76.8775,-424.467,0,0
390074,76.9043,-423.708,0,0
390335,76.9854,-423.017,0,0
390595,77.1728,-422.483,0,0
390855,77.3348,-422.059,0,0
391116,77.5591,-421.735,0,0
391376,77.6969,-421.563,0,0
391636,77.7491,-421.556,0,0
391896,77.736,-421.633,0,0
392157,77.5715,-421.722,0,0
392417,77.3028,-421.95,0,0
392677,76.7973,-422.132,0,0
392938,76.289,-422.27,0,0
393198,75.6015,-422.386,0,0
393458,74.7589,-422.37,0,0
393719,73.896,-422.241,0,0
393979,72.942,-422.045,0,0
394239,72.0097,-421.7,0,0
394500,71.0361,-421.298,0,0
394760.05,70.1279,-420.704,0,0
395020.375,69.2525,-420.082,0,0
395280.7,68.4041,-419.452,0,0
395541.025,67.5938,-418.657,0,0
395801.35,66.8011,-417.838,0,0
396061.675,66.0938,-417.007,0,0
396322.0,65.4135,-416.111,0,0
396582.325,64.8191,-415.185,0,0
396842.65,64.3074,-414.284,0,0
397102.975,63.7997,-413.351,0,0
397363.3,63.3063,-412.391,0,0
397623.625,62.8823,-411.453,0,0
397883.95,62.4641,-410.514,0,0
398144.275,62.1031,-409.566,0,0
398404.6,61.7373,-408.624,0,0
398664.925,61.403,-407.691,0,0
398925.25,61.0929,-406.658,0,0
399185.575,60.7835,-405.736,0,0
399445.9,60.5452,-404.721,0,0
399706.225,60.3345,-403.773,0,0
399966.55,60.1273,-402.762,0,0
400006.6,60.0623,-402.603,0,0