File: Accelerated corrosion test data/2025-10-06_06-00-03/sample_1.csv
Frequency (Hz),Impedance (ohms),Phase (Radians),Temperature (C),Humidity (%)
10000.0,238.14,-12227.2,0,0
10260.325,237.647,-11911.6,0,0
10520.65,228.01,-11631.7,0,0
10780.975,223.409,-11346.9,0,0
11041.3,217.637,-11086.9,0,0
11301.625,212.635,-10828.9,0,0
11561.95,208.865,-10584.7,0,0
11822.275,206.216,-10345.8,0,0
12082.6,222.743,-10115.4,0,0
12342.925,208.893,-9938.82,0,0
12603.25,192.803,-9727.43,0,0
12863.575,189.535,-9525.17,0,0
13123.9,196.243,-9331.46,0,0
13384.225,184.086,-9161.92,0,0
13644.55,179.423,-8979.51,0,0
13904.875,180.412,-8801.91,0,0
14165.2,198.518,-8668.57,0,0
14425.525,210.174,-8492.17,0,0
14685.8,194.679,-8333.88,0,0
14946.175,177.55,-8232.82,0,0
15206.5,181.425,-8068.4,0,0
15466.825,173.126,-7951.48,0,0
15727.15,171.744,-7819.72,0,0
15987.5,159.565,-7691.12,0,0
16247.8,156.472,-7565.12,0,0
16508.125,154.316,-7441.83,0,0
16768.45,158.446,-7324.66,0,0
17028.775,160.986,-7216.93,0,0
17289.1,152.432,-7113.91,0,0
17549.425,152.755,-7008.49,0,0
17809.75,145.027,-6906.06,0,0
18070.075,147.825,-6805.54,0,0
18330.4,141.24,-6709.21,0,0
18590.725,136.866,-6615.46,0,0
18851.05,136.751,-6516.88,0,0
19111.375,134.952,-6435.68,0,0
19371.7,131.953,-6343.14,0,0
19632.025,131.167,-6254.52,0,0
19892.35,134.307,-6168.04,0,0
20152.675,134.909,-6080.7,0,0
20413.0,154.13,-5993.08,0,0
20673.3,168.102,-5951.44,0,0
20933.65,151.146,-5882.98,0,0
21193.975,157.191,-5816.91,0,0
21454.3,144.766,-5743.1,0,0
21714.625,139.177,-5678.6,0,0
21974.9,134.991,-5593.12,0,0
22235.275,172.665,-5545.59,0,0
22495.6,141.737,-5507.57,0,0
22755.925,126.607,-5437.92,0,0
23016.25,122.027,-5371.15,0,0
23276.6,118.258,-5309.8,0,0
23536.9,115.14,-5248.78,0,0
23797.225,112.011,-5187.34,0,0
24057.55,114.004,-5126.08,0,0
24317.875,112.487,-5078.39,0,0
24578.2,110.392,-5018.04,0,0
24838.525,109.511,-4967.85,0,0
25098.85,110.287,-4913.66,0,0
25359.175,105.668,-4864.56,0,0
25619.5,103.886,-4813.24,0,0
25879.8,102.812,-4761.76,0,0
26140.1,103.001,-4712.71,0,0
26400.5,101.675,-4662.87,0,0
26660.8,105.234,-4611.64,0,0
26921.1,112.338,-4565.42,0,0
27181.4,118.746,-4530.18,0,0
27441.8,112.63,-4497.46,0,0
27702.1,103.843,-4448.04,0,0
27962.4,110.084,-4399.03,0,0
28222.7,109.923,-4360.05,0,0
28483.1,120.73,-4315.94,0,0
28743.4,131.369,-4297.75,0,0
29003.7,115.986,-4263.58,0,0
29264,117.791,-4226.02,0,0
29524.4,106.546,-4193.3,0,0
29784.7,104.512,-4150.65,0,0
30045,100.672,-4119.11,0,0
30305.3,99.4696,-4079.81,0,0
30565.7,96.5423,-4041.33,0,0
30826,100.55,-4007,0,0
31086.3,103.402,-3977.31,0,0
31346.6,98.907,-3948.9,0,0
31607,93.3333,-3911.84,0,0
31867.3,96.5138,-3877.36,0,0
32127.6,97.9001,-3846.79,0,0
32387.9,97.6942,-3821.44,0,0
32648.3,92.7225,-3789.52,0,0
32908.6,95.2536,-3760.53,0,0
33168.9,90.566,-3732.41,0,0
33429.2,88.6346,-3703.74,0,0
33689.6,85.8246,-3674.12,0,0
33949.9,84.3937,-3643.33,0,0
34210.2,86.1307,-3616.42,0,0
34470.5,83.4827,-3589.74,0,0
34730.9,81.9665,-3561.84,0,0
34991.2,81.0109,-3534.56,0,0
35251.5,79.827,-3507.74,0,0
35511.8,79.0699,-3481.3,0,0
35772.2,78.9056,-3455.64,0,0
36032.5,77.3598,-3430.18,0,0
36292.8,77.0053,-3404.81,0,0
36553.1,76.1521,-3379.97,0,0
36813.5,75.7833,-3355.54,0,0
37073.8,75.8882,-3331.29,0,0
37334.1,74.8585,-3307.64,0,0
37594.4,74.7838,-3284.23,0,0
37854.8,73.8933,-3261.59,0,0
38115.1,73.3496,-3238.63,0,0
38375.4,72.9037,-3215.82,0,0
38635.7,72.6197,-3193.83,0,0
38896.1,72.0699,-3171.67,0,0
39156.4,71.9282,-3149.97,0,0
39416.7,72.0793,-3129.43,0,0
39677,71.1029,-3108.36,0,0
39937.4,70.8936,-3086.89,0,0
40197.7,71.1028,-3066.73,0,0
40458,70.6119,-3046.37,0,0
40718.3,70.8076,-3025.82,0,0
40978.7,71.9396,-3006.12,0,0
41239,71.747,-2987.89,0,0
41499.3,71.4702,-2969.68,0,0
41759.6,70.6032,-2951.31,0,0
42020,69.6521,-2932.04,0,0
42280.275,69.988,-2913.42,0,0
42540.6,70.1574,-2895.68,0,0
42800.925,69.8053,-2878.55,0,0
43061.25,69.0325,-2860.46,0,0
43321.575,69.0093,-2843.33,0,0
43581.9,68.5132,-2825.98,0,0
43842.225,67.5631,-2808.46,0,0
44102.55,67.6969,-2790.96,0,0
44362.875,68.6948,-2773.87,0,0
44623.2,69.0934,-2758.36,0,0
44883.525,68.1368,-2742.71,0,0
45143.85,68.5896,-2726.83,0,0
45404.175,68.4577,-2711.25,0,0
45664.5,67.4383,-2696.58,0,0
45924.825,66.8224,-2680.94,0,0
46185.15,66.5431,-2665.81,0,0
46445.475,65.5651,-2650.87,0,0
46705.8,64.8056,-2635.11,0,0
46966.125,64.5165,-2620.42,0,0
47226.45,64.0844,-2605.13,0,0
47486.775,64.3501,-2590.91,0,0
47747.1,63.5356,-2577.16,0,0
48007.425,63.2352,-2562.36,0,0
48267.75,63.2413,-2547.78,0,0
48528.075,62.6969,-2534.72,0,0
48788.4,61.4872,-2520.52,0,0
49048.725,61.3363,-2506.34,0,0
49309.05,61.1316,-2492.49,0,0
49569.375,60.8921,-2479.32,0,0
49829.7,60.7372,-2466.21,0,0
50090.025,60.0935,-2453.11,0,0
50350.35,59.5315,-2439.69,0,0
50610.675,59.3483,-2426.32,0,0
50871.0,59.0429,-2413.51,0,0
51131.325,58.9861,-2400.57,0,0
51391.65,59.2126,-2388.03,0,0
51651.975,58.6779,-2375.91,0,0
51912.3,58.3105,-2363.54,0,0
52172.625,57.9763,-2351.11,0,0
52432.95,57.8615,-2338.83,0,0
52693.275,57.7078,-2326.87,0,0
52953.6,57.5725,-2314.91,0,0
53213.925,57.5739,-2303.07,0,0
53474.25,57.3431,-2291.58,0,0
53734.575,57.209,-2280.03,0,0
53994.9,57.2065,-2268.86,0,0
54255.225,56.8075,-2257.67,0,0
54515.55,56.366,-2246.45,0,0
54775.875,56.1161,-2235.25,0,0
55036.2,55.7699,-2223.88,0,0
55296.525,55.9521,-2212.81,0,0
55556.85,55.9483,-2202.19,0,0
55817.175,55.5391,-2191.77,0,0
56077.5,55.0475,-2180.93,0,0
56337.825,54.827,-2170.16,0,0
56598.15,54.9797,-2159.62,0,0
56858.475,54.844,-2149.36,0,0
57118.8,54.5796,-2139.04,0,0
57379.125,54.4718,-2128.47,0,0
57639.45,54.5524,-2118.27,0,0
57899.775,54.6005,-2108.45,0,0
58160.1,54.5896,-2098.57,0,0
58420.4,54.4313,-2088.7,0,0
58680.7,54.2403,-2079,0,0
58941.1,54.2669,-2069.2,0,0
59201.4,54.3421,-2059.54,0,0
59461.7,54.2905,-2050.45,0,0
59722,54.093,-2041.02,0,0
59982.4,54.111,-2031.53,0,0
60242.7,54.1003,-2022.31,0,0
60503,54.1386,-2013.06,0,0
60763.3,54.4593,-2004.29,0,0
61023.7,53.949,-1995.83,0,0
61284,53.5937,-1986.8,0,0
61544.3,53.2327,-1977.78,0,0
61804.6,53.511,-1968.72,0,0
62065,53.0951,-1960.39,0,0
62325.3,52.7181,-1951.44,0,0
62585.6,52.6152,-1942.67,0,0
62845.9,52.3988,-1933.87,0,0
63106.3,52.5619,-1925.18,0,0
63366.6,52.4564,-1916.77,0,0
63626.9,52.5032,-1908.19,0,0
63887.2,52.5368,-1899.74,0,0
64147.6,52.6484,-1891.29,0,0
64407.9,52.6315,-1882.99,0,0
64668.2,52.8481,-1874.68,0,0
64928.5,53.4839,-1866.35,0,0
65188.9,54.0333,-1858.35,0,0
65449.2,54.8548,-1850.87,0,0
65709.5,55.314,-1843.79,0,0
65969.8,55.1882,-1836.6,0,0
66230.2,55.0056,-1829.45,0,0
66490.5,54.815,-1822.16,0,0
66750.8,54.6772,-1814.78,0,0
67011.1,54.2736,-1807.81,0,0
67271.5,53.7062,-1799.97,0,0
67531.8,54.0996,-1792.34,0,0
67792.1,54.4249,-1785.34,0,0
68052.4,54.2502,-1778.88,0,0
68312.8,53.6196,-1771.9,0,0
68573.1,53.3028,-1764.48,0,0
68833.4,53.4763,-1757.4,0,0
69093.7,53.3107,-1750.72,0,0
69354.1,53.0198,-1743.82,0,0
69614.4,52.8365,-1737.18,0,0
69874.7,52.2001,-1730.61,0,0
70135,51.7876,-1723.54,0,0
70395.4,51.1578,-1716.76,0,0
70655.7,50.6451,-1709.58,0,0
70916,50.5054,-1702.47,0,0
71176.3,50.4836,-1695.66,0,0
71436.7,50.4117,-1689.05,0,0
71697,49.9233,-1682.71,0,0
71957.3,49.3851,-1675.97,0,0
72217.6,48.8562,-1669.12,0,0
72478,48.5522,-1661.98,0,0
72738.3,48.4004,-1655.15,0,0
72998.6,48.3203,-1648.31,0,0
73258.9,48.3776,-1641.65,0,0
73519.3,48.3349,-1635.13,0,0
73779.6,48.1493,-1628.54,0,0
74039.9,48.2018,-1621.88,0,0
74300.225,48.2562,-1615.38,0,0
74560.55,48.3115,-1608.94,0,0
74820.875,48.4099,-1602.53,0,0
75081.2,48.5064,-1596.28,0,0
75341.525,48.4955,-1590.02,0,0
75601.85,48.525,-1583.74,0,0
75862.175,48.6141,-1577.36,0,0
76122.5,48.9787,-1571.07,0,0
76382.825,49.3313,-1565.08,0,0
76643.15,49.4219,-1559.17,0,0
76903.475,49.6172,-1553.2,0,0
77163.8,50.0057,-1547.23,0,0
77424.125,50.0884,-1541.55,0,0
77684.45,50.1867,-1535.72,0,0
77944.775,50.3809,-1529.76,0,0
78205.1,50.7672,-1523.9,0,0
78465.425,51.3567,-1518.25,0,0
78725.75,51.8179,-1513.06,0,0
78986.075,51.9343,-1507.97,0,0
79246.4,51.9006,-1502.82,0,0
79506.725,51.7931,-1497.45,0,0
79767.05,51.6204,-1492.27,0,0
80027.375,51.4835,-1486.75,0,0
80287.7,51.1994,-1481.53,0,0
80548.025,50.8217,-1475.94,0,0
80808.35,50.701,-1470.31,0,0
81068.675,50.5583,-1464.71,0,0
81329.0,50.6456,-1459.05,0,0
81589.325,50.903,-1453.58,0,0
81849.65,50.9973,-1448.18,0,0
82109.975,51.1179,-1442.81,0,0
82370.3,51.1641,-1437.46,0,0
82630.625,51.2328,-1432.15,0,0
82890.95,51.2961,-1426.64,0,0
83151.275,51.574,-1421.29,0,0
83411.6,51.9458,-1416.04,0,0
83671.925,52.3017,-1410.75,0,0
83932.25,52.5805,-1405.52,0,0
84192.575,52.93,-1400.49,0,0
84452.9,53.2693,-1395.44,0,0
84713.225,53.601,-1390.28,0,0
84973.55,54.2109,-1385.27,0,0
85233.875,54.7645,-1380.51,0,0
85494.2,55.1604,-1375.93,0,0
85754.525,55.3529,-1371.23,0,0
86014.85,55.5872,-1366.55,0,0
86275.175,55.8315,-1361.81,0,0
86535.5,56.0668,-1357.15,0,0
86795.825,56.1739,-1352.58,0,0
87056.15,56.3662,-1347.85,0,0
87316.475,56.7604,-1343.14,0,0
87576.8,56.9143,-1338.77,0,0
87837.125,56.6962,-1334.33,0,0
88097.45,56.5529,-1329.4,0,0
88357.775,56.6244,-1324.53,0,0
88618.1,57.0118,-1319.48,0,0
88878.425,57.3619,-1314.66,0,0
89138.75,57.5905,-1309.86,0,0
89399.075,57.8665,-1304.95,0,0
89659.4,58.4788,-1299.82,0,0
89919.725,59.2857,-1294.93,0,0
90180,60.1982,-1290.19,0,0
90440.4,61.0498,-1286,0,0
90700.7,61.626,-1281.28,0,0
90961,62.7186,-1276.3,0,0
91221.3,64.0682,-1271.9,0,0
91481.7,65.4018,-1267.65,0,0
91742,67.0107,-1263.73,0,0
92002.3,68.2723,-1260.2,0,0
92262.6,69.3019,-1256.3,0,0
92523,70.5521,-1252.48,0,0
92783.3,72.3873,-1248.98,0,0
93043.6,74.0953,-1246.15,0,0
93303.9,75.5109,-1243.42,0,0
93564.3,76.9749,-1241,0,0
93824.6,78.9143,-1239.81,0,0
94084.9,78.8206,-1240.16,0,0
94345.2,76.5163,-1239.37,0,0
94605.6,73.6864,-1235.98,0,0
94865.9,72.7079,-1232.34,0,0
95126.2,71.2775,-1229.37,0,0
95386.5,70.0358,-1225.54,0,0
95646.9,68.6351,-1222.01,0,0
95907.2,67.2509,-1217.55,0,0
96167.5,66.5312,-1212.85,0,0
96427.8,66.7201,-1208.63,0,0
96688.2,66.2674,-1205.21,0,0
96948.5,65.3883,-1201.26,0,0
97208.8,64.7402,-1196.95,0,0
97469.1,64.4359,-1192.53,0,0
97729.5,64.3505,-1188.16,0,0
97989.8,64.4943,-1184.03,0,0
98250.1,64.5489,-1180.26,0,0
98510.4,64.4358,-1176.53,0,0
98770.8,64.0357,-1172.77,0,0
99031.1,63.6264,-1168.6,0,0
99291.4,63.5733,-1164.43,0,0
99551.7,63.4491,-1160.46,0,0
99812.1,63.3249,-1156.27,0,0
100072,63.5841,-1152.03,0,0
100333,63.7454,-1148.29,0,0
100593,63.7498,-1144.41,0,0
100853,63.7014,-1140.46,0,0
101114,63.7251,-1136.45,0,0
101374,63.7543,-1132.59,0,0
101634,63.4762,-1128.63,0,0
101895,63.1747,-1124.34,0,0
102155,63.0208,-1119.69,0,0
102415,63.3272,-1114.73,0,0
102676,64.2037,-1109.9,0,0
102936,65.4093,-1105.57,0,0
103196,66.3989,-1101.6,0,0
103457,67.2894,-1097.54,0,0
103717,68.2784,-1093.38,0,0
103977,69.4574,-1089.18,0,0
104238,71.1563,-1085.13,0,0
104498,72.9671,-1081.87,0,0
104758,74.2263,-1078.98,0,0
105019,75.1153,-1075.72,0,0
105279,76.0765,-1072.34,0,0
105539,77.3339,-1068.88,0,0
105800,78.7531,-1065.49,0,0
106060,80.2924,-1062.48,0,0
106320.175,81.7292,-1059.67,0,0
106580.5,83.0207,-1056.87,0,0
106840.825,84.3348,-1054.19,0,0
107101.15,85.7367,-1051.5,0,0
107361.475,87.2687,-1049.18,0,0
107621.8,88.4392,-1047.22,0,0
107882.125,89.2504,-1045.11,0,0
108142.45,90.1163,-1042.8,0,0
108402.775,91.0711,-1040.51,0,0
108663.1,92.1824,-1038.4,0,0
108923.425,93.1132,-1036.62,0,0
109183.75,93.9182,-1034.92,0,0
109444.075,94.4106,-1033.46,0,0
109704.4,94.6252,-1031.88,0,0
109964.725,94.6011,-1030.2,0,0
110225.05,94.285,-1028.34,0,0
110485.375,94.1062,-1026.03,0,0
110745.7,94.0618,-1023.65,0,0
111006.025,93.9521,-1021.15,0,0
111266.35,94.0182,-1018.58,0,0
111526.675,94.7124,-1015.95,0,0
111787.0,95.3433,-1014.21,0,0
112047.325,95.6825,-1012.07,0,0
112307.65,96.0597,-1010.05,0,0
112567.975,96.4599,-1008.3,0,0
112828.3,96.6097,-1006.62,0,0
113088.625,96.6659,-1004.86,0,0
113348.95,96.6899,-1003.31,0,0
113609.275,96.5276,-1001.8,0,0
113869.6,96.1421,-1000.32,0,0
114129.925,95.56,-998.755,0,0
114390.25,94.76,-997.044,0,0
114650.575,93.9547,-995.006,0,0
114910.9,93.1859,-993.134,0,0
115171.225,92.3414,-991.114,0,0
115431.55,91.3576,-989.008,0,0
115691.875,90.3525,-986.864,0,0
115952.2,89.1603,-984.367,0,0
116212.525,88.2039,-981.767,0,0
116472.85,87.3283,-979.036,0,0
116733.175,86.4447,-976.295,0,0
116993.5,85.6224,-973.581,0,0
117253.825,84.6929,-970.749,0,0
117514.15,83.8909,-967.715,0,0
117774.475,83.1203,-964.569,0,0
118034.8,82.6237,-961.357,0,0
118295.125,82.2356,-958.207,0,0
118555.45,81.9151,-955.043,0,0
118815.775,81.728,-951.96,0,0
119076.1,81.5685,-948.83,0,0
119336.425,81.4313,-945.794,0,0
119596.75,81.3743,-942.77,0,0
119857.075,81.5148,-939.662,0,0
120117.4,81.8663,-936.91,0,0
120377.725,82.0142,-934.339,0,0
120638.05,82.0914,-931.751,0,0
120898.375,82.0728,-929.36,0,0
121158.7,81.8884,-926.873,0,0
121419.025,81.5713,-924.242,0,0
121679.35,81.3519,-921.742,0,0
121939.675,80.9287,-919.131,0,0
122200.0,80.6105,-916.292,0,0
122460,80.3647,-913.566,0,0
122721,80.0111,-910.768,0,0
122981,79.6902,-907.859,0,0
123241,79.419,-904.885,0,0
123502,79.3097,-901.838,0,0
123762,79.1707,-898.919,0,0
124022,79.0694,-895.872,0,0
124283,79.0368,-892.787,0,0
124543,79.1629,-889.743,0,0
124803,79.274,-886.864,0,0
125064,79.357,-883.945,0,0
125324,79.4036,-880.943,0,0
125584,79.525,-877.909,0,0
125845,79.8135,-874.988,0,0
126105,80.0397,-872.099,0,0
126365,80.3233,-869.167,0,0
126626,80.6277,-866.317,0,0
126886,80.8139,-863.484,0,0
127146,80.9677,-860.599,0,0
127406,81.2943,-857.547,0,0
127667,81.5724,-854.657,0,0
127927,82.112,-851.597,0,0
128187,82.5432,-848.671,0,0
128448,83.107,-845.787,0,0
128708,83.7232,-842.962,0,0
128968,84.2424,-840.201,0,0
129229,84.7409,-837.328,0,0
129489,85.3542,-834.433,0,0
129749,86.049,-831.422,0,0
130010,86.9883,-828.562,0,0
130270,88.0476,-825.8,0,0
130530,89.1174,-823.27,0,0
130791,90.2082,-820.897,0,0
131051,91.1835,-818.634,0,0
131311,92.0902,-816.375,0,0
131572,92.9996,-814.24,0,0
131832,93.7994,-812.176,0,0
132092,94.5073,-810.115,0,0
132353,95.2258,-808.054,0,0
132613,95.8374,-805.978,0,0
132873,96.5056,-803.886,0,0
133134,97.1731,-801.81,0,0
133394,97.8061,-799.833,0,0
133654,98.3526,-797.846,0,0
133915,98.8827,-795.829,0,0
134175,99.3273,-793.845,0,0
134435,99.7501,-791.833,0,0
134696,100.037,-789.681,0,0
134956,100.491,-787.382,0,0
135216,101.041,-785.155,0,0
135477,101.649,-782.894,0,0
135737,102.305,-780.744,0,0
135997,102.965,-778.531,0,0
136258,103.744,-776.344,0,0
136518,104.553,-774.361,0,0
136778,105.326,-772.377,0,0
137039,106.085,-770.349,0,0
137299,106.959,-768.383,0,0
137559,108.127,-766.433,0,0
137819,109.333,-765.135,0,0
138080,110.123,-764.067,0,0
138340.125,110.587,-763.019,0,0
138600.45,110.762,-761.943,0,0
138860.775,110.665,-760.666,0,0
139121.1,110.462,-759.121,0,0
139381.425,110.412,-757.356,0,0
139641.75,110.477,-755.669,0,0
139902.075,110.364,-754.078,0,0
140162.4,110.011,-752.246,0,0
140422.725,109.805,-750.166,0,0
140683.05,109.852,-747.992,0,0
140943.375,109.919,-745.939,0,0
141203.7,109.957,-743.863,0,0
141464.025,110.027,-741.795,0,0
141724.35,110.031,-739.712,0,0
141984.675,110.01,-737.468,0,0
142245.0,110.203,-735.086,0,0
142505.325,110.566,-732.916,0,0
142765.65,110.835,-730.825,0,0
143025.975,111.074,-728.625,0,0
143286.3,111.345,-726.54,0,0
143546.625,111.425,-724.389,0,0
143806.95,111.621,-722.062,0,0
144067.275,111.965,-719.795,0,0
144327.6,112.227,-717.534,0,0
144587.925,112.583,-715.092,0,0
144848.25,113.187,-712.781,0,0
145108.575,113.748,-710.616,0,0
145368.9,114.305,-708.483,0,0
145629.225,114.796,-706.37,0,0
145889.55,115.259,-704.272,0,0
146149.875,115.691,-702.052,0,0
146410.2,116.332,-699.81,0,0
146670.525,117.059,-697.649,0,0
146930.85,117.954,-695.703,0,0
147191.175,118.638,-694.097,0,0
147451.5,118.899,-692.424,0,0
147711.825,119.111,-690.399,0,0
147972.15,119.608,-688.279,0,0
148232.475,120.178,-686.273,0,0
148492.8,120.756,-684.396,0,0
148753.125,121.239,-682.664,0,0
149013.45,121.511,-680.824,0,0
149273.775,121.866,-678.856,0,0
149534.1,122.283,-676.997,0,0
149794.425,122.611,-675.229,0,0
150054.75,122.84,-673.476,0,0
150315.075,122.903,-671.605,0,0
150575.4,122.949,-669.785,0,0
150835.725,122.878,-667.897,0,0
151096.05,122.548,-665.879,0,0
151356.375,122.191,-663.493,0,0
151616.7,122.013,-660.865,0,0
151877.025,121.988,-658.223,0,0
152137.35,121.99,-655.538,0,0
152397.675,121.935,-652.816,0,0
152658.0,121.816,-649.839,0,0
152918.325,121.949,-646.52,0,0
153178.65,122.477,-643.101,0,0
153438.975,123.278,-639.91,0,0
153699.3,123.951,-636.907,0,0
153959.625,124.606,-633.734,0,0
154219.95,125.368,-630.362,0,0
154480,126.352,-626.903,0,0
154741,127.575,-623.372,0,0
155001,129.129,-619.904,0,0
155261,130.8,-616.794,0,0
155522,132.338,-613.679,0,0
155782,134.039,-610.274,0,0
156042,136.162,-606.955,0,0
156303,138.421,-603.971,0,0
156563,140.646,-601.071,0,0
156823,143.058,-598.034,0,0
157084,145.939,-595.285,0,0
157344,148.895,-593.046,0,0
157604,151.657,-591.209,0,0
157864,154.101,-589.487,0,0
158125,156.273,-587.745,0,0
158385,158.539,-585.742,0,0
158645,160.86,-583.883,0,0
158906,162.954,-582.185,0,0
159166,164.869,-580.187,0,0
159426,166.892,-577.874,0,0
159687,169.281,-575.232,0,0
159947,172.245,-572.689,0,0
160207,175.512,-570.423,0,0
160468,178.937,-568.385,0,0
160728,182.714,-566.552,0,0
160988,186.755,-565.26,0,0
161249,190.882,-564.376,0,0
161509,194.787,-564.244,0,0
161769,198.186,-564.415,0,0
162030,201.23,-564.559,0,0
162290,204.157,-564.687,0,0
162550,206.879,-564.866,0,0
162811,209.406,-564.926,0,0
163071,212.149,-564.73,0,0
163331,215.225,-564.876,0,0
163592,218.106,-565.509,0,0
163852,220.626,-566.232,0,0
164112,222.958,-566.815,0,0
164373,225.29,-567.283,0,0
164633,227.796,-567.823,0,0
164893,230.325,-568.439,0,0
165154,232.991,-569.272,0,0
165414,235.756,-570.292,0,0
165674,238.558,-571.681,0,0
165935,241.293,-573.702,0,0
166195,243.52,-576.2,0,0
166455,245.122,-578.795,0,0
166716,246.361,-581.316,0,0
166976,247.384,-583.863,0,0
167236,248.056,-586.602,0,0
167497,248.167,-589.268,0,0
167757,247.927,-591.687,0,0
168017,247.507,-593.904,0,0
168277,246.768,-596.019,0,0
168538,245.851,-597.93,0,0
168798,244.677,-599.715,0,0
169058,243.228,-601.116,0,0
169319,241.825,-602.281,0,0
169579,240.252,-603.339,0,0
169839,238.409,-603.991,0,0
170100,236.657,-604.219,0,0
170360.075,235.112,-604.289,0,0
170620.4,233.522,-604.26,0,0
170880.725,232.031,-603.899,0,0
171141.05,230.721,-603.528,0,0
171401.375,229.46,-603.198,0,0
171661.7,228.1,-602.668,0,0
171922.025,226.854,-602.051,0,0
172182.35,225.577,-601.392,0,0
172442.675,224.261,-600.562,0,0
172703.0,222.967,-599.544,0,0
172963.325,221.733,-598.282,0,0
173223.65,220.779,-596.802,0,0
173483.975,220.051,-595.246,0,0
173744.3,219.514,-593.743,0,0
174004.625,219.104,-592.209,0,0
174264.95,218.998,-590.684,0,0
174525.275,218.995,-589.329,0,0
174785.6,219.005,-588.04,0,0
175045.925,219.32,-586.794,0,0
175306.25,219.642,-585.743,0,0
175566.575,220.178,-584.907,0,0
175826.9,220.609,-584.539,0,0
176087.225,220.694,-584.465,0,0
176347.55,220.358,-584.239,0,0
176607.875,219.997,-583.76,0,0
176868.2,219.678,-583.352,0,0
177128.525,219.161,-583.014,0,0
177388.85,218.486,-582.384,0,0
177649.175,218.046,-581.632,0,0
177909.5,217.677,-581.089,0,0
178169.825,217.091,-580.598,0,0
178430.15,216.403,-580.064,0,0
178690.475,215.715,-579.413,0,0
178950.8,215.035,-578.856,0,0
179211.125,214.15,-578.246,0,0
179471.45,213.247,-577.593,0,0
179731.775,212.436,-576.943,0,0
179992.1,211.585,-576.609,0,0
180252.425,210.094,-576.379,0,0
180512.75,207.993,-575.673,0,0
180773.075,206,-574.32,0,0
181033.4,204.287,-572.657,0,0
181293.725,202.603,-570.888,0,0
181554.05,201.004,-568.801,0,0
181814.375,199.79,-566.547,0,0
182074.7,198.876,-564.516,0,0
182335.025,197.831,-562.753,0,0
182595.35,196.449,-560.967,0,0
182855.675,194.883,-558.805,0,0
183116.0,193.404,-556.365,0,0
183376.325,192.071,-553.724,0,0
183636.65,190.81,-550.809,0,0
183896.975,189.791,-547.731,0,0
184157.3,188.968,-544.527,0,0
184417.625,188.502,-541.218,0,0
184677.95,188.255,-538.09,0,0
184938.275,188.014,-535.047,0,0
185198.6,187.891,-531.873,0,0
185458.925,187.907,-528.703,0,0
185719.25,188.055,-525.679,0,0
185979.575,188.215,-522.691,0,0
186239.9,188.45,-519.67,0,0
186500,188.834,-516.699,0,0
186761,189.324,-513.809,0,0
187021,189.604,-511.024,0,0
187281,189.917,-508.127,0,0
187542,190.336,-505.149,0,0
187802,190.926,-502.246,0,0
188062,191.239,-499.474,0,0
188322,191.454,-496.491,0,0
188583,191.878,-493.231,0,0
188843,192.474,-489.949,0,0
189103,193.2,-486.649,0,0
189364,194.045,-483.408,0,0
189624,194.974,-480.147,0,0
189884,196.111,-476.888,0,0
190145,197.196,-473.678,0,0
190405,198.497,-470.527,0,0
190665,199.698,-467.414,0,0
190926,201.025,-464.466,0,0
191186,202.167,-461.371,0,0
191446,203.301,-458.247,0,0
191707,204.592,-454.882,0,0
191967,206.114,-451.576,0,0
192227,207.767,-448.308,0,0
192488,209.492,-445.17,0,0
192748,211.11,-442.039,0,0
193008,212.689,-438.95,0,0
193269,214.36,-435.581,0,0
193529,216.153,-432.253,0,0
193789,218.076,-428.895,0,0
194050,220.053,-425.488,0,0
194310,222.119,-422.231,0,0
194570,224.133,-418.864,0,0
194831,226.219,-415.329,0,0
195091,228.576,-411.715,0,0
195351,231.019,-408.198,0,0
195612,233.578,-404.631,0,0
195872,236.302,-401.068,0,0
196132,239.038,-397.487,0,0
196393,241.936,-393.825,0,0
196653,244.967,-390.067,0,0
196913,248.416,-386.29,0,0
197174,251.963,-382.553,0,0
197434,255.815,-378.983,0,0
197694,259.87,-375.535,0,0
197955,263.995,-372.232,0,0
198215,268.321,-369.196,0,0
198475,272.694,-366.34,0,0
198735,276.905,-363.62,0,0
198996,281.041,-360.986,0,0
199256,285.096,-358.241,0,0
199516,289.113,-355.269,0,0
199777,293.332,-352.243,0,0
200037,297.574,-348.996,0,0
200297,302.122,-345.498,0,0
200558,307.108,-341.974,0,0
200818,312.467,-338.413,0,0
201078,318.184,-334.884,0,0
201339,324.383,-331.367,0,0
201599,330.958,-328.089,0,0
201859,338.036,-325.042,0,0
202120,345.329,-322.323,0,0
202380.025,352.916,-319.919,0,0
202640.35,360.884,-317.827,0,0
202900.675,369.02,-316.104,0,0
203161.0,377.36,-314.643,0,0
203421.325,386.034,-313.486,0,0
203681.65,394.957,-312.614,0,0
203941.975,404.231,-312.043,0,0
204202.3,413.936,-312.007,0,0
204462.625,424.323,-312.57,0,0
204722.95,435.013,-314.183,0,0
204983.275,445.748,-316.974,0,0
205243.6,456.299,-320.953,0,0
205503.925,466.189,-325.734,0,0
205764.25,475.347,-331.167,0,0
206024.575,484.123,-337.211,0,0
206284.9,492.167,-343.568,0,0
206545.225,499.786,-350.261,0,0
206805.55,507.068,-357.456,0,0
207065.875,513.699,-365.281,0,0
207326.2,519.26,-373.628,0,0
207586.525,523.812,-381.881,0,0
207846.85,527.66,-389.8,0,0
208107.175,531.136,-397.423,0,0
208367.5,534.436,-405.001,0,0
208627.825,537.373,-412.834,0,0
208888.15,539.586,-420.962,0,0
209148.475,540.978,-428.946,0,0
209408.8,541.526,-436.634,0,0
209669.125,541.397,-443.899,0,0
209929.45,540.662,-450.607,0,0
210189.775,539.649,-456.616,0,0
210450.1,538.334,-462.012,0,0
210710.425,537.001,-466.809,0,0
210970.75,535.674,-471.24,0,0
211231.075,534.013,-475.26,0,0
211491.4,532.227,-478.447,0,0
211751.725,530.747,-480.893,0,0
212012.05,529.518,-482.869,0,0
212272.375,528.51,-484.192,0,0
212532.7,528.234,-484.775,0,0
212793.025,529.096,-485.307,0,0
213053.35,530.834,-485.952,0,0
213313.675,533.088,-487.489,0,0
213574.0,535.258,-489.707,0,0
213834.325,537.079,-492.171,0,0
214094.65,538.735,-494.482,0,0
214354.975,540.594,-496.72,0,0
214615.3,542.63,-499.13,0,0
214875.625,544.493,-501.88,0,0
215135.95,546.224,-504.484,0,0
215396.275,548.112,-506.887,0,0
215656.6,550.202,-509.581,0,0
215916.925,552.281,-512.407,0,0
216177.25,553.981,-515.416,0,0
216437.575,555.396,-517.963,0,0
216697.9,557.039,-520.047,0,0
216958.225,559.119,-521.781,0,0
217218.55,562.019,-523.44,0,0
217478.875,565.562,-525.608,0,0
217739.2,569.498,-528.517,0,0
217999.525,573.335,-532.157,0,0
218259.85,576.727,-536.363,0,0
218520,579.644,-540.441,0,0
218780,582.47,-544.367,0,0
219041,585.532,-548.196,0,0
219301,588.775,-552.203,0,0
219561,592.378,-556.298,0,0
219822,596.016,-560.737,0,0
220082,599.858,-565.679,0,0
220342,603.606,-570.945,0,0
220603,607.496,-576.508,0,0
220863,611.691,-582.352,0,0
221123,615.962,-589.012,0,0
221384,619.835,-596.461,0,0
221644,623.303,-604.349,0,0
221904,626.447,-612.734,0,0
222165,629.254,-621.465,0,0
222425,631.574,-630.845,0,0
222685,633.304,-640.753,0,0
222946,634.211,-650.593,0,0
223206,634.47,-660.464,0,0
223466,634.401,-670.409,0,0
223727,633.842,-680.514,0,0
223987,632.716,-690.819,0,0
224247,630.9,-700.929,0,0
224508,628.529,-710.576,0,0
224768,626.169,-720.19,0,0
225028,623.561,-730.084,0,0
225289,620.481,-740.303,0,0
225549,616.773,-750.448,0,0
225809,612.311,-760.704,0,0
226070,607.232,-770.825,0,0
226330,601.28,-780.719,0,0
226590,594.594,-790.019,0,0
226851,587.479,-798.829,0,0
227111,580.197,-807.315,0,0
227371,572.294,-815.382,0,0
227632,564.071,-823.107,0,0
227892,555.274,-830.373,0,0
228152,545.972,-836.926,0,0
228413,536.209,-842.795,0,0
228673,526.398,-847.73,0,0
228933,516.573,-852.008,0,0
229193,506.863,-855.702,0,0
229454,497.292,-858.801,0,0
229714,487.804,-861.448,0,0
229974,478.426,-863.456,0,0
230235,469.156,-865.248,0,0
230495,459.795,-866.333,0,0
230755,451.003,-866.879,0,0
231016,442.313,-866.891,0,0
231276,434.167,-866.613,0,0
231536,426.353,-866.103,0,0
231797,418.853,-865.328,0,0
232057,411.671,-864.235,0,0
232317,405.02,-863.062,0,0
232578,398.856,-861.875,0,0
232838,392.935,-860.938,0,0
233098,387.097,-860.1,0,0
233359,381.319,-859.257,0,0
233619,375.608,-858.396,0,0
233879,370.054,-857.371,0,0
234140,364.469,-856.387,0,0
234400,358.852,-855.21,0,0
234660.3,353.402,-853.986,0,0
234920.625,348.134,-852.482,0,0
235180.95,343.56,-851.061,0,0
235441.275,338.817,-849.877,0,0
235701.6,334.155,-848.77,0,0
235961.925,329.337,-847.566,0,0
236222.25,324.436,-846.347,0,0
236482.575,319.692,-844.903,0,0
236742.9,315.113,-843.421,0,0
237003.225,310.758,-841.89,0,0
237263.55,306.469,-840.462,0,0
237523.875,302.13,-839.032,0,0
237784.2,297.737,-837.69,0,0
238044.525,293.413,-836.276,0,0
238304.85,289.097,-834.838,0,0
238565.175,284.747,-833.3,0,0
238825.5,280.291,-831.696,0,0
239085.825,275.892,-830.039,0,0
239346.15,271.492,-828.045,0,0
239606.475,267.052,-825.977,0,0
239866.8,262.687,-823.693,0,0
240127.125,258.86,-821.323,0,0
240387.45,254.953,-818.583,0,0
240647.775,251.399,-816.044,0,0
240908.1,248.106,-813.574,0,0
241168.425,244.771,-811.177,0,0
241428.75,241.495,-808.833,0,0
241689.075,238.321,-806.342,0,0
241949.4,235.104,-803.928,0,0
242209.725,232.07,-801.341,0,0
242470.05,229.091,-798.826,0,0
242730.375,226.363,-796.304,0,0
242990.7,223.64,-793.828,0,0
243251.025,220.993,-791.317,0,0
243511.35,218.494,-788.934,0,0
243771.675,216.054,-786.551,0,0
244032.0,213.635,-784.342,0,0
244292.325,211.355,-782.045,0,0
244552.65,208.94,-779.934,0,0
244812.975,206.461,-777.771,0,0
245073.3,204.098,-775.451,0,0
245333.625,201.684,-773.106,0,0
245593.95,199.335,-770.737,0,0
245854.275,197.193,-768.59,0,0
246114.6,194.898,-766.374,0,0
246374.925,192.54,-764.1,0,0
246635.25,190.146,-761.718,0,0
246895.575,187.86,-759.218,0,0
247155.9,185.749,-756.644,0,0
247416.225,183.688,-754.131,0,0
247676.55,181.666,-751.516,0,0
247936.875,179.727,-748.987,0,0
248197.2,177.893,-746.378,0,0
248457.525,176.181,-743.797,0,0
248717.85,174.528,-741.311,0,0
248978.175,172.89,-738.773,0,0
249238.5,171.375,-736.185,0,0
249498.825,169.777,-733.808,0,0
249759.15,168.295,-731.412,0,0
250019.475,166.817,-728.867,0,0
250279.8,165.381,-726.467,0,0
250540,164.041,-724.033,0,0
250800,162.727,-721.728,0,0
251061,161.317,-719.283,0,0
251321,159.973,-716.863,0,0
251581,158.718,-714.408,0,0
251842,157.42,-712.02,0,0
252102,156.158,-709.499,0,0
252362,154.963,-706.99,0,0
252623,153.823,-704.49,0,0
252883,152.731,-701.965,0,0
253143,151.677,-699.438,0,0
253404,150.649,-696.91,0,0
253664,149.633,-694.324,0,0
253924,148.717,-691.739,0,0
254185,147.913,-689.033,0,0
254445,147.139,-686.334,0,0
254705,146.641,-683.69,0,0
254966,146.114,-681.139,0,0
255226,145.624,-678.605,0,0
255486,145.302,-676.126,0,0
255747,145.069,-673.647,0,0
256007,144.739,-671.334,0,0
256267,144.446,-669.015,0,0
256528,144.153,-666.703,0,0
256788,143.845,-664.397,0,0
257048,143.581,-662.09,0,0
257309,143.375,-659.729,0,0
257569,143.197,-657.379,0,0
257829,143.065,-655.014,0,0
258090,143.002,-652.623,0,0
258350,143.067,-650.234,0,0
258610,143.155,-647.832,0,0
258871,143.374,-645.459,0,0
259131,143.686,-643.07,0,0
259391,144.221,-640.729,0,0
259651,144.705,-638.518,0,0
259912,145.369,-636.366,0,0
260172,146.093,-634.353,0,0
260432,146.843,-632.276,0,0
260693,147.615,-630.395,0,0
260953,148.46,-628.602,0,0
261213,149.417,-626.857,0,0
261474,150.408,-625.281,0,0
261734,151.394,-623.79,0,0
261994,152.33,-622.397,0,0
262255,153.255,-621.062,0,0
262515,154.149,-619.761,0,0
262775,155.075,-618.468,0,0
263036,156.063,-617.169,0,0
263296,157.117,-615.924,0,0
263556,158.303,-614.762,0,0
263817,159.588,-613.761,0,0
264077,160.861,-612.821,0,0
264337,162.237,-612.105,0,0
264598,163.604,-611.449,0,0
264858,164.985,-611.056,0,0
265118,166.543,-610.815,0,0
265379,167.914,-610.791,0,0
265639,169.215,-610.946,0,0
265899,170.548,-611.3,0,0
266160,171.695,-611.879,0,0
266420,172.711,-612.662,0,0
266680.25,173.568,-613.606,0,0
266940.575,174.195,-614.761,0,0
267200.9,174.591,-616.046,0,0
267461.225,174.682,-617.423,0,0
267721.55,174.483,-618.897,0,0
267981.875,173.923,-620.375,0,0
268242.2,173.013,-621.779,0,0
268502.525,171.81,-623.054,0,0
268762.85,170.331,-624.125,0,0
269023.175,168.645,-624.966,0,0
269283.5,166.718,-625.556,0,0
269543.825,164.666,-625.829,0,0
269804.15,162.599,-625.893,0,0
270064.475,160.475,-625.551,0,0
270324.8,158.334,-625.052,0,0
270585.125,156.264,-624.222,0,0
270845.45,154.377,-623.242,0,0
271105.775,152.607,-622.029,0,0
271366.1,150.944,-620.676,0,0
271626.425,149.418,-619.232,0,0
271886.75,148.035,-617.664,0,0
272147.075,146.827,-616.029,0,0
272407.4,145.711,-614.401,0,0
272667.725,144.773,-612.678,0,0
272928.05,143.922,-610.952,0,0
273188.375,143.167,-609.149,0,0
273448.7,142.637,-607.405,0,0
273709.025,142.18,-605.636,0,0
273969.35,141.865,-603.913,0,0
274229.675,141.594,-602.332,0,0
274490.0,141.484,-600.742,0,0
274750.325,141.276,-599.161,0,0
275010.65,141.23,-597.654,0,0
275270.975,141.302,-596.27,0,0
275531.3,141.268,-594.81,0,0
275791.625,141.336,-593.459,0,0
276051.95,141.423,-592.043,0,0
276312.275,141.62,-590.634,0,0
276572.6,141.943,-589.243,0,0
276832.925,142.372,-587.958,0,0
277093.25,142.887,-586.764,0,0
277353.575,143.452,-585.753,0,0
277613.9,144.014,-584.88,0,0
277874.225,144.572,-584.119,0,0
278134.55,145.062,-583.48,0,0
278394.875,145.504,-582.884,0,0
278655.2,145.949,-582.318,0,0
278915.525,146.346,-581.884,0,0
279175.85,146.715,-581.534,0,0
279436.175,147.076,-581.247,0,0
279696.5,147.307,-581.003,0,0
279956.825,147.437,-580.926,0,0
280217.15,147.5,-580.758,0,0
280477.475,147.401,-580.638,0,0
280737.8,147.278,-580.484,0,0
280998.125,147.096,-580.335,0,0
281258.45,146.863,-580.147,0,0
281518.775,146.541,-579.971,0,0
281779.1,146.195,-579.781,0,0
282039.425,145.779,-579.558,0,0
282299.75,145.348,-579.307,0,0
282560,144.813,-579.042,0,0
282820,144.261,-578.744,0,0
283081,143.614,-578.386,0,0
283341,142.958,-577.936,0,0
283601,142.295,-577.4,0,0
283862,141.656,-576.835,0,0
284122,141.026,-576.211,0,0
284382,140.433,-575.552,0,0
284643,139.827,-574.966,0,0
284903,139.206,-574.388,0,0
285163,138.546,-573.794,0,0
285424,137.792,-573.058,0,0
285684,136.987,-572.286,0,0
285944,136.237,-571.43,0,0
286205,135.614,-570.589,0,0
286465,134.794,-569.707,0,0
286725,133.896,-568.74,0,0
286986,132.979,-567.584,0,0
287246,132.113,-566.298,0,0
287506,131.298,-564.823,0,0
287767,130.609,-563.22,0,0
288027,130.065,-561.465,0,0
288287,129.705,-559.632,0,0
288548,129.615,-557.772,0,0
288808,129.723,-555.896,0,0
289068,130.079,-554.132,0,0
289329,130.595,-552.531,0,0
289589,131.205,-551.043,0,0
289849,131.921,-549.733,0,0
290109,132.68,-548.646,0,0
290370,133.437,-547.679,0,0
290630,134.181,-546.977,0,0
290890,134.802,-546.405,0,0
291151,135.249,-545.961,0,0
291411,135.575,-545.539,0,0
291671,135.763,-545.127,0,0
291932,135.846,-544.69,0,0
292192,135.842,-544.2,0,0
292452,135.76,-543.673,0,0
292713,135.572,-543.1,0,0
292973,135.34,-542.422,0,0
293233,135.048,-541.619,0,0
293494,134.744,-540.695,0,0
293754,134.48,-539.643,0,0
294014,134.247,-538.471,0,0
294275,134.125,-537.206,0,0
294535,134.097,-535.821,0,0
294795,134.184,-534.39,0,0
295056,134.443,-532.943,0,0
295316,134.814,-531.513,0,0
295576,135.262,-530.04,0,0
295837,135.896,-528.602,0,0
296097,136.689,-527.238,0,0
296357,137.583,-525.971,0,0
296618,138.563,-524.832,0,0
296878,139.569,-523.844,0,0
297138,140.558,-522.935,0,0
297399,141.52,-522.093,0,0
297659,142.47,-521.279,0,0
297919,143.467,-520.467,0,0
298180,144.496,-519.677,0,0
298440,145.595,-518.963,0,0
298700.2,146.731,-518.354,0,0
298960.525,147.927,-517.815,0,0
299220.85,149.162,-517.343,0,0
299481.175,150.226,-517.029,0,0
299741.5,151.398,-516.71,0,0
300001.825,152.46,-516.53,0,0
300262.15,153.452,-516.29,0,0
300522.475,154.42,-516.135,0,0
300782.8,155.418,-515.879,0,0
301043.125,156.42,-515.571,0,0
301303.45,157.401,-515.239,0,0
301563.775,158.679,-514.977,0,0
301824.1,160.017,-514.861,0,0
302084.425,161.358,-514.782,0,0
302344.75,162.885,-514.874,0,0
302605.075,164.369,-515.202,0,0
302865.4,165.66,-515.748,0,0
303125.725,166.973,-516.299,0,0
303386.05,168.099,-517.028,0,0
303646.375,169.232,-517.701,0,0
303906.7,170.401,-518.486,0,0
304167.025,171.324,-519.298,0,0
304427.35,172.182,-520.289,0,0
304687.675,172.98,-521.196,0,0
304948.0,173.718,-522.177,0,0
305208.325,174.319,-523.083,0,0
305468.65,174.856,-523.974,0,0
305728.975,175.524,-524.964,0,0
305989.3,176.242,-525.826,0,0
306249.625,176.839,-526.944,0,0
306509.95,177.548,-528.035,0,0
306770.275,178,-529.327,0,0
307030.6,178.391,-530.61,0,0
307290.925,178.755,-531.978,0,0
307551.25,179.041,-533.389,0,0
307811.575,179.122,-534.798,0,0
308071.9,179.191,-536.148,0,0
308332.225,179.112,-537.665,0,0
308592.55,178.97,-539.13,0,0
308852.875,178.692,-540.593,0,0
309113.2,178.285,-541.92,0,0
309373.525,177.829,-543.233,0,0
309633.85,177.378,-544.489,0,0
309894.175,176.825,-545.649,0,0
310154.5,176.424,-546.918,0,0
310414.825,175.846,-548.225,0,0
310675.15,175.287,-549.464,0,0
310935.475,174.504,-550.845,0,0
311195.8,173.758,-552.242,0,0
311456.125,172.931,-553.543,0,0
311716.45,171.868,-554.92,0,0
311976.775,170.768,-556.304,0,0
312237.1,169.517,-557.508,0,0
312497.425,168.201,-558.525,0,0
312757.75,166.697,-559.518,0,0
313018.075,165.197,-560.501,0,0
313278.4,163.707,-561.299,0,0
313538.725,162.16,-562.068,0,0
313799.05,160.619,-562.679,0,0
314059.375,159.128,-563.19,0,0
314319.7,157.485,-563.68,0,0
314580,155.973,-564.069,0,0
314840,154.489,-564.429,0,0
315101,152.989,-564.724,0,0
315361,151.573,-564.998,0,0
315621,150.128,-565.237,0,0
315882,148.684,-565.526,0,0
316142,147.139,-565.747,0,0
316402,145.515,-565.986,0,0
316663,144.001,-566.153,0,0
316923,142.426,-566.3,0,0
317183,140.726,-566.244,0,0
317444,139.038,-566.122,0,0
317704,137.416,-566.027,0,0
317964,135.668,-565.822,0,0
318225,134.122,-565.431,0,0
318485,132.589,-565.037,0,0
318745,131.072,-564.774,0,0
319006,129.56,-564.377,0,0
319266,128.092,-563.915,0,0
319526,126.513,-563.496,0,0
319787,125.03,-562.989,0,0
320047,123.468,-562.412,0,0
320307,121.974,-561.711,0,0
320567,120.488,-561.015,0,0
320828,119.113,-560.209,0,0
321088,117.756,-559.368,0,0
321348,116.425,-558.596,0,0
321609,115.035,-557.667,0,0
321869,113.843,-556.674,0,0
322129,112.582,-555.805,0,0
322390,111.337,-554.769,0,0
322650,110.242,-553.675,0,0
322910,109.101,-552.573,0,0
323171,108.149,-551.364,0,0
323431,107.158,-550.192,0,0
323691,106.369,-549.06,0,0
323952,105.559,-547.744,0,0
324212,104.975,-546.607,0,0
324472,104.303,-545.549,0,0
324733,103.872,-544.363,0,0
324993,103.223,-543.315,0,0
325253,102.846,-542.222,0,0
325514,102.445,-541.286,0,0
325774,102.114,-540.281,0,0
326034,101.804,-539.297,0,0
326295,101.44,-538.403,0,0
326555,101.247,-537.57,0,0
326815,100.988,-536.735,0,0
327076,100.689,-535.924,0,0
327336,100.484,-535.263,0,0
327596,100.323,-534.566,0,0
327857,100.121,-533.932,0,0
328117,99.9041,-533.303,0,0
328377,99.6219,-532.824,0,0
328638,99.4375,-532.252,0,0
328898,99.1855,-531.721,0,0
329158,98.9836,-531.307,0,0
329419,98.6573,-530.889,0,0
329679,98.3691,-530.477,0,0
329939,98.0635,-530.147,0,0
330200,97.7346,-529.771,0,0
330460,97.3421,-529.536,0,0
330720.15,96.9606,-529.108,0,0
330980.475,96.504,-528.802,0,0
331240.8,96.0411,-528.498,0,0
331501.125,95.6146,-528.251,0,0
331761.45,95.079,-527.983,0,0
332021.775,94.4578,-527.724,0,0
332282.1,93.8316,-527.395,0,0
332542.425,93.2484,-527.134,0,0
332802.75,92.5005,-526.799,0,0
333063.075,91.8588,-526.453,0,0
333323.4,91.0838,-526.084,0,0
333583.725,90.3866,-525.675,0,0
333844.05,89.6062,-525.218,0,0
334104.375,88.8924,-524.735,0,0
334364.7,88.1448,-524.212,0,0
334625.025,87.4012,-523.786,0,0
334885.35,86.5851,-523.231,0,0
335145.675,85.8051,-522.706,0,0
335406.0,85.0201,-522.101,0,0
335666.325,84.1771,-521.476,0,0
335926.65,83.4495,-520.84,0,0
336186.975,82.6401,-520.054,0,0
336447.3,81.9086,-519.365,0,0
336707.625,81.2577,-518.719,0,0
336967.95,80.5201,-517.955,0,0
337228.275,79.8606,-517.16,0,0
337488.6,79.1416,-516.455,0,0
337748.925,78.479,-515.597,0,0
338009.25,77.8518,-514.849,0,0
338269.575,77.1955,-514.127,0,0
338529.9,76.5922,-513.264,0,0
338790.225,75.9215,-512.453,0,0
339050.55,75.369,-511.624,0,0
339310.875,74.8237,-510.813,0,0
339571.2,74.1995,-510.021,0,0
339831.525,73.6154,-509.142,0,0
340091.85,73.0571,-508.283,0,0
340352.175,72.5261,-507.45,0,0
340612.5,71.9966,-506.542,0,0
340872.825,71.4918,-505.627,0,0
341133.15,71.0373,-504.798,0,0
341393.475,70.5661,-503.933,0,0
341653.8,70.1793,-503.11,0,0
341914.125,69.7246,-502.261,0,0
342174.45,69.3647,-501.342,0,0
342434.775,68.9374,-500.566,0,0
342695.1,68.553,-499.721,0,0
342955.425,68.075,-498.901,0,0
343215.75,67.7239,-498.146,0,0
343476.075,67.2703,-497.288,0,0
343736.4,66.8782,-496.514,0,0
343996.725,66.4504,-495.683,0,0
344257.05,66.0218,-494.858,0,0
344517.375,65.644,-494.044,0,0
344777.7,65.186,-493.154,0,0
345038.025,64.8105,-492.382,0,0
345298.35,64.4084,-491.463,0,0
345558.675,63.9475,-490.582,0,0
345819.0,63.5631,-489.741,0,0
346079.325,63.1448,-488.845,0,0
346339.65,62.8025,-487.933,0,0
346599.975,62.482,-487.018,0,0
346860,62.1031,-486.125,0,0
347121,61.767,-485.223,0,0
347381,61.4689,-484.205,0,0
347641,61.131,-483.322,0,0
347902,60.8012,-482.444,0,0
348162,60.575,-481.446,0,0
348422,60.3082,-480.517,0,0
348683,60.0968,-479.567,0,0
348943,59.8784,-478.589,0,0
349203,59.6169,-477.657,0,0
349464,59.4326,-476.661,0,0
349724,59.273,-475.758,0,0
349984,59.1152,-474.806,0,0
350245,59.0169,-473.862,0,0
350505,58.8918,-472.96,0,0
350765,58.8161,-472.072,0,0
351025,58.7443,-471.143,0,0
351286,58.6174,-470.279,0,0
351546,58.5852,-469.422,0,0
351806,58.4853,-468.609,0,0
352067,58.4189,-467.782,0,0
352327,58.3481,-466.985,0,0
352587,58.3325,-466.142,0,0
352848,58.1906,-465.332,0,0
353108,58.0934,-464.615,0,0
353368,58.0582,-463.744,0,0
353629,57.9059,-462.963,0,0
353889,57.8219,-462.14,0,0
354149,57.7104,-461.331,0,0
354410,57.6275,-460.538,0,0
354670,57.5667,-459.658,0,0
354930,57.4879,-458.806,0,0
355191,57.4176,-457.935,0,0
355451,57.384,-457.116,0,0
355711,57.3799,-456.269,0,0
355972,57.3803,-455.477,0,0
356232,57.3936,-454.612,0,0
356492,57.4363,-453.772,0,0
356753,57.4824,-452.969,0,0
357013,57.5658,-452.206,0,0
357273,57.6211,-451.456,0,0
357534,57.6569,-450.676,0,0
357794,57.6973,-449.978,0,0
358054,57.7434,-449.263,0,0
358315,57.8293,-448.515,0,0
358575,57.8593,-447.817,0,0
358835,57.891,-447.134,0,0
359096,57.8543,-446.359,0,0
359356,57.9338,-445.672,0,0
359616,57.9626,-444.95,0,0
359877,57.994,-444.198,0,0
360137,58.0676,-443.428,0,0
360397,58.1174,-442.734,0,0
360658,58.1847,-442.003,0,0
360918,58.2602,-441.309,0,0
361178,58.3519,-440.648,0,0
361438,58.4276,-439.976,0,0
361699,58.5435,-439.326,0,0
361959,58.5932,-438.629,0,0
362219,58.5588,-438.021,0,0
362480,58.5895,-437.36,0,0
362740.1,58.598,-436.72,0,0
363000.425,58.6517,-436.02,0,0
363260.75,58.7056,-435.339,0,0
363521.075,58.7226,-434.656,0,0
363781.4,58.7915,-433.932,0,0
364041.725,58.8853,-433.314,0,0
364302.05,58.8686,-432.538,0,0
364562.375,58.9556,-431.83,0,0
364822.7,59.0088,-431.173,0,0
365083.025,59.0652,-430.483,0,0
365343.35,59.1539,-429.766,0,0
365603.675,59.2273,-429.09,0,0
365864.0,59.3476,-428.373,0,0
366124.325,59.412,-427.692,0,0
366384.65,59.4656,-426.96,0,0
366644.975,59.5012,-426.246,0,0
366905.3,59.566,-425.535,0,0
367165.625,59.5942,-424.827,0,0
367425.95,59.6497,-424.113,0,0
367686.275,59.7189,-423.321,0,0
367946.6,59.7822,-422.472,0,0
368206.925,59.8299,-421.645,0,0
368467.25,59.9319,-420.709,0,0
368727.575,60.0878,-419.808,0,0
368987.9,60.3038,-418.831,0,0
369248.225,60.5503,-417.887,0,0
369508.55,60.8697,-416.905,0,0
369768.875,61.2791,-415.988,0,0
370029.2,61.7675,-415.07,0,0
370289.525,62.2591,-414.191,0,0
370549.85,62.8578,-413.39,0,0
370810.175,63.454,-412.588,0,0
371070.5,64.086,-411.903,0,0
371330.825,64.7001,-411.231,0,0
371591.15,65.3303,-410.589,0,0
371851.475,65.9972,-409.988,0,0
372111.8,66.6507,-409.383,0,0
372372.125,67.3281,-408.836,0,0
372632.45,68.0273,-408.39,0,0
372892.775,68.751,-407.945,0,0
373153.1,69.4408,-407.565,0,0
373413.425,70.1813,-407.259,0,0
373673.75,70.8535,-407.016,0,0
373934.075,71.5201,-406.725,0,0
374194.4,72.1752,-406.566,0,0
374454.725,72.7486,-406.475,0,0
374715.05,73.3837,-406.341,0,0
374975.375,73.8247,-406.294,0,0
375235.7,74.3958,-406.24,0,0
375496.025,74.7951,-406.223,0,0
375756.35,75.2101,-406.186,0,0
376016.675,75.5164,-406.108,0,0
376277.0,75.8898,-406.024,0,0
376537.325,76.2549,-405.93,0,0
376797.65,76.6063,-405.8,0,0
377057.975,77.0036,-405.716,0,0
377318.3,77.3295,-405.612,0,0
377578.625,77.7377,-405.512,0,0
377838.95,78.1252,-405.563,0,0
378099.275,78.4812,-405.503,0,0
378359.6,78.8529,-405.522,0,0
378619.925,79.162,-405.56,0,0
378880,79.4403,-405.594,0,0
379141,79.7184,-405.57,0,0
379401,80.0045,-405.565,0,0
379661,80.2713,-405.605,0,0
379922,80.5163,-405.69,0,0
380182,80.8599,-405.651,0,0
380442,81.1044,-405.695,0,0
380703,81.434,-405.771,0,0
380963,81.7675,-405.832,0,0
381223,82.1497,-405.998,0,0
381483,82.4753,-406.264,0,0
381744,82.7694,-406.516,0,0
382004,83.0476,-406.884,0,0
382264,83.2552,-407.264,0,0
382525,83.3064,-407.723,0,0
382785,83.4267,-408.18,0,0
383045,83.39,-408.67,0,0
383306,83.296,-409.156,0,0
383566,83.0577,-409.587,0,0
383826,82.8058,-410.054,0,0
384087,82.4635,-410.452,0,0
384347,82.0595,-410.786,0,0
384607,81.5839,-411.102,0,0
384868,81.1767,-411.366,0,0
385128,80.6732,-411.513,0,0
385388,80.2228,-411.686,0,0
385649,79.6756,-411.761,0,0
385909,79.1694,-411.853,0,0
386169,78.6403,-411.888,0,0
386430,78.1133,-411.924,0,0
386690,77.5091,-411.982,0,0
386950,76.9287,-411.934,0,0
387211,76.203,-411.859,0,0
387471,75.5769,-411.675,0,0
387731,74.979,-411.474,0,0
387992,74.3441,-411.08,0,0
388252,73.7541,-410.782,0,0
388512,73.232,-410.378,0,0
388773,72.715,-409.929,0,0
389033,72.2873,-409.526,0,0
389293,71.9044,-409.03,0,0
389554,71.5878,-408.58,0,0
389814,71.2606,-408.163,0,0
390074,70.9367,-407.749,0,0
390335,70.6719,-407.36,0,0
390595,70.4658,-406.989,0,0
390855,70.1986,-406.61,0,0
391116,69.938,-406.341,0,0
391376,69.679,-406.021,0,0
391636,69.4051,-405.707,0,0
391896,69.1299,-405.475,0,0
392157,68.8564,-405.15,0,0
392417,68.536,-404.879,0,0
392677,68.1918,-404.598,0,0
392938,67.8284,-404.388,0,0
393198,67.4296,-404.097,0,0
393458,66.9809,-403.85,0,0
393719,66.5483,-403.527,0,0
393979,66.0686,-403.142,0,0
394239,65.5835,-402.777,0,0
394500,65.0747,-402.368,0,0
394760.05,64.65,-401.859,0,0
395020.375,64.125,-401.423,0,0
395280.7,63.6643,-400.842,0,0
395541.025,63.1673,-400.311,0,0
395801.35,62.7721,-399.744,0,0
396061.675,62.3057,-399.145,0,0
396322.0,61.9165,-398.484,0,0
396582.325,61.5471,-397.852,0,0
396842.65,61.2216,-397.209,0,0
397102.975,60.8434,-396.534,0,0
397363.3,60.5508,-395.846,0,0
397623.625,60.2333,-395.205,0,0
397883.95,59.958,-394.5,0,0
398144.275,59.6482,-393.821,0,0
398404.6,59.4405,-393.1,0,0
398664.925,59.178,-392.416,0,0
398925.25,58.9367,-391.708,0,0
399185.575,58.7148,-390.968,0,0
399445.9,58.5471,-390.254,0,0
399706.225,58.3511,-389.549,0,0
399966.55,58.1814,-388.817,0,0
400006.6,58.1663,-388.689,0,0