File: Accelerated corrosion test data/2025-10-06_06-00-03/sample_7.csv
Frequency (Hz),Impedance (ohms),Phase (Radians),Temperature (C),Humidity (%)
10000.0,274.626,-12054.3,0,0
10260.325,274.734,-11763.9,0,0
10520.65,258.764,-11465.1,0,0
10780.975,253.305,-11184.9,0,0
11041.3,250.986,-10918.2,0,0
11301.625,247.478,-10663.3,0,0
11561.95,248.683,-10415,0,0
11822.275,259.925,-10185.4,0,0
12082.6,267.096,-9970.33,0,0
12342.925,322.061,-9782.91,0,0
12603.25,261.495,-9622.57,0,0
12863.575,268.516,-9414.54,0,0
13123.9,240.307,-9247.64,0,0
13384.225,233.067,-9069.94,0,0
13644.55,222.9,-8886.94,0,0
13904.875,209.281,-8726.18,0,0
14165.2,205.601,-8556.4,0,0
14425.525,210.13,-8415.9,0,0
14685.8,204.495,-8263.4,0,0
14946.175,199.1,-8117.33,0,0
15206.5,198.863,-7986.97,0,0
15466.825,185.032,-7847.19,0,0
15727.15,185.739,-7718.54,0,0
15987.5,180.71,-7590.35,0,0
16247.8,180.659,-7470.16,0,0
16508.125,172.72,-7350.47,0,0
16768.45,172.064,-7232.08,0,0
17028.775,171.878,-7121.93,0,0
17289.1,168.834,-7014.78,0,0
17549.425,168.095,-6905.07,0,0
17809.75,168.966,-6796.16,0,0
18070.075,172.945,-6701.27,0,0
18330.4,178.412,-6595.9,0,0
18590.725,199.529,-6509.01,0,0
18851.05,194.299,-6444.94,0,0
19111.375,185.8,-6363.95,0,0
19371.7,203.22,-6279.22,0,0
19632.025,173.05,-6217.5,0,0
19892.35,158.118,-6120.99,0,0
20152.675,167.979,-6035.47,0,0
20413.0,168.637,-5958.77,0,0
20673.3,170.296,-5884.12,0,0
20933.65,178.28,-5824.08,0,0
21193.975,161.333,-5764.97,0,0
21454.3,152.821,-5690.77,0,0
21714.625,154.407,-5618.81,0,0
21974.9,148.15,-5558.13,0,0
22235.275,141.856,-5490.38,0,0
22495.6,140.77,-5425.41,0,0
22755.925,135.78,-5364.2,0,0
23016.25,131.731,-5301.33,0,0
23276.6,129.389,-5238.56,0,0
23536.9,129.728,-5177.94,0,0
23797.225,129.745,-5122.88,0,0
24057.55,125.78,-5066.46,0,0
24317.875,123.83,-5009.55,0,0
24578.2,124.416,-4954.21,0,0
24838.525,122.268,-4901.24,0,0
25098.85,122.775,-4849.32,0,0
25359.175,121.209,-4797.85,0,0
25619.5,119.821,-4746.29,0,0
25879.8,120.453,-4695.8,0,0
26140.1,119.75,-4644.64,0,0
26400.5,123.453,-4595.75,0,0
26660.8,124.669,-4551.33,0,0
26921.1,124.45,-4502.54,0,0
27181.4,129.985,-4453.69,0,0
27441.8,135.528,-4409.87,0,0
27702.1,145.328,-4362.7,0,0
27962.4,160.099,-4322.1,0,0
28222.7,180.868,-4297.6,0,0
28483.1,177.752,-4281.98,0,0
28743.4,175.582,-4260.45,0,0
29003.7,158.113,-4232.92,0,0
29264,144.162,-4197.19,0,0
29524.4,136.185,-4155.95,0,0
29784.7,133.15,-4117.1,0,0
30045,128.726,-4076.32,0,0
30305.3,130.979,-4038.45,0,0
30565.7,134.796,-4005.12,0,0
30826,135.988,-3975.69,0,0
31086.3,136.19,-3946.04,0,0
31346.6,132.155,-3918.81,0,0
31607,130.923,-3890.65,0,0
31867.3,122.79,-3861.72,0,0
32127.6,118.457,-3829.73,0,0
32387.9,114.765,-3798.29,0,0
32648.3,111.549,-3768.24,0,0
32908.6,108.416,-3737.87,0,0
33168.9,105.576,-3708.14,0,0
33429.2,102.723,-3678.45,0,0
33689.6,100.474,-3648.84,0,0
33949.9,98.6714,-3619.48,0,0
34210.2,96.6777,-3591.18,0,0
34470.5,94.9355,-3562.55,0,0
34730.9,93.5425,-3534.42,0,0
34991.2,92.6522,-3507.19,0,0
35251.5,91.5639,-3480.02,0,0
35511.8,90.5387,-3453.41,0,0
35772.2,90.123,-3426.7,0,0
36032.5,89.5521,-3401.47,0,0
36292.8,89.2558,-3376.48,0,0
36553.1,88.2614,-3351.43,0,0
36813.5,87.5402,-3326.68,0,0
37073.8,87.3069,-3301.99,0,0
37334.1,86.9972,-3277.9,0,0
37594.4,87.1672,-3254.82,0,0
37854.8,86.3506,-3231.52,0,0
38115.1,86.2794,-3207.64,0,0
38375.4,86.6946,-3184.58,0,0
38635.7,87.3305,-3161.69,0,0
38896.1,88.8241,-3139.2,0,0
39156.4,91.0795,-3117.8,0,0
39416.7,93.0367,-3096.91,0,0
39677,96.2078,-3077.75,0,0
39937.4,98.4164,-3061.21,0,0
40197.7,98.4415,-3045.13,0,0
40458,96.2937,-3029.68,0,0
40718.3,93.0738,-3011.47,0,0
40978.7,90.2348,-2993.58,0,0
41239,87.7049,-2974.21,0,0
41499.3,85.9805,-2955.01,0,0
41759.6,84.6527,-2935.79,0,0
42020,83.4438,-2917.28,0,0
42280.275,81.8808,-2898.21,0,0
42540.6,81.0294,-2878.67,0,0
42800.925,81.7545,-2860.38,0,0
43061.25,81.434,-2842.6,0,0
43321.575,82.0323,-2825.45,0,0
43581.9,81.0676,-2808.43,0,0
43842.225,80.742,-2790.51,0,0
44102.55,81.2823,-2773.24,0,0
44362.875,83.0647,-2757.12,0,0
44623.2,83.351,-2742.52,0,0
44883.525,82.8502,-2728.51,0,0
45143.85,81.2732,-2713.15,0,0
45404.175,79.976,-2697.34,0,0
45664.5,80.4763,-2680.73,0,0
45924.825,81.2323,-2666.83,0,0
46185.15,79.9596,-2653.74,0,0
46445.475,78.7751,-2639.47,0,0
46705.8,76.448,-2625.72,0,0
46966.125,74.1992,-2610.31,0,0
47226.45,72.9229,-2594.76,0,0
47486.775,72.4283,-2579.41,0,0
47747.1,71.8468,-2564.69,0,0
48007.425,71.6311,-2550.44,0,0
48267.75,71.2011,-2536.36,0,0
48528.075,70.4341,-2522.36,0,0
48788.4,69.7939,-2508.4,0,0
49048.725,69.1961,-2494.58,0,0
49309.05,68.7102,-2480.81,0,0
49569.375,68.4484,-2467.3,0,0
49829.7,67.9629,-2454.03,0,0
50090.025,67.7191,-2440.8,0,0
50350.35,67.1165,-2427.61,0,0
50610.675,67.0921,-2414.67,0,0
50871.0,66.6619,-2401.99,0,0
51131.325,66.3997,-2389.3,0,0
51391.65,65.9178,-2376.73,0,0
51651.975,65.6368,-2364.23,0,0
51912.3,65.2467,-2352.03,0,0
52172.625,65.1516,-2339.66,0,0
52432.95,65.055,-2327.69,0,0
52693.275,64.7376,-2315.78,0,0
52953.6,64.7527,-2303.93,0,0
53213.925,64.7123,-2292.35,0,0
53474.25,64.5082,-2280.99,0,0
53734.575,64.1427,-2269.89,0,0
53994.9,63.8515,-2258.5,0,0
54255.225,63.4966,-2247.31,0,0
54515.55,63.2628,-2236.13,0,0
54775.875,62.9077,-2225.24,0,0
55036.2,62.6577,-2214.22,0,0
55296.525,62.4141,-2203.27,0,0
55556.85,62.3049,-2192.58,0,0
55817.175,62.1487,-2181.91,0,0
56077.5,61.8552,-2171.35,0,0
56337.825,61.8111,-2160.91,0,0
56598.15,61.8503,-2150.72,0,0
56858.475,61.5035,-2140.48,0,0
57118.8,61.3764,-2130.47,0,0
57379.125,61.1621,-2120.41,0,0
57639.45,60.9225,-2110.35,0,0
57899.775,60.7844,-2100.24,0,0
58160.1,60.7548,-2090.31,0,0
58420.4,60.8741,-2080.46,0,0
58680.7,61.2911,-2070.91,0,0
58941.1,61.2214,-2061.95,0,0
59201.4,60.8427,-2052.55,0,0
59461.7,60.8712,-2042.99,0,0
59722,61.3391,-2034.14,0,0
59982.4,61.0897,-2025.23,0,0
60242.7,60.9575,-2016.5,0,0
60503,60.8381,-2007.91,0,0
60763.3,60.466,-1999.28,0,0
61023.7,60.0131,-1990.57,0,0
61284,59.5549,-1981.97,0,0
61544.3,59.3892,-1973.3,0,0
61804.6,58.9261,-1964.7,0,0
62065,58.3849,-1956.06,0,0
62325.3,58.0159,-1947.4,0,0
62585.6,57.8261,-1938.77,0,0
62845.9,57.6287,-1930.32,0,0
63106.3,57.4652,-1921.98,0,0
63366.6,57.3033,-1913.55,0,0
63626.9,57.417,-1905.44,0,0
63887.2,57.0283,-1897.62,0,0
64147.6,56.6866,-1889.28,0,0
64407.9,56.3744,-1881.13,0,0
64668.2,56.3643,-1873.07,0,0
64928.5,56.325,-1864.95,0,0
65188.9,56.3338,-1857.02,0,0
65449.2,56.519,-1849.31,0,0
65709.5,56.6717,-1842.04,0,0
65969.8,56.4423,-1834.67,0,0
66230.2,56.1825,-1827.34,0,0
66490.5,55.8448,-1820.04,0,0
66750.8,55.5382,-1812.63,0,0
67011.1,55.2604,-1805.54,0,0
67271.5,54.6019,-1797.95,0,0
67531.8,54.625,-1790.57,0,0
67792.1,54.0615,-1783.14,0,0
68052.4,53.8628,-1775.82,0,0
68312.8,53.584,-1768.62,0,0
68573.1,53.4232,-1761.25,0,0
68833.4,53.4279,-1754.09,0,0
69093.7,53.3261,-1746.98,0,0
69354.1,53.2047,-1739.94,0,0
69614.4,53.0911,-1733.04,0,0
69874.7,52.9707,-1726.02,0,0
70135,53.1192,-1719.26,0,0
70395.4,52.986,-1712.58,0,0
70655.7,52.8355,-1705.78,0,0
70916,52.9235,-1699.21,0,0
71176.3,52.797,-1692.75,0,0
71436.7,52.5381,-1686.34,0,0
71697,52.3368,-1679.77,0,0
71957.3,52.132,-1673.38,0,0
72217.6,51.8475,-1666.93,0,0
72478,51.6426,-1660.46,0,0
72738.3,51.5278,-1654.04,0,0
72998.6,51.2994,-1647.67,0,0
73258.9,51.1617,-1641.31,0,0
73519.3,51.0131,-1635,0,0
73779.6,50.8538,-1628.72,0,0
74039.9,50.7561,-1622.48,0,0
74300.225,50.5806,-1616.37,0,0
74560.55,50.5482,-1610.22,0,0
74820.875,50.3709,-1604.06,0,0
75081.2,50.3636,-1597.99,0,0
75341.525,50.3041,-1592.05,0,0
75601.85,50.2175,-1586.12,0,0
75862.175,50.0579,-1580.11,0,0
76122.5,49.9568,-1574.24,0,0
76382.825,49.8506,-1568.32,0,0
76643.15,49.8143,-1562.53,0,0
76903.475,49.708,-1556.67,0,0
77163.8,49.6379,-1550.97,0,0
77424.125,49.5991,-1545.19,0,0
77684.45,49.5477,-1539.53,0,0
77944.775,49.5663,-1533.9,0,0
78205.1,49.4471,-1528.28,0,0
78465.425,49.3261,-1522.7,0,0
78725.75,49.3765,-1517.15,0,0
78986.075,49.2574,-1511.6,0,0
79246.4,49.2879,-1506.15,0,0
79506.725,49.2086,-1500.79,0,0
79767.05,49.1541,-1495.34,0,0
80027.375,49.1916,-1489.93,0,0
80287.7,49.1069,-1484.67,0,0
80548.025,49.0812,-1479.37,0,0
80808.35,49.0341,-1474.18,0,0
81068.675,48.9153,-1468.87,0,0
81329.0,48.8569,-1463.67,0,0
81589.325,48.8001,-1458.48,0,0
81849.65,48.7496,-1453.28,0,0
82109.975,48.7229,-1448.11,0,0
82370.3,48.6503,-1443.01,0,0
82630.625,48.6773,-1437.91,0,0
82890.95,48.7605,-1432.83,0,0
83151.275,48.5929,-1427.9,0,0
83411.6,48.611,-1422.88,0,0
83671.925,48.5596,-1417.78,0,0
83932.25,48.6155,-1412.8,0,0
84192.575,48.6517,-1407.86,0,0
84452.9,48.7459,-1402.97,0,0
84713.225,48.8586,-1398.14,0,0
84973.55,48.8648,-1393.42,0,0
85233.875,48.921,-1388.57,0,0
85494.2,48.9324,-1383.92,0,0
85754.525,48.8393,-1379.11,0,0
86014.85,48.8767,-1374.49,0,0
86275.175,48.8509,-1369.69,0,0
86535.5,48.9456,-1365.13,0,0
86795.825,48.869,-1360.55,0,0
87056.15,48.8632,-1355.92,0,0
87316.475,48.9443,-1351.3,0,0
87576.8,48.9856,-1346.69,0,0
87837.125,49.0413,-1342.18,0,0
88097.45,49.1332,-1337.65,0,0
88357.775,49.1496,-1333.26,0,0
88618.1,49.0847,-1328.94,0,0
88878.425,49.0285,-1324.45,0,0
89138.75,48.9601,-1320.04,0,0
89399.075,48.9553,-1315.48,0,0
89659.4,48.9758,-1311.11,0,0
89919.725,48.9962,-1306.64,0,0
90180,49.0372,-1302.33,0,0
90440.4,49.089,-1297.89,0,0
90700.7,49.2428,-1293.45,0,0
90961,49.276,-1289.16,0,0
91221.3,49.3923,-1284.91,0,0
91481.7,49.4996,-1280.7,0,0
91742,49.5831,-1276.51,0,0
92002.3,49.713,-1272.32,0,0
92262.6,49.8171,-1268.06,0,0
92523,49.8349,-1264.01,0,0
92783.3,49.8324,-1259.9,0,0
93043.6,49.8166,-1255.56,0,0
93303.9,49.9949,-1251.18,0,0
93564.3,50.232,-1246.89,0,0
93824.6,50.7083,-1242.51,0,0
94084.9,51.5156,-1238.39,0,0
94345.2,52.3407,-1234.84,0,0
94605.6,52.7451,-1231.67,0,0
94865.9,52.5823,-1228.5,0,0
95126.2,52.3444,-1224.8,0,0
95386.5,52.3657,-1221.21,0,0
95646.9,51.9927,-1217.77,0,0
95907.2,51.4988,-1213.9,0,0
96167.5,51.3225,-1209.75,0,0
96427.8,51.2184,-1205.85,0,0
96688.2,51.1064,-1201.84,0,0
96948.5,51.2,-1197.86,0,0
97208.8,51.2121,-1193.97,0,0
97469.1,51.2198,-1190.11,0,0
97729.5,51.1944,-1186.09,0,0
97989.8,51.413,-1182.11,0,0
98250.1,51.7059,-1178.36,0,0
98510.4,52.0307,-1174.63,0,0
98770.8,52.2477,-1171.27,0,0
99031.1,52.1104,-1167.74,0,0
99291.4,51.9874,-1164.06,0,0
99551.7,51.8514,-1160.31,0,0
99812.1,51.6676,-1156.37,0,0
100072,51.7681,-1152.25,0,0
100333,52.1045,-1148.34,0,0
100593,52.5188,-1144.66,0,0
100853,52.7702,-1140.93,0,0
101114,53.1292,-1137.27,0,0
101374,53.4031,-1133.69,0,0
101634,53.675,-1130.13,0,0
101895,53.8956,-1126.48,0,0
102155,54.2531,-1122.77,0,0
102415,54.6797,-1119.16,0,0
102676,55.2339,-1115.6,0,0
102936,55.7321,-1112.34,0,0
103196,56.2551,-1108.91,0,0
103457,56.6192,-1105.72,0,0
103717,57.2427,-1102.28,0,0
103977,57.926,-1099.47,0,0
104238,57.8628,-1096.71,0,0
104498,58.0491,-1093.43,0,0
104758,58.459,-1090.31,0,0
105019,58.6605,-1087.56,0,0
105279,58.3913,-1084.71,0,0
105539,58.1944,-1081.43,0,0
105800,58.2142,-1078.06,0,0
106060,58.3538,-1074.88,0,0
106320.175,58.2496,-1071.7,0,0
106580.5,58.2759,-1068.18,0,0
106840.825,58.4213,-1064.73,0,0
107101.15,58.895,-1061.36,0,0
107361.475,59.2739,-1058.37,0,0
107621.8,59.2855,-1055.21,0,0
107882.125,59.4871,-1051.94,0,0
108142.45,59.7946,-1048.82,0,0
108402.775,60.0494,-1045.79,0,0
108663.1,60.1513,-1042.68,0,0
108923.425,60.3098,-1039.6,0,0
109183.75,60.3334,-1036.44,0,0
109444.075,60.4237,-1033.33,0,0
109704.4,60.3292,-1030.03,0,0
109964.725,60.4737,-1026.61,0,0
110225.05,60.6062,-1023.2,0,0
110485.375,60.7673,-1019.52,0,0
110745.7,61.3619,-1015.82,0,0
111006.025,62.2078,-1012.39,0,0
111266.35,62.8747,-1009.14,0,0
111526.675,63.5171,-1006.23,0,0
111787.0,64.1192,-1003.05,0,0
112047.325,64.723,-999.759,0,0
112307.65,65.6334,-996.488,0,0
112567.975,66.5101,-993.379,0,0
112828.3,67.3588,-990.319,0,0
113088.625,68.4064,-987.167,0,0
113348.95,69.6121,-984.316,0,0
113609.275,70.7369,-981.787,0,0
113869.6,71.5169,-979.17,0,0
114129.925,72.4369,-976.374,0,0
114390.25,73.578,-973.697,0,0
114650.575,74.7658,-971.21,0,0
114910.9,75.6172,-968.832,0,0
115171.225,76.6297,-966.207,0,0
115431.55,77.8252,-963.676,0,0
115691.875,79.05,-961.221,0,0
115952.2,80.5577,-958.853,0,0
116212.525,82.2719,-956.807,0,0
116472.85,84.0692,-955.251,0,0
116733.175,85.5822,-954.184,0,0
116993.5,86.5968,-953.365,0,0
117253.825,87.1424,-952.318,0,0
117514.15,87.7382,-951.052,0,0
117774.475,88.3265,-949.986,0,0
118034.8,88.6543,-948.82,0,0
118295.125,89.034,-947.367,0,0
118555.45,90.0171,-945.93,0,0
118815.775,91.1147,-945.39,0,0
119076.1,91.5908,-945.357,0,0
119336.425,91.4154,-945.378,0,0
119596.75,91.0142,-945.228,0,0
119857.075,90.1956,-945.152,0,0
120117.4,88.9735,-944.907,0,0
120377.725,87.4421,-944.358,0,0
120638.05,85.5723,-943.803,0,0
120898.375,83.2755,-942.545,0,0
121158.7,81.183,-940.969,0,0
121419.025,78.7718,-938.958,0,0
121679.35,76.7837,-936.14,0,0
121939.675,75.4782,-933.351,0,0
122200.0,74.3187,-930.929,0,0
122460,73.0563,-928.437,0,0
122721,71.7497,-925.841,0,0
122981,70.5702,-923.162,0,0
123241,69.6057,-920.478,0,0
123502,68.4819,-917.94,0,0
123762,67.1888,-915.057,0,0
124022,66.3379,-911.918,0,0
124283,65.8095,-909.088,0,0
124543,65.0742,-906.378,0,0
124803,64.3972,-903.45,0,0
125064,64.0441,-900.803,0,0
125324,63.3682,-898.514,0,0
125584,62.3031,-895.908,0,0
125845,61.3583,-892.93,0,0
126105,60.6895,-889.991,0,0
126365,60.0397,-887.129,0,0
126626,59.3241,-884.225,0,0
126886,58.6922,-881.151,0,0
127146,58.1958,-878.232,0,0
127406,57.4518,-875.016,0,0
127667,57.2511,-871.831,0,0
127927,57.026,-868.814,0,0
128187,56.8521,-865.909,0,0
128448,56.5637,-863.076,0,0
128708,56.309,-860.143,0,0
128968,56.0571,-857.293,0,0
129229,55.7841,-854.339,0,0
129489,55.6659,-851.446,0,0
129749,55.5395,-848.771,0,0
130010,55.0745,-845.997,0,0
130270,54.7365,-842.952,0,0
130530,54.621,-839.906,0,0
130791,54.5649,-837.005,0,0
131051,54.4219,-834.139,0,0
131311,54.2975,-831.309,0,0
131572,53.9774,-828.384,0,0
131832,53.8252,-825.336,0,0
132092,53.747,-822.247,0,0
132353,53.6595,-819.173,0,0
132613,53.6728,-815.998,0,0
132873,53.7974,-812.857,0,0
133134,53.9926,-809.802,0,0
133394,54.1266,-806.72,0,0
133654,54.3728,-803.526,0,0
133915,54.8092,-800.276,0,0
134175,55.3388,-797.147,0,0
134435,56.0856,-794.085,0,0
134696,56.9443,-791.183,0,0
134956,57.7825,-788.636,0,0
135216,58.3727,-786.044,0,0
135477,59.0702,-783.399,0,0
135737,59.8404,-780.724,0,0
135997,60.9219,-778.063,0,0
136258,62.3003,-775.975,0,0
136518,63.3391,-774.52,0,0
136778,63.8119,-773.186,0,0
137039,63.8957,-771.755,0,0
137299,63.6031,-770.213,0,0
137559,63.1313,-768.205,0,0
137819,62.792,-766.031,0,0
138080,62.4899,-763.708,0,0
138340.125,62.2121,-761.446,0,0
138600.45,61.8546,-759.047,0,0
138860.775,61.4975,-756.475,0,0
139121.1,61.1675,-753.722,0,0
139381.425,61.0979,-750.824,0,0
139641.75,61.3073,-748.036,0,0
139902.075,61.4509,-745.463,0,0
140162.4,61.6078,-742.774,0,0
140422.725,61.7538,-740.2,0,0
140683.05,61.9036,-737.734,0,0
140943.375,61.9049,-735.202,0,0
141203.7,61.9136,-732.53,0,0
141464.025,62.007,-729.841,0,0
141724.35,62.0522,-727.172,0,0
141984.675,62.1209,-724.327,0,0
142245.0,62.4027,-721.503,0,0
142505.325,62.6753,-718.727,0,0
142765.65,63.0401,-715.926,0,0
143025.975,63.4395,-713.188,0,0
143286.3,63.7971,-710.492,0,0
143546.625,64.3427,-707.715,0,0
143806.95,64.9711,-705.215,0,0
144067.275,65.4622,-702.852,0,0
144327.6,65.818,-700.478,0,0
144587.925,66.0425,-698.074,0,0
144848.25,66.2456,-695.529,0,0
145108.575,66.5304,-692.906,0,0
145368.9,66.8969,-690.429,0,0
145629.225,67.1407,-687.938,0,0
145889.55,67.3043,-685.389,0,0
146149.875,67.4302,-682.731,0,0
146410.2,67.6808,-679.885,0,0
146670.525,68.1449,-677.13,0,0
146930.85,68.6248,-674.521,0,0
147191.175,69.0104,-671.989,0,0
147451.5,69.2856,-669.479,0,0
147711.825,69.4243,-666.839,0,0
147972.15,69.7144,-664.035,0,0
148232.475,70.1274,-661.341,0,0
148492.8,70.3973,-658.74,0,0
148753.125,70.6501,-656.04,0,0
149013.45,70.883,-653.365,0,0
149273.775,70.9614,-650.653,0,0
149534.1,70.9933,-647.741,0,0
149794.425,71.1321,-644.639,0,0
150054.75,71.3551,-641.56,0,0
150315.075,71.5913,-638.387,0,0
150575.4,71.8799,-635.169,0,0
150835.725,72.2135,-631.866,0,0
151096.05,72.5749,-628.491,0,0
151356.375,73.0505,-625.022,0,0
151616.7,73.6311,-621.466,0,0
151877.025,74.3413,-617.845,0,0
152137.35,75.2204,-614.29,0,0
152397.675,76.1122,-610.754,0,0
152658.0,77.0586,-607.135,0,0
152918.325,78.1748,-603.506,0,0
153178.65,79.4336,-599.918,0,0
153438.975,80.7525,-596.428,0,0
153699.3,82.0693,-592.982,0,0
153959.625,83.3756,-589.465,0,0
154219.95,84.7707,-585.806,0,0
154480,86.3697,-582.115,0,0
154741,88.155,-578.587,0,0
155001,90.0935,-575.142,0,0
155261,91.8902,-571.726,0,0
155522,93.9942,-568.305,0,0
155782,96.1508,-564.908,0,0
156042,98.4222,-561.659,0,0
156303,100.791,-558.552,0,0
156563,103.334,-555.552,0,0
156823,105.71,-552.747,0,0
157084,108.063,-549.97,0,0
157344,110.626,-547.177,0,0
157604,113.326,-544.627,0,0
157864,115.988,-542.351,0,0
158125,118.43,-540.321,0,0
158385,120.598,-538.386,0,0
158645,122.83,-536.433,0,0
158906,124.983,-534.734,0,0
159166,126.525,-533.228,0,0
159426,127.673,-531.601,0,0
159687,128.61,-529.488,0,0
159947,129.334,-527.004,0,0
160207,130.075,-524.274,0,0
160468,130.79,-521.175,0,0
160728,131.552,-517.64,0,0
160988,132.381,-513.829,0,0
161249,133.462,-509.49,0,0
161509,134.985,-504.601,0,0
161769,137.155,-499.438,0,0
162030,140.054,-494.497,0,0
162290,143.331,-489.815,0,0
162550,146.771,-485.245,0,0
162811,150.418,-480.862,0,0
163071,154.08,-476.293,0,0
163331,158.184,-471.528,0,0
163592,163.016,-466.919,0,0
163852,168.283,-462.738,0,0
164112,173.694,-459.081,0,0
164373,179.013,-455.814,0,0
164633,184.056,-452.499,0,0
164893,189.38,-448.828,0,0
165154,195.197,-445.421,0,0
165414,200.963,-442.247,0,0
165674,206.662,-438.875,0,0
165935,212.73,-434.93,0,0
166195,219.716,-430.825,0,0
166455,227.933,-426.733,0,0
166716,237.218,-423.566,0,0
166976,247.037,-421.666,0,0
167236,256.825,-420.466,0,0
167497,266.969,-419.797,0,0
167757,277.316,-420.091,0,0
168017,287.678,-421.179,0,0
168277,298.247,-422.976,0,0
168538,308.873,-425.78,0,0
168798,319.332,-429.675,0,0
169058,329.417,-434.675,0,0
169319,338.895,-440.384,0,0
169579,347.504,-446.873,0,0
169839,355.154,-453.623,0,0
170100,362.702,-459.799,0,0
170360.075,371.047,-466.665,0,0
170620.4,379.436,-475.171,0,0
170880.725,386.761,-485.363,0,0
171141.05,392.044,-496.559,0,0
171401.375,395.602,-507.206,0,0
171661.7,398.658,-517.318,0,0
171922.025,401.264,-527.427,0,0
172182.35,403.85,-537.625,0,0
172442.675,406.324,-549.141,0,0
172703.0,406.719,-562.407,0,0
172963.325,404.049,-574.97,0,0
173223.65,400.334,-586.162,0,0
173483.975,395.461,-596.744,0,0
173744.3,389.508,-606.215,0,0
174004.625,382.769,-614.78,0,0
174264.95,374.937,-622.417,0,0
174525.275,365.704,-628.242,0,0
174785.6,356.424,-631.342,0,0
175045.925,348.288,-632.52,0,0
175306.25,341.306,-632.962,0,0
175566.575,334.85,-632.638,0,0
175826.9,328.873,-631.22,0,0
176087.225,324.272,-628.101,0,0
176347.55,322.392,-624.566,0,0
176607.875,322.482,-622.041,0,0
176868.2,323.799,-621.083,0,0
177128.525,325.11,-621.694,0,0
177388.85,326.211,-622.639,0,0
177649.175,327.829,-623.885,0,0
177909.5,330.424,-625.919,0,0
178169.825,334,-629.996,0,0
178430.15,336.911,-637.049,0,0
178690.475,337.193,-646.317,0,0
178950.8,334.304,-655.918,0,0
179211.125,328.742,-664.337,0,0
179471.45,321.806,-670.833,0,0
179731.775,314.484,-675.573,0,0
179992.1,307.378,-678.95,0,0
180252.425,300.856,-681.524,0,0
180512.75,295.264,-684.203,0,0
180773.075,289.35,-687.658,0,0
181033.4,282.349,-691.273,0,0
181293.725,274.285,-694.305,0,0
181554.05,265.14,-696.224,0,0
181814.375,255.894,-696.48,0,0
182074.7,247.212,-695.801,0,0
182335.025,238.763,-694.68,0,0
182595.35,230.229,-693.087,0,0
182855.675,221.372,-690.39,0,0
183116.0,212.927,-686.019,0,0
183376.325,206.135,-680.638,0,0
183636.65,200.721,-675.705,0,0
183896.975,195.426,-671.193,0,0
184157.3,190.158,-666.323,0,0
184417.625,185.534,-660.871,0,0
184677.95,181.927,-655.314,0,0
184938.275,179.196,-650.31,0,0
185198.6,176.58,-646.327,0,0
185458.925,173.334,-642.577,0,0
185719.25,169.74,-638.561,0,0
185979.575,165.967,-634.088,0,0
186239.9,162.418,-628.863,0,0
186500,159.531,-623.218,0,0
186761,157.351,-617.543,0,0
187021,155.675,-611.987,0,0
187281,154.427,-606.578,0,0
187542,153.502,-601.368,0,0
187802,152.968,-596.278,0,0
188062,153.018,-591.5,0,0
188322,153.487,-587.543,0,0
188583,153.678,-584.591,0,0
188843,153.007,-582.208,0,0
189103,151.308,-579.609,0,0
189364,149.145,-576.29,0,0
189624,147.018,-572.22,0,0
189884,145.293,-567.775,0,0
190145,143.749,-563.266,0,0
190405,142.342,-558.417,0,0
190665,141.294,-553.479,0,0
190926,140.284,-548.442,0,0
191186,139.522,-543.027,0,0
191446,139.526,-537.399,0,0
191707,140.087,-532.29,0,0
191967,140.521,-527.676,0,0
192227,140.772,-523.028,0,0
192488,141.016,-518.317,0,0
192748,141.337,-513.45,0,0
193008,141.83,-508.452,0,0
193269,142.584,-503.389,0,0
193529,143.582,-498.353,0,0
193789,144.788,-493.389,0,0
194050,146.132,-488.513,0,0
194310,147.588,-483.65,0,0
194570,149.228,-478.723,0,0
194831,151.199,-473.834,0,0
195091,153.485,-469.131,0,0
195351,155.894,-464.855,0,0
195612,158.242,-460.778,0,0
195872,160.416,-456.735,0,0
196132,162.641,-452.658,0,0
196393,165.083,-448.611,0,0
196653,167.454,-444.682,0,0
196913,169.95,-440.773,0,0
197174,172.582,-436.949,0,0
197434,175.231,-433.194,0,0
197694,177.825,-429.559,0,0
197955,180.54,-425.964,0,0
198215,183.013,-422.432,0,0
198475,185.438,-418.676,0,0
198735,188.039,-414.701,0,0
198996,190.945,-410.767,0,0
199256,193.811,-406.916,0,0
199516,196.737,-402.997,0,0
199777,199.741,-398.892,0,0
200037,203.036,-394.603,0,0
200297,206.677,-390.286,0,0
200558,210.656,-386.016,0,0
200818,214.91,-381.952,0,0
201078,219.31,-378.234,0,0
201339,223.611,-374.51,0,0
201599,227.945,-370.533,0,0
201859,232.826,-366.446,0,0
202120,238.17,-362.609,0,0
202380.025,243.595,-358.943,0,0
202640.35,249.419,-355.478,0,0
202900.675,255.472,-352.243,0,0
203161.0,261.73,-349.206,0,0
203421.325,268.234,-346.43,0,0
203681.65,274.937,-343.906,0,0
203941.975,281.882,-341.659,0,0
204202.3,289.092,-339.849,0,0
204462.625,296.388,-338.432,0,0
204722.95,303.531,-337.305,0,0
204983.275,310.803,-336.436,0,0
205243.6,318.266,-335.64,0,0
205503.925,326.092,-335.111,0,0
205764.25,334.532,-335.448,0,0
206024.575,342.751,-337.011,0,0
206284.9,350.385,-339.277,0,0
206545.225,357.147,-342.029,0,0
206805.55,363.22,-345.007,0,0
207065.875,368.341,-348.039,0,0
207326.2,372.79,-350.462,0,0
207586.525,376.85,-352.052,0,0
207846.85,380.973,-353.07,0,0
208107.175,385.402,-353.203,0,0
208367.5,390.678,-352.994,0,0
208627.825,396.491,-352.563,0,0
208888.15,403.163,-351.604,0,0
209148.475,411.514,-350.642,0,0
209408.8,421.403,-350.963,0,0
209669.125,432.058,-352.95,0,0
209929.45,442.767,-356.411,0,0
210189.775,453.481,-361.206,0,0
210450.1,464.058,-367.433,0,0
210710.425,474.025,-375.238,0,0
210970.75,482.915,-384.605,0,0
211231.075,490.158,-394.799,0,0
211491.4,496.18,-405.297,0,0
211751.725,500.97,-416.213,0,0
212012.05,504.249,-427.109,0,0
212272.375,506.331,-437.525,0,0
212532.7,507.648,-447.252,0,0
212793.025,508.535,-456.399,0,0
213053.35,509.378,-465.206,0,0
213313.675,509.95,-474.348,0,0
213574.0,509.561,-483.462,0,0
213834.325,508.555,-492.061,0,0
214094.65,507.315,-500.388,0,0
214354.975,505.512,-508.672,0,0
214615.3,502.761,-516.645,0,0
214875.625,499.181,-523.595,0,0
215135.95,495.715,-529.169,0,0
215396.275,492.975,-534.055,0,0
215656.6,490.787,-538.964,0,0
215916.925,488.917,-544.074,0,0
216177.25,487.048,-549.371,0,0
216437.575,485.2,-555.022,0,0
216697.9,483.086,-561.035,0,0
216958.225,480.275,-567.432,0,0
217218.55,476.553,-573.837,0,0
217478.875,471.855,-579.698,0,0
217739.2,466.781,-584.613,0,0
217999.525,461.848,-588.874,0,0
218259.85,456.967,-593.165,0,0
218520,451.529,-597.36,0,0
218780,445.405,-601.027,0,0
219041,438.847,-603.851,0,0
219301,432.01,-605.755,0,0
219561,425.388,-606.564,0,0
219822,419.117,-606.622,0,0
220082,413.109,-606.09,0,0
220342,407.492,-604.834,0,0
220603,402.469,-602.964,0,0
220863,398.023,-600.686,0,0
221123,394.277,-598.003,0,0
221384,391.182,-595.223,0,0
221644,388.671,-592.386,0,0
221904,386.754,-589.504,0,0
222165,385.256,-586.719,0,0
222425,384.222,-583.911,0,0
222685,383.837,-581.28,0,0
222946,383.906,-579.025,0,0
223206,383.979,-577.285,0,0
223466,384.021,-575.552,0,0
223727,384.23,-573.683,0,0
223987,384.867,-571.82,0,0
224247,385.8,-570.315,0,0
224508,386.735,-568.943,0,0
224768,387.702,-567.595,0,0
225028,388.772,-566.103,0,0
225289,390.306,-564.312,0,0
225549,392.596,-562.436,0,0
225809,395.734,-560.969,0,0
226070,399.47,-560.193,0,0
226330,403.587,-560.362,0,0
226590,407.584,-561.457,0,0
226851,411.271,-563.216,0,0
227111,414.437,-565.282,0,0
227371,417.365,-567.321,0,0
227632,420.484,-569.29,0,0
227892,424.039,-571.678,0,0
228152,427.782,-574.732,0,0
228413,431.294,-578.54,0,0
228673,434.549,-582.964,0,0
228933,437.497,-587.893,0,0
229193,440.071,-593.541,0,0
229454,441.848,-599.638,0,0
229714,442.841,-605.885,0,0
229974,443.256,-611.993,0,0
230235,443.471,-617.873,0,0
230495,443.727,-624.068,0,0
230755,443.561,-630.944,0,0
231016,442.398,-638.372,0,0
231276,439.947,-645.438,0,0
231536,436.844,-651.761,0,0
231797,433.634,-657.435,0,0
232057,430.553,-662.867,0,0
232317,427.562,-668.419,0,0
232578,424.239,-674.366,0,0
232838,420.212,-680.312,0,0
233098,415.824,-685.924,0,0
233359,411.317,-691.692,0,0
233619,406.135,-698.025,0,0
233879,399.481,-704.514,0,0
234140,391.215,-710.001,0,0
234400,382.148,-714.038,0,0
234660.3,372.871,-716.682,0,0
234920.625,363.603,-718.05,0,0
235180.95,354.827,-718.2,0,0
235441.275,346.531,-717.486,0,0
235701.6,338.745,-716.27,0,0
235961.925,331.532,-714.329,0,0
236222.25,325.168,-712.038,0,0
236482.575,319.482,-709.783,0,0
236742.9,314.169,-707.62,0,0
237003.225,309.173,-705.727,0,0
237263.55,303.896,-704.114,0,0
237523.875,298.119,-702.131,0,0
237784.2,292.257,-699.323,0,0
238044.525,286.818,-695.711,0,0
238304.85,281.954,-691.537,0,0
238565.175,277.745,-687.054,0,0
238825.5,274.358,-682.224,0,0
239085.825,271.805,-677.352,0,0
239346.15,270.022,-672.981,0,0
239606.475,268.746,-668.577,0,0
239866.8,268.322,-664.474,0,0
240127.125,268.536,-661.127,0,0
240387.45,269.084,-658.921,0,0
240647.775,269.385,-657.818,0,0
240908.1,268.789,-657.279,0,0
241168.425,267.372,-656.746,0,0
241428.75,265.575,-656.018,0,0
241689.075,263.514,-655.118,0,0
241949.4,261.121,-654.095,0,0
242209.725,258.481,-652.75,0,0
242470.05,255.467,-650.98,0,0
242730.375,252.377,-648.484,0,0
242990.7,249.608,-645.241,0,0
243251.025,247.522,-641.646,0,0
243511.35,245.971,-638.033,0,0
243771.675,244.571,-634.409,0,0
244032.0,243.482,-630.437,0,0
244292.325,243.077,-626.112,0,0
244552.65,243.57,-621.968,0,0
244812.975,244.78,-618.192,0,0
245073.3,246.573,-615.225,0,0
245333.625,248.522,-613.143,0,0
245593.95,250.218,-611.732,0,0
245854.275,251.468,-610.731,0,0
246114.6,252.431,-609.904,0,0
246374.925,253.122,-609.143,0,0
246635.25,253.583,-608.361,0,0
246895.575,253.979,-607.564,0,0
247155.9,254.231,-606.809,0,0
247416.225,254.329,-605.973,0,0
247676.55,254.38,-604.911,0,0
247936.875,254.634,-603.788,0,0
248197.2,254.972,-602.691,0,0
248457.525,255.372,-601.663,0,0
248717.85,255.874,-600.614,0,0
248978.175,256.47,-599.639,0,0
249238.5,257.101,-598.747,0,0
249498.825,257.838,-597.907,0,0
249759.15,258.732,-597.137,0,0
250019.475,259.797,-596.705,0,0
250279.8,260.749,-596.606,0,0
250540,261.496,-596.583,0,0
250800,262.015,-596.574,0,0
251061,262.599,-596.484,0,0
251321,263.272,-596.521,0,0
251581,263.922,-596.741,0,0
251842,264.512,-597.053,0,0
252102,265.027,-597.447,0,0
252362,265.512,-597.967,0,0
252623,265.965,-598.581,0,0
252883,266.314,-599.374,0,0
253143,266.531,-600.335,0,0
253404,266.516,-601.385,0,0
253664,266.319,-602.459,0,0
253924,266.022,-603.588,0,0
254185,265.553,-604.861,0,0
254445,264.707,-606.272,0,0
254705,263.456,-607.524,0,0
254966,261.823,-608.457,0,0
255226,260.258,-609.097,0,0
255486,258.705,-609.565,0,0
255747,257.084,-609.992,0,0
256007,255.285,-610.334,0,0
256267,253.351,-610.402,0,0
256528,251.426,-610.222,0,0
256788,249.565,-609.816,0,0
257048,247.784,-609.346,0,0
257309,245.953,-608.752,0,0
257569,244.046,-607.987,0,0
257829,242.178,-606.887,0,0
258090,240.456,-605.571,0,0
258350,238.939,-604.062,0,0
258610,237.64,-602.408,0,0
258871,236.6,-600.681,0,0
259131,235.812,-599.04,0,0
259391,235.073,-597.499,0,0
259651,234.4,-596,0,0
259912,233.657,-594.513,0,0
260172,232.96,-592.92,0,0
260432,232.177,-591.096,0,0
260693,231.588,-588.954,0,0
260953,231.322,-586.709,0,0
261213,231.316,-584.383,0,0
261474,231.605,-581.996,0,0
261734,232.229,-579.511,0,0
261994,233.327,-577.048,0,0
262255,234.926,-574.756,0,0
262515,237.012,-572.865,0,0
262775,239.351,-571.538,0,0
263036,241.684,-570.644,0,0
263296,244.029,-570.117,0,0
263556,246.384,-569.964,0,0
263817,248.699,-570.275,0,0
264077,250.836,-570.926,0,0
264337,252.642,-571.921,0,0
264598,254.047,-573.138,0,0
264858,255.159,-574.321,0,0
265118,255.999,-575.439,0,0
265379,256.786,-576.487,0,0
265639,257.308,-577.5,0,0
265899,257.836,-578.333,0,0
266160,258.52,-579.054,0,0
266420,259.283,-579.876,0,0
266680.25,260.109,-580.843,0,0
266940.575,260.914,-581.982,0,0
267200.9,261.676,-583.281,0,0
267461.225,262.309,-584.747,0,0
267721.55,262.788,-586.357,0,0
267981.875,263.066,-588.074,0,0
268242.2,263.07,-589.813,0,0
268502.525,262.782,-591.453,0,0
268762.85,262.378,-592.831,0,0
269023.175,261.969,-594.028,0,0
269283.5,261.66,-595.021,0,0
269543.825,261.56,-595.955,0,0
269804.15,261.579,-596.85,0,0
270064.475,261.792,-597.814,0,0
270324.8,262.185,-598.884,0,0
270585.125,262.788,-600.16,0,0
270845.45,263.519,-601.633,0,0
271105.775,264.357,-603.598,0,0
271366.1,265.07,-605.759,0,0
271626.425,265.856,-608.078,0,0
271886.75,266.785,-610.776,0,0
272147.075,268.075,-614.21,0,0
272407.4,269.052,-618.717,0,0
272667.725,269.17,-624.263,0,0
272928.05,267.969,-630.296,0,0
273188.375,265.606,-636.194,0,0
273448.7,262.477,-641.821,0,0
273709.025,258.553,-647.333,0,0
273969.35,253.695,-652.662,0,0
274229.675,247.841,-657.426,0,0
274490.0,241.164,-661.262,0,0
274750.325,234.096,-664.2,0,0
275010.65,226.806,-666.287,0,0
275270.975,219.321,-667.645,0,0
275531.3,211.633,-668.169,0,0
275791.625,203.986,-667.752,0,0
276051.95,196.582,-666.496,0,0
276312.275,189.537,-664.566,0,0
276572.6,182.807,-662.042,0,0
276832.925,176.434,-658.951,0,0
277093.25,170.509,-655.366,0,0
277353.575,165.056,-651.332,0,0
277613.9,160.108,-646.919,0,0
277874.225,155.785,-642.153,0,0
278134.55,152.057,-637.203,0,0
278394.875,149.048,-632.188,0,0
278655.2,146.585,-627.287,0,0
278915.525,144.604,-622.563,0,0
279175.85,142.967,-618.056,0,0
279436.175,141.571,-613.681,0,0
279696.5,140.439,-609.465,0,0
279956.825,139.609,-605.257,0,0
280217.15,139.095,-601.332,0,0
280477.475,138.803,-597.595,0,0
280737.8,138.718,-594.102,0,0
280998.125,138.819,-590.921,0,0
281258.45,138.977,-588.069,0,0
281518.775,139.061,-585.581,0,0
281779.1,138.921,-583.292,0,0
282039.425,138.542,-581.022,0,0
282299.75,138.058,-578.712,0,0
282560,137.475,-576.303,0,0
282820,136.881,-573.793,0,0
283081,136.29,-571.151,0,0
283341,135.767,-568.404,0,0
283601,135.318,-565.507,0,0
283862,135.018,-562.48,0,0
284122,134.924,-559.303,0,0
284382,135.174,-556.094,0,0
284643,135.747,-553.008,0,0
284903,136.502,-550.089,0,0
285163,137.45,-547.368,0,0
285424,138.51,-544.828,0,0
285684,139.593,-542.508,0,0
285944,140.718,-540.364,0,0
286205,141.87,-538.343,0,0
286465,143.011,-536.49,0,0
286725,144.107,-534.809,0,0
286986,145.14,-533.256,0,0
287246,146.052,-531.788,0,0
287506,146.843,-530.349,0,0
287767,147.559,-528.91,0,0
288027,148.196,-527.442,0,0
288287,148.789,-525.923,0,0
288548,149.346,-524.299,0,0
288808,149.93,-522.559,0,0
289068,150.613,-520.731,0,0
289329,151.439,-518.869,0,0
289589,152.407,-517.028,0,0
289849,153.437,-515.235,0,0
290109,154.545,-513.491,0,0
290370,155.714,-511.76,0,0
290630,157,-509.975,0,0
290890,158.447,-508.28,0,0
291151,160.045,-506.744,0,0
291411,161.67,-505.361,0,0
291671,163.31,-504.112,0,0
291932,164.925,-502.969,0,0
292192,166.523,-501.891,0,0
292452,168.102,-500.872,0,0
292713,169.664,-499.896,0,0
292973,171.242,-498.975,0,0
293233,172.789,-498.096,0,0
293494,174.312,-497.196,0,0
293754,175.904,-496.321,0,0
294014,177.526,-495.461,0,0
294275,179.154,-494.635,0,0
294535,180.814,-493.824,0,0
294795,182.507,-492.991,0,0
295056,184.301,-492.153,0,0
295316,186.173,-491.342,0,0
295576,188.15,-490.545,0,0
295837,190.266,-489.807,0,0
296097,192.503,-489.181,0,0
296357,194.868,-488.684,0,0
296618,197.317,-488.295,0,0
296878,199.853,-488.075,0,0
297138,202.439,-488.005,0,0
297399,205.098,-488.08,0,0
297659,207.814,-488.319,0,0
297919,210.557,-488.791,0,0
298180,213.292,-489.492,0,0
298440,215.915,-490.395,0,0
298700.2,218.414,-491.422,0,0
298960.525,220.897,-492.358,0,0
299220.85,223.284,-493.441,0,0
299481.175,225.856,-494.468,0,0
299741.5,228.545,-495.711,0,0
300001.825,231.223,-496.988,0,0
300262.15,234.166,-498.541,0,0
300522.475,237.068,-500.361,0,0
300782.8,240.237,-502.465,0,0
301043.125,243.297,-504.998,0,0
301303.45,246.304,-507.875,0,0
301563.775,249.302,-511.164,0,0
301824.1,252.326,-514.827,0,0
302084.425,255.116,-519.094,0,0
302344.75,257.65,-524.008,0,0
302605.075,259.515,-529.512,0,0
302865.4,260.717,-535.417,0,0
303125.725,261.024,-541.557,0,0
303386.05,260.46,-547.658,0,0
303646.375,259.162,-553.493,0,0
303906.7,257.251,-558.931,0,0
304167.025,254.982,-563.957,0,0
304427.35,252.408,-568.651,0,0
304687.675,249.593,-573.095,0,0
304948.0,246.487,-577.23,0,0
305208.325,243.11,-581.085,0,0
305468.65,239.562,-584.626,0,0
305728.975,235.844,-587.858,0,0
305989.3,231.944,-590.844,0,0
306249.625,227.847,-593.532,0,0
306509.95,223.565,-595.835,0,0
306770.275,219.183,-597.732,0,0
307030.6,214.81,-599.207,0,0
307290.925,210.527,-600.323,0,0
307551.25,206.357,-601.189,0,0
307811.575,202.248,-601.814,0,0
308071.9,198.21,-602.215,0,0
308332.225,194.228,-602.431,0,0
308592.55,190.33,-602.395,0,0
308852.875,186.496,-602.143,0,0
309113.2,182.791,-601.679,0,0
309373.525,179.204,-600.997,0,0
309633.85,175.82,-600.137,0,0
309894.175,172.533,-599.171,0,0
310154.5,169.48,-598.054,0,0
310414.825,166.573,-596.835,0,0
310675.15,163.868,-595.574,0,0
310935.475,161.289,-594.249,0,0
311195.8,158.884,-592.888,0,0
311456.125,156.613,-591.558,0,0
311716.45,154.484,-590.226,0,0
311976.775,152.442,-588.889,0,0
312237.1,150.483,-587.623,0,0
312497.425,148.559,-586.39,0,0
312757.75,146.671,-585.149,0,0
313018.075,144.794,-583.906,0,0
313278.4,142.941,-582.636,0,0
313538.725,141.122,-581.316,0,0
313799.05,139.332,-579.939,0,0
314059.375,137.604,-578.494,0,0
314319.7,135.908,-577.047,0,0
314580,134.256,-575.49,0,0
314840,132.734,-573.785,0,0
315101,131.307,-572.193,0,0
315361,129.986,-570.507,0,0
315621,128.911,-568.746,0,0
315882,127.855,-567.067,0,0
316142,126.988,-565.457,0,0
316402,126.084,-563.872,0,0
316663,125.353,-562.28,0,0
316923,124.695,-560.856,0,0
317183,124.069,-559.463,0,0
317444,123.555,-558.235,0,0
317704,122.826,-556.949,0,0
317964,122.234,-555.821,0,0
318225,121.6,-554.655,0,0
318485,120.996,-553.384,0,0
318745,120.345,-552.195,0,0
319006,119.766,-550.894,0,0
319266,119.399,-549.732,0,0
319526,119.006,-548.525,0,0
319787,118.632,-547.296,0,0
320047,118.327,-546.334,0,0
320307,118.114,-545.363,0,0
320567,117.83,-544.351,0,0
320828,117.631,-543.524,0,0
321088,117.433,-542.783,0,0
321348,117.069,-541.988,0,0
321609,116.801,-541.307,0,0
321869,116.44,-540.68,0,0
322129,116.034,-540.015,0,0
322390,115.597,-539.458,0,0
322650,115.277,-538.908,0,0
322910,114.797,-538.37,0,0
323171,114.3,-537.771,0,0
323431,113.692,-537.157,0,0
323691,113.071,-536.612,0,0
323952,112.514,-535.954,0,0
324212,111.911,-535.317,0,0
324472,111.298,-534.673,0,0
324733,110.649,-533.968,0,0
324993,110.141,-533.27,0,0
325253,109.536,-532.499,0,0
325514,109.006,-531.758,0,0
325774,108.517,-531.047,0,0
326034,108.061,-530.355,0,0
326295,107.6,-529.717,0,0
326555,107.169,-529.084,0,0
326815,106.782,-528.474,0,0
327076,106.221,-527.927,0,0
327336,105.711,-527.437,0,0
327596,105.239,-526.932,0,0
327857,104.66,-526.445,0,0
328117,104.154,-525.874,0,0
328377,103.478,-525.349,0,0
328638,102.774,-524.84,0,0
328898,102.129,-524.248,0,0
329158,101.369,-523.721,0,0
329419,100.757,-523.069,0,0
329679,100.073,-522.44,0,0
329939,99.3609,-521.812,0,0
330200,98.7515,-521.178,0,0
330460,98.1048,-520.491,0,0
330720.15,97.5134,-519.893,0,0
330980.475,96.8919,-519.343,0,0
331240.8,96.2146,-518.763,0,0
331501.125,95.6146,-518.24,0,0
331761.45,94.821,-517.796,0,0
332021.775,94.0222,-517.234,0,0
332282.1,93.1548,-516.71,0,0
332542.425,92.3175,-516.072,0,0
332802.75,91.3668,-515.498,0,0
333063.075,90.3337,-514.871,0,0
333323.4,89.3558,-514.051,0,0
333583.725,88.3948,-513.265,0,0
333844.05,87.4459,-512.441,0,0
334104.375,86.4523,-511.472,0,0
334364.7,85.4847,-510.496,0,0
334625.025,84.5656,-509.476,0,0
334885.35,83.7291,-508.454,0,0
335145.675,82.8096,-507.382,0,0
335406.0,81.9627,-506.275,0,0
335666.325,81.1913,-505.16,0,0
335926.65,80.3081,-504.006,0,0
336186.975,79.5834,-502.857,0,0
336447.3,78.8106,-501.618,0,0
336707.625,78.0241,-500.378,0,0
336967.95,77.2957,-499.159,0,0
337228.275,76.6774,-497.817,0,0
337488.6,76.0431,-496.496,0,0
337748.925,75.4967,-495.135,0,0
338009.25,74.9868,-493.783,0,0
338269.575,74.5485,-492.421,0,0
338529.9,74.1536,-491.18,0,0
338790.225,73.7194,-489.827,0,0
339050.55,73.3777,-488.549,0,0
339310.875,73.0531,-487.225,0,0
339571.2,72.7044,-485.931,0,0
339831.525,72.3626,-484.722,0,0
340091.85,72.1092,-483.459,0,0
340352.175,71.8301,-482.136,0,0
340612.5,71.5712,-480.911,0,0
340872.825,71.2997,-479.594,0,0
341133.15,71.1025,-478.286,0,0
341393.475,70.9104,-476.966,0,0
341653.8,70.7877,-475.73,0,0
341914.125,70.6367,-474.408,0,0
342174.45,70.6121,-473.104,0,0
342434.775,70.6168,-471.871,0,0
342695.1,70.5759,-470.666,0,0
342955.425,70.5716,-469.366,0,0
343215.75,70.6436,-468.21,0,0
343476.075,70.738,-466.927,0,0
343736.4,70.8045,-465.762,0,0
343996.725,70.9433,-464.642,0,0
344257.05,71.0789,-463.49,0,0
344517.375,71.29,-462.418,0,0
344777.7,71.4832,-461.309,0,0
345038.025,71.7108,-460.331,0,0
345298.35,71.9538,-459.346,0,0
345558.675,72.1683,-458.455,0,0
345819.0,72.3913,-457.493,0,0
346079.325,72.6159,-456.724,0,0
346339.65,72.8297,-455.932,0,0
346599.975,73.017,-455.18,0,0
346860,73.1382,-454.417,0,0
347121,73.2979,-453.746,0,0
347381,73.3124,-453.033,0,0
347641,73.4012,-452.375,0,0
347902,73.4023,-451.684,0,0
348162,73.3253,-450.943,0,0
348422,73.2096,-450.26,0,0
348683,73.0745,-449.463,0,0
348943,72.9769,-448.66,0,0
349203,72.8334,-447.791,0,0
349464,72.7358,-446.937,0,0
349724,72.5995,-446.051,0,0
349984,72.6045,-445.184,0,0
350245,72.5456,-444.233,0,0
350505,72.4643,-443.344,0,0
350765,72.3386,-442.375,0,0
351025,72.2607,-441.406,0,0
351286,72.2106,-440.349,0,0
351546,72.2037,-439.219,0,0
351806,72.2928,-438.109,0,0
352067,72.4468,-437.004,0,0
352327,72.6726,-435.926,0,0
352587,72.9654,-434.849,0,0
352848,73.2987,-433.777,0,0
353108,73.694,-432.864,0,0
353368,74.0496,-431.971,0,0
353629,74.4054,-431.08,0,0
353889,74.8765,-430.238,0,0
354149,75.2807,-429.497,0,0
354410,75.6558,-428.764,0,0
354670,76.0528,-428.106,0,0
354930,76.4122,-427.473,0,0
355191,76.8116,-426.808,0,0
355451,77.1646,-426.208,0,0
355711,77.5722,-425.648,0,0
355972,77.944,-425.228,0,0
356232,78.1942,-424.835,0,0
356492,78.3883,-424.493,0,0
356753,78.5336,-424.071,0,0
357013,78.5736,-423.705,0,0
357273,78.5589,-423.294,0,0
357534,78.515,-422.846,0,0
357794,78.3907,-422.327,0,0
358054,78.185,-421.875,0,0
358315,77.9768,-421.258,0,0
358575,77.7641,-420.569,0,0
358835,77.6165,-419.797,0,0
359096,77.4037,-418.942,0,0
359356,77.2656,-418.085,0,0
359616,77.1596,-417.144,0,0
359877,77.1814,-416.158,0,0
360137,77.2,-415.136,0,0
360397,77.3242,-414.195,0,0
360658,77.4596,-413.136,0,0
360918,77.64,-412.133,0,0
361178,77.8457,-411.163,0,0
361438,78.1652,-410.179,0,0
361699,78.504,-409.253,0,0
361959,78.8621,-408.339,0,0
362219,79.2747,-407.403,0,0
362480,79.7073,-406.585,0,0
362740.1,80.1112,-405.749,0,0
363000.425,80.5881,-405.033,0,0
363260.75,81.0069,-404.242,0,0
363521.075,81.4624,-403.501,0,0
363781.4,81.9309,-402.788,0,0
364041.725,82.3624,-402.082,0,0
364302.05,82.8201,-401.365,0,0
364562.375,83.3287,-400.673,0,0
364822.7,83.8399,-400.01,0,0
365083.025,84.353,-399.368,0,0
365343.35,84.8628,-398.805,0,0
365603.675,85.4559,-398.234,0,0
365864.0,86.0206,-397.693,0,0
366124.325,86.5373,-397.246,0,0
366384.65,87.0823,-396.869,0,0
366644.975,87.4946,-396.434,0,0
366905.3,87.9759,-396.058,0,0
367165.625,88.3559,-395.658,0,0
367425.95,88.8253,-395.256,0,0
367686.275,89.1856,-394.884,0,0
367946.6,89.7056,-394.481,0,0
368206.925,90.1529,-394.123,0,0
368467.25,90.5885,-393.816,0,0
368727.575,91.0343,-393.56,0,0
368987.9,91.5058,-393.313,0,0
369248.225,91.9016,-393.19,0,0
369508.55,92.2527,-393.124,0,0
369768.875,92.5892,-393.019,0,0
370029.2,92.7808,-393.013,0,0
370289.525,92.9008,-393.018,0,0
370549.85,92.9081,-393.002,0,0
370810.175,92.8578,-392.959,0,0
371070.5,92.6243,-392.82,0,0
371330.825,92.3834,-392.599,0,0
371591.15,92.0977,-392.247,0,0
371851.475,91.7918,-391.816,0,0
372111.8,91.4812,-391.27,0,0
372372.125,91.2329,-390.649,0,0
372632.45,91.0913,-389.87,0,0
372892.775,91.0036,-389.115,0,0
373153.1,90.9542,-388.366,0,0
373413.425,91.0034,-387.58,0,0
373673.75,91.1271,-386.814,0,0
373934.075,91.1859,-386.048,0,0
374194.4,91.361,-385.282,0,0
374454.725,91.5274,-384.497,0,0
374715.05,91.7681,-383.738,0,0
374975.375,92.0409,-383.033,0,0
375235.7,92.2479,-382.295,0,0
375496.025,92.5064,-381.591,0,0
375756.35,92.8019,-380.871,0,0
376016.675,93.1178,-380.188,0,0
376277.0,93.4756,-379.487,0,0
376537.325,93.7638,-378.871,0,0
376797.65,94.0823,-378.224,0,0
377057.975,94.3656,-377.559,0,0
377318.3,94.6624,-376.924,0,0
377578.625,94.94,-376.255,0,0
377838.95,95.2585,-375.556,0,0
378099.275,95.5699,-374.8,0,0
378359.6,95.9239,-374.105,0,0
378619.925,96.3545,-373.317,0,0
378880,96.7875,-372.56,0,0
379141,97.2996,-371.826,0,0
379401,97.8495,-371.118,0,0
379661,98.387,-370.461,0,0
379922,98.986,-369.817,0,0
380182,99.5437,-369.238,0,0
380442,100.16,-368.723,0,0
380703,100.717,-368.187,0,0
380963,101.236,-367.659,0,0
381223,101.777,-367.13,0,0
381483,102.293,-366.599,0,0
381744,102.814,-366.056,0,0
382004,103.357,-365.476,0,0
382264,103.958,-364.95,0,0
382525,104.565,-364.367,0,0
382785,105.24,-363.867,0,0
383045,105.917,-363.366,0,0
383306,106.561,-362.955,0,0
383566,107.27,-362.529,0,0
383826,107.923,-362.182,0,0
384087,108.541,-361.821,0,0
384347,109.173,-361.427,0,0
384607,109.763,-361.075,0,0
384868,110.415,-360.716,0,0
385128,111.06,-360.397,0,0
385388,111.665,-360.09,0,0
385649,112.274,-359.772,0,0
385909,112.811,-359.494,0,0
386169,113.383,-359.151,0,0
386430,113.976,-358.807,0,0
386690,114.559,-358.48,0,0
386950,115.143,-358.058,0,0
387211,115.792,-357.749,0,0
387471,116.397,-357.395,0,0
387731,117.028,-357.103,0,0
387992,117.599,-356.772,0,0
388252,118.2,-356.396,0,0
388512,118.841,-355.959,0,0
388773,119.483,-355.531,0,0
389033,120.252,-355.082,0,0
389293,121.062,-354.629,0,0
389554,121.9,-354.264,0,0
389814,122.823,-353.951,0,0
390074,123.75,-353.718,0,0
390335,124.666,-353.572,0,0
390595,125.527,-353.397,0,0
390855,126.41,-353.265,0,0
391116,127.24,-353.102,0,0
391376,128.093,-353.047,0,0
391636,128.929,-352.926,0,0
391896,129.777,-352.843,0,0
392157,130.581,-352.792,0,0
392417,131.397,-352.691,0,0
392677,132.242,-352.608,0,0
392938,133.139,-352.497,0,0
393198,134.024,-352.458,0,0
393458,134.957,-352.397,0,0
393719,135.849,-352.336,0,0
393979,136.793,-352.305,0,0
394239,137.773,-352.215,0,0
394500,138.785,-352.218,0,0
394760.05,139.854,-352.21,0,0
395020.375,140.891,-352.257,0,0
395280.7,142.023,-352.285,0,0
395541.025,143.253,-352.414,0,0
395801.35,144.491,-352.607,0,0
396061.675,145.714,-352.806,0,0
396322.0,147.027,-353.068,0,0
396582.325,148.398,-353.394,0,0
396842.65,149.822,-353.811,0,0
397102.975,151.317,-354.37,0,0
397363.3,152.857,-355.089,0,0
397623.625,154.368,-355.999,0,0
397883.95,155.821,-357.024,0,0
398144.275,157.205,-358.235,0,0
398404.6,158.491,-359.551,0,0
398664.925,159.696,-360.986,0,0
398925.25,160.779,-362.559,0,0
399185.575,161.763,-364.264,0,0
399445.9,162.604,-366.017,0,0
399706.225,163.302,-367.879,0,0
399966.55,163.86,-369.841,0,0
400006.6,163.884,-370.103,0,0