File: Accelerated corrosion test data/2025-10-06_06-00-03/sample_6.csv
Frequency (Hz),Impedance (ohms),Phase (Radians),Temperature (C),Humidity (%)
10000.0,4255.04,-6507.94,0,0
10260.325,4117.44,-6433.82,0,0
10520.65,3986.09,-6359.19,0,0
10780.975,3860.27,-6285.25,0,0
11041.3,3740.77,-6211.23,0,0
11301.625,3625.96,-6138.9,0,0
11561.95,3516.2,-6066.34,0,0
11822.275,3411.49,-5994.7,0,0
12082.6,3310.52,-5923.58,0,0
12342.925,3214.46,-5853.24,0,0
12603.25,3124.17,-5782.8,0,0
12863.575,3036.52,-5715.12,0,0
13123.9,2954.73,-5648.75,0,0
13384.225,2872.11,-5585.53,0,0
13644.55,2792.53,-5520.39,0,0
13904.875,2717.28,-5455.92,0,0
14165.2,2644.83,-5392.94,0,0
14425.525,2574.8,-5330.31,0,0
14685.8,2508.53,-5267.81,0,0
14946.175,2445.63,-5208.75,0,0
15206.5,2383.71,-5148.78,0,0
15466.825,2324.67,-5091.08,0,0
15727.15,2267.44,-5034.04,0,0
15987.5,2212.67,-4978.11,0,0
16247.8,2159.43,-4922.78,0,0
16508.125,2108.37,-4868.08,0,0
16768.45,2059.03,-4814.44,0,0
17028.775,2012.02,-4762.71,0,0
17289.1,1966.15,-4711.79,0,0
17549.425,1921.23,-4660.41,0,0
17809.75,1877.89,-4611.43,0,0
18070.075,1836.45,-4561.88,0,0
18330.4,1796.42,-4513.64,0,0
18590.725,1757.6,-4465.75,0,0
18851.05,1721.21,-4419.44,0,0
19111.375,1687.02,-4374.32,0,0
19371.7,1651.61,-4331.23,0,0
19632.025,1616.28,-4287.46,0,0
19892.35,1583.93,-4243.94,0,0
20152.675,1551.81,-4202.05,0,0
20413.0,1520.39,-4160.49,0,0
20673.3,1489.43,-4119.45,0,0
20933.65,1460.77,-4078.96,0,0
21193.975,1432.84,-4039.14,0,0
21454.3,1405.02,-4000.42,0,0
21714.625,1378.35,-3961.68,0,0
21974.9,1352.86,-3923.66,0,0
22235.275,1326.62,-3886.36,0,0
22495.6,1302.89,-3847.85,0,0
22755.925,1279.92,-3810.04,0,0
23016.25,1261.26,-3773.95,0,0
23276.6,1241.1,-3742.97,0,0
23536.9,1219.33,-3711.29,0,0
23797.225,1197.19,-3679.52,0,0
24057.55,1175.88,-3647.51,0,0
24317.875,1154.65,-3615.01,0,0
24578.2,1134.21,-3583.33,0,0
24838.525,1115.09,-3551.35,0,0
25098.85,1096.35,-3520.31,0,0
25359.175,1078.5,-3489.91,0,0
25619.5,1060.81,-3460.29,0,0
25879.8,1043.17,-3430.66,0,0
26140.1,1026.2,-3401.33,0,0
26400.5,1009.99,-3372.2,0,0
26660.8,994.409,-3343.73,0,0
26921.1,978.713,-3315.38,0,0
27181.4,963.749,-3287.67,0,0
27441.8,950.109,-3260.93,0,0
27702.1,936.251,-3234.41,0,0
27962.4,922.753,-3208.52,0,0
28222.7,908.773,-3183.45,0,0
28483.1,894.616,-3158.31,0,0
28743.4,881.05,-3133.2,0,0
29003.7,867.807,-3107.86,0,0
29264,854.96,-3082.63,0,0
29524.4,843.908,-3057.58,0,0
29784.7,832.913,-3034.41,0,0
30045,821.005,-3010.48,0,0
30305.3,811.495,-2987.01,0,0
30565.7,800.743,-2965.51,0,0
30826,789.613,-2943.25,0,0
31086.3,778.237,-2921.37,0,0
31346.6,767.914,-2898.85,0,0
31607,758.16,-2876.89,0,0
31867.3,748.501,-2854.58,0,0
32127.6,739.954,-2832.83,0,0
32387.9,731.352,-2811.54,0,0
32648.3,724.251,-2791.31,0,0
32908.6,716.468,-2771.63,0,0
33168.9,708.782,-2752.01,0,0
33429.2,702.043,-2732.87,0,0
33689.6,695.675,-2716.34,0,0
33949.9,686.907,-2699.53,0,0
34210.2,678.301,-2682.06,0,0
34470.5,669.513,-2664.06,0,0
34730.9,661.719,-2646.3,0,0
34991.2,654.402,-2628.35,0,0
35251.5,647.429,-2611.56,0,0
35511.8,640.439,-2595.44,0,0
35772.2,632.916,-2579.84,0,0
36032.5,624.204,-2563.95,0,0
36292.8,616.49,-2547.49,0,0
36553.1,608.702,-2531.4,0,0
36813.5,600.62,-2515.16,0,0
37073.8,593.443,-2498.63,0,0
37334.1,586.299,-2482.59,0,0
37594.4,578.833,-2466.45,0,0
37854.8,571.838,-2450.32,0,0
38115.1,565.568,-2434.08,0,0
38375.4,558.897,-2418.36,0,0
38635.7,552.572,-2402.63,0,0
38896.1,546.6,-2387.08,0,0
39156.4,540.987,-2371.36,0,0
39416.7,535.619,-2356.23,0,0
39677,530.348,-2341.27,0,0
39937.4,525.19,-2326.48,0,0
40197.7,520.368,-2312.2,0,0
40458,515.428,-2298.04,0,0
40718.3,510.519,-2283.95,0,0
40978.7,505.762,-2270.56,0,0
41239,500.205,-2256.79,0,0
41499.3,495.609,-2242.4,0,0
41759.6,491.789,-2228.98,0,0
42020,488.019,-2216.15,0,0
42280.275,483.526,-2204.45,0,0
42540.6,477.344,-2191.75,0,0
42800.925,472.445,-2178.32,0,0
43061.25,467.601,-2164.36,0,0
43321.575,463.821,-2150.73,0,0
43581.9,460.518,-2137.55,0,0
43842.225,457.008,-2124.81,0,0
44102.55,453.672,-2112.49,0,0
44362.875,449.966,-2100.22,0,0
44623.2,447.049,-2087.48,0,0
44883.525,444.034,-2075.24,0,0
45143.85,441.427,-2062.81,0,0
45404.175,439.584,-2051.43,0,0
45664.5,437.167,-2040.35,0,0
45924.825,435.187,-2028.92,0,0
46185.15,433.364,-2018.37,0,0
46445.475,431.595,-2008.31,0,0
46705.8,429.329,-1998.88,0,0
46966.125,426.568,-1988.78,0,0
47226.45,424.636,-1978.79,0,0
47486.775,422.728,-1969.42,0,0
47747.1,420.539,-1960.01,0,0
48007.425,418.782,-1951.47,0,0
48267.75,416.731,-1942.89,0,0
48528.075,414.621,-1935.14,0,0
48788.4,412.312,-1927.4,0,0
49048.725,409.621,-1919.86,0,0
49309.05,407.061,-1912.81,0,0
49569.375,403.365,-1906.53,0,0
49829.7,398.84,-1899.77,0,0
50090.025,393.524,-1892.11,0,0
50350.35,389.026,-1884.3,0,0
50610.675,383.482,-1876.42,0,0
50871.0,378.326,-1867.47,0,0
51131.325,373.813,-1857.96,0,0
51391.65,369.726,-1848.9,0,0
51651.975,365.605,-1839.66,0,0
51912.3,361.744,-1830.65,0,0
52172.625,358.003,-1821.31,0,0
52432.95,354.811,-1812.01,0,0
52693.275,351.843,-1803.19,0,0
52953.6,349.019,-1794.74,0,0
53213.925,345.907,-1786.84,0,0
53474.25,342.307,-1778.82,0,0
53734.575,338.562,-1770.38,0,0
53994.9,334.92,-1761.84,0,0
54255.225,331.523,-1753,0,0
54515.55,328.363,-1744.35,0,0
54775.875,325.506,-1735.84,0,0
55036.2,322.42,-1727.65,0,0
55296.525,319.008,-1719.5,0,0
55556.85,315.412,-1710.84,0,0
55817.175,312.071,-1701.9,0,0
56077.5,309.002,-1692.79,0,0
56337.825,306.211,-1683.34,0,0
56598.15,304.243,-1673.54,0,0
56858.475,303.089,-1664.55,0,0
57118.8,301.888,-1655.97,0,0
57379.125,301.002,-1647.71,0,0
57639.45,300.266,-1640.13,0,0
57899.775,299.437,-1632.88,0,0
58160.1,298.379,-1626.26,0,0
58420.4,296.667,-1620.08,0,0
58680.7,294.705,-1613.35,0,0
58941.1,292.821,-1606.55,0,0
59201.4,291.026,-1600.01,0,0
59461.7,288.863,-1593.68,0,0
59722,286.615,-1587.28,0,0
59982.4,284.088,-1580.97,0,0
60242.7,281.444,-1574.27,0,0
60503,278.813,-1567.19,0,0
60763.3,276.351,-1560.32,0,0
61023.7,273.953,-1553.46,0,0
61284,271.477,-1546.46,0,0
61544.3,268.98,-1539.5,0,0
61804.6,266.375,-1532.14,0,0
62065,263.662,-1524.41,0,0
62325.3,261.817,-1516.32,0,0
62585.6,260.416,-1508.11,0,0
62845.9,259.875,-1500.18,0,0
63106.3,259.699,-1492.81,0,0
63366.6,259.837,-1486.31,0,0
63626.9,259.973,-1480.6,0,0
63887.2,259.77,-1475.32,0,0
64147.6,258.809,-1471.01,0,0
64407.9,256.596,-1466.51,0,0
64668.2,253.804,-1461.16,0,0
64928.5,251.362,-1454.93,0,0
65188.9,249.562,-1448.62,0,0
65449.2,247.963,-1442.36,0,0
65709.5,246.388,-1436.64,0,0
65969.8,244.763,-1431.07,0,0
66230.2,242.579,-1425.7,0,0
66490.5,240.379,-1419.92,0,0
66750.8,238.117,-1413.82,0,0
67011.1,236.045,-1408.1,0,0
67271.5,233.65,-1402.33,0,0
67531.8,231.286,-1395.57,0,0
67792.1,229.313,-1388.86,0,0
68052.4,227.592,-1382.29,0,0
68312.8,225.981,-1375.76,0,0
68573.1,224.447,-1369.2,0,0
68833.4,223.015,-1362.78,0,0
69093.7,221.555,-1356,0,0
69354.1,220.377,-1349.6,0,0
69614.4,219.184,-1343.12,0,0
69874.7,218.144,-1336.64,0,0
70135,217.556,-1330.11,0,0
70395.4,216.813,-1323.66,0,0
70655.7,216.404,-1317.35,0,0
70916,215.937,-1311.12,0,0
71176.3,215.604,-1304.98,0,0
71436.7,215.536,-1299.02,0,0
71697,215.525,-1293.31,0,0
71957.3,215.302,-1287.55,0,0
72217.6,215.21,-1282.03,0,0
72478,215.398,-1276.48,0,0
72738.3,215.605,-1271.16,0,0
72998.6,215.774,-1266.17,0,0
73258.9,215.916,-1261.28,0,0
73519.3,215.948,-1256.58,0,0
73779.6,215.797,-1251.99,0,0
74039.9,215.504,-1247.39,0,0
74300.225,215.189,-1242.78,0,0
74560.55,214.837,-1238.08,0,0
74820.875,214.618,-1233.52,0,0
75081.2,214.371,-1228.92,0,0
75341.525,214.26,-1224.33,0,0
75601.85,214.047,-1220.03,0,0
75862.175,213.805,-1215.69,0,0
76122.5,213.492,-1211.42,0,0
76382.825,213.188,-1207.14,0,0
76643.15,212.848,-1202.89,0,0
76903.475,212.534,-1198.63,0,0
77163.8,212.258,-1194.48,0,0
77424.125,212.048,-1190.37,0,0
77684.45,211.768,-1186.35,0,0
77944.775,211.476,-1182.42,0,0
78205.1,211.128,-1178.53,0,0
78465.425,210.722,-1174.73,0,0
78725.75,210.287,-1170.94,0,0
78986.075,209.758,-1167.22,0,0
79246.4,209.238,-1163.44,0,0
79506.725,208.711,-1159.72,0,0
79767.05,208.105,-1156.05,0,0
80027.375,207.508,-1152.35,0,0
80287.7,206.751,-1148.74,0,0
80548.025,206.024,-1145.15,0,0
80808.35,205.217,-1141.39,0,0
81068.675,204.49,-1137.69,0,0
81329.0,203.669,-1134.08,0,0
81589.325,202.807,-1130.4,0,0
81849.65,201.93,-1126.66,0,0
82109.975,201.018,-1122.95,0,0
82370.3,200.126,-1119.16,0,0
82630.625,199.276,-1115.4,0,0
82890.95,198.316,-1111.6,0,0
83151.275,197.342,-1107.79,0,0
83411.6,196.323,-1103.92,0,0
83671.925,195.425,-1099.93,0,0
83932.25,194.549,-1095.94,0,0
84192.575,193.673,-1091.91,0,0
84452.9,192.841,-1087.7,0,0
84713.225,192.152,-1083.52,0,0
84973.55,191.621,-1079.3,0,0
85233.875,191.175,-1075.18,0,0
85494.2,190.84,-1071.01,0,0
85754.525,190.623,-1067.06,0,0
86014.85,190.341,-1063.2,0,0
86275.175,190.107,-1059.32,0,0
86535.5,189.836,-1055.55,0,0
86795.825,189.715,-1051.87,0,0
87056.15,189.635,-1048.24,0,0
87316.475,189.284,-1044.68,0,0
87576.8,188.91,-1041.22,0,0
87837.125,188.502,-1037.57,0,0
88097.45,188.141,-1033.9,0,0
88357.775,187.818,-1030.24,0,0
88618.1,187.732,-1026.49,0,0
88878.425,187.45,-1022.84,0,0
89138.75,187.321,-1019.08,0,0
89399.075,187.485,-1015.41,0,0
89659.4,187.809,-1011.91,0,0
89919.725,187.961,-1008.45,0,0
90180,188.122,-1005.29,0,0
90440.4,188.159,-1002.42,0,0
90700.7,188.245,-999.396,0,0
90961,188.562,-996.586,0,0
91221.3,188.224,-994.022,0,0
91481.7,187.601,-991.149,0,0
91742,187.094,-988.188,0,0
92002.3,186.451,-984.898,0,0
92262.6,186.075,-981.385,0,0
92523,186.137,-978.094,0,0
92783.3,185.954,-975.082,0,0
93043.6,185.634,-972.316,0,0
93303.9,185.108,-968.912,0,0
93564.3,184.825,-965.706,0,0
93824.6,184.58,-962.468,0,0
94084.9,184.126,-958.962,0,0
94345.2,184.305,-955.266,0,0
94605.6,184.759,-951.614,0,0
94865.9,185.572,-948.59,0,0
95126.2,186.18,-946.095,0,0
95386.5,186.224,-943.225,0,0
95646.9,186.67,-940.462,0,0
95907.2,187.116,-937.941,0,0
96167.5,187.473,-935.581,0,0
96427.8,187.637,-933.261,0,0
96688.2,187.836,-931.056,0,0
96948.5,187.795,-929.348,0,0
97208.8,186.965,-927.221,0,0
97469.1,186.329,-924.46,0,0
97729.5,185.797,-921.631,0,0
97989.8,185.595,-918.615,0,0
98250.1,185.528,-915.627,0,0
98510.4,185.714,-912.461,0,0
98770.8,186.381,-909.412,0,0
99031.1,187.4,-906.715,0,0
99291.4,188.675,-904.443,0,0
99551.7,189.964,-903.111,0,0
99812.1,190.466,-902.32,0,0
100072,190.35,-901.385,0,0
100333,190.101,-900.346,0,0
100593,189.577,-899.244,0,0
100853,188.797,-898.183,0,0
101114,187.744,-896.959,0,0
101374,186.397,-895.435,0,0
101634,185.139,-893.566,0,0
101895,184.082,-891.416,0,0
102155,183.347,-889.351,0,0
102415,182.678,-887.572,0,0
102676,181.768,-885.948,0,0
102936,180.86,-884.34,0,0
103196,179.907,-882.958,0,0
103457,178.401,-881.851,0,0
103717,176.368,-880.354,0,0
103977,174.416,-878.541,0,0
104238,172.399,-876.807,0,0
104498,169.854,-874.917,0,0
104758,166.994,-872.513,0,0
105019,164.239,-869.618,0,0
105279,161.449,-866.274,0,0
105539,158.87,-862.659,0,0
105800,156.504,-858.506,0,0
106060,154.429,-854.102,0,0
106320.175,152.65,-849.46,0,0
106580.5,151.443,-844.568,0,0
106840.825,150.708,-839.729,0,0
107101.15,150.376,-835.066,0,0
107361.475,150.233,-830.602,0,0
107621.8,150.196,-826.23,0,0
107882.125,150.408,-821.793,0,0
108142.45,151.161,-817.631,0,0
108402.775,151.877,-814.093,0,0
108663.1,152.371,-810.668,0,0
108923.425,152.856,-807.245,0,0
109183.75,153.437,-803.997,0,0
109444.075,153.768,-800.795,0,0
109704.4,154.137,-797.642,0,0
109964.725,154.657,-794.236,0,0
110225.05,155.199,-791.127,0,0
110485.375,155.548,-788.115,0,0
110745.7,155.938,-784.898,0,0
111006.025,156.634,-781.329,0,0
111266.35,157.947,-778.248,0,0
111526.675,158.843,-775.187,0,0
111787.0,159.727,-772.768,0,0
112047.325,160.592,-769.961,0,0
112307.65,161.584,-767.344,0,0
112567.975,162.334,-764.768,0,0
112828.3,163.225,-762.247,0,0
113088.625,164.182,-759.733,0,0
113348.95,165.257,-757.35,0,0
113609.275,166.35,-755.258,0,0
113869.6,167.253,-753.082,0,0
114129.925,168.289,-750.936,0,0
114390.25,169.364,-749.164,0,0
114650.575,170.018,-747.367,0,0
114910.9,170.66,-745.332,0,0
115171.225,171.56,-743.308,0,0
115431.55,172.478,-741.604,0,0
115691.875,173.169,-739.755,0,0
115952.2,174.278,-737.849,0,0
116212.525,175.578,-736.399,0,0
116472.85,176.797,-735.285,0,0
116733.175,177.674,-734.647,0,0
116993.5,178.029,-734.088,0,0
117253.825,178.058,-733.508,0,0
117514.15,177.696,-732.706,0,0
117774.475,177.186,-731.795,0,0
118034.8,176.406,-730.618,0,0
118295.125,175.488,-729.031,0,0
118555.45,174.607,-727.016,0,0
118815.775,174.031,-724.639,0,0
119076.1,173.905,-722.283,0,0
119336.425,173.81,-720.047,0,0
119596.75,173.771,-717.497,0,0
119857.075,174.088,-714.802,0,0
120117.4,175.03,-712.153,0,0
120377.725,176.554,-709.893,0,0
120638.05,178.39,-708.407,0,0
120898.375,179.991,-707.708,0,0
121158.7,181.218,-707.738,0,0
121419.025,181.605,-708.233,0,0
121679.35,181,-708.625,0,0
121939.675,179.771,-708.381,0,0
122200.0,178.371,-707.471,0,0
122460,177.212,-706.022,0,0
122721,176.32,-704.478,0,0
122981,175.532,-702.93,0,0
123241,174.77,-701.259,0,0
123502,174.106,-699.482,0,0
123762,173.512,-697.842,0,0
124022,172.983,-696.118,0,0
124283,172.477,-694.591,0,0
124543,171.802,-693.021,0,0
124803,171.025,-691.335,0,0
125064,170.341,-689.498,0,0
125324,169.799,-687.628,0,0
125584,169.181,-685.851,0,0
125845,168.541,-683.998,0,0
126105,167.884,-682.136,0,0
126365,167.253,-680.219,0,0
126626,166.578,-678.209,0,0
126886,165.89,-676.115,0,0
127146,165.119,-673.905,0,0
127406,164.86,-671.619,0,0
127667,164.249,-669.188,0,0
127927,163.942,-666.736,0,0
128187,163.917,-664.168,0,0
128448,164.081,-661.683,0,0
128708,164.446,-659.302,0,0
128968,164.999,-657.251,0,0
129229,165.523,-655.539,0,0
129489,165.892,-653.925,0,0
129749,166.171,-652.428,0,0
130010,166.435,-651.151,0,0
130270,166.472,-649.797,0,0
130530,166.43,-648.48,0,0
130791,166.326,-647.21,0,0
131051,166.086,-645.932,0,0
131311,165.796,-644.631,0,0
131572,165.44,-643.315,0,0
131832,165.101,-642.001,0,0
132092,164.672,-640.686,0,0
132353,164.117,-639.369,0,0
132613,163.496,-638.001,0,0
132873,162.847,-636.632,0,0
133134,162.146,-635.231,0,0
133394,161.253,-633.865,0,0
133654,160.354,-632.283,0,0
133915,159.428,-630.733,0,0
134175,158.266,-629.016,0,0
134435,157.173,-627.117,0,0
134696,156.195,-625.13,0,0
134956,155.205,-623.122,0,0
135216,154.19,-620.932,0,0
135477,153.24,-618.82,0,0
135737,152.257,-616.508,0,0
135997,151.345,-614.114,0,0
136258,150.466,-611.59,0,0
136518,149.777,-609.04,0,0
136778,149.114,-606.522,0,0
137039,148.536,-603.973,0,0
137299,147.888,-601.405,0,0
137559,147.337,-598.749,0,0
137819,146.873,-596.047,0,0
138080,146.525,-593.386,0,0
138340.125,146.17,-590.66,0,0
138600.45,145.928,-587.971,0,0
138860.775,145.688,-585.253,0,0
139121.1,145.474,-582.568,0,0
139381.425,145.36,-579.796,0,0
139641.75,145.34,-577.097,0,0
139902.075,145.273,-574.396,0,0
140162.4,145.327,-571.588,0,0
140422.725,145.436,-568.874,0,0
140683.05,145.613,-566.136,0,0
140943.375,145.839,-563.386,0,0
141203.7,146.264,-560.593,0,0
141464.025,146.795,-558.035,0,0
141724.35,147.289,-555.608,0,0
141984.675,147.688,-553.243,0,0
142245.0,148.072,-550.897,0,0
142505.325,148.37,-548.588,0,0
142765.65,148.712,-546.184,0,0
143025.975,149.049,-543.738,0,0
143286.3,149.354,-541.228,0,0
143546.625,149.83,-538.697,0,0
143806.95,150.375,-536.198,0,0
144067.275,150.993,-533.662,0,0
144327.6,151.771,-531.157,0,0
144587.925,152.736,-528.807,0,0
144848.25,153.768,-526.67,0,0
145108.575,154.739,-524.754,0,0
145368.9,155.615,-522.985,0,0
145629.225,156.39,-521.388,0,0
145889.55,156.972,-519.855,0,0
146149.875,157.355,-518.351,0,0
146410.2,157.56,-516.766,0,0
146670.525,157.694,-515.008,0,0
146930.85,157.834,-513.218,0,0
147191.175,157.953,-511.388,0,0
147451.5,158.046,-509.594,0,0
147711.825,157.991,-507.757,0,0
147972.15,157.823,-505.772,0,0
148232.475,157.662,-503.58,0,0
148492.8,157.612,-501.305,0,0
148753.125,157.589,-498.991,0,0
149013.45,157.589,-496.65,0,0
149273.775,157.546,-494.237,0,0
149534.1,157.521,-491.73,0,0
149794.425,157.502,-489.045,0,0
150054.75,157.592,-486.216,0,0
150315.075,157.819,-483.319,0,0
150575.4,158.155,-480.41,0,0
150835.725,158.588,-477.438,0,0
151096.05,159.031,-474.394,0,0
151356.375,159.623,-471.127,0,0
151616.7,160.473,-467.662,0,0
151877.025,161.757,-464.148,0,0
152137.35,163.467,-460.865,0,0
152397.675,165.519,-457.735,0,0
152658.0,167.833,-454.986,0,0
152918.325,170.308,-452.755,0,0
153178.65,172.621,-451.056,0,0
153438.975,174.758,-449.622,0,0
153699.3,176.491,-448.498,0,0
153959.625,177.934,-447.377,0,0
154219.95,179.103,-446.144,0,0
154480,179.997,-444.969,0,0
154741,180.662,-443.454,0,0
155001,181.246,-441.59,0,0
155261,182.09,-439.459,0,0
155522,183.254,-437.142,0,0
155782,184.669,-434.941,0,0
156042,186.355,-432.795,0,0
156303,188.317,-430.745,0,0
156563,190.438,-429.053,0,0
156823,192.907,-427.944,0,0
157084,195.009,-427.433,0,0
157344,196.609,-426.993,0,0
157604,197.926,-426.71,0,0
157864,198.947,-426.443,0,0
158125,199.612,-426.167,0,0
158385,200.049,-425.582,0,0
158645,200.36,-424.877,0,0
158906,200.666,-424.026,0,0
159166,200.965,-423.09,0,0
159426,201.178,-422.101,0,0
159687,201.264,-421.038,0,0
159947,201.389,-419.813,0,0
160207,201.551,-418.347,0,0
160468,201.876,-417,0,0
160728,202.073,-415.565,0,0
160988,202.384,-414.14,0,0
161249,202.706,-412.677,0,0
161509,203.109,-411.228,0,0
161769,203.405,-409.986,0,0
162030,203.478,-408.694,0,0
162290,203.362,-407.321,0,0
162550,203.3,-405.654,0,0
162811,203.164,-403.909,0,0
163071,203.243,-402.047,0,0
163331,203.387,-400.144,0,0
163592,203.561,-398.329,0,0
163852,203.66,-396.565,0,0
164112,203.562,-394.744,0,0
164373,203.46,-392.723,0,0
164633,203.342,-390.5,0,0
164893,203.262,-388.174,0,0
165154,203.297,-385.612,0,0
165414,203.415,-382.999,0,0
165674,203.756,-380.255,0,0
165935,204.317,-377.556,0,0
166195,205.059,-374.866,0,0
166455,205.897,-372.387,0,0
166716,206.661,-369.98,0,0
166976,207.365,-367.627,0,0
167236,208.076,-365.195,0,0
167497,208.817,-362.675,0,0
167757,209.609,-360.253,0,0
168017,210.389,-357.82,0,0
168277,211.158,-355.281,0,0
168538,211.993,-352.705,0,0
168798,212.978,-350.097,0,0
169058,213.995,-347.575,0,0
169319,215.028,-345.089,0,0
169579,216.166,-342.613,0,0
169839,217.283,-340.25,0,0
170100,218.295,-337.945,0,0
170360.075,219.202,-335.613,0,0
170620.4,220.12,-333.085,0,0
170880.725,221.099,-330.54,0,0
171141.05,222.115,-328.04,0,0
171401.375,223.144,-325.47,0,0
171661.7,224.148,-322.848,0,0
171922.025,225.21,-320.265,0,0
172182.35,226.283,-317.625,0,0
172442.675,227.407,-314.898,0,0
172703.0,228.517,-312.271,0,0
172963.325,229.689,-309.581,0,0
173223.65,230.807,-306.872,0,0
173483.975,231.893,-304.155,0,0
173744.3,232.989,-301.39,0,0
174004.625,234.058,-298.572,0,0
174264.95,235.092,-295.615,0,0
174525.275,236.081,-292.656,0,0
174785.6,237.081,-289.463,0,0
175045.925,238.118,-286.136,0,0
175306.25,239.295,-282.652,0,0
175566.575,240.633,-279.073,0,0
175826.9,242.051,-275.442,0,0
176087.225,243.542,-271.736,0,0
176347.55,245.108,-267.935,0,0
176607.875,246.762,-264.001,0,0
176868.2,248.624,-259.98,0,0
177128.525,250.678,-255.869,0,0
177388.85,252.818,-251.731,0,0
177649.175,255.168,-247.579,0,0
177909.5,257.586,-243.34,0,0
178169.825,260.193,-239.024,0,0
178430.15,262.993,-234.652,0,0
178690.475,266.002,-230.163,0,0
178950.8,269.352,-225.675,0,0
179211.125,272.937,-221.181,0,0
179471.45,276.889,-216.798,0,0
179731.775,281.093,-212.582,0,0
179992.1,285.516,-208.558,0,0
180252.425,290.092,-204.849,0,0
180512.75,294.766,-201.22,0,0
180773.075,299.525,-197.777,0,0
181033.4,304.394,-194.558,0,0
181293.725,309.332,-191.447,0,0
181554.05,314.297,-188.521,0,0
181814.375,319.31,-185.709,0,0
182074.7,324.456,-182.994,0,0
182335.025,329.64,-180.564,0,0
182595.35,334.822,-178.36,0,0
182855.675,339.899,-176.358,0,0
183116.0,344.912,-174.51,0,0
183376.325,349.695,-172.657,0,0
183636.65,354.509,-170.669,0,0
183896.975,359.432,-168.69,0,0
184157.3,364.499,-166.886,0,0
184417.625,369.624,-165.318,0,0
184677.95,374.564,-164.024,0,0
184938.275,379.352,-162.821,0,0
185198.6,383.982,-161.706,0,0
185458.925,388.397,-160.63,0,0
185719.25,392.637,-159.498,0,0
185979.575,396.717,-158.366,0,0
186239.9,400.573,-157.172,0,0
186500,404.278,-155.841,0,0
186761,407.637,-154.337,0,0
187021,410.862,-152.524,0,0
187281,413.856,-150.386,0,0
187542,416.684,-147.626,0,0
187802,419.521,-144.293,0,0
188062,422.66,-140.348,0,0
188322,426.272,-135.84,0,0
188583,430.377,-131.019,0,0
188843,434.818,-125.815,0,0
189103,439.737,-120.352,0,0
189364,445.231,-114.523,0,0
189624,451.266,-108.34,0,0
189884,458.092,-101.741,0,0
190145,465.897,-95.0947,0,0
190405,474.655,-88.488,0,0
190665,484.361,-82.0639,0,0
190926,494.909,-76.0372,0,0
191186,506.327,-70.3423,0,0
191446,518.619,-65.2593,0,0
191707,531.565,-61.049,0,0
191967,544.824,-57.6035,0,0
192227,558.436,-54.8656,0,0
192488,572.301,-52.6756,0,0
192748,586.307,-51.0402,0,0
193008,600.508,-49.7449,0,0
193269,615.116,-48.7885,0,0
193529,630.164,-48.2377,0,0
193789,645.86,-48.2179,0,0
194050,662.166,-48.9918,0,0
194310,678.898,-50.7101,0,0
194570,695.997,-53.4531,0,0
194831,713.219,-57.2144,0,0
195091,730.618,-62.0559,0,0
195351,747.925,-68.132,0,0
195612,764.891,-75.2228,0,0
195872,781.362,-83.2295,0,0
196132,797.54,-91.8842,0,0
196393,813.34,-101.184,0,0
196653,828.938,-111.133,0,0
196913,844.327,-121.872,0,0
197174,859.414,-133.446,0,0
197434,873.8,-145.886,0,0
197694,887.468,-158.912,0,0
197955,900.626,-172.269,0,0
198215,913.391,-185.759,0,0
198475,926.014,-199.805,0,0
198735,938.425,-214.389,0,0
198996,950.761,-229.901,0,0
199256,962.439,-245.989,0,0
199516,973.582,-263.141,0,0
199777,983.958,-280.46,0,0
200037,993.629,-298.681,0,0
200297,1002.82,-317.033,0,0
200558,1011.64,-336.163,0,0
200818,1019.96,-355.901,0,0
201078,1027.59,-376.368,0,0
201339,1034.43,-397.766,0,0
201599,1040.46,-420.05,0,0
201859,1045.21,-443.124,0,0
202120,1048.7,-467.165,0,0
202380.025,1050.1,-492.313,0,0
202640.35,1050.16,-517.191,0,0
202900.675,1047.91,-542.2,0,0
203161.0,1043.56,-566.114,0,0
203421.325,1037.63,-589.715,0,0
203681.65,1030.64,-612.004,0,0
203941.975,1022.45,-633.52,0,0
204202.3,1013.6,-654.071,0,0
204462.625,1003.78,-673.531,0,0
204722.95,993.431,-692.304,0,0
204983.275,982.507,-710.545,0,0
205243.6,970.729,-727.53,0,0
205503.925,958.733,-744.069,0,0
205764.25,945.8,-759.65,0,0
206024.575,932.462,-774.335,0,0
206284.9,918.739,-787.655,0,0
206545.225,904.874,-800.202,0,0
206805.55,890.699,-811.902,0,0
207065.875,876.527,-822.136,0,0
207326.2,862.577,-831.835,0,0
207586.525,848.569,-840.75,0,0
207846.85,834.83,-848.854,0,0
208107.175,821.334,-856.202,0,0
208367.5,808.018,-863.059,0,0
208627.825,795.099,-869.044,0,0
208888.15,782.481,-874.699,0,0
209148.475,770.259,-879.995,0,0
209408.8,758.427,-885.051,0,0
209669.125,747.098,-889.812,0,0
209929.45,735.662,-894.198,0,0
210189.775,725.084,-899.169,0,0
210450.1,714.435,-903.7,0,0
210710.425,703.914,-908.744,0,0
210970.75,693.34,-913.912,0,0
211231.075,682.137,-919.425,0,0
211491.4,670.486,-925.057,0,0
211751.725,658.025,-930.029,0,0
212012.05,644.953,-934.713,0,0
212272.375,631.516,-938.848,0,0
212532.7,617.758,-941.532,0,0
212793.025,603.587,-943.585,0,0
213053.35,589.836,-944.763,0,0
213313.675,576.355,-945.2,0,0
213574.0,563.134,-944.799,0,0
213834.325,550.325,-943.989,0,0
214094.65,537.974,-942.751,0,0
214354.975,526.103,-941.004,0,0
214615.3,514.365,-938.951,0,0
214875.625,502.988,-936.423,0,0
215135.95,492.204,-933.571,0,0
215396.275,481.796,-930.331,0,0
215656.6,471.844,-926.988,0,0
215916.925,462.276,-923.44,0,0
216177.25,453.099,-919.834,0,0
216437.575,444.369,-916.11,0,0
216697.9,435.895,-912.467,0,0
216958.225,427.646,-908.554,0,0
217218.55,419.72,-904.718,0,0
217478.875,412.104,-900.781,0,0
217739.2,404.669,-896.834,0,0
217999.525,397.408,-892.833,0,0
218259.85,390.461,-888.706,0,0
218520,383.601,-884.572,0,0
218780,376.981,-880.416,0,0
219041,370.699,-876.279,0,0
219301,364.577,-871.877,0,0
219561,358.768,-867.661,0,0
219822,353.02,-863.265,0,0
220082,347.367,-859.029,0,0
220342,342.1,-854.845,0,0
220603,336.893,-850.471,0,0
220863,331.799,-846.025,0,0
221123,326.815,-841.639,0,0
221384,322.099,-837.242,0,0
221644,317.476,-832.722,0,0
221904,312.984,-828.347,0,0
222165,308.619,-823.685,0,0
222425,304.448,-819.189,0,0
222685,300.349,-814.501,0,0
222946,296.734,-809.817,0,0
223206,293.033,-804.943,0,0
223466,289.571,-800.13,0,0
223727,286.444,-795.421,0,0
223987,283.519,-790.636,0,0
224247,280.767,-785.446,0,0
224508,278.235,-780.836,0,0
224768,276.294,-775.821,0,0
225028,274.244,-770.991,0,0
225289,272.553,-766.081,0,0
225549,271.105,-761.478,0,0
225809,270.11,-756.908,0,0
226070,269.364,-752.616,0,0
226330,268.818,-748.565,0,0
226590,268.643,-744.659,0,0
226851,268.536,-741.192,0,0
227111,268.655,-737.915,0,0
227371,268.814,-735.087,0,0
227632,269.093,-732.655,0,0
227892,269.241,-730.674,0,0
228152,269.124,-728.977,0,0
228413,268.909,-727.561,0,0
228673,268.33,-726.355,0,0
228933,267.676,-725.357,0,0
229193,266.615,-724.357,0,0
229454,265.258,-723.361,0,0
229714,263.789,-722.535,0,0
229974,261.885,-721.345,0,0
230235,260.031,-720.237,0,0
230495,257.896,-718.882,0,0
230755,255.694,-717.394,0,0
231016,253.51,-715.815,0,0
231276,251.162,-714.047,0,0
231536,248.9,-712.09,0,0
231797,246.526,-709.956,0,0
232057,244.323,-707.735,0,0
232317,242.156,-705.319,0,0
232578,240.068,-702.784,0,0
232838,238.002,-700.233,0,0
233098,236.083,-697.543,0,0
233359,234.246,-694.751,0,0
233619,232.476,-691.897,0,0
233879,230.86,-689.011,0,0
234140,229.537,-686.068,0,0
234400,228.119,-683.193,0,0
234660.3,226.864,-680.167,0,0
234920.625,225.708,-677.309,0,0
235180.95,224.851,-674.316,0,0
235441.275,223.809,-671.33,0,0
235701.6,223.046,-668.442,0,0
235961.925,222.342,-665.594,0,0
236222.25,221.641,-662.724,0,0
236482.575,221.106,-659.914,0,0
236742.9,220.596,-657.08,0,0
237003.225,220.161,-654.365,0,0
237263.55,219.813,-651.634,0,0
237523.875,219.461,-648.931,0,0
237784.2,219.281,-646.255,0,0
238044.525,219.084,-643.676,0,0
238304.85,218.982,-641.015,0,0
238565.175,218.867,-638.429,0,0
238825.5,218.895,-635.93,0,0
239085.825,218.88,-633.373,0,0
239346.15,219.035,-630.869,0,0
239606.475,219.26,-628.498,0,0
239866.8,219.567,-626.077,0,0
240127.125,219.691,-623.587,0,0
240387.45,220.016,-621.474,0,0
240647.775,220.289,-619.271,0,0
240908.1,220.68,-616.826,0,0
241168.425,221.102,-614.668,0,0
241428.75,221.551,-612.47,0,0
241689.075,222.02,-610.27,0,0
241949.4,222.644,-608.136,0,0
242209.725,223.29,-605.973,0,0
242470.05,223.881,-603.864,0,0
242730.375,224.642,-601.801,0,0
242990.7,225.345,-599.732,0,0
243251.025,226.2,-597.765,0,0
243511.35,227.04,-595.797,0,0
243771.675,227.985,-593.8,0,0
244032.0,228.992,-591.801,0,0
244292.325,229.952,-590.022,0,0
244552.65,231.099,-588.138,0,0
244812.975,232.169,-586.304,0,0
245073.3,233.484,-584.604,0,0
245333.625,234.826,-582.769,0,0
245593.95,236.071,-580.925,0,0
245854.275,237.445,-579.196,0,0
246114.6,238.99,-577.489,0,0
246374.925,240.572,-575.837,0,0
246635.25,242.379,-574.174,0,0
246895.575,244.342,-572.623,0,0
247155.9,246.411,-571.089,0,0
247416.225,248.591,-569.729,0,0
247676.55,251.01,-568.633,0,0
247936.875,253.396,-567.675,0,0
248197.2,255.962,-566.904,0,0
248457.525,258.485,-566.338,0,0
248717.85,260.935,-566.037,0,0
248978.175,263.46,-565.98,0,0
249238.5,265.908,-566.081,0,0
249498.825,268.248,-566.283,0,0
249759.15,270.43,-566.517,0,0
250019.475,272.556,-566.923,0,0
250279.8,274.482,-567.171,0,0
250540,276.539,-567.49,0,0
250800,278.679,-567.628,0,0
251061,280.946,-567.838,0,0
251321,283.428,-568.109,0,0
251581,286.1,-568.572,0,0
251842,289.045,-569.207,0,0
252102,292.071,-570.212,0,0
252362,295.268,-571.562,0,0
252623,298.562,-573.291,0,0
252883,301.648,-575.448,0,0
253143,304.612,-577.927,0,0
253404,307.555,-580.784,0,0
253664,310.281,-584.115,0,0
253924,312.743,-587.735,0,0
254185,314.873,-591.687,0,0
254445,316.511,-595.813,0,0
254705,317.857,-600.422,0,0
254966,318.812,-605.087,0,0
255226,319.471,-609.808,0,0
255486,319.46,-614.535,0,0
255747,319.176,-619.194,0,0
256007,318.436,-623.993,0,0
256267,317.367,-628.59,0,0
256528,315.857,-633.154,0,0
256788,314.117,-637.487,0,0
257048,311.985,-641.655,0,0
257309,309.656,-645.645,0,0
257569,307.079,-649.454,0,0
257829,304.286,-652.985,0,0
258090,301.322,-656.334,0,0
258350,298.245,-659.457,0,0
258610,294.976,-662.41,0,0
258871,291.589,-665.111,0,0
259131,288.145,-667.613,0,0
259391,284.579,-670.001,0,0
259651,280.955,-672.157,0,0
259912,277.21,-673.903,0,0
260172,273.405,-675.771,0,0
260432,269.639,-677.126,0,0
260693,265.84,-678.513,0,0
260953,261.893,-679.498,0,0
261213,258.054,-680.408,0,0
261474,254.177,-681.078,0,0
261734,250.421,-681.582,0,0
261994,246.659,-681.822,0,0
262255,243.028,-682.018,0,0
262515,239.462,-682.021,0,0
262775,236.003,-681.875,0,0
263036,232.56,-681.686,0,0
263296,229.23,-681.355,0,0
263556,226.059,-680.989,0,0
263817,222.889,-680.552,0,0
264077,219.796,-680.002,0,0
264337,216.667,-679.501,0,0
264598,213.789,-678.756,0,0
264858,210.762,-678.095,0,0
265118,207.913,-677.324,0,0
265379,205.06,-676.466,0,0
265639,202.298,-675.646,0,0
265899,199.625,-674.623,0,0
266160,196.921,-673.626,0,0
266420,194.331,-672.578,0,0
266680.25,191.811,-671.508,0,0
266940.575,189.383,-670.424,0,0
267200.9,186.966,-669.332,0,0
267461.225,184.623,-668.197,0,0
267721.55,182.264,-666.985,0,0
267981.875,180.054,-665.751,0,0
268242.2,177.883,-664.559,0,0
268502.525,175.727,-663.345,0,0
268762.85,173.736,-662.153,0,0
269023.175,171.595,-660.893,0,0
269283.5,169.601,-659.541,0,0
269543.825,167.655,-658.305,0,0
269804.15,165.791,-657.032,0,0
270064.475,163.769,-655.715,0,0
270324.8,161.845,-654.447,0,0
270585.125,159.926,-653.088,0,0
270845.45,158.17,-651.743,0,0
271105.775,156.393,-650.375,0,0
271366.1,154.638,-649.086,0,0
271626.425,152.91,-647.627,0,0
271886.75,151.229,-646.264,0,0
272147.075,149.618,-644.852,0,0
272407.4,147.983,-643.518,0,0
272667.725,146.342,-642.059,0,0
272928.05,144.806,-640.646,0,0
273188.375,143.287,-639.206,0,0
273448.7,141.792,-637.755,0,0
273709.025,140.287,-636.298,0,0
273969.35,138.834,-634.902,0,0
274229.675,137.43,-633.319,0,0
274490.0,136.093,-631.868,0,0
274750.325,134.688,-630.458,0,0
275010.65,133.367,-628.947,0,0
275270.975,132.084,-627.417,0,0
275531.3,130.734,-625.904,0,0
275791.625,129.569,-624.43,0,0
276051.95,128.349,-622.93,0,0
276312.275,127.169,-621.391,0,0
276572.6,126.002,-619.848,0,0
276832.925,124.862,-618.321,0,0
277093.25,123.81,-616.819,0,0
277353.575,122.768,-615.297,0,0
277613.9,121.687,-613.784,0,0
277874.225,120.696,-612.257,0,0
278134.55,119.705,-610.74,0,0
278394.875,118.741,-609.231,0,0
278655.2,117.819,-607.686,0,0
278915.525,116.892,-606.151,0,0
279175.85,116.047,-604.579,0,0
279436.175,115.223,-603.023,0,0
279696.5,114.487,-601.432,0,0
279956.825,113.745,-599.827,0,0
280217.15,112.936,-598.305,0,0
280477.475,112.389,-596.74,0,0
280737.8,111.812,-595.248,0,0
280998.125,111.324,-593.757,0,0
281258.45,110.822,-592.391,0,0
281518.775,110.343,-591.031,0,0
281779.1,109.877,-589.73,0,0
282039.425,109.396,-588.482,0,0
282299.75,108.878,-587.259,0,0
282560,108.38,-586.015,0,0
282820,107.83,-584.794,0,0
283081,107.292,-583.583,0,0
283341,106.741,-582.348,0,0
283601,106.211,-581.113,0,0
283862,105.722,-579.85,0,0
284122,105.22,-578.594,0,0
284382,104.773,-577.324,0,0
284643,104.328,-576.093,0,0
284903,103.964,-574.877,0,0
285163,103.568,-573.702,0,0
285424,103.254,-572.479,0,0
285684,102.922,-571.366,0,0
285944,102.639,-570.185,0,0
286205,102.379,-569.13,0,0
286465,102.107,-568.114,0,0
286725,101.796,-567.135,0,0
286986,101.452,-566.204,0,0
287246,101.066,-565.303,0,0
287506,100.667,-564.379,0,0
287767,100.201,-563.431,0,0
288027,99.7311,-562.455,0,0
288287,99.3247,-561.452,0,0
288548,98.8864,-560.445,0,0
288808,98.4911,-559.432,0,0
289068,98.1031,-558.435,0,0
289329,97.72,-557.423,0,0
289589,97.3964,-556.423,0,0
289849,97.039,-555.464,0,0
290109,96.6881,-554.518,0,0
290370,96.3823,-553.555,0,0
290630,96.0227,-552.623,0,0
290890,95.7005,-551.707,0,0
291151,95.3886,-550.768,0,0
291411,95.0986,-549.88,0,0
291671,94.7794,-549.013,0,0
291932,94.499,-548.134,0,0
292192,94.2044,-547.279,0,0
292452,93.8976,-546.505,0,0
292713,93.5871,-545.655,0,0
292973,93.2646,-544.869,0,0
293233,92.919,-544.153,0,0
293494,92.5923,-543.413,0,0
293754,92.2539,-542.696,0,0
294014,91.8291,-541.997,0,0
294275,91.3784,-541.272,0,0
294535,90.9236,-540.565,0,0
294795,90.4341,-539.804,0,0
295056,89.865,-539.069,0,0
295316,89.2973,-538.329,0,0
295576,88.7403,-537.579,0,0
295837,88.1384,-536.735,0,0
296097,87.5218,-535.873,0,0
296357,86.9064,-534.964,0,0
296618,86.2898,-534.041,0,0
296878,85.6946,-533.038,0,0
297138,85.0902,-532.02,0,0
297399,84.5261,-530.916,0,0
297659,84.0028,-529.768,0,0
297919,83.5321,-528.6,0,0
298180,83.1323,-527.409,0,0
298440,82.7961,-526.194,0,0
298700.2,82.5436,-525,0,0
298960.525,82.3541,-523.817,0,0
299220.85,82.231,-522.614,0,0
299481.175,82.0951,-521.661,0,0
299741.5,82.0781,-520.641,0,0
300001.825,82.0596,-519.663,0,0
300262.15,81.983,-518.717,0,0
300522.475,81.844,-517.87,0,0
300782.8,81.819,-516.979,0,0
301043.125,81.7243,-516.165,0,0
301303.45,81.5802,-515.336,0,0
301563.775,81.4674,-514.535,0,0
301824.1,81.3482,-513.798,0,0
302084.425,81.1918,-513.005,0,0
302344.75,81.0597,-512.267,0,0
302605.075,80.871,-511.511,0,0
302865.4,80.6907,-510.814,0,0
303125.725,80.4754,-509.993,0,0
303386.05,80.2872,-509.256,0,0
303646.375,80.1257,-508.423,0,0
303906.7,79.8838,-507.725,0,0
304167.025,79.6652,-506.942,0,0
304427.35,79.5329,-506.097,0,0
304687.675,79.3388,-505.325,0,0
304948.0,79.1699,-504.451,0,0
305208.325,79.0428,-503.635,0,0
305468.65,78.9889,-502.768,0,0
305728.975,78.9072,-502.011,0,0
305989.3,78.9458,-501.208,0,0
306249.625,78.9057,-500.469,0,0
306509.95,78.9382,-499.822,0,0
306770.275,78.9695,-499.195,0,0
307030.6,78.9767,-498.628,0,0
307290.925,78.9054,-498.088,0,0
307551.25,78.8927,-497.676,0,0
307811.575,78.7102,-497.073,0,0
308071.9,78.5492,-496.674,0,0
308332.225,78.3678,-496.135,0,0
308592.55,78.1621,-495.622,0,0
308852.875,77.9431,-495.081,0,0
309113.2,77.6699,-494.62,0,0
309373.525,77.4078,-494.034,0,0
309633.85,77.1688,-493.48,0,0
309894.175,76.9507,-492.991,0,0
310154.5,76.699,-492.419,0,0
310414.825,76.458,-491.864,0,0
310675.15,76.1981,-491.298,0,0
310935.475,75.9154,-490.783,0,0
311195.8,75.6274,-490.246,0,0
311456.125,75.2854,-489.668,0,0
311716.45,75.0501,-489.06,0,0
311976.775,74.6783,-488.549,0,0
312237.1,74.3801,-487.96,0,0
312497.425,74.0602,-487.434,0,0
312757.75,73.7184,-486.801,0,0
313018.075,73.3502,-486.227,0,0
313278.4,73.0631,-485.639,0,0
313538.725,72.7582,-485.017,0,0
313799.05,72.3831,-484.34,0,0
314059.375,72.0617,-483.732,0,0
314319.7,71.7373,-483.065,0,0
314580,71.4515,-482.424,0,0
314840,71.0583,-481.767,0,0
315101,70.7384,-481.096,0,0
315361,70.4784,-480.452,0,0
315621,70.2086,-479.777,0,0
315882,69.8948,-479.124,0,0
316142,69.6125,-478.551,0,0
316402,69.3967,-477.824,0,0
316663,69.1045,-477.198,0,0
316923,68.8397,-476.56,0,0
317183,68.5195,-475.878,0,0
317444,68.2345,-475.282,0,0
317704,67.9939,-474.64,0,0
317964,67.6974,-474.034,0,0
318225,67.3665,-473.347,0,0
318485,67.0279,-472.721,0,0
318745,66.823,-472.064,0,0
319006,66.5498,-471.375,0,0
319266,66.2345,-470.743,0,0
319526,65.947,-470.089,0,0
319787,65.5758,-469.424,0,0
320047,65.303,-468.781,0,0
320307,64.9901,-468.139,0,0
320567,64.7227,-467.357,0,0
320828,64.4143,-466.709,0,0
321088,64.1459,-466.031,0,0
321348,63.8437,-465.274,0,0
321609,63.6345,-464.527,0,0
321869,63.3607,-463.816,0,0
322129,63.1069,-463.134,0,0
322390,62.8864,-462.421,0,0
322650,62.6713,-461.713,0,0
322910,62.4781,-460.957,0,0
323171,62.2633,-460.297,0,0
323431,62.0938,-459.647,0,0
323691,61.9223,-458.917,0,0
323952,61.6531,-458.226,0,0
324212,61.4611,-457.568,0,0
324472,61.3095,-456.913,0,0
324733,61.1088,-456.275,0,0
324993,60.857,-455.624,0,0
325253,60.6985,-454.92,0,0
325514,60.4602,-454.297,0,0
325774,60.22,-453.611,0,0
326034,59.9967,-453.013,0,0
326295,59.8191,-452.306,0,0
326555,59.568,-451.646,0,0
326815,59.3954,-450.97,0,0
327076,59.1767,-450.27,0,0
327336,58.973,-449.594,0,0
327596,58.7819,-448.893,0,0
327857,58.571,-448.248,0,0
328117,58.3809,-447.564,0,0
328377,58.2264,-446.856,0,0
328638,58.0428,-446.172,0,0
328898,57.844,-445.491,0,0
329158,57.6873,-444.882,0,0
329419,57.4631,-444.088,0,0
329679,57.3033,-443.483,0,0
329939,57.1792,-442.743,0,0
330200,56.9696,-442.128,0,0
330460,56.8479,-441.43,0,0
330720.15,56.6308,-440.738,0,0
330980.475,56.4816,-440.097,0,0
331240.8,56.3236,-439.406,0,0
331501.125,56.1834,-438.783,0,0
331761.45,56.015,-438.059,0,0
332021.775,55.8524,-437.398,0,0
332282.1,55.7261,-436.674,0,0
332542.425,55.6154,-436.039,0,0
332802.75,55.4505,-435.334,0,0
333063.075,55.2911,-434.589,0,0
333323.4,55.1674,-433.961,0,0
333583.725,55.0669,-433.232,0,0
333844.05,54.966,-432.58,0,0
334104.375,54.8361,-431.909,0,0
334364.7,54.7389,-431.19,0,0
334625.025,54.6621,-430.531,0,0
334885.35,54.5404,-429.858,0,0
335145.675,54.4589,-429.161,0,0
335406.0,54.4318,-428.502,0,0
335666.325,54.353,-427.889,0,0
335926.65,54.2573,-427.217,0,0
336186.975,54.2079,-426.544,0,0
336447.3,54.1425,-425.925,0,0
336707.625,54.0769,-425.376,0,0
336967.95,54.007,-424.672,0,0
337228.275,53.9535,-424.062,0,0
337488.6,53.9133,-423.418,0,0
337748.925,53.8314,-422.838,0,0
338009.25,53.7247,-422.207,0,0
338269.575,53.6974,-421.582,0,0
338529.9,53.5624,-420.958,0,0
338790.225,53.5203,-420.384,0,0
339050.55,53.4688,-419.701,0,0
339310.875,53.3826,-419.106,0,0
339571.2,53.3393,-418.476,0,0
339831.525,53.2308,-417.848,0,0
340091.85,53.1701,-417.275,0,0
340352.175,53.1206,-416.567,0,0
340612.5,53.0643,-415.988,0,0
340872.825,53.0482,-415.368,0,0
341133.15,53.0187,-414.731,0,0
341393.475,52.9683,-414.124,0,0
341653.8,52.9825,-413.47,0,0
341914.125,52.9419,-412.863,0,0
342174.45,52.9694,-412.327,0,0
342434.775,52.988,-411.642,0,0
342695.1,53.0162,-411.085,0,0
342955.425,53.1112,-410.491,0,0
343215.75,53.1633,-409.957,0,0
343476.075,53.2185,-409.43,0,0
343736.4,53.2447,-408.984,0,0
343996.725,53.2784,-408.574,0,0
344257.05,53.2737,-408.11,0,0
344517.375,53.2217,-407.746,0,0
344777.7,53.164,-407.305,0,0
345038.025,52.9574,-406.907,0,0
345298.35,52.8502,-406.448,0,0
345558.675,52.6957,-405.971,0,0
345819.0,52.5654,-405.407,0,0
346079.325,52.3949,-404.903,0,0
346339.65,52.2618,-404.358,0,0
346599.975,52.1368,-403.799,0,0
346860,51.9797,-403.238,0,0
347121,51.8489,-402.643,0,0
347381,51.7732,-402.056,0,0
347641,51.6458,-401.471,0,0
347902,51.5508,-400.829,0,0
348162,51.4621,-400.254,0,0
348422,51.396,-399.684,0,0
348683,51.3391,-399.077,0,0
348943,51.2455,-398.495,0,0
349203,51.2298,-397.901,0,0
349464,51.1977,-397.321,0,0
349724,51.1349,-396.768,0,0
349984,51.0934,-396.174,0,0
350245,51.0648,-395.591,0,0
350505,51.0047,-395.055,0,0
350765,51.0336,-394.424,0,0
351025,51.0291,-393.858,0,0
351286,50.9979,-393.309,0,0
351546,50.9409,-392.746,0,0
351806,50.947,-392.175,0,0
352067,50.9354,-391.633,0,0
352327,50.9493,-391.068,0,0
352587,50.9952,-390.528,0,0
352848,50.9767,-389.963,0,0
353108,50.9706,-389.45,0,0
353368,51.0132,-388.922,0,0
353629,51.0319,-388.424,0,0
353889,51.0516,-387.957,0,0
354149,50.9779,-387.425,0,0
354410,51.0237,-386.918,0,0
354670,50.9985,-386.465,0,0
354930,51.0301,-385.987,0,0
355191,50.9654,-385.456,0,0
355451,50.9435,-384.971,0,0
355711,50.9072,-384.522,0,0
355972,50.9092,-384.01,0,0
356232,50.8462,-383.479,0,0
356492,50.7987,-382.972,0,0
356753,50.7404,-382.46,0,0
357013,50.7412,-381.921,0,0
357273,50.762,-381.381,0,0
357534,50.7652,-380.842,0,0
357794,50.7865,-380.312,0,0
358054,50.7806,-379.859,0,0
358315,50.8298,-379.346,0,0
358575,50.8659,-378.842,0,0
358835,50.9064,-378.353,0,0
359096,50.9113,-377.904,0,0
359356,50.9901,-377.472,0,0
359616,50.9755,-376.993,0,0
359877,50.9922,-376.566,0,0
360137,51.0055,-376.147,0,0
360397,50.9886,-375.703,0,0
360658,51.0204,-375.275,0,0
360918,51.0141,-374.895,0,0
361178,50.9836,-374.439,0,0
361438,50.974,-374.018,0,0
361699,50.9357,-373.654,0,0
361959,50.8396,-373.166,0,0
362219,50.8381,-372.778,0,0
362480,50.747,-372.335,0,0
362740.1,50.6901,-371.937,0,0
363000.425,50.6427,-371.47,0,0
363260.75,50.519,-370.992,0,0
363521.075,50.4568,-370.541,0,0
363781.4,50.4042,-370.109,0,0
364041.725,50.3248,-369.614,0,0
364302.05,50.2749,-369.152,0,0
364562.375,50.1894,-368.689,0,0
364822.7,50.1292,-368.168,0,0
365083.025,50.0486,-367.675,0,0
365343.35,50.0248,-367.212,0,0
365603.675,49.964,-366.69,0,0
365864.0,49.8958,-366.187,0,0
366124.325,49.9043,-365.725,0,0
366384.65,49.8681,-365.278,0,0
366644.975,49.7981,-364.775,0,0
366905.3,49.8166,-364.269,0,0
367165.625,49.8096,-363.796,0,0
367425.95,49.7637,-363.306,0,0
367686.275,49.7352,-362.798,0,0
367946.6,49.7169,-362.353,0,0
368206.925,49.6778,-361.845,0,0
368467.25,49.6485,-361.357,0,0
368727.575,49.676,-360.907,0,0
368987.9,49.6368,-360.391,0,0
369248.225,49.6215,-359.936,0,0
369508.55,49.5767,-359.412,0,0
369768.875,49.593,-358.93,0,0
370029.2,49.588,-358.489,0,0
370289.525,49.6014,-357.984,0,0
370549.85,49.6224,-357.464,0,0
370810.175,49.64,-356.999,0,0
371070.5,49.6541,-356.492,0,0
371330.825,49.6843,-356.048,0,0
371591.15,49.7025,-355.582,0,0
371851.475,49.7961,-355.085,0,0
372111.8,49.8161,-354.649,0,0
372372.125,49.9095,-354.186,0,0
372632.45,49.9348,-353.749,0,0
372892.775,50.0447,-353.337,0,0
373153.1,50.1266,-352.981,0,0
373413.425,50.1657,-352.559,0,0
373673.75,50.2443,-352.202,0,0
373934.075,50.3167,-351.906,0,0
374194.4,50.321,-351.62,0,0
374454.725,50.3471,-351.312,0,0
374715.05,50.2929,-350.959,0,0
374975.375,50.2052,-350.685,0,0
375235.7,50.1114,-350.384,0,0
375496.025,50.0242,-350.034,0,0
375756.35,49.9016,-349.654,0,0
376016.675,49.8193,-349.324,0,0
376277.0,49.6562,-348.937,0,0
376537.325,49.5568,-348.537,0,0
376797.65,49.4131,-348.109,0,0
377057.975,49.337,-347.7,0,0
377318.3,49.2024,-347.281,0,0
377578.625,49.0643,-346.87,0,0
377838.95,48.989,-346.4,0,0
378099.275,48.8698,-345.991,0,0
378359.6,48.7484,-345.538,0,0
378619.925,48.6564,-345.107,0,0
378880,48.5473,-344.618,0,0
379141,48.4267,-344.198,0,0
379401,48.2879,-343.75,0,0
379661,48.1517,-343.229,0,0
379922,48.0252,-342.787,0,0
380182,47.889,-342.281,0,0
380442,47.7541,-341.784,0,0
380703,47.6705,-341.231,0,0
380963,47.5587,-340.714,0,0
381223,47.4578,-340.154,0,0
381483,47.3713,-339.601,0,0
381744,47.2903,-339.03,0,0
382004,47.2558,-338.407,0,0
382264,47.2421,-337.842,0,0
382525,47.2667,-337.296,0,0
382785,47.2996,-336.694,0,0
383045,47.3654,-336.149,0,0
383306,47.4163,-335.652,0,0
383566,47.568,-335.208,0,0
383826,47.6594,-334.774,0,0
384087,47.6431,-334.367,0,0
384347,47.6582,-334.024,0,0
384607,47.6554,-333.621,0,0
384868,47.6155,-333.196,0,0
385128,47.5278,-332.787,0,0
385388,47.462,-332.349,0,0
385649,47.3436,-331.882,0,0
385909,47.2774,-331.425,0,0
386169,47.2041,-330.948,0,0
386430,47.1428,-330.509,0,0
386690,47.0501,-330.01,0,0
386950,47.0055,-329.527,0,0
387211,46.9475,-329.039,0,0
387471,46.8681,-328.539,0,0
387731,46.8107,-328.043,0,0
387992,46.7331,-327.534,0,0
388252,46.6895,-327.032,0,0
388512,46.6139,-326.504,0,0
388773,46.5896,-325.966,0,0
389033,46.5507,-325.446,0,0
389293,46.5297,-324.938,0,0
389554,46.5065,-324.395,0,0
389814,46.4239,-323.867,0,0
390074,46.4225,-323.336,0,0
390335,46.4016,-322.824,0,0
390595,46.3747,-322.298,0,0
390855,46.3664,-321.755,0,0
391116,46.3623,-321.211,0,0
391376,46.3515,-320.698,0,0
391636,46.3539,-320.181,0,0
391896,46.3514,-319.647,0,0
392157,46.3664,-319.12,0,0
392417,46.3473,-318.616,0,0
392677,46.3851,-318.051,0,0
392938,46.3427,-317.538,0,0
393198,46.332,-316.989,0,0
393458,46.3497,-316.474,0,0
393719,46.3694,-315.96,0,0
393979,46.3761,-315.38,0,0
394239,46.3772,-314.849,0,0
394500,46.3842,-314.335,0,0
394760.05,46.4337,-313.798,0,0
395020.375,46.4108,-313.261,0,0
395280.7,46.4547,-312.722,0,0
395541.025,46.4592,-312.184,0,0
395801.35,46.4967,-311.667,0,0
396061.675,46.5194,-311.115,0,0
396322.0,46.5445,-310.587,0,0
396582.325,46.5737,-310.031,0,0
396842.65,46.6087,-309.483,0,0
397102.975,46.6454,-308.964,0,0
397363.3,46.6794,-308.425,0,0
397623.625,46.7229,-307.867,0,0
397883.95,46.7683,-307.325,0,0
398144.275,46.8159,-306.807,0,0
398404.6,46.8375,-306.248,0,0
398664.925,46.9038,-305.692,0,0
398925.25,46.9302,-305.163,0,0
399185.575,47.0256,-304.62,0,0
399445.9,47.0553,-304.092,0,0
399706.225,47.1082,-303.542,0,0
399966.55,47.1693,-303.007,0,0
400006.6,47.1748,-302.935,0,0