File: Accelerated corrosion test data/2025-10-15_11-00-19/sample_4.csv
Frequency (Hz),Impedance (ohms),Phase (Radians),Temperature (C),Humidity (%)
10000.0,262.844,-11896.9,0,0
10260.325,259.396,-11597.9,0,0
10520.65,250.414,-11313.3,0,0
10780.975,244.345,-11041.5,0,0
11041.3,239.966,-10782.7,0,0
11301.625,233.781,-10539.1,0,0
11561.95,228.306,-10303.1,0,0
11822.275,223.89,-10077,0,0
12082.6,219.418,-9862.06,0,0
12342.925,214.788,-9654.79,0,0
12603.25,213.118,-9454.9,0,0
12863.575,207.96,-9267.66,0,0
13123.9,206.621,-9088.49,0,0
13384.225,199.055,-8909.89,0,0
13644.55,195.508,-8738.99,0,0
13904.875,191.988,-8573.37,0,0
14165.2,193.505,-8409.51,0,0
14425.525,198.579,-8262.92,0,0
14685.8,198.495,-8148.61,0,0
14946.175,182.312,-7992.35,0,0
15206.5,180.835,-7846.49,0,0
15466.825,187.611,-7703.43,0,0
15727.15,189.45,-7605.45,0,0
15987.5,185.251,-7488.55,0,0
16247.8,170.524,-7357.92,0,0
16508.125,188.963,-7230.29,0,0
16768.45,178.44,-7130.26,0,0
17028.775,170.329,-7041.88,0,0
17289.1,160,-6927.82,0,0
17549.425,158.142,-6823.71,0,0
17809.75,155.834,-6723.08,0,0
18070.075,152.072,-6623.43,0,0
18330.4,153.161,-6527.17,0,0
18590.725,152.318,-6438.33,0,0
18851.05,149.213,-6354.45,0,0
19111.375,145.03,-6264.92,0,0
19371.7,142.533,-6179.34,0,0
19632.025,141.414,-6095.13,0,0
19892.35,143.781,-6014.39,0,0
20152.675,143.083,-5937.47,0,0
20413.0,140.357,-5863.48,0,0
20673.3,140.708,-5788.93,0,0
20933.65,136.87,-5715.09,0,0
21193.975,140.024,-5640.1,0,0
21454.3,151.915,-5574.47,0,0
21714.625,145.739,-5517.8,0,0
21974.9,148.755,-5446.7,0,0
22235.275,148.346,-5401.23,0,0
22495.6,135.108,-5344.66,0,0
22755.925,128.092,-5279.26,0,0
23016.25,125.138,-5217.35,0,0
23276.6,122.361,-5157.56,0,0
23536.9,120.612,-5099.49,0,0
23797.225,118.626,-5042.68,0,0
24057.55,117.314,-4986.87,0,0
24317.875,115.748,-4931.96,0,0
24578.2,114.485,-4878.96,0,0
24838.525,113.458,-4827.09,0,0
25098.85,114.583,-4775.45,0,0
25359.175,112.46,-4728.4,0,0
25619.5,111.745,-4678.68,0,0
25879.8,110.123,-4634.6,0,0
26140.1,108.208,-4585.35,0,0
26400.5,106.86,-4538.51,0,0
26660.8,106.121,-4492.74,0,0
26921.1,106.041,-4448.45,0,0
27181.4,105.249,-4403.61,0,0
27441.8,105.618,-4359.05,0,0
27702.1,109.294,-4314.24,0,0
27962.4,115.477,-4273.23,0,0
28222.7,120.744,-4245.65,0,0
28483.1,113.533,-4210.26,0,0
28743.4,109.455,-4169.85,0,0
29003.7,112.817,-4128.2,0,0
29264,116.779,-4096.51,0,0
29524.4,112.966,-4065.28,0,0
29784.7,108.278,-4034.16,0,0
30045,107.261,-3997.58,0,0
30305.3,101.499,-3963.84,0,0
30565.7,99.6605,-3927.97,0,0
30826,98.5323,-3893.21,0,0
31086.3,97.8398,-3859.48,0,0
31346.6,98.721,-3825.88,0,0
31607,97.4126,-3794.88,0,0
31867.3,97.2465,-3762.86,0,0
32127.6,100.133,-3732.44,0,0
32387.9,98.4618,-3706.84,0,0
32648.3,96.7617,-3676.75,0,0
32908.6,94.5663,-3649.53,0,0
33168.9,92.0025,-3620.16,0,0
33429.2,89.3997,-3591.62,0,0
33689.6,88.1808,-3562.53,0,0
33949.9,87.3944,-3533.93,0,0
34210.2,87.5117,-3506.04,0,0
34470.5,85.9208,-3480.04,0,0
34730.9,84.7478,-3452.58,0,0
34991.2,84.2859,-3426.25,0,0
35251.5,84.0444,-3400.48,0,0
35511.8,83.2166,-3374.93,0,0
35772.2,82.2808,-3350.34,0,0
36032.5,81.5391,-3325.14,0,0
36292.8,80.8905,-3300.25,0,0
36553.1,80.4044,-3275.82,0,0
36813.5,80.2621,-3251.87,0,0
37073.8,80.5402,-3228.65,0,0
37334.1,79.6104,-3206.44,0,0
37594.4,78.9868,-3183.04,0,0
37854.8,78.8485,-3160.56,0,0
38115.1,77.9285,-3138.6,0,0
38375.4,77.1813,-3116.25,0,0
38635.7,76.975,-3094.16,0,0
38896.1,77.423,-3072.41,0,0
39156.4,77.0669,-3051.72,0,0
39416.7,76.2697,-3030.65,0,0
39677,76.2429,-3009.21,0,0
39937.4,77.0182,-2988.12,0,0
40197.7,78.4865,-2967.78,0,0
40458,79.9141,-2949.22,0,0
40718.3,78.8982,-2931.76,0,0
40978.7,78.5751,-2911.44,0,0
41239,80.1151,-2893.21,0,0
41499.3,82.007,-2876.75,0,0
41759.6,78.8045,-2860.66,0,0
42020,77.4559,-2841.97,0,0
42280.275,76.4892,-2823.15,0,0
42540.6,78.5447,-2804.88,0,0
42800.925,78.0958,-2790.56,0,0
43061.25,75.2904,-2772.84,0,0
43321.575,75.9164,-2755.71,0,0
43581.9,74.4917,-2739.29,0,0
43842.225,73.5421,-2721.67,0,0
44102.55,73.7411,-2706.01,0,0
44362.875,72.2659,-2688.78,0,0
44623.2,72.3034,-2672.02,0,0
44883.525,71.9145,-2656.57,0,0
45143.85,71.0487,-2640.68,0,0
45404.175,70.4038,-2624.1,0,0
45664.5,71.2462,-2607.57,0,0
45924.825,72.6037,-2593.08,0,0
46185.15,71.3768,-2579.68,0,0
46445.475,70.0725,-2563.37,0,0
46705.8,71.2107,-2548.08,0,0
46966.125,71.4831,-2534.17,0,0
47226.45,71.4284,-2519.9,0,0
47486.775,71.442,-2507.13,0,0
47747.1,70.0624,-2493.35,0,0
48007.425,69.3288,-2479.11,0,0
48267.75,68.3685,-2465.54,0,0
48528.075,67.7377,-2451.73,0,0
48788.4,66.7872,-2437.95,0,0
49048.725,66.0166,-2423.96,0,0
49309.05,66.0476,-2409.84,0,0
49569.375,65.4076,-2396.86,0,0
49829.7,64.6825,-2382.99,0,0
50090.025,64.667,-2369.88,0,0
50350.35,64.3521,-2356.45,0,0
50610.675,64.3022,-2343.37,0,0
50871.0,63.8873,-2330.41,0,0
51131.325,63.887,-2317.43,0,0
51391.65,63.4624,-2304.55,0,0
51651.975,63.801,-2291.67,0,0
51912.3,63.5802,-2279.12,0,0
52172.625,64.0353,-2266.25,0,0
52432.95,64.2625,-2254.13,0,0
52693.275,64.4189,-2241.4,0,0
52953.6,65.3089,-2228.6,0,0
53213.925,66.274,-2216.91,0,0
53474.25,67.555,-2204.75,0,0
53734.575,68.9299,-2193.08,0,0
53994.9,71.3318,-2181.56,0,0
54255.225,73.6507,-2172.02,0,0
54515.55,75.7632,-2163.6,0,0
54775.875,75.7199,-2155.93,0,0
55036.2,74.168,-2147.47,0,0
55296.525,73.3477,-2137.66,0,0
55556.85,71.8116,-2129.02,0,0
55817.175,69.795,-2118.5,0,0
56077.5,68.2621,-2108.27,0,0
56337.825,67.0212,-2097.42,0,0
56598.15,65.8679,-2086.15,0,0
56858.475,65.4458,-2074.9,0,0
57118.8,65.7374,-2063.84,0,0
57379.125,66.0297,-2053.31,0,0
57639.45,66.1259,-2043.22,0,0
57899.775,66.3312,-2033.05,0,0
58160.1,66.2955,-2022.51,0,0
58420.4,67.4011,-2012.05,0,0
58680.7,68.1011,-2003.4,0,0
58941.1,67.4649,-1992.94,0,0
59201.4,68.5927,-1982.29,0,0
59461.7,70.3664,-1972.11,0,0
59722,72.9804,-1963.09,0,0
59982.4,75.3302,-1955.29,0,0
60242.7,76.5187,-1948.36,0,0
60503,77.3038,-1940.72,0,0
60763.3,79.7112,-1933.35,0,0
61023.7,80.5074,-1929.76,0,0
61284,78.3857,-1924.69,0,0
61544.3,74.6125,-1918.92,0,0
61804.6,71.1988,-1909.31,0,0
62065,69.9241,-1900.43,0,0
62325.3,68.7047,-1892.36,0,0
62585.6,66.0061,-1883.68,0,0
62845.9,64.9771,-1873.16,0,0
63106.3,64.576,-1864.38,0,0
63366.6,64.1298,-1855.08,0,0
63626.9,64.1593,-1845.95,0,0
63887.2,64.4971,-1838.14,0,0
64147.6,63.1589,-1829.15,0,0
64407.9,63.6414,-1819.79,0,0
64668.2,64.2846,-1811.5,0,0
64928.5,64.8037,-1803.59,0,0
65188.9,64.9839,-1795.7,0,0
65449.2,65.1337,-1787.64,0,0
65709.5,64.8238,-1779.19,0,0
65969.8,66.2168,-1770.69,0,0
66230.2,67.263,-1763.56,0,0
66490.5,67.8867,-1756.19,0,0
66750.8,68.4747,-1749.19,0,0
67011.1,68.8905,-1741.93,0,0
67271.5,70.2207,-1734.57,0,0
67531.8,71.3007,-1728.13,0,0
67792.1,72.2016,-1721.99,0,0
68052.4,73.0702,-1716.18,0,0
68312.8,73.4743,-1710.59,0,0
68573.1,73.8305,-1705.45,0,0
68833.4,73.2194,-1700.93,0,0
69093.7,71.4684,-1695.85,0,0
69354.1,69.5106,-1689.93,0,0
69614.4,67.4208,-1683,0,0
69874.7,66.3361,-1675.56,0,0
70135,65.405,-1668.77,0,0
70395.4,64.1641,-1661.55,0,0
70655.7,63.9773,-1653.47,0,0
70916,65.0398,-1646.97,0,0
71176.3,64.8041,-1641.38,0,0
71436.7,64.167,-1635.18,0,0
71697,63.7162,-1629.5,0,0
71957.3,62.1235,-1623.79,0,0
72217.6,60.3869,-1616.89,0,0
72478,59.2485,-1609.78,0,0
72738.3,58.3205,-1602.52,0,0
72998.6,57.5349,-1595.26,0,0
73258.9,57.0457,-1587.58,0,0
73519.3,57.461,-1580.23,0,0
73779.6,57.5866,-1573.36,0,0
74039.9,58.1092,-1566.47,0,0
74300.225,58.216,-1560.08,0,0
74560.55,58.4376,-1553.29,0,0
74820.875,58.9772,-1546.75,0,0
75081.2,59.7255,-1540.35,0,0
75341.525,60.4073,-1534.47,0,0
75601.85,60.8425,-1528.65,0,0
75862.175,61.1443,-1522.79,0,0
76122.5,61.5837,-1516.84,0,0
76382.825,62.132,-1511.4,0,0
76643.15,62.2241,-1505.96,0,0
76903.475,62.065,-1499.99,0,0
77163.8,62.8537,-1493.61,0,0
77424.125,64.1594,-1488.42,0,0
77684.45,65.0048,-1483.6,0,0
77944.775,65.5675,-1479.29,0,0
78205.1,65.4595,-1474.9,0,0
78465.425,65.245,-1470.39,0,0
78725.75,64.7269,-1465.93,0,0
78986.075,63.8705,-1461.12,0,0
79246.4,62.993,-1456.13,0,0
79506.725,62.253,-1450.72,0,0
79767.05,61.6446,-1445.24,0,0
80027.375,61.2218,-1439.79,0,0
80287.7,60.874,-1434.33,0,0
80548.025,60.6778,-1428.88,0,0
80808.35,60.6032,-1423.5,0,0
81068.675,60.5564,-1418.28,0,0
81329.0,60.5296,-1413.26,0,0
81589.325,60.3646,-1408.3,0,0
81849.65,60.1255,-1403.26,0,0
82109.975,59.8754,-1398.32,0,0
82370.3,59.5598,-1393.25,0,0
82630.625,59.3279,-1388.21,0,0
82890.95,59.1255,-1383.21,0,0
83151.275,58.8866,-1378.33,0,0
83411.6,58.5514,-1373.37,0,0
83671.925,58.2807,-1368.3,0,0
83932.25,58.0682,-1363.33,0,0
84192.575,57.874,-1358.37,0,0
84452.9,57.6538,-1353.53,0,0
84713.225,57.4572,-1348.55,0,0
84973.55,57.3004,-1343.71,0,0
85233.875,57.2138,-1338.83,0,0
85494.2,56.9889,-1334.08,0,0
85754.525,56.8131,-1329.35,0,0
86014.85,56.5957,-1324.44,0,0
86275.175,56.4664,-1319.65,0,0
86535.5,56.4241,-1314.98,0,0
86795.825,56.208,-1310.45,0,0
87056.15,56.034,-1305.81,0,0
87316.475,55.8377,-1301.12,0,0
87576.8,55.7028,-1296.63,0,0
87837.125,55.3432,-1292.25,0,0
88097.45,54.8273,-1287.68,0,0
88357.775,54.2205,-1282.87,0,0
88618.1,53.8711,-1277.87,0,0
88878.425,53.7005,-1272.92,0,0
89138.75,53.6133,-1268.32,0,0
89399.075,53.3998,-1263.36,0,0
89659.4,53.5086,-1258.59,0,0
89919.725,53.5126,-1254.02,0,0
90180,53.4044,-1249.38,0,0
90440.4,53.4013,-1244.76,0,0
90700.7,53.3718,-1240.19,0,0
90961,53.2202,-1235.68,0,0
91221.3,53.1835,-1230.91,0,0
91481.7,53.2623,-1226.3,0,0
91742,53.3648,-1221.64,0,0
92002.3,53.6086,-1217.09,0,0
92262.6,53.9241,-1212.56,0,0
92523,54.3199,-1208.28,0,0
92783.3,54.5939,-1204.11,0,0
93043.6,54.9351,-1200.12,0,0
93303.9,54.9214,-1196.16,0,0
93564.3,54.9309,-1192.3,0,0
93824.6,54.748,-1188.33,0,0
94084.9,54.4699,-1184.39,0,0
94345.2,54.0215,-1180.32,0,0
94605.6,53.5417,-1175.97,0,0
94865.9,53.1808,-1171.45,0,0
95126.2,53.0451,-1166.93,0,0
95386.5,52.9279,-1162.47,0,0
95646.9,52.8447,-1157.9,0,0
95907.2,52.9091,-1153.43,0,0
96167.5,53.0088,-1148.94,0,0
96427.8,53.2361,-1144.56,0,0
96688.2,53.424,-1140.31,0,0
96948.5,53.5401,-1136.05,0,0
97208.8,53.6944,-1131.69,0,0
97469.1,53.8491,-1127.43,0,0
97729.5,54.0028,-1123.15,0,0
97989.8,54.2225,-1118.72,0,0
98250.1,54.6254,-1114.37,0,0
98510.4,54.9519,-1110.2,0,0
98770.8,55.2867,-1105.91,0,0
99031.1,55.7788,-1101.6,0,0
99291.4,56.3717,-1097.37,0,0
99551.7,57.0024,-1093.36,0,0
99812.1,57.4556,-1089.38,0,0
100072,57.9879,-1085.2,0,0
100333,58.8667,-1081.02,0,0
100593,60.0622,-1077.17,0,0
100853,61.1356,-1073.97,0,0
101114,61.6438,-1070.81,0,0
101374,62.2587,-1067.51,0,0
101634,62.9131,-1064.74,0,0
101895,62.8979,-1062.32,0,0
102155,62.1138,-1059.54,0,0
102415,60.9444,-1056.23,0,0
102676,59.8918,-1052.26,0,0
102936,59.0581,-1047.95,0,0
103196,58.455,-1043.37,0,0
103457,58.0719,-1038.53,0,0
103717,58.0561,-1033.54,0,0
103977,58.4709,-1028.64,0,0
104238,59.0049,-1023.96,0,0
104498,59.6529,-1019.16,0,0
104758,60.6173,-1014.47,0,0
105019,61.7315,-1009.91,0,0
105279,62.923,-1005.66,0,0
105539,64.1458,-1001.43,0,0
105800,65.4354,-997.275,0,0
106060,66.8058,-993.285,0,0
106320.175,68.2423,-989.353,0,0
106580.5,69.6579,-985.582,0,0
106840.825,71.1274,-982.003,0,0
107101.15,72.4962,-978.469,0,0
107361.475,73.7639,-974.937,0,0
107621.8,75.0237,-971.399,0,0
107882.125,76.5024,-967.757,0,0
108142.45,78.1087,-964.216,0,0
108402.775,79.8149,-960.819,0,0
108663.1,81.6022,-957.617,0,0
108923.425,83.3909,-954.571,0,0
109183.75,85.2565,-951.649,0,0
109444.075,87.0873,-949.091,0,0
109704.4,88.7512,-946.685,0,0
109964.725,90.1947,-944.274,0,0
110225.05,91.7489,-941.88,0,0
110485.375,93.1448,-939.655,0,0
110745.7,94.3992,-937.435,0,0
111006.025,95.6471,-935.305,0,0
111266.35,96.8037,-933.187,0,0
111526.675,97.8782,-931.135,0,0
111787.0,98.896,-928.964,0,0
112047.325,100.046,-926.916,0,0
112307.65,101.139,-924.935,0,0
112567.975,102.096,-923.046,0,0
112828.3,102.971,-921.169,0,0
113088.625,103.892,-919.359,0,0
113348.95,104.645,-917.651,0,0
113609.275,105.312,-915.897,0,0
113869.6,105.915,-914.133,0,0
114129.925,106.414,-912.417,0,0
114390.25,106.879,-910.638,0,0
114650.575,107.424,-908.972,0,0
114910.9,107.856,-907.271,0,0
115171.225,108.204,-905.731,0,0
115431.55,108.421,-904.144,0,0
115691.875,108.505,-902.555,0,0
115952.2,108.505,-900.83,0,0
116212.525,108.457,-899.21,0,0
116472.85,108.373,-897.477,0,0
116733.175,108.095,-895.703,0,0
116993.5,107.768,-893.871,0,0
117253.825,107.408,-891.885,0,0
117514.15,106.965,-889.808,0,0
117774.475,106.519,-887.551,0,0
118034.8,106.146,-885.069,0,0
118295.125,105.958,-882.447,0,0
118555.45,105.952,-879.852,0,0
118815.775,105.921,-877.128,0,0
119076.1,106.212,-874.168,0,0
119336.425,107.131,-871.197,0,0
119596.75,108.729,-868.745,0,0
119857.075,110.356,-867.276,0,0
120117.4,111.631,-866.449,0,0
120377.725,112.328,-866.182,0,0
120638.05,112.404,-866.079,0,0
120898.375,111.53,-866.017,0,0
121158.7,109.973,-865.305,0,0
121419.025,108.309,-863.922,0,0
121679.35,106.806,-862.083,0,0
121939.675,105.372,-860.025,0,0
122200.0,104.092,-857.7,0,0
122460,102.966,-855.25,0,0
122721,102.016,-852.64,0,0
122981,101.261,-850.126,0,0
123241,100.557,-847.664,0,0
123502,99.8564,-845.162,0,0
123762,99.1734,-842.626,0,0
124022,98.5524,-840.054,0,0
124283,97.9828,-837.481,0,0
124543,97.463,-834.924,0,0
124803,96.988,-832.36,0,0
125064,96.6542,-829.768,0,0
125324,96.3826,-827.353,0,0
125584,96.045,-825.043,0,0
125845,95.7335,-822.731,0,0
126105,95.3766,-820.61,0,0
126365,94.8454,-818.551,0,0
126626,94.0855,-816.532,0,0
126886,93.2452,-814.323,0,0
127146,92.4318,-811.987,0,0
127406,91.5947,-809.639,0,0
127667,90.8516,-807.321,0,0
127927,89.9821,-805.133,0,0
128187,88.8975,-802.972,0,0
128448,87.5348,-800.609,0,0
128708,86.1957,-798.011,0,0
128968,84.8582,-795.349,0,0
129229,83.3824,-792.444,0,0
129489,81.9529,-789.338,0,0
129749,80.5952,-786.09,0,0
130010,79.3197,-782.672,0,0
130270,78.2616,-779.089,0,0
130530,77.3278,-775.502,0,0
130791,76.4463,-771.944,0,0
131051,75.5782,-768.284,0,0
131311,74.8586,-764.529,0,0
131572,74.2827,-760.738,0,0
131832,73.805,-757.021,0,0
132092,73.2949,-753.286,0,0
132353,72.8824,-749.485,0,0
132613,72.5686,-745.645,0,0
132873,72.3775,-741.813,0,0
133134,72.243,-738.066,0,0
133394,72.1429,-734.335,0,0
133654,72.0329,-730.545,0,0
133915,72.0312,-726.707,0,0
134175,72.1032,-722.913,0,0
134435,72.2307,-719.115,0,0
134696,72.3829,-715.411,0,0
134956,72.5555,-711.631,0,0
135216,72.8182,-707.819,0,0
135477,73.2052,-704.062,0,0
135737,73.6649,-700.366,0,0
135997,74.1248,-696.709,0,0
136258,74.6388,-693.124,0,0
136518,75.1311,-689.515,0,0
136778,75.6807,-685.992,0,0
137039,76.2709,-682.551,0,0
137299,76.7693,-679.22,0,0
137559,77.1412,-675.848,0,0
137819,77.4486,-672.384,0,0
138080,77.7244,-668.823,0,0
138340.125,78.0959,-665.142,0,0
138600.45,78.5432,-661.436,0,0
138860.775,79.0021,-657.745,0,0
139121.1,79.4754,-653.964,0,0
139381.425,80.101,-650.09,0,0
139641.75,80.8391,-646.299,0,0
139902.075,81.5957,-642.541,0,0
140162.4,82.3392,-638.748,0,0
140422.725,83.1695,-634.917,0,0
140683.05,84.0902,-631.06,0,0
140943.375,85.1096,-627.211,0,0
141203.7,86.2109,-623.436,0,0
141464.025,87.3553,-619.739,0,0
141724.35,88.4892,-616.04,0,0
141984.675,89.6786,-612.339,0,0
142245.0,90.889,-608.707,0,0
142505.325,92.1163,-605.074,0,0
142765.65,93.3225,-601.445,0,0
143025.975,94.5666,-597.787,0,0
143286.3,95.9072,-594.111,0,0
143546.625,97.2667,-590.498,0,0
143806.95,98.594,-586.909,0,0
144067.275,99.9146,-583.307,0,0
144327.6,101.304,-579.588,0,0
144587.925,102.755,-575.893,0,0
144848.25,104.218,-572.17,0,0
145108.575,105.76,-568.393,0,0
145368.9,107.394,-564.601,0,0
145629.225,109.147,-560.812,0,0
145889.55,110.957,-557.076,0,0
146149.875,112.808,-553.33,0,0
146410.2,114.819,-549.588,0,0
146670.525,116.848,-545.901,0,0
146930.85,118.939,-542.295,0,0
147191.175,120.999,-538.696,0,0
147451.5,123.135,-535.068,0,0
147711.825,125.324,-531.457,0,0
147972.15,127.558,-527.866,0,0
148232.475,129.874,-524.219,0,0
148492.8,132.278,-520.601,0,0
148753.125,134.759,-517,0,0
149013.45,137.313,-513.417,0,0
149273.775,139.918,-509.912,0,0
149534.1,142.481,-506.357,0,0
149794.425,145.191,-502.64,0,0
150054.75,148.136,-498.923,0,0
150315.075,151.245,-495.327,0,0
150575.4,154.466,-491.795,0,0
150835.725,157.746,-488.247,0,0
151096.05,161.262,-484.679,0,0
151356.375,165.072,-481.297,0,0
151616.7,169.001,-478.132,0,0
151877.025,172.95,-475.135,0,0
152137.35,176.98,-472.111,0,0
152397.675,181.398,-469.14,0,0
152658.0,186.126,-466.667,0,0
152918.325,190.694,-464.658,0,0
153178.65,195.172,-462.748,0,0
153438.975,199.753,-461.036,0,0
153699.3,204.335,-459.733,0,0
153959.625,208.723,-458.721,0,0
154219.95,212.901,-457.886,0,0
154480,216.939,-457.339,0,0
154741,220.574,-457.002,0,0
155001,223.666,-456.345,0,0
155261,226.855,-455.281,0,0
155522,230.45,-454.192,0,0
155782,234.196,-453.401,0,0
156042,237.813,-453.03,0,0
156303,241.077,-452.776,0,0
156563,244.033,-452.57,0,0
156823,246.746,-452.15,0,0
157084,249.382,-451.38,0,0
157344,252.18,-450.511,0,0
157604,255.001,-449.566,0,0
157864,257.818,-448.476,0,0
158125,260.97,-447.192,0,0
158385,264.424,-445.976,0,0
158645,268.074,-445.05,0,0
158906,271.776,-444.001,0,0
159166,276.084,-442.951,0,0
159426,280.975,-442.889,0,0
159687,285.339,-443.574,0,0
159947,289.323,-444.521,0,0
160207,293.068,-445.778,0,0
160468,296.445,-447.208,0,0
160728,299.658,-449.023,0,0
160988,302.081,-450.99,0,0
161249,303.832,-452.664,0,0
161509,305.216,-453.894,0,0
161769,306.666,-454.689,0,0
162030,308.079,-455.555,0,0
162290,309.424,-456.199,0,0
162550,310.697,-456.705,0,0
162811,311.643,-457.175,0,0
163071,312.41,-457.262,0,0
163331,313.384,-456.889,0,0
163592,314.4,-456.366,0,0
163852,315.452,-455.517,0,0
164112,316.649,-454.572,0,0
164373,318.104,-453.226,0,0
164633,319.969,-451.64,0,0
164893,322.289,-450.132,0,0
165154,324.692,-448.837,0,0
165414,327.107,-447.442,0,0
165674,329.777,-445.633,0,0
165935,333.129,-443.682,0,0
166195,337.136,-442.021,0,0
166455,341.661,-440.664,0,0
166716,346.542,-439.541,0,0
166976,352.147,-438.962,0,0
167236,358.058,-439.177,0,0
167497,364.023,-440.202,0,0
167757,369.953,-442.061,0,0
168017,375.751,-444.503,0,0
168277,381.1,-447.588,0,0
168538,386.101,-451.108,0,0
168798,390.92,-454.827,0,0
169058,395.878,-459.135,0,0
169319,400.537,-464.457,0,0
169579,404.121,-470.488,0,0
169839,407.213,-476.366,0,0
170100,410.167,-482.815,0,0
170360.075,412.453,-490.216,0,0
170620.4,413.507,-498.192,0,0
170880.725,413.212,-506.389,0,0
171141.05,411.355,-514.359,0,0
171401.375,408.439,-521.32,0,0
171661.7,405.277,-527.625,0,0
171922.025,401.495,-533.97,0,0
172182.35,396.6,-539.791,0,0
172442.675,391.025,-544.691,0,0
172703.0,385.095,-548.795,0,0
172963.325,378.573,-552.121,0,0
173223.65,371.781,-554.36,0,0
173483.975,365.038,-555.776,0,0
173744.3,358.15,-556.282,0,0
174004.625,351.626,-555.81,0,0
174264.95,345.424,-554.873,0,0
174525.275,339.377,-553.319,0,0
174785.6,333.772,-551.146,0,0
175045.925,328.48,-548.764,0,0
175306.25,323.214,-545.895,0,0
175566.575,318.234,-542.238,0,0
175826.9,313.935,-538.088,0,0
176087.225,310.218,-533.726,0,0
176347.55,306.908,-529.118,0,0
176607.875,304.194,-524.35,0,0
176868.2,301.978,-519.537,0,0
177128.525,300.193,-514.742,0,0
177388.85,298.785,-510.023,0,0
177649.175,297.713,-505.293,0,0
177909.5,297.033,-500.691,0,0
178169.825,296.622,-496.351,0,0
178430.15,296.279,-492.124,0,0
178690.475,296.021,-487.868,0,0
178950.8,295.914,-483.625,0,0
179211.125,296.106,-479.314,0,0
179471.45,296.615,-475.137,0,0
179731.775,297.345,-471.105,0,0
179992.1,298.141,-467.375,0,0
180252.425,298.998,-463.78,0,0
180512.75,299.863,-460.3,0,0
180773.075,300.692,-456.928,0,0
181033.4,301.553,-453.611,0,0
181293.725,302.401,-450.345,0,0
181554.05,303.206,-447.134,0,0
181814.375,303.997,-443.913,0,0
182074.7,304.724,-440.723,0,0
182335.025,305.378,-437.49,0,0
182595.35,305.959,-434.18,0,0
182855.675,306.518,-430.714,0,0
183116.0,307.067,-427.105,0,0
183376.325,307.669,-423.346,0,0
183636.65,308.319,-419.422,0,0
183896.975,309.072,-415.339,0,0
184157.3,309.966,-411.088,0,0
184417.625,310.996,-406.705,0,0
184677.95,312.192,-402.239,0,0
184938.275,313.526,-397.637,0,0
185198.6,315.05,-392.923,0,0
185458.925,316.829,-388.14,0,0
185719.25,318.76,-383.38,0,0
185979.575,320.796,-378.579,0,0
186239.9,322.918,-373.659,0,0
186500,325.279,-368.719,0,0
186761,327.804,-363.537,0,0
187021,330.506,-358.447,0,0
187281,333.336,-353.132,0,0
187542,336.481,-347.809,0,0
187802,339.755,-342.384,0,0
188062,343.427,-336.847,0,0
188322,347.31,-331.257,0,0
188583,351.468,-325.714,0,0
188843,355.913,-320.108,0,0
189103,360.659,-314.476,0,0
189364,365.681,-308.794,0,0
189624,371.066,-303.098,0,0
189884,376.831,-297.476,0,0
190145,382.983,-291.877,0,0
190405,389.461,-286.363,0,0
190665,396.339,-281.003,0,0
190926,403.539,-275.804,0,0
191186,411.019,-270.738,0,0
191446,418.867,-265.747,0,0
191707,427.211,-260.937,0,0
191967,435.915,-256.369,0,0
192227,444.969,-252.055,0,0
192488,454.378,-248.072,0,0
192748,464.096,-244.424,0,0
193008,474.186,-241.155,0,0
193269,484.473,-238.193,0,0
193529,494.955,-235.56,0,0
193789,505.568,-233.361,0,0
194050,516.719,-231.312,0,0
194310,527.867,-229.924,0,0
194570,539.2,-228.759,0,0
194831,550.614,-227.963,0,0
195091,562.204,-227.466,0,0
195351,573.917,-227.221,0,0
195612,585.849,-227.157,0,0
195872,598.131,-227.407,0,0
196132,610.727,-227.948,0,0
196393,623.721,-228.925,0,0
196653,637.015,-230.34,0,0
196913,650.683,-232.241,0,0
197174,664.837,-234.699,0,0
197434,679.334,-237.893,0,0
197694,694.096,-241.851,0,0
197955,709.114,-246.654,0,0
198215,724.313,-252.324,0,0
198475,739.667,-258.803,0,0
198735,755.172,-266.248,0,0
198996,770.863,-274.784,0,0
199256,786.554,-284.684,0,0
199516,801.986,-296.01,0,0
199777,816.777,-308.677,0,0
200037,830.832,-322.529,0,0
200297,844.118,-337.407,0,0
200558,856.341,-353.405,0,0
200818,867.432,-370.448,0,0
201078,877.193,-387.988,0,0
201339,885.843,-406.075,0,0
201599,893.371,-424.724,0,0
201859,899.169,-443.773,0,0
202120,903.662,-462.542,0,0
202380.025,907.346,-481.062,0,0
202640.35,909.857,-499.585,0,0
202900.675,911.128,-517.554,0,0
203161.0,911.927,-534.91,0,0
203421.325,912.777,-552.262,0,0
203681.65,912.958,-570.356,0,0
203941.975,911.931,-588.82,0,0
204202.3,909.014,-606.803,0,0
204462.625,905.175,-623.929,0,0
204722.95,900.855,-640.157,0,0
204983.275,896.131,-655.821,0,0
205243.6,890.801,-671.434,0,0
205503.925,884.785,-686.279,0,0
205764.25,878.535,-700.307,0,0
206024.575,872.37,-713.879,0,0
206284.9,865.926,-727.307,0,0
206545.225,859.177,-740.371,0,0
206805.55,852.506,-753.673,0,0
207065.875,845.325,-767.317,0,0
207326.2,837.084,-781.093,0,0
207586.525,827.52,-794.757,0,0
207846.85,816.591,-807.538,0,0
208107.175,804.721,-819.192,0,0
208367.5,792.454,-829.521,0,0
208627.825,779.915,-838.918,0,0
208888.15,766.888,-847.32,0,0
209148.475,753.744,-854.575,0,0
209408.8,740.569,-860.358,0,0
209669.125,728.062,-865.262,0,0
209929.45,715.815,-869.501,0,0
210189.775,703.684,-872.998,0,0
210450.1,692.181,-875.821,0,0
210710.425,680.743,-878.129,0,0
210970.75,669.723,-879.842,0,0
211231.075,659.079,-880.738,0,0
211491.4,649.05,-881.357,0,0
211751.725,639.459,-881.531,0,0
212012.05,630.299,-881.364,0,0
212272.375,621.728,-880.824,0,0
212532.7,613.823,-880.193,0,0
212793.025,606.409,-879.487,0,0
213053.35,599.084,-878.967,0,0
213313.675,591.827,-878.043,0,0
213574.0,584.907,-876.755,0,0
213834.325,578.684,-875.139,0,0
214094.65,573.064,-873.158,0,0
214354.975,568.42,-871.318,0,0
214615.3,564.613,-869.931,0,0
214875.625,561.301,-869.128,0,0
215135.95,558.027,-869.046,0,0
215396.275,554.89,-869.571,0,0
215656.6,551.474,-870.537,0,0
215916.925,547.93,-872.052,0,0
216177.25,543.765,-873.565,0,0
216437.575,539.099,-875.208,0,0
216697.9,534.084,-876.451,0,0
216958.225,529.117,-877.173,0,0
217218.55,524.401,-877.698,0,0
217478.875,519.955,-878.285,0,0
217739.2,515.487,-878.977,0,0
217999.525,510.991,-879.569,0,0
218259.85,506.674,-880.128,0,0
218520,502.145,-880.728,0,0
218780,497.853,-881.283,0,0
219041,493.65,-881.716,0,0
219301,489.548,-882.48,0,0
219561,485.374,-883.296,0,0
219822,480.961,-884.269,0,0
220082,476.441,-885.098,0,0
220342,471.828,-885.941,0,0
220603,466.987,-886.671,0,0
220863,462.063,-887.222,0,0
221123,457.185,-887.414,0,0
221384,452.506,-887.518,0,0
221644,447.908,-887.676,0,0
221904,443.319,-887.702,0,0
222165,438.701,-887.767,0,0
222425,434.104,-887.768,0,0
222685,429.523,-887.505,0,0
222946,425.174,-887.288,0,0
223206,420.899,-887.027,0,0
223466,416.576,-886.908,0,0
223727,412.528,-886.709,0,0
223987,408.476,-886.576,0,0
224247,404.403,-886.669,0,0
224508,400.265,-886.858,0,0
224768,396.016,-887.235,0,0
225028,391.411,-887.579,0,0
225289,386.774,-887.83,0,0
225549,381.851,-888.125,0,0
225809,376.777,-888.179,0,0
226070,371.502,-888.151,0,0
226330,366.187,-887.902,0,0
226590,360.768,-887.341,0,0
226851,355.315,-886.693,0,0
227111,349.839,-885.809,0,0
227371,344.198,-884.758,0,0
227632,338.622,-883.533,0,0
227892,332.882,-882.039,0,0
228152,327.218,-880.246,0,0
228413,321.507,-878.037,0,0
228673,315.992,-875.623,0,0
228933,310.66,-872.781,0,0
229193,305.654,-869.762,0,0
229454,300.886,-866.628,0,0
229714,296.419,-863.374,0,0
229974,291.969,-860.041,0,0
230235,287.952,-856.666,0,0
230495,283.969,-853.239,0,0
230755,280.202,-849.731,0,0
231016,276.627,-846.173,0,0
231276,273.254,-842.676,0,0
231536,270.095,-839.131,0,0
231797,266.967,-835.552,0,0
232057,264.071,-832.027,0,0
232317,261.311,-828.506,0,0
232578,258.65,-824.992,0,0
232838,256.134,-821.532,0,0
233098,253.79,-817.994,0,0
233359,251.666,-814.52,0,0
233619,249.53,-811.267,0,0
233879,247.48,-807.869,0,0
234140,245.553,-804.524,0,0
234400,243.747,-801.186,0,0
234660.3,242.015,-797.976,0,0
234920.625,240.391,-794.707,0,0
235180.95,239.026,-791.711,0,0
235441.275,237.611,-788.703,0,0
235701.6,236.177,-785.839,0,0
235961.925,234.691,-782.968,0,0
236222.25,233.227,-780.083,0,0
236482.575,231.813,-777.11,0,0
236742.9,230.449,-774.141,0,0
237003.225,229.221,-771.074,0,0
237263.55,228.053,-768.025,0,0
237523.875,227.044,-764.889,0,0
237784.2,226.222,-761.795,0,0
238044.525,225.659,-758.766,0,0
238304.85,225.214,-755.864,0,0
238565.175,224.832,-753.234,0,0
238825.5,224.587,-750.705,0,0
239085.825,224.291,-748.241,0,0
239346.15,224.037,-745.924,0,0
239606.475,223.854,-743.704,0,0
239866.8,223.67,-741.655,0,0
240127.125,223.402,-739.684,0,0
240387.45,223.113,-737.81,0,0
240647.775,222.933,-735.958,0,0
240908.1,222.651,-734.307,0,0
241168.425,222.314,-732.671,0,0
241428.75,221.987,-731.12,0,0
241689.075,221.716,-729.649,0,0
241949.4,221.271,-728.241,0,0
242209.725,220.831,-726.894,0,0
242470.05,220.317,-725.646,0,0
242730.375,219.718,-724.381,0,0
242990.7,219.005,-723.196,0,0
243251.025,218.233,-721.962,0,0
243511.35,217.424,-720.773,0,0
243771.675,216.499,-719.574,0,0
244032.0,215.488,-718.39,0,0
244292.325,214.322,-717.177,0,0
244552.65,213.084,-715.846,0,0
244812.975,211.754,-714.425,0,0
245073.3,210.415,-712.801,0,0
245333.625,209.143,-711.146,0,0
245593.95,207.936,-709.323,0,0
245854.275,206.78,-707.404,0,0
246114.6,205.655,-705.461,0,0
246374.925,204.573,-703.537,0,0
246635.25,203.524,-701.471,0,0
246895.575,202.575,-699.303,0,0
247155.9,201.698,-697.099,0,0
247416.225,201.078,-694.928,0,0
247676.55,200.513,-692.829,0,0
247936.875,200.105,-690.774,0,0
248197.2,199.587,-688.92,0,0
248457.525,199.106,-687.06,0,0
248717.85,198.509,-685.219,0,0
248978.175,198.071,-683.286,0,0
249238.5,197.577,-681.359,0,0
249498.825,197.207,-679.517,0,0
249759.15,196.868,-677.687,0,0
250019.475,196.601,-675.926,0,0
250279.8,196.254,-674.244,0,0
250540,195.908,-672.602,0,0
250800,195.55,-671.111,0,0
251061,195.088,-669.701,0,0
251321,194.465,-668.261,0,0
251581,193.841,-666.865,0,0
251842,192.99,-665.406,0,0
252102,191.998,-663.895,0,0
252362,190.929,-662.228,0,0
252623,189.804,-660.384,0,0
252883,188.575,-658.389,0,0
253143,187.431,-656.124,0,0
253404,186.399,-653.696,0,0
253664,185.496,-651.11,0,0
253924,184.768,-648.551,0,0
254185,184.085,-645.964,0,0
254445,183.386,-643.305,0,0
254705,182.702,-640.613,0,0
254966,182.058,-637.757,0,0
255226,181.471,-634.675,0,0
255486,181.015,-631.496,0,0
255747,180.706,-628.097,0,0
256007,180.62,-624.532,0,0
256267,180.799,-620.946,0,0
256528,181.222,-617.303,0,0
256788,181.825,-613.644,0,0
257048,182.645,-609.998,0,0
257309,183.65,-606.297,0,0
257569,184.936,-602.626,0,0
257829,186.49,-599.011,0,0
258090,188.251,-595.479,0,0
258350,190.13,-592.03,0,0
258610,192.26,-588.54,0,0
258871,194.712,-585.061,0,0
259131,197.559,-581.758,0,0
259391,200.71,-578.811,0,0
259651,204.014,-576.22,0,0
259912,207.281,-573.937,0,0
260172,210.521,-571.74,0,0
260432,213.857,-569.58,0,0
260693,217.48,-567.573,0,0
260953,221.272,-565.665,0,0
261213,225.326,-564.111,0,0
261474,229.501,-562.964,0,0
261734,233.662,-562.167,0,0
261994,237.731,-561.652,0,0
262255,241.706,-561.272,0,0
262515,245.742,-560.971,0,0
262775,249.977,-560.866,0,0
263036,254.394,-561.072,0,0
263296,258.928,-561.734,0,0
263556,263.336,-562.81,0,0
263817,267.647,-564.39,0,0
264077,271.669,-566.229,0,0
264337,275.569,-568.322,0,0
264598,279.297,-570.668,0,0
264858,282.849,-573.356,0,0
265118,286.017,-576.337,0,0
265379,288.87,-579.415,0,0
265639,291.509,-582.534,0,0
265899,294.037,-585.754,0,0
266160,296.425,-589.099,0,0
266420,298.627,-592.678,0,0
266680.25,300.597,-596.419,0,0
266940.575,302.273,-600.273,0,0
267200.9,303.848,-604.157,0,0
267461.225,305.303,-608.412,0,0
267721.55,306.351,-612.953,0,0
267981.875,306.912,-617.621,0,0
268242.2,307.151,-622.424,0,0
268502.525,306.907,-627.376,0,0
268762.85,306.073,-632.42,0,0
269023.175,304.529,-637.316,0,0
269283.5,302.328,-641.938,0,0
269543.825,299.427,-646.014,0,0
269804.15,296.299,-649.282,0,0
270064.475,293.246,-651.852,0,0
270324.8,290.458,-653.857,0,0
270585.125,287.922,-655.696,0,0
270845.45,285.556,-657.424,0,0
271105.775,283.391,-659.037,0,0
271366.1,281.277,-660.678,0,0
271626.425,279.295,-662.276,0,0
271886.75,277.378,-663.889,0,0
272147.075,275.413,-665.516,0,0
272407.4,273.557,-667.19,0,0
272667.725,271.635,-669.015,0,0
272928.05,269.516,-670.888,0,0
273188.375,267.266,-672.695,0,0
273448.7,264.892,-674.559,0,0
273709.025,262.452,-676.398,0,0
273969.35,259.763,-678.295,0,0
274229.675,256.888,-680.066,0,0
274490.0,253.866,-681.764,0,0
274750.325,250.465,-683.435,0,0
275010.65,246.85,-684.903,0,0
275270.975,242.887,-686.107,0,0
275531.3,238.819,-686.841,0,0
275791.625,234.663,-687.27,0,0
276051.95,230.574,-687.387,0,0
276312.275,226.546,-687.295,0,0
276572.6,222.409,-687.047,0,0
276832.925,218.165,-686.463,0,0
277093.25,213.802,-685.467,0,0
277353.575,209.551,-684,0,0
277613.9,205.449,-682.027,0,0
277874.225,201.643,-679.704,0,0
278134.55,198.125,-677.037,0,0
278394.875,195.027,-674.013,0,0
278655.2,192.385,-670.744,0,0
278915.525,190.28,-667.367,0,0
279175.85,188.715,-663.983,0,0
279436.175,187.584,-660.781,0,0
279696.5,186.91,-657.704,0,0
279956.825,186.558,-655.039,0,0
280217.15,186.502,-652.692,0,0
280477.475,186.533,-650.779,0,0
280737.8,186.433,-649.204,0,0
280998.125,186.154,-647.81,0,0
281258.45,185.798,-646.528,0,0
281518.775,185.3,-645.247,0,0
281779.1,184.654,-643.956,0,0
282039.425,183.991,-642.497,0,0
282299.75,183.468,-640.833,0,0
282560,183.216,-639.14,0,0
282820,183.234,-637.537,0,0
283081,183.478,-636.173,0,0
283341,183.861,-635.134,0,0
283601,184.215,-634.386,0,0
283862,184.384,-633.996,0,0
284122,184.319,-633.745,0,0
284382,183.927,-633.512,0,0
284643,183.484,-633.244,0,0
284903,182.917,-632.965,0,0
285163,182.301,-632.705,0,0
285424,181.443,-632.503,0,0
285684,180.436,-632.238,0,0
285944,179.251,-631.872,0,0
286205,177.865,-631.373,0,0
286465,176.34,-630.608,0,0
286725,174.779,-629.494,0,0
286986,173.408,-628.202,0,0
287246,172.142,-626.857,0,0
287506,170.854,-625.39,0,0
287767,169.568,-623.724,0,0
288027,168.312,-621.857,0,0
288287,167.183,-619.772,0,0
288548,166.248,-617.371,0,0
288808,165.568,-614.714,0,0
289068,165.29,-611.855,0,0
289329,165.45,-608.947,0,0
289589,166.068,-606.102,0,0
289849,167.157,-603.417,0,0
290109,168.584,-601.006,0,0
290370,170.239,-598.79,0,0
290630,172.157,-596.921,0,0
290890,174.255,-595.366,0,0
291151,176.531,-594.094,0,0
291411,178.882,-593.2,0,0
291671,181.357,-592.627,0,0
291932,183.848,-592.444,0,0
292192,186.303,-592.607,0,0
292452,188.754,-593.147,0,0
292713,191.06,-594.097,0,0
292973,193.181,-595.424,0,0
293233,195.042,-597.098,0,0
293494,196.613,-599.019,0,0
293754,197.787,-601.119,0,0
294014,198.708,-603.36,0,0
294275,199.338,-605.709,0,0
294535,199.675,-608.227,0,0
294795,199.643,-610.81,0,0
295056,199.205,-613.391,0,0
295316,198.372,-615.883,0,0
295576,197.191,-618.344,0,0
295837,195.691,-620.621,0,0
296097,193.848,-622.652,0,0
296357,191.788,-624.406,0,0
296618,189.527,-625.85,0,0
296878,187.168,-626.914,0,0
297138,184.845,-627.721,0,0
297399,182.552,-628.263,0,0
297659,180.359,-628.617,0,0
297919,178.189,-628.814,0,0
298180,176.116,-628.851,0,0
298440,174.104,-628.765,0,0
298700.2,172.204,-628.598,0,0
298960.525,170.416,-628.38,0,0
299220.85,168.684,-628.109,0,0
299481.175,166.986,-627.901,0,0
299741.5,165.287,-627.637,0,0
300001.825,163.656,-627.326,0,0
300262.15,161.912,-627.02,0,0
300522.475,160.221,-626.63,0,0
300782.8,158.514,-626.205,0,0
301043.125,156.833,-625.725,0,0
301303.45,155.131,-625.125,0,0
301563.775,153.479,-624.463,0,0
301824.1,151.889,-623.694,0,0
302084.425,150.36,-622.906,0,0
302344.75,148.899,-622.109,0,0
302605.075,147.49,-621.292,0,0
302865.4,146.066,-620.522,0,0
303125.725,144.62,-619.697,0,0
303386.05,143.163,-618.817,0,0
303646.375,141.75,-617.842,0,0
303906.7,140.386,-616.835,0,0
304167.025,139.056,-615.742,0,0
304427.35,137.795,-614.659,0,0
304687.675,136.571,-613.486,0,0
304948.0,135.418,-612.266,0,0
305208.325,134.391,-611.051,0,0
305468.65,133.402,-609.835,0,0
305728.975,132.454,-608.636,0,0
305989.3,131.561,-607.438,0,0
306249.625,130.705,-606.219,0,0
306509.95,129.924,-604.995,0,0
306770.275,129.184,-603.728,0,0
307030.6,128.573,-602.478,0,0
307290.925,128.053,-601.278,0,0
307551.25,127.558,-600.166,0,0
307811.575,127.119,-599.098,0,0
308071.9,126.704,-598.079,0,0
308332.225,126.332,-597.098,0,0
308592.55,126.001,-596.191,0,0
308852.875,125.675,-595.376,0,0
309113.2,125.29,-594.641,0,0
309373.525,124.887,-593.976,0,0
309633.85,124.431,-593.344,0,0
309894.175,123.915,-592.785,0,0
310154.5,123.316,-592.159,0,0
310414.825,122.643,-591.574,0,0
310675.15,121.936,-590.903,0,0
310935.475,121.182,-590.178,0,0
311195.8,120.447,-589.393,0,0
311456.125,119.727,-588.579,0,0
311716.45,119.023,-587.697,0,0
311976.775,118.35,-586.792,0,0
312237.1,117.718,-585.873,0,0
312497.425,117.142,-584.957,0,0
312757.75,116.562,-584.043,0,0
313018.075,116.001,-583.076,0,0
313278.4,115.469,-582.135,0,0
313538.725,115.016,-581.135,0,0
313799.05,114.605,-580.158,0,0
314059.375,114.272,-579.225,0,0
314319.7,113.952,-578.305,0,0
314580,113.648,-577.433,0,0
314840,113.383,-576.705,0,0
315101,113.148,-575.844,0,0
315361,112.877,-575.027,0,0
315621,112.637,-574.312,0,0
315882,112.418,-573.588,0,0
316142,112.2,-573.032,0,0
316402,112.018,-572.319,0,0
316663,111.804,-571.739,0,0
316923,111.514,-571.174,0,0
317183,111.37,-570.603,0,0
317444,111.152,-570.189,0,0
317704,110.881,-569.774,0,0
317964,110.625,-569.344,0,0
318225,110.35,-568.944,0,0
318485,109.98,-568.609,0,0
318745,109.588,-568.293,0,0
319006,109.321,-568.069,0,0
319266,108.925,-567.826,0,0
319526,108.513,-567.653,0,0
319787,107.876,-567.493,0,0
320047,107.328,-567.43,0,0
320307,106.661,-567.292,0,0
320567,105.811,-567.2,0,0
320828,104.998,-567.113,0,0
321088,104.005,-566.994,0,0
321348,103.01,-566.79,0,0
321609,101.834,-566.573,0,0
321869,100.542,-566.297,0,0
322129,99.2756,-565.901,0,0
322390,97.8215,-565.44,0,0
322650,96.3533,-564.828,0,0
322910,94.904,-563.935,0,0
323171,93.444,-562.937,0,0
323431,92.0684,-561.835,0,0
323691,90.8049,-560.584,0,0
323952,89.5587,-559.169,0,0
324212,88.5114,-557.807,0,0
324472,87.6672,-556.395,0,0
324733,86.8683,-554.951,0,0
324993,86.107,-553.605,0,0
325253,85.367,-552.246,0,0
325514,84.808,-550.893,0,0
325774,84.1971,-549.584,0,0
326034,83.609,-548.343,0,0
326295,83.0351,-547.096,0,0
326555,82.3821,-545.844,0,0
326815,81.8048,-544.496,0,0
327076,81.2527,-543.194,0,0
327336,80.6761,-541.77,0,0
327596,80.2317,-540.459,0,0
327857,79.7356,-539.07,0,0
328117,79.315,-537.638,0,0
328377,78.9874,-536.202,0,0
328638,78.6354,-534.812,0,0
328898,78.4082,-533.34,0,0
329158,78.1482,-531.859,0,0
329419,78.0052,-530.371,0,0
329679,77.9053,-528.926,0,0
329939,77.9198,-527.584,0,0
330200,77.9453,-526.134,0,0
330460,78.1868,-524.858,0,0
330720.15,78.3394,-523.533,0,0
330980.475,78.6243,-522.3,0,0
331240.8,78.8322,-521.174,0,0
331501.125,79.1132,-520.114,0,0
331761.45,79.4244,-519.172,0,0
332021.775,79.7206,-518.26,0,0
332282.1,80.0848,-517.453,0,0
332542.425,80.3568,-516.651,0,0
332802.75,80.5047,-516.011,0,0
333063.075,80.6939,-515.41,0,0
333323.4,80.8404,-514.811,0,0
333583.725,80.9595,-514.345,0,0
333844.05,80.8712,-513.753,0,0
334104.375,80.7042,-513.199,0,0
334364.7,80.4937,-512.682,0,0
334625.025,80.334,-512.136,0,0
334885.35,80.0023,-511.563,0,0
335145.675,79.7828,-510.942,0,0
335406.0,79.4388,-510.293,0,0
335666.325,78.9777,-509.565,0,0
335926.65,78.5725,-508.768,0,0
336186.975,78.1368,-507.984,0,0
336447.3,77.6915,-507.089,0,0
336707.625,77.2473,-506.07,0,0
336967.95,76.823,-505.054,0,0
337228.275,76.4997,-503.939,0,0
337488.6,76.1898,-502.766,0,0
337748.925,75.8861,-501.614,0,0
338009.25,75.7024,-500.399,0,0
338269.575,75.5611,-499.269,0,0
338529.9,75.4586,-498.037,0,0
338790.225,75.3108,-496.879,0,0
339050.55,75.2823,-495.561,0,0
339310.875,75.3172,-494.299,0,0
339571.2,75.3307,-492.929,0,0
339831.525,75.4397,-491.682,0,0
340091.85,75.6242,-490.381,0,0
340352.175,75.9157,-489.093,0,0
340612.5,76.1897,-487.796,0,0
340872.825,76.6708,-486.498,0,0
341133.15,77.1047,-485.218,0,0
341393.475,77.7106,-484.037,0,0
341653.8,78.3644,-482.888,0,0
341914.125,79.1275,-481.811,0,0
342174.45,79.9321,-480.812,0,0
342434.775,80.7685,-479.917,0,0
342695.1,81.7238,-479.153,0,0
342955.425,82.591,-478.462,0,0
343215.75,83.5359,-477.975,0,0
343476.075,84.3843,-477.598,0,0
343736.4,85.2347,-477.286,0,0
343996.725,86.0295,-477.094,0,0
344257.05,86.6945,-476.934,0,0
344517.375,87.3405,-476.866,0,0
344777.7,87.8864,-476.905,0,0
345038.025,88.3235,-476.923,0,0
345298.35,88.7824,-477.021,0,0
345558.675,89.0733,-477.049,0,0
345819.0,89.3613,-477.185,0,0
346079.325,89.5327,-477.275,0,0
346339.65,89.6676,-477.409,0,0
346599.975,89.7196,-477.506,0,0
346860,89.6366,-477.608,0,0
347121,89.5847,-477.616,0,0
347381,89.4562,-477.645,0,0
347641,89.2121,-477.658,0,0
347902,89.0435,-477.684,0,0
348162,88.7078,-477.574,0,0
348422,88.3805,-477.513,0,0
348683,87.9627,-477.404,0,0
348943,87.6164,-477.174,0,0
349203,87.2228,-476.932,0,0
349464,86.7988,-476.598,0,0
349724,86.4946,-476.287,0,0
349984,86.0478,-475.889,0,0
350245,85.6579,-475.515,0,0
350505,85.2405,-475.139,0,0
350765,84.8927,-474.665,0,0
351025,84.4743,-474.167,0,0
351286,84.0361,-473.651,0,0
351546,83.6263,-473.122,0,0
351806,83.2759,-472.527,0,0
352067,82.8319,-471.923,0,0
352327,82.4906,-471.214,0,0
352587,82.1038,-470.474,0,0
352848,81.8054,-469.737,0,0
353108,81.6297,-468.881,0,0
353368,81.5115,-468.138,0,0
353629,81.4014,-467.357,0,0
353889,81.3517,-466.535,0,0
354149,81.4249,-465.803,0,0
354410,81.4472,-465.138,0,0
354670,81.5211,-464.524,0,0
354930,81.4335,-464.032,0,0
355191,81.4944,-463.483,0,0
355451,81.4576,-462.993,0,0
355711,81.4487,-462.432,0,0
355972,81.4016,-461.939,0,0
356232,81.3296,-461.412,0,0
356492,81.2626,-460.903,0,0
356753,81.1972,-460.468,0,0
357013,81.103,-459.941,0,0
357273,80.955,-459.464,0,0
357534,80.8404,-459.031,0,0
357794,80.6161,-458.519,0,0
358054,80.4702,-458.012,0,0
358315,80.2025,-457.464,0,0
358575,79.9696,-456.906,0,0
358835,79.7295,-456.309,0,0
359096,79.5264,-455.666,0,0
359356,79.3418,-455.002,0,0
359616,79.1039,-454.275,0,0
359877,78.8831,-453.537,0,0
360137,78.7098,-452.824,0,0
360397,78.4918,-452.039,0,0
360658,78.3659,-451.279,0,0
360918,78.2817,-450.415,0,0
361178,78.1848,-449.545,0,0
361438,78.1892,-448.676,0,0
361699,78.2032,-447.791,0,0
361959,78.3204,-447.02,0,0
362219,78.4655,-446.181,0,0
362480,78.6296,-445.501,0,0
362740.1,78.7462,-444.777,0,0
363000.425,78.8943,-444.092,0,0
363260.75,79.0921,-443.438,0,0
363521.075,79.1951,-442.796,0,0
363781.4,79.3257,-442.204,0,0
364041.725,79.4429,-441.623,0,0
364302.05,79.4637,-440.96,0,0
364562.375,79.5005,-440.397,0,0
364822.7,79.5213,-439.765,0,0
365083.025,79.4508,-439.094,0,0
365343.35,79.4461,-438.339,0,0
365603.675,79.466,-437.629,0,0
365864.0,79.4031,-436.797,0,0
366124.325,79.4519,-435.923,0,0
366384.65,79.455,-434.99,0,0
366644.975,79.6106,-434.031,0,0
366905.3,79.8167,-433.063,0,0
367165.625,80.0781,-432.08,0,0
367425.95,80.3877,-431.168,0,0
367686.275,80.7766,-430.183,0,0
367946.6,81.2031,-429.205,0,0
368206.925,81.6782,-428.242,0,0
368467.25,82.2087,-427.349,0,0
368727.575,82.8237,-426.477,0,0
368987.9,83.5213,-425.631,0,0
369248.225,84.2238,-424.803,0,0
369508.55,85.0032,-424.064,0,0
369768.875,85.7735,-423.338,0,0
370029.2,86.6569,-422.667,0,0
370289.525,87.5019,-422.064,0,0
370549.85,88.4319,-421.42,0,0
370810.175,89.4346,-420.897,0,0
371070.5,90.5159,-420.443,0,0
371330.825,91.6235,-420.105,0,0
371591.15,92.7725,-419.942,0,0
371851.475,93.9472,-419.869,0,0
372111.8,95.0858,-419.912,0,0
372372.125,96.1073,-420.084,0,0
372632.45,97.1594,-420.359,0,0
372892.775,98.1316,-420.738,0,0
373153.1,99.0287,-421.251,0,0
373413.425,99.8713,-421.825,0,0
373673.75,100.494,-422.487,0,0
373934.075,101.084,-423.275,0,0
374194.4,101.486,-424.079,0,0
374454.725,101.704,-424.84,0,0
374715.05,101.772,-425.585,0,0
374975.375,101.765,-426.228,0,0
375235.7,101.665,-426.818,0,0
375496.025,101.47,-427.282,0,0
375756.35,101.262,-427.667,0,0
376016.675,101.069,-427.954,0,0
376277.0,100.948,-428.241,0,0
376537.325,100.744,-428.499,0,0
376797.65,100.609,-428.771,0,0
377057.975,100.453,-428.936,0,0
377318.3,100.286,-429.145,0,0
377578.625,100.048,-429.379,0,0
377838.95,99.8886,-429.561,0,0
378099.275,99.6971,-429.702,0,0
378359.6,99.4946,-429.861,0,0
378619.925,99.2591,-430.01,0,0
378880,99.0198,-430.147,0,0
379141,98.7477,-430.305,0,0
379401,98.4335,-430.399,0,0
379661,98.1612,-430.463,0,0
379922,97.8579,-430.545,0,0
380182,97.5715,-430.595,0,0
380442,97.2016,-430.602,0,0
380703,96.8332,-430.58,0,0
380963,96.5187,-430.52,0,0
381223,96.1567,-430.348,0,0
381483,95.9008,-430.134,0,0
381744,95.6508,-429.851,0,0
382004,95.5422,-429.55,0,0
382264,95.6,-429.318,0,0
382525,95.7461,-429.17,0,0
382785,95.9815,-429.167,0,0
383045,96.2294,-429.339,0,0
383306,96.4852,-429.629,0,0
383566,96.575,-430.172,0,0
383826,96.475,-430.793,0,0
384087,96.3376,-431.449,0,0
384347,95.8888,-432.08,0,0
384607,95.3963,-432.663,0,0
384868,94.7366,-433.266,0,0
385128,93.9789,-433.785,0,0
385388,93.1006,-434.199,0,0
385649,92.0872,-434.573,0,0
385909,90.998,-434.879,0,0
386169,89.8691,-434.961,0,0
386430,88.7212,-434.957,0,0
386690,87.5511,-434.81,0,0
386950,86.284,-434.49,0,0
387211,85.1527,-434.072,0,0
387471,84.0602,-433.554,0,0
387731,83.009,-432.845,0,0
387992,82.0213,-432.016,0,0
388252,81.1904,-431.171,0,0
388512,80.5433,-430.205,0,0
388773,79.9704,-429.256,0,0
389033,79.5268,-428.244,0,0
389293,79.1607,-427.316,0,0
389554,79.0643,-426.328,0,0
389814,79.0256,-425.486,0,0
390074,79.0836,-424.709,0,0
390335,79.2255,-424.13,0,0
390595,79.4449,-423.634,0,0
390855,79.6172,-423.295,0,0
391116,79.8603,-423.055,0,0
391376,79.9915,-422.998,0,0
391636,79.9921,-423.122,0,0
391896,79.9383,-423.29,0,0
392157,79.6566,-423.568,0,0
392417,79.168,-423.83,0,0
392677,78.6356,-424.045,0,0
392938,77.8949,-424.166,0,0
393198,77.0854,-424.2,0,0
393458,76.21,-424.119,0,0
393719,75.2552,-423.953,0,0
393979,74.324,-423.688,0,0
394239,73.3741,-423.346,0,0
394500,72.3448,-422.837,0,0
394760.05,71.4503,-422.273,0,0
395020.375,70.5096,-421.596,0,0
395280.7,69.6797,-420.899,0,0
395541.025,68.8539,-420.096,0,0
395801.35,68.0853,-419.244,0,0
396061.675,67.4377,-418.376,0,0
396322.0,66.8092,-417.564,0,0
396582.325,66.2178,-416.669,0,0
396842.65,65.6994,-415.797,0,0
397102.975,65.1727,-414.902,0,0
397363.3,64.6649,-414.061,0,0
397623.625,64.1617,-413.11,0,0
397883.95,63.6832,-412.241,0,0
398144.275,63.2919,-411.277,0,0
398404.6,62.8384,-410.343,0,0
398664.925,62.4436,-409.373,0,0
398925.25,62.0473,-408.375,0,0
399185.575,61.7144,-407.358,0,0
399445.9,61.4083,-406.373,0,0
399706.225,61.1399,-405.366,0,0
399966.55,60.9252,-404.296,0,0
400006.6,60.8593,-404.201,0,0