File: Accelerated corrosion test data/2025-10-15_11-00-19/sample_8.csv
Frequency (Hz),Impedance (ohms),Phase (Radians),Temperature (C),Humidity (%)
10000.0,311.206,-10979.2,0,0
10260.325,302.728,-10704.4,0,0
10520.65,295.761,-10442.4,0,0
10780.975,288.305,-10193.4,0,0
11041.3,281.984,-9955.54,0,0
11301.625,275.587,-9730.24,0,0
11561.95,269.338,-9512.45,0,0
11822.275,263.383,-9305.21,0,0
12082.6,261.477,-9105.81,0,0
12342.925,257.966,-8919.3,0,0
12603.25,253.218,-8737.64,0,0
12863.575,249.833,-8566.97,0,0
13123.9,241.458,-8401.72,0,0
13384.225,235.911,-8240.23,0,0
13644.55,232.469,-8085.58,0,0
13904.875,224.997,-7936.24,0,0
14165.2,220.355,-7791.19,0,0
14425.525,215.651,-7652.51,0,0
14685.8,211.437,-7516.52,0,0
14946.175,207.772,-7387.67,0,0
15206.5,204.518,-7261.64,0,0
15466.825,201.568,-7141.05,0,0
15727.15,198.061,-7024.41,0,0
15987.5,194.669,-6911.22,0,0
16247.8,191.87,-6801.54,0,0
16508.125,188.783,-6694.95,0,0
16768.45,185.706,-6591.98,0,0
17028.775,182.599,-6491.85,0,0
17289.1,179.905,-6394.88,0,0
17549.425,177.643,-6300.12,0,0
17809.75,174.934,-6207.81,0,0
18070.075,173.387,-6120.64,0,0
18330.4,170.303,-6033.31,0,0
18590.725,168.363,-5947.82,0,0
18851.05,169.236,-5864.53,0,0
19111.375,167.418,-5785.05,0,0
19371.7,168.974,-5709.32,0,0
19632.025,166.642,-5636.85,0,0
19892.35,162.65,-5566.11,0,0
20152.675,160.39,-5493.33,0,0
20413.0,160.364,-5423.37,0,0
20673.3,160.752,-5356.33,0,0
20933.65,157.336,-5293.68,0,0
21193.975,153.61,-5229.93,0,0
21454.3,151.398,-5165.43,0,0
21714.625,149.806,-5103.27,0,0
21974.9,149.04,-5043.03,0,0
22235.275,149.04,-4985.19,0,0
22495.6,148.167,-4927.92,0,0
22755.925,145.993,-4874.61,0,0
23016.25,144.238,-4820.43,0,0
23276.6,139.668,-4768.22,0,0
23536.9,137.4,-4714.78,0,0
23797.225,135.855,-4663.11,0,0
24057.55,134.044,-4613.02,0,0
24317.875,132.416,-4563.27,0,0
24578.2,130.266,-4514.64,0,0
24838.525,129.156,-4466.86,0,0
25098.85,127.872,-4420.39,0,0
25359.175,125.864,-4375.09,0,0
25619.5,125.657,-4330.13,0,0
25879.8,124.228,-4285.97,0,0
26140.1,123.573,-4243.89,0,0
26400.5,121.966,-4201.87,0,0
26660.8,120.927,-4160.42,0,0
26921.1,120.375,-4118.94,0,0
27181.4,120.475,-4079.86,0,0
27441.8,119.428,-4040.9,0,0
27702.1,118.346,-4003.47,0,0
27962.4,116.658,-3966.38,0,0
28222.7,117.252,-3928.58,0,0
28483.1,115.868,-3893.45,0,0
28743.4,115.906,-3858.01,0,0
29003.7,115.113,-3824,0,0
29264,114.547,-3789.41,0,0
29524.4,113.614,-3756.44,0,0
29784.7,113.367,-3722.95,0,0
30045,112.89,-3691.09,0,0
30305.3,112.108,-3660.1,0,0
30565.7,110.86,-3629.6,0,0
30826,109.594,-3598.76,0,0
31086.3,107.846,-3568.07,0,0
31346.6,107.21,-3537.73,0,0
31607,106.783,-3508.01,0,0
31867.3,106.21,-3479.34,0,0
32127.6,105.546,-3450.14,0,0
32387.9,105.072,-3422.17,0,0
32648.3,104.823,-3393.95,0,0
32908.6,105.175,-3366.66,0,0
33168.9,104.975,-3339.98,0,0
33429.2,105.019,-3313.23,0,0
33689.6,105.48,-3287.87,0,0
33949.9,105.388,-3262.32,0,0
34210.2,105.676,-3237.63,0,0
34470.5,105.631,-3212.86,0,0
34730.9,105.941,-3188.79,0,0
34991.2,106.663,-3164.83,0,0
35251.5,107.662,-3142.15,0,0
35511.8,108.207,-3119.84,0,0
35772.2,108.702,-3098.33,0,0
36032.5,108.92,-3077.57,0,0
36292.8,109.019,-3056.55,0,0
36553.1,108.304,-3036.68,0,0
36813.5,107.541,-3016.61,0,0
37073.8,107.297,-2996.75,0,0
37334.1,105.874,-2977.61,0,0
37594.4,104.105,-2958.62,0,0
37854.8,102.347,-2939.09,0,0
38115.1,100.361,-2920.1,0,0
38375.4,98.1097,-2900.4,0,0
38635.7,96.2332,-2881.13,0,0
38896.1,94.4026,-2861.79,0,0
39156.4,92.4583,-2842.24,0,0
39416.7,91.1857,-2822.75,0,0
39677,89.7482,-2803.64,0,0
39937.4,88.4059,-2784.59,0,0
40197.7,87.849,-2765.28,0,0
40458,87.5527,-2746.68,0,0
40718.3,87.0442,-2729.15,0,0
40978.7,86.2521,-2711.49,0,0
41239,85.6238,-2693.81,0,0
41499.3,85.0913,-2676.46,0,0
41759.6,84.498,-2659.46,0,0
42020,83.376,-2642.91,0,0
42280.275,82.7695,-2625.8,0,0
42540.6,82.4328,-2609.06,0,0
42800.925,81.9311,-2592.47,0,0
43061.25,82.4382,-2576.22,0,0
43321.575,82.53,-2560.77,0,0
43581.9,82.3119,-2545.89,0,0
43842.225,81.7144,-2531.2,0,0
44102.55,80.433,-2516.32,0,0
44362.875,79.8013,-2501.1,0,0
44623.2,78.9279,-2486.2,0,0
44883.525,78.0873,-2471.2,0,0
45143.85,77.8287,-2456.73,0,0
45404.175,76.9503,-2442.14,0,0
45664.5,76.6031,-2427.74,0,0
45924.825,75.9127,-2413.88,0,0
46185.15,75.4806,-2399.47,0,0
46445.475,74.8847,-2385.59,0,0
46705.8,74.2736,-2371.67,0,0
46966.125,73.974,-2357.87,0,0
47226.45,73.6203,-2344.57,0,0
47486.775,73.4064,-2331.29,0,0
47747.1,72.9701,-2318.02,0,0
48007.425,72.6189,-2305.24,0,0
48267.75,72.1703,-2292.41,0,0
48528.075,71.9972,-2279.64,0,0
48788.4,71.5567,-2267.27,0,0
49048.725,70.8853,-2254.75,0,0
49309.05,70.3931,-2242.26,0,0
49569.375,70.0645,-2230.01,0,0
49829.7,69.6441,-2217.77,0,0
50090.025,69.2226,-2205.66,0,0
50350.35,69.0088,-2193.75,0,0
50610.675,68.7507,-2181.97,0,0
50871.0,68.4822,-2170.14,0,0
51131.325,68.3194,-2158.47,0,0
51391.65,68.0103,-2146.98,0,0
51651.975,68.1232,-2135.45,0,0
51912.3,67.9232,-2124.54,0,0
52172.625,67.7278,-2113.52,0,0
52432.95,67.4667,-2102.52,0,0
52693.275,67.496,-2091.52,0,0
52953.6,67.6026,-2080.88,0,0
53213.925,67.5564,-2070.37,0,0
53474.25,67.6152,-2059.99,0,0
53734.575,67.7674,-2050.23,0,0
53994.9,67.3869,-2040.73,0,0
54255.225,66.5484,-2030.82,0,0
54515.55,65.9009,-2020.82,0,0
54775.875,65.4917,-2010.81,0,0
55036.2,64.8787,-2001.15,0,0
55296.525,64.1526,-1991.4,0,0
55556.85,63.4422,-1981.38,0,0
55817.175,62.9708,-1971.58,0,0
56077.5,62.3997,-1961.67,0,0
56337.825,61.9708,-1951.9,0,0
56598.15,61.5727,-1942.15,0,0
56858.475,61.3684,-1932.43,0,0
57118.8,61.1023,-1922.98,0,0
57379.125,60.8913,-1913.43,0,0
57639.45,60.7021,-1904.18,0,0
57899.775,60.4479,-1894.99,0,0
58160.1,60.3258,-1885.89,0,0
58420.4,60.1341,-1877,0,0
58680.7,60.1627,-1867.88,0,0
58941.1,60.0717,-1859,0,0
59201.4,60.0537,-1850.53,0,0
59461.7,59.6898,-1841.95,0,0
59722,59.4555,-1833.38,0,0
59982.4,59.168,-1824.91,0,0
60242.7,58.7887,-1816.33,0,0
60503,58.4977,-1807.78,0,0
60763.3,58.3678,-1799.26,0,0
61023.7,58.2258,-1790.89,0,0
61284,58.1734,-1782.46,0,0
61544.3,58.2296,-1774.2,0,0
61804.6,58.1865,-1766.18,0,0
62065,58.0337,-1758.37,0,0
62325.3,57.7541,-1750.27,0,0
62585.6,57.7715,-1742.11,0,0
62845.9,57.8077,-1734.06,0,0
63106.3,57.9454,-1726.32,0,0
63366.6,58.1334,-1718.69,0,0
63626.9,58.2652,-1711.05,0,0
63887.2,58.3798,-1703.53,0,0
64147.6,58.6307,-1696.11,0,0
64407.9,58.8523,-1688.99,0,0
64668.2,58.8053,-1682.05,0,0
64928.5,58.7219,-1675.04,0,0
65188.9,58.6972,-1668.17,0,0
65449.2,58.355,-1661.32,0,0
65709.5,58.0778,-1654.07,0,0
65969.8,58.0839,-1647.2,0,0
66230.2,57.7492,-1640.64,0,0
66490.5,57.3032,-1633.94,0,0
66750.8,56.6869,-1626.89,0,0
67011.1,56.2824,-1619.72,0,0
67271.5,55.9476,-1612.75,0,0
67531.8,55.8586,-1605.78,0,0
67792.1,55.6549,-1599.03,0,0
68052.4,55.5663,-1592.35,0,0
68312.8,55.2632,-1585.45,0,0
68573.1,55.0638,-1578.77,0,0
68833.4,54.9754,-1572.05,0,0
69093.7,54.824,-1565.24,0,0
69354.1,54.7802,-1558.64,0,0
69614.4,54.7734,-1552.02,0,0
69874.7,54.8621,-1545.55,0,0
70135,54.867,-1539.29,0,0
70395.4,54.7064,-1532.89,0,0
70655.7,54.7689,-1526.61,0,0
70916,54.7155,-1520.29,0,0
71176.3,54.7233,-1513.98,0,0
71436.7,54.7634,-1507.84,0,0
71697,55.0162,-1501.72,0,0
71957.3,55.123,-1495.95,0,0
72217.6,55.0435,-1490.08,0,0
72478,54.9644,-1484.16,0,0
72738.3,54.9473,-1478.51,0,0
72998.6,54.6244,-1472.72,0,0
73258.9,54.3067,-1466.79,0,0
73519.3,54.3088,-1460.83,0,0
73779.6,54.2735,-1455.12,0,0
74039.9,54.1364,-1449.42,0,0
74300.225,53.9401,-1443.8,0,0
74560.55,53.7465,-1438.07,0,0
74820.875,53.5049,-1432.33,0,0
75081.2,53.4051,-1426.56,0,0
75341.525,53.2621,-1420.89,0,0
75601.85,53.265,-1415.25,0,0
75862.175,53.2084,-1409.76,0,0
76122.5,53.1903,-1404.12,0,0
76382.825,53.1305,-1398.59,0,0
76643.15,53.1806,-1393.19,0,0
76903.475,53.088,-1387.86,0,0
77163.8,52.9879,-1382.46,0,0
77424.125,52.8685,-1377.12,0,0
77684.45,52.8338,-1371.78,0,0
77944.775,52.6647,-1366.53,0,0
78205.1,52.5996,-1361.26,0,0
78465.425,52.5095,-1356.06,0,0
78725.75,52.2046,-1350.79,0,0
78986.075,52.1511,-1345.48,0,0
79246.4,52.0198,-1340.26,0,0
79506.725,51.8932,-1335,0,0
79767.05,51.7818,-1329.71,0,0
80027.375,51.8006,-1324.5,0,0
80287.7,51.7478,-1319.3,0,0
80548.025,51.7473,-1314.16,0,0
80808.35,51.5977,-1308.99,0,0
81068.675,51.6671,-1303.84,0,0
81329.0,51.7092,-1298.67,0,0
81589.325,51.7737,-1293.51,0,0
81849.65,51.852,-1288.46,0,0
82109.975,52.0534,-1283.29,0,0
82370.3,52.3192,-1278.42,0,0
82630.625,52.396,-1273.52,0,0
82890.95,52.6491,-1268.59,0,0
83151.275,52.8981,-1263.76,0,0
83411.6,52.9574,-1258.95,0,0
83671.925,53.2663,-1254.07,0,0
83932.25,53.6196,-1249.28,0,0
84192.575,53.8908,-1244.66,0,0
84452.9,54.1859,-1239.99,0,0
84713.225,54.6113,-1235.49,0,0
84973.55,55.0623,-1231.22,0,0
85233.875,55.0899,-1227.25,0,0
85494.2,54.8441,-1222.93,0,0
85754.525,54.6538,-1218.52,0,0
86014.85,54.4029,-1214.04,0,0
86275.175,54.3017,-1209.4,0,0
86535.5,54.1663,-1204.68,0,0
86795.825,54.2514,-1199.89,0,0
87056.15,54.4533,-1195.26,0,0
87316.475,54.7603,-1190.78,0,0
87576.8,54.8606,-1186.34,0,0
87837.125,54.9425,-1181.85,0,0
88097.45,55.0686,-1177.34,0,0
88357.775,55.1918,-1172.89,0,0
88618.1,55.3661,-1168.42,0,0
88878.425,55.4905,-1164.18,0,0
89138.75,55.6254,-1159.58,0,0
89399.075,55.7435,-1155.05,0,0
89659.4,56.0152,-1150.48,0,0
89919.725,56.3223,-1145.84,0,0
90180,56.8222,-1141.31,0,0
90440.4,57.1343,-1136.89,0,0
90700.7,57.655,-1132.38,0,0
90961,58.2541,-1127.88,0,0
91221.3,59.0036,-1123.3,0,0
91481.7,60.0751,-1119.02,0,0
91742,60.9842,-1115.05,0,0
92002.3,61.846,-1111.27,0,0
92262.6,62.6203,-1107.45,0,0
92523,63.3683,-1103.69,0,0
92783.3,64.1167,-1100.07,0,0
93043.6,64.9772,-1096.5,0,0
93303.9,65.682,-1093.35,0,0
93564.3,66.0285,-1090.26,0,0
93824.6,65.9452,-1087.07,0,0
94084.9,65.6009,-1083.37,0,0
94345.2,65.6837,-1079.57,0,0
94605.6,65.5871,-1075.56,0,0
94865.9,65.9655,-1071.43,0,0
95126.2,66.2256,-1067.62,0,0
95386.5,66.5381,-1063.59,0,0
95646.9,67.1384,-1059.68,0,0
95907.2,67.4643,-1055.76,0,0
96167.5,68.0252,-1051.87,0,0
96427.8,68.4839,-1047.82,0,0
96688.2,69.3893,-1043.84,0,0
96948.5,70.2785,-1040.1,0,0
97208.8,71.151,-1036.41,0,0
97469.1,72.0481,-1032.76,0,0
97729.5,72.9837,-1029.16,0,0
97989.8,74.004,-1025.71,0,0
98250.1,75.0043,-1022.33,0,0
98510.4,76.0725,-1018.93,0,0
98770.8,77.3037,-1015.7,0,0
99031.1,78.5354,-1012.82,0,0
99291.4,79.5607,-1010.13,0,0
99551.7,80.2682,-1007.51,0,0
99812.1,80.9755,-1004.58,0,0
100072,81.7431,-1001.73,0,0
100333,82.6127,-998.97,0,0
100593,83.4397,-996.338,0,0
100853,84.2789,-993.779,0,0
101114,85.0256,-991.412,0,0
101374,85.5981,-989.091,0,0
101634,86.1529,-986.766,0,0
101895,86.6263,-984.615,0,0
102155,86.864,-982.433,0,0
102415,87.0189,-980.157,0,0
102676,87.2123,-977.955,0,0
102936,87.2112,-975.791,0,0
103196,86.9842,-973.602,0,0
103457,86.5891,-971.241,0,0
103717,86.1853,-968.612,0,0
103977,85.9153,-965.819,0,0
104238,85.8921,-963.01,0,0
104498,85.8613,-960.453,0,0
104758,85.7314,-957.89,0,0
105019,85.3819,-955.325,0,0
105279,84.9807,-952.484,0,0
105539,84.7621,-949.574,0,0
105800,84.5705,-946.635,0,0
106060,84.5477,-943.668,0,0
106320.175,84.5347,-940.797,0,0
106580.5,84.5523,-937.876,0,0
106840.825,84.6545,-935.047,0,0
107101.15,84.7407,-932.248,0,0
107361.475,84.8492,-929.612,0,0
107621.8,84.7899,-927,0,0
107882.125,84.613,-924.392,0,0
108142.45,84.3807,-921.503,0,0
108402.775,84.2598,-918.623,0,0
108663.1,84.2546,-915.669,0,0
108923.425,84.2407,-912.695,0,0
109183.75,84.3674,-909.699,0,0
109444.075,84.6319,-906.85,0,0
109704.4,84.8238,-904.041,0,0
109964.725,85.1339,-901.263,0,0
110225.05,85.4865,-898.638,0,0
110485.375,85.6535,-896.019,0,0
110745.7,85.9147,-893.494,0,0
111006.025,85.9405,-891.028,0,0
111266.35,86.0343,-888.339,0,0
111526.675,86.1474,-885.683,0,0
111787.0,86.353,-883.183,0,0
112047.325,86.5967,-880.755,0,0
112307.65,86.6676,-878.331,0,0
112567.975,86.7475,-875.891,0,0
112828.3,86.8297,-873.433,0,0
113088.625,86.8783,-871.058,0,0
113348.95,86.9555,-868.649,0,0
113609.275,86.9415,-866.32,0,0
113869.6,86.8983,-864.002,0,0
114129.925,86.7215,-861.685,0,0
114390.25,86.5559,-859.206,0,0
114650.575,86.4531,-856.714,0,0
114910.9,86.3428,-854.248,0,0
115171.225,86.298,-851.818,0,0
115431.55,86.2733,-849.484,0,0
115691.875,86.047,-847.245,0,0
115952.2,85.6767,-844.921,0,0
116212.525,85.3445,-842.44,0,0
116472.85,85.0024,-839.927,0,0
116733.175,84.5762,-837.318,0,0
116993.5,84.2429,-834.526,0,0
117253.825,84.0715,-831.688,0,0
117514.15,84.0906,-828.985,0,0
117774.475,84.1593,-826.399,0,0
118034.8,84.0667,-823.9,0,0
118295.125,84.0027,-821.415,0,0
118555.45,83.8521,-818.872,0,0
118815.775,83.6912,-816.321,0,0
119076.1,83.6337,-813.765,0,0
119336.425,83.5277,-811.374,0,0
119596.75,83.2339,-808.902,0,0
119857.075,83.004,-806.379,0,0
120117.4,82.7174,-803.811,0,0
120377.725,82.4242,-801.166,0,0
120638.05,82.1693,-798.47,0,0
120898.375,81.9767,-795.705,0,0
121158.7,81.9036,-793.004,0,0
121419.025,81.7398,-790.396,0,0
121679.35,81.5994,-787.726,0,0
121939.675,81.4443,-785.007,0,0
122200.0,81.3393,-782.262,0,0
122460,81.3312,-779.573,0,0
122721,81.2332,-777.008,0,0
122981,81.0934,-774.371,0,0
123241,80.8961,-771.659,0,0
123502,80.7404,-768.918,0,0
123762,80.6273,-766.187,0,0
124022,80.5219,-763.374,0,0
124283,80.4585,-760.541,0,0
124543,80.4751,-757.741,0,0
124803,80.5074,-754.96,0,0
125064,80.5148,-752.198,0,0
125324,80.5516,-749.448,0,0
125584,80.5536,-746.734,0,0
125845,80.5584,-743.954,0,0
126105,80.5592,-741.134,0,0
126365,80.6638,-738.286,0,0
126626,80.8124,-735.416,0,0
126886,81.0168,-732.646,0,0
127146,81.2018,-729.914,0,0
127406,81.4225,-727.183,0,0
127667,81.5123,-724.493,0,0
127927,81.7433,-721.713,0,0
128187,82.0446,-719.018,0,0
128448,82.2594,-716.361,0,0
128708,82.4292,-713.741,0,0
128968,82.554,-711.045,0,0
129229,82.8523,-708.248,0,0
129489,83.1483,-705.624,0,0
129749,83.3647,-703.07,0,0
130010,83.4665,-700.445,0,0
130270,83.5787,-697.683,0,0
130530,83.8227,-694.899,0,0
130791,84.163,-692.153,0,0
131051,84.5145,-689.49,0,0
131311,84.9024,-686.842,0,0
131572,85.2762,-684.35,0,0
131832,85.5199,-681.834,0,0
132092,85.692,-679.246,0,0
132353,85.9566,-676.601,0,0
132613,86.2573,-674.077,0,0
132873,86.4726,-671.594,0,0
133134,86.5922,-669.107,0,0
133394,86.6334,-666.468,0,0
133654,86.7071,-663.725,0,0
133915,86.8097,-660.906,0,0
134175,87.0904,-658.073,0,0
134435,87.3675,-655.285,0,0
134696,87.6472,-652.499,0,0
134956,87.9339,-649.605,0,0
135216,88.429,-646.68,0,0
135477,89.0124,-643.943,0,0
135737,89.5628,-641.222,0,0
135997,90.3076,-638.569,0,0
136258,90.9931,-636.262,0,0
136518,91.4663,-634.016,0,0
136778,91.8487,-631.867,0,0
137039,91.9017,-629.749,0,0
137299,91.7548,-627.445,0,0
137559,91.583,-624.973,0,0
137819,91.3173,-622.351,0,0
138080,90.9679,-619.572,0,0
138340.125,90.6751,-616.494,0,0
138600.45,90.5603,-613.209,0,0
138860.775,90.652,-609.907,0,0
139121.1,90.9165,-606.536,0,0
139381.425,91.3485,-603.318,0,0
139641.75,91.7116,-600.178,0,0
139902.075,92.0771,-596.903,0,0
140162.4,92.6329,-593.7,0,0
140422.725,93.1576,-590.603,0,0
140683.05,93.5765,-587.445,0,0
140943.375,94.0881,-584.15,0,0
141203.7,94.7565,-580.946,0,0
141464.025,95.3584,-577.834,0,0
141724.35,95.8407,-574.716,0,0
141984.675,96.2886,-571.39,0,0
142245.0,96.8737,-567.978,0,0
142505.325,97.5301,-564.555,0,0
142765.65,98.2657,-561.096,0,0
143025.975,98.9752,-557.683,0,0
143286.3,99.7658,-554.042,0,0
143546.625,100.826,-550.409,0,0
143806.95,101.889,-546.965,0,0
144067.275,102.875,-543.465,0,0
144327.6,103.92,-539.897,0,0
144587.925,104.98,-536.207,0,0
144848.25,106.248,-532.411,0,0
145108.575,107.741,-528.632,0,0
145368.9,109.315,-524.948,0,0
145629.225,111.055,-521.245,0,0
145889.55,112.907,-517.741,0,0
146149.875,114.72,-514.316,0,0
146410.2,116.532,-510.816,0,0
146670.525,118.531,-507.269,0,0
146930.85,120.663,-503.904,0,0
147191.175,122.851,-500.66,0,0
147451.5,125.004,-497.579,0,0
147711.825,126.974,-494.676,0,0
147972.15,128.651,-491.543,0,0
148232.475,130.366,-488.052,0,0
148492.8,132.309,-484.242,0,0
148753.125,134.644,-480.334,0,0
149013.45,137.303,-476.477,0,0
149273.775,140.209,-472.686,0,0
149534.1,143.337,-468.978,0,0
149794.425,146.791,-465.267,0,0
150054.75,150.476,-461.801,0,0
150315.075,154.451,-458.478,0,0
150575.4,158.611,-455.349,0,0
150835.725,163.16,-452.409,0,0
151096.05,168.346,-449.772,0,0
151356.375,173.837,-448.123,0,0
151616.7,179.208,-447.368,0,0
151877.025,184.036,-447.131,0,0
152137.35,188.603,-447.44,0,0
152397.675,192.621,-448.402,0,0
152658.0,195.629,-449.462,0,0
152918.325,198.059,-449.959,0,0
153178.65,201.168,-450.134,0,0
153438.975,203.545,-451.061,0,0
153699.3,205.308,-451.852,0,0
153959.625,206.701,-452.264,0,0
154219.95,208.159,-452.547,0,0
154480,208.794,-452.781,0,0
154741,209.073,-451.856,0,0
155001,210.264,-449.803,0,0
155261,212.595,-447.963,0,0
155522,215.609,-446.569,0,0
155782,219.082,-446.044,0,0
156042,222.844,-446.661,0,0
156303,225.726,-448.8,0,0
156563,227.225,-451.518,0,0
156823,227.081,-454.027,0,0
157084,225.58,-455.426,0,0
157344,223.799,-455.498,0,0
157604,222.094,-454.33,0,0
157864,220.858,-452.376,0,0
158125,220.341,-449.707,0,0
158385,220.653,-446.647,0,0
158645,221.846,-443.618,0,0
158906,223.772,-440.918,0,0
159166,226.462,-438.76,0,0
159426,229.39,-437.718,0,0
159687,232.024,-437.61,0,0
159947,233.773,-438.372,0,0
160207,234.362,-439.075,0,0
160468,234.022,-439.423,0,0
160728,232.96,-438.836,0,0
160988,231.781,-437.003,0,0
161249,231.252,-434.21,0,0
161509,231.54,-430.875,0,0
161769,232.888,-427.639,0,0
162030,234.671,-424.682,0,0
162290,236.987,-422.036,0,0
162550,239.576,-419.69,0,0
162811,242.471,-417.891,0,0
163071,245.35,-416.664,0,0
163331,248.255,-415.85,0,0
163592,250.716,-415.696,0,0
163852,252.739,-415.453,0,0
164112,254.604,-415.331,0,0
164373,256.274,-414.882,0,0
164633,258.233,-414.63,0,0
164893,260.088,-414.713,0,0
165154,261.943,-415.147,0,0
165414,263.743,-416.101,0,0
165674,264.704,-417.753,0,0
165935,264.69,-419.456,0,0
166195,263.648,-420.813,0,0
166455,262.265,-421.521,0,0
166716,260.131,-421.796,0,0
166976,257.397,-421.127,0,0
167236,254.858,-419.089,0,0
167497,253.168,-416.399,0,0
167757,251.943,-413.633,0,0
168017,251.058,-410.721,0,0
168277,250.564,-407.834,0,0
168538,250.097,-405.132,0,0
168798,249.286,-402.381,0,0
169058,248.549,-398.998,0,0
169319,248.278,-395.069,0,0
169579,248.56,-391.26,0,0
169839,249.256,-387.614,0,0
170100,249.91,-384.251,0,0
170360.075,250.441,-380.855,0,0
170620.4,251.155,-377.355,0,0
170880.725,251.846,-374.037,0,0
171141.05,252.19,-370.734,0,0
171401.375,252.103,-366.766,0,0
171661.7,252.336,-361.8,0,0
171922.025,253.661,-356.286,0,0
172182.35,255.845,-351.041,0,0
172442.675,258.75,-346.375,0,0
172703.0,261.719,-342.187,0,0
172963.325,264.741,-338.351,0,0
173223.65,267.88,-334.542,0,0
173483.975,271.301,-331.156,0,0
173744.3,274.796,-328.283,0,0
174004.625,278.007,-325.982,0,0
174264.95,280.819,-323.97,0,0
174525.275,282.98,-322.295,0,0
174785.6,284.105,-320.238,0,0
175045.925,284.986,-317.421,0,0
175306.25,285.706,-313.978,0,0
175566.575,286.335,-309.938,0,0
175826.9,287.154,-304.842,0,0
176087.225,288.907,-298.933,0,0
176347.55,291.684,-292.944,0,0
176607.875,295.154,-287.29,0,0
176868.2,299.157,-281.925,0,0
177128.525,303.288,-277.07,0,0
177388.85,306.99,-272.322,0,0
177649.175,310.783,-267.055,0,0
177909.5,315.181,-261.427,0,0
178169.825,320.148,-255.821,0,0
178430.15,325.728,-250.525,0,0
178690.475,331.51,-245.457,0,0
178950.8,337.367,-240.424,0,0
179211.125,343.742,-235.17,0,0
179471.45,350.824,-230.133,0,0
179731.775,358.383,-225.534,0,0
179992.1,366.372,-220.878,0,0
180252.425,375.13,-216.882,0,0
180512.75,384.232,-213.807,0,0
180773.075,393.362,-211.1,0,0
181033.4,402.887,-209.078,0,0
181293.725,411.997,-207.983,0,0
181554.05,420.826,-207.301,0,0
181814.375,429.764,-206.436,0,0
182074.7,439.229,-206.239,0,0
182335.025,448.348,-207.106,0,0
182595.35,457.071,-208.538,0,0
182855.675,465.396,-210.304,0,0
183116.0,473.221,-212.492,0,0
183376.325,480.53,-215.131,0,0
183636.65,486.831,-217.961,0,0
183896.975,492.407,-220.418,0,0
184157.3,497.344,-222.245,0,0
184417.625,502.299,-223.323,0,0
184677.95,507.54,-224.074,0,0
184938.275,512.703,-224.487,0,0
185198.6,518.344,-224.425,0,0
185458.925,524.795,-224.583,0,0
185719.25,531.197,-225.159,0,0
185979.575,537.411,-225.426,0,0
186239.9,544.37,-225.435,0,0
186500,552.174,-226.314,0,0
186761,559.223,-228.1,0,0
187021,565.696,-229.611,0,0
187281,572.179,-230.981,0,0
187542,578.629,-232.232,0,0
187802,585.12,-233.099,0,0
188062,592.267,-233.578,0,0
188322,600.311,-234.441,0,0
188583,608.714,-236.138,0,0
188843,617.265,-238.734,0,0
189103,625.075,-242.416,0,0
189364,631.596,-246.081,0,0
189624,637.728,-248.975,0,0
189884,643.947,-251.351,0,0
190145,650.124,-253.502,0,0
190405,656.387,-254.794,0,0
190665,663.421,-255.322,0,0
190926,671.948,-255.515,0,0
191186,682.294,-256.805,0,0
191446,692.931,-259.925,0,0
191707,702.628,-264.467,0,0
191967,711.414,-269.317,0,0
192227,719.433,-273.828,0,0
192488,727.483,-277.017,0,0
192748,735.255,-280.527,0,0
193008,743.469,-282.017,0,0
193269,754.346,-283.165,0,0
193529,766.981,-285.55,0,0
193789,780.715,-288.87,0,0
194050,795.854,-294.021,0,0
194310,811.23,-301.258,0,0
194570,826.86,-310.196,0,0
194831,842.032,-321.546,0,0
195091,855.993,-334.2,0,0
195351,869.062,-347.614,0,0
195612,881.949,-361.591,0,0
195872,894.771,-376.963,0,0
196132,907.116,-394.212,0,0
196393,918.025,-413.259,0,0
196653,927.006,-433.324,0,0
196913,934.389,-454.133,0,0
197174,940.369,-475.521,0,0
197434,944.469,-497.632,0,0
197694,946.619,-520.173,0,0
197955,946.396,-542.245,0,0
198215,944.63,-562.838,0,0
198475,942.416,-582.807,0,0
198735,939.383,-602.553,0,0
198996,935.625,-621.891,0,0
199256,931.275,-640.939,0,0
199516,926.438,-660.529,0,0
199777,920.071,-680.843,0,0
200037,911.301,-700.869,0,0
200297,900.108,-719.654,0,0
200558,887.79,-736.31,0,0
200818,874.863,-751.075,0,0
201078,862.39,-763.893,0,0
201339,850.883,-776.37,0,0
201599,839.04,-789.293,0,0
201859,826.184,-802.337,0,0
202120,811.916,-815.096,0,0
202380.025,795.276,-826.502,0,0
202640.35,777.093,-835.714,0,0
202900.675,758.688,-841.418,0,0
203161.0,741.68,-844.33,0,0
203421.325,726.319,-845.892,0,0
203681.65,712.469,-846.752,0,0
203941.975,699.727,-847.472,0,0
204202.3,687.808,-848.008,0,0
204462.625,676.248,-848.406,0,0
204722.95,665.413,-848.564,0,0
204983.275,654.512,-848.891,0,0
205243.6,643.433,-848.826,0,0
205503.925,632.424,-848.301,0,0
205764.25,621.227,-847.191,0,0
206024.575,609.744,-844.876,0,0
206284.9,598.631,-840.797,0,0
206545.225,588.943,-835.158,0,0
206805.55,581.123,-828.605,0,0
207065.875,575.38,-821.897,0,0
207326.2,571.37,-815.822,0,0
207586.525,568.522,-810.663,0,0
207846.85,566.634,-806.16,0,0
208107.175,565.594,-802.804,0,0
208367.5,564.663,-800.828,0,0
208627.825,563.349,-799.818,0,0
208888.15,561.398,-799.301,0,0
209148.475,558.928,-798.627,0,0
209408.8,556.341,-797.598,0,0
209669.125,553.87,-796.07,0,0
209929.45,552.217,-794.472,0,0
210189.775,551.283,-793.194,0,0
210450.1,550.47,-792.467,0,0
210710.425,549.809,-792.424,0,0
210970.75,549.004,-792.68,0,0
211231.075,548.04,-793.007,0,0
211491.4,547.081,-793.431,0,0
211751.725,546.406,-793.923,0,0
212012.05,545.917,-794.711,0,0
212272.375,545.449,-796.078,0,0
212532.7,544.968,-797.658,0,0
212793.025,544.62,-799.647,0,0
213053.35,543.951,-802.244,0,0
213313.675,542.847,-805.03,0,0
213574.0,541.511,-807.993,0,0
213834.325,539.771,-811.078,0,0
214094.65,537.858,-814.281,0,0
214354.975,535.504,-817.379,0,0
214615.3,533.073,-820.504,0,0
214875.625,530.589,-823.587,0,0
215135.95,527.751,-826.947,0,0
215396.275,524.644,-830.287,0,0
215656.6,521.277,-833.657,0,0
215916.925,517.436,-836.899,0,0
216177.25,513.432,-839.888,0,0
216437.575,509.172,-842.818,0,0
216697.9,504.557,-845.405,0,0
216958.225,500.216,-847.671,0,0
217218.55,495.696,-849.858,0,0
217478.875,491.008,-852.017,0,0
217739.2,486.361,-853.993,0,0
217999.525,481.495,-855.859,0,0
218259.85,476.481,-857.519,0,0
218520,471.487,-859.014,0,0
218780,466.286,-860.308,0,0
219041,461.159,-861.294,0,0
219301,455.966,-862.009,0,0
219561,451.025,-862.606,0,0
219822,445.98,-863.305,0,0
220082,440.702,-863.644,0,0
220342,435.357,-864.006,0,0
220603,429.915,-863.901,0,0
220863,424.402,-863.472,0,0
221123,418.84,-862.477,0,0
221384,413.73,-860.993,0,0
221644,408.896,-859.116,0,0
221904,404.658,-857.039,0,0
222165,400.839,-854.956,0,0
222425,397.372,-852.958,0,0
222685,394.28,-851.122,0,0
222946,391.393,-849.36,0,0
223206,388.558,-847.472,0,0
223466,386.108,-845.751,0,0
223727,384.011,-843.996,0,0
223987,382.209,-842.493,0,0
224247,380.651,-841.257,0,0
224508,379.189,-840.225,0,0
224768,377.926,-839.528,0,0
225028,377.099,-839.225,0,0
225289,376.033,-839.254,0,0
225549,374.942,-840.023,0,0
225809,373.595,-841.089,0,0
226070,371.669,-842.427,0,0
226330,369.56,-843.87,0,0
226590,367.049,-845.429,0,0
226851,364.151,-846.881,0,0
227111,361.028,-848.316,0,0
227371,357.634,-849.661,0,0
227632,353.916,-851.001,0,0
227892,349.949,-851.932,0,0
228152,345.77,-852.594,0,0
228413,341.72,-852.951,0,0
228673,337.725,-853.191,0,0
228933,333.779,-853.263,0,0
229193,330.037,-853.287,0,0
229454,326.131,-853.422,0,0
229714,322.306,-853.573,0,0
229974,318.392,-853.732,0,0
230235,314.431,-853.933,0,0
230495,310.023,-854.267,0,0
230755,305.235,-854.347,0,0
231016,300.395,-853.877,0,0
231276,295.562,-853.239,0,0
231536,290.749,-852.42,0,0
231797,285.973,-851.395,0,0
232057,281.185,-850.158,0,0
232317,276.521,-848.832,0,0
232578,271.857,-847.262,0,0
232838,267.294,-845.555,0,0
233098,262.814,-843.729,0,0
233359,258.202,-841.854,0,0
233619,253.669,-839.696,0,0
233879,249.122,-837.285,0,0
234140,244.775,-834.746,0,0
234400,240.446,-832.042,0,0
234660.3,236.259,-829.152,0,0
234920.625,232.123,-825.867,0,0
235180.95,228.152,-822.47,0,0
235441.275,224.576,-818.85,0,0
235701.6,221.234,-815.122,0,0
235961.925,218.136,-811.345,0,0
236222.25,215.273,-807.496,0,0
236482.575,212.708,-803.685,0,0
236742.9,210.426,-799.824,0,0
237003.225,208.337,-796.086,0,0
237263.55,206.334,-792.455,0,0
237523.875,204.485,-788.824,0,0
237784.2,202.837,-785.204,0,0
238044.525,201.338,-781.599,0,0
238304.85,199.976,-778.025,0,0
238565.175,198.835,-774.495,0,0
238825.5,198.003,-770.94,0,0
239085.825,197.491,-767.541,0,0
239346.15,197.203,-764.452,0,0
239606.475,197.019,-761.748,0,0
239866.8,196.881,-759.249,0,0
240127.125,196.646,-757.072,0,0
240387.45,196.355,-755.218,0,0
240647.775,195.86,-753.448,0,0
240908.1,195.492,-751.823,0,0
241168.425,194.806,-750.525,0,0
241428.75,193.716,-749.219,0,0
241689.075,192.516,-747.853,0,0
241949.4,191.121,-746.351,0,0
242209.725,189.677,-744.793,0,0
242470.05,188.052,-743.061,0,0
242730.375,186.365,-741.166,0,0
242990.7,184.723,-738.994,0,0
243251.025,183.283,-736.653,0,0
243511.35,181.818,-734.313,0,0
243771.675,180.599,-731.93,0,0
244032.0,179.51,-729.495,0,0
244292.325,178.486,-726.95,0,0
244552.65,177.613,-724.505,0,0
244812.975,176.9,-722.088,0,0
245073.3,176.23,-719.849,0,0
245333.625,175.517,-717.744,0,0
245593.95,174.682,-715.58,0,0
245854.275,173.921,-713.284,0,0
246114.6,173.283,-710.912,0,0
246374.925,172.808,-708.674,0,0
246635.25,172.395,-706.547,0,0
246895.575,172.05,-704.542,0,0
247155.9,171.65,-702.663,0,0
247416.225,171.151,-700.89,0,0
247676.55,170.529,-699.072,0,0
247936.875,169.856,-697.231,0,0
248197.2,169.127,-695.357,0,0
248457.525,168.291,-693.385,0,0
248717.85,167.503,-691.247,0,0
248978.175,166.852,-689.037,0,0
249238.5,166.136,-686.673,0,0
249498.825,165.636,-684.311,0,0
249759.15,165.259,-681.931,0,0
250019.475,164.934,-679.473,0,0
250279.8,164.732,-677.061,0,0
250540,164.537,-674.604,0,0
250800,164.508,-672.07,0,0
251061,164.7,-669.532,0,0
251321,165.15,-667.025,0,0
251581,165.723,-664.585,0,0
251842,166.589,-662.332,0,0
252102,167.557,-660.336,0,0
252362,168.608,-658.538,0,0
252623,169.727,-656.996,0,0
252883,170.828,-655.767,0,0
253143,171.791,-654.864,0,0
253404,172.5,-654.165,0,0
253664,172.992,-653.562,0,0
253924,173.17,-652.905,0,0
254185,173.173,-652.285,0,0
254445,173.047,-651.456,0,0
254705,172.868,-650.539,0,0
254966,172.637,-649.548,0,0
255226,172.426,-648.501,0,0
255486,172.091,-647.405,0,0
255747,171.709,-646.22,0,0
256007,171.337,-644.837,0,0
256267,171.033,-643.422,0,0
256528,170.791,-641.949,0,0
256788,170.496,-640.406,0,0
257048,170.228,-638.723,0,0
257309,170.064,-636.886,0,0
257569,170.08,-634.991,0,0
257829,170.243,-633.04,0,0
258090,170.542,-631.126,0,0
258350,170.985,-629.242,0,0
258610,171.517,-627.404,0,0
258871,172.136,-625.55,0,0
259131,172.904,-623.756,0,0
259391,173.776,-621.983,0,0
259651,174.829,-620.338,0,0
259912,176.019,-618.807,0,0
260172,177.196,-617.562,0,0
260432,178.441,-616.345,0,0
260693,179.516,-615.356,0,0
260953,180.565,-614.299,0,0
261213,181.677,-613.287,0,0
261474,182.759,-612.371,0,0
261734,183.877,-611.434,0,0
261994,185.126,-610.64,0,0
262255,186.359,-610.014,0,0
262515,187.468,-609.606,0,0
262775,188.342,-609.216,0,0
263036,189.104,-608.695,0,0
263296,189.899,-608.16,0,0
263556,190.619,-607.664,0,0
263817,191.166,-607.119,0,0
264077,191.682,-606.416,0,0
264337,192.139,-605.54,0,0
264598,192.747,-604.37,0,0
264858,193.473,-603.097,0,0
265118,194.42,-601.76,0,0
265379,195.54,-600.281,0,0
265639,196.911,-598.77,0,0
265899,198.549,-597.244,0,0
266160,200.452,-595.673,0,0
266420,202.774,-594.186,0,0
266680.25,205.47,-592.813,0,0
266940.575,208.555,-591.678,0,0
267200.9,211.969,-590.91,0,0
267461.225,215.653,-590.557,0,0
267721.55,219.579,-590.646,0,0
267981.875,223.675,-591.208,0,0
268242.2,227.895,-592.348,0,0
268502.525,232.128,-594.141,0,0
268762.85,236.129,-596.512,0,0
269023.175,239.958,-599.436,0,0
269283.5,243.362,-602.84,0,0
269543.825,246.42,-606.655,0,0
269804.15,249.157,-610.718,0,0
270064.475,251.619,-615.057,0,0
270324.8,253.782,-619.826,0,0
270585.125,255.475,-625.056,0,0
270845.45,256.544,-630.541,0,0
271105.775,257.069,-636.288,0,0
271366.1,256.861,-642.078,0,0
271626.425,256.015,-647.969,0,0
271886.75,254.578,-653.707,0,0
272147.075,252.597,-659.295,0,0
272407.4,250.107,-664.723,0,0
272667.725,247.067,-669.996,0,0
272928.05,243.491,-675.063,0,0
273188.375,239.273,-679.792,0,0
273448.7,234.626,-684.011,0,0
273709.025,229.468,-687.786,0,0
273969.35,223.949,-690.931,0,0
274229.675,218.201,-693.321,0,0
274490.0,212.378,-695.138,0,0
274750.325,206.489,-696.326,0,0
275010.65,200.673,-696.888,0,0
275270.975,195.013,-696.837,0,0
275531.3,189.61,-696.321,0,0
275791.625,184.571,-695.281,0,0
276051.95,179.897,-694.001,0,0
276312.275,175.535,-692.515,0,0
276572.6,171.533,-690.891,0,0
276832.925,167.774,-689.145,0,0
277093.25,164.242,-687.337,0,0
277353.575,160.935,-685.361,0,0
277613.9,157.858,-683.318,0,0
277874.225,154.984,-681.309,0,0
278134.55,152.289,-679.304,0,0
278394.875,149.7,-677.267,0,0
278655.2,147.166,-675.139,0,0
278915.525,144.735,-672.996,0,0
279175.85,142.497,-670.649,0,0
279436.175,140.416,-668.195,0,0
279696.5,138.627,-665.703,0,0
279956.825,137.089,-663.12,0,0
280217.15,135.816,-660.611,0,0
280477.475,134.728,-658.298,0,0
280737.8,133.846,-655.946,0,0
280998.125,133.15,-653.812,0,0
281258.45,132.564,-651.774,0,0
281518.775,132.127,-649.844,0,0
281779.1,131.773,-648.095,0,0
282039.425,131.477,-646.491,0,0
282299.75,131.236,-645.021,0,0
282560,131.013,-643.735,0,0
282820,130.739,-642.623,0,0
283081,130.374,-641.631,0,0
283341,129.865,-640.697,0,0
283601,129.279,-639.765,0,0
283862,128.606,-638.768,0,0
284122,127.921,-637.697,0,0
284382,127.222,-636.578,0,0
284643,126.525,-635.407,0,0
284903,125.962,-634.068,0,0
285163,125.424,-632.675,0,0
285424,125.086,-631.232,0,0
285684,124.983,-629.787,0,0
285944,125.144,-628.416,0,0
286205,125.488,-627.216,0,0
286465,125.987,-626.223,0,0
286725,126.619,-625.489,0,0
286986,127.308,-625.03,0,0
287246,128.03,-624.928,0,0
287506,128.693,-625.164,0,0
287767,129.199,-625.77,0,0
288027,129.408,-626.698,0,0
288287,129.212,-627.847,0,0
288548,128.564,-629.078,0,0
288808,127.489,-630.193,0,0
289068,126.174,-631.148,0,0
289329,124.619,-632.016,0,0
289589,122.835,-632.701,0,0
289849,120.757,-633.163,0,0
290109,118.586,-633.422,0,0
290370,116.349,-633.312,0,0
290630,114.144,-632.926,0,0
290890,112.047,-632.366,0,0
291151,110.05,-631.71,0,0
291411,108.107,-630.926,0,0
291671,106.236,-630.07,0,0
291932,104.454,-629.142,0,0
292192,102.625,-628.192,0,0
292452,100.806,-627.142,0,0
292713,99.0484,-625.979,0,0
292973,97.3393,-624.757,0,0
293233,95.7056,-623.45,0,0
293494,94.1501,-622.116,0,0
293754,92.6624,-620.765,0,0
294014,91.2175,-619.351,0,0
294275,89.7788,-617.922,0,0
294535,88.3514,-616.39,0,0
294795,87.0272,-614.848,0,0
295056,85.7883,-613.205,0,0
295316,84.6199,-611.533,0,0
295576,83.5248,-609.857,0,0
295837,82.5557,-608.189,0,0
296097,81.6469,-606.522,0,0
296357,80.7824,-604.901,0,0
296618,79.9649,-603.313,0,0
296878,79.1803,-601.74,0,0
297138,78.4129,-600.164,0,0
297399,77.6485,-598.603,0,0
297659,76.8927,-597.025,0,0
297919,76.1774,-595.408,0,0
298180,75.5349,-593.779,0,0
298440,74.8926,-592.121,0,0
298700.2,74.3385,-590.478,0,0
298960.525,73.8205,-588.833,0,0
299220.85,73.3233,-587.187,0,0
299481.175,72.8913,-585.537,0,0
299741.5,72.5164,-583.876,0,0
300001.825,72.1391,-582.232,0,0
300262.15,71.8664,-580.542,0,0
300522.475,71.6519,-578.879,0,0
300782.8,71.4963,-577.214,0,0
301043.125,71.4247,-575.563,0,0
301303.45,71.4381,-573.969,0,0
301563.775,71.5273,-572.38,0,0
301824.1,71.6562,-570.925,0,0
302084.425,71.8309,-569.483,0,0
302344.75,72.0428,-568.119,0,0
302605.075,72.2722,-566.824,0,0
302865.4,72.5267,-565.582,0,0
303125.725,72.7992,-564.406,0,0
303386.05,73.103,-563.257,0,0
303646.375,73.399,-562.223,0,0
303906.7,73.691,-561.191,0,0
304167.025,73.9829,-560.242,0,0
304427.35,74.2326,-559.328,0,0
304687.675,74.4986,-558.434,0,0
304948.0,74.7603,-557.58,0,0
305208.325,75.0226,-556.778,0,0
305468.65,75.2728,-555.993,0,0
305728.975,75.5446,-555.246,0,0
305989.3,75.7989,-554.581,0,0
306249.625,76.0713,-553.963,0,0
306509.95,76.2596,-553.36,0,0
306770.275,76.4641,-552.822,0,0
307030.6,76.6273,-552.303,0,0
307290.925,76.7487,-551.795,0,0
307551.25,76.8764,-551.311,0,0
307811.575,77.0047,-550.837,0,0
308071.9,77.1674,-550.423,0,0
308332.225,77.2668,-550.114,0,0
308592.55,77.3409,-549.878,0,0
308852.875,77.3066,-549.707,0,0
309113.2,77.1783,-549.537,0,0
309373.525,76.9251,-549.354,0,0
309633.85,76.5651,-549.116,0,0
309894.175,76.1772,-548.819,0,0
310154.5,75.7799,-548.468,0,0
310414.825,75.3466,-548.015,0,0
310675.15,74.9634,-547.588,0,0
310935.475,74.5688,-547.123,0,0
311195.8,74.1717,-546.638,0,0
311456.125,73.7652,-546.122,0,0
311716.45,73.4001,-545.635,0,0
311976.775,73.0158,-545.123,0,0
312237.1,72.624,-544.629,0,0
312497.425,72.2193,-544.138,0,0
312757.75,71.8125,-543.655,0,0
313018.075,71.3737,-543.158,0,0
313278.4,70.9124,-542.668,0,0
313538.725,70.4237,-542.155,0,0
313799.05,69.9048,-541.608,0,0
314059.375,69.3526,-541.032,0,0
314319.7,68.8102,-540.415,0,0
314580,68.2546,-539.777,0,0
314840,67.6895,-539.127,0,0
315101,67.2608,-538.383,0,0
315361,66.6969,-537.64,0,0
315621,66.1394,-536.873,0,0
315882,65.7189,-536.054,0,0
316142,65.2229,-535.233,0,0
316402,64.8413,-534.373,0,0
316663,64.4575,-533.475,0,0
316923,64.1097,-532.674,0,0
317183,63.8619,-531.839,0,0
317444,63.5862,-530.986,0,0
317704,63.2954,-530.161,0,0
317964,63.0601,-529.389,0,0
318225,62.8538,-528.606,0,0
318485,62.6288,-527.795,0,0
318745,62.441,-527.02,0,0
319006,62.2619,-526.219,0,0
319266,62.1126,-525.442,0,0
319526,61.9955,-524.726,0,0
319787,61.9721,-524.05,0,0
320047,61.8885,-523.522,0,0
320307,61.7655,-522.875,0,0
320567,61.6639,-522.384,0,0
320828,61.4712,-521.839,0,0
321088,61.3154,-521.369,0,0
321348,61.0743,-520.951,0,0
321609,60.7699,-520.45,0,0
321869,60.4955,-519.973,0,0
322129,60.1765,-519.587,0,0
322390,59.8852,-519.069,0,0
322650,59.5083,-518.562,0,0
322910,59.0925,-518.108,0,0
323171,58.6916,-517.577,0,0
323431,58.3365,-517.136,0,0
323691,57.9392,-516.692,0,0
323952,57.4029,-516.154,0,0
324212,56.9538,-515.647,0,0
324472,56.4287,-515.044,0,0
324733,55.7961,-514.466,0,0
324993,55.2387,-513.832,0,0
325253,54.7297,-513.182,0,0
325514,54.2315,-512.474,0,0
325774,53.6317,-511.718,0,0
326034,53.0483,-510.947,0,0
326295,52.6044,-510.153,0,0
326555,52.1174,-509.281,0,0
326815,51.6667,-508.458,0,0
327076,51.27,-507.628,0,0
327336,50.8097,-506.746,0,0
327596,50.4654,-505.882,0,0
327857,50.0351,-505.058,0,0
328117,49.7318,-504.189,0,0
328377,49.3194,-503.422,0,0
328638,49.0084,-502.535,0,0
328898,48.6715,-501.679,0,0
329158,48.352,-500.879,0,0
329419,48.0354,-499.975,0,0
329679,47.7149,-499.102,0,0
329939,47.3961,-498.257,0,0
330200,47.1286,-497.403,0,0
330460,46.9074,-496.498,0,0
330720.15,46.662,-495.596,0,0
330980.475,46.3429,-494.747,0,0
331240.8,46.0919,-493.92,0,0
331501.125,45.8787,-493.024,0,0
331761.45,45.5957,-492.147,0,0
332021.775,45.3631,-491.293,0,0
332282.1,45.1857,-490.38,0,0
332542.425,44.9985,-489.47,0,0
332802.75,44.8815,-488.606,0,0
333063.075,44.6403,-487.704,0,0
333323.4,44.4558,-486.837,0,0
333583.725,44.3962,-485.94,0,0
333844.05,44.325,-485.054,0,0
334104.375,44.1505,-484.188,0,0
334364.7,44.114,-483.305,0,0
334625.025,44.1327,-482.438,0,0
334885.35,44.076,-481.644,0,0
335145.675,44.099,-480.812,0,0
335406.0,44.031,-480.076,0,0
335666.325,44.0193,-479.333,0,0
335926.65,44.0146,-478.562,0,0
336186.975,44.005,-477.795,0,0
336447.3,43.9508,-477.105,0,0
336707.625,43.9408,-476.352,0,0
336967.95,43.9442,-475.67,0,0
337228.275,43.859,-475.001,0,0
337488.6,43.8474,-474.333,0,0
337748.925,43.8112,-473.648,0,0
338009.25,43.7569,-473.03,0,0
338269.575,43.6659,-472.387,0,0
338529.9,43.6199,-471.733,0,0
338790.225,43.5269,-471.091,0,0
339050.55,43.4981,-470.456,0,0
339310.875,43.3645,-469.863,0,0
339571.2,43.2554,-469.27,0,0
339831.525,43.1142,-468.627,0,0
340091.85,42.9546,-467.997,0,0
340352.175,42.8337,-467.327,0,0
340612.5,42.7185,-466.745,0,0
340872.825,42.507,-466.093,0,0
341133.15,42.328,-465.434,0,0
341393.475,42.1214,-464.771,0,0
341653.8,41.9137,-464.086,0,0
341914.125,41.727,-463.411,0,0
342174.45,41.5085,-462.63,0,0
342434.775,41.3604,-461.869,0,0
342695.1,41.182,-461.142,0,0
342955.425,41.049,-460.385,0,0
343215.75,40.8652,-459.655,0,0
343476.075,40.7863,-458.817,0,0
343736.4,40.6459,-458.103,0,0
343996.725,40.5728,-457.319,0,0
344257.05,40.448,-456.517,0,0
344517.375,40.327,-455.746,0,0
344777.7,40.2394,-454.986,0,0
345038.025,40.1463,-454.17,0,0
345298.35,40.0399,-453.396,0,0
345558.675,39.9972,-452.607,0,0
345819.0,39.9394,-451.753,0,0
346079.325,39.9078,-450.955,0,0
346339.65,39.8536,-450.159,0,0
346599.975,39.8913,-449.34,0,0
346860,39.8985,-448.533,0,0
347121,39.9142,-447.723,0,0
347381,39.9909,-446.937,0,0
347641,40.025,-446.095,0,0
347902,40.1,-445.364,0,0
348162,40.1762,-444.59,0,0
348422,40.3194,-443.836,0,0
348683,40.3653,-443.146,0,0
348943,40.4842,-442.402,0,0
349203,40.5904,-441.672,0,0
349464,40.6853,-440.924,0,0
349724,40.7777,-440.233,0,0
349984,40.9459,-439.518,0,0
350245,41.0516,-438.83,0,0
350505,41.145,-438.126,0,0
350765,41.3671,-437.472,0,0
351025,41.4845,-436.818,0,0
351286,41.6803,-436.142,0,0
351546,41.8369,-435.576,0,0
351806,42.0175,-434.888,0,0
352067,42.1798,-434.309,0,0
352327,42.3721,-433.752,0,0
352587,42.5056,-433.186,0,0
352848,42.6511,-432.596,0,0
353108,42.8216,-432.068,0,0
353368,42.9767,-431.476,0,0
353629,43.1123,-430.995,0,0
353889,43.2809,-430.456,0,0
354149,43.3938,-430.014,0,0
354410,43.5051,-429.454,0,0
354670,43.6109,-428.95,0,0
354930,43.7148,-428.489,0,0
355191,43.809,-427.984,0,0
355451,43.8914,-427.459,0,0
355711,43.9991,-426.994,0,0
355972,44.1153,-426.503,0,0
356232,44.1778,-425.988,0,0
356492,44.2294,-425.533,0,0
356753,44.2788,-425.035,0,0
357013,44.3637,-424.594,0,0
357273,44.4277,-424.135,0,0
357534,44.4326,-423.671,0,0
357794,44.4968,-423.186,0,0
358054,44.5555,-422.703,0,0
358315,44.5683,-422.194,0,0
358575,44.6228,-421.683,0,0
358835,44.628,-421.145,0,0
359096,44.7083,-420.648,0,0
359356,44.7263,-420.15,0,0
359616,44.779,-419.645,0,0
359877,44.8585,-419.176,0,0
360137,44.8975,-418.637,0,0
360397,44.9846,-418.152,0,0
360658,45.0375,-417.666,0,0
360918,45.0831,-417.177,0,0
361178,45.1436,-416.702,0,0
361438,45.1825,-416.209,0,0
361699,45.2265,-415.734,0,0
361959,45.2863,-415.282,0,0
362219,45.3031,-414.767,0,0
362480,45.3741,-414.279,0,0
362740.1,45.4285,-413.749,0,0
363000.425,45.4689,-413.287,0,0
363260.75,45.5375,-412.789,0,0
363521.075,45.6138,-412.314,0,0
363781.4,45.6376,-411.842,0,0
364041.725,45.7443,-411.376,0,0
364302.05,45.7576,-410.881,0,0
364562.375,45.8665,-410.382,0,0
364822.7,45.8945,-409.884,0,0
365083.025,45.9351,-409.421,0,0
365343.35,46.0506,-408.904,0,0
365603.675,46.1125,-408.465,0,0
365864.0,46.2024,-408,0,0
366124.325,46.3122,-407.518,0,0
366384.65,46.3814,-407.083,0,0
366644.975,46.463,-406.648,0,0
366905.3,46.5545,-406.195,0,0
367165.625,46.5884,-405.735,0,0
367425.95,46.6486,-405.293,0,0
367686.275,46.6991,-404.843,0,0
367946.6,46.7272,-404.374,0,0
368206.925,46.7865,-403.877,0,0
368467.25,46.8594,-403.372,0,0
368727.575,46.957,-402.901,0,0
368987.9,47.0601,-402.378,0,0
369248.225,47.1564,-401.906,0,0
369508.55,47.3137,-401.387,0,0
369768.875,47.4767,-400.888,0,0
370029.2,47.6686,-400.424,0,0
370289.525,47.8845,-399.981,0,0
370549.85,48.1185,-399.609,0,0
370810.175,48.3686,-399.239,0,0
371070.5,48.5533,-398.939,0,0
371330.825,48.7814,-398.649,0,0
371591.15,48.9506,-398.407,0,0
371851.475,49.0892,-398.153,0,0
372111.8,49.1919,-397.926,0,0
372372.125,49.3363,-397.706,0,0
372632.45,49.3754,-397.475,0,0
372892.775,49.4289,-397.251,0,0
373153.1,49.4445,-397.063,0,0
373413.425,49.4286,-396.815,0,0
373673.75,49.4002,-396.579,0,0
373934.075,49.3409,-396.351,0,0
374194.4,49.2953,-396.055,0,0
374454.725,49.2033,-395.755,0,0
374715.05,49.0975,-395.485,0,0
374975.375,48.9872,-395.178,0,0
375235.7,48.9152,-394.847,0,0
375496.025,48.7834,-394.415,0,0
375756.35,48.7162,-394.033,0,0
376016.675,48.6918,-393.625,0,0
376277.0,48.6304,-393.182,0,0
376537.325,48.6208,-392.749,0,0
376797.65,48.649,-392.333,0,0
377057.975,48.735,-391.951,0,0
377318.3,48.8135,-391.619,0,0
377578.625,48.8621,-391.293,0,0
377838.95,48.9151,-391.014,0,0
378099.275,48.9105,-390.745,0,0
378359.6,48.8698,-390.511,0,0
378619.925,48.8187,-390.292,0,0
378880,48.6916,-390.046,0,0
379141,48.508,-389.738,0,0
379401,48.3284,-389.415,0,0
379661,48.1471,-389.039,0,0
379922,48.0128,-388.534,0,0
380182,47.9295,-388.022,0,0
380442,47.9221,-387.523,0,0
380703,47.9541,-387.028,0,0
380963,48.069,-386.6,0,0
381223,48.1629,-386.211,0,0
381483,48.2872,-385.907,0,0
381744,48.4298,-385.665,0,0
382004,48.4819,-385.486,0,0
382264,48.4426,-385.346,0,0
382525,48.3818,-385.169,0,0
382785,48.2885,-385.032,0,0
383045,48.0977,-384.85,0,0
383306,47.9025,-384.686,0,0
383566,47.6848,-384.459,0,0
383826,47.3992,-384.159,0,0
384087,47.1238,-383.87,0,0
384347,46.8633,-383.565,0,0
384607,46.5686,-383.243,0,0
384868,46.2665,-382.821,0,0
385128,45.9963,-382.424,0,0
385388,45.6852,-381.961,0,0
385649,45.4508,-381.468,0,0
385909,45.1347,-380.962,0,0
386169,44.8736,-380.443,0,0
386430,44.6094,-379.915,0,0
386690,44.3971,-379.39,0,0
386950,44.1826,-378.832,0,0
387211,43.9755,-378.25,0,0
387471,43.807,-377.68,0,0
387731,43.6392,-377.056,0,0
387992,43.4759,-376.442,0,0
388252,43.3668,-375.821,0,0
388512,43.2507,-375.197,0,0
388773,43.1627,-374.586,0,0
389033,43.1106,-373.955,0,0
389293,43.0795,-373.322,0,0
389554,43.0713,-372.746,0,0
389814,43.0857,-372.128,0,0
390074,43.0968,-371.583,0,0
390335,43.1153,-371.006,0,0
390595,43.1145,-370.485,0,0
390855,43.1031,-369.94,0,0
391116,43.1172,-369.434,0,0
391376,43.1112,-368.92,0,0
391636,43.1044,-368.45,0,0
391896,43.0694,-367.908,0,0
392157,43.0618,-367.401,0,0
392417,43.0325,-366.872,0,0
392677,43.0017,-366.383,0,0
392938,42.9656,-365.865,0,0
393198,42.9523,-365.355,0,0
393458,42.8772,-364.827,0,0
393719,42.8672,-364.282,0,0
393979,42.8626,-363.761,0,0
394239,42.8394,-363.194,0,0
394500,42.8037,-362.619,0,0
394760.05,42.7782,-362.071,0,0
395020.375,42.775,-361.505,0,0
395280.7,42.7998,-360.918,0,0
395541.025,42.8329,-360.331,0,0
395801.35,42.8357,-359.766,0,0
396061.675,42.9139,-359.172,0,0
396322.0,42.9621,-358.646,0,0
396582.325,43.0406,-358.054,0,0
396842.65,43.1337,-357.538,0,0
397102.975,43.1867,-356.998,0,0
397363.3,43.2758,-356.487,0,0
397623.625,43.3449,-355.975,0,0
397883.95,43.4195,-355.482,0,0
398144.275,43.4514,-354.956,0,0
398404.6,43.5248,-354.43,0,0
398664.925,43.6022,-353.927,0,0
398925.25,43.6769,-353.434,0,0
399185.575,43.7292,-352.922,0,0
399445.9,43.7861,-352.424,0,0
399706.225,43.8362,-351.941,0,0
399966.55,43.9023,-351.433,0,0
400006.6,43.9161,-351.329,0,0