File: Accelerated corrosion test data/2025-10-15_11-00-19/sample_6.csv
Frequency (Hz),Impedance (ohms),Phase (Radians),Temperature (C),Humidity (%)
10000.0,4118.31,-6735.44,0,0
10260.325,3980.4,-6649.51,0,0
10520.65,3849.24,-6564.71,0,0
10780.975,3723.84,-6480.79,0,0
11041.3,3605.31,-6397.56,0,0
11301.625,3490.88,-6315.93,0,0
11561.95,3382.42,-6234.88,0,0
11822.275,3278.43,-6155.65,0,0
12082.6,3179.01,-6076.43,0,0
12342.925,3084.15,-5999.63,0,0
12603.25,2995.22,-5922.16,0,0
12863.575,2908.36,-5848.07,0,0
13123.9,2827.19,-5775.3,0,0
13384.225,2747.42,-5705.6,0,0
13644.55,2670.06,-5634.96,0,0
13904.875,2596.67,-5565.47,0,0
14165.2,2526.45,-5497.03,0,0
14425.525,2458.83,-5429.72,0,0
14685.8,2393.32,-5364.27,0,0
14946.175,2331.59,-5299.14,0,0
15206.5,2272.4,-5236.41,0,0
15466.825,2214.88,-5174.42,0,0
15727.15,2159.77,-5113.53,0,0
15987.5,2106.37,-5054.07,0,0
16247.8,2055.08,-4995.54,0,0
16508.125,2005.65,-4938.1,0,0
16768.45,1958.12,-4881.62,0,0
17028.775,1912.74,-4826.38,0,0
17289.1,1868.26,-4772.33,0,0
17549.425,1825.38,-4719.07,0,0
17809.75,1784.81,-4666.7,0,0
18070.075,1744.59,-4614.73,0,0
18330.4,1705.9,-4564.66,0,0
18590.725,1668.05,-4514.7,0,0
18851.05,1634.24,-4466.62,0,0
19111.375,1598.88,-4420.02,0,0
19371.7,1565.72,-4373.01,0,0
19632.025,1533.09,-4327.8,0,0
19892.35,1501.32,-4282.81,0,0
20152.675,1471.14,-4239.14,0,0
20413.0,1441.2,-4196.26,0,0
20673.3,1412.43,-4153.27,0,0
20933.65,1384.43,-4111.53,0,0
21193.975,1358.11,-4070.46,0,0
21454.3,1331.93,-4030.19,0,0
21714.625,1306.07,-3990.6,0,0
21974.9,1281.75,-3952.32,0,0
22235.275,1257.7,-3913.5,0,0
22495.6,1234.34,-3875.5,0,0
22755.925,1212.13,-3838.43,0,0
23016.25,1192.06,-3801.46,0,0
23276.6,1172.27,-3766.06,0,0
23536.9,1152.15,-3731.84,0,0
23797.225,1131.25,-3698.51,0,0
24057.55,1110.91,-3665.14,0,0
24317.875,1092.98,-3630.91,0,0
24578.2,1073.39,-3598.84,0,0
24838.525,1055.73,-3566.77,0,0
25098.85,1038.31,-3535.44,0,0
25359.175,1021.32,-3504.41,0,0
25619.5,1004.3,-3474.41,0,0
25879.8,987.979,-3443.91,0,0
26140.1,972.102,-3414.26,0,0
26400.5,956.639,-3384.91,0,0
26660.8,941.963,-3355.76,0,0
26921.1,927.999,-3327.47,0,0
27181.4,913.758,-3299.91,0,0
27441.8,900.441,-3272.86,0,0
27702.1,887.247,-3245.99,0,0
27962.4,873.745,-3220.23,0,0
28222.7,860.155,-3194.65,0,0
28483.1,847.134,-3168.98,0,0
28743.4,834.576,-3143.17,0,0
29003.7,821.638,-3117.64,0,0
29264,809.858,-3092.08,0,0
29524.4,798.667,-3067.18,0,0
29784.7,788.014,-3042.3,0,0
30045,777.712,-3018.38,0,0
30305.3,767.929,-2994.6,0,0
30565.7,758.75,-2972.06,0,0
30826,749.496,-2950.72,0,0
31086.3,738.826,-2929.41,0,0
31346.6,728.59,-2907.13,0,0
31607,719.183,-2885.32,0,0
31867.3,709.487,-2863.64,0,0
32127.6,701.638,-2841.93,0,0
32387.9,693.232,-2821.52,0,0
32648.3,685.115,-2801.11,0,0
32908.6,677.305,-2781.12,0,0
33168.9,669.976,-2762.01,0,0
33429.2,662.668,-2744.18,0,0
33689.6,653.488,-2727.12,0,0
33949.9,644.045,-2708.47,0,0
34210.2,634.951,-2689.46,0,0
34470.5,626.912,-2670.09,0,0
34730.9,619.254,-2651.15,0,0
34991.2,612.383,-2632.49,0,0
35251.5,605.534,-2615.27,0,0
35511.8,598.443,-2598.67,0,0
35772.2,589.798,-2581.72,0,0
36032.5,582.096,-2563.48,0,0
36292.8,575.136,-2545.66,0,0
36553.1,568.595,-2528.3,0,0
36813.5,562.075,-2510.87,0,0
37073.8,555.973,-2493.79,0,0
37334.1,549.811,-2477.06,0,0
37594.4,543.998,-2460.42,0,0
37854.8,538.432,-2444.59,0,0
38115.1,532.557,-2428.29,0,0
38375.4,526.906,-2411.94,0,0
38635.7,521.705,-2396.01,0,0
38896.1,516.947,-2379.94,0,0
39156.4,512.361,-2364.51,0,0
39416.7,508.294,-2349.35,0,0
39677,504.181,-2334.22,0,0
39937.4,500.369,-2319.94,0,0
40197.7,496.973,-2306.47,0,0
40458,492.916,-2293.09,0,0
40718.3,488.694,-2280.58,0,0
40978.7,483.729,-2267.23,0,0
41239,479.953,-2254.47,0,0
41499.3,475.178,-2242.48,0,0
41759.6,470.073,-2229.38,0,0
42020,465.617,-2217.05,0,0
42280.275,460.075,-2205.01,0,0
42540.6,454.677,-2192.03,0,0
42800.925,449.2,-2178.26,0,0
43061.25,445.288,-2163.98,0,0
43321.575,442.169,-2150.83,0,0
43581.9,438.893,-2138.19,0,0
43842.225,435.594,-2125.73,0,0
44102.55,431.981,-2113.12,0,0
44362.875,429.213,-2100.49,0,0
44623.2,426.736,-2088.76,0,0
44883.525,424.042,-2077.17,0,0
45143.85,421.487,-2065.9,0,0
45404.175,418.525,-2054.65,0,0
45664.5,416.239,-2043.6,0,0
45924.825,413.699,-2032.8,0,0
46185.15,411.321,-2022.65,0,0
46445.475,408.462,-2012.53,0,0
46705.8,405.826,-2002.03,0,0
46966.125,403.586,-1992.05,0,0
47226.45,400.866,-1982.14,0,0
47486.775,399.194,-1972.41,0,0
47747.1,397.087,-1963.35,0,0
48007.425,394.832,-1954.72,0,0
48267.75,392.52,-1946.38,0,0
48528.075,390.004,-1938.58,0,0
48788.4,386.776,-1931.06,0,0
49048.725,383.173,-1923.05,0,0
49309.05,379.48,-1915.72,0,0
49569.375,374.915,-1908.06,0,0
49829.7,370.072,-1899.86,0,0
50090.025,365.298,-1891.21,0,0
50350.35,360.409,-1882.07,0,0
50610.675,355.839,-1872.61,0,0
50871.0,351.672,-1863.02,0,0
51131.325,347.778,-1853.55,0,0
51391.65,344.111,-1843.64,0,0
51651.975,340.613,-1834.07,0,0
51912.3,337.429,-1824.54,0,0
52172.625,334.253,-1815.11,0,0
52432.95,331.382,-1805.61,0,0
52693.275,328.856,-1796.42,0,0
52953.6,326.221,-1787.45,0,0
53213.925,323.796,-1778.8,0,0
53474.25,321.026,-1770.32,0,0
53734.575,317.926,-1761.79,0,0
53994.9,315.147,-1752.61,0,0
54255.225,313.031,-1743.64,0,0
54515.55,310.999,-1735.02,0,0
54775.875,308.899,-1726.76,0,0
55036.2,307.004,-1718.87,0,0
55296.525,304.621,-1711.01,0,0
55556.85,302.065,-1703.05,0,0
55817.175,299.566,-1695.16,0,0
56077.5,297.045,-1686.97,0,0
56337.825,294.595,-1678.54,0,0
56598.15,292.603,-1669.95,0,0
56858.475,291.221,-1661.53,0,0
57118.8,290.087,-1653.7,0,0
57379.125,288.729,-1646.4,0,0
57639.45,287.435,-1639.24,0,0
57899.775,286.049,-1632.26,0,0
58160.1,284.108,-1625.8,0,0
58420.4,282.263,-1619.23,0,0
58680.7,280.362,-1612.61,0,0
58941.1,278.214,-1606.01,0,0
59201.4,276.018,-1599.29,0,0
59461.7,273.779,-1592.66,0,0
59722,271.461,-1585.84,0,0
59982.4,269.138,-1578.98,0,0
60242.7,267.025,-1572.12,0,0
60503,264.749,-1565.25,0,0
60763.3,262.66,-1558.34,0,0
61023.7,260.508,-1551.68,0,0
61284,258.142,-1545.05,0,0
61544.3,255.631,-1538.08,0,0
61804.6,253.211,-1530.87,0,0
62065,250.701,-1523.33,0,0
62325.3,248.944,-1515.25,0,0
62585.6,247.975,-1507.19,0,0
62845.9,247.495,-1499.72,0,0
63106.3,247.348,-1492.98,0,0
63366.6,247.329,-1486.65,0,0
63626.9,246.904,-1480.91,0,0
63887.2,246.354,-1475.49,0,0
64147.6,245.399,-1470.59,0,0
64407.9,243.713,-1465.75,0,0
64668.2,241.433,-1460.31,0,0
64928.5,239.303,-1454.43,0,0
65188.9,237.512,-1448.11,0,0
65449.2,236.051,-1441.9,0,0
65709.5,234.811,-1435.94,0,0
65969.8,233.722,-1430.2,0,0
66230.2,232.437,-1424.59,0,0
66490.5,231.034,-1419.21,0,0
66750.8,229.702,-1413.91,0,0
67011.1,228.173,-1408.54,0,0
67271.5,226.597,-1403.24,0,0
67531.8,224.903,-1397.7,0,0
67792.1,223.356,-1392.21,0,0
68052.4,221.529,-1386.66,0,0
68312.8,219.972,-1381.34,0,0
68573.1,218.481,-1375.69,0,0
68833.4,217.002,-1370.26,0,0
69093.7,215.34,-1364.93,0,0
69354.1,213.699,-1359.32,0,0
69614.4,212.399,-1353.86,0,0
69874.7,210.656,-1348.47,0,0
70135,209.32,-1343.03,0,0
70395.4,207.899,-1337.59,0,0
70655.7,206.432,-1332.25,0,0
70916,205.013,-1326.82,0,0
71176.3,203.655,-1321.35,0,0
71436.7,202.405,-1316.01,0,0
71697,201.097,-1310.64,0,0
71957.3,199.881,-1305.28,0,0
72217.6,198.731,-1299.91,0,0
72478,197.565,-1294.59,0,0
72738.3,196.467,-1289.42,0,0
72998.6,195.317,-1284.26,0,0
73258.9,194.23,-1279.13,0,0
73519.3,193.161,-1273.97,0,0
73779.6,192.141,-1268.92,0,0
74039.9,191.164,-1263.85,0,0
74300.225,190.095,-1258.95,0,0
74560.55,189.113,-1254.04,0,0
74820.875,188.152,-1249.24,0,0
75081.2,187.13,-1244.42,0,0
75341.525,186.083,-1239.68,0,0
75601.85,185.017,-1234.85,0,0
75862.175,183.94,-1230.1,0,0
76122.5,182.867,-1225.26,0,0
76382.825,181.842,-1220.49,0,0
76643.15,180.816,-1215.69,0,0
76903.475,179.783,-1210.94,0,0
77163.8,178.772,-1206.2,0,0
77424.125,177.764,-1201.44,0,0
77684.45,176.834,-1196.71,0,0
77944.775,175.836,-1191.94,0,0
78205.1,174.921,-1187.26,0,0
78465.425,173.996,-1182.55,0,0
78725.75,173.119,-1177.83,0,0
78986.075,172.225,-1173.18,0,0
79246.4,171.309,-1168.54,0,0
79506.725,170.427,-1163.86,0,0
79767.05,169.584,-1159.28,0,0
80027.375,168.837,-1154.58,0,0
80287.7,167.963,-1149.98,0,0
80548.025,167.203,-1145.3,0,0
80808.35,166.496,-1140.66,0,0
81068.675,165.807,-1136.06,0,0
81329.0,165.158,-1131.46,0,0
81589.325,164.512,-1126.92,0,0
81849.65,163.855,-1122.29,0,0
82109.975,163.344,-1117.72,0,0
82370.3,162.759,-1113.18,0,0
82630.625,162.284,-1108.68,0,0
82890.95,161.836,-1104.27,0,0
83151.275,161.398,-1099.85,0,0
83411.6,160.912,-1095.35,0,0
83671.925,160.456,-1090.96,0,0
83932.25,160.145,-1086.52,0,0
84192.575,159.78,-1082.06,0,0
84452.9,159.609,-1077.69,0,0
84713.225,159.423,-1073.27,0,0
84973.55,159.342,-1068.95,0,0
85233.875,159.266,-1064.77,0,0
85494.2,159.274,-1060.55,0,0
85754.525,159.282,-1056.45,0,0
86014.85,159.327,-1052.43,0,0
86275.175,159.385,-1048.55,0,0
86535.5,159.357,-1044.7,0,0
86795.825,159.351,-1040.81,0,0
87056.15,159.372,-1037.03,0,0
87316.475,159.314,-1033.2,0,0
87576.8,159.39,-1029.46,0,0
87837.125,159.523,-1025.61,0,0
88097.45,159.502,-1021.94,0,0
88357.775,159.505,-1018.27,0,0
88618.1,159.605,-1014.55,0,0
88878.425,159.91,-1010.99,0,0
89138.75,160.138,-1007.44,0,0
89399.075,160.558,-1004,0,0
89659.4,161.016,-1000.77,0,0
89919.725,161.425,-997.638,0,0
90180,161.538,-994.949,0,0
90440.4,161.713,-992.141,0,0
90700.7,161.679,-989.66,0,0
90961,161.465,-986.934,0,0
91221.3,160.935,-984.545,0,0
91481.7,160.358,-981.893,0,0
91742,159.367,-979.064,0,0
92002.3,158.187,-975.803,0,0
92262.6,157.454,-972.375,0,0
92523,157.116,-968.86,0,0
92783.3,156.712,-965.497,0,0
93043.6,156.271,-962.305,0,0
93303.9,155.634,-958.982,0,0
93564.3,155.127,-955.357,0,0
93824.6,154.83,-951.727,0,0
94084.9,154.649,-948.138,0,0
94345.2,154.663,-944.504,0,0
94605.6,154.858,-941.132,0,0
94865.9,155.074,-937.977,0,0
95126.2,155.228,-934.822,0,0
95386.5,155.373,-931.681,0,0
95646.9,155.521,-928.657,0,0
95907.2,155.809,-925.7,0,0
96167.5,156.054,-922.947,0,0
96427.8,156.19,-920.391,0,0
96688.2,156.201,-917.883,0,0
96948.5,156.14,-915.414,0,0
97208.8,155.894,-913.031,0,0
97469.1,155.455,-910.572,0,0
97729.5,154.809,-907.893,0,0
97989.8,154.33,-904.958,0,0
98250.1,153.859,-901.962,0,0
98510.4,153.571,-898.823,0,0
98770.8,153.422,-895.72,0,0
99031.1,153.497,-892.724,0,0
99291.4,153.66,-889.811,0,0
99551.7,153.962,-887.101,0,0
99812.1,154.152,-884.628,0,0
100072,154.309,-882.148,0,0
100333,154.4,-879.831,0,0
100593,154.49,-877.659,0,0
100853,154.459,-875.63,0,0
101114,154.171,-873.639,0,0
101374,153.686,-871.594,0,0
101634,153.115,-869.367,0,0
101895,152.6,-866.986,0,0
102155,152.255,-864.666,0,0
102415,151.93,-862.506,0,0
102676,151.484,-860.429,0,0
102936,150.93,-858.426,0,0
103196,150.236,-856.375,0,0
103457,149.526,-854.295,0,0
103717,148.78,-852.307,0,0
103977,147.786,-850.279,0,0
104238,146.725,-848.26,0,0
104498,145.583,-846.249,0,0
104758,144.211,-844.263,0,0
105019,142.537,-842.059,0,0
105279,140.707,-839.647,0,0
105539,138.659,-836.987,0,0
105800,136.492,-833.904,0,0
106060,134.532,-830.306,0,0
106320.175,132.616,-826.498,0,0
106580.5,131.048,-822.127,0,0
106840.825,130.134,-817.621,0,0
107101.15,129.652,-813.219,0,0
107361.475,129.3,-809.091,0,0
107621.8,129.145,-805.079,0,0
107882.125,129.09,-801.054,0,0
108142.45,129.268,-797.164,0,0
108402.775,129.53,-793.403,0,0
108663.1,129.83,-789.805,0,0
108923.425,130.11,-786.27,0,0
109183.75,130.496,-782.731,0,0
109444.075,130.978,-779.206,0,0
109704.4,131.522,-775.619,0,0
109964.725,132.369,-772.242,0,0
110225.05,133.27,-769.077,0,0
110485.375,134.229,-766.093,0,0
110745.7,135.127,-763.132,0,0
111006.025,136.093,-760.324,0,0
111266.35,137.218,-757.534,0,0
111526.675,138.433,-755.082,0,0
111787.0,139.537,-752.911,0,0
112047.325,140.417,-750.873,0,0
112307.65,141.195,-749.035,0,0
112567.975,142.027,-747.294,0,0
112828.3,142.607,-745.667,0,0
113088.625,142.924,-744.14,0,0
113348.95,143.141,-742.607,0,0
113609.275,143.045,-741.013,0,0
113869.6,142.792,-739.331,0,0
114129.925,142.336,-737.428,0,0
114390.25,142.069,-735.161,0,0
114650.575,141.939,-732.75,0,0
114910.9,142.058,-730.401,0,0
115171.225,142.452,-728.145,0,0
115431.55,143.014,-726.222,0,0
115691.875,143.477,-724.706,0,0
115952.2,143.658,-723.507,0,0
116212.525,143.436,-722.283,0,0
116472.85,142.979,-721.114,0,0
116733.175,142.22,-719.848,0,0
116993.5,141.141,-718.517,0,0
117253.825,139.777,-716.847,0,0
117514.15,138.23,-714.785,0,0
117774.475,136.804,-712.28,0,0
118034.8,135.57,-709.502,0,0
118295.125,134.489,-706.595,0,0
118555.45,133.635,-703.51,0,0
118815.775,132.935,-700.386,0,0
119076.1,132.372,-697.17,0,0
119336.425,132.097,-693.848,0,0
119596.75,132.003,-690.702,0,0
119857.075,131.975,-687.516,0,0
120117.4,132.155,-684.261,0,0
120377.725,132.691,-681.067,0,0
120638.05,133.457,-678.217,0,0
120898.375,134.305,-675.682,0,0
121158.7,135.21,-673.414,0,0
121419.025,135.956,-671.634,0,0
121679.35,136.283,-670.163,0,0
121939.675,136.147,-668.605,0,0
122200.0,135.733,-666.801,0,0
122460,135.214,-664.686,0,0
122721,134.785,-662.39,0,0
122981,134.455,-659.934,0,0
123241,134.247,-657.469,0,0
123502,134.127,-654.986,0,0
123762,134.071,-652.542,0,0
124022,134.074,-650.127,0,0
124283,134.092,-647.826,0,0
124543,134.074,-645.589,0,0
124803,133.935,-643.387,0,0
125064,133.759,-641.12,0,0
125324,133.498,-638.818,0,0
125584,133.235,-636.463,0,0
125845,133.014,-634.003,0,0
126105,132.771,-631.544,0,0
126365,132.582,-629.044,0,0
126626,132.333,-626.506,0,0
126886,132.09,-623.878,0,0
127146,131.929,-621.172,0,0
127406,131.844,-618.421,0,0
127667,131.799,-615.648,0,0
127927,131.832,-612.865,0,0
128187,131.94,-610.007,0,0
128448,132.091,-607.166,0,0
128708,132.422,-604.292,0,0
128968,132.848,-601.519,0,0
129229,133.345,-598.848,0,0
129489,133.789,-596.251,0,0
129749,134.288,-593.721,0,0
130010,134.764,-591.209,0,0
130270,135.173,-588.746,0,0
130530,135.601,-586.266,0,0
130791,136.054,-583.741,0,0
131051,136.525,-581.253,0,0
131311,137.046,-578.745,0,0
131572,137.606,-576.27,0,0
131832,138.205,-573.809,0,0
132092,138.836,-571.381,0,0
132353,139.438,-569.017,0,0
132613,140.073,-566.578,0,0
132873,140.792,-564.207,0,0
133134,141.577,-561.975,0,0
133394,142.334,-559.773,0,0
133654,143.065,-557.62,0,0
133915,143.777,-555.504,0,0
134175,144.448,-553.44,0,0
134435,145.106,-551.366,0,0
134696,145.763,-549.313,0,0
134956,146.429,-547.282,0,0
135216,147.065,-545.269,0,0
135477,147.68,-543.226,0,0
135737,148.29,-541.244,0,0
135997,148.963,-539.189,0,0
136258,149.636,-537.19,0,0
136518,150.374,-535.221,0,0
136778,151.15,-533.326,0,0
137039,151.943,-531.482,0,0
137299,152.714,-529.762,0,0
137559,153.421,-528.156,0,0
137819,154.078,-526.57,0,0
138080,154.618,-525.106,0,0
138340.125,155.054,-523.677,0,0
138600.45,155.234,-522.13,0,0
138860.775,155.516,-520.703,0,0
139121.1,155.608,-519.006,0,0
139381.425,155.673,-517.244,0,0
139641.75,155.839,-515.47,0,0
139902.075,155.959,-513.666,0,0
140162.4,156.004,-511.798,0,0
140422.725,156.137,-509.841,0,0
140683.05,156.362,-507.827,0,0
140943.375,156.62,-505.793,0,0
141203.7,157.027,-503.889,0,0
141464.025,157.374,-502.084,0,0
141724.35,157.579,-500.382,0,0
141984.675,157.827,-498.698,0,0
142245.0,157.755,-497.03,0,0
142505.325,157.678,-495.238,0,0
142765.65,157.557,-493.193,0,0
143025.975,157.361,-491.14,0,0
143286.3,157.167,-488.923,0,0
143546.625,157.127,-486.619,0,0
143806.95,157.19,-484.282,0,0
144067.275,157.358,-481.884,0,0
144327.6,157.533,-479.509,0,0
144587.925,157.835,-477.125,0,0
144848.25,158.167,-474.655,0,0
145108.575,158.589,-472.253,0,0
145368.9,159.153,-470.017,0,0
145629.225,159.764,-467.798,0,0
145889.55,160.243,-465.752,0,0
146149.875,160.668,-463.616,0,0
146410.2,161.176,-461.646,0,0
146670.525,161.585,-459.778,0,0
146930.85,161.877,-457.93,0,0
147191.175,162.038,-456.096,0,0
147451.5,162.044,-454.114,0,0
147711.825,161.907,-452.097,0,0
147972.15,161.675,-449.851,0,0
148232.475,161.572,-447.45,0,0
148492.8,161.438,-444.958,0,0
148753.125,161.329,-442.307,0,0
149013.45,161.329,-439.603,0,0
149273.775,161.386,-436.818,0,0
149534.1,161.515,-433.93,0,0
149794.425,161.794,-430.952,0,0
150054.75,162.317,-427.9,0,0
150315.075,162.863,-424.904,0,0
150575.4,163.386,-422.043,0,0
150835.725,164.023,-419.164,0,0
151096.05,164.661,-416.202,0,0
151356.375,165.286,-413.164,0,0
151616.7,166.162,-409.988,0,0
151877.025,167.182,-406.776,0,0
152137.35,168.422,-403.742,0,0
152397.675,169.868,-400.868,0,0
152658.0,171.326,-398.058,0,0
152918.325,172.826,-395.506,0,0
153178.65,174.288,-393.142,0,0
153438.975,175.615,-390.927,0,0
153699.3,176.823,-388.675,0,0
153959.625,177.972,-386.426,0,0
154219.95,179.014,-384.112,0,0
154480,179.978,-381.805,0,0
154741,180.913,-379.395,0,0
155001,181.969,-376.76,0,0
155261,183.175,-374.097,0,0
155522,184.476,-371.423,0,0
155782,185.949,-368.831,0,0
156042,187.496,-366.335,0,0
156303,189.125,-364.001,0,0
156563,190.817,-361.765,0,0
156823,192.478,-359.761,0,0
157084,194.028,-357.962,0,0
157344,195.473,-356.26,0,0
157604,196.617,-354.566,0,0
157864,197.599,-352.834,0,0
158125,198.481,-350.996,0,0
158385,199.317,-348.989,0,0
158645,200.213,-346.876,0,0
158906,201.082,-344.734,0,0
159166,201.941,-342.534,0,0
159426,202.868,-340.334,0,0
159687,203.816,-338.11,0,0
159947,204.742,-335.896,0,0
160207,205.586,-333.676,0,0
160468,206.447,-331.32,0,0
160728,207.283,-328.938,0,0
160988,208.262,-326.526,0,0
161249,209.174,-324.056,0,0
161509,210.083,-321.628,0,0
161769,210.93,-319.142,0,0
162030,211.8,-316.559,0,0
162290,212.708,-313.917,0,0
162550,213.684,-311.238,0,0
162811,214.67,-308.493,0,0
163071,215.717,-305.763,0,0
163331,216.799,-302.959,0,0
163592,217.953,-300.256,0,0
163852,219.068,-297.533,0,0
164112,220.137,-294.804,0,0
164373,221.131,-292.033,0,0
164633,222.121,-289.171,0,0
164893,223.096,-286.192,0,0
165154,224.089,-283.117,0,0
165414,225.15,-279.931,0,0
165674,226.323,-276.68,0,0
165935,227.481,-273.371,0,0
166195,228.816,-269.968,0,0
166455,230.13,-266.575,0,0
166716,231.566,-263.123,0,0
166976,233.009,-259.648,0,0
167236,234.506,-256.132,0,0
167497,236.034,-252.518,0,0
167757,237.669,-248.879,0,0
168017,239.331,-245.157,0,0
168277,241.135,-241.351,0,0
168538,243.055,-237.541,0,0
168798,245.059,-233.727,0,0
169058,247.143,-229.921,0,0
169319,249.3,-226.082,0,0
169579,251.478,-222.273,0,0
169839,253.738,-218.44,0,0
170100,255.973,-214.557,0,0
170360.075,258.288,-210.613,0,0
170620.4,260.663,-206.612,0,0
170880.725,263.17,-202.573,0,0
171141.05,265.701,-198.517,0,0
171401.375,268.29,-194.391,0,0
171661.7,270.915,-190.202,0,0
171922.025,273.669,-185.922,0,0
172182.35,276.504,-181.583,0,0
172442.675,279.404,-177.173,0,0
172703.0,282.447,-172.729,0,0
172963.325,285.607,-168.15,0,0
173223.65,288.888,-163.568,0,0
173483.975,292.284,-158.896,0,0
173744.3,295.848,-154.17,0,0
174004.625,299.469,-149.361,0,0
174264.95,303.335,-144.461,0,0
174525.275,307.357,-139.506,0,0
174785.6,311.549,-134.475,0,0
175045.925,315.993,-129.405,0,0
175306.25,320.635,-124.333,0,0
175566.575,325.504,-119.23,0,0
175826.9,330.577,-114.138,0,0
176087.225,335.892,-109.101,0,0
176347.55,341.389,-104.099,0,0
176607.875,347.146,-99.099,0,0
176868.2,353.115,-94.1652,0,0
177128.525,359.328,-89.2412,0,0
177388.85,365.724,-84.4431,0,0
177649.175,372.34,-79.6905,0,0
177909.5,379.233,-75.077,0,0
178169.825,386.249,-70.5639,0,0
178430.15,393.454,-66.0772,0,0
178690.475,400.955,-61.7057,0,0
178950.8,408.688,-57.4782,0,0
179211.125,416.689,-53.4182,0,0
179471.45,424.864,-49.5607,0,0
179731.775,433.179,-46.0101,0,0
179992.1,441.568,-42.6193,0,0
180252.425,450.013,-39.4127,0,0
180512.75,458.467,-36.3339,0,0
180773.075,467.01,-33.354,0,0
181033.4,475.555,-30.3704,0,0
181293.725,484.265,-27.3359,0,0
181554.05,493.09,-24.3582,0,0
181814.375,502.154,-21.4923,0,0
182074.7,511.459,-18.6261,0,0
182335.025,520.962,-15.8627,0,0
182595.35,530.636,-13.2503,0,0
182855.675,540.592,-10.8251,0,0
183116.0,550.647,-8.43821,0,0
183376.325,560.814,-6.21396,0,0
183636.65,571.159,-4.05432,0,0
183896.975,581.631,-1.96533,0,0
184157.3,592.33,0.185713,0,0
184417.625,603.249,2.28081,0,0
184677.95,614.474,4.41671,0,0
184938.275,626.015,6.61322,0,0
185198.6,638.029,8.69292,0,0
185458.925,650.498,10.7771,0,0
185719.25,663.514,12.7582,0,0
185979.575,677.088,14.5383,0,0
186239.9,691.292,16.0791,0,0
186500,706.203,17.2799,0,0
186761,721.673,17.9525,0,0
187021,737.687,18.1203,0,0
187281,754.217,17.7122,0,0
187542,771.237,16.6625,0,0
187802,788.696,15.0059,0,0
188062,806.581,12.6752,0,0
188322,824.965,9.63981,0,0
188583,843.778,5.78351,0,0
188843,863.004,1.06106,0,0
189103,882.587,-4.6198,0,0
189364,902.432,-11.2924,0,0
189624,922.516,-18.8992,0,0
189884,942.937,-27.7685,0,0
190145,963.266,-37.7822,0,0
190405,983.793,-48.7849,0,0
190665,1004.14,-61.3226,0,0
190926,1024.43,-75.3579,0,0
191186,1044.16,-90.5121,0,0
191446,1063.48,-106.95,0,0
191707,1082.13,-124.711,0,0
191967,1100.09,-143.595,0,0
192227,1117.29,-163.683,0,0
192488,1133.61,-184.756,0,0
192748,1148.9,-206.793,0,0
193008,1163.3,-229.64,0,0
193269,1176.82,-253.462,0,0
193529,1189.16,-278.11,0,0
193789,1200.6,-303.53,0,0
194050,1210.79,-329.758,0,0
194310,1219.78,-356.732,0,0
194570,1227.6,-384.305,0,0
194831,1233.82,-412.406,0,0
195091,1238.57,-441.373,0,0
195351,1242,-470.279,0,0
195612,1243.61,-499.747,0,0
195872,1243.59,-528.882,0,0
196132,1242.17,-558.256,0,0
196393,1239.02,-587.51,0,0
196653,1234.4,-616.345,0,0
196913,1228.27,-644.885,0,0
197174,1220.53,-673.014,0,0
197434,1211.52,-700.204,0,0
197694,1201.13,-726.761,0,0
197955,1189.26,-752.535,0,0
198215,1176.29,-777.198,0,0
198475,1162.44,-800.96,0,0
198735,1147.49,-823.579,0,0
198996,1132,-845.1,0,0
199256,1115.48,-865.496,0,0
199516,1098.55,-884.968,0,0
199777,1081.1,-903.497,0,0
200037,1062.93,-921.4,0,0
200297,1044.26,-937.417,0,0
200558,1025.36,-952.871,0,0
200818,1006.09,-966.823,0,0
201078,986.311,-979.919,0,0
201339,966.416,-991.845,0,0
201599,946.309,-1002.47,0,0
201859,926.373,-1012.17,0,0
202120,906.126,-1020.85,0,0
202380.025,886.422,-1028.35,0,0
202640.35,866.854,-1034.88,0,0
202900.675,847.645,-1040.76,0,0
203161.0,828.86,-1045.45,0,0
203421.325,810.06,-1049.53,0,0
203681.65,792.119,-1052.79,0,0
203941.975,773.996,-1055.38,0,0
204202.3,756.468,-1057.34,0,0
204462.625,739.765,-1059.02,0,0
204722.95,723.263,-1060.03,0,0
204983.275,706.628,-1060.54,0,0
205243.6,691.282,-1060.94,0,0
205503.925,675.581,-1060.67,0,0
205764.25,660.373,-1060,0,0
206024.575,645.628,-1058.82,0,0
206284.9,631.316,-1057.63,0,0
206545.225,617.159,-1055.67,0,0
206805.55,603.526,-1053.86,0,0
207065.875,590.143,-1051.38,0,0
207326.2,577.393,-1048.83,0,0
207586.525,564.815,-1046,0,0
207846.85,552.58,-1043.05,0,0
208107.175,540.684,-1039.82,0,0
208367.5,529.172,-1036.26,0,0
208627.825,517.984,-1032.62,0,0
208888.15,507.196,-1029.02,0,0
209148.475,496.682,-1025.17,0,0
209408.8,486.428,-1021.35,0,0
209669.125,476.287,-1017.29,0,0
209929.45,467.03,-1013.08,0,0
210189.775,457.615,-1008.98,0,0
210450.1,448.509,-1004.71,0,0
210710.425,439.591,-1000.52,0,0
210970.75,430.791,-996.251,0,0
211231.075,422.207,-991.869,0,0
211491.4,413.868,-987.272,0,0
211751.725,405.763,-982.578,0,0
212012.05,397.822,-977.873,0,0
212272.375,390.302,-973.026,0,0
212532.7,382.924,-967.983,0,0
212793.025,375.972,-963.086,0,0
213053.35,369.204,-958.194,0,0
213313.675,362.624,-953.257,0,0
213574.0,356.179,-948.455,0,0
213834.325,349.894,-943.669,0,0
214094.65,343.905,-938.575,0,0
214354.975,338.025,-933.633,0,0
214615.3,332.271,-928.686,0,0
214875.625,326.596,-923.649,0,0
215135.95,321.376,-918.752,0,0
215396.275,316.265,-913.673,0,0
215656.6,311.332,-908.594,0,0
215916.925,306.51,-903.719,0,0
216177.25,301.921,-898.814,0,0
216437.575,297.493,-893.994,0,0
216697.9,293.15,-889.075,0,0
216958.225,288.967,-884.285,0,0
217218.55,284.868,-879.549,0,0
217478.875,280.9,-874.809,0,0
217739.2,277.069,-870.182,0,0
217999.525,273.353,-865.439,0,0
218259.85,269.738,-860.784,0,0
218520,266.147,-856.114,0,0
218780,262.757,-851.457,0,0
219041,259.438,-846.923,0,0
219301,256.334,-842.18,0,0
219561,253.213,-837.755,0,0
219822,250.228,-833.148,0,0
220082,247.273,-828.68,0,0
220342,244.436,-824.132,0,0
220603,241.707,-819.766,0,0
220863,239.069,-815.267,0,0
221123,236.505,-810.73,0,0
221384,234.156,-806.31,0,0
221644,231.765,-801.867,0,0
221904,229.528,-797.41,0,0
222165,227.371,-793.018,0,0
222425,225.314,-788.629,0,0
222685,223.23,-784.278,0,0
222946,221.357,-779.837,0,0
223206,219.549,-775.467,0,0
223466,217.939,-771.069,0,0
223727,216.362,-766.865,0,0
223987,214.905,-762.468,0,0
224247,213.522,-758.184,0,0
224508,212.195,-753.788,0,0
224768,211.046,-749.722,0,0
225028,210.092,-745.64,0,0
225289,209.082,-741.345,0,0
225549,208.35,-737.366,0,0
225809,207.695,-733.298,0,0
226070,207.033,-729.379,0,0
226330,206.517,-725.627,0,0
226590,205.999,-721.893,0,0
226851,205.549,-718.247,0,0
227111,205.058,-714.713,0,0
227371,204.677,-711.062,0,0
227632,204.336,-707.714,0,0
227892,203.885,-704.236,0,0
228152,203.566,-700.83,0,0
228413,203.234,-697.396,0,0
228673,202.942,-693.995,0,0
228933,202.746,-690.599,0,0
229193,202.536,-687.302,0,0
229454,202.387,-683.949,0,0
229714,202.313,-680.491,0,0
229974,202.374,-677.214,0,0
230235,202.401,-673.909,0,0
230495,202.591,-670.668,0,0
230755,202.755,-667.355,0,0
231016,203.029,-664.221,0,0
231276,203.364,-660.88,0,0
231536,203.767,-657.722,0,0
231797,204.264,-654.532,0,0
232057,204.842,-651.401,0,0
232317,205.471,-648.327,0,0
232578,206.218,-645.27,0,0
232838,207.041,-642.232,0,0
233098,207.89,-639.337,0,0
233359,208.898,-636.369,0,0
233619,209.965,-633.471,0,0
233879,211.116,-630.694,0,0
234140,212.255,-627.907,0,0
234400,213.603,-625.303,0,0
234660.3,214.939,-622.653,0,0
234920.625,216.468,-620.134,0,0
235180.95,217.986,-617.688,0,0
235441.275,219.609,-615.262,0,0
235701.6,221.303,-612.973,0,0
235961.925,223.057,-610.81,0,0
236222.25,224.872,-608.686,0,0
236482.575,226.727,-606.683,0,0
236742.9,228.673,-604.785,0,0
237003.225,230.628,-603.017,0,0
237263.55,232.71,-601.313,0,0
237523.875,234.772,-599.752,0,0
237784.2,236.931,-598.347,0,0
238044.525,239.144,-596.968,0,0
238304.85,241.367,-595.766,0,0
238565.175,243.577,-594.69,0,0
238825.5,245.868,-593.714,0,0
239085.825,248.101,-592.888,0,0
239346.15,250.421,-592.093,0,0
239606.475,252.721,-591.662,0,0
239866.8,255.02,-591.116,0,0
240127.125,257.351,-590.811,0,0
240387.45,259.61,-590.624,0,0
240647.775,261.827,-590.631,0,0
240908.1,264.088,-590.738,0,0
241168.425,266.241,-590.936,0,0
241428.75,268.397,-591.2,0,0
241689.075,270.505,-591.696,0,0
241949.4,272.529,-592.25,0,0
242209.725,274.527,-592.93,0,0
242470.05,276.446,-593.697,0,0
242730.375,278.298,-594.562,0,0
242990.7,280.107,-595.48,0,0
243251.025,281.933,-596.53,0,0
243511.35,283.669,-597.692,0,0
243771.675,285.429,-598.909,0,0
244032.0,287.158,-600.384,0,0
244292.325,288.763,-602.053,0,0
244552.65,290.282,-603.733,0,0
244812.975,291.634,-605.842,0,0
245073.3,292.72,-607.993,0,0
245333.625,293.57,-610.237,0,0
245593.95,294.233,-612.474,0,0
245854.275,294.639,-614.738,0,0
246114.6,294.86,-616.903,0,0
246374.925,294.835,-619.081,0,0
246635.25,294.76,-621.163,0,0
246895.575,294.506,-623.095,0,0
247155.9,294.237,-625.083,0,0
247416.225,293.847,-626.956,0,0
247676.55,293.372,-628.789,0,0
247936.875,292.792,-630.468,0,0
248197.2,292.193,-632.142,0,0
248457.525,291.483,-633.805,0,0
248717.85,290.738,-635.187,0,0
248978.175,289.969,-636.687,0,0
249238.5,289.251,-637.926,0,0
249498.825,288.542,-639.149,0,0
249759.15,288.034,-640.407,0,0
250019.475,287.575,-641.595,0,0
250279.8,287.228,-642.938,0,0
250540,286.778,-644.314,0,0
250800,286.482,-645.971,0,0
251061,286.013,-647.65,0,0
251321,285.448,-649.526,0,0
251581,284.731,-651.452,0,0
251842,283.871,-653.373,0,0
252102,282.933,-655.335,0,0
252362,281.909,-657.347,0,0
252623,280.777,-659.373,0,0
252883,279.464,-661.435,0,0
253143,278.04,-663.557,0,0
253404,276.42,-665.638,0,0
253664,274.654,-667.741,0,0
253924,272.685,-669.814,0,0
254185,270.57,-671.788,0,0
254445,268.201,-673.682,0,0
254705,265.841,-675.403,0,0
254966,263.221,-676.936,0,0
255226,260.482,-678.436,0,0
255486,257.822,-679.853,0,0
255747,254.934,-681.055,0,0
256007,252.082,-682.151,0,0
256267,249.171,-682.913,0,0
256528,246.191,-683.666,0,0
256788,243.225,-684.272,0,0
257048,240.325,-684.756,0,0
257309,237.345,-685.096,0,0
257569,234.458,-685.333,0,0
257829,231.555,-685.451,0,0
258090,228.743,-685.429,0,0
258350,225.916,-685.373,0,0
258610,223.133,-685.236,0,0
258871,220.339,-684.997,0,0
259131,217.665,-684.693,0,0
259391,214.956,-684.269,0,0
259651,212.316,-683.836,0,0
259912,209.803,-683.303,0,0
260172,207.143,-682.776,0,0
260432,204.693,-682.19,0,0
260693,202.178,-681.503,0,0
260953,199.705,-680.72,0,0
261213,197.321,-679.988,0,0
261474,194.94,-679.122,0,0
261734,192.629,-678.207,0,0
261994,190.37,-677.327,0,0
262255,188.153,-676.345,0,0
262515,186.006,-675.319,0,0
262775,183.863,-674.312,0,0
263036,181.778,-673.228,0,0
263296,179.715,-672.133,0,0
263556,177.795,-671.026,0,0
263817,175.834,-669.861,0,0
264077,173.906,-668.71,0,0
264337,172.098,-667.572,0,0
264598,170.268,-666.428,0,0
264858,168.505,-665.237,0,0
265118,166.77,-663.964,0,0
265379,165.084,-662.841,0,0
265639,163.407,-661.561,0,0
265899,161.774,-660.421,0,0
266160,160.172,-659.154,0,0
266420,158.669,-657.913,0,0
266680.25,157.045,-656.777,0,0
266940.575,155.596,-655.48,0,0
267200.9,154.057,-654.28,0,0
267461.225,152.61,-653.067,0,0
267721.55,151.21,-651.84,0,0
267981.875,149.775,-650.616,0,0
268242.2,148.376,-649.411,0,0
268502.525,147.027,-648.11,0,0
268762.85,145.7,-646.934,0,0
269023.175,144.319,-645.684,0,0
269283.5,142.991,-644.455,0,0
269543.825,141.719,-643.191,0,0
269804.15,140.513,-641.93,0,0
270064.475,139.151,-640.744,0,0
270324.8,137.946,-639.435,0,0
270585.125,136.798,-638.23,0,0
270845.45,135.592,-636.974,0,0
271105.775,134.386,-635.686,0,0
271366.1,133.246,-634.48,0,0
271626.425,132.133,-633.289,0,0
271886.75,130.979,-631.966,0,0
272147.075,129.887,-630.691,0,0
272407.4,128.784,-629.392,0,0
272667.725,127.735,-628.183,0,0
272928.05,126.66,-626.874,0,0
273188.375,125.643,-625.627,0,0
273448.7,124.597,-624.371,0,0
273709.025,123.591,-623.119,0,0
273969.35,122.61,-621.869,0,0
274229.675,121.658,-620.609,0,0
274490.0,120.684,-619.324,0,0
274750.325,119.746,-618.078,0,0
275010.65,118.779,-616.906,0,0
275270.975,117.871,-615.583,0,0
275531.3,116.98,-614.308,0,0
275791.625,116.102,-613.049,0,0
276051.95,115.187,-611.8,0,0
276312.275,114.323,-610.536,0,0
276572.6,113.478,-609.235,0,0
276832.925,112.643,-607.975,0,0
277093.25,111.795,-606.721,0,0
277353.575,110.952,-605.431,0,0
277613.9,110.157,-604.168,0,0
277874.225,109.364,-602.857,0,0
278134.55,108.592,-601.561,0,0
278394.875,107.843,-600.253,0,0
278655.2,107.1,-598.908,0,0
278915.525,106.354,-597.623,0,0
279175.85,105.674,-596.29,0,0
279436.175,105.048,-594.869,0,0
279696.5,104.499,-593.546,0,0
279956.825,103.89,-592.137,0,0
280217.15,103.44,-590.892,0,0
280477.475,102.955,-589.529,0,0
280737.8,102.524,-588.266,0,0
280998.125,102.163,-587.062,0,0
281258.45,101.795,-585.901,0,0
281518.775,101.397,-584.787,0,0
281779.1,101.018,-583.73,0,0
282039.425,100.6,-582.68,0,0
282299.75,100.174,-581.656,0,0
282560,99.7342,-580.654,0,0
282820,99.2109,-579.575,0,0
283081,98.772,-578.58,0,0
283341,98.2929,-577.553,0,0
283601,97.784,-576.467,0,0
283862,97.335,-575.458,0,0
284122,96.8911,-574.348,0,0
284382,96.4287,-573.259,0,0
284643,96.0618,-572.183,0,0
284903,95.7228,-571.143,0,0
285163,95.2673,-570.056,0,0
285424,95.0256,-569.079,0,0
285684,94.6742,-568.123,0,0
285944,94.3099,-567.107,0,0
286205,94.0479,-566.232,0,0
286465,93.729,-565.312,0,0
286725,93.3811,-564.52,0,0
286986,93.0771,-563.683,0,0
287246,92.6487,-562.841,0,0
287506,92.1962,-562.02,0,0
287767,91.7482,-561.184,0,0
288027,91.3649,-560.437,0,0
288287,90.7918,-559.485,0,0
288548,90.4688,-558.672,0,0
288808,89.8988,-557.84,0,0
289068,89.3981,-556.877,0,0
289329,88.9228,-556.018,0,0
289589,88.475,-555.169,0,0
289849,87.9958,-554.253,0,0
290109,87.6336,-553.304,0,0
290370,87.1374,-552.451,0,0
290630,86.6992,-551.61,0,0
290890,86.3272,-550.714,0,0
291151,85.9417,-549.749,0,0
291411,85.474,-548.924,0,0
291671,85.0666,-548.085,0,0
291932,84.7416,-547.189,0,0
292192,84.2732,-546.274,0,0
292452,83.8007,-545.565,0,0
292713,83.4686,-544.71,0,0
292973,83.0303,-543.877,0,0
293233,82.5535,-543.035,0,0
293494,82.0884,-542.191,0,0
293754,81.6091,-541.461,0,0
294014,81.0796,-540.516,0,0
294275,80.6275,-539.616,0,0
294535,80.1642,-538.782,0,0
294795,79.5842,-537.829,0,0
295056,79.1673,-536.984,0,0
295316,78.6574,-536.057,0,0
295576,78.1697,-535.113,0,0
295837,77.7412,-534.082,0,0
296097,77.3181,-533.09,0,0
296357,76.9355,-532.108,0,0
296618,76.484,-531.08,0,0
296878,76.087,-530.032,0,0
297138,75.7233,-529.054,0,0
297399,75.5155,-527.98,0,0
297659,75.1867,-527.034,0,0
297919,74.8955,-525.955,0,0
298180,74.7637,-525.028,0,0
298440,74.5778,-524.073,0,0
298700.2,74.3616,-523.14,0,0
298960.525,74.2276,-522.28,0,0
299220.85,74.0538,-521.429,0,0
299481.175,73.8223,-520.729,0,0
299741.5,73.6263,-519.819,0,0
300001.825,73.271,-519.069,0,0
300262.15,73.0863,-518.274,0,0
300522.475,72.7802,-517.492,0,0
300782.8,72.5126,-516.669,0,0
301043.125,72.1934,-515.853,0,0
301303.45,71.8976,-515.046,0,0
301563.775,71.5853,-514.279,0,0
301824.1,71.3649,-513.451,0,0
302084.425,71.006,-512.6,0,0
302344.75,70.7995,-511.747,0,0
302605.075,70.4818,-510.905,0,0
302865.4,70.2318,-510.07,0,0
303125.725,69.961,-509.263,0,0
303386.05,69.7385,-508.356,0,0
303646.375,69.4699,-507.526,0,0
303906.7,69.2086,-506.757,0,0
304167.025,69.0602,-505.872,0,0
304427.35,68.8322,-505.077,0,0
304687.675,68.6135,-504.292,0,0
304948.0,68.4371,-503.534,0,0
305208.325,68.2514,-502.67,0,0
305468.65,67.9734,-501.904,0,0
305728.975,67.8669,-501.164,0,0
305989.3,67.6938,-500.389,0,0
306249.625,67.4667,-499.603,0,0
306509.95,67.2532,-498.842,0,0
306770.275,67.014,-498.123,0,0
307030.6,66.7928,-497.35,0,0
307290.925,66.5522,-496.676,0,0
307551.25,66.3373,-495.917,0,0
307811.575,66.1213,-495.098,0,0
308071.9,65.8835,-494.378,0,0
308332.225,65.7187,-493.636,0,0
308592.55,65.4709,-492.823,0,0
308852.875,65.2202,-492.111,0,0
309113.2,64.9962,-491.364,0,0
309373.525,64.8378,-490.633,0,0
309633.85,64.6242,-489.842,0,0
309894.175,64.413,-489.119,0,0
310154.5,64.2131,-488.345,0,0
310414.825,64.022,-487.639,0,0
310675.15,63.787,-486.904,0,0
310935.475,63.607,-486.132,0,0
311195.8,63.4437,-485.424,0,0
311456.125,63.2284,-484.742,0,0
311716.45,63.0334,-484.042,0,0
311976.775,62.8524,-483.308,0,0
312237.1,62.6546,-482.585,0,0
312497.425,62.4219,-481.844,0,0
312757.75,62.2518,-481.13,0,0
313018.075,62.0118,-480.381,0,0
313278.4,61.8488,-479.658,0,0
313538.725,61.6184,-478.992,0,0
313799.05,61.4564,-478.189,0,0
314059.375,61.2165,-477.558,0,0
314319.7,61.073,-476.762,0,0
314580,60.8454,-476.092,0,0
314840,60.6948,-475.414,0,0
315101,60.5088,-474.646,0,0
315361,60.275,-473.895,0,0
315621,60.0929,-473.227,0,0
315882,59.9451,-472.51,0,0
316142,59.7987,-471.795,0,0
316402,59.6078,-471.122,0,0
316663,59.4557,-470.424,0,0
316923,59.2321,-469.683,0,0
317183,59.0899,-469.002,0,0
317444,58.8597,-468.334,0,0
317704,58.7229,-467.608,0,0
317964,58.5022,-466.845,0,0
318225,58.3746,-466.223,0,0
318485,58.1945,-465.492,0,0
318745,58.0831,-464.779,0,0
319006,57.8274,-464.087,0,0
319266,57.7117,-463.396,0,0
319526,57.5233,-462.725,0,0
319787,57.4043,-462.006,0,0
320047,57.2148,-461.327,0,0
320307,57.0965,-460.545,0,0
320567,56.9596,-459.886,0,0
320828,56.8092,-459.244,0,0
321088,56.6671,-458.53,0,0
321348,56.5477,-457.793,0,0
321609,56.4224,-457.175,0,0
321869,56.2426,-456.474,0,0
322129,56.1356,-455.81,0,0
322390,56.0143,-455.152,0,0
322650,55.8742,-454.501,0,0
322910,55.7587,-453.781,0,0
323171,55.6397,-453.134,0,0
323431,55.4882,-452.504,0,0
323691,55.3264,-451.87,0,0
323952,55.1937,-451.196,0,0
324212,55.0898,-450.52,0,0
324472,54.9288,-449.845,0,0
324733,54.8309,-449.289,0,0
324993,54.6988,-448.565,0,0
325253,54.4878,-447.909,0,0
325514,54.3925,-447.246,0,0
325774,54.2443,-446.636,0,0
326034,54.1256,-445.939,0,0
326295,53.9975,-445.348,0,0
326555,53.8048,-444.634,0,0
326815,53.6645,-443.929,0,0
327076,53.5208,-443.287,0,0
327336,53.3699,-442.645,0,0
327596,53.2727,-441.996,0,0
327857,53.1038,-441.302,0,0
328117,53.0306,-440.629,0,0
328377,52.9274,-439.98,0,0
328638,52.7963,-439.315,0,0
328898,52.6346,-438.62,0,0
329158,52.5695,-437.972,0,0
329419,52.435,-437.283,0,0
329679,52.3264,-436.651,0,0
329939,52.2685,-436.001,0,0
330200,52.1425,-435.307,0,0
330460,52.0612,-434.618,0,0
330720.15,51.9834,-433.987,0,0
330980.475,51.9048,-433.369,0,0
331240.8,51.7933,-432.687,0,0
331501.125,51.7176,-432.041,0,0
331761.45,51.6788,-431.382,0,0
332021.775,51.5527,-430.761,0,0
332282.1,51.5096,-430.105,0,0
332542.425,51.4077,-429.474,0,0
332802.75,51.3741,-428.819,0,0
333063.075,51.3168,-428.237,0,0
333323.4,51.1691,-427.601,0,0
333583.725,51.1142,-426.951,0,0
333844.05,51.0192,-426.32,0,0
334104.375,50.9624,-425.726,0,0
334364.7,50.911,-425.1,0,0
334625.025,50.8249,-424.471,0,0
334885.35,50.7846,-423.836,0,0
335145.675,50.7129,-423.234,0,0
335406.0,50.64,-422.608,0,0
335666.325,50.5711,-422.027,0,0
335926.65,50.529,-421.356,0,0
336186.975,50.4671,-420.76,0,0
336447.3,50.3913,-420.125,0,0
336707.625,50.3464,-419.503,0,0
336967.95,50.2526,-418.959,0,0
337228.275,50.2225,-418.34,0,0
337488.6,50.1568,-417.715,0,0
337748.925,50.1065,-417.143,0,0
338009.25,50.0082,-416.508,0,0
338269.575,49.9851,-415.924,0,0
338529.9,49.9072,-415.314,0,0
338790.225,49.8278,-414.685,0,0
339050.55,49.8393,-414.103,0,0
339310.875,49.7454,-413.48,0,0
339571.2,49.6994,-412.841,0,0
339831.525,49.6511,-412.296,0,0
340091.85,49.5828,-411.647,0,0
340352.175,49.5751,-411.046,0,0
340612.5,49.5369,-410.452,0,0
340872.825,49.4544,-409.792,0,0
341133.15,49.4369,-409.2,0,0
341393.475,49.4052,-408.601,0,0
341653.8,49.3978,-407.964,0,0
341914.125,49.3991,-407.361,0,0
342174.45,49.3845,-406.747,0,0
342434.775,49.3586,-406.179,0,0
342695.1,49.3958,-405.592,0,0
342955.425,49.4247,-404.999,0,0
343215.75,49.3904,-404.431,0,0
343476.075,49.4339,-403.881,0,0
343736.4,49.4423,-403.345,0,0
343996.725,49.4297,-402.772,0,0
344257.05,49.3677,-402.26,0,0
344517.375,49.3663,-401.699,0,0
344777.7,49.3731,-401.172,0,0
345038.025,49.3035,-400.603,0,0
345298.35,49.2723,-400.039,0,0
345558.675,49.2826,-399.5,0,0
345819.0,49.2481,-398.902,0,0
346079.325,49.2361,-398.378,0,0
346339.65,49.2135,-397.782,0,0
346599.975,49.2304,-397.238,0,0
346860,49.2012,-396.647,0,0
347121,49.184,-396.051,0,0
347381,49.2917,-395.532,0,0
347641,49.2494,-394.964,0,0
347902,49.2911,-394.413,0,0
348162,49.2978,-393.867,0,0
348422,49.3092,-393.31,0,0
348683,49.3657,-392.783,0,0
348943,49.3675,-392.227,0,0
349203,49.3731,-391.711,0,0
349464,49.4323,-391.191,0,0
349724,49.4777,-390.709,0,0
349984,49.4948,-390.161,0,0
350245,49.5362,-389.665,0,0
350505,49.5339,-389.163,0,0
350765,49.5848,-388.676,0,0
351025,49.6374,-388.182,0,0
351286,49.6186,-387.705,0,0
351546,49.6413,-387.219,0,0
351806,49.6711,-386.689,0,0
352067,49.6859,-386.235,0,0
352327,49.7222,-385.776,0,0
352587,49.7295,-385.298,0,0
352848,49.7675,-384.82,0,0
353108,49.7641,-384.363,0,0
353368,49.7835,-383.884,0,0
353629,49.782,-383.455,0,0
353889,49.8154,-383.014,0,0
354149,49.81,-382.534,0,0
354410,49.8462,-382.118,0,0
354670,49.838,-381.718,0,0
354930,49.8234,-381.246,0,0
355191,49.7961,-380.801,0,0
355451,49.7833,-380.348,0,0
355711,49.7413,-379.959,0,0
355972,49.69,-379.507,0,0
356232,49.6937,-379.041,0,0
356492,49.6132,-378.611,0,0
356753,49.5688,-378.162,0,0
357013,49.5273,-377.732,0,0
357273,49.4911,-377.265,0,0
357534,49.4028,-376.77,0,0
357794,49.3583,-376.35,0,0
358054,49.3304,-375.881,0,0
358315,49.3182,-375.378,0,0
358575,49.2363,-374.918,0,0
358835,49.2041,-374.464,0,0
359096,49.1857,-373.998,0,0
359356,49.1159,-373.526,0,0
359616,49.0592,-373.098,0,0
359877,49.0385,-372.578,0,0
360137,48.9787,-372.176,0,0
360397,48.9621,-371.639,0,0
360658,48.896,-371.184,0,0
360918,48.8105,-370.725,0,0
361178,48.8139,-370.246,0,0
361438,48.7408,-369.769,0,0
361699,48.6853,-369.292,0,0
361959,48.6361,-368.831,0,0
362219,48.6053,-368.325,0,0
362480,48.5703,-367.812,0,0
362740.1,48.5298,-367.321,0,0
363000.425,48.4802,-366.841,0,0
363260.75,48.4637,-366.331,0,0
363521.075,48.4597,-365.883,0,0
363781.4,48.3902,-365.382,0,0
364041.725,48.3684,-364.86,0,0
364302.05,48.3332,-364.393,0,0
364562.375,48.3038,-363.91,0,0
364822.7,48.2636,-363.398,0,0
365083.025,48.2617,-362.924,0,0
365343.35,48.2625,-362.429,0,0
365603.675,48.2336,-361.943,0,0
365864.0,48.2602,-361.437,0,0
366124.325,48.2589,-360.988,0,0
366384.65,48.2202,-360.48,0,0
366644.975,48.232,-360.02,0,0
366905.3,48.2167,-359.51,0,0
367165.625,48.1836,-359.049,0,0
367425.95,48.244,-358.564,0,0
367686.275,48.2262,-358.125,0,0
367946.6,48.1996,-357.631,0,0
368206.925,48.1926,-357.178,0,0
368467.25,48.1922,-356.712,0,0
368727.575,48.1742,-356.277,0,0
368987.9,48.1452,-355.789,0,0
369248.225,48.1286,-355.324,0,0
369508.55,48.1187,-354.842,0,0
369768.875,48.1409,-354.359,0,0
370029.2,48.1265,-353.889,0,0
370289.525,48.1093,-353.444,0,0
370549.85,48.1005,-352.943,0,0
370810.175,48.1069,-352.481,0,0
371070.5,48.1179,-351.985,0,0
371330.825,48.1362,-351.529,0,0
371591.15,48.1598,-351.086,0,0
371851.475,48.1997,-350.614,0,0
372111.8,48.1823,-350.149,0,0
372372.125,48.2265,-349.723,0,0
372632.45,48.285,-349.286,0,0
372892.775,48.2596,-348.814,0,0
373153.1,48.299,-348.421,0,0
373413.425,48.3297,-348.008,0,0
373673.75,48.3375,-347.608,0,0
373934.075,48.3504,-347.229,0,0
374194.4,48.3193,-346.846,0,0
374454.725,48.3268,-346.45,0,0
374715.05,48.2983,-346.043,0,0
374975.375,48.2326,-345.651,0,0
375235.7,48.1847,-345.248,0,0
375496.025,48.093,-344.831,0,0
375756.35,48.0238,-344.386,0,0
376016.675,47.9501,-343.98,0,0
376277.0,47.873,-343.522,0,0
376537.325,47.8168,-343.072,0,0
376797.65,47.7537,-342.61,0,0
377057.975,47.6794,-342.151,0,0
377318.3,47.6234,-341.705,0,0
377578.625,47.5625,-341.193,0,0
377838.95,47.4979,-340.746,0,0
378099.275,47.4466,-340.234,0,0
378359.6,47.3896,-339.783,0,0
378619.925,47.3419,-339.274,0,0
378880,47.2746,-338.794,0,0
379141,47.2453,-338.334,0,0
379401,47.188,-337.799,0,0
379661,47.1374,-337.317,0,0
379922,47.1291,-336.826,0,0
380182,47.041,-336.32,0,0
380442,47.0138,-335.796,0,0
380703,46.9913,-335.261,0,0
380963,47.0017,-334.753,0,0
381223,46.966,-334.257,0,0
381483,46.92,-333.725,0,0
381744,46.9234,-333.197,0,0
382004,46.9493,-332.659,0,0
382264,46.9775,-332.11,0,0
382525,47.0206,-331.623,0,0
382785,47.0985,-331.11,0,0
383045,47.1571,-330.641,0,0
383306,47.2204,-330.194,0,0
383566,47.2711,-329.724,0,0
383826,47.2943,-329.304,0,0
384087,47.3022,-328.907,0,0
384347,47.2929,-328.451,0,0
384607,47.2385,-328.04,0,0
384868,47.241,-327.571,0,0
385128,47.2118,-327.155,0,0
385388,47.1517,-326.596,0,0
385649,47.1288,-326.135,0,0
385909,47.0878,-325.689,0,0
386169,47.1145,-325.181,0,0
386430,47.0919,-324.691,0,0
386690,47.0782,-324.223,0,0
386950,47.0357,-323.734,0,0
387211,47.051,-323.208,0,0
387471,47.0444,-322.751,0,0
387731,47.0283,-322.23,0,0
387992,47.0268,-321.744,0,0
388252,47.0235,-321.242,0,0
388512,47.0161,-320.758,0,0
388773,47.0105,-320.232,0,0
389033,47.0203,-319.747,0,0
389293,46.9994,-319.212,0,0
389554,47.0131,-318.716,0,0
389814,47.0293,-318.226,0,0
390074,47.0209,-317.733,0,0
390335,47.0467,-317.228,0,0
390595,47.0212,-316.716,0,0
390855,47.0336,-316.208,0,0
391116,47.0713,-315.686,0,0
391376,47.0529,-315.192,0,0
391636,47.0676,-314.679,0,0
391896,47.1129,-314.17,0,0
392157,47.126,-313.667,0,0
392417,47.1231,-313.128,0,0
392677,47.1601,-312.619,0,0
392938,47.1655,-312.107,0,0
393198,47.1607,-311.587,0,0
393458,47.203,-311.078,0,0
393719,47.221,-310.538,0,0
393979,47.2424,-310.014,0,0
394239,47.2628,-309.517,0,0
394500,47.303,-308.954,0,0
394760.05,47.3172,-308.461,0,0
395020.375,47.3458,-307.941,0,0
395280.7,47.376,-307.41,0,0
395541.025,47.399,-306.881,0,0
395801.35,47.4399,-306.344,0,0
396061.675,47.4749,-305.822,0,0
396322.0,47.5305,-305.281,0,0
396582.325,47.5695,-304.733,0,0
396842.65,47.6017,-304.21,0,0
397102.975,47.6467,-303.672,0,0
397363.3,47.6596,-303.153,0,0
397623.625,47.7117,-302.607,0,0
397883.95,47.7719,-302.08,0,0
398144.275,47.8184,-301.536,0,0
398404.6,47.8753,-300.989,0,0
398664.925,47.9085,-300.439,0,0
398925.25,47.9792,-299.893,0,0
399185.575,48.0218,-299.366,0,0
399445.9,48.0905,-298.809,0,0
399706.225,48.1313,-298.253,0,0
399966.55,48.202,-297.702,0,0
400006.6,48.2083,-297.629,0,0