File: Accelerated corrosion test data/2025-10-15_11-00-19/sample_3.csv
Frequency (Hz),Impedance (ohms),Phase (Radians),Temperature (C),Humidity (%)
10000.0,251.127,-11865.9,0,0
10260.325,244.933,-11566.7,0,0
10520.65,239.527,-11282.5,0,0
10780.975,235.581,-11010.3,0,0
11041.3,229.223,-10756.9,0,0
11301.625,224.194,-10510.5,0,0
11561.95,219.01,-10275,0,0
11822.275,214.617,-10050.2,0,0
12082.6,212.035,-9835.26,0,0
12342.925,210.151,-9628.07,0,0
12603.25,203.179,-9432.53,0,0
12863.575,199.63,-9241.34,0,0
13123.9,199.641,-9057.03,0,0
13384.225,192.945,-8887.97,0,0
13644.55,190.044,-8718.62,0,0
13904.875,186.286,-8554.58,0,0
14165.2,186.269,-8397.03,0,0
14425.525,181.392,-8246.17,0,0
14685.8,179.431,-8100.13,0,0
14946.175,175.586,-7960.97,0,0
15206.5,173.336,-7819.11,0,0
15466.825,181.82,-7677.79,0,0
15727.15,193.716,-7580.82,0,0
15987.5,172.986,-7463.63,0,0
16247.8,168.165,-7333.62,0,0
16508.125,161.578,-7220.55,0,0
16768.45,167.554,-7099.69,0,0
17028.775,157.727,-7000.79,0,0
17289.1,161.247,-6886.28,0,0
17549.425,156.749,-6795.42,0,0
17809.75,157.483,-6688.73,0,0
18070.075,162.306,-6602.26,0,0
18330.4,150.736,-6507,0,0
18590.725,148.481,-6415.4,0,0
18851.05,145.263,-6324.47,0,0
19111.375,146.936,-6235.11,0,0
19371.7,144.943,-6150.84,0,0
19632.025,146.317,-6066.03,0,0
19892.35,148.457,-5984.89,0,0
20152.675,149.295,-5909.99,0,0
20413.0,159.739,-5832.37,0,0
20673.3,167.235,-5763.43,0,0
20933.65,162.185,-5711.29,0,0
21193.975,161.186,-5644.42,0,0
21454.3,145.713,-5584.34,0,0
21714.625,139.01,-5508.26,0,0
21974.9,142.171,-5442.46,0,0
22235.275,139.479,-5383.79,0,0
22495.6,136.381,-5321.17,0,0
22755.925,129.316,-5260.14,0,0
23016.25,128.416,-5200.73,0,0
23276.6,128.12,-5138.48,0,0
23536.9,129.484,-5092.46,0,0
23797.225,121.565,-5033.25,0,0
24057.55,119.246,-4975.5,0,0
24317.875,119.483,-4919.38,0,0
24578.2,116.881,-4869.89,0,0
24838.525,118.239,-4816.42,0,0
25098.85,115.981,-4769.2,0,0
25359.175,113.978,-4718.8,0,0
25619.5,113.248,-4670.95,0,0
25879.8,111.05,-4624.32,0,0
26140.1,108.11,-4576.44,0,0
26400.5,108.063,-4529.21,0,0
26660.8,107.861,-4483.6,0,0
26921.1,108.722,-4438.74,0,0
27181.4,109.914,-4398.49,0,0
27441.8,107.792,-4354.59,0,0
27702.1,108.066,-4314.71,0,0
27962.4,105.629,-4274.4,0,0
28222.7,103.844,-4230.33,0,0
28483.1,111.519,-4188.41,0,0
28743.4,113.992,-4153.82,0,0
29003.7,115.463,-4124.14,0,0
29264,108.251,-4090.45,0,0
29524.4,109.066,-4052.83,0,0
29784.7,104.278,-4018.14,0,0
30045,102.364,-3983.75,0,0
30305.3,100.748,-3946.8,0,0
30565.7,101.951,-3912.23,0,0
30826,101.72,-3879.84,0,0
31086.3,102.754,-3846.82,0,0
31346.6,99.2299,-3816.47,0,0
31607,97.8156,-3781.88,0,0
31867.3,98.1457,-3747.73,0,0
32127.6,101.657,-3713.79,0,0
32387.9,110.349,-3685.83,0,0
32648.3,112.45,-3667.66,0,0
32908.6,103.983,-3644.46,0,0
33168.9,101.405,-3616.11,0,0
33429.2,99.5696,-3589.38,0,0
33689.6,93.5259,-3561.7,0,0
33949.9,91.1171,-3531.1,0,0
34210.2,90.8124,-3503.19,0,0
34470.5,90.0664,-3476.52,0,0
34730.9,88.1709,-3450.39,0,0
34991.2,86.8391,-3423.59,0,0
35251.5,85.8379,-3397.22,0,0
35511.8,84.9206,-3372.04,0,0
35772.2,84.2466,-3346.61,0,0
36032.5,83.6194,-3321.81,0,0
36292.8,82.579,-3297.03,0,0
36553.1,82.3618,-3273.16,0,0
36813.5,81.4256,-3249.96,0,0
37073.8,81.0379,-3226.35,0,0
37334.1,80.4269,-3203,0,0
37594.4,79.9648,-3180.23,0,0
37854.8,79.3281,-3157.84,0,0
38115.1,78.8602,-3135.78,0,0
38375.4,78.4624,-3114.28,0,0
38635.7,78.0423,-3092.56,0,0
38896.1,77.6956,-3071.18,0,0
39156.4,77.3473,-3050.17,0,0
39416.7,76.9859,-3029.88,0,0
39677,76.399,-3009.71,0,0
39937.4,75.7873,-2989.34,0,0
40197.7,75.3261,-2969.13,0,0
40458,75.0895,-2949.69,0,0
40718.3,74.5555,-2930.12,0,0
40978.7,74.3167,-2910.63,0,0
41239,74.4966,-2891.5,0,0
41499.3,74.3271,-2873.29,0,0
41759.6,74.4807,-2854.72,0,0
42020,73.7968,-2836.85,0,0
42280.275,73.7383,-2819.21,0,0
42540.6,73.2232,-2801.42,0,0
42800.925,73.1556,-2783.8,0,0
43061.25,72.74,-2766.97,0,0
43321.575,72.1677,-2749.78,0,0
43581.9,71.8425,-2732.18,0,0
43842.225,72.0652,-2715.27,0,0
44102.55,71.8261,-2698.91,0,0
44362.875,72.095,-2682.97,0,0
44623.2,71.4106,-2667.06,0,0
44883.525,71.0987,-2650.8,0,0
45143.85,71.0912,-2635.24,0,0
45404.175,70.562,-2619.96,0,0
45664.5,70.4631,-2603.64,0,0
45924.825,71.2372,-2588.54,0,0
46185.15,70.4867,-2574.39,0,0
46445.475,69.7546,-2559.08,0,0
46705.8,69.7462,-2543.76,0,0
46966.125,69.9227,-2529.19,0,0
47226.45,69.6944,-2514.93,0,0
47486.775,69.6049,-2500.36,0,0
47747.1,70.0911,-2486.04,0,0
48007.425,70.6294,-2472.93,0,0
48267.75,70.5722,-2459.74,0,0
48528.075,69.6429,-2446.37,0,0
48788.4,69.3664,-2433.35,0,0
49048.725,68.5267,-2419.87,0,0
49309.05,67.9774,-2406.58,0,0
49569.375,68.0221,-2393.13,0,0
49829.7,67.73,-2380.39,0,0
50090.025,67.1191,-2367.64,0,0
50350.35,66.5917,-2354.63,0,0
50610.675,66.368,-2341.52,0,0
50871.0,66.3738,-2328.63,0,0
51131.325,66.2566,-2316.15,0,0
51391.65,66.0952,-2303.8,0,0
51651.975,66.2602,-2291.43,0,0
51912.3,66.2124,-2279.45,0,0
52172.625,65.9587,-2267.49,0,0
52432.95,66.0631,-2255.26,0,0
52693.275,66.12,-2243.22,0,0
52953.6,66.4679,-2231.29,0,0
53213.925,67.1564,-2219.49,0,0
53474.25,68.0014,-2208.67,0,0
53734.575,68.1472,-2197.85,0,0
53994.9,68.292,-2186.81,0,0
54255.225,69.3557,-2175.97,0,0
54515.55,70.2787,-2166.67,0,0
54775.875,69.542,-2157.5,0,0
55036.2,68.7384,-2147.61,0,0
55296.525,68.1774,-2137.97,0,0
55556.85,66.7141,-2128.1,0,0
55817.175,65.2248,-2117.62,0,0
56077.5,64.2047,-2107,0,0
56337.825,63.5426,-2096.4,0,0
56598.15,62.5706,-2085.94,0,0
56858.475,61.8311,-2075.15,0,0
57118.8,61.3626,-2064.22,0,0
57379.125,61.2476,-2053.62,0,0
57639.45,61.1059,-2042.96,0,0
57899.775,61.2414,-2032.84,0,0
58160.1,61.1788,-2022.81,0,0
58420.4,61.1317,-2012.81,0,0
58680.7,61.1049,-2002.72,0,0
58941.1,61.1283,-1992.79,0,0
59201.4,61.3698,-1982.89,0,0
59461.7,61.7922,-1973.23,0,0
59722,61.96,-1963.71,0,0
59982.4,62.2359,-1954.32,0,0
60242.7,62.5713,-1944.97,0,0
60503,62.7811,-1935.63,0,0
60763.3,63.0961,-1926.39,0,0
61023.7,63.2985,-1917.19,0,0
61284,63.7954,-1908.05,0,0
61544.3,64.2904,-1898.75,0,0
61804.6,64.8936,-1890.29,0,0
62065,64.9107,-1881.17,0,0
62325.3,65.7073,-1872.22,0,0
62585.6,66.1276,-1863.64,0,0
62845.9,66.8475,-1854.42,0,0
63106.3,67.9247,-1845.63,0,0
63366.6,69.0199,-1837.35,0,0
63626.9,69.8866,-1828.37,0,0
63887.2,71.3199,-1819.99,0,0
64147.6,72.7439,-1811.34,0,0
64407.9,75.1414,-1802.78,0,0
64668.2,77.6914,-1795.32,0,0
64928.5,80.4982,-1787.59,0,0
65188.9,84.3874,-1781.71,0,0
65449.2,87.127,-1776.83,0,0
65709.5,89.3087,-1772.56,0,0
65969.8,92.4668,-1769.37,0,0
66230.2,91.8399,-1770.07,0,0
66490.5,85.9513,-1767.54,0,0
66750.8,81.5758,-1760.95,0,0
67011.1,78.3388,-1752.61,0,0
67271.5,75.7138,-1744.34,0,0
67531.8,74.7649,-1735.77,0,0
67792.1,74.8854,-1727.17,0,0
68052.4,75.0363,-1719.61,0,0
68312.8,76.2378,-1712.51,0,0
68573.1,76.1172,-1706.42,0,0
68833.4,76.2357,-1699.61,0,0
69093.7,76.9423,-1693.01,0,0
69354.1,77.4255,-1687.59,0,0
69614.4,77.2998,-1682.45,0,0
69874.7,76.4315,-1677.05,0,0
70135,75.4839,-1671.1,0,0
70395.4,74.6832,-1665.22,0,0
70655.7,73.3762,-1659.24,0,0
70916,72.0843,-1653.02,0,0
71176.3,71.1116,-1646.24,0,0
71436.7,70.4873,-1639.64,0,0
71697,69.6954,-1632.67,0,0
71957.3,69.6128,-1625.76,0,0
72217.6,69.7497,-1619.46,0,0
72478,69.8235,-1613.39,0,0
72738.3,70.0036,-1607.53,0,0
72998.6,69.6422,-1602.1,0,0
73258.9,69.2216,-1596.39,0,0
73519.3,68.7577,-1590.65,0,0
73779.6,68.3717,-1585.04,0,0
74039.9,67.7324,-1579.61,0,0
74300.225,67.0285,-1573.89,0,0
74560.55,66.2544,-1568.22,0,0
74820.875,65.489,-1562.52,0,0
75081.2,64.726,-1556.78,0,0
75341.525,63.838,-1550.97,0,0
75601.85,63.1494,-1545.18,0,0
75862.175,62.3694,-1539.28,0,0
76122.5,61.7176,-1533.35,0,0
76382.825,61.0542,-1527.44,0,0
76643.15,60.441,-1521.52,0,0
76903.475,59.9301,-1515.66,0,0
77163.8,59.4774,-1509.9,0,0
77424.125,58.9775,-1504.14,0,0
77684.45,58.4433,-1498.43,0,0
77944.775,57.8754,-1492.6,0,0
78205.1,57.4061,-1486.9,0,0
78465.425,57.0085,-1481.14,0,0
78725.75,56.522,-1475.4,0,0
78986.075,56.1478,-1469.71,0,0
79246.4,55.7054,-1464.03,0,0
79506.725,55.3692,-1458.38,0,0
79767.05,55.0182,-1452.67,0,0
80027.375,54.7874,-1447.02,0,0
80287.7,54.5639,-1441.54,0,0
80548.025,54.357,-1435.94,0,0
80808.35,54.0994,-1430.42,0,0
81068.675,53.842,-1424.9,0,0
81329.0,53.6952,-1419.55,0,0
81589.325,53.5145,-1414.06,0,0
81849.65,53.3661,-1408.75,0,0
82109.975,53.2398,-1403.38,0,0
82370.3,53.0737,-1397.98,0,0
82630.625,53.0582,-1392.74,0,0
82890.95,52.9779,-1387.45,0,0
83151.275,52.847,-1382.25,0,0
83411.6,52.7758,-1377.08,0,0
83671.925,52.7208,-1371.87,0,0
83932.25,52.6722,-1366.7,0,0
84192.575,52.6308,-1361.66,0,0
84452.9,52.5303,-1356.6,0,0
84713.225,52.5353,-1351.52,0,0
84973.55,52.5375,-1346.45,0,0
85233.875,52.5584,-1341.46,0,0
85494.2,52.5148,-1336.5,0,0
85754.525,52.6154,-1331.52,0,0
86014.85,52.5969,-1326.65,0,0
86275.175,52.6103,-1321.75,0,0
86535.5,52.7014,-1316.87,0,0
86795.825,52.6413,-1312.01,0,0
87056.15,52.6786,-1307.17,0,0
87316.475,52.7586,-1302.34,0,0
87576.8,52.8351,-1297.5,0,0
87837.125,53.0325,-1292.54,0,0
88097.45,53.2482,-1287.93,0,0
88357.775,53.2585,-1283.24,0,0
88618.1,53.3838,-1278.35,0,0
88878.425,53.6479,-1273.54,0,0
89138.75,54.0815,-1268.9,0,0
89399.075,54.4498,-1263.96,0,0
89659.4,55.0215,-1259.59,0,0
89919.725,55.5659,-1254.95,0,0
90180,55.9577,-1250.85,0,0
90440.4,56.3385,-1246.53,0,0
90700.7,56.6474,-1242.28,0,0
90961,57.1787,-1237.94,0,0
91221.3,57.6661,-1233.71,0,0
91481.7,58.0317,-1229.51,0,0
91742,58.6075,-1225.5,0,0
92002.3,59.0693,-1221.39,0,0
92262.6,59.572,-1217.3,0,0
92523,60.3603,-1213.52,0,0
92783.3,60.877,-1209.73,0,0
93043.6,61.2844,-1206.11,0,0
93303.9,61.8554,-1202.39,0,0
93564.3,62.5713,-1198.96,0,0
93824.6,63.2405,-1195.95,0,0
94084.9,63.6436,-1193.35,0,0
94345.2,63.1954,-1190.83,0,0
94605.6,62.7144,-1187.74,0,0
94865.9,62.101,-1184.86,0,0
95126.2,60.9584,-1181.95,0,0
95386.5,59.3612,-1178.26,0,0
95646.9,58.3363,-1173.99,0,0
95907.2,57.5694,-1169.79,0,0
96167.5,56.8359,-1165.49,0,0
96427.8,56.4525,-1160.87,0,0
96688.2,56.4248,-1156.56,0,0
96948.5,56.3703,-1152.41,0,0
97208.8,56.3115,-1148.35,0,0
97469.1,56.3189,-1144.38,0,0
97729.5,56.2337,-1140.49,0,0
97989.8,56.1445,-1136.5,0,0
98250.1,56.057,-1132.64,0,0
98510.4,56.08,-1128.58,0,0
98770.8,56.1604,-1124.86,0,0
99031.1,56.1117,-1121.11,0,0
99291.4,55.9629,-1117.31,0,0
99551.7,55.7201,-1113.42,0,0
99812.1,55.6029,-1109.56,0,0
100072,55.5064,-1105.61,0,0
100333,55.4008,-1101.7,0,0
100593,55.3186,-1097.83,0,0
100853,55.2323,-1093.77,0,0
101114,55.2647,-1089.68,0,0
101374,55.3117,-1085.6,0,0
101634,55.4754,-1081.52,0,0
101895,55.7652,-1077.41,0,0
102155,56.0848,-1073.27,0,0
102415,56.5827,-1069.07,0,0
102676,57.5399,-1065,0,0
102936,58.5196,-1061.34,0,0
103196,59.329,-1058.05,0,0
103457,59.9337,-1054.75,0,0
103717,60.4929,-1051.38,0,0
103977,61.1943,-1047.89,0,0
104238,62.1967,-1044.65,0,0
104498,63.1878,-1041.92,0,0
104758,63.6909,-1039.6,0,0
105019,63.7604,-1037.05,0,0
105279,63.6727,-1034.33,0,0
105539,63.7928,-1031.42,0,0
105800,63.7542,-1028.71,0,0
106060,63.5402,-1025.99,0,0
106320.175,63.2004,-1023.16,0,0
106580.5,62.8396,-1020.13,0,0
106840.825,62.4822,-1017.17,0,0
107101.15,61.9497,-1014.09,0,0
107361.475,61.5173,-1010.79,0,0
107621.8,61.0901,-1007.51,0,0
107882.125,60.7138,-1004.14,0,0
108142.45,60.3305,-1000.7,0,0
108402.775,59.9568,-997.287,0,0
108663.1,59.5645,-993.758,0,0
108923.425,59.2144,-990.079,0,0
109183.75,59.058,-986.243,0,0
109444.075,59.1038,-982.479,0,0
109704.4,59.1507,-978.843,0,0
109964.725,59.1804,-975.136,0,0
110225.05,59.1821,-971.476,0,0
110485.375,59.3597,-967.586,0,0
110745.7,59.8939,-963.794,0,0
111006.025,60.4255,-960.156,0,0
111266.35,61.0531,-956.938,0,0
111526.675,61.5527,-953.53,0,0
111787.0,61.9795,-950.035,0,0
112047.325,62.3673,-946.862,0,0
112307.65,62.8636,-943.685,0,0
112567.975,63.2682,-940.548,0,0
112828.3,63.5763,-937.383,0,0
113088.625,63.899,-934.263,0,0
113348.95,64.2541,-931.071,0,0
113609.275,64.5334,-927.959,0,0
113869.6,64.6623,-924.665,0,0
114129.925,65.0701,-921.49,0,0
114390.25,65.3013,-918.166,0,0
114650.575,65.4674,-914.751,0,0
114910.9,65.9438,-911.305,0,0
115171.225,66.4304,-907.818,0,0
115431.55,67.1099,-904.409,0,0
115691.875,67.7394,-901.137,0,0
115952.2,68.2556,-897.831,0,0
116212.525,68.8886,-894.448,0,0
116472.85,69.6935,-890.968,0,0
116733.175,70.7267,-887.664,0,0
116993.5,71.6648,-884.577,0,0
117253.825,72.5387,-881.432,0,0
117514.15,73.4082,-878.071,0,0
117774.475,74.706,-874.5,0,0
118034.8,76.6262,-871.476,0,0
118295.125,78.303,-868.993,0,0
118555.45,79.8139,-866.769,0,0
118815.775,80.7783,-864.629,0,0
119076.1,81.8127,-862.047,0,0
119336.425,83.2517,-859.335,0,0
119596.75,85.1895,-857.155,0,0
119857.075,86.9446,-855.561,0,0
120117.4,88.596,-854.432,0,0
120377.725,89.5722,-854.011,0,0
120638.05,89.5261,-853.196,0,0
120898.375,89.5178,-852.148,0,0
121158.7,89.0815,-850.977,0,0
121419.025,88.2694,-849.449,0,0
121679.35,87.3247,-847.391,0,0
121939.675,86.5166,-844.792,0,0
122200.0,86.2316,-841.914,0,0
122460,86.2581,-839.174,0,0
122721,86.3276,-836.538,0,0
122981,86.4808,-833.792,0,0
123241,86.9467,-831.158,0,0
123502,87.425,-828.856,0,0
123762,87.6833,-826.579,0,0
124022,87.9533,-824.195,0,0
124283,88.2947,-821.885,0,0
124543,88.6651,-819.654,0,0
124803,88.9835,-817.456,0,0
125064,89.3252,-815.287,0,0
125324,89.6513,-813.181,0,0
125584,89.9245,-811.116,0,0
125845,90.2152,-809.149,0,0
126105,90.4007,-807.299,0,0
126365,90.3461,-805.521,0,0
126626,90.1327,-803.625,0,0
126886,89.9465,-801.537,0,0
127146,89.7622,-799.396,0,0
127406,89.6212,-797.308,0,0
127667,89.4297,-795.231,0,0
127927,89.1386,-793.12,0,0
128187,88.7749,-790.987,0,0
128448,88.3248,-788.711,0,0
128708,87.8579,-786.283,0,0
128968,87.4518,-783.706,0,0
129229,87.2087,-781.077,0,0
129489,87.0622,-778.459,0,0
129749,86.8385,-775.896,0,0
130010,86.6417,-773.098,0,0
130270,86.8152,-770.216,0,0
130530,87.1636,-767.571,0,0
130791,87.5606,-765.192,0,0
131051,87.8647,-762.992,0,0
131311,87.9653,-760.928,0,0
131572,87.9478,-758.836,0,0
131832,87.7312,-756.714,0,0
132092,87.4589,-754.429,0,0
132353,87.1809,-752.038,0,0
132613,86.9958,-749.522,0,0
132873,86.9787,-747.151,0,0
133134,86.8321,-744.827,0,0
133394,86.6518,-742.456,0,0
133654,86.4022,-740.217,0,0
133915,86.0022,-737.748,0,0
134175,85.6432,-735.125,0,0
134435,85.394,-732.554,0,0
134696,85.1901,-730.041,0,0
134956,84.9053,-727.495,0,0
135216,84.5663,-724.744,0,0
135477,84.3494,-722.089,0,0
135737,84.2252,-719.42,0,0
135997,83.8949,-716.876,0,0
136258,83.4383,-714.175,0,0
136518,83.0294,-711.163,0,0
136778,82.8139,-708.029,0,0
137039,82.8583,-704.913,0,0
137299,82.9053,-701.96,0,0
137559,83.0264,-698.977,0,0
137819,83.2222,-695.996,0,0
138080,83.4773,-693.174,0,0
138340.125,83.757,-690.328,0,0
138600.45,84.1463,-687.681,0,0
138860.775,84.3788,-685.191,0,0
139121.1,84.4224,-682.753,0,0
139381.425,84.2949,-680.222,0,0
139641.75,84.0679,-677.625,0,0
139902.075,83.8316,-674.81,0,0
140162.4,83.6771,-671.88,0,0
140422.725,83.727,-668.952,0,0
140683.05,83.7302,-666.192,0,0
140943.375,83.5927,-663.464,0,0
141203.7,83.4004,-660.594,0,0
141464.025,83.1911,-657.693,0,0
141724.35,82.9023,-654.667,0,0
141984.675,82.6385,-651.456,0,0
142245.0,82.54,-648.184,0,0
142505.325,82.4689,-644.984,0,0
142765.65,82.3639,-641.72,0,0
143025.975,82.2886,-638.33,0,0
143286.3,82.3003,-634.879,0,0
143546.625,82.4188,-631.448,0,0
143806.95,82.4991,-627.989,0,0
144067.275,82.6143,-624.48,0,0
144327.6,82.7712,-620.851,0,0
144587.925,83.0249,-617.195,0,0
144848.25,83.3863,-613.557,0,0
145108.575,83.836,-609.903,0,0
145368.9,84.2954,-606.321,0,0
145629.225,84.6905,-602.713,0,0
145889.55,85.0703,-599.06,0,0
146149.875,85.5012,-595.188,0,0
146410.2,86.1275,-591.282,0,0
146670.525,86.8177,-587.48,0,0
146930.85,87.4708,-583.615,0,0
147191.175,88.2018,-579.657,0,0
147451.5,89.0319,-575.647,0,0
147711.825,90.0038,-571.562,0,0
147972.15,91.1172,-567.54,0,0
148232.475,92.2788,-563.541,0,0
148492.8,93.4725,-559.525,0,0
148753.125,94.765,-555.492,0,0
149013.45,96.0946,-551.393,0,0
149273.775,97.5034,-547.202,0,0
149534.1,99.1872,-542.907,0,0
149794.425,101.166,-538.663,0,0
150054.75,103.325,-534.608,0,0
150315.075,105.553,-530.688,0,0
150575.4,107.923,-526.9,0,0
150835.725,110.325,-523.23,0,0
151096.05,112.825,-519.706,0,0
151356.375,115.345,-516.289,0,0
151616.7,117.9,-512.989,0,0
151877.025,120.513,-509.807,0,0
152137.35,123.187,-506.857,0,0
152397.675,125.716,-504.111,0,0
152658.0,128.127,-501.359,0,0
152918.325,130.544,-498.627,0,0
153178.65,132.966,-496.084,0,0
153438.975,135.154,-493.667,0,0
153699.3,137.224,-491.153,0,0
153959.625,139.257,-488.581,0,0
154219.95,141.367,-486.12,0,0
154480,143.135,-483.944,0,0
154741,144.471,-481.48,0,0
155001,145.601,-478.409,0,0
155261,146.958,-474.816,0,0
155522,149.094,-471.085,0,0
155782,151.407,-467.661,0,0
156042,153.816,-464.537,0,0
156303,155.892,-461.408,0,0
156563,157.901,-457.986,0,0
156823,160.148,-454.098,0,0
157084,163.271,-450.202,0,0
157344,166.824,-446.825,0,0
157604,170.572,-444.086,0,0
157864,174.089,-441.902,0,0
158125,177.332,-440.189,0,0
158385,179.836,-439.147,0,0
158645,180.972,-437.566,0,0
158906,182.056,-435.237,0,0
159166,182.826,-432.478,0,0
159426,183.503,-428.967,0,0
159687,184.195,-424.717,0,0
159947,185.197,-419.452,0,0
160207,187.274,-413.371,0,0
160468,190.592,-407.266,0,0
160728,194.866,-401.763,0,0
160988,199.251,-397.322,0,0
161249,202.646,-392.674,0,0
161509,206.606,-386.67,0,0
161769,212.117,-380.68,0,0
162030,218.532,-375.858,0,0
162290,224.365,-371.637,0,0
162550,230.555,-367.021,0,0
162811,237.039,-362.872,0,0
163071,243.51,-358.606,0,0
163331,250.52,-353.965,0,0
163592,258.777,-349.384,0,0
163852,267.749,-345.798,0,0
164112,277.087,-342.943,0,0
164373,286.687,-340.689,0,0
164633,296.604,-338.721,0,0
164893,307.522,-337.278,0,0
165154,319.304,-337.638,0,0
165414,330.147,-339.948,0,0
165674,339.994,-342.635,0,0
165935,349.741,-345.559,0,0
166195,359.248,-349.109,0,0
166455,368.956,-353.364,0,0
166716,378.168,-359.097,0,0
166976,386.169,-365.624,0,0
167236,393.143,-372.336,0,0
167497,399.417,-379.167,0,0
167757,405.007,-386.047,0,0
168017,410.259,-393.08,0,0
168277,414.787,-400.567,0,0
168538,418.647,-407.98,0,0
168798,422.141,-415.341,0,0
169058,425.522,-423.232,0,0
169319,427.971,-432.397,0,0
169579,428.104,-441.977,0,0
169839,426.143,-450.555,0,0
170100,422.987,-457.256,0,0
170360.075,419.7,-462.334,0,0
170620.4,416.608,-466.254,0,0
170880.725,413.86,-469.394,0,0
171141.05,411.115,-471.983,0,0
171401.375,408.446,-473.389,0,0
171661.7,406.966,-473.838,0,0
171922.025,406.555,-474.666,0,0
172182.35,406.053,-475.826,0,0
172442.675,405.521,-476.349,0,0
172703.0,405.727,-476.244,0,0
172963.325,407.517,-476.193,0,0
173223.65,410.438,-477.589,0,0
173483.975,412.757,-480.712,0,0
173744.3,413.764,-484.241,0,0
174004.625,414.054,-486.938,0,0
174264.95,415.057,-489.04,0,0
174525.275,416.845,-492.136,0,0
174785.6,417.885,-496.641,0,0
175045.925,417.383,-501.092,0,0
175306.25,416.15,-504.416,0,0
175566.575,415.706,-506.792,0,0
175826.9,416.227,-509.87,0,0
176087.225,416.373,-514.219,0,0
176347.55,415.379,-518.907,0,0
176607.875,413.951,-523.245,0,0
176868.2,412.281,-528.349,0,0
177128.525,408.734,-534.085,0,0
177388.85,403.223,-538.428,0,0
177649.175,397.368,-540.886,0,0
177909.5,391.934,-542.384,0,0
178169.825,386.046,-543.514,0,0
178430.15,379.763,-542.824,0,0
178690.475,374.477,-540.53,0,0
178950.8,370.55,-537.599,0,0
179211.125,367.738,-534.719,0,0
179471.45,365.233,-532.03,0,0
179731.775,363.212,-528.811,0,0
179992.1,362.44,-525.358,0,0
180252.425,362.72,-522.834,0,0
180512.75,362.835,-521.045,0,0
180773.075,363.123,-519.202,0,0
181033.4,363.866,-517.618,0,0
181293.725,365.149,-516.497,0,0
181554.05,366.749,-516.371,0,0
181814.375,368.279,-517.418,0,0
182074.7,368.703,-519.701,0,0
182335.025,367.441,-521.897,0,0
182595.35,365.375,-523.217,0,0
182855.675,363.267,-523.807,0,0
183116.0,361.381,-524.263,0,0
183376.325,359.203,-524.948,0,0
183636.65,356.381,-525.528,0,0
183896.975,352.872,-525.547,0,0
184157.3,349.249,-524.41,0,0
184417.625,346.27,-522.718,0,0
184677.95,343.439,-521.254,0,0
184938.275,340.111,-519.491,0,0
185198.6,336.747,-516.867,0,0
185458.925,333.768,-513.583,0,0
185719.25,331.243,-509.901,0,0
185979.575,329.099,-505.978,0,0
186239.9,327.324,-501.776,0,0
186500,325.884,-497.191,0,0
186761,325.269,-492.155,0,0
187021,325.605,-487.405,0,0
187281,326.21,-483.038,0,0
187542,327.271,-478.904,0,0
187802,328.675,-475.217,0,0
188062,330.078,-471.974,0,0
188322,331.48,-468.937,0,0
188583,332.88,-466.363,0,0
188843,333.686,-464.086,0,0
189103,333.943,-461.294,0,0
189364,334.368,-457.676,0,0
189624,335.562,-453.75,0,0
189884,337.464,-450.004,0,0
190145,339.698,-446.886,0,0
190405,341.756,-444.212,0,0
190665,343.665,-441.63,0,0
190926,345.464,-438.971,0,0
191186,347.318,-436.451,0,0
191446,349.028,-433.972,0,0
191707,350.494,-431.246,0,0
191967,352.235,-428.209,0,0
192227,354.197,-425.375,0,0
192488,355.855,-422.578,0,0
192748,357.326,-419.252,0,0
193008,359.083,-415.261,0,0
193269,361.58,-410.855,0,0
193529,364.938,-406.432,0,0
193789,368.932,-402.456,0,0
194050,373.159,-398.812,0,0
194310,377.69,-395.255,0,0
194570,382.714,-391.907,0,0
194831,388.192,-388.938,0,0
195091,393.965,-386.43,0,0
195351,400.091,-384.402,0,0
195612,406.738,-382.841,0,0
195872,413.486,-382.207,0,0
196132,420.103,-382.552,0,0
196393,426.465,-383.565,0,0
196653,432.505,-385.486,0,0
196913,437.566,-388.341,0,0
197174,441.02,-391.485,0,0
197434,443.42,-393.505,0,0
197694,445.991,-394.706,0,0
197955,448.849,-395.846,0,0
198215,451.6,-396.955,0,0
198475,454.329,-397.922,0,0
198735,457.119,-399.222,0,0
198996,459.25,-400.49,0,0
199256,461.328,-401.201,0,0
199516,463.652,-401.703,0,0
199777,466.156,-402.721,0,0
200037,467.87,-404.121,0,0
200297,468.651,-405.061,0,0
200558,468.842,-404.829,0,0
200818,469.423,-403.215,0,0
201078,471.127,-400.83,0,0
201339,473.889,-398.571,0,0
201599,477.14,-396.523,0,0
201859,480.673,-394.615,0,0
202120,484.619,-392.697,0,0
202380.025,489.079,-390.731,0,0
202640.35,494.339,-389.061,0,0
202900.675,500.098,-388.017,0,0
203161.0,505.983,-387.618,0,0
203421.325,511.96,-387.675,0,0
203681.65,518.022,-388.097,0,0
203941.975,524.207,-388.96,0,0
204202.3,530.548,-390.401,0,0
204462.625,536.815,-392.613,0,0
204722.95,542.571,-395.405,0,0
204983.275,547.945,-398.602,0,0
205243.6,552.77,-402.217,0,0
205503.925,556.786,-405.982,0,0
205764.25,560.269,-409.833,0,0
206024.575,562.763,-413.659,0,0
206284.9,564.028,-416.599,0,0
206545.225,565.185,-417.944,0,0
206805.55,566.954,-418.032,0,0
207065.875,569.721,-417.355,0,0
207326.2,573.975,-416.481,0,0
207586.525,579.319,-416.364,0,0
207846.85,584.809,-416.908,0,0
208107.175,590.482,-417.531,0,0
208367.5,596.856,-418.458,0,0
208627.825,603.645,-420.158,0,0
208888.15,610.528,-422.441,0,0
209148.475,617.496,-425.264,0,0
209408.8,624.494,-428.685,0,0
209669.125,631.408,-432.696,0,0
209929.45,638.13,-437.157,0,0
210189.775,644.774,-442.102,0,0
210450.1,651.065,-447.444,0,0
210710.425,657.186,-453.131,0,0
210970.75,663.185,-459.231,0,0
211231.075,668.775,-465.898,0,0
211491.4,673.913,-472.69,0,0
211751.725,678.485,-479.683,0,0
212012.05,682.79,-486.554,0,0
212272.375,686.966,-493.313,0,0
212532.7,691.239,-500.008,0,0
212793.025,695.682,-507.043,0,0
213053.35,700.207,-514.6,0,0
213313.675,704.343,-522.781,0,0
213574.0,708.052,-531.603,0,0
213834.325,711.001,-540.61,0,0
214094.65,713.129,-549.411,0,0
214354.975,715.356,-557.927,0,0
214615.3,717.442,-566.58,0,0
214875.625,719.382,-575.572,0,0
215135.95,720.918,-584.84,0,0
215396.275,722.058,-594.473,0,0
215656.6,722.249,-604.041,0,0
215916.925,722.124,-613.368,0,0
216177.25,721.626,-622.499,0,0
216437.575,721.112,-631.386,0,0
216697.9,720.562,-640.458,0,0
216958.225,719.472,-650.04,0,0
217218.55,717.618,-659.434,0,0
217478.875,715.37,-668.407,0,0
217739.2,712.936,-677.08,0,0
217999.525,710.304,-685.877,0,0
218259.85,707.15,-694.636,0,0
218520,703.661,-703.033,0,0
218780,699.574,-710.968,0,0
219041,695.329,-718.243,0,0
219301,691.655,-724.912,0,0
219561,688.258,-731.597,0,0
219822,685.277,-738.684,0,0
220082,682.03,-746.283,0,0
220342,678.319,-754.129,0,0
220603,674.01,-761.899,0,0
220863,669.579,-769.678,0,0
221123,664.688,-777.387,0,0
221384,659.432,-785.055,0,0
221644,653.9,-792.934,0,0
221904,647.729,-800.974,0,0
222165,640.303,-808.828,0,0
222425,632.226,-816.021,0,0
222685,623.474,-822.493,0,0
222946,614.234,-827.871,0,0
223206,604.617,-832.574,0,0
223466,594.373,-836.05,0,0
223727,584.651,-838.139,0,0
223987,575.719,-839.267,0,0
224247,567.208,-839.887,0,0
224508,559.28,-839.605,0,0
224768,552.34,-838.856,0,0
225028,546.265,-837.706,0,0
225289,541.407,-836.809,0,0
225549,537.216,-836.328,0,0
225809,533.601,-836.289,0,0
226070,530.39,-836.999,0,0
226330,526.912,-838.527,0,0
226590,523.113,-840.154,0,0
226851,519.25,-841.697,0,0
227111,515.678,-843.35,0,0
227371,512.059,-845.838,0,0
227632,507.849,-848.663,0,0
227892,502.858,-851.493,0,0
228152,497.539,-853.857,0,0
228413,492.069,-856.008,0,0
228673,486.403,-857.886,0,0
228933,480.626,-859.169,0,0
229193,475.128,-860.225,0,0
229454,469.843,-861.195,0,0
229714,464.528,-862.386,0,0
229974,459.133,-863.259,0,0
230235,453.712,-864.261,0,0
230495,448.277,-865.183,0,0
230755,442.61,-865.899,0,0
231016,436.849,-866.282,0,0
231276,431.342,-866.456,0,0
231536,425.799,-866.411,0,0
231797,420.349,-866.322,0,0
232057,415.006,-866.118,0,0
232317,409.731,-865.749,0,0
232578,404.583,-865.235,0,0
232838,399.528,-864.689,0,0
233098,394.499,-864.139,0,0
233359,389.594,-863.427,0,0
233619,384.812,-862.683,0,0
233879,379.992,-862.081,0,0
234140,375.064,-861.295,0,0
234400,370.391,-860.35,0,0
234660.3,365.816,-859.267,0,0
234920.625,361.335,-858.29,0,0
235180.95,356.981,-857.649,0,0
235441.275,352.542,-856.897,0,0
235701.6,347.872,-856.207,0,0
235961.925,342.907,-855.509,0,0
236222.25,338.006,-854.493,0,0
236482.575,332.902,-853.28,0,0
236742.9,327.944,-851.791,0,0
237003.225,323.219,-850.175,0,0
237263.55,318.392,-848.632,0,0
237523.875,313.512,-847.023,0,0
237784.2,308.415,-845.293,0,0
238044.525,303.285,-843.176,0,0
238304.85,298.193,-840.674,0,0
238565.175,293.283,-837.817,0,0
238825.5,288.574,-834.787,0,0
239085.825,284.14,-831.391,0,0
239346.15,280.064,-827.902,0,0
239606.475,276.445,-824.42,0,0
239866.8,272.85,-821.044,0,0
240127.125,269.646,-817.623,0,0
240387.45,266.423,-814.336,0,0
240647.775,263.227,-811.076,0,0
240908.1,260.081,-807.754,0,0
241168.425,257.066,-804.223,0,0
241428.75,254.051,-800.649,0,0
241689.075,251.432,-796.819,0,0
241949.4,249.026,-792.928,0,0
242209.725,247.003,-789.077,0,0
242470.05,245.271,-785.384,0,0
242730.375,243.689,-781.836,0,0
242990.7,242.127,-778.377,0,0
243251.025,240.886,-774.899,0,0
243511.35,239.804,-771.637,0,0
243771.675,238.975,-768.576,0,0
244032.0,238.153,-765.885,0,0
244292.325,237.33,-763.412,0,0
244552.65,236.127,-760.998,0,0
244812.975,235.057,-758.599,0,0
245073.3,233.942,-756.228,0,0
245333.625,232.725,-754.093,0,0
245593.95,231.411,-751.732,0,0
245854.275,230.139,-749.233,0,0
246114.6,228.912,-746.873,0,0
246374.925,227.799,-744.336,0,0
246635.25,226.726,-741.759,0,0
246895.575,225.779,-739.228,0,0
247155.9,224.986,-736.766,0,0
247416.225,224.214,-734.388,0,0
247676.55,223.315,-732.108,0,0
247936.875,222.459,-729.669,0,0
248197.2,221.704,-727.164,0,0
248457.525,221.104,-724.53,0,0
248717.85,220.828,-721.933,0,0
248978.175,220.771,-719.524,0,0
249238.5,220.983,-717.391,0,0
249498.825,221.147,-715.665,0,0
249759.15,221.226,-714.267,0,0
250019.475,221.13,-713.003,0,0
250279.8,220.866,-711.921,0,0
250540,220.437,-710.895,0,0
250800,219.685,-709.963,0,0
251061,218.721,-709.07,0,0
251321,217.605,-707.996,0,0
251581,216.277,-706.804,0,0
251842,214.84,-705.52,0,0
252102,213.306,-704.084,0,0
252362,211.605,-702.54,0,0
252623,209.763,-700.636,0,0
252883,208.073,-698.418,0,0
253143,206.486,-695.98,0,0
253404,205.061,-693.419,0,0
253664,203.793,-690.703,0,0
253924,202.574,-687.911,0,0
254185,201.462,-684.919,0,0
254445,200.617,-681.744,0,0
254705,200.029,-678.559,0,0
254966,199.596,-675.324,0,0
255226,199.421,-671.969,0,0
255486,199.387,-668.612,0,0
255747,199.636,-665.158,0,0
256007,200.237,-661.629,0,0
256267,201.283,-658.245,0,0
256528,202.785,-655.079,0,0
256788,204.431,-652.342,0,0
257048,206.071,-649.916,0,0
257309,207.772,-647.776,0,0
257569,209.378,-645.869,0,0
257829,210.912,-644.033,0,0
258090,212.417,-642.293,0,0
258350,213.814,-640.565,0,0
258610,215.292,-638.655,0,0
258871,216.835,-636.671,0,0
259131,218.807,-634.624,0,0
259391,221.119,-632.631,0,0
259651,223.92,-630.974,0,0
259912,226.991,-629.775,0,0
260172,230.163,-629.045,0,0
260432,233.309,-628.681,0,0
260693,236.507,-628.676,0,0
260953,239.888,-629.138,0,0
261213,243.26,-630.256,0,0
261474,246.307,-631.987,0,0
261734,248.918,-634.258,0,0
261994,251.094,-636.832,0,0
262255,252.748,-639.677,0,0
262515,253.88,-642.762,0,0
262775,254.469,-645.916,0,0
263036,254.468,-649.004,0,0
263296,254.129,-651.873,0,0
263556,253.552,-654.723,0,0
263817,252.557,-657.436,0,0
264077,251.28,-660.169,0,0
264337,249.546,-662.71,0,0
264598,247.439,-664.915,0,0
264858,245.159,-666.864,0,0
265118,242.608,-668.512,0,0
265379,239.9,-669.883,0,0
265639,237.084,-670.951,0,0
265899,234.196,-671.738,0,0
266160,231.232,-672.226,0,0
266420,228.146,-672.35,0,0
266680.25,225.02,-672.263,0,0
266940.575,221.96,-671.701,0,0
267200.9,219.005,-670.83,0,0
267461.225,216.242,-669.748,0,0
267721.55,213.638,-668.345,0,0
267981.875,211.235,-666.791,0,0
268242.2,209.06,-665.023,0,0
268502.525,207.19,-663.129,0,0
268762.85,205.481,-661.328,0,0
269023.175,204.022,-659.496,0,0
269283.5,202.69,-657.642,0,0
269543.825,201.321,-655.885,0,0
269804.15,200.085,-654.013,0,0
270064.475,198.917,-651.977,0,0
270324.8,198.003,-649.887,0,0
270585.125,197.201,-647.794,0,0
270845.45,196.779,-645.687,0,0
271105.775,196.456,-643.761,0,0
271366.1,196.262,-641.842,0,0
271626.425,196.192,-640.114,0,0
271886.75,196.256,-638.512,0,0
272147.075,196.384,-637.09,0,0
272407.4,196.428,-635.82,0,0
272667.725,196.272,-634.756,0,0
272928.05,195.945,-633.608,0,0
273188.375,195.485,-632.172,0,0
273448.7,195.141,-630.641,0,0
273709.025,194.832,-628.968,0,0
273969.35,194.798,-627.124,0,0
274229.675,194.93,-625.258,0,0
274490.0,195.364,-623.451,0,0
274750.325,195.949,-621.73,0,0
275010.65,196.586,-620.085,0,0
275270.975,197.479,-618.555,0,0
275531.3,198.524,-617.029,0,0
275791.625,199.679,-615.682,0,0
276051.95,200.98,-614.481,0,0
276312.275,202.456,-613.47,0,0
276572.6,204.052,-612.613,0,0
276832.925,205.738,-612.119,0,0
277093.25,207.471,-611.874,0,0
277353.575,209.153,-611.916,0,0
277613.9,210.77,-612.216,0,0
277874.225,212.275,-612.713,0,0
278134.55,213.658,-613.49,0,0
278394.875,214.893,-614.414,0,0
278655.2,215.947,-615.591,0,0
278915.525,216.799,-616.895,0,0
279175.85,217.434,-618.292,0,0
279436.175,217.84,-619.807,0,0
279696.5,218.051,-621.363,0,0
279956.825,218.062,-623.034,0,0
280217.15,217.779,-624.719,0,0
280477.475,217.177,-626.471,0,0
280737.8,216.262,-627.973,0,0
280998.125,215.176,-629.329,0,0
281258.45,214.018,-630.508,0,0
281518.775,212.793,-631.638,0,0
281779.1,211.435,-632.696,0,0
282039.425,209.941,-633.587,0,0
282299.75,208.296,-634.296,0,0
282560,206.645,-634.861,0,0
282820,205.013,-635.255,0,0
283081,203.328,-635.623,0,0
283341,201.617,-635.938,0,0
283601,199.724,-636.062,0,0
283862,197.843,-636.015,0,0
284122,196.024,-635.831,0,0
284382,194.244,-635.512,0,0
284643,192.482,-635.069,0,0
284903,190.708,-634.603,0,0
285163,188.99,-633.936,0,0
285424,187.255,-633.143,0,0
285684,185.641,-632.188,0,0
285944,184.086,-631.128,0,0
286205,182.724,-629.964,0,0
286465,181.391,-628.75,0,0
286725,180.196,-627.492,0,0
286986,179.075,-626.083,0,0
287246,178.16,-624.625,0,0
287506,177.441,-623.125,0,0
287767,176.949,-621.671,0,0
288027,176.646,-620.342,0,0
288287,176.444,-619.114,0,0
288548,176.314,-618.068,0,0
288808,176.199,-617.122,0,0
289068,176.114,-616.333,0,0
289329,176.013,-615.62,0,0
289589,175.838,-615.032,0,0
289849,175.655,-614.461,0,0
290109,175.419,-613.923,0,0
290370,175.154,-613.435,0,0
290630,174.911,-612.962,0,0
290890,174.599,-612.635,0,0
291151,174.188,-612.307,0,0
291411,173.636,-611.967,0,0
291671,172.989,-611.563,0,0
291932,172.259,-611.062,0,0
292192,171.496,-610.455,0,0
292452,170.736,-609.72,0,0
292713,170.062,-608.83,0,0
292973,169.443,-607.81,0,0
293233,168.977,-606.713,0,0
293494,168.678,-605.565,0,0
293754,168.592,-604.443,0,0
294014,168.64,-603.377,0,0
294275,168.833,-602.435,0,0
294535,169.128,-601.58,0,0
294795,169.479,-600.856,0,0
295056,169.882,-600.205,0,0
295316,170.433,-599.736,0,0
295576,170.906,-599.449,0,0
295837,171.453,-599.327,0,0
296097,171.894,-599.374,0,0
296357,172.293,-599.49,0,0
296618,172.55,-599.794,0,0
296878,172.768,-600.202,0,0
297138,172.854,-600.695,0,0
297399,172.796,-601.263,0,0
297659,172.61,-601.89,0,0
297919,172.24,-602.515,0,0
298180,171.747,-603.123,0,0
298440,171.154,-603.682,0,0
298700.2,170.42,-604.167,0,0
298960.525,169.677,-604.599,0,0
299220.85,168.814,-605.044,0,0
299481.175,167.953,-605.421,0,0
299741.5,166.969,-605.784,0,0
300001.825,165.862,-606.098,0,0
300262.15,164.848,-606.323,0,0
300522.475,163.735,-606.578,0,0
300782.8,162.518,-606.726,0,0
301043.125,161.303,-606.789,0,0
301303.45,160.002,-606.818,0,0
301563.775,158.678,-606.766,0,0
301824.1,157.279,-606.614,0,0
302084.425,155.888,-606.387,0,0
302344.75,154.516,-606.024,0,0
302605.075,153.156,-605.59,0,0
302865.4,151.842,-605.089,0,0
303125.725,150.571,-604.548,0,0
303386.05,149.304,-603.954,0,0
303646.375,148.071,-603.347,0,0
303906.7,146.863,-602.665,0,0
304167.025,145.645,-601.963,0,0
304427.35,144.431,-601.2,0,0
304687.675,143.275,-600.368,0,0
304948.0,142.144,-599.444,0,0
305208.325,141.104,-598.485,0,0
305468.65,140.073,-597.496,0,0
305728.975,139.167,-596.451,0,0
305989.3,138.279,-595.434,0,0
306249.625,137.52,-594.358,0,0
306509.95,136.809,-593.33,0,0
306770.275,136.144,-592.295,0,0
307030.6,135.58,-591.271,0,0
307290.925,135.007,-590.252,0,0
307551.25,134.549,-589.286,0,0
307811.575,134.171,-588.383,0,0
308071.9,133.766,-587.538,0,0
308332.225,133.439,-586.781,0,0
308592.55,133.04,-586.071,0,0
308852.875,132.658,-585.425,0,0
309113.2,132.274,-584.772,0,0
309373.525,131.832,-584.182,0,0
309633.85,131.394,-583.644,0,0
309894.175,130.88,-583.099,0,0
310154.5,130.355,-582.582,0,0
310414.825,129.828,-582.081,0,0
310675.15,129.255,-581.62,0,0
310935.475,128.581,-581.151,0,0
311195.8,127.863,-580.687,0,0
311456.125,127.07,-580.181,0,0
311716.45,126.245,-579.627,0,0
311976.775,125.375,-579.013,0,0
312237.1,124.454,-578.326,0,0
312497.425,123.537,-577.592,0,0
312757.75,122.616,-576.734,0,0
313018.075,121.701,-575.837,0,0
313278.4,120.823,-574.869,0,0
313538.725,119.976,-573.812,0,0
313799.05,119.157,-572.717,0,0
314059.375,118.389,-571.549,0,0
314319.7,117.695,-570.316,0,0
314580,117.024,-569.014,0,0
314840,116.508,-567.633,0,0
315101,116.071,-566.313,0,0
315361,115.787,-564.879,0,0
315621,115.613,-563.559,0,0
315882,115.537,-562.193,0,0
316142,115.596,-561.009,0,0
316402,115.652,-559.858,0,0
316663,115.839,-558.773,0,0
316923,115.959,-557.873,0,0
317183,116.202,-556.918,0,0
317444,116.347,-556.161,0,0
317704,116.46,-555.456,0,0
317964,116.585,-554.755,0,0
318225,116.661,-554.171,0,0
318485,116.586,-553.537,0,0
318745,116.668,-552.87,0,0
319006,116.635,-552.301,0,0
319266,116.571,-551.646,0,0
319526,116.62,-551.022,0,0
319787,116.633,-550.457,0,0
320047,116.659,-549.754,0,0
320307,116.678,-549.163,0,0
320567,116.683,-548.571,0,0
320828,116.761,-547.939,0,0
321088,116.858,-547.285,0,0
321348,117.04,-546.822,0,0
321609,117.325,-546.357,0,0
321869,117.573,-545.896,0,0
322129,117.811,-545.516,0,0
322390,118.055,-545.227,0,0
322650,118.269,-545.096,0,0
322910,118.519,-545.033,0,0
323171,118.713,-545.058,0,0
323431,118.756,-545.125,0,0
323691,118.783,-545.254,0,0
323952,118.721,-545.407,0,0
324212,118.641,-545.609,0,0
324472,118.38,-545.85,0,0
324733,118.089,-546.126,0,0
324993,117.678,-546.411,0,0
325253,117.156,-546.691,0,0
325514,116.6,-546.908,0,0
325774,115.899,-547.018,0,0
326034,115.219,-547.151,0,0
326295,114.375,-547.142,0,0
326555,113.591,-547.195,0,0
326815,112.658,-547.146,0,0
327076,111.82,-547.017,0,0
327336,110.862,-546.779,0,0
327596,109.944,-546.594,0,0
327857,109.087,-546.328,0,0
328117,108.155,-545.971,0,0
328377,107.201,-545.719,0,0
328638,106.312,-545.266,0,0
328898,105.442,-544.796,0,0
329158,104.479,-544.302,0,0
329419,103.591,-543.767,0,0
329679,102.73,-543.23,0,0
329939,101.98,-542.7,0,0
330200,101.133,-542.163,0,0
330460,100.289,-541.601,0,0
330720.15,99.3859,-540.998,0,0
330980.475,98.6326,-540.463,0,0
331240.8,97.731,-539.848,0,0
331501.125,96.8851,-539.23,0,0
331761.45,95.9912,-538.58,0,0
332021.775,95.1553,-537.897,0,0
332282.1,94.2028,-537.113,0,0
332542.425,93.2958,-536.446,0,0
332802.75,92.4499,-535.646,0,0
333063.075,91.5436,-534.814,0,0
333323.4,90.7176,-533.992,0,0
333583.725,89.8141,-533.151,0,0
333844.05,88.9521,-532.149,0,0
334104.375,88.0902,-531.299,0,0
334364.7,87.2685,-530.211,0,0
334625.025,86.3885,-529.161,0,0
334885.35,85.5962,-528.071,0,0
335145.675,84.9195,-526.915,0,0
335406.0,84.1746,-525.793,0,0
335666.325,83.568,-524.621,0,0
335926.65,82.9248,-523.437,0,0
336186.975,82.3739,-522.197,0,0
336447.3,81.7821,-521.01,0,0
336707.625,81.3249,-519.841,0,0
336967.95,80.8232,-518.495,0,0
337228.275,80.4209,-517.307,0,0
337488.6,79.9473,-516.14,0,0
337748.925,79.5761,-514.81,0,0
338009.25,79.2294,-513.568,0,0
338269.575,78.8689,-512.32,0,0
338529.9,78.5474,-511.048,0,0
338790.225,78.2826,-509.732,0,0
339050.55,78.0271,-508.41,0,0
339310.875,77.8192,-507.055,0,0
339571.2,77.6597,-505.666,0,0
339831.525,77.6324,-504.304,0,0
340091.85,77.6001,-502.923,0,0
340352.175,77.7114,-501.546,0,0
340612.5,77.8018,-500.195,0,0
340872.825,78.1546,-498.868,0,0
341133.15,78.3848,-497.57,0,0
341393.475,78.7818,-496.374,0,0
341653.8,79.2186,-495.188,0,0
341914.125,79.6281,-494.175,0,0
342174.45,80.1925,-493.17,0,0
342434.775,80.7728,-492.255,0,0
342695.1,81.2455,-491.434,0,0
342955.425,81.8051,-490.719,0,0
343215.75,82.3147,-490.054,0,0
343476.075,82.8515,-489.492,0,0
343736.4,83.2785,-489.04,0,0
343996.725,83.6649,-488.632,0,0
344257.05,84.0621,-488.283,0,0
344517.375,84.3265,-487.995,0,0
344777.7,84.4864,-487.673,0,0
345038.025,84.5357,-487.363,0,0
345298.35,84.6332,-487.027,0,0
345558.675,84.5981,-486.695,0,0
345819.0,84.55,-486.277,0,0
346079.325,84.5174,-485.84,0,0
346339.65,84.4512,-485.425,0,0
346599.975,84.4345,-484.952,0,0
346860,84.3763,-484.468,0,0
347121,84.3304,-484.083,0,0
347381,84.2426,-483.56,0,0
347641,84.1056,-483.118,0,0
347902,84.0066,-482.61,0,0
348162,83.7979,-482.081,0,0
348422,83.6532,-481.569,0,0
348683,83.3954,-480.912,0,0
348943,83.2681,-480.239,0,0
349203,83.1248,-479.491,0,0
349464,83.0294,-478.772,0,0
349724,83.0271,-478.009,0,0
349984,83.0931,-477.207,0,0
350245,83.2286,-476.426,0,0
350505,83.3729,-475.707,0,0
350765,83.6358,-474.942,0,0
351025,84.004,-474.262,0,0
351286,84.3282,-473.679,0,0
351546,84.7617,-473.258,0,0
351806,85.0975,-472.87,0,0
352067,85.4548,-472.616,0,0
352327,85.747,-472.402,0,0
352587,85.9938,-472.295,0,0
352848,86.0956,-472.192,0,0
353108,86.2416,-472.21,0,0
353368,86.0959,-472.182,0,0
353629,86.0039,-472.017,0,0
353889,85.8155,-471.954,0,0
354149,85.5382,-471.818,0,0
354410,85.269,-471.56,0,0
354670,84.9564,-471.352,0,0
354930,84.5876,-471.075,0,0
355191,84.2902,-470.722,0,0
355451,83.9751,-470.335,0,0
355711,83.6251,-469.964,0,0
355972,83.2707,-469.486,0,0
356232,83.0561,-469.054,0,0
356492,82.6563,-468.643,0,0
356753,82.3578,-468.124,0,0
357013,81.945,-467.617,0,0
357273,81.6024,-467.076,0,0
357534,81.2663,-466.453,0,0
357794,80.9567,-465.831,0,0
358054,80.7003,-465.106,0,0
358315,80.4245,-464.351,0,0
358575,80.3069,-463.681,0,0
358835,80.126,-462.944,0,0
359096,80.0353,-462.209,0,0
359356,79.98,-461.509,0,0
359616,80.0047,-460.851,0,0
359877,79.9668,-460.179,0,0
360137,79.9562,-459.618,0,0
360397,80.0186,-459.02,0,0
360658,79.9927,-458.418,0,0
360918,79.9885,-457.913,0,0
361178,79.9328,-457.328,0,0
361438,79.8551,-456.859,0,0
361699,79.8095,-456.234,0,0
361959,79.7447,-455.736,0,0
362219,79.7333,-455.152,0,0
362480,79.5963,-454.522,0,0
362740.1,79.5144,-453.881,0,0
363000.425,79.4656,-453.223,0,0
363260.75,79.5573,-452.506,0,0
363521.075,79.5959,-451.793,0,0
363781.4,79.7851,-451.094,0,0
364041.725,80.0571,-450.515,0,0
364302.05,80.3064,-449.908,0,0
364562.375,80.6152,-449.475,0,0
364822.7,80.9164,-448.984,0,0
365083.025,81.2511,-448.642,0,0
365343.35,81.5379,-448.395,0,0
365603.675,81.8358,-448.185,0,0
365864.0,81.9713,-448.133,0,0
366124.325,82.1321,-448.049,0,0
366384.65,82.159,-448.002,0,0
366644.975,82.098,-448.046,0,0
366905.3,81.9525,-448.019,0,0
367165.625,81.6433,-447.961,0,0
367425.95,81.3203,-447.79,0,0
367686.275,81.0144,-447.596,0,0
367946.6,80.605,-447.416,0,0
368206.925,80.0959,-447.179,0,0
368467.25,79.6406,-446.773,0,0
368727.575,79.0924,-446.308,0,0
368987.9,78.552,-445.703,0,0
369248.225,78.0678,-444.977,0,0
369508.55,77.6812,-444.142,0,0
369768.875,77.4382,-443.229,0,0
370029.2,77.3098,-442.308,0,0
370289.525,77.3744,-441.36,0,0
370549.85,77.5356,-440.511,0,0
370810.175,77.7825,-439.767,0,0
371070.5,78.1055,-439.102,0,0
371330.825,78.5057,-438.58,0,0
371591.15,78.8513,-438.197,0,0
371851.475,79.2514,-437.918,0,0
372111.8,79.5387,-437.672,0,0
372372.125,79.6976,-437.596,0,0
372632.45,79.7357,-437.584,0,0
372892.775,79.698,-437.567,0,0
373153.1,79.5638,-437.515,0,0
373413.425,79.3056,-437.447,0,0
373673.75,78.9602,-437.288,0,0
373934.075,78.5587,-437.067,0,0
374194.4,78.1758,-436.755,0,0
374454.725,77.7864,-436.365,0,0
374715.05,77.3675,-435.931,0,0
374975.375,76.9832,-435.416,0,0
375235.7,76.5169,-434.916,0,0
375496.025,76.1401,-434.353,0,0
375756.35,75.8019,-433.588,0,0
376016.675,75.5383,-432.907,0,0
376277.0,75.3227,-432.15,0,0
376537.325,75.1505,-431.34,0,0
376797.65,75.0204,-430.578,0,0
377057.975,74.9994,-429.864,0,0
377318.3,75.0615,-429.082,0,0
377578.625,75.1292,-428.367,0,0
377838.95,75.1288,-427.681,0,0
378099.275,75.2939,-426.999,0,0
378359.6,75.3859,-426.407,0,0
378619.925,75.5819,-425.787,0,0
378880,75.7437,-425.197,0,0
379141,75.9529,-424.662,0,0
379401,76.1402,-424.151,0,0
379661,76.3565,-423.673,0,0
379922,76.6372,-423.257,0,0
380182,76.8495,-422.93,0,0
380442,76.986,-422.633,0,0
380703,77.1523,-422.377,0,0
380963,77.2473,-422.161,0,0
381223,77.2596,-421.889,0,0
381483,77.2289,-421.613,0,0
381744,77.2823,-421.353,0,0
382004,77.2543,-421.039,0,0
382264,77.2171,-420.704,0,0
382525,77.2143,-420.382,0,0
382785,77.1808,-420.111,0,0
383045,77.1733,-419.783,0,0
383306,77.1518,-419.539,0,0
383566,77.1072,-419.314,0,0
383826,77.0048,-419.068,0,0
384087,76.8833,-418.859,0,0
384347,76.648,-418.602,0,0
384607,76.4558,-418.348,0,0
384868,76.1813,-418.063,0,0
385128,75.9593,-417.679,0,0
385388,75.6839,-417.322,0,0
385649,75.407,-416.9,0,0
385909,75.1558,-416.506,0,0
386169,74.9513,-416.058,0,0
386430,74.6422,-415.535,0,0
386690,74.3947,-415.071,0,0
386950,74.1167,-414.605,0,0
387211,73.868,-414.033,0,0
387471,73.5627,-413.505,0,0
387731,73.3288,-412.922,0,0
387992,73.073,-412.283,0,0
388252,72.8098,-411.59,0,0
388512,72.5819,-410.913,0,0
388773,72.3666,-410.221,0,0
389033,72.2431,-409.44,0,0
389293,72.1198,-408.65,0,0
389554,71.972,-407.833,0,0
389814,71.8933,-407.042,0,0
390074,71.9052,-406.181,0,0
390335,71.9479,-405.301,0,0
390595,72.0767,-404.483,0,0
390855,72.2118,-403.632,0,0
391116,72.3937,-402.784,0,0
391376,72.6091,-401.948,0,0
391636,72.8886,-401.135,0,0
391896,73.2715,-400.35,0,0
392157,73.6937,-399.635,0,0
392417,74.1088,-398.945,0,0
392677,74.5962,-398.277,0,0
392938,75.128,-397.737,0,0
393198,75.649,-397.209,0,0
393458,76.1463,-396.734,0,0
393719,76.6578,-396.338,0,0
393979,77.1573,-396.046,0,0
394239,77.6157,-395.678,0,0
394500,78.0739,-395.443,0,0
394760.05,78.5144,-395.192,0,0
395020.375,78.9787,-394.948,0,0
395280.7,79.4075,-394.77,0,0
395541.025,79.7847,-394.602,0,0
395801.35,80.1684,-394.536,0,0
396061.675,80.5435,-394.435,0,0
396322.0,80.9183,-394.37,0,0
396582.325,81.2066,-394.394,0,0
396842.65,81.5421,-394.365,0,0
397102.975,81.7883,-394.395,0,0
397363.3,82.0184,-394.479,0,0
397623.625,82.224,-394.557,0,0
397883.95,82.3355,-394.701,0,0
398144.275,82.3548,-394.813,0,0
398404.6,82.3772,-394.88,0,0
398664.925,82.3912,-394.977,0,0
398925.25,82.3557,-395.062,0,0
399185.575,82.3042,-395.094,0,0
399445.9,82.1728,-395.156,0,0
399706.225,82.0086,-395.177,0,0
399966.55,81.9034,-395.204,0,0
400006.6,81.8662,-395.225,0,0