File: Accelerated corrosion test data/2025-10-15_11-00-19/sample_2.csv
Frequency (Hz),Impedance (ohms),Phase (Radians),Temperature (C),Humidity (%)
10000.0,228.969,-11434,0,0
10260.325,223.056,-11146.7,0,0
10520.65,217.879,-10873,0,0
10780.975,212.98,-10611.9,0,0
11041.3,208.048,-10364.7,0,0
11301.625,203.395,-10127,0,0
11561.95,199.681,-9899.11,0,0
11822.275,197.899,-9690.55,0,0
12082.6,192.578,-9479.9,0,0
12342.925,187.189,-9283.2,0,0
12603.25,183.066,-9092.12,0,0
12863.575,179.997,-8907.39,0,0
13123.9,176.961,-8734.58,0,0
13384.225,172.852,-8563.86,0,0
13644.55,170.73,-8398.76,0,0
13904.875,186.302,-8245.09,0,0
14165.2,165.09,-8099.41,0,0
14425.525,161.122,-7950.14,0,0
14685.8,162.914,-7805.46,0,0
14946.175,159.011,-7676.03,0,0
15206.5,163.57,-7554.96,0,0
15466.825,159.798,-7418.36,0,0
15727.15,151.355,-7306.32,0,0
15987.5,147.995,-7184.38,0,0
16247.8,148.28,-7070.17,0,0
16508.125,142.958,-6960.04,0,0
16768.45,140.505,-6851.88,0,0
17028.775,138.896,-6747.64,0,0
17289.1,137.445,-6647.13,0,0
17549.425,134.432,-6548.12,0,0
17809.75,132.77,-6452.08,0,0
18070.075,130.727,-6359.31,0,0
18330.4,128.782,-6268.2,0,0
18590.725,127.894,-6179.92,0,0
18851.05,126.615,-6094.17,0,0
19111.375,128.292,-6012.16,0,0
19371.7,128.021,-5935.05,0,0
19632.025,122.668,-5856.76,0,0
19892.35,120.427,-5778.84,0,0
20152.675,118.602,-5703.15,0,0
20413.0,118.014,-5628.94,0,0
20673.3,117.159,-5556.26,0,0
20933.65,117.723,-5484.72,0,0
21193.975,123.112,-5417.17,0,0
21454.3,130.269,-5355.59,0,0
21714.625,126.932,-5300.13,0,0
21974.9,121.176,-5235,0,0
22235.275,118.607,-5180.73,0,0
22495.6,114.473,-5119.79,0,0
22755.925,111.174,-5058.71,0,0
23016.25,112.348,-5003.29,0,0
23276.6,112.283,-4949.03,0,0
23536.9,108.167,-4893.58,0,0
23797.225,106.55,-4839.68,0,0
24057.55,105.907,-4788.44,0,0
24317.875,102.69,-4737.89,0,0
24578.2,100.544,-4686.73,0,0
24838.525,99.9524,-4636.75,0,0
25098.85,99.0741,-4587.3,0,0
25359.175,97.6376,-4540.72,0,0
25619.5,97.0079,-4493.68,0,0
25879.8,95.7416,-4447.56,0,0
26140.1,96.472,-4402.74,0,0
26400.5,95.1967,-4359.63,0,0
26660.8,95.938,-4317.22,0,0
26921.1,94.7512,-4275.31,0,0
27181.4,93.458,-4235.69,0,0
27441.8,92.098,-4195.24,0,0
27702.1,90.1918,-4154.95,0,0
27962.4,89.4882,-4114.74,0,0
28222.7,89.5577,-4076.08,0,0
28483.1,89.3243,-4038.53,0,0
28743.4,88.3676,-4000.82,0,0
29003.7,90.2384,-3963.92,0,0
29264,90.2014,-3927.61,0,0
29524.4,93.1297,-3892.44,0,0
29784.7,96.2584,-3863.39,0,0
30045,92.9313,-3831.51,0,0
30305.3,93.8088,-3798.31,0,0
30565.7,90.9071,-3770.85,0,0
30826,87.1588,-3738.26,0,0
31086.3,86.5411,-3706.12,0,0
31346.6,84.8644,-3674.86,0,0
31607,85.041,-3643.68,0,0
31867.3,82.9515,-3614.7,0,0
32127.6,81.8309,-3583.93,0,0
32387.9,81.9108,-3553.33,0,0
32648.3,83.5261,-3525.5,0,0
32908.6,83.2716,-3499.47,0,0
33168.9,81.2466,-3473.03,0,0
33429.2,79.5705,-3445.52,0,0
33689.6,79.3403,-3418.39,0,0
33949.9,78.3116,-3392.3,0,0
34210.2,76.8214,-3366.38,0,0
34470.5,75.925,-3340.2,0,0
34730.9,75.6236,-3314.47,0,0
34991.2,74.9836,-3289.56,0,0
35251.5,74.4266,-3264.84,0,0
35511.8,74.0534,-3240.4,0,0
35772.2,73.4842,-3216.75,0,0
36032.5,72.8538,-3193.3,0,0
36292.8,72.195,-3169.72,0,0
36553.1,71.7919,-3146.8,0,0
36813.5,71.3921,-3124.16,0,0
37073.8,71.0235,-3101.78,0,0
37334.1,70.5566,-3079.59,0,0
37594.4,70.53,-3058.23,0,0
37854.8,70.1328,-3036.55,0,0
38115.1,69.6354,-3015.82,0,0
38375.4,68.9946,-2995.22,0,0
38635.7,68.7568,-2974.65,0,0
38896.1,68.4134,-2954.09,0,0
39156.4,67.9154,-2934.28,0,0
39416.7,67.4053,-2914.38,0,0
39677,67.0446,-2894.95,0,0
39937.4,66.7832,-2875.7,0,0
40197.7,66.3021,-2856.48,0,0
40458,66.0911,-2837.8,0,0
40718.3,65.8988,-2818.96,0,0
40978.7,65.6855,-2801.05,0,0
41239,65.4577,-2782.73,0,0
41499.3,65.4722,-2764.7,0,0
41759.6,65.0477,-2747.38,0,0
42020,64.8002,-2730.01,0,0
42280.275,64.9265,-2713.11,0,0
42540.6,64.3447,-2695.88,0,0
42800.925,63.8781,-2679.44,0,0
43061.25,63.4883,-2662.5,0,0
43321.575,63.2427,-2646.24,0,0
43581.9,63.2832,-2630.27,0,0
43842.225,62.7919,-2614.04,0,0
44102.55,62.7001,-2598.1,0,0
44362.875,62.4564,-2582.65,0,0
44623.2,62.3584,-2567.25,0,0
44883.525,61.9134,-2551.92,0,0
45143.85,61.6942,-2536.37,0,0
45404.175,61.8014,-2521.4,0,0
45664.5,61.098,-2507.02,0,0
45924.825,61.2474,-2491.92,0,0
46185.15,61.5589,-2478.07,0,0
46445.475,60.8085,-2464,0,0
46705.8,60.5782,-2449.36,0,0
46966.125,60.496,-2435.3,0,0
47226.45,60.457,-2421.45,0,0
47486.775,60.7544,-2408.23,0,0
47747.1,60.2487,-2394.39,0,0
48007.425,60.2834,-2380.91,0,0
48267.75,60.9198,-2367.16,0,0
48528.075,61.2532,-2355.38,0,0
48788.4,60.8909,-2342.95,0,0
49048.725,60.5359,-2330.51,0,0
49309.05,59.8451,-2318.31,0,0
49569.375,59.045,-2305.72,0,0
49829.7,58.6025,-2293.25,0,0
50090.025,58.2982,-2280.8,0,0
50350.35,57.7525,-2268.59,0,0
50610.675,57.4299,-2256.06,0,0
50871.0,57.5209,-2244.1,0,0
51131.325,57.3346,-2232.42,0,0
51391.65,57.0028,-2220.84,0,0
51651.975,56.5253,-2209.34,0,0
51912.3,56.0018,-2197.8,0,0
52172.625,55.5725,-2186.14,0,0
52432.95,55.3469,-2174.6,0,0
52693.275,55.1391,-2163.34,0,0
52953.6,54.8871,-2151.97,0,0
53213.925,54.7984,-2140.81,0,0
53474.25,54.654,-2129.88,0,0
53734.575,54.4581,-2119.06,0,0
53994.9,54.248,-2108.08,0,0
54255.225,54.1316,-2097.3,0,0
54515.55,54.0638,-2086.71,0,0
54775.875,54.0849,-2076.3,0,0
55036.2,53.8895,-2065.87,0,0
55296.525,53.8461,-2055.52,0,0
55556.85,53.7493,-2045.23,0,0
55817.175,53.7981,-2035.12,0,0
56077.5,53.8022,-2025.13,0,0
56337.825,53.6986,-2015.22,0,0
56598.15,53.6685,-2005.31,0,0
56858.475,53.6554,-1995.5,0,0
57118.8,53.7928,-1985.85,0,0
57379.125,53.8155,-1976.29,0,0
57639.45,53.7165,-1966.64,0,0
57899.775,53.9497,-1957.4,0,0
58160.1,53.9347,-1948.22,0,0
58420.4,53.7788,-1938.96,0,0
58680.7,53.7143,-1929.61,0,0
58941.1,53.9723,-1920.33,0,0
59201.4,54.1423,-1911.27,0,0
59461.7,54.4898,-1902.18,0,0
59722,54.6656,-1893.34,0,0
59982.4,55.3122,-1884.37,0,0
60242.7,56.1317,-1876.22,0,0
60503,56.1705,-1868.15,0,0
60763.3,56.1056,-1859.8,0,0
61023.7,56.3545,-1851.07,0,0
61284,57.1657,-1842.8,0,0
61544.3,57.8598,-1835.1,0,0
61804.6,58.6608,-1827.79,0,0
62065,58.7699,-1821.4,0,0
62325.3,57.8941,-1814.09,0,0
62585.6,57.5826,-1806.44,0,0
62845.9,57.4589,-1799.15,0,0
63106.3,56.53,-1792.52,0,0
63366.6,55.4517,-1784.53,0,0
63626.9,55.0481,-1777,0,0
63887.2,54.1824,-1769.12,0,0
64147.6,53.8317,-1761.54,0,0
64407.9,53.2632,-1753.93,0,0
64668.2,52.896,-1746.39,0,0
64928.5,52.2492,-1739.31,0,0
65188.9,50.9817,-1731.42,0,0
65449.2,50.5047,-1723.1,0,0
65709.5,50.4621,-1715.05,0,0
65969.8,50.6867,-1707.33,0,0
66230.2,50.7476,-1699.72,0,0
66490.5,50.9042,-1692.14,0,0
66750.8,50.9808,-1684.92,0,0
67011.1,50.9058,-1677.5,0,0
67271.5,51.1062,-1670,0,0
67531.8,51.7747,-1662.65,0,0
67792.1,52.2784,-1655.58,0,0
68052.4,53.0831,-1649.11,0,0
68312.8,53.2686,-1642.85,0,0
68573.1,53.2244,-1635.99,0,0
68833.4,53.8932,-1629.06,0,0
69093.7,54.6066,-1623.04,0,0
69354.1,54.9467,-1617.08,0,0
69614.4,55.2908,-1611.07,0,0
69874.7,55.7133,-1605.72,0,0
70135,55.4826,-1600.16,0,0
70395.4,55.1928,-1594.96,0,0
70655.7,54.1784,-1589.77,0,0
70916,53.0408,-1583.61,0,0
71176.3,52.3972,-1577.58,0,0
71436.7,51.7312,-1571.5,0,0
71697,51.2574,-1565.57,0,0
71957.3,50.1153,-1559.89,0,0
72217.6,48.857,-1553.65,0,0
72478,47.7503,-1547.05,0,0
72738.3,46.9679,-1540.42,0,0
72998.6,46.3996,-1533.62,0,0
73258.9,46.0875,-1527.15,0,0
73519.3,45.5294,-1520.78,0,0
73779.6,45.0253,-1514.11,0,0
74039.9,44.9063,-1507.41,0,0
74300.225,44.9127,-1500.77,0,0
74560.55,44.9006,-1494.51,0,0
74820.875,44.9778,-1488.11,0,0
75081.2,45.1037,-1481.76,0,0
75341.525,45.367,-1475.49,0,0
75601.85,45.57,-1469.33,0,0
75862.175,45.9387,-1463.25,0,0
76122.5,46.3335,-1457.23,0,0
76382.825,46.7866,-1451.34,0,0
76643.15,47.2354,-1445.58,0,0
76903.475,47.6537,-1439.89,0,0
77163.8,48.1925,-1434.11,0,0
77424.125,48.8957,-1428.47,0,0
77684.45,49.592,-1423.09,0,0
77944.775,50.3434,-1417.84,0,0
78205.1,51.0876,-1412.73,0,0
78465.425,51.8537,-1407.92,0,0
78725.75,52.355,-1403.34,0,0
78986.075,52.8872,-1398.87,0,0
79246.4,53.0529,-1394.57,0,0
79506.725,53.1961,-1390.21,0,0
79767.05,53.0793,-1386.09,0,0
80027.375,52.4978,-1381.89,0,0
80287.7,51.7144,-1377.39,0,0
80548.025,50.9962,-1372.48,0,0
80808.35,50.3712,-1367.56,0,0
81068.675,49.8869,-1362.45,0,0
81329.0,49.4213,-1357.36,0,0
81589.325,49.0622,-1352.27,0,0
81849.65,48.7201,-1347.2,0,0
82109.975,48.42,-1342.09,0,0
82370.3,48.2153,-1336.97,0,0
82630.625,48.0315,-1331.76,0,0
82890.95,47.9444,-1326.58,0,0
83151.275,47.9856,-1321.42,0,0
83411.6,48.0732,-1316.41,0,0
83671.925,48.301,-1311.47,0,0
83932.25,48.4555,-1306.59,0,0
84192.575,48.6679,-1301.81,0,0
84452.9,48.8104,-1297.09,0,0
84713.225,48.968,-1292.44,0,0
84973.55,49.0106,-1287.78,0,0
85233.875,49.1302,-1282.97,0,0
85494.2,49.3376,-1278.27,0,0
85754.525,49.6774,-1273.68,0,0
86014.85,50.025,-1269.29,0,0
86275.175,50.1691,-1264.9,0,0
86535.5,50.358,-1260.69,0,0
86795.825,50.3255,-1256.2,0,0
87056.15,50.5156,-1251.72,0,0
87316.475,50.8849,-1247.48,0,0
87576.8,50.9843,-1243.44,0,0
87837.125,50.9284,-1239.35,0,0
88097.45,50.851,-1234.95,0,0
88357.775,50.9672,-1230.58,0,0
88618.1,51.0929,-1226.62,0,0
88878.425,50.6995,-1222.43,0,0
89138.75,50.6664,-1217.59,0,0
89399.075,51.2196,-1213.46,0,0
89659.4,51.4296,-1209.26,0,0
89919.725,51.8345,-1205.1,0,0
90180,52.0389,-1201.3,0,0
90440.4,51.6951,-1197.58,0,0
90700.7,51.2415,-1193.27,0,0
90961,51.2686,-1188.58,0,0
91221.3,51.9056,-1184.15,0,0
91481.7,52.4211,-1180.27,0,0
91742,52.5033,-1176.23,0,0
92002.3,52.7305,-1172.02,0,0
92262.6,53.2577,-1167.89,0,0
92523,54.0134,-1164.12,0,0
92783.3,54.464,-1160.53,0,0
93043.6,54.678,-1156.95,0,0
93303.9,55.2598,-1153.27,0,0
93564.3,55.5888,-1149.88,0,0
93824.6,55.99,-1146.64,0,0
94084.9,55.9617,-1143.62,0,0
94345.2,55.6027,-1140.42,0,0
94605.6,55.2165,-1136.71,0,0
94865.9,55.2044,-1133.02,0,0
95126.2,55.0256,-1129.67,0,0
95386.5,54.358,-1126.03,0,0
95646.9,53.8526,-1121.75,0,0
95907.2,54.0424,-1117.15,0,0
96167.5,54.9596,-1112.98,0,0
96427.8,55.9396,-1109.56,0,0
96688.2,56.5336,-1106.27,0,0
96948.5,56.9699,-1103.08,0,0
97208.8,57.5899,-1099.92,0,0
97469.1,58.1834,-1097.3,0,0
97729.5,58.0549,-1094.84,0,0
97989.8,57.7855,-1091.98,0,0
98250.1,57.6047,-1089.05,0,0
98510.4,57.3995,-1086.22,0,0
98770.8,57.1081,-1083.53,0,0
99031.1,56.5104,-1080.83,0,0
99291.4,55.6648,-1078.13,0,0
99551.7,54.489,-1075.07,0,0
99812.1,53.2474,-1071.48,0,0
100072,52.5618,-1067.46,0,0
100333,52.3638,-1063.79,0,0
100593,52.0435,-1060.6,0,0
100853,51.295,-1057.45,0,0
101114,50.4857,-1053.99,0,0
101374,49.558,-1050.6,0,0
101634,48.3394,-1046.76,0,0
101895,47.4304,-1042.41,0,0
102155,46.9784,-1038.06,0,0
102415,46.8392,-1033.95,0,0
102676,46.5883,-1029.99,0,0
102936,46.0624,-1025.89,0,0
103196,45.8076,-1021.58,0,0
103457,45.7703,-1017.18,0,0
103717,45.9497,-1012.88,0,0
103977,46.2222,-1008.62,0,0
104238,46.6582,-1004.31,0,0
104498,47.4179,-1000.12,0,0
104758,48.2379,-996.222,0,0
105019,49.1459,-992.506,0,0
105279,49.8697,-988.979,0,0
105539,50.6656,-985.302,0,0
105800,51.711,-981.784,0,0
106060,52.7975,-978.524,0,0
106320.175,53.8302,-975.437,0,0
106580.5,54.9538,-972.541,0,0
106840.825,56.0109,-969.992,0,0
107101.15,56.8222,-967.73,0,0
107361.475,57.3611,-965.573,0,0
107621.8,57.5108,-963.527,0,0
107882.125,57.4808,-961.234,0,0
108142.45,57.3907,-959.024,0,0
108402.775,56.8699,-956.657,0,0
108663.1,56.4643,-953.993,0,0
108923.425,56.0195,-951.47,0,0
109183.75,55.3391,-948.79,0,0
109444.075,54.6153,-945.782,0,0
109704.4,54.014,-942.74,0,0
109964.725,53.346,-939.579,0,0
110225.05,52.7445,-936.256,0,0
110485.375,52.1867,-932.812,0,0
110745.7,51.7155,-929.223,0,0
111006.025,51.443,-925.431,0,0
111266.35,51.4769,-921.843,0,0
111526.675,51.3926,-918.418,0,0
111787.0,51.3923,-914.872,0,0
112047.325,51.5006,-911.296,0,0
112307.65,51.5696,-907.898,0,0
112567.975,51.6614,-904.498,0,0
112828.3,51.7797,-900.944,0,0
113088.625,51.9998,-897.51,0,0
113348.95,52.3355,-893.858,0,0
113609.275,52.7127,-890.489,0,0
113869.6,53.0801,-887.16,0,0
114129.925,53.4004,-883.773,0,0
114390.25,53.8936,-880.446,0,0
114650.575,54.3444,-877.031,0,0
114910.9,54.8013,-873.714,0,0
115171.225,55.4354,-870.4,0,0
115431.55,56.1182,-867.143,0,0
115691.875,56.7816,-864.102,0,0
115952.2,57.2765,-860.976,0,0
116212.525,57.99,-857.784,0,0
116472.85,58.7553,-854.732,0,0
116733.175,59.5308,-851.753,0,0
116993.5,60.277,-848.864,0,0
117253.825,60.9994,-845.938,0,0
117514.15,61.7403,-842.972,0,0
117774.475,62.6677,-840.185,0,0
118034.8,63.5761,-837.528,0,0
118295.125,64.3883,-835.017,0,0
118555.45,65.0832,-832.504,0,0
118815.775,65.8645,-829.945,0,0
119076.1,66.7274,-827.588,0,0
119336.425,67.3176,-825.384,0,0
119596.75,67.9445,-823.059,0,0
119857.075,68.5968,-820.898,0,0
120117.4,69.0698,-818.863,0,0
120377.725,69.4521,-816.763,0,0
120638.05,69.7326,-814.753,0,0
120898.375,69.8703,-812.8,0,0
121158.7,69.7038,-810.768,0,0
121419.025,69.5545,-808.397,0,0
121679.35,69.4849,-806.068,0,0
121939.675,69.3882,-803.692,0,0
122200.0,69.2136,-801.296,0,0
122460,69.0068,-798.797,0,0
122721,68.8253,-796.126,0,0
122981,68.7669,-793.487,0,0
123241,68.6867,-790.835,0,0
123502,68.6591,-788.206,0,0
123762,68.5653,-785.574,0,0
124022,68.392,-782.858,0,0
124283,68.3105,-780.073,0,0
124543,68.2211,-777.255,0,0
124803,68.1659,-774.38,0,0
125064,68.1014,-771.454,0,0
125324,68.1815,-768.482,0,0
125584,68.2483,-765.52,0,0
125845,68.355,-762.494,0,0
126105,68.5226,-759.486,0,0
126365,68.7614,-756.447,0,0
126626,69.0589,-753.439,0,0
126886,69.3252,-750.413,0,0
127146,69.7576,-747.317,0,0
127406,70.2892,-744.256,0,0
127667,70.8359,-741.271,0,0
127927,71.5413,-738.367,0,0
128187,72.1551,-735.566,0,0
128448,72.7743,-732.833,0,0
128708,73.4118,-730.13,0,0
128968,74.0789,-727.451,0,0
129229,74.7432,-724.905,0,0
129489,75.2874,-722.428,0,0
129749,75.7292,-719.901,0,0
130010,76.1646,-717.271,0,0
130270,76.7481,-714.593,0,0
130530,77.3317,-712.046,0,0
130791,77.9361,-709.561,0,0
131051,78.5205,-707.162,0,0
131311,78.9933,-704.886,0,0
131572,79.3276,-702.53,0,0
131832,79.6318,-700.134,0,0
132092,79.8527,-697.782,0,0
132353,79.9643,-695.299,0,0
132613,80.0576,-692.673,0,0
132873,80.2619,-689.984,0,0
133134,80.4776,-687.282,0,0
133394,80.7622,-684.541,0,0
133654,81.0842,-681.807,0,0
133915,81.4058,-679.152,0,0
134175,81.6587,-676.48,0,0
134435,81.8337,-673.735,0,0
134696,81.9844,-670.835,0,0
134956,82.2467,-667.981,0,0
135216,82.523,-665.021,0,0
135477,82.8528,-661.948,0,0
135737,83.3471,-658.918,0,0
135997,83.8249,-655.951,0,0
136258,84.3605,-652.903,0,0
136518,84.9102,-649.965,0,0
136778,85.4176,-647.048,0,0
137039,85.9108,-644.038,0,0
137299,86.4601,-640.935,0,0
137559,87.1817,-637.878,0,0
137819,87.8984,-634.88,0,0
138080,88.6121,-631.988,0,0
138340.125,89.1709,-629.087,0,0
138600.45,89.7065,-626.086,0,0
138860.775,90.2764,-622.981,0,0
139121.1,90.893,-619.83,0,0
139381.425,91.5383,-616.669,0,0
139641.75,92.1987,-613.525,0,0
139902.075,92.711,-610.314,0,0
140162.4,93.2542,-606.809,0,0
140422.725,93.9703,-603.158,0,0
140683.05,94.8947,-599.405,0,0
140943.375,95.9785,-595.666,0,0
141203.7,97.1885,-591.871,0,0
141464.025,98.6791,-588.04,0,0
141724.35,100.317,-584.366,0,0
141984.675,102.067,-580.768,0,0
142245.0,103.95,-577.256,0,0
142505.325,105.932,-573.858,0,0
142765.65,107.95,-570.591,0,0
143025.975,110.022,-567.481,0,0
143286.3,111.98,-564.492,0,0
143546.625,113.865,-561.402,0,0
143806.95,115.844,-558.262,0,0
144067.275,117.912,-555.158,0,0
144327.6,120.011,-552.159,0,0
144587.925,122.058,-549.143,0,0
144848.25,124.118,-546.001,0,0
145108.575,126.442,-542.775,0,0
145368.9,128.895,-539.702,0,0
145629.225,131.434,-536.712,0,0
145889.55,133.991,-533.869,0,0
146149.875,136.506,-531.007,0,0
146410.2,139.063,-528.093,0,0
146670.525,141.775,-525.151,0,0
146930.85,144.562,-522.293,0,0
147191.175,147.378,-519.381,0,0
147451.5,150.407,-516.403,0,0
147711.825,153.696,-513.499,0,0
147972.15,157.074,-510.756,0,0
148232.475,160.535,-507.986,0,0
148492.8,164.263,-505.182,0,0
148753.125,168.269,-502.479,0,0
149013.45,172.603,-499.809,0,0
149273.775,177.454,-497.394,0,0
149534.1,182.666,-495.537,0,0
149794.425,188,-494.219,0,0
150054.75,193.346,-493.356,0,0
150315.075,198.837,-492.831,0,0
150575.4,204.63,-492.963,0,0
150835.725,210.243,-494.164,0,0
151096.05,215.091,-495.993,0,0
151356.375,219.386,-497.949,0,0
151616.7,223.471,-500.081,0,0
151877.025,227.302,-502.738,0,0
152137.35,230.396,-505.822,0,0
152397.675,232.771,-508.891,0,0
152658.0,234.624,-511.898,0,0
152918.325,235.971,-514.734,0,0
153178.65,237.05,-517.319,0,0
153438.975,237.973,-519.932,0,0
153699.3,238.375,-522.69,0,0
153959.625,238.132,-525.152,0,0
154219.95,237.507,-527.141,0,0
154480,236.69,-528.616,0,0
154741,235.897,-529.757,0,0
155001,235.136,-530.524,0,0
155261,234.39,-531.089,0,0
155522,233.894,-531.645,0,0
155782,233.372,-532.218,0,0
156042,232.587,-532.938,0,0
156303,231.386,-533.193,0,0
156563,230.232,-533.191,0,0
156823,229.246,-533.08,0,0
157084,227.96,-532.89,0,0
157344,226.491,-532.133,0,0
157604,225.208,-530.811,0,0
157864,224.565,-529.214,0,0
158125,224.094,-527.87,0,0
158385,223.798,-526.413,0,0
158645,223.808,-524.889,0,0
158906,223.939,-523.658,0,0
159166,224.212,-522.476,0,0
159426,224.251,-521.439,0,0
159687,224.492,-520.349,0,0
159947,224.558,-519.334,0,0
160207,224.669,-518.213,0,0
160468,224.712,-517.142,0,0
160728,224.702,-516.085,0,0
160988,224.743,-514.473,0,0
161249,225.197,-512.522,0,0
161509,226.577,-510.922,0,0
161769,228.204,-509.835,0,0
162030,230.199,-509.296,0,0
162290,232.284,-510.083,0,0
162550,233.114,-511.853,0,0
162811,233.021,-513.492,0,0
163071,232.302,-515.055,0,0
163331,230.762,-516.392,0,0
163592,228.749,-517.096,0,0
163852,226.593,-517.43,0,0
164112,224.127,-517.559,0,0
164373,221.243,-517.213,0,0
164633,218.421,-516.242,0,0
164893,215.527,-514.916,0,0
165154,212.713,-513.25,0,0
165414,209.734,-511.188,0,0
165674,206.68,-508.529,0,0
165935,204.109,-505.209,0,0
166195,201.985,-501.769,0,0
166455,200.054,-498.294,0,0
166716,198.22,-494.678,0,0
166976,196.649,-490.621,0,0
167236,195.466,-486.661,0,0
167497,194.405,-482.757,0,0
167757,193.311,-478.644,0,0
168017,192.402,-474.356,0,0
168277,191.805,-469.739,0,0
168538,191.613,-465.111,0,0
168798,191.781,-460.553,0,0
169058,192.137,-456.378,0,0
169319,192.338,-452.302,0,0
169579,192.3,-447.947,0,0
169839,192.653,-443.14,0,0
170100,193.543,-438.432,0,0
170360.075,194.764,-434.165,0,0
170620.4,195.67,-430.197,0,0
170880.725,196.134,-426.057,0,0
171141.05,196.725,-421.299,0,0
171401.375,197.876,-416.336,0,0
171661.7,199.385,-411.512,0,0
171922.025,201.037,-406.759,0,0
172182.35,202.883,-402.104,0,0
172442.675,204.661,-397.6,0,0
172703.0,206.604,-392.846,0,0
172963.325,208.832,-388.115,0,0
173223.65,211.162,-383.656,0,0
173483.975,213.399,-379.083,0,0
173744.3,215.732,-374.246,0,0
174004.625,218.464,-369.355,0,0
174264.95,221.388,-364.38,0,0
174525.275,224.679,-359.376,0,0
174785.6,228.36,-354.371,0,0
175045.925,232.475,-349.623,0,0
175306.25,236.846,-345.077,0,0
175566.575,241.563,-340.711,0,0
175826.9,246.68,-336.735,0,0
176087.225,251.844,-333.348,0,0
176347.55,256.971,-330.346,0,0
176607.875,261.931,-327.643,0,0
176868.2,266.675,-324.942,0,0
177128.525,271.591,-322.038,0,0
177388.85,277.053,-319.314,0,0
177649.175,282.891,-317.153,0,0
177909.5,288.877,-315.907,0,0
178169.825,294.412,-315.449,0,0
178430.15,299.193,-315.291,0,0
178690.475,303.723,-315.075,0,0
178950.8,308.175,-315.263,0,0
179211.125,311.874,-315.874,0,0
179471.45,315.15,-316.526,0,0
179731.775,317.211,-317.491,0,0
179992.1,319.48,-316.493,0,0
180252.425,320.619,-316.264,0,0
180512.75,321.579,-315.158,0,0
180773.075,322.518,-313.519,0,0
181033.4,323.305,-311.504,0,0
181293.725,323.991,-308.554,0,0
181554.05,325.249,-304.686,0,0
181814.375,327.281,-300.306,0,0
182074.7,330.075,-295.974,0,0
182335.025,333.495,-291.919,0,0
182595.35,336.966,-288.33,0,0
182855.675,340.021,-284.671,0,0
183116.0,343.105,-280.423,0,0
183376.325,346.803,-275.54,0,0
183636.65,351.233,-270.622,0,0
183896.975,356.251,-265.987,0,0
184157.3,361.408,-261.537,0,0
184417.625,366.835,-256.875,0,0
184677.95,372.963,-252.173,0,0
184938.275,379.79,-247.862,0,0
185198.6,386.971,-244.132,0,0
185458.925,394.173,-240.908,0,0
185719.25,401.333,-237.865,0,0
185979.575,408.626,-235.03,0,0
186239.9,416.098,-232.339,0,0
186500,423.924,-230.083,0,0
186761,431.447,-228.332,0,0
187021,438.538,-226.319,0,0
187281,446.032,-223.709,0,0
187542,454.423,-221.328,0,0
187802,463.18,-219.612,0,0
188062,471.92,-218.541,0,0
188322,480.419,-217.611,0,0
188583,489.162,-217.04,0,0
188843,497.631,-217.047,0,0
189103,505.431,-217.228,0,0
189364,512.958,-216.682,0,0
189624,520.827,-215.799,0,0
189884,529.087,-214.751,0,0
190145,537.714,-213.663,0,0
190405,546.764,-212.569,0,0
190665,556.311,-211.663,0,0
190926,565.873,-210.787,0,0
191186,576.077,-209.577,0,0
191446,587.354,-208.476,0,0
191707,599.468,-208.22,0,0
191967,611.836,-208.549,0,0
192227,624.731,-209.327,0,0
192488,638.112,-210.726,0,0
192748,652.081,-212.736,0,0
193008,666.657,-215.53,0,0
193269,681.993,-219.461,0,0
193529,697.588,-225.037,0,0
193789,712.948,-232.096,0,0
194050,727.85,-240.687,0,0
194310,741.766,-250.464,0,0
194570,754.629,-260.757,0,0
194831,766.97,-271.447,0,0
195091,778.801,-282.722,0,0
195351,789.909,-294.811,0,0
195612,800.089,-307.13,0,0
195872,809.591,-319.544,0,0
196132,818.718,-332.11,0,0
196393,827.479,-344.905,0,0
196653,835.715,-358.019,0,0
196913,843.434,-371.23,0,0
197174,850.984,-384.414,0,0
197434,858.527,-397.871,0,0
197694,866.021,-411.928,0,0
197955,873.488,-426.684,0,0
198215,880.504,-442.639,0,0
198475,886.528,-459.739,0,0
198735,890.913,-477.559,0,0
198996,893.808,-495.249,0,0
199256,895.471,-512.647,0,0
199516,896.262,-529.402,0,0
199777,896.916,-545.573,0,0
200037,897.537,-561.847,0,0
200297,897.832,-578.464,0,0
200558,897.413,-595.738,0,0
200818,895.942,-613.411,0,0
201078,893.47,-631.252,0,0
201339,889.595,-649.465,0,0
201599,883.96,-667.158,0,0
201859,877.018,-683.411,0,0
202120,869.796,-698.612,0,0
202380.025,862.813,-713.341,0,0
202640.35,855.068,-728.277,0,0
202900.675,846.157,-742.825,0,0
203161.0,836.375,-756.362,0,0
203421.325,825.824,-768.708,0,0
203681.65,814.905,-779.806,0,0
203941.975,804.484,-790.158,0,0
204202.3,794.46,-799.976,0,0
204462.625,783.998,-809.302,0,0
204722.95,773.741,-818.287,0,0
204983.275,763.761,-827.684,0,0
205243.6,752.74,-836.985,0,0
205503.925,740.089,-845.997,0,0
205764.25,726.586,-852.802,0,0
206024.575,713.508,-857.919,0,0
206284.9,701.363,-861.914,0,0
206545.225,689.643,-865.521,0,0
206805.55,678.143,-868.681,0,0
207065.875,666.967,-871.173,0,0
207326.2,656.198,-872.984,0,0
207586.525,646.147,-874.076,0,0
207846.85,636.838,-874.875,0,0
208107.175,628.253,-875.431,0,0
208367.5,620.395,-876.102,0,0
208627.825,612.986,-877.103,0,0
208888.15,606.02,-878.139,0,0
209148.475,599.621,-879.732,0,0
209408.8,593.146,-882.217,0,0
209669.125,586.134,-885.225,0,0
209929.45,578.375,-888.555,0,0
210189.775,569.779,-891.203,0,0
210450.1,560.853,-893.368,0,0
210710.425,551.94,-895.148,0,0
210970.75,542.868,-896.545,0,0
211231.075,533.339,-897.525,0,0
211491.4,523.703,-897.955,0,0
211751.725,514.017,-897.389,0,0
212012.05,504.514,-895.825,0,0
212272.375,495.889,-893.576,0,0
212532.7,488.208,-891.244,0,0
212793.025,480.824,-889.046,0,0
213053.35,473.552,-886.763,0,0
213313.675,466.553,-884.281,0,0
213574.0,459.884,-881.699,0,0
213834.325,453.398,-878.8,0,0
214094.65,447.302,-875.835,0,0
214354.975,441.64,-872.845,0,0
214615.3,436.208,-869.864,0,0
214875.625,430.981,-866.859,0,0
215135.95,426.138,-863.96,0,0
215396.275,421.252,-861.092,0,0
215656.6,416.452,-858.067,0,0
215916.925,411.875,-854.825,0,0
216177.25,407.61,-851.478,0,0
216437.575,403.761,-848.329,0,0
216697.9,399.961,-845.213,0,0
216958.225,396.391,-841.884,0,0
217218.55,393.017,-838.599,0,0
217478.875,389.951,-835.442,0,0
217739.2,387.148,-832.286,0,0
217999.525,384.497,-829.384,0,0
218259.85,381.852,-826.563,0,0
218520,379.331,-823.595,0,0
218780,376.934,-820.643,0,0
219041,374.927,-817.715,0,0
219301,373.041,-814.844,0,0
219561,371.415,-812.094,0,0
219822,370.047,-809.49,0,0
220082,368.737,-807.188,0,0
220342,367.397,-805.067,0,0
220603,366.017,-802.989,0,0
220863,364.586,-800.864,0,0
221123,363.409,-798.535,0,0
221384,362.458,-796.443,0,0
221644,361.767,-794.373,0,0
221904,361.11,-792.557,0,0
222165,360.625,-790.76,0,0
222425,360.497,-789.191,0,0
222685,360.327,-787.968,0,0
222946,360.296,-787.086,0,0
223206,360.062,-786.554,0,0
223466,359.589,-786.214,0,0
223727,358.857,-785.862,0,0
223987,358.006,-785.46,0,0
224247,357.366,-785.034,0,0
224508,356.726,-784.643,0,0
224768,355.92,-784.615,0,0
225028,354.904,-784.489,0,0
225289,353.733,-784.292,0,0
225549,352.641,-783.91,0,0
225809,351.69,-783.244,0,0
226070,351.036,-782.774,0,0
226330,350.449,-782.396,0,0
226590,349.95,-782.078,0,0
226851,349.597,-781.913,0,0
227111,349.492,-781.809,0,0
227371,349.301,-782.237,0,0
227632,349.054,-782.752,0,0
227892,348.899,-783.461,0,0
228152,348.664,-784.475,0,0
228413,348.369,-785.689,0,0
228673,347.869,-787.334,0,0
228933,347.055,-789.136,0,0
229193,345.947,-791.141,0,0
229454,344.484,-793.132,0,0
229714,342.735,-795.157,0,0
229974,340.682,-797.168,0,0
230235,338.368,-799.147,0,0
230495,335.737,-800.859,0,0
230755,333.023,-802.486,0,0
231016,330.111,-803.94,0,0
231276,327.053,-805.174,0,0
231536,323.871,-806.232,0,0
231797,320.762,-807.231,0,0
232057,317.676,-808.153,0,0
232317,314.427,-809.023,0,0
232578,311.019,-809.795,0,0
232838,307.608,-810.352,0,0
233098,304.07,-810.777,0,0
233359,300.582,-811.034,0,0
233619,297.01,-811.252,0,0
233879,293.55,-811.257,0,0
234140,290.003,-811.158,0,0
234400,286.456,-810.976,0,0
234660.3,282.898,-810.684,0,0
234920.625,279.556,-810.193,0,0
235180.95,276.214,-809.641,0,0
235441.275,272.8,-809.137,0,0
235701.6,269.469,-808.533,0,0
235961.925,266.077,-807.921,0,0
236222.25,262.776,-807.203,0,0
236482.575,259.393,-806.451,0,0
236742.9,255.984,-805.568,0,0
237003.225,252.667,-804.685,0,0
237263.55,249.233,-803.662,0,0
237523.875,245.877,-802.552,0,0
237784.2,242.49,-801.276,0,0
238044.525,239.116,-799.825,0,0
238304.85,235.948,-798.331,0,0
238565.175,232.874,-796.795,0,0
238825.5,229.78,-795.102,0,0
239085.825,226.727,-793.36,0,0
239346.15,223.831,-791.693,0,0
239606.475,220.945,-789.805,0,0
239866.8,218.11,-787.895,0,0
240127.125,215.461,-785.81,0,0
240387.45,212.851,-783.867,0,0
240647.775,210.376,-781.842,0,0
240908.1,208.032,-779.793,0,0
241168.425,205.756,-777.835,0,0
241428.75,203.476,-775.85,0,0
241689.075,201.322,-773.863,0,0
241949.4,199.113,-771.874,0,0
242209.725,197.03,-769.771,0,0
242470.05,195.044,-767.647,0,0
242730.375,193.22,-765.536,0,0
242990.7,191.591,-763.553,0,0
243251.025,189.939,-761.671,0,0
243511.35,188.368,-759.899,0,0
243771.675,186.708,-758.201,0,0
244032.0,185.112,-756.584,0,0
244292.325,183.396,-754.994,0,0
244552.65,181.754,-753.464,0,0
244812.975,180.158,-751.965,0,0
245073.3,178.441,-750.48,0,0
245333.625,176.779,-749.1,0,0
245593.95,174.931,-747.798,0,0
245854.275,173.168,-746.603,0,0
246114.6,171.18,-745.407,0,0
246374.925,169.015,-744.213,0,0
246635.25,166.596,-743.051,0,0
246895.575,163.973,-741.598,0,0
247155.9,161.274,-739.95,0,0
247416.225,158.603,-738.132,0,0
247676.55,155.933,-736.061,0,0
247936.875,153.277,-733.811,0,0
248197.2,150.706,-731.415,0,0
248457.525,148.275,-728.853,0,0
248717.85,145.981,-726.251,0,0
248978.175,143.661,-723.622,0,0
249238.5,141.467,-720.716,0,0
249498.825,139.44,-717.924,0,0
249759.15,137.441,-714.938,0,0
250019.475,135.449,-711.882,0,0
250279.8,133.631,-708.885,0,0
250540,131.856,-705.678,0,0
250800,130.212,-702.405,0,0
251061,128.696,-699.021,0,0
251321,127.424,-695.611,0,0
251581,126.216,-692.134,0,0
251842,125.207,-688.646,0,0
252102,124.458,-685.202,0,0
252362,123.807,-681.811,0,0
252623,123.22,-678.527,0,0
252883,122.812,-675.256,0,0
253143,122.391,-672.092,0,0
253404,122.068,-668.945,0,0
253664,121.735,-665.903,0,0
253924,121.487,-662.798,0,0
254185,121.307,-659.7,0,0
254445,121.113,-656.653,0,0
254705,121.013,-653.601,0,0
254966,120.976,-650.474,0,0
255226,121.005,-647.374,0,0
255486,121.187,-644.198,0,0
255747,121.465,-640.978,0,0
256007,121.908,-637.821,0,0
256267,122.523,-634.695,0,0
256528,123.275,-631.694,0,0
256788,124.198,-628.748,0,0
257048,125.158,-625.954,0,0
257309,126.22,-623.267,0,0
257569,127.308,-620.689,0,0
257829,128.421,-618.224,0,0
258090,129.56,-615.798,0,0
258350,130.723,-613.505,0,0
258610,131.962,-611.205,0,0
258871,133.186,-608.948,0,0
259131,134.469,-606.756,0,0
259391,135.777,-604.601,0,0
259651,137.248,-602.488,0,0
259912,138.818,-600.429,0,0
260172,140.443,-598.546,0,0
260432,142.105,-596.704,0,0
260693,143.875,-595.061,0,0
260953,145.621,-593.508,0,0
261213,147.379,-592.077,0,0
261474,149.175,-590.776,0,0
261734,150.953,-589.594,0,0
261994,152.719,-588.533,0,0
262255,154.475,-587.544,0,0
262515,156.247,-586.612,0,0
262775,158.03,-585.861,0,0
263036,159.827,-585.204,0,0
263296,161.519,-584.703,0,0
263556,163.183,-584.272,0,0
263817,164.759,-583.939,0,0
264077,166.353,-583.727,0,0
264337,167.828,-583.557,0,0
264598,169.283,-583.458,0,0
264858,170.681,-583.504,0,0
265118,171.893,-583.606,0,0
265379,173.095,-583.779,0,0
265639,174.168,-584.016,0,0
265899,175.099,-584.269,0,0
266160,175.96,-584.472,0,0
266420,176.775,-584.676,0,0
266680.25,177.543,-584.876,0,0
266940.575,178.235,-585.142,0,0
267200.9,178.884,-585.388,0,0
267461.225,179.465,-585.653,0,0
267721.55,179.961,-585.974,0,0
267981.875,180.382,-586.287,0,0
268242.2,180.657,-586.575,0,0
268502.525,180.856,-586.816,0,0
268762.85,180.994,-587.041,0,0
269023.175,180.974,-587.193,0,0
269283.5,180.892,-587.165,0,0
269543.825,180.732,-587.017,0,0
269804.15,180.642,-586.668,0,0
270064.475,180.55,-586.157,0,0
270324.8,180.579,-585.667,0,0
270585.125,180.669,-584.962,0,0
270845.45,180.911,-584.127,0,0
271105.775,181.33,-583.265,0,0
271366.1,181.902,-582.417,0,0
271626.425,182.679,-581.618,0,0
271886.75,183.508,-580.9,0,0
272147.075,184.411,-580.161,0,0
272407.4,185.447,-579.423,0,0
272667.725,186.623,-578.693,0,0
272928.05,188.057,-578.016,0,0
273188.375,189.683,-577.442,0,0
273448.7,191.42,-577.091,0,0
273709.025,193.364,-576.844,0,0
273969.35,195.462,-576.829,0,0
274229.675,197.662,-577.006,0,0
274490.0,200.111,-577.457,0,0
274750.325,202.671,-578.277,0,0
275010.65,205.277,-579.63,0,0
275270.975,207.843,-581.411,0,0
275531.3,210.233,-583.722,0,0
275791.625,212.341,-586.462,0,0
276051.95,214.039,-589.656,0,0
276312.275,215.222,-593.14,0,0
276572.6,215.911,-596.821,0,0
276832.925,215.964,-600.536,0,0
277093.25,215.458,-604.149,0,0
277353.575,214.597,-607.558,0,0
277613.9,213.363,-610.775,0,0
277874.225,211.875,-613.746,0,0
278134.55,210.16,-616.504,0,0
278394.875,208.262,-619.016,0,0
278655.2,206.258,-621.33,0,0
278915.525,204.095,-623.483,0,0
279175.85,201.827,-625.434,0,0
279436.175,199.465,-627.209,0,0
279696.5,197.028,-628.813,0,0
279956.825,194.545,-630.27,0,0
280217.15,191.912,-631.547,0,0
280477.475,189.21,-632.607,0,0
280737.8,186.531,-633.451,0,0
280998.125,183.914,-634.083,0,0
281258.45,181.402,-634.632,0,0
281518.775,178.933,-635.168,0,0
281779.1,176.375,-635.705,0,0
282039.425,173.749,-636.184,0,0
282299.75,170.943,-636.59,0,0
282560,167.98,-636.754,0,0
282820,164.908,-636.713,0,0
283081,161.801,-636.301,0,0
283341,158.823,-635.573,0,0
283601,156.035,-634.522,0,0
283862,153.554,-633.309,0,0
284122,151.462,-632.076,0,0
284382,149.552,-631.108,0,0
284643,147.71,-630.338,0,0
284903,145.687,-629.754,0,0
285163,143.433,-629.259,0,0
285424,140.968,-628.665,0,0
285684,138.181,-627.817,0,0
285944,135.302,-626.706,0,0
286205,132.354,-625.282,0,0
286465,129.369,-623.473,0,0
286725,126.464,-621.266,0,0
286986,123.773,-618.666,0,0
287246,121.392,-615.817,0,0
287506,119.276,-612.761,0,0
287767,117.416,-609.49,0,0
288027,115.879,-606.057,0,0
288287,114.652,-602.524,0,0
288548,113.712,-598.874,0,0
288808,113.103,-595.1,0,0
289068,112.896,-591.203,0,0
289329,113.209,-587.273,0,0
289589,114.023,-583.46,0,0
289849,115.302,-579.863,0,0
290109,116.997,-576.547,0,0
290370,118.993,-573.562,0,0
290630,121.242,-570.868,0,0
290890,123.817,-568.54,0,0
291151,126.664,-566.565,0,0
291411,129.715,-565.102,0,0
291671,132.917,-564.198,0,0
291932,136.134,-563.875,0,0
292192,139.242,-564.168,0,0
292452,142.153,-565.021,0,0
292713,144.675,-566.473,0,0
292973,146.62,-568.338,0,0
293233,147.925,-570.448,0,0
293494,148.64,-572.503,0,0
293754,148.84,-574.506,0,0
294014,148.506,-576.247,0,0
294275,147.854,-577.602,0,0
294535,147.027,-578.513,0,0
294795,146.21,-579.033,0,0
295056,145.568,-579.137,0,0
295316,145.192,-579.049,0,0
295576,145.122,-578.863,0,0
295837,145.399,-578.683,0,0
296097,146.099,-578.68,0,0
296357,147.135,-579.097,0,0
296618,148.266,-580.177,0,0
296878,149.147,-581.908,0,0
297138,149.45,-584.108,0,0
297399,149.098,-586.465,0,0
297659,148.159,-588.716,0,0
297919,146.75,-590.723,0,0
298180,145.005,-592.422,0,0
298440,143.062,-593.731,0,0
298700.2,141.011,-594.713,0,0
298960.525,138.973,-595.417,0,0
299220.85,136.991,-595.906,0,0
299481.175,135.018,-596.264,0,0
299741.5,133.047,-596.499,0,0
300001.825,131.069,-596.582,0,0
300262.15,129.062,-596.5,0,0
300522.475,127.06,-596.19,0,0
300782.8,125.175,-595.738,0,0
301043.125,123.402,-595.038,0,0
301303.45,121.825,-594.214,0,0
301563.775,120.469,-593.311,0,0
301824.1,119.319,-592.409,0,0
302084.425,118.384,-591.551,0,0
302344.75,117.604,-590.808,0,0
302605.075,116.963,-590.247,0,0
302865.4,116.339,-589.884,0,0
303125.725,115.658,-589.662,0,0
303386.05,114.939,-589.595,0,0
303646.375,114.088,-589.596,0,0
303906.7,113.162,-589.666,0,0
304167.025,112.073,-589.762,0,0
304427.35,110.869,-589.875,0,0
304687.675,109.529,-589.951,0,0
304948.0,108.078,-589.99,0,0
305208.325,106.507,-589.935,0,0
305468.65,104.844,-589.773,0,0
305728.975,103.152,-589.47,0,0
305989.3,101.403,-589.077,0,0
306249.625,99.6547,-588.537,0,0
306509.95,97.916,-587.878,0,0
306770.275,96.1882,-587.146,0,0
307030.6,94.5098,-586.331,0,0
307290.925,92.8446,-585.407,0,0
307551.25,91.2617,-584.389,0,0
307811.575,89.7175,-583.29,0,0
308071.9,88.2671,-582.146,0,0
308332.225,86.8546,-580.961,0,0
308592.55,85.5328,-579.72,0,0
308852.875,84.2581,-578.461,0,0
309113.2,83.0815,-577.172,0,0
309373.525,81.9734,-575.889,0,0
309633.85,80.9098,-574.601,0,0
309894.175,79.905,-573.369,0,0
310154.5,78.9273,-572.154,0,0
310414.825,77.9744,-570.905,0,0
310675.15,76.9988,-569.671,0,0
310935.475,76.0633,-568.422,0,0
311195.8,75.1474,-567.155,0,0
311456.125,74.2544,-565.91,0,0
311716.45,73.3929,-564.645,0,0
311976.775,72.5454,-563.363,0,0
312237.1,71.7181,-562.052,0,0
312497.425,70.9293,-560.731,0,0
312757.75,70.1668,-559.401,0,0
313018.075,69.4772,-558.058,0,0
313278.4,68.8204,-556.7,0,0
313538.725,68.1944,-555.377,0,0
313799.05,67.616,-554.073,0,0
314059.375,67.0592,-552.779,0,0
314319.7,66.521,-551.496,0,0
314580,65.9065,-550.228,0,0
314840,65.3888,-549.019,0,0
315101,64.9185,-547.663,0,0
315361,64.377,-546.449,0,0
315621,63.9521,-545.267,0,0
315882,63.4712,-543.893,0,0
316142,62.9783,-542.676,0,0
316402,62.5857,-541.36,0,0
316663,62.2256,-540.108,0,0
316923,61.8116,-538.794,0,0
317183,61.4658,-537.48,0,0
317444,61.1951,-536.275,0,0
317704,60.8735,-535.003,0,0
317964,60.6546,-533.764,0,0
318225,60.3974,-532.598,0,0
318485,60.1693,-531.366,0,0
318745,59.9793,-530.204,0,0
319006,59.8191,-529.064,0,0
319266,59.5792,-527.946,0,0
319526,59.4162,-526.869,0,0
319787,59.2763,-525.805,0,0
320047,59.0754,-524.674,0,0
320307,58.903,-523.559,0,0
320567,58.6698,-522.506,0,0
320828,58.478,-521.495,0,0
321088,58.278,-520.363,0,0
321348,58.0771,-519.298,0,0
321609,57.8404,-518.191,0,0
321869,57.6507,-517.09,0,0
322129,57.418,-515.957,0,0
322390,57.2272,-514.853,0,0
322650,57.1013,-513.764,0,0
322910,56.9312,-512.558,0,0
323171,56.7316,-511.443,0,0
323431,56.5811,-510.291,0,0
323691,56.4484,-509.06,0,0
323952,56.275,-507.783,0,0
324212,56.2395,-506.449,0,0
324472,56.2245,-505.134,0,0
324733,56.2599,-503.781,0,0
324993,56.3973,-502.411,0,0
325253,56.6196,-501.06,0,0
325514,56.918,-499.724,0,0
325774,57.3507,-498.436,0,0
326034,57.8773,-497.148,0,0
326295,58.4804,-496.026,0,0
326555,59.1725,-495.014,0,0
326815,59.8312,-494.116,0,0
327076,60.4923,-493.284,0,0
327336,61.1768,-492.628,0,0
327596,61.824,-492.104,0,0
327857,62.3378,-491.537,0,0
328117,62.8279,-491.102,0,0
328377,63.246,-490.655,0,0
328638,63.6335,-490.231,0,0
328898,64.0397,-489.817,0,0
329158,64.3038,-489.44,0,0
329419,64.6796,-489.009,0,0
329679,64.9888,-488.692,0,0
329939,65.2742,-488.371,0,0
330200,65.5899,-488.099,0,0
330460,65.8117,-487.822,0,0
330720.15,66.0883,-487.669,0,0
330980.475,66.2241,-487.472,0,0
331240.8,66.4076,-487.355,0,0
331501.125,66.4662,-487.252,0,0
331761.45,66.4954,-487.253,0,0
332021.775,66.4217,-487.222,0,0
332282.1,66.2865,-487.114,0,0
332542.425,66.1091,-487.114,0,0
332802.75,65.7727,-487.056,0,0
333063.075,65.4194,-486.908,0,0
333323.4,65.0205,-486.79,0,0
333583.725,64.5044,-486.563,0,0
333844.05,63.9821,-486.275,0,0
334104.375,63.4101,-485.918,0,0
334364.7,62.8985,-485.485,0,0
334625.025,62.3337,-484.971,0,0
334885.35,61.8713,-484.374,0,0
335145.675,61.3874,-483.811,0,0
335406.0,60.9695,-483.168,0,0
335666.325,60.4987,-482.527,0,0
335926.65,60.0917,-481.865,0,0
336186.975,59.7001,-481.197,0,0
336447.3,59.2977,-480.487,0,0
336707.625,58.9049,-479.832,0,0
336967.95,58.4922,-479.071,0,0
337228.275,58.2144,-478.314,0,0
337488.6,57.8635,-477.604,0,0
337748.925,57.4935,-476.799,0,0
338009.25,57.2374,-476.069,0,0
338269.575,56.9607,-475.221,0,0
338529.9,56.6668,-474.415,0,0
338790.225,56.4268,-473.67,0,0
339050.55,56.162,-472.865,0,0
339310.875,55.9324,-472.037,0,0
339571.2,55.6858,-471.18,0,0
339831.525,55.4516,-470.301,0,0
340091.85,55.2775,-469.46,0,0
340352.175,55.0407,-468.592,0,0
340612.5,54.9034,-467.697,0,0
340872.825,54.7409,-466.866,0,0
341133.15,54.668,-465.984,0,0
341393.475,54.5875,-465.098,0,0
341653.8,54.5053,-464.202,0,0
341914.125,54.4072,-463.335,0,0
342174.45,54.3757,-462.435,0,0
342434.775,54.3166,-461.599,0,0
342695.1,54.2888,-460.763,0,0
342955.425,54.2485,-459.911,0,0
343215.75,54.251,-459.004,0,0
343476.075,54.3058,-458.171,0,0
343736.4,54.3422,-457.293,0,0
343996.725,54.3758,-456.337,0,0
344257.05,54.438,-455.496,0,0
344517.375,54.5729,-454.622,0,0
344777.7,54.6843,-453.755,0,0
345038.025,54.8022,-452.871,0,0
345298.35,55.0037,-452.084,0,0
345558.675,55.1565,-451.18,0,0
345819.0,55.3572,-450.409,0,0
346079.325,55.5679,-449.586,0,0
346339.65,55.8117,-448.833,0,0
346599.975,56.0603,-448.118,0,0
346860,56.3015,-447.362,0,0
347121,56.5177,-446.607,0,0
347381,56.7646,-445.893,0,0
347641,57.1027,-445.19,0,0
347902,57.3533,-444.513,0,0
348162,57.64,-443.856,0,0
348422,57.9396,-443.169,0,0
348683,58.2528,-442.516,0,0
348943,58.5171,-441.892,0,0
349203,58.8547,-441.293,0,0
349464,59.2381,-440.676,0,0
349724,59.5456,-440.15,0,0
349984,59.9438,-439.593,0,0
350245,60.2731,-439.034,0,0
350505,60.6031,-438.579,0,0
350765,60.9118,-438.059,0,0
351025,61.2454,-437.615,0,0
351286,61.593,-437.144,0,0
351546,61.8751,-436.765,0,0
351806,62.1484,-436.421,0,0
352067,62.4643,-435.974,0,0
352327,62.6831,-435.672,0,0
352587,62.9361,-435.278,0,0
352848,63.1438,-434.906,0,0
353108,63.3496,-434.547,0,0
353368,63.5464,-434.152,0,0
353629,63.6881,-433.705,0,0
353889,63.9412,-433.296,0,0
354149,64.12,-432.882,0,0
354410,64.3719,-432.432,0,0
354670,64.6459,-432.053,0,0
354930,64.7967,-431.598,0,0
355191,65.0758,-431.216,0,0
355451,65.3305,-430.851,0,0
355711,65.6239,-430.457,0,0
355972,65.8366,-430.099,0,0
356232,66.1198,-429.755,0,0
356492,66.3613,-429.375,0,0
356753,66.6617,-429.022,0,0
357013,66.9759,-428.671,0,0
357273,67.244,-428.371,0,0
357534,67.6268,-428.013,0,0
357794,68.0058,-427.761,0,0
358054,68.3264,-427.506,0,0
358315,68.6853,-427.296,0,0
358575,69.0715,-427.1,0,0
358835,69.4029,-426.994,0,0
359096,69.716,-426.904,0,0
359356,70.056,-426.828,0,0
359616,70.3692,-426.795,0,0
359877,70.5835,-426.863,0,0
360137,70.801,-426.789,0,0
360397,70.9688,-426.902,0,0
360658,71.0958,-426.904,0,0
360918,71.2122,-426.952,0,0
361178,71.3031,-426.988,0,0
361438,71.3719,-427.082,0,0
361699,71.3796,-427.131,0,0
361959,71.3459,-427.218,0,0
362219,71.3375,-427.235,0,0
362480,71.2172,-427.257,0,0
362740.1,71.1223,-427.278,0,0
363000.425,70.9826,-427.275,0,0
363260.75,70.8786,-427.291,0,0
363521.075,70.6919,-427.177,0,0
363781.4,70.5963,-427.192,0,0
364041.725,70.4063,-427.107,0,0
364302.05,70.2233,-427.008,0,0
364562.375,69.989,-426.94,0,0
364822.7,69.8141,-426.862,0,0
365083.025,69.6267,-426.711,0,0
365343.35,69.3938,-426.611,0,0
365603.675,69.2069,-426.416,0,0
365864.0,68.928,-426.255,0,0
366124.325,68.6516,-426.072,0,0
366384.65,68.3617,-425.822,0,0
366644.975,68.1408,-425.545,0,0
366905.3,67.856,-425.28,0,0
367165.625,67.6233,-424.936,0,0
367425.95,67.5134,-424.595,0,0
367686.275,67.4073,-424.232,0,0
367946.6,67.2878,-423.889,0,0
368206.925,67.233,-423.54,0,0
368467.25,67.2346,-423.23,0,0
368727.575,67.2728,-422.962,0,0
368987.9,67.2513,-422.73,0,0
369248.225,67.2989,-422.632,0,0
369508.55,67.3201,-422.505,0,0
369768.875,67.2877,-422.449,0,0
370029.2,67.1615,-422.396,0,0
370289.525,67.0011,-422.419,0,0
370549.85,66.8113,-422.364,0,0
370810.175,66.5823,-422.253,0,0
371070.5,66.2834,-422.214,0,0
371330.825,66.0126,-422.04,0,0
371591.15,65.7307,-421.884,0,0
371851.475,65.4171,-421.7,0,0
372111.8,65.1344,-421.461,0,0
372372.125,64.8866,-421.281,0,0
372632.45,64.5825,-421.008,0,0
372892.775,64.3832,-420.788,0,0
373153.1,64.1244,-420.515,0,0
373413.425,63.9226,-420.28,0,0
373673.75,63.6361,-420.057,0,0
373934.075,63.4132,-419.82,0,0
374194.4,63.2165,-419.591,0,0
374454.725,62.9634,-419.424,0,0
374715.05,62.717,-419.203,0,0
374975.375,62.4192,-419.016,0,0
375235.7,62.1435,-418.837,0,0
375496.025,61.7817,-418.613,0,0
375756.35,61.4672,-418.411,0,0
376016.675,61.1193,-418.182,0,0
376277.0,60.8079,-417.884,0,0
376537.325,60.4211,-417.593,0,0
376797.65,60.1254,-417.308,0,0
377057.975,59.8029,-417.016,0,0
377318.3,59.5142,-416.716,0,0
377578.625,59.2321,-416.414,0,0
377838.95,58.9611,-416.148,0,0
378099.275,58.6436,-415.974,0,0
378359.6,58.3429,-415.785,0,0
378619.925,57.8877,-415.655,0,0
378880,57.4209,-415.42,0,0
379141,56.8559,-415.229,0,0
379401,56.2627,-414.939,0,0
379661,55.5441,-414.536,0,0
379922,54.919,-414.014,0,0
380182,54.2431,-413.346,0,0
380442,53.7067,-412.583,0,0
380703,53.2932,-411.74,0,0
380963,53.0377,-410.905,0,0
381223,52.9442,-410.129,0,0
381483,52.8792,-409.376,0,0
381744,52.9871,-408.758,0,0
382004,53.0461,-408.306,0,0
382264,53.0713,-407.967,0,0
382525,53.0255,-407.709,0,0
382785,52.9351,-407.433,0,0
383045,52.705,-407.252,0,0
383306,52.4464,-406.996,0,0
383566,52.1365,-406.761,0,0
383826,51.7789,-406.452,0,0
384087,51.4147,-406.082,0,0
384347,50.9586,-405.796,0,0
384607,50.5293,-405.363,0,0
384868,50.0532,-404.902,0,0
385128,49.606,-404.422,0,0
385388,49.1836,-403.901,0,0
385649,48.7629,-403.348,0,0
385909,48.323,-402.773,0,0
386169,47.9889,-402.165,0,0
386430,47.615,-401.545,0,0
386690,47.2294,-400.801,0,0
386950,46.9344,-400.152,0,0
387211,46.6552,-399.438,0,0
387471,46.4298,-398.805,0,0
387731,46.1733,-398.064,0,0
387992,45.9413,-397.418,0,0
388252,45.7152,-396.719,0,0
388512,45.5354,-396.033,0,0
388773,45.3732,-395.336,0,0
389033,45.2357,-394.625,0,0
389293,45.106,-393.906,0,0
389554,45.0366,-393.206,0,0
389814,44.9938,-392.559,0,0
390074,44.9629,-391.885,0,0
390335,44.9749,-391.251,0,0
390595,45.0061,-390.621,0,0
390855,45.0407,-390.058,0,0
391116,45.0871,-389.528,0,0
391376,45.1158,-389.037,0,0
391636,45.104,-388.632,0,0
391896,45.0918,-388.266,0,0
392157,45.0113,-387.903,0,0
392417,44.875,-387.569,0,0
392677,44.6635,-387.188,0,0
392938,44.416,-386.859,0,0
393198,44.1367,-386.406,0,0
393458,43.8201,-385.956,0,0
393719,43.472,-385.463,0,0
393979,43.1297,-384.903,0,0
394239,42.7915,-384.333,0,0
394500,42.4325,-383.672,0,0
394760.05,42.0939,-382.996,0,0
395020.375,41.8325,-382.27,0,0
395280.7,41.5614,-381.512,0,0
395541.025,41.3379,-380.695,0,0
395801.35,41.1182,-379.895,0,0
396061.675,40.9642,-379.103,0,0
396322.0,40.821,-378.249,0,0
396582.325,40.7479,-377.423,0,0
396842.65,40.6952,-376.627,0,0
397102.975,40.6304,-375.802,0,0
397363.3,40.6176,-374.991,0,0
397623.625,40.6177,-374.21,0,0
397883.95,40.6538,-373.381,0,0
398144.275,40.7507,-372.603,0,0
398404.6,40.8336,-371.837,0,0
398664.925,40.9283,-371.075,0,0
398925.25,41.0414,-370.347,0,0
399185.575,41.1739,-369.61,0,0
399445.9,41.2719,-368.935,0,0
399706.225,41.4366,-368.245,0,0
399966.55,41.5963,-367.575,0,0
400006.6,41.6241,-367.477,0,0