File: Accelerated corrosion test data/2025-10-15_11-00-19/sample_1.csv
Frequency (Hz),Impedance (ohms),Phase (Radians),Temperature (C),Humidity (%)
10000.0,240.647,-12194.1,0,0
10260.325,241.535,-11879.2,0,0
10520.65,231.135,-11599.8,0,0
10780.975,226.038,-11316.1,0,0
11041.3,219.383,-11056.8,0,0
11301.625,215.181,-10799.7,0,0
11561.95,210.397,-10556.4,0,0
11822.275,207.709,-10317.9,0,0
12082.6,227.359,-10087.7,0,0
12342.925,211.22,-9914.23,0,0
12603.25,195.11,-9700.98,0,0
12863.575,190.695,-9498.96,0,0
13123.9,200.943,-9306.51,0,0
13384.225,185.151,-9136.84,0,0
13644.55,182.786,-8956.01,0,0
13904.875,184.862,-8779,0,0
14165.2,193.882,-8644.34,0,0
14425.525,212.742,-8474.12,0,0
14685.8,204.854,-8309.67,0,0
14946.175,179.709,-8211.21,0,0
15206.5,186.507,-8046.6,0,0
15466.825,174.161,-7932.66,0,0
15727.15,172.928,-7798.43,0,0
15987.5,162.096,-7671.39,0,0
16247.8,157.465,-7545.37,0,0
16508.125,156.429,-7422.21,0,0
16768.45,159.188,-7304.74,0,0
17028.775,162.851,-7197.08,0,0
17289.1,154.498,-7094.42,0,0
17549.425,155.203,-6991.58,0,0
17809.75,146.567,-6886.31,0,0
18070.075,148.228,-6787.95,0,0
18330.4,142.399,-6692.18,0,0
18590.725,137.081,-6597.57,0,0
18851.05,138.937,-6499.31,0,0
19111.375,136.223,-6418.31,0,0
19371.7,133.303,-6326.37,0,0
19632.025,131.992,-6237.65,0,0
19892.35,136.531,-6151.26,0,0
20152.675,135.728,-6064.85,0,0
20413.0,156.113,-5975.72,0,0
20673.3,167.273,-5935.31,0,0
20933.65,149.219,-5865.78,0,0
21193.975,162.447,-5804.18,0,0
21454.3,140.348,-5730.86,0,0
21714.625,137.497,-5658.77,0,0
21974.9,139.608,-5577.79,0,0
22235.275,173.542,-5534.92,0,0
22495.6,141.346,-5493,0,0
22755.925,127.815,-5424.36,0,0
23016.25,122.544,-5356.91,0,0
23276.6,119.7,-5296.02,0,0
23536.9,116.537,-5234.75,0,0
23797.225,112.69,-5173.81,0,0
24057.55,115.918,-5113.63,0,0
24317.875,114.165,-5065.07,0,0
24578.2,111.952,-5005.54,0,0
24838.525,111.203,-4955.2,0,0
25098.85,110.751,-4901.3,0,0
25359.175,107.527,-4851.52,0,0
25619.5,105.867,-4800.88,0,0
25879.8,103.021,-4749.09,0,0
26140.1,103.107,-4700.42,0,0
26400.5,103.736,-4650.34,0,0
26660.8,106.266,-4600.02,0,0
26921.1,113.87,-4551.88,0,0
27181.4,122.28,-4520.36,0,0
27441.8,111.332,-4486.29,0,0
27702.1,104.729,-4437.02,0,0
27962.4,111.698,-4386.44,0,0
28222.7,111.488,-4349,0,0
28483.1,121.19,-4306.03,0,0
28743.4,130.934,-4286.94,0,0
29003.7,117.49,-4249.93,0,0
29264,119.097,-4216.36,0,0
29524.4,107.452,-4182.59,0,0
29784.7,106.92,-4140.49,0,0
30045,102.915,-4108.86,0,0
30305.3,100.565,-4070.06,0,0
30565.7,97.3764,-4031.68,0,0
30826,101.991,-3995.86,0,0
31086.3,104.19,-3968.1,0,0
31346.6,99.8141,-3938.61,0,0
31607,93.6761,-3901.54,0,0
31867.3,98.0126,-3868.91,0,0
32127.6,97.6932,-3837.96,0,0
32387.9,97.9784,-3811.69,0,0
32648.3,94.6665,-3779.9,0,0
32908.6,96.6358,-3751.34,0,0
33168.9,91.4428,-3723.35,0,0
33429.2,88.8037,-3694.28,0,0
33689.6,86.627,-3665.03,0,0
33949.9,85.6542,-3633.82,0,0
34210.2,86.661,-3607.8,0,0
34470.5,84.4999,-3580.63,0,0
34730.9,81.9812,-3552.78,0,0
34991.2,81.7479,-3525.78,0,0
35251.5,81.1969,-3498.95,0,0
35511.8,79.4856,-3472.7,0,0
35772.2,79.2673,-3447.23,0,0
36032.5,78.1282,-3421.61,0,0
36292.8,77.447,-3396.53,0,0
36553.1,77.0856,-3371.69,0,0
36813.5,76.1266,-3346.96,0,0
37073.8,75.969,-3322.89,0,0
37334.1,75.4558,-3299.6,0,0
37594.4,75.0856,-3276.12,0,0
37854.8,74.2961,-3253.63,0,0
38115.1,73.4282,-3230.49,0,0
38375.4,73.1209,-3207.79,0,0
38635.7,72.941,-3185.94,0,0
38896.1,72.3056,-3164.15,0,0
39156.4,72.467,-3141.84,0,0
39416.7,71.9906,-3121.91,0,0
39677,71.1644,-3100.53,0,0
39937.4,70.7484,-3079.48,0,0
40197.7,71.0893,-3058.82,0,0
40458,70.8646,-3038.83,0,0
40718.3,70.6262,-3018.11,0,0
40978.7,72.3044,-2998.73,0,0
41239,72.2068,-2981.04,0,0
41499.3,71.4389,-2962.38,0,0
41759.6,70.7809,-2943.81,0,0
42020,70.5533,-2924.86,0,0
42280.275,69.773,-2906.94,0,0
42540.6,70.3792,-2888.43,0,0
42800.925,69.9122,-2871.59,0,0
43061.25,69.2077,-2853.49,0,0
43321.575,68.7521,-2836.67,0,0
43581.9,68.3786,-2819.27,0,0
43842.225,67.6954,-2801.75,0,0
44102.55,67.7037,-2784.27,0,0
44362.875,68.3324,-2767.4,0,0
44623.2,69.2375,-2752.01,0,0
44883.525,68.4688,-2736.13,0,0
45143.85,68.1008,-2720.5,0,0
45404.175,68.5485,-2704.57,0,0
45664.5,67.542,-2690,0,0
45924.825,66.587,-2674.3,0,0
46185.15,66.2601,-2658.96,0,0
46445.475,65.7998,-2643.76,0,0
46705.8,65.1117,-2628.23,0,0
46966.125,64.9988,-2613.97,0,0
47226.45,64.3068,-2598.71,0,0
47486.775,64.2465,-2584.43,0,0
47747.1,63.9411,-2570.28,0,0
48007.425,63.8215,-2556.17,0,0
48267.75,63.5332,-2541.81,0,0
48528.075,62.4425,-2528.83,0,0
48788.4,61.5922,-2514.29,0,0
49048.725,61.4369,-2500.26,0,0
49309.05,61.34,-2486.48,0,0
49569.375,61.5089,-2473.43,0,0
49829.7,60.7955,-2460.38,0,0
50090.025,60.0582,-2447.14,0,0
50350.35,59.469,-2433.76,0,0
50610.675,59.4589,-2420.57,0,0
50871.0,59.268,-2407.63,0,0
51131.325,59.1735,-2394.84,0,0
51391.65,59.136,-2382.47,0,0
51651.975,58.585,-2370.22,0,0
51912.3,58.1314,-2357.77,0,0
52172.625,57.9897,-2345.44,0,0
52432.95,57.9607,-2333.26,0,0
52693.275,57.5862,-2321.31,0,0
52953.6,57.6139,-2309.43,0,0
53213.925,57.5528,-2297.6,0,0
53474.25,57.2921,-2286.19,0,0
53734.575,57.174,-2274.74,0,0
53994.9,57.1404,-2263.49,0,0
54255.225,56.6344,-2252.32,0,0
54515.55,56.2293,-2241.18,0,0
54775.875,56.114,-2229.77,0,0
55036.2,55.6698,-2218.59,0,0
55296.525,55.8325,-2207.58,0,0
55556.85,55.7433,-2197.02,0,0
55817.175,55.3724,-2186.42,0,0
56077.5,55.0017,-2175.67,0,0
56337.825,54.7812,-2164.97,0,0
56598.15,54.8018,-2154.34,0,0
56858.475,54.8002,-2144,0,0
57118.8,54.6076,-2133.85,0,0
57379.125,54.4692,-2123.47,0,0
57639.45,54.5303,-2113.41,0,0
57899.775,54.4256,-2103.42,0,0
58160.1,54.5447,-2093.53,0,0
58420.4,54.3612,-2083.81,0,0
58680.7,54.164,-2074.16,0,0
58941.1,54.152,-2064.34,0,0
59201.4,54.4574,-2054.74,0,0
59461.7,54.2243,-2045.63,0,0
59722,54.154,-2036.23,0,0
59982.4,54.0917,-2026.85,0,0
60242.7,54.0268,-2017.65,0,0
60503,54.1114,-2008.34,0,0
60763.3,54.4587,-1999.7,0,0
61023.7,54.0164,-1991.22,0,0
61284,53.514,-1982.22,0,0
61544.3,53.1472,-1973.12,0,0
61804.6,53.3691,-1964.11,0,0
62065,52.9741,-1955.83,0,0
62325.3,52.6437,-1946.92,0,0
62585.6,52.5465,-1938.15,0,0
62845.9,52.4434,-1929.34,0,0
63106.3,52.4602,-1920.76,0,0
63366.6,52.3416,-1912.23,0,0
63626.9,52.4264,-1903.81,0,0
63887.2,52.329,-1895.35,0,0
64147.6,52.455,-1886.99,0,0
64407.9,52.5832,-1878.58,0,0
64668.2,52.8296,-1870.4,0,0
64928.5,53.3918,-1862.05,0,0
65188.9,53.9142,-1854.12,0,0
65449.2,54.6018,-1846.51,0,0
65709.5,55.1672,-1839.55,0,0
65969.8,54.8688,-1832.38,0,0
66230.2,54.788,-1825.26,0,0
66490.5,54.6948,-1817.91,0,0
66750.8,54.7275,-1810.73,0,0
67011.1,54.2825,-1803.68,0,0
67271.5,53.623,-1795.98,0,0
67531.8,54.0078,-1788.3,0,0
67792.1,54.3266,-1781.48,0,0
68052.4,54.2081,-1775.04,0,0
68312.8,53.4636,-1767.73,0,0
68573.1,53.1229,-1760.47,0,0
68833.4,53.4166,-1753.36,0,0
69093.7,53.2168,-1746.75,0,0
69354.1,52.8756,-1739.89,0,0
69614.4,52.6609,-1733.22,0,0
69874.7,52.0293,-1726.37,0,0
70135,51.6888,-1719.7,0,0
70395.4,50.9508,-1712.92,0,0
70655.7,50.8069,-1705.77,0,0
70916,50.4882,-1698.8,0,0
71176.3,50.3475,-1692.05,0,0
71436.7,50.213,-1685.41,0,0
71697,49.8611,-1678.89,0,0
71957.3,49.2385,-1672.13,0,0
72217.6,48.751,-1665.42,0,0
72478,48.3373,-1658.34,0,0
72738.3,48.2297,-1651.45,0,0
72998.6,48.2321,-1644.63,0,0
73258.9,48.2884,-1638.11,0,0
73519.3,48.1862,-1631.62,0,0
73779.6,47.9314,-1624.92,0,0
74039.9,48.0516,-1618.38,0,0
74300.225,48.092,-1611.85,0,0
74560.55,48.0876,-1605.33,0,0
74820.875,48.2564,-1598.92,0,0
75081.2,48.3843,-1592.66,0,0
75341.525,48.5277,-1586.47,0,0
75601.85,48.4971,-1580.25,0,0
75862.175,48.6025,-1573.95,0,0
76122.5,48.8669,-1567.79,0,0
76382.825,49.1363,-1561.64,0,0
76643.15,49.3826,-1555.85,0,0
76903.475,49.4833,-1549.85,0,0
77163.8,49.7169,-1543.91,0,0
77424.125,49.9385,-1538.14,0,0
77684.45,50.1797,-1532.39,0,0
77944.775,50.3175,-1526.55,0,0
78205.1,50.693,-1520.75,0,0
78465.425,51.2672,-1515.08,0,0
78725.75,51.6977,-1509.97,0,0
78986.075,51.7856,-1504.81,0,0
79246.4,51.8412,-1499.69,0,0
79506.725,51.5935,-1494.56,0,0
79767.05,51.2253,-1489.12,0,0
80027.375,51.2455,-1483.71,0,0
80287.7,50.9824,-1478.47,0,0
80548.025,50.6389,-1472.99,0,0
80808.35,50.4785,-1467.42,0,0
81068.675,50.2634,-1461.73,0,0
81329.0,50.4212,-1456.07,0,0
81589.325,50.4905,-1450.56,0,0
81849.65,50.6804,-1445.14,0,0
82109.975,50.8347,-1439.77,0,0
82370.3,51.002,-1434.44,0,0
82630.625,51.0184,-1429.16,0,0
82890.95,51.1564,-1423.8,0,0
83151.275,51.4901,-1418.35,0,0
83411.6,51.7787,-1413.16,0,0
83671.925,52.0189,-1408.07,0,0
83932.25,52.2611,-1402.86,0,0
84192.575,52.5447,-1397.72,0,0
84452.9,52.8755,-1392.53,0,0
84713.225,53.2709,-1387.5,0,0
84973.55,53.628,-1382.5,0,0
85233.875,54.3584,-1377.55,0,0
85494.2,54.8878,-1372.99,0,0
85754.525,55.2117,-1368.44,0,0
86014.85,55.3418,-1363.89,0,0
86275.175,55.4618,-1359.23,0,0
86535.5,55.6863,-1354.55,0,0
86795.825,55.8356,-1349.95,0,0
87056.15,55.8748,-1345.1,0,0
87316.475,56.2987,-1340.49,0,0
87576.8,56.3044,-1336.14,0,0
87837.125,56.2339,-1331.49,0,0
88097.45,56.195,-1326.65,0,0
88357.775,55.9742,-1321.74,0,0
88618.1,56.5,-1316.53,0,0
88878.425,56.9852,-1311.66,0,0
89138.75,57.3053,-1307.01,0,0
89399.075,57.9172,-1302.06,0,0
89659.4,58.5892,-1297.17,0,0
89919.725,59.3123,-1292.63,0,0
90180,60.0436,-1288.24,0,0
90440.4,60.5607,-1283.41,0,0
90700.7,61.1789,-1278.82,0,0
90961,62.0248,-1274.15,0,0
91221.3,63.5478,-1269.28,0,0
91481.7,65.0733,-1265.28,0,0
91742,66.2969,-1261.19,0,0
92002.3,67.2787,-1257.47,0,0
92262.6,68.5132,-1253.48,0,0
92523,70.0592,-1249.78,0,0
92783.3,71.7876,-1246.04,0,0
93043.6,73.5706,-1243.33,0,0
93303.9,74.8434,-1240.57,0,0
93564.3,76.4881,-1237.95,0,0
93824.6,78.7864,-1236.46,0,0
94084.9,79.2061,-1237.11,0,0
94345.2,76.6392,-1236.52,0,0
94605.6,74.1946,-1233.72,0,0
94865.9,72.8677,-1230.64,0,0
95126.2,70.7766,-1227.21,0,0
95386.5,69.5902,-1223.41,0,0
95646.9,68.1974,-1219.6,0,0
95907.2,66.8993,-1215.18,0,0
96167.5,66.2098,-1210.44,0,0
96427.8,66.313,-1206.2,0,0
96688.2,66.0283,-1202.66,0,0
96948.5,65.2669,-1198.79,0,0
97208.8,64.6423,-1194.61,0,0
97469.1,64.3027,-1190.43,0,0
97729.5,64.0206,-1186.11,0,0
97989.8,63.9595,-1181.97,0,0
98250.1,64.0073,-1177.86,0,0
98510.4,64.1773,-1173.98,0,0
98770.8,64.0272,-1170.31,0,0
99031.1,63.7683,-1166.49,0,0
99291.4,63.5037,-1162.53,0,0
99551.7,63.3046,-1158.55,0,0
99812.1,63.1048,-1154.44,0,0
100072,63.1484,-1150.35,0,0
100333,63.0815,-1146.44,0,0
100593,63.0031,-1142.37,0,0
100853,63.103,-1138.34,0,0
101114,63.0853,-1134.29,0,0
101374,63.1149,-1130.33,0,0
101634,63.0706,-1126.26,0,0
101895,62.9453,-1122.11,0,0
102155,62.9447,-1117.51,0,0
102415,63.1741,-1112.83,0,0
102676,63.8781,-1108.11,0,0
102936,65.0207,-1103.78,0,0
103196,65.9299,-1099.65,0,0
103457,66.9409,-1095.6,0,0
103717,67.9041,-1091.55,0,0
103977,69.0058,-1087.35,0,0
104238,70.7338,-1083.27,0,0
104498,72.5628,-1079.99,0,0
104758,73.9625,-1077.06,0,0
105019,74.8646,-1074.1,0,0
105279,75.6512,-1070.86,0,0
105539,76.7224,-1067.26,0,0
105800,78.1151,-1063.93,0,0
106060,79.5536,-1060.75,0,0
106320.175,81.0623,-1057.85,0,0
106580.5,82.51,-1055.14,0,0
106840.825,83.8622,-1052.65,0,0
107101.15,84.9152,-1050.1,0,0
107361.475,86.2932,-1047.52,0,0
107621.8,87.6186,-1045.49,0,0
107882.125,88.4932,-1043.43,0,0
108142.45,89.2563,-1041.21,0,0
108402.775,90.0847,-1038.99,0,0
108663.1,90.9433,-1036.81,0,0
108923.425,91.7304,-1034.84,0,0
109183.75,92.5802,-1032.75,0,0
109444.075,93.3766,-1031.09,0,0
109704.4,93.8861,-1029.54,0,0
109964.725,94.0003,-1028.1,0,0
110225.05,93.6879,-1026.46,0,0
110485.375,93.2141,-1024.37,0,0
110745.7,92.7546,-1021.67,0,0
111006.025,92.708,-1019.06,0,0
111266.35,93.1482,-1016.3,0,0
111526.675,93.7425,-1013.7,0,0
111787.0,94.2759,-1011.47,0,0
112047.325,94.9201,-1009.47,0,0
112307.65,95.5868,-1007.55,0,0
112567.975,95.8715,-1005.69,0,0
112828.3,96.0775,-1004.1,0,0
113088.625,96.2361,-1002.46,0,0
113348.95,96.2411,-1000.93,0,0
113609.275,96.1122,-999.419,0,0
113869.6,95.7677,-997.932,0,0
114129.925,95.047,-996.204,0,0
114390.25,94.4206,-994.357,0,0
114650.575,93.8436,-992.414,0,0
114910.9,93.3492,-990.485,0,0
115171.225,92.6733,-988.613,0,0
115431.55,91.725,-986.655,0,0
115691.875,90.7324,-984.601,0,0
115952.2,89.6252,-982.264,0,0
116212.525,88.734,-979.714,0,0
116472.85,87.8878,-977.16,0,0
116733.175,87.1098,-974.621,0,0
116993.5,86.2432,-972.141,0,0
117253.825,85.2585,-969.458,0,0
117514.15,84.3229,-966.551,0,0
117774.475,83.5386,-963.485,0,0
118034.8,82.905,-960.426,0,0
118295.125,82.452,-957.303,0,0
118555.45,81.9964,-954.299,0,0
118815.775,81.5297,-951.248,0,0
119076.1,81.233,-948.051,0,0
119336.425,81.0838,-944.947,0,0
119596.75,80.9784,-941.919,0,0
119857.075,80.9956,-938.811,0,0
120117.4,81.1626,-935.935,0,0
120377.725,81.2726,-933.187,0,0
120638.05,81.4164,-930.507,0,0
120898.375,81.4779,-928.043,0,0
121158.7,81.3149,-925.699,0,0
121419.025,81.0211,-923.142,0,0
121679.35,80.7228,-920.613,0,0
121939.675,80.3088,-917.967,0,0
122200.0,79.8243,-915.134,0,0
122460,79.509,-912.211,0,0
122721,79.2623,-909.3,0,0
122981,79.0824,-906.398,0,0
123241,78.8271,-903.459,0,0
123502,78.6614,-900.404,0,0
123762,78.5611,-897.397,0,0
124022,78.5884,-894.357,0,0
124283,78.6469,-891.343,0,0
124543,78.7398,-888.399,0,0
124803,78.8557,-885.439,0,0
125064,78.9424,-882.557,0,0
125324,79.0178,-879.622,0,0
125584,79.1992,-876.583,0,0
125845,79.4706,-873.673,0,0
126105,79.747,-870.815,0,0
126365,79.8955,-867.891,0,0
126626,80.2092,-865.047,0,0
126886,80.4692,-862.186,0,0
127146,80.7839,-859.346,0,0
127406,81.1304,-856.471,0,0
127667,81.4354,-853.653,0,0
127927,81.7545,-850.679,0,0
128187,82.2327,-847.72,0,0
128448,82.8162,-844.858,0,0
128708,83.425,-842.148,0,0
128968,83.9174,-839.5,0,0
129229,84.2385,-836.759,0,0
129489,84.6904,-833.848,0,0
129749,85.2575,-830.899,0,0
130010,86.057,-827.841,0,0
130270,87.0946,-824.987,0,0
130530,88.1741,-822.369,0,0
130791,89.2064,-819.883,0,0
131051,90.2367,-817.51,0,0
131311,91.2599,-815.204,0,0
131572,92.3086,-813.087,0,0
131832,93.108,-811.088,0,0
132092,93.8862,-809.061,0,0
132353,94.5163,-807.122,0,0
132613,94.9851,-805.058,0,0
132873,95.5812,-802.887,0,0
133134,96.2492,-800.756,0,0
133394,96.8136,-798.688,0,0
133654,97.3269,-796.632,0,0
133915,97.8393,-794.467,0,0
134175,98.4634,-792.302,0,0
134435,99.0989,-790.215,0,0
134696,99.6976,-788.236,0,0
134956,100.133,-786.115,0,0
135216,100.693,-784.046,0,0
135477,101.258,-781.932,0,0
135737,101.809,-779.79,0,0
135997,102.335,-777.599,0,0
136258,102.981,-775.416,0,0
136518,103.755,-773.135,0,0
136778,104.759,-770.952,0,0
137039,105.805,-769.03,0,0
137299,106.793,-767.231,0,0
137559,107.91,-765.558,0,0
137819,108.955,-764.33,0,0
138080,109.601,-763.309,0,0
138340.125,109.881,-762.204,0,0
138600.45,110.07,-760.883,0,0
138860.775,110.215,-759.572,0,0
139121.1,110.099,-758.129,0,0
139381.425,109.999,-756.453,0,0
139641.75,109.985,-754.742,0,0
139902.075,109.977,-753.087,0,0
140162.4,109.843,-751.314,0,0
140422.725,109.635,-749.519,0,0
140683.05,109.427,-747.52,0,0
140943.375,109.323,-745.382,0,0
141203.7,109.293,-743.205,0,0
141464.025,109.436,-741.056,0,0
141724.35,109.579,-739.025,0,0
141984.675,109.454,-736.965,0,0
142245.0,109.409,-734.589,0,0
142505.325,109.78,-732.268,0,0
142765.65,109.998,-730.055,0,0
143025.975,110.242,-727.922,0,0
143286.3,110.36,-725.637,0,0
143546.625,110.566,-723.305,0,0
143806.95,110.96,-720.907,0,0
144067.275,111.455,-718.616,0,0
144327.6,111.958,-716.481,0,0
144587.925,112.24,-714.287,0,0
144848.25,112.722,-711.876,0,0
145108.575,113.411,-709.618,0,0
145368.9,114.055,-707.521,0,0
145629.225,114.677,-705.455,0,0
145889.55,115.281,-703.395,0,0
146149.875,115.942,-701.4,0,0
146410.2,116.498,-699.559,0,0
146670.525,116.943,-697.534,0,0
146930.85,117.568,-695.486,0,0
147191.175,118.296,-693.644,0,0
147451.5,118.876,-692.02,0,0
147711.825,119.251,-690.391,0,0
147972.15,119.396,-688.673,0,0
148232.475,119.411,-686.682,0,0
148492.8,119.614,-684.477,0,0
148753.125,119.95,-682.303,0,0
149013.45,120.334,-680.032,0,0
149273.775,121.034,-677.777,0,0
149534.1,121.971,-675.801,0,0
149794.425,122.742,-674.244,0,0
150054.75,123.149,-672.858,0,0
150315.075,123.28,-671.414,0,0
150575.4,123.243,-669.856,0,0
150835.725,122.932,-668.193,0,0
151096.05,122.372,-666.239,0,0
151356.375,121.865,-663.84,0,0
151616.7,121.66,-661.192,0,0
151877.025,121.619,-658.587,0,0
152137.35,121.526,-656.044,0,0
152397.675,121.292,-653.351,0,0
152658.0,121.096,-650.328,0,0
152918.325,121.13,-647.014,0,0
153178.65,121.498,-643.63,0,0
153438.975,122.094,-640.291,0,0
153699.3,122.78,-637.021,0,0
153959.625,123.559,-633.721,0,0
154219.95,124.437,-630.328,0,0
154480,125.538,-626.93,0,0
154741,126.836,-623.511,0,0
155001,128.287,-620.295,0,0
155261,129.754,-617.109,0,0
155522,131.172,-613.796,0,0
155782,132.929,-610.274,0,0
156042,135.109,-606.876,0,0
156303,137.596,-603.749,0,0
156563,140.089,-601.029,0,0
156823,142.484,-598.411,0,0
157084,145.016,-595.689,0,0
157344,147.896,-593.247,0,0
157604,150.805,-591.364,0,0
157864,153.385,-589.807,0,0
158125,155.566,-588.153,0,0
158385,157.733,-586.416,0,0
158645,159.919,-584.799,0,0
158906,161.694,-583.275,0,0
159166,163.159,-581.167,0,0
159426,165.01,-578.58,0,0
159687,167.249,-575.646,0,0
159947,170.217,-572.696,0,0
160207,173.717,-570.114,0,0
160468,177.486,-568.142,0,0
160728,181.309,-566.419,0,0
160988,185.319,-565.083,0,0
161249,189.426,-564.167,0,0
161509,193.397,-563.791,0,0
161769,197.218,-563.666,0,0
162030,200.938,-563.937,0,0
162290,204.284,-564.687,0,0
162550,207.038,-565.552,0,0
162811,209.47,-566.335,0,0
163071,211.558,-566.955,0,0
163331,213.533,-567.223,0,0
163592,215.615,-567.285,0,0
163852,217.979,-567.405,0,0
164112,220.401,-567.666,0,0
164373,222.841,-568.058,0,0
164633,225.218,-568.666,0,0
164893,227.437,-569.178,0,0
165154,229.96,-569.768,0,0
165414,232.505,-570.678,0,0
165674,235.047,-571.735,0,0
165935,237.702,-573.222,0,0
166195,240.028,-575.334,0,0
166455,241.788,-577.64,0,0
166716,243.062,-579.876,0,0
166976,244.096,-581.925,0,0
167236,245.19,-583.966,0,0
167497,246.11,-586.352,0,0
167757,246.565,-588.826,0,0
168017,246.739,-591.282,0,0
168277,246.483,-593.744,0,0
168538,245.852,-596.065,0,0
168798,244.941,-598.167,0,0
169058,243.735,-600.209,0,0
169319,242.059,-601.976,0,0
169579,240.097,-603.333,0,0
169839,237.931,-604.28,0,0
170100,235.751,-604.629,0,0
170360.075,233.643,-604.512,0,0
170620.4,231.988,-604.016,0,0
170880.725,230.528,-603.603,0,0
171141.05,228.847,-603.091,0,0
171401.375,227.37,-602.11,0,0
171661.7,226.331,-600.978,0,0
171922.025,225.509,-599.993,0,0
172182.35,224.75,-598.994,0,0
172442.675,224.266,-597.977,0,0
172703.0,223.913,-597.235,0,0
172963.325,223.338,-596.653,0,0
173223.65,222.649,-596.024,0,0
173483.975,221.826,-595.265,0,0
173744.3,221.029,-594.296,0,0
174004.625,220.34,-593.174,0,0
174264.95,219.864,-591.902,0,0
174525.275,219.583,-590.754,0,0
174785.6,219.425,-589.67,0,0
175045.925,219.176,-588.638,0,0
175306.25,218.958,-587.548,0,0
175566.575,219.058,-586.377,0,0
175826.9,219.433,-585.619,0,0
176087.225,219.609,-585.279,0,0
176347.55,219.371,-585.011,0,0
176607.875,218.959,-584.569,0,0
176868.2,218.486,-583.916,0,0
177128.525,218.115,-583.27,0,0
177388.85,217.786,-582.568,0,0
177649.175,217.603,-581.917,0,0
177909.5,217.44,-581.529,0,0
178169.825,217.052,-581.37,0,0
178430.15,216.338,-581.221,0,0
178690.475,215.47,-580.872,0,0
178950.8,214.468,-580.501,0,0
179211.125,213.282,-579.99,0,0
179471.45,212.144,-579.243,0,0
179731.775,211.125,-578.597,0,0
179992.1,209.825,-578.135,0,0
180252.425,208.1,-577.381,0,0
180512.75,206.264,-576.099,0,0
180773.075,204.732,-574.603,0,0
181033.4,203.226,-573.072,0,0
181293.725,201.732,-571.374,0,0
181554.05,200.333,-569.507,0,0
181814.375,199.185,-567.604,0,0
182074.7,197.921,-565.802,0,0
182335.025,196.605,-563.829,0,0
182595.35,195.334,-561.679,0,0
182855.675,194.12,-559.394,0,0
183116.0,193.049,-557.123,0,0
183376.325,191.89,-554.839,0,0
183636.65,190.707,-552.343,0,0
183896.975,189.592,-549.704,0,0
184157.3,188.523,-546.883,0,0
184417.625,187.529,-543.908,0,0
184677.95,186.705,-540.767,0,0
184938.275,185.918,-537.371,0,0
185198.6,185.558,-533.773,0,0
185458.925,185.708,-530.232,0,0
185719.25,186.023,-527.055,0,0
185979.575,186.291,-523.988,0,0
186239.9,186.586,-520.947,0,0
186500,186.988,-518.017,0,0
186761,187.238,-515.16,0,0
187021,187.525,-512.068,0,0
187281,187.877,-508.879,0,0
187542,188.566,-505.636,0,0
187802,189.449,-502.721,0,0
188062,190.166,-499.928,0,0
188322,190.815,-497.075,0,0
188583,191.395,-494.225,0,0
188843,192.089,-491.266,0,0
189103,192.92,-488.313,0,0
189364,193.812,-485.392,0,0
189624,194.681,-482.481,0,0
189884,195.567,-479.704,0,0
190145,196.29,-476.732,0,0
190405,197.167,-473.594,0,0
190665,198.131,-470.562,0,0
190926,199.161,-467.556,0,0
191186,200.267,-464.494,0,0
191446,201.179,-461.395,0,0
191707,202.18,-458.074,0,0
191967,203.342,-454.592,0,0
192227,204.653,-451.08,0,0
192488,206.286,-447.636,0,0
192748,207.926,-444.167,0,0
193008,209.681,-440.729,0,0
193269,211.529,-437.328,0,0
193529,213.475,-433.946,0,0
193789,215.539,-430.638,0,0
194050,217.572,-427.339,0,0
194310,219.585,-424.067,0,0
194570,221.698,-420.681,0,0
194831,223.903,-417.261,0,0
195091,226.258,-413.74,0,0
195351,228.71,-410.113,0,0
195612,231.424,-406.594,0,0
195872,234.292,-403.22,0,0
196132,237.068,-399.941,0,0
196393,239.865,-396.505,0,0
196653,242.901,-393.022,0,0
196913,246.084,-389.505,0,0
197174,249.365,-385.999,0,0
197434,252.827,-382.513,0,0
197694,256.458,-379.033,0,0
197955,260.356,-375.631,0,0
198215,264.46,-372.371,0,0
198475,268.578,-369.302,0,0
198735,272.727,-366.315,0,0
198996,276.939,-363.393,0,0
199256,281.099,-360.572,0,0
199516,285.183,-357.605,0,0
199777,289.301,-354.427,0,0
200037,293.768,-351.082,0,0
200297,298.613,-347.742,0,0
200558,303.676,-344.439,0,0
200818,309.056,-341.139,0,0
201078,314.712,-337.96,0,0
201339,320.428,-334.877,0,0
201599,326.424,-331.774,0,0
201859,332.823,-328.604,0,0
202120,339.7,-325.471,0,0
202380.025,347.136,-322.458,0,0
202640.35,355.263,-319.948,0,0
202900.675,363.656,-318.113,0,0
203161.0,372.021,-316.831,0,0
203421.325,380.347,-315.717,0,0
203681.65,389.014,-314.575,0,0
203941.975,398.172,-313.796,0,0
204202.3,408.01,-313.518,0,0
204462.625,418.343,-314.137,0,0
204722.95,428.789,-315.642,0,0
204983.275,439.363,-318.107,0,0
205243.6,449.67,-321.561,0,0
205503.925,459.664,-325.974,0,0
205764.25,468.997,-331.187,0,0
206024.575,477.849,-336.884,0,0
206284.9,486.064,-342.936,0,0
206545.225,493.999,-349.392,0,0
206805.55,501.483,-356.566,0,0
207065.875,508.089,-364.262,0,0
207326.2,513.84,-372.095,0,0
207586.525,518.986,-379.856,0,0
207846.85,523.759,-387.729,0,0
208107.175,527.916,-395.877,0,0
208367.5,531.214,-404.068,0,0
208627.825,533.971,-411.976,0,0
208888.15,536.458,-419.86,0,0
209148.475,538.279,-427.962,0,0
209408.8,539.426,-435.819,0,0
209669.125,540.133,-443.506,0,0
209929.45,540.004,-451.269,0,0
210189.775,538.846,-458.751,0,0
210450.1,536.816,-465.22,0,0
210710.425,534.337,-470.592,0,0
210970.75,531.855,-474.873,0,0
211231.075,529.674,-478.431,0,0
211491.4,527.738,-481.393,0,0
211751.725,526.053,-483.982,0,0
212012.05,524.314,-486.064,0,0
212272.375,522.727,-487.343,0,0
212532.7,521.814,-487.823,0,0
212793.025,521.891,-487.803,0,0
213053.35,522.966,-487.845,0,0
213313.675,524.869,-488.182,0,0
213574.0,527.308,-489.035,0,0
213834.325,530.123,-490.551,0,0
214094.65,532.88,-492.714,0,0
214354.975,535.409,-495.078,0,0
214615.3,537.854,-497.589,0,0
214875.625,540.322,-500.318,0,0
215135.95,542.614,-503.052,0,0
215396.275,545.159,-505.844,0,0
215656.6,547.856,-509.021,0,0
215916.925,550.348,-512.631,0,0
216177.25,552.227,-516.431,0,0
216437.575,553.833,-519.749,0,0
216697.9,555.389,-522.875,0,0
216958.225,557.217,-525.81,0,0
217218.55,559.12,-528.671,0,0
217478.875,561.343,-531.622,0,0
217739.2,563.763,-534.722,0,0
217999.525,566.134,-538.013,0,0
218259.85,568.486,-541.354,0,0
218520,570.843,-544.675,0,0
218780,573.32,-547.867,0,0
219041,576.225,-550.968,0,0
219301,579.481,-554.39,0,0
219561,583.123,-558.023,0,0
219822,586.97,-562.204,0,0
220082,590.926,-566.991,0,0
220342,594.864,-572.133,0,0
220603,598.569,-577.816,0,0
220863,602.228,-583.648,0,0
221123,606.073,-589.832,0,0
221384,609.972,-596.679,0,0
221644,613.671,-604.366,0,0
221904,616.935,-612.611,0,0
222165,619.68,-621.388,0,0
222425,621.85,-630.65,0,0
222685,623.522,-640.175,0,0
222946,624.257,-650.074,0,0
223206,624.505,-660.08,0,0
223466,624.033,-669.96,0,0
223727,623.065,-679.868,0,0
223987,621.551,-689.648,0,0
224247,619.67,-699.239,0,0
224508,617.329,-708.881,0,0
224768,614.471,-718.344,0,0
225028,611.399,-727.942,0,0
225289,607.475,-737.367,0,0
225549,603.33,-746.632,0,0
225809,598.649,-755.372,0,0
226070,593.791,-764.111,0,0
226330,588.418,-772.823,0,0
226590,582.843,-781.25,0,0
226851,576.767,-789.313,0,0
227111,570.338,-797.479,0,0
227371,563.445,-805.312,0,0
227632,556.092,-813.062,0,0
227892,548.112,-820.328,0,0
228152,539.494,-827.087,0,0
228413,530.373,-833.183,0,0
228673,521.134,-838.366,0,0
228933,511.861,-842.978,0,0
229193,502.583,-846.952,0,0
229454,493.166,-850.303,0,0
229714,483.921,-853.342,0,0
229974,474.427,-855.558,0,0
230235,465.438,-857.497,0,0
230495,456.404,-858.532,0,0
230755,447.793,-859.319,0,0
231016,439.313,-859.621,0,0
231276,431.284,-859.601,0,0
231536,423.482,-859.265,0,0
231797,416.046,-858.71,0,0
232057,408.934,-857.845,0,0
232317,402.07,-856.847,0,0
232578,395.585,-855.676,0,0
232838,389.554,-854.403,0,0
233098,383.772,-853.183,0,0
233359,378.283,-852.069,0,0
233619,372.881,-850.991,0,0
233879,367.704,-849.884,0,0
234140,362.641,-848.897,0,0
234400,357.758,-847.767,0,0
234660.3,353.092,-846.792,0,0
234920.625,348.449,-846.162,0,0
235180.95,343.755,-845.48,0,0
235441.275,338.938,-844.932,0,0
235701.6,334.012,-844.246,0,0
235961.925,328.814,-843.313,0,0
236222.25,323.878,-842.324,0,0
236482.575,318.895,-841.151,0,0
236742.9,314.153,-839.763,0,0
237003.225,309.479,-838.498,0,0
237263.55,304.806,-837.153,0,0
237523.875,300.129,-835.779,0,0
237784.2,295.524,-834.225,0,0
238044.525,291.084,-832.599,0,0
238304.85,286.536,-830.856,0,0
238565.175,282.129,-829.026,0,0
238825.5,277.681,-827.106,0,0
239085.825,273.479,-825.049,0,0
239346.15,269.415,-823.033,0,0
239606.475,265.372,-820.801,0,0
239866.8,261.42,-818.555,0,0
240127.125,257.661,-816.296,0,0
240387.45,254.069,-813.841,0,0
240647.775,250.58,-811.514,0,0
240908.1,247.274,-809.206,0,0
241168.425,243.979,-806.949,0,0
241428.75,240.67,-804.666,0,0
241689.075,237.354,-802.227,0,0
241949.4,234.13,-799.77,0,0
242209.725,231.163,-797.398,0,0
242470.05,228.33,-794.782,0,0
242730.375,225.557,-792.326,0,0
242990.7,223.005,-789.945,0,0
243251.025,220.478,-787.537,0,0
243511.35,218.011,-785.223,0,0
243771.675,215.574,-782.966,0,0
244032.0,213.264,-780.776,0,0
244292.325,210.787,-778.578,0,0
244552.65,208.466,-776.425,0,0
244812.975,206.181,-774.333,0,0
245073.3,203.772,-772.295,0,0
245333.625,201.351,-770.145,0,0
245593.95,198.955,-767.969,0,0
245854.275,196.63,-765.799,0,0
246114.6,194.325,-763.639,0,0
246374.925,191.878,-761.457,0,0
246635.25,189.556,-759.035,0,0
246895.575,187.255,-756.729,0,0
247155.9,185,-754.186,0,0
247416.225,182.865,-751.665,0,0
247676.55,180.826,-749.12,0,0
247936.875,178.871,-746.571,0,0
248197.2,177.06,-743.927,0,0
248457.525,175.251,-741.459,0,0
248717.85,173.578,-738.847,0,0
248978.175,171.84,-736.383,0,0
249238.5,170.311,-733.881,0,0
249498.825,168.69,-731.455,0,0
249759.15,167.262,-728.893,0,0
250019.475,165.706,-726.46,0,0
250279.8,164.415,-724.074,0,0
250540,163.062,-721.62,0,0
250800,161.658,-719.189,0,0
251061,160.268,-716.817,0,0
251321,158.995,-714.345,0,0
251581,157.792,-711.905,0,0
251842,156.572,-709.505,0,0
252102,155.39,-707.088,0,0
252362,154.24,-704.641,0,0
252623,153.08,-702.229,0,0
252883,151.953,-699.86,0,0
253143,150.835,-697.365,0,0
253404,149.729,-694.817,0,0
253664,148.833,-692.241,0,0
253924,147.878,-689.67,0,0
254185,147.124,-687.077,0,0
254445,146.406,-684.463,0,0
254705,145.789,-681.876,0,0
254966,145.248,-679.37,0,0
255226,144.773,-676.798,0,0
255486,144.393,-674.415,0,0
255747,144.065,-671.926,0,0
256007,143.71,-669.697,0,0
256267,143.35,-667.411,0,0
256528,143.017,-665.132,0,0
256788,142.679,-662.756,0,0
257048,142.477,-660.476,0,0
257309,142.296,-658.173,0,0
257569,142.079,-655.938,0,0
257829,141.918,-653.669,0,0
258090,141.755,-651.367,0,0
258350,141.658,-649.04,0,0
258610,141.616,-646.651,0,0
258871,141.7,-644.251,0,0
259131,141.897,-641.859,0,0
259391,142.198,-639.394,0,0
259651,142.733,-636.975,0,0
259912,143.371,-634.84,0,0
260172,144.013,-632.556,0,0
260432,144.802,-630.553,0,0
260693,145.688,-628.611,0,0
260953,146.624,-626.752,0,0
261213,147.521,-625.034,0,0
261474,148.48,-623.353,0,0
261734,149.457,-621.821,0,0
261994,150.462,-620.325,0,0
262255,151.511,-618.943,0,0
262515,152.523,-617.669,0,0
262775,153.576,-616.443,0,0
263036,154.626,-615.296,0,0
263296,155.697,-614.259,0,0
263556,156.757,-613.254,0,0
263817,157.838,-612.332,0,0
264077,158.974,-611.47,0,0
264337,160.142,-610.71,0,0
264598,161.301,-610.06,0,0
264858,162.559,-609.432,0,0
265118,163.705,-608.977,0,0
265379,165.066,-608.685,0,0
265639,166.433,-608.512,0,0
265899,167.821,-608.577,0,0
266160,169.138,-608.89,0,0
266420,170.401,-609.478,0,0
266680.25,171.471,-610.327,0,0
266940.575,172.31,-611.362,0,0
267200.9,172.867,-612.618,0,0
267461.225,173.148,-613.987,0,0
267721.55,173.142,-615.316,0,0
267981.875,172.862,-616.717,0,0
268242.2,172.359,-618.16,0,0
268502.525,171.541,-619.485,0,0
268762.85,170.384,-620.831,0,0
269023.175,168.92,-621.937,0,0
269283.5,167.256,-622.848,0,0
269543.825,165.368,-623.577,0,0
269804.15,163.3,-624.02,0,0
270064.475,161.192,-624.116,0,0
270324.8,158.894,-624.005,0,0
270585.125,156.69,-623.536,0,0
270845.45,154.479,-622.849,0,0
271105.775,152.317,-621.794,0,0
271366.1,150.361,-620.54,0,0
271626.425,148.534,-619.119,0,0
271886.75,146.893,-617.548,0,0
272147.075,145.383,-615.84,0,0
272407.4,144.095,-614.081,0,0
272667.725,142.997,-612.247,0,0
272928.05,142.024,-610.348,0,0
273188.375,141.269,-608.453,0,0
273448.7,140.648,-606.579,0,0
273709.025,140.186,-604.759,0,0
273969.35,139.827,-602.997,0,0
274229.675,139.588,-601.283,0,0
274490.0,139.393,-599.642,0,0
274750.325,139.371,-598.079,0,0
275010.65,139.292,-596.544,0,0
275270.975,139.304,-595.076,0,0
275531.3,139.324,-593.668,0,0
275791.625,139.362,-592.331,0,0
276051.95,139.477,-590.974,0,0
276312.275,139.58,-589.64,0,0
276572.6,139.774,-588.325,0,0
276832.925,140.042,-587.061,0,0
277093.25,140.397,-585.874,0,0
277353.575,140.775,-584.749,0,0
277613.9,141.24,-583.735,0,0
277874.225,141.692,-582.812,0,0
278134.55,142.146,-581.975,0,0
278394.875,142.63,-581.241,0,0
278655.2,143.094,-580.579,0,0
278915.525,143.547,-580.03,0,0
279175.85,143.853,-579.619,0,0
279436.175,144.206,-579.244,0,0
279696.5,144.422,-578.854,0,0
279956.825,144.611,-578.577,0,0
280217.15,144.72,-578.241,0,0
280477.475,144.804,-578.017,0,0
280737.8,144.803,-577.853,0,0
280998.125,144.776,-577.631,0,0
281258.45,144.7,-577.459,0,0
281518.775,144.524,-577.36,0,0
281779.1,144.247,-577.296,0,0
282039.425,143.843,-577.202,0,0
282299.75,143.307,-577.018,0,0
282560,142.691,-576.793,0,0
282820,142.032,-576.439,0,0
283081,141.331,-576.001,0,0
283341,140.571,-575.464,0,0
283601,139.864,-574.779,0,0
283862,139.247,-574.041,0,0
284122,138.665,-573.284,0,0
284382,138.102,-572.409,0,0
284643,137.658,-571.588,0,0
284903,137.193,-570.797,0,0
285163,136.859,-570.023,0,0
285424,136.475,-569.258,0,0
285684,136.043,-568.621,0,0
285944,135.585,-567.992,0,0
286205,134.995,-567.396,0,0
286465,134.25,-566.746,0,0
286725,133.391,-565.963,0,0
286986,132.44,-565.036,0,0
287246,131.47,-563.844,0,0
287506,130.597,-562.453,0,0
287767,129.836,-560.886,0,0
288027,129.25,-559.154,0,0
288287,128.864,-557.263,0,0
288548,128.749,-555.373,0,0
288808,128.88,-553.485,0,0
289068,129.279,-551.69,0,0
289329,129.823,-550.12,0,0
289589,130.46,-548.645,0,0
289849,131.24,-547.359,0,0
290109,132.134,-546.285,0,0
290370,132.84,-545.539,0,0
290630,133.528,-544.845,0,0
290890,134.081,-544.286,0,0
291151,134.544,-543.687,0,0
291411,134.937,-543.134,0,0
291671,135.309,-542.67,0,0
291932,135.651,-542.26,0,0
292192,135.878,-541.908,0,0
292452,135.946,-541.599,0,0
292713,135.859,-541.26,0,0
292973,135.705,-540.813,0,0
293233,135.435,-540.261,0,0
293494,135.116,-539.63,0,0
293754,134.747,-538.849,0,0
294014,134.328,-537.947,0,0
294275,133.984,-536.881,0,0
294535,133.701,-535.67,0,0
294795,133.55,-534.323,0,0
295056,133.501,-532.876,0,0
295316,133.61,-531.302,0,0
295576,133.925,-529.723,0,0
295837,134.435,-528.17,0,0
296097,135.138,-526.707,0,0
296357,135.971,-525.342,0,0
296618,136.937,-524.093,0,0
296878,137.979,-523.029,0,0
297138,139.016,-522.118,0,0
297399,140.006,-521.331,0,0
297659,140.911,-520.612,0,0
297919,141.775,-519.913,0,0
298180,142.653,-519.166,0,0
298440,143.586,-518.423,0,0
298700.2,144.547,-517.75,0,0
298960.525,145.603,-517.111,0,0
299220.85,146.578,-516.546,0,0
299481.175,147.584,-516.048,0,0
299741.5,148.528,-515.56,0,0
300001.825,149.545,-514.991,0,0
300262.15,150.65,-514.551,0,0
300522.475,151.702,-514.141,0,0
300782.8,152.916,-513.674,0,0
301043.125,154.085,-513.326,0,0
301303.45,155.385,-512.947,0,0
301563.775,156.808,-512.655,0,0
301824.1,158.381,-512.601,0,0
302084.425,159.792,-512.733,0,0
302344.75,161.273,-512.955,0,0
302605.075,162.654,-513.378,0,0
302865.4,164.03,-513.905,0,0
303125.725,165.249,-514.592,0,0
303386.05,166.311,-515.288,0,0
303646.375,167.342,-516.006,0,0
303906.7,168.269,-516.777,0,0
304167.025,169.114,-517.462,0,0
304427.35,169.986,-518.123,0,0
304687.675,170.855,-518.972,0,0
304948.0,171.589,-519.896,0,0
305208.325,172.372,-520.701,0,0
305468.65,173.125,-521.565,0,0
305728.975,173.895,-522.509,0,0
305989.3,174.604,-523.444,0,0
306249.625,175.272,-524.516,0,0
306509.95,175.969,-525.667,0,0
306770.275,176.557,-526.865,0,0
307030.6,177.149,-528.296,0,0
307290.925,177.441,-529.739,0,0
307551.25,177.732,-531.332,0,0
307811.575,177.792,-532.903,0,0
308071.9,177.643,-534.412,0,0
308332.225,177.352,-535.874,0,0
308592.55,176.922,-537.261,0,0
308852.875,176.459,-538.421,0,0
309113.2,176.096,-539.561,0,0
309373.525,175.667,-540.639,0,0
309633.85,175.334,-541.676,0,0
309894.175,174.983,-542.773,0,0
310154.5,174.616,-544.026,0,0
310414.825,174.265,-545.112,0,0
310675.15,173.894,-546.407,0,0
310935.475,173.298,-547.739,0,0
311195.8,172.693,-549.099,0,0
311456.125,172.042,-550.471,0,0
311716.45,171.139,-551.828,0,0
311976.775,170.222,-553.228,0,0
312237.1,169.148,-554.599,0,0
312497.425,167.924,-555.888,0,0
312757.75,166.55,-557.19,0,0
313018.075,165.001,-558.278,0,0
313278.4,163.497,-559.248,0,0
313538.725,161.881,-560.141,0,0
313799.05,160.19,-560.845,0,0
314059.375,158.38,-561.395,0,0
314319.7,156.776,-561.778,0,0
314580,155.239,-562.21,0,0
314840,153.721,-562.415,0,0
315101,152.288,-562.704,0,0
315361,150.863,-563.054,0,0
315621,149.428,-563.371,0,0
315882,147.915,-563.716,0,0
316142,146.352,-563.888,0,0
316402,144.777,-564.072,0,0
316663,143.121,-564.266,0,0
316923,141.484,-564.318,0,0
317183,139.776,-564.284,0,0
317444,138.093,-564.243,0,0
317704,136.467,-563.971,0,0
317964,134.892,-563.756,0,0
318225,133.311,-563.464,0,0
318485,131.738,-563.19,0,0
318745,130.244,-562.744,0,0
319006,128.823,-562.301,0,0
319266,127.24,-561.894,0,0
319526,125.785,-561.469,0,0
319787,124.292,-560.947,0,0
320047,122.75,-560.419,0,0
320307,121.326,-559.701,0,0
320567,119.806,-559.022,0,0
320828,118.465,-558.143,0,0
321088,117.075,-557.416,0,0
321348,115.77,-556.566,0,0
321609,114.527,-555.618,0,0
321869,113.275,-554.72,0,0
322129,112.065,-553.828,0,0
322390,110.907,-552.703,0,0
322650,109.756,-551.715,0,0
322910,108.729,-550.663,0,0
323171,107.715,-549.479,0,0
323431,106.885,-548.334,0,0
323691,106.045,-547.184,0,0
323952,105.296,-546.085,0,0
324212,104.651,-544.886,0,0
324472,104.149,-543.721,0,0
324733,103.622,-542.661,0,0
324993,103.103,-541.679,0,0
325253,102.615,-540.72,0,0
325514,102.178,-539.686,0,0
325774,101.884,-538.754,0,0
326034,101.554,-537.874,0,0
326295,101.251,-536.938,0,0
326555,101.005,-536.199,0,0
326815,100.746,-535.37,0,0
327076,100.516,-534.728,0,0
327336,100.274,-534.018,0,0
327596,100.035,-533.347,0,0
327857,99.7998,-532.794,0,0
328117,99.5469,-532.226,0,0
328377,99.2815,-531.709,0,0
328638,99.0239,-531.185,0,0
328898,98.7727,-530.749,0,0
329158,98.4358,-530.326,0,0
329419,98.1716,-529.948,0,0
329679,97.7891,-529.555,0,0
329939,97.4087,-529.174,0,0
330200,97.017,-528.88,0,0
330460,96.4942,-528.581,0,0
330720.15,96.1571,-528.254,0,0
330980.475,95.6294,-527.925,0,0
331240.8,95.1514,-527.645,0,0
331501.125,94.5923,-527.35,0,0
331761.45,93.9866,-527.002,0,0
332021.775,93.3508,-526.679,0,0
332282.1,92.7424,-526.306,0,0
332542.425,92.0479,-525.946,0,0
332802.75,91.3341,-525.47,0,0
333063.075,90.6704,-525.146,0,0
333323.4,89.9396,-524.678,0,0
333583.725,89.1667,-524.208,0,0
333844.05,88.4789,-523.771,0,0
334104.375,87.7632,-523.288,0,0
334364.7,87.0134,-522.749,0,0
334625.025,86.2837,-522.308,0,0
334885.35,85.5272,-521.631,0,0
335145.675,84.7755,-520.998,0,0
335406.0,84.0485,-520.411,0,0
335666.325,83.3279,-519.797,0,0
335926.65,82.5458,-519.129,0,0
336186.975,81.8596,-518.445,0,0
336447.3,81.1925,-517.706,0,0
336707.625,80.4593,-516.981,0,0
336967.95,79.7959,-516.25,0,0
337228.275,79.0695,-515.581,0,0
337488.6,78.4264,-514.839,0,0
337748.925,77.8392,-513.994,0,0
338009.25,77.1895,-513.312,0,0
338269.575,76.6177,-512.501,0,0
338529.9,75.9095,-511.682,0,0
338790.225,75.3391,-510.859,0,0
339050.55,74.7566,-509.983,0,0
339310.875,74.1625,-509.189,0,0
339571.2,73.6698,-508.33,0,0
339831.525,73.1217,-507.478,0,0
340091.85,72.6501,-506.706,0,0
340352.175,72.1763,-505.885,0,0
340612.5,71.7379,-505.01,0,0
340872.825,71.2489,-504.172,0,0
341133.15,70.7556,-503.35,0,0
341393.475,70.2918,-502.553,0,0
341653.8,69.9244,-501.809,0,0
341914.125,69.5015,-500.937,0,0
342174.45,69.0472,-500.202,0,0
342434.775,68.6294,-499.359,0,0
342695.1,68.1931,-498.581,0,0
342955.425,67.7092,-497.767,0,0
343215.75,67.3706,-497.008,0,0
343476.075,66.8718,-496.13,0,0
343736.4,66.4226,-495.425,0,0
343996.725,65.9966,-494.599,0,0
344257.05,65.5649,-493.787,0,0
344517.375,65.196,-493.002,0,0
344777.7,64.717,-492.123,0,0
345038.025,64.2754,-491.283,0,0
345298.35,63.8844,-490.435,0,0
345558.675,63.5364,-489.589,0,0
345819.0,63.0807,-488.766,0,0
346079.325,62.6487,-487.879,0,0
346339.65,62.3424,-486.933,0,0
346599.975,61.9478,-486.067,0,0
346860,61.5729,-485.213,0,0
347121,61.1569,-484.295,0,0
347381,60.8374,-483.305,0,0
347641,60.5149,-482.336,0,0
347902,60.1913,-481.35,0,0
348162,59.9311,-480.422,0,0
348422,59.7052,-479.432,0,0
348683,59.4958,-478.499,0,0
348943,59.3532,-477.561,0,0
349203,59.1238,-476.649,0,0
349464,58.9892,-475.795,0,0
349724,58.7449,-474.837,0,0
349984,58.658,-473.987,0,0
350245,58.4847,-473.132,0,0
350505,58.348,-472.207,0,0
350765,58.1445,-471.364,0,0
351025,58.0255,-470.42,0,0
351286,57.8671,-469.519,0,0
351546,57.7958,-468.68,0,0
351806,57.6551,-467.773,0,0
352067,57.5747,-466.934,0,0
352327,57.5388,-466.098,0,0
352587,57.4491,-465.246,0,0
352848,57.3617,-464.414,0,0
353108,57.2927,-463.553,0,0
353368,57.2244,-462.805,0,0
353629,57.1902,-461.989,0,0
353889,57.1494,-461.205,0,0
354149,57.0852,-460.371,0,0
354410,57.0092,-459.568,0,0
354670,56.9438,-458.754,0,0
354930,56.8941,-457.956,0,0
355191,56.8364,-457.121,0,0
355451,56.7942,-456.314,0,0
355711,56.7808,-455.502,0,0
355972,56.7805,-454.764,0,0
356232,56.7451,-453.995,0,0
356492,56.7362,-453.235,0,0
356753,56.748,-452.455,0,0
357013,56.7193,-451.63,0,0
357273,56.7289,-450.89,0,0
357534,56.6973,-450.143,0,0
357794,56.6984,-449.365,0,0
358054,56.7499,-448.668,0,0
358315,56.7276,-447.902,0,0
358575,56.7039,-447.104,0,0
358835,56.7135,-446.443,0,0
359096,56.6972,-445.645,0,0
359356,56.7223,-444.857,0,0
359616,56.7757,-444.079,0,0
359877,56.809,-443.294,0,0
360137,56.8283,-442.609,0,0
360397,56.9322,-441.847,0,0
360658,57.024,-441.109,0,0
360918,57.1472,-440.334,0,0
361178,57.2035,-439.693,0,0
361438,57.2898,-438.998,0,0
361699,57.3494,-438.282,0,0
361959,57.3867,-437.643,0,0
362219,57.4278,-436.9,0,0
362480,57.4732,-436.254,0,0
362740.1,57.5349,-435.534,0,0
363000.425,57.5806,-434.841,0,0
363260.75,57.6226,-434.146,0,0
363521.075,57.7163,-433.419,0,0
363781.4,57.7719,-432.683,0,0
364041.725,57.8787,-432.007,0,0
364302.05,57.9692,-431.268,0,0
364562.375,58.0916,-430.548,0,0
364822.7,58.1717,-429.854,0,0
365083.025,58.32,-429.151,0,0
365343.35,58.4492,-428.507,0,0
365603.675,58.577,-427.842,0,0
365864.0,58.6813,-427.189,0,0
366124.325,58.8074,-426.53,0,0
366384.65,58.9374,-425.856,0,0
366644.975,58.9698,-425.242,0,0
366905.3,59.0746,-424.581,0,0
367165.625,59.0633,-423.897,0,0
367425.95,59.1166,-423.195,0,0
367686.275,59.1289,-422.483,0,0
367946.6,59.1219,-421.705,0,0
368206.925,59.2429,-420.883,0,0
368467.25,59.3322,-420.003,0,0
368727.575,59.4295,-419.156,0,0
368987.9,59.5931,-418.234,0,0
369248.225,59.8352,-417.345,0,0
369508.55,60.1248,-416.433,0,0
369768.875,60.4283,-415.515,0,0
370029.2,60.8142,-414.586,0,0
370289.525,61.2221,-413.708,0,0
370549.85,61.6823,-412.887,0,0
370810.175,62.2096,-412.069,0,0
371070.5,62.7415,-411.26,0,0
371330.825,63.3404,-410.464,0,0
371591.15,64.0003,-409.737,0,0
371851.475,64.6128,-409.046,0,0
372111.8,65.3383,-408.44,0,0
372372.125,65.9987,-407.882,0,0
372632.45,66.7184,-407.354,0,0
372892.775,67.4629,-406.894,0,0
373153.1,68.1627,-406.511,0,0
373413.425,68.8575,-406.127,0,0
373673.75,69.5735,-405.822,0,0
373934.075,70.2754,-405.511,0,0
374194.4,70.9518,-405.348,0,0
374454.725,71.596,-405.174,0,0
374715.05,72.2283,-405.04,0,0
374975.375,72.7535,-404.981,0,0
375235.7,73.2507,-404.918,0,0
375496.025,73.7864,-404.802,0,0
375756.35,74.2282,-404.753,0,0
376016.675,74.6555,-404.698,0,0
376277.0,75.0311,-404.668,0,0
376537.325,75.4195,-404.595,0,0
376797.65,75.824,-404.514,0,0
377057.975,76.2256,-404.43,0,0
377318.3,76.5917,-404.37,0,0
377578.625,76.9681,-404.329,0,0
377838.95,77.3396,-404.317,0,0
378099.275,77.7122,-404.352,0,0
378359.6,78.0397,-404.353,0,0
378619.925,78.4118,-404.408,0,0
378880,78.6862,-404.476,0,0
379141,78.9836,-404.531,0,0
379401,79.1149,-404.578,0,0
379661,79.4101,-404.629,0,0
379922,79.5877,-404.616,0,0
380182,79.8132,-404.598,0,0
380442,80.0797,-404.553,0,0
380703,80.3986,-404.528,0,0
380963,80.7588,-404.591,0,0
381223,81.1826,-404.678,0,0
381483,81.5472,-404.848,0,0
381744,81.9202,-405.13,0,0
382004,82.2019,-405.507,0,0
382264,82.4352,-405.889,0,0
382525,82.5654,-406.328,0,0
382785,82.6257,-406.776,0,0
383045,82.6065,-407.228,0,0
383306,82.5372,-407.646,0,0
383566,82.4177,-408.096,0,0
383826,82.2073,-408.576,0,0
384087,81.8709,-408.932,0,0
384347,81.6218,-409.342,0,0
384607,81.2517,-409.643,0,0
384868,80.7886,-409.942,0,0
385128,80.3504,-410.252,0,0
385388,79.837,-410.403,0,0
385649,79.3592,-410.649,0,0
385909,78.8549,-410.825,0,0
386169,78.264,-410.874,0,0
386430,77.6322,-410.918,0,0
386690,76.9962,-410.94,0,0
386950,76.3059,-410.844,0,0
387211,75.6776,-410.689,0,0
387471,75.0661,-410.501,0,0
387731,74.4787,-410.23,0,0
387992,73.9184,-409.97,0,0
388252,73.3865,-409.615,0,0
388512,72.8839,-409.23,0,0
388773,72.3815,-408.847,0,0
389033,71.989,-408.437,0,0
389293,71.5698,-408.039,0,0
389554,71.1702,-407.657,0,0
389814,70.915,-407.212,0,0
390074,70.5881,-406.854,0,0
390335,70.2848,-406.442,0,0
390595,70.0314,-406.113,0,0
390855,69.7735,-405.735,0,0
391116,69.5417,-405.4,0,0
391376,69.2773,-405.08,0,0
391636,69.0223,-404.793,0,0
391896,68.7217,-404.485,0,0
392157,68.4525,-404.215,0,0
392417,68.1479,-404.006,0,0
392677,67.794,-403.748,0,0
392938,67.4224,-403.527,0,0
393198,67.0571,-403.274,0,0
393458,66.5987,-402.96,0,0
393719,66.1483,-402.692,0,0
393979,65.6466,-402.304,0,0
394239,65.1617,-401.97,0,0
394500,64.6891,-401.541,0,0
394760.05,64.1807,-401.089,0,0
395020.375,63.652,-400.635,0,0
395280.7,63.1658,-400.079,0,0
395541.025,62.7374,-399.489,0,0
395801.35,62.2685,-398.937,0,0
396061.675,61.8473,-398.331,0,0
396322.0,61.4085,-397.696,0,0
396582.325,61.0665,-397.037,0,0
396842.65,60.7068,-396.364,0,0
397102.975,60.3483,-395.694,0,0
397363.3,60.0765,-395.006,0,0
397623.625,59.7643,-394.316,0,0
397883.95,59.494,-393.617,0,0
398144.275,59.2784,-392.967,0,0
398404.6,59.0214,-392.239,0,0
398664.925,58.7745,-391.566,0,0
398925.25,58.6091,-390.855,0,0
399185.575,58.4018,-390.144,0,0
399445.9,58.2413,-389.442,0,0
399706.225,58.0662,-388.681,0,0
399966.55,57.9167,-387.96,0,0
400006.6,57.8802,-387.88,0,0