File: Accelerated corrosion test data/2025-10-15_11-00-19/sample_7.csv
Frequency (Hz),Impedance (ohms),Phase (Radians),Temperature (C),Humidity (%)
10000.0,271.952,-12053.7,0,0
10260.325,269.147,-11764,0,0
10520.65,256.835,-11466,0,0
10780.975,251.311,-11185.5,0,0
11041.3,248.677,-10919.1,0,0
11301.625,245.986,-10663.8,0,0
11561.95,248.789,-10415.3,0,0
11822.275,258.564,-10184.1,0,0
12082.6,268.217,-9960.08,0,0
12342.925,318.062,-9810,0,0
12603.25,256.277,-9615.31,0,0
12863.575,266.267,-9433.35,0,0
13123.9,235.209,-9245.99,0,0
13384.225,226.501,-9071.21,0,0
13644.55,225.626,-8891.51,0,0
13904.875,208.378,-8725.07,0,0
14165.2,207.6,-8552.31,0,0
14425.525,202.814,-8414.93,0,0
14685.8,200.68,-8264.37,0,0
14946.175,198.222,-8118.67,0,0
15206.5,194.643,-7989.68,0,0
15466.825,185.243,-7847.32,0,0
15727.15,182.215,-7719.76,0,0
15987.5,178.875,-7590.72,0,0
16247.8,176.499,-7472.5,0,0
16508.125,170.865,-7350.26,0,0
16768.45,170.428,-7232.26,0,0
17028.775,170.238,-7121.93,0,0
17289.1,165.525,-7014.12,0,0
17549.425,165.121,-6906.21,0,0
17809.75,170.2,-6796.99,0,0
18070.075,168.52,-6700.94,0,0
18330.4,179.579,-6595.38,0,0
18590.725,198.9,-6511.6,0,0
18851.05,190.12,-6439.95,0,0
19111.375,179.249,-6356.35,0,0
19371.7,202.496,-6288.62,0,0
19632.025,168.021,-6215.05,0,0
19892.35,157.905,-6115.2,0,0
20152.675,168.357,-6036.88,0,0
20413.0,168.486,-5964.15,0,0
20673.3,170.253,-5883.47,0,0
20933.65,179.602,-5826.12,0,0
21193.975,160.845,-5762.83,0,0
21454.3,152.861,-5688.5,0,0
21714.625,156.516,-5624.15,0,0
21974.9,145.685,-5560.77,0,0
22235.275,140.909,-5492.12,0,0
22495.6,139.125,-5428.87,0,0
22755.925,133.237,-5365.57,0,0
23016.25,129.845,-5301.77,0,0
23276.6,128.215,-5238.99,0,0
23536.9,128.958,-5179.48,0,0
23797.225,127.35,-5124.11,0,0
24057.55,123.625,-5066.84,0,0
24317.875,122.391,-5009.74,0,0
24578.2,123.05,-4955.52,0,0
24838.525,122.174,-4901.72,0,0
25098.85,120.311,-4850.11,0,0
25359.175,119.563,-4798.41,0,0
25619.5,118.147,-4746.59,0,0
25879.8,118.413,-4696.98,0,0
26140.1,119.044,-4645.54,0,0
26400.5,123.416,-4598.48,0,0
26660.8,121.099,-4552.68,0,0
26921.1,121.847,-4502.51,0,0
27181.4,127.192,-4455.02,0,0
27441.8,130.712,-4408.19,0,0
27702.1,141.604,-4361.84,0,0
27962.4,155.833,-4318.24,0,0
28222.7,177.131,-4290.38,0,0
28483.1,183.085,-4270.77,0,0
28743.4,183.01,-4256.69,0,0
29003.7,167.12,-4234.66,0,0
29264,148.988,-4200.21,0,0
29524.4,139.213,-4161.18,0,0
29784.7,131.978,-4123.64,0,0
30045,128.724,-4080.05,0,0
30305.3,130.044,-4043.06,0,0
30565.7,131.54,-4009.74,0,0
30826,131.284,-3977.21,0,0
31086.3,132.969,-3947.04,0,0
31346.6,130.863,-3917.95,0,0
31607,128.045,-3893.3,0,0
31867.3,120.718,-3861.37,0,0
32127.6,117.276,-3829.8,0,0
32387.9,113.797,-3799.37,0,0
32648.3,110.373,-3769.61,0,0
32908.6,107.38,-3739.27,0,0
33168.9,104.332,-3709.5,0,0
33429.2,101.474,-3679.82,0,0
33689.6,98.7295,-3649.72,0,0
33949.9,96.8873,-3620.76,0,0
34210.2,94.7069,-3592.01,0,0
34470.5,93.3257,-3563.5,0,0
34730.9,92.1507,-3535.31,0,0
34991.2,91.1419,-3507.7,0,0
35251.5,89.8321,-3480.89,0,0
35511.8,89.0571,-3454.16,0,0
35772.2,88.4848,-3427.64,0,0
36032.5,88.2596,-3402.07,0,0
36292.8,87.6339,-3377.45,0,0
36553.1,86.5634,-3351.98,0,0
36813.5,85.9024,-3327.03,0,0
37073.8,85.9734,-3302.47,0,0
37334.1,85.7723,-3278.62,0,0
37594.4,85.5345,-3255.1,0,0
37854.8,84.7584,-3231.71,0,0
38115.1,85.0129,-3207.76,0,0
38375.4,85.4804,-3184.68,0,0
38635.7,86.2725,-3161.72,0,0
38896.1,87.943,-3139.06,0,0
39156.4,89.8215,-3117.85,0,0
39416.7,92.8045,-3096.36,0,0
39677,97.0541,-3078.35,0,0
39937.4,98.1992,-3062.37,0,0
40197.7,98.3899,-3046.88,0,0
40458,95.5248,-3031.55,0,0
40718.3,92.4486,-3013.39,0,0
40978.7,89.1437,-2995.05,0,0
41239,86.3827,-2975.58,0,0
41499.3,84.7637,-2956.25,0,0
41759.6,83.6646,-2937.26,0,0
42020,81.6566,-2918.97,0,0
42280.275,80.301,-2899.33,0,0
42540.6,79.9284,-2879.66,0,0
42800.925,80.1982,-2861.81,0,0
43061.25,80.0357,-2843.89,0,0
43321.575,80.2043,-2827.15,0,0
43581.9,79.0107,-2809.6,0,0
43842.225,78.7757,-2791.39,0,0
44102.55,79.5958,-2773.77,0,0
44362.875,81.62,-2758,0,0
44623.2,81.7902,-2743.09,0,0
44883.525,81.3366,-2729.01,0,0
45143.85,80.2018,-2714,0,0
45404.175,78.7603,-2697.96,0,0
45664.5,79.2123,-2681.34,0,0
45924.825,80.3992,-2667.76,0,0
46185.15,79.6514,-2655.46,0,0
46445.475,76.963,-2641.48,0,0
46705.8,74.2175,-2626.98,0,0
46966.125,72.4585,-2611.2,0,0
47226.45,71.1403,-2595.58,0,0
47486.775,70.953,-2580.25,0,0
47747.1,70.4853,-2565.53,0,0
48007.425,70.1938,-2551.17,0,0
48267.75,69.6079,-2537.24,0,0
48528.075,68.8368,-2523.34,0,0
48788.4,68.2655,-2509.39,0,0
49048.725,67.7151,-2495.34,0,0
49309.05,67.3367,-2481.6,0,0
49569.375,66.9469,-2468.31,0,0
49829.7,66.4768,-2454.89,0,0
50090.025,66.2665,-2441.61,0,0
50350.35,65.7337,-2428.52,0,0
50610.675,65.5828,-2415.63,0,0
50871.0,65.1985,-2402.89,0,0
51131.325,64.8393,-2390.28,0,0
51391.65,64.5824,-2377.6,0,0
51651.975,64.3137,-2365.11,0,0
51912.3,63.9861,-2352.84,0,0
52172.625,63.8662,-2340.57,0,0
52432.95,63.6932,-2328.62,0,0
52693.275,63.3688,-2316.7,0,0
52953.6,63.4336,-2304.89,0,0
53213.925,63.3561,-2293.42,0,0
53474.25,63.1397,-2282.2,0,0
53734.575,62.7741,-2270.87,0,0
53994.9,62.35,-2259.69,0,0
54255.225,62.048,-2248.29,0,0
54515.55,61.8317,-2237.28,0,0
54775.875,61.5,-2226.14,0,0
55036.2,61.2079,-2215.33,0,0
55296.525,60.9741,-2204.37,0,0
55556.85,60.7288,-2193.67,0,0
55817.175,60.4786,-2183.07,0,0
56077.5,60.2615,-2172.33,0,0
56337.825,60.2441,-2161.92,0,0
56598.15,60.1446,-2151.77,0,0
56858.475,59.9384,-2141.57,0,0
57118.8,59.7891,-2131.49,0,0
57379.125,59.5472,-2121.53,0,0
57639.45,59.2276,-2111.36,0,0
57899.775,58.9667,-2101.36,0,0
58160.1,59.0907,-2091.35,0,0
58420.4,59.3175,-2081.41,0,0
58680.7,59.4252,-2072.18,0,0
58941.1,59.3173,-2062.95,0,0
59201.4,59.051,-2053.51,0,0
59461.7,59.226,-2043.93,0,0
59722,59.4332,-2035.17,0,0
59982.4,59.2726,-2026.03,0,0
60242.7,59.3894,-2017.22,0,0
60503,59.2378,-2008.72,0,0
60763.3,58.8234,-2000.14,0,0
61023.7,58.2757,-1991.5,0,0
61284,57.9821,-1982.72,0,0
61544.3,57.6617,-1974.3,0,0
61804.6,57.1924,-1965.68,0,0
62065,56.7175,-1957,0,0
62325.3,56.4201,-1948.24,0,0
62585.6,56.086,-1939.82,0,0
62845.9,55.8473,-1931.23,0,0
63106.3,55.5768,-1922.79,0,0
63366.6,55.4637,-1914.26,0,0
63626.9,55.4052,-1906.12,0,0
63887.2,55.3365,-1898.17,0,0
64147.6,55.0887,-1890.04,0,0
64407.9,54.868,-1881.94,0,0
64668.2,54.8498,-1873.95,0,0
64928.5,54.7412,-1865.86,0,0
65188.9,54.8756,-1857.97,0,0
65449.2,54.9235,-1850.37,0,0
65709.5,54.8669,-1842.94,0,0
65969.8,54.7483,-1835.53,0,0
66230.2,54.6681,-1828.33,0,0
66490.5,54.2593,-1820.92,0,0
66750.8,53.8711,-1813.63,0,0
67011.1,53.3699,-1806.32,0,0
67271.5,53.0325,-1798.84,0,0
67531.8,52.7803,-1791.4,0,0
67792.1,52.456,-1784.01,0,0
68052.4,52.217,-1776.82,0,0
68312.8,51.8962,-1769.46,0,0
68573.1,51.7773,-1762.25,0,0
68833.4,51.6785,-1755.09,0,0
69093.7,51.5197,-1747.98,0,0
69354.1,51.5146,-1740.93,0,0
69614.4,51.3665,-1734,0,0
69874.7,51.1895,-1726.97,0,0
70135,51.222,-1720.23,0,0
70395.4,51.1467,-1713.45,0,0
70655.7,51.1068,-1706.56,0,0
70916,51.13,-1699.94,0,0
71176.3,51.0328,-1693.44,0,0
71436.7,50.9008,-1687.05,0,0
71697,50.783,-1680.57,0,0
71957.3,50.6019,-1674.17,0,0
72217.6,50.278,-1667.74,0,0
72478,50.072,-1661.33,0,0
72738.3,49.863,-1654.91,0,0
72998.6,49.6577,-1648.59,0,0
73258.9,49.559,-1642.24,0,0
73519.3,49.3818,-1635.91,0,0
73779.6,49.2083,-1629.6,0,0
74039.9,49.1042,-1623.4,0,0
74300.225,49.0258,-1617.23,0,0
74560.55,48.8445,-1611.13,0,0
74820.875,48.7374,-1605.07,0,0
75081.2,48.6653,-1598.93,0,0
75341.525,48.6021,-1593.03,0,0
75601.85,48.4637,-1586.98,0,0
75862.175,48.3274,-1581.11,0,0
76122.5,48.2169,-1575.17,0,0
76382.825,48.1561,-1569.32,0,0
76643.15,48.1155,-1563.45,0,0
76903.475,48.0601,-1557.69,0,0
77163.8,47.9793,-1551.93,0,0
77424.125,47.9498,-1546.14,0,0
77684.45,47.8831,-1540.52,0,0
77944.775,47.8281,-1534.95,0,0
78205.1,47.6903,-1529.35,0,0
78465.425,47.6533,-1523.73,0,0
78725.75,47.6017,-1518.12,0,0
78986.075,47.5733,-1512.66,0,0
79246.4,47.5266,-1507.19,0,0
79506.725,47.5003,-1501.81,0,0
79767.05,47.4388,-1496.35,0,0
80027.375,47.4563,-1491.04,0,0
80287.7,47.4276,-1485.69,0,0
80548.025,47.3192,-1480.5,0,0
80808.35,47.2339,-1475.23,0,0
81068.675,47.1063,-1469.96,0,0
81329.0,47.0507,-1464.77,0,0
81589.325,47.0344,-1459.55,0,0
81849.65,46.9569,-1454.38,0,0
82109.975,46.884,-1449.23,0,0
82370.3,46.8555,-1444.13,0,0
82630.625,46.8518,-1439.05,0,0
82890.95,46.7708,-1433.97,0,0
83151.275,46.7103,-1428.93,0,0
83411.6,46.7148,-1423.9,0,0
83671.925,46.7151,-1418.82,0,0
83932.25,46.7262,-1413.79,0,0
84192.575,46.7204,-1408.85,0,0
84452.9,46.8492,-1403.96,0,0
84713.225,46.9351,-1399.27,0,0
84973.55,46.9445,-1394.37,0,0
85233.875,46.9995,-1389.62,0,0
85494.2,46.9434,-1384.92,0,0
85754.525,46.9065,-1380.29,0,0
86014.85,46.9327,-1375.41,0,0
86275.175,47.0861,-1370.72,0,0
86535.5,47.1612,-1366.26,0,0
86795.825,47.0623,-1361.59,0,0
87056.15,47.041,-1356.89,0,0
87316.475,47.1841,-1352.48,0,0
87576.8,47.203,-1347.93,0,0
87837.125,47.2387,-1343.49,0,0
88097.45,47.1847,-1339.07,0,0
88357.775,47.1564,-1334.64,0,0
88618.1,47.0117,-1330.19,0,0
88878.425,46.9612,-1325.79,0,0
89138.75,46.7947,-1321.33,0,0
89399.075,46.686,-1316.81,0,0
89659.4,46.6785,-1312.33,0,0
89919.725,46.654,-1307.9,0,0
90180,46.687,-1303.37,0,0
90440.4,46.7996,-1298.92,0,0
90700.7,46.8653,-1294.72,0,0
90961,46.9051,-1290.37,0,0
91221.3,46.9218,-1285.92,0,0
91481.7,47.1388,-1281.65,0,0
91742,47.187,-1277.32,0,0
92002.3,47.2567,-1273.06,0,0
92262.6,47.53,-1268.85,0,0
92523,47.6376,-1264.74,0,0
92783.3,47.6241,-1260.62,0,0
93043.6,47.6461,-1256.32,0,0
93303.9,47.8924,-1251.98,0,0
93564.3,48.1666,-1247.83,0,0
93824.6,48.5171,-1243.62,0,0
94084.9,49.1937,-1239.72,0,0
94345.2,49.4777,-1235.86,0,0
94605.6,49.7582,-1232.14,0,0
94865.9,50.0073,-1228.47,0,0
95126.2,50.4101,-1224.9,0,0
95386.5,50.4291,-1221.7,0,0
95646.9,50.1275,-1218.16,0,0
95907.2,49.7519,-1214.34,0,0
96167.5,49.5821,-1210.45,0,0
96427.8,49.4309,-1206.63,0,0
96688.2,49.3054,-1202.69,0,0
96948.5,49.2932,-1198.8,0,0
97208.8,49.1935,-1194.99,0,0
97469.1,49.0066,-1190.93,0,0
97729.5,49.2605,-1186.84,0,0
97989.8,49.5607,-1182.97,0,0
98250.1,49.6818,-1179.29,0,0
98510.4,49.9765,-1175.58,0,0
98770.8,50.0457,-1172.09,0,0
99031.1,50.0048,-1168.54,0,0
99291.4,49.839,-1164.91,0,0
99551.7,49.648,-1161.05,0,0
99812.1,49.5472,-1157.03,0,0
100072,49.7833,-1152.96,0,0
100333,50.146,-1149.07,0,0
100593,50.5067,-1145.43,0,0
100853,50.7143,-1141.7,0,0
101114,51.1416,-1138.01,0,0
101374,51.4568,-1134.52,0,0
101634,51.5813,-1130.93,0,0
101895,51.8814,-1127.23,0,0
102155,52.2358,-1123.6,0,0
102415,52.6865,-1119.97,0,0
102676,53.1641,-1116.5,0,0
102936,53.6279,-1113,0,0
103196,54.3158,-1109.64,0,0
103457,54.833,-1106.49,0,0
103717,55.4533,-1103.4,0,0
103977,55.7316,-1100.72,0,0
104238,55.6293,-1097.63,0,0
104498,55.8211,-1094.29,0,0
104758,56.1979,-1091.16,0,0
105019,56.4299,-1088.3,0,0
105279,56.3831,-1085.45,0,0
105539,56.1722,-1082.41,0,0
105800,56.042,-1079.08,0,0
106060,55.8317,-1075.85,0,0
106320.175,55.7962,-1072.25,0,0
106580.5,56.0081,-1068.76,0,0
106840.825,56.3653,-1065.35,0,0
107101.15,56.7896,-1062.26,0,0
107361.475,56.9076,-1059.21,0,0
107621.8,56.9447,-1056.02,0,0
107882.125,56.9864,-1052.65,0,0
108142.45,57.2608,-1049.35,0,0
108402.775,57.4791,-1046.14,0,0
108663.1,57.7509,-1042.88,0,0
108923.425,57.9247,-1039.74,0,0
109183.75,58.1584,-1036.65,0,0
109444.075,58.2363,-1033.49,0,0
109704.4,58.2861,-1030.16,0,0
109964.725,58.3834,-1026.8,0,0
110225.05,58.4455,-1023.2,0,0
110485.375,58.9679,-1019.48,0,0
110745.7,59.7008,-1015.94,0,0
111006.025,60.5415,-1012.5,0,0
111266.35,61.1186,-1009.59,0,0
111526.675,61.7301,-1006.41,0,0
111787.0,62.2862,-1002.86,0,0
112047.325,63.0868,-999.544,0,0
112307.65,64.1037,-996.387,0,0
112567.975,65.0794,-993.284,0,0
112828.3,66.1218,-990.209,0,0
113088.625,67.3297,-987.237,0,0
113348.95,68.5021,-984.598,0,0
113609.275,69.3298,-981.991,0,0
113869.6,70.2421,-979.117,0,0
114129.925,71.4193,-976.337,0,0
114390.25,72.6236,-973.578,0,0
114650.575,73.9206,-971.176,0,0
114910.9,75.0438,-968.816,0,0
115171.225,76.2333,-966.321,0,0
115431.55,77.527,-963.931,0,0
115691.875,78.9858,-961.526,0,0
115952.2,80.644,-959.424,0,0
116212.525,82.3601,-957.641,0,0
116472.85,84.0965,-956.25,0,0
116733.175,85.4844,-955.353,0,0
116993.5,86.326,-954.385,0,0
117253.825,87.1872,-953.146,0,0
117514.15,88.1006,-952.219,0,0
117774.475,88.745,-951.398,0,0
118034.8,89.0564,-950.316,0,0
118295.125,89.7671,-949.083,0,0
118555.45,90.6983,-948.25,0,0
118815.775,91.418,-947.964,0,0
119076.1,91.7109,-947.963,0,0
119336.425,91.6357,-947.965,0,0
119596.75,91.2374,-948.04,0,0
119857.075,90.4911,-948.343,0,0
120117.4,88.9539,-948.454,0,0
120377.725,87.1928,-948.309,0,0
120638.05,84.6852,-947.718,0,0
120898.375,82.3313,-946.414,0,0
121158.7,79.7468,-944.835,0,0
121419.025,77.2789,-942.359,0,0
121679.35,75.6312,-939.662,0,0
121939.675,74.1681,-937.153,0,0
122200.0,72.7658,-934.8,0,0
122460,71.238,-932.372,0,0
122721,69.8059,-929.754,0,0
122981,68.3883,-927.141,0,0
123241,66.9531,-924.372,0,0
123502,65.6489,-921.371,0,0
123762,64.6568,-918.174,0,0
124022,63.9372,-915.24,0,0
124283,63.2061,-912.392,0,0
124543,62.4638,-909.558,0,0
124803,61.884,-906.815,0,0
125064,61.1942,-904.263,0,0
125324,60.283,-901.635,0,0
125584,59.3194,-898.782,0,0
125845,58.6113,-895.767,0,0
126105,57.9827,-892.948,0,0
126365,57.2109,-890.139,0,0
126626,56.4663,-887.099,0,0
126886,55.9155,-884.088,0,0
127146,55.2535,-881.09,0,0
127406,54.7298,-877.914,0,0
127667,54.4504,-874.824,0,0
127927,54.234,-871.902,0,0
128187,53.9673,-869.071,0,0
128448,53.5946,-866.258,0,0
128708,53.1871,-863.35,0,0
128968,52.8346,-860.373,0,0
129229,52.6293,-857.408,0,0
129489,52.4093,-854.615,0,0
129749,52.0787,-851.824,0,0
130010,51.7211,-848.814,0,0
130270,51.6001,-845.819,0,0
130530,51.5277,-843.046,0,0
130791,51.2388,-840.295,0,0
131051,50.8745,-837.437,0,0
131311,50.5071,-834.413,0,0
131572,50.3156,-831.261,0,0
131832,50.2687,-828.145,0,0
132092,50.2486,-825.174,0,0
132353,50.1055,-822.181,0,0
132613,50.0915,-819.07,0,0
132873,50.1598,-815.989,0,0
133134,50.2735,-812.912,0,0
133394,50.3762,-809.821,0,0
133654,50.5533,-806.658,0,0
133915,50.8868,-803.478,0,0
134175,51.4221,-800.334,0,0
134435,52.1432,-797.355,0,0
134696,52.7668,-794.625,0,0
134956,53.2558,-791.928,0,0
135216,53.7477,-789.074,0,0
135477,54.4524,-786.208,0,0
135737,55.4052,-783.367,0,0
135997,56.6165,-780.928,0,0
136258,57.7704,-778.93,0,0
136518,58.7341,-777.198,0,0
136778,59.4642,-775.827,0,0
137039,59.604,-774.76,0,0
137299,59.0571,-773.354,0,0
137559,58.3968,-771.372,0,0
137819,57.8898,-769.109,0,0
138080,57.5131,-766.815,0,0
138340.125,56.9718,-764.467,0,0
138600.45,56.5109,-761.87,0,0
138860.775,56.0508,-759.172,0,0
139121.1,55.7795,-756.247,0,0
139381.425,55.7771,-753.307,0,0
139641.75,55.8947,-750.551,0,0
139902.075,56.0348,-747.839,0,0
140162.4,56.1078,-745.205,0,0
140422.725,56.1787,-742.669,0,0
140683.05,56.161,-740.051,0,0
140943.375,56.139,-737.365,0,0
141203.7,56.1623,-734.669,0,0
141464.025,56.1308,-731.899,0,0
141724.35,56.1182,-728.994,0,0
141984.675,56.3094,-726.063,0,0
142245.0,56.5526,-723.181,0,0
142505.325,56.8528,-720.267,0,0
142765.65,57.196,-717.421,0,0
143025.975,57.6349,-714.53,0,0
143286.3,58.219,-711.694,0,0
143546.625,58.8376,-709.062,0,0
143806.95,59.4002,-706.51,0,0
144067.275,59.9325,-704.059,0,0
144327.6,60.3414,-701.666,0,0
144587.925,60.7166,-699.241,0,0
144848.25,60.9645,-696.826,0,0
145108.575,61.2555,-694.296,0,0
145368.9,61.5302,-691.822,0,0
145629.225,61.7609,-689.345,0,0
145889.55,61.9241,-686.822,0,0
146149.875,62.0434,-684.145,0,0
146410.2,62.3151,-681.391,0,0
146670.525,62.668,-678.701,0,0
146930.85,63.0066,-676.093,0,0
147191.175,63.351,-673.44,0,0
147451.5,63.6201,-670.897,0,0
147711.825,63.8245,-668.136,0,0
147972.15,64.2646,-665.38,0,0
148232.475,64.7042,-662.869,0,0
148492.8,64.9719,-660.392,0,0
148753.125,65.0841,-657.901,0,0
149013.45,65.0598,-655.255,0,0
149273.775,65.0256,-652.459,0,0
149534.1,65.0165,-649.531,0,0
149794.425,65.0555,-646.529,0,0
150054.75,65.0851,-643.388,0,0
150315.075,65.2011,-640.176,0,0
150575.4,65.4063,-636.892,0,0
150835.725,65.6577,-633.534,0,0
151096.05,66.0235,-630.107,0,0
151356.375,66.4356,-626.627,0,0
151616.7,66.9648,-623.146,0,0
151877.025,67.541,-619.574,0,0
152137.35,68.2213,-616.013,0,0
152397.675,69.0068,-612.386,0,0
152658.0,69.9377,-608.779,0,0
152918.325,70.9196,-605.217,0,0
153178.65,71.9361,-601.652,0,0
153438.975,73.0185,-598.116,0,0
153699.3,74.1264,-594.559,0,0
153959.625,75.2526,-590.931,0,0
154219.95,76.5515,-587.221,0,0
154480,77.9841,-583.553,0,0
154741,79.4599,-579.878,0,0
155001,81.0595,-576.224,0,0
155261,82.7783,-572.603,0,0
155522,84.6431,-569.068,0,0
155782,86.5365,-565.469,0,0
156042,88.4898,-561.967,0,0
156303,90.5535,-558.463,0,0
156563,92.7958,-554.959,0,0
156823,95.0887,-551.626,0,0
157084,97.5536,-548.365,0,0
157344,100.224,-545.146,0,0
157604,102.928,-542.218,0,0
157864,105.627,-539.498,0,0
158125,108.207,-536.891,0,0
158385,110.958,-534.388,0,0
158645,113.714,-532.308,0,0
158906,116.071,-530.528,0,0
159166,118.109,-528.857,0,0
159426,119.771,-527.098,0,0
159687,121.197,-525.139,0,0
159947,122.384,-523.076,0,0
160207,123.108,-520.727,0,0
160468,123.966,-517.93,0,0
160728,124.766,-514.742,0,0
160988,125.405,-511.36,0,0
161249,126.114,-507.212,0,0
161509,127.251,-502.643,0,0
161769,128.958,-497.641,0,0
162030,131.115,-492.602,0,0
162290,133.78,-487.539,0,0
162550,136.793,-482.633,0,0
162811,140.037,-477.725,0,0
163071,143.435,-472.624,0,0
163331,147.389,-467.452,0,0
163592,151.982,-462.302,0,0
163852,157.124,-457.502,0,0
164112,162.475,-453.311,0,0
164373,167.771,-449.347,0,0
164633,173.177,-445.372,0,0
164893,178.736,-441.763,0,0
165154,184.081,-438.145,0,0
165414,189.377,-434.235,0,0
165674,194.957,-429.816,0,0
165935,201.299,-425.094,0,0
166195,208.581,-420.262,0,0
166455,216.778,-415.746,0,0
166716,225.752,-411.828,0,0
166976,235.248,-408.474,0,0
167236,245.339,-405.431,0,0
167497,256.357,-403.23,0,0
167757,267.762,-402.101,0,0
168017,279.28,-401.663,0,0
168277,291.453,-401.986,0,0
168538,304.105,-403.558,0,0
168798,316.897,-406.532,0,0
169058,329.52,-410.847,0,0
169319,341.824,-416.675,0,0
169579,352.997,-423.934,0,0
169839,363.274,-431.225,0,0
170100,373.572,-439.108,0,0
170360.075,383.653,-448.259,0,0
170620.4,392.974,-459.071,0,0
170880.725,400.502,-470.864,0,0
171141.05,406.487,-482.671,0,0
171401.375,411.789,-494.401,0,0
171661.7,416.269,-506.642,0,0
171922.025,419.91,-518.975,0,0
172182.35,423.24,-531.937,0,0
172442.675,425.323,-546.466,0,0
172703.0,424.77,-561.456,0,0
172963.325,422.355,-575.914,0,0
173223.65,417.973,-589.99,0,0
173483.975,411.832,-603.195,0,0
173744.3,403.42,-615.292,0,0
174004.625,393.282,-625.078,0,0
174264.95,382.622,-632.19,0,0
174525.275,372.077,-637.302,0,0
174785.6,361.583,-640.649,0,0
175045.925,351.461,-641.463,0,0
175306.25,343.618,-640.658,0,0
175566.575,336.785,-640.185,0,0
175826.9,329.937,-638.363,0,0
176087.225,325.013,-635.084,0,0
176347.55,322.086,-631.906,0,0
176607.875,320.43,-629.036,0,0
176868.2,320.272,-626.418,0,0
177128.525,321.488,-624.98,0,0
177388.85,323.231,-625.004,0,0
177649.175,324.898,-625.676,0,0
177909.5,327.72,-626.941,0,0
178169.825,331.371,-630.25,0,0
178430.15,334.808,-636.279,0,0
178690.475,336.21,-644.882,0,0
178950.8,334.514,-654.349,0,0
179211.125,330.073,-663.327,0,0
179471.45,323.372,-670.557,0,0
179731.775,316.179,-675.571,0,0
179992.1,309.313,-679.384,0,0
180252.425,302.927,-682.296,0,0
180512.75,297.195,-685.104,0,0
180773.075,291.446,-688.45,0,0
181033.4,285.002,-692.172,0,0
181293.725,277.3,-695.777,0,0
181554.05,268.197,-698.07,0,0
181814.375,259.439,-698.647,0,0
182074.7,251.098,-699.094,0,0
182335.025,241.941,-699.057,0,0
182595.35,232.444,-697.346,0,0
182855.675,223.666,-694.212,0,0
183116.0,215.918,-690.132,0,0
183376.325,209.49,-685.848,0,0
183636.65,203.568,-682.063,0,0
183896.975,197.399,-678.222,0,0
184157.3,191.422,-673.613,0,0
184417.625,186.205,-668.401,0,0
184677.95,181.987,-663.116,0,0
184938.275,178.452,-658.435,0,0
185198.6,174.827,-654.267,0,0
185458.925,170.998,-650.106,0,0
185719.25,166.904,-645.734,0,0
185979.575,162.848,-640.671,0,0
186239.9,159.441,-635.143,0,0
186500,156.632,-629.608,0,0
186761,154.203,-624.092,0,0
187021,152.071,-618.581,0,0
187281,150.404,-612.995,0,0
187542,149.29,-607.55,0,0
187802,148.593,-602.417,0,0
188062,148.249,-597.7,0,0
188322,148.026,-593.475,0,0
188583,147.839,-589.824,0,0
188843,147.068,-586.691,0,0
189103,145.721,-583.407,0,0
189364,144.101,-579.679,0,0
189624,142.673,-575.617,0,0
189884,141.249,-571.529,0,0
190145,139.827,-567.06,0,0
190405,138.873,-562.477,0,0
190665,137.89,-558.065,0,0
190926,136.77,-553.394,0,0
191186,136.024,-548.252,0,0
191446,135.875,-543.167,0,0
191707,136.036,-538.503,0,0
191967,136.012,-534.108,0,0
192227,135.702,-529.572,0,0
192488,135.54,-524.698,0,0
192748,135.717,-519.665,0,0
193008,136.184,-514.688,0,0
193269,136.844,-509.761,0,0
193529,137.677,-504.948,0,0
193789,138.564,-500.229,0,0
194050,139.477,-495.489,0,0
194310,140.536,-490.614,0,0
194570,141.743,-485.665,0,0
194831,143.414,-480.645,0,0
195091,145.509,-475.842,0,0
195351,147.714,-471.472,0,0
195612,149.857,-467.266,0,0
195872,152.025,-463.164,0,0
196132,154.338,-459.273,0,0
196393,156.581,-455.514,0,0
196653,158.801,-451.645,0,0
196913,161.197,-447.949,0,0
197174,163.766,-444.508,0,0
197434,166.295,-441.357,0,0
197694,168.434,-438.37,0,0
197955,170.238,-435.554,0,0
198215,171.755,-432.242,0,0
198475,173.331,-428.711,0,0
198735,175.123,-424.979,0,0
198996,177.021,-421.285,0,0
199256,178.807,-417.527,0,0
199516,180.532,-413.567,0,0
199777,182.383,-409.23,0,0
200037,184.563,-404.729,0,0
200297,187.025,-400.101,0,0
200558,189.833,-395.481,0,0
200818,192.839,-390.969,0,0
201078,195.855,-386.599,0,0
201339,198.869,-382.024,0,0
201599,202.091,-377.122,0,0
201859,205.738,-372.058,0,0
202120,209.813,-366.997,0,0
202380.025,214.352,-361.905,0,0
202640.35,219.38,-357.088,0,0
202900.675,224.639,-352.598,0,0
203161.0,229.946,-348.153,0,0
203421.325,235.626,-343.851,0,0
203681.65,241.501,-339.711,0,0
203941.975,247.622,-335.756,0,0
204202.3,253.898,-331.975,0,0
204462.625,260.487,-328.098,0,0
204722.95,267.4,-324.432,0,0
204983.275,274.699,-320.738,0,0
205243.6,282.647,-317.131,0,0
205503.925,291.437,-314.086,0,0
205764.25,300.779,-312.079,0,0
206024.575,310.206,-311.12,0,0
206284.9,319.306,-311.089,0,0
206545.225,327.997,-311.648,0,0
206805.55,336.3,-312.626,0,0
207065.875,343.971,-314.182,0,0
207326.2,351.03,-315.741,0,0
207586.525,357.525,-317.198,0,0
207846.85,363.515,-318.281,0,0
208107.175,369.355,-318.548,0,0
208367.5,375.641,-318.11,0,0
208627.825,382.566,-317.128,0,0
208888.15,390.622,-315.807,0,0
209148.475,400.195,-314.89,0,0
209408.8,410.685,-314.949,0,0
209669.125,421.787,-316.098,0,0
209929.45,433.483,-318.154,0,0
210189.775,445.831,-321.563,0,0
210450.1,458.702,-326.857,0,0
210710.425,471.22,-334.714,0,0
210970.75,481.383,-344.247,0,0
211231.075,489.961,-354.013,0,0
211491.4,497.596,-363.851,0,0
211751.725,504.282,-373.949,0,0
212012.05,510.06,-384.298,0,0
212272.375,514.758,-394.594,0,0
212532.7,518.824,-404.46,0,0
212793.025,522.847,-414.503,0,0
213053.35,525.944,-425.44,0,0
213313.675,527.198,-436.091,0,0
213574.0,527.656,-445.273,0,0
213834.325,528.599,-453.677,0,0
214094.65,529.837,-462.354,0,0
214354.975,530.737,-471.486,0,0
214615.3,530.561,-480.759,0,0
214875.625,529.852,-489.368,0,0
215135.95,528.833,-497.804,0,0
215396.275,527.166,-505.744,0,0
215656.6,525.374,-512.871,0,0
215916.925,524.029,-519.335,0,0
216177.25,523.513,-525.844,0,0
216437.575,523.56,-533.236,0,0
216697.9,523.084,-541.919,0,0
216958.225,521.362,-551.407,0,0
217218.55,517.898,-560.831,0,0
217478.875,513.075,-569.312,0,0
217739.2,507.832,-576.51,0,0
217999.525,502.868,-583.059,0,0
218259.85,497.771,-589.607,0,0
218520,492.108,-595.973,0,0
218780,485.879,-602,0,0
219041,478.888,-607.459,0,0
219301,471.082,-611.984,0,0
219561,462.972,-615.185,0,0
219822,455.04,-617.129,0,0
220082,447.407,-618.055,0,0
220342,440.327,-618.019,0,0
220603,434.043,-617.319,0,0
220863,428.265,-616.169,0,0
221123,423.006,-614.671,0,0
221384,418.416,-612.634,0,0
221644,414.638,-610.394,0,0
221904,411.443,-608.08,0,0
222165,408.865,-605.665,0,0
222425,407.035,-603.313,0,0
222685,405.834,-601.379,0,0
222946,404.976,-599.985,0,0
223206,404.095,-598.724,0,0
223466,403.469,-597.599,0,0
223727,403.059,-596.859,0,0
223987,402.56,-596.386,0,0
224247,401.884,-596.004,0,0
224508,401.064,-595.52,0,0
224768,400.118,-594.778,0,0
225028,399.367,-593.513,0,0
225289,399.1,-591.796,0,0
225549,399.675,-589.99,0,0
225809,401.099,-588.36,0,0
226070,403.189,-587.379,0,0
226330,405.67,-587.172,0,0
226590,408.209,-587.705,0,0
226851,410.378,-588.773,0,0
227111,412.376,-589.977,0,0
227371,414.382,-591.267,0,0
227632,416.576,-592.684,0,0
227892,419.173,-594.44,0,0
228152,421.92,-596.885,0,0
228413,424.501,-600.079,0,0
228673,426.783,-603.838,0,0
228933,428.663,-608.082,0,0
229193,429.926,-612.759,0,0
229454,430.473,-617.376,0,0
229714,430.835,-621.659,0,0
229974,431.568,-625.839,0,0
230235,432.624,-630.622,0,0
230495,433.28,-636.562,0,0
230755,432.771,-643.074,0,0
231016,431.176,-649.321,0,0
231276,429.037,-655.163,0,0
231536,426.703,-660.446,0,0
231797,424.46,-665.715,0,0
232057,422.204,-671.148,0,0
232317,419.714,-677.029,0,0
232578,416.57,-683.429,0,0
232838,412.418,-689.774,0,0
233098,407.555,-695.801,0,0
233359,402.237,-701.67,0,0
233619,396.088,-707.606,0,0
233879,388.765,-713.142,0,0
234140,380.443,-717.536,0,0
234400,371.784,-720.681,0,0
234660.3,363.033,-722.978,0,0
234920.625,353.926,-724.44,0,0
235180.95,344.971,-724.527,0,0
235441.275,336.309,-723.545,0,0
235701.6,328.431,-721.434,0,0
235961.925,321.516,-718.803,0,0
236222.25,315.489,-715.906,0,0
236482.575,310.474,-713.062,0,0
236742.9,306.055,-710.791,0,0
237003.225,301.708,-709.117,0,0
237263.55,296.936,-707.57,0,0
237523.875,291.888,-705.794,0,0
237784.2,286.881,-703.675,0,0
238044.525,281.847,-701.371,0,0
238304.85,276.622,-698.559,0,0
238565.175,271.398,-695.152,0,0
238825.5,266.688,-690.757,0,0
239085.825,262.879,-685.732,0,0
239346.15,260.117,-680.48,0,0
239606.475,258.668,-675.303,0,0
239866.8,258.217,-670.906,0,0
240127.125,258.315,-667.519,0,0
240387.45,258.59,-665.145,0,0
240647.775,258.507,-663.8,0,0
240908.1,257.745,-662.921,0,0
241168.425,256.311,-662.162,0,0
241428.75,254.422,-661.296,0,0
241689.075,252.184,-660.253,0,0
241949.4,249.705,-659.089,0,0
242209.725,246.79,-657.693,0,0
242470.05,243.54,-655.738,0,0
242730.375,240.374,-652.988,0,0
242990.7,237.669,-649.689,0,0
243251.025,235.517,-646.274,0,0
243511.35,233.544,-642.803,0,0
243771.675,231.691,-639.095,0,0
244032.0,230.316,-634.985,0,0
244292.325,229.684,-630.667,0,0
244552.65,229.914,-626.59,0,0
244812.975,230.711,-623.086,0,0
245073.3,231.748,-620.37,0,0
245333.625,232.663,-618.249,0,0
245593.95,233.288,-616.503,0,0
245854.275,233.707,-614.952,0,0
246114.6,233.796,-613.557,0,0
246374.925,233.655,-612.111,0,0
246635.25,233.448,-610.613,0,0
246895.575,233.054,-609.022,0,0
247155.9,232.587,-607.364,0,0
247416.225,232.084,-605.449,0,0
247676.55,231.662,-603.338,0,0
247936.875,231.455,-601.136,0,0
248197.2,231.37,-598.978,0,0
248457.525,231.317,-596.757,0,0
248717.85,231.401,-594.47,0,0
248978.175,231.696,-592.136,0,0
249238.5,232.078,-589.833,0,0
249498.825,232.608,-587.53,0,0
249759.15,233.237,-585.182,0,0
250019.475,234.106,-582.807,0,0
250279.8,235.198,-580.428,0,0
250540,236.542,-578.237,0,0
250800,238.099,-576.164,0,0
251061,239.851,-574.254,0,0
251321,241.698,-572.544,0,0
251581,243.624,-570.971,0,0
251842,245.678,-569.379,0,0
252102,248.113,-567.969,0,0
252362,250.827,-566.865,0,0
252623,253.729,-566.246,0,0
252883,256.724,-566.051,0,0
253143,259.735,-566.325,0,0
253404,262.637,-567.133,0,0
253664,265.328,-568.395,0,0
253924,267.694,-570.095,0,0
254185,269.605,-572.153,0,0
254445,271.019,-574.385,0,0
254705,272.112,-576.64,0,0
254966,272.8,-578.97,0,0
255226,273.163,-581.304,0,0
255486,273.156,-583.622,0,0
255747,272.711,-585.874,0,0
256007,271.916,-587.866,0,0
256267,270.949,-589.633,0,0
256528,269.798,-591.152,0,0
256788,268.5,-592.508,0,0
257048,267.034,-593.679,0,0
257309,265.433,-594.524,0,0
257569,263.854,-595.036,0,0
257829,262.33,-595.296,0,0
258090,260.893,-595.357,0,0
258350,259.622,-595.184,0,0
258610,258.587,-594.946,0,0
258871,257.803,-594.722,0,0
259131,257.072,-594.665,0,0
259391,256.342,-594.826,0,0
259651,255.406,-595.071,0,0
259912,254.128,-595.178,0,0
260172,252.732,-595.096,0,0
260432,251.274,-594.579,0,0
260693,249.979,-593.811,0,0
260953,248.831,-592.839,0,0
261213,247.896,-591.715,0,0
261474,247.141,-590.475,0,0
261734,246.579,-589.097,0,0
261994,246.247,-587.529,0,0
262255,246.359,-585.855,0,0
262515,246.936,-584.26,0,0
262775,247.931,-582.915,0,0
263036,249.258,-581.895,0,0
263296,250.812,-581.311,0,0
263556,252.421,-581.275,0,0
263817,253.952,-581.584,0,0
264077,255.341,-582.283,0,0
264337,256.55,-583.359,0,0
264598,257.364,-584.683,0,0
264858,257.832,-586.153,0,0
265118,257.848,-587.65,0,0
265379,257.535,-588.992,0,0
265639,256.963,-590.054,0,0
265899,256.429,-590.794,0,0
266160,255.935,-591.406,0,0
266420,255.572,-591.88,0,0
266680.25,255.414,-592.337,0,0
266940.575,255.388,-593.014,0,0
267200.9,255.255,-593.917,0,0
267461.225,254.987,-594.897,0,0
267721.55,254.501,-595.897,0,0
267981.875,253.844,-596.902,0,0
268242.2,252.96,-597.757,0,0
268502.525,251.95,-598.353,0,0
268762.85,251.017,-598.744,0,0
269023.175,250.098,-598.869,0,0
269283.5,249.298,-598.796,0,0
269543.825,248.758,-598.532,0,0
269804.15,248.531,-598.176,0,0
270064.475,248.692,-597.746,0,0
270324.8,249.128,-597.502,0,0
270585.125,250.01,-597.413,0,0
270845.45,251.089,-597.657,0,0
271105.775,252.449,-598.175,0,0
271366.1,254.109,-598.958,0,0
271626.425,256.05,-600.282,0,0
271886.75,258.324,-602.359,0,0
272147.075,260.665,-605.407,0,0
272407.4,262.58,-609.518,0,0
272667.725,263.745,-614.628,0,0
272928.05,263.914,-620.39,0,0
273188.375,262.657,-626.494,0,0
273448.7,260.509,-632.37,0,0
273709.025,257.478,-638.106,0,0
273969.35,253.444,-643.551,0,0
274229.675,248.628,-648.45,0,0
274490.0,243.156,-652.8,0,0
274750.325,237.269,-656.602,0,0
275010.65,230.751,-659.918,0,0
275270.975,223.603,-662.568,0,0
275531.3,215.924,-664.233,0,0
275791.625,208.071,-664.724,0,0
276051.95,200.367,-664.199,0,0
276312.275,192.974,-662.853,0,0
276572.6,185.989,-660.833,0,0
276832.925,179.304,-658.238,0,0
277093.25,172.986,-655.095,0,0
277353.575,167.094,-651.327,0,0
277613.9,161.784,-647.098,0,0
277874.225,157.12,-642.439,0,0
278134.55,153.138,-637.613,0,0
278394.875,149.772,-632.744,0,0
278655.2,146.986,-627.86,0,0
278915.525,144.687,-623.099,0,0
279175.85,142.866,-618.549,0,0
279436.175,141.306,-614.184,0,0
279696.5,139.984,-609.88,0,0
279956.825,138.882,-605.735,0,0
280217.15,138.085,-601.6,0,0
280477.475,137.661,-597.604,0,0
280737.8,137.59,-593.921,0,0
280998.125,137.758,-590.635,0,0
281258.45,137.924,-587.809,0,0
281518.775,137.939,-585.308,0,0
281779.1,137.682,-582.99,0,0
282039.425,137.291,-580.655,0,0
282299.75,136.753,-578.3,0,0
282560,136.058,-575.871,0,0
282820,135.281,-573.285,0,0
283081,134.541,-570.439,0,0
283341,134.019,-567.366,0,0
283601,133.654,-564.182,0,0
283862,133.491,-560.927,0,0
284122,133.739,-557.7,0,0
284382,134.199,-554.41,0,0
284643,134.983,-551.273,0,0
284903,135.842,-548.358,0,0
285163,136.859,-545.673,0,0
285424,138.171,-543.207,0,0
285684,139.468,-540.85,0,0
285944,140.773,-538.818,0,0
286205,142.195,-536.833,0,0
286465,143.465,-535.195,0,0
286725,144.781,-533.66,0,0
286986,146.04,-532.334,0,0
287246,147.091,-531.263,0,0
287506,147.918,-530.239,0,0
287767,148.641,-529.158,0,0
288027,149.047,-528.054,0,0
288287,149.331,-526.753,0,0
288548,149.743,-525.362,0,0
288808,150.118,-523.821,0,0
289068,150.615,-522.148,0,0
289329,151.154,-520.469,0,0
289589,151.798,-518.768,0,0
289849,152.516,-516.965,0,0
290109,153.233,-515.295,0,0
290370,154.107,-513.37,0,0
290630,155.271,-511.363,0,0
290890,156.6,-509.581,0,0
291151,158.063,-507.877,0,0
291411,159.584,-506.51,0,0
291671,161.065,-505.237,0,0
291932,162.473,-503.972,0,0
292192,163.925,-502.776,0,0
292452,165.297,-501.463,0,0
292713,166.769,-500.251,0,0
292973,168.346,-499.085,0,0
293233,170.037,-498.064,0,0
293494,171.643,-497.05,0,0
293754,173.33,-496.077,0,0
294014,175.06,-495.147,0,0
294275,176.666,-494.351,0,0
294535,178.271,-493.423,0,0
294795,180.046,-492.561,0,0
295056,181.914,-491.634,0,0
295316,183.82,-490.781,0,0
295576,185.965,-490.089,0,0
295837,188.074,-489.459,0,0
296097,190.22,-488.967,0,0
296357,192.447,-488.393,0,0
296618,194.787,-488.006,0,0
296878,197.184,-487.654,0,0
297138,199.789,-487.514,0,0
297399,202.428,-487.417,0,0
297659,205.169,-487.651,0,0
297919,207.873,-488.02,0,0
298180,210.559,-488.658,0,0
298440,213.214,-489.427,0,0
298700.2,215.724,-490.306,0,0
298960.525,218.319,-491.198,0,0
299220.85,220.948,-492.175,0,0
299481.175,223.582,-493.282,0,0
299741.5,226.347,-494.596,0,0
300001.825,229.093,-496.097,0,0
300262.15,231.914,-497.756,0,0
300522.475,234.679,-499.678,0,0
300782.8,237.489,-501.645,0,0
301043.125,240.436,-504.032,0,0
301303.45,243.416,-506.648,0,0
301563.775,246.38,-509.677,0,0
301824.1,249.298,-513.139,0,0
302084.425,252.253,-517.23,0,0
302344.75,254.847,-521.846,0,0
302605.075,256.986,-527.184,0,0
302865.4,258.404,-532.933,0,0
303125.725,259.023,-539.02,0,0
303386.05,258.792,-545.191,0,0
303646.375,257.701,-551.169,0,0
303906.7,255.911,-556.809,0,0
304167.025,253.673,-562.022,0,0
304427.35,251.05,-566.852,0,0
304687.675,248.119,-571.312,0,0
304948.0,245.031,-575.378,0,0
305208.325,241.74,-579.162,0,0
305468.65,238.281,-582.691,0,0
305728.975,234.647,-585.986,0,0
305989.3,230.777,-589.005,0,0
306249.625,226.7,-591.681,0,0
306509.95,222.536,-593.968,0,0
306770.275,218.297,-595.893,0,0
307030.6,214.08,-597.475,0,0
307290.925,209.907,-598.767,0,0
307551.25,205.764,-599.805,0,0
307811.575,201.633,-600.612,0,0
308071.9,197.547,-601.194,0,0
308332.225,193.477,-601.516,0,0
308592.55,189.431,-601.552,0,0
308852.875,185.467,-601.374,0,0
309113.2,181.602,-600.902,0,0
309373.525,177.898,-600.16,0,0
309633.85,174.4,-599.193,0,0
309894.175,171.116,-598.064,0,0
310154.5,168.114,-596.805,0,0
310414.825,165.32,-595.514,0,0
310675.15,162.729,-594.251,0,0
310935.475,160.265,-592.967,0,0
311195.8,157.918,-591.69,0,0
311456.125,155.705,-590.437,0,0
311716.45,153.586,-589.194,0,0
311976.775,151.539,-588.009,0,0
312237.1,149.524,-586.813,0,0
312497.425,147.527,-585.644,0,0
312757.75,145.546,-584.449,0,0
313018.075,143.572,-583.234,0,0
313278.4,141.61,-581.96,0,0
313538.725,139.692,-580.632,0,0
313799.05,137.775,-579.212,0,0
314059.375,135.932,-577.693,0,0
314319.7,134.151,-576.08,0,0
314580,132.516,-574.381,0,0
314840,131.027,-572.598,0,0
315101,129.727,-570.769,0,0
315361,128.504,-568.924,0,0
315621,127.478,-567.101,0,0
315882,126.633,-565.415,0,0
316142,125.808,-563.787,0,0
316402,125.25,-562.21,0,0
316663,124.584,-560.766,0,0
316923,124.027,-559.409,0,0
317183,123.449,-558.081,0,0
317444,122.9,-556.832,0,0
317704,122.376,-555.626,0,0
317964,121.861,-554.499,0,0
318225,121.232,-553.39,0,0
318485,120.751,-552.307,0,0
318745,120.269,-551.215,0,0
319006,119.698,-550.081,0,0
319266,119.29,-549.055,0,0
319526,118.871,-547.995,0,0
319787,118.519,-547.035,0,0
320047,118.158,-546.183,0,0
320307,117.787,-545.284,0,0
320567,117.358,-544.545,0,0
320828,116.976,-543.785,0,0
321088,116.463,-543.015,0,0
321348,116.033,-542.28,0,0
321609,115.533,-541.503,0,0
321869,115.091,-540.797,0,0
322129,114.571,-540.044,0,0
322390,114.061,-539.345,0,0
322650,113.655,-538.658,0,0
322910,113.124,-537.973,0,0
323171,112.628,-537.277,0,0
323431,112.121,-536.649,0,0
323691,111.566,-536.07,0,0
323952,110.963,-535.356,0,0
324212,110.36,-534.686,0,0
324472,109.804,-533.898,0,0
324733,109.216,-533.161,0,0
324993,108.73,-532.342,0,0
325253,108.306,-531.495,0,0
325514,107.792,-530.702,0,0
325774,107.514,-530,0,0
326034,107.163,-529.384,0,0
326295,106.847,-528.726,0,0
326555,106.537,-528.27,0,0
326815,106.162,-527.674,0,0
327076,105.756,-527.248,0,0
327336,105.294,-526.837,0,0
327596,104.783,-526.397,0,0
327857,104.239,-526.021,0,0
328117,103.615,-525.626,0,0
328377,102.997,-525.142,0,0
328638,102.378,-524.68,0,0
328898,101.672,-524.173,0,0
329158,100.993,-523.613,0,0
329419,100.318,-523.173,0,0
329679,99.6933,-522.647,0,0
329939,99.0303,-522.087,0,0
330200,98.281,-521.491,0,0
330460,97.6335,-521.07,0,0
330720.15,96.917,-520.468,0,0
330980.475,96.1921,-519.952,0,0
331240.8,95.558,-519.493,0,0
331501.125,94.8019,-518.909,0,0
331761.45,93.9555,-518.482,0,0
332021.775,93.1904,-517.937,0,0
332282.1,92.2639,-517.413,0,0
332542.425,91.3875,-516.861,0,0
332802.75,90.4414,-516.287,0,0
333063.075,89.5058,-515.676,0,0
333323.4,88.5158,-515.018,0,0
333583.725,87.4457,-514.317,0,0
333844.05,86.4439,-513.534,0,0
334104.375,85.4256,-512.654,0,0
334364.7,84.4109,-511.795,0,0
334625.025,83.4877,-510.871,0,0
334885.35,82.4758,-509.937,0,0
335145.675,81.5747,-508.957,0,0
335406.0,80.6542,-507.887,0,0
335666.325,79.7565,-506.824,0,0
335926.65,78.8148,-505.837,0,0
336186.975,77.9345,-504.698,0,0
336447.3,77.0866,-503.555,0,0
336707.625,76.2424,-502.373,0,0
336967.95,75.4154,-501.148,0,0
337228.275,74.6142,-499.895,0,0
337488.6,73.9229,-498.573,0,0
337748.925,73.2478,-497.324,0,0
338009.25,72.5867,-496.003,0,0
338269.575,71.984,-494.729,0,0
338529.9,71.3596,-493.433,0,0
338790.225,70.8023,-492.161,0,0
339050.55,70.2787,-490.884,0,0
339310.875,69.7023,-489.506,0,0
339571.2,69.2295,-488.176,0,0
339831.525,68.7688,-486.847,0,0
340091.85,68.3362,-485.522,0,0
340352.175,67.8962,-484.148,0,0
340612.5,67.4989,-482.821,0,0
340872.825,67.1073,-481.418,0,0
341133.15,66.7614,-480.012,0,0
341393.475,66.546,-478.568,0,0
341653.8,66.3071,-477.17,0,0
341914.125,66.0578,-475.762,0,0
342174.45,65.9067,-474.455,0,0
342434.775,65.8262,-472.984,0,0
342695.1,65.6969,-471.642,0,0
342955.425,65.6894,-470.288,0,0
343215.75,65.68,-468.913,0,0
343476.075,65.7636,-467.654,0,0
343736.4,65.8627,-466.368,0,0
343996.725,66.0076,-465.087,0,0
344257.05,66.15,-463.883,0,0
344517.375,66.3453,-462.726,0,0
344777.7,66.4917,-461.626,0,0
345038.025,66.7443,-460.596,0,0
345298.35,66.8988,-459.55,0,0
345558.675,67.1027,-458.594,0,0
345819.0,67.3638,-457.698,0,0
346079.325,67.537,-456.817,0,0
346339.65,67.6194,-455.99,0,0
346599.975,67.7366,-455.211,0,0
346860,67.8041,-454.437,0,0
347121,67.8526,-453.705,0,0
347381,67.7896,-452.909,0,0
347641,67.755,-452.186,0,0
347902,67.6571,-451.352,0,0
348162,67.4725,-450.585,0,0
348422,67.3269,-449.745,0,0
348683,67.073,-448.9,0,0
348943,66.918,-447.902,0,0
349203,66.7267,-446.934,0,0
349464,66.592,-445.913,0,0
349724,66.47,-444.875,0,0
349984,66.3046,-443.794,0,0
350245,66.1776,-442.759,0,0
350505,66.1143,-441.65,0,0
350765,65.9646,-440.546,0,0
351025,65.8733,-439.296,0,0
351286,65.8749,-438.126,0,0
351546,65.9285,-436.842,0,0
351806,66.0623,-435.543,0,0
352067,66.2255,-434.276,0,0
352327,66.5303,-433.049,0,0
352587,66.866,-431.868,0,0
352848,67.2809,-430.692,0,0
353108,67.6484,-429.584,0,0
353368,68.1424,-428.512,0,0
353629,68.6256,-427.546,0,0
353889,69.0986,-426.542,0,0
354149,69.6649,-425.631,0,0
354410,70.1577,-424.87,0,0
354670,70.6508,-424.076,0,0
354930,71.1851,-423.313,0,0
355191,71.7215,-422.612,0,0
355451,72.255,-421.969,0,0
355711,72.7298,-421.431,0,0
355972,73.2043,-420.989,0,0
356232,73.5965,-420.561,0,0
356492,73.8918,-420.229,0,0
356753,74.0895,-419.839,0,0
357013,74.1445,-419.489,0,0
357273,74.1883,-419.097,0,0
357534,74.1538,-418.643,0,0
357794,74.0316,-418.156,0,0
358054,73.8911,-417.61,0,0
358315,73.6882,-416.953,0,0
358575,73.505,-416.238,0,0
358835,73.3286,-415.425,0,0
359096,73.1744,-414.541,0,0
359356,73.0312,-413.627,0,0
359616,73,-412.573,0,0
359877,72.9653,-411.56,0,0
360137,73.0329,-410.505,0,0
360397,73.1627,-409.376,0,0
360658,73.3509,-408.347,0,0
360918,73.5216,-407.196,0,0
361178,73.8094,-406.108,0,0
361438,74.162,-405.047,0,0
361699,74.5486,-404.004,0,0
361959,74.9497,-402.946,0,0
362219,75.4829,-401.992,0,0
362480,75.9926,-401.059,0,0
362740.1,76.477,-400.168,0,0
363000.425,77.0236,-399.256,0,0
363260.75,77.5644,-398.397,0,0
363521.075,78.1065,-397.569,0,0
363781.4,78.6541,-396.713,0,0
364041.725,79.2436,-395.932,0,0
364302.05,79.8543,-395.151,0,0
364562.375,80.5175,-394.308,0,0
364822.7,81.1909,-393.554,0,0
365083.025,81.9283,-392.864,0,0
365343.35,82.6838,-392.226,0,0
365603.675,83.4998,-391.674,0,0
365864.0,84.2633,-391.206,0,0
366124.325,84.9538,-390.805,0,0
366384.65,85.6557,-390.48,0,0
366644.975,86.2615,-390.158,0,0
366905.3,86.8499,-389.84,0,0
367165.625,87.3675,-389.458,0,0
367425.95,87.8915,-389.149,0,0
367686.275,88.4623,-388.792,0,0
367946.6,89.0099,-388.534,0,0
368206.925,89.555,-388.246,0,0
368467.25,90.0759,-387.991,0,0
368727.575,90.5539,-387.766,0,0
368987.9,91.0607,-387.585,0,0
369248.225,91.5698,-387.411,0,0
369508.55,92.0538,-387.311,0,0
369768.875,92.4942,-387.254,0,0
370029.2,92.8928,-387.271,0,0
370289.525,93.168,-387.292,0,0
370549.85,93.3557,-387.37,0,0
370810.175,93.3825,-387.462,0,0
371070.5,93.3643,-387.481,0,0
371330.825,93.2285,-387.372,0,0
371591.15,93.0636,-387.215,0,0
371851.475,92.7948,-386.951,0,0
372111.8,92.5655,-386.593,0,0
372372.125,92.3239,-386.082,0,0
372632.45,92.1453,-385.493,0,0
372892.775,92.0647,-384.882,0,0
373153.1,92.0114,-384.204,0,0
373413.425,92.0085,-383.49,0,0
373673.75,92.1,-382.791,0,0
373934.075,92.2169,-382.029,0,0
374194.4,92.4319,-381.343,0,0
374454.725,92.6804,-380.67,0,0
374715.05,92.9079,-380.022,0,0
374975.375,93.2244,-379.38,0,0
375235.7,93.4993,-378.8,0,0
375496.025,93.7731,-378.17,0,0
375756.35,94.1277,-377.609,0,0
376016.675,94.4649,-377.116,0,0
376277.0,94.7652,-376.666,0,0
376537.325,94.9938,-376.202,0,0
376797.65,95.1759,-375.72,0,0
377057.975,95.3283,-375.188,0,0
377318.3,95.4798,-374.608,0,0
377578.625,95.6368,-373.988,0,0
377838.95,95.8025,-373.328,0,0
378099.275,96.0031,-372.596,0,0
378359.6,96.3353,-371.849,0,0
378619.925,96.6453,-371.119,0,0
378880,96.9992,-370.393,0,0
379141,97.4394,-369.717,0,0
379401,97.8992,-368.993,0,0
379661,98.4028,-368.333,0,0
379922,98.9292,-367.733,0,0
380182,99.4088,-367.157,0,0
380442,99.8942,-366.584,0,0
380703,100.427,-366.078,0,0
380963,100.894,-365.5,0,0
381223,101.389,-364.956,0,0
381483,101.913,-364.436,0,0
381744,102.374,-363.914,0,0
382004,102.839,-363.389,0,0
382264,103.348,-362.803,0,0
382525,103.854,-362.25,0,0
382785,104.443,-361.707,0,0
383045,105.046,-361.177,0,0
383306,105.577,-360.7,0,0
383566,106.185,-360.17,0,0
383826,106.834,-359.708,0,0
384087,107.401,-359.212,0,0
384347,108.081,-358.725,0,0
384607,108.722,-358.348,0,0
384868,109.384,-358,0,0
385128,110.007,-357.648,0,0
385388,110.597,-357.355,0,0
385649,111.132,-357.052,0,0
385909,111.614,-356.702,0,0
386169,112.15,-356.324,0,0
386430,112.691,-355.909,0,0
386690,113.305,-355.467,0,0
386950,113.87,-355.098,0,0
387211,114.447,-354.681,0,0
387471,115.006,-354.339,0,0
387731,115.516,-353.93,0,0
387992,116.056,-353.434,0,0
388252,116.648,-352.96,0,0
388512,117.259,-352.403,0,0
388773,117.934,-351.797,0,0
389033,118.701,-351.18,0,0
389293,119.623,-350.622,0,0
389554,120.581,-350.107,0,0
389814,121.559,-349.674,0,0
390074,122.628,-349.328,0,0
390335,123.706,-349.077,0,0
390595,124.734,-348.916,0,0
390855,125.744,-348.764,0,0
391116,126.714,-348.716,0,0
391376,127.633,-348.67,0,0
391636,128.553,-348.631,0,0
391896,129.43,-348.625,0,0
392157,130.308,-348.569,0,0
392417,131.131,-348.565,0,0
392677,131.975,-348.536,0,0
392938,132.849,-348.513,0,0
393198,133.644,-348.529,0,0
393458,134.483,-348.538,0,0
393719,135.264,-348.493,0,0
393979,136.034,-348.395,0,0
394239,136.861,-348.301,0,0
394500,137.713,-348.139,0,0
394760.05,138.577,-347.957,0,0
395020.375,139.581,-347.772,0,0
395280.7,140.626,-347.57,0,0
395541.025,141.772,-347.426,0,0
395801.35,142.989,-347.276,0,0
396061.675,144.276,-347.171,0,0
396322.0,145.667,-347.11,0,0
396582.325,147.178,-347.134,0,0
396842.65,148.778,-347.252,0,0
397102.975,150.407,-347.542,0,0
397363.3,152.127,-347.918,0,0
397623.625,153.839,-348.417,0,0
397883.95,155.632,-349.067,0,0
398144.275,157.422,-349.944,0,0
398404.6,159.191,-350.952,0,0
398664.925,160.957,-352.113,0,0
398925.25,162.709,-353.496,0,0
399185.575,164.345,-355.075,0,0
399445.9,165.897,-356.835,0,0
399706.225,167.368,-358.834,0,0
399966.55,168.562,-361.001,0,0
400006.6,168.699,-361.33,0,0