File: Accelerated corrosion test data/2025-10-17_06-00-03/sample_8.csv
Frequency (Hz),Impedance (ohms),Phase (Radians),Temperature (C),Humidity (%)
10000.0,309.88,-10972.6,0,0
10260.325,301.8,-10697.5,0,0
10520.65,294.675,-10436,0,0
10780.975,287.23,-10187.2,0,0
11041.3,280.544,-9949.66,0,0
11301.625,274.55,-9723.93,0,0
11561.95,268.635,-9507.17,0,0
11822.275,262.715,-9299.85,0,0
12082.6,260.586,-9100.36,0,0
12342.925,257.331,-8913.85,0,0
12603.25,252.326,-8732.31,0,0
12863.575,248.945,-8561.63,0,0
13123.9,240.61,-8396.56,0,0
13384.225,234.764,-8234.8,0,0
13644.55,231.647,-8080.37,0,0
13904.875,224.016,-7931.22,0,0
14165.2,219.537,-7786.62,0,0
14425.525,214.833,-7647.8,0,0
14685.8,210.67,-7512.05,0,0
14946.175,207.208,-7382.8,0,0
15206.5,204.316,-7257.31,0,0
15466.825,200.749,-7137.09,0,0
15727.15,197.164,-7020.02,0,0
15987.5,194.069,-6906.69,0,0
16247.8,191.166,-6797.13,0,0
16508.125,188.171,-6690.94,0,0
16768.45,184.909,-6588.18,0,0
17028.775,182.152,-6488.23,0,0
17289.1,179.445,-6390.74,0,0
17549.425,176.415,-6296.34,0,0
17809.75,174.745,-6204.8,0,0
18070.075,172.841,-6116.43,0,0
18330.4,169.75,-6029,0,0
18590.725,167.719,-5943.98,0,0
18851.05,168.379,-5860.99,0,0
19111.375,166.708,-5781.71,0,0
19371.7,168.384,-5706.38,0,0
19632.025,165.93,-5633.37,0,0
19892.35,162.429,-5562.69,0,0
20152.675,159.549,-5489.96,0,0
20413.0,159.869,-5419.91,0,0
20673.3,160.15,-5352.89,0,0
20933.65,156.782,-5290.21,0,0
21193.975,153.024,-5226.65,0,0
21454.3,150.744,-5162.16,0,0
21714.625,149.133,-5099.83,0,0
21974.9,148.58,-5039.84,0,0
22235.275,148.485,-4981.95,0,0
22495.6,147.288,-4925.82,0,0
22755.925,145.35,-4871.24,0,0
23016.25,143.588,-4817.12,0,0
23276.6,139.581,-4764.75,0,0
23536.9,136.892,-4711.18,0,0
23797.225,135.207,-4660.07,0,0
24057.55,133.076,-4609.05,0,0
24317.875,131.907,-4560.21,0,0
24578.2,129.815,-4511.88,0,0
24838.525,128.502,-4464.08,0,0
25098.85,126.83,-4417.43,0,0
25359.175,125.484,-4371.88,0,0
25619.5,125.229,-4327.63,0,0
25879.8,123.87,-4282.93,0,0
26140.1,123.194,-4240.72,0,0
26400.5,121.488,-4198.79,0,0
26660.8,119.779,-4157.43,0,0
26921.1,120.262,-4116.29,0,0
27181.4,119.692,-4077.31,0,0
27441.8,118.754,-4038.24,0,0
27702.1,118.182,-4001.22,0,0
27962.4,116.061,-3963.87,0,0
28222.7,116.924,-3926.7,0,0
28483.1,115.488,-3890.82,0,0
28743.4,115.357,-3855.75,0,0
29003.7,114.269,-3820.87,0,0
29264,114.37,-3787.07,0,0
29524.4,113.505,-3753.53,0,0
29784.7,113,-3720.02,0,0
30045,112.398,-3688.8,0,0
30305.3,111.593,-3657.81,0,0
30565.7,110.109,-3626.69,0,0
30826,108.937,-3596,0,0
31086.3,108.1,-3565.72,0,0
31346.6,106.731,-3535.19,0,0
31607,106.697,-3505.96,0,0
31867.3,105.7,-3476.62,0,0
32127.6,105.066,-3447.99,0,0
32387.9,104.746,-3419.58,0,0
32648.3,104.832,-3391.45,0,0
32908.6,105.074,-3364.42,0,0
33168.9,104.588,-3337.46,0,0
33429.2,104.698,-3311.16,0,0
33689.6,105.439,-3285.54,0,0
33949.9,105.512,-3259.91,0,0
34210.2,105.73,-3235.52,0,0
34470.5,105.772,-3210.83,0,0
34730.9,105.864,-3186.49,0,0
34991.2,106.783,-3162.86,0,0
35251.5,107.697,-3140.04,0,0
35511.8,108.388,-3117.99,0,0
35772.2,108.796,-3096.32,0,0
36032.5,108.929,-3075.86,0,0
36292.8,108.827,-3054.92,0,0
36553.1,108.423,-3035,0,0
36813.5,107.171,-3015.19,0,0
37073.8,106.981,-2995.47,0,0
37334.1,105.598,-2976.28,0,0
37594.4,103.893,-2957.06,0,0
37854.8,101.823,-2937.6,0,0
38115.1,99.8536,-2918.41,0,0
38375.4,97.6011,-2898.85,0,0
38635.7,95.8113,-2879.42,0,0
38896.1,93.9477,-2860.1,0,0
39156.4,91.8936,-2840.61,0,0
39416.7,90.6537,-2820.93,0,0
39677,89.416,-2802.04,0,0
39937.4,87.7745,-2782.82,0,0
40197.7,87.159,-2763.31,0,0
40458,87.1123,-2744.86,0,0
40718.3,86.8683,-2727.3,0,0
40978.7,85.6254,-2709.88,0,0
41239,85.231,-2692.22,0,0
41499.3,84.478,-2674.88,0,0
41759.6,84.1595,-2657.92,0,0
42020,83.3461,-2641.11,0,0
42280.275,82.3762,-2623.95,0,0
42540.6,82.2277,-2607.21,0,0
42800.925,81.5006,-2590.79,0,0
43061.25,82.0286,-2574.46,0,0
43321.575,82.1149,-2559.1,0,0
43581.9,82.0565,-2544.18,0,0
43842.225,81.4361,-2529.45,0,0
44102.55,80.1298,-2514.58,0,0
44362.875,79.4112,-2499.3,0,0
44623.2,78.549,-2484.77,0,0
44883.525,77.9212,-2469.79,0,0
45143.85,77.3609,-2455.16,0,0
45404.175,76.6683,-2440.54,0,0
45664.5,76.2607,-2426.29,0,0
45924.825,75.8429,-2412.23,0,0
46185.15,74.9494,-2397.91,0,0
46445.475,74.5924,-2384.03,0,0
46705.8,74.095,-2370.23,0,0
46966.125,73.6046,-2356.43,0,0
47226.45,73.342,-2343.11,0,0
47486.775,72.9078,-2329.77,0,0
47747.1,72.7166,-2316.7,0,0
48007.425,72.3339,-2303.67,0,0
48267.75,72.0147,-2290.75,0,0
48528.075,71.6866,-2278.18,0,0
48788.4,71.2353,-2265.88,0,0
49048.725,70.6608,-2253.2,0,0
49309.05,70.1718,-2240.9,0,0
49569.375,69.7475,-2228.52,0,0
49829.7,69.3704,-2216.43,0,0
50090.025,69.126,-2204.31,0,0
50350.35,68.7975,-2192.31,0,0
50610.675,68.5148,-2180.45,0,0
50871.0,68.1415,-2168.76,0,0
51131.325,68.0526,-2157.17,0,0
51391.65,67.7978,-2145.51,0,0
51651.975,67.8164,-2134.18,0,0
51912.3,67.5936,-2123.15,0,0
52172.625,67.4863,-2112.09,0,0
52432.95,67.2934,-2101.16,0,0
52693.275,67.1911,-2090.22,0,0
52953.6,67.328,-2079.55,0,0
53213.925,67.2634,-2069.02,0,0
53474.25,67.4149,-2058.74,0,0
53734.575,67.6174,-2048.91,0,0
53994.9,67.0779,-2039.38,0,0
54255.225,66.1828,-2029.55,0,0
54515.55,65.6974,-2019.55,0,0
54775.875,65.0973,-2009.46,0,0
55036.2,64.7,-1999.86,0,0
55296.525,63.8582,-1990.07,0,0
55556.85,63.2362,-1980.13,0,0
55817.175,62.7647,-1970.25,0,0
56077.5,62.1972,-1960.49,0,0
56337.825,61.673,-1950.57,0,0
56598.15,61.3089,-1940.9,0,0
56858.475,61.0506,-1931.21,0,0
57118.8,60.9065,-1921.72,0,0
57379.125,60.6919,-1912.21,0,0
57639.45,60.4718,-1902.97,0,0
57899.775,60.2082,-1893.84,0,0
58160.1,60.1145,-1884.63,0,0
58420.4,60.0447,-1875.57,0,0
58680.7,59.8684,-1866.67,0,0
58941.1,59.8678,-1857.92,0,0
59201.4,59.7832,-1849.41,0,0
59461.7,59.4961,-1840.77,0,0
59722,59.2555,-1832.25,0,0
59982.4,58.8933,-1823.7,0,0
60242.7,58.5665,-1815.16,0,0
60503,58.2254,-1806.64,0,0
60763.3,58.1126,-1798.12,0,0
61023.7,58.0675,-1789.66,0,0
61284,57.967,-1781.34,0,0
61544.3,58.0261,-1773.12,0,0
61804.6,58.0427,-1765.21,0,0
62065,57.7493,-1757.11,0,0
62325.3,57.6326,-1749.17,0,0
62585.6,57.5811,-1741.08,0,0
62845.9,57.4974,-1732.95,0,0
63106.3,57.7419,-1725.19,0,0
63366.6,58.0189,-1717.5,0,0
63626.9,58.0898,-1709.98,0,0
63887.2,58.1897,-1702.54,0,0
64147.6,58.4859,-1695.03,0,0
64407.9,58.635,-1688.04,0,0
64668.2,58.6788,-1681.05,0,0
64928.5,58.4921,-1674.05,0,0
65188.9,58.4283,-1667.07,0,0
65449.2,58.1939,-1660.22,0,0
65709.5,57.8694,-1652.98,0,0
65969.8,57.8406,-1646.25,0,0
66230.2,57.5293,-1639.59,0,0
66490.5,57.0297,-1632.9,0,0
66750.8,56.3926,-1625.83,0,0
67011.1,56.0322,-1618.68,0,0
67271.5,55.7602,-1611.67,0,0
67531.8,55.6337,-1604.8,0,0
67792.1,55.4472,-1597.93,0,0
68052.4,55.2854,-1591.21,0,0
68312.8,55.1799,-1584.52,0,0
68573.1,54.8919,-1577.82,0,0
68833.4,54.7009,-1571.05,0,0
69093.7,54.6121,-1564.3,0,0
69354.1,54.5438,-1557.69,0,0
69614.4,54.5842,-1551.04,0,0
69874.7,54.6711,-1544.62,0,0
70135,54.6815,-1538.3,0,0
70395.4,54.5908,-1531.94,0,0
70655.7,54.5018,-1525.63,0,0
70916,54.5346,-1519.36,0,0
71176.3,54.5996,-1513.07,0,0
71436.7,54.5466,-1506.88,0,0
71697,54.8655,-1500.74,0,0
71957.3,54.8895,-1494.93,0,0
72217.6,54.8718,-1489.14,0,0
72478,54.7707,-1483.29,0,0
72738.3,54.6091,-1477.48,0,0
72998.6,54.3853,-1471.75,0,0
73258.9,54.0991,-1465.87,0,0
73519.3,54.1178,-1459.93,0,0
73779.6,54.0667,-1454.24,0,0
74039.9,53.9473,-1448.5,0,0
74300.225,53.6683,-1443,0,0
74560.55,53.485,-1437.24,0,0
74820.875,53.306,-1431.45,0,0
75081.2,53.196,-1425.74,0,0
75341.525,53.0949,-1420.04,0,0
75601.85,53.0561,-1414.42,0,0
75862.175,52.9288,-1408.81,0,0
76122.5,52.9486,-1403.18,0,0
76382.825,52.9409,-1397.74,0,0
76643.15,52.9579,-1392.3,0,0
76903.475,52.9267,-1386.98,0,0
77163.8,52.7911,-1381.63,0,0
77424.125,52.6756,-1376.3,0,0
77684.45,52.5769,-1370.96,0,0
77944.775,52.4763,-1365.71,0,0
78205.1,52.3609,-1360.4,0,0
78465.425,52.2234,-1355.24,0,0
78725.75,52.0122,-1349.94,0,0
78986.075,51.9657,-1344.62,0,0
79246.4,51.8469,-1339.44,0,0
79506.725,51.677,-1334.23,0,0
79767.05,51.5979,-1328.91,0,0
80027.375,51.5767,-1323.67,0,0
80287.7,51.5151,-1318.53,0,0
80548.025,51.4899,-1313.37,0,0
80808.35,51.4789,-1308.23,0,0
81068.675,51.4028,-1303.05,0,0
81329.0,51.4808,-1297.9,0,0
81589.325,51.5513,-1292.78,0,0
81849.65,51.665,-1287.65,0,0
82109.975,51.8862,-1282.54,0,0
82370.3,52.1512,-1277.68,0,0
82630.625,52.2214,-1272.72,0,0
82890.95,52.4645,-1267.85,0,0
83151.275,52.7184,-1263.04,0,0
83411.6,52.8161,-1258.2,0,0
83671.925,53.0259,-1253.28,0,0
83932.25,53.3976,-1248.52,0,0
84192.575,53.6789,-1243.96,0,0
84452.9,53.9797,-1239.32,0,0
84713.225,54.4695,-1234.73,0,0
84973.55,54.9088,-1230.53,0,0
85233.875,54.8933,-1226.55,0,0
85494.2,54.6471,-1222.32,0,0
85754.525,54.3927,-1217.84,0,0
86014.85,54.1401,-1213.26,0,0
86275.175,53.9956,-1208.65,0,0
86535.5,53.9169,-1203.93,0,0
86795.825,54.0293,-1199.2,0,0
87056.15,54.2604,-1194.53,0,0
87316.475,54.5676,-1190.1,0,0
87576.8,54.5802,-1185.65,0,0
87837.125,54.717,-1181.2,0,0
88097.45,54.832,-1176.7,0,0
88357.775,55.0619,-1172.23,0,0
88618.1,55.1578,-1167.78,0,0
88878.425,55.3327,-1163.38,0,0
89138.75,55.4146,-1158.87,0,0
89399.075,55.5405,-1154.37,0,0
89659.4,55.7906,-1149.77,0,0
89919.725,56.115,-1145.11,0,0
90180,56.5738,-1140.62,0,0
90440.4,56.9921,-1136.18,0,0
90700.7,57.4264,-1131.7,0,0
90961,58.0638,-1127.1,0,0
91221.3,58.8798,-1122.62,0,0
91481.7,59.9135,-1118.42,0,0
91742,60.7821,-1114.5,0,0
92002.3,61.6741,-1110.64,0,0
92262.6,62.3428,-1106.84,0,0
92523,63.2064,-1103.1,0,0
92783.3,63.8577,-1099.43,0,0
93043.6,64.7268,-1095.89,0,0
93303.9,65.3526,-1092.75,0,0
93564.3,65.5827,-1089.59,0,0
93824.6,65.5284,-1086.31,0,0
94084.9,65.2592,-1082.62,0,0
94345.2,65.4351,-1078.8,0,0
94605.6,65.3312,-1074.82,0,0
94865.9,65.7031,-1070.73,0,0
95126.2,66.0091,-1066.95,0,0
95386.5,66.2938,-1062.91,0,0
95646.9,66.8706,-1058.99,0,0
95907.2,67.2245,-1055.1,0,0
96167.5,67.7617,-1051.16,0,0
96427.8,68.2138,-1047.11,0,0
96688.2,69.1829,-1043.09,0,0
96948.5,70.0742,-1039.41,0,0
97208.8,70.9174,-1035.74,0,0
97469.1,71.771,-1032.08,0,0
97729.5,72.7199,-1028.5,0,0
97989.8,73.7489,-1024.93,0,0
98250.1,74.804,-1021.58,0,0
98510.4,75.8606,-1018.25,0,0
98770.8,77.0768,-1015,0,0
99031.1,78.3303,-1012.07,0,0
99291.4,79.346,-1009.46,0,0
99551.7,80.0675,-1006.74,0,0
99812.1,80.7362,-1003.85,0,0
100072,81.5418,-1001.01,0,0
100333,82.4731,-998.182,0,0
100593,83.3097,-995.568,0,0
100853,84.1632,-993.023,0,0
101114,84.9431,-990.671,0,0
101374,85.5102,-988.326,0,0
101634,86.0848,-986.025,0,0
101895,86.5544,-983.863,0,0
102155,86.8269,-981.664,0,0
102415,87.0417,-979.443,0,0
102676,87.2375,-977.251,0,0
102936,87.2644,-975.147,0,0
103196,87.0019,-973.019,0,0
103457,86.5244,-970.631,0,0
103717,86.1754,-967.951,0,0
103977,85.9966,-965.189,0,0
104238,85.9108,-962.462,0,0
104498,85.9233,-959.881,0,0
104758,85.7096,-957.364,0,0
105019,85.4078,-954.772,0,0
105279,85.0558,-951.97,0,0
105539,84.7832,-949.097,0,0
105800,84.5962,-946.171,0,0
106060,84.5141,-943.21,0,0
106320.175,84.5248,-940.291,0,0
106580.5,84.4854,-937.4,0,0
106840.825,84.5999,-934.545,0,0
107101.15,84.7428,-931.778,0,0
107361.475,84.824,-929.174,0,0
107621.8,84.7984,-926.629,0,0
107882.125,84.5208,-923.953,0,0
108142.45,84.273,-921.105,0,0
108402.775,84.1515,-918.137,0,0
108663.1,84.1591,-915.154,0,0
108923.425,84.194,-912.265,0,0
109183.75,84.2955,-909.278,0,0
109444.075,84.5451,-906.36,0,0
109704.4,84.7953,-903.565,0,0
109964.725,85.0836,-900.777,0,0
110225.05,85.3986,-898.191,0,0
110485.375,85.5732,-895.617,0,0
110745.7,85.8364,-893.058,0,0
111006.025,85.911,-890.581,0,0
111266.35,85.8793,-887.971,0,0
111526.675,86.0006,-885.3,0,0
111787.0,86.2582,-882.818,0,0
112047.325,86.4989,-880.308,0,0
112307.65,86.6182,-877.875,0,0
112567.975,86.7006,-875.468,0,0
112828.3,86.739,-873.021,0,0
113088.625,86.8237,-870.611,0,0
113348.95,86.8618,-868.238,0,0
113609.275,86.8801,-865.873,0,0
113869.6,86.832,-863.603,0,0
114129.925,86.6594,-861.231,0,0
114390.25,86.5007,-858.75,0,0
114650.575,86.3988,-856.26,0,0
114910.9,86.3197,-853.824,0,0
115171.225,86.2661,-851.343,0,0
115431.55,86.3125,-849.019,0,0
115691.875,86.1754,-846.835,0,0
115952.2,85.8203,-844.56,0,0
116212.525,85.4072,-842.162,0,0
116472.85,84.9439,-839.641,0,0
116733.175,84.5073,-836.956,0,0
116993.5,84.2265,-834.129,0,0
117253.825,84.1259,-831.29,0,0
117514.15,84.1724,-828.607,0,0
117774.475,84.2269,-826.048,0,0
118034.8,84.1834,-823.583,0,0
118295.125,84.0765,-821.094,0,0
118555.45,83.8982,-818.599,0,0
118815.775,83.7689,-816.018,0,0
119076.1,83.6952,-813.482,0,0
119336.425,83.6342,-811.115,0,0
119596.75,83.3329,-808.696,0,0
119857.075,83.066,-806.125,0,0
120117.4,82.7895,-803.598,0,0
120377.725,82.5304,-800.934,0,0
120638.05,82.2486,-798.26,0,0
120898.375,82.0752,-795.511,0,0
121158.7,81.9807,-792.831,0,0
121419.025,81.8864,-790.188,0,0
121679.35,81.7073,-787.542,0,0
121939.675,81.5734,-784.857,0,0
122200.0,81.4721,-782.156,0,0
122460,81.4426,-779.517,0,0
122721,81.3577,-776.951,0,0
122981,81.2032,-774.337,0,0
123241,81.0078,-771.688,0,0
123502,80.8212,-768.987,0,0
123762,80.6639,-766.237,0,0
124022,80.5453,-763.434,0,0
124283,80.4795,-760.632,0,0
124543,80.4645,-757.84,0,0
124803,80.4478,-755.082,0,0
125064,80.4623,-752.345,0,0
125324,80.4567,-749.626,0,0
125584,80.4212,-746.858,0,0
125845,80.3989,-744.086,0,0
126105,80.39,-741.259,0,0
126365,80.4536,-738.407,0,0
126626,80.581,-735.542,0,0
126886,80.7605,-732.714,0,0
127146,81.0048,-729.977,0,0
127406,81.1584,-727.289,0,0
127667,81.2995,-724.542,0,0
127927,81.4823,-721.743,0,0
128187,81.7326,-719.029,0,0
128448,81.9179,-716.355,0,0
128708,82.1133,-713.683,0,0
128968,82.3372,-710.95,0,0
129229,82.6484,-708.234,0,0
129489,82.9202,-705.667,0,0
129749,83.0897,-703.097,0,0
130010,83.1796,-700.482,0,0
130270,83.2682,-697.704,0,0
130530,83.4908,-694.855,0,0
130791,83.8593,-692.077,0,0
131051,84.2653,-689.365,0,0
131311,84.6859,-686.728,0,0
131572,85.1248,-684.233,0,0
131832,85.3705,-681.827,0,0
132092,85.5487,-679.305,0,0
132353,85.771,-676.792,0,0
132613,85.933,-674.238,0,0
132873,86.0839,-671.686,0,0
133134,86.1862,-669.117,0,0
133394,86.2409,-666.451,0,0
133654,86.3158,-663.698,0,0
133915,86.4716,-660.874,0,0
134175,86.7058,-658.031,0,0
134435,87.0063,-655.216,0,0
134696,87.2722,-652.419,0,0
134956,87.5816,-649.488,0,0
135216,88.1224,-646.586,0,0
135477,88.6743,-643.845,0,0
135737,89.258,-641.11,0,0
135997,89.9846,-638.492,0,0
136258,90.6723,-636.159,0,0
136518,91.1479,-633.897,0,0
136778,91.4982,-631.737,0,0
137039,91.5583,-629.617,0,0
137299,91.4192,-627.277,0,0
137559,91.2515,-624.797,0,0
137819,90.9925,-622.184,0,0
138080,90.6431,-619.356,0,0
138340.125,90.3536,-616.241,0,0
138600.45,90.2846,-612.925,0,0
138860.775,90.421,-609.621,0,0
139121.1,90.7114,-606.256,0,0
139381.425,91.1713,-603.057,0,0
139641.75,91.518,-599.929,0,0
139902.075,91.9513,-596.646,0,0
140162.4,92.4729,-593.427,0,0
140422.725,93.0514,-590.302,0,0
140683.05,93.5328,-587.169,0,0
140943.375,94.0878,-583.899,0,0
141203.7,94.7451,-580.73,0,0
141464.025,95.3408,-577.644,0,0
141724.35,95.8455,-574.495,0,0
141984.675,96.3344,-571.21,0,0
142245.0,96.916,-567.817,0,0
142505.325,97.5921,-564.397,0,0
142765.65,98.3259,-560.96,0,0
143025.975,99.0904,-557.535,0,0
143286.3,99.9208,-553.951,0,0
143546.625,100.95,-550.339,0,0
143806.95,102.026,-546.925,0,0
144067.275,103.014,-543.469,0,0
144327.6,104.005,-539.916,0,0
144587.925,105.075,-536.239,0,0
144848.25,106.323,-532.437,0,0
145108.575,107.805,-528.645,0,0
145368.9,109.44,-524.965,0,0
145629.225,111.208,-521.304,0,0
145889.55,113.064,-517.83,0,0
146149.875,114.832,-514.429,0,0
146410.2,116.624,-510.909,0,0
146670.525,118.637,-507.382,0,0
146930.85,120.749,-503.981,0,0
147191.175,122.944,-500.748,0,0
147451.5,125.087,-497.664,0,0
147711.825,127.04,-494.685,0,0
147972.15,128.802,-491.539,0,0
148232.475,130.55,-488.05,0,0
148492.8,132.518,-484.268,0,0
148753.125,134.876,-480.357,0,0
149013.45,137.566,-476.491,0,0
149273.775,140.536,-472.693,0,0
149534.1,143.74,-468.97,0,0
149794.425,147.211,-465.312,0,0
150054.75,150.916,-461.878,0,0
150315.075,154.949,-458.63,0,0
150575.4,159.253,-455.586,0,0
150835.725,163.839,-452.638,0,0
151096.05,168.969,-450.205,0,0
151356.375,174.453,-448.567,0,0
151616.7,179.735,-447.819,0,0
151877.025,184.756,-447.68,0,0
152137.35,189.214,-448.046,0,0
152397.675,193.22,-448.91,0,0
152658.0,196.278,-449.966,0,0
152918.325,198.703,-450.55,0,0
153178.65,201.942,-450.833,0,0
153438.975,204.363,-451.85,0,0
153699.3,206.103,-452.779,0,0
153959.625,207.44,-453.235,0,0
154219.95,208.847,-453.575,0,0
154480,209.549,-453.724,0,0
154741,209.932,-453.026,0,0
155001,211.064,-451.152,0,0
155261,213.391,-449.364,0,0
155522,216.432,-448.091,0,0
155782,220.017,-447.659,0,0
156042,223.577,-448.926,0,0
156303,226.128,-450.79,0,0
156563,227.63,-453.411,0,0
156823,227.516,-456.058,0,0
157084,225.931,-457.749,0,0
157344,223.839,-457.882,0,0
157604,221.925,-456.745,0,0
157864,220.623,-454.578,0,0
158125,220.028,-451.838,0,0
158385,220.337,-448.743,0,0
158645,221.676,-445.808,0,0
158906,223.583,-443.233,0,0
159166,226.203,-441.222,0,0
159426,228.954,-440.399,0,0
159687,231.289,-440.486,0,0
159947,232.765,-441.109,0,0
160207,233.023,-441.695,0,0
160468,232.588,-441.821,0,0
160728,231.482,-441.099,0,0
160988,230.379,-439.155,0,0
161249,229.885,-436.369,0,0
161509,230.117,-433.079,0,0
161769,231.358,-429.717,0,0
162030,233.133,-426.765,0,0
162290,235.356,-424.134,0,0
162550,237.858,-421.856,0,0
162811,240.63,-420.094,0,0
163071,243.37,-418.836,0,0
163331,246.086,-417.96,0,0
163592,248.526,-417.61,0,0
163852,250.356,-417.332,0,0
164112,252.192,-417.035,0,0
164373,253.845,-416.434,0,0
164633,255.807,-416.064,0,0
164893,257.853,-416.089,0,0
165154,259.694,-416.452,0,0
165414,261.343,-417.443,0,0
165674,262.352,-418.79,0,0
165935,262.326,-420.531,0,0
166195,261.295,-421.807,0,0
166455,259.824,-422.54,0,0
166716,257.618,-422.771,0,0
166976,254.899,-422.075,0,0
167236,252.353,-419.941,0,0
167497,250.599,-417.079,0,0
167757,249.455,-414.165,0,0
168017,248.664,-411.228,0,0
168277,248.219,-408.367,0,0
168538,247.703,-405.658,0,0
168798,246.993,-402.706,0,0
169058,246.304,-399.331,0,0
169319,246.039,-395.54,0,0
169579,246.438,-391.623,0,0
169839,247.087,-388.025,0,0
170100,247.678,-384.665,0,0
170360.075,248.184,-381.264,0,0
170620.4,248.867,-377.716,0,0
170880.725,249.523,-374.309,0,0
171141.05,249.886,-370.879,0,0
171401.375,249.819,-366.84,0,0
171661.7,250.165,-361.799,0,0
171922.025,251.549,-356.286,0,0
172182.35,253.987,-351.031,0,0
172442.675,256.849,-346.394,0,0
172703.0,259.935,-342.321,0,0
172963.325,262.883,-338.562,0,0
173223.65,266.108,-334.707,0,0
173483.975,269.535,-331.413,0,0
173744.3,272.915,-328.594,0,0
174004.625,276.119,-326.365,0,0
174264.95,278.833,-324.341,0,0
174525.275,280.895,-322.628,0,0
174785.6,282.078,-320.639,0,0
175045.925,282.822,-317.834,0,0
175306.25,283.599,-314.355,0,0
175566.575,284.177,-310.203,0,0
175826.9,284.935,-305.14,0,0
176087.225,286.687,-299.175,0,0
176347.55,289.441,-293.195,0,0
176607.875,292.891,-287.469,0,0
176868.2,296.927,-282.073,0,0
177128.525,301.11,-277.236,0,0
177388.85,304.961,-272.541,0,0
177649.175,308.669,-267.419,0,0
177909.5,312.921,-261.732,0,0
178169.825,317.992,-256.097,0,0
178430.15,323.473,-250.726,0,0
178690.475,329.195,-245.563,0,0
178950.8,335.184,-240.43,0,0
179211.125,341.5,-235.23,0,0
179471.45,348.663,-230.184,0,0
179731.775,356.081,-225.629,0,0
179992.1,363.872,-220.86,0,0
180252.425,372.769,-216.668,0,0
180512.75,381.891,-213.447,0,0
180773.075,391.052,-210.796,0,0
181033.4,400.541,-208.82,0,0
181293.725,409.725,-207.519,0,0
181554.05,418.807,-206.518,0,0
181814.375,428.074,-205.958,0,0
182074.7,437.447,-205.997,0,0
182335.025,446.712,-206.882,0,0
182595.35,455.483,-208.43,0,0
182855.675,463.706,-210.478,0,0
183116.0,471.465,-212.71,0,0
183376.325,478.409,-215.446,0,0
183636.65,484.624,-218.062,0,0
183896.975,490.103,-220.43,0,0
184157.3,495.12,-222.147,0,0
184417.625,500.238,-223.185,0,0
184677.95,505.651,-224.078,0,0
184938.275,510.856,-224.666,0,0
185198.6,516.497,-224.858,0,0
185458.925,522.683,-225.017,0,0
185719.25,528.96,-225.725,0,0
185979.575,535.048,-225.948,0,0
186239.9,541.918,-226.048,0,0
186500,549.265,-227.023,0,0
186761,556.04,-228.579,0,0
187021,562.416,-229.844,0,0
187281,568.911,-231.013,0,0
187542,575.348,-232.038,0,0
187802,582.036,-232.866,0,0
188062,589.101,-233.55,0,0
188322,597.124,-234.553,0,0
188583,605.432,-236.455,0,0
188843,613.461,-239.239,0,0
189103,620.752,-242.689,0,0
189364,627.024,-245.778,0,0
189624,633.105,-248.208,0,0
189884,639.319,-250.143,0,0
190145,645.676,-251.863,0,0
190405,652.134,-252.923,0,0
190665,659.474,-253.36,0,0
190926,668.216,-253.487,0,0
191186,678.592,-254.808,0,0
191446,689.144,-257.817,0,0
191707,699.062,-261.925,0,0
191967,708.272,-266.519,0,0
192227,716.749,-271.141,0,0
192488,724.8,-275.592,0,0
192748,732.072,-279.172,0,0
193008,740.178,-280.725,0,0
193269,750.734,-281.931,0,0
193529,763.016,-284.172,0,0
193789,776.326,-287.083,0,0
194050,791.37,-291.918,0,0
194310,806.701,-298.903,0,0
194570,822.162,-307.441,0,0
194831,837.319,-318.173,0,0
195091,851.313,-330.317,0,0
195351,864.917,-343.33,0,0
195612,878.051,-357.118,0,0
195872,891.274,-372.335,0,0
196132,903.728,-389.568,0,0
196393,914.676,-408.352,0,0
196653,923.489,-428.625,0,0
196913,930.721,-448.868,0,0
197174,936.643,-469.428,0,0
197434,941.569,-489.964,0,0
197694,945.265,-511.664,0,0
197955,946.949,-533.909,0,0
198215,946.463,-555.812,0,0
198475,944.628,-577.023,0,0
198735,941.631,-597.741,0,0
198996,937.498,-617.457,0,0
199256,933.148,-636.856,0,0
199516,928.24,-656.609,0,0
199777,921.732,-677.016,0,0
200037,912.985,-697.031,0,0
200297,902.486,-715.768,0,0
200558,890.394,-732.769,0,0
200818,877.762,-747.752,0,0
201078,865.446,-761.19,0,0
201339,853.902,-774.201,0,0
201599,842.098,-787.637,0,0
201859,829.018,-801.213,0,0
202120,814.303,-814.153,0,0
202380.025,797.261,-825.904,0,0
202640.35,778.57,-834.825,0,0
202900.675,759.992,-840.164,0,0
203161.0,743.33,-842.99,0,0
203421.325,727.966,-844.733,0,0
203681.65,714.182,-845.473,0,0
203941.975,701.768,-846.161,0,0
204202.3,690.039,-846.899,0,0
204462.625,678.559,-847.681,0,0
204722.95,667.582,-848.219,0,0
204983.275,656.407,-848.685,0,0
205243.6,645.348,-848.756,0,0
205503.925,634.155,-848.383,0,0
205764.25,622.728,-847.181,0,0
206024.575,611.314,-844.986,0,0
206284.9,600.236,-841.032,0,0
206545.225,590.468,-835.511,0,0
206805.55,582.541,-828.983,0,0
207065.875,576.803,-822.29,0,0
207326.2,572.848,-816.167,0,0
207586.525,569.939,-811.16,0,0
207846.85,567.963,-806.799,0,0
208107.175,566.72,-803.529,0,0
208367.5,565.844,-801.552,0,0
208627.825,564.447,-800.611,0,0
208888.15,562.443,-800.126,0,0
209148.475,559.908,-799.54,0,0
209408.8,557.339,-798.502,0,0
209669.125,554.986,-797.122,0,0
209929.45,553.31,-795.765,0,0
210189.775,552.148,-794.718,0,0
210450.1,551.344,-794.324,0,0
210710.425,550.388,-794.297,0,0
210970.75,549.364,-794.525,0,0
211231.075,548.264,-794.95,0,0
211491.4,547.292,-795.246,0,0
211751.725,546.574,-795.961,0,0
212012.05,545.912,-796.969,0,0
212272.375,545.284,-798.41,0,0
212532.7,544.568,-800.141,0,0
212793.025,543.804,-802.187,0,0
213053.35,542.771,-804.623,0,0
213313.675,541.467,-807.195,0,0
213574.0,540.098,-809.917,0,0
213834.325,538.399,-812.999,0,0
214094.65,536.358,-816.257,0,0
214354.975,533.943,-819.364,0,0
214615.3,531.301,-822.479,0,0
214875.625,528.609,-825.67,0,0
215135.95,525.53,-828.894,0,0
215396.275,522.307,-832.257,0,0
215656.6,518.57,-835.533,0,0
215916.925,514.531,-838.617,0,0
216177.25,510.182,-841.407,0,0
216437.575,505.666,-844.014,0,0
216697.9,501.148,-846.189,0,0
216958.225,496.52,-848.213,0,0
217218.55,491.971,-849.958,0,0
217478.875,487.495,-851.73,0,0
217739.2,483.001,-853.488,0,0
217999.525,478.413,-855.208,0,0
218259.85,473.617,-856.786,0,0
218520,468.688,-858.234,0,0
218780,463.657,-859.521,0,0
219041,458.511,-860.513,0,0
219301,453.475,-861.283,0,0
219561,448.469,-861.893,0,0
219822,443.284,-862.398,0,0
220082,438.179,-862.903,0,0
220342,432.799,-862.994,0,0
220603,427.322,-862.765,0,0
220863,421.863,-862.229,0,0
221123,416.486,-861.217,0,0
221384,411.299,-859.61,0,0
221644,406.558,-857.722,0,0
221904,402.387,-855.56,0,0
222165,398.721,-853.396,0,0
222425,395.411,-851.391,0,0
222685,392.327,-849.442,0,0
222946,389.384,-847.651,0,0
223206,386.679,-845.755,0,0
223466,384.401,-843.848,0,0
223727,382.328,-842.07,0,0
223987,380.682,-840.57,0,0
224247,379.246,-839.329,0,0
224508,377.879,-838.443,0,0
224768,376.8,-837.653,0,0
225028,375.888,-837.338,0,0
225289,375.045,-837.566,0,0
225549,373.934,-838.261,0,0
225809,372.542,-839.48,0,0
226070,370.881,-840.831,0,0
226330,368.738,-842.435,0,0
226590,366.273,-843.872,0,0
226851,363.427,-845.431,0,0
227111,360.274,-846.93,0,0
227371,356.917,-848.375,0,0
227632,353.197,-849.683,0,0
227892,349.246,-850.729,0,0
228152,345.115,-851.391,0,0
228413,341.016,-851.8,0,0
228673,336.978,-852.083,0,0
228933,333.089,-852.192,0,0
229193,329.231,-852.254,0,0
229454,325.462,-852.41,0,0
229714,321.546,-852.543,0,0
229974,317.537,-852.749,0,0
230235,313.523,-852.99,0,0
230495,309.076,-853.395,0,0
230755,304.201,-853.422,0,0
231016,299.266,-852.958,0,0
231276,294.46,-852.261,0,0
231536,289.676,-851.322,0,0
231797,284.899,-850.22,0,0
232057,280.269,-848.959,0,0
232317,275.679,-847.564,0,0
232578,271.102,-846.077,0,0
232838,266.544,-844.348,0,0
233098,262.035,-842.552,0,0
233359,257.516,-840.671,0,0
233619,252.997,-838.553,0,0
233879,248.501,-836.327,0,0
234140,244.039,-833.831,0,0
234400,239.709,-831.08,0,0
234660.3,235.438,-828.188,0,0
234920.625,231.182,-825.049,0,0
235180.95,227.303,-821.518,0,0
235441.275,223.813,-817.894,0,0
235701.6,220.465,-814.251,0,0
235961.925,217.317,-810.484,0,0
236222.25,214.469,-806.648,0,0
236482.575,211.864,-802.839,0,0
236742.9,209.496,-799.026,0,0
237003.225,207.361,-795.269,0,0
237263.55,205.369,-791.588,0,0
237523.875,203.53,-787.89,0,0
237784.2,201.853,-784.276,0,0
238044.525,200.324,-780.65,0,0
238304.85,199.03,-777.058,0,0
238565.175,197.937,-773.488,0,0
238825.5,197.047,-769.95,0,0
239085.825,196.525,-766.588,0,0
239346.15,196.288,-763.502,0,0
239606.475,196.102,-760.81,0,0
239866.8,195.839,-758.516,0,0
240127.125,195.615,-756.315,0,0
240387.45,195.158,-754.369,0,0
240647.775,194.758,-752.538,0,0
240908.1,194.21,-750.862,0,0
241168.425,193.499,-749.421,0,0
241428.75,192.563,-748.02,0,0
241689.075,191.455,-746.565,0,0
241949.4,190.148,-745.053,0,0
242209.725,188.692,-743.433,0,0
242470.05,187.18,-741.727,0,0
242730.375,185.568,-739.804,0,0
242990.7,183.971,-737.666,0,0
243251.025,182.539,-735.423,0,0
243511.35,181.185,-733.11,0,0
243771.675,179.952,-730.743,0,0
244032.0,178.818,-728.303,0,0
244292.325,177.751,-725.799,0,0
244552.65,176.95,-723.266,0,0
244812.975,176.316,-720.993,0,0
245073.3,175.627,-718.808,0,0
245333.625,174.877,-716.694,0,0
245593.95,174.089,-714.523,0,0
245854.275,173.304,-712.266,0,0
246114.6,172.651,-709.985,0,0
246374.925,172.142,-707.756,0,0
246635.25,171.779,-705.534,0,0
246895.575,171.43,-703.566,0,0
247155.9,171.004,-701.743,0,0
247416.225,170.45,-699.966,0,0
247676.55,169.811,-698.13,0,0
247936.875,169.083,-696.26,0,0
248197.2,168.368,-694.343,0,0
248457.525,167.59,-692.308,0,0
248717.85,166.822,-690.217,0,0
248978.175,166.144,-687.957,0,0
249238.5,165.545,-685.681,0,0
249498.825,165.046,-683.377,0,0
249759.15,164.618,-681.083,0,0
250019.475,164.195,-678.639,0,0
250279.8,163.91,-676.203,0,0
250540,163.688,-673.637,0,0
250800,163.718,-671.053,0,0
251061,163.932,-668.451,0,0
251321,164.369,-665.915,0,0
251581,165.044,-663.503,0,0
251842,165.909,-661.274,0,0
252102,166.897,-659.254,0,0
252362,167.951,-657.499,0,0
252623,169.097,-655.986,0,0
252883,170.192,-654.816,0,0
253143,171.111,-653.969,0,0
253404,171.76,-653.228,0,0
253664,172.188,-652.591,0,0
253924,172.378,-651.934,0,0
254185,172.404,-651.191,0,0
254445,172.32,-650.338,0,0
254705,172.21,-649.404,0,0
254966,172.03,-648.46,0,0
255226,171.803,-647.46,0,0
255486,171.432,-646.429,0,0
255747,171.032,-645.233,0,0
256007,170.662,-643.869,0,0
256267,170.327,-642.419,0,0
256528,170.054,-640.938,0,0
256788,169.762,-639.36,0,0
257048,169.506,-637.631,0,0
257309,169.381,-635.777,0,0
257569,169.418,-633.846,0,0
257829,169.628,-631.926,0,0
258090,169.94,-629.998,0,0
258350,170.412,-628.138,0,0
258610,170.925,-626.294,0,0
258871,171.579,-624.52,0,0
259131,172.309,-622.761,0,0
259391,173.209,-620.999,0,0
259651,174.233,-619.385,0,0
259912,175.367,-617.854,0,0
260172,176.551,-616.597,0,0
260432,177.748,-615.342,0,0
260693,178.874,-614.321,0,0
260953,179.901,-613.268,0,0
261213,180.949,-612.178,0,0
261474,182.096,-611.218,0,0
261734,183.28,-610.302,0,0
261994,184.544,-609.528,0,0
262255,185.781,-608.964,0,0
262515,186.858,-608.607,0,0
262775,187.666,-608.193,0,0
263036,188.35,-607.698,0,0
263296,189.156,-607.113,0,0
263556,189.848,-606.582,0,0
263817,190.4,-605.963,0,0
264077,190.921,-605.215,0,0
264337,191.439,-604.303,0,0
264598,192.022,-603.132,0,0
264858,192.856,-601.844,0,0
265118,193.846,-600.465,0,0
265379,194.979,-599.083,0,0
265639,196.342,-597.587,0,0
265899,197.991,-596.032,0,0
266160,199.948,-594.493,0,0
266420,202.258,-593,0,0
266680.25,204.98,-591.662,0,0
266940.575,208.014,-590.529,0,0
267200.9,211.42,-589.757,0,0
267461.225,215.138,-589.365,0,0
267721.55,219.085,-589.441,0,0
267981.875,223.187,-590.028,0,0
268242.2,227.428,-591.225,0,0
268502.525,231.609,-592.989,0,0
268762.85,235.607,-595.391,0,0
269023.175,239.368,-598.337,0,0
269283.5,242.788,-601.746,0,0
269543.825,245.825,-605.491,0,0
269804.15,248.518,-609.589,0,0
270064.475,250.998,-613.951,0,0
270324.8,252.999,-618.753,0,0
270585.125,254.635,-623.831,0,0
270845.45,255.687,-629.235,0,0
271105.775,256.151,-634.779,0,0
271366.1,256.11,-640.434,0,0
271626.425,255.542,-646.169,0,0
271886.75,254.251,-651.968,0,0
272147.075,252.428,-657.627,0,0
272407.4,249.943,-663.132,0,0
272667.725,246.945,-668.439,0,0
272928.05,243.386,-673.596,0,0
273188.375,239.265,-678.34,0,0
273448.7,234.556,-682.621,0,0
273709.025,229.512,-686.39,0,0
273969.35,224.058,-689.579,0,0
274229.675,218.345,-692.172,0,0
274490.0,212.435,-694.1,0,0
274750.325,206.484,-695.316,0,0
275010.65,200.559,-695.905,0,0
275270.975,194.87,-695.856,0,0
275531.3,189.451,-695.287,0,0
275791.625,184.418,-694.298,0,0
276051.95,179.723,-693.01,0,0
276312.275,175.388,-691.527,0,0
276572.6,171.346,-689.864,0,0
276832.925,167.622,-688.107,0,0
277093.25,164.091,-686.277,0,0
277353.575,160.767,-684.329,0,0
277613.9,157.729,-682.337,0,0
277874.225,154.877,-680.304,0,0
278134.55,152.192,-678.324,0,0
278394.875,149.601,-676.334,0,0
278655.2,147.051,-674.263,0,0
278915.525,144.614,-672.095,0,0
279175.85,142.319,-669.777,0,0
279436.175,140.232,-667.288,0,0
279696.5,138.431,-664.814,0,0
279956.825,136.868,-662.301,0,0
280217.15,135.524,-659.794,0,0
280477.475,134.415,-657.377,0,0
280737.8,133.531,-655.043,0,0
280998.125,132.815,-652.849,0,0
281258.45,132.25,-650.763,0,0
281518.775,131.825,-648.802,0,0
281779.1,131.494,-647.047,0,0
282039.425,131.215,-645.422,0,0
282299.75,130.987,-643.974,0,0
282560,130.785,-642.698,0,0
282820,130.509,-641.59,0,0
283081,130.175,-640.615,0,0
283341,129.692,-639.677,0,0
283601,129.101,-638.761,0,0
283862,128.433,-637.784,0,0
284122,127.679,-636.7,0,0
284382,126.982,-635.563,0,0
284643,126.321,-634.319,0,0
284903,125.755,-633.004,0,0
285163,125.214,-631.619,0,0
285424,124.95,-630.132,0,0
285684,124.898,-628.654,0,0
285944,125.087,-627.341,0,0
286205,125.441,-626.15,0,0
286465,125.971,-625.207,0,0
286725,126.595,-624.503,0,0
286986,127.29,-624.055,0,0
287246,128.025,-623.925,0,0
287506,128.707,-624.196,0,0
287767,129.226,-624.823,0,0
288027,129.418,-625.783,0,0
288287,129.235,-626.953,0,0
288548,128.547,-628.179,0,0
288808,127.505,-629.331,0,0
289068,126.181,-630.295,0,0
289329,124.648,-631.117,0,0
289589,122.875,-631.875,0,0
289849,120.815,-632.401,0,0
290109,118.635,-632.598,0,0
290370,116.394,-632.513,0,0
290630,114.213,-632.146,0,0
290890,112.113,-631.589,0,0
291151,110.084,-630.965,0,0
291411,108.137,-630.217,0,0
291671,106.261,-629.357,0,0
291932,104.393,-628.491,0,0
292192,102.549,-627.557,0,0
292452,100.734,-626.494,0,0
292713,98.9621,-625.354,0,0
292973,97.2367,-624.108,0,0
293233,95.624,-622.828,0,0
293494,94.0412,-621.475,0,0
293754,92.5395,-620.117,0,0
294014,91.0448,-618.725,0,0
294275,89.5731,-617.316,0,0
294535,88.1635,-615.804,0,0
294795,86.8044,-614.189,0,0
295056,85.5108,-612.51,0,0
295316,84.4013,-610.844,0,0
295576,83.3147,-609.138,0,0
295837,82.3171,-607.463,0,0
296097,81.4292,-605.79,0,0
296357,80.5966,-604.176,0,0
296618,79.7744,-602.562,0,0
296878,78.9892,-601,0,0
297138,78.222,-599.455,0,0
297399,77.4706,-597.887,0,0
297659,76.715,-596.298,0,0
297919,76.0164,-594.705,0,0
298180,75.3436,-593.066,0,0
298440,74.7295,-591.429,0,0
298700.2,74.1548,-589.809,0,0
298960.525,73.6252,-588.161,0,0
299220.85,73.1214,-586.528,0,0
299481.175,72.6763,-584.873,0,0
299741.5,72.2506,-583.187,0,0
300001.825,71.9007,-581.533,0,0
300262.15,71.6261,-579.856,0,0
300522.475,71.3956,-578.171,0,0
300782.8,71.256,-576.499,0,0
301043.125,71.1921,-574.854,0,0
301303.45,71.2053,-573.278,0,0
301563.775,71.2932,-571.708,0,0
301824.1,71.4303,-570.222,0,0
302084.425,71.5928,-568.799,0,0
302344.75,71.8042,-567.453,0,0
302605.075,72.0167,-566.167,0,0
302865.4,72.276,-564.926,0,0
303125.725,72.5203,-563.73,0,0
303386.05,72.7815,-562.575,0,0
303646.375,73.0869,-561.496,0,0
303906.7,73.3861,-560.475,0,0
304167.025,73.6623,-559.507,0,0
304427.35,73.9485,-558.543,0,0
304687.675,74.2288,-557.68,0,0
304948.0,74.5186,-556.819,0,0
305208.325,74.7819,-556.007,0,0
305468.65,75.0346,-555.234,0,0
305728.975,75.3169,-554.512,0,0
305989.3,75.588,-553.809,0,0
306249.625,75.8305,-553.204,0,0
306509.95,76.0581,-552.621,0,0
306770.275,76.2369,-552.075,0,0
307030.6,76.403,-551.542,0,0
307290.925,76.5568,-551.043,0,0
307551.25,76.68,-550.565,0,0
307811.575,76.8075,-550.108,0,0
308071.9,76.9428,-549.717,0,0
308332.225,77.0601,-549.403,0,0
308592.55,77.1104,-549.164,0,0
308852.875,77.0664,-548.964,0,0
309113.2,76.9316,-548.803,0,0
309373.525,76.6734,-548.626,0,0
309633.85,76.3375,-548.361,0,0
309894.175,75.9512,-548.045,0,0
310154.5,75.5387,-547.695,0,0
310414.825,75.1581,-547.285,0,0
310675.15,74.7552,-546.85,0,0
310935.475,74.3703,-546.378,0,0
311195.8,73.9706,-545.903,0,0
311456.125,73.5779,-545.403,0,0
311716.45,73.1868,-544.915,0,0
311976.775,72.8161,-544.416,0,0
312237.1,72.4119,-543.921,0,0
312497.425,72.0144,-543.43,0,0
312757.75,71.5935,-542.938,0,0
313018.075,71.1479,-542.466,0,0
313278.4,70.6867,-541.952,0,0
313538.725,70.1843,-541.423,0,0
313799.05,69.6576,-540.901,0,0
314059.375,69.1151,-540.295,0,0
314319.7,68.5764,-539.69,0,0
314580,68.0593,-539.019,0,0
314840,67.489,-538.325,0,0
315101,66.9779,-537.658,0,0
315361,66.4628,-536.904,0,0
315621,65.9514,-536.108,0,0
315882,65.4962,-535.307,0,0
316142,65.0641,-534.472,0,0
316402,64.6335,-533.577,0,0
316663,64.218,-532.776,0,0
316923,63.9592,-531.861,0,0
317183,63.6151,-531.037,0,0
317444,63.344,-530.239,0,0
317704,63.0885,-529.392,0,0
317964,62.9429,-528.649,0,0
318225,62.6622,-527.811,0,0
318485,62.3598,-527.069,0,0
318745,62.2526,-526.248,0,0
319006,62.0468,-525.479,0,0
319266,61.9576,-524.721,0,0
319526,61.9019,-524,0,0
319787,61.7359,-523.287,0,0
320047,61.7232,-522.682,0,0
320307,61.6708,-522.098,0,0
320567,61.5235,-521.575,0,0
320828,61.3469,-521.087,0,0
321088,61.1376,-520.609,0,0
321348,60.9298,-520.181,0,0
321609,60.6191,-519.699,0,0
321869,60.4066,-519.234,0,0
322129,60.0922,-518.803,0,0
322390,59.7282,-518.304,0,0
322650,59.3983,-517.817,0,0
322910,59.0888,-517.321,0,0
323171,58.6537,-516.844,0,0
323431,58.2612,-516.371,0,0
323691,57.8202,-515.873,0,0
323952,57.3448,-515.407,0,0
324212,56.8305,-514.924,0,0
324472,56.3339,-514.372,0,0
324733,55.7878,-513.741,0,0
324993,55.2366,-513.119,0,0
325253,54.6885,-512.444,0,0
325514,54.1294,-511.723,0,0
325774,53.5349,-511.016,0,0
326034,53.0272,-510.259,0,0
326295,52.5254,-509.473,0,0
326555,52.1194,-508.618,0,0
326815,51.6181,-507.817,0,0
327076,51.2398,-506.954,0,0
327336,50.8337,-506.165,0,0
327596,50.388,-505.296,0,0
327857,50.0101,-504.421,0,0
328117,49.6365,-503.593,0,0
328377,49.3197,-502.752,0,0
328638,48.8984,-501.962,0,0
328898,48.5695,-501.157,0,0
329158,48.2843,-500.278,0,0
329419,47.9237,-499.37,0,0
329679,47.6022,-498.514,0,0
329939,47.3276,-497.675,0,0
330200,47.075,-496.798,0,0
330460,46.7206,-495.925,0,0
330720.15,46.4375,-495.012,0,0
330980.475,46.2329,-494.197,0,0
331240.8,45.9809,-493.322,0,0
331501.125,45.716,-492.404,0,0
331761.45,45.4806,-491.561,0,0
332021.775,45.3042,-490.645,0,0
332282.1,45.0512,-489.777,0,0
332542.425,44.9397,-488.93,0,0
332802.75,44.6815,-487.994,0,0
333063.075,44.5429,-487.127,0,0
333323.4,44.3928,-486.235,0,0
333583.725,44.2717,-485.311,0,0
333844.05,44.2021,-484.449,0,0
334104.375,44.0741,-483.559,0,0
334364.7,44.04,-482.681,0,0
334625.025,44.0083,-481.836,0,0
334885.35,43.9283,-481.013,0,0
335145.675,43.9765,-480.205,0,0
335406.0,43.9875,-479.422,0,0
335666.325,43.9408,-478.702,0,0
335926.65,43.9132,-477.986,0,0
336186.975,43.8614,-477.197,0,0
336447.3,43.847,-476.517,0,0
336707.625,43.807,-475.782,0,0
336967.95,43.7466,-475.138,0,0
337228.275,43.7253,-474.449,0,0
337488.6,43.7041,-473.725,0,0
337748.925,43.6972,-473.098,0,0
338009.25,43.5656,-472.468,0,0
338269.575,43.5245,-471.788,0,0
338529.9,43.5262,-471.145,0,0
338790.225,43.3646,-470.517,0,0
339050.55,43.2764,-469.943,0,0
339310.875,43.1743,-469.273,0,0
339571.2,43.085,-468.612,0,0
339831.525,42.956,-468.04,0,0
340091.85,42.858,-467.382,0,0
340352.175,42.7007,-466.788,0,0
340612.5,42.5457,-466.127,0,0
340872.825,42.3502,-465.497,0,0
341133.15,42.1693,-464.82,0,0
341393.475,41.9713,-464.194,0,0
341653.8,41.7633,-463.489,0,0
341914.125,41.5581,-462.758,0,0
342174.45,41.3649,-462.037,0,0
342434.775,41.2035,-461.28,0,0
342695.1,41.0059,-460.521,0,0
342955.425,40.9321,-459.796,0,0
343215.75,40.7544,-458.978,0,0
343476.075,40.6312,-458.247,0,0
343736.4,40.4902,-457.478,0,0
343996.725,40.4291,-456.728,0,0
344257.05,40.2753,-455.961,0,0
344517.375,40.2172,-455.166,0,0
344777.7,40.1152,-454.392,0,0
345038.025,39.9836,-453.554,0,0
345298.35,39.9127,-452.805,0,0
345558.675,39.8708,-452.035,0,0
345819.0,39.8014,-451.222,0,0
346079.325,39.7536,-450.352,0,0
346339.65,39.7486,-449.574,0,0
346599.975,39.7513,-448.718,0,0
346860,39.7441,-447.96,0,0
347121,39.7736,-447.124,0,0
347381,39.8442,-446.328,0,0
347641,39.8845,-445.587,0,0
347902,40.0039,-444.803,0,0
348162,40.0597,-444.035,0,0
348422,40.1432,-443.34,0,0
348683,40.2377,-442.546,0,0
348943,40.3393,-441.775,0,0
349203,40.4392,-441.112,0,0
349464,40.546,-440.363,0,0
349724,40.6627,-439.684,0,0
349984,40.7889,-438.912,0,0
350245,40.9066,-438.214,0,0
350505,41.0633,-437.548,0,0
350765,41.262,-436.889,0,0
351025,41.3814,-436.204,0,0
351286,41.5405,-435.568,0,0
351546,41.7476,-434.958,0,0
351806,41.9187,-434.371,0,0
352067,42.08,-433.794,0,0
352327,42.2531,-433.157,0,0
352587,42.4196,-432.577,0,0
352848,42.585,-432.06,0,0
353108,42.7661,-431.499,0,0
353368,42.8672,-430.971,0,0
353629,42.991,-430.459,0,0
353889,43.1537,-429.926,0,0
354149,43.2588,-429.435,0,0
354410,43.3669,-428.913,0,0
354670,43.4996,-428.451,0,0
354930,43.5995,-427.902,0,0
355191,43.6848,-427.423,0,0
355451,43.7741,-426.934,0,0
355711,43.8713,-426.393,0,0
355972,43.9725,-425.957,0,0
356232,44.103,-425.449,0,0
356492,44.2017,-424.971,0,0
356753,44.2195,-424.515,0,0
357013,44.318,-424.055,0,0
357273,44.318,-423.587,0,0
357534,44.3628,-423.114,0,0
357794,44.3673,-422.641,0,0
358054,44.4116,-422.127,0,0
358315,44.4743,-421.671,0,0
358575,44.5142,-421.095,0,0
358835,44.5515,-420.633,0,0
359096,44.595,-420.098,0,0
359356,44.6435,-419.624,0,0
359616,44.6947,-419.118,0,0
359877,44.757,-418.627,0,0
360137,44.7963,-418.149,0,0
360397,44.8418,-417.636,0,0
360658,44.9343,-417.131,0,0
360918,44.9871,-416.662,0,0
361178,45.0252,-416.148,0,0
361438,45.1024,-415.673,0,0
361699,45.1196,-415.199,0,0
361959,45.1755,-414.701,0,0
362219,45.2526,-414.218,0,0
362480,45.2817,-413.748,0,0
362740.1,45.3262,-413.269,0,0
363000.425,45.432,-412.746,0,0
363260.75,45.4578,-412.291,0,0
363521.075,45.5611,-411.806,0,0
363781.4,45.5556,-411.325,0,0
364041.725,45.632,-410.859,0,0
364302.05,45.6824,-410.38,0,0
364562.375,45.7595,-409.885,0,0
364822.7,45.793,-409.418,0,0
365083.025,45.8592,-408.894,0,0
365343.35,45.968,-408.438,0,0
365603.675,46.045,-407.957,0,0
365864.0,46.1377,-407.51,0,0
366124.325,46.2044,-407.041,0,0
366384.65,46.2686,-406.591,0,0
366644.975,46.3399,-406.148,0,0
366905.3,46.4308,-405.707,0,0
367165.625,46.4557,-405.27,0,0
367425.95,46.5361,-404.808,0,0
367686.275,46.5957,-404.356,0,0
367946.6,46.658,-403.867,0,0
368206.925,46.7011,-403.366,0,0
368467.25,46.7868,-402.904,0,0
368727.575,46.8324,-402.401,0,0
368987.9,46.9398,-401.908,0,0
369248.225,47.0639,-401.39,0,0
369508.55,47.2339,-400.927,0,0
369768.875,47.4081,-400.412,0,0
370029.2,47.5839,-399.944,0,0
370289.525,47.769,-399.53,0,0
370549.85,48.04,-399.103,0,0
370810.175,48.2571,-398.789,0,0
371070.5,48.4866,-398.469,0,0
371330.825,48.6707,-398.174,0,0
371591.15,48.8496,-397.907,0,0
371851.475,48.9872,-397.686,0,0
372111.8,49.1167,-397.447,0,0
372372.125,49.1962,-397.247,0,0
372632.45,49.2776,-397.013,0,0
372892.775,49.3203,-396.778,0,0
373153.1,49.3258,-396.568,0,0
373413.425,49.3109,-396.349,0,0
373673.75,49.2919,-396.082,0,0
373934.075,49.2411,-395.829,0,0
374194.4,49.1623,-395.587,0,0
374454.725,49.116,-395.318,0,0
374715.05,49.0204,-395.02,0,0
374975.375,48.9088,-394.673,0,0
375235.7,48.8051,-394.316,0,0
375496.025,48.7236,-393.942,0,0
375756.35,48.6368,-393.555,0,0
376016.675,48.5855,-393.168,0,0
376277.0,48.5844,-392.732,0,0
376537.325,48.5475,-392.32,0,0
376797.65,48.5759,-391.891,0,0
377057.975,48.6358,-391.512,0,0
377318.3,48.7097,-391.193,0,0
377578.625,48.792,-390.857,0,0
377838.95,48.813,-390.587,0,0
378099.275,48.8296,-390.355,0,0
378359.6,48.7851,-390.12,0,0
378619.925,48.6957,-389.892,0,0
378880,48.5556,-389.645,0,0
379141,48.3921,-389.314,0,0
379401,48.2429,-388.99,0,0
379661,48.0317,-388.551,0,0
379922,47.9162,-388.123,0,0
380182,47.7843,-387.628,0,0
380442,47.7614,-387.134,0,0
380703,47.7897,-386.634,0,0
380963,47.9305,-386.174,0,0
381223,48.0204,-385.806,0,0
381483,48.149,-385.451,0,0
381744,48.2474,-385.215,0,0
382004,48.3153,-385.045,0,0
382264,48.319,-384.877,0,0
382525,48.2672,-384.729,0,0
382785,48.1309,-384.576,0,0
383045,47.9501,-384.401,0,0
383306,47.7543,-384.204,0,0
383566,47.5207,-383.956,0,0
383826,47.2653,-383.699,0,0
384087,47.0045,-383.436,0,0
384347,46.7147,-383.052,0,0
384607,46.427,-382.744,0,0
384868,46.1236,-382.386,0,0
385128,45.8454,-381.945,0,0
385388,45.5362,-381.506,0,0
385649,45.2656,-381.053,0,0
385909,45.013,-380.574,0,0
386169,44.7618,-380.051,0,0
386430,44.4892,-379.52,0,0
386690,44.2525,-378.945,0,0
386950,44.0459,-378.41,0,0
387211,43.8155,-377.845,0,0
387471,43.6452,-377.224,0,0
387731,43.4574,-376.649,0,0
387992,43.3271,-376.036,0,0
388252,43.207,-375.393,0,0
388512,43.1005,-374.758,0,0
388773,43.035,-374.124,0,0
389033,42.9641,-373.492,0,0
389293,42.9182,-372.883,0,0
389554,42.8997,-372.29,0,0
389814,42.9287,-371.703,0,0
390074,42.9131,-371.157,0,0
390335,42.9386,-370.59,0,0
390595,42.9604,-370.031,0,0
390855,42.9443,-369.505,0,0
391116,42.9703,-368.997,0,0
391376,42.9392,-368.512,0,0
391636,42.9284,-367.989,0,0
391896,42.8913,-367.484,0,0
392157,42.8924,-366.926,0,0
392417,42.8805,-366.414,0,0
392677,42.8383,-365.902,0,0
392938,42.8193,-365.405,0,0
393198,42.8107,-364.884,0,0
393458,42.7705,-364.345,0,0
393719,42.7567,-363.787,0,0
393979,42.6984,-363.257,0,0
394239,42.6781,-362.719,0,0
394500,42.6482,-362.131,0,0
394760.05,42.6405,-361.572,0,0
395020.375,42.6845,-360.985,0,0
395280.7,42.7003,-360.408,0,0
395541.025,42.7206,-359.881,0,0
395801.35,42.7726,-359.255,0,0
396061.675,42.8087,-358.695,0,0
396322.0,42.8963,-358.143,0,0
396582.325,42.9715,-357.582,0,0
396842.65,43.0311,-357.038,0,0
397102.975,43.1322,-356.546,0,0
397363.3,43.1985,-356.011,0,0
397623.625,43.2816,-355.501,0,0
397883.95,43.3406,-354.984,0,0
398144.275,43.415,-354.468,0,0
398404.6,43.469,-353.98,0,0
398664.925,43.5566,-353.473,0,0
398925.25,43.6141,-352.978,0,0
399185.575,43.6689,-352.484,0,0
399445.9,43.7478,-351.985,0,0
399706.225,43.8285,-351.48,0,0
399966.55,43.8582,-350.973,0,0
400006.6,43.8503,-350.911,0,0