File: Accelerated corrosion test data/2025-10-17_06-00-03/sample_7.csv
Frequency (Hz),Impedance (ohms),Phase (Radians),Temperature (C),Humidity (%)
10000.0,272.629,-12103.1,0,0
10260.325,269.199,-11812,0,0
10520.65,257.001,-11512.4,0,0
10780.975,251.699,-11231.1,0,0
11041.3,249.061,-10963.1,0,0
11301.625,246.209,-10706.7,0,0
11561.95,249.204,-10457.2,0,0
11822.275,259.034,-10225.2,0,0
12082.6,268.146,-9999.76,0,0
12342.925,319.302,-9848.96,0,0
12603.25,256.754,-9653.88,0,0
12863.575,266.498,-9472.49,0,0
13123.9,235.8,-9282.67,0,0
13384.225,227.541,-9108.66,0,0
13644.55,225.806,-8928.34,0,0
13904.875,208.636,-8759.19,0,0
14165.2,208.846,-8586.7,0,0
14425.525,204.771,-8448.12,0,0
14685.8,201.694,-8299.32,0,0
14946.175,198.639,-8150.8,0,0
15206.5,195.032,-8021.92,0,0
15466.825,185.445,-7879.06,0,0
15727.15,182.14,-7750.83,0,0
15987.5,179.218,-7621.01,0,0
16247.8,176.931,-7502.57,0,0
16508.125,170.817,-7379.74,0,0
16768.45,170.698,-7261.09,0,0
17028.775,170.267,-7150.53,0,0
17289.1,165.732,-7041.94,0,0
17549.425,164.971,-6933.86,0,0
17809.75,170.619,-6824.35,0,0
18070.075,168.244,-6727.08,0,0
18330.4,179.696,-6621.06,0,0
18590.725,199.741,-6537.89,0,0
18851.05,190.537,-6465.32,0,0
19111.375,180.079,-6381.61,0,0
19371.7,203.188,-6314.39,0,0
19632.025,168.254,-6239.87,0,0
19892.35,158.257,-6139.62,0,0
20152.675,168.895,-6060.99,0,0
20413.0,168.741,-5988.15,0,0
20673.3,170.658,-5906.79,0,0
20933.65,180.703,-5849.44,0,0
21193.975,161.5,-5786.39,0,0
21454.3,152.784,-5711.36,0,0
21714.625,157.192,-5647.11,0,0
21974.9,146.23,-5583.09,0,0
22235.275,141.203,-5514.07,0,0
22495.6,139.232,-5451.05,0,0
22755.925,133.555,-5386.78,0,0
23016.25,130.275,-5323.45,0,0
23276.6,128.274,-5260.34,0,0
23536.9,129.388,-5200.02,0,0
23797.225,127.496,-5144.79,0,0
24057.55,124.162,-5087.09,0,0
24317.875,122.628,-5029.62,0,0
24578.2,123.598,-4975.41,0,0
24838.525,121.666,-4921.3,0,0
25098.85,120.498,-4870.13,0,0
25359.175,119.857,-4817.88,0,0
25619.5,119.133,-4765.12,0,0
25879.8,118.861,-4715.74,0,0
26140.1,119.513,-4663.79,0,0
26400.5,123.873,-4617.14,0,0
26660.8,121.225,-4570.61,0,0
26921.1,121.839,-4520.35,0,0
27181.4,127.342,-4472.56,0,0
27441.8,130.878,-4425.98,0,0
27702.1,141.748,-4379.02,0,0
27962.4,156.172,-4335.1,0,0
28222.7,177.313,-4306.87,0,0
28483.1,184.216,-4287.23,0,0
28743.4,184.3,-4273.53,0,0
29003.7,168.452,-4252.6,0,0
29264,150.071,-4217.87,0,0
29524.4,140.156,-4178.48,0,0
29784.7,132.086,-4139.91,0,0
30045,129.294,-4095.97,0,0
30305.3,130.626,-4059.27,0,0
30565.7,130.981,-4025.33,0,0
30826,131.858,-3992.39,0,0
31086.3,133.938,-3962.7,0,0
31346.6,131.515,-3933.57,0,0
31607,129.606,-3908.65,0,0
31867.3,120.158,-3877.38,0,0
32127.6,117.407,-3845.21,0,0
32387.9,114.645,-3814.91,0,0
32648.3,110.907,-3784.84,0,0
32908.6,107.699,-3754.47,0,0
33168.9,104.264,-3724.56,0,0
33429.2,101.525,-3694.72,0,0
33689.6,99.1236,-3664.49,0,0
33949.9,97.1429,-3635.27,0,0
34210.2,95.0402,-3606.33,0,0
34470.5,93.3937,-3577.56,0,0
34730.9,92.3185,-3549.44,0,0
34991.2,91.2801,-3522.13,0,0
35251.5,89.8241,-3494.76,0,0
35511.8,89.1843,-3467.83,0,0
35772.2,88.7241,-3441.53,0,0
36032.5,88.4275,-3415.54,0,0
36292.8,87.7001,-3390.58,0,0
36553.1,86.7472,-3365.32,0,0
36813.5,86.0741,-3340.4,0,0
37073.8,85.9317,-3315.75,0,0
37334.1,86.0215,-3291.94,0,0
37594.4,85.5191,-3268.22,0,0
37854.8,85.2262,-3244.67,0,0
38115.1,85.1007,-3220.55,0,0
38375.4,85.5205,-3197.28,0,0
38635.7,86.6138,-3174.35,0,0
38896.1,88.1308,-3151.58,0,0
39156.4,90.1507,-3130.4,0,0
39416.7,93.2979,-3108.61,0,0
39677,97.3679,-3090.8,0,0
39937.4,98.264,-3074.7,0,0
40197.7,98.7577,-3059.01,0,0
40458,95.7068,-3043.44,0,0
40718.3,92.6526,-3025.79,0,0
40978.7,89.4525,-3006.8,0,0
41239,86.8632,-2987.6,0,0
41499.3,84.8374,-2967.98,0,0
41759.6,83.8436,-2948.84,0,0
42020,82.1162,-2930.57,0,0
42280.275,80.6084,-2910.84,0,0
42540.6,80.0672,-2891.49,0,0
42800.925,80.3734,-2873.09,0,0
43061.25,79.9791,-2855.08,0,0
43321.575,80.4503,-2838.25,0,0
43581.9,78.9495,-2820.58,0,0
43842.225,78.9654,-2802.47,0,0
44102.55,79.8791,-2784.65,0,0
44362.875,82.0904,-2769.06,0,0
44623.2,82.1159,-2754.01,0,0
44883.525,81.1045,-2740.1,0,0
45143.85,80.2308,-2724.4,0,0
45404.175,78.9529,-2708.6,0,0
45664.5,79.4543,-2691.85,0,0
45924.825,80.7264,-2678.28,0,0
46185.15,79.885,-2666.02,0,0
46445.475,77.3009,-2652.27,0,0
46705.8,74.4128,-2637.44,0,0
46966.125,72.3403,-2621.55,0,0
47226.45,71.5348,-2605.67,0,0
47486.775,71.1224,-2590.33,0,0
47747.1,70.6704,-2575.63,0,0
48007.425,70.1643,-2561.42,0,0
48267.75,69.7962,-2547.26,0,0
48528.075,68.957,-2533.27,0,0
48788.4,68.4409,-2519.15,0,0
49048.725,67.9368,-2505.33,0,0
49309.05,67.5553,-2491.66,0,0
49569.375,67.0235,-2478.05,0,0
49829.7,66.6166,-2464.44,0,0
50090.025,66.5174,-2451.15,0,0
50350.35,66.0524,-2438.19,0,0
50610.675,65.5944,-2425.11,0,0
50871.0,65.1867,-2412.42,0,0
51131.325,65.0595,-2399.63,0,0
51391.65,64.6973,-2387.05,0,0
51651.975,64.3646,-2374.49,0,0
51912.3,64.1068,-2362.25,0,0
52172.625,63.9307,-2349.82,0,0
52432.95,63.7337,-2337.72,0,0
52693.275,63.6486,-2325.69,0,0
52953.6,63.7008,-2313.92,0,0
53213.925,63.4889,-2302.45,0,0
53474.25,63.2039,-2291.21,0,0
53734.575,62.8675,-2279.79,0,0
53994.9,62.4987,-2268.43,0,0
54255.225,62.1118,-2257.15,0,0
54515.55,61.9849,-2246.03,0,0
54775.875,61.5893,-2234.94,0,0
55036.2,61.3537,-2224.07,0,0
55296.525,61.0939,-2213.17,0,0
55556.85,60.8826,-2202.4,0,0
55817.175,60.5696,-2191.72,0,0
56077.5,60.3503,-2180.84,0,0
56337.825,60.4763,-2170.4,0,0
56598.15,60.2793,-2160.23,0,0
56858.475,60.1868,-2149.93,0,0
57118.8,59.8755,-2139.85,0,0
57379.125,59.7727,-2129.7,0,0
57639.45,59.5052,-2119.72,0,0
57899.775,59.2156,-2109.55,0,0
58160.1,59.2472,-2099.38,0,0
58420.4,59.5953,-2089.7,0,0
58680.7,59.6337,-2080.37,0,0
58941.1,59.4272,-2070.97,0,0
59201.4,59.1741,-2061.5,0,0
59461.7,59.2926,-2051.91,0,0
59722,59.652,-2043.1,0,0
59982.4,59.4173,-2034.05,0,0
60242.7,59.5674,-2025.16,0,0
60503,59.3833,-2016.72,0,0
60763.3,58.9287,-2008,0,0
61023.7,58.4976,-1999.26,0,0
61284,58.1162,-1990.55,0,0
61544.3,57.761,-1981.86,0,0
61804.6,57.3037,-1973.37,0,0
62065,56.8034,-1964.67,0,0
62325.3,56.5359,-1955.96,0,0
62585.6,56.1919,-1947.29,0,0
62845.9,56.059,-1938.83,0,0
63106.3,55.6739,-1930.27,0,0
63366.6,55.622,-1921.68,0,0
63626.9,55.5876,-1913.49,0,0
63887.2,55.5464,-1905.43,0,0
64147.6,55.3237,-1897.41,0,0
64407.9,55.0872,-1889.24,0,0
64668.2,54.9782,-1881.24,0,0
64928.5,54.9914,-1873.18,0,0
65188.9,54.9892,-1865.24,0,0
65449.2,55.0665,-1857.61,0,0
65709.5,55.0527,-1850.13,0,0
65969.8,54.9279,-1842.68,0,0
66230.2,54.8322,-1835.33,0,0
66490.5,54.4344,-1828.06,0,0
66750.8,53.9914,-1820.75,0,0
67011.1,53.5057,-1813.48,0,0
67271.5,53.1258,-1805.77,0,0
67531.8,52.9443,-1798.45,0,0
67792.1,52.5829,-1791.06,0,0
68052.4,52.2641,-1783.71,0,0
68312.8,52.142,-1776.41,0,0
68573.1,52.0453,-1769.1,0,0
68833.4,51.7198,-1761.92,0,0
69093.7,51.7247,-1754.77,0,0
69354.1,51.6169,-1747.59,0,0
69614.4,51.5107,-1740.69,0,0
69874.7,51.3512,-1733.71,0,0
70135,51.3244,-1726.81,0,0
70395.4,51.2259,-1719.98,0,0
70655.7,51.213,-1713.15,0,0
70916,51.239,-1706.43,0,0
71176.3,51.175,-1700,0,0
71436.7,51.1616,-1693.53,0,0
71697,50.8307,-1687.13,0,0
71957.3,50.6532,-1680.63,0,0
72217.6,50.3379,-1674.22,0,0
72478,50.2128,-1667.75,0,0
72738.3,49.9596,-1661.37,0,0
72998.6,49.7712,-1654.86,0,0
73258.9,49.701,-1648.53,0,0
73519.3,49.5494,-1642.26,0,0
73779.6,49.352,-1635.95,0,0
74039.9,49.2407,-1629.68,0,0
74300.225,49.1027,-1623.52,0,0
74560.55,49.014,-1617.32,0,0
74820.875,49.0056,-1611.19,0,0
75081.2,48.8259,-1605.13,0,0
75341.525,48.6865,-1599.11,0,0
75601.85,48.6582,-1593.1,0,0
75862.175,48.4654,-1587.12,0,0
76122.5,48.3209,-1581.24,0,0
76382.825,48.2666,-1575.32,0,0
76643.15,48.1837,-1569.44,0,0
76903.475,48.179,-1563.61,0,0
77163.8,48.0969,-1557.82,0,0
77424.125,48.0824,-1552.12,0,0
77684.45,48.0082,-1546.44,0,0
77944.775,47.9123,-1540.81,0,0
78205.1,47.8165,-1535.2,0,0
78465.425,47.7897,-1529.49,0,0
78725.75,47.7069,-1524,0,0
78986.075,47.6858,-1518.43,0,0
79246.4,47.6352,-1512.93,0,0
79506.725,47.6153,-1507.5,0,0
79767.05,47.5711,-1502.11,0,0
80027.375,47.5535,-1496.72,0,0
80287.7,47.5043,-1491.36,0,0
80548.025,47.4615,-1486.11,0,0
80808.35,47.3223,-1480.9,0,0
81068.675,47.2081,-1475.56,0,0
81329.0,47.1523,-1470.33,0,0
81589.325,47.1269,-1465.09,0,0
81849.65,47.1766,-1459.93,0,0
82109.975,47.0006,-1454.8,0,0
82370.3,47.0127,-1449.61,0,0
82630.625,46.976,-1444.5,0,0
82890.95,46.9099,-1439.48,0,0
83151.275,46.8295,-1434.38,0,0
83411.6,46.7886,-1429.3,0,0
83671.925,46.78,-1424.2,0,0
83932.25,46.8635,-1419.23,0,0
84192.575,46.895,-1414.25,0,0
84452.9,46.9937,-1409.36,0,0
84713.225,47.0064,-1404.5,0,0
84973.55,47.0533,-1399.68,0,0
85233.875,47.1855,-1394.87,0,0
85494.2,47.1733,-1390.2,0,0
85754.525,47.1209,-1385.49,0,0
86014.85,47.0798,-1380.64,0,0
86275.175,47.1955,-1375.9,0,0
86535.5,47.2042,-1371.34,0,0
86795.825,47.1798,-1366.77,0,0
87056.15,47.1846,-1362.09,0,0
87316.475,47.3602,-1357.48,0,0
87576.8,47.3711,-1352.96,0,0
87837.125,47.3413,-1348.58,0,0
88097.45,47.3359,-1344.07,0,0
88357.775,47.2549,-1339.69,0,0
88618.1,47.1568,-1335.26,0,0
88878.425,47.0411,-1330.83,0,0
89138.75,47.0208,-1326.37,0,0
89399.075,46.8456,-1321.84,0,0
89659.4,46.82,-1317.27,0,0
89919.725,46.8204,-1312.81,0,0
90180,46.8713,-1308.37,0,0
90440.4,46.9121,-1303.83,0,0
90700.7,47.0472,-1299.53,0,0
90961,47.0477,-1295.27,0,0
91221.3,47.101,-1290.85,0,0
91481.7,47.1361,-1286.48,0,0
91742,47.2725,-1282.1,0,0
92002.3,47.3702,-1277.74,0,0
92262.6,47.7132,-1273.59,0,0
92523,47.7849,-1269.45,0,0
92783.3,47.813,-1265.36,0,0
93043.6,47.854,-1261.03,0,0
93303.9,48.0322,-1256.68,0,0
93564.3,48.2755,-1252.51,0,0
93824.6,48.7164,-1248.19,0,0
94084.9,49.3047,-1244.36,0,0
94345.2,49.5704,-1240.53,0,0
94605.6,50.0047,-1236.77,0,0
94865.9,50.18,-1233.02,0,0
95126.2,50.5981,-1229.49,0,0
95386.5,50.5949,-1226.14,0,0
95646.9,50.2876,-1222.76,0,0
95907.2,49.8646,-1218.9,0,0
96167.5,49.6807,-1214.99,0,0
96427.8,49.5534,-1211.15,0,0
96688.2,49.4777,-1207.13,0,0
96948.5,49.3892,-1203.26,0,0
97208.8,49.286,-1199.35,0,0
97469.1,49.1766,-1195.32,0,0
97729.5,49.4039,-1191.18,0,0
97989.8,49.7176,-1187.35,0,0
98250.1,49.9414,-1183.61,0,0
98510.4,50.1446,-1179.95,0,0
98770.8,50.2442,-1176.41,0,0
99031.1,50.1917,-1172.85,0,0
99291.4,50.0644,-1169.21,0,0
99551.7,49.8536,-1165.44,0,0
99812.1,49.737,-1161.36,0,0
100072,49.9489,-1157.27,0,0
100333,50.3417,-1153.33,0,0
100593,50.6748,-1149.68,0,0
100853,50.8584,-1145.95,0,0
101114,51.2614,-1142.2,0,0
101374,51.6204,-1138.72,0,0
101634,51.7836,-1135.08,0,0
101895,52.0139,-1131.34,0,0
102155,52.4189,-1127.69,0,0
102415,52.8806,-1124.14,0,0
102676,53.2464,-1120.6,0,0
102936,53.848,-1117.02,0,0
103196,54.4543,-1113.7,0,0
103457,55.017,-1110.45,0,0
103717,55.7293,-1107.45,0,0
103977,55.9261,-1104.76,0,0
104238,55.8467,-1101.63,0,0
104498,56.019,-1098.3,0,0
104758,56.3594,-1095.13,0,0
105019,56.5725,-1092.28,0,0
105279,56.6031,-1089.35,0,0
105539,56.3704,-1086.28,0,0
105800,56.261,-1082.99,0,0
106060,56.139,-1079.74,0,0
106320.175,56.0722,-1076.2,0,0
106580.5,56.2783,-1072.65,0,0
106840.825,56.6499,-1069.29,0,0
107101.15,56.9357,-1066.25,0,0
107361.475,56.9851,-1063.07,0,0
107621.8,57.0316,-1059.84,0,0
107882.125,57.1286,-1056.44,0,0
108142.45,57.3944,-1053.15,0,0
108402.775,57.6321,-1049.86,0,0
108663.1,57.9737,-1046.64,0,0
108923.425,58.1714,-1043.5,0,0
109183.75,58.3531,-1040.32,0,0
109444.075,58.4379,-1037.18,0,0
109704.4,58.4822,-1033.85,0,0
109964.725,58.5504,-1030.47,0,0
110225.05,58.7514,-1026.83,0,0
110485.375,59.2036,-1023.15,0,0
110745.7,59.8484,-1019.53,0,0
111006.025,60.7677,-1016.05,0,0
111266.35,61.4853,-1013.18,0,0
111526.675,61.8533,-1009.9,0,0
111787.0,62.5333,-1006.48,0,0
112047.325,63.3542,-1003.13,0,0
112307.65,64.2247,-999.815,0,0
112567.975,65.3416,-996.683,0,0
112828.3,66.524,-993.658,0,0
113088.625,67.6383,-990.724,0,0
113348.95,68.6907,-988.04,0,0
113609.275,69.5756,-985.286,0,0
113869.6,70.6552,-982.421,0,0
114129.925,71.737,-979.718,0,0
114390.25,72.9753,-977.007,0,0
114650.575,74.2124,-974.58,0,0
114910.9,75.3439,-972.098,0,0
115171.225,76.5346,-969.559,0,0
115431.55,77.91,-967.071,0,0
115691.875,79.5239,-964.655,0,0
115952.2,81.2909,-962.716,0,0
116212.525,82.8575,-960.987,0,0
116472.85,84.5345,-959.526,0,0
116733.175,85.993,-958.52,0,0
116993.5,86.8968,-957.617,0,0
117253.825,87.7761,-956.402,0,0
117514.15,88.7333,-955.437,0,0
117774.475,89.3639,-954.654,0,0
118034.8,89.7741,-953.639,0,0
118295.125,90.3967,-952.452,0,0
118555.45,91.2771,-951.671,0,0
118815.775,91.9079,-951.266,0,0
119076.1,92.343,-951.042,0,0
119336.425,92.5141,-951.149,0,0
119596.75,92.2863,-951.455,0,0
119857.075,91.213,-952.056,0,0
120117.4,89.4432,-951.969,0,0
120377.725,87.7699,-951.693,0,0
120638.05,85.3851,-951.183,0,0
120898.375,82.9085,-950.016,0,0
121158.7,80.24,-948.313,0,0
121419.025,77.8766,-945.742,0,0
121679.35,76.2872,-943.167,0,0
121939.675,74.7551,-940.764,0,0
122200.0,73.242,-938.41,0,0
122460,71.6724,-935.919,0,0
122721,70.2365,-933.334,0,0
122981,68.7301,-930.688,0,0
123241,67.2563,-927.788,0,0
123502,66.0151,-924.725,0,0
123762,65.0545,-921.587,0,0
124022,64.2379,-918.612,0,0
124283,63.6599,-915.726,0,0
124543,62.9594,-913.019,0,0
124803,62.2726,-910.294,0,0
125064,61.4721,-907.711,0,0
125324,60.5902,-905.031,0,0
125584,59.619,-902.085,0,0
125845,58.9311,-899.1,0,0
126105,58.2892,-896.242,0,0
126365,57.5219,-893.451,0,0
126626,56.7258,-890.407,0,0
126886,56.1893,-887.366,0,0
127146,55.5185,-884.419,0,0
127406,55.0597,-881.164,0,0
127667,54.7516,-878.087,0,0
127927,54.5059,-875.11,0,0
128187,54.2106,-872.243,0,0
128448,53.8718,-869.492,0,0
128708,53.4635,-866.583,0,0
128968,53.0886,-863.594,0,0
129229,52.8323,-860.577,0,0
129489,52.672,-857.755,0,0
129749,52.3174,-854.931,0,0
130010,51.9696,-851.891,0,0
130270,51.8716,-848.936,0,0
130530,51.7745,-846.155,0,0
130791,51.4489,-843.391,0,0
131051,51.0676,-840.53,0,0
131311,50.6837,-837.458,0,0
131572,50.5083,-834.238,0,0
131832,50.4578,-831.125,0,0
132092,50.4691,-828.196,0,0
132353,50.3076,-825.194,0,0
132613,50.3146,-822.081,0,0
132873,50.3313,-818.972,0,0
133134,50.383,-815.839,0,0
133394,50.5768,-812.714,0,0
133654,50.7715,-809.567,0,0
133915,51.0816,-806.422,0,0
134175,51.5896,-803.231,0,0
134435,52.2355,-800.251,0,0
134696,52.8376,-797.456,0,0
134956,53.3845,-794.667,0,0
135216,54.0009,-791.81,0,0
135477,54.6969,-788.968,0,0
135737,55.6682,-786.21,0,0
135997,56.9229,-783.788,0,0
136258,58.0075,-781.781,0,0
136518,58.9101,-780.042,0,0
136778,59.642,-778.673,0,0
137039,59.6974,-777.526,0,0
137299,59.2322,-776.015,0,0
137559,58.6573,-774.093,0,0
137819,58.0745,-771.869,0,0
138080,57.6691,-769.551,0,0
138340.125,57.1208,-767.217,0,0
138600.45,56.5467,-764.591,0,0
138860.775,56.1269,-761.75,0,0
139121.1,55.973,-758.77,0,0
139381.425,55.9844,-755.903,0,0
139641.75,56.0819,-753.136,0,0
139902.075,56.2239,-750.435,0,0
140162.4,56.3981,-747.824,0,0
140422.725,56.4038,-745.298,0,0
140683.05,56.3362,-742.677,0,0
140943.375,56.2789,-739.946,0,0
141203.7,56.2851,-737.19,0,0
141464.025,56.258,-734.372,0,0
141724.35,56.3159,-731.442,0,0
141984.675,56.5122,-728.524,0,0
142245.0,56.7529,-725.63,0,0
142505.325,57.0359,-722.743,0,0
142765.65,57.3876,-719.868,0,0
143025.975,57.7808,-716.97,0,0
143286.3,58.374,-714.123,0,0
143546.625,58.9964,-711.425,0,0
143806.95,59.5791,-708.841,0,0
144067.275,60.1358,-706.39,0,0
144327.6,60.5827,-703.974,0,0
144587.925,60.9494,-701.581,0,0
144848.25,61.1865,-699.124,0,0
145108.575,61.5449,-696.593,0,0
145368.9,61.8197,-694.15,0,0
145629.225,62.0282,-691.674,0,0
145889.55,62.1802,-689.132,0,0
146149.875,62.3154,-686.438,0,0
146410.2,62.5871,-683.702,0,0
146670.525,62.911,-681.057,0,0
146930.85,63.2086,-678.391,0,0
147191.175,63.5698,-675.696,0,0
147451.5,63.8559,-673.112,0,0
147711.825,64.1062,-670.381,0,0
147972.15,64.5461,-667.625,0,0
148232.475,64.9761,-665.136,0,0
148492.8,65.2185,-662.667,0,0
148753.125,65.3258,-660.165,0,0
149013.45,65.2818,-657.549,0,0
149273.775,65.1761,-654.707,0,0
149534.1,65.1786,-651.739,0,0
149794.425,65.209,-648.704,0,0
150054.75,65.2637,-645.577,0,0
150315.075,65.3616,-642.332,0,0
150575.4,65.5665,-639.036,0,0
150835.725,65.8114,-635.667,0,0
151096.05,66.1301,-632.211,0,0
151356.375,66.5945,-628.709,0,0
151616.7,67.0985,-625.195,0,0
151877.025,67.705,-621.634,0,0
152137.35,68.3716,-618.049,0,0
152397.675,69.1593,-614.422,0,0
152658.0,70.0546,-610.8,0,0
152918.325,71.0172,-607.228,0,0
153178.65,72.0202,-603.625,0,0
153438.975,73.1097,-600.044,0,0
153699.3,74.2128,-596.438,0,0
153959.625,75.3764,-592.8,0,0
154219.95,76.6855,-589.084,0,0
154480,78.0882,-585.42,0,0
154741,79.5482,-581.755,0,0
155001,81.1288,-578.035,0,0
155261,82.855,-574.359,0,0
155522,84.6758,-570.724,0,0
155782,86.5642,-567.124,0,0
156042,88.59,-563.564,0,0
156303,90.7275,-560.04,0,0
156563,92.9454,-556.588,0,0
156823,95.2622,-553.219,0,0
157084,97.6861,-549.881,0,0
157344,100.329,-546.614,0,0
157604,103.102,-543.63,0,0
157864,105.82,-540.885,0,0
158125,108.5,-538.243,0,0
158385,111.282,-535.731,0,0
158645,114.082,-533.652,0,0
158906,116.519,-531.869,0,0
159166,118.569,-530.148,0,0
159426,120.275,-528.395,0,0
159687,121.743,-526.525,0,0
159947,122.875,-524.503,0,0
160207,123.691,-522.158,0,0
160468,124.452,-519.351,0,0
160728,125.243,-516.23,0,0
160988,125.897,-512.841,0,0
161249,126.56,-508.713,0,0
161509,127.707,-504.097,0,0
161769,129.315,-499.134,0,0
162030,131.49,-494.001,0,0
162290,134.215,-488.881,0,0
162550,137.342,-483.996,0,0
162811,140.469,-479.182,0,0
163071,143.859,-474.059,0,0
163331,147.776,-468.837,0,0
163592,152.356,-463.576,0,0
163852,157.459,-458.888,0,0
164112,162.705,-454.576,0,0
164373,168.015,-450.436,0,0
164633,173.486,-446.427,0,0
164893,179.097,-442.756,0,0
165154,184.621,-439.274,0,0
165414,189.845,-435.407,0,0
165674,195.367,-431.022,0,0
165935,201.67,-426.321,0,0
166195,208.828,-421.373,0,0
166455,216.992,-416.823,0,0
166716,225.949,-412.843,0,0
166976,235.39,-409.506,0,0
167236,245.362,-406.338,0,0
167497,256.282,-403.902,0,0
167757,267.719,-402.56,0,0
168017,279.302,-402.011,0,0
168277,291.528,-402.165,0,0
168538,304.469,-403.557,0,0
168798,317.29,-406.51,0,0
169058,330.006,-410.749,0,0
169319,342.434,-416.558,0,0
169579,353.724,-423.63,0,0
169839,364.174,-430.963,0,0
170100,374.494,-438.779,0,0
170360.075,384.866,-447.913,0,0
170620.4,394.19,-458.821,0,0
170880.725,401.597,-470.475,0,0
171141.05,407.811,-482.058,0,0
171401.375,413.323,-493.825,0,0
171661.7,417.848,-506.023,0,0
171922.025,421.683,-518.127,0,0
172182.35,425.337,-531.115,0,0
172442.675,427.591,-545.61,0,0
172703.0,427.378,-560.485,0,0
172963.325,425.402,-575.121,0,0
173223.65,421.308,-589.367,0,0
173483.975,415.461,-602.885,0,0
173744.3,407.314,-615.378,0,0
174004.625,397.244,-625.51,0,0
174264.95,386.649,-632.976,0,0
174525.275,376.117,-638.572,0,0
174785.6,365.331,-642.397,0,0
175045.925,354.864,-643.309,0,0
175306.25,346.799,-642.434,0,0
175566.575,339.986,-642.029,0,0
175826.9,332.962,-640.372,0,0
176087.225,327.994,-637.037,0,0
176347.55,325.035,-634.003,0,0
176607.875,323.084,-631.247,0,0
176868.2,322.639,-628.54,0,0
177128.525,323.901,-626.834,0,0
177388.85,325.876,-626.851,0,0
177649.175,327.588,-627.882,0,0
177909.5,329.829,-629.363,0,0
178169.825,333.129,-632.114,0,0
178430.15,336.862,-637.586,0,0
178690.475,338.832,-646.166,0,0
178950.8,337.394,-655.96,0,0
179211.125,332.869,-665.203,0,0
179471.45,326.158,-672.496,0,0
179731.775,319.001,-677.493,0,0
179992.1,312.351,-681.279,0,0
180252.425,306.085,-684.51,0,0
180512.75,300.19,-687.703,0,0
180773.075,294.168,-691.171,0,0
181033.4,287.701,-694.713,0,0
181293.725,279.905,-698.535,0,0
181554.05,270.663,-700.707,0,0
181814.375,262.073,-701.304,0,0
182074.7,253.656,-701.936,0,0
182335.025,244.396,-701.889,0,0
182595.35,235.002,-700.269,0,0
182855.675,226.211,-697.407,0,0
183116.0,218.255,-693.624,0,0
183376.325,211.416,-689.385,0,0
183636.65,205.233,-685.449,0,0
183896.975,199.055,-681.412,0,0
184157.3,193.114,-676.848,0,0
184417.625,187.731,-671.715,0,0
184677.95,183.339,-666.436,0,0
184938.275,179.654,-661.629,0,0
185198.6,175.921,-657.335,0,0
185458.925,172.046,-653.018,0,0
185719.25,168.003,-648.555,0,0
185979.575,163.946,-643.467,0,0
186239.9,160.542,-637.842,0,0
186500,157.811,-632.243,0,0
186761,155.483,-626.872,0,0
187021,153.24,-621.454,0,0
187281,151.423,-615.784,0,0
187542,150.328,-610.204,0,0
187802,149.746,-605.03,0,0
188062,149.513,-600.453,0,0
188322,149.204,-596.403,0,0
188583,148.812,-592.813,0,0
188843,147.94,-589.636,0,0
189103,146.458,-586.316,0,0
189364,144.748,-582.468,0,0
189624,143.31,-578.327,0,0
189884,141.859,-574.161,0,0
190145,140.435,-569.609,0,0
190405,139.518,-564.981,0,0
190665,138.586,-560.639,0,0
190926,137.422,-556.002,0,0
191186,136.551,-550.891,0,0
191446,136.293,-545.712,0,0
191707,136.432,-540.905,0,0
191967,136.476,-536.455,0,0
192227,136.176,-531.941,0,0
192488,135.969,-527.055,0,0
192748,136.13,-521.997,0,0
193008,136.547,-516.999,0,0
193269,137.183,-512.025,0,0
193529,138.003,-507.171,0,0
193789,138.869,-502.418,0,0
194050,139.761,-497.613,0,0
194310,140.804,-492.686,0,0
194570,142.102,-487.663,0,0
194831,143.81,-482.633,0,0
195091,145.891,-477.886,0,0
195351,148.081,-473.521,0,0
195612,150.195,-469.323,0,0
195872,152.342,-465.212,0,0
196132,154.646,-461.229,0,0
196393,156.865,-457.41,0,0
196653,159.082,-453.599,0,0
196913,161.452,-449.851,0,0
197174,163.993,-446.346,0,0
197434,166.436,-443.117,0,0
197694,168.7,-440.166,0,0
197955,170.507,-437.248,0,0
198215,172.072,-433.986,0,0
198475,173.714,-430.387,0,0
198735,175.49,-426.748,0,0
198996,177.337,-423.118,0,0
199256,179.082,-419.44,0,0
199516,180.626,-415.533,0,0
199777,182.391,-411.073,0,0
200037,184.524,-406.458,0,0
200297,187.038,-401.739,0,0
200558,189.745,-397.096,0,0
200818,192.756,-392.568,0,0
201078,195.739,-388.103,0,0
201339,198.778,-383.406,0,0
201599,202.065,-378.432,0,0
201859,205.753,-373.428,0,0
202120,209.842,-368.3,0,0
202380.025,214.425,-363.233,0,0
202640.35,219.415,-358.478,0,0
202900.675,224.569,-353.98,0,0
203161.0,229.861,-349.547,0,0
203421.325,235.495,-345.19,0,0
203681.65,241.394,-341.014,0,0
203941.975,247.425,-337.112,0,0
204202.3,253.64,-333.172,0,0
204462.625,260.204,-329.358,0,0
204722.95,267.019,-325.701,0,0
204983.275,274.096,-322.021,0,0
205243.6,281.881,-318.263,0,0
205503.925,290.705,-315.021,0,0
205764.25,300.094,-312.922,0,0
206024.575,309.42,-311.888,0,0
206284.9,318.456,-311.755,0,0
206545.225,327.12,-312.18,0,0
206805.55,335.332,-313.067,0,0
207065.875,343.055,-314.435,0,0
207326.2,350.086,-315.854,0,0
207586.525,356.645,-317.184,0,0
207846.85,362.54,-318.113,0,0
208107.175,368.434,-318.14,0,0
208367.5,374.785,-317.53,0,0
208627.825,381.996,-316.483,0,0
208888.15,390.096,-315.223,0,0
209148.475,399.526,-314.377,0,0
209408.8,409.819,-314.28,0,0
209669.125,420.898,-315.146,0,0
209929.45,432.627,-316.848,0,0
210189.775,445.079,-320.061,0,0
210450.1,458.068,-325.21,0,0
210710.425,470.257,-332.753,0,0
210970.75,480.712,-341.918,0,0
211231.075,489.558,-351.141,0,0
211491.4,497.656,-360.658,0,0
211751.725,504.973,-370.609,0,0
212012.05,511.241,-381.1,0,0
212272.375,516.241,-391.575,0,0
212532.7,520.548,-401.575,0,0
212793.025,524.748,-411.781,0,0
213053.35,527.914,-422.769,0,0
213313.675,529.259,-433.316,0,0
213574.0,529.989,-442.46,0,0
213834.325,531.182,-450.9,0,0
214094.65,532.688,-459.584,0,0
214354.975,533.838,-468.925,0,0
214615.3,533.921,-478.359,0,0
214875.625,533.207,-487.194,0,0
215135.95,532.249,-495.63,0,0
215396.275,530.856,-503.554,0,0
215656.6,529.38,-510.799,0,0
215916.925,528.244,-517.603,0,0
216177.25,527.681,-524.344,0,0
216437.575,527.679,-531.777,0,0
216697.9,527.398,-540.453,0,0
216958.225,525.825,-550.034,0,0
217218.55,522.491,-559.578,0,0
217478.875,517.914,-568.156,0,0
217739.2,513.003,-575.582,0,0
217999.525,508.182,-582.555,0,0
218259.85,503.05,-589.349,0,0
218520,497.5,-595.881,0,0
218780,491.42,-602.282,0,0
219041,484.347,-608.178,0,0
219301,476.464,-613.105,0,0
219561,468.121,-616.514,0,0
219822,460.019,-618.767,0,0
220082,452.104,-619.785,0,0
220342,444.884,-619.651,0,0
220603,438.616,-619.013,0,0
220863,432.878,-618.129,0,0
221123,427.442,-616.863,0,0
221384,422.546,-615.121,0,0
221644,418.38,-612.898,0,0
221904,414.934,-610.515,0,0
222165,412.191,-608.068,0,0
222425,410.256,-605.631,0,0
222685,409.058,-603.559,0,0
222946,408.035,-602.11,0,0
223206,407.138,-600.914,0,0
223466,406.43,-599.798,0,0
223727,405.835,-598.977,0,0
223987,405.285,-598.328,0,0
224247,404.607,-597.856,0,0
224508,403.902,-597.382,0,0
224768,402.994,-596.667,0,0
225028,402.193,-595.561,0,0
225289,401.683,-593.974,0,0
225549,402.099,-592.017,0,0
225809,403.521,-590.327,0,0
226070,405.568,-589.279,0,0
226330,407.932,-588.98,0,0
226590,410.391,-589.361,0,0
226851,412.529,-590.374,0,0
227111,414.533,-591.445,0,0
227371,416.604,-592.649,0,0
227632,418.84,-593.969,0,0
227892,421.46,-595.743,0,0
228152,424.211,-598.176,0,0
228413,426.852,-601.296,0,0
228673,429.152,-604.993,0,0
228933,431.07,-609.278,0,0
229193,432.354,-613.967,0,0
229454,432.905,-618.595,0,0
229714,433.122,-622.731,0,0
229974,433.846,-626.696,0,0
230235,435.022,-631.36,0,0
230495,435.86,-637.106,0,0
230755,435.695,-643.615,0,0
231016,434.251,-650.126,0,0
231276,432.029,-656.018,0,0
231536,429.651,-661.357,0,0
231797,427.454,-666.491,0,0
232057,425.273,-671.895,0,0
232317,422.896,-677.685,0,0
232578,420.006,-684.007,0,0
232838,416.148,-690.603,0,0
233098,411.34,-696.974,0,0
233359,405.86,-702.961,0,0
233619,399.67,-708.852,0,0
233879,392.423,-714.248,0,0
234140,384.351,-718.689,0,0
234400,375.973,-722.031,0,0
234660.3,367.398,-724.644,0,0
234920.625,358.334,-726.483,0,0
235180.95,349.052,-726.94,0,0
235441.275,340.266,-726.053,0,0
235701.6,332.205,-724.036,0,0
235961.925,325.134,-721.524,0,0
236222.25,319.003,-718.677,0,0
236482.575,313.795,-715.836,0,0
236742.9,309.236,-713.531,0,0
237003.225,304.787,-711.724,0,0
237263.55,300.045,-710.14,0,0
237523.875,295.094,-708.365,0,0
237784.2,290.004,-706.421,0,0
238044.525,284.868,-704.112,0,0
238304.85,279.535,-701.381,0,0
238565.175,274.237,-697.861,0,0
238825.5,269.453,-693.407,0,0
239085.825,265.637,-688.364,0,0
239346.15,262.84,-682.985,0,0
239606.475,261.406,-677.844,0,0
239866.8,261.104,-673.449,0,0
240127.125,261.277,-670.162,0,0
240387.45,261.406,-667.925,0,0
240647.775,261.264,-666.664,0,0
240908.1,260.329,-665.793,0,0
241168.425,258.792,-664.978,0,0
241428.75,256.923,-664.02,0,0
241689.075,254.675,-662.97,0,0
241949.4,252.285,-661.839,0,0
242209.725,249.357,-660.585,0,0
242470.05,245.953,-658.698,0,0
242730.375,242.672,-655.915,0,0
242990.7,239.949,-652.563,0,0
243251.025,237.728,-649.107,0,0
243511.35,235.788,-645.664,0,0
243771.675,233.987,-641.953,0,0
244032.0,232.545,-637.905,0,0
244292.325,231.809,-633.619,0,0
244552.65,231.876,-629.443,0,0
244812.975,232.833,-625.872,0,0
245073.3,233.892,-623.188,0,0
245333.625,234.787,-621.266,0,0
245593.95,235.231,-619.507,0,0
245854.275,235.522,-617.934,0,0
246114.6,235.634,-616.517,0,0
246374.925,235.447,-615.113,0,0
246635.25,235.061,-613.628,0,0
246895.575,234.603,-612.016,0,0
247155.9,234.038,-610.268,0,0
247416.225,233.46,-608.311,0,0
247676.55,233.004,-606.201,0,0
247936.875,232.688,-603.967,0,0
248197.2,232.499,-601.645,0,0
248457.525,232.41,-599.352,0,0
248717.85,232.509,-596.968,0,0
248978.175,232.747,-594.574,0,0
249238.5,233.138,-592.187,0,0
249498.825,233.699,-589.827,0,0
249759.15,234.315,-587.52,0,0
250019.475,235.116,-585.131,0,0
250279.8,236.125,-582.733,0,0
250540,237.43,-580.375,0,0
250800,238.988,-578.203,0,0
251061,240.691,-576.177,0,0
251321,242.62,-574.401,0,0
251581,244.55,-572.823,0,0
251842,246.573,-571.222,0,0
252102,248.906,-569.674,0,0
252362,251.577,-568.44,0,0
252623,254.496,-567.608,0,0
252883,257.58,-567.226,0,0
253143,260.745,-567.41,0,0
253404,263.783,-568.183,0,0
253664,266.55,-569.474,0,0
253924,268.915,-571.184,0,0
254185,270.837,-573.15,0,0
254445,272.29,-575.258,0,0
254705,273.458,-577.361,0,0
254966,274.316,-579.581,0,0
255226,274.828,-581.908,0,0
255486,274.931,-584.234,0,0
255747,274.627,-586.489,0,0
256007,273.963,-588.517,0,0
256267,273.081,-590.253,0,0
256528,272.069,-591.767,0,0
256788,270.935,-593.176,0,0
257048,269.632,-594.444,0,0
257309,268.135,-595.41,0,0
257569,266.612,-596.065,0,0
257829,265.107,-596.472,0,0
258090,263.673,-596.643,0,0
258350,262.363,-596.558,0,0
258610,261.295,-596.334,0,0
258871,260.469,-596.1,0,0
259131,259.819,-596.038,0,0
259391,259.124,-596.201,0,0
259651,258.278,-596.516,0,0
259912,257.116,-596.714,0,0
260172,255.707,-596.656,0,0
260432,254.331,-596.285,0,0
260693,253.014,-595.675,0,0
260953,251.88,-594.79,0,0
261213,250.907,-593.772,0,0
261474,250.106,-592.615,0,0
261734,249.499,-591.353,0,0
261994,249.12,-589.886,0,0
262255,249.107,-588.288,0,0
262515,249.61,-586.721,0,0
262775,250.53,-585.386,0,0
263036,251.782,-584.352,0,0
263296,253.305,-583.79,0,0
263556,254.886,-583.718,0,0
263817,256.354,-584.087,0,0
264077,257.691,-584.81,0,0
264337,258.808,-585.863,0,0
264598,259.58,-587.191,0,0
264858,260.006,-588.64,0,0
265118,260.023,-590.132,0,0
265379,259.645,-591.495,0,0
265639,259.056,-592.489,0,0
265899,258.434,-593.298,0,0
266160,257.879,-593.871,0,0
266420,257.461,-594.293,0,0
266680.25,257.253,-594.744,0,0
266940.575,257.18,-595.306,0,0
267200.9,257.136,-596.123,0,0
267461.225,256.889,-597.076,0,0
267721.55,256.459,-598.141,0,0
267981.875,255.802,-599.136,0,0
268242.2,254.867,-600.017,0,0
268502.525,253.896,-600.609,0,0
268762.85,252.903,-600.959,0,0
269023.175,251.946,-601.117,0,0
269283.5,251.159,-601.024,0,0
269543.825,250.636,-600.74,0,0
269804.15,250.391,-600.435,0,0
270064.475,250.424,-600.094,0,0
270324.8,250.77,-599.738,0,0
270585.125,251.561,-599.522,0,0
270845.45,252.641,-599.588,0,0
271105.775,254.065,-599.938,0,0
271366.1,255.836,-600.66,0,0
271626.425,257.958,-601.958,0,0
271886.75,260.276,-604.031,0,0
272147.075,262.599,-607.086,0,0
272407.4,264.57,-611.177,0,0
272667.725,265.828,-616.195,0,0
272928.05,266.1,-621.871,0,0
273188.375,265.248,-627.901,0,0
273448.7,263.279,-633.992,0,0
273709.025,260.271,-639.956,0,0
273969.35,256.249,-645.531,0,0
274229.675,251.429,-650.579,0,0
274490.0,245.974,-655.005,0,0
274750.325,240.01,-658.905,0,0
275010.65,233.518,-662.299,0,0
275270.975,226.37,-665.032,0,0
275531.3,218.705,-666.761,0,0
275791.625,210.875,-667.46,0,0
276051.95,203.156,-667.076,0,0
276312.275,195.709,-665.875,0,0
276572.6,188.617,-664.03,0,0
276832.925,181.739,-661.599,0,0
277093.25,175.178,-658.487,0,0
277353.575,169.045,-654.686,0,0
277613.9,163.608,-650.315,0,0
277874.225,158.898,-645.619,0,0
278134.55,154.865,-640.781,0,0
278394.875,151.424,-635.873,0,0
278655.2,148.573,-630.976,0,0
278915.525,146.247,-626.214,0,0
279175.85,144.286,-621.646,0,0
279436.175,142.572,-617.186,0,0
279696.5,141.138,-612.816,0,0
279956.825,140.023,-608.523,0,0
280217.15,139.313,-604.347,0,0
280477.475,138.895,-600.319,0,0
280737.8,138.849,-596.592,0,0
280998.125,138.997,-593.316,0,0
281258.45,139.149,-590.48,0,0
281518.775,139.09,-587.983,0,0
281779.1,138.817,-585.588,0,0
282039.425,138.414,-583.212,0,0
282299.75,137.856,-580.86,0,0
282560,137.127,-578.413,0,0
282820,136.306,-575.769,0,0
283081,135.543,-572.857,0,0
283341,134.939,-569.751,0,0
283601,134.566,-566.482,0,0
283862,134.497,-563.156,0,0
284122,134.703,-559.841,0,0
284382,135.177,-556.582,0,0
284643,135.893,-553.486,0,0
284903,136.811,-550.523,0,0
285163,137.793,-547.717,0,0
285424,139.039,-545.089,0,0
285684,140.408,-542.67,0,0
285944,141.85,-540.562,0,0
286205,143.273,-538.672,0,0
286465,144.65,-536.994,0,0
286725,145.98,-535.497,0,0
286986,147.21,-534.177,0,0
287246,148.316,-533.03,0,0
287506,149.239,-532.004,0,0
287767,149.912,-531.013,0,0
288027,150.374,-529.944,0,0
288287,150.697,-528.687,0,0
288548,151.032,-527.25,0,0
288808,151.404,-525.699,0,0
289068,151.895,-524.047,0,0
289329,152.444,-522.357,0,0
289589,153.065,-520.634,0,0
289849,153.788,-518.908,0,0
290109,154.527,-517.125,0,0
290370,155.381,-515.23,0,0
290630,156.457,-513.296,0,0
290890,157.758,-511.458,0,0
291151,159.222,-509.79,0,0
291411,160.712,-508.304,0,0
291671,162.219,-506.952,0,0
291932,163.654,-505.695,0,0
292192,165.051,-504.451,0,0
292452,166.477,-503.189,0,0
292713,167.972,-501.958,0,0
292973,169.548,-500.747,0,0
293233,171.177,-499.637,0,0
293494,172.834,-498.584,0,0
293754,174.528,-497.594,0,0
294014,176.244,-496.681,0,0
294275,177.917,-495.795,0,0
294535,179.611,-494.942,0,0
294795,181.347,-494.015,0,0
295056,183.21,-493.1,0,0
295316,185.187,-492.29,0,0
295576,187.271,-491.546,0,0
295837,189.381,-490.893,0,0
296097,191.541,-490.301,0,0
296357,193.786,-489.762,0,0
296618,196.16,-489.311,0,0
296878,198.632,-488.982,0,0
297138,201.203,-488.788,0,0
297399,203.843,-488.76,0,0
297659,206.542,-488.913,0,0
297919,209.294,-489.258,0,0
298180,212.006,-489.819,0,0
298440,214.686,-490.527,0,0
298700.2,217.349,-491.408,0,0
298960.525,219.881,-492.254,0,0
299220.85,222.552,-493.235,0,0
299481.175,225.212,-494.314,0,0
299741.5,227.951,-495.562,0,0
300001.825,230.792,-497.054,0,0
300262.15,233.649,-498.713,0,0
300522.475,236.512,-500.587,0,0
300782.8,239.398,-502.623,0,0
301043.125,242.348,-504.912,0,0
301303.45,245.38,-507.527,0,0
301563.775,248.534,-510.508,0,0
301824.1,251.535,-513.955,0,0
302084.425,254.494,-517.958,0,0
302344.75,257.203,-522.647,0,0
302605.075,259.445,-527.942,0,0
302865.4,260.998,-533.748,0,0
303125.725,261.769,-539.869,0,0
303386.05,261.66,-546.1,0,0
303646.375,260.721,-552.216,0,0
303906.7,259.042,-557.987,0,0
304167.025,256.84,-563.378,0,0
304427.35,254.21,-568.333,0,0
304687.675,251.297,-572.904,0,0
304948.0,248.132,-577.071,0,0
305208.325,244.891,-580.895,0,0
305468.65,241.471,-584.507,0,0
305728.975,237.888,-587.915,0,0
305989.3,234.004,-591.028,0,0
306249.625,229.96,-593.831,0,0
306509.95,225.763,-596.236,0,0
306770.275,221.507,-598.288,0,0
307030.6,217.237,-599.979,0,0
307290.925,212.973,-601.354,0,0
307551.25,208.761,-602.469,0,0
307811.575,204.574,-603.34,0,0
308071.9,200.439,-603.943,0,0
308332.225,196.3,-604.354,0,0
308592.55,192.197,-604.503,0,0
308852.875,188.182,-604.361,0,0
309113.2,184.224,-603.955,0,0
309373.525,180.409,-603.233,0,0
309633.85,176.827,-602.277,0,0
309894.175,173.472,-601.168,0,0
310154.5,170.412,-599.873,0,0
310414.825,167.574,-598.595,0,0
310675.15,164.929,-597.348,0,0
310935.475,162.431,-596.066,0,0
311195.8,160.062,-594.81,0,0
311456.125,157.791,-593.581,0,0
311716.45,155.619,-592.383,0,0
311976.775,153.467,-591.188,0,0
312237.1,151.38,-589.998,0,0
312497.425,149.341,-588.799,0,0
312757.75,147.313,-587.575,0,0
313018.075,145.287,-586.351,0,0
313278.4,143.315,-585.067,0,0
313538.725,141.338,-583.724,0,0
313799.05,139.386,-582.304,0,0
314059.375,137.489,-580.771,0,0
314319.7,135.676,-579.116,0,0
314580,134.001,-577.388,0,0
314840,132.485,-575.568,0,0
315101,131.093,-573.699,0,0
315361,129.898,-571.886,0,0
315621,128.856,-570.055,0,0
315882,127.944,-568.31,0,0
316142,127.167,-566.635,0,0
316402,126.472,-565.068,0,0
316663,125.856,-563.588,0,0
316923,125.279,-562.199,0,0
317183,124.667,-560.871,0,0
317444,124.086,-559.599,0,0
317704,123.52,-558.341,0,0
317964,123,-557.143,0,0
318225,122.489,-555.998,0,0
318485,121.968,-554.897,0,0
318745,121.455,-553.794,0,0
319006,120.977,-552.708,0,0
319266,120.529,-551.61,0,0
319526,120.126,-550.605,0,0
319787,119.768,-549.633,0,0
320047,119.379,-548.741,0,0
320307,119.028,-547.902,0,0
320567,118.607,-547.115,0,0
320828,118.177,-546.347,0,0
321088,117.72,-545.588,0,0
321348,117.234,-544.852,0,0
321609,116.744,-544.1,0,0
321869,116.258,-543.347,0,0
322129,115.762,-542.595,0,0
322390,115.279,-541.87,0,0
322650,114.801,-541.15,0,0
322910,114.326,-540.469,0,0
323171,113.825,-539.788,0,0
323431,113.317,-539.141,0,0
323691,112.766,-538.488,0,0
323952,112.197,-537.818,0,0
324212,111.604,-537.126,0,0
324472,111.018,-536.423,0,0
324733,110.44,-535.644,0,0
324993,109.881,-534.857,0,0
325253,109.421,-534.054,0,0
325514,109.01,-533.263,0,0
325774,108.665,-532.508,0,0
326034,108.331,-531.852,0,0
326295,107.99,-531.239,0,0
326555,107.641,-530.694,0,0
326815,107.263,-530.202,0,0
327076,106.855,-529.755,0,0
327336,106.397,-529.334,0,0
327596,105.866,-528.909,0,0
327857,105.301,-528.477,0,0
328117,104.715,-528.046,0,0
328377,104.082,-527.597,0,0
328638,103.441,-527.116,0,0
328898,102.767,-526.63,0,0
329158,102.084,-526.133,0,0
329419,101.413,-525.592,0,0
329679,100.739,-525.072,0,0
329939,100.049,-524.532,0,0
330200,99.3756,-523.994,0,0
330460,98.6729,-523.466,0,0
330720.15,97.9821,-522.879,0,0
330980.475,97.2868,-522.439,0,0
331240.8,96.5807,-521.871,0,0
331501.125,95.7777,-521.454,0,0
331761.45,95.0031,-520.916,0,0
332021.775,94.1799,-520.446,0,0
332282.1,93.3296,-519.93,0,0
332542.425,92.3669,-519.404,0,0
332802.75,91.4127,-518.866,0,0
333063.075,90.4272,-518.197,0,0
333323.4,89.4093,-517.546,0,0
333583.725,88.3921,-516.804,0,0
333844.05,87.3651,-516.017,0,0
334104.375,86.3307,-515.143,0,0
334364.7,85.3418,-514.261,0,0
334625.025,84.3576,-513.364,0,0
334885.35,83.4287,-512.329,0,0
335145.675,82.478,-511.359,0,0
335406.0,81.5018,-510.428,0,0
335666.325,80.6362,-509.314,0,0
335926.65,79.7039,-508.319,0,0
336186.975,78.8181,-507.171,0,0
336447.3,77.8644,-506.071,0,0
336707.625,76.993,-504.881,0,0
336967.95,76.1524,-503.693,0,0
337228.275,75.3373,-502.364,0,0
337488.6,74.633,-501.068,0,0
337748.925,73.9467,-499.758,0,0
338009.25,73.2833,-498.5,0,0
338269.575,72.6231,-497.118,0,0
338529.9,72.0586,-495.831,0,0
338790.225,71.4963,-494.513,0,0
339050.55,70.9311,-493.236,0,0
339310.875,70.4102,-491.886,0,0
339571.2,69.8686,-490.599,0,0
339831.525,69.4216,-489.242,0,0
340091.85,68.9808,-487.891,0,0
340352.175,68.5035,-486.526,0,0
340612.5,68.0412,-485.086,0,0
340872.825,67.6599,-483.755,0,0
341133.15,67.3961,-482.286,0,0
341393.475,67.0204,-480.886,0,0
341653.8,66.8383,-479.438,0,0
341914.125,66.6243,-478.05,0,0
342174.45,66.467,-476.644,0,0
342434.775,66.3904,-475.24,0,0
342695.1,66.2799,-473.905,0,0
342955.425,66.2462,-472.493,0,0
343215.75,66.2419,-471.15,0,0
343476.075,66.2821,-469.838,0,0
343736.4,66.3466,-468.497,0,0
343996.725,66.4595,-467.284,0,0
344257.05,66.6397,-466.084,0,0
344517.375,66.8105,-464.896,0,0
344777.7,67.0201,-463.801,0,0
345038.025,67.1806,-462.687,0,0
345298.35,67.4457,-461.667,0,0
345558.675,67.6208,-460.728,0,0
345819.0,67.8258,-459.807,0,0
346079.325,67.9791,-458.93,0,0
346339.65,68.1321,-458.102,0,0
346599.975,68.2009,-457.285,0,0
346860,68.2991,-456.521,0,0
347121,68.3473,-455.751,0,0
347381,68.2752,-454.973,0,0
347641,68.2328,-454.26,0,0
347902,68.0946,-453.435,0,0
348162,67.9405,-452.688,0,0
348422,67.7416,-451.795,0,0
348683,67.5202,-450.923,0,0
348943,67.3171,-449.997,0,0
349203,67.1064,-449.029,0,0
349464,66.9423,-447.959,0,0
349724,66.7725,-446.906,0,0
349984,66.6362,-445.82,0,0
350245,66.536,-444.72,0,0
350505,66.3994,-443.637,0,0
350765,66.3069,-442.437,0,0
351025,66.231,-441.29,0,0
351286,66.1692,-440.009,0,0
351546,66.2238,-438.72,0,0
351806,66.3807,-437.441,0,0
352067,66.5744,-436.16,0,0
352327,66.8385,-434.91,0,0
352587,67.1613,-433.706,0,0
352848,67.5166,-432.51,0,0
353108,67.9849,-431.366,0,0
353368,68.3775,-430.301,0,0
353629,68.929,-429.245,0,0
353889,69.427,-428.283,0,0
354149,69.9355,-427.408,0,0
354410,70.4806,-426.561,0,0
354670,70.9501,-425.741,0,0
354930,71.5101,-424.957,0,0
355191,72.0141,-424.248,0,0
355451,72.5356,-423.587,0,0
355711,73.1084,-423.071,0,0
355972,73.5705,-422.585,0,0
356232,73.9293,-422.189,0,0
356492,74.259,-421.806,0,0
356753,74.4444,-421.453,0,0
357013,74.549,-421.126,0,0
357273,74.5965,-420.718,0,0
357534,74.5618,-420.291,0,0
357794,74.4425,-419.759,0,0
358054,74.2357,-419.213,0,0
358315,74.0667,-418.571,0,0
358575,73.8676,-417.81,0,0
358835,73.6401,-416.99,0,0
359096,73.5049,-416.099,0,0
359356,73.385,-415.157,0,0
359616,73.2936,-414.081,0,0
359877,73.3298,-413.067,0,0
360137,73.3834,-412.017,0,0
360397,73.505,-410.873,0,0
360658,73.6624,-409.769,0,0
360918,73.8554,-408.672,0,0
361178,74.1844,-407.564,0,0
361438,74.4884,-406.485,0,0
361699,74.8726,-405.424,0,0
361959,75.337,-404.39,0,0
362219,75.8446,-403.379,0,0
362480,76.3605,-402.395,0,0
362740.1,76.8605,-401.467,0,0
363000.425,77.3799,-400.58,0,0
363260.75,77.9264,-399.739,0,0
363521.075,78.4728,-398.882,0,0
363781.4,79.0686,-398.005,0,0
364041.725,79.643,-397.188,0,0
364302.05,80.316,-396.374,0,0
364562.375,80.9831,-395.614,0,0
364822.7,81.706,-394.842,0,0
365083.025,82.4344,-394.133,0,0
365343.35,83.2,-393.526,0,0
365603.675,83.9834,-392.938,0,0
365864.0,84.7611,-392.474,0,0
366124.325,85.4804,-392.124,0,0
366384.65,86.1683,-391.772,0,0
366644.975,86.7503,-391.434,0,0
366905.3,87.3142,-391.055,0,0
367165.625,87.8757,-390.703,0,0
367425.95,88.4353,-390.367,0,0
367686.275,88.9851,-390.04,0,0
367946.6,89.5411,-389.724,0,0
368206.925,90.0509,-389.47,0,0
368467.25,90.575,-389.222,0,0
368727.575,91.0753,-388.973,0,0
368987.9,91.5613,-388.76,0,0
369248.225,92.1188,-388.621,0,0
369508.55,92.6093,-388.519,0,0
369768.875,93.0503,-388.432,0,0
370029.2,93.4239,-388.376,0,0
370289.525,93.7305,-388.467,0,0
370549.85,93.9128,-388.555,0,0
370810.175,94.0153,-388.596,0,0
371070.5,93.9878,-388.594,0,0
371330.825,93.827,-388.547,0,0
371591.15,93.654,-388.391,0,0
371851.475,93.4095,-388.126,0,0
372111.8,93.1469,-387.711,0,0
372372.125,92.9803,-387.228,0,0
372632.45,92.8259,-386.689,0,0
372892.775,92.7123,-386.026,0,0
373153.1,92.6782,-385.38,0,0
373413.425,92.6957,-384.684,0,0
373673.75,92.7543,-383.933,0,0
373934.075,92.931,-383.212,0,0
374194.4,93.1109,-382.474,0,0
374454.725,93.3584,-381.812,0,0
374715.05,93.6478,-381.139,0,0
374975.375,93.9392,-380.529,0,0
375235.7,94.2698,-379.904,0,0
375496.025,94.5886,-379.37,0,0
375756.35,94.9237,-378.798,0,0
376016.675,95.2095,-378.269,0,0
376277.0,95.5247,-377.854,0,0
376537.325,95.7738,-377.384,0,0
376797.65,95.942,-376.903,0,0
377057.975,96.1098,-376.397,0,0
377318.3,96.2305,-375.848,0,0
377578.625,96.4026,-375.226,0,0
377838.95,96.5825,-374.575,0,0
378099.275,96.7817,-373.873,0,0
378359.6,97.0722,-373.135,0,0
378619.925,97.3818,-372.404,0,0
378880,97.7591,-371.678,0,0
379141,98.1459,-370.948,0,0
379401,98.6064,-370.272,0,0
379661,99.052,-369.606,0,0
379922,99.5725,-369.011,0,0
380182,100.059,-368.38,0,0
380442,100.575,-367.823,0,0
380703,101.065,-367.252,0,0
380963,101.573,-366.749,0,0
381223,102.016,-366.203,0,0
381483,102.513,-365.651,0,0
381744,102.977,-365.16,0,0
382004,103.466,-364.58,0,0
382264,103.948,-364.006,0,0
382525,104.485,-363.427,0,0
382785,105.046,-362.869,0,0
383045,105.579,-362.316,0,0
383306,106.203,-361.826,0,0
383566,106.833,-361.347,0,0
383826,107.366,-360.856,0,0
384087,108.048,-360.369,0,0
384347,108.636,-359.909,0,0
384607,109.303,-359.489,0,0
384868,109.971,-359.096,0,0
385128,110.548,-358.801,0,0
385388,111.135,-358.489,0,0
385649,111.669,-358.127,0,0
385909,112.195,-357.751,0,0
386169,112.743,-357.376,0,0
386430,113.254,-356.93,0,0
386690,113.812,-356.536,0,0
386950,114.373,-356.14,0,0
387211,114.92,-355.753,0,0
387471,115.486,-355.362,0,0
387731,116.01,-354.932,0,0
387992,116.552,-354.402,0,0
388252,117.086,-353.848,0,0
388512,117.7,-353.269,0,0
388773,118.375,-352.658,0,0
389033,119.197,-352.004,0,0
389293,120.068,-351.44,0,0
389554,121.032,-350.903,0,0
389814,122.108,-350.455,0,0
390074,123.157,-350.102,0,0
390335,124.215,-349.826,0,0
390595,125.259,-349.631,0,0
390855,126.295,-349.486,0,0
391116,127.284,-349.368,0,0
391376,128.231,-349.322,0,0
391636,129.157,-349.271,0,0
391896,130.04,-349.229,0,0
392157,130.914,-349.183,0,0
392417,131.807,-349.129,0,0
392677,132.68,-349.082,0,0
392938,133.56,-349.119,0,0
393198,134.387,-349.114,0,0
393458,135.193,-349.116,0,0
393719,136.009,-349.05,0,0
393979,136.8,-348.986,0,0
394239,137.575,-348.848,0,0
394500,138.393,-348.734,0,0
394760.05,139.303,-348.508,0,0
395020.375,140.288,-348.293,0,0
395280.7,141.354,-348.097,0,0
395541.025,142.492,-347.852,0,0
395801.35,143.697,-347.704,0,0
396061.675,144.993,-347.567,0,0
396322.0,146.418,-347.498,0,0
396582.325,147.935,-347.478,0,0
396842.65,149.541,-347.572,0,0
397102.975,151.213,-347.803,0,0
397363.3,152.924,-348.121,0,0
397623.625,154.697,-348.631,0,0
397883.95,156.503,-349.223,0,0
398144.275,158.351,-350.042,0,0
398404.6,160.166,-351.002,0,0
398664.925,162.018,-352.155,0,0
398925.25,163.791,-353.496,0,0
399185.575,165.528,-355.019,0,0
399445.9,167.158,-356.806,0,0
399706.225,168.673,-358.815,0,0
399966.55,170.008,-360.977,0,0
400006.6,170.207,-361.332,0,0