File: Accelerated corrosion test data/2025-10-17_06-00-03/sample_3.csv
Frequency (Hz),Impedance (ohms),Phase (Radians),Temperature (C),Humidity (%)
10000.0,250.134,-11883.4,0,0
10260.325,243.635,-11583.5,0,0
10520.65,238.322,-11298.4,0,0
10780.975,234.264,-11026.5,0,0
11041.3,228.459,-10772.5,0,0
11301.625,222.924,-10525.6,0,0
11561.95,217.896,-10289.7,0,0
11822.275,213.332,-10064.1,0,0
12082.6,210.589,-9849.34,0,0
12342.925,209.357,-9641.96,0,0
12603.25,202.302,-9445.97,0,0
12863.575,198.329,-9254.61,0,0
13123.9,197.977,-9070.16,0,0
13384.225,191.732,-8900.88,0,0
13644.55,189.411,-8731.25,0,0
13904.875,185.299,-8566.42,0,0
14165.2,184.643,-8408.98,0,0
14425.525,180.603,-8258.21,0,0
14685.8,178.667,-8111.15,0,0
14946.175,176.015,-7972.62,0,0
15206.5,172.929,-7829.71,0,0
15466.825,182.435,-7687.98,0,0
15727.15,190.724,-7592.1,0,0
15987.5,172.765,-7474.55,0,0
16247.8,167.147,-7344.07,0,0
16508.125,160.725,-7230.79,0,0
16768.45,167.152,-7109.48,0,0
17028.775,156.898,-7010.36,0,0
17289.1,161.059,-6896.09,0,0
17549.425,155.809,-6804.69,0,0
17809.75,156.179,-6697.81,0,0
18070.075,162.68,-6612.44,0,0
18330.4,151.136,-6515.77,0,0
18590.725,147.9,-6424.54,0,0
18851.05,144.843,-6333.04,0,0
19111.375,145.982,-6243.9,0,0
19371.7,144.57,-6159.67,0,0
19632.025,145.903,-6074.61,0,0
19892.35,148.847,-5993.33,0,0
20152.675,147.643,-5918.22,0,0
20413.0,158.566,-5838.84,0,0
20673.3,168.136,-5776.06,0,0
20933.65,163.832,-5717.22,0,0
21193.975,159.897,-5652.54,0,0
21454.3,145.505,-5592.11,0,0
21714.625,138.208,-5516,0,0
21974.9,142.833,-5449.38,0,0
22235.275,138.101,-5390.99,0,0
22495.6,135.924,-5328.33,0,0
22755.925,128.747,-5267.89,0,0
23016.25,127.877,-5208.12,0,0
23276.6,127.888,-5145.6,0,0
23536.9,128.965,-5099.7,0,0
23797.225,120.851,-5040.45,0,0
24057.55,118.767,-4982.54,0,0
24317.875,118.731,-4926.54,0,0
24578.2,117.052,-4877.02,0,0
24838.525,117.602,-4822.72,0,0
25098.85,115.583,-4775.77,0,0
25359.175,113.596,-4725.48,0,0
25619.5,113.12,-4677.1,0,0
25879.8,110.05,-4630.32,0,0
26140.1,108.4,-4582.77,0,0
26400.5,107.268,-4535.34,0,0
26660.8,107.047,-4489.84,0,0
26921.1,108.338,-4444.93,0,0
27181.4,109.024,-4404.18,0,0
27441.8,107.384,-4360.82,0,0
27702.1,107.809,-4320.99,0,0
27962.4,105.234,-4279.74,0,0
28222.7,103.006,-4236.75,0,0
28483.1,110.724,-4194.03,0,0
28743.4,113.72,-4159.17,0,0
29003.7,115.498,-4128.9,0,0
29264,107.999,-4096.39,0,0
29524.4,108.126,-4058.67,0,0
29784.7,103.977,-4023.81,0,0
30045,101.7,-3989.39,0,0
30305.3,100.776,-3951.76,0,0
30565.7,101.91,-3917.54,0,0
30826,101.42,-3885.06,0,0
31086.3,101.82,-3851.93,0,0
31346.6,98.725,-3821.64,0,0
31607,97.5857,-3787.34,0,0
31867.3,97.8414,-3753.21,0,0
32127.6,101.227,-3719.03,0,0
32387.9,110.248,-3690.82,0,0
32648.3,111.909,-3672.71,0,0
32908.6,103.881,-3649.18,0,0
33168.9,100.972,-3621.31,0,0
33429.2,99.1679,-3593.95,0,0
33689.6,93.2246,-3566.47,0,0
33949.9,90.6565,-3536.08,0,0
34210.2,90.4435,-3508.01,0,0
34470.5,89.707,-3481.23,0,0
34730.9,88.2233,-3455.35,0,0
34991.2,86.3125,-3428.4,0,0
35251.5,85.2923,-3401.95,0,0
35511.8,84.5903,-3376.77,0,0
35772.2,84.0644,-3351.18,0,0
36032.5,83.197,-3326.17,0,0
36292.8,82.5659,-3301.54,0,0
36553.1,82.3746,-3277.61,0,0
36813.5,81.3797,-3254.42,0,0
37073.8,80.674,-3230.54,0,0
37334.1,79.8656,-3207.56,0,0
37594.4,79.6472,-3184.81,0,0
37854.8,79.1107,-3162.43,0,0
38115.1,78.7581,-3140.16,0,0
38375.4,78.1178,-3118.25,0,0
38635.7,77.919,-3096.72,0,0
38896.1,77.3354,-3075.5,0,0
39156.4,77.117,-3054.38,0,0
39416.7,76.7355,-3033.85,0,0
39677,76.1053,-3013.52,0,0
39937.4,75.7175,-2993.3,0,0
40197.7,75.2634,-2973.23,0,0
40458,74.645,-2953.71,0,0
40718.3,74.4189,-2934.11,0,0
40978.7,74.0412,-2914.66,0,0
41239,74.2646,-2895.4,0,0
41499.3,74.1389,-2877.32,0,0
41759.6,74.1385,-2858.25,0,0
42020,73.7385,-2840.81,0,0
42280.275,73.3737,-2822.73,0,0
42540.6,72.9327,-2805.36,0,0
42800.925,72.9355,-2787.58,0,0
43061.25,72.3136,-2770.68,0,0
43321.575,71.888,-2753.18,0,0
43581.9,71.5766,-2735.92,0,0
43842.225,71.7691,-2719.03,0,0
44102.55,71.5978,-2702.38,0,0
44362.875,71.7849,-2686.61,0,0
44623.2,71.2651,-2670.85,0,0
44883.525,71.065,-2654.29,0,0
45143.85,70.8505,-2638.76,0,0
45404.175,70.2309,-2623.01,0,0
45664.5,70.1041,-2607.28,0,0
45924.825,70.727,-2591.97,0,0
46185.15,70.2713,-2577.57,0,0
46445.475,69.6515,-2562.41,0,0
46705.8,69.6289,-2547.08,0,0
46966.125,69.778,-2532.83,0,0
47226.45,69.4217,-2518.36,0,0
47486.775,69.5506,-2503.85,0,0
47747.1,69.9447,-2489.21,0,0
48007.425,70.1168,-2476.28,0,0
48267.75,70.264,-2462.9,0,0
48528.075,69.3387,-2449.73,0,0
48788.4,69.0827,-2436.62,0,0
49048.725,68.5273,-2423.28,0,0
49309.05,67.7389,-2409.75,0,0
49569.375,67.7082,-2396.37,0,0
49829.7,67.5556,-2383.6,0,0
50090.025,66.9995,-2370.8,0,0
50350.35,66.3777,-2357.72,0,0
50610.675,66.2342,-2344.69,0,0
50871.0,66.2136,-2331.99,0,0
51131.325,66.0007,-2319.49,0,0
51391.65,65.8344,-2306.9,0,0
51651.975,65.9871,-2294.42,0,0
51912.3,66.0163,-2282.52,0,0
52172.625,65.8763,-2270.47,0,0
52432.95,65.7279,-2258.24,0,0
52693.275,65.8773,-2246.27,0,0
52953.6,66.1464,-2234.27,0,0
53213.925,66.9279,-2222.41,0,0
53474.25,67.6997,-2211.64,0,0
53734.575,67.9478,-2200.77,0,0
53994.9,68.077,-2189.76,0,0
54255.225,69.0499,-2178.88,0,0
54515.55,70.0507,-2169.65,0,0
54775.875,69.1712,-2160.45,0,0
55036.2,68.5328,-2150.4,0,0
55296.525,67.7655,-2140.9,0,0
55556.85,66.6248,-2130.94,0,0
55817.175,65.0597,-2120.46,0,0
56077.5,64.128,-2109.88,0,0
56337.825,63.3848,-2099.12,0,0
56598.15,62.3478,-2088.6,0,0
56858.475,61.6936,-2077.94,0,0
57118.8,61.0907,-2066.96,0,0
57379.125,60.8817,-2056.3,0,0
57639.45,60.917,-2045.75,0,0
57899.775,61.0391,-2035.5,0,0
58160.1,61.033,-2025.48,0,0
58420.4,60.8867,-2015.54,0,0
58680.7,60.8522,-2005.42,0,0
58941.1,60.9414,-1995.5,0,0
59201.4,61.1297,-1985.63,0,0
59461.7,61.4711,-1975.91,0,0
59722,61.8362,-1966.3,0,0
59982.4,62.0669,-1956.89,0,0
60242.7,62.2633,-1947.51,0,0
60503,62.5651,-1938.2,0,0
60763.3,62.8555,-1928.95,0,0
61023.7,63.1355,-1919.77,0,0
61284,63.5603,-1910.61,0,0
61544.3,64.1133,-1901.41,0,0
61804.6,64.6852,-1892.82,0,0
62065,64.8156,-1883.79,0,0
62325.3,65.5645,-1874.75,0,0
62585.6,65.937,-1866.12,0,0
62845.9,66.5239,-1856.98,0,0
63106.3,67.6138,-1848.03,0,0
63366.6,68.8229,-1839.88,0,0
63626.9,69.6186,-1830.81,0,0
63887.2,71.1153,-1822.49,0,0
64147.6,72.3714,-1813.7,0,0
64407.9,75.0054,-1805.16,0,0
64668.2,77.5772,-1797.6,0,0
64928.5,80.2531,-1789.92,0,0
65188.9,84.1805,-1784.17,0,0
65449.2,86.868,-1779.04,0,0
65709.5,88.942,-1774.93,0,0
65969.8,92.0278,-1771.51,0,0
66230.2,91.9095,-1772.22,0,0
66490.5,85.9455,-1770.08,0,0
66750.8,81.1263,-1763.24,0,0
67011.1,78.2082,-1754.69,0,0
67271.5,75.8231,-1746.39,0,0
67531.8,74.7881,-1737.9,0,0
67792.1,74.7778,-1729.54,0,0
68052.4,74.9511,-1721.73,0,0
68312.8,76.0571,-1714.67,0,0
68573.1,76.1236,-1708.55,0,0
68833.4,76.0612,-1701.82,0,0
69093.7,76.8851,-1695.23,0,0
69354.1,77.4723,-1689.78,0,0
69614.4,77.132,-1684.59,0,0
69874.7,76.2094,-1678.95,0,0
70135,75.3534,-1673.28,0,0
70395.4,74.6613,-1667.26,0,0
70655.7,73.343,-1661.39,0,0
70916,72.0838,-1655.15,0,0
71176.3,71.0414,-1648.39,0,0
71436.7,70.3412,-1641.76,0,0
71697,69.4567,-1634.87,0,0
71957.3,69.5091,-1627.84,0,0
72217.6,69.6742,-1621.53,0,0
72478,69.8346,-1615.45,0,0
72738.3,69.8988,-1609.63,0,0
72998.6,69.6358,-1604.21,0,0
73258.9,69.1554,-1598.5,0,0
73519.3,68.6997,-1592.69,0,0
73779.6,68.3937,-1587.08,0,0
74039.9,67.685,-1581.69,0,0
74300.225,66.9712,-1575.97,0,0
74560.55,66.2015,-1570.32,0,0
74820.875,65.5045,-1564.65,0,0
75081.2,64.6824,-1558.82,0,0
75341.525,63.852,-1553.03,0,0
75601.85,63.1784,-1547.24,0,0
75862.175,62.3415,-1541.37,0,0
76122.5,61.6545,-1535.43,0,0
76382.825,60.9623,-1529.48,0,0
76643.15,60.4214,-1523.64,0,0
76903.475,59.8629,-1517.72,0,0
77163.8,59.3739,-1511.88,0,0
77424.125,58.8617,-1506.15,0,0
77684.45,58.3877,-1500.4,0,0
77944.775,57.8276,-1494.63,0,0
78205.1,57.3133,-1488.84,0,0
78465.425,56.8743,-1483.13,0,0
78725.75,56.4076,-1477.41,0,0
78986.075,56.0251,-1471.7,0,0
79246.4,55.6556,-1466.04,0,0
79506.725,55.2719,-1460.35,0,0
79767.05,54.9815,-1454.64,0,0
80027.375,54.6582,-1449.01,0,0
80287.7,54.5395,-1443.49,0,0
80548.025,54.2407,-1437.89,0,0
80808.35,54.0142,-1432.37,0,0
81068.675,53.7476,-1426.94,0,0
81329.0,53.58,-1421.47,0,0
81589.325,53.3891,-1416,0,0
81849.65,53.299,-1410.62,0,0
82109.975,53.1059,-1405.28,0,0
82370.3,52.9839,-1399.92,0,0
82630.625,52.8612,-1394.62,0,0
82890.95,52.8672,-1389.36,0,0
83151.275,52.7258,-1384.13,0,0
83411.6,52.6418,-1378.94,0,0
83671.925,52.5533,-1373.77,0,0
83932.25,52.5029,-1368.54,0,0
84192.575,52.4911,-1363.48,0,0
84452.9,52.4453,-1358.41,0,0
84713.225,52.4504,-1353.33,0,0
84973.55,52.4276,-1348.37,0,0
85233.875,52.4135,-1343.27,0,0
85494.2,52.4159,-1338.3,0,0
85754.525,52.4645,-1333.31,0,0
86014.85,52.4863,-1328.48,0,0
86275.175,52.4321,-1323.6,0,0
86535.5,52.5238,-1318.66,0,0
86795.825,52.5782,-1313.77,0,0
87056.15,52.567,-1308.92,0,0
87316.475,52.6144,-1304.12,0,0
87576.8,52.7145,-1299.24,0,0
87837.125,52.9315,-1294.49,0,0
88097.45,53.0342,-1289.76,0,0
88357.775,53.084,-1285.03,0,0
88618.1,53.2661,-1280.19,0,0
88878.425,53.5427,-1275.31,0,0
89138.75,53.8959,-1270.52,0,0
89399.075,54.2594,-1265.84,0,0
89659.4,54.9365,-1261.25,0,0
89919.725,55.4188,-1256.89,0,0
90180,55.8201,-1252.6,0,0
90440.4,56.2426,-1248.24,0,0
90700.7,56.4865,-1243.97,0,0
90961,56.9033,-1239.67,0,0
91221.3,57.4347,-1235.48,0,0
91481.7,57.864,-1231.27,0,0
91742,58.3773,-1227.2,0,0
92002.3,58.7417,-1223.2,0,0
92262.6,59.2541,-1219.03,0,0
92523,60.0533,-1215.09,0,0
92783.3,60.66,-1211.51,0,0
93043.6,60.9674,-1207.77,0,0
93303.9,61.6263,-1204.02,0,0
93564.3,62.3341,-1200.69,0,0
93824.6,62.9118,-1197.6,0,0
94084.9,63.353,-1194.99,0,0
94345.2,62.9295,-1192.43,0,0
94605.6,62.3623,-1189.4,0,0
94865.9,61.7464,-1186.5,0,0
95126.2,60.6174,-1183.51,0,0
95386.5,59.0496,-1179.72,0,0
95646.9,58.071,-1175.5,0,0
95907.2,57.3234,-1171.27,0,0
96167.5,56.5938,-1166.98,0,0
96427.8,56.1582,-1162.35,0,0
96688.2,56.1645,-1158.01,0,0
96948.5,56.0881,-1153.88,0,0
97208.8,56.0477,-1149.84,0,0
97469.1,55.9885,-1145.85,0,0
97729.5,55.8991,-1141.89,0,0
97989.8,55.8496,-1137.87,0,0
98250.1,55.831,-1133.95,0,0
98510.4,55.8177,-1130.01,0,0
98770.8,55.8626,-1126.17,0,0
99031.1,55.8267,-1122.43,0,0
99291.4,55.6474,-1118.64,0,0
99551.7,55.4723,-1114.76,0,0
99812.1,55.4043,-1110.83,0,0
100072,55.249,-1106.94,0,0
100333,55.1591,-1103.06,0,0
100593,55.1,-1099.12,0,0
100853,54.9807,-1095.04,0,0
101114,55.0459,-1090.91,0,0
101374,55.1098,-1086.88,0,0
101634,55.2916,-1082.78,0,0
101895,55.5413,-1078.69,0,0
102155,55.8652,-1074.53,0,0
102415,56.4179,-1070.31,0,0
102676,57.358,-1066.25,0,0
102936,58.3716,-1062.71,0,0
103196,59.076,-1059.32,0,0
103457,59.7157,-1055.97,0,0
103717,60.3162,-1052.58,0,0
103977,61.0043,-1049.09,0,0
104238,62.0347,-1045.91,0,0
104498,63.0056,-1043.23,0,0
104758,63.4262,-1040.8,0,0
105019,63.6155,-1038.18,0,0
105279,63.5426,-1035.47,0,0
105539,63.5905,-1032.6,0,0
105800,63.5974,-1029.84,0,0
106060,63.4417,-1027.09,0,0
106320.175,63.0438,-1024.3,0,0
106580.5,62.7067,-1021.25,0,0
106840.825,62.3879,-1018.29,0,0
107101.15,61.9088,-1015.22,0,0
107361.475,61.5063,-1011.95,0,0
107621.8,61.0683,-1008.7,0,0
107882.125,60.6692,-1005.31,0,0
108142.45,60.329,-1001.9,0,0
108402.775,59.9849,-998.453,0,0
108663.1,59.5313,-994.961,0,0
108923.425,59.2067,-991.225,0,0
109183.75,59.047,-987.431,0,0
109444.075,59.1375,-983.672,0,0
109704.4,59.1414,-980.075,0,0
109964.725,59.1212,-976.352,0,0
110225.05,59.2144,-972.659,0,0
110485.375,59.3173,-968.786,0,0
110745.7,59.8416,-964.945,0,0
111006.025,60.4676,-961.465,0,0
111266.35,60.9541,-958.101,0,0
111526.675,61.3611,-954.58,0,0
111787.0,61.7768,-951.32,0,0
112047.325,62.3239,-948.03,0,0
112307.65,62.8231,-944.863,0,0
112567.975,63.1878,-941.687,0,0
112828.3,63.5749,-938.513,0,0
113088.625,63.9184,-935.385,0,0
113348.95,64.1677,-932.247,0,0
113609.275,64.4377,-929.082,0,0
113869.6,64.6731,-925.797,0,0
114129.925,64.9942,-922.571,0,0
114390.25,65.229,-919.381,0,0
114650.575,65.4811,-915.919,0,0
114910.9,65.8275,-912.488,0,0
115171.225,66.306,-908.983,0,0
115431.55,66.9911,-905.544,0,0
115691.875,67.5878,-902.324,0,0
115952.2,68.122,-898.981,0,0
116212.525,68.7894,-895.533,0,0
116472.85,69.5905,-892.037,0,0
116733.175,70.6159,-888.775,0,0
116993.5,71.557,-885.654,0,0
117253.825,72.4041,-882.5,0,0
117514.15,73.2727,-879.099,0,0
117774.475,74.6295,-875.526,0,0
118034.8,76.5444,-872.496,0,0
118295.125,78.2646,-870.072,0,0
118555.45,79.7079,-867.919,0,0
118815.775,80.6193,-865.728,0,0
119076.1,81.6061,-862.999,0,0
119336.425,83.144,-860.309,0,0
119596.75,85.0923,-858.165,0,0
119857.075,86.8008,-856.615,0,0
120117.4,88.4826,-855.395,0,0
120377.725,89.476,-854.947,0,0
120638.05,89.4976,-854.12,0,0
120898.375,89.5641,-853.067,0,0
121158.7,89.0686,-852.029,0,0
121419.025,88.2039,-850.484,0,0
121679.35,87.2432,-848.437,0,0
121939.675,86.4484,-845.792,0,0
122200.0,86.1206,-842.921,0,0
122460,86.132,-840.126,0,0
122721,86.2325,-837.449,0,0
122981,86.4354,-834.696,0,0
123241,86.8993,-832.066,0,0
123502,87.3589,-829.746,0,0
123762,87.6143,-827.473,0,0
124022,87.9387,-825.061,0,0
124283,88.2964,-822.755,0,0
124543,88.6606,-820.53,0,0
124803,88.9819,-818.309,0,0
125064,89.3443,-816.09,0,0
125324,89.6542,-813.993,0,0
125584,90.0009,-811.939,0,0
125845,90.3152,-810.013,0,0
126105,90.468,-808.2,0,0
126365,90.4512,-806.408,0,0
126626,90.2396,-804.465,0,0
126886,90.0817,-802.332,0,0
127146,89.9629,-800.242,0,0
127406,89.8294,-798.203,0,0
127667,89.5992,-796.126,0,0
127927,89.3295,-794.052,0,0
128187,88.9353,-791.877,0,0
128448,88.4938,-789.636,0,0
128708,88.0187,-787.225,0,0
128968,87.6906,-784.637,0,0
129229,87.4352,-782.024,0,0
129489,87.2997,-779.476,0,0
129749,87.0864,-776.905,0,0
130010,86.8572,-774.174,0,0
130270,86.9566,-771.253,0,0
130530,87.3318,-768.585,0,0
130791,87.751,-766.198,0,0
131051,88.0575,-764.062,0,0
131311,88.0993,-762.002,0,0
131572,88.0451,-759.903,0,0
131832,87.8441,-757.757,0,0
132092,87.5572,-755.448,0,0
132353,87.3029,-753.044,0,0
132613,87.1729,-750.572,0,0
132873,87.1393,-748.163,0,0
133134,86.9924,-745.906,0,0
133394,86.7721,-743.578,0,0
133654,86.4824,-741.275,0,0
133915,86.0553,-738.858,0,0
134175,85.675,-736.227,0,0
134435,85.5156,-733.604,0,0
134696,85.2908,-731.1,0,0
134956,84.9833,-728.578,0,0
135216,84.6506,-725.881,0,0
135477,84.4383,-723.167,0,0
135737,84.2296,-720.583,0,0
135997,83.9215,-717.977,0,0
136258,83.4822,-715.234,0,0
136518,83.0465,-712.23,0,0
136778,82.8536,-709.105,0,0
137039,82.8633,-706.039,0,0
137299,82.902,-702.988,0,0
137559,83.0249,-699.981,0,0
137819,83.2402,-697.029,0,0
138080,83.5005,-694.156,0,0
138340.125,83.8038,-691.389,0,0
138600.45,84.132,-688.723,0,0
138860.775,84.3656,-686.221,0,0
139121.1,84.42,-683.746,0,0
139381.425,84.3542,-681.27,0,0
139641.75,84.1217,-678.683,0,0
139902.075,83.8471,-675.898,0,0
140162.4,83.692,-672.955,0,0
140422.725,83.754,-670.065,0,0
140683.05,83.7107,-667.282,0,0
140943.375,83.5191,-664.53,0,0
141203.7,83.3253,-661.64,0,0
141464.025,83.1053,-658.704,0,0
141724.35,82.8316,-655.692,0,0
141984.675,82.6004,-652.481,0,0
142245.0,82.4886,-649.241,0,0
142505.325,82.3994,-646.01,0,0
142765.65,82.2702,-642.704,0,0
143025.975,82.2396,-639.307,0,0
143286.3,82.2674,-635.877,0,0
143546.625,82.3438,-632.451,0,0
143806.95,82.4167,-628.976,0,0
144067.275,82.5329,-625.439,0,0
144327.6,82.7085,-621.837,0,0
144587.925,82.9724,-618.17,0,0
144848.25,83.3195,-614.557,0,0
145108.575,83.7665,-610.943,0,0
145368.9,84.185,-607.331,0,0
145629.225,84.5779,-603.714,0,0
145889.55,84.9556,-600.046,0,0
146149.875,85.3635,-596.18,0,0
146410.2,85.9988,-592.23,0,0
146670.525,86.7177,-588.394,0,0
146930.85,87.3906,-584.562,0,0
147191.175,88.1429,-580.603,0,0
147451.5,88.9358,-576.643,0,0
147711.825,89.8713,-572.551,0,0
147972.15,90.9717,-568.494,0,0
148232.475,92.1073,-564.477,0,0
148492.8,93.348,-560.438,0,0
148753.125,94.6314,-556.415,0,0
149013.45,95.9575,-552.324,0,0
149273.775,97.4037,-548.123,0,0
149534.1,99.0704,-543.845,0,0
149794.425,101.03,-539.625,0,0
150054.75,103.161,-535.575,0,0
150315.075,105.385,-531.651,0,0
150575.4,107.715,-527.839,0,0
150835.725,110.095,-524.175,0,0
151096.05,112.569,-520.592,0,0
151356.375,115.082,-517.17,0,0
151616.7,117.635,-513.79,0,0
151877.025,120.336,-510.574,0,0
152137.35,123.068,-507.648,0,0
152397.675,125.62,-504.936,0,0
152658.0,128.013,-502.239,0,0
152918.325,130.422,-499.533,0,0
153178.65,132.834,-497.011,0,0
153438.975,134.969,-494.584,0,0
153699.3,137.002,-492.07,0,0
153959.625,139.012,-489.479,0,0
154219.95,141.094,-486.955,0,0
154480,142.949,-484.735,0,0
154741,144.237,-482.304,0,0
155001,145.239,-479.2,0,0
155261,146.733,-475.526,0,0
155522,148.875,-471.767,0,0
155782,151.339,-468.438,0,0
156042,153.711,-465.343,0,0
156303,155.707,-462.261,0,0
156563,157.627,-458.761,0,0
156823,159.974,-454.845,0,0
157084,163.085,-450.951,0,0
157344,166.724,-447.581,0,0
157604,170.461,-444.925,0,0
157864,173.82,-442.647,0,0
158125,177.131,-440.742,0,0
158385,179.945,-439.796,0,0
158645,181.34,-438.562,0,0
158906,182.162,-436.502,0,0
159166,182.619,-433.82,0,0
159426,183.078,-430.19,0,0
159687,183.616,-425.851,0,0
159947,184.595,-420.374,0,0
160207,186.735,-414.183,0,0
160468,190.235,-408.08,0,0
160728,194.371,-402.813,0,0
160988,198.419,-398.135,0,0
161249,201.959,-393.233,0,0
161509,206.162,-387.132,0,0
161769,212.019,-381.111,0,0
162030,218.612,-376.589,0,0
162290,224.436,-372.781,0,0
162550,230.328,-368.49,0,0
162811,236.415,-364.48,0,0
163071,242.462,-360.067,0,0
163331,249.311,-355.077,0,0
163592,257.538,-350.256,0,0
163852,266.565,-346.472,0,0
164112,275.956,-343.496,0,0
164373,285.438,-340.942,0,0
164633,295.751,-338.848,0,0
164893,306.779,-337.624,0,0
165154,318.39,-338.095,0,0
165414,329.15,-340.296,0,0
165674,339.021,-342.812,0,0
165935,348.803,-345.898,0,0
166195,358.108,-349.41,0,0
166455,367.669,-353.335,0,0
166716,377.159,-358.861,0,0
166976,385.35,-365.425,0,0
167236,392.338,-372.063,0,0
167497,398.728,-378.902,0,0
167757,404.423,-385.964,0,0
168017,409.414,-393.15,0,0
168277,413.773,-400.33,0,0
168538,417.706,-407.44,0,0
168798,421.527,-414.744,0,0
169058,425.159,-422.723,0,0
169319,427.695,-432.064,0,0
169579,427.771,-441.807,0,0
169839,425.688,-450.357,0,0
170100,422.516,-456.886,0,0
170360.075,419.204,-461.901,0,0
170620.4,416.067,-465.605,0,0
170880.725,413.525,-468.502,0,0
171141.05,411.127,-471.075,0,0
171401.375,408.666,-472.659,0,0
171661.7,407.209,-473.239,0,0
171922.025,406.811,-474.116,0,0
172182.35,406.34,-475.3,0,0
172442.675,405.907,-476.108,0,0
172703.0,406.065,-476.015,0,0
172963.325,407.888,-475.944,0,0
173223.65,410.826,-477.532,0,0
173483.975,412.959,-480.807,0,0
173744.3,413.695,-484.199,0,0
174004.625,413.991,-486.761,0,0
174264.95,414.979,-488.861,0,0
174525.275,416.794,-491.911,0,0
174785.6,417.776,-496.284,0,0
175045.925,417.273,-500.566,0,0
175306.25,416.11,-503.799,0,0
175566.575,415.725,-505.918,0,0
175826.9,416.514,-508.873,0,0
176087.225,416.918,-513.258,0,0
176347.55,416.113,-517.905,0,0
176607.875,415.15,-522.352,0,0
176868.2,413.73,-527.999,0,0
177128.525,409.926,-534.103,0,0
177388.85,404.214,-538.555,0,0
177649.175,398.26,-541.058,0,0
177909.5,392.655,-542.517,0,0
178169.825,386.794,-543.441,0,0
178430.15,380.541,-542.969,0,0
178690.475,375.174,-540.732,0,0
178950.8,371.231,-537.779,0,0
179211.125,368.408,-534.928,0,0
179471.45,365.9,-532.283,0,0
179731.775,363.78,-529.064,0,0
179992.1,362.949,-525.62,0,0
180252.425,363.113,-522.913,0,0
180512.75,363.387,-520.929,0,0
180773.075,363.841,-519.074,0,0
181033.4,364.65,-517.631,0,0
181293.725,365.898,-516.568,0,0
181554.05,367.524,-516.48,0,0
181814.375,368.97,-517.493,0,0
182074.7,369.497,-519.686,0,0
182335.025,368.315,-521.908,0,0
182595.35,366.576,-523.277,0,0
182855.675,364.608,-524.229,0,0
183116.0,362.532,-525.015,0,0
183376.325,360.15,-525.814,0,0
183636.65,357.164,-526.419,0,0
183896.975,353.436,-526.438,0,0
184157.3,349.557,-525.26,0,0
184417.625,346.422,-523.349,0,0
184677.95,343.627,-521.694,0,0
184938.275,340.377,-519.756,0,0
185198.6,337.205,-517.047,0,0
185458.925,334.342,-513.797,0,0
185719.25,331.911,-510.186,0,0
185979.575,329.821,-506.292,0,0
186239.9,328.112,-502.09,0,0
186500,326.781,-497.568,0,0
186761,326.199,-492.683,0,0
187021,326.413,-488.058,0,0
187281,326.973,-483.763,0,0
187542,327.991,-479.693,0,0
187802,329.331,-476.093,0,0
188062,330.6,-472.927,0,0
188322,331.938,-469.873,0,0
188583,333.33,-467.296,0,0
188843,334.111,-465.107,0,0
189103,334.186,-462.372,0,0
189364,334.49,-458.724,0,0
189624,335.609,-454.718,0,0
189884,337.442,-450.99,0,0
190145,339.58,-447.78,0,0
190405,341.624,-444.966,0,0
190665,343.544,-442.273,0,0
190926,345.416,-439.653,0,0
191186,347.3,-437.139,0,0
191446,348.94,-434.687,0,0
191707,350.41,-432.031,0,0
191967,352.006,-429.041,0,0
192227,353.813,-426.132,0,0
192488,355.386,-423.225,0,0
192748,356.792,-419.802,0,0
193008,358.528,-415.674,0,0
193269,361.039,-411.081,0,0
193529,364.519,-406.499,0,0
193789,368.684,-402.48,0,0
194050,373.068,-398.86,0,0
194310,377.744,-395.45,0,0
194570,382.738,-392.355,0,0
194831,387.942,-389.583,0,0
195091,393.448,-386.931,0,0
195351,399.457,-384.619,0,0
195612,405.976,-382.887,0,0
195872,412.865,-382.11,0,0
196132,419.846,-382.445,0,0
196393,426.269,-383.532,0,0
196653,432.301,-385.583,0,0
196913,437.218,-388.564,0,0
197174,440.387,-391.563,0,0
197434,442.748,-393.287,0,0
197694,445.423,-394.376,0,0
197955,448.356,-395.358,0,0
198215,451.177,-396.444,0,0
198475,454.028,-397.304,0,0
198735,456.961,-398.565,0,0
198996,459.148,-399.976,0,0
199256,461.164,-400.756,0,0
199516,463.319,-401.267,0,0
199777,465.703,-401.937,0,0
200037,467.685,-403.019,0,0
200297,468.848,-403.895,0,0
200558,469.299,-403.852,0,0
200818,469.972,-402.357,0,0
201078,471.741,-400.136,0,0
201339,474.5,-397.971,0,0
201599,477.741,-396.02,0,0
201859,481.284,-394.182,0,0
202120,485.14,-392.304,0,0
202380.025,489.447,-390.338,0,0
202640.35,494.755,-388.562,0,0
202900.675,500.564,-387.572,0,0
203161.0,506.5,-387.119,0,0
203421.325,512.59,-387.075,0,0
203681.65,518.746,-387.619,0,0
203941.975,524.966,-388.564,0,0
204202.3,531.255,-390.118,0,0
204462.625,537.508,-392.396,0,0
204722.95,543.287,-395.37,0,0
204983.275,548.396,-398.647,0,0
205243.6,553.078,-402.182,0,0
205503.925,557.038,-405.884,0,0
205764.25,560.344,-409.492,0,0
206024.575,562.89,-413.187,0,0
206284.9,564.194,-415.996,0,0
206545.225,565.378,-417.151,0,0
206805.55,567.295,-417.202,0,0
207065.875,570.31,-416.457,0,0
207326.2,574.664,-415.65,0,0
207586.525,579.965,-415.593,0,0
207846.85,585.456,-416.127,0,0
208107.175,591.238,-416.712,0,0
208367.5,597.768,-417.571,0,0
208627.825,604.692,-419.301,0,0
208888.15,611.579,-421.65,0,0
209148.475,618.6,-424.524,0,0
209408.8,625.651,-427.927,0,0
209669.125,632.615,-431.998,0,0
209929.45,639.442,-436.564,0,0
210189.775,645.949,-441.606,0,0
210450.1,652.26,-446.959,0,0
210710.425,658.393,-452.605,0,0
210970.75,664.343,-458.706,0,0
211231.075,670.026,-465.251,0,0
211491.4,675.098,-472.141,0,0
211751.725,679.733,-479.094,0,0
212012.05,684.066,-485.91,0,0
212272.375,688.462,-492.734,0,0
212532.7,692.642,-499.594,0,0
212793.025,697.079,-506.715,0,0
213053.35,701.53,-514.293,0,0
213313.675,705.823,-522.532,0,0
213574.0,709.462,-531.326,0,0
213834.325,712.386,-540.303,0,0
214094.65,714.693,-549.095,0,0
214354.975,716.886,-557.731,0,0
214615.3,718.927,-566.511,0,0
214875.625,720.724,-575.476,0,0
215135.95,722.335,-584.755,0,0
215396.275,723.229,-594.416,0,0
215656.6,723.512,-604.047,0,0
215916.925,723.21,-613.309,0,0
216177.25,722.785,-622.237,0,0
216437.575,722.4,-631.199,0,0
216697.9,721.769,-640.443,0,0
216958.225,720.545,-650.003,0,0
217218.55,718.432,-659.208,0,0
217478.875,716.154,-667.936,0,0
217739.2,713.845,-676.341,0,0
217999.525,711.518,-684.845,0,0
218259.85,708.776,-693.555,0,0
218520,705.445,-702.122,0,0
218780,701.52,-709.989,0,0
219041,697.719,-717.317,0,0
219301,694.328,-724.299,0,0
219561,691.073,-731.396,0,0
219822,687.911,-738.843,0,0
220082,684.549,-746.592,0,0
220342,680.554,-754.492,0,0
220603,676.154,-762.467,0,0
220863,671.464,-770.293,0,0
221123,666.502,-777.874,0,0
221384,661.26,-785.518,0,0
221644,655.802,-793.242,0,0
221904,649.557,-801.317,0,0
222165,642.074,-809.156,0,0
222425,633.999,-816.188,0,0
222685,625.33,-822.516,0,0
222946,616.28,-828.102,0,0
223206,606.643,-832.988,0,0
223466,596.462,-836.652,0,0
223727,586.696,-838.618,0,0
223987,577.721,-839.812,0,0
224247,569.364,-840.259,0,0
224508,561.481,-840.137,0,0
224768,554.696,-839.242,0,0
225028,548.867,-838.55,0,0
225289,543.988,-837.987,0,0
225549,539.558,-837.774,0,0
225809,535.804,-837.999,0,0
226070,532.205,-838.791,0,0
226330,528.494,-840.251,0,0
226590,524.393,-841.77,0,0
226851,520.508,-843.068,0,0
227111,516.889,-844.646,0,0
227371,513.339,-846.97,0,0
227632,509.086,-849.866,0,0
227892,504.029,-852.537,0,0
228152,498.742,-854.781,0,0
228413,493.257,-856.959,0,0
228673,487.671,-858.582,0,0
228933,481.917,-859.961,0,0
229193,476.466,-860.849,0,0
229454,471.214,-861.888,0,0
229714,466.019,-863.039,0,0
229974,460.862,-864.16,0,0
230235,455.563,-865.073,0,0
230495,450.157,-866.052,0,0
230755,444.524,-866.988,0,0
231016,438.789,-867.556,0,0
231276,433.094,-867.91,0,0
231536,427.437,-868.065,0,0
231797,421.737,-867.911,0,0
232057,416.312,-867.613,0,0
232317,410.887,-867.217,0,0
232578,405.673,-866.651,0,0
232838,400.61,-866.051,0,0
233098,395.606,-865.428,0,0
233359,390.636,-864.688,0,0
233619,385.816,-863.944,0,0
233879,381.036,-863.187,0,0
234140,376.245,-862.309,0,0
234400,371.533,-861.303,0,0
234660.3,366.97,-860.277,0,0
234920.625,362.6,-859.416,0,0
235180.95,358.157,-858.635,0,0
235441.275,353.786,-857.948,0,0
235701.6,349.166,-857.2,0,0
235961.925,344.259,-856.528,0,0
236222.25,339.251,-855.537,0,0
236482.575,334.25,-854.251,0,0
236742.9,329.314,-852.791,0,0
237003.225,324.599,-851.261,0,0
237263.55,319.741,-849.833,0,0
237523.875,314.862,-848.299,0,0
237784.2,309.746,-846.545,0,0
238044.525,304.541,-844.427,0,0
238304.85,299.435,-841.868,0,0
238565.175,294.48,-839.022,0,0
238825.5,289.786,-835.908,0,0
239085.825,285.505,-832.628,0,0
239346.15,281.442,-829.129,0,0
239606.475,277.758,-825.749,0,0
239866.8,274.281,-822.37,0,0
240127.125,270.9,-819.054,0,0
240387.45,267.683,-815.863,0,0
240647.775,264.41,-812.651,0,0
240908.1,261.168,-809.161,0,0
241168.425,258.136,-805.629,0,0
241428.75,255.207,-802.117,0,0
241689.075,252.476,-798.232,0,0
241949.4,250.102,-794.277,0,0
242209.725,248.156,-790.43,0,0
242470.05,246.405,-786.797,0,0
242730.375,244.8,-783.313,0,0
242990.7,243.273,-779.809,0,0
243251.025,241.933,-776.436,0,0
243511.35,240.862,-773.129,0,0
243771.675,240.022,-770.083,0,0
244032.0,239.176,-767.393,0,0
244292.325,238.225,-764.944,0,0
244552.65,237.089,-762.411,0,0
244812.975,236.007,-760.022,0,0
245073.3,234.898,-757.8,0,0
245333.625,233.639,-755.566,0,0
245593.95,232.34,-753.19,0,0
245854.275,231.053,-750.769,0,0
246114.6,229.891,-748.27,0,0
246374.925,228.73,-745.833,0,0
246635.25,227.698,-743.278,0,0
246895.575,226.748,-740.758,0,0
247155.9,225.95,-738.386,0,0
247416.225,225.061,-736.058,0,0
247676.55,224.099,-733.717,0,0
247936.875,223.181,-731.334,0,0
248197.2,222.369,-728.801,0,0
248457.525,221.728,-726.196,0,0
248717.85,221.411,-723.582,0,0
248978.175,221.348,-721.113,0,0
249238.5,221.547,-718.994,0,0
249498.825,221.686,-717.241,0,0
249759.15,221.69,-715.704,0,0
250019.475,221.625,-714.417,0,0
250279.8,221.336,-713.313,0,0
250540,220.899,-712.333,0,0
250800,220.16,-711.422,0,0
251061,219.238,-710.4,0,0
251321,217.994,-709.401,0,0
251581,216.663,-708.202,0,0
251842,215.311,-706.851,0,0
252102,213.825,-705.384,0,0
252362,212.223,-703.772,0,0
252623,210.494,-701.953,0,0
252883,208.804,-699.829,0,0
253143,207.202,-697.47,0,0
253404,205.718,-694.964,0,0
253664,204.381,-692.271,0,0
253924,203.103,-689.441,0,0
254185,202.03,-686.396,0,0
254445,201.165,-683.256,0,0
254705,200.586,-679.958,0,0
254966,200.275,-676.781,0,0
255226,200.006,-673.57,0,0
255486,199.94,-670.283,0,0
255747,200.089,-666.877,0,0
256007,200.642,-663.392,0,0
256267,201.575,-659.956,0,0
256528,202.866,-656.788,0,0
256788,204.37,-653.848,0,0
257048,206.08,-651.311,0,0
257309,207.812,-649.037,0,0
257569,209.565,-647.076,0,0
257829,211.157,-645.312,0,0
258090,212.671,-643.61,0,0
258350,214.051,-641.879,0,0
258610,215.467,-640.023,0,0
258871,217.109,-638.024,0,0
259131,218.968,-635.997,0,0
259391,221.325,-634.027,0,0
259651,223.987,-632.366,0,0
259912,227.008,-631.104,0,0
260172,230.05,-630.238,0,0
260432,233.263,-629.733,0,0
260693,236.615,-629.665,0,0
260953,240.066,-630.069,0,0
261213,243.556,-631.188,0,0
261474,246.681,-633.08,0,0
261734,249.295,-635.437,0,0
261994,251.387,-638.054,0,0
262255,253.003,-640.939,0,0
262515,254.118,-643.999,0,0
262775,254.684,-647.126,0,0
263036,254.724,-650.209,0,0
263296,254.383,-653.122,0,0
263556,253.734,-655.968,0,0
263817,252.748,-658.766,0,0
264077,251.401,-661.423,0,0
264337,249.645,-663.963,0,0
264598,247.523,-666.226,0,0
264858,245.083,-668.06,0,0
265118,242.55,-669.692,0,0
265379,239.919,-671.049,0,0
265639,237.057,-672.078,0,0
265899,234.106,-672.774,0,0
266160,231.137,-673.193,0,0
266420,228.147,-673.377,0,0
266680.25,225.08,-673.16,0,0
266940.575,222.08,-672.66,0,0
267200.9,219.145,-671.838,0,0
267461.225,216.42,-670.726,0,0
267721.55,213.788,-669.41,0,0
267981.875,211.356,-667.832,0,0
268242.2,209.151,-666.118,0,0
268502.525,207.247,-664.313,0,0
268762.85,205.548,-662.428,0,0
269023.175,203.94,-660.556,0,0
269283.5,202.562,-658.639,0,0
269543.825,201.273,-656.769,0,0
269804.15,200.026,-654.836,0,0
270064.475,198.939,-652.795,0,0
270324.8,198.122,-650.693,0,0
270585.125,197.401,-648.643,0,0
270845.45,196.906,-646.598,0,0
271105.775,196.585,-644.665,0,0
271366.1,196.392,-642.82,0,0
271626.425,196.256,-641.099,0,0
271886.75,196.265,-639.456,0,0
272147.075,196.367,-638.024,0,0
272407.4,196.403,-636.822,0,0
272667.725,196.176,-635.746,0,0
272928.05,195.745,-634.531,0,0
273188.375,195.361,-633.051,0,0
273448.7,194.995,-631.442,0,0
273709.025,194.839,-629.673,0,0
273969.35,194.799,-627.809,0,0
274229.675,195.091,-625.882,0,0
274490.0,195.498,-624.15,0,0
274750.325,196.079,-622.426,0,0
275010.65,196.751,-620.843,0,0
275270.975,197.629,-619.25,0,0
275531.3,198.616,-617.777,0,0
275791.625,199.801,-616.38,0,0
276051.95,201.16,-615.167,0,0
276312.275,202.627,-614.14,0,0
276572.6,204.264,-613.321,0,0
276832.925,205.983,-612.793,0,0
277093.25,207.709,-612.567,0,0
277353.575,209.371,-612.657,0,0
277613.9,210.958,-612.941,0,0
277874.225,212.44,-613.463,0,0
278134.55,213.794,-614.177,0,0
278394.875,215.018,-615.108,0,0
278655.2,216.097,-616.195,0,0
278915.525,216.939,-617.454,0,0
279175.85,217.655,-618.816,0,0
279436.175,218.149,-620.345,0,0
279696.5,218.425,-621.946,0,0
279956.825,218.498,-623.674,0,0
280217.15,218.174,-625.386,0,0
280477.475,217.534,-627.098,0,0
280737.8,216.644,-628.669,0,0
280998.125,215.588,-630.007,0,0
281258.45,214.459,-631.162,0,0
281518.775,213.259,-632.299,0,0
281779.1,211.95,-633.356,0,0
282039.425,210.489,-634.319,0,0
282299.75,208.854,-635.101,0,0
282560,207.194,-635.738,0,0
282820,205.479,-636.215,0,0
283081,203.74,-636.62,0,0
283341,202.001,-636.85,0,0
283601,200.127,-636.973,0,0
283862,198.299,-636.936,0,0
284122,196.48,-636.769,0,0
284382,194.698,-636.487,0,0
284643,192.882,-636.133,0,0
284903,191.046,-635.588,0,0
285163,189.227,-634.931,0,0
285424,187.507,-634.139,0,0
285684,185.897,-633.146,0,0
285944,184.365,-632.062,0,0
286205,182.958,-630.893,0,0
286465,181.668,-629.652,0,0
286725,180.49,-628.327,0,0
286986,179.436,-626.956,0,0
287246,178.537,-625.55,0,0
287506,177.798,-624.09,0,0
287767,177.252,-622.674,0,0
288027,176.901,-621.323,0,0
288287,176.688,-620.105,0,0
288548,176.558,-619.037,0,0
288808,176.502,-618.101,0,0
289068,176.427,-617.287,0,0
289329,176.317,-616.624,0,0
289589,176.142,-616.066,0,0
289849,175.916,-615.535,0,0
290109,175.602,-615.031,0,0
290370,175.317,-614.519,0,0
290630,175.029,-614.043,0,0
290890,174.701,-613.69,0,0
291151,174.259,-613.336,0,0
291411,173.68,-612.994,0,0
291671,173.004,-612.559,0,0
291932,172.301,-612.051,0,0
292192,171.53,-611.433,0,0
292452,170.781,-610.662,0,0
292713,170.056,-609.819,0,0
292973,169.46,-608.791,0,0
293233,168.985,-607.694,0,0
293494,168.646,-606.542,0,0
293754,168.525,-605.398,0,0
294014,168.545,-604.319,0,0
294275,168.716,-603.359,0,0
294535,168.961,-602.474,0,0
294795,169.293,-601.716,0,0
295056,169.71,-601.009,0,0
295316,170.212,-600.448,0,0
295576,170.751,-600.117,0,0
295837,171.278,-599.949,0,0
296097,171.756,-599.957,0,0
296357,172.175,-600.108,0,0
296618,172.505,-600.355,0,0
296878,172.731,-600.75,0,0
297138,172.852,-601.243,0,0
297399,172.799,-601.806,0,0
297659,172.599,-602.437,0,0
297919,172.251,-603.045,0,0
298180,171.748,-603.642,0,0
298440,171.157,-604.166,0,0
298700.2,170.5,-604.658,0,0
298960.525,169.751,-605.098,0,0
299220.85,168.944,-605.558,0,0
299481.175,168.071,-605.913,0,0
299741.5,167.15,-606.241,0,0
300001.825,166.109,-606.555,0,0
300262.15,165.058,-606.833,0,0
300522.475,163.909,-607.07,0,0
300782.8,162.748,-607.225,0,0
301043.125,161.498,-607.306,0,0
301303.45,160.242,-607.319,0,0
301563.775,158.9,-607.285,0,0
301824.1,157.531,-607.131,0,0
302084.425,156.143,-606.904,0,0
302344.75,154.766,-606.552,0,0
302605.075,153.417,-606.132,0,0
302865.4,152.122,-605.626,0,0
303125.725,150.833,-605.081,0,0
303386.05,149.589,-604.497,0,0
303646.375,148.369,-603.884,0,0
303906.7,147.16,-603.205,0,0
304167.025,145.954,-602.522,0,0
304427.35,144.773,-601.776,0,0
304687.675,143.616,-600.927,0,0
304948.0,142.492,-600.053,0,0
305208.325,141.42,-599.093,0,0
305468.65,140.413,-598.102,0,0
305728.975,139.496,-597.067,0,0
305989.3,138.636,-596.036,0,0
306249.625,137.853,-595.002,0,0
306509.95,137.137,-593.977,0,0
306770.275,136.441,-592.945,0,0
307030.6,135.852,-591.909,0,0
307290.925,135.331,-590.906,0,0
307551.25,134.864,-589.949,0,0
307811.575,134.44,-589.052,0,0
308071.9,134.043,-588.202,0,0
308332.225,133.664,-587.416,0,0
308592.55,133.284,-586.673,0,0
308852.875,132.9,-586.009,0,0
309113.2,132.496,-585.347,0,0
309373.525,132.07,-584.756,0,0
309633.85,131.646,-584.196,0,0
309894.175,131.156,-583.625,0,0
310154.5,130.701,-583.077,0,0
310414.825,130.215,-582.594,0,0
310675.15,129.653,-582.171,0,0
310935.475,128.988,-581.755,0,0
311195.8,128.254,-581.295,0,0
311456.125,127.465,-580.805,0,0
311716.45,126.64,-580.266,0,0
311976.775,125.747,-579.652,0,0
312237.1,124.831,-578.99,0,0
312497.425,123.922,-578.209,0,0
312757.75,123.004,-577.394,0,0
313018.075,122.114,-576.507,0,0
313278.4,121.23,-575.531,0,0
313538.725,120.371,-574.503,0,0
313799.05,119.564,-573.417,0,0
314059.375,118.801,-572.243,0,0
314319.7,118.079,-571.028,0,0
314580,117.419,-569.727,0,0
314840,116.9,-568.433,0,0
315101,116.458,-566.973,0,0
315361,116.154,-565.689,0,0
315621,115.983,-564.366,0,0
315882,115.838,-563.02,0,0
316142,115.962,-561.812,0,0
316402,116.012,-560.661,0,0
316663,116.122,-559.645,0,0
316923,116.209,-558.652,0,0
317183,116.385,-557.786,0,0
317444,116.525,-556.932,0,0
317704,116.683,-556.249,0,0
317964,116.786,-555.585,0,0
318225,116.772,-554.92,0,0
318485,116.808,-554.326,0,0
318745,116.757,-553.61,0,0
319006,116.7,-552.872,0,0
319266,116.784,-552.257,0,0
319526,116.782,-551.65,0,0
319787,116.766,-550.947,0,0
320047,116.826,-550.403,0,0
320307,116.86,-549.76,0,0
320567,116.94,-549.162,0,0
320828,117.006,-548.529,0,0
321088,117.17,-548.002,0,0
321348,117.32,-547.435,0,0
321609,117.511,-546.85,0,0
321869,117.777,-546.456,0,0
322129,118.082,-546.159,0,0
322390,118.318,-545.948,0,0
322650,118.539,-545.76,0,0
322910,118.788,-545.732,0,0
323171,118.963,-545.659,0,0
323431,119.006,-545.764,0,0
323691,119.119,-545.841,0,0
323952,119.048,-545.996,0,0
324212,118.984,-546.239,0,0
324472,118.804,-546.522,0,0
324733,118.448,-546.771,0,0
324993,118.108,-547.087,0,0
325253,117.47,-547.339,0,0
325514,116.888,-547.509,0,0
325774,116.182,-547.703,0,0
326034,115.504,-547.806,0,0
326295,114.653,-547.942,0,0
326555,113.861,-547.894,0,0
326815,113.049,-547.819,0,0
327076,112.082,-547.68,0,0
327336,111.139,-547.489,0,0
327596,110.324,-547.342,0,0
327857,109.372,-547.043,0,0
328117,108.457,-546.711,0,0
328377,107.518,-546.337,0,0
328638,106.599,-545.949,0,0
328898,105.617,-545.537,0,0
329158,104.795,-545.058,0,0
329419,103.881,-544.468,0,0
329679,103.067,-543.963,0,0
329939,102.147,-543.452,0,0
330200,101.293,-542.829,0,0
330460,100.535,-542.264,0,0
330720.15,99.6975,-541.753,0,0
330980.475,98.8197,-541.058,0,0
331240.8,97.9708,-540.546,0,0
331501.125,97.0601,-539.893,0,0
331761.45,96.281,-539.227,0,0
332021.775,95.327,-538.533,0,0
332282.1,94.4909,-537.823,0,0
332542.425,93.6352,-537.127,0,0
332802.75,92.7322,-536.362,0,0
333063.075,91.8522,-535.542,0,0
333323.4,90.9741,-534.703,0,0
333583.725,90.0969,-533.797,0,0
333844.05,89.1426,-532.885,0,0
334104.375,88.3524,-531.865,0,0
334364.7,87.4824,-530.895,0,0
334625.025,86.7049,-529.873,0,0
334885.35,85.8786,-528.82,0,0
335145.675,85.1138,-527.62,0,0
335406.0,84.4409,-526.448,0,0
335666.325,83.7881,-525.327,0,0
335926.65,83.1528,-524.134,0,0
336186.975,82.6044,-522.958,0,0
336447.3,81.9918,-521.694,0,0
336707.625,81.5372,-520.454,0,0
336967.95,80.9978,-519.229,0,0
337228.275,80.5653,-517.962,0,0
337488.6,80.1663,-516.761,0,0
337748.925,79.8332,-515.475,0,0
338009.25,79.4452,-514.185,0,0
338269.575,79.1271,-512.973,0,0
338529.9,78.77,-511.729,0,0
338790.225,78.5722,-510.412,0,0
339050.55,78.1922,-509.088,0,0
339310.875,77.9794,-507.72,0,0
339571.2,77.8766,-506.332,0,0
339831.525,77.8127,-505.005,0,0
340091.85,77.7876,-503.604,0,0
340352.175,77.8881,-502.183,0,0
340612.5,78.0407,-500.763,0,0
340872.825,78.2581,-499.467,0,0
341133.15,78.5496,-498.207,0,0
341393.475,78.8497,-497.035,0,0
341653.8,79.3127,-495.868,0,0
341914.125,79.7655,-494.795,0,0
342174.45,80.3483,-493.766,0,0
342434.775,80.815,-492.851,0,0
342695.1,81.3802,-492.017,0,0
342955.425,81.9356,-491.272,0,0
343215.75,82.5024,-490.591,0,0
343476.075,83.0266,-490.069,0,0
343736.4,83.4551,-489.565,0,0
343996.725,83.8994,-489.137,0,0
344257.05,84.2574,-488.833,0,0
344517.375,84.5386,-488.452,0,0
344777.7,84.7259,-488.183,0,0
345038.025,84.862,-487.848,0,0
345298.35,84.8578,-487.55,0,0
345558.675,84.8326,-487.176,0,0
345819.0,84.8503,-486.777,0,0
346079.325,84.8205,-486.344,0,0
346339.65,84.7553,-485.908,0,0
346599.975,84.7409,-485.481,0,0
346860,84.6894,-485.069,0,0
347121,84.6246,-484.585,0,0
347381,84.5084,-484.165,0,0
347641,84.3962,-483.719,0,0
347902,84.2882,-483.274,0,0
348162,84.098,-482.702,0,0
348422,83.8789,-482.145,0,0
348683,83.7042,-481.558,0,0
348943,83.5354,-480.855,0,0
349203,83.3894,-480.135,0,0
349464,83.3414,-479.329,0,0
349724,83.2464,-478.594,0,0
349984,83.3903,-477.786,0,0
350245,83.4654,-476.958,0,0
350505,83.6373,-476.236,0,0
350765,83.8483,-475.505,0,0
351025,84.1806,-474.815,0,0
351286,84.5646,-474.27,0,0
351546,84.9918,-473.824,0,0
351806,85.3608,-473.477,0,0
352067,85.7076,-473.156,0,0
352327,86.0139,-472.951,0,0
352587,86.2431,-472.838,0,0
352848,86.4515,-472.738,0,0
353108,86.4549,-472.698,0,0
353368,86.3853,-472.613,0,0
353629,86.2891,-472.579,0,0
353889,86.1224,-472.463,0,0
354149,85.8857,-472.331,0,0
354410,85.5956,-472.15,0,0
354670,85.2616,-471.911,0,0
354930,84.9612,-471.549,0,0
355191,84.6656,-471.225,0,0
355451,84.3227,-470.858,0,0
355711,83.9937,-470.463,0,0
355972,83.7252,-470.049,0,0
356232,83.3967,-469.61,0,0
356492,83.0586,-469.19,0,0
356753,82.7048,-468.702,0,0
357013,82.3077,-468.177,0,0
357273,82.0314,-467.601,0,0
357534,81.6615,-467.015,0,0
357794,81.3168,-466.35,0,0
358054,81.0359,-465.661,0,0
358315,80.8224,-464.958,0,0
358575,80.6333,-464.23,0,0
358835,80.5483,-463.532,0,0
359096,80.4598,-462.849,0,0
359356,80.3762,-462.171,0,0
359616,80.3631,-461.51,0,0
359877,80.3213,-460.833,0,0
360137,80.3648,-460.224,0,0
360397,80.3719,-459.635,0,0
360658,80.3232,-459.111,0,0
360918,80.2963,-458.572,0,0
361178,80.2628,-458.018,0,0
361438,80.2074,-457.465,0,0
361699,80.1563,-456.964,0,0
361959,80.0668,-456.418,0,0
362219,79.97,-455.77,0,0
362480,79.8738,-455.193,0,0
362740.1,79.8436,-454.523,0,0
363000.425,79.842,-453.859,0,0
363260.75,79.8334,-453.157,0,0
363521.075,80.0139,-452.466,0,0
363781.4,80.1277,-451.791,0,0
364041.725,80.3748,-451.187,0,0
364302.05,80.6085,-450.59,0,0
364562.375,80.9493,-450.093,0,0
364822.7,81.2229,-449.643,0,0
365083.025,81.5173,-449.307,0,0
365343.35,81.8901,-449.025,0,0
365603.675,82.1562,-448.845,0,0
365864.0,82.3173,-448.745,0,0
366124.325,82.467,-448.71,0,0
366384.65,82.4486,-448.796,0,0
366644.975,82.4417,-448.735,0,0
366905.3,82.2116,-448.699,0,0
367165.625,81.9376,-448.564,0,0
367425.95,81.6108,-448.44,0,0
367686.275,81.288,-448.257,0,0
367946.6,80.9351,-448.003,0,0
368206.925,80.4326,-447.752,0,0
368467.25,79.9887,-447.371,0,0
368727.575,79.455,-446.97,0,0
368987.9,78.8782,-446.367,0,0
369248.225,78.4311,-445.672,0,0
369508.55,78.0755,-444.843,0,0
369768.875,77.7492,-443.929,0,0
370029.2,77.67,-442.992,0,0
370289.525,77.6914,-442.028,0,0
370549.85,77.8557,-441.24,0,0
370810.175,78.0591,-440.454,0,0
371070.5,78.4292,-439.788,0,0
371330.825,78.743,-439.256,0,0
371591.15,79.1338,-438.869,0,0
371851.475,79.4341,-438.535,0,0
372111.8,79.7687,-438.399,0,0
372372.125,79.9808,-438.293,0,0
372632.45,80.0056,-438.276,0,0
372892.775,80.0149,-438.26,0,0
373153.1,79.8679,-438.221,0,0
373413.425,79.5829,-438.132,0,0
373673.75,79.2545,-438.036,0,0
373934.075,78.8264,-437.797,0,0
374194.4,78.4031,-437.431,0,0
374454.725,77.9958,-437.086,0,0
374715.05,77.5665,-436.626,0,0
374975.375,77.2027,-436.135,0,0
375235.7,76.7827,-435.592,0,0
375496.025,76.4217,-435.017,0,0
375756.35,76.0837,-434.31,0,0
376016.675,75.7703,-433.558,0,0
376277.0,75.5667,-432.825,0,0
376537.325,75.3857,-432.055,0,0
376797.65,75.3318,-431.321,0,0
377057.975,75.2594,-430.539,0,0
377318.3,75.2413,-429.761,0,0
377578.625,75.3488,-429.04,0,0
377838.95,75.4152,-428.35,0,0
378099.275,75.5223,-427.728,0,0
378359.6,75.6908,-427.074,0,0
378619.925,75.8315,-426.491,0,0
378880,75.9805,-425.92,0,0
379141,76.117,-425.384,0,0
379401,76.3341,-424.824,0,0
379661,76.5582,-424.341,0,0
379922,76.7718,-423.92,0,0
380182,77.0308,-423.566,0,0
380442,77.2301,-423.227,0,0
380703,77.4472,-422.986,0,0
380963,77.533,-422.794,0,0
381223,77.6159,-422.519,0,0
381483,77.5763,-422.292,0,0
381744,77.5713,-422.039,0,0
382004,77.5091,-421.755,0,0
382264,77.4823,-421.48,0,0
382525,77.41,-421.161,0,0
382785,77.346,-420.802,0,0
383045,77.3543,-420.542,0,0
383306,77.3027,-420.258,0,0
383566,77.2418,-419.98,0,0
383826,77.1849,-419.756,0,0
384087,77.0044,-419.523,0,0
384347,76.8187,-419.266,0,0
384607,76.6026,-418.971,0,0
384868,76.4499,-418.68,0,0
385128,76.1693,-418.326,0,0
385388,75.898,-417.947,0,0
385649,75.6101,-417.589,0,0
385909,75.3509,-417.161,0,0
386169,75.1198,-416.715,0,0
386430,74.7988,-416.256,0,0
386690,74.579,-415.712,0,0
386950,74.2715,-415.239,0,0
387211,74.0205,-414.697,0,0
387471,73.7712,-414.148,0,0
387731,73.4928,-413.53,0,0
387992,73.232,-412.952,0,0
388252,72.9776,-412.261,0,0
388512,72.7723,-411.556,0,0
388773,72.579,-410.804,0,0
389033,72.404,-410.052,0,0
389293,72.2443,-409.27,0,0
389554,72.1588,-408.451,0,0
389814,72.1297,-407.662,0,0
390074,72.078,-406.797,0,0
390335,72.1512,-405.948,0,0
390595,72.2431,-405.111,0,0
390855,72.4013,-404.252,0,0
391116,72.5327,-403.405,0,0
391376,72.8048,-402.538,0,0
391636,73.1166,-401.749,0,0
391896,73.5167,-400.963,0,0
392157,73.8773,-400.25,0,0
392417,74.3613,-399.532,0,0
392677,74.7938,-398.893,0,0
392938,75.3298,-398.353,0,0
393198,75.806,-397.816,0,0
393458,76.3098,-397.35,0,0
393719,76.821,-396.975,0,0
393979,77.367,-396.606,0,0
394239,77.8386,-396.321,0,0
394500,78.3093,-396.034,0,0
394760.05,78.7448,-395.743,0,0
395020.375,79.2129,-395.542,0,0
395280.7,79.5861,-395.389,0,0
395541.025,80.0078,-395.223,0,0
395801.35,80.4163,-395.126,0,0
396061.675,80.7963,-395.038,0,0
396322.0,81.1307,-394.952,0,0
396582.325,81.4473,-394.944,0,0
396842.65,81.8008,-394.955,0,0
397102.975,82.0317,-395.022,0,0
397363.3,82.291,-395.082,0,0
397623.625,82.425,-395.176,0,0
397883.95,82.5524,-395.304,0,0
398144.275,82.6422,-395.407,0,0
398404.6,82.6444,-395.556,0,0
398664.925,82.5973,-395.578,0,0
398925.25,82.5496,-395.682,0,0
399185.575,82.4771,-395.722,0,0
399445.9,82.3818,-395.764,0,0
399706.225,82.2221,-395.792,0,0
399966.55,82.0929,-395.8,0,0
400006.6,82.0686,-395.82,0,0