File: Accelerated corrosion test data/2025-10-17_06-00-03/sample_4.csv
Frequency (Hz),Impedance (ohms),Phase (Radians),Temperature (C),Humidity (%)
10000.0,262.26,-11922,0,0
10260.325,258.515,-11622.3,0,0
10520.65,248.953,-11337.3,0,0
10780.975,243.141,-11064.7,0,0
11041.3,238.229,-10805.6,0,0
11301.625,232.45,-10561.7,0,0
11561.95,226.992,-10324.9,0,0
11822.275,223.091,-10098.5,0,0
12082.6,218.249,-9882.58,0,0
12342.925,214.001,-9675.24,0,0
12603.25,211.916,-9474.83,0,0
12863.575,207.341,-9287.64,0,0
13123.9,206.061,-9108.19,0,0
13384.225,197.856,-8928.89,0,0
13644.55,194.534,-8757.28,0,0
13904.875,191.856,-8591.13,0,0
14165.2,192.686,-8427.3,0,0
14425.525,198.28,-8281.67,0,0
14685.8,199.96,-8166.18,0,0
14946.175,181.075,-8009,0,0
15206.5,179.462,-7862.98,0,0
15466.825,187.175,-7719.15,0,0
15727.15,187.354,-7620.55,0,0
15987.5,185.023,-7503.81,0,0
16247.8,169.519,-7373.11,0,0
16508.125,189.145,-7245.16,0,0
16768.45,177.14,-7144.29,0,0
17028.775,169.927,-7056.46,0,0
17289.1,159.344,-6942.53,0,0
17549.425,158.121,-6837.54,0,0
17809.75,154.627,-6736.32,0,0
18070.075,151.592,-6637.5,0,0
18330.4,153.298,-6541.26,0,0
18590.725,152.259,-6451.9,0,0
18851.05,148.804,-6367.26,0,0
19111.375,144.253,-6277.78,0,0
19371.7,141.912,-6192.23,0,0
19632.025,140.759,-6107.72,0,0
19892.35,143.035,-6026.89,0,0
20152.675,142.817,-5949.53,0,0
20413.0,139.717,-5875.72,0,0
20673.3,140.149,-5800.73,0,0
20933.65,136.557,-5727.06,0,0
21193.975,139.889,-5651.79,0,0
21454.3,150.912,-5585.65,0,0
21714.625,146.034,-5529.2,0,0
21974.9,148.434,-5457.75,0,0
22235.275,148.63,-5412.81,0,0
22495.6,134.844,-5355.01,0,0
22755.925,127.796,-5290.61,0,0
23016.25,124.349,-5228.05,0,0
23276.6,121.913,-5167.9,0,0
23536.9,120.418,-5109.91,0,0
23797.225,118.472,-5052.88,0,0
24057.55,116.522,-4997.08,0,0
24317.875,115.275,-4942.37,0,0
24578.2,113.585,-4889.48,0,0
24838.525,113.807,-4836.12,0,0
25098.85,113.89,-4785.11,0,0
25359.175,112.507,-4737.93,0,0
25619.5,111.463,-4688.36,0,0
25879.8,110.213,-4643.58,0,0
26140.1,107.525,-4594.95,0,0
26400.5,106.836,-4548.46,0,0
26660.8,105.575,-4502.12,0,0
26921.1,105.942,-4457.5,0,0
27181.4,104.881,-4412.69,0,0
27441.8,105.362,-4367.56,0,0
27702.1,108.587,-4323.28,0,0
27962.4,114.885,-4282.35,0,0
28222.7,120.294,-4254.33,0,0
28483.1,112.939,-4218.75,0,0
28743.4,109.516,-4177.89,0,0
29003.7,111.818,-4136.67,0,0
29264,117.317,-4104.6,0,0
29524.4,112.685,-4074.27,0,0
29784.7,108.13,-4042.24,0,0
30045,106.952,-4005.86,0,0
30305.3,101.103,-3972.04,0,0
30565.7,98.8694,-3935.76,0,0
30826,98.2357,-3901.67,0,0
31086.3,97.2925,-3866.83,0,0
31346.6,98.3991,-3833.64,0,0
31607,97.2799,-3803.11,0,0
31867.3,96.7827,-3770.57,0,0
32127.6,99.6566,-3739.89,0,0
32387.9,98.1069,-3714.02,0,0
32648.3,96.3461,-3684.44,0,0
32908.6,94.302,-3656.89,0,0
33168.9,91.6782,-3627.53,0,0
33429.2,89.2476,-3599.08,0,0
33689.6,87.8683,-3569.82,0,0
33949.9,87.0504,-3541.32,0,0
34210.2,87.2382,-3513.12,0,0
34470.5,85.6433,-3487.28,0,0
34730.9,84.4742,-3459.71,0,0
34991.2,83.8538,-3433.16,0,0
35251.5,83.7271,-3407.17,0,0
35511.8,82.6811,-3381.81,0,0
35772.2,82.2262,-3356.61,0,0
36032.5,81.2964,-3331.86,0,0
36292.8,80.5912,-3307.29,0,0
36553.1,80.1671,-3282.33,0,0
36813.5,80.1146,-3258.57,0,0
37073.8,80.3753,-3235.22,0,0
37334.1,79.4289,-3212.58,0,0
37594.4,78.4874,-3189.54,0,0
37854.8,78.5291,-3166.81,0,0
38115.1,77.7417,-3145.28,0,0
38375.4,76.9996,-3122.47,0,0
38635.7,76.5643,-3100.1,0,0
38896.1,76.9851,-3078.65,0,0
39156.4,76.3062,-3057.64,0,0
39416.7,76.0085,-3036.54,0,0
39677,75.7875,-3015.08,0,0
39937.4,76.6281,-2993.69,0,0
40197.7,78.2969,-2973.55,0,0
40458,79.6433,-2954.91,0,0
40718.3,79.2692,-2937.61,0,0
40978.7,78.3522,-2917.68,0,0
41239,80.2664,-2899.14,0,0
41499.3,81.9196,-2882.32,0,0
41759.6,78.5025,-2866.62,0,0
42020,77.2409,-2847.8,0,0
42280.275,75.7971,-2828.38,0,0
42540.6,78.1498,-2810.28,0,0
42800.925,78.0419,-2796.01,0,0
43061.25,74.9907,-2778.76,0,0
43321.575,75.1255,-2761.14,0,0
43581.9,74.0324,-2744.77,0,0
43842.225,73.3772,-2727.19,0,0
44102.55,73.2729,-2711.33,0,0
44362.875,71.9062,-2694.31,0,0
44623.2,72.0582,-2677.52,0,0
44883.525,71.8587,-2661.79,0,0
45143.85,70.9499,-2645.76,0,0
45404.175,70.2849,-2629.21,0,0
45664.5,70.8433,-2612.56,0,0
45924.825,72.4346,-2598.2,0,0
46185.15,71.0659,-2584.66,0,0
46445.475,69.8488,-2568.02,0,0
46705.8,70.9719,-2552.99,0,0
46966.125,71.419,-2539.51,0,0
47226.45,71.1905,-2524.79,0,0
47486.775,71.2463,-2511.92,0,0
47747.1,69.854,-2498.27,0,0
48007.425,69.1444,-2483.85,0,0
48267.75,68.0885,-2470.65,0,0
48528.075,67.6435,-2456.49,0,0
48788.4,66.6781,-2442.55,0,0
49048.725,66.0826,-2428.64,0,0
49309.05,65.7748,-2414.59,0,0
49569.375,65.1016,-2401.51,0,0
49829.7,64.5955,-2387.57,0,0
50090.025,64.394,-2374.52,0,0
50350.35,64.0242,-2361.03,0,0
50610.675,64.0546,-2347.92,0,0
50871.0,63.7982,-2335.01,0,0
51131.325,63.6959,-2322.04,0,0
51391.65,63.4458,-2309.07,0,0
51651.975,63.5005,-2296.25,0,0
51912.3,63.4908,-2283.55,0,0
52172.625,63.8003,-2270.66,0,0
52432.95,63.8566,-2258.56,0,0
52693.275,64.1576,-2245.74,0,0
52953.6,65.1377,-2233.02,0,0
53213.925,65.9576,-2221.05,0,0
53474.25,67.1467,-2209.04,0,0
53734.575,68.7496,-2197.22,0,0
53994.9,71.1257,-2185.96,0,0
54255.225,73.543,-2176.22,0,0
54515.55,75.5657,-2167.78,0,0
54775.875,75.4482,-2160.14,0,0
55036.2,74.181,-2151.64,0,0
55296.525,73.3107,-2141.77,0,0
55556.85,71.8273,-2133.13,0,0
55817.175,69.7014,-2122.93,0,0
56077.5,68.0904,-2112.31,0,0
56337.825,66.9361,-2101.47,0,0
56598.15,65.7437,-2090.16,0,0
56858.475,65.4945,-2078.85,0,0
57118.8,65.5391,-2067.82,0,0
57379.125,65.9903,-2057.35,0,0
57639.45,65.9982,-2047.15,0,0
57899.775,66.07,-2036.86,0,0
58160.1,66.2803,-2026.3,0,0
58420.4,67.2433,-2015.89,0,0
58680.7,68.0411,-2007.47,0,0
58941.1,67.3019,-1996.92,0,0
59201.4,68.4564,-1986.28,0,0
59461.7,70.2468,-1976.02,0,0
59722,72.6999,-1967.17,0,0
59982.4,75.1099,-1958.94,0,0
60242.7,76.4115,-1952.17,0,0
60503,76.9609,-1944.62,0,0
60763.3,79.3288,-1936.93,0,0
61023.7,80.3772,-1933.34,0,0
61284,78.3362,-1928.38,0,0
61544.3,74.5752,-1922.55,0,0
61804.6,70.9782,-1912.89,0,0
62065,69.8692,-1904.02,0,0
62325.3,68.6974,-1896.02,0,0
62585.6,65.8847,-1887.31,0,0
62845.9,64.7415,-1876.76,0,0
63106.3,64.4608,-1867.92,0,0
63366.6,63.9256,-1858.62,0,0
63626.9,63.9797,-1849.37,0,0
63887.2,64.3149,-1841.56,0,0
64147.6,63.0906,-1832.63,0,0
64407.9,63.6472,-1823.36,0,0
64668.2,64.2239,-1815.03,0,0
64928.5,64.4732,-1807.03,0,0
65188.9,64.8847,-1799.03,0,0
65449.2,64.9125,-1791.11,0,0
65709.5,64.9319,-1782.77,0,0
65969.8,66.1356,-1774.18,0,0
66230.2,67.2107,-1767.13,0,0
66490.5,67.6619,-1759.67,0,0
66750.8,68.2802,-1752.46,0,0
67011.1,68.9448,-1745.02,0,0
67271.5,70.0821,-1737.82,0,0
67531.8,71.1563,-1731.41,0,0
67792.1,72.0695,-1725.24,0,0
68052.4,73.0751,-1719.38,0,0
68312.8,73.4415,-1714.09,0,0
68573.1,73.6884,-1708.67,0,0
68833.4,73.1802,-1704.06,0,0
69093.7,71.477,-1698.99,0,0
69354.1,69.3937,-1693.27,0,0
69614.4,67.1133,-1686.24,0,0
69874.7,66.1775,-1678.83,0,0
70135,65.4536,-1671.98,0,0
70395.4,63.9775,-1664.86,0,0
70655.7,63.8332,-1656.61,0,0
70916,64.8904,-1650.11,0,0
71176.3,64.5361,-1644.27,0,0
71436.7,64.0377,-1638.12,0,0
71697,63.6848,-1632.49,0,0
71957.3,61.9783,-1626.84,0,0
72217.6,60.3751,-1620,0,0
72478,59.192,-1612.77,0,0
72738.3,58.1865,-1605.53,0,0
72998.6,57.4605,-1598.31,0,0
73258.9,57.0528,-1590.68,0,0
73519.3,57.2744,-1583.21,0,0
73779.6,57.5715,-1576.24,0,0
74039.9,58.0989,-1569.54,0,0
74300.225,58.0757,-1563.23,0,0
74560.55,58.312,-1556.24,0,0
74820.875,58.8904,-1549.69,0,0
75081.2,59.5677,-1543.23,0,0
75341.525,60.3643,-1537.33,0,0
75601.85,60.7323,-1531.62,0,0
75862.175,61.049,-1525.69,0,0
76122.5,61.4658,-1519.76,0,0
76382.825,62.0811,-1514.17,0,0
76643.15,62.1904,-1508.7,0,0
76903.475,62.0478,-1502.86,0,0
77163.8,62.8295,-1496.47,0,0
77424.125,64.042,-1491.29,0,0
77684.45,64.9476,-1486.4,0,0
77944.775,65.5144,-1482.05,0,0
78205.1,65.4322,-1477.67,0,0
78465.425,65.2292,-1473.17,0,0
78725.75,64.7094,-1468.69,0,0
78986.075,63.8624,-1464,0,0
79246.4,62.9184,-1458.83,0,0
79506.725,62.1476,-1453.49,0,0
79767.05,61.5558,-1447.99,0,0
80027.375,61.1413,-1442.5,0,0
80287.7,60.8588,-1436.99,0,0
80548.025,60.6313,-1431.59,0,0
80808.35,60.5211,-1426.17,0,0
81068.675,60.5024,-1421,0,0
81329.0,60.4572,-1415.9,0,0
81589.325,60.327,-1410.93,0,0
81849.65,60.0788,-1405.93,0,0
82109.975,59.8106,-1400.88,0,0
82370.3,59.5261,-1395.85,0,0
82630.625,59.3249,-1390.83,0,0
82890.95,59.1223,-1385.83,0,0
83151.275,58.8146,-1380.91,0,0
83411.6,58.4817,-1375.95,0,0
83671.925,58.2377,-1370.9,0,0
83932.25,58.0012,-1365.89,0,0
84192.575,57.8371,-1360.89,0,0
84452.9,57.6289,-1355.99,0,0
84713.225,57.4565,-1351.06,0,0
84973.55,57.3305,-1346.16,0,0
85233.875,57.1358,-1341.4,0,0
85494.2,57.0107,-1336.56,0,0
85754.525,56.778,-1331.85,0,0
86014.85,56.5388,-1327.05,0,0
86275.175,56.4046,-1322.2,0,0
86535.5,56.3332,-1317.45,0,0
86795.825,56.1834,-1312.86,0,0
87056.15,55.9527,-1308.27,0,0
87316.475,55.807,-1303.61,0,0
87576.8,55.6006,-1299.08,0,0
87837.125,55.2561,-1294.6,0,0
88097.45,54.7561,-1290.12,0,0
88357.775,54.1732,-1285.27,0,0
88618.1,53.8231,-1280.26,0,0
88878.425,53.6922,-1275.41,0,0
89138.75,53.5344,-1270.63,0,0
89399.075,53.3819,-1265.86,0,0
89659.4,53.3834,-1261.06,0,0
89919.725,53.3715,-1256.31,0,0
90180,53.3695,-1251.73,0,0
90440.4,53.3453,-1247.18,0,0
90700.7,53.2683,-1242.52,0,0
90961,53.2266,-1237.96,0,0
91221.3,53.0358,-1233.29,0,0
91481.7,53.1301,-1228.55,0,0
91742,53.2745,-1223.93,0,0
92002.3,53.5252,-1219.31,0,0
92262.6,53.8736,-1214.83,0,0
92523,54.245,-1210.51,0,0
92783.3,54.5361,-1206.28,0,0
93043.6,54.801,-1202.35,0,0
93303.9,54.8616,-1198.43,0,0
93564.3,54.7818,-1194.49,0,0
93824.6,54.7011,-1190.48,0,0
94084.9,54.4324,-1186.56,0,0
94345.2,53.9862,-1182.45,0,0
94605.6,53.5082,-1178.17,0,0
94865.9,53.1335,-1173.69,0,0
95126.2,52.9537,-1169.14,0,0
95386.5,52.8382,-1164.6,0,0
95646.9,52.737,-1160.04,0,0
95907.2,52.9049,-1155.49,0,0
96167.5,52.9652,-1151.1,0,0
96427.8,53.1746,-1146.69,0,0
96688.2,53.3576,-1142.38,0,0
96948.5,53.499,-1138.1,0,0
97208.8,53.6316,-1133.75,0,0
97469.1,53.79,-1129.46,0,0
97729.5,53.9166,-1125.19,0,0
97989.8,54.1549,-1120.74,0,0
98250.1,54.5244,-1116.39,0,0
98510.4,54.8957,-1112.17,0,0
98770.8,55.2736,-1107.84,0,0
99031.1,55.7712,-1103.52,0,0
99291.4,56.3529,-1099.37,0,0
99551.7,56.9723,-1095.35,0,0
99812.1,57.3853,-1091.34,0,0
100072,57.9131,-1087.14,0,0
100333,58.8192,-1082.95,0,0
100593,59.9739,-1079.11,0,0
100853,61.0639,-1075.85,0,0
101114,61.5741,-1072.7,0,0
101374,62.2302,-1069.41,0,0
101634,62.8475,-1066.62,0,0
101895,62.822,-1064.12,0,0
102155,62.1136,-1061.41,0,0
102415,60.9859,-1058.04,0,0
102676,59.9266,-1054.12,0,0
102936,59.1017,-1049.78,0,0
103196,58.4592,-1045.23,0,0
103457,58.0401,-1040.38,0,0
103717,58.0419,-1035.36,0,0
103977,58.4847,-1030.48,0,0
104238,59.0261,-1025.74,0,0
104498,59.659,-1020.95,0,0
104758,60.6032,-1016.27,0,0
105019,61.7168,-1011.69,0,0
105279,62.9607,-1007.39,0,0
105539,64.1909,-1003.15,0,0
105800,65.4804,-999.019,0,0
106060,66.8505,-994.964,0,0
106320.175,68.2479,-991.062,0,0
106580.5,69.7195,-987.304,0,0
106840.825,71.1641,-983.663,0,0
107101.15,72.5419,-980.145,0,0
107361.475,73.865,-976.624,0,0
107621.8,75.1121,-973.04,0,0
107882.125,76.5774,-969.371,0,0
108142.45,78.2239,-965.879,0,0
108402.775,79.9119,-962.423,0,0
108663.1,81.762,-959.26,0,0
108923.425,83.5753,-956.191,0,0
109183.75,85.4352,-953.294,0,0
109444.075,87.3408,-950.638,0,0
109704.4,89.0229,-948.305,0,0
109964.725,90.5076,-945.926,0,0
110225.05,91.9065,-943.555,0,0
110485.375,93.4477,-941.283,0,0
110745.7,94.7486,-939.192,0,0
111006.025,95.9358,-936.984,0,0
111266.35,97.0837,-934.942,0,0
111526.675,98.1725,-932.885,0,0
111787.0,99.1735,-930.792,0,0
112047.325,100.3,-928.666,0,0
112307.65,101.316,-926.699,0,0
112567.975,102.31,-924.809,0,0
112828.3,103.165,-922.994,0,0
113088.625,104.055,-921.153,0,0
113348.95,104.769,-919.449,0,0
113609.275,105.441,-917.686,0,0
113869.6,106.009,-915.996,0,0
114129.925,106.523,-914.281,0,0
114390.25,107.002,-912.463,0,0
114650.575,107.44,-910.678,0,0
114910.9,107.958,-909.031,0,0
115171.225,108.267,-907.457,0,0
115431.55,108.441,-905.889,0,0
115691.875,108.517,-904.233,0,0
115952.2,108.54,-902.508,0,0
116212.525,108.495,-900.824,0,0
116472.85,108.401,-899.127,0,0
116733.175,108.182,-897.367,0,0
116993.5,107.844,-895.479,0,0
117253.825,107.47,-893.533,0,0
117514.15,106.998,-891.428,0,0
117774.475,106.553,-889.15,0,0
118034.8,106.201,-886.611,0,0
118295.125,106.057,-883.985,0,0
118555.45,106.017,-881.444,0,0
118815.775,106.004,-878.704,0,0
119076.1,106.317,-875.685,0,0
119336.425,107.219,-872.716,0,0
119596.75,108.918,-870.259,0,0
119857.075,110.48,-868.868,0,0
120117.4,111.739,-868.053,0,0
120377.725,112.416,-867.743,0,0
120638.05,112.466,-867.65,0,0
120898.375,111.578,-867.58,0,0
121158.7,110.032,-866.809,0,0
121419.025,108.404,-865.415,0,0
121679.35,106.892,-863.59,0,0
121939.675,105.487,-861.503,0,0
122200.0,104.219,-859.169,0,0
122460,103.096,-856.758,0,0
122721,102.164,-854.18,0,0
122981,101.405,-851.632,0,0
123241,100.663,-849.164,0,0
123502,99.9562,-846.652,0,0
123762,99.2832,-844.126,0,0
124022,98.662,-841.53,0,0
124283,98.1192,-838.946,0,0
124543,97.6049,-836.391,0,0
124803,97.1151,-833.791,0,0
125064,96.8126,-831.201,0,0
125324,96.5737,-828.822,0,0
125584,96.228,-826.489,0,0
125845,95.912,-824.218,0,0
126105,95.5484,-822.137,0,0
126365,94.9851,-820.07,0,0
126626,94.2249,-818.02,0,0
126886,93.4247,-815.777,0,0
127146,92.617,-813.481,0,0
127406,91.7756,-811.123,0,0
127667,91.0299,-808.848,0,0
127927,90.176,-806.679,0,0
128187,89.0405,-804.556,0,0
128448,87.6943,-802.145,0,0
128708,86.3277,-799.528,0,0
128968,84.957,-796.861,0,0
129229,83.4823,-793.971,0,0
129489,82.0778,-790.87,0,0
129749,80.7557,-787.635,0,0
130010,79.4325,-784.227,0,0
130270,78.3154,-780.64,0,0
130530,77.4007,-777.061,0,0
130791,76.4691,-773.495,0,0
131051,75.6165,-769.807,0,0
131311,74.8598,-766.019,0,0
131572,74.2586,-762.22,0,0
131832,73.7668,-758.491,0,0
132092,73.2897,-754.754,0,0
132353,72.8593,-750.926,0,0
132613,72.5455,-747.097,0,0
132873,72.3569,-743.248,0,0
133134,72.1994,-739.47,0,0
133394,72.0938,-735.712,0,0
133654,71.9868,-731.941,0,0
133915,71.9852,-728.109,0,0
134175,72.0537,-724.294,0,0
134435,72.1787,-720.519,0,0
134696,72.3307,-716.755,0,0
134956,72.5269,-712.976,0,0
135216,72.7449,-709.185,0,0
135477,73.1215,-705.371,0,0
135737,73.575,-701.705,0,0
135997,74.0414,-698.054,0,0
136258,74.4847,-694.424,0,0
136518,74.9905,-690.771,0,0
136778,75.6209,-687.229,0,0
137039,76.1841,-683.762,0,0
137299,76.6927,-680.42,0,0
137559,77.0713,-677.07,0,0
137819,77.3823,-673.61,0,0
138080,77.6761,-670.032,0,0
138340.125,78.0041,-666.371,0,0
138600.45,78.4314,-662.659,0,0
138860.775,78.9106,-658.942,0,0
139121.1,79.3825,-655.144,0,0
139381.425,80.0017,-651.274,0,0
139641.75,80.7485,-647.478,0,0
139902.075,81.4786,-643.692,0,0
140162.4,82.27,-639.896,0,0
140422.725,83.0805,-636.039,0,0
140683.05,83.9974,-632.177,0,0
140943.375,85.0201,-628.341,0,0
141203.7,86.1093,-624.533,0,0
141464.025,87.261,-620.799,0,0
141724.35,88.4125,-617.08,0,0
141984.675,89.6062,-613.398,0,0
142245.0,90.823,-609.75,0,0
142505.325,92.0561,-606.128,0,0
142765.65,93.274,-602.476,0,0
143025.975,94.5461,-598.792,0,0
143286.3,95.8889,-595.162,0,0
143546.625,97.2261,-591.541,0,0
143806.95,98.5964,-587.92,0,0
144067.275,99.9547,-584.309,0,0
144327.6,101.315,-580.618,0,0
144587.925,102.757,-576.923,0,0
144848.25,104.22,-573.215,0,0
145108.575,105.731,-569.449,0,0
145368.9,107.352,-565.63,0,0
145629.225,109.104,-561.837,0,0
145889.55,110.898,-558.089,0,0
146149.875,112.745,-554.349,0,0
146410.2,114.697,-550.604,0,0
146670.525,116.731,-546.879,0,0
146930.85,118.798,-543.24,0,0
147191.175,120.908,-539.63,0,0
147451.5,123.074,-536.019,0,0
147711.825,125.237,-532.411,0,0
147972.15,127.472,-528.8,0,0
148232.475,129.761,-525.137,0,0
148492.8,132.169,-521.472,0,0
148753.125,134.676,-517.877,0,0
149013.45,137.235,-514.297,0,0
149273.775,139.857,-510.783,0,0
149534.1,142.425,-507.235,0,0
149794.425,145.109,-503.521,0,0
150054.75,148.038,-499.788,0,0
150315.075,151.127,-496.171,0,0
150575.4,154.328,-492.603,0,0
150835.725,157.642,-489.053,0,0
151096.05,161.175,-485.472,0,0
151356.375,164.978,-482.097,0,0
151616.7,168.876,-478.891,0,0
151877.025,172.81,-475.843,0,0
152137.35,176.848,-472.763,0,0
152397.675,181.327,-469.777,0,0
152658.0,186.073,-467.335,0,0
152918.325,190.639,-465.344,0,0
153178.65,195.092,-463.4,0,0
153438.975,199.679,-461.69,0,0
153699.3,204.249,-460.349,0,0
153959.625,208.644,-459.302,0,0
154219.95,212.884,-458.429,0,0
154480,216.986,-457.885,0,0
154741,220.624,-457.548,0,0
155001,223.753,-456.973,0,0
155261,226.902,-455.907,0,0
155522,230.366,-454.84,0,0
155782,234.2,-453.906,0,0
156042,237.912,-453.54,0,0
156303,241.113,-453.333,0,0
156563,244.136,-453.097,0,0
156823,246.771,-452.572,0,0
157084,249.524,-451.855,0,0
157344,252.387,-450.964,0,0
157604,255.282,-450.046,0,0
157864,258.097,-448.996,0,0
158125,261.25,-447.826,0,0
158385,264.659,-446.74,0,0
158645,268.168,-445.79,0,0
158906,271.819,-444.68,0,0
159166,276.122,-443.651,0,0
159426,281.006,-443.389,0,0
159687,285.429,-444.172,0,0
159947,289.383,-445.135,0,0
160207,293.174,-446.247,0,0
160468,296.562,-447.774,0,0
160728,299.725,-449.492,0,0
160988,302.163,-451.525,0,0
161249,303.889,-453.245,0,0
161509,305.212,-454.399,0,0
161769,306.716,-455.118,0,0
162030,308.233,-455.993,0,0
162290,309.461,-456.687,0,0
162550,310.731,-457.168,0,0
162811,311.735,-457.653,0,0
163071,312.477,-457.65,0,0
163331,313.448,-457.188,0,0
163592,314.56,-456.72,0,0
163852,315.688,-455.984,0,0
164112,316.9,-455.073,0,0
164373,318.252,-453.772,0,0
164633,320.091,-452.075,0,0
164893,322.466,-450.702,0,0
165154,324.763,-449.483,0,0
165414,327.07,-447.978,0,0
165674,329.777,-446.087,0,0
165935,333.051,-444.145,0,0
166195,337.208,-442.417,0,0
166455,341.529,-441.07,0,0
166716,346.505,-439.76,0,0
166976,351.967,-439.249,0,0
167236,358.001,-439.38,0,0
167497,363.835,-440.359,0,0
167757,369.761,-442.043,0,0
168017,375.599,-444.326,0,0
168277,381.12,-447.512,0,0
168538,386.125,-450.987,0,0
168798,390.947,-454.658,0,0
169058,395.926,-458.807,0,0
169319,400.718,-464.038,0,0
169579,404.496,-470.063,0,0
169839,407.639,-476.04,0,0
170100,410.657,-482.528,0,0
170360.075,412.975,-489.866,0,0
170620.4,414.134,-497.793,0,0
170880.725,413.967,-506.031,0,0
171141.05,412.252,-514.019,0,0
171401.375,409.397,-521.172,0,0
171661.7,406.195,-527.583,0,0
171922.025,402.455,-533.945,0,0
172182.35,397.597,-539.845,0,0
172442.675,392.085,-544.782,0,0
172703.0,386.155,-549.003,0,0
172963.325,379.594,-552.509,0,0
173223.65,372.737,-554.749,0,0
173483.975,365.956,-556.165,0,0
173744.3,359.07,-556.675,0,0
174004.625,352.526,-556.262,0,0
174264.95,346.291,-555.357,0,0
174525.275,340.243,-553.857,0,0
174785.6,334.575,-551.688,0,0
175045.925,329.276,-549.315,0,0
175306.25,323.973,-546.469,0,0
175566.575,318.948,-542.85,0,0
175826.9,314.617,-538.699,0,0
176087.225,310.816,-534.355,0,0
176347.55,307.495,-529.784,0,0
176607.875,304.721,-525.01,0,0
176868.2,302.441,-520.171,0,0
177128.525,300.662,-515.356,0,0
177388.85,299.23,-510.63,0,0
177649.175,298.116,-505.9,0,0
177909.5,297.425,-501.311,0,0
178169.825,296.957,-496.922,0,0
178430.15,296.547,-492.646,0,0
178690.475,296.296,-488.369,0,0
178950.8,296.207,-484.059,0,0
179211.125,296.383,-479.763,0,0
179471.45,296.848,-475.518,0,0
179731.775,297.583,-471.463,0,0
179992.1,298.445,-467.704,0,0
180252.425,299.31,-464.107,0,0
180512.75,300.179,-460.635,0,0
180773.075,301.013,-457.235,0,0
181033.4,301.874,-453.89,0,0
181293.725,302.74,-450.609,0,0
181554.05,303.556,-447.391,0,0
181814.375,304.352,-444.185,0,0
182074.7,305.083,-440.981,0,0
182335.025,305.766,-437.759,0,0
182595.35,306.369,-434.47,0,0
182855.675,306.9,-431.038,0,0
183116.0,307.445,-427.461,0,0
183376.325,307.994,-423.706,0,0
183636.65,308.631,-419.79,0,0
183896.975,309.362,-415.682,0,0
184157.3,310.238,-411.424,0,0
184417.625,311.256,-407.048,0,0
184677.95,312.457,-402.579,0,0
184938.275,313.758,-397.988,0,0
185198.6,315.265,-393.268,0,0
185458.925,317.048,-388.494,0,0
185719.25,318.954,-383.749,0,0
185979.575,320.935,-378.987,0,0
186239.9,323.016,-374.088,0,0
186500,325.264,-369.057,0,0
186761,327.777,-363.958,0,0
187021,330.419,-358.779,0,0
187281,333.297,-353.479,0,0
187542,336.32,-348.175,0,0
187802,339.594,-342.725,0,0
188062,343.195,-337.127,0,0
188322,346.953,-331.637,0,0
188583,351.111,-325.981,0,0
188843,355.497,-320.305,0,0
189103,360.08,-314.657,0,0
189364,365.063,-308.959,0,0
189624,370.359,-303.209,0,0
189884,376.057,-297.415,0,0
190145,382.174,-291.735,0,0
190405,388.617,-286.152,0,0
190665,395.351,-280.78,0,0
190926,402.564,-275.494,0,0
191186,409.916,-270.285,0,0
191446,417.801,-265.187,0,0
191707,426.004,-260.254,0,0
191967,434.683,-255.56,0,0
192227,443.683,-251.089,0,0
192488,453.023,-246.954,0,0
192748,462.781,-243.119,0,0
193008,472.851,-239.631,0,0
193269,483.108,-236.569,0,0
193529,493.657,-233.826,0,0
193789,504.412,-231.382,0,0
194050,515.403,-229.237,0,0
194310,526.685,-227.56,0,0
194570,538.081,-226.3,0,0
194831,549.492,-225.345,0,0
195091,561.152,-224.673,0,0
195351,572.914,-224.233,0,0
195612,584.935,-224.011,0,0
195872,597.29,-224.041,0,0
196132,610.021,-224.397,0,0
196393,623.108,-225.184,0,0
196653,636.553,-226.415,0,0
196913,650.342,-228.114,0,0
197174,664.641,-230.334,0,0
197434,679.307,-233.359,0,0
197694,694.262,-237.127,0,0
197955,709.5,-241.676,0,0
198215,724.926,-247.117,0,0
198475,740.523,-253.378,0,0
198735,756.408,-260.621,0,0
198996,772.488,-269.001,0,0
199256,788.515,-278.811,0,0
199516,804.209,-289.963,0,0
199777,819.426,-302.493,0,0
200037,833.961,-316.273,0,0
200297,847.698,-331.151,0,0
200558,860.461,-347.242,0,0
200818,871.994,-364.36,0,0
201078,882.199,-382.131,0,0
201339,891.316,-400.283,0,0
201599,899.228,-419.17,0,0
201859,905.559,-438.481,0,0
202120,910.381,-457.599,0,0
202380.025,914.368,-476.327,0,0
202640.35,917.142,-495.148,0,0
202900.675,918.716,-513.534,0,0
203161.0,919.847,-531.225,0,0
203421.325,921.055,-548.938,0,0
203681.65,921.632,-567.451,0,0
203941.975,920.637,-586.286,0,0
204202.3,918.024,-604.88,0,0
204462.625,914.154,-622.667,0,0
204722.95,909.613,-639.267,0,0
204983.275,904.947,-655.446,0,0
205243.6,899.723,-671.157,0,0
205503.925,893.722,-686.469,0,0
205764.25,887.323,-700.91,0,0
206024.575,880.953,-714.99,0,0
206284.9,874.312,-728.68,0,0
206545.225,867.558,-742.159,0,0
206805.55,860.771,-755.564,0,0
207065.875,853.515,-769.567,0,0
207326.2,845.147,-783.816,0,0
207586.525,835.22,-797.735,0,0
207846.85,824.085,-810.778,0,0
208107.175,812.114,-822.576,0,0
208367.5,799.648,-833.285,0,0
208627.825,786.837,-842.9,0,0
208888.15,773.561,-851.534,0,0
209148.475,760.007,-858.88,0,0
209408.8,746.655,-864.795,0,0
209669.125,733.817,-869.839,0,0
209929.45,721.212,-874.18,0,0
210189.775,708.878,-877.693,0,0
210450.1,697.012,-880.448,0,0
210710.425,685.423,-882.681,0,0
210970.75,674.255,-884.36,0,0
211231.075,663.52,-885.399,0,0
211491.4,653.301,-886.031,0,0
211751.725,643.458,-886.208,0,0
212012.05,634.17,-885.941,0,0
212272.375,625.567,-885.45,0,0
212532.7,617.385,-884.578,0,0
212793.025,609.874,-883.955,0,0
213053.35,602.439,-883.634,0,0
213313.675,594.973,-882.714,0,0
213574.0,587.98,-881.354,0,0
213834.325,581.495,-879.673,0,0
214094.65,575.774,-877.739,0,0
214354.975,570.998,-875.82,0,0
214615.3,567.002,-874.354,0,0
214875.625,563.533,-873.383,0,0
215135.95,560.269,-873.179,0,0
215396.275,557.231,-873.728,0,0
215656.6,553.813,-874.827,0,0
215916.925,550.106,-876.245,0,0
216177.25,545.876,-877.951,0,0
216437.575,541.123,-879.522,0,0
216697.9,535.984,-880.762,0,0
216958.225,530.798,-881.497,0,0
217218.55,525.866,-881.972,0,0
217478.875,521.344,-882.318,0,0
217739.2,516.895,-882.916,0,0
217999.525,512.385,-883.528,0,0
218259.85,507.889,-884.002,0,0
218520,503.401,-884.624,0,0
218780,498.941,-885.106,0,0
219041,494.658,-885.583,0,0
219301,490.473,-886.202,0,0
219561,486.216,-886.972,0,0
219822,481.701,-887.835,0,0
220082,477.133,-888.594,0,0
220342,472.485,-889.38,0,0
220603,467.583,-889.922,0,0
220863,462.626,-890.352,0,0
221123,457.78,-890.482,0,0
221384,453.103,-890.393,0,0
221644,448.483,-890.477,0,0
221904,443.94,-890.529,0,0
222165,439.388,-890.506,0,0
222425,434.805,-890.47,0,0
222685,430.177,-890.183,0,0
222946,425.743,-889.843,0,0
223206,421.529,-889.555,0,0
223466,417.334,-889.245,0,0
223727,413.207,-889.072,0,0
223987,409.221,-888.905,0,0
224247,405.191,-888.926,0,0
224508,401.161,-889.223,0,0
224768,396.823,-889.494,0,0
225028,392.31,-889.885,0,0
225289,387.677,-890.11,0,0
225549,382.706,-890.392,0,0
225809,377.762,-890.471,0,0
226070,372.569,-890.389,0,0
226330,367.17,-889.996,0,0
226590,361.877,-889.526,0,0
226851,356.448,-888.949,0,0
227111,351.032,-888.162,0,0
227371,345.431,-887.208,0,0
227632,339.79,-885.926,0,0
227892,334.075,-884.456,0,0
228152,328.316,-882.743,0,0
228413,322.571,-880.599,0,0
228673,317.11,-878.127,0,0
228933,311.76,-875.291,0,0
229193,306.679,-872.323,0,0
229454,301.941,-869.206,0,0
229714,297.38,-866.002,0,0
229974,292.99,-862.701,0,0
230235,288.867,-859.382,0,0
230495,284.84,-855.915,0,0
230755,281.004,-852.434,0,0
231016,277.4,-848.868,0,0
231276,273.949,-845.288,0,0
231536,270.782,-841.673,0,0
231797,267.677,-838.152,0,0
232057,264.752,-834.643,0,0
232317,261.94,-831.155,0,0
232578,259.274,-827.638,0,0
232838,256.696,-824.122,0,0
233098,254.315,-820.548,0,0
233359,252.136,-817.122,0,0
233619,250.021,-813.783,0,0
233879,247.974,-810.453,0,0
234140,245.963,-807.078,0,0
234400,244.144,-803.808,0,0
234660.3,242.368,-800.519,0,0
234920.625,240.777,-797.385,0,0
235180.95,239.264,-794.287,0,0
235441.275,237.829,-791.232,0,0
235701.6,236.357,-788.325,0,0
235961.925,234.824,-785.466,0,0
236222.25,233.31,-782.527,0,0
236482.575,231.832,-779.534,0,0
236742.9,230.496,-776.5,0,0
237003.225,229.204,-773.444,0,0
237263.55,227.992,-770.344,0,0
237523.875,226.953,-767.21,0,0
237784.2,226.063,-764.059,0,0
238044.525,225.435,-760.998,0,0
238304.85,225.01,-758.096,0,0
238565.175,224.657,-755.325,0,0
238825.5,224.277,-752.717,0,0
239085.825,224.05,-750.215,0,0
239346.15,223.839,-747.861,0,0
239606.475,223.619,-745.593,0,0
239866.8,223.466,-743.493,0,0
240127.125,223.218,-741.416,0,0
240387.45,222.971,-739.591,0,0
240647.775,222.761,-737.736,0,0
240908.1,222.488,-735.974,0,0
241168.425,222.188,-734.275,0,0
241428.75,221.859,-732.723,0,0
241689.075,221.542,-731.199,0,0
241949.4,221.179,-729.786,0,0
242209.725,220.726,-728.422,0,0
242470.05,220.204,-727.152,0,0
242730.375,219.612,-725.885,0,0
242990.7,218.93,-724.673,0,0
243251.025,218.191,-723.45,0,0
243511.35,217.367,-722.228,0,0
243771.675,216.445,-721.065,0,0
244032.0,215.451,-719.885,0,0
244292.325,214.303,-718.627,0,0
244552.65,213.018,-717.34,0,0
244812.975,211.697,-715.807,0,0
245073.3,210.372,-714.269,0,0
245333.625,209.065,-712.486,0,0
245593.95,207.816,-710.637,0,0
245854.275,206.632,-708.702,0,0
246114.6,205.516,-706.761,0,0
246374.925,204.459,-704.722,0,0
246635.25,203.42,-702.683,0,0
246895.575,202.467,-700.555,0,0
247155.9,201.623,-698.323,0,0
247416.225,201.004,-696.07,0,0
247676.55,200.497,-693.951,0,0
247936.875,200.044,-691.94,0,0
248197.2,199.576,-690.011,0,0
248457.525,199.074,-688.149,0,0
248717.85,198.519,-686.261,0,0
248978.175,198.021,-684.339,0,0
249238.5,197.602,-682.391,0,0
249498.825,197.165,-680.533,0,0
249759.15,196.911,-678.679,0,0
250019.475,196.601,-676.943,0,0
250279.8,196.311,-675.249,0,0
250540,195.895,-673.625,0,0
250800,195.53,-672.083,0,0
251061,195.053,-670.575,0,0
251321,194.51,-669.097,0,0
251581,193.844,-667.648,0,0
251842,193.072,-666.148,0,0
252102,192.146,-664.597,0,0
252362,191.16,-662.925,0,0
252623,190.066,-661.089,0,0
252883,188.898,-659.095,0,0
253143,187.774,-656.868,0,0
253404,186.711,-654.449,0,0
253664,185.857,-651.911,0,0
253924,185.099,-649.334,0,0
254185,184.383,-646.733,0,0
254445,183.793,-644.112,0,0
254705,183.096,-641.398,0,0
254966,182.445,-638.531,0,0
255226,181.948,-635.503,0,0
255486,181.426,-632.341,0,0
255747,181.064,-628.966,0,0
256007,180.94,-625.437,0,0
256267,181.081,-621.785,0,0
256528,181.469,-618.141,0,0
256788,182.057,-614.445,0,0
257048,182.834,-610.749,0,0
257309,183.893,-606.983,0,0
257569,185.202,-603.242,0,0
257829,186.805,-599.602,0,0
258090,188.581,-596.068,0,0
258350,190.521,-592.607,0,0
258610,192.662,-589.118,0,0
258871,195.133,-585.643,0,0
259131,197.998,-582.326,0,0
259391,201.18,-579.395,0,0
259651,204.444,-576.782,0,0
259912,207.72,-574.462,0,0
260172,211.013,-572.266,0,0
260432,214.362,-570.149,0,0
260693,217.896,-568.124,0,0
260953,221.673,-566.188,0,0
261213,225.731,-564.565,0,0
261474,229.942,-563.353,0,0
261734,234.16,-562.509,0,0
261994,238.279,-561.994,0,0
262255,242.281,-561.609,0,0
262515,246.333,-561.283,0,0
262775,250.57,-561.108,0,0
263036,255.036,-561.307,0,0
263296,259.571,-561.904,0,0
263556,264.103,-562.941,0,0
263817,268.449,-564.519,0,0
264077,272.551,-566.432,0,0
264337,276.514,-568.515,0,0
264598,280.252,-570.907,0,0
264858,283.852,-573.605,0,0
265118,287.109,-576.607,0,0
265379,290.031,-579.767,0,0
265639,292.638,-582.929,0,0
265899,295.151,-586.143,0,0
266160,297.488,-589.502,0,0
266420,299.686,-593.056,0,0
266680.25,301.564,-596.789,0,0
266940.575,303.282,-600.541,0,0
267200.9,304.916,-604.393,0,0
267461.225,306.447,-608.568,0,0
267721.55,307.568,-613.1,0,0
267981.875,308.251,-617.759,0,0
268242.2,308.572,-622.555,0,0
268502.525,308.426,-627.514,0,0
268762.85,307.649,-632.563,0,0
269023.175,306.265,-637.49,0,0
269283.5,304.16,-642.176,0,0
269543.825,301.498,-646.378,0,0
269804.15,298.415,-649.833,0,0
270064.475,295.34,-652.534,0,0
270324.8,292.439,-654.689,0,0
270585.125,289.914,-656.688,0,0
270845.45,287.509,-658.431,0,0
271105.775,285.291,-660.122,0,0
271366.1,283.213,-661.782,0,0
271626.425,281.145,-663.485,0,0
271886.75,279.072,-665.076,0,0
272147.075,277.239,-666.7,0,0
272407.4,275.351,-668.437,0,0
272667.725,273.397,-670.332,0,0
272928.05,271.268,-672.258,0,0
273188.375,268.981,-674.16,0,0
273448.7,266.579,-676.019,0,0
273709.025,264.059,-677.876,0,0
273969.35,261.311,-679.805,0,0
274229.675,258.413,-681.619,0,0
274490.0,255.293,-683.272,0,0
274750.325,251.906,-684.994,0,0
275010.65,248.187,-686.384,0,0
275270.975,244.269,-687.561,0,0
275531.3,240.162,-688.376,0,0
275791.625,236.001,-688.746,0,0
276051.95,231.939,-688.85,0,0
276312.275,227.891,-688.801,0,0
276572.6,223.772,-688.495,0,0
276832.925,219.503,-687.933,0,0
277093.25,215.196,-686.962,0,0
277353.575,210.921,-685.572,0,0
277613.9,206.833,-683.685,0,0
277874.225,202.931,-681.403,0,0
278134.55,199.329,-678.769,0,0
278394.875,196.128,-675.775,0,0
278655.2,193.358,-672.474,0,0
278915.525,191.172,-669.048,0,0
279175.85,189.543,-665.534,0,0
279436.175,188.483,-662.172,0,0
279696.5,187.906,-659.155,0,0
279956.825,187.546,-656.451,0,0
280217.15,187.544,-654.061,0,0
280477.475,187.55,-652.15,0,0
280737.8,187.437,-650.559,0,0
280998.125,187.238,-649.094,0,0
281258.45,186.941,-647.798,0,0
281518.775,186.501,-646.613,0,0
281779.1,185.864,-645.34,0,0
282039.425,185.232,-643.939,0,0
282299.75,184.708,-642.32,0,0
282560,184.443,-640.675,0,0
282820,184.448,-639.107,0,0
283081,184.643,-637.78,0,0
283341,184.951,-636.723,0,0
283601,185.288,-635.999,0,0
283862,185.477,-635.557,0,0
284122,185.409,-635.301,0,0
284382,185.072,-635.139,0,0
284643,184.572,-634.881,0,0
284903,184.007,-634.647,0,0
285163,183.304,-634.416,0,0
285424,182.438,-634.206,0,0
285684,181.333,-633.964,0,0
285944,180.095,-633.572,0,0
286205,178.682,-633.01,0,0
286465,177.187,-632.209,0,0
286725,175.679,-631.122,0,0
286986,174.327,-629.849,0,0
287246,173.059,-628.492,0,0
287506,171.772,-627.055,0,0
287767,170.471,-625.452,0,0
288027,169.207,-623.625,0,0
288287,168.038,-621.568,0,0
288548,167.018,-619.201,0,0
288808,166.253,-616.544,0,0
289068,165.886,-613.676,0,0
289329,165.985,-610.728,0,0
289589,166.572,-607.808,0,0
289849,167.613,-605.042,0,0
290109,168.962,-602.588,0,0
290370,170.637,-600.306,0,0
290630,172.535,-598.38,0,0
290890,174.659,-596.777,0,0
291151,176.944,-595.455,0,0
291411,179.304,-594.467,0,0
291671,181.789,-593.841,0,0
291932,184.322,-593.592,0,0
292192,186.877,-593.728,0,0
292452,189.361,-594.267,0,0
292713,191.755,-595.191,0,0
292973,193.953,-596.568,0,0
293233,195.848,-598.276,0,0
293494,197.407,-600.255,0,0
293754,198.599,-602.419,0,0
294014,199.476,-604.614,0,0
294275,200.125,-607,0,0
294535,200.437,-609.476,0,0
294795,200.39,-612.072,0,0
295056,199.972,-614.658,0,0
295316,199.214,-617.152,0,0
295576,198.044,-619.591,0,0
295837,196.583,-621.874,0,0
296097,194.788,-623.931,0,0
296357,192.731,-625.72,0,0
296618,190.484,-627.2,0,0
296878,188.144,-628.342,0,0
297138,185.77,-629.168,0,0
297399,183.486,-629.732,0,0
297659,181.254,-630.109,0,0
297919,179.048,-630.333,0,0
298180,176.928,-630.373,0,0
298440,174.895,-630.283,0,0
298700.2,172.996,-630.098,0,0
298960.525,171.174,-629.861,0,0
299220.85,169.393,-629.625,0,0
299481.175,167.718,-629.365,0,0
299741.5,166.049,-629.122,0,0
300001.825,164.316,-628.816,0,0
300262.15,162.651,-628.497,0,0
300522.475,160.953,-628.089,0,0
300782.8,159.253,-627.647,0,0
301043.125,157.546,-627.178,0,0
301303.45,155.85,-626.574,0,0
301563.775,154.198,-625.899,0,0
301824.1,152.582,-625.137,0,0
302084.425,151.068,-624.321,0,0
302344.75,149.613,-623.509,0,0
302605.075,148.214,-622.714,0,0
302865.4,146.849,-621.931,0,0
303125.725,145.436,-621.138,0,0
303386.05,144,-620.311,0,0
303646.375,142.562,-619.387,0,0
303906.7,141.169,-618.406,0,0
304167.025,139.823,-617.35,0,0
304427.35,138.519,-616.247,0,0
304687.675,137.249,-615.139,0,0
304948.0,136.064,-613.911,0,0
305208.325,134.983,-612.701,0,0
305468.65,133.972,-611.464,0,0
305728.975,132.998,-610.247,0,0
305989.3,132.088,-609.011,0,0
306249.625,131.209,-607.768,0,0
306509.95,130.424,-606.519,0,0
306770.275,129.701,-605.268,0,0
307030.6,129.044,-604.01,0,0
307290.925,128.488,-602.805,0,0
307551.25,127.987,-601.641,0,0
307811.575,127.519,-600.534,0,0
308071.9,127.112,-599.476,0,0
308332.225,126.757,-598.464,0,0
308592.55,126.452,-597.544,0,0
308852.875,126.132,-596.707,0,0
309113.2,125.808,-595.976,0,0
309373.525,125.401,-595.335,0,0
309633.85,124.976,-594.724,0,0
309894.175,124.453,-594.067,0,0
310154.5,123.876,-593.516,0,0
310414.825,123.202,-592.908,0,0
310675.15,122.512,-592.264,0,0
310935.475,121.752,-591.586,0,0
311195.8,120.996,-590.79,0,0
311456.125,120.243,-589.969,0,0
311716.45,119.544,-589.101,0,0
311976.775,118.865,-588.181,0,0
312237.1,118.232,-587.256,0,0
312497.425,117.645,-586.346,0,0
312757.75,117.05,-585.42,0,0
313018.075,116.47,-584.469,0,0
313278.4,115.924,-583.483,0,0
313538.725,115.447,-582.488,0,0
313799.05,115.035,-581.473,0,0
314059.375,114.707,-580.515,0,0
314319.7,114.414,-579.576,0,0
314580,114.086,-578.756,0,0
314840,113.878,-577.839,0,0
315101,113.67,-577.085,0,0
315361,113.382,-576.315,0,0
315621,113.124,-575.64,0,0
315882,112.953,-574.944,0,0
316142,112.719,-574.161,0,0
316402,112.522,-573.531,0,0
316663,112.268,-572.981,0,0
316923,112.031,-572.427,0,0
317183,111.82,-571.881,0,0
317444,111.658,-571.423,0,0
317704,111.372,-570.952,0,0
317964,111.177,-570.607,0,0
318225,110.86,-570.246,0,0
318485,110.611,-569.818,0,0
318745,110.287,-569.563,0,0
319006,109.884,-569.326,0,0
319266,109.488,-569.156,0,0
319526,109.037,-569.006,0,0
319787,108.471,-568.83,0,0
320047,107.934,-568.701,0,0
320307,107.175,-568.659,0,0
320567,106.421,-568.617,0,0
320828,105.565,-568.534,0,0
321088,104.632,-568.363,0,0
321348,103.622,-568.147,0,0
321609,102.47,-567.913,0,0
321869,101.179,-567.69,0,0
322129,99.8017,-567.32,0,0
322390,98.4435,-566.855,0,0
322650,96.968,-566.143,0,0
322910,95.4637,-565.351,0,0
323171,93.9858,-564.374,0,0
323431,92.7143,-563.289,0,0
323691,91.3235,-561.964,0,0
323952,90.1916,-560.631,0,0
324212,89.1412,-559.304,0,0
324472,88.1344,-557.85,0,0
324733,87.2875,-556.437,0,0
324993,86.5753,-554.977,0,0
325253,85.8459,-553.632,0,0
325514,85.26,-552.211,0,0
325774,84.6149,-550.99,0,0
326034,84.1161,-549.701,0,0
326295,83.5137,-548.542,0,0
326555,82.9067,-547.277,0,0
326815,82.3334,-545.949,0,0
327076,81.656,-544.598,0,0
327336,81.1033,-543.251,0,0
327596,80.6083,-541.881,0,0
327857,80.0737,-540.496,0,0
328117,79.684,-539.047,0,0
328377,79.3176,-537.612,0,0
328638,79.0031,-536.197,0,0
328898,78.7832,-534.702,0,0
329158,78.4968,-533.265,0,0
329419,78.395,-531.82,0,0
329679,78.3123,-530.378,0,0
329939,78.2078,-528.897,0,0
330200,78.3213,-527.505,0,0
330460,78.4295,-526.175,0,0
330720.15,78.6564,-524.893,0,0
330980.475,78.8651,-523.653,0,0
331240.8,79.1451,-522.552,0,0
331501.125,79.4161,-521.451,0,0
331761.45,79.7298,-520.488,0,0
332021.775,80.0258,-519.542,0,0
332282.1,80.3384,-518.722,0,0
332542.425,80.6026,-517.976,0,0
332802.75,80.8524,-517.266,0,0
333063.075,81.0023,-516.686,0,0
333323.4,81.1306,-516.144,0,0
333583.725,81.1589,-515.643,0,0
333844.05,81.1061,-515.002,0,0
334104.375,80.9964,-514.5,0,0
334364.7,80.848,-513.982,0,0
334625.025,80.6,-513.371,0,0
334885.35,80.2753,-512.787,0,0
335145.675,80.0542,-512.163,0,0
335406.0,79.6981,-511.524,0,0
335666.325,79.3338,-510.862,0,0
335926.65,78.8661,-510.122,0,0
336186.975,78.4354,-509.239,0,0
336447.3,77.9816,-508.391,0,0
336707.625,77.5164,-507.384,0,0
336967.95,77.1143,-506.34,0,0
337228.275,76.7064,-505.249,0,0
337488.6,76.3777,-504.036,0,0
337748.925,76.1811,-502.904,0,0
338009.25,75.9066,-501.659,0,0
338269.575,75.8054,-500.509,0,0
338529.9,75.6497,-499.268,0,0
338790.225,75.5032,-498.031,0,0
339050.55,75.4832,-496.779,0,0
339310.875,75.4637,-495.494,0,0
339571.2,75.5879,-494.187,0,0
339831.525,75.6298,-492.904,0,0
340091.85,75.8641,-491.596,0,0
340352.175,76.1023,-490.231,0,0
340612.5,76.3799,-488.993,0,0
340872.825,76.8417,-487.668,0,0
341133.15,77.3536,-486.4,0,0
341393.475,77.8874,-485.175,0,0
341653.8,78.5442,-484.022,0,0
341914.125,79.3522,-482.965,0,0
342174.45,80.1135,-481.961,0,0
342434.775,80.9522,-481.098,0,0
342695.1,81.9267,-480.279,0,0
342955.425,82.8455,-479.655,0,0
343215.75,83.7211,-479.114,0,0
343476.075,84.6165,-478.703,0,0
343736.4,85.4189,-478.37,0,0
343996.725,86.1955,-478.186,0,0
344257.05,86.9191,-477.994,0,0
344517.375,87.5039,-477.986,0,0
344777.7,88.1268,-477.964,0,0
345038.025,88.6272,-477.971,0,0
345298.35,88.9893,-478.059,0,0
345558.675,89.3257,-478.129,0,0
345819.0,89.5984,-478.224,0,0
346079.325,89.7911,-478.312,0,0
346339.65,89.8894,-478.445,0,0
346599.975,89.9183,-478.524,0,0
346860,89.9297,-478.633,0,0
347121,89.7845,-478.643,0,0
347381,89.6884,-478.706,0,0
347641,89.5335,-478.671,0,0
347902,89.2732,-478.71,0,0
348162,89.0037,-478.619,0,0
348422,88.6332,-478.517,0,0
348683,88.3085,-478.402,0,0
348943,88.0031,-478.2,0,0
349203,87.5351,-477.923,0,0
349464,87.1743,-477.662,0,0
349724,86.7521,-477.31,0,0
349984,86.379,-476.979,0,0
350245,85.9628,-476.613,0,0
350505,85.5759,-476.225,0,0
350765,85.1309,-475.712,0,0
351025,84.7484,-475.227,0,0
351286,84.3608,-474.695,0,0
351546,83.961,-474.158,0,0
351806,83.5555,-473.544,0,0
352067,83.227,-472.966,0,0
352327,82.8159,-472.215,0,0
352587,82.5328,-471.556,0,0
352848,82.2488,-470.781,0,0
353108,81.981,-470.03,0,0
353368,81.8535,-469.252,0,0
353629,81.7271,-468.441,0,0
353889,81.6875,-467.65,0,0
354149,81.6802,-466.965,0,0
354410,81.7134,-466.3,0,0
354670,81.766,-465.679,0,0
354930,81.7777,-465.102,0,0
355191,81.7884,-464.635,0,0
355451,81.733,-464.065,0,0
355711,81.7213,-463.595,0,0
355972,81.6964,-463.026,0,0
356232,81.5685,-462.535,0,0
356492,81.4721,-462.032,0,0
356753,81.437,-461.512,0,0
357013,81.296,-461.075,0,0
357273,81.1317,-460.513,0,0
357534,81.0099,-460.049,0,0
357794,80.8596,-459.53,0,0
358054,80.6546,-459.045,0,0
358315,80.4385,-458.503,0,0
358575,80.2632,-457.895,0,0
358835,79.9819,-457.329,0,0
359096,79.7846,-456.702,0,0
359356,79.5372,-456.005,0,0
359616,79.2832,-455.337,0,0
359877,79.0743,-454.61,0,0
360137,78.9094,-453.827,0,0
360397,78.7706,-453.064,0,0
360658,78.5915,-452.265,0,0
360918,78.4721,-451.372,0,0
361178,78.4023,-450.526,0,0
361438,78.4191,-449.687,0,0
361699,78.5274,-448.834,0,0
361959,78.5726,-448.023,0,0
362219,78.7427,-447.271,0,0
362480,78.8612,-446.515,0,0
362740.1,79.0417,-445.754,0,0
363000.425,79.1448,-445.112,0,0
363260.75,79.2504,-444.436,0,0
363521.075,79.3933,-443.775,0,0
363781.4,79.461,-443.168,0,0
364041.725,79.6008,-442.526,0,0
364302.05,79.6692,-441.918,0,0
364562.375,79.7543,-441.351,0,0
364822.7,79.7571,-440.651,0,0
365083.025,79.7152,-440.002,0,0
365343.35,79.6833,-439.333,0,0
365603.675,79.6279,-438.568,0,0
365864.0,79.6157,-437.777,0,0
366124.325,79.6221,-436.929,0,0
366384.65,79.6898,-435.974,0,0
366644.975,79.7385,-434.995,0,0
366905.3,80.005,-433.981,0,0
367165.625,80.2229,-433.005,0,0
367425.95,80.5463,-432.029,0,0
367686.275,80.9302,-431.044,0,0
367946.6,81.4035,-430.089,0,0
368206.925,81.8601,-429.121,0,0
368467.25,82.3854,-428.189,0,0
368727.575,83.0208,-427.268,0,0
368987.9,83.7336,-426.392,0,0
369248.225,84.4837,-425.585,0,0
369508.55,85.294,-424.858,0,0
369768.875,86.1185,-424.18,0,0
370029.2,86.9407,-423.537,0,0
370289.525,87.7969,-422.896,0,0
370549.85,88.7479,-422.304,0,0
370810.175,89.6875,-421.751,0,0
371070.5,90.7609,-421.316,0,0
371330.825,91.8694,-421,0,0
371591.15,93.0054,-420.785,0,0
371851.475,94.1275,-420.659,0,0
372111.8,95.278,-420.698,0,0
372372.125,96.3152,-420.854,0,0
372632.45,97.3855,-421.123,0,0
372892.775,98.3664,-421.48,0,0
373153.1,99.29,-421.957,0,0
373413.425,100.132,-422.55,0,0
373673.75,100.799,-423.184,0,0
373934.075,101.385,-423.906,0,0
374194.4,101.789,-424.711,0,0
374454.725,102.057,-425.545,0,0
374715.05,102.19,-426.245,0,0
374975.375,102.161,-426.859,0,0
375235.7,102.071,-427.512,0,0
375496.025,101.91,-427.999,0,0
375756.35,101.689,-428.39,0,0
376016.675,101.527,-428.732,0,0
376277.0,101.369,-428.969,0,0
376537.325,101.22,-429.248,0,0
376797.65,101.021,-429.484,0,0
377057.975,100.884,-429.685,0,0
377318.3,100.674,-429.882,0,0
377578.625,100.491,-430.082,0,0
377838.95,100.366,-430.208,0,0
378099.275,100.207,-430.384,0,0
378359.6,100.013,-430.573,0,0
378619.925,99.8349,-430.761,0,0
378880,99.5698,-430.977,0,0
379141,99.2738,-431.102,0,0
379401,98.9726,-431.238,0,0
379661,98.6854,-431.31,0,0
379922,98.3645,-431.363,0,0
380182,98.0493,-431.439,0,0
380442,97.6879,-431.466,0,0
380703,97.3607,-431.431,0,0
380963,97.0315,-431.389,0,0
381223,96.6469,-431.217,0,0
381483,96.3792,-431.008,0,0
381744,96.1227,-430.757,0,0
382004,96.0334,-430.484,0,0
382264,96.0862,-430.252,0,0
382525,96.2516,-430.02,0,0
382785,96.4805,-430.019,0,0
383045,96.6855,-430.135,0,0
383306,96.8969,-430.478,0,0
383566,97.0044,-430.951,0,0
383826,97.0379,-431.467,0,0
384087,96.9092,-432.197,0,0
384347,96.4733,-432.861,0,0
384607,96.0057,-433.516,0,0
384868,95.3737,-434.057,0,0
385128,94.6208,-434.615,0,0
385388,93.7479,-435.12,0,0
385649,92.79,-435.557,0,0
385909,91.693,-435.84,0,0
386169,90.5848,-435.911,0,0
386430,89.3913,-435.998,0,0
386690,88.1856,-435.885,0,0
386950,86.9584,-435.605,0,0
387211,85.7613,-435.198,0,0
387471,84.6292,-434.66,0,0
387731,83.5351,-433.946,0,0
387992,82.5798,-433.173,0,0
388252,81.7317,-432.301,0,0
388512,80.9384,-431.35,0,0
388773,80.3813,-430.418,0,0
389033,79.903,-429.372,0,0
389293,79.5784,-428.367,0,0
389554,79.386,-427.456,0,0
389814,79.3583,-426.51,0,0
390074,79.4855,-425.722,0,0
390335,79.6153,-425.088,0,0
390595,79.856,-424.626,0,0
390855,80.0529,-424.258,0,0
391116,80.264,-424.043,0,0
391376,80.3862,-424.005,0,0
391636,80.4638,-424.086,0,0
391896,80.3521,-424.303,0,0
392157,80.0969,-424.548,0,0
392417,79.6842,-424.809,0,0
392677,79.112,-425.055,0,0
392938,78.3734,-425.246,0,0
393198,77.5446,-425.26,0,0
393458,76.6648,-425.252,0,0
393719,75.739,-425.076,0,0
393979,74.7711,-424.805,0,0
394239,73.779,-424.462,0,0
394500,72.7525,-423.969,0,0
394760.05,71.8173,-423.381,0,0
395020.375,70.8518,-422.754,0,0
395280.7,69.9364,-422.005,0,0
395541.025,69.1663,-421.175,0,0
395801.35,68.4146,-420.399,0,0
396061.675,67.6894,-419.487,0,0
396322.0,67.0693,-418.574,0,0
396582.325,66.5098,-417.709,0,0
396842.65,65.9343,-416.796,0,0
397102.975,65.4274,-415.931,0,0
397363.3,64.9332,-414.994,0,0
397623.625,64.4683,-414.146,0,0
397883.95,63.9658,-413.187,0,0
398144.275,63.518,-412.265,0,0
398404.6,63.1215,-411.293,0,0
398664.925,62.7119,-410.364,0,0
398925.25,62.3513,-409.373,0,0
399185.575,62.0075,-408.421,0,0
399445.9,61.6752,-407.373,0,0
399706.225,61.4295,-406.344,0,0
399966.55,61.2307,-405.353,0,0
400006.6,61.171,-405.141,0,0