File: Accelerated corrosion test data/2025-10-17_06-00-03/sample_2.csv
Frequency (Hz),Impedance (ohms),Phase (Radians),Temperature (C),Humidity (%)
10000.0,227.586,-11452.3,0,0
10260.325,222.058,-11164.6,0,0
10520.65,216.804,-10890.6,0,0
10780.975,212.027,-10629.3,0,0
11041.3,207.421,-10381,0,0
11301.625,202.547,-10143.3,0,0
11561.95,199.107,-9915.16,0,0
11822.275,197.821,-9706.6,0,0
12082.6,191.163,-9495.25,0,0
12342.925,186.618,-9297.98,0,0
12603.25,182.45,-9106.05,0,0
12863.575,179.478,-8922.07,0,0
13123.9,176.303,-8748,0,0
13384.225,172.43,-8577.2,0,0
13644.55,169.176,-8411.37,0,0
13904.875,185.424,-8257.64,0,0
14165.2,164.598,-8112.68,0,0
14425.525,161.737,-7962.49,0,0
14685.8,161.55,-7817.18,0,0
14946.175,158.632,-7687.31,0,0
15206.5,163.811,-7566.76,0,0
15466.825,158.987,-7431,0,0
15727.15,151.103,-7317.78,0,0
15987.5,147.542,-7195.77,0,0
16247.8,147.963,-7081.22,0,0
16508.125,142.474,-6971.13,0,0
16768.45,139.97,-6862.44,0,0
17028.775,138.556,-6758.18,0,0
17289.1,137.257,-6657.32,0,0
17549.425,133.75,-6558.38,0,0
17809.75,132.469,-6462.41,0,0
18070.075,130.218,-6369.23,0,0
18330.4,128.258,-6278.3,0,0
18590.725,127.505,-6189.57,0,0
18851.05,126.068,-6103.95,0,0
19111.375,127.722,-6021.43,0,0
19371.7,127.859,-5943.89,0,0
19632.025,122.369,-5865.89,0,0
19892.35,119.955,-5787.95,0,0
20152.675,118.242,-5712.07,0,0
20413.0,117.523,-5637.76,0,0
20673.3,116.937,-5565.03,0,0
20933.65,117.38,-5493.32,0,0
21193.975,122.777,-5425.82,0,0
21454.3,130.013,-5363.87,0,0
21714.625,126.731,-5308.12,0,0
21974.9,120.721,-5242.53,0,0
22235.275,118.34,-5188.43,0,0
22495.6,114.241,-5127.83,0,0
22755.925,110.978,-5066.57,0,0
23016.25,112.145,-5011.14,0,0
23276.6,112.288,-4956.38,0,0
23536.9,107.994,-4901.49,0,0
23797.225,106.28,-4847.69,0,0
24057.55,105.516,-4796.22,0,0
24317.875,102.122,-4745.16,0,0
24578.2,100.907,-4693.71,0,0
24838.525,99.5891,-4643.6,0,0
25098.85,98.5886,-4594.86,0,0
25359.175,97.6553,-4547.72,0,0
25619.5,96.4272,-4500.98,0,0
25879.8,95.2886,-4454.78,0,0
26140.1,96.0187,-4409.85,0,0
26400.5,94.9597,-4366.03,0,0
26660.8,95.867,-4324.1,0,0
26921.1,94.2671,-4282.43,0,0
27181.4,93.0754,-4242.1,0,0
27441.8,91.5313,-4201.59,0,0
27702.1,90.4548,-4161.71,0,0
27962.4,89.5593,-4121.13,0,0
28222.7,89.7831,-4082.89,0,0
28483.1,89.1837,-4044.59,0,0
28743.4,88.4484,-4006.94,0,0
29003.7,89.9152,-3970.01,0,0
29264,89.749,-3933.19,0,0
29524.4,93.0483,-3898.14,0,0
29784.7,96.1945,-3869.1,0,0
30045,93.0031,-3837.37,0,0
30305.3,93.4431,-3804.04,0,0
30565.7,90.7908,-3776.48,0,0
30826,87.0689,-3743.83,0,0
31086.3,86.3449,-3711.81,0,0
31346.6,84.602,-3680.39,0,0
31607,84.721,-3649.28,0,0
31867.3,82.3562,-3620.04,0,0
32127.6,81.4216,-3589.47,0,0
32387.9,81.888,-3558.89,0,0
32648.3,83.2794,-3531.05,0,0
32908.6,82.9797,-3504.92,0,0
33168.9,81.1668,-3477.92,0,0
33429.2,79.4273,-3450.64,0,0
33689.6,79.2615,-3423.56,0,0
33949.9,78.4021,-3397.6,0,0
34210.2,76.8762,-3371.49,0,0
34470.5,75.8435,-3345.39,0,0
34730.9,75.2058,-3319.41,0,0
34991.2,74.4947,-3294.32,0,0
35251.5,74.3493,-3269.87,0,0
35511.8,73.8729,-3245.44,0,0
35772.2,73.2266,-3221.47,0,0
36032.5,72.6875,-3198.16,0,0
36292.8,71.9435,-3174.51,0,0
36553.1,71.5207,-3151.47,0,0
36813.5,71.3875,-3128.9,0,0
37073.8,70.8798,-3106.33,0,0
37334.1,70.6706,-3084.25,0,0
37594.4,70.3227,-3062.79,0,0
37854.8,70.0261,-3041.24,0,0
38115.1,69.5203,-3020.51,0,0
38375.4,68.9573,-2999.64,0,0
38635.7,68.613,-2979.04,0,0
38896.1,68.0856,-2958.59,0,0
39156.4,67.6576,-2938.74,0,0
39416.7,67.3288,-2918.82,0,0
39677,66.9551,-2899.32,0,0
39937.4,66.5784,-2879.86,0,0
40197.7,66.3961,-2860.89,0,0
40458,65.8117,-2842.04,0,0
40718.3,65.8098,-2823.09,0,0
40978.7,65.6286,-2805.12,0,0
41239,65.1185,-2786.97,0,0
41499.3,65.3982,-2769.03,0,0
41759.6,65.0508,-2751.71,0,0
42020,64.6624,-2733.96,0,0
42280.275,64.473,-2717,0,0
42540.6,64.1406,-2700.12,0,0
42800.925,63.7335,-2683.35,0,0
43061.25,63.4423,-2666.66,0,0
43321.575,63.2352,-2650.07,0,0
43581.9,62.9356,-2633.96,0,0
43842.225,62.7752,-2617.99,0,0
44102.55,62.4227,-2601.9,0,0
44362.875,62.5432,-2586.28,0,0
44623.2,62.0931,-2570.9,0,0
44883.525,61.6751,-2555.57,0,0
45143.85,61.6497,-2540.08,0,0
45404.175,61.8647,-2525.44,0,0
45664.5,61.1576,-2510.77,0,0
45924.825,61.3274,-2495.49,0,0
46185.15,61.769,-2481.62,0,0
46445.475,60.8726,-2467.66,0,0
46705.8,60.5508,-2452.99,0,0
46966.125,60.6082,-2438.93,0,0
47226.45,60.6173,-2424.81,0,0
47486.775,60.7621,-2411.71,0,0
47747.1,60.0261,-2398.1,0,0
48007.425,60.1574,-2384.26,0,0
48267.75,60.8048,-2370.7,0,0
48528.075,61.2294,-2358.67,0,0
48788.4,60.782,-2346.16,0,0
49048.725,60.5456,-2333.91,0,0
49309.05,59.7553,-2321.78,0,0
49569.375,58.953,-2309.08,0,0
49829.7,58.4786,-2296.48,0,0
50090.025,58.2023,-2284.19,0,0
50350.35,57.4903,-2271.77,0,0
50610.675,57.4677,-2259.37,0,0
50871.0,57.3987,-2247.35,0,0
51131.325,57.2139,-2235.77,0,0
51391.65,56.9083,-2224.15,0,0
51651.975,56.3529,-2212.42,0,0
51912.3,55.9935,-2200.96,0,0
52172.625,55.5194,-2189.33,0,0
52432.95,55.3893,-2177.74,0,0
52693.275,55.0539,-2166.51,0,0
52953.6,54.7585,-2155.21,0,0
53213.925,54.7585,-2143.94,0,0
53474.25,54.4894,-2132.94,0,0
53734.575,54.3231,-2122.16,0,0
53994.9,54.1534,-2111.17,0,0
54255.225,54.0004,-2100.32,0,0
54515.55,54.0247,-2089.75,0,0
54775.875,53.9714,-2079.35,0,0
55036.2,53.8562,-2068.87,0,0
55296.525,53.7394,-2058.52,0,0
55556.85,53.7215,-2048.26,0,0
55817.175,53.6668,-2038.1,0,0
56077.5,53.6817,-2028.1,0,0
56337.825,53.58,-2018.18,0,0
56598.15,53.525,-2008.26,0,0
56858.475,53.6413,-1998.36,0,0
57118.8,53.6919,-1988.79,0,0
57379.125,53.6733,-1979.16,0,0
57639.45,53.6803,-1969.59,0,0
57899.775,53.7807,-1960.26,0,0
58160.1,53.9673,-1951.05,0,0
58420.4,53.7844,-1941.62,0,0
58680.7,53.7665,-1932.4,0,0
58941.1,53.8896,-1923.06,0,0
59201.4,54.1743,-1914,0,0
59461.7,54.4341,-1904.96,0,0
59722,54.6265,-1896.01,0,0
59982.4,55.3157,-1887.05,0,0
60242.7,55.9642,-1878.8,0,0
60503,56.2338,-1870.78,0,0
60763.3,56.0979,-1862.33,0,0
61023.7,56.4966,-1853.85,0,0
61284,57.04,-1845.73,0,0
61544.3,57.7374,-1837.69,0,0
61804.6,58.5983,-1830.3,0,0
62065,58.7933,-1823.9,0,0
62325.3,57.8588,-1816.62,0,0
62585.6,57.685,-1809.09,0,0
62845.9,57.4188,-1801.9,0,0
63106.3,56.497,-1795.03,0,0
63366.6,55.2934,-1787.03,0,0
63626.9,54.9237,-1779.39,0,0
63887.2,54.2798,-1771.75,0,0
64147.6,53.86,-1764.01,0,0
64407.9,53.3097,-1756.47,0,0
64668.2,53.0038,-1748.96,0,0
64928.5,52.0871,-1741.82,0,0
65188.9,50.9065,-1733.86,0,0
65449.2,50.4155,-1725.56,0,0
65709.5,50.4655,-1717.37,0,0
65969.8,50.593,-1709.77,0,0
66230.2,50.6781,-1702.08,0,0
66490.5,50.8286,-1694.58,0,0
66750.8,50.8595,-1687.47,0,0
67011.1,50.8886,-1679.96,0,0
67271.5,51.1945,-1672.29,0,0
67531.8,51.6304,-1665.1,0,0
67792.1,52.0655,-1657.99,0,0
68052.4,53.0027,-1651.32,0,0
68312.8,53.2186,-1645.09,0,0
68573.1,53.2518,-1638.25,0,0
68833.4,53.8313,-1631.47,0,0
69093.7,54.5833,-1625.24,0,0
69354.1,55.0206,-1619.44,0,0
69614.4,55.2754,-1613.35,0,0
69874.7,55.7441,-1607.91,0,0
70135,55.483,-1602.52,0,0
70395.4,55.2961,-1597.32,0,0
70655.7,54.2222,-1591.99,0,0
70916,53.1157,-1585.97,0,0
71176.3,52.3063,-1579.77,0,0
71436.7,51.7051,-1573.64,0,0
71697,51.1813,-1567.73,0,0
71957.3,50.0401,-1562.01,0,0
72217.6,48.8242,-1555.83,0,0
72478,47.8031,-1549.24,0,0
72738.3,46.9129,-1542.68,0,0
72998.6,46.3273,-1535.77,0,0
73258.9,46.1795,-1529.29,0,0
73519.3,45.5064,-1522.94,0,0
73779.6,45.0242,-1516.25,0,0
74039.9,44.8412,-1509.52,0,0
74300.225,44.8567,-1502.93,0,0
74560.55,44.909,-1496.52,0,0
74820.875,44.8855,-1490.17,0,0
75081.2,45.1227,-1483.84,0,0
75341.525,45.3205,-1477.64,0,0
75601.85,45.585,-1471.4,0,0
75862.175,45.8889,-1465.27,0,0
76122.5,46.3451,-1459.22,0,0
76382.825,46.7676,-1453.39,0,0
76643.15,47.2149,-1447.64,0,0
76903.475,47.6685,-1441.89,0,0
77163.8,48.1511,-1436.12,0,0
77424.125,48.8907,-1430.47,0,0
77684.45,49.5583,-1425.03,0,0
77944.775,50.3288,-1419.78,0,0
78205.1,51.0778,-1414.7,0,0
78465.425,51.8255,-1409.86,0,0
78725.75,52.4288,-1405.26,0,0
78986.075,52.9043,-1400.76,0,0
79246.4,53.1468,-1396.41,0,0
79506.725,53.2745,-1392.17,0,0
79767.05,53.1094,-1388.02,0,0
80027.375,52.5623,-1383.81,0,0
80287.7,51.6934,-1379.26,0,0
80548.025,51.0274,-1374.27,0,0
80808.35,50.4091,-1369.35,0,0
81068.675,49.8973,-1364.29,0,0
81329.0,49.5024,-1359.22,0,0
81589.325,49.1378,-1354.14,0,0
81849.65,48.723,-1349.02,0,0
82109.975,48.4158,-1343.88,0,0
82370.3,48.247,-1338.74,0,0
82630.625,48.0105,-1333.57,0,0
82890.95,47.9817,-1328.37,0,0
83151.275,47.9886,-1323.23,0,0
83411.6,48.101,-1318.2,0,0
83671.925,48.2986,-1313.28,0,0
83932.25,48.4284,-1308.34,0,0
84192.575,48.6466,-1303.56,0,0
84452.9,48.8393,-1298.83,0,0
84713.225,48.933,-1294.19,0,0
84973.55,49.0745,-1289.45,0,0
85233.875,49.1714,-1284.73,0,0
85494.2,49.3477,-1280.02,0,0
85754.525,49.7561,-1275.37,0,0
86014.85,50.0309,-1270.98,0,0
86275.175,50.2325,-1266.61,0,0
86535.5,50.395,-1262.28,0,0
86795.825,50.388,-1257.96,0,0
87056.15,50.5594,-1253.46,0,0
87316.475,50.8602,-1249.08,0,0
87576.8,51.0418,-1245.11,0,0
87837.125,50.9988,-1240.89,0,0
88097.45,50.968,-1236.6,0,0
88357.775,51.047,-1232.3,0,0
88618.1,51.1481,-1228.3,0,0
88878.425,50.7854,-1224.03,0,0
89138.75,50.7424,-1219.3,0,0
89399.075,51.2239,-1215.05,0,0
89659.4,51.3733,-1210.8,0,0
89919.725,51.7359,-1206.66,0,0
90180,52.1004,-1202.88,0,0
90440.4,51.8173,-1199.25,0,0
90700.7,51.3503,-1194.91,0,0
90961,51.3225,-1190.15,0,0
91221.3,51.9278,-1185.7,0,0
91481.7,52.3629,-1181.88,0,0
91742,52.549,-1177.8,0,0
92002.3,52.9327,-1173.68,0,0
92262.6,53.2984,-1169.51,0,0
92523,53.9751,-1165.65,0,0
92783.3,54.3901,-1162.1,0,0
93043.6,54.7564,-1158.38,0,0
93303.9,55.2057,-1154.84,0,0
93564.3,55.5105,-1151.37,0,0
93824.6,55.991,-1147.91,0,0
94084.9,56.1153,-1145.03,0,0
94345.2,55.6864,-1141.82,0,0
94605.6,55.2982,-1138.23,0,0
94865.9,55.2501,-1134.46,0,0
95126.2,55.1316,-1131.11,0,0
95386.5,54.462,-1127.6,0,0
95646.9,53.8302,-1123.25,0,0
95907.2,54.1805,-1118.61,0,0
96167.5,55.0216,-1114.52,0,0
96427.8,55.8603,-1111,0,0
96688.2,56.3862,-1107.63,0,0
96948.5,57.0729,-1104.33,0,0
97208.8,57.7464,-1101.29,0,0
97469.1,58.259,-1098.78,0,0
97729.5,58.0828,-1096.3,0,0
97989.8,57.8068,-1093.4,0,0
98250.1,57.5795,-1090.34,0,0
98510.4,57.5578,-1087.48,0,0
98770.8,57.2364,-1084.84,0,0
99031.1,56.6854,-1082.18,0,0
99291.4,55.8094,-1079.42,0,0
99551.7,54.6905,-1076.45,0,0
99812.1,53.4003,-1072.87,0,0
100072,52.6883,-1068.9,0,0
100333,52.4747,-1065.2,0,0
100593,52.2139,-1062,0,0
100853,51.4329,-1058.89,0,0
101114,50.5045,-1055.43,0,0
101374,49.6356,-1051.95,0,0
101634,48.3637,-1048.1,0,0
101895,47.4486,-1043.78,0,0
102155,47.0335,-1039.39,0,0
102415,46.8901,-1035.23,0,0
102676,46.6661,-1031.31,0,0
102936,46.2057,-1027.25,0,0
103196,45.896,-1022.95,0,0
103457,45.7484,-1018.58,0,0
103717,45.9558,-1014.13,0,0
103977,46.2526,-1009.86,0,0
104238,46.7361,-1005.52,0,0
104498,47.4903,-1001.36,0,0
104758,48.3872,-997.473,0,0
105019,49.2129,-993.807,0,0
105279,49.8937,-990.272,0,0
105539,50.6667,-986.556,0,0
105800,51.6956,-982.956,0,0
106060,52.8509,-979.719,0,0
106320.175,53.9122,-976.664,0,0
106580.5,55.0039,-973.75,0,0
106840.825,56.0647,-971.283,0,0
107101.15,56.7622,-968.939,0,0
107361.475,57.3387,-966.737,0,0
107621.8,57.4758,-964.648,0,0
107882.125,57.5315,-962.295,0,0
108142.45,57.5182,-960.09,0,0
108402.775,57.0086,-957.829,0,0
108663.1,56.5223,-955.206,0,0
108923.425,55.9979,-952.583,0,0
109183.75,55.3674,-949.861,0,0
109444.075,54.6832,-946.842,0,0
109704.4,54.1727,-943.84,0,0
109964.725,53.5151,-940.779,0,0
110225.05,52.7776,-937.396,0,0
110485.375,52.2043,-933.912,0,0
110745.7,51.9157,-930.208,0,0
111006.025,51.6663,-926.702,0,0
111266.35,51.4704,-923.025,0,0
111526.675,51.345,-919.557,0,0
111787.0,51.3667,-915.913,0,0
112047.325,51.6084,-912.287,0,0
112307.65,51.7233,-908.982,0,0
112567.975,51.8087,-905.497,0,0
112828.3,51.9365,-901.967,0,0
113088.625,52.1419,-898.492,0,0
113348.95,52.398,-894.906,0,0
113609.275,52.8561,-891.466,0,0
113869.6,53.2078,-888.209,0,0
114129.925,53.5415,-884.784,0,0
114390.25,53.9952,-881.406,0,0
114650.575,54.4659,-878.038,0,0
114910.9,54.9748,-874.675,0,0
115171.225,55.553,-871.337,0,0
115431.55,56.2599,-868.134,0,0
115691.875,56.903,-865.001,0,0
115952.2,57.4792,-861.838,0,0
116212.525,58.2073,-858.709,0,0
116472.85,58.9545,-855.631,0,0
116733.175,59.7316,-852.667,0,0
116993.5,60.4844,-849.734,0,0
117253.825,61.2117,-846.851,0,0
117514.15,62.0093,-843.935,0,0
117774.475,62.9024,-841.11,0,0
118034.8,63.8352,-838.446,0,0
118295.125,64.6909,-835.968,0,0
118555.45,65.3942,-833.469,0,0
118815.775,66.209,-830.916,0,0
119076.1,67.0554,-828.627,0,0
119336.425,67.6241,-826.453,0,0
119596.75,68.227,-824.096,0,0
119857.075,68.8657,-821.983,0,0
120117.4,69.3639,-819.917,0,0
120377.725,69.671,-817.876,0,0
120638.05,69.9386,-815.847,0,0
120898.375,70.0522,-813.897,0,0
121158.7,69.9039,-811.79,0,0
121419.025,69.7693,-809.46,0,0
121679.35,69.7389,-807.126,0,0
121939.675,69.5619,-804.828,0,0
122200.0,69.3375,-802.362,0,0
122460,69.1085,-799.839,0,0
122721,68.9619,-797.159,0,0
122981,68.8623,-794.517,0,0
123241,68.7849,-791.857,0,0
123502,68.7456,-789.191,0,0
123762,68.6378,-786.587,0,0
124022,68.4621,-783.817,0,0
124283,68.3697,-781.031,0,0
124543,68.268,-778.211,0,0
124803,68.2303,-775.334,0,0
125064,68.1266,-772.376,0,0
125324,68.1901,-769.365,0,0
125584,68.2645,-766.347,0,0
125845,68.3987,-763.324,0,0
126105,68.5946,-760.298,0,0
126365,68.8521,-757.263,0,0
126626,69.1359,-754.248,0,0
126886,69.4492,-751.211,0,0
127146,69.8995,-748.173,0,0
127406,70.3713,-745.126,0,0
127667,70.9638,-742.104,0,0
127927,71.6302,-739.219,0,0
128187,72.2651,-736.431,0,0
128448,72.8897,-733.659,0,0
128708,73.5257,-730.948,0,0
128968,74.1912,-728.26,0,0
129229,74.8508,-725.723,0,0
129489,75.38,-723.238,0,0
129749,75.7964,-720.699,0,0
130010,76.2417,-718.072,0,0
130270,76.7825,-715.421,0,0
130530,77.3576,-712.837,0,0
130791,77.9581,-710.3,0,0
131051,78.5261,-707.904,0,0
131311,78.9909,-705.617,0,0
131572,79.3222,-703.249,0,0
131832,79.616,-700.818,0,0
132092,79.8633,-698.421,0,0
132353,79.9571,-695.945,0,0
132613,80.0364,-693.311,0,0
132873,80.2013,-690.573,0,0
133134,80.468,-687.798,0,0
133394,80.7477,-685.05,0,0
133654,81.0699,-682.308,0,0
133915,81.4266,-679.615,0,0
134175,81.6827,-676.93,0,0
134435,81.8595,-674.182,0,0
134696,82.0346,-671.321,0,0
134956,82.2789,-668.346,0,0
135216,82.5639,-665.371,0,0
135477,82.9194,-662.313,0,0
135737,83.3871,-659.232,0,0
135997,83.8783,-656.209,0,0
136258,84.4377,-653.192,0,0
136518,85.0532,-650.179,0,0
136778,85.6345,-647.235,0,0
137039,86.157,-644.266,0,0
137299,86.7132,-641.18,0,0
137559,87.4168,-638.093,0,0
137819,88.1209,-635.066,0,0
138080,88.881,-632.129,0,0
138340.125,89.4997,-629.215,0,0
138600.45,90.0704,-626.221,0,0
138860.775,90.6639,-623.09,0,0
139121.1,91.3472,-619.915,0,0
139381.425,92.0497,-616.779,0,0
139641.75,92.758,-613.642,0,0
139902.075,93.3133,-610.439,0,0
140162.4,93.9114,-606.991,0,0
140422.725,94.6587,-603.384,0,0
140683.05,95.5575,-599.709,0,0
140943.375,96.6071,-595.963,0,0
141203.7,97.8278,-592.183,0,0
141464.025,99.279,-588.359,0,0
141724.35,100.928,-584.696,0,0
141984.675,102.643,-581.076,0,0
142245.0,104.504,-577.545,0,0
142505.325,106.459,-574.062,0,0
142765.65,108.547,-570.704,0,0
143025.975,110.695,-567.574,0,0
143286.3,112.719,-564.582,0,0
143546.625,114.653,-561.514,0,0
143806.95,116.67,-558.369,0,0
144067.275,118.797,-555.292,0,0
144327.6,120.94,-552.262,0,0
144587.925,123.069,-549.276,0,0
144848.25,125.183,-546.181,0,0
145108.575,127.491,-543.028,0,0
145368.9,129.994,-539.965,0,0
145629.225,132.527,-536.98,0,0
145889.55,135.141,-534.11,0,0
146149.875,137.739,-531.268,0,0
146410.2,140.389,-528.409,0,0
146670.525,143.124,-525.573,0,0
146930.85,145.924,-522.758,0,0
147191.175,148.781,-519.888,0,0
147451.5,151.865,-516.964,0,0
147711.825,155.171,-514.147,0,0
147972.15,158.58,-511.482,0,0
148232.475,162.058,-508.785,0,0
148492.8,165.796,-506.094,0,0
148753.125,169.769,-503.482,0,0
149013.45,174.047,-500.897,0,0
149273.775,178.932,-498.525,0,0
149534.1,184.144,-496.779,0,0
149794.425,189.419,-495.579,0,0
150054.75,194.684,-494.793,0,0
150315.075,200.083,-494.303,0,0
150575.4,205.801,-494.437,0,0
150835.725,211.417,-495.619,0,0
151096.05,216.323,-497.54,0,0
151356.375,220.568,-499.642,0,0
151616.7,224.563,-501.892,0,0
151877.025,228.276,-504.628,0,0
152137.35,231.211,-507.773,0,0
152397.675,233.4,-510.857,0,0
152658.0,235.096,-513.762,0,0
152918.325,236.435,-516.49,0,0
153178.65,237.501,-519.083,0,0
153438.975,238.352,-521.697,0,0
153699.3,238.722,-524.421,0,0
153959.625,238.476,-526.93,0,0
154219.95,237.733,-528.954,0,0
154480,236.815,-530.396,0,0
154741,236.039,-531.627,0,0
155001,235.12,-532.413,0,0
155261,234.207,-532.894,0,0
155522,233.592,-533.302,0,0
155782,233.087,-533.729,0,0
156042,232.226,-534.43,0,0
156303,231.009,-534.767,0,0
156563,229.818,-534.585,0,0
156823,228.755,-534.394,0,0
157084,227.414,-534.234,0,0
157344,225.792,-533.466,0,0
157604,224.432,-531.846,0,0
157864,223.847,-530.058,0,0
158125,223.565,-528.578,0,0
158385,223.268,-527.039,0,0
158645,223.389,-525.413,0,0
158906,223.771,-524.08,0,0
159166,224.113,-522.956,0,0
159426,224.386,-522.055,0,0
159687,224.458,-521.058,0,0
159947,224.744,-520.164,0,0
160207,224.754,-519.344,0,0
160468,224.747,-518.414,0,0
160728,224.545,-517.451,0,0
160988,224.262,-516.01,0,0
161249,224.634,-514.023,0,0
161509,225.641,-512.399,0,0
161769,226.995,-511.227,0,0
162030,228.75,-510.47,0,0
162290,230.612,-510.776,0,0
162550,231.748,-512.05,0,0
162811,231.845,-513.666,0,0
163071,231.199,-515.225,0,0
163331,229.673,-516.392,0,0
163592,227.755,-516.995,0,0
163852,225.768,-517.37,0,0
164112,223.338,-517.597,0,0
164373,220.393,-517.066,0,0
164633,217.497,-515.942,0,0
164893,214.771,-514.465,0,0
165154,212.069,-512.769,0,0
165414,209.232,-510.658,0,0
165674,206.391,-508.114,0,0
165935,203.713,-504.931,0,0
166195,201.525,-501.453,0,0
166455,199.7,-498.068,0,0
166716,197.741,-494.348,0,0
166976,196.052,-490.225,0,0
167236,195.008,-486.051,0,0
167497,194.082,-482.05,0,0
167757,193.116,-477.936,0,0
168017,192.32,-473.644,0,0
168277,191.744,-469.125,0,0
168538,191.582,-464.543,0,0
168798,191.722,-459.977,0,0
169058,191.987,-455.711,0,0
169319,192.241,-451.581,0,0
169579,192.334,-447.216,0,0
169839,192.66,-442.477,0,0
170100,193.565,-437.716,0,0
170360.075,194.821,-433.354,0,0
170620.4,195.826,-429.327,0,0
170880.725,196.396,-425.228,0,0
171141.05,197.036,-420.493,0,0
171401.375,198.223,-415.501,0,0
171661.7,199.702,-410.761,0,0
171922.025,201.385,-406.01,0,0
172182.35,203.21,-401.474,0,0
172442.675,204.945,-396.858,0,0
172703.0,206.899,-392.05,0,0
172963.325,209.199,-387.305,0,0
173223.65,211.583,-382.69,0,0
173483.975,213.894,-378.162,0,0
173744.3,216.256,-373.268,0,0
174004.625,219.05,-368.291,0,0
174264.95,222.098,-363.351,0,0
174525.275,225.466,-358.368,0,0
174785.6,229.295,-353.374,0,0
175045.925,233.531,-348.715,0,0
175306.25,237.936,-344.337,0,0
175566.575,242.603,-340.097,0,0
175826.9,247.641,-336.161,0,0
176087.225,252.909,-332.698,0,0
176347.55,258.03,-329.827,0,0
176607.875,262.946,-327.173,0,0
176868.2,267.738,-324.518,0,0
177128.525,272.618,-321.827,0,0
177388.85,277.854,-319.148,0,0
177649.175,283.493,-316.935,0,0
177909.5,289.287,-315.474,0,0
178169.825,294.838,-314.767,0,0
178430.15,299.818,-314.464,0,0
178690.475,304.397,-314.184,0,0
178950.8,308.826,-314.284,0,0
179211.125,312.767,-314.641,0,0
179471.45,316.347,-315.244,0,0
179731.775,318.826,-316.352,0,0
179992.1,320.113,-316.953,0,0
180252.425,322.286,-315.308,0,0
180512.75,323.335,-314.574,0,0
180773.075,324.128,-313.21,0,0
181033.4,324.875,-311.278,0,0
181293.725,325.452,-308.592,0,0
181554.05,326.31,-304.722,0,0
181814.375,328.203,-300.262,0,0
182074.7,330.879,-295.705,0,0
182335.025,334.288,-291.49,0,0
182595.35,337.833,-287.717,0,0
182855.675,341.08,-283.958,0,0
183116.0,344.261,-279.701,0,0
183376.325,348.031,-274.943,0,0
183636.65,352.561,-270.141,0,0
183896.975,357.432,-265.624,0,0
184157.3,362.514,-261.252,0,0
184417.625,367.742,-256.557,0,0
184677.95,373.697,-251.647,0,0
184938.275,380.627,-247.032,0,0
185198.6,387.953,-243.228,0,0
185458.925,395.185,-240.068,0,0
185719.25,402.401,-237.097,0,0
185979.575,409.772,-234.218,0,0
186239.9,417.204,-231.432,0,0
186500,424.984,-229.127,0,0
186761,432.641,-227.318,0,0
187021,439.808,-225.357,0,0
187281,447.376,-222.78,0,0
187542,455.682,-220.416,0,0
187802,464.398,-218.659,0,0
188062,473.11,-217.379,0,0
188322,481.798,-216.342,0,0
188583,490.716,-215.683,0,0
188843,499.551,-215.846,0,0
189103,507.441,-216.168,0,0
189364,514.872,-215.957,0,0
189624,522.623,-215.147,0,0
189884,530.611,-214.049,0,0
190145,539.117,-212.76,0,0
190405,548.397,-211.367,0,0
190665,558.103,-210.505,0,0
190926,567.909,-209.754,0,0
191186,578.087,-208.779,0,0
191446,589.197,-207.832,0,0
191707,601.133,-207.565,0,0
191967,613.352,-207.819,0,0
192227,626.078,-208.464,0,0
192488,639.439,-209.65,0,0
192748,653.36,-211.501,0,0
193008,667.948,-214.148,0,0
193269,683.125,-217.873,0,0
193529,698.68,-222.976,0,0
193789,714.249,-229.449,0,0
194050,729.714,-237.484,0,0
194310,744.394,-247.019,0,0
194570,758.044,-257.445,0,0
194831,770.999,-268.504,0,0
195091,783.184,-280.238,0,0
195351,794.752,-292.741,0,0
195612,805.123,-305.716,0,0
195872,814.535,-318.643,0,0
196132,823.483,-331.545,0,0
196393,832.066,-344.633,0,0
196653,840.115,-357.928,0,0
196913,847.778,-371.317,0,0
197174,855.016,-384.797,0,0
197434,862.053,-398.232,0,0
197694,869.419,-411.886,0,0
197955,876.951,-426.44,0,0
198215,884.08,-442.194,0,0
198475,890.295,-459.171,0,0
198735,895.032,-476.984,0,0
198996,898.212,-494.818,0,0
199256,900.121,-512.41,0,0
199516,901.151,-529.416,0,0
199777,901.777,-545.992,0,0
200037,902.427,-562.577,0,0
200297,902.707,-579.64,0,0
200558,901.973,-597.189,0,0
200818,900.274,-614.848,0,0
201078,897.78,-632.546,0,0
201339,894.115,-650.78,0,0
201599,888.366,-668.698,0,0
201859,881.193,-685.351,0,0
202120,873.637,-700.266,0,0
202380.025,866.637,-714.708,0,0
202640.35,859.31,-729.449,0,0
202900.675,850.886,-744.392,0,0
203161.0,841.036,-758.499,0,0
203421.325,830.237,-771.333,0,0
203681.65,819.14,-782.699,0,0
203941.975,808.446,-792.864,0,0
204202.3,798.192,-802.565,0,0
204462.625,787.96,-812.233,0,0
204722.95,777.724,-821.476,0,0
204983.275,767.386,-830.901,0,0
205243.6,756.164,-840.471,0,0
205503.925,743.46,-849.366,0,0
205764.25,729.809,-856.51,0,0
206024.575,716.263,-861.924,0,0
206284.9,703.561,-865.942,0,0
206545.225,691.485,-869.384,0,0
206805.55,679.759,-872.353,0,0
207065.875,668.443,-874.55,0,0
207326.2,657.62,-876.254,0,0
207586.525,647.351,-877.013,0,0
207846.85,637.983,-877.684,0,0
208107.175,629.318,-878.123,0,0
208367.5,621.44,-878.756,0,0
208627.825,613.919,-879.505,0,0
208888.15,607.006,-880.271,0,0
209148.475,600.768,-881.677,0,0
209408.8,594.538,-884.116,0,0
209669.125,587.772,-887.303,0,0
209929.45,579.959,-890.566,0,0
210189.775,571.295,-893.519,0,0
210450.1,562.358,-895.671,0,0
210710.425,553.303,-897.446,0,0
210970.75,544.166,-898.875,0,0
211231.075,534.639,-899.742,0,0
211491.4,524.932,-900.045,0,0
211751.725,515.229,-899.482,0,0
212012.05,505.782,-897.955,0,0
212272.375,497.136,-895.75,0,0
212532.7,489.345,-893.395,0,0
212793.025,481.769,-891.09,0,0
213053.35,474.549,-888.746,0,0
213313.675,467.563,-886.152,0,0
213574.0,460.89,-883.526,0,0
213834.325,454.552,-880.626,0,0
214094.65,448.49,-877.719,0,0
214354.975,442.661,-874.757,0,0
214615.3,437.242,-871.755,0,0
214875.625,432.027,-868.715,0,0
215135.95,426.971,-865.696,0,0
215396.275,422.162,-862.748,0,0
215656.6,417.373,-859.704,0,0
215916.925,412.789,-856.467,0,0
216177.25,408.556,-853.197,0,0
216437.575,404.624,-849.905,0,0
216697.9,400.798,-846.696,0,0
216958.225,397.238,-843.408,0,0
217218.55,393.944,-840.058,0,0
217478.875,390.865,-836.78,0,0
217739.2,388.146,-833.673,0,0
217999.525,385.545,-830.746,0,0
218259.85,382.942,-827.957,0,0
218520,380.355,-825.042,0,0
218780,378.005,-822.027,0,0
219041,375.965,-819.018,0,0
219301,374.058,-816.166,0,0
219561,372.505,-813.462,0,0
219822,371.079,-810.886,0,0
220082,369.718,-808.46,0,0
220342,368.416,-806.226,0,0
220603,367.074,-804.1,0,0
220863,365.844,-801.904,0,0
221123,364.768,-799.707,0,0
221384,363.872,-797.603,0,0
221644,363.168,-795.639,0,0
221904,362.556,-793.817,0,0
222165,362.081,-792.077,0,0
222425,361.828,-790.618,0,0
222685,361.669,-789.348,0,0
222946,361.59,-788.421,0,0
223206,361.489,-787.834,0,0
223466,361.102,-787.536,0,0
223727,360.385,-787.319,0,0
223987,359.546,-787.012,0,0
224247,358.733,-786.575,0,0
224508,358.019,-786.168,0,0
224768,357.248,-786.091,0,0
225028,356.402,-785.874,0,0
225289,355.29,-785.73,0,0
225549,354.18,-785.36,0,0
225809,353.298,-784.965,0,0
226070,352.49,-784.521,0,0
226330,351.818,-784.186,0,0
226590,351.259,-783.868,0,0
226851,350.726,-783.649,0,0
227111,350.539,-783.515,0,0
227371,350.392,-783.762,0,0
227632,350.335,-784.197,0,0
227892,350.135,-784.932,0,0
228152,349.896,-785.865,0,0
228413,349.658,-787.144,0,0
228673,349.187,-788.659,0,0
228933,348.448,-790.497,0,0
229193,347.403,-792.513,0,0
229454,346.019,-794.554,0,0
229714,344.364,-796.683,0,0
229974,342.319,-798.702,0,0
230235,339.994,-800.679,0,0
230495,337.385,-802.523,0,0
230755,334.579,-804.211,0,0
231016,331.686,-805.766,0,0
231276,328.62,-807.161,0,0
231536,325.445,-808.304,0,0
231797,322.239,-809.283,0,0
232057,318.995,-810.215,0,0
232317,315.75,-811.083,0,0
232578,312.329,-811.81,0,0
232838,308.857,-812.415,0,0
233098,305.298,-812.818,0,0
233359,301.762,-813.115,0,0
233619,298.183,-813.278,0,0
233879,294.686,-813.343,0,0
234140,291.08,-813.238,0,0
234400,287.466,-813.126,0,0
234660.3,283.879,-812.741,0,0
234920.625,280.379,-812.129,0,0
235180.95,277.006,-811.555,0,0
235441.275,273.615,-811.077,0,0
235701.6,270.293,-810.467,0,0
235961.925,266.927,-809.754,0,0
236222.25,263.634,-809.061,0,0
236482.575,260.329,-808.28,0,0
236742.9,256.99,-807.467,0,0
237003.225,253.581,-806.569,0,0
237263.55,250.148,-805.515,0,0
237523.875,246.781,-804.406,0,0
237784.2,243.375,-803.146,0,0
238044.525,240.075,-801.766,0,0
238304.85,236.807,-800.228,0,0
238565.175,233.684,-798.625,0,0
238825.5,230.588,-797.022,0,0
239085.825,227.608,-795.365,0,0
239346.15,224.617,-793.631,0,0
239606.475,221.68,-791.755,0,0
239866.8,218.889,-789.872,0,0
240127.125,216.091,-787.873,0,0
240387.45,213.49,-785.797,0,0
240647.775,211.033,-783.718,0,0
240908.1,208.688,-781.673,0,0
241168.425,206.397,-779.643,0,0
241428.75,204.166,-777.674,0,0
241689.075,201.955,-775.725,0,0
241949.4,199.733,-773.753,0,0
242209.725,197.641,-771.678,0,0
242470.05,195.625,-769.611,0,0
242730.375,193.761,-767.486,0,0
242990.7,192.038,-765.492,0,0
243251.025,190.364,-763.606,0,0
243511.35,188.778,-761.747,0,0
243771.675,187.167,-760.045,0,0
244032.0,185.519,-758.453,0,0
244292.325,183.815,-756.839,0,0
244552.65,182.111,-755.294,0,0
244812.975,180.427,-753.797,0,0
245073.3,178.724,-752.261,0,0
245333.625,176.952,-750.831,0,0
245593.95,175.16,-749.494,0,0
245854.275,173.335,-748.179,0,0
246114.6,171.338,-747.055,0,0
246374.925,169.142,-745.863,0,0
246635.25,166.75,-744.59,0,0
246895.575,164.106,-743.163,0,0
247155.9,161.475,-741.542,0,0
247416.225,158.743,-739.589,0,0
247676.55,156.028,-737.483,0,0
247936.875,153.419,-735.176,0,0
248197.2,150.936,-732.716,0,0
248457.525,148.551,-730.158,0,0
248717.85,146.267,-727.584,0,0
248978.175,143.998,-724.91,0,0
249238.5,141.813,-722.125,0,0
249498.825,139.693,-719.148,0,0
249759.15,137.703,-716.27,0,0
250019.475,135.881,-713.264,0,0
250279.8,134.046,-710.173,0,0
250540,132.302,-706.935,0,0
250800,130.553,-703.71,0,0
251061,129.065,-700.336,0,0
251321,127.705,-696.925,0,0
251581,126.519,-693.406,0,0
251842,125.546,-689.907,0,0
252102,124.716,-686.415,0,0
252362,124.111,-682.995,0,0
252623,123.568,-679.684,0,0
252883,123.121,-676.462,0,0
253143,122.736,-673.314,0,0
253404,122.388,-670.164,0,0
253664,122.078,-667.069,0,0
253924,121.84,-663.977,0,0
254185,121.653,-660.926,0,0
254445,121.55,-657.845,0,0
254705,121.403,-654.787,0,0
254966,121.317,-651.735,0,0
255226,121.358,-648.567,0,0
255486,121.415,-645.388,0,0
255747,121.68,-642.19,0,0
256007,122.105,-638.967,0,0
256267,122.724,-635.805,0,0
256528,123.485,-632.754,0,0
256788,124.345,-629.784,0,0
257048,125.346,-626.939,0,0
257309,126.411,-624.207,0,0
257569,127.517,-621.605,0,0
257829,128.668,-619.115,0,0
258090,129.83,-616.683,0,0
258350,131.013,-614.304,0,0
258610,132.253,-612.004,0,0
258871,133.539,-609.749,0,0
259131,134.828,-607.585,0,0
259391,136.176,-605.394,0,0
259651,137.567,-603.294,0,0
259912,139.195,-601.238,0,0
260172,140.798,-599.274,0,0
260432,142.494,-597.457,0,0
260693,144.231,-595.755,0,0
260953,146.027,-594.211,0,0
261213,147.838,-592.764,0,0
261474,149.651,-591.45,0,0
261734,151.452,-590.236,0,0
261994,153.254,-589.131,0,0
262255,155.043,-588.146,0,0
262515,156.815,-587.244,0,0
262775,158.594,-586.416,0,0
263036,160.382,-585.711,0,0
263296,162.159,-585.124,0,0
263556,163.923,-584.709,0,0
263817,165.618,-584.38,0,0
264077,167.253,-584.182,0,0
264337,168.763,-584.104,0,0
264598,170.191,-584.08,0,0
264858,171.565,-584.114,0,0
265118,172.829,-584.235,0,0
265379,174.022,-584.399,0,0
265639,175.088,-584.673,0,0
265899,176.03,-584.869,0,0
266160,176.867,-585.056,0,0
266420,177.686,-585.207,0,0
266680.25,178.496,-585.346,0,0
266940.575,179.284,-585.581,0,0
267200.9,180.023,-585.829,0,0
267461.225,180.66,-586.114,0,0
267721.55,181.255,-586.418,0,0
267981.875,181.764,-586.78,0,0
268242.2,182.118,-587.164,0,0
268502.525,182.326,-587.446,0,0
268762.85,182.463,-587.734,0,0
269023.175,182.499,-587.863,0,0
269283.5,182.432,-587.886,0,0
269543.825,182.367,-587.811,0,0
269804.15,182.27,-587.544,0,0
270064.475,182.234,-587.14,0,0
270324.8,182.261,-586.603,0,0
270585.125,182.379,-586.005,0,0
270845.45,182.652,-585.247,0,0
271105.775,183.059,-584.444,0,0
271366.1,183.656,-583.657,0,0
271626.425,184.383,-582.906,0,0
271886.75,185.196,-582.179,0,0
272147.075,186.149,-581.518,0,0
272407.4,187.216,-580.811,0,0
272667.725,188.466,-580.143,0,0
272928.05,189.856,-579.563,0,0
273188.375,191.47,-579.099,0,0
273448.7,193.243,-578.783,0,0
273709.025,195.163,-578.694,0,0
273969.35,197.198,-578.779,0,0
274229.675,199.346,-579.069,0,0
274490.0,201.654,-579.634,0,0
274750.325,204.05,-580.529,0,0
275010.65,206.575,-581.903,0,0
275270.975,209.033,-583.635,0,0
275531.3,211.308,-585.821,0,0
275791.625,213.408,-588.549,0,0
276051.95,215.112,-591.699,0,0
276312.275,216.349,-595.181,0,0
276572.6,217.027,-598.926,0,0
276832.925,217.055,-602.756,0,0
277093.25,216.518,-606.426,0,0
277353.575,215.521,-609.919,0,0
277613.9,214.174,-613.122,0,0
277874.225,212.558,-616.08,0,0
278134.55,210.756,-618.801,0,0
278394.875,208.789,-621.267,0,0
278655.2,206.713,-623.559,0,0
278915.525,204.507,-625.628,0,0
279175.85,202.239,-627.536,0,0
279436.175,199.867,-629.274,0,0
279696.5,197.421,-630.811,0,0
279956.825,194.975,-632.228,0,0
280217.15,192.306,-633.528,0,0
280477.475,189.595,-634.638,0,0
280737.8,186.83,-635.492,0,0
280998.125,184.18,-636.102,0,0
281258.45,181.578,-636.628,0,0
281518.775,179.038,-637.104,0,0
281779.1,176.47,-637.6,0,0
282039.425,173.819,-638.018,0,0
282299.75,171.018,-638.383,0,0
282560,168.049,-638.556,0,0
282820,164.978,-638.493,0,0
283081,161.791,-638.083,0,0
283341,158.714,-637.303,0,0
283601,155.845,-636.164,0,0
283862,153.359,-634.83,0,0
284122,151.246,-633.522,0,0
284382,149.447,-632.373,0,0
284643,147.695,-631.542,0,0
284903,145.726,-630.979,0,0
285163,143.56,-630.383,0,0
285424,141.063,-629.759,0,0
285684,138.364,-628.892,0,0
285944,135.587,-627.761,0,0
286205,132.721,-626.343,0,0
286465,129.797,-624.572,0,0
286725,126.945,-622.421,0,0
286986,124.319,-619.894,0,0
287246,121.894,-617.068,0,0
287506,119.793,-614.012,0,0
287767,118.012,-610.798,0,0
288027,116.464,-607.481,0,0
288287,115.201,-604.044,0,0
288548,114.186,-600.444,0,0
288808,113.471,-596.681,0,0
289068,113.21,-592.76,0,0
289329,113.463,-588.801,0,0
289589,114.242,-584.908,0,0
289849,115.533,-581.264,0,0
290109,117.205,-577.917,0,0
290370,119.264,-574.921,0,0
290630,121.522,-572.227,0,0
290890,124.062,-569.85,0,0
291151,126.904,-567.904,0,0
291411,129.946,-566.433,0,0
291671,133.149,-565.501,0,0
291932,136.357,-565.187,0,0
292192,139.472,-565.411,0,0
292452,142.41,-566.229,0,0
292713,144.985,-567.716,0,0
292973,146.957,-569.616,0,0
293233,148.254,-571.731,0,0
293494,148.902,-573.862,0,0
293754,149.014,-575.811,0,0
294014,148.699,-577.454,0,0
294275,148.049,-578.764,0,0
294535,147.289,-579.619,0,0
294795,146.52,-580.099,0,0
295056,145.922,-580.275,0,0
295316,145.642,-580.225,0,0
295576,145.506,-580.058,0,0
295837,145.772,-579.908,0,0
296097,146.435,-579.899,0,0
296357,147.442,-580.284,0,0
296618,148.584,-581.285,0,0
296878,149.506,-583.029,0,0
297138,149.887,-585.208,0,0
297399,149.598,-587.604,0,0
297659,148.673,-589.912,0,0
297919,147.25,-591.948,0,0
298180,145.506,-593.676,0,0
298440,143.554,-595.041,0,0
298700.2,141.478,-596.059,0,0
298960.525,139.397,-596.792,0,0
299220.85,137.349,-597.277,0,0
299481.175,135.352,-597.613,0,0
299741.5,133.388,-597.839,0,0
300001.825,131.397,-597.908,0,0
300262.15,129.385,-597.829,0,0
300522.475,127.407,-597.522,0,0
300782.8,125.476,-597.03,0,0
301043.125,123.695,-596.355,0,0
301303.45,122.088,-595.505,0,0
301563.775,120.715,-594.591,0,0
301824.1,119.569,-593.702,0,0
302084.425,118.611,-592.856,0,0
302344.75,117.814,-592.103,0,0
302605.075,117.127,-591.494,0,0
302865.4,116.505,-591.074,0,0
303125.725,115.851,-590.828,0,0
303386.05,115.144,-590.713,0,0
303646.375,114.354,-590.716,0,0
303906.7,113.425,-590.786,0,0
304167.025,112.373,-590.896,0,0
304427.35,111.171,-590.992,0,0
304687.675,109.861,-591.079,0,0
304948.0,108.42,-591.102,0,0
305208.325,106.872,-591.081,0,0
305468.65,105.21,-590.949,0,0
305728.975,103.506,-590.664,0,0
305989.3,101.741,-590.282,0,0
306249.625,99.9803,-589.768,0,0
306509.95,98.2242,-589.118,0,0
306770.275,96.5207,-588.359,0,0
307030.6,94.8316,-587.527,0,0
307290.925,93.1773,-586.613,0,0
307551.25,91.5957,-585.605,0,0
307811.575,90.0517,-584.542,0,0
308071.9,88.5735,-583.398,0,0
308332.225,87.1569,-582.229,0,0
308592.55,85.7822,-581.009,0,0
308852.875,84.4928,-579.73,0,0
309113.2,83.2839,-578.437,0,0
309373.525,82.1701,-577.1,0,0
309633.85,81.0985,-575.807,0,0
309894.175,80.0684,-574.531,0,0
310154.5,79.1421,-573.242,0,0
310414.825,78.1653,-572.016,0,0
310675.15,77.2053,-570.779,0,0
310935.475,76.2921,-569.543,0,0
311195.8,75.4097,-568.27,0,0
311456.125,74.5252,-567.011,0,0
311716.45,73.6933,-565.748,0,0
311976.775,72.8642,-564.47,0,0
312237.1,72.0491,-563.207,0,0
312497.425,71.2485,-561.913,0,0
312757.75,70.4919,-560.583,0,0
313018.075,69.7795,-559.249,0,0
313278.4,69.1132,-557.915,0,0
313538.725,68.4783,-556.624,0,0
313799.05,67.8572,-555.302,0,0
314059.375,67.2769,-554.009,0,0
314319.7,66.6936,-552.736,0,0
314580,66.0923,-551.413,0,0
314840,65.5889,-550.136,0,0
315101,65.0776,-548.918,0,0
315361,64.6189,-547.597,0,0
315621,64.0844,-546.358,0,0
315882,63.652,-545.132,0,0
316142,63.211,-543.818,0,0
316402,62.7936,-542.567,0,0
316663,62.3669,-541.204,0,0
316923,62.0142,-539.944,0,0
317183,61.6393,-538.683,0,0
317444,61.3129,-537.359,0,0
317704,61.0372,-536.122,0,0
317964,60.8075,-534.89,0,0
318225,60.5173,-533.606,0,0
318485,60.373,-532.48,0,0
318745,60.1475,-531.264,0,0
319006,60.0342,-530.114,0,0
319266,59.794,-528.983,0,0
319526,59.6327,-527.898,0,0
319787,59.4277,-526.868,0,0
320047,59.2148,-525.676,0,0
320307,59.0316,-524.649,0,0
320567,58.8102,-523.598,0,0
320828,58.6249,-522.435,0,0
321088,58.4093,-521.397,0,0
321348,58.243,-520.31,0,0
321609,58.049,-519.177,0,0
321869,57.861,-518.121,0,0
322129,57.6352,-516.94,0,0
322390,57.4308,-515.851,0,0
322650,57.2813,-514.699,0,0
322910,57.1173,-513.636,0,0
323171,56.9877,-512.431,0,0
323431,56.7914,-511.285,0,0
323691,56.617,-510.049,0,0
323952,56.4754,-508.784,0,0
324212,56.4186,-507.468,0,0
324472,56.3851,-506.13,0,0
324733,56.4489,-504.824,0,0
324993,56.5665,-503.426,0,0
325253,56.8481,-502.081,0,0
325514,57.1357,-500.667,0,0
325774,57.5692,-499.374,0,0
326034,58.121,-498.127,0,0
326295,58.6874,-496.91,0,0
326555,59.3511,-495.942,0,0
326815,60.0961,-495.011,0,0
327076,60.7873,-494.298,0,0
327336,61.427,-493.577,0,0
327596,62.0817,-493.069,0,0
327857,62.631,-492.559,0,0
328117,63.0702,-492.043,0,0
328377,63.5627,-491.624,0,0
328638,63.9352,-491.195,0,0
328898,64.3574,-490.787,0,0
329158,64.6892,-490.402,0,0
329419,65.0065,-490.009,0,0
329679,65.3103,-489.685,0,0
329939,65.6341,-489.374,0,0
330200,65.9044,-489.138,0,0
330460,66.1464,-488.884,0,0
330720.15,66.3761,-488.717,0,0
330980.475,66.6029,-488.559,0,0
331240.8,66.664,-488.433,0,0
331501.125,66.766,-488.36,0,0
331761.45,66.7866,-488.284,0,0
332021.775,66.7256,-488.226,0,0
332282.1,66.5898,-488.219,0,0
332542.425,66.3543,-488.171,0,0
332802.75,66.0318,-488.066,0,0
333063.075,65.6623,-488.004,0,0
333323.4,65.2456,-487.796,0,0
333583.725,64.7837,-487.631,0,0
333844.05,64.2157,-487.34,0,0
334104.375,63.6655,-486.932,0,0
334364.7,63.1581,-486.499,0,0
334625.025,62.6532,-485.993,0,0
334885.35,62.0737,-485.412,0,0
335145.675,61.6184,-484.865,0,0
335406.0,61.1386,-484.23,0,0
335666.325,60.769,-483.581,0,0
335926.65,60.3385,-482.868,0,0
336186.975,59.8972,-482.23,0,0
336447.3,59.5194,-481.566,0,0
336707.625,59.1698,-480.859,0,0
336967.95,58.7545,-480.139,0,0
337228.275,58.4117,-479.368,0,0
337488.6,58.0603,-478.582,0,0
337748.925,57.7297,-477.811,0,0
338009.25,57.4331,-477.012,0,0
338269.575,57.1788,-476.232,0,0
338529.9,56.9113,-475.478,0,0
338790.225,56.6435,-474.655,0,0
339050.55,56.3604,-473.842,0,0
339310.875,56.1213,-473.082,0,0
339571.2,55.8895,-472.235,0,0
339831.525,55.646,-471.34,0,0
340091.85,55.4264,-470.5,0,0
340352.175,55.2713,-469.574,0,0
340612.5,55.139,-468.787,0,0
340872.825,54.9596,-467.858,0,0
341133.15,54.8312,-466.952,0,0
341393.475,54.7564,-466.084,0,0
341653.8,54.6641,-465.23,0,0
341914.125,54.5578,-464.334,0,0
342174.45,54.5562,-463.424,0,0
342434.775,54.533,-462.622,0,0
342695.1,54.4877,-461.726,0,0
342955.425,54.4761,-460.84,0,0
343215.75,54.4579,-459.974,0,0
343476.075,54.4569,-459.095,0,0
343736.4,54.529,-458.221,0,0
343996.725,54.5875,-457.366,0,0
344257.05,54.6569,-456.47,0,0
344517.375,54.7351,-455.579,0,0
344777.7,54.8441,-454.712,0,0
345038.025,54.9357,-453.847,0,0
345298.35,55.1385,-453.043,0,0
345558.675,55.3031,-452.197,0,0
345819.0,55.5282,-451.385,0,0
346079.325,55.7472,-450.612,0,0
346339.65,55.9493,-449.791,0,0
346599.975,56.1651,-449.041,0,0
346860,56.4696,-448.295,0,0
347121,56.6818,-447.593,0,0
347381,56.9487,-446.83,0,0
347641,57.2219,-446.164,0,0
347902,57.4876,-445.444,0,0
348162,57.7622,-444.764,0,0
348422,58.0969,-444.138,0,0
348683,58.4046,-443.437,0,0
348943,58.7328,-442.819,0,0
349203,59.0437,-442.181,0,0
349464,59.3941,-441.605,0,0
349724,59.7479,-441.032,0,0
349984,60.0294,-440.468,0,0
350245,60.4019,-439.949,0,0
350505,60.7234,-439.493,0,0
350765,61.0865,-439.027,0,0
351025,61.41,-438.56,0,0
351286,61.6708,-438.11,0,0
351546,62.0421,-437.701,0,0
351806,62.329,-437.298,0,0
352067,62.564,-436.928,0,0
352327,62.8077,-436.519,0,0
352587,63.0745,-436.144,0,0
352848,63.2849,-435.775,0,0
353108,63.4511,-435.413,0,0
353368,63.6496,-434.973,0,0
353629,63.8788,-434.545,0,0
353889,64.0631,-434.146,0,0
354149,64.2329,-433.751,0,0
354410,64.5157,-433.334,0,0
354670,64.7261,-432.871,0,0
354930,64.9604,-432.48,0,0
355191,65.2277,-432.103,0,0
355451,65.4812,-431.655,0,0
355711,65.7706,-431.289,0,0
355972,65.9967,-430.942,0,0
356232,66.3029,-430.571,0,0
356492,66.6085,-430.193,0,0
356753,66.8554,-429.873,0,0
357013,67.161,-429.488,0,0
357273,67.4722,-429.116,0,0
357534,67.7703,-428.864,0,0
357794,68.2132,-428.584,0,0
358054,68.55,-428.341,0,0
358315,68.9252,-428.127,0,0
358575,69.2498,-427.975,0,0
358835,69.6162,-427.815,0,0
359096,69.957,-427.704,0,0
359356,70.2155,-427.631,0,0
359616,70.5734,-427.607,0,0
359877,70.8104,-427.636,0,0
360137,71.054,-427.686,0,0
360397,71.2429,-427.732,0,0
360658,71.3774,-427.748,0,0
360918,71.4831,-427.833,0,0
361178,71.5452,-427.908,0,0
361438,71.5733,-427.976,0,0
361699,71.6024,-428.027,0,0
361959,71.5595,-428.109,0,0
362219,71.5466,-428.125,0,0
362480,71.439,-428.138,0,0
362740.1,71.3231,-428.178,0,0
363000.425,71.2302,-428.124,0,0
363260.75,71.1003,-428.145,0,0
363521.075,70.9285,-428.095,0,0
363781.4,70.7659,-428.051,0,0
364041.725,70.5955,-428.003,0,0
364302.05,70.3916,-427.938,0,0
364562.375,70.1939,-427.803,0,0
364822.7,69.9779,-427.694,0,0
365083.025,69.7551,-427.571,0,0
365343.35,69.4971,-427.446,0,0
365603.675,69.288,-427.276,0,0
365864.0,69.07,-427.099,0,0
366124.325,68.7716,-426.931,0,0
366384.65,68.5705,-426.644,0,0
366644.975,68.2987,-426.396,0,0
366905.3,68.0729,-426.096,0,0
367165.625,67.879,-425.782,0,0
367425.95,67.6991,-425.406,0,0
367686.275,67.5739,-425.112,0,0
367946.6,67.4796,-424.72,0,0
368206.925,67.4871,-424.383,0,0
368467.25,67.4388,-424.122,0,0
368727.575,67.4252,-423.813,0,0
368987.9,67.4452,-423.651,0,0
369248.225,67.4688,-423.493,0,0
369508.55,67.4639,-423.384,0,0
369768.875,67.4101,-423.269,0,0
370029.2,67.3143,-423.261,0,0
370289.525,67.1333,-423.222,0,0
370549.85,66.9569,-423.182,0,0
370810.175,66.7332,-423.091,0,0
371070.5,66.4098,-423.034,0,0
371330.825,66.1289,-422.886,0,0
371591.15,65.8271,-422.701,0,0
371851.475,65.5343,-422.458,0,0
372111.8,65.2874,-422.226,0,0
372372.125,65.0128,-422.014,0,0
372632.45,64.7889,-421.755,0,0
372892.775,64.5738,-421.534,0,0
373153.1,64.3161,-421.312,0,0
373413.425,64.0459,-421.096,0,0
373673.75,63.853,-420.877,0,0
373934.075,63.5604,-420.644,0,0
374194.4,63.3074,-420.428,0,0
374454.725,63.103,-420.164,0,0
374715.05,62.8314,-420.012,0,0
374975.375,62.5648,-419.794,0,0
375235.7,62.2708,-419.569,0,0
375496.025,61.9647,-419.369,0,0
375756.35,61.6401,-419.176,0,0
376016.675,61.3246,-418.889,0,0
376277.0,60.9733,-418.629,0,0
376537.325,60.6907,-418.362,0,0
376797.65,60.3591,-418.064,0,0
377057.975,60.0513,-417.783,0,0
377318.3,59.7553,-417.517,0,0
377578.625,59.4799,-417.235,0,0
377838.95,59.17,-416.969,0,0
378099.275,58.9171,-416.748,0,0
378359.6,58.5623,-416.609,0,0
378619.925,58.1606,-416.462,0,0
378880,57.6635,-416.264,0,0
379141,57.0975,-416.06,0,0
379401,56.4855,-415.787,0,0
379661,55.7729,-415.374,0,0
379922,55.0913,-414.877,0,0
380182,54.4278,-414.164,0,0
380442,53.8812,-413.429,0,0
380703,53.4791,-412.615,0,0
380963,53.2249,-411.744,0,0
381223,53.0792,-410.94,0,0
381483,53.0878,-410.227,0,0
381744,53.0892,-409.59,0,0
382004,53.1931,-409.107,0,0
382264,53.2515,-408.726,0,0
382525,53.218,-408.463,0,0
382785,53.0917,-408.241,0,0
383045,52.9173,-408.011,0,0
383306,52.6428,-407.738,0,0
383566,52.3671,-407.534,0,0
383826,52.0048,-407.258,0,0
384087,51.6215,-406.911,0,0
384347,51.1698,-406.542,0,0
384607,50.7272,-406.183,0,0
384868,50.2881,-405.731,0,0
385128,49.851,-405.296,0,0
385388,49.3831,-404.778,0,0
385649,48.9444,-404.202,0,0
385909,48.5024,-403.619,0,0
386169,48.1036,-403.011,0,0
386430,47.7429,-402.348,0,0
386690,47.384,-401.692,0,0
386950,47.0767,-401.001,0,0
387211,46.7915,-400.319,0,0
387471,46.5195,-399.594,0,0
387731,46.2825,-398.897,0,0
387992,46.0992,-398.21,0,0
388252,45.8449,-397.514,0,0
388512,45.6932,-396.825,0,0
388773,45.5368,-396.117,0,0
389033,45.3616,-395.446,0,0
389293,45.2567,-394.768,0,0
389554,45.1401,-393.994,0,0
389814,45.1023,-393.316,0,0
390074,45.0555,-392.638,0,0
390335,45.0842,-391.996,0,0
390595,45.1071,-391.392,0,0
390855,45.1498,-390.816,0,0
391116,45.2263,-390.327,0,0
391376,45.2277,-389.837,0,0
391636,45.245,-389.41,0,0
391896,45.2205,-389.043,0,0
392157,45.1138,-388.665,0,0
392417,44.9985,-388.33,0,0
392677,44.8074,-387.998,0,0
392938,44.5985,-387.607,0,0
393198,44.2388,-387.216,0,0
393458,43.9289,-386.716,0,0
393719,43.5799,-386.209,0,0
393979,43.2402,-385.663,0,0
394239,42.8885,-385.086,0,0
394500,42.5867,-384.405,0,0
394760.05,42.2298,-383.727,0,0
395020.375,41.9497,-383.016,0,0
395280.7,41.6712,-382.23,0,0
395541.025,41.4612,-381.458,0,0
395801.35,41.2469,-380.654,0,0
396061.675,41.0707,-379.86,0,0
396322.0,40.9317,-379.003,0,0
396582.325,40.8586,-378.205,0,0
396842.65,40.7544,-377.363,0,0
397102.975,40.747,-376.587,0,0
397363.3,40.7272,-375.734,0,0
397623.625,40.7295,-374.933,0,0
397883.95,40.7549,-374.141,0,0
398144.275,40.8342,-373.36,0,0
398404.6,40.899,-372.596,0,0
398664.925,40.9851,-371.837,0,0
398925.25,41.1312,-371.052,0,0
399185.575,41.2447,-370.348,0,0
399445.9,41.3747,-369.633,0,0
399706.225,41.5104,-368.923,0,0
399966.55,41.662,-368.256,0,0
400006.6,41.7008,-368.177,0,0