File: Accelerated corrosion test data/2025-10-17_06-00-03/sample_1.csv
Frequency (Hz),Impedance (ohms),Phase (Radians),Temperature (C),Humidity (%)
10000.0,240.778,-12221.4,0,0
10260.325,240.349,-11906.8,0,0
10520.65,231.123,-11626.9,0,0
10780.975,225.471,-11341.4,0,0
11041.3,220.154,-11081.1,0,0
11301.625,213.602,-10824.4,0,0
11561.95,209.708,-10580.2,0,0
11822.275,207.354,-10340.9,0,0
12082.6,226.324,-10110.4,0,0
12342.925,210.484,-9936.13,0,0
12603.25,194.097,-9722.61,0,0
12863.575,190.365,-9520.77,0,0
13123.9,199.895,-9327.31,0,0
13384.225,184.995,-9157.19,0,0
13644.55,181.8,-8975.73,0,0
13904.875,181.122,-8797.39,0,0
14165.2,191.624,-8662.62,0,0
14425.525,212.054,-8491.17,0,0
14685.8,200.585,-8328,0,0
14946.175,177.527,-8229.47,0,0
15206.5,185.139,-8062.97,0,0
15466.825,174.042,-7950.48,0,0
15727.15,172.098,-7815.67,0,0
15987.5,159.328,-7688.18,0,0
16247.8,156.311,-7561.77,0,0
16508.125,154.461,-7438.47,0,0
16768.45,158.023,-7320.67,0,0
17028.775,162.738,-7212.6,0,0
17289.1,153.949,-7109.75,0,0
17549.425,151.945,-7007.59,0,0
17809.75,146.376,-6902.87,0,0
18070.075,147.389,-6801.01,0,0
18330.4,140.96,-6706.29,0,0
18590.725,136.843,-6611.75,0,0
18851.05,137.809,-6513.88,0,0
19111.375,135.021,-6432.97,0,0
19371.7,132.276,-6340.22,0,0
19632.025,131.246,-6251.37,0,0
19892.35,136.372,-6164.14,0,0
20152.675,134.486,-6078.29,0,0
20413.0,154.537,-5988.95,0,0
20673.3,166.68,-5948.2,0,0
20933.65,147.849,-5878.97,0,0
21193.975,162.433,-5816.2,0,0
21454.3,139.876,-5744.11,0,0
21714.625,135.734,-5670.93,0,0
21974.9,138.613,-5590.24,0,0
22235.275,172.997,-5545.07,0,0
22495.6,141.214,-5505.64,0,0
22755.925,126.265,-5435.74,0,0
23016.25,122.057,-5368.84,0,0
23276.6,118.086,-5307.04,0,0
23536.9,115.402,-5246.55,0,0
23797.225,112.282,-5185.35,0,0
24057.55,114.044,-5124.35,0,0
24317.875,112.396,-5076.12,0,0
24578.2,110.37,-5016.56,0,0
24838.525,110.45,-4965.69,0,0
25098.85,110.61,-4911.43,0,0
25359.175,105.822,-4863.03,0,0
25619.5,104.32,-4811.01,0,0
25879.8,102.5,-4759.79,0,0
26140.1,103.013,-4710.17,0,0
26400.5,102.05,-4660.32,0,0
26660.8,104.395,-4610.21,0,0
26921.1,113.821,-4561.02,0,0
27181.4,121.219,-4529.85,0,0
27441.8,110.695,-4495.51,0,0
27702.1,103.117,-4446.75,0,0
27962.4,109.912,-4396.33,0,0
28222.7,109.779,-4358.29,0,0
28483.1,120.326,-4315.44,0,0
28743.4,129.941,-4295.56,0,0
29003.7,117.363,-4259.2,0,0
29264,117.837,-4225.54,0,0
29524.4,107.034,-4192.22,0,0
29784.7,105.414,-4149.57,0,0
30045,102.038,-4118.14,0,0
30305.3,99.3063,-4079.15,0,0
30565.7,96.6838,-4040.61,0,0
30826,100.543,-4004.25,0,0
31086.3,103.077,-3976.81,0,0
31346.6,100.092,-3947.01,0,0
31607,93.76,-3909.82,0,0
31867.3,98.1116,-3876.84,0,0
32127.6,97.1101,-3846.46,0,0
32387.9,97.5197,-3819.19,0,0
32648.3,93.1557,-3788.09,0,0
32908.6,95.5237,-3759.82,0,0
33168.9,90.4367,-3731.73,0,0
33429.2,88.7581,-3702.57,0,0
33689.6,86.013,-3672.75,0,0
33949.9,85.1161,-3641.49,0,0
34210.2,86.2251,-3615.41,0,0
34470.5,83.4301,-3588.42,0,0
34730.9,81.7597,-3560.39,0,0
34991.2,81.2277,-3533.57,0,0
35251.5,79.8328,-3506.54,0,0
35511.8,79.1374,-3480.08,0,0
35772.2,78.8526,-3454.58,0,0
36032.5,77.3785,-3429.24,0,0
36292.8,77.2933,-3403.58,0,0
36553.1,76.342,-3378.89,0,0
36813.5,76.0351,-3354.17,0,0
37073.8,75.8214,-3330.28,0,0
37334.1,74.8101,-3306.6,0,0
37594.4,74.4579,-3283.18,0,0
37854.8,73.6067,-3260.61,0,0
38115.1,73.2182,-3237.35,0,0
38375.4,73.4677,-3214.86,0,0
38635.7,72.9038,-3192.99,0,0
38896.1,71.9696,-3170.79,0,0
39156.4,72.035,-3149.05,0,0
39416.7,71.8854,-3128.28,0,0
39677,71.035,-3107.13,0,0
39937.4,70.6385,-3085.93,0,0
40197.7,70.9092,-3065.41,0,0
40458,70.4203,-3045.44,0,0
40718.3,70.4723,-3024.64,0,0
40978.7,71.8474,-3004.79,0,0
41239,71.7903,-2987.07,0,0
41499.3,71.485,-2968.66,0,0
41759.6,70.7293,-2950.08,0,0
42020,69.8311,-2930.93,0,0
42280.275,69.8069,-2912.96,0,0
42540.6,69.8634,-2894.74,0,0
42800.925,69.8116,-2877.71,0,0
43061.25,68.9719,-2859.69,0,0
43321.575,68.9654,-2842.76,0,0
43581.9,68.3531,-2825.48,0,0
43842.225,67.3426,-2807.53,0,0
44102.55,67.8311,-2789.91,0,0
44362.875,68.4134,-2773.26,0,0
44623.2,68.8231,-2757.75,0,0
44883.525,68.0945,-2741.98,0,0
45143.85,68.0682,-2726.27,0,0
45404.175,68.4065,-2710.24,0,0
45664.5,67.3275,-2695.75,0,0
45924.825,66.2759,-2680.31,0,0
46185.15,65.8359,-2664.6,0,0
46445.475,65.0533,-2649.72,0,0
46705.8,64.6428,-2633.97,0,0
46966.125,64.7683,-2619.68,0,0
47226.45,64.2909,-2604.34,0,0
47486.775,64.4877,-2590.08,0,0
47747.1,63.6879,-2575.79,0,0
48007.425,63.2949,-2561.38,0,0
48267.75,63.1874,-2547.38,0,0
48528.075,62.5776,-2534.04,0,0
48788.4,61.8229,-2519.63,0,0
49048.725,61.2109,-2505.42,0,0
49309.05,61.1036,-2491.65,0,0
49569.375,61.1203,-2478.57,0,0
49829.7,60.7776,-2465.74,0,0
50090.025,59.9494,-2452.41,0,0
50350.35,59.3255,-2438.96,0,0
50610.675,59.3548,-2425.69,0,0
50871.0,59.1007,-2412.74,0,0
51131.325,59.0149,-2399.97,0,0
51391.65,59.3001,-2387.56,0,0
51651.975,58.6919,-2375.39,0,0
51912.3,58.0134,-2362.76,0,0
52172.625,58.0636,-2350.36,0,0
52432.95,57.8285,-2338.18,0,0
52693.275,57.7548,-2326.31,0,0
52953.6,57.4001,-2314.26,0,0
53213.925,57.4186,-2302.57,0,0
53474.25,57.3579,-2291.08,0,0
53734.575,57.2476,-2279.51,0,0
53994.9,57.0167,-2268.29,0,0
54255.225,56.5802,-2257.31,0,0
54515.55,56.0912,-2245.84,0,0
54775.875,55.8229,-2234.6,0,0
55036.2,55.7553,-2223.26,0,0
55296.525,55.7557,-2212.31,0,0
55556.85,55.6824,-2201.64,0,0
55817.175,55.3661,-2191.08,0,0
56077.5,54.905,-2180.3,0,0
56337.825,54.7729,-2169.5,0,0
56598.15,54.696,-2158.79,0,0
56858.475,54.6975,-2148.51,0,0
57118.8,54.5009,-2138.37,0,0
57379.125,54.4627,-2127.93,0,0
57639.45,54.6149,-2117.9,0,0
57899.775,54.3456,-2107.88,0,0
58160.1,54.4036,-2097.9,0,0
58420.4,54.3302,-2088.24,0,0
58680.7,54.1751,-2078.48,0,0
58941.1,54.1256,-2068.62,0,0
59201.4,54.3243,-2059.03,0,0
59461.7,54.1962,-2049.89,0,0
59722,53.9658,-2040.41,0,0
59982.4,53.9305,-2031.21,0,0
60242.7,53.8443,-2021.85,0,0
60503,54.085,-2012.58,0,0
60763.3,54.263,-2003.91,0,0
61023.7,53.8686,-1995.41,0,0
61284,53.4,-1986.38,0,0
61544.3,53.0613,-1977.25,0,0
61804.6,53.1818,-1968.33,0,0
62065,52.9351,-1960.05,0,0
62325.3,52.5726,-1951,0,0
62585.6,52.4829,-1942.29,0,0
62845.9,52.2219,-1933.41,0,0
63106.3,52.3185,-1924.8,0,0
63366.6,52.28,-1916.28,0,0
63626.9,52.2438,-1907.74,0,0
63887.2,52.3638,-1899.25,0,0
64147.6,52.4397,-1890.93,0,0
64407.9,52.5542,-1882.51,0,0
64668.2,52.7326,-1874.11,0,0
64928.5,53.2677,-1865.96,0,0
65188.9,53.875,-1858.06,0,0
65449.2,54.5366,-1850.33,0,0
65709.5,55.0723,-1843.31,0,0
65969.8,54.9972,-1836.39,0,0
66230.2,54.8094,-1829.08,0,0
66490.5,54.7767,-1821.7,0,0
66750.8,54.5845,-1814.47,0,0
67011.1,54.099,-1807.45,0,0
67271.5,53.5801,-1799.8,0,0
67531.8,53.8463,-1791.96,0,0
67792.1,54.3003,-1785.01,0,0
68052.4,54.0554,-1778.73,0,0
68312.8,53.2556,-1771.49,0,0
68573.1,52.9869,-1764.03,0,0
68833.4,53.4092,-1756.91,0,0
69093.7,53.0457,-1750.38,0,0
69354.1,52.666,-1743.43,0,0
69614.4,52.563,-1736.79,0,0
69874.7,52.0714,-1730.1,0,0
70135,51.5644,-1723.26,0,0
70395.4,50.9565,-1716.27,0,0
70655.7,50.6114,-1709.23,0,0
70916,50.4337,-1702.29,0,0
71176.3,50.2695,-1695.47,0,0
71436.7,50.07,-1688.81,0,0
71697,49.757,-1682.45,0,0
71957.3,49.0813,-1675.51,0,0
72217.6,48.6097,-1668.84,0,0
72478,48.3445,-1661.73,0,0
72738.3,48.1884,-1654.83,0,0
72998.6,48.1689,-1647.97,0,0
73258.9,48.2955,-1641.36,0,0
73519.3,48.0803,-1635.02,0,0
73779.6,47.8929,-1628.32,0,0
74039.9,47.9279,-1621.62,0,0
74300.225,47.981,-1615.16,0,0
74560.55,47.9758,-1608.67,0,0
74820.875,48.1658,-1602.19,0,0
75081.2,48.3925,-1595.91,0,0
75341.525,48.3732,-1589.73,0,0
75601.85,48.4751,-1583.46,0,0
75862.175,48.5319,-1577.13,0,0
76122.5,48.8222,-1570.92,0,0
76382.825,49.0418,-1564.87,0,0
76643.15,49.3301,-1558.96,0,0
76903.475,49.457,-1553,0,0
77163.8,49.7127,-1547.07,0,0
77424.125,49.9972,-1541.22,0,0
77684.45,50.1637,-1535.48,0,0
77944.775,50.2888,-1529.65,0,0
78205.1,50.6252,-1523.77,0,0
78465.425,51.2409,-1518.2,0,0
78725.75,51.7219,-1513.02,0,0
78986.075,51.7293,-1507.88,0,0
79246.4,51.7927,-1502.78,0,0
79506.725,51.5794,-1497.66,0,0
79767.05,51.1927,-1492.16,0,0
80027.375,51.1716,-1486.68,0,0
80287.7,51.0602,-1481.42,0,0
80548.025,50.7033,-1476.04,0,0
80808.35,50.4812,-1470.38,0,0
81068.675,50.2759,-1464.75,0,0
81329.0,50.2986,-1458.99,0,0
81589.325,50.4016,-1453.46,0,0
81849.65,50.6413,-1448,0,0
82109.975,50.8628,-1442.69,0,0
82370.3,51.0539,-1437.35,0,0
82630.625,51.0549,-1432.12,0,0
82890.95,51.1643,-1426.65,0,0
83151.275,51.4063,-1421.22,0,0
83411.6,51.7353,-1416.03,0,0
83671.925,51.9538,-1410.94,0,0
83932.25,52.2238,-1405.65,0,0
84192.575,52.5077,-1400.47,0,0
84452.9,52.9038,-1395.4,0,0
84713.225,53.2777,-1390.44,0,0
84973.55,53.6786,-1385.36,0,0
85233.875,54.2086,-1380.31,0,0
85494.2,54.8189,-1375.7,0,0
85754.525,55.0549,-1371.08,0,0
86014.85,55.3964,-1366.53,0,0
86275.175,55.4766,-1361.92,0,0
86535.5,55.6411,-1357.25,0,0
86795.825,55.7971,-1352.63,0,0
87056.15,55.8782,-1347.83,0,0
87316.475,56.2638,-1343.1,0,0
87576.8,56.3052,-1338.69,0,0
87837.125,56.1712,-1334.1,0,0
88097.45,56.0092,-1329.3,0,0
88357.775,56.0814,-1324.29,0,0
88618.1,56.4561,-1319.05,0,0
88878.425,57.0039,-1314.27,0,0
89138.75,57.3574,-1309.32,0,0
89399.075,57.904,-1304.47,0,0
89659.4,58.6722,-1299.71,0,0
89919.725,59.3495,-1295.07,0,0
90180,60.1464,-1290.64,0,0
90440.4,60.7098,-1286.09,0,0
90700.7,61.2381,-1281.3,0,0
90961,62.2402,-1276.5,0,0
91221.3,63.6282,-1271.84,0,0
91481.7,65.1515,-1267.69,0,0
91742,66.5126,-1263.81,0,0
92002.3,67.6623,-1260.08,0,0
92262.6,68.6813,-1256.16,0,0
92523,70.1206,-1252.38,0,0
92783.3,71.8616,-1248.68,0,0
93043.6,73.6581,-1245.88,0,0
93303.9,74.8712,-1243.16,0,0
93564.3,76.5887,-1240.4,0,0
93824.6,78.8795,-1239.08,0,0
94084.9,79.2442,-1239.79,0,0
94345.2,76.6582,-1239.37,0,0
94605.6,73.8198,-1236.24,0,0
94865.9,72.5713,-1232.9,0,0
95126.2,70.7701,-1229.57,0,0
95386.5,69.4812,-1225.59,0,0
95646.9,68.1138,-1221.8,0,0
95907.2,67.0204,-1217.51,0,0
96167.5,66.3084,-1212.79,0,0
96427.8,66.2915,-1208.45,0,0
96688.2,66.2161,-1204.79,0,0
96948.5,65.5103,-1201.06,0,0
97208.8,64.8625,-1196.95,0,0
97469.1,64.4639,-1192.7,0,0
97729.5,64.1728,-1188.43,0,0
97989.8,64.0069,-1184.29,0,0
98250.1,64.0687,-1180.09,0,0
98510.4,64.2319,-1176.21,0,0
98770.8,64.1206,-1172.48,0,0
99031.1,63.8515,-1168.61,0,0
99291.4,63.7316,-1164.72,0,0
99551.7,63.5399,-1160.76,0,0
99812.1,63.341,-1156.76,0,0
100072,63.3257,-1152.6,0,0
100333,63.2524,-1148.69,0,0
100593,63.1397,-1144.56,0,0
100853,63.2324,-1140.52,0,0
101114,63.2565,-1136.49,0,0
101374,63.2467,-1132.54,0,0
101634,63.1504,-1128.37,0,0
101895,63.0759,-1124.1,0,0
102155,63.1263,-1119.55,0,0
102415,63.484,-1114.93,0,0
102676,64.094,-1110.14,0,0
102936,65.215,-1105.78,0,0
103196,66.1425,-1101.67,0,0
103457,67.2737,-1097.57,0,0
103717,68.2526,-1093.55,0,0
103977,69.3843,-1089.44,0,0
104238,71.0498,-1085.36,0,0
104498,72.9032,-1082.16,0,0
104758,74.2402,-1079.11,0,0
105019,75.214,-1076.26,0,0
105279,75.9711,-1072.96,0,0
105539,77.0192,-1069.37,0,0
105800,78.4004,-1066.03,0,0
106060,79.7977,-1062.85,0,0
106320.175,81.3337,-1059.87,0,0
106580.5,82.8812,-1057.14,0,0
106840.825,84.2447,-1054.71,0,0
107101.15,85.3459,-1052.2,0,0
107361.475,86.6529,-1049.63,0,0
107621.8,87.9429,-1047.52,0,0
107882.125,88.8528,-1045.47,0,0
108142.45,89.6862,-1043.32,0,0
108402.775,90.5148,-1041.07,0,0
108663.1,91.3624,-1038.96,0,0
108923.425,92.1637,-1036.94,0,0
109183.75,92.993,-1034.95,0,0
109444.075,93.7638,-1033.26,0,0
109704.4,94.2152,-1031.65,0,0
109964.725,94.304,-1030.21,0,0
110225.05,94.1064,-1028.6,0,0
110485.375,93.5445,-1026.62,0,0
110745.7,93.2693,-1023.91,0,0
111006.025,93.1925,-1020.99,0,0
111266.35,93.5083,-1018.43,0,0
111526.675,94.1895,-1015.88,0,0
111787.0,94.7198,-1013.76,0,0
112047.325,95.3464,-1011.64,0,0
112307.65,95.7203,-1009.88,0,0
112567.975,96.174,-1008.08,0,0
112828.3,96.4212,-1006.39,0,0
113088.625,96.5023,-1004.82,0,0
113348.95,96.5057,-1003.3,0,0
113609.275,96.2514,-1001.76,0,0
113869.6,95.8048,-1000.32,0,0
114129.925,95.1264,-998.548,0,0
114390.25,94.495,-996.642,0,0
114650.575,93.819,-994.581,0,0
114910.9,93.3483,-992.594,0,0
115171.225,92.6482,-990.888,0,0
115431.55,91.6913,-988.806,0,0
115691.875,90.7594,-986.692,0,0
115952.2,89.6635,-984.327,0,0
116212.525,88.7389,-981.78,0,0
116472.85,87.8768,-979.16,0,0
116733.175,87.1684,-976.649,0,0
116993.5,86.2771,-974.129,0,0
117253.825,85.2784,-971.441,0,0
117514.15,84.3813,-968.513,0,0
117774.475,83.5974,-965.464,0,0
118034.8,82.9261,-962.335,0,0
118295.125,82.4617,-959.219,0,0
118555.45,82.0115,-956.208,0,0
118815.775,81.5678,-953.092,0,0
119076.1,81.2824,-949.858,0,0
119336.425,81.2078,-946.669,0,0
119596.75,81.1433,-943.792,0,0
119857.075,81.1185,-940.722,0,0
120117.4,81.288,-937.81,0,0
120377.725,81.4198,-935.085,0,0
120638.05,81.5548,-932.367,0,0
120898.375,81.5645,-929.875,0,0
121158.7,81.4464,-927.486,0,0
121419.025,81.1461,-924.932,0,0
121679.35,80.8228,-922.377,0,0
121939.675,80.3975,-919.672,0,0
122200.0,80.0038,-916.846,0,0
122460,79.7087,-913.967,0,0
122721,79.43,-911.047,0,0
122981,79.2877,-908.104,0,0
123241,79.0505,-905.222,0,0
123502,78.9074,-902.178,0,0
123762,78.7995,-899.167,0,0
124022,78.7744,-896.14,0,0
124283,78.8576,-893.114,0,0
124543,78.9587,-890.11,0,0
124803,79.0618,-887.218,0,0
125064,79.1708,-884.323,0,0
125324,79.2121,-881.358,0,0
125584,79.3811,-878.369,0,0
125845,79.6851,-875.407,0,0
126105,79.9404,-872.567,0,0
126365,80.1851,-869.685,0,0
126626,80.4704,-866.816,0,0
126886,80.7212,-863.977,0,0
127146,81.013,-861.117,0,0
127406,81.378,-858.144,0,0
127667,81.6773,-855.402,0,0
127927,82.0082,-852.394,0,0
128187,82.4165,-849.441,0,0
128448,83.051,-846.583,0,0
128708,83.6571,-843.809,0,0
128968,84.1699,-841.21,0,0
129229,84.543,-838.494,0,0
129489,85.0003,-835.621,0,0
129749,85.5279,-832.673,0,0
130010,86.322,-829.687,0,0
130270,87.2908,-826.828,0,0
130530,88.3302,-824.224,0,0
130791,89.3095,-821.719,0,0
131051,90.3011,-819.299,0,0
131311,91.3411,-816.938,0,0
131572,92.375,-814.794,0,0
131832,93.2609,-812.764,0,0
132092,94.0338,-810.742,0,0
132353,94.6989,-808.855,0,0
132613,95.1731,-806.831,0,0
132873,95.6689,-804.621,0,0
133134,96.3314,-802.47,0,0
133394,96.9004,-800.453,0,0
133654,97.4088,-798.352,0,0
133915,97.8667,-796.181,0,0
134175,98.4437,-794.003,0,0
134435,99.0831,-791.843,0,0
134696,99.6713,-789.777,0,0
134956,100.244,-787.67,0,0
135216,100.769,-785.595,0,0
135477,101.359,-783.475,0,0
135737,101.937,-781.307,0,0
135997,102.486,-779.203,0,0
136258,103.078,-777.006,0,0
136518,103.811,-774.696,0,0
136778,104.82,-772.484,0,0
137039,105.929,-770.552,0,0
137299,106.98,-768.79,0,0
137559,108.049,-767.246,0,0
137819,109.021,-765.941,0,0
138080,109.711,-764.892,0,0
138340.125,109.979,-763.781,0,0
138600.45,110.108,-762.464,0,0
138860.775,110.183,-761.054,0,0
139121.1,110.106,-759.624,0,0
139381.425,109.974,-757.956,0,0
139641.75,109.948,-756.159,0,0
139902.075,109.947,-754.426,0,0
140162.4,109.866,-752.642,0,0
140422.725,109.764,-750.81,0,0
140683.05,109.645,-748.883,0,0
140943.375,109.485,-746.828,0,0
141203.7,109.444,-744.662,0,0
141464.025,109.571,-742.477,0,0
141724.35,109.668,-740.465,0,0
141984.675,109.597,-738.417,0,0
142245.0,109.539,-736.044,0,0
142505.325,109.786,-733.642,0,0
142765.65,110.08,-731.538,0,0
143025.975,110.23,-729.316,0,0
143286.3,110.382,-727.078,0,0
143546.625,110.586,-724.636,0,0
143806.95,111.025,-722.292,0,0
144067.275,111.526,-720.004,0,0
144327.6,112.018,-717.843,0,0
144587.925,112.282,-715.693,0,0
144848.25,112.684,-713.232,0,0
145108.575,113.39,-710.889,0,0
145368.9,114.069,-708.755,0,0
145629.225,114.657,-706.717,0,0
145889.55,115.256,-704.576,0,0
146149.875,115.974,-702.516,0,0
146410.2,116.615,-700.656,0,0
146670.525,117.121,-698.7,0,0
146930.85,117.802,-696.672,0,0
147191.175,118.546,-694.908,0,0
147451.5,119.05,-693.298,0,0
147711.825,119.424,-691.671,0,0
147972.15,119.622,-690.03,0,0
148232.475,119.544,-688.15,0,0
148492.8,119.644,-685.942,0,0
148753.125,119.931,-683.725,0,0
149013.45,120.288,-681.434,0,0
149273.775,120.855,-679.133,0,0
149534.1,121.737,-677.019,0,0
149794.425,122.516,-675.372,0,0
150054.75,122.955,-673.863,0,0
150315.075,123.168,-672.282,0,0
150575.4,123.255,-670.676,0,0
150835.725,123.058,-669.069,0,0
151096.05,122.599,-667.134,0,0
151356.375,122.135,-664.829,0,0
151616.7,121.855,-662.308,0,0
151877.025,121.765,-659.701,0,0
152137.35,121.661,-657.119,0,0
152397.675,121.438,-654.433,0,0
152658.0,121.2,-651.447,0,0
152918.325,121.164,-648.112,0,0
153178.65,121.497,-644.625,0,0
153438.975,122.114,-641.196,0,0
153699.3,122.849,-637.866,0,0
153959.625,123.699,-634.579,0,0
154219.95,124.571,-631.18,0,0
154480,125.69,-627.734,0,0
154741,127.075,-624.298,0,0
155001,128.616,-621.138,0,0
155261,130.084,-618.063,0,0
155522,131.475,-614.8,0,0
155782,133.167,-611.341,0,0
156042,135.226,-607.863,0,0
156303,137.666,-604.675,0,0
156563,140.248,-601.84,0,0
156823,142.718,-599.178,0,0
157084,145.236,-596.512,0,0
157344,148.17,-594.051,0,0
157604,151.125,-592.178,0,0
157864,153.679,-590.687,0,0
158125,155.847,-589.085,0,0
158385,158.035,-587.335,0,0
158645,160.171,-585.801,0,0
158906,161.822,-584.226,0,0
159166,163.265,-582.038,0,0
159426,165.024,-579.337,0,0
159687,167.386,-576.417,0,0
159947,170.314,-573.461,0,0
160207,173.79,-570.793,0,0
160468,177.622,-568.722,0,0
160728,181.512,-566.947,0,0
160988,185.545,-565.574,0,0
161249,189.663,-564.62,0,0
161509,193.644,-564.107,0,0
161769,197.522,-563.827,0,0
162030,201.501,-563.985,0,0
162290,205.095,-564.774,0,0
162550,208.066,-565.69,0,0
162811,210.74,-566.625,0,0
163071,212.933,-567.581,0,0
163331,214.833,-568.146,0,0
163592,216.748,-568.328,0,0
163852,218.958,-568.448,0,0
164112,221.324,-568.669,0,0
164373,223.81,-569.066,0,0
164633,226.194,-569.765,0,0
164893,228.374,-570.356,0,0
165154,230.85,-570.975,0,0
165414,233.322,-571.973,0,0
165674,235.649,-573.013,0,0
165935,238.242,-574.359,0,0
166195,240.661,-576.348,0,0
166455,242.525,-578.708,0,0
166716,243.795,-581.115,0,0
166976,244.678,-583.274,0,0
167236,245.608,-585.193,0,0
167497,246.541,-587.46,0,0
167757,247,-589.888,0,0
168017,247.127,-592.284,0,0
168277,246.92,-594.622,0,0
168538,246.39,-596.828,0,0
168798,245.621,-598.943,0,0
169058,244.548,-601.074,0,0
169319,242.948,-602.944,0,0
169579,240.997,-604.467,0,0
169839,238.818,-605.492,0,0
170100,236.538,-605.913,0,0
170360.075,234.316,-605.905,0,0
170620.4,232.534,-605.404,0,0
170880.725,231.015,-605.01,0,0
171141.05,229.304,-604.556,0,0
171401.375,227.657,-603.559,0,0
171661.7,226.503,-602.345,0,0
171922.025,225.621,-601.27,0,0
172182.35,224.805,-600.171,0,0
172442.675,224.262,-598.997,0,0
172703.0,223.969,-598.058,0,0
172963.325,223.611,-597.401,0,0
173223.65,223.024,-596.859,0,0
173483.975,222.237,-596.15,0,0
173744.3,221.416,-595.284,0,0
174004.625,220.652,-594.147,0,0
174264.95,220.138,-592.815,0,0
174525.275,219.902,-591.595,0,0
174785.6,219.741,-590.554,0,0
175045.925,219.613,-589.658,0,0
175306.25,219.359,-588.606,0,0
175566.575,219.347,-587.484,0,0
175826.9,219.623,-586.671,0,0
176087.225,219.749,-586.188,0,0
176347.55,219.53,-585.915,0,0
176607.875,219.037,-585.406,0,0
176868.2,218.564,-584.659,0,0
177128.525,218.228,-583.853,0,0
177388.85,218.037,-583.118,0,0
177649.175,217.944,-582.509,0,0
177909.5,217.836,-582.189,0,0
178169.825,217.418,-582.049,0,0
178430.15,216.678,-581.875,0,0
178690.475,215.794,-581.518,0,0
178950.8,214.85,-581.149,0,0
179211.125,213.651,-580.626,0,0
179471.45,212.533,-579.814,0,0
179731.775,211.566,-579.084,0,0
179992.1,210.398,-578.615,0,0
180252.425,208.664,-577.958,0,0
180512.75,206.904,-576.759,0,0
180773.075,205.248,-575.298,0,0
181033.4,203.791,-573.748,0,0
181293.725,202.253,-572.073,0,0
181554.05,200.856,-570.187,0,0
181814.375,199.684,-568.3,0,0
182074.7,198.452,-566.512,0,0
182335.025,197.057,-564.547,0,0
182595.35,195.69,-562.353,0,0
182855.675,194.499,-559.983,0,0
183116.0,193.455,-557.661,0,0
183376.325,192.35,-555.301,0,0
183636.65,191.218,-552.773,0,0
183896.975,190.171,-550.113,0,0
184157.3,189.194,-547.329,0,0
184417.625,188.351,-544.387,0,0
184677.95,187.498,-541.419,0,0
184938.275,186.691,-538.143,0,0
185198.6,186.216,-534.557,0,0
185458.925,186.251,-531.032,0,0
185719.25,186.528,-527.779,0,0
185979.575,186.789,-524.712,0,0
186239.9,187.102,-521.674,0,0
186500,187.38,-518.711,0,0
186761,187.618,-515.868,0,0
187021,187.768,-512.773,0,0
187281,188.101,-509.435,0,0
187542,188.772,-505.991,0,0
187802,189.707,-502.826,0,0
188062,190.66,-499.972,0,0
188322,191.468,-497.159,0,0
188583,192.277,-494.407,0,0
188843,192.965,-491.504,0,0
189103,193.835,-488.597,0,0
189364,194.79,-485.792,0,0
189624,195.658,-483.058,0,0
189884,196.369,-480.22,0,0
190145,197.182,-477.383,0,0
190405,198.002,-474.272,0,0
190665,198.896,-471.238,0,0
190926,199.934,-468.223,0,0
191186,200.857,-465.179,0,0
191446,201.826,-461.983,0,0
191707,202.864,-458.728,0,0
191967,203.972,-455.28,0,0
192227,205.33,-451.754,0,0
192488,206.815,-448.25,0,0
192748,208.423,-444.854,0,0
193008,210.158,-441.322,0,0
193269,212.06,-437.827,0,0
193529,214.008,-434.512,0,0
193789,215.972,-431.127,0,0
194050,218.002,-427.783,0,0
194310,220.155,-424.407,0,0
194570,222.24,-421.082,0,0
194831,224.483,-417.643,0,0
195091,226.78,-414.154,0,0
195351,229.169,-410.549,0,0
195612,231.904,-406.872,0,0
195872,234.76,-403.433,0,0
196132,237.644,-400.006,0,0
196393,240.601,-396.607,0,0
196653,243.68,-393.12,0,0
196913,246.904,-389.746,0,0
197174,250.231,-386.365,0,0
197434,253.472,-382.921,0,0
197694,257.149,-379.279,0,0
197955,261.037,-375.824,0,0
198215,265.13,-372.611,0,0
198475,269.252,-369.501,0,0
198735,273.449,-366.399,0,0
198996,277.673,-363.428,0,0
199256,281.936,-360.569,0,0
199516,286.105,-357.695,0,0
199777,290.357,-354.591,0,0
200037,294.768,-351.256,0,0
200297,299.554,-347.89,0,0
200558,304.701,-344.651,0,0
200818,310.021,-341.357,0,0
201078,315.572,-338.156,0,0
201339,321.409,-335.116,0,0
201599,327.373,-331.924,0,0
201859,333.763,-328.743,0,0
202120,340.698,-325.64,0,0
202380.025,348.16,-322.703,0,0
202640.35,356.177,-320.206,0,0
202900.675,364.588,-318.341,0,0
203161.0,372.945,-317.021,0,0
203421.325,381.317,-316.028,0,0
203681.65,389.812,-314.932,0,0
203941.975,398.981,-314.084,0,0
204202.3,408.615,-313.715,0,0
204462.625,418.905,-314.152,0,0
204722.95,429.504,-315.486,0,0
204983.275,440.113,-317.887,0,0
205243.6,450.437,-321.374,0,0
205503.925,460.528,-325.596,0,0
205764.25,470.143,-330.561,0,0
206024.575,479.172,-336.259,0,0
206284.9,487.704,-342.392,0,0
206545.225,495.852,-349.137,0,0
206805.55,503.427,-356.567,0,0
207065.875,509.986,-364.552,0,0
207326.2,515.477,-372.606,0,0
207586.525,520.354,-380.359,0,0
207846.85,524.895,-388.031,0,0
208107.175,529.106,-396.053,0,0
208367.5,532.511,-404.19,0,0
208627.825,535.189,-412.18,0,0
208888.15,537.48,-419.999,0,0
209148.475,539.268,-427.731,0,0
209408.8,540.561,-435.373,0,0
209669.125,541.475,-442.974,0,0
209929.45,541.722,-450.793,0,0
210189.775,540.849,-458.416,0,0
210450.1,538.849,-465.274,0,0
210710.425,536.285,-470.853,0,0
210970.75,533.676,-475.401,0,0
211231.075,531.253,-478.973,0,0
211491.4,529.137,-481.925,0,0
211751.725,527.199,-484.262,0,0
212012.05,525.493,-486.265,0,0
212272.375,523.952,-487.39,0,0
212532.7,523.171,-487.64,0,0
212793.025,523.382,-487.637,0,0
213053.35,524.559,-487.71,0,0
213313.675,526.425,-488.161,0,0
213574.0,528.755,-489.018,0,0
213834.325,531.477,-490.339,0,0
214094.65,534.323,-492.322,0,0
214354.975,537.02,-494.746,0,0
214615.3,539.539,-497.251,0,0
214875.625,542.03,-500.043,0,0
215135.95,544.443,-502.799,0,0
215396.275,546.935,-505.611,0,0
215656.6,549.589,-508.677,0,0
215916.925,552.11,-512.203,0,0
216177.25,554.086,-515.9,0,0
216437.575,555.765,-519.27,0,0
216697.9,557.46,-522.31,0,0
216958.225,559.271,-525.129,0,0
217218.55,561.426,-527.921,0,0
217478.875,563.898,-530.868,0,0
217739.2,566.531,-534.089,0,0
217999.525,569.083,-537.551,0,0
218259.85,571.492,-541.12,0,0
218520,573.757,-544.526,0,0
218780,576.286,-547.751,0,0
219041,579.207,-551.089,0,0
219301,582.406,-554.476,0,0
219561,586.007,-558.227,0,0
219822,589.87,-562.435,0,0
220082,593.83,-567.037,0,0
220342,597.821,-572.31,0,0
220603,601.614,-578.038,0,0
220863,605.335,-583.934,0,0
221123,609.159,-590.23,0,0
221384,613.058,-597.246,0,0
221644,616.66,-604.862,0,0
221904,620.048,-612.894,0,0
222165,622.923,-621.696,0,0
222425,625.284,-631.056,0,0
222685,626.925,-640.621,0,0
222946,627.924,-650.7,0,0
223206,628.274,-660.695,0,0
223466,627.894,-670.878,0,0
223727,626.889,-681.016,0,0
223987,625.215,-690.992,0,0
224247,623.16,-700.729,0,0
224508,620.692,-710.431,0,0
224768,617.926,-719.894,0,0
225028,614.567,-729.409,0,0
225289,610.956,-739.043,0,0
225549,606.768,-748.402,0,0
225809,601.978,-757.484,0,0
226070,596.959,-766.307,0,0
226330,591.582,-775.024,0,0
226590,585.786,-783.505,0,0
226851,579.484,-791.802,0,0
227111,572.795,-799.691,0,0
227371,565.852,-807.417,0,0
227632,558.478,-814.877,0,0
227892,550.606,-821.994,0,0
228152,542.135,-828.668,0,0
228413,533.233,-834.86,0,0
228673,523.972,-840.156,0,0
228933,514.728,-844.839,0,0
229193,505.434,-848.709,0,0
229454,496.251,-852.168,0,0
229714,487.125,-855.079,0,0
229974,478.059,-857.767,0,0
230235,468.796,-859.826,0,0
230495,459.685,-861.258,0,0
230755,451.017,-862.238,0,0
231016,442.367,-862.691,0,0
231276,434.136,-862.789,0,0
231536,426.163,-862.532,0,0
231797,418.51,-861.926,0,0
232057,411.157,-861.176,0,0
232317,404.117,-860.174,0,0
232578,397.512,-858.969,0,0
232838,391.273,-857.522,0,0
233098,385.402,-856.212,0,0
233359,379.909,-854.863,0,0
233619,374.621,-853.807,0,0
233879,369.379,-852.721,0,0
234140,364.281,-851.626,0,0
234400,359.255,-850.504,0,0
234660.3,354.544,-849.529,0,0
234920.625,350,-848.631,0,0
235180.95,345.278,-848.074,0,0
235441.275,340.554,-847.556,0,0
235701.6,335.53,-846.852,0,0
235961.925,330.417,-845.929,0,0
236222.25,325.486,-844.984,0,0
236482.575,320.483,-843.812,0,0
236742.9,315.626,-842.539,0,0
237003.225,310.912,-841.194,0,0
237263.55,306.147,-839.927,0,0
237523.875,301.412,-838.48,0,0
237784.2,296.681,-836.912,0,0
238044.525,292.127,-835.139,0,0
238304.85,287.702,-833.424,0,0
238565.175,283.136,-831.61,0,0
238825.5,278.772,-829.545,0,0
239085.825,274.639,-827.368,0,0
239346.15,270.554,-825.197,0,0
239606.475,266.588,-823.009,0,0
239866.8,262.697,-820.853,0,0
240127.125,259.064,-818.53,0,0
240387.45,255.368,-816.218,0,0
240647.775,251.959,-813.892,0,0
240908.1,248.631,-811.639,0,0
241168.425,245.294,-809.454,0,0
241428.75,241.998,-807.206,0,0
241689.075,238.652,-804.939,0,0
241949.4,235.375,-802.573,0,0
242209.725,232.256,-800.085,0,0
242470.05,229.26,-797.538,0,0
242730.375,226.44,-794.975,0,0
242990.7,223.74,-792.491,0,0
243251.025,221.123,-790.042,0,0
243511.35,218.719,-787.62,0,0
243771.675,216.25,-785.259,0,0
244032.0,213.936,-783.015,0,0
244292.325,211.599,-780.843,0,0
244552.65,209.193,-778.656,0,0
244812.975,206.897,-776.576,0,0
245073.3,204.604,-774.495,0,0
245333.625,202.134,-772.335,0,0
245593.95,199.758,-770.158,0,0
245854.275,197.424,-767.982,0,0
246114.6,195.07,-765.808,0,0
246374.925,192.723,-763.557,0,0
246635.25,190.369,-761.284,0,0
246895.575,188.055,-758.858,0,0
247155.9,185.773,-756.398,0,0
247416.225,183.647,-753.863,0,0
247676.55,181.568,-751.354,0,0
247936.875,179.606,-748.78,0,0
248197.2,177.663,-746.137,0,0
248457.525,175.921,-743.573,0,0
248717.85,174.23,-741.047,0,0
248978.175,172.514,-738.45,0,0
249238.5,170.907,-735.947,0,0
249498.825,169.382,-733.477,0,0
249759.15,167.89,-730.973,0,0
250019.475,166.46,-728.47,0,0
250279.8,165.019,-726.02,0,0
250540,163.688,-723.61,0,0
250800,162.32,-721.213,0,0
251061,160.925,-718.851,0,0
251321,159.646,-716.354,0,0
251581,158.343,-713.932,0,0
251842,157.168,-711.537,0,0
252102,155.947,-709.098,0,0
252362,154.771,-706.652,0,0
252623,153.645,-704.229,0,0
252883,152.511,-701.806,0,0
253143,151.387,-699.298,0,0
253404,150.301,-696.768,0,0
253664,149.333,-694.169,0,0
253924,148.427,-691.576,0,0
254185,147.59,-688.957,0,0
254445,146.901,-686.334,0,0
254705,146.305,-683.763,0,0
254966,145.729,-681.276,0,0
255226,145.273,-678.694,0,0
255486,144.854,-676.185,0,0
255747,144.48,-673.792,0,0
256007,144.206,-671.543,0,0
256267,143.84,-669.209,0,0
256528,143.414,-666.901,0,0
256788,143.092,-664.586,0,0
257048,142.873,-662.179,0,0
257309,142.659,-659.894,0,0
257569,142.48,-657.568,0,0
257829,142.317,-655.295,0,0
258090,142.219,-652.99,0,0
258350,142.11,-650.625,0,0
258610,142.113,-648.256,0,0
258871,142.185,-645.856,0,0
259131,142.389,-643.46,0,0
259391,142.714,-641.037,0,0
259651,143.148,-638.622,0,0
259912,143.794,-636.376,0,0
260172,144.454,-634.142,0,0
260432,145.29,-632.024,0,0
260693,146.19,-630.055,0,0
260953,147.121,-628.223,0,0
261213,148.047,-626.492,0,0
261474,149.016,-624.87,0,0
261734,149.996,-623.314,0,0
261994,150.997,-621.827,0,0
262255,151.984,-620.379,0,0
262515,153.042,-619.04,0,0
262775,154.153,-617.787,0,0
263036,155.325,-616.606,0,0
263296,156.385,-615.525,0,0
263556,157.549,-614.569,0,0
263817,158.714,-613.668,0,0
264077,159.863,-612.916,0,0
264337,161.039,-612.184,0,0
264598,162.165,-611.548,0,0
264858,163.374,-611.015,0,0
265118,164.596,-610.566,0,0
265379,165.869,-610.252,0,0
265639,167.183,-610.148,0,0
265899,168.534,-610.151,0,0
266160,169.858,-610.459,0,0
266420,171.112,-611.042,0,0
266680.25,172.187,-611.869,0,0
266940.575,173.079,-612.903,0,0
267200.9,173.721,-614.169,0,0
267461.225,174.011,-615.58,0,0
267721.55,173.946,-617.079,0,0
267981.875,173.594,-618.484,0,0
268242.2,173.005,-619.85,0,0
268502.525,172.117,-621.164,0,0
268762.85,170.96,-622.373,0,0
269023.175,169.61,-623.522,0,0
269283.5,167.951,-624.356,0,0
269543.825,166.047,-625.162,0,0
269804.15,164.085,-625.526,0,0
270064.475,161.87,-625.754,0,0
270324.8,159.665,-625.548,0,0
270585.125,157.433,-625.103,0,0
270845.45,155.253,-624.484,0,0
271105.775,153.142,-623.491,0,0
271366.1,151.17,-622.307,0,0
271626.425,149.311,-620.899,0,0
271886.75,147.597,-619.354,0,0
272147.075,146.043,-617.694,0,0
272407.4,144.715,-615.887,0,0
272667.725,143.531,-614.07,0,0
272928.05,142.549,-612.154,0,0
273188.375,141.721,-610.224,0,0
273448.7,141.064,-608.302,0,0
273709.025,140.612,-606.469,0,0
273969.35,140.258,-604.653,0,0
274229.675,139.963,-602.917,0,0
274490.0,139.758,-601.173,0,0
274750.325,139.68,-599.57,0,0
275010.65,139.729,-597.923,0,0
275270.975,139.825,-596.481,0,0
275531.3,139.881,-595.104,0,0
275791.625,140.023,-593.774,0,0
276051.95,140.086,-592.436,0,0
276312.275,140.261,-591.144,0,0
276572.6,140.448,-589.879,0,0
276832.925,140.677,-588.649,0,0
277093.25,141.023,-587.5,0,0
277353.575,141.363,-586.395,0,0
277613.9,141.777,-585.36,0,0
277874.225,142.227,-584.429,0,0
278134.55,142.665,-583.612,0,0
278394.875,143.105,-582.882,0,0
278655.2,143.515,-582.204,0,0
278915.525,143.934,-581.627,0,0
279175.85,144.28,-581.155,0,0
279436.175,144.578,-580.692,0,0
279696.5,144.842,-580.369,0,0
279956.825,145.019,-580.024,0,0
280217.15,145.198,-579.774,0,0
280477.475,145.285,-579.533,0,0
280737.8,145.263,-579.262,0,0
280998.125,145.228,-579.054,0,0
281258.45,145.161,-578.868,0,0
281518.775,145.042,-578.746,0,0
281779.1,144.812,-578.695,0,0
282039.425,144.434,-578.662,0,0
282299.75,143.889,-578.543,0,0
282560,143.245,-578.274,0,0
282820,142.538,-577.955,0,0
283081,141.791,-577.545,0,0
283341,141.016,-576.971,0,0
283601,140.328,-576.281,0,0
283862,139.681,-575.489,0,0
284122,139.102,-574.676,0,0
284382,138.587,-573.885,0,0
284643,138.072,-573.096,0,0
284903,137.692,-572.256,0,0
285163,137.235,-571.552,0,0
285424,136.74,-570.785,0,0
285684,136.254,-570.054,0,0
285944,135.75,-569.341,0,0
286205,135.201,-568.599,0,0
286465,134.561,-567.861,0,0
286725,133.817,-567.047,0,0
286986,132.979,-566.133,0,0
287246,132.095,-564.999,0,0
287506,131.227,-563.685,0,0
287767,130.457,-562.175,0,0
288027,129.884,-560.496,0,0
288287,129.509,-558.71,0,0
288548,129.305,-556.893,0,0
288808,129.397,-555.013,0,0
289068,129.69,-553.253,0,0
289329,130.156,-551.633,0,0
289589,130.72,-550.173,0,0
289849,131.381,-548.758,0,0
290109,132.212,-547.57,0,0
290370,133.019,-546.628,0,0
290630,133.792,-545.889,0,0
290890,134.438,-545.257,0,0
291151,134.964,-544.707,0,0
291411,135.292,-544.222,0,0
291671,135.689,-543.682,0,0
291932,136.056,-543.207,0,0
292192,136.354,-542.835,0,0
292452,136.479,-542.518,0,0
292713,136.447,-542.225,0,0
292973,136.286,-541.79,0,0
293233,136.059,-541.257,0,0
293494,135.771,-540.646,0,0
293754,135.444,-539.917,0,0
294014,135.091,-539.02,0,0
294275,134.754,-537.993,0,0
294535,134.44,-536.822,0,0
294795,134.263,-535.521,0,0
295056,134.179,-534.117,0,0
295316,134.258,-532.575,0,0
295576,134.528,-531.02,0,0
295837,135.002,-529.453,0,0
296097,135.634,-527.934,0,0
296357,136.428,-526.527,0,0
296618,137.334,-525.203,0,0
296878,138.365,-524.07,0,0
297138,139.434,-523.025,0,0
297399,140.511,-522.172,0,0
297659,141.524,-521.412,0,0
297919,142.527,-520.723,0,0
298180,143.491,-520.003,0,0
298440,144.464,-519.334,0,0
298700.2,145.465,-518.696,0,0
298960.525,146.459,-518.088,0,0
299220.85,147.478,-517.618,0,0
299481.175,148.451,-517.188,0,0
299741.5,149.505,-516.722,0,0
300001.825,150.475,-516.19,0,0
300262.15,151.518,-515.767,0,0
300522.475,152.524,-515.296,0,0
300782.8,153.692,-514.849,0,0
301043.125,154.86,-514.438,0,0
301303.45,156.066,-514.045,0,0
301563.775,157.532,-513.724,0,0
301824.1,159.019,-513.56,0,0
302084.425,160.605,-513.61,0,0
302344.75,162.165,-513.756,0,0
302605.075,163.669,-514.188,0,0
302865.4,165.089,-514.75,0,0
303125.725,166.385,-515.47,0,0
303386.05,167.55,-516.248,0,0
303646.375,168.512,-517.026,0,0
303906.7,169.504,-517.851,0,0
304167.025,170.41,-518.6,0,0
304427.35,171.266,-519.441,0,0
304687.675,172.12,-520.204,0,0
304948.0,172.913,-521.115,0,0
305208.325,173.588,-522.013,0,0
305468.65,174.237,-522.895,0,0
305728.975,175.057,-523.861,0,0
305989.3,175.763,-524.815,0,0
306249.625,176.45,-525.967,0,0
306509.95,177.088,-527.162,0,0
306770.275,177.765,-528.428,0,0
307030.6,178.259,-529.891,0,0
307290.925,178.546,-531.353,0,0
307551.25,178.781,-532.894,0,0
307811.575,178.806,-534.538,0,0
308071.9,178.609,-535.984,0,0
308332.225,178.323,-537.506,0,0
308592.55,177.977,-538.83,0,0
308852.875,177.473,-540.101,0,0
309113.2,176.982,-541.245,0,0
309373.525,176.478,-542.32,0,0
309633.85,176.065,-543.342,0,0
309894.175,175.786,-544.327,0,0
310154.5,175.3,-545.311,0,0
310414.825,175.082,-546.449,0,0
310675.15,174.783,-547.802,0,0
310935.475,174.331,-549.104,0,0
311195.8,173.761,-550.423,0,0
311456.125,173.105,-551.842,0,0
311716.45,172.336,-553.347,0,0
311976.775,171.44,-554.781,0,0
312237.1,170.242,-556.25,0,0
312497.425,169.039,-557.571,0,0
312757.75,167.682,-558.855,0,0
313018.075,166.076,-560.039,0,0
313278.4,164.516,-560.969,0,0
313538.725,162.875,-561.911,0,0
313799.05,161.285,-562.657,0,0
314059.375,159.486,-563.29,0,0
314319.7,157.918,-563.731,0,0
314580,156.265,-564.167,0,0
314840,154.575,-564.514,0,0
315101,153.028,-564.86,0,0
315361,151.505,-564.979,0,0
315621,150.087,-565.271,0,0
315882,148.473,-565.527,0,0
316142,147.001,-565.782,0,0
316402,145.365,-565.936,0,0
316663,143.743,-566.054,0,0
316923,142.041,-566.042,0,0
317183,140.487,-566.07,0,0
317444,138.755,-565.864,0,0
317704,137.188,-565.752,0,0
317964,135.567,-565.55,0,0
318225,133.973,-565.258,0,0
318485,132.44,-564.934,0,0
318745,130.857,-564.521,0,0
319006,129.273,-564.21,0,0
319266,127.761,-563.766,0,0
319526,126.256,-563.274,0,0
319787,124.698,-562.708,0,0
320047,123.269,-562.117,0,0
320307,121.789,-561.411,0,0
320567,120.302,-560.758,0,0
320828,118.927,-559.923,0,0
321088,117.517,-559.087,0,0
321348,116.171,-558.234,0,0
321609,114.969,-557.299,0,0
321869,113.753,-556.368,0,0
322129,112.626,-555.491,0,0
322390,111.462,-554.456,0,0
322650,110.34,-553.465,0,0
322910,109.237,-552.367,0,0
323171,108.272,-551.246,0,0
323431,107.379,-550.089,0,0
323691,106.573,-548.852,0,0
323952,105.819,-547.613,0,0
324212,105.179,-546.591,0,0
324472,104.558,-545.4,0,0
324733,104.047,-544.382,0,0
324993,103.533,-543.34,0,0
325253,103.095,-542.307,0,0
325514,102.701,-541.336,0,0
325774,102.317,-540.409,0,0
326034,101.999,-539.487,0,0
326295,101.71,-538.569,0,0
326555,101.44,-537.746,0,0
326815,101.216,-536.945,0,0
327076,100.986,-536.3,0,0
327336,100.741,-535.578,0,0
327596,100.583,-534.943,0,0
327857,100.329,-534.417,0,0
328117,100.109,-533.845,0,0
328377,99.8696,-533.403,0,0
328638,99.595,-532.93,0,0
328898,99.29,-532.492,0,0
329158,98.9689,-532.093,0,0
329419,98.668,-531.66,0,0
329679,98.3061,-531.33,0,0
329939,97.8754,-531.004,0,0
330200,97.4461,-530.693,0,0
330460,97.0167,-530.359,0,0
330720.15,96.557,-530.02,0,0
330980.475,95.9714,-529.761,0,0
331240.8,95.4755,-529.474,0,0
331501.125,94.9005,-529.157,0,0
331761.45,94.2477,-528.775,0,0
332021.775,93.6706,-528.385,0,0
332282.1,93.0273,-528.051,0,0
332542.425,92.3081,-527.687,0,0
332802.75,91.6324,-527.263,0,0
333063.075,90.9374,-526.902,0,0
333323.4,90.1125,-526.459,0,0
333583.725,89.3968,-525.951,0,0
333844.05,88.6608,-525.549,0,0
334104.375,87.9643,-525.017,0,0
334364.7,87.1686,-524.435,0,0
334625.025,86.4187,-523.928,0,0
334885.35,85.573,-523.311,0,0
335145.675,84.8774,-522.735,0,0
335406.0,84.1212,-522.043,0,0
335666.325,83.3551,-521.341,0,0
335926.65,82.5838,-520.668,0,0
336186.975,81.9245,-519.974,0,0
336447.3,81.2043,-519.309,0,0
336707.625,80.5084,-518.508,0,0
336967.95,79.8101,-517.782,0,0
337228.275,79.1734,-517.04,0,0
337488.6,78.5395,-516.214,0,0
337748.925,77.8704,-515.467,0,0
338009.25,77.3336,-514.682,0,0
338269.575,76.6633,-513.872,0,0
338529.9,76.0591,-513.089,0,0
338790.225,75.4711,-512.305,0,0
339050.55,74.9228,-511.455,0,0
339310.875,74.3604,-510.583,0,0
339571.2,73.8476,-509.738,0,0
339831.525,73.3016,-508.945,0,0
340091.85,72.7106,-508.099,0,0
340352.175,72.3074,-507.259,0,0
340612.5,71.813,-506.388,0,0
340872.825,71.3623,-505.648,0,0
341133.15,70.9267,-504.799,0,0
341393.475,70.5181,-503.9,0,0
341653.8,70.0808,-503.146,0,0
341914.125,69.6743,-502.362,0,0
342174.45,69.2422,-501.541,0,0
342434.775,68.8077,-500.74,0,0
342695.1,68.3854,-499.98,0,0
342955.425,67.9398,-499.162,0,0
343215.75,67.5208,-498.45,0,0
343476.075,67.0686,-497.608,0,0
343736.4,66.5885,-496.836,0,0
343996.725,66.1996,-496.04,0,0
344257.05,65.7685,-495.157,0,0
344517.375,65.3467,-494.325,0,0
344777.7,64.841,-493.496,0,0
345038.025,64.4111,-492.638,0,0
345298.35,64.0653,-491.781,0,0
345558.675,63.6295,-490.971,0,0
345819.0,63.2526,-490.041,0,0
346079.325,62.8619,-489.197,0,0
346339.65,62.4557,-488.308,0,0
346599.975,62.0491,-487.364,0,0
346860,61.7249,-486.501,0,0
347121,61.3318,-485.543,0,0
347381,61.0569,-484.58,0,0
347641,60.7033,-483.648,0,0
347902,60.3798,-482.74,0,0
348162,60.1123,-481.759,0,0
348422,59.9387,-480.786,0,0
348683,59.6833,-479.852,0,0
348943,59.4845,-478.883,0,0
349203,59.3058,-477.962,0,0
349464,59.1654,-477.026,0,0
349724,58.9563,-476.178,0,0
349984,58.8344,-475.299,0,0
350245,58.6728,-474.37,0,0
350505,58.5428,-473.462,0,0
350765,58.3288,-472.604,0,0
351025,58.1487,-471.764,0,0
351286,58.0718,-470.864,0,0
351546,57.9237,-470.001,0,0
351806,57.874,-469.065,0,0
352067,57.7607,-468.221,0,0
352327,57.6875,-467.325,0,0
352587,57.6179,-466.496,0,0
352848,57.5431,-465.701,0,0
353108,57.4722,-464.865,0,0
353368,57.4225,-464.054,0,0
353629,57.3302,-463.233,0,0
353889,57.2727,-462.44,0,0
354149,57.1766,-461.595,0,0
354410,57.1281,-460.781,0,0
354670,57.0706,-460.014,0,0
354930,57.029,-459.178,0,0
355191,56.9879,-458.382,0,0
355451,56.9503,-457.586,0,0
355711,56.9277,-456.778,0,0
355972,56.9092,-456.022,0,0
356232,56.8797,-455.193,0,0
356492,56.8525,-454.424,0,0
356753,56.8804,-453.627,0,0
357013,56.8748,-452.855,0,0
357273,56.8814,-452.112,0,0
357534,56.9067,-451.349,0,0
357794,56.8807,-450.548,0,0
358054,56.8954,-449.865,0,0
358315,56.8674,-449.128,0,0
358575,56.8678,-448.357,0,0
358835,56.8803,-447.581,0,0
359096,56.8543,-446.814,0,0
359356,56.9305,-446.019,0,0
359616,56.9541,-445.26,0,0
359877,56.9818,-444.488,0,0
360137,57.0658,-443.742,0,0
360397,57.1251,-442.97,0,0
360658,57.1752,-442.28,0,0
360918,57.3244,-441.508,0,0
361178,57.337,-440.833,0,0
361438,57.4097,-440.173,0,0
361699,57.5129,-439.439,0,0
361959,57.5682,-438.765,0,0
362219,57.6435,-438.096,0,0
362480,57.6581,-437.401,0,0
362740.1,57.7331,-436.706,0,0
363000.425,57.7536,-436.033,0,0
363260.75,57.8216,-435.306,0,0
363521.075,57.904,-434.567,0,0
363781.4,57.9665,-433.881,0,0
364041.725,58.0539,-433.135,0,0
364302.05,58.1449,-432.435,0,0
364562.375,58.2484,-431.691,0,0
364822.7,58.3413,-431.026,0,0
365083.025,58.4747,-430.317,0,0
365343.35,58.596,-429.652,0,0
365603.675,58.7433,-428.919,0,0
365864.0,58.8361,-428.318,0,0
366124.325,58.9441,-427.641,0,0
366384.65,59.0722,-427.018,0,0
366644.975,59.1898,-426.362,0,0
366905.3,59.1895,-425.692,0,0
367165.625,59.2371,-425.047,0,0
367425.95,59.2749,-424.329,0,0
367686.275,59.2766,-423.595,0,0
367946.6,59.3063,-422.778,0,0
368206.925,59.3351,-421.974,0,0
368467.25,59.4444,-421.039,0,0
368727.575,59.5659,-420.184,0,0
368987.9,59.7767,-419.262,0,0
369248.225,60.0149,-418.382,0,0
369508.55,60.2718,-417.44,0,0
369768.875,60.6438,-416.541,0,0
370029.2,61.021,-415.668,0,0
370289.525,61.4507,-414.763,0,0
370549.85,61.8941,-413.933,0,0
370810.175,62.3739,-413.114,0,0
371070.5,62.9533,-412.298,0,0
371330.825,63.5353,-411.536,0,0
371591.15,64.1516,-410.807,0,0
371851.475,64.8264,-410.106,0,0
372111.8,65.5432,-409.482,0,0
372372.125,66.2381,-408.905,0,0
372632.45,66.9449,-408.405,0,0
372892.775,67.6805,-407.933,0,0
373153.1,68.3718,-407.493,0,0
373413.425,69.0877,-407.151,0,0
373673.75,69.8022,-406.829,0,0
373934.075,70.5194,-406.58,0,0
374194.4,71.1856,-406.366,0,0
374454.725,71.8019,-406.173,0,0
374715.05,72.4487,-406.052,0,0
374975.375,72.9984,-405.985,0,0
375235.7,73.5425,-405.906,0,0
375496.025,74.0615,-405.831,0,0
375756.35,74.5273,-405.76,0,0
376016.675,74.927,-405.721,0,0
376277.0,75.3279,-405.695,0,0
376537.325,75.7302,-405.617,0,0
376797.65,76.0907,-405.57,0,0
377057.975,76.4924,-405.503,0,0
377318.3,76.8553,-405.424,0,0
377578.625,77.2322,-405.367,0,0
377838.95,77.6441,-405.371,0,0
378099.275,78.0066,-405.352,0,0
378359.6,78.3421,-405.376,0,0
378619.925,78.6991,-405.427,0,0
378880,79.0214,-405.464,0,0
379141,79.3166,-405.539,0,0
379401,79.5306,-405.624,0,0
379661,79.7907,-405.675,0,0
379922,79.9488,-405.764,0,0
380182,80.1586,-405.7,0,0
380442,80.4012,-405.688,0,0
380703,80.6936,-405.668,0,0
380963,81.0561,-405.704,0,0
381223,81.4539,-405.777,0,0
381483,81.8394,-405.957,0,0
381744,82.1935,-406.23,0,0
382004,82.4408,-406.628,0,0
382264,82.6889,-407.004,0,0
382525,82.7968,-407.43,0,0
382785,82.8915,-407.852,0,0
383045,82.8987,-408.306,0,0
383306,82.8463,-408.754,0,0
383566,82.6816,-409.256,0,0
383826,82.4906,-409.634,0,0
384087,82.2487,-410.074,0,0
384347,81.935,-410.448,0,0
384607,81.5115,-410.764,0,0
384868,81.0796,-411.113,0,0
385128,80.6097,-411.386,0,0
385388,80.0995,-411.573,0,0
385649,79.5889,-411.788,0,0
385909,79.0611,-411.887,0,0
386169,78.4521,-412.02,0,0
386430,77.8825,-412.04,0,0
386690,77.2457,-412.008,0,0
386950,76.599,-411.93,0,0
387211,75.994,-411.859,0,0
387471,75.3319,-411.701,0,0
387731,74.748,-411.409,0,0
387992,74.1392,-411.168,0,0
388252,73.5673,-410.822,0,0
388512,73.045,-410.427,0,0
388773,72.5536,-410.016,0,0
389033,72.1395,-409.593,0,0
389293,71.754,-409.185,0,0
389554,71.3632,-408.737,0,0
389814,71.0487,-408.337,0,0
390074,70.6964,-407.94,0,0
390335,70.4396,-407.557,0,0
390595,70.175,-407.14,0,0
390855,69.8812,-406.815,0,0
391116,69.5959,-406.495,0,0
391376,69.3491,-406.162,0,0
391636,69.0616,-405.855,0,0
391896,68.7926,-405.55,0,0
392157,68.4802,-405.263,0,0
392417,68.2308,-404.989,0,0
392677,67.9106,-404.719,0,0
392938,67.53,-404.446,0,0
393198,67.1603,-404.176,0,0
393458,66.7225,-403.919,0,0
393719,66.3531,-403.58,0,0
393979,65.8509,-403.265,0,0
394239,65.3609,-402.921,0,0
394500,64.839,-402.505,0,0
394760.05,64.3587,-402.069,0,0
395020.375,63.8917,-401.527,0,0
395280.7,63.3619,-401.053,0,0
395541.025,62.9,-400.522,0,0
395801.35,62.5017,-399.923,0,0
396061.675,62.0199,-399.275,0,0
396322.0,61.6531,-398.658,0,0
396582.325,61.2635,-398.069,0,0
396842.65,60.8823,-397.332,0,0
397102.975,60.5738,-396.67,0,0
397363.3,60.2534,-395.997,0,0
397623.625,59.9861,-395.301,0,0
397883.95,59.6912,-394.609,0,0
398144.275,59.4283,-393.966,0,0
398404.6,59.2121,-393.234,0,0
398664.925,58.975,-392.522,0,0
398925.25,58.794,-391.814,0,0
399185.575,58.5923,-391.141,0,0
399445.9,58.3945,-390.387,0,0
399706.225,58.2479,-389.708,0,0
399966.55,58.0886,-388.971,0,0
400006.6,58.1045,-388.841,0,0