File: Accelerated corrosion test data/2025-10-18_18-00-03/sample_1.csv
Frequency (Hz),Impedance (ohms),Phase (Radians),Temperature (C),Humidity (%)
10000.0,241.838,-12200.2,0,0
10260.325,247.898,-11886.3,0,0
10520.65,231.169,-11606.3,0,0
10780.975,228.079,-11322.4,0,0
11041.3,220.801,-11062.7,0,0
11301.625,215.202,-10806,0,0
11561.95,211.429,-10562.3,0,0
11822.275,209.49,-10323.2,0,0
12082.6,239.01,-10094.3,0,0
12342.925,209.922,-9920.42,0,0
12603.25,195.621,-9706.16,0,0
12863.575,192.612,-9504.43,0,0
13123.9,206.677,-9315.97,0,0
13384.225,185.619,-9141.4,0,0
13644.55,181.907,-8960.69,0,0
13904.875,184.819,-8781.28,0,0
14165.2,186.334,-8643.44,0,0
14425.525,210.877,-8490.65,0,0
14685.8,215.959,-8317.23,0,0
14946.175,176.932,-8212.24,0,0
15206.5,192.353,-8053.33,0,0
15466.825,172.672,-7937.39,0,0
15727.15,172.346,-7806.66,0,0
15987.5,160.97,-7676.03,0,0
16247.8,157.286,-7549.79,0,0
16508.125,155.8,-7426.88,0,0
16768.45,159.536,-7309.78,0,0
17028.775,164.529,-7202.73,0,0
17289.1,154.94,-7098.48,0,0
17549.425,152.044,-6995.74,0,0
17809.75,147.63,-6890.65,0,0
18070.075,149.511,-6790.98,0,0
18330.4,143.044,-6694.7,0,0
18590.725,138.367,-6601.15,0,0
18851.05,140.761,-6503.04,0,0
19111.375,135.595,-6421.81,0,0
19371.7,133.557,-6329.93,0,0
19632.025,132.872,-6240.92,0,0
19892.35,137.601,-6156.24,0,0
20152.675,137.139,-6067.33,0,0
20413.0,161.273,-5979.69,0,0
20673.3,167.804,-5939.92,0,0
20933.65,148.039,-5868.28,0,0
21193.975,161.091,-5808.82,0,0
21454.3,142.077,-5735.68,0,0
21714.625,135.394,-5660.97,0,0
21974.9,142.941,-5579.35,0,0
22235.275,173.645,-5543.22,0,0
22495.6,140.082,-5496.6,0,0
22755.925,127.199,-5427.03,0,0
23016.25,122.895,-5360.48,0,0
23276.6,119.213,-5299.4,0,0
23536.9,115.964,-5238.52,0,0
23797.225,112.273,-5177.31,0,0
24057.55,116.592,-5116.13,0,0
24317.875,113.166,-5067.68,0,0
24578.2,112.156,-5008.86,0,0
24838.525,110.937,-4958.24,0,0
25098.85,112.366,-4905.17,0,0
25359.175,106.548,-4854.77,0,0
25619.5,105.052,-4804,0,0
25879.8,104.029,-4752.64,0,0
26140.1,103.979,-4703.67,0,0
26400.5,102.963,-4653.14,0,0
26660.8,105.993,-4602.22,0,0
26921.1,116.151,-4554.82,0,0
27181.4,122.837,-4525.82,0,0
27441.8,110.085,-4487.94,0,0
27702.1,104.227,-4438.09,0,0
27962.4,112.872,-4390.6,0,0
28222.7,111.682,-4351.81,0,0
28483.1,122.06,-4308.34,0,0
28743.4,129.771,-4291.22,0,0
29003.7,117.512,-4252.38,0,0
29264,119.02,-4220.49,0,0
29524.4,107.559,-4185.85,0,0
29784.7,106.935,-4143.53,0,0
30045,101.887,-4111.67,0,0
30305.3,99.8909,-4073.4,0,0
30565.7,97.761,-4034.03,0,0
30826,101.58,-3998.32,0,0
31086.3,103.729,-3972.09,0,0
31346.6,98.9403,-3941.09,0,0
31607,94.3429,-3903.31,0,0
31867.3,98.7054,-3872.19,0,0
32127.6,97.5916,-3841.55,0,0
32387.9,96.9105,-3813.95,0,0
32648.3,94.0701,-3781.98,0,0
32908.6,95.9117,-3754.85,0,0
33168.9,91.0002,-3725.82,0,0
33429.2,88.609,-3696.38,0,0
33689.6,86.3498,-3666.92,0,0
33949.9,86.3329,-3636.14,0,0
34210.2,86.7688,-3610.44,0,0
34470.5,84.1296,-3583.38,0,0
34730.9,82.7325,-3555.3,0,0
34991.2,81.7145,-3528.43,0,0
35251.5,81.0227,-3501.88,0,0
35511.8,79.9786,-3475.13,0,0
35772.2,79.6524,-3449.86,0,0
36032.5,77.9905,-3424.4,0,0
36292.8,77.8309,-3398.98,0,0
36553.1,77.1532,-3374.06,0,0
36813.5,76.6369,-3349.51,0,0
37073.8,76.4707,-3325.57,0,0
37334.1,75.6582,-3301.93,0,0
37594.4,75.3782,-3278.8,0,0
37854.8,74.5485,-3255.97,0,0
38115.1,73.797,-3232.95,0,0
38375.4,73.637,-3210.15,0,0
38635.7,73.4786,-3188.21,0,0
38896.1,72.6912,-3166.26,0,0
39156.4,73.1602,-3144.68,0,0
39416.7,72.6009,-3124.16,0,0
39677,71.4608,-3102.87,0,0
39937.4,71.5255,-3081.61,0,0
40197.7,71.5506,-3061.29,0,0
40458,71.1392,-3041.02,0,0
40718.3,71.5206,-3019.94,0,0
40978.7,73.0152,-3001.08,0,0
41239,72.8417,-2983.14,0,0
41499.3,72.0072,-2965,0,0
41759.6,71.1226,-2946.14,0,0
42020,70.8727,-2926.82,0,0
42280.275,71.0444,-2908.36,0,0
42540.6,71.5839,-2891.14,0,0
42800.925,70.1285,-2874.1,0,0
43061.25,69.8027,-2855.88,0,0
43321.575,69.4723,-2838.69,0,0
43581.9,68.6841,-2821.41,0,0
43842.225,68.0481,-2803.81,0,0
44102.55,68.4428,-2786.08,0,0
44362.875,69.4806,-2769.39,0,0
44623.2,69.3629,-2754.15,0,0
44883.525,68.7817,-2737.98,0,0
45143.85,68.8011,-2722.37,0,0
45404.175,68.9561,-2707.42,0,0
45664.5,67.9553,-2691.75,0,0
45924.825,67.0886,-2676.75,0,0
46185.15,66.3013,-2661.31,0,0
46445.475,65.4942,-2645.33,0,0
46705.8,65.7082,-2630.25,0,0
46966.125,65.2065,-2615.85,0,0
47226.45,64.9512,-2600.83,0,0
47486.775,64.8692,-2586.33,0,0
47747.1,64.7477,-2571.98,0,0
48007.425,63.9297,-2558.3,0,0
48267.75,63.7742,-2544.47,0,0
48528.075,62.6684,-2530.23,0,0
48788.4,62.0599,-2515.91,0,0
49048.725,62.0626,-2502.05,0,0
49309.05,62.0692,-2488.35,0,0
49569.375,61.7684,-2475.25,0,0
49829.7,61.1984,-2462.33,0,0
50090.025,60.4205,-2448.9,0,0
50350.35,59.9152,-2435.57,0,0
50610.675,59.9472,-2422.17,0,0
50871.0,59.8176,-2409.36,0,0
51131.325,59.5703,-2396.79,0,0
51391.65,59.759,-2384.5,0,0
51651.975,58.9167,-2372.07,0,0
51912.3,58.7249,-2359.54,0,0
52172.625,58.48,-2347.05,0,0
52432.95,58.4847,-2335.14,0,0
52693.275,58.2401,-2323.22,0,0
52953.6,58.0384,-2311.15,0,0
53213.925,57.9531,-2299.46,0,0
53474.25,57.8574,-2287.94,0,0
53734.575,57.5974,-2276.4,0,0
53994.9,57.455,-2265.31,0,0
54255.225,56.9906,-2254.23,0,0
54515.55,56.6474,-2242.99,0,0
54775.875,56.2999,-2231.59,0,0
55036.2,56.2248,-2220.35,0,0
55296.525,56.2453,-2209.53,0,0
55556.85,56.0187,-2198.8,0,0
55817.175,55.7385,-2188.1,0,0
56077.5,55.3124,-2177.28,0,0
56337.825,55.2157,-2166.63,0,0
56598.15,55.2148,-2156.12,0,0
56858.475,55.2557,-2145.72,0,0
57118.8,55.0013,-2135.35,0,0
57379.125,54.9918,-2125,0,0
57639.45,54.9576,-2115.06,0,0
57899.775,55.0715,-2104.89,0,0
58160.1,54.8088,-2095.07,0,0
58420.4,54.8371,-2085.43,0,0
58680.7,54.6675,-2075.64,0,0
58941.1,54.551,-2065.82,0,0
59201.4,54.7851,-2056.33,0,0
59461.7,54.5697,-2047.19,0,0
59722,54.3594,-2037.67,0,0
59982.4,54.4967,-2028.29,0,0
60242.7,54.4355,-2018.97,0,0
60503,54.6717,-2009.78,0,0
60763.3,54.8565,-2001.38,0,0
61023.7,54.2223,-1992.72,0,0
61284,53.7708,-1983.7,0,0
61544.3,53.6739,-1974.44,0,0
61804.6,53.7678,-1965.71,0,0
62065,53.319,-1957.19,0,0
62325.3,52.9979,-1948.43,0,0
62585.6,52.8549,-1939.56,0,0
62845.9,52.7574,-1930.75,0,0
63106.3,52.8819,-1922.22,0,0
63366.6,52.7775,-1913.75,0,0
63626.9,52.7328,-1905.13,0,0
63887.2,52.8612,-1896.68,0,0
64147.6,52.8123,-1888.42,0,0
64407.9,53.0213,-1880.01,0,0
64668.2,53.3246,-1871.75,0,0
64928.5,53.7053,-1863.37,0,0
65188.9,54.442,-1855.43,0,0
65449.2,55.0826,-1847.88,0,0
65709.5,55.6605,-1841.04,0,0
65969.8,55.4194,-1833.97,0,0
66230.2,55.1885,-1826.66,0,0
66490.5,55.1792,-1819.14,0,0
66750.8,54.9671,-1812.31,0,0
67011.1,54.3291,-1804.99,0,0
67271.5,53.985,-1796.92,0,0
67531.8,54.7335,-1789.65,0,0
67792.1,54.9201,-1783.05,0,0
68052.4,54.2051,-1776.65,0,0
68312.8,53.352,-1769.2,0,0
68573.1,53.2422,-1761.5,0,0
68833.4,53.5629,-1754.57,0,0
69093.7,53.286,-1747.76,0,0
69354.1,53.2329,-1740.95,0,0
69614.4,52.8949,-1734.41,0,0
69874.7,52.6287,-1727.46,0,0
70135,52.2144,-1721.03,0,0
70395.4,51.4984,-1714.13,0,0
70655.7,51.0775,-1707.09,0,0
70916,50.7554,-1700.05,0,0
71176.3,50.6085,-1693.07,0,0
71436.7,50.489,-1686.63,0,0
71697,49.8888,-1680.09,0,0
71957.3,49.3963,-1673.35,0,0
72217.6,48.8786,-1666.3,0,0
72478,48.857,-1659.31,0,0
72738.3,48.71,-1652.55,0,0
72998.6,48.7209,-1645.75,0,0
73258.9,48.6739,-1639.31,0,0
73519.3,48.3603,-1632.67,0,0
73779.6,48.3384,-1626.05,0,0
74039.9,48.3476,-1619.43,0,0
74300.225,48.3416,-1612.91,0,0
74560.55,48.4087,-1606.35,0,0
74820.875,48.7086,-1600.07,0,0
75081.2,48.7434,-1593.85,0,0
75341.525,48.8112,-1587.52,0,0
75601.85,48.7916,-1581.17,0,0
75862.175,49.0241,-1574.83,0,0
76122.5,49.3545,-1568.76,0,0
76382.825,49.5742,-1562.78,0,0
76643.15,49.7334,-1556.83,0,0
76903.475,49.8257,-1550.81,0,0
77163.8,50.1265,-1544.92,0,0
77424.125,50.3955,-1539.13,0,0
77684.45,50.5023,-1533.37,0,0
77944.775,50.7416,-1527.36,0,0
78205.1,51.1844,-1521.55,0,0
78465.425,51.8232,-1516.13,0,0
78725.75,52.103,-1511.05,0,0
78986.075,52.2066,-1505.8,0,0
79246.4,52.1865,-1500.68,0,0
79506.725,52.0201,-1495.55,0,0
79767.05,51.6236,-1490.14,0,0
80027.375,51.6289,-1484.7,0,0
80287.7,51.3124,-1479.43,0,0
80548.025,51.0176,-1473.82,0,0
80808.35,50.9367,-1468.3,0,0
81068.675,50.8402,-1462.71,0,0
81329.0,50.8237,-1457.07,0,0
81589.325,50.921,-1451.55,0,0
81849.65,51.1072,-1446.14,0,0
82109.975,51.2614,-1440.75,0,0
82370.3,51.4201,-1435.49,0,0
82630.625,51.3551,-1430.22,0,0
82890.95,51.4826,-1424.72,0,0
83151.275,51.7434,-1419.35,0,0
83411.6,52.0777,-1414.1,0,0
83671.925,52.2558,-1408.88,0,0
83932.25,52.5712,-1403.64,0,0
84192.575,52.9545,-1398.44,0,0
84452.9,53.4737,-1393.43,0,0
84713.225,53.8061,-1388.53,0,0
84973.55,54.134,-1383.44,0,0
85233.875,54.7399,-1378.64,0,0
85494.2,55.131,-1374.15,0,0
85754.525,55.3631,-1369.42,0,0
86014.85,55.4221,-1364.72,0,0
86275.175,55.6646,-1359.96,0,0
86535.5,55.9368,-1355.36,0,0
86795.825,55.8983,-1350.65,0,0
87056.15,56.1787,-1345.77,0,0
87316.475,56.5501,-1341.29,0,0
87576.8,56.4904,-1336.79,0,0
87837.125,56.5188,-1332.12,0,0
88097.45,56.5373,-1327.25,0,0
88357.775,56.6254,-1322.31,0,0
88618.1,57.0465,-1317.28,0,0
88878.425,57.3561,-1312.53,0,0
89138.75,57.709,-1307.6,0,0
89399.075,58.3585,-1302.77,0,0
89659.4,58.9051,-1297.89,0,0
89919.725,59.6635,-1293.32,0,0
90180,60.2344,-1288.76,0,0
90440.4,60.9784,-1284.15,0,0
90700.7,61.6946,-1279.42,0,0
90961,62.611,-1274.58,0,0
91221.3,64.0539,-1269.99,0,0
91481.7,65.5102,-1266.05,0,0
91742,66.4982,-1262.01,0,0
92002.3,67.6416,-1257.93,0,0
92262.6,69.1279,-1254.01,0,0
92523,70.5384,-1250.14,0,0
92783.3,72.5355,-1246.7,0,0
93043.6,74.1584,-1243.96,0,0
93303.9,75.671,-1240.95,0,0
93564.3,77.9154,-1238.63,0,0
93824.6,79.7763,-1238.37,0,0
94084.9,79.0878,-1238.72,0,0
94345.2,76.5195,-1237.54,0,0
94605.6,74.508,-1234.38,0,0
94865.9,72.7258,-1231.49,0,0
95126.2,71.079,-1227.75,0,0
95386.5,69.7859,-1224.08,0,0
95646.9,68.3386,-1220.06,0,0
95907.2,67.0077,-1215.46,0,0
96167.5,66.7345,-1210.58,0,0
96427.8,67.028,-1206.67,0,0
96688.2,66.5045,-1203.37,0,0
96948.5,65.5675,-1199.28,0,0
97208.8,65.1526,-1194.95,0,0
97469.1,64.8135,-1190.7,0,0
97729.5,64.6341,-1186.46,0,0
97989.8,64.5992,-1182.22,0,0
98250.1,64.9277,-1178.22,0,0
98510.4,64.9273,-1174.66,0,0
98770.8,64.5943,-1170.91,0,0
99031.1,64.362,-1166.93,0,0
99291.4,64.2413,-1162.91,0,0
99551.7,64.1141,-1158.93,0,0
99812.1,64.1801,-1155,0,0
100072,64.0817,-1151.24,0,0
100333,63.8032,-1147.29,0,0
100593,63.6577,-1143.1,0,0
100853,63.7224,-1139.1,0,0
101114,63.7411,-1135.09,0,0
101374,63.6408,-1131.16,0,0
101634,63.3482,-1126.97,0,0
101895,63.1924,-1122.49,0,0
102155,63.3737,-1117.76,0,0
102415,63.9347,-1113,0,0
102676,64.8978,-1108.51,0,0
102936,65.8753,-1104.37,0,0
103196,66.6956,-1100.29,0,0
103457,67.6199,-1096.16,0,0
103717,68.649,-1092.02,0,0
103977,69.9998,-1087.77,0,0
104238,71.7306,-1084,0,0
104498,73.3371,-1080.81,0,0
104758,74.656,-1077.8,0,0
105019,75.5145,-1074.73,0,0
105279,76.3691,-1071.25,0,0
105539,77.6666,-1067.78,0,0
105800,79.0469,-1064.51,0,0
106060,80.5428,-1061.43,0,0
106320.175,82.0884,-1058.61,0,0
106580.5,83.5379,-1056.05,0,0
106840.825,84.5415,-1053.6,0,0
107101.15,85.7181,-1050.89,0,0
107361.475,87.1577,-1048.55,0,0
107621.8,88.0716,-1046.48,0,0
107882.125,88.9092,-1044.28,0,0
108142.45,89.655,-1041.93,0,0
108402.775,90.4933,-1039.53,0,0
108663.1,91.4788,-1037.28,0,0
108923.425,92.3746,-1035.17,0,0
109183.75,93.4372,-1033.11,0,0
109444.075,94.3218,-1031.59,0,0
109704.4,94.8122,-1030.22,0,0
109964.725,94.89,-1028.77,0,0
110225.05,94.5296,-1027.21,0,0
110485.375,93.9217,-1025.01,0,0
110745.7,93.6622,-1022.34,0,0
111006.025,93.8142,-1019.56,0,0
111266.35,94.0569,-1017.03,0,0
111526.675,94.7659,-1014.6,0,0
111787.0,95.3535,-1012.43,0,0
112047.325,96.036,-1010.4,0,0
112307.65,96.3053,-1008.69,0,0
112567.975,96.665,-1006.79,0,0
112828.3,96.9692,-1005.09,0,0
113088.625,97.1874,-1003.55,0,0
113348.95,97.1279,-1002.11,0,0
113609.275,96.7218,-1000.65,0,0
113869.6,96.2354,-998.916,0,0
114129.925,95.7636,-997.193,0,0
114390.25,95.2526,-995.384,0,0
114650.575,94.6914,-993.491,0,0
114910.9,94.0723,-991.756,0,0
115171.225,93.2263,-989.832,0,0
115431.55,92.2741,-987.981,0,0
115691.875,91.2381,-985.809,0,0
115952.2,90.2195,-983.449,0,0
116212.525,89.2095,-981.02,0,0
116472.85,88.3517,-978.496,0,0
116733.175,87.4,-976.047,0,0
116993.5,86.3695,-973.426,0,0
117253.825,85.2908,-970.645,0,0
117514.15,84.3858,-967.653,0,0
117774.475,83.5289,-964.637,0,0
118034.8,82.7719,-961.373,0,0
118295.125,82.3377,-958.21,0,0
118555.45,81.8997,-955.094,0,0
118815.775,81.4505,-951.944,0,0
119076.1,81.2428,-948.689,0,0
119336.425,81.0884,-945.547,0,0
119596.75,81.0503,-942.456,0,0
119857.075,81.1751,-939.373,0,0
120117.4,81.343,-936.524,0,0
120377.725,81.4389,-933.777,0,0
120638.05,81.6048,-931.078,0,0
120898.375,81.751,-928.59,0,0
121158.7,81.5978,-926.254,0,0
121419.025,81.2766,-923.766,0,0
121679.35,80.8933,-921.245,0,0
121939.675,80.4274,-918.534,0,0
122200.0,80.0237,-915.669,0,0
122460,79.6522,-912.812,0,0
122721,79.3754,-909.795,0,0
122981,79.1311,-906.872,0,0
123241,78.8776,-903.808,0,0
123502,78.7953,-900.673,0,0
123762,78.8103,-897.574,0,0
124022,78.9044,-894.536,0,0
124283,79.0053,-891.605,0,0
124543,79.0564,-888.657,0,0
124803,79.2218,-885.668,0,0
125064,79.3787,-882.755,0,0
125324,79.4902,-879.749,0,0
125584,79.8057,-876.73,0,0
125845,80.157,-873.909,0,0
126105,80.3567,-871.158,0,0
126365,80.6045,-868.314,0,0
126626,80.8463,-865.456,0,0
126886,81.1649,-862.581,0,0
127146,81.2299,-859.641,0,0
127406,81.6866,-856.874,0,0
127667,82.059,-853.845,0,0
127927,82.609,-851.013,0,0
128187,83.0965,-848.211,0,0
128448,83.6098,-845.404,0,0
128708,84.1137,-842.721,0,0
128968,84.4874,-840.052,0,0
129229,84.879,-837.146,0,0
129489,85.4261,-834.224,0,0
129749,86.0831,-831.239,0,0
130010,87.0143,-828.315,0,0
130270,88.0372,-825.65,0,0
130530,88.961,-823.142,0,0
130791,89.8774,-820.64,0,0
131051,90.897,-818.169,0,0
131311,91.9379,-815.929,0,0
131572,92.8943,-813.854,0,0
131832,93.6599,-811.823,0,0
132092,94.3817,-809.785,0,0
132353,94.9756,-807.758,0,0
132613,95.5476,-805.611,0,0
132873,96.2055,-803.453,0,0
133134,96.8142,-801.39,0,0
133394,97.3688,-799.326,0,0
133654,97.9032,-797.227,0,0
133915,98.4728,-795.021,0,0
134175,99.1703,-792.841,0,0
134435,99.8226,-790.818,0,0
134696,100.406,-788.821,0,0
134956,100.998,-786.827,0,0
135216,101.538,-784.847,0,0
135477,102.018,-782.9,0,0
135737,102.415,-780.836,0,0
135997,102.841,-778.645,0,0
136258,103.391,-776.32,0,0
136518,104.199,-774.034,0,0
136778,105.144,-772.031,0,0
137039,105.941,-770.072,0,0
137299,106.96,-768.06,0,0
137559,108.126,-766.442,0,0
137819,108.992,-765.186,0,0
138080,109.511,-763.917,0,0
138340.125,109.892,-762.499,0,0
138600.45,110.419,-761.062,0,0
138860.775,110.73,-759.88,0,0
139121.1,110.77,-758.586,0,0
139381.425,110.703,-757.196,0,0
139641.75,110.495,-755.638,0,0
139902.075,110.334,-753.939,0,0
140162.4,110.137,-752.118,0,0
140422.725,109.98,-750.265,0,0
140683.05,109.755,-748.278,0,0
140943.375,109.61,-746.194,0,0
141203.7,109.535,-744.011,0,0
141464.025,109.615,-741.802,0,0
141724.35,109.657,-739.736,0,0
141984.675,109.564,-737.498,0,0
142245.0,109.714,-735.063,0,0
142505.325,110.068,-732.717,0,0
142765.65,110.426,-730.622,0,0
143025.975,110.6,-728.483,0,0
143286.3,110.817,-726.211,0,0
143546.625,111.181,-723.936,0,0
143806.95,111.593,-721.712,0,0
144067.275,112.055,-719.617,0,0
144327.6,112.382,-717.561,0,0
144587.925,112.624,-715.399,0,0
144848.25,112.914,-713.12,0,0
145108.575,113.347,-710.826,0,0
145368.9,113.799,-708.542,0,0
145629.225,114.39,-706.243,0,0
145889.55,115.124,-704.022,0,0
146149.875,115.906,-702.025,0,0
146410.2,116.514,-700.134,0,0
146670.525,117.147,-698.117,0,0
146930.85,117.946,-696.294,0,0
147191.175,118.575,-694.71,0,0
147451.5,118.975,-693.22,0,0
147711.825,119.051,-691.711,0,0
147972.15,118.925,-689.901,0,0
148232.475,118.869,-687.745,0,0
148492.8,119.007,-685.561,0,0
148753.125,119.099,-683.286,0,0
149013.45,119.408,-680.771,0,0
149273.775,120.144,-678.329,0,0
149534.1,121.049,-676.33,0,0
149794.425,121.647,-674.579,0,0
150054.75,122.116,-672.94,0,0
150315.075,122.443,-671.228,0,0
150575.4,122.613,-669.713,0,0
150835.725,122.362,-668.085,0,0
151096.05,121.87,-666.047,0,0
151356.375,121.512,-663.619,0,0
151616.7,121.416,-661.117,0,0
151877.025,121.313,-658.685,0,0
152137.35,121.007,-656.132,0,0
152397.675,120.715,-653.229,0,0
152658.0,120.61,-650.025,0,0
152918.325,120.823,-646.698,0,0
153178.65,121.339,-643.365,0,0
153438.975,121.948,-640.177,0,0
153699.3,122.549,-636.92,0,0
153959.625,123.327,-633.55,0,0
154219.95,124.265,-630.226,0,0
154480,125.307,-626.905,0,0
154741,126.531,-623.466,0,0
155001,127.983,-620.223,0,0
155261,129.31,-617.046,0,0
155522,130.684,-613.606,0,0
155782,132.57,-609.972,0,0
156042,134.871,-606.669,0,0
156303,137.284,-603.751,0,0
156563,139.521,-601.039,0,0
156823,141.74,-598.189,0,0
157084,144.379,-595.385,0,0
157344,147.181,-592.985,0,0
157604,149.892,-590.842,0,0
157864,152.483,-589.029,0,0
158125,154.877,-587.208,0,0
158385,157.306,-585.464,0,0
158645,159.439,-584.044,0,0
158906,160.997,-582.353,0,0
159166,162.586,-580.004,0,0
159426,164.481,-577.203,0,0
159687,167.056,-574.366,0,0
159947,170.098,-571.538,0,0
160207,173.694,-569.089,0,0
160468,177.28,-567.042,0,0
160728,181.159,-565.21,0,0
160988,185.258,-563.744,0,0
161249,189.439,-562.953,0,0
161509,193.381,-562.518,0,0
161769,197.211,-562.309,0,0
162030,200.921,-562.515,0,0
162290,204.324,-563.105,0,0
162550,207.398,-563.895,0,0
162811,209.902,-564.857,0,0
163071,211.934,-565.502,0,0
163331,213.878,-565.725,0,0
163592,216.087,-565.746,0,0
163852,218.452,-565.888,0,0
164112,220.78,-566.075,0,0
164373,223.249,-566.307,0,0
164633,225.77,-566.628,0,0
164893,228.365,-567.028,0,0
165154,231.171,-567.769,0,0
165414,233.882,-568.723,0,0
165674,236.639,-570.09,0,0
165935,239.205,-571.887,0,0
166195,241.307,-574.006,0,0
166455,242.934,-576.189,0,0
166716,244.286,-578.172,0,0
166976,245.627,-580.063,0,0
167236,247.052,-582.179,0,0
167497,248.21,-584.77,0,0
167757,248.741,-587.537,0,0
168017,248.785,-590.126,0,0
168277,248.518,-592.563,0,0
168538,248.032,-594.894,0,0
168798,247.206,-597.218,0,0
169058,245.974,-599.257,0,0
169319,244.583,-601.073,0,0
169579,242.776,-602.744,0,0
169839,240.62,-603.98,0,0
170100,238.238,-604.612,0,0
170360.075,236.074,-604.606,0,0
170620.4,234.215,-604.436,0,0
170880.725,232.328,-604.103,0,0
171141.05,230.476,-603.366,0,0
171401.375,228.958,-602.256,0,0
171661.7,227.865,-601.081,0,0
171922.025,226.986,-599.988,0,0
172182.35,226.244,-598.855,0,0
172442.675,225.852,-597.702,0,0
172703.0,225.714,-596.96,0,0
172963.325,225.268,-596.597,0,0
173223.65,224.453,-596.102,0,0
173483.975,223.496,-595.345,0,0
173744.3,222.689,-594.15,0,0
174004.625,222.328,-592.903,0,0
174264.95,222.086,-591.913,0,0
174525.275,221.864,-590.983,0,0
174785.6,221.694,-590.184,0,0
175045.925,221.411,-589.317,0,0
175306.25,221.191,-588.463,0,0
175566.575,221.197,-587.613,0,0
175826.9,221.288,-587.209,0,0
176087.225,220.867,-586.928,0,0
176347.55,220.306,-586.402,0,0
176607.875,219.788,-585.773,0,0
176868.2,219.294,-585.114,0,0
177128.525,218.801,-584.445,0,0
177388.85,218.315,-583.736,0,0
177649.175,217.901,-583.038,0,0
177909.5,217.521,-582.502,0,0
178169.825,216.944,-582.135,0,0
178430.15,216.139,-581.71,0,0
178690.475,215.114,-581.135,0,0
178950.8,214.065,-580.293,0,0
179211.125,213.236,-579.308,0,0
179471.45,212.636,-578.511,0,0
179731.775,211.807,-578.133,0,0
179992.1,210.365,-577.607,0,0
180252.425,208.736,-576.645,0,0
180512.75,207.295,-575.349,0,0
180773.075,205.995,-574.025,0,0
181033.4,204.593,-572.696,0,0
181293.725,203.136,-571.088,0,0
181554.05,201.881,-569.384,0,0
181814.375,200.625,-567.783,0,0
182074.7,199.195,-566.191,0,0
182335.025,197.597,-564.277,0,0
182595.35,196.089,-562.036,0,0
182855.675,194.818,-559.596,0,0
183116.0,193.691,-557.16,0,0
183376.325,192.623,-554.755,0,0
183636.65,191.502,-552.295,0,0
183896.975,190.283,-549.641,0,0
184157.3,189.154,-546.656,0,0
184417.625,188.303,-543.499,0,0
184677.95,187.648,-540.254,0,0
184938.275,187.192,-536.893,0,0
185198.6,187.131,-533.571,0,0
185458.925,187.228,-530.466,0,0
185719.25,187.27,-527.531,0,0
185979.575,187.262,-524.526,0,0
186239.9,187.369,-521.444,0,0
186500,187.641,-518.353,0,0
186761,187.832,-515.439,0,0
187021,187.981,-512.318,0,0
187281,188.258,-508.904,0,0
187542,188.992,-505.526,0,0
187802,189.864,-502.514,0,0
188062,190.535,-499.579,0,0
188322,191.267,-496.626,0,0
188583,192.115,-493.607,0,0
188843,193.032,-490.691,0,0
189103,193.969,-487.926,0,0
189364,194.781,-485.19,0,0
189624,195.58,-482.338,0,0
189884,196.3,-479.398,0,0
190145,197.146,-476.456,0,0
190405,198.039,-473.445,0,0
190665,198.903,-470.426,0,0
190926,199.895,-467.18,0,0
191186,200.934,-464.059,0,0
191446,202.008,-460.945,0,0
191707,202.968,-457.644,0,0
191967,204.22,-454.084,0,0
192227,205.681,-450.608,0,0
192488,207.325,-447.178,0,0
192748,208.945,-443.802,0,0
193008,210.731,-440.442,0,0
193269,212.553,-437.138,0,0
193529,214.406,-433.893,0,0
193789,216.214,-430.604,0,0
194050,218.117,-427.21,0,0
194310,220.074,-423.809,0,0
194570,222.075,-420.279,0,0
194831,224.268,-416.67,0,0
195091,226.542,-412.94,0,0
195351,229.134,-409.192,0,0
195612,231.932,-405.481,0,0
195872,234.925,-401.911,0,0
196132,237.945,-398.414,0,0
196393,241.162,-394.967,0,0
196653,244.488,-391.699,0,0
196913,247.776,-388.5,0,0
197174,251.012,-385.105,0,0
197434,254.586,-381.674,0,0
197694,258.4,-378.388,0,0
197955,262.231,-375.393,0,0
198215,265.952,-372.409,0,0
198475,269.59,-369.289,0,0
198735,273.487,-366.072,0,0
198996,277.49,-362.939,0,0
199256,281.576,-359.73,0,0
199516,285.844,-356.425,0,0
199777,290.326,-353.038,0,0
200037,295.142,-349.721,0,0
200297,300.184,-346.379,0,0
200558,305.408,-343.307,0,0
200818,310.726,-340.207,0,0
201078,316.201,-337.207,0,0
201339,321.834,-334.046,0,0
201599,327.774,-330.725,0,0
201859,334.288,-327.291,0,0
202120,341.386,-324.135,0,0
202380.025,349.07,-321.267,0,0
202640.35,357.155,-318.974,0,0
202900.675,365.392,-317.157,0,0
203161.0,373.687,-315.727,0,0
203421.325,382.223,-314.351,0,0
203681.65,391.247,-313.161,0,0
203941.975,400.829,-312.497,0,0
204202.3,410.903,-312.496,0,0
204462.625,421.291,-313.398,0,0
204722.95,431.904,-315.164,0,0
204983.275,442.433,-318.054,0,0
205243.6,452.47,-321.889,0,0
205503.925,462.167,-326.384,0,0
205764.25,471.345,-331.401,0,0
206024.575,480.084,-337.106,0,0
206284.9,488.428,-343.115,0,0
206545.225,496.393,-349.783,0,0
206805.55,503.717,-357.098,0,0
207065.875,510.216,-364.85,0,0
207326.2,515.859,-372.712,0,0
207586.525,520.842,-380.558,0,0
207846.85,525.335,-388.435,0,0
208107.175,529.365,-396.361,0,0
208367.5,532.833,-404.405,0,0
208627.825,535.728,-412.528,0,0
208888.15,537.949,-420.626,0,0
209148.475,539.548,-428.512,0,0
209408.8,540.663,-436.31,0,0
209669.125,541.328,-444.112,0,0
209929.45,541.004,-451.813,0,0
210189.775,539.767,-459.08,0,0
210450.1,537.802,-465.431,0,0
210710.425,535.406,-470.777,0,0
210970.75,532.858,-475.252,0,0
211231.075,530.552,-479.003,0,0
211491.4,528.181,-482.237,0,0
211751.725,525.73,-484.716,0,0
212012.05,523.486,-486.049,0,0
212272.375,521.95,-486.587,0,0
212532.7,521.263,-486.621,0,0
212793.025,521.507,-486.29,0,0
213053.35,522.716,-486.058,0,0
213313.675,524.699,-486.107,0,0
213574.0,527.311,-486.571,0,0
213834.325,530.481,-487.673,0,0
214094.65,533.789,-489.447,0,0
214354.975,537.029,-491.741,0,0
214615.3,540.255,-494.613,0,0
214875.625,543.042,-497.869,0,0
215135.95,545.494,-501.139,0,0
215396.275,547.701,-504.427,0,0
215656.6,549.867,-507.763,0,0
215916.925,551.647,-510.947,0,0
216177.25,553.527,-513.826,0,0
216437.575,555.76,-516.63,0,0
216697.9,558.112,-519.621,0,0
216958.225,560.501,-522.737,0,0
217218.55,563.023,-525.96,0,0
217478.875,565.524,-529.432,0,0
217739.2,567.848,-533.099,0,0
217999.525,569.933,-536.642,0,0
218259.85,571.999,-539.844,0,0
218520,574.431,-542.9,0,0
218780,577.383,-545.978,0,0
219041,580.623,-549.404,0,0
219301,583.988,-553.263,0,0
219561,587.276,-557.28,0,0
219822,590.802,-561.379,0,0
220082,594.755,-565.807,0,0
220342,599.001,-570.852,0,0
220603,603.067,-576.52,0,0
220863,606.993,-582.601,0,0
221123,610.913,-589.014,0,0
221384,614.883,-595.988,0,0
221644,618.794,-603.665,0,0
221904,622.422,-612.347,0,0
222165,625.311,-621.628,0,0
222425,627.076,-631.414,0,0
222685,628.406,-641.114,0,0
222946,628.934,-650.931,0,0
223206,628.857,-660.757,0,0
223466,628.494,-670.495,0,0
223727,627.717,-680.208,0,0
223987,626.527,-689.982,0,0
224247,625.052,-699.926,0,0
224508,622.865,-710.095,0,0
224768,619.889,-720.214,0,0
225028,616.28,-730.196,0,0
225289,611.989,-739.785,0,0
225549,607.333,-748.569,0,0
225809,602.676,-756.987,0,0
226070,598.207,-765.641,0,0
226330,593.298,-774.386,0,0
226590,587.762,-783.187,0,0
226851,581.76,-791.867,0,0
227111,575.15,-800.357,0,0
227371,567.985,-808.598,0,0
227632,560.149,-816.393,0,0
227892,551.759,-823.63,0,0
228152,542.927,-830.217,0,0
228413,533.798,-836.152,0,0
228673,524.539,-841.358,0,0
228933,515.208,-845.865,0,0
229193,505.859,-849.896,0,0
229454,496.546,-853.497,0,0
229714,486.876,-856.378,0,0
229974,477.726,-858.889,0,0
230235,468.458,-860.526,0,0
230495,459.389,-861.87,0,0
230755,450.607,-862.647,0,0
231016,442.133,-863.103,0,0
231276,434.014,-863.196,0,0
231536,426.012,-863.004,0,0
231797,418.314,-862.557,0,0
232057,410.871,-861.611,0,0
232317,403.783,-860.512,0,0
232578,397.211,-859.176,0,0
232838,391.01,-857.769,0,0
233098,385.207,-856.442,0,0
233359,379.65,-855.145,0,0
233619,374.29,-854.004,0,0
233879,369.069,-852.867,0,0
234140,363.998,-851.698,0,0
234400,359.216,-850.667,0,0
234660.3,354.426,-849.807,0,0
234920.625,349.828,-849.144,0,0
235180.95,344.872,-848.516,0,0
235441.275,339.677,-847.697,0,0
235701.6,334.67,-846.544,0,0
235961.925,329.847,-845.363,0,0
236222.25,325.172,-844.352,0,0
236482.575,320.462,-843.294,0,0
236742.9,315.844,-842.102,0,0
237003.225,311.234,-841.065,0,0
237263.55,306.525,-839.95,0,0
237523.875,301.704,-838.819,0,0
237784.2,296.821,-837.383,0,0
238044.525,292.01,-835.804,0,0
238304.85,287.293,-833.969,0,0
238565.175,282.576,-832.056,0,0
238825.5,277.991,-829.863,0,0
239085.825,273.764,-827.628,0,0
239346.15,269.621,-825.389,0,0
239606.475,265.753,-823.07,0,0
239866.8,261.856,-820.789,0,0
240127.125,258.05,-818.391,0,0
240387.45,254.452,-815.898,0,0
240647.775,251.025,-813.559,0,0
240908.1,247.666,-811.067,0,0
241168.425,244.439,-808.829,0,0
241428.75,241.18,-806.503,0,0
241689.075,238.032,-804.093,0,0
241949.4,234.848,-801.722,0,0
242209.725,231.808,-799.249,0,0
242470.05,228.857,-796.801,0,0
242730.375,226.013,-794.28,0,0
242990.7,223.35,-791.746,0,0
243251.025,220.77,-789.247,0,0
243511.35,218.363,-786.856,0,0
243771.675,215.982,-784.453,0,0
244032.0,213.704,-782.19,0,0
244292.325,211.387,-780.028,0,0
244552.65,209.212,-777.871,0,0
244812.975,206.843,-775.899,0,0
245073.3,204.514,-773.754,0,0
245333.625,202.045,-771.741,0,0
245593.95,199.63,-769.609,0,0
245854.275,197.327,-767.366,0,0
246114.6,194.92,-765.27,0,0
246374.925,192.469,-763.039,0,0
246635.25,190.078,-760.631,0,0
246895.575,187.831,-758.24,0,0
247155.9,185.602,-755.705,0,0
247416.225,183.439,-753.202,0,0
247676.55,181.378,-750.673,0,0
247936.875,179.389,-748.121,0,0
248197.2,177.511,-745.507,0,0
248457.525,175.65,-742.978,0,0
248717.85,173.888,-740.385,0,0
248978.175,172.178,-737.742,0,0
249238.5,170.596,-735.251,0,0
249498.825,169.098,-732.677,0,0
249759.15,167.585,-730.139,0,0
250019.475,166.182,-727.638,0,0
250279.8,164.838,-725.23,0,0
250540,163.433,-722.733,0,0
250800,162.053,-720.277,0,0
251061,160.774,-717.759,0,0
251321,159.509,-715.29,0,0
251581,158.349,-712.872,0,0
251842,157.192,-710.449,0,0
252102,156.045,-708.087,0,0
252362,154.896,-705.698,0,0
252623,153.783,-703.293,0,0
252883,152.639,-700.877,0,0
253143,151.53,-698.424,0,0
253404,150.447,-695.864,0,0
253664,149.525,-693.282,0,0
253924,148.612,-690.637,0,0
254185,147.819,-688.004,0,0
254445,147.158,-685.376,0,0
254705,146.516,-682.77,0,0
254966,146.021,-680.253,0,0
255226,145.699,-677.83,0,0
255486,145.323,-675.436,0,0
255747,144.93,-673.065,0,0
256007,144.582,-670.837,0,0
256267,144.207,-668.56,0,0
256528,143.857,-666.203,0,0
256788,143.571,-663.903,0,0
257048,143.324,-661.619,0,0
257309,143.081,-659.361,0,0
257569,142.856,-657.08,0,0
257829,142.661,-654.793,0,0
258090,142.484,-652.481,0,0
258350,142.408,-650.109,0,0
258610,142.391,-647.715,0,0
258871,142.501,-645.298,0,0
259131,142.711,-642.852,0,0
259391,143.035,-640.478,0,0
259651,143.506,-638.057,0,0
259912,144.123,-635.803,0,0
260172,144.875,-633.576,0,0
260432,145.662,-631.507,0,0
260693,146.594,-629.533,0,0
260953,147.521,-627.675,0,0
261213,148.523,-625.942,0,0
261474,149.53,-624.354,0,0
261734,150.551,-622.873,0,0
261994,151.55,-621.468,0,0
262255,152.568,-620.119,0,0
262515,153.581,-618.842,0,0
262775,154.639,-617.599,0,0
263036,155.7,-616.527,0,0
263296,156.753,-615.501,0,0
263556,157.837,-614.582,0,0
263817,158.856,-613.699,0,0
264077,159.896,-612.846,0,0
264337,161.001,-612.074,0,0
264598,162.205,-611.358,0,0
264858,163.432,-610.842,0,0
265118,164.695,-610.358,0,0
265379,165.988,-610.032,0,0
265639,167.323,-609.942,0,0
265899,168.649,-610.073,0,0
266160,169.881,-610.397,0,0
266420,171.042,-610.972,0,0
266680.25,172.088,-611.693,0,0
266940.575,172.985,-612.691,0,0
267200.9,173.646,-613.88,0,0
267461.225,173.992,-615.277,0,0
267721.55,174.021,-616.714,0,0
267981.875,173.772,-618.166,0,0
268242.2,173.211,-619.689,0,0
268502.525,172.301,-621.144,0,0
268762.85,171.054,-622.487,0,0
269023.175,169.541,-623.661,0,0
269283.5,167.69,-624.603,0,0
269543.825,165.638,-625.188,0,0
269804.15,163.502,-625.516,0,0
270064.475,161.232,-625.478,0,0
270324.8,159.016,-625.203,0,0
270585.125,156.785,-624.584,0,0
270845.45,154.701,-623.737,0,0
271105.775,152.737,-622.69,0,0
271366.1,150.877,-621.478,0,0
271626.425,149.163,-620.105,0,0
271886.75,147.546,-618.605,0,0
272147.075,146.096,-616.974,0,0
272407.4,144.773,-615.232,0,0
272667.725,143.655,-613.436,0,0
272928.05,142.695,-611.632,0,0
273188.375,141.88,-609.813,0,0
273448.7,141.216,-608,0,0
273709.025,140.651,-606.199,0,0
273969.35,140.193,-604.414,0,0
274229.675,139.891,-602.689,0,0
274490.0,139.653,-600.988,0,0
274750.325,139.482,-599.383,0,0
275010.65,139.381,-597.844,0,0
275270.975,139.309,-596.302,0,0
275531.3,139.28,-594.823,0,0
275791.625,139.279,-593.288,0,0
276051.95,139.417,-591.806,0,0
276312.275,139.618,-590.318,0,0
276572.6,139.943,-588.953,0,0
276832.925,140.307,-587.653,0,0
277093.25,140.729,-586.452,0,0
277353.575,141.226,-585.334,0,0
277613.9,141.776,-584.32,0,0
277874.225,142.317,-583.439,0,0
278134.55,142.879,-582.687,0,0
278394.875,143.395,-582.045,0,0
278655.2,143.875,-581.512,0,0
278915.525,144.307,-581.089,0,0
279175.85,144.595,-580.705,0,0
279436.175,144.882,-580.412,0,0
279696.5,145.032,-580.07,0,0
279956.825,145.152,-579.853,0,0
280217.15,145.191,-579.581,0,0
280477.475,145.12,-579.357,0,0
280737.8,145.057,-579.124,0,0
280998.125,144.931,-578.884,0,0
281258.45,144.795,-578.643,0,0
281518.775,144.576,-578.495,0,0
281779.1,144.22,-578.366,0,0
282039.425,143.749,-578.183,0,0
282299.75,143.185,-577.921,0,0
282560,142.555,-577.584,0,0
282820,141.846,-577.13,0,0
283081,141.158,-576.537,0,0
283341,140.512,-575.81,0,0
283601,139.967,-575.048,0,0
283862,139.476,-574.278,0,0
284122,139.052,-573.526,0,0
284382,138.639,-572.832,0,0
284643,138.203,-572.118,0,0
284903,137.71,-571.456,0,0
285163,137.315,-570.755,0,0
285424,136.801,-570.099,0,0
285684,136.218,-569.452,0,0
285944,135.611,-568.734,0,0
286205,134.915,-567.977,0,0
286465,134.205,-567.156,0,0
286725,133.399,-566.237,0,0
286986,132.551,-565.156,0,0
287246,131.706,-563.927,0,0
287506,130.93,-562.494,0,0
287767,130.252,-560.911,0,0
288027,129.742,-559.164,0,0
288287,129.472,-557.339,0,0
288548,129.439,-555.462,0,0
288808,129.679,-553.641,0,0
289068,130.113,-551.91,0,0
289329,130.736,-550.338,0,0
289589,131.515,-549.032,0,0
289849,132.305,-547.901,0,0
290109,133.107,-547.04,0,0
290370,133.753,-546.362,0,0
290630,134.19,-545.818,0,0
290890,134.6,-545.19,0,0
291151,134.929,-544.577,0,0
291411,135.201,-544.008,0,0
291671,135.46,-543.44,0,0
291932,135.677,-542.943,0,0
292192,135.782,-542.453,0,0
292452,135.81,-541.945,0,0
292713,135.735,-541.403,0,0
292973,135.609,-540.776,0,0
293233,135.41,-540.078,0,0
293494,135.179,-539.27,0,0
293754,134.99,-538.331,0,0
294014,134.817,-537.308,0,0
294275,134.7,-536.221,0,0
294535,134.633,-535.052,0,0
294795,134.631,-533.81,0,0
295056,134.727,-532.467,0,0
295316,134.952,-531.126,0,0
295576,135.292,-529.731,0,0
295837,135.731,-528.328,0,0
296097,136.342,-526.944,0,0
296357,137.062,-525.656,0,0
296618,137.865,-524.447,0,0
296878,138.738,-523.315,0,0
297138,139.652,-522.299,0,0
297399,140.579,-521.358,0,0
297659,141.521,-520.411,0,0
297919,142.469,-519.524,0,0
298180,143.484,-518.656,0,0
298440,144.533,-517.805,0,0
298700.2,145.698,-516.965,0,0
298960.525,146.899,-516.348,0,0
299220.85,148.088,-515.755,0,0
299481.175,149.342,-515.211,0,0
299741.5,150.597,-514.762,0,0
300001.825,151.855,-514.384,0,0
300262.15,153.048,-514.149,0,0
300522.475,154.306,-513.91,0,0
300782.8,155.555,-513.618,0,0
301043.125,156.831,-513.413,0,0
301303.45,158.327,-513.392,0,0
301563.775,159.549,-513.372,0,0
301824.1,160.985,-513.553,0,0
302084.425,162.338,-513.798,0,0
302344.75,163.664,-514.14,0,0
302605.075,164.956,-514.606,0,0
302865.4,166.201,-515.227,0,0
303125.725,167.311,-515.929,0,0
303386.05,168.362,-516.615,0,0
303646.375,169.237,-517.358,0,0
303906.7,170.113,-518.11,0,0
304167.025,170.977,-518.881,0,0
304427.35,171.738,-519.522,0,0
304687.675,172.558,-520.39,0,0
304948.0,173.35,-521.214,0,0
305208.325,174.005,-522.066,0,0
305468.65,174.707,-522.836,0,0
305728.975,175.466,-523.786,0,0
305989.3,176.172,-524.759,0,0
306249.625,176.911,-525.863,0,0
306509.95,177.641,-527.16,0,0
306770.275,178.107,-528.402,0,0
307030.6,178.59,-529.905,0,0
307290.925,178.882,-531.405,0,0
307551.25,178.926,-532.894,0,0
307811.575,178.905,-534.302,0,0
308071.9,178.818,-535.748,0,0
308332.225,178.598,-537.006,0,0
308592.55,178.39,-538.289,0,0
308852.875,178.077,-539.586,0,0
309113.2,177.791,-540.897,0,0
309373.525,177.399,-542.101,0,0
309633.85,176.987,-543.261,0,0
309894.175,176.61,-544.475,0,0
310154.5,176.187,-545.615,0,0
310414.825,175.827,-546.971,0,0
310675.15,175.316,-548.272,0,0
310935.475,174.788,-549.605,0,0
311195.8,174.052,-551.099,0,0
311456.125,173.255,-552.566,0,0
311716.45,172.274,-554.099,0,0
311976.775,171.057,-555.448,0,0
312237.1,169.691,-556.822,0,0
312497.425,168.308,-557.934,0,0
312757.75,166.849,-558.956,0,0
313018.075,165.23,-559.856,0,0
313278.4,163.726,-560.682,0,0
313538.725,162.173,-561.281,0,0
313799.05,160.597,-561.963,0,0
314059.375,159.04,-562.402,0,0
314319.7,157.548,-562.779,0,0
314580,156.092,-563.18,0,0
314840,154.777,-563.585,0,0
315101,153.324,-563.794,0,0
315361,151.844,-564.264,0,0
315621,150.356,-564.577,0,0
315882,148.92,-564.799,0,0
316142,147.422,-565.002,0,0
316402,145.914,-565.291,0,0
316663,144.273,-565.327,0,0
316923,142.73,-565.52,0,0
317183,141.121,-565.543,0,0
317444,139.559,-565.506,0,0
317704,137.903,-565.51,0,0
317964,136.26,-565.341,0,0
318225,134.639,-565.117,0,0
318485,133.008,-564.934,0,0
318745,131.355,-564.601,0,0
319006,129.698,-564.234,0,0
319266,128.238,-563.826,0,0
319526,126.633,-563.326,0,0
319787,125.133,-562.773,0,0
320047,123.604,-562.211,0,0
320307,122.074,-561.546,0,0
320567,120.62,-560.909,0,0
320828,119.085,-560.183,0,0
321088,117.64,-559.458,0,0
321348,116.209,-558.49,0,0
321609,114.823,-557.674,0,0
321869,113.4,-556.711,0,0
322129,112.186,-555.621,0,0
322390,110.882,-554.467,0,0
322650,109.839,-553.308,0,0
322910,108.801,-552.098,0,0
323171,107.834,-550.896,0,0
323431,106.893,-549.673,0,0
323691,106.129,-548.372,0,0
323952,105.489,-547.204,0,0
324212,104.872,-545.946,0,0
324472,104.332,-544.841,0,0
324733,103.88,-543.731,0,0
324993,103.366,-542.686,0,0
325253,103.048,-541.639,0,0
325514,102.689,-540.648,0,0
325774,102.402,-539.683,0,0
326034,102.183,-538.751,0,0
326295,101.951,-537.949,0,0
326555,101.677,-537.163,0,0
326815,101.491,-536.384,0,0
327076,101.288,-535.721,0,0
327336,101.136,-535.157,0,0
327596,100.914,-534.587,0,0
327857,100.71,-534.052,0,0
328117,100.448,-533.535,0,0
328377,100.146,-533.118,0,0
328638,99.8387,-532.684,0,0
328898,99.5744,-532.342,0,0
329158,99.2204,-531.9,0,0
329419,98.7611,-531.522,0,0
329679,98.4297,-531.231,0,0
329939,97.9083,-530.837,0,0
330200,97.4499,-530.497,0,0
330460,96.9823,-530.147,0,0
330720.15,96.4544,-529.726,0,0
330980.475,95.9973,-529.426,0,0
331240.8,95.3928,-529.047,0,0
331501.125,94.9107,-528.727,0,0
331761.45,94.3018,-528.444,0,0
332021.775,93.7496,-528.035,0,0
332282.1,93.0898,-527.674,0,0
332542.425,92.458,-527.341,0,0
332802.75,91.8288,-527.004,0,0
333063.075,91.1266,-526.553,0,0
333323.4,90.3879,-526.283,0,0
333583.725,89.6066,-525.845,0,0
333844.05,88.767,-525.434,0,0
334104.375,87.9855,-524.887,0,0
334364.7,87.126,-524.435,0,0
334625.025,86.3042,-523.787,0,0
334885.35,85.4457,-523.208,0,0
335145.675,84.6568,-522.447,0,0
335406.0,83.933,-521.764,0,0
335666.325,83.1526,-521.068,0,0
335926.65,82.4614,-520.364,0,0
336186.975,81.8077,-519.599,0,0
336447.3,81.0536,-518.858,0,0
336707.625,80.3917,-518.111,0,0
336967.95,79.7612,-517.384,0,0
337228.275,79.1038,-516.64,0,0
337488.6,78.4387,-515.829,0,0
337748.925,77.7697,-515.026,0,0
338009.25,77.1739,-514.196,0,0
338269.575,76.5868,-513.384,0,0
338529.9,75.9461,-512.615,0,0
338790.225,75.3909,-511.816,0,0
339050.55,74.859,-510.999,0,0
339310.875,74.3125,-510.116,0,0
339571.2,73.7977,-509.302,0,0
339831.525,73.2182,-508.443,0,0
340091.85,72.7833,-507.562,0,0
340352.175,72.3293,-506.731,0,0
340612.5,71.8727,-505.876,0,0
340872.825,71.4218,-505.054,0,0
341133.15,71.0024,-504.251,0,0
341393.475,70.5889,-503.454,0,0
341653.8,70.1028,-502.725,0,0
341914.125,69.7382,-501.887,0,0
342174.45,69.2389,-501.102,0,0
342434.775,68.8522,-500.348,0,0
342695.1,68.3411,-499.522,0,0
342955.425,67.9064,-498.723,0,0
343215.75,67.548,-497.938,0,0
343476.075,67.1344,-497.088,0,0
343736.4,66.641,-496.328,0,0
343996.725,66.2829,-495.507,0,0
344257.05,65.8512,-494.676,0,0
344517.375,65.4435,-493.845,0,0
344777.7,65.0179,-493.061,0,0
345038.025,64.6287,-492.178,0,0
345298.35,64.2582,-491.369,0,0
345558.675,63.7607,-490.558,0,0
345819.0,63.3669,-489.669,0,0
346079.325,62.9717,-488.845,0,0
346339.65,62.5408,-487.969,0,0
346599.975,62.1403,-487.042,0,0
346860,61.7473,-486.144,0,0
347121,61.3411,-485.197,0,0
347381,61.0378,-484.275,0,0
347641,60.7189,-483.282,0,0
347902,60.4364,-482.339,0,0
348162,60.1424,-481.279,0,0
348422,59.9006,-480.388,0,0
348683,59.6798,-479.434,0,0
348943,59.5486,-478.485,0,0
349203,59.281,-477.577,0,0
349464,59.1273,-476.681,0,0
349724,58.8814,-475.788,0,0
349984,58.758,-474.917,0,0
350245,58.5872,-473.968,0,0
350505,58.4045,-473.039,0,0
350765,58.2072,-472.158,0,0
351025,58.174,-471.207,0,0
351286,57.9644,-470.335,0,0
351546,57.8942,-469.44,0,0
351806,57.8404,-468.542,0,0
352067,57.7575,-467.679,0,0
352327,57.7138,-466.834,0,0
352587,57.7105,-466.04,0,0
352848,57.6174,-465.19,0,0
353108,57.529,-464.378,0,0
353368,57.4382,-463.553,0,0
353629,57.3996,-462.722,0,0
353889,57.3037,-461.969,0,0
354149,57.218,-461.143,0,0
354410,57.1627,-460.317,0,0
354670,57.1202,-459.508,0,0
354930,57.0767,-458.654,0,0
355191,57.0378,-457.876,0,0
355451,57.0145,-457.1,0,0
355711,56.9873,-456.281,0,0
355972,56.9515,-455.493,0,0
356232,56.9923,-454.693,0,0
356492,56.9968,-453.981,0,0
356753,56.9518,-453.216,0,0
357013,56.9392,-452.417,0,0
357273,56.8861,-451.678,0,0
357534,56.8894,-450.911,0,0
357794,56.8278,-450.145,0,0
358054,56.8902,-449.37,0,0
358315,56.8482,-448.593,0,0
358575,56.8309,-447.79,0,0
358835,56.8485,-447.018,0,0
359096,56.8637,-446.234,0,0
359356,56.9323,-445.442,0,0
359616,56.9692,-444.704,0,0
359877,57.0682,-443.929,0,0
360137,57.1392,-443.241,0,0
360397,57.1765,-442.431,0,0
360658,57.2766,-441.689,0,0
360918,57.3468,-441.057,0,0
361178,57.3902,-440.297,0,0
361438,57.4307,-439.571,0,0
361699,57.5252,-438.897,0,0
361959,57.556,-438.196,0,0
362219,57.6262,-437.476,0,0
362480,57.6799,-436.787,0,0
362740.1,57.8166,-436.057,0,0
363000.425,57.8213,-435.331,0,0
363260.75,57.9105,-434.656,0,0
363521.075,58.0691,-433.95,0,0
363781.4,58.0817,-433.22,0,0
364041.725,58.1975,-432.505,0,0
364302.05,58.2781,-431.755,0,0
364562.375,58.3928,-431.033,0,0
364822.7,58.5398,-430.322,0,0
365083.025,58.6835,-429.63,0,0
365343.35,58.8365,-428.954,0,0
365603.675,58.9562,-428.299,0,0
365864.0,59.126,-427.678,0,0
366124.325,59.2427,-427.005,0,0
366384.65,59.359,-426.402,0,0
366644.975,59.4407,-425.807,0,0
366905.3,59.4835,-425.151,0,0
367165.625,59.5047,-424.524,0,0
367425.95,59.5251,-423.767,0,0
367686.275,59.5329,-423.013,0,0
367946.6,59.5806,-422.216,0,0
368206.925,59.6499,-421.351,0,0
368467.25,59.7653,-420.487,0,0
368727.575,59.8987,-419.617,0,0
368987.9,60.1006,-418.708,0,0
369248.225,60.3949,-417.829,0,0
369508.55,60.6734,-416.899,0,0
369768.875,61.0332,-416.065,0,0
370029.2,61.4057,-415.129,0,0
370289.525,61.8243,-414.322,0,0
370549.85,62.3179,-413.446,0,0
370810.175,62.7716,-412.585,0,0
371070.5,63.3681,-411.783,0,0
371330.825,63.9911,-411.043,0,0
371591.15,64.6511,-410.312,0,0
371851.475,65.3232,-409.584,0,0
372111.8,66.0432,-409.006,0,0
372372.125,66.8046,-408.486,0,0
372632.45,67.5452,-408.06,0,0
372892.775,68.283,-407.654,0,0
373153.1,68.9837,-407.359,0,0
373413.425,69.7088,-407.029,0,0
373673.75,70.3431,-406.805,0,0
373934.075,70.9694,-406.597,0,0
374194.4,71.5608,-406.457,0,0
374454.725,72.1614,-406.265,0,0
374715.05,72.6524,-406.145,0,0
374975.375,73.158,-406.022,0,0
375235.7,73.6249,-405.925,0,0
375496.025,74.0196,-405.84,0,0
375756.35,74.436,-405.7,0,0
376016.675,74.8577,-405.594,0,0
376277.0,75.2614,-405.476,0,0
376537.325,75.6746,-405.315,0,0
376797.65,76.1061,-405.22,0,0
377057.975,76.5471,-405.139,0,0
377318.3,76.9522,-405.071,0,0
377578.625,77.3989,-405.049,0,0
377838.95,77.7579,-405.019,0,0
378099.275,78.1353,-405.045,0,0
378359.6,78.4814,-405.081,0,0
378619.925,78.8035,-405.167,0,0
378880,79.118,-405.192,0,0
379141,79.3417,-405.302,0,0
379401,79.5373,-405.309,0,0
379661,79.7878,-405.356,0,0
379922,79.948,-405.343,0,0
380182,80.2363,-405.274,0,0
380442,80.5228,-405.23,0,0
380703,80.8574,-405.252,0,0
380963,81.265,-405.321,0,0
381223,81.6454,-405.441,0,0
381483,82.003,-405.658,0,0
381744,82.3597,-405.994,0,0
382004,82.6418,-406.334,0,0
382264,82.8649,-406.775,0,0
382525,82.9394,-407.204,0,0
382785,82.9377,-407.623,0,0
383045,82.975,-408.047,0,0
383306,82.9173,-408.47,0,0
383566,82.7266,-408.93,0,0
383826,82.5776,-409.308,0,0
384087,82.3472,-409.748,0,0
384347,82.0069,-410.135,0,0
384607,81.6282,-410.544,0,0
384868,81.1953,-410.828,0,0
385128,80.6863,-411.104,0,0
385388,80.1849,-411.338,0,0
385649,79.6381,-411.52,0,0
385909,79.0799,-411.626,0,0
386169,78.4493,-411.671,0,0
386430,77.8545,-411.702,0,0
386690,77.2013,-411.648,0,0
386950,76.5573,-411.513,0,0
387211,75.9954,-411.35,0,0
387471,75.421,-411.188,0,0
387731,74.8438,-410.897,0,0
387992,74.3198,-410.67,0,0
388252,73.7714,-410.361,0,0
388512,73.2687,-410.04,0,0
388773,72.7851,-409.688,0,0
389033,72.3074,-409.322,0,0
389293,71.8316,-408.903,0,0
389554,71.4658,-408.483,0,0
389814,71.0358,-408.065,0,0
390074,70.7316,-407.634,0,0
390335,70.4048,-407.219,0,0
390595,70.1741,-406.755,0,0
390855,69.9294,-406.375,0,0
391116,69.697,-406.023,0,0
391376,69.4756,-405.691,0,0
391636,69.2711,-405.396,0,0
391896,69.0181,-405.158,0,0
392157,68.7563,-404.868,0,0
392417,68.4293,-404.66,0,0
392677,68.0828,-404.462,0,0
392938,67.6319,-404.236,0,0
393198,67.228,-403.966,0,0
393458,66.7888,-403.667,0,0
393719,66.3095,-403.315,0,0
393979,65.8187,-402.958,0,0
394239,65.3416,-402.581,0,0
394500,64.8559,-402.143,0,0
394760.05,64.4012,-401.632,0,0
395020.375,63.8898,-401.166,0,0
395280.7,63.4456,-400.666,0,0
395541.025,62.9653,-400.111,0,0
395801.35,62.5431,-399.504,0,0
396061.675,62.0279,-398.912,0,0
396322.0,61.6724,-398.283,0,0
396582.325,61.2707,-397.65,0,0
396842.65,60.9013,-396.939,0,0
397102.975,60.5924,-396.221,0,0
397363.3,60.2781,-395.515,0,0
397623.625,60.0058,-394.83,0,0
397883.95,59.7549,-394.12,0,0
398144.275,59.5307,-393.396,0,0
398404.6,59.2871,-392.677,0,0
398664.925,59.1186,-391.969,0,0
398925.25,58.9117,-391.284,0,0
399185.575,58.7422,-390.558,0,0
399445.9,58.6166,-389.824,0,0
399706.225,58.5002,-389.156,0,0
399966.55,58.375,-388.435,0,0
400006.6,58.338,-388.334,0,0