File: Accelerated corrosion test data/2025-10-18_18-00-03/sample_4.csv
Frequency (Hz),Impedance (ohms),Phase (Radians),Temperature (C),Humidity (%)
10000.0,262.628,-11910.7,0,0
10260.325,258.981,-11613.2,0,0
10520.65,249.811,-11326.7,0,0
10780.975,244.214,-11054.9,0,0
11041.3,239.609,-10795.7,0,0
11301.625,233.674,-10552.1,0,0
11561.95,228.651,-10315.5,0,0
11822.275,224.045,-10089.8,0,0
12082.6,219.342,-9874.01,0,0
12342.925,215.038,-9666.31,0,0
12603.25,212.787,-9466.49,0,0
12863.575,207.699,-9279.23,0,0
13123.9,205.24,-9100.57,0,0
13384.225,198.847,-8920.03,0,0
13644.55,195.285,-8748.35,0,0
13904.875,193.368,-8582.02,0,0
14165.2,195.852,-8417.49,0,0
14425.525,199.986,-8266.34,0,0
14685.8,193.778,-8156.28,0,0
14946.175,181.424,-8000.33,0,0
15206.5,180.278,-7855.24,0,0
15466.825,197.024,-7709.68,0,0
15727.15,188.112,-7611.2,0,0
15987.5,183.047,-7496.23,0,0
16247.8,170.73,-7365.66,0,0
16508.125,195.395,-7245.58,0,0
16768.45,181.784,-7139.93,0,0
17028.775,167.211,-7048.63,0,0
17289.1,159.651,-6934.84,0,0
17549.425,158.312,-6831.09,0,0
17809.75,154.986,-6730.85,0,0
18070.075,151.893,-6631.29,0,0
18330.4,154.511,-6536.3,0,0
18590.725,151.521,-6447.23,0,0
18851.05,149.123,-6361.22,0,0
19111.375,145.256,-6272.32,0,0
19371.7,142.401,-6186.47,0,0
19632.025,141.751,-6102.15,0,0
19892.35,144.251,-6022.15,0,0
20152.675,143.37,-5945.18,0,0
20413.0,140.186,-5870.38,0,0
20673.3,141.062,-5795.07,0,0
20933.65,137.557,-5721.96,0,0
21193.975,140.441,-5646.63,0,0
21454.3,153.263,-5582.91,0,0
21714.625,145.249,-5523.74,0,0
21974.9,152.175,-5457.05,0,0
22235.275,148.623,-5406.73,0,0
22495.6,134.601,-5350.69,0,0
22755.925,126.84,-5284.93,0,0
23016.25,124.858,-5223.26,0,0
23276.6,122.545,-5163.11,0,0
23536.9,120.729,-5105.68,0,0
23797.225,118.654,-5048.55,0,0
24057.55,116.938,-4992.51,0,0
24317.875,115.873,-4938.15,0,0
24578.2,114.496,-4884.9,0,0
24838.525,114.406,-4832.19,0,0
25098.85,114.877,-4781.63,0,0
25359.175,112.816,-4733.8,0,0
25619.5,111.747,-4684.21,0,0
25879.8,110.624,-4639.53,0,0
26140.1,107.772,-4591.11,0,0
26400.5,107.258,-4544.08,0,0
26660.8,107.122,-4497.42,0,0
26921.1,106.045,-4454.29,0,0
27181.4,105.351,-4408.58,0,0
27441.8,106.236,-4363.37,0,0
27702.1,110.421,-4319.1,0,0
27962.4,117.409,-4279.35,0,0
28222.7,119.996,-4251.67,0,0
28483.1,111.949,-4217.08,0,0
28743.4,110.063,-4174.67,0,0
29003.7,111.76,-4133.36,0,0
29264,117.349,-4099.81,0,0
29524.4,113.706,-4072.39,0,0
29784.7,108.477,-4038.62,0,0
30045,106.573,-4003.2,0,0
30305.3,101.204,-3968.31,0,0
30565.7,100.122,-3932.15,0,0
30826,98.5917,-3898.28,0,0
31086.3,98.1082,-3863.83,0,0
31346.6,99.4775,-3830.89,0,0
31607,98.2845,-3799.71,0,0
31867.3,96.9746,-3767.7,0,0
32127.6,100.409,-3737.41,0,0
32387.9,97.7162,-3711.35,0,0
32648.3,97.0774,-3681.68,0,0
32908.6,93.9494,-3654.38,0,0
33168.9,91.8091,-3624.34,0,0
33429.2,89.8996,-3595.44,0,0
33689.6,88.7529,-3566.73,0,0
33949.9,87.4871,-3538.07,0,0
34210.2,87.6908,-3510.85,0,0
34470.5,85.8961,-3484.57,0,0
34730.9,85.0306,-3456.89,0,0
34991.2,84.7036,-3430.51,0,0
35251.5,84.1311,-3404.39,0,0
35511.8,83.2402,-3378.88,0,0
35772.2,82.6168,-3354.05,0,0
36032.5,81.6648,-3329.13,0,0
36292.8,80.8197,-3304.16,0,0
36553.1,80.6836,-3279.68,0,0
36813.5,80.5253,-3255.39,0,0
37073.8,80.7448,-3232.91,0,0
37334.1,79.2642,-3210.11,0,0
37594.4,79.0457,-3186.87,0,0
37854.8,78.9613,-3164.25,0,0
38115.1,77.9517,-3142.45,0,0
38375.4,77.1994,-3119.77,0,0
38635.7,77.252,-3097.56,0,0
38896.1,77.4849,-3076.35,0,0
39156.4,76.9064,-3055.22,0,0
39416.7,76.5621,-3033.83,0,0
39677,76.5532,-3012.66,0,0
39937.4,77.2443,-2991.78,0,0
40197.7,79.2464,-2971.32,0,0
40458,80.83,-2954.33,0,0
40718.3,77.8844,-2935.27,0,0
40978.7,79.0982,-2914.74,0,0
41239,80.3787,-2896.66,0,0
41499.3,81.6878,-2880.69,0,0
41759.6,79.0888,-2863.81,0,0
42020,77.7209,-2845.45,0,0
42280.275,77.0466,-2825.78,0,0
42540.6,78.9929,-2809.3,0,0
42800.925,76.9971,-2794.17,0,0
43061.25,76.0304,-2775.47,0,0
43321.575,75.9476,-2759.53,0,0
43581.9,73.9894,-2742.66,0,0
43842.225,73.5419,-2724.93,0,0
44102.55,73.3183,-2709.13,0,0
44362.875,72.4509,-2692.01,0,0
44623.2,72.4051,-2675.42,0,0
44883.525,71.7903,-2659.55,0,0
45143.85,71.1326,-2643.46,0,0
45404.175,70.9591,-2627.09,0,0
45664.5,71.5987,-2610.85,0,0
45924.825,72.165,-2596.09,0,0
46185.15,71.3147,-2582.28,0,0
46445.475,70.8326,-2565.85,0,0
46705.8,71.4623,-2551.39,0,0
46966.125,71.6966,-2536.88,0,0
47226.45,72.2547,-2523.47,0,0
47486.775,71.0346,-2510.73,0,0
47747.1,69.656,-2496.31,0,0
48007.425,69.0699,-2482.1,0,0
48267.75,68.681,-2467.85,0,0
48528.075,67.9038,-2454.62,0,0
48788.4,66.8719,-2441.05,0,0
49048.725,65.9956,-2426.57,0,0
49309.05,66.3038,-2412.93,0,0
49569.375,65.2916,-2399.68,0,0
49829.7,64.9524,-2385.72,0,0
50090.025,64.8714,-2372.54,0,0
50350.35,64.5132,-2359.25,0,0
50610.675,64.3233,-2345.99,0,0
50871.0,64.1007,-2333.01,0,0
51131.325,63.9645,-2319.99,0,0
51391.65,63.8449,-2307.08,0,0
51651.975,64.0886,-2294.47,0,0
51912.3,63.703,-2281.67,0,0
52172.625,64.0933,-2268.95,0,0
52432.95,64.1048,-2256.6,0,0
52693.275,64.5793,-2243.78,0,0
52953.6,65.8296,-2231.16,0,0
53213.925,66.7328,-2219.56,0,0
53474.25,67.4449,-2207.7,0,0
53734.575,68.8118,-2195.43,0,0
53994.9,71.5672,-2184.28,0,0
54255.225,73.7454,-2174.34,0,0
54515.55,76.2931,-2166.18,0,0
54775.875,75.9594,-2159.06,0,0
55036.2,73.9954,-2149.7,0,0
55296.525,73.7627,-2140.78,0,0
55556.85,71.4174,-2131.5,0,0
55817.175,69.9493,-2121.15,0,0
56077.5,68.3254,-2110.4,0,0
56337.825,66.8808,-2099.88,0,0
56598.15,65.8579,-2088.3,0,0
56858.475,65.8084,-2076.87,0,0
57118.8,65.9877,-2066.24,0,0
57379.125,66.0831,-2055.86,0,0
57639.45,66.2903,-2045.35,0,0
57899.775,66.2001,-2035.19,0,0
58160.1,66.5309,-2024.48,0,0
58420.4,67.8741,-2014.38,0,0
58680.7,67.9609,-2005.6,0,0
58941.1,67.7629,-1994.95,0,0
59201.4,68.9435,-1984.45,0,0
59461.7,70.7176,-1974.38,0,0
59722,73.3462,-1965.2,0,0
59982.4,75.7458,-1957.86,0,0
60242.7,76.3513,-1950.16,0,0
60503,78.16,-1942.06,0,0
60763.3,81.1892,-1936.08,0,0
61023.7,80.9391,-1932.59,0,0
61284,78.7624,-1927.94,0,0
61544.3,73.9609,-1921.46,0,0
61804.6,71.4086,-1911.49,0,0
62065,70.2106,-1902.91,0,0
62325.3,68.5456,-1895.08,0,0
62585.6,65.5874,-1885.89,0,0
62845.9,64.7428,-1875.56,0,0
63106.3,64.2795,-1865.98,0,0
63366.6,64.4714,-1856.95,0,0
63626.9,64.4664,-1848.35,0,0
63887.2,64.1702,-1840.16,0,0
64147.6,63.34,-1831.21,0,0
64407.9,63.745,-1821.69,0,0
64668.2,64.7414,-1813.57,0,0
64928.5,64.9188,-1805.86,0,0
65188.9,64.5627,-1797.71,0,0
65449.2,64.9626,-1789.29,0,0
65709.5,65.3357,-1780.53,0,0
65969.8,66.8651,-1772.66,0,0
66230.2,67.8189,-1765.52,0,0
66490.5,68.4262,-1758.56,0,0
66750.8,68.743,-1751.58,0,0
67011.1,68.9281,-1744.04,0,0
67271.5,70.1778,-1736.57,0,0
67531.8,71.2981,-1729.89,0,0
67792.1,72.4391,-1723.61,0,0
68052.4,73.4843,-1717.78,0,0
68312.8,74.2012,-1712.63,0,0
68573.1,74.21,-1707.83,0,0
68833.4,73.3765,-1703.13,0,0
69093.7,71.6506,-1698.02,0,0
69354.1,69.2649,-1691.95,0,0
69614.4,67.6077,-1684.83,0,0
69874.7,66.371,-1677.87,0,0
70135,65.0654,-1670.59,0,0
70395.4,63.9652,-1662.99,0,0
70655.7,64.4622,-1654.84,0,0
70916,65.3897,-1649.04,0,0
71176.3,64.945,-1642.85,0,0
71436.7,64.9502,-1636.98,0,0
71697,64.1635,-1631.93,0,0
71957.3,62.0531,-1626.02,0,0
72217.6,60.1847,-1618.93,0,0
72478,59.182,-1611.4,0,0
72738.3,58.5617,-1604.38,0,0
72998.6,57.5338,-1597.07,0,0
73258.9,57.1919,-1589.32,0,0
73519.3,57.4777,-1582.06,0,0
73779.6,57.8509,-1575.02,0,0
74039.9,58.0929,-1568.52,0,0
74300.225,58.1521,-1561.73,0,0
74560.55,58.5589,-1555.01,0,0
74820.875,59.0005,-1548.33,0,0
75081.2,59.8822,-1541.9,0,0
75341.525,60.568,-1536.14,0,0
75601.85,60.93,-1530.26,0,0
75862.175,61.2993,-1524.43,0,0
76122.5,61.796,-1518.63,0,0
76382.825,62.1203,-1513.18,0,0
76643.15,62.0836,-1507.51,0,0
76903.475,62.1066,-1501.25,0,0
77163.8,63.3323,-1494.98,0,0
77424.125,64.5579,-1489.88,0,0
77684.45,65.5383,-1485.23,0,0
77944.775,65.9025,-1481,0,0
78205.1,65.8292,-1476.61,0,0
78465.425,65.5011,-1472.27,0,0
78725.75,64.9088,-1467.68,0,0
78986.075,63.8925,-1462.9,0,0
79246.4,63.0318,-1457.67,0,0
79506.725,62.4364,-1452.22,0,0
79767.05,61.8729,-1446.84,0,0
80027.375,61.3646,-1441.39,0,0
80287.7,61.0571,-1435.84,0,0
80548.025,60.8182,-1430.3,0,0
80808.35,60.816,-1424.96,0,0
81068.675,60.8267,-1419.8,0,0
81329.0,60.7141,-1414.75,0,0
81589.325,60.5967,-1409.77,0,0
81849.65,60.3413,-1404.81,0,0
82109.975,60.0176,-1399.76,0,0
82370.3,59.7818,-1394.71,0,0
82630.625,59.5575,-1389.74,0,0
82890.95,59.3222,-1384.82,0,0
83151.275,59.0956,-1379.85,0,0
83411.6,58.7329,-1374.77,0,0
83671.925,58.5074,-1369.78,0,0
83932.25,58.2624,-1364.8,0,0
84192.575,58.0824,-1359.88,0,0
84452.9,57.939,-1354.92,0,0
84713.225,57.704,-1350.01,0,0
84973.55,57.5528,-1345.17,0,0
85233.875,57.3388,-1340.38,0,0
85494.2,57.16,-1335.61,0,0
85754.525,56.8991,-1330.74,0,0
86014.85,56.6652,-1325.92,0,0
86275.175,56.6482,-1321.07,0,0
86535.5,56.5793,-1316.36,0,0
86795.825,56.3987,-1311.74,0,0
87056.15,56.2271,-1307.1,0,0
87316.475,56.0222,-1302.55,0,0
87576.8,55.8137,-1298.02,0,0
87837.125,55.4923,-1293.55,0,0
88097.45,54.9267,-1289.01,0,0
88357.775,54.36,-1284.12,0,0
88618.1,54.1943,-1279.14,0,0
88878.425,53.9649,-1274.43,0,0
89138.75,53.721,-1269.61,0,0
89399.075,53.5363,-1264.64,0,0
89659.4,53.6824,-1259.88,0,0
89919.725,53.6339,-1255.37,0,0
90180,53.5925,-1250.67,0,0
90440.4,53.5366,-1246.03,0,0
90700.7,53.4569,-1241.5,0,0
90961,53.2832,-1236.92,0,0
91221.3,53.246,-1232.18,0,0
91481.7,53.3343,-1227.49,0,0
91742,53.5773,-1222.8,0,0
92002.3,53.861,-1218.36,0,0
92262.6,54.2316,-1213.72,0,0
92523,54.421,-1209.51,0,0
92783.3,54.7753,-1205.28,0,0
93043.6,55.0485,-1201.21,0,0
93303.9,55.1872,-1197.29,0,0
93564.3,55.1763,-1193.51,0,0
93824.6,54.977,-1189.5,0,0
94084.9,54.6002,-1185.55,0,0
94345.2,54.1329,-1181.42,0,0
94605.6,53.7397,-1177.05,0,0
94865.9,53.4799,-1172.48,0,0
95126.2,53.2709,-1168.08,0,0
95386.5,53.2249,-1163.59,0,0
95646.9,53.1101,-1158.98,0,0
95907.2,53.1895,-1154.54,0,0
96167.5,53.3534,-1150.1,0,0
96427.8,53.4983,-1145.77,0,0
96688.2,53.6275,-1141.47,0,0
96948.5,53.6975,-1137.13,0,0
97208.8,53.8787,-1132.75,0,0
97469.1,54.0446,-1128.46,0,0
97729.5,54.1949,-1124.15,0,0
97989.8,54.4315,-1119.79,0,0
98250.1,54.7408,-1115.44,0,0
98510.4,55.1007,-1111.09,0,0
98770.8,55.5881,-1106.72,0,0
99031.1,56.2167,-1102.56,0,0
99291.4,56.8325,-1098.44,0,0
99551.7,57.3153,-1094.53,0,0
99812.1,57.7026,-1090.41,0,0
100072,58.29,-1086.19,0,0
100333,59.198,-1082.07,0,0
100593,60.3627,-1078.3,0,0
100853,61.2606,-1075.08,0,0
101114,61.8641,-1071.7,0,0
101374,62.7268,-1068.53,0,0
101634,63.2319,-1065.96,0,0
101895,62.8811,-1063.54,0,0
102155,61.9795,-1060.56,0,0
102415,60.9786,-1056.95,0,0
102676,60.0985,-1052.97,0,0
102936,59.2738,-1048.67,0,0
103196,58.6903,-1044.08,0,0
103457,58.4266,-1039.13,0,0
103717,58.5917,-1034.25,0,0
103977,58.9142,-1029.53,0,0
104238,59.3574,-1024.79,0,0
104498,60.0609,-1019.91,0,0
104758,61.0231,-1015.26,0,0
105019,62.1417,-1010.73,0,0
105279,63.3216,-1006.38,0,0
105539,64.5913,-1002.07,0,0
105800,65.9634,-997.95,0,0
106060,67.3753,-993.982,0,0
106320.175,68.807,-990.123,0,0
106580.5,70.3056,-986.45,0,0
106840.825,71.6316,-982.843,0,0
107101.15,72.9846,-979.305,0,0
107361.475,74.2884,-975.732,0,0
107621.8,75.611,-972.086,0,0
107882.125,77.1065,-968.477,0,0
108142.45,78.7693,-964.958,0,0
108402.775,80.5578,-961.588,0,0
108663.1,82.3301,-958.475,0,0
108923.425,84.1589,-955.446,0,0
109183.75,86.0664,-952.536,0,0
109444.075,87.8889,-950.014,0,0
109704.4,89.5289,-947.655,0,0
109964.725,90.9345,-945.18,0,0
110225.05,92.5069,-942.815,0,0
110485.375,93.9847,-940.632,0,0
110745.7,95.3273,-938.55,0,0
111006.025,96.4488,-936.482,0,0
111266.35,97.6688,-934.361,0,0
111526.675,98.6214,-932.143,0,0
111787.0,99.786,-930.108,0,0
112047.325,100.795,-928.064,0,0
112307.65,101.821,-926.173,0,0
112567.975,102.733,-924.272,0,0
112828.3,103.639,-922.44,0,0
113088.625,104.5,-920.652,0,0
113348.95,105.241,-918.926,0,0
113609.275,105.89,-917.201,0,0
113869.6,106.437,-915.452,0,0
114129.925,106.904,-913.669,0,0
114390.25,107.454,-911.899,0,0
114650.575,107.997,-910.188,0,0
114910.9,108.457,-908.6,0,0
115171.225,108.715,-907.078,0,0
115431.55,108.836,-905.524,0,0
115691.875,108.804,-903.858,0,0
115952.2,108.866,-902.135,0,0
116212.525,108.854,-900.46,0,0
116472.85,108.708,-898.72,0,0
116733.175,108.484,-896.979,0,0
116993.5,108.11,-895.142,0,0
117253.825,107.704,-893.166,0,0
117514.15,107.282,-890.997,0,0
117774.475,106.846,-888.729,0,0
118034.8,106.552,-886.279,0,0
118295.125,106.379,-883.877,0,0
118555.45,106.074,-881.357,0,0
118815.775,105.857,-878.435,0,0
119076.1,106.243,-875.224,0,0
119336.425,107.335,-872.306,0,0
119596.75,108.73,-869.924,0,0
119857.075,110.464,-868.04,0,0
120117.4,112.31,-867.424,0,0
120377.725,112.912,-867.616,0,0
120638.05,112.605,-867.704,0,0
120898.375,111.454,-867.518,0,0
121158.7,109.814,-866.646,0,0
121419.025,108.134,-865.149,0,0
121679.35,106.525,-863.242,0,0
121939.675,105.112,-860.966,0,0
122200.0,103.875,-858.599,0,0
122460,102.824,-856.051,0,0
122721,101.99,-853.527,0,0
122981,101.161,-851.026,0,0
123241,100.4,-848.456,0,0
123502,99.7149,-845.853,0,0
123762,99.1078,-843.308,0,0
124022,98.558,-840.708,0,0
124283,98.0176,-838.15,0,0
124543,97.5298,-835.533,0,0
124803,97.1291,-832.907,0,0
125064,96.9088,-830.354,0,0
125324,96.6196,-827.981,0,0
125584,96.3892,-825.689,0,0
125845,96.0687,-823.525,0,0
126105,95.6213,-821.463,0,0
126365,95.0961,-819.404,0,0
126626,94.3341,-817.321,0,0
126886,93.4798,-815.166,0,0
127146,92.6336,-812.857,0,0
127406,91.7905,-810.452,0,0
127667,91.1811,-808.183,0,0
127927,90.1622,-806.082,0,0
128187,88.9536,-803.873,0,0
128448,87.704,-801.44,0,0
128708,86.3833,-798.967,0,0
128968,84.8493,-796.345,0,0
129229,83.2803,-793.424,0,0
129489,81.7711,-790.209,0,0
129749,80.4359,-786.827,0,0
130010,79.2472,-783.265,0,0
130270,78.2309,-779.72,0,0
130530,77.2536,-776.197,0,0
130791,76.3733,-772.564,0,0
131051,75.5223,-768.807,0,0
131311,74.8683,-765.034,0,0
131572,74.3295,-761.282,0,0
131832,73.8033,-757.552,0,0
132092,73.3794,-753.756,0,0
132353,72.9738,-749.942,0,0
132613,72.7532,-746.141,0,0
132873,72.5381,-742.354,0,0
133134,72.4154,-738.614,0,0
133394,72.2356,-734.864,0,0
133654,72.1716,-731.063,0,0
133915,72.1972,-727.251,0,0
134175,72.2685,-723.491,0,0
134435,72.3765,-719.79,0,0
134696,72.5102,-715.993,0,0
134956,72.6997,-712.2,0,0
135216,72.9849,-708.437,0,0
135477,73.3864,-704.709,0,0
135737,73.7574,-701.079,0,0
135997,74.1221,-697.442,0,0
136258,74.5244,-693.778,0,0
136518,75.02,-690.096,0,0
136778,75.5849,-686.497,0,0
137039,76.1799,-683.076,0,0
137299,76.6187,-679.703,0,0
137559,76.9801,-676.282,0,0
137819,77.2623,-672.768,0,0
138080,77.585,-669.105,0,0
138340.125,78.0034,-665.4,0,0
138600.45,78.476,-661.712,0,0
138860.775,78.9237,-657.949,0,0
139121.1,79.5077,-654.11,0,0
139381.425,80.1879,-650.324,0,0
139641.75,80.9268,-646.571,0,0
139902.075,81.6106,-642.785,0,0
140162.4,82.3805,-638.928,0,0
140422.725,83.2816,-635.057,0,0
140683.05,84.2738,-631.204,0,0
140943.375,85.3056,-627.399,0,0
141203.7,86.4196,-623.665,0,0
141464.025,87.547,-619.947,0,0
141724.35,88.748,-616.269,0,0
141984.675,89.9309,-612.665,0,0
142245.0,91.0637,-609.063,0,0
142505.325,92.2171,-605.431,0,0
142765.65,93.4164,-601.732,0,0
143025.975,94.6893,-598.079,0,0
143286.3,95.9926,-594.417,0,0
143546.625,97.2884,-590.771,0,0
143806.95,98.6169,-587.085,0,0
144067.275,99.97,-583.383,0,0
144327.6,101.413,-579.677,0,0
144587.925,102.869,-575.958,0,0
144848.25,104.385,-572.227,0,0
145108.575,105.936,-568.462,0,0
145368.9,107.624,-564.714,0,0
145629.225,109.345,-560.943,0,0
145889.55,111.152,-557.156,0,0
146149.875,113.076,-553.448,0,0
146410.2,114.992,-549.75,0,0
146670.525,116.999,-546.067,0,0
146930.85,119.042,-542.428,0,0
147191.175,121.116,-538.783,0,0
147451.5,123.261,-535.122,0,0
147711.825,125.477,-531.514,0,0
147972.15,127.682,-527.92,0,0
148232.475,130.023,-524.29,0,0
148492.8,132.413,-520.703,0,0
148753.125,134.83,-517.075,0,0
149013.45,137.341,-513.47,0,0
149273.775,139.905,-509.892,0,0
149534.1,142.476,-506.254,0,0
149794.425,145.177,-502.508,0,0
150054.75,148.099,-498.715,0,0
150315.075,151.217,-494.949,0,0
150575.4,154.558,-491.267,0,0
150835.725,158.11,-487.772,0,0
151096.05,161.697,-484.427,0,0
151356.375,165.338,-481.103,0,0
151616.7,169.154,-477.813,0,0
151877.025,173.164,-474.578,0,0
152137.35,177.504,-471.466,0,0
152397.675,182.134,-468.767,0,0
152658.0,186.706,-466.495,0,0
152918.325,191.201,-464.402,0,0
153178.65,195.744,-462.482,0,0
153438.975,200.332,-460.837,0,0
153699.3,204.922,-459.577,0,0
153959.625,209.249,-458.633,0,0
154219.95,213.355,-457.849,0,0
154480,217.256,-457.205,0,0
154741,220.785,-456.644,0,0
155001,224.101,-455.809,0,0
155261,227.506,-454.745,0,0
155522,231.27,-453.805,0,0
155782,235.158,-453.474,0,0
156042,238.374,-453.363,0,0
156303,241.269,-453.06,0,0
156563,243.923,-452.321,0,0
156823,246.881,-451.374,0,0
157084,249.921,-450.588,0,0
157344,252.947,-449.98,0,0
157604,255.69,-449.157,0,0
157864,258.446,-447.925,0,0
158125,261.63,-446.497,0,0
158385,265.432,-445.177,0,0
158645,269.409,-444.321,0,0
158906,273.489,-443.783,0,0
159166,277.634,-443.518,0,0
159426,281.749,-443.751,0,0
159687,285.502,-444.098,0,0
159947,289.308,-444.652,0,0
160207,293.048,-445.582,0,0
160468,296.614,-446.814,0,0
160728,299.804,-448.383,0,0
160988,302.473,-450.059,0,0
161249,304.597,-451.705,0,0
161509,306.268,-452.958,0,0
161769,307.964,-454.143,0,0
162030,309.485,-455.072,0,0
162290,310.887,-455.955,0,0
162550,312.126,-456.901,0,0
162811,312.94,-457.638,0,0
163071,313.483,-457.875,0,0
163331,313.923,-457.605,0,0
163592,314.622,-456.91,0,0
163852,315.54,-455.953,0,0
164112,316.499,-454.715,0,0
164373,317.862,-452.874,0,0
164633,319.884,-451.192,0,0
164893,322.052,-449.8,0,0
165154,324.156,-448.059,0,0
165414,326.735,-445.854,0,0
165674,330.067,-443.719,0,0
165935,334.037,-441.815,0,0
166195,338.448,-440.226,0,0
166455,343.342,-439.116,0,0
166716,348.686,-438.324,0,0
166976,354.317,-438.337,0,0
167236,360.139,-438.904,0,0
167497,365.834,-440.28,0,0
167757,371.526,-442.088,0,0
168017,377.165,-444.723,0,0
168277,382.234,-447.747,0,0
168538,387.155,-451.032,0,0
168798,392.112,-454.665,0,0
169058,397.123,-459.01,0,0
169319,401.709,-464.315,0,0
169579,405.596,-470.161,0,0
169839,408.912,-476.455,0,0
170100,411.763,-483.457,0,0
170360.075,413.5,-491.009,0,0
170620.4,414.069,-498.788,0,0
170880.725,413.469,-506.591,0,0
171141.05,411.762,-514.004,0,0
171401.375,409.307,-520.936,0,0
171661.7,406.213,-527.589,0,0
171922.025,402.102,-533.93,0,0
172182.35,397.193,-539.454,0,0
172442.675,391.785,-544.306,0,0
172703.0,385.728,-548.263,0,0
172963.325,379.492,-551.226,0,0
173223.65,373.224,-553.572,0,0
173483.975,366.627,-555.269,0,0
173744.3,359.898,-556.02,0,0
174004.625,353.31,-555.928,0,0
174264.95,346.908,-555.022,0,0
174525.275,340.99,-553.462,0,0
174785.6,335.377,-551.703,0,0
175045.925,329.69,-549.551,0,0
175306.25,324.054,-546.515,0,0
175566.575,318.963,-542.723,0,0
175826.9,314.542,-538.496,0,0
176087.225,310.686,-533.939,0,0
176347.55,307.448,-529.152,0,0
176607.875,304.81,-524.287,0,0
176868.2,302.671,-519.437,0,0
177128.525,300.954,-514.648,0,0
177388.85,299.579,-509.936,0,0
177649.175,298.576,-505.27,0,0
177909.5,297.826,-500.8,0,0
178169.825,297.221,-496.399,0,0
178430.15,296.773,-492.003,0,0
178690.475,296.55,-487.572,0,0
178950.8,296.611,-483.194,0,0
179211.125,296.968,-478.896,0,0
179471.45,297.586,-474.784,0,0
179731.775,298.342,-470.94,0,0
179992.1,299.078,-467.269,0,0
180252.425,299.905,-463.703,0,0
180512.75,300.732,-460.255,0,0
180773.075,301.51,-456.892,0,0
181033.4,302.295,-453.582,0,0
181293.725,303.089,-450.31,0,0
181554.05,303.826,-447.039,0,0
181814.375,304.581,-443.806,0,0
182074.7,305.271,-440.593,0,0
182335.025,305.848,-437.336,0,0
182595.35,306.373,-433.954,0,0
182855.675,306.858,-430.394,0,0
183116.0,307.405,-426.637,0,0
183376.325,308.041,-422.733,0,0
183636.65,308.801,-418.712,0,0
183896.975,309.656,-414.564,0,0
184157.3,310.66,-410.291,0,0
184417.625,311.781,-405.936,0,0
184677.95,313.033,-401.478,0,0
184938.275,314.48,-396.92,0,0
185198.6,316.095,-392.294,0,0
185458.925,317.858,-387.679,0,0
185719.25,319.713,-383.016,0,0
185979.575,321.651,-378.259,0,0
186239.9,323.705,-373.372,0,0
186500,325.932,-368.348,0,0
186761,328.322,-363.278,0,0
187021,330.896,-358.066,0,0
187281,333.731,-352.639,0,0
187542,336.778,-347.154,0,0
187802,340.185,-341.653,0,0
188062,343.828,-336.079,0,0
188322,347.745,-330.5,0,0
188583,351.852,-324.855,0,0
188843,356.293,-319.193,0,0
189103,361.067,-313.444,0,0
189364,366.07,-307.703,0,0
189624,371.524,-301.959,0,0
189884,377.288,-296.289,0,0
190145,383.454,-290.654,0,0
190405,390.049,-285.138,0,0
190665,396.783,-279.765,0,0
190926,404.001,-274.458,0,0
191186,411.45,-269.316,0,0
191446,419.391,-264.263,0,0
191707,427.711,-259.353,0,0
191967,436.467,-254.717,0,0
192227,445.42,-250.434,0,0
192488,454.961,-246.346,0,0
192748,464.648,-242.578,0,0
193008,474.648,-239.204,0,0
193269,485.041,-236.16,0,0
193529,495.475,-233.415,0,0
193789,506.391,-230.963,0,0
194050,517.464,-229.073,0,0
194310,528.61,-227.409,0,0
194570,539.91,-226.137,0,0
194831,551.504,-225.204,0,0
195091,563.138,-224.548,0,0
195351,574.986,-224.078,0,0
195612,587.152,-223.838,0,0
195872,599.696,-223.934,0,0
196132,612.602,-224.481,0,0
196393,625.866,-225.5,0,0
196653,639.39,-226.974,0,0
196913,653.259,-229.041,0,0
197174,667.405,-231.705,0,0
197434,681.776,-234.912,0,0
197694,696.549,-238.762,0,0
197955,711.641,-243.441,0,0
198215,726.798,-248.844,0,0
198475,742.37,-254.928,0,0
198735,758.446,-262.118,0,0
198996,774.742,-270.752,0,0
199256,790.95,-280.914,0,0
199516,806.522,-292.638,0,0
199777,821.429,-305.528,0,0
200037,835.449,-319.51,0,0
200297,849.045,-334.57,0,0
200558,861.368,-350.951,0,0
200818,872.387,-368.073,0,0
201078,882.143,-385.737,0,0
201339,890.824,-403.921,0,0
201599,898.233,-422.692,0,0
201859,903.984,-441.559,0,0
202120,908.67,-460.163,0,0
202380.025,912.506,-478.601,0,0
202640.35,915.03,-496.822,0,0
202900.675,917.187,-514.547,0,0
203161.0,919.029,-532.283,0,0
203421.325,920.508,-550.823,0,0
203681.65,920.454,-569.973,0,0
203941.975,918.492,-588.832,0,0
204202.3,915.044,-606.837,0,0
204462.625,910.99,-623.331,0,0
204722.95,907.063,-639.19,0,0
204983.275,902.936,-654.89,0,0
205243.6,898.334,-670.532,0,0
205503.925,893.001,-685.962,0,0
205764.25,887.191,-700.894,0,0
206024.575,880.814,-715.258,0,0
206284.9,874.572,-729.516,0,0
206545.225,867.827,-744.029,0,0
206805.55,859.965,-758.548,0,0
207065.875,851.24,-772.615,0,0
207326.2,841.488,-786.1,0,0
207586.525,831.143,-798.878,0,0
207846.85,820.002,-810.732,0,0
208107.175,808.462,-821.871,0,0
208367.5,796.366,-832.169,0,0
208627.825,783.607,-841.581,0,0
208888.15,770.493,-849.711,0,0
209148.475,757.448,-856.434,0,0
209408.8,744.474,-862.271,0,0
209669.125,731.981,-867.011,0,0
209929.45,719.781,-871.017,0,0
210189.775,708.191,-874.555,0,0
210450.1,696.904,-877.6,0,0
210710.425,685.736,-880.087,0,0
210970.75,674.852,-881.886,0,0
211231.075,664.475,-883.134,0,0
211491.4,654.652,-884.012,0,0
211751.725,645.258,-884.773,0,0
212012.05,636.063,-885.299,0,0
212272.375,627.258,-885.553,0,0
212532.7,618.691,-885.548,0,0
212793.025,610.251,-885.383,0,0
213053.35,601.853,-884.688,0,0
213313.675,593.899,-883.356,0,0
213574.0,586.518,-881.548,0,0
213834.325,579.909,-879.21,0,0
214094.65,574.428,-876.742,0,0
214354.975,569.96,-874.617,0,0
214615.3,566.192,-873.079,0,0
214875.625,562.798,-872.325,0,0
215135.95,559.495,-872.173,0,0
215396.275,556.346,-872.549,0,0
215656.6,552.853,-873.331,0,0
215916.925,549.062,-874.548,0,0
216177.25,544.911,-875.837,0,0
216437.575,540.444,-876.899,0,0
216697.9,535.982,-877.783,0,0
216958.225,531.634,-878.67,0,0
217218.55,527.24,-879.543,0,0
217478.875,522.769,-880.432,0,0
217739.2,518.3,-881.29,0,0
217999.525,513.864,-882.029,0,0
218259.85,509.356,-882.762,0,0
218520,504.962,-883.405,0,0
218780,500.703,-884.136,0,0
219041,496.468,-885.003,0,0
219301,492.041,-885.964,0,0
219561,487.58,-886.913,0,0
219822,482.955,-887.791,0,0
220082,478.209,-888.652,0,0
220342,473.299,-889.378,0,0
220603,468.249,-889.924,0,0
220863,463.26,-890.181,0,0
221123,458.489,-890.306,0,0
221384,453.702,-890.419,0,0
221644,448.987,-890.331,0,0
221904,444.424,-890.299,0,0
222165,439.822,-890.263,0,0
222425,435.223,-890.12,0,0
222685,430.792,-889.893,0,0
222946,426.411,-889.481,0,0
223206,422.173,-889.211,0,0
223466,418.051,-888.899,0,0
223727,414.16,-888.702,0,0
223987,410.319,-888.875,0,0
224247,406.27,-889.163,0,0
224508,401.95,-889.623,0,0
224768,397.395,-890.084,0,0
225028,392.581,-890.393,0,0
225289,387.769,-890.612,0,0
225549,382.842,-890.669,0,0
225809,377.689,-890.566,0,0
226070,372.52,-890.451,0,0
226330,367.193,-890.155,0,0
226590,361.72,-889.677,0,0
226851,356.247,-888.997,0,0
227111,350.624,-888.102,0,0
227371,345.015,-887.054,0,0
227632,339.334,-885.652,0,0
227892,333.587,-884.047,0,0
228152,327.943,-882.048,0,0
228413,322.323,-879.777,0,0
228673,316.938,-877.26,0,0
228933,311.828,-874.283,0,0
229193,306.994,-871.341,0,0
229454,302.324,-868.262,0,0
229714,297.896,-865.129,0,0
229974,293.516,-861.783,0,0
230235,289.613,-858.588,0,0
230495,285.607,-855.458,0,0
230755,281.714,-852.082,0,0
231016,277.939,-848.585,0,0
231276,274.419,-845.036,0,0
231536,271.164,-841.352,0,0
231797,268.152,-837.744,0,0
232057,265.374,-834.235,0,0
232317,262.629,-830.828,0,0
232578,259.976,-827.474,0,0
232838,257.396,-824.115,0,0
233098,254.862,-820.789,0,0
233359,252.323,-817.439,0,0
233619,249.921,-813.925,0,0
233879,247.726,-810.308,0,0
234140,245.856,-806.777,0,0
234400,244.094,-803.433,0,0
234660.3,242.37,-800.143,0,0
234920.625,240.666,-796.875,0,0
235180.95,239.2,-793.71,0,0
235441.275,237.797,-790.598,0,0
235701.6,236.351,-787.57,0,0
235961.925,234.945,-784.526,0,0
236222.25,233.55,-781.519,0,0
236482.575,232.246,-778.516,0,0
236742.9,231.003,-775.489,0,0
237003.225,229.776,-772.43,0,0
237263.55,228.724,-769.308,0,0
237523.875,227.885,-766.204,0,0
237784.2,227.265,-763.213,0,0
238044.525,226.703,-760.335,0,0
238304.85,226.252,-757.619,0,0
238565.175,225.868,-755.048,0,0
238825.5,225.448,-752.571,0,0
239085.825,225.126,-750.197,0,0
239346.15,224.785,-747.883,0,0
239606.475,224.493,-745.683,0,0
239866.8,224.264,-743.589,0,0
240127.125,223.941,-741.59,0,0
240387.45,223.71,-739.703,0,0
240647.775,223.367,-737.846,0,0
240908.1,223.051,-736.108,0,0
241168.425,222.714,-734.392,0,0
241428.75,222.37,-732.818,0,0
241689.075,221.976,-731.294,0,0
241949.4,221.545,-729.789,0,0
242209.725,221.093,-728.366,0,0
242470.05,220.594,-727.043,0,0
242730.375,220.049,-725.702,0,0
242990.7,219.401,-724.446,0,0
243251.025,218.696,-723.245,0,0
243511.35,217.931,-722.083,0,0
243771.675,217.024,-720.922,0,0
244032.0,216.016,-719.752,0,0
244292.325,214.888,-718.518,0,0
244552.65,213.607,-717.191,0,0
244812.975,212.344,-715.697,0,0
245073.3,211.024,-714.052,0,0
245333.625,209.791,-712.391,0,0
245593.95,208.599,-710.602,0,0
245854.275,207.358,-708.78,0,0
246114.6,206.229,-706.892,0,0
246374.925,205.074,-704.938,0,0
246635.25,203.999,-702.882,0,0
246895.575,203.044,-700.712,0,0
247155.9,202.238,-698.532,0,0
247416.225,201.553,-696.458,0,0
247676.55,200.879,-694.411,0,0
247936.875,200.202,-692.353,0,0
248197.2,199.602,-690.315,0,0
248457.525,199.027,-688.196,0,0
248717.85,198.554,-686.176,0,0
248978.175,198.107,-684.12,0,0
249238.5,197.776,-682.144,0,0
249498.825,197.441,-680.203,0,0
249759.15,197.249,-678.334,0,0
250019.475,197.094,-676.568,0,0
250279.8,196.965,-674.916,0,0
250540,196.755,-673.455,0,0
250800,196.361,-672.133,0,0
251061,195.812,-670.836,0,0
251321,195.081,-669.496,0,0
251581,194.212,-668.102,0,0
251842,193.232,-666.579,0,0
252102,192.123,-664.862,0,0
252362,190.958,-662.986,0,0
252623,189.907,-660.878,0,0
252883,188.951,-658.645,0,0
253143,188.056,-656.351,0,0
253404,187.278,-653.983,0,0
253664,186.567,-651.573,0,0
253924,185.896,-649.191,0,0
254185,185.187,-646.785,0,0
254445,184.382,-644.318,0,0
254705,183.514,-641.651,0,0
254966,182.742,-638.694,0,0
255226,182.141,-635.5,0,0
255486,181.695,-632.248,0,0
255747,181.424,-628.845,0,0
256007,181.377,-625.339,0,0
256267,181.542,-621.79,0,0
256528,181.864,-618.157,0,0
256788,182.395,-614.461,0,0
257048,183.172,-610.712,0,0
257309,184.232,-606.923,0,0
257569,185.534,-603.217,0,0
257829,187.103,-599.535,0,0
258090,188.868,-595.944,0,0
258350,190.877,-592.355,0,0
258610,193.18,-588.863,0,0
258871,195.843,-585.565,0,0
259131,198.628,-582.519,0,0
259391,201.537,-579.685,0,0
259651,204.506,-577.011,0,0
259912,207.712,-574.422,0,0
260172,211.03,-571.905,0,0
260432,214.642,-569.598,0,0
260693,218.454,-567.589,0,0
260953,222.368,-565.837,0,0
261213,226.374,-564.436,0,0
261474,230.277,-563.243,0,0
261734,234.325,-562.115,0,0
261994,238.563,-561.137,0,0
262255,243.084,-560.445,0,0
262515,247.83,-560.196,0,0
262775,252.668,-560.547,0,0
263036,257.339,-561.475,0,0
263296,261.728,-562.867,0,0
263556,265.723,-564.508,0,0
263817,269.482,-566.249,0,0
264077,273.072,-568.106,0,0
264337,276.534,-570.139,0,0
264598,279.874,-572.306,0,0
264858,283.033,-574.591,0,0
265118,286.21,-577.034,0,0
265379,289.205,-579.708,0,0
265639,291.919,-582.596,0,0
265899,294.533,-585.442,0,0
266160,297.211,-588.379,0,0
266420,299.935,-591.614,0,0
266680.25,302.558,-595.277,0,0
266940.575,305,-599.336,0,0
267200.9,307.153,-603.821,0,0
267461.225,308.76,-608.759,0,0
267721.55,309.828,-613.961,0,0
267981.875,310.292,-619.333,0,0
268242.2,309.946,-624.777,0,0
268502.525,308.845,-629.988,0,0
268762.85,307.178,-634.805,0,0
269023.175,305.117,-639.176,0,0
269283.5,302.698,-643.063,0,0
269543.825,300.055,-646.426,0,0
269804.15,297.532,-649.282,0,0
270064.475,295.048,-651.873,0,0
270324.8,292.557,-654.101,0,0
270585.125,290.248,-656.165,0,0
270845.45,288.178,-658.136,0,0
271105.775,286.188,-660.135,0,0
271366.1,284.105,-662.188,0,0
271626.425,281.918,-664.167,0,0
271886.75,279.704,-666.056,0,0
272147.075,277.403,-667.901,0,0
272407.4,275.032,-669.63,0,0
272667.725,272.655,-671.256,0,0
272928.05,270.25,-672.736,0,0
273188.375,267.955,-674.154,0,0
273448.7,265.766,-675.628,0,0
273709.025,263.54,-677.281,0,0
273969.35,261.15,-679.093,0,0
274229.675,258.458,-681.02,0,0
274490.0,255.409,-682.793,0,0
274750.325,252.068,-684.5,0,0
275010.65,248.567,-685.827,0,0
275270.975,244.937,-687.086,0,0
275531.3,240.971,-688.143,0,0
275791.625,236.935,-688.88,0,0
276051.95,232.673,-689.317,0,0
276312.275,228.281,-689.449,0,0
276572.6,223.753,-689.14,0,0
276832.925,219.248,-688.35,0,0
277093.25,214.774,-687.089,0,0
277353.575,210.493,-685.384,0,0
277613.9,206.449,-683.181,0,0
277874.225,202.769,-680.628,0,0
278134.55,199.517,-677.734,0,0
278394.875,196.788,-674.68,0,0
278655.2,194.527,-671.525,0,0
278915.525,192.712,-668.398,0,0
279175.85,191.313,-665.353,0,0
279436.175,190.299,-662.489,0,0
279696.5,189.667,-659.911,0,0
279956.825,189.246,-657.708,0,0
280217.15,188.783,-655.853,0,0
280477.475,188.106,-654.203,0,0
280737.8,187.336,-652.54,0,0
280998.125,186.557,-650.833,0,0
281258.45,185.797,-649.077,0,0
281518.775,185.133,-647.125,0,0
281779.1,184.781,-645.111,0,0
282039.425,184.758,-643.252,0,0
282299.75,184.897,-641.7,0,0
282560,185.073,-640.43,0,0
282820,185.216,-639.333,0,0
283081,185.316,-638.435,0,0
283341,185.333,-637.686,0,0
283601,185.238,-637.052,0,0
283862,185.061,-636.443,0,0
284122,184.872,-635.961,0,0
284382,184.631,-635.599,0,0
284643,184.155,-635.365,0,0
284903,183.509,-635.137,0,0
285163,182.644,-634.881,0,0
285424,181.613,-634.538,0,0
285684,180.514,-634.061,0,0
285944,179.266,-633.448,0,0
286205,177.95,-632.688,0,0
286465,176.651,-631.781,0,0
286725,175.302,-630.772,0,0
286986,173.874,-629.574,0,0
287246,172.462,-628.16,0,0
287506,171.084,-626.494,0,0
287767,169.849,-624.585,0,0
288027,168.719,-622.447,0,0
288287,167.872,-620.082,0,0
288548,167.302,-617.568,0,0
288808,167.094,-614.968,0,0
289068,167.225,-612.403,0,0
289329,167.671,-609.901,0,0
289589,168.35,-607.533,0,0
289849,169.229,-605.261,0,0
290109,170.367,-603.107,0,0
290370,171.786,-601.056,0,0
290630,173.417,-599.207,0,0
290890,175.284,-597.623,0,0
291151,177.348,-596.259,0,0
291411,179.588,-595.193,0,0
291671,181.985,-594.469,0,0
291932,184.497,-594.151,0,0
292192,187.024,-594.256,0,0
292452,189.497,-594.788,0,0
292713,191.775,-595.749,0,0
292973,193.838,-597.022,0,0
293233,195.664,-598.565,0,0
293494,197.277,-600.323,0,0
293754,198.687,-602.335,0,0
294014,199.842,-604.594,0,0
294275,200.617,-607.151,0,0
294535,200.95,-609.89,0,0
294795,200.824,-612.65,0,0
295056,200.192,-615.353,0,0
295316,199.211,-617.933,0,0
295576,197.854,-620.327,0,0
295837,196.203,-622.479,0,0
296097,194.278,-624.381,0,0
296357,192.146,-625.955,0,0
296618,189.948,-627.206,0,0
296878,187.696,-628.173,0,0
297138,185.493,-628.908,0,0
297399,183.31,-629.443,0,0
297659,181.17,-629.768,0,0
297919,179.114,-629.938,0,0
298180,177.188,-629.984,0,0
298440,175.358,-630.007,0,0
298700.2,173.587,-630.013,0,0
298960.525,171.801,-630.027,0,0
299220.85,169.974,-629.991,0,0
299481.175,168.152,-629.868,0,0
299741.5,166.292,-629.684,0,0
300001.825,164.429,-629.382,0,0
300262.15,162.627,-629.004,0,0
300522.475,160.844,-628.566,0,0
300782.8,159.09,-628.069,0,0
301043.125,157.329,-627.49,0,0
301303.45,155.617,-626.815,0,0
301563.775,153.991,-626.085,0,0
301824.1,152.387,-625.291,0,0
302084.425,150.888,-624.46,0,0
302344.75,149.435,-623.625,0,0
302605.075,148.049,-622.825,0,0
302865.4,146.642,-622.034,0,0
303125.725,145.227,-621.187,0,0
303386.05,143.767,-620.297,0,0
303646.375,142.363,-619.325,0,0
303906.7,140.997,-618.306,0,0
304167.025,139.693,-617.219,0,0
304427.35,138.459,-616.078,0,0
304687.675,137.268,-614.951,0,0
304948.0,136.154,-613.786,0,0
305208.325,135.083,-612.609,0,0
305468.65,134.044,-611.407,0,0
305728.975,133.094,-610.167,0,0
305989.3,132.168,-608.925,0,0
306249.625,131.338,-607.675,0,0
306509.95,130.599,-606.412,0,0
306770.275,129.954,-605.171,0,0
307030.6,129.367,-603.988,0,0
307290.925,128.852,-602.859,0,0
307551.25,128.364,-601.786,0,0
307811.575,127.906,-600.775,0,0
308071.9,127.466,-599.803,0,0
308332.225,127.075,-598.904,0,0
308592.55,126.669,-598.096,0,0
308852.875,126.236,-597.361,0,0
309113.2,125.73,-596.667,0,0
309373.525,125.157,-596,0,0
309633.85,124.542,-595.324,0,0
309894.175,123.844,-594.637,0,0
310154.5,123.132,-593.891,0,0
310414.825,122.406,-593.064,0,0
310675.15,121.69,-592.189,0,0
310935.475,121.017,-591.287,0,0
311195.8,120.393,-590.368,0,0
311456.125,119.775,-589.456,0,0
311716.45,119.218,-588.515,0,0
311976.775,118.657,-587.601,0,0
312237.1,118.129,-586.683,0,0
312497.425,117.612,-585.745,0,0
312757.75,117.124,-584.796,0,0
313018.075,116.687,-583.844,0,0
313278.4,116.29,-582.91,0,0
313538.725,115.953,-582.001,0,0
313799.05,115.636,-581.138,0,0
314059.375,115.349,-580.292,0,0
314319.7,115.068,-579.503,0,0
314580,114.747,-578.763,0,0
314840,114.445,-578.032,0,0
315101,114.167,-577.342,0,0
315361,113.878,-576.594,0,0
315621,113.551,-576.02,0,0
315882,113.291,-575.339,0,0
316142,113.002,-574.568,0,0
316402,112.736,-573.963,0,0
316663,112.471,-573.405,0,0
316923,112.125,-572.928,0,0
317183,111.908,-572.321,0,0
317444,111.639,-571.858,0,0
317704,111.36,-571.344,0,0
317964,110.977,-570.926,0,0
318225,110.702,-570.465,0,0
318485,110.394,-570.089,0,0
318745,110.124,-569.718,0,0
319006,109.74,-569.466,0,0
319266,109.408,-569.286,0,0
319526,108.89,-569.123,0,0
319787,108.391,-569.02,0,0
320047,107.727,-568.91,0,0
320307,107.062,-568.764,0,0
320567,106.222,-568.683,0,0
320828,105.331,-568.558,0,0
321088,104.379,-568.413,0,0
321348,103.314,-568.306,0,0
321609,102.134,-568.086,0,0
321869,100.895,-567.766,0,0
322129,99.5734,-567.217,0,0
322390,98.1986,-566.72,0,0
322650,96.7162,-565.944,0,0
322910,95.2821,-565.086,0,0
323171,93.9734,-564.198,0,0
323431,92.6087,-563.018,0,0
323691,91.389,-561.817,0,0
323952,90.2878,-560.581,0,0
324212,89.1885,-559.236,0,0
324472,88.1749,-557.894,0,0
324733,87.3164,-556.536,0,0
324993,86.4395,-555.221,0,0
325253,85.7598,-553.813,0,0
325514,84.9483,-552.416,0,0
325774,84.3544,-551.054,0,0
326034,83.6882,-549.714,0,0
326295,83.085,-548.4,0,0
326555,82.5248,-546.931,0,0
326815,82.0928,-545.635,0,0
327076,81.5531,-544.306,0,0
327336,81.0473,-542.994,0,0
327596,80.6375,-541.634,0,0
327857,80.1591,-540.282,0,0
328117,79.6787,-538.905,0,0
328377,79.2642,-537.516,0,0
328638,78.865,-536.065,0,0
328898,78.583,-534.553,0,0
329158,78.3247,-532.998,0,0
329419,78.2334,-531.641,0,0
329679,78.1939,-530.107,0,0
329939,78.1692,-528.658,0,0
330200,78.2642,-527.27,0,0
330460,78.397,-525.938,0,0
330720.15,78.5764,-524.603,0,0
330980.475,78.8401,-523.281,0,0
331240.8,79.1176,-522.137,0,0
331501.125,79.5596,-520.977,0,0
331761.45,79.9298,-520.062,0,0
332021.775,80.3969,-519.124,0,0
332282.1,80.727,-518.405,0,0
332542.425,81.0549,-517.829,0,0
332802.75,81.2477,-517.246,0,0
333063.075,81.3931,-516.706,0,0
333323.4,81.389,-516.283,0,0
333583.725,81.3641,-515.729,0,0
333844.05,81.236,-515.23,0,0
334104.375,81.0925,-514.653,0,0
334364.7,80.8479,-514.097,0,0
334625.025,80.5719,-513.483,0,0
334885.35,80.2118,-512.843,0,0
335145.675,79.8771,-512.204,0,0
335406.0,79.6219,-511.454,0,0
335666.325,79.2292,-510.736,0,0
335926.65,78.8387,-509.899,0,0
336186.975,78.4762,-508.961,0,0
336447.3,78.0712,-508.093,0,0
336707.625,77.6958,-507.08,0,0
336967.95,77.3301,-506.058,0,0
337228.275,77.0241,-505.033,0,0
337488.6,76.7484,-503.93,0,0
337748.925,76.5027,-502.922,0,0
338009.25,76.2012,-501.755,0,0
338269.575,76.0214,-500.622,0,0
338529.9,75.81,-499.403,0,0
338790.225,75.5736,-498.171,0,0
339050.55,75.4935,-496.909,0,0
339310.875,75.4405,-495.578,0,0
339571.2,75.4969,-494.243,0,0
339831.525,75.5822,-492.837,0,0
340091.85,75.7431,-491.507,0,0
340352.175,76.0671,-490.152,0,0
340612.5,76.3815,-488.751,0,0
340872.825,76.8504,-487.417,0,0
341133.15,77.399,-486.127,0,0
341393.475,78.0049,-484.916,0,0
341653.8,78.7648,-483.762,0,0
341914.125,79.5865,-482.752,0,0
342174.45,80.397,-481.771,0,0
342434.775,81.3696,-480.945,0,0
342695.1,82.2358,-480.224,0,0
342955.425,83.1728,-479.622,0,0
343215.75,84.0149,-479.169,0,0
343476.075,84.872,-478.737,0,0
343736.4,85.6798,-478.454,0,0
343996.725,86.4233,-478.275,0,0
344257.05,87.1127,-478.158,0,0
344517.375,87.7185,-478.092,0,0
344777.7,88.2547,-478.079,0,0
345038.025,88.7304,-478.117,0,0
345298.35,89.1518,-478.152,0,0
345558.675,89.4178,-478.243,0,0
345819.0,89.6578,-478.365,0,0
346079.325,89.8926,-478.467,0,0
346339.65,89.9648,-478.549,0,0
346599.975,90.0009,-478.705,0,0
346860,89.9284,-478.758,0,0
347121,89.8669,-478.839,0,0
347381,89.6444,-478.877,0,0
347641,89.4353,-478.851,0,0
347902,89.15,-478.745,0,0
348162,88.806,-478.598,0,0
348422,88.5702,-478.484,0,0
348683,88.245,-478.28,0,0
348943,87.9138,-478.004,0,0
349203,87.5681,-477.798,0,0
349464,87.2086,-477.463,0,0
349724,86.8544,-477.215,0,0
349984,86.4575,-476.908,0,0
350245,86.1385,-476.569,0,0
350505,85.6832,-476.222,0,0
350765,85.2303,-475.766,0,0
351025,84.7448,-475.34,0,0
351286,84.2755,-474.824,0,0
351546,83.788,-474.184,0,0
351806,83.3611,-473.468,0,0
352067,82.9909,-472.737,0,0
352327,82.7118,-471.979,0,0
352587,82.4851,-471.214,0,0
352848,82.3659,-470.426,0,0
353108,82.2226,-469.682,0,0
353368,82.1382,-468.944,0,0
353629,82.1263,-468.313,0,0
353889,82.0375,-467.63,0,0
354149,82.0473,-467.027,0,0
354410,81.9504,-466.427,0,0
354670,81.9298,-465.873,0,0
354930,81.8634,-465.298,0,0
355191,81.7355,-464.689,0,0
355451,81.7094,-464.18,0,0
355711,81.6635,-463.568,0,0
355972,81.5878,-463.027,0,0
356232,81.5401,-462.536,0,0
356492,81.4786,-461.963,0,0
356753,81.3476,-461.475,0,0
357013,81.2703,-460.942,0,0
357273,81.125,-460.408,0,0
357534,81.015,-459.906,0,0
357794,80.8853,-459.366,0,0
358054,80.7484,-458.84,0,0
358315,80.5246,-458.271,0,0
358575,80.3618,-457.667,0,0
358835,80.2191,-457.143,0,0
359096,79.9903,-456.553,0,0
359356,79.7972,-455.938,0,0
359616,79.5217,-455.27,0,0
359877,79.3496,-454.571,0,0
360137,79.1016,-453.816,0,0
360397,78.8699,-453.112,0,0
360658,78.7097,-452.255,0,0
360918,78.5541,-451.338,0,0
361178,78.5537,-450.459,0,0
361438,78.5795,-449.606,0,0
361699,78.6593,-448.734,0,0
361959,78.7994,-447.923,0,0
362219,78.9697,-447.196,0,0
362480,79.1772,-446.527,0,0
362740.1,79.2721,-445.893,0,0
363000.425,79.3708,-445.266,0,0
363260.75,79.4566,-444.61,0,0
363521.075,79.4952,-444.022,0,0
363781.4,79.5279,-443.431,0,0
364041.725,79.6004,-442.726,0,0
364302.05,79.5963,-442.143,0,0
364562.375,79.5521,-441.438,0,0
364822.7,79.5696,-440.726,0,0
365083.025,79.4993,-439.979,0,0
365343.35,79.5527,-439.188,0,0
365603.675,79.5942,-438.353,0,0
365864.0,79.6099,-437.516,0,0
366124.325,79.7373,-436.666,0,0
366384.65,79.8381,-435.729,0,0
366644.975,80.0601,-434.82,0,0
366905.3,80.2908,-433.991,0,0
367165.625,80.5126,-433.047,0,0
367425.95,80.7584,-432.128,0,0
367686.275,81.1198,-431.207,0,0
367946.6,81.466,-430.192,0,0
368206.925,81.9246,-429.255,0,0
368467.25,82.4432,-428.298,0,0
368727.575,82.9991,-427.356,0,0
368987.9,83.6581,-426.51,0,0
369248.225,84.3481,-425.708,0,0
369508.55,85.058,-424.835,0,0
369768.875,85.8716,-424.06,0,0
370029.2,86.7508,-423.274,0,0
370289.525,87.7064,-422.573,0,0
370549.85,88.7608,-421.883,0,0
370810.175,89.7833,-421.305,0,0
371070.5,90.9826,-420.85,0,0
371330.825,92.1664,-420.53,0,0
371591.15,93.4307,-420.376,0,0
371851.475,94.6823,-420.311,0,0
372111.8,95.8875,-420.439,0,0
372372.125,97.119,-420.642,0,0
372632.45,98.236,-421.049,0,0
372892.775,99.2282,-421.654,0,0
373153.1,100.112,-422.292,0,0
373413.425,100.865,-423.032,0,0
373673.75,101.419,-423.859,0,0
373934.075,101.804,-424.661,0,0
374194.4,102.021,-425.431,0,0
374454.725,102.16,-426.164,0,0
374715.05,102.173,-426.806,0,0
374975.375,102.104,-427.358,0,0
375235.7,101.939,-427.868,0,0
375496.025,101.929,-428.282,0,0
375756.35,101.744,-428.711,0,0
376016.675,101.647,-429.07,0,0
376277.0,101.422,-429.412,0,0
376537.325,101.151,-429.75,0,0
376797.65,100.86,-429.898,0,0
377057.975,100.578,-430.039,0,0
377318.3,100.444,-430.183,0,0
377578.625,100.273,-430.217,0,0
377838.95,100.104,-430.402,0,0
378099.275,99.9801,-430.516,0,0
378359.6,99.7879,-430.663,0,0
378619.925,99.6348,-430.829,0,0
378880,99.4468,-430.905,0,0
379141,99.2423,-431.034,0,0
379401,98.9884,-431.185,0,0
379661,98.7238,-431.328,0,0
379922,98.4384,-431.407,0,0
380182,98.1195,-431.572,0,0
380442,97.7106,-431.556,0,0
380703,97.3134,-431.485,0,0
380963,97.0183,-431.287,0,0
381223,96.7183,-431.145,0,0
381483,96.5556,-430.908,0,0
381744,96.4796,-430.668,0,0
382004,96.5427,-430.536,0,0
382264,96.6863,-430.452,0,0
382525,96.8142,-430.589,0,0
382785,96.9075,-430.813,0,0
383045,96.9549,-431.115,0,0
383306,96.883,-431.534,0,0
383566,96.7305,-432.011,0,0
383826,96.4278,-432.525,0,0
384087,95.9814,-432.98,0,0
384347,95.5558,-433.415,0,0
384607,94.9772,-433.894,0,0
384868,94.3115,-434.216,0,0
385128,93.6246,-434.61,0,0
385388,92.8256,-434.922,0,0
385649,91.8891,-435.216,0,0
385909,90.9405,-435.4,0,0
386169,89.8692,-435.504,0,0
386430,88.7896,-435.442,0,0
386690,87.6658,-435.223,0,0
386950,86.5252,-434.854,0,0
387211,85.4548,-434.388,0,0
387471,84.4691,-433.849,0,0
387731,83.5368,-433.183,0,0
387992,82.7418,-432.416,0,0
388252,81.9862,-431.553,0,0
388512,81.4,-430.777,0,0
388773,80.8811,-429.898,0,0
389033,80.5055,-429.023,0,0
389293,80.2956,-428.155,0,0
389554,80.2005,-427.377,0,0
389814,80.119,-426.703,0,0
390074,80.1726,-426.102,0,0
390335,80.2108,-425.733,0,0
390595,80.2895,-425.385,0,0
390855,80.2894,-425.177,0,0
391116,80.1845,-425.059,0,0
391376,80.0382,-424.989,0,0
391636,79.7757,-425.023,0,0
391896,79.4001,-425.007,0,0
392157,78.9302,-425.047,0,0
392417,78.3631,-424.961,0,0
392677,77.8212,-424.847,0,0
392938,77.2053,-424.723,0,0
393198,76.5251,-424.548,0,0
393458,75.838,-424.304,0,0
393719,75.0636,-424.012,0,0
393979,74.3339,-423.654,0,0
394239,73.5647,-423.227,0,0
394500,72.8193,-422.775,0,0
394760.05,72.0779,-422.28,0,0
395020.375,71.364,-421.774,0,0
395280.7,70.6285,-421.181,0,0
395541.025,69.9078,-420.581,0,0
395801.35,69.2099,-419.937,0,0
396061.675,68.4982,-419.189,0,0
396322.0,67.8374,-418.473,0,0
396582.325,67.1554,-417.749,0,0
396842.65,66.5101,-416.949,0,0
397102.975,65.9005,-416.139,0,0
397363.3,65.3277,-415.294,0,0
397623.625,64.7623,-414.411,0,0
397883.95,64.2197,-413.522,0,0
398144.275,63.7052,-412.595,0,0
398404.6,63.2113,-411.662,0,0
398664.925,62.7552,-410.671,0,0
398925.25,62.3155,-409.671,0,0
399185.575,61.8933,-408.649,0,0
399445.9,61.5426,-407.609,0,0
399706.225,61.2047,-406.514,0,0
399966.55,60.9492,-405.385,0,0
400006.6,60.9258,-405.261,0,0