File: Accelerated corrosion test data/2025-10-18_18-00-03/sample_7.csv
Frequency (Hz),Impedance (ohms),Phase (Radians),Temperature (C),Humidity (%)
10000.0,276.064,-12089.1,0,0
10260.325,274.58,-11798.9,0,0
10520.65,259.719,-11498.8,0,0
10780.975,254.308,-11217.6,0,0
11041.3,251.555,-10950.1,0,0
11301.625,248.578,-10693.9,0,0
11561.95,253.505,-10445.8,0,0
11822.275,256.995,-10217.7,0,0
12082.6,270.485,-9983.12,0,0
12342.925,327.328,-9827.3,0,0
12603.25,261.735,-9644.97,0,0
12863.575,266.19,-9460.99,0,0
13123.9,239.846,-9269.39,0,0
13384.225,229.156,-9100.54,0,0
13644.55,227.516,-8919.26,0,0
13904.875,210.429,-8751.01,0,0
14165.2,210.263,-8576.83,0,0
14425.525,204.008,-8438.5,0,0
14685.8,203.735,-8288.8,0,0
14946.175,200.045,-8141.91,0,0
15206.5,197.208,-8012.14,0,0
15466.825,187.011,-7869.39,0,0
15727.15,185.678,-7742.87,0,0
15987.5,180.683,-7613.6,0,0
16247.8,178.512,-7493.3,0,0
16508.125,172.724,-7371.9,0,0
16768.45,172.196,-7252.8,0,0
17028.775,172.083,-7143.54,0,0
17289.1,167.074,-7034.23,0,0
17549.425,165.796,-6926.18,0,0
17809.75,170.521,-6817.76,0,0
18070.075,168.8,-6718.49,0,0
18330.4,181.075,-6612.29,0,0
18590.725,199.545,-6528.2,0,0
18851.05,192.067,-6461.41,0,0
19111.375,180.999,-6366.1,0,0
19371.7,207.469,-6309.88,0,0
19632.025,169.557,-6233.06,0,0
19892.35,159.348,-6130.66,0,0
20152.675,173.942,-6051.39,0,0
20413.0,168.72,-5986.99,0,0
20673.3,171.048,-5901.71,0,0
20933.65,182.904,-5843.97,0,0
21193.975,162.718,-5780.68,0,0
21454.3,157.049,-5705.11,0,0
21714.625,157.409,-5644.46,0,0
21974.9,146.277,-5577.62,0,0
22235.275,141.916,-5509.08,0,0
22495.6,138.733,-5445.64,0,0
22755.925,133.637,-5381.16,0,0
23016.25,130.608,-5317.47,0,0
23276.6,129.004,-5254.8,0,0
23536.9,129.339,-5195.04,0,0
23797.225,128.059,-5139.17,0,0
24057.55,124.839,-5082.07,0,0
24317.875,123.332,-5024.05,0,0
24578.2,124.276,-4970.42,0,0
24838.525,123.204,-4916.99,0,0
25098.85,120.903,-4864.74,0,0
25359.175,118.852,-4812.61,0,0
25619.5,119.172,-4760.11,0,0
25879.8,119.706,-4710.29,0,0
26140.1,120.242,-4658.74,0,0
26400.5,123.687,-4614.41,0,0
26660.8,120.044,-4565.71,0,0
26921.1,121.854,-4514.76,0,0
27181.4,127.405,-4467.82,0,0
27441.8,129.918,-4419.67,0,0
27702.1,140.439,-4372.4,0,0
27962.4,155.304,-4326.31,0,0
28222.7,179.899,-4295.39,0,0
28483.1,195.009,-4280.91,0,0
28743.4,191.349,-4268.53,0,0
29003.7,172.631,-4252.25,0,0
29264,153.067,-4215.75,0,0
29524.4,141.684,-4177.38,0,0
29784.7,132.605,-4138.3,0,0
30045,128.34,-4094.66,0,0
30305.3,130.049,-4056.5,0,0
30565.7,131.171,-4020.98,0,0
30826,130.992,-3988.83,0,0
31086.3,133.481,-3958.59,0,0
31346.6,132.061,-3928.29,0,0
31607,129.811,-3905.57,0,0
31867.3,121.055,-3872.07,0,0
32127.6,119.494,-3841.16,0,0
32387.9,115.918,-3811.44,0,0
32648.3,111.665,-3781.55,0,0
32908.6,108.682,-3750.9,0,0
33168.9,105.2,-3721.27,0,0
33429.2,101.813,-3691.36,0,0
33689.6,99.4887,-3661.31,0,0
33949.9,97.548,-3632,0,0
34210.2,95.6386,-3603.07,0,0
34470.5,94.1492,-3574.42,0,0
34730.9,92.8452,-3546.05,0,0
34991.2,91.7005,-3518.48,0,0
35251.5,90.5777,-3491.51,0,0
35511.8,89.739,-3464.5,0,0
35772.2,89.1022,-3437.96,0,0
36032.5,89.0535,-3412.22,0,0
36292.8,88.2228,-3387.49,0,0
36553.1,87.0874,-3362.31,0,0
36813.5,87.0268,-3336.88,0,0
37073.8,86.8357,-3312.44,0,0
37334.1,86.5065,-3288.35,0,0
37594.4,86.2491,-3265.13,0,0
37854.8,85.3524,-3241.23,0,0
38115.1,86.0104,-3217.55,0,0
38375.4,86.0428,-3194.19,0,0
38635.7,87.0002,-3171.06,0,0
38896.1,88.6728,-3148.55,0,0
39156.4,90.0837,-3126.27,0,0
39416.7,94.1583,-3104.76,0,0
39677,98.687,-3087.29,0,0
39937.4,99.9126,-3071.86,0,0
40197.7,100.393,-3056.28,0,0
40458,97.2396,-3040.83,0,0
40718.3,93.1666,-3023.73,0,0
40978.7,90.3801,-3004.21,0,0
41239,87.5172,-2985.75,0,0
41499.3,85.3227,-2965.64,0,0
41759.6,84.1367,-2946.8,0,0
42020,82.2934,-2928.12,0,0
42280.275,80.8258,-2908.73,0,0
42540.6,80.1643,-2889.02,0,0
42800.925,80.5549,-2870.79,0,0
43061.25,80.631,-2852.17,0,0
43321.575,80.727,-2835.89,0,0
43581.9,79.0602,-2818.16,0,0
43842.225,79.0269,-2799.37,0,0
44102.55,80.6426,-2781.78,0,0
44362.875,82.5343,-2765.94,0,0
44623.2,83.2838,-2751.57,0,0
44883.525,81.7675,-2738.2,0,0
45143.85,80.6757,-2721.8,0,0
45404.175,79.4783,-2706.73,0,0
45664.5,79.8407,-2689.63,0,0
45924.825,81.9134,-2676,0,0
46185.15,79.9723,-2664.26,0,0
46445.475,77.2652,-2650.39,0,0
46705.8,74.4178,-2635.16,0,0
46966.125,72.4545,-2619.12,0,0
47226.45,71.6079,-2603.41,0,0
47486.775,71.2114,-2588.31,0,0
47747.1,70.7549,-2573.51,0,0
48007.425,70.4876,-2558.98,0,0
48267.75,70.2087,-2544.89,0,0
48528.075,69.4372,-2531.03,0,0
48788.4,68.9616,-2516.91,0,0
49048.725,68.2166,-2503.16,0,0
49309.05,67.8186,-2489.39,0,0
49569.375,67.3063,-2476.01,0,0
49829.7,66.916,-2462.33,0,0
50090.025,66.5849,-2449.11,0,0
50350.35,66.359,-2435.87,0,0
50610.675,66.1031,-2423.12,0,0
50871.0,65.5859,-2410.27,0,0
51131.325,65.2333,-2397.53,0,0
51391.65,64.8927,-2384.78,0,0
51651.975,64.5074,-2372.45,0,0
51912.3,64.338,-2359.98,0,0
52172.625,64.2361,-2347.61,0,0
52432.95,64.0642,-2335.76,0,0
52693.275,63.7885,-2323.71,0,0
52953.6,64.066,-2311.87,0,0
53213.925,63.9028,-2300.39,0,0
53474.25,63.7011,-2289.31,0,0
53734.575,63.2072,-2277.87,0,0
53994.9,62.7629,-2266.68,0,0
54255.225,62.4591,-2255.44,0,0
54515.55,62.0908,-2244.24,0,0
54775.875,61.86,-2233.13,0,0
55036.2,61.621,-2222.27,0,0
55296.525,61.3546,-2211.45,0,0
55556.85,61.131,-2200.75,0,0
55817.175,60.6699,-2189.89,0,0
56077.5,60.5065,-2179.16,0,0
56337.825,60.4431,-2168.53,0,0
56598.15,60.4905,-2158.4,0,0
56858.475,60.2906,-2148.07,0,0
57118.8,60.2271,-2138.01,0,0
57379.125,60.0139,-2127.97,0,0
57639.45,59.5873,-2117.96,0,0
57899.775,59.3547,-2107.79,0,0
58160.1,59.4818,-2097.64,0,0
58420.4,59.8271,-2088.06,0,0
58680.7,59.7916,-2078.78,0,0
58941.1,59.6411,-2069.51,0,0
59201.4,59.1919,-2060.03,0,0
59461.7,59.4208,-2050.33,0,0
59722,59.6328,-2041.35,0,0
59982.4,59.5234,-2032.37,0,0
60242.7,59.7885,-2023.5,0,0
60503,59.6137,-2015.08,0,0
60763.3,59.0523,-2006.44,0,0
61023.7,58.4774,-1997.72,0,0
61284,58.1614,-1988.85,0,0
61544.3,57.9016,-1980.23,0,0
61804.6,57.4234,-1971.7,0,0
62065,57.0771,-1962.95,0,0
62325.3,56.651,-1954.35,0,0
62585.6,56.3295,-1945.8,0,0
62845.9,56.0303,-1937.26,0,0
63106.3,55.8349,-1928.81,0,0
63366.6,55.6552,-1920.23,0,0
63626.9,55.6274,-1911.95,0,0
63887.2,55.4836,-1903.82,0,0
64147.6,55.4047,-1895.71,0,0
64407.9,55.2302,-1887.67,0,0
64668.2,55.1353,-1879.68,0,0
64928.5,55.1232,-1871.62,0,0
65188.9,55.0584,-1863.78,0,0
65449.2,55.1606,-1856.1,0,0
65709.5,55.1467,-1848.62,0,0
65969.8,55.0042,-1841.14,0,0
66230.2,54.8405,-1833.81,0,0
66490.5,54.5122,-1826.55,0,0
66750.8,54.086,-1819.22,0,0
67011.1,53.7906,-1811.83,0,0
67271.5,53.2817,-1804.36,0,0
67531.8,53.0376,-1796.91,0,0
67792.1,52.6442,-1789.47,0,0
68052.4,52.4441,-1782.21,0,0
68312.8,52.2949,-1774.88,0,0
68573.1,52.1791,-1767.73,0,0
68833.4,51.933,-1760.59,0,0
69093.7,51.743,-1753.36,0,0
69354.1,51.6539,-1746.36,0,0
69614.4,51.5536,-1739.35,0,0
69874.7,51.4356,-1732.45,0,0
70135,51.3514,-1725.56,0,0
70395.4,51.2362,-1718.68,0,0
70655.7,51.2402,-1711.79,0,0
70916,51.329,-1705.18,0,0
71176.3,51.2713,-1698.53,0,0
71436.7,51.2082,-1692.16,0,0
71697,50.9116,-1685.73,0,0
71957.3,50.8189,-1679.31,0,0
72217.6,50.4902,-1672.85,0,0
72478,50.3647,-1666.47,0,0
72738.3,50.1054,-1660.09,0,0
72998.6,49.9329,-1653.69,0,0
73258.9,49.7405,-1647.29,0,0
73519.3,49.5935,-1640.98,0,0
73779.6,49.4618,-1634.71,0,0
74039.9,49.3086,-1628.44,0,0
74300.225,49.1656,-1622.23,0,0
74560.55,49.1275,-1616.1,0,0
74820.875,48.9494,-1609.94,0,0
75081.2,48.9669,-1603.9,0,0
75341.525,48.7948,-1597.87,0,0
75601.85,48.7016,-1591.96,0,0
75862.175,48.5616,-1586.05,0,0
76122.5,48.441,-1580.1,0,0
76382.825,48.3597,-1574.14,0,0
76643.15,48.2613,-1568.28,0,0
76903.475,48.2213,-1562.4,0,0
77163.8,48.1971,-1556.72,0,0
77424.125,48.1184,-1550.97,0,0
77684.45,48.079,-1545.29,0,0
77944.775,48.0113,-1539.66,0,0
78205.1,47.8726,-1534.08,0,0
78465.425,47.8607,-1528.41,0,0
78725.75,47.7685,-1522.89,0,0
78986.075,47.7363,-1517.37,0,0
79246.4,47.6571,-1511.8,0,0
79506.725,47.6679,-1506.41,0,0
79767.05,47.6771,-1501.01,0,0
80027.375,47.6449,-1495.62,0,0
80287.7,47.6062,-1490.35,0,0
80548.025,47.5109,-1485.03,0,0
80808.35,47.4621,-1479.84,0,0
81068.675,47.3388,-1474.57,0,0
81329.0,47.2503,-1469.31,0,0
81589.325,47.2174,-1464.1,0,0
81849.65,47.107,-1458.92,0,0
82109.975,47.0071,-1453.79,0,0
82370.3,47.0095,-1448.59,0,0
82630.625,46.9752,-1443.58,0,0
82890.95,46.8716,-1438.44,0,0
83151.275,46.8056,-1433.41,0,0
83411.6,46.7563,-1428.3,0,0
83671.925,46.7769,-1423.23,0,0
83932.25,46.809,-1418.25,0,0
84192.575,46.814,-1413.29,0,0
84452.9,46.8511,-1408.33,0,0
84713.225,46.9584,-1403.44,0,0
84973.55,47.0768,-1398.62,0,0
85233.875,47.1736,-1393.87,0,0
85494.2,47.0829,-1389.23,0,0
85754.525,47.124,-1384.43,0,0
86014.85,47.0918,-1379.66,0,0
86275.175,47.2444,-1375.05,0,0
86535.5,47.2862,-1370.47,0,0
86795.825,47.1721,-1365.86,0,0
87056.15,47.1333,-1361.15,0,0
87316.475,47.2482,-1356.59,0,0
87576.8,47.345,-1352.06,0,0
87837.125,47.4273,-1347.71,0,0
88097.45,47.3749,-1343.32,0,0
88357.775,47.2764,-1338.93,0,0
88618.1,47.1793,-1334.47,0,0
88878.425,47.0821,-1330,0,0
89138.75,46.8921,-1325.55,0,0
89399.075,46.7532,-1321.11,0,0
89659.4,46.6776,-1316.58,0,0
89919.725,46.6544,-1312.08,0,0
90180,46.6633,-1307.63,0,0
90440.4,46.7995,-1303.07,0,0
90700.7,46.8781,-1298.83,0,0
90961,46.8254,-1294.47,0,0
91221.3,46.8185,-1290.13,0,0
91481.7,46.8757,-1285.69,0,0
91742,46.9577,-1281.42,0,0
92002.3,47.0358,-1277.12,0,0
92262.6,47.1774,-1272.85,0,0
92523,47.2492,-1268.61,0,0
92783.3,47.1832,-1264.29,0,0
93043.6,47.1289,-1260,0,0
93303.9,47.3702,-1255.47,0,0
93564.3,47.899,-1250.96,0,0
93824.6,48.475,-1246.73,0,0
94084.9,49.2632,-1242.69,0,0
94345.2,49.8684,-1238.95,0,0
94605.6,50.5227,-1235.35,0,0
94865.9,50.912,-1231.98,0,0
95126.2,51.3143,-1228.87,0,0
95386.5,51.0634,-1225.94,0,0
95646.9,50.2119,-1222.46,0,0
95907.2,49.6765,-1218.47,0,0
96167.5,49.4528,-1214.48,0,0
96427.8,49.1786,-1210.56,0,0
96688.2,49.0406,-1206.53,0,0
96948.5,48.9259,-1202.36,0,0
97208.8,48.9431,-1198.35,0,0
97469.1,49.0158,-1194.24,0,0
97729.5,49.2851,-1190.27,0,0
97989.8,49.5839,-1186.45,0,0
98250.1,49.7756,-1182.75,0,0
98510.4,49.9543,-1179.16,0,0
98770.8,49.955,-1175.49,0,0
99031.1,49.991,-1171.81,0,0
99291.4,49.9906,-1168.16,0,0
99551.7,49.9901,-1164.33,0,0
99812.1,50.0373,-1160.73,0,0
100072,49.8532,-1156.91,0,0
100333,49.9376,-1152.81,0,0
100593,50.2084,-1148.89,0,0
100853,50.5652,-1145.06,0,0
101114,51.044,-1141.32,0,0
101374,51.378,-1137.9,0,0
101634,51.4111,-1134.16,0,0
101895,51.8169,-1130.33,0,0
102155,52.3289,-1126.77,0,0
102415,52.7934,-1123.32,0,0
102676,53.1608,-1119.85,0,0
102936,53.5722,-1116.35,0,0
103196,54.0774,-1112.9,0,0
103457,54.7128,-1109.54,0,0
103717,55.4339,-1106.54,0,0
103977,55.6149,-1103.76,0,0
104238,55.5749,-1100.5,0,0
104498,55.9895,-1097.15,0,0
104758,56.3975,-1094.28,0,0
105019,56.4514,-1091.43,0,0
105279,56.4306,-1088.32,0,0
105539,56.392,-1085.35,0,0
105800,56.1656,-1082.17,0,0
106060,56.152,-1078.81,0,0
106320.175,56.0365,-1075.69,0,0
106580.5,55.8381,-1072.1,0,0
106840.825,56.1661,-1068.38,0,0
107101.15,56.6337,-1065.18,0,0
107361.475,56.8143,-1061.97,0,0
107621.8,57.0353,-1058.81,0,0
107882.125,56.9974,-1055.61,0,0
108142.45,57.2269,-1052.15,0,0
108402.775,57.5607,-1048.88,0,0
108663.1,57.8459,-1045.66,0,0
108923.425,58.0663,-1042.57,0,0
109183.75,58.1944,-1039.39,0,0
109444.075,58.2759,-1036.25,0,0
109704.4,58.245,-1032.8,0,0
109964.725,58.3846,-1029.17,0,0
110225.05,58.7917,-1025.56,0,0
110485.375,59.3759,-1022.02,0,0
110745.7,59.9688,-1018.6,0,0
111006.025,60.7409,-1015.27,0,0
111266.35,61.2994,-1012.1,0,0
111526.675,61.8246,-1008.73,0,0
111787.0,62.616,-1005.28,0,0
112047.325,63.5168,-1001.86,0,0
112307.65,64.5182,-998.669,0,0
112567.975,65.5619,-995.515,0,0
112828.3,66.771,-992.468,0,0
113088.625,67.915,-989.467,0,0
113348.95,69.1936,-986.777,0,0
113609.275,70.1812,-984.208,0,0
113869.6,71.1166,-981.427,0,0
114129.925,72.1975,-978.641,0,0
114390.25,73.4954,-975.88,0,0
114650.575,74.9273,-973.378,0,0
114910.9,76.1265,-971.031,0,0
115171.225,77.3226,-968.538,0,0
115431.55,78.7378,-966.009,0,0
115691.875,80.536,-963.786,0,0
115952.2,82.2094,-961.849,0,0
116212.525,83.9922,-960.194,0,0
116472.85,85.6888,-958.938,0,0
116733.175,87.0461,-957.951,0,0
116993.5,88.207,-957.071,0,0
117253.825,89.0042,-956.201,0,0
117514.15,89.8953,-955.248,0,0
117774.475,90.4728,-954.557,0,0
118034.8,90.8716,-953.495,0,0
118295.125,91.6111,-952.423,0,0
118555.45,92.4595,-951.81,0,0
118815.775,93.0337,-951.473,0,0
119076.1,93.4548,-951.36,0,0
119336.425,93.5858,-951.528,0,0
119596.75,93.3464,-952.117,0,0
119857.075,92.0849,-952.705,0,0
120117.4,90.3616,-952.599,0,0
120377.725,88.6603,-952.453,0,0
120638.05,86.2772,-952.164,0,0
120898.375,83.5054,-951.157,0,0
121158.7,80.5965,-949.27,0,0
121419.025,78.3334,-946.782,0,0
121679.35,76.4756,-944.38,0,0
121939.675,74.7741,-941.945,0,0
122200.0,72.9333,-939.472,0,0
122460,71.3786,-936.633,0,0
122721,70.088,-933.976,0,0
122981,68.6746,-931.404,0,0
123241,67.168,-928.647,0,0
123502,65.8001,-925.63,0,0
123762,64.6493,-922.407,0,0
124022,63.9602,-919.2,0,0
124283,63.4305,-916.493,0,0
124543,62.5539,-913.836,0,0
124803,61.7064,-911.042,0,0
125064,60.9097,-908.308,0,0
125324,59.983,-905.468,0,0
125584,59.1782,-902.518,0,0
125845,58.5438,-899.54,0,0
126105,57.9495,-896.745,0,0
126365,57.256,-894.021,0,0
126626,56.4351,-891.126,0,0
126886,55.7504,-888.073,0,0
127146,55.0125,-885.157,0,0
127406,54.391,-881.851,0,0
127667,54.0278,-878.734,0,0
127927,53.7853,-875.707,0,0
128187,53.5968,-872.885,0,0
128448,53.2027,-870.087,0,0
128708,52.6919,-867.192,0,0
128968,52.2633,-864.116,0,0
129229,52.0613,-861.068,0,0
129489,51.867,-858.23,0,0
129749,51.4842,-855.36,0,0
130010,51.2468,-852.286,0,0
130270,51.1756,-849.286,0,0
130530,51.1441,-846.568,0,0
130791,50.8138,-843.946,0,0
131051,50.3704,-841.053,0,0
131311,49.9524,-838.006,0,0
131572,49.6942,-834.891,0,0
131832,49.5374,-831.728,0,0
132092,49.4895,-828.64,0,0
132353,49.4488,-825.585,0,0
132613,49.3578,-822.503,0,0
132873,49.4443,-819.399,0,0
133134,49.5086,-816.285,0,0
133394,49.6114,-813.141,0,0
133654,49.8444,-809.938,0,0
133915,50.1751,-806.76,0,0
134175,50.6586,-803.53,0,0
134435,51.3787,-800.463,0,0
134696,52.1246,-797.685,0,0
134956,52.7532,-794.967,0,0
135216,53.4875,-792.2,0,0
135477,54.4004,-789.633,0,0
135737,55.2741,-787.35,0,0
135997,55.8886,-785.164,0,0
136258,56.5509,-782.868,0,0
136518,57.4945,-780.789,0,0
136778,58.2575,-779.373,0,0
137039,58.2232,-778.116,0,0
137299,57.8803,-776.421,0,0
137559,57.4483,-774.523,0,0
137819,56.9278,-772.421,0,0
138080,56.4396,-770.186,0,0
138340.125,55.8034,-767.864,0,0
138600.45,55.1917,-765.158,0,0
138860.775,54.8057,-762.221,0,0
139121.1,54.7933,-759.344,0,0
139381.425,54.7175,-756.72,0,0
139641.75,54.5092,-753.95,0,0
139902.075,54.5123,-751.024,0,0
140162.4,54.6863,-748.33,0,0
140422.725,54.7316,-745.671,0,0
140683.05,54.7474,-743.017,0,0
140943.375,54.7077,-740.305,0,0
141203.7,54.6978,-737.558,0,0
141464.025,54.6509,-734.758,0,0
141724.35,54.6783,-731.757,0,0
141984.675,54.9632,-728.823,0,0
142245.0,55.191,-726.065,0,0
142505.325,55.3461,-723.199,0,0
142765.65,55.6043,-720.225,0,0
143025.975,56.0632,-717.267,0,0
143286.3,56.6098,-714.437,0,0
143546.625,57.1506,-711.732,0,0
143806.95,57.6842,-709.029,0,0
144067.275,58.2655,-706.433,0,0
144327.6,58.792,-703.913,0,0
144587.925,59.2984,-701.506,0,0
144848.25,59.7027,-699.09,0,0
145108.575,60.0944,-696.754,0,0
145368.9,60.2383,-694.488,0,0
145629.225,60.2083,-691.994,0,0
145889.55,60.2711,-689.214,0,0
146149.875,60.5382,-686.391,0,0
146410.2,60.949,-683.71,0,0
146670.525,61.225,-681.085,0,0
146930.85,61.5452,-678.346,0,0
147191.175,61.9852,-675.726,0,0
147451.5,62.2145,-673.145,0,0
147711.825,62.5399,-670.365,0,0
147972.15,63.0638,-667.698,0,0
148232.475,63.4963,-665.299,0,0
148492.8,63.7181,-662.904,0,0
148753.125,63.7287,-660.442,0,0
149013.45,63.6379,-657.787,0,0
149273.775,63.5366,-654.937,0,0
149534.1,63.5893,-651.957,0,0
149794.425,63.6551,-648.996,0,0
150054.75,63.6937,-645.931,0,0
150315.075,63.7509,-642.793,0,0
150575.4,63.8612,-639.533,0,0
150835.725,64.0259,-636.158,0,0
151096.05,64.3088,-632.674,0,0
151356.375,64.742,-629.201,0,0
151616.7,65.2138,-625.73,0,0
151877.025,65.7455,-622.187,0,0
152137.35,66.3671,-618.585,0,0
152397.675,67.105,-614.964,0,0
152658.0,67.9091,-611.375,0,0
152918.325,68.7994,-607.713,0,0
153178.65,69.8149,-604.06,0,0
153438.975,70.9101,-600.491,0,0
153699.3,71.9968,-596.909,0,0
153959.625,73.1429,-593.282,0,0
154219.95,74.3627,-589.603,0,0
154480,75.696,-585.893,0,0
154741,77.1314,-582.198,0,0
155001,78.7022,-578.461,0,0
155261,80.4285,-574.752,0,0
155522,82.2724,-571.113,0,0
155782,84.2004,-567.552,0,0
156042,86.1891,-564.095,0,0
156303,88.2186,-560.622,0,0
156563,90.394,-557.151,0,0
156823,92.663,-553.813,0,0
157084,95.0191,-550.484,0,0
157344,97.5727,-547.248,0,0
157604,100.317,-544.194,0,0
157864,103.102,-541.536,0,0
158125,105.674,-539.049,0,0
158385,108.215,-536.585,0,0
158645,110.827,-534.335,0,0
158906,113.337,-532.401,0,0
159166,115.517,-530.798,0,0
159426,117.143,-529.24,0,0
159687,118.343,-527.457,0,0
159947,119.257,-525.406,0,0
160207,119.88,-522.914,0,0
160468,120.571,-519.89,0,0
160728,121.446,-516.681,0,0
160988,122.17,-513.234,0,0
161249,122.913,-509.267,0,0
161509,123.951,-504.708,0,0
161769,125.636,-499.857,0,0
162030,127.695,-494.971,0,0
162290,130.26,-489.981,0,0
162550,133.171,-485.341,0,0
162811,135.884,-480.608,0,0
163071,138.992,-475.38,0,0
163331,142.818,-470.139,0,0
163592,147.098,-465.089,0,0
163852,151.746,-460.517,0,0
164112,156.475,-456.126,0,0
164373,161.517,-451.757,0,0
164633,166.822,-447.696,0,0
164893,172.024,-444.141,0,0
165154,176.673,-440.47,0,0
165414,181.438,-436.033,0,0
165674,186.776,-431.288,0,0
165935,192.718,-426.32,0,0
166195,199.414,-421.193,0,0
166455,207.066,-416.106,0,0
166716,215.573,-411.42,0,0
166976,224.749,-407.357,0,0
167236,234.584,-403.752,0,0
167497,245.099,-400.744,0,0
167757,256.266,-398.647,0,0
168017,267.708,-397.355,0,0
168277,279.56,-396.724,0,0
168538,292.076,-396.987,0,0
168798,305.072,-398.609,0,0
169058,318.144,-401.738,0,0
169319,330.876,-406.348,0,0
169579,342.747,-411.911,0,0
169839,354.256,-418.187,0,0
170100,365.598,-425.261,0,0
170360.075,377.08,-433.453,0,0
170620.4,387.759,-443.609,0,0
170880.725,396.87,-454.795,0,0
171141.05,404.823,-466.518,0,0
171401.375,411.587,-478.973,0,0
171661.7,416.975,-491.729,0,0
171922.025,421.22,-504.524,0,0
172182.35,424.92,-517.414,0,0
172442.675,427.857,-531.295,0,0
172703.0,429.138,-545.879,0,0
172963.325,428.501,-560.855,0,0
173223.65,425.841,-575.521,0,0
173483.975,421.392,-589.9,0,0
173744.3,414.454,-603.76,0,0
174004.625,404.808,-615.449,0,0
174264.95,394.344,-623.69,0,0
174525.275,384.905,-630.079,0,0
174785.6,374.927,-635.942,0,0
175045.925,364.314,-639.146,0,0
175306.25,355.185,-640.61,0,0
175566.575,346.002,-641.446,0,0
175826.9,337.209,-639.172,0,0
176087.225,331.896,-635.203,0,0
176347.55,328.901,-632.584,0,0
176607.875,326.259,-630.427,0,0
176868.2,324.736,-627.915,0,0
177128.525,324.995,-626.001,0,0
177388.85,326,-625.637,0,0
177649.175,326.88,-625.604,0,0
177909.5,329.251,-625.999,0,0
178169.825,332.69,-628.322,0,0
178430.15,336.267,-633.175,0,0
178690.475,338.412,-640.509,0,0
178950.8,338.401,-649.39,0,0
179211.125,335.601,-658.798,0,0
179471.45,330.203,-667.489,0,0
179731.775,322.655,-674.485,0,0
179992.1,314.631,-678.766,0,0
180252.425,307.502,-681.71,0,0
180512.75,301.08,-684.283,0,0
180773.075,295.223,-686.792,0,0
181033.4,289.247,-690.334,0,0
181293.725,281.582,-693.778,0,0
181554.05,273.081,-695.701,0,0
181814.375,265.042,-696.482,0,0
182074.7,257.287,-697.328,0,0
182335.025,248.696,-698,0,0
182595.35,239.293,-697.447,0,0
182855.675,229.94,-695.159,0,0
183116.0,221.658,-691.467,0,0
183376.325,214.651,-687.565,0,0
183636.65,207.933,-683.719,0,0
183896.975,201.507,-679.336,0,0
184157.3,195.786,-674.656,0,0
184417.625,190.535,-669.694,0,0
184677.95,186.19,-664.506,0,0
184938.275,182.558,-659.957,0,0
185198.6,178.822,-656.06,0,0
185458.925,174.597,-652.188,0,0
185719.25,169.986,-647.74,0,0
185979.575,165.757,-642.369,0,0
186239.9,162.402,-636.77,0,0
186500,159.525,-631.371,0,0
186761,156.867,-626.007,0,0
187021,154.4,-620.493,0,0
187281,152.443,-614.605,0,0
187542,151.309,-608.986,0,0
187802,150.632,-603.839,0,0
188062,150.123,-599.234,0,0
188322,149.477,-595.068,0,0
188583,148.814,-591.128,0,0
188843,147.856,-587.336,0,0
189103,146.78,-583.47,0,0
189364,145.67,-579.528,0,0
189624,144.507,-575.632,0,0
189884,143.153,-571.495,0,0
190145,142.09,-567.155,0,0
190405,141.049,-562.979,0,0
190665,139.74,-558.609,0,0
190926,138.475,-553.662,0,0
191186,137.859,-548.286,0,0
191446,137.933,-543.169,0,0
191707,138.186,-538.6,0,0
191967,138.155,-534.32,0,0
192227,137.861,-529.816,0,0
192488,137.672,-525,0,0
192748,137.654,-519.967,0,0
193008,138.057,-514.735,0,0
193269,138.892,-509.669,0,0
193529,139.83,-504.831,0,0
193789,140.89,-500.021,0,0
194050,142.056,-495.363,0,0
194310,143.219,-490.653,0,0
194570,144.629,-485.832,0,0
194831,146.31,-481.085,0,0
195091,148.235,-476.509,0,0
195351,150.328,-472.176,0,0
195612,152.403,-468.017,0,0
195872,154.6,-463.844,0,0
196132,156.938,-459.905,0,0
196393,159.271,-456.361,0,0
196653,161.471,-452.816,0,0
196913,163.755,-449.165,0,0
197174,166.148,-445.763,0,0
197434,168.584,-442.656,0,0
197694,170.549,-439.796,0,0
197955,172.231,-436.766,0,0
198215,174.01,-433.435,0,0
198475,175.695,-430.17,0,0
198735,177.307,-426.814,0,0
198996,178.945,-423.368,0,0
199256,180.373,-419.758,0,0
199516,181.692,-415.77,0,0
199777,183.222,-411.332,0,0
200037,185.124,-406.653,0,0
200297,187.367,-401.801,0,0
200558,189.977,-396.87,0,0
200818,192.958,-392.175,0,0
201078,195.999,-387.606,0,0
201339,199.039,-382.786,0,0
201599,202.366,-377.842,0,0
201859,206.048,-372.697,0,0
202120,210.267,-367.518,0,0
202380.025,214.783,-362.631,0,0
202640.35,219.611,-357.802,0,0
202900.675,224.771,-353.031,0,0
203161.0,230.316,-348.514,0,0
203421.325,236.02,-344.441,0,0
203681.65,241.817,-340.421,0,0
203941.975,247.776,-336.553,0,0
204202.3,253.959,-332.735,0,0
204462.625,260.372,-329.108,0,0
204722.95,266.853,-325.594,0,0
204983.275,273.493,-321.837,0,0
205243.6,280.946,-317.787,0,0
205503.925,289.519,-314.249,0,0
205764.25,298.714,-311.788,0,0
206024.575,308.005,-310.252,0,0
206284.9,317.241,-309.524,0,0
206545.225,326.392,-309.746,0,0
206805.55,334.962,-310.858,0,0
207065.875,342.613,-312.441,0,0
207326.2,349.527,-313.891,0,0
207586.525,355.813,-315.178,0,0
207846.85,361.44,-315.944,0,0
208107.175,367.122,-315.542,0,0
208367.5,373.591,-314.4,0,0
208627.825,380.864,-313.099,0,0
208888.15,388.817,-311.493,0,0
209148.475,398.294,-309.805,0,0
209408.8,409.325,-308.902,0,0
209669.125,421.413,-309.313,0,0
209929.45,434.299,-311.398,0,0
210189.775,447.35,-315.418,0,0
210450.1,460.13,-320.979,0,0
210710.425,472.303,-328.372,0,0
210970.75,483.203,-337.161,0,0
211231.075,492.644,-346.754,0,0
211491.4,500.763,-356.747,0,0
211751.725,508.014,-366.657,0,0
212012.05,514.795,-377.045,0,0
212272.375,520.409,-388.038,0,0
212532.7,524.637,-398.972,0,0
212793.025,527.907,-409.448,0,0
213053.35,530.576,-419.457,0,0
213313.675,532.757,-429.106,0,0
213574.0,534.752,-438.305,0,0
213834.325,536.773,-447.451,0,0
214094.65,538.704,-457.018,0,0
214354.975,539.831,-467.106,0,0
214615.3,539.656,-477.064,0,0
214875.625,538.813,-486.148,0,0
215135.95,537.91,-494.683,0,0
215396.275,536.896,-502.842,0,0
215656.6,535.801,-510.807,0,0
215916.925,534.805,-518.463,0,0
216177.25,533.968,-526.455,0,0
216437.575,532.932,-534.788,0,0
216697.9,531.498,-543.602,0,0
216958.225,529.032,-552.842,0,0
217218.55,525.488,-561.872,0,0
217478.875,521.021,-570.379,0,0
217739.2,515.894,-577.983,0,0
217999.525,510.803,-584.855,0,0
218259.85,505.85,-591.632,0,0
218520,500.327,-598.843,0,0
218780,493.47,-605.771,0,0
219041,485.55,-611.64,0,0
219301,477.016,-616.167,0,0
219561,468.3,-619.405,0,0
219822,459.544,-621.239,0,0
220082,451.304,-621.48,0,0
220342,444.043,-620.744,0,0
220603,437.828,-619.585,0,0
220863,432.328,-618.242,0,0
221123,427.313,-616.667,0,0
221384,422.729,-614.713,0,0
221644,418.88,-612.418,0,0
221904,415.755,-610.071,0,0
222165,413.32,-607.779,0,0
222425,411.348,-605.608,0,0
222685,410.034,-603.559,0,0
222946,409.067,-601.963,0,0
223206,408.298,-600.826,0,0
223466,407.528,-599.825,0,0
223727,406.87,-598.863,0,0
223987,406.509,-598.087,0,0
224247,406.144,-597.598,0,0
224508,405.618,-597.185,0,0
224768,404.935,-596.599,0,0
225028,404.407,-595.853,0,0
225289,404.083,-594.614,0,0
225549,404.286,-593.126,0,0
225809,405.337,-591.855,0,0
226070,406.945,-590.851,0,0
226330,409.03,-590.427,0,0
226590,411.359,-590.715,0,0
226851,413.533,-591.527,0,0
227111,415.704,-592.616,0,0
227371,417.947,-594.119,0,0
227632,420.077,-595.973,0,0
227892,422.262,-598.219,0,0
228152,424.236,-600.871,0,0
228413,425.956,-603.695,0,0
228673,427.72,-606.591,0,0
228933,429.677,-609.922,0,0
229193,431.549,-614.045,0,0
229454,432.714,-618.727,0,0
229714,433.237,-623.265,0,0
229974,433.631,-627.637,0,0
230235,434.422,-632.359,0,0
230495,435.014,-637.911,0,0
230755,434.604,-644.194,0,0
231016,433.087,-650.148,0,0
231276,431.163,-655.741,0,0
231536,428.975,-661.079,0,0
231797,426.661,-666.16,0,0
232057,424.593,-671.144,0,0
232317,422.644,-676.751,0,0
232578,420.154,-683.167,0,0
232838,416.523,-690.102,0,0
233098,411.54,-696.59,0,0
233359,406.025,-702.5,0,0
233619,399.98,-708.37,0,0
233879,392.879,-713.986,0,0
234140,384.644,-718.696,0,0
234400,375.953,-722.059,0,0
234660.3,367.129,-724.354,0,0
234920.625,358.332,-725.838,0,0
235180.95,349.381,-726.368,0,0
235441.275,340.517,-725.608,0,0
235701.6,332.396,-723.623,0,0
235961.925,325.307,-721.021,0,0
236222.25,319.064,-718.286,0,0
236482.575,313.505,-715.336,0,0
236742.9,308.874,-712.348,0,0
237003.225,304.947,-710.066,0,0
237263.55,300.978,-708.417,0,0
237523.875,296.693,-706.852,0,0
237784.2,292.049,-705.516,0,0
238044.525,286.783,-703.891,0,0
238304.85,281.116,-701.315,0,0
238565.175,275.778,-697.714,0,0
238825.5,271.244,-693.389,0,0
239085.825,267.512,-688.784,0,0
239346.15,264.713,-683.947,0,0
239606.475,262.81,-679.4,0,0
239866.8,261.613,-675.187,0,0
240127.125,261.024,-671.58,0,0
240387.45,260.965,-668.622,0,0
240647.775,260.955,-666.685,0,0
240908.1,260.5,-665.632,0,0
241168.425,259.217,-664.962,0,0
241428.75,257.389,-664.14,0,0
241689.075,255.199,-663.169,0,0
241949.4,252.775,-662.152,0,0
242209.725,249.675,-660.959,0,0
242470.05,246.122,-658.862,0,0
242730.375,242.844,-655.872,0,0
242990.7,240.299,-652.443,0,0
243251.025,238.106,-649.001,0,0
243511.35,236.081,-645.519,0,0
243771.675,234.263,-641.647,0,0
244032.0,233.073,-637.307,0,0
244292.325,232.702,-632.963,0,0
244552.65,233.163,-628.957,0,0
244812.975,234.229,-625.612,0,0
245073.3,235.417,-623.215,0,0
245333.625,236.331,-621.431,0,0
245593.95,236.893,-619.919,0,0
245854.275,237.232,-618.592,0,0
246114.6,237.26,-617.341,0,0
246374.925,237.08,-616.063,0,0
246635.25,236.887,-614.773,0,0
246895.575,236.441,-613.547,0,0
247155.9,235.725,-612.209,0,0
247416.225,234.849,-610.577,0,0
247676.55,234.009,-608.668,0,0
247936.875,233.302,-606.531,0,0
248197.2,232.812,-604.241,0,0
248457.525,232.554,-601.827,0,0
248717.85,232.463,-599.489,0,0
248978.175,232.498,-597.193,0,0
249238.5,232.553,-594.818,0,0
249498.825,232.82,-592.392,0,0
249759.15,233.19,-589.953,0,0
250019.475,233.736,-587.438,0,0
250279.8,234.56,-584.864,0,0
250540,235.676,-582.422,0,0
250800,236.989,-580.053,0,0
251061,238.55,-577.794,0,0
251321,240.317,-575.689,0,0
251581,242.302,-573.776,0,0
251842,244.449,-572.051,0,0
252102,246.824,-570.512,0,0
252362,249.413,-569.288,0,0
252623,252.126,-568.405,0,0
252883,254.979,-567.807,0,0
253143,257.976,-567.692,0,0
253404,260.983,-568.085,0,0
253664,263.788,-568.985,0,0
253924,266.371,-570.321,0,0
254185,268.564,-572.068,0,0
254445,270.35,-574.082,0,0
254705,271.724,-576.263,0,0
254966,272.68,-578.594,0,0
255226,273.211,-580.852,0,0
255486,273.351,-583.128,0,0
255747,273.153,-585.303,0,0
256007,272.538,-587.256,0,0
256267,271.803,-588.942,0,0
256528,270.884,-590.447,0,0
256788,269.906,-591.898,0,0
257048,268.654,-593.225,0,0
257309,267.17,-594.265,0,0
257569,265.641,-594.951,0,0
257829,264.096,-595.371,0,0
258090,262.595,-595.495,0,0
258350,261.271,-595.305,0,0
258610,260.276,-594.977,0,0
258871,259.546,-594.763,0,0
259131,258.879,-594.79,0,0
259391,258.04,-594.926,0,0
259651,257.058,-595.034,0,0
259912,255.918,-594.96,0,0
260172,254.771,-594.709,0,0
260432,253.652,-594.256,0,0
260693,252.537,-593.698,0,0
260953,251.423,-592.951,0,0
261213,250.422,-592,0,0
261474,249.578,-590.819,0,0
261734,248.875,-589.454,0,0
261994,248.475,-587.849,0,0
262255,248.458,-586.089,0,0
262515,248.939,-584.285,0,0
262775,249.957,-582.591,0,0
263036,251.535,-581.227,0,0
263296,253.493,-580.492,0,0
263556,255.451,-580.337,0,0
263817,257.396,-580.689,0,0
264077,259.187,-581.52,0,0
264337,260.649,-582.829,0,0
264598,261.68,-584.426,0,0
264858,262.207,-586.059,0,0
265118,262.47,-587.63,0,0
265379,262.425,-589.064,0,0
265639,262.243,-590.346,0,0
265899,261.948,-591.425,0,0
266160,261.757,-592.317,0,0
266420,261.688,-593.272,0,0
266680.25,261.724,-594.319,0,0
266940.575,261.786,-595.592,0,0
267200.9,261.692,-597.094,0,0
267461.225,261.306,-598.846,0,0
267721.55,260.543,-600.631,0,0
267981.875,259.338,-602.264,0,0
268242.2,257.82,-603.654,0,0
268502.525,256.021,-604.723,0,0
268762.85,254.089,-605.182,0,0
269023.175,252.384,-605.074,0,0
269283.5,251.157,-604.644,0,0
269543.825,250.356,-604.182,0,0
269804.15,249.85,-603.809,0,0
270064.475,249.529,-603.487,0,0
270324.8,249.325,-603.081,0,0
270585.125,249.528,-602.555,0,0
270845.45,250.233,-602.145,0,0
271105.775,251.444,-602.033,0,0
271366.1,253.085,-602.426,0,0
271626.425,255.127,-603.477,0,0
271886.75,257.253,-605.177,0,0
272147.075,259.466,-607.826,0,0
272407.4,261.453,-611.484,0,0
272667.725,262.707,-616.114,0,0
272928.05,263.1,-621.359,0,0
273188.375,262.461,-627.023,0,0
273448.7,260.708,-632.962,0,0
273709.025,257.769,-638.749,0,0
273969.35,253.862,-644.062,0,0
274229.675,249.236,-648.839,0,0
274490.0,244.075,-653.1,0,0
274750.325,238.414,-656.857,0,0
275010.65,232.142,-660.265,0,0
275270.975,225.187,-662.903,0,0
275531.3,217.747,-664.533,0,0
275791.625,210.227,-665.127,0,0
276051.95,202.842,-664.89,0,0
276312.275,195.575,-663.945,0,0
276572.6,188.509,-662.273,0,0
276832.925,181.691,-659.924,0,0
277093.25,175.202,-656.922,0,0
277353.575,169.136,-653.29,0,0
277613.9,163.602,-649.073,0,0
277874.225,158.704,-644.449,0,0
278134.55,154.499,-639.552,0,0
278394.875,150.991,-634.492,0,0
278655.2,148.13,-629.451,0,0
278915.525,145.839,-624.573,0,0
279175.85,143.919,-619.848,0,0
279436.175,142.33,-615.287,0,0
279696.5,141.079,-610.759,0,0
279956.825,140.226,-606.427,0,0
280217.15,139.679,-602.261,0,0
280477.475,139.437,-598.354,0,0
280737.8,139.439,-594.77,0,0
280998.125,139.558,-591.521,0,0
281258.45,139.742,-588.64,0,0
281518.775,139.83,-586.078,0,0
281779.1,139.694,-583.732,0,0
282039.425,139.353,-581.447,0,0
282299.75,138.807,-579.146,0,0
282560,138.077,-576.675,0,0
282820,137.317,-573.95,0,0
283081,136.691,-570.96,0,0
283341,136.274,-567.81,0,0
283601,136.114,-564.554,0,0
283862,136.228,-561.26,0,0
284122,136.662,-558.036,0,0
284382,137.326,-554.955,0,0
284643,138.169,-552.013,0,0
284903,139.17,-549.172,0,0
285163,140.405,-546.526,0,0
285424,141.758,-544.126,0,0
285684,143.189,-541.968,0,0
285944,144.632,-540.009,0,0
286205,146.128,-538.27,0,0
286465,147.658,-536.8,0,0
286725,149.083,-535.603,0,0
286986,150.328,-534.656,0,0
287246,151.367,-533.878,0,0
287506,152.089,-533.183,0,0
287767,152.566,-532.411,0,0
288027,152.841,-531.521,0,0
288287,153.006,-530.467,0,0
288548,153.121,-529.241,0,0
288808,153.225,-527.84,0,0
289068,153.427,-526.261,0,0
289329,153.734,-524.611,0,0
289589,154.134,-522.938,0,0
289849,154.601,-521.2,0,0
290109,155.105,-519.407,0,0
290370,155.752,-517.492,0,0
290630,156.591,-515.547,0,0
290890,157.628,-513.615,0,0
291151,158.872,-511.801,0,0
291411,160.252,-510.152,0,0
291671,161.636,-508.7,0,0
291932,162.964,-507.358,0,0
292192,164.238,-505.993,0,0
292452,165.572,-504.605,0,0
292713,166.988,-503.236,0,0
292973,168.464,-501.93,0,0
293233,169.993,-500.683,0,0
293494,171.552,-499.455,0,0
293754,173.193,-498.308,0,0
294014,174.838,-497.252,0,0
294275,176.445,-496.213,0,0
294535,178.099,-495.105,0,0
294795,179.842,-493.996,0,0
295056,181.734,-492.89,0,0
295316,183.758,-491.841,0,0
295576,185.871,-490.914,0,0
295837,188.08,-490.078,0,0
296097,190.37,-489.315,0,0
296357,192.739,-488.622,0,0
296618,195.235,-488.026,0,0
296878,197.843,-487.546,0,0
297138,200.562,-487.223,0,0
297399,203.348,-487.063,0,0
297659,206.215,-487.069,0,0
297919,209.147,-487.253,0,0
298180,212.132,-487.631,0,0
298440,215.134,-488.236,0,0
298700.2,218.124,-489.023,0,0
298960.525,221.076,-489.952,0,0
299220.85,223.969,-491.028,0,0
299481.175,226.898,-492.222,0,0
299741.5,229.937,-493.555,0,0
300001.825,233.073,-495.175,0,0
300262.15,236.273,-496.972,0,0
300522.475,239.422,-499.031,0,0
300782.8,242.572,-501.276,0,0
301043.125,245.814,-503.832,0,0
301303.45,249.082,-506.816,0,0
301563.775,252.399,-510.271,0,0
301824.1,255.597,-514.126,0,0
302084.425,258.607,-518.669,0,0
302344.75,261.238,-523.646,0,0
302605.075,263.523,-529.362,0,0
302865.4,265.145,-535.632,0,0
303125.725,265.837,-542.289,0,0
303386.05,265.496,-549.085,0,0
303646.375,264.141,-555.668,0,0
303906.7,262.022,-561.822,0,0
304167.025,259.305,-567.413,0,0
304427.35,256.218,-572.47,0,0
304687.675,252.867,-577.046,0,0
304948.0,249.393,-581.162,0,0
305208.325,245.828,-584.958,0,0
305468.65,242.177,-588.566,0,0
305728.975,238.304,-591.918,0,0
305989.3,234.193,-594.975,0,0
306249.625,229.892,-597.673,0,0
306509.95,225.49,-599.969,0,0
306770.275,221.068,-601.832,0,0
307030.6,216.727,-603.389,0,0
307290.925,212.412,-604.699,0,0
307551.25,208.137,-605.769,0,0
307811.575,203.841,-606.595,0,0
308071.9,199.596,-607.177,0,0
308332.225,195.382,-607.493,0,0
308592.55,191.208,-607.558,0,0
308852.875,187.111,-607.345,0,0
309113.2,183.118,-606.863,0,0
309373.525,179.308,-606.118,0,0
309633.85,175.712,-605.166,0,0
309894.175,172.339,-604.045,0,0
310154.5,169.2,-602.852,0,0
310414.825,166.282,-601.622,0,0
310675.15,163.518,-600.397,0,0
310935.475,160.86,-599.13,0,0
311195.8,158.331,-597.853,0,0
311456.125,155.955,-596.545,0,0
311716.45,153.669,-595.272,0,0
311976.775,151.485,-594.028,0,0
312237.1,149.347,-592.818,0,0
312497.425,147.221,-591.64,0,0
312757.75,145.107,-590.465,0,0
313018.075,142.955,-589.224,0,0
313278.4,140.804,-587.93,0,0
313538.725,138.687,-586.547,0,0
313799.05,136.594,-585.067,0,0
314059.375,134.566,-583.467,0,0
314319.7,132.624,-581.765,0,0
314580,130.798,-579.987,0,0
314840,129.136,-578.11,0,0
315101,127.608,-576.179,0,0
315361,126.245,-574.253,0,0
315621,125.039,-572.338,0,0
315882,123.98,-570.474,0,0
316142,123.04,-568.669,0,0
316402,122.173,-566.92,0,0
316663,121.383,-565.258,0,0
316923,120.644,-563.633,0,0
317183,119.977,-562.074,0,0
317444,119.319,-560.579,0,0
317704,118.717,-559.104,0,0
317964,118.153,-557.684,0,0
318225,117.579,-556.301,0,0
318485,117.033,-554.93,0,0
318745,116.544,-553.556,0,0
319006,116.077,-552.22,0,0
319266,115.715,-550.896,0,0
319526,115.423,-549.659,0,0
319787,115.177,-548.5,0,0
320047,114.913,-547.427,0,0
320307,114.654,-546.428,0,0
320567,114.374,-545.479,0,0
320828,114.074,-544.568,0,0
321088,113.735,-543.693,0,0
321348,113.401,-542.849,0,0
321609,113.012,-542.018,0,0
321869,112.623,-541.162,0,0
322129,112.236,-540.34,0,0
322390,111.863,-539.523,0,0
322650,111.48,-538.718,0,0
322910,111.094,-537.921,0,0
323171,110.705,-537.153,0,0
323431,110.318,-536.384,0,0
323691,109.904,-535.632,0,0
323952,109.5,-534.87,0,0
324212,109.076,-534.105,0,0
324472,108.645,-533.332,0,0
324733,108.249,-532.537,0,0
324993,107.875,-531.725,0,0
325253,107.531,-530.915,0,0
325514,107.247,-530.11,0,0
325774,107.011,-529.329,0,0
326034,106.824,-528.602,0,0
326295,106.672,-527.948,0,0
326555,106.529,-527.357,0,0
326815,106.386,-526.851,0,0
327076,106.222,-526.432,0,0
327336,106.019,-526.102,0,0
327596,105.719,-525.825,0,0
327857,105.352,-525.558,0,0
328117,104.901,-525.307,0,0
328377,104.372,-525.035,0,0
328638,103.823,-524.748,0,0
328898,103.221,-524.436,0,0
329158,102.611,-524.104,0,0
329419,101.947,-523.761,0,0
329679,101.285,-523.409,0,0
329939,100.59,-523.028,0,0
330200,99.8671,-522.62,0,0
330460,99.1575,-522.244,0,0
330720.15,98.4742,-521.865,0,0
330980.475,97.6621,-521.503,0,0
331240.8,96.878,-521.047,0,0
331501.125,96.085,-520.699,0,0
331761.45,95.191,-520.33,0,0
332021.775,94.209,-519.893,0,0
332282.1,93.2495,-519.391,0,0
332542.425,92.2513,-518.846,0,0
332802.75,91.2012,-518.277,0,0
333063.075,90.1834,-517.688,0,0
333323.4,89.0659,-517.057,0,0
333583.725,88.0221,-516.254,0,0
333844.05,86.9454,-515.507,0,0
334104.375,85.8574,-514.673,0,0
334364.7,84.7858,-513.753,0,0
334625.025,83.8095,-512.824,0,0
334885.35,82.8316,-511.821,0,0
335145.675,81.8176,-510.769,0,0
335406.0,80.8827,-509.815,0,0
335666.325,80.0135,-508.777,0,0
335926.65,78.9702,-507.723,0,0
336186.975,78.1097,-506.564,0,0
336447.3,77.1965,-505.485,0,0
336707.625,76.3061,-504.259,0,0
336967.95,75.4351,-503.006,0,0
337228.275,74.6497,-501.734,0,0
337488.6,73.9163,-500.476,0,0
337748.925,73.1604,-499.174,0,0
338009.25,72.5218,-497.817,0,0
338269.575,71.8294,-496.518,0,0
338529.9,71.2698,-495.212,0,0
338790.225,70.6843,-493.91,0,0
339050.55,70.1055,-492.575,0,0
339310.875,69.6302,-491.303,0,0
339571.2,69.0947,-490.012,0,0
339831.525,68.5879,-488.649,0,0
340091.85,68.1569,-487.348,0,0
340352.175,67.6262,-485.965,0,0
340612.5,67.1956,-484.615,0,0
340872.825,66.8471,-483.216,0,0
341133.15,66.5187,-481.771,0,0
341393.475,66.1262,-480.436,0,0
341653.8,65.812,-478.969,0,0
341914.125,65.5715,-477.585,0,0
342174.45,65.3428,-476.142,0,0
342434.775,65.2343,-474.758,0,0
342695.1,65.0979,-473.308,0,0
342955.425,64.9997,-471.969,0,0
343215.75,64.9419,-470.576,0,0
343476.075,64.8846,-469.234,0,0
343736.4,65.0138,-467.829,0,0
343996.725,65.1286,-466.519,0,0
344257.05,65.2919,-465.228,0,0
344517.375,65.4237,-463.98,0,0
344777.7,65.6263,-462.824,0,0
345038.025,65.8498,-461.716,0,0
345298.35,66.1158,-460.661,0,0
345558.675,66.3607,-459.574,0,0
345819.0,66.55,-458.67,0,0
346079.325,66.7875,-457.776,0,0
346339.65,66.9831,-456.902,0,0
346599.975,67.1291,-456.111,0,0
346860,67.2299,-455.34,0,0
347121,67.2521,-454.594,0,0
347381,67.2322,-453.856,0,0
347641,67.1745,-453.053,0,0
347902,67.0544,-452.346,0,0
348162,66.8824,-451.487,0,0
348422,66.7149,-450.688,0,0
348683,66.4739,-449.756,0,0
348943,66.2549,-448.795,0,0
349203,66.1115,-447.818,0,0
349464,65.9356,-446.754,0,0
349724,65.8427,-445.685,0,0
349984,65.7293,-444.653,0,0
350245,65.6073,-443.558,0,0
350505,65.4259,-442.442,0,0
350765,65.3383,-441.318,0,0
351025,65.3064,-440.101,0,0
351286,65.2825,-438.858,0,0
351546,65.317,-437.62,0,0
351806,65.4079,-436.328,0,0
352067,65.6063,-435.041,0,0
352327,65.8554,-433.753,0,0
352587,66.117,-432.548,0,0
352848,66.507,-431.314,0,0
353108,66.9384,-430.181,0,0
353368,67.3966,-429.029,0,0
353629,67.9111,-428.027,0,0
353889,68.4802,-427.051,0,0
354149,69.0023,-426.142,0,0
354410,69.5614,-425.274,0,0
354670,70.1277,-424.473,0,0
354930,70.6827,-423.736,0,0
355191,71.2115,-423.076,0,0
355451,71.7589,-422.473,0,0
355711,72.2675,-421.988,0,0
355972,72.6727,-421.496,0,0
356232,73.0579,-421.112,0,0
356492,73.3416,-420.73,0,0
356753,73.5411,-420.421,0,0
357013,73.642,-420.055,0,0
357273,73.6419,-419.66,0,0
357534,73.5598,-419.233,0,0
357794,73.4344,-418.776,0,0
358054,73.3114,-418.225,0,0
358315,73.046,-417.598,0,0
358575,72.8334,-416.892,0,0
358835,72.5789,-416.068,0,0
359096,72.3531,-415.149,0,0
359356,72.1658,-414.176,0,0
359616,72.0559,-413.127,0,0
359877,72.0034,-412.096,0,0
360137,72.0419,-410.979,0,0
360397,72.097,-409.865,0,0
360658,72.2239,-408.766,0,0
360918,72.3977,-407.592,0,0
361178,72.6349,-406.492,0,0
361438,72.8727,-405.347,0,0
361699,73.2391,-404.173,0,0
361959,73.6347,-403.095,0,0
362219,74.0657,-402.01,0,0
362480,74.6064,-400.954,0,0
362740.1,75.1455,-399.943,0,0
363000.425,75.6205,-399.006,0,0
363260.75,76.1772,-398.074,0,0
363521.075,76.7773,-397.136,0,0
363781.4,77.3521,-396.202,0,0
364041.725,77.9778,-395.338,0,0
364302.05,78.6292,-394.49,0,0
364562.375,79.315,-393.633,0,0
364822.7,80.0191,-392.887,0,0
365083.025,80.7746,-392.166,0,0
365343.35,81.5447,-391.481,0,0
365603.675,82.2475,-390.897,0,0
365864.0,83.0395,-390.318,0,0
366124.325,83.7724,-389.86,0,0
366384.65,84.4237,-389.39,0,0
366644.975,85.059,-388.964,0,0
366905.3,85.6251,-388.523,0,0
367165.625,86.2799,-388.105,0,0
367425.95,86.8877,-387.661,0,0
367686.275,87.5016,-387.233,0,0
367946.6,88.1619,-386.855,0,0
368206.925,88.8378,-386.507,0,0
368467.25,89.4586,-386.259,0,0
368727.575,90.0787,-385.973,0,0
368987.9,90.651,-385.745,0,0
369248.225,91.2426,-385.576,0,0
369508.55,91.8367,-385.507,0,0
369768.875,92.4108,-385.417,0,0
370029.2,92.8703,-385.458,0,0
370289.525,93.2121,-385.536,0,0
370549.85,93.517,-385.642,0,0
370810.175,93.6859,-385.739,0,0
371070.5,93.6931,-385.849,0,0
371330.825,93.5893,-385.85,0,0
371591.15,93.4228,-385.785,0,0
371851.475,93.19,-385.582,0,0
372111.8,92.912,-385.252,0,0
372372.125,92.632,-384.845,0,0
372632.45,92.3973,-384.268,0,0
372892.775,92.2289,-383.612,0,0
373153.1,92.1083,-382.919,0,0
373413.425,92.1174,-382.148,0,0
373673.75,92.1652,-381.359,0,0
373934.075,92.3458,-380.585,0,0
374194.4,92.5292,-379.823,0,0
374454.725,92.8267,-379.062,0,0
374715.05,93.1374,-378.361,0,0
374975.375,93.4555,-377.704,0,0
375235.7,93.8152,-377.066,0,0
375496.025,94.1759,-376.469,0,0
375756.35,94.5758,-375.897,0,0
376016.675,94.9128,-375.402,0,0
376277.0,95.2801,-374.849,0,0
376537.325,95.5574,-374.432,0,0
376797.65,95.8325,-373.976,0,0
377057.975,96.0521,-373.461,0,0
377318.3,96.2456,-372.933,0,0
377578.625,96.4211,-372.364,0,0
377838.95,96.591,-371.722,0,0
378099.275,96.7904,-371.049,0,0
378359.6,97.0134,-370.335,0,0
378619.925,97.3207,-369.586,0,0
378880,97.7061,-368.829,0,0
379141,98.0772,-368.085,0,0
379401,98.5642,-367.347,0,0
379661,99.0498,-366.622,0,0
379922,99.5581,-365.997,0,0
380182,100.126,-365.332,0,0
380442,100.598,-364.756,0,0
380703,101.187,-364.146,0,0
380963,101.75,-363.571,0,0
381223,102.251,-363.004,0,0
381483,102.772,-362.432,0,0
381744,103.366,-361.905,0,0
382004,103.933,-361.34,0,0
382264,104.48,-360.788,0,0
382525,105.054,-360.258,0,0
382785,105.656,-359.725,0,0
383045,106.278,-359.169,0,0
383306,106.893,-358.72,0,0
383566,107.545,-358.239,0,0
383826,108.181,-357.807,0,0
384087,108.799,-357.34,0,0
384347,109.464,-356.895,0,0
384607,110.113,-356.507,0,0
384868,110.811,-356.108,0,0
385128,111.45,-355.785,0,0
385388,112.054,-355.472,0,0
385649,112.619,-355.168,0,0
385909,113.145,-354.813,0,0
386169,113.671,-354.428,0,0
386430,114.29,-354.01,0,0
386690,114.868,-353.562,0,0
386950,115.483,-353.231,0,0
387211,116.089,-352.876,0,0
387471,116.632,-352.487,0,0
387731,117.13,-352.093,0,0
387992,117.698,-351.631,0,0
388252,118.252,-351.152,0,0
388512,118.834,-350.574,0,0
388773,119.522,-349.991,0,0
389033,120.244,-349.355,0,0
389293,121.082,-348.775,0,0
389554,122.031,-348.222,0,0
389814,122.988,-347.743,0,0
390074,124.012,-347.31,0,0
390335,125.082,-346.958,0,0
390595,126.163,-346.649,0,0
390855,127.174,-346.451,0,0
391116,128.174,-346.296,0,0
391376,129.172,-346.172,0,0
391636,130.131,-345.975,0,0
391896,131.104,-345.879,0,0
392157,132.075,-345.753,0,0
392417,133.045,-345.704,0,0
392677,133.99,-345.635,0,0
392938,134.94,-345.631,0,0
393198,135.878,-345.605,0,0
393458,136.786,-345.585,0,0
393719,137.603,-345.556,0,0
393979,138.457,-345.482,0,0
394239,139.272,-345.377,0,0
394500,140.14,-345.175,0,0
394760.05,141.09,-345.001,0,0
395020.375,142.065,-344.734,0,0
395280.7,143.172,-344.485,0,0
395541.025,144.297,-344.232,0,0
395801.35,145.569,-343.988,0,0
396061.675,146.91,-343.77,0,0
396322.0,148.344,-343.601,0,0
396582.325,149.91,-343.47,0,0
396842.65,151.548,-343.401,0,0
397102.975,153.297,-343.4,0,0
397363.3,155.198,-343.533,0,0
397623.625,157.141,-343.816,0,0
397883.95,159.239,-344.278,0,0
398144.275,161.398,-344.881,0,0
398404.6,163.556,-345.715,0,0
398664.925,165.751,-346.716,0,0
398925.25,168.007,-348.015,0,0
399185.575,170.224,-349.509,0,0
399445.9,172.368,-351.35,0,0
399706.225,174.421,-353.477,0,0
399966.55,176.291,-355.878,0,0
400006.6,176.558,-356.282,0,0