File: Accelerated corrosion test data/2025-10-18_18-00-03/sample_8.csv
Frequency (Hz),Impedance (ohms),Phase (Radians),Temperature (C),Humidity (%)
10000.0,311.015,-10961,0,0
10260.325,302.637,-10686.3,0,0
10520.65,295.629,-10425.1,0,0
10780.975,288.117,-10176.7,0,0
11041.3,281.591,-9939.17,0,0
11301.625,275.28,-9713.81,0,0
11561.95,269.355,-9496.8,0,0
11822.275,263.542,-9290.22,0,0
12082.6,262.28,-9090.94,0,0
12342.925,258.08,-8904.69,0,0
12603.25,253.334,-8723.3,0,0
12863.575,249.991,-8553.46,0,0
13123.9,241.084,-8388.43,0,0
13384.225,235.496,-8226.89,0,0
13644.55,232.719,-8071.68,0,0
13904.875,224.621,-7923.45,0,0
14165.2,220.296,-7779.47,0,0
14425.525,216.29,-7639.65,0,0
14685.8,211.895,-7505.12,0,0
14946.175,208.238,-7375.36,0,0
15206.5,204.701,-7250.05,0,0
15466.825,201.319,-7129.64,0,0
15727.15,198.293,-7012.9,0,0
15987.5,194.802,-6899.93,0,0
16247.8,192.023,-6790.25,0,0
16508.125,188.881,-6684.12,0,0
16768.45,185.731,-6581.33,0,0
17028.775,182.933,-6481.35,0,0
17289.1,180.268,-6384.31,0,0
17549.425,177.519,-6290.07,0,0
17809.75,175.742,-6198.03,0,0
18070.075,173.116,-6109.75,0,0
18330.4,170.235,-6023.04,0,0
18590.725,168.453,-5938.17,0,0
18851.05,169.49,-5854.88,0,0
19111.375,167.834,-5776.04,0,0
19371.7,169.138,-5700.82,0,0
19632.025,166.739,-5627.6,0,0
19892.35,163.332,-5556.87,0,0
20152.675,161.037,-5484.39,0,0
20413.0,161.054,-5414.79,0,0
20673.3,161.415,-5348.38,0,0
20933.65,157.292,-5285.62,0,0
21193.975,153.544,-5221.49,0,0
21454.3,151.168,-5157.33,0,0
21714.625,149.555,-5094.94,0,0
21974.9,148.902,-5035.49,0,0
22235.275,148.946,-4977.02,0,0
22495.6,147.677,-4921.03,0,0
22755.925,145.744,-4866.57,0,0
23016.25,144.335,-4812.1,0,0
23276.6,139.894,-4759.71,0,0
23536.9,137.459,-4706.67,0,0
23797.225,136.114,-4655.53,0,0
24057.55,134.015,-4604.81,0,0
24317.875,132.368,-4556.11,0,0
24578.2,130.61,-4507.22,0,0
24838.525,129.375,-4459.27,0,0
25098.85,128.063,-4413.44,0,0
25359.175,126.705,-4367.96,0,0
25619.5,126.052,-4322.95,0,0
25879.8,124.352,-4278.99,0,0
26140.1,123.788,-4236.93,0,0
26400.5,122.223,-4195.48,0,0
26660.8,120.755,-4153.67,0,0
26921.1,120.745,-4112.6,0,0
27181.4,120.472,-4073.95,0,0
27441.8,119.707,-4034.36,0,0
27702.1,118.638,-3997.5,0,0
27962.4,116.292,-3960.29,0,0
28222.7,117.349,-3922.79,0,0
28483.1,116.214,-3886.89,0,0
28743.4,116.31,-3851.77,0,0
29003.7,114.805,-3817.69,0,0
29264,115.21,-3783.77,0,0
29524.4,113.895,-3750.21,0,0
29784.7,113.583,-3717.17,0,0
30045,112.974,-3685.74,0,0
30305.3,112.14,-3654.58,0,0
30565.7,110.666,-3623.84,0,0
30826,109.777,-3592.69,0,0
31086.3,108.405,-3562.45,0,0
31346.6,107.506,-3532.14,0,0
31607,107,-3502.53,0,0
31867.3,106.631,-3473.59,0,0
32127.6,105.545,-3444.87,0,0
32387.9,105.551,-3416.28,0,0
32648.3,105.278,-3388.43,0,0
32908.6,105.651,-3361.45,0,0
33168.9,104.766,-3334.44,0,0
33429.2,105.528,-3308.13,0,0
33689.6,106.153,-3282.45,0,0
33949.9,105.893,-3257.28,0,0
34210.2,106.014,-3232.52,0,0
34470.5,106.232,-3208.06,0,0
34730.9,106.546,-3183.58,0,0
34991.2,107.512,-3159.98,0,0
35251.5,108.41,-3137.31,0,0
35511.8,109.076,-3115.22,0,0
35772.2,109.311,-3093.71,0,0
36032.5,109.712,-3073.14,0,0
36292.8,109.252,-3052.46,0,0
36553.1,109.068,-3032.55,0,0
36813.5,107.771,-3012.84,0,0
37073.8,107.502,-2993,0,0
37334.1,105.917,-2974.18,0,0
37594.4,104.247,-2954.86,0,0
37854.8,102.111,-2935.41,0,0
38115.1,100.153,-2916.14,0,0
38375.4,97.9697,-2896.71,0,0
38635.7,96.0412,-2877.2,0,0
38896.1,94.0406,-2857.7,0,0
39156.4,92.0289,-2838.18,0,0
39416.7,90.9316,-2818.62,0,0
39677,89.5939,-2799.61,0,0
39937.4,88.1125,-2780.28,0,0
40197.7,87.4087,-2760.9,0,0
40458,87.4936,-2742.71,0,0
40718.3,86.9564,-2725.1,0,0
40978.7,86.1407,-2707.49,0,0
41239,85.4824,-2690.05,0,0
41499.3,84.7718,-2672.61,0,0
41759.6,84.4994,-2655.59,0,0
42020,83.5649,-2638.83,0,0
42280.275,82.7753,-2621.77,0,0
42540.6,82.4172,-2605.18,0,0
42800.925,82.268,-2588.64,0,0
43061.25,82.7968,-2572.51,0,0
43321.575,82.5968,-2557.33,0,0
43581.9,82.4609,-2542.48,0,0
43842.225,81.5754,-2527.7,0,0
44102.55,80.2628,-2512.7,0,0
44362.875,79.6796,-2497.55,0,0
44623.2,78.8419,-2482.59,0,0
44883.525,78.1674,-2467.59,0,0
45143.85,77.7181,-2453.12,0,0
45404.175,76.9348,-2438.45,0,0
45664.5,76.512,-2424.2,0,0
45924.825,75.8776,-2410.01,0,0
46185.15,75.3791,-2396.08,0,0
46445.475,74.5816,-2382.08,0,0
46705.8,74.2869,-2368.31,0,0
46966.125,73.947,-2354.56,0,0
47226.45,73.451,-2341.15,0,0
47486.775,73.1621,-2327.91,0,0
47747.1,72.9624,-2314.81,0,0
48007.425,72.5181,-2301.81,0,0
48267.75,72.1013,-2288.95,0,0
48528.075,71.7769,-2276.37,0,0
48788.4,71.0917,-2263.88,0,0
49048.725,70.707,-2251.25,0,0
49309.05,70.4296,-2239.08,0,0
49569.375,69.9349,-2226.8,0,0
49829.7,69.4672,-2214.48,0,0
50090.025,69.2001,-2202.44,0,0
50350.35,68.9121,-2190.56,0,0
50610.675,68.632,-2178.72,0,0
50871.0,68.3049,-2167.06,0,0
51131.325,68.1782,-2155.3,0,0
51391.65,67.8413,-2143.84,0,0
51651.975,67.9021,-2132.47,0,0
51912.3,67.7954,-2121.43,0,0
52172.625,67.6259,-2110.36,0,0
52432.95,67.3453,-2099.45,0,0
52693.275,67.247,-2088.48,0,0
52953.6,67.3804,-2077.69,0,0
53213.925,67.4392,-2067.16,0,0
53474.25,67.6921,-2057.01,0,0
53734.575,67.7352,-2047.16,0,0
53994.9,67.1441,-2037.67,0,0
54255.225,66.5718,-2027.72,0,0
54515.55,66.064,-2018,0,0
54775.875,65.3916,-2008.01,0,0
55036.2,64.7763,-1998.3,0,0
55296.525,64.0636,-1988.46,0,0
55556.85,63.3561,-1978.45,0,0
55817.175,62.8937,-1968.58,0,0
56077.5,62.4267,-1958.87,0,0
56337.825,61.777,-1948.97,0,0
56598.15,61.5415,-1939.24,0,0
56858.475,61.3458,-1929.67,0,0
57118.8,61.0495,-1920.19,0,0
57379.125,60.825,-1910.76,0,0
57639.45,60.6864,-1901.52,0,0
57899.775,60.5221,-1892.3,0,0
58160.1,60.3914,-1883.17,0,0
58420.4,60.2311,-1874.18,0,0
58680.7,60.2056,-1865.22,0,0
58941.1,60.0799,-1856.55,0,0
59201.4,59.9112,-1847.97,0,0
59461.7,59.5793,-1839.4,0,0
59722,59.3364,-1830.84,0,0
59982.4,59.0083,-1822.29,0,0
60242.7,58.6573,-1813.77,0,0
60503,58.4399,-1805.14,0,0
60763.3,58.2869,-1796.64,0,0
61023.7,58.1695,-1788.26,0,0
61284,58.1869,-1779.91,0,0
61544.3,58.2916,-1771.75,0,0
61804.6,58.2302,-1764.02,0,0
62065,57.9411,-1755.92,0,0
62325.3,57.7975,-1747.79,0,0
62585.6,57.7041,-1739.77,0,0
62845.9,57.8473,-1731.76,0,0
63106.3,57.9408,-1723.99,0,0
63366.6,58.2028,-1716.31,0,0
63626.9,58.3042,-1708.9,0,0
63887.2,58.4003,-1701.43,0,0
64147.6,58.5916,-1693.99,0,0
64407.9,58.7443,-1687.02,0,0
64668.2,58.5748,-1680.04,0,0
64928.5,58.4542,-1673.01,0,0
65188.9,58.2924,-1666.09,0,0
65449.2,57.9598,-1659.19,0,0
65709.5,57.6904,-1651.87,0,0
65969.8,57.654,-1645,0,0
66230.2,57.3726,-1638.54,0,0
66490.5,56.7855,-1631.6,0,0
66750.8,56.2977,-1624.57,0,0
67011.1,55.982,-1617.43,0,0
67271.5,55.7538,-1610.41,0,0
67531.8,55.6019,-1603.55,0,0
67792.1,55.5239,-1596.78,0,0
68052.4,55.2994,-1590.01,0,0
68312.8,55.0948,-1583.34,0,0
68573.1,54.9428,-1576.61,0,0
68833.4,54.7218,-1569.88,0,0
69093.7,54.6267,-1563.17,0,0
69354.1,54.5243,-1556.51,0,0
69614.4,54.6178,-1550.06,0,0
69874.7,54.6401,-1543.52,0,0
70135,54.5871,-1537.23,0,0
70395.4,54.4798,-1530.84,0,0
70655.7,54.5257,-1524.51,0,0
70916,54.5097,-1518.27,0,0
71176.3,54.5873,-1512.11,0,0
71436.7,54.5613,-1505.98,0,0
71697,54.6629,-1499.9,0,0
71957.3,54.6206,-1494.05,0,0
72217.6,54.6649,-1488.03,0,0
72478,54.6624,-1482.21,0,0
72738.3,54.5118,-1476.5,0,0
72998.6,54.2482,-1470.81,0,0
73258.9,53.9365,-1464.87,0,0
73519.3,53.9655,-1458.95,0,0
73779.6,53.903,-1453.3,0,0
74039.9,53.7379,-1447.58,0,0
74300.225,53.561,-1441.99,0,0
74560.55,53.2311,-1436.23,0,0
74820.875,53.049,-1430.45,0,0
75081.2,52.9615,-1424.74,0,0
75341.525,52.8846,-1419.07,0,0
75601.85,52.7842,-1413.41,0,0
75862.175,52.728,-1407.83,0,0
76122.5,52.675,-1402.29,0,0
76382.825,52.649,-1396.77,0,0
76643.15,52.6796,-1391.32,0,0
76903.475,52.5712,-1386.05,0,0
77163.8,52.518,-1380.65,0,0
77424.125,52.3601,-1375.32,0,0
77684.45,52.2628,-1369.98,0,0
77944.775,52.2069,-1364.72,0,0
78205.1,52.1419,-1359.45,0,0
78465.425,51.9532,-1354.23,0,0
78725.75,51.7339,-1348.99,0,0
78986.075,51.5962,-1343.68,0,0
79246.4,51.4909,-1338.46,0,0
79506.725,51.2805,-1333.22,0,0
79767.05,51.2155,-1327.95,0,0
80027.375,51.1065,-1322.7,0,0
80287.7,51.0447,-1317.44,0,0
80548.025,51.1091,-1312.25,0,0
80808.35,51.1047,-1307.07,0,0
81068.675,51.0946,-1301.94,0,0
81329.0,51.1672,-1296.78,0,0
81589.325,51.2939,-1291.65,0,0
81849.65,51.3893,-1286.6,0,0
82109.975,51.6534,-1281.59,0,0
82370.3,51.7642,-1276.66,0,0
82630.625,51.8686,-1271.77,0,0
82890.95,52.0935,-1266.78,0,0
83151.275,52.2797,-1262.02,0,0
83411.6,52.4539,-1257.12,0,0
83671.925,52.7799,-1252.26,0,0
83932.25,53.1037,-1247.57,0,0
84192.575,53.3779,-1243.05,0,0
84452.9,53.6389,-1238.34,0,0
84713.225,54.1313,-1233.91,0,0
84973.55,54.3946,-1229.86,0,0
85233.875,54.1473,-1225.82,0,0
85494.2,53.7904,-1221.3,0,0
85754.525,53.5599,-1216.72,0,0
86014.85,53.3646,-1212.03,0,0
86275.175,53.3698,-1207.36,0,0
86535.5,53.2968,-1202.61,0,0
86795.825,53.4203,-1197.87,0,0
87056.15,53.7315,-1193.19,0,0
87316.475,53.9347,-1188.8,0,0
87576.8,54.0714,-1184.36,0,0
87837.125,54.2038,-1179.83,0,0
88097.45,54.3575,-1175.3,0,0
88357.775,54.5244,-1170.83,0,0
88618.1,54.6919,-1166.39,0,0
88878.425,54.8193,-1161.96,0,0
89138.75,54.9878,-1157.45,0,0
89399.075,55.1282,-1152.86,0,0
89659.4,55.422,-1148.36,0,0
89919.725,55.7657,-1143.71,0,0
90180,56.2436,-1139.2,0,0
90440.4,56.617,-1134.78,0,0
90700.7,57.1332,-1130.1,0,0
90961,57.8777,-1125.67,0,0
91221.3,58.7376,-1121.23,0,0
91481.7,59.8229,-1117.08,0,0
91742,60.7399,-1113.19,0,0
92002.3,61.4082,-1109.55,0,0
92262.6,62.1041,-1105.72,0,0
92523,62.8144,-1101.86,0,0
92783.3,63.4597,-1098.3,0,0
93043.6,64.222,-1094.77,0,0
93303.9,64.5398,-1091.45,0,0
93564.3,64.8373,-1088.07,0,0
93824.6,64.8739,-1084.45,0,0
94084.9,64.9541,-1080.61,0,0
94345.2,65.392,-1076.86,0,0
94605.6,65.5078,-1073.1,0,0
94865.9,65.8449,-1069.22,0,0
95126.2,66.0657,-1065.47,0,0
95386.5,66.3395,-1061.45,0,0
95646.9,66.8577,-1057.56,0,0
95907.2,67.2839,-1053.6,0,0
96167.5,67.8826,-1049.72,0,0
96427.8,68.3658,-1045.73,0,0
96688.2,69.2811,-1041.74,0,0
96948.5,70.1993,-1038.06,0,0
97208.8,70.9974,-1034.5,0,0
97469.1,71.7635,-1030.84,0,0
97729.5,72.7078,-1027.25,0,0
97989.8,73.6391,-1023.66,0,0
98250.1,74.7093,-1020.15,0,0
98510.4,75.966,-1016.79,0,0
98770.8,77.2585,-1013.69,0,0
99031.1,78.4161,-1010.86,0,0
99291.4,79.3416,-1008.22,0,0
99551.7,80.0293,-1005.46,0,0
99812.1,80.7165,-1002.5,0,0
100072,81.5879,-999.602,0,0
100333,82.5506,-996.851,0,0
100593,83.4092,-994.235,0,0
100853,84.2612,-991.745,0,0
101114,84.9864,-989.376,0,0
101374,85.565,-987.036,0,0
101634,86.1325,-984.67,0,0
101895,86.6171,-982.508,0,0
102155,86.973,-980.297,0,0
102415,87.2363,-978.158,0,0
102676,87.3493,-976.061,0,0
102936,87.2391,-973.908,0,0
103196,86.9505,-971.657,0,0
103457,86.5801,-969.109,0,0
103717,86.3132,-966.393,0,0
103977,86.2684,-963.64,0,0
104238,86.3175,-961.017,0,0
104498,86.2959,-958.539,0,0
104758,86.0256,-956.053,0,0
105019,85.6521,-953.412,0,0
105279,85.3711,-950.557,0,0
105539,85.2205,-947.678,0,0
105800,85.0244,-944.834,0,0
106060,85.0199,-941.839,0,0
106320.175,85.0398,-939.015,0,0
106580.5,85.0739,-936.172,0,0
106840.825,85.141,-933.336,0,0
107101.15,85.3043,-930.604,0,0
107361.475,85.4215,-928.02,0,0
107621.8,85.3672,-925.509,0,0
107882.125,85.0975,-922.903,0,0
108142.45,84.7892,-920.025,0,0
108402.775,84.657,-917.036,0,0
108663.1,84.6505,-914.053,0,0
108923.425,84.648,-911.077,0,0
109183.75,84.8637,-908.021,0,0
109444.075,85.2677,-905.101,0,0
109704.4,85.5615,-902.375,0,0
109964.725,85.9118,-899.739,0,0
110225.05,86.2165,-897.234,0,0
110485.375,86.299,-894.692,0,0
110745.7,86.4837,-892.138,0,0
111006.025,86.5474,-889.525,0,0
111266.35,86.6925,-886.985,0,0
111526.675,86.7676,-884.271,0,0
111787.0,87.1723,-881.743,0,0
112047.325,87.4203,-879.366,0,0
112307.65,87.4994,-876.998,0,0
112567.975,87.5751,-874.598,0,0
112828.3,87.6506,-872.128,0,0
113088.625,87.7247,-869.726,0,0
113348.95,87.8235,-867.374,0,0
113609.275,87.8275,-865.035,0,0
113869.6,87.8528,-862.753,0,0
114129.925,87.747,-860.397,0,0
114390.25,87.6932,-857.952,0,0
114650.575,87.692,-855.595,0,0
114910.9,87.7043,-853.19,0,0
115171.225,87.7265,-850.981,0,0
115431.55,87.6508,-848.83,0,0
115691.875,87.2735,-846.665,0,0
115952.2,86.8021,-844.31,0,0
116212.525,86.3912,-841.762,0,0
116472.85,86.0722,-839.128,0,0
116733.175,85.8204,-836.501,0,0
116993.5,85.5951,-833.852,0,0
117253.825,85.5741,-831.047,0,0
117514.15,85.6888,-828.514,0,0
117774.475,85.7566,-826.087,0,0
118034.8,85.6454,-823.754,0,0
118295.125,85.4877,-821.346,0,0
118555.45,85.2707,-818.875,0,0
118815.775,85.137,-816.348,0,0
119076.1,85.0984,-813.867,0,0
119336.425,84.9675,-811.578,0,0
119596.75,84.6663,-809.128,0,0
119857.075,84.4646,-806.647,0,0
120117.4,84.2361,-804.137,0,0
120377.725,84.0378,-801.599,0,0
120638.05,83.8222,-799.082,0,0
120898.375,83.6375,-796.504,0,0
121158.7,83.4711,-793.984,0,0
121419.025,83.3119,-791.507,0,0
121679.35,83.0589,-788.974,0,0
121939.675,82.8007,-786.406,0,0
122200.0,82.6099,-783.759,0,0
122460,82.5032,-781.179,0,0
122721,82.3645,-778.671,0,0
122981,82.1738,-776.168,0,0
123241,81.9171,-773.619,0,0
123502,81.6631,-771.048,0,0
123762,81.3659,-768.422,0,0
124022,81.093,-765.727,0,0
124283,80.8805,-762.993,0,0
124543,80.6864,-760.241,0,0
124803,80.5486,-757.493,0,0
125064,80.4215,-754.764,0,0
125324,80.3059,-752.03,0,0
125584,80.1855,-749.317,0,0
125845,80.0597,-746.554,0,0
126105,79.9667,-743.78,0,0
126365,79.8765,-740.957,0,0
126626,79.8575,-738.166,0,0
126886,79.849,-735.361,0,0
127146,79.8873,-732.593,0,0
127406,79.8781,-729.819,0,0
127667,79.9064,-726.981,0,0
127927,80.0171,-724.191,0,0
128187,80.1683,-721.441,0,0
128448,80.2977,-718.719,0,0
128708,80.3997,-716.052,0,0
128968,80.4224,-713.38,0,0
129229,80.4587,-710.671,0,0
129489,80.4587,-707.973,0,0
129749,80.4137,-705.218,0,0
130010,80.3528,-702.323,0,0
130270,80.3719,-699.27,0,0
130530,80.6428,-696.185,0,0
130791,81.1135,-693.234,0,0
131051,81.5486,-690.482,0,0
131311,81.9919,-687.796,0,0
131572,82.3612,-685.249,0,0
131832,82.583,-682.637,0,0
132092,82.8828,-679.955,0,0
132353,83.1611,-677.369,0,0
132613,83.4241,-674.793,0,0
132873,83.6263,-672.238,0,0
133134,83.7049,-669.647,0,0
133394,83.8077,-666.931,0,0
133654,83.9616,-664.125,0,0
133915,84.187,-661.384,0,0
134175,84.3775,-658.62,0,0
134435,84.5757,-655.799,0,0
134696,84.825,-652.912,0,0
134956,85.2003,-649.996,0,0
135216,85.6801,-647.196,0,0
135477,86.106,-644.462,0,0
135737,86.5962,-641.613,0,0
135997,87.3179,-638.958,0,0
136258,87.9461,-636.636,0,0
136518,88.3097,-634.321,0,0
136778,88.6013,-632.085,0,0
137039,88.5865,-629.83,0,0
137299,88.4185,-627.363,0,0
137559,88.2409,-624.779,0,0
137819,87.9579,-621.986,0,0
138080,87.6902,-619.03,0,0
138340.125,87.5213,-615.872,0,0
138600.45,87.538,-612.526,0,0
138860.775,87.6799,-609.201,0,0
139121.1,88.0471,-605.822,0,0
139381.425,88.505,-602.661,0,0
139641.75,88.8199,-599.441,0,0
139902.075,89.2842,-596.109,0,0
140162.4,89.9111,-592.849,0,0
140422.725,90.512,-589.745,0,0
140683.05,91.0021,-586.635,0,0
140943.375,91.4874,-583.368,0,0
141203.7,92.1126,-580.141,0,0
141464.025,92.7571,-576.966,0,0
141724.35,93.2951,-573.808,0,0
141984.675,93.7744,-570.526,0,0
142245.0,94.3231,-567.135,0,0
142505.325,94.9233,-563.689,0,0
142765.65,95.583,-560.11,0,0
143025.975,96.3646,-556.48,0,0
143286.3,97.2675,-552.795,0,0
143546.625,98.39,-549.148,0,0
143806.95,99.488,-545.643,0,0
144067.275,100.503,-542.074,0,0
144327.6,101.657,-538.383,0,0
144587.925,102.914,-534.607,0,0
144848.25,104.381,-530.765,0,0
145108.575,106.073,-527.039,0,0
145368.9,107.845,-523.407,0,0
145629.225,109.721,-519.883,0,0
145889.55,111.614,-516.511,0,0
146149.875,113.378,-513.142,0,0
146410.2,115.253,-509.652,0,0
146670.525,117.334,-506.158,0,0
146930.85,119.603,-502.814,0,0
147191.175,121.916,-499.738,0,0
147451.5,124.067,-496.858,0,0
147711.825,125.887,-494.025,0,0
147972.15,127.507,-490.884,0,0
148232.475,129.181,-487.304,0,0
148492.8,131.194,-483.4,0,0
148753.125,133.653,-479.41,0,0
149013.45,136.53,-475.502,0,0
149273.775,139.69,-471.797,0,0
149534.1,143.04,-468.265,0,0
149794.425,146.402,-464.777,0,0
150054.75,150.082,-461.237,0,0
150315.075,154.316,-457.879,0,0
150575.4,158.828,-454.957,0,0
150835.725,163.631,-452.274,0,0
151096.05,168.837,-450.008,0,0
151356.375,174.326,-448.451,0,0
151616.7,179.805,-447.912,0,0
151877.025,184.712,-448.056,0,0
152137.35,188.959,-448.492,0,0
152397.675,193.017,-449.339,0,0
152658.0,196.231,-450.354,0,0
152918.325,199.12,-451.08,0,0
153178.65,202.078,-452.057,0,0
153438.975,204.315,-453.295,0,0
153699.3,206.023,-454.347,0,0
153959.625,207.15,-454.858,0,0
154219.95,208.482,-455.085,0,0
154480,209.344,-455.156,0,0
154741,210.021,-454.12,0,0
155001,212.027,-452.514,0,0
155261,214.933,-451.569,0,0
155522,218.139,-451.241,0,0
155782,221.789,-452.13,0,0
156042,224.638,-454.12,0,0
156303,226.675,-456.965,0,0
156563,227.304,-460.315,0,0
156823,226,-463.281,0,0
157084,223.201,-464.757,0,0
157344,220.359,-464.442,0,0
157604,217.931,-462.774,0,0
157864,216.229,-459.827,0,0
158125,216.036,-456.507,0,0
158385,216.927,-453.326,0,0
158645,218.682,-450.71,0,0
158906,220.825,-448.819,0,0
159166,223.329,-447.602,0,0
159426,225.862,-447.515,0,0
159687,227.451,-448.548,0,0
159947,227.677,-449.64,0,0
160207,226.818,-450.15,0,0
160468,225.488,-449.894,0,0
160728,223.739,-448.612,0,0
160988,222.427,-446.055,0,0
161249,221.837,-443.027,0,0
161509,222.084,-439.554,0,0
161769,223.257,-436.181,0,0
162030,225.074,-433.269,0,0
162290,227.412,-431.045,0,0
162550,229.98,-429.472,0,0
162811,232.2,-428.48,0,0
163071,233.987,-427.913,0,0
163331,235.671,-427.345,0,0
163592,237.043,-427.256,0,0
163852,237.851,-427.044,0,0
164112,238.542,-426.57,0,0
164373,239.142,-425.887,0,0
164633,239.987,-425.324,0,0
164893,240.707,-425.11,0,0
165154,241.28,-424.871,0,0
165414,241.825,-424.911,0,0
165674,242.048,-425.457,0,0
165935,241.187,-426.363,0,0
166195,239.49,-426.433,0,0
166455,237.721,-426.009,0,0
166716,235.5,-425.361,0,0
166976,232.745,-424.011,0,0
167236,230.001,-421.726,0,0
167497,227.767,-418.647,0,0
167757,226.016,-415.556,0,0
168017,224.465,-412.368,0,0
168277,222.881,-409.031,0,0
168538,221.215,-405.473,0,0
168798,219.527,-401.428,0,0
169058,218.07,-396.87,0,0
169319,217.249,-391.844,0,0
169579,216.877,-386.988,0,0
169839,216.642,-382.301,0,0
170100,216.369,-377.293,0,0
170360.075,216.31,-372.164,0,0
170620.4,216.587,-366.963,0,0
170880.725,216.972,-361.75,0,0
171141.05,217.361,-356.361,0,0
171401.375,217.591,-350.515,0,0
171661.7,218.379,-343.905,0,0
171922.025,220.135,-337.001,0,0
172182.35,222.845,-330.532,0,0
172442.675,225.941,-324.664,0,0
172703.0,228.864,-319.201,0,0
172963.325,231.847,-313.455,0,0
173223.65,235.449,-307.828,0,0
173483.975,239.33,-302.65,0,0
173744.3,243.357,-297.966,0,0
174004.625,247.204,-293.621,0,0
174264.95,250.89,-289.692,0,0
174525.275,253.961,-285.974,0,0
174785.6,256.351,-281.865,0,0
175045.925,258.731,-276.985,0,0
175306.25,261.258,-271.578,0,0
175566.575,264.171,-265.572,0,0
175826.9,267.685,-259.184,0,0
176087.225,271.847,-252.675,0,0
176347.55,276.809,-246.236,0,0
176607.875,282.397,-239.989,0,0
176868.2,288.492,-234.552,0,0
177128.525,294.512,-229.609,0,0
177388.85,300.049,-224.987,0,0
177649.175,305.04,-219.676,0,0
177909.5,310.609,-213.697,0,0
178169.825,317.175,-207.523,0,0
178430.15,324.43,-201.651,0,0
178690.475,332.16,-196.139,0,0
178950.8,340.182,-190.859,0,0
179211.125,348.804,-185.931,0,0
179471.45,357.642,-181.787,0,0
179731.775,366.082,-177.37,0,0
179992.1,375.457,-172.648,0,0
180252.425,385.834,-168.836,0,0
180512.75,395.967,-165.862,0,0
180773.075,406.121,-162.979,0,0
181033.4,416.569,-160.267,0,0
181293.725,427.505,-157.788,0,0
181554.05,439.37,-155.565,0,0
181814.375,452.128,-154.649,0,0
182074.7,464.945,-155.235,0,0
182335.025,477.112,-157.418,0,0
182595.35,488.328,-160.106,0,0
182855.675,498.997,-163.036,0,0
183116.0,509.381,-166.356,0,0
183376.325,519.48,-170.427,0,0
183636.65,528.519,-175.265,0,0
183896.975,536.109,-180.005,0,0
184157.3,542.816,-183.583,0,0
184417.625,550.123,-186.273,0,0
184677.95,557.975,-189.199,0,0
184938.275,565.716,-192.323,0,0
185198.6,573.612,-195.384,0,0
185458.925,581.834,-198.928,0,0
185719.25,589.784,-203.037,0,0
185979.575,597.471,-207.113,0,0
186239.9,605.492,-211.548,0,0
186500,612.97,-217.073,0,0
186761,619.407,-222.604,0,0
187021,625.286,-227.819,0,0
187281,630.744,-232.64,0,0
187542,636.005,-237.1,0,0
187802,641.217,-241.032,0,0
188062,646.898,-244.415,0,0
188322,653.738,-248.451,0,0
188583,660.069,-253.15,0,0
188843,666.013,-258.127,0,0
189103,671.28,-263.351,0,0
189364,675.86,-268.028,0,0
189624,680.555,-272.146,0,0
189884,685.375,-276.252,0,0
190145,689.571,-280.063,0,0
190405,693.856,-282.83,0,0
190665,698.903,-284.734,0,0
190926,705.423,-286.309,0,0
191186,713.286,-288.954,0,0
191446,721.165,-292.869,0,0
191707,728.639,-297.462,0,0
191967,735.587,-302.545,0,0
192227,741.651,-307.604,0,0
192488,746.905,-312.106,0,0
192748,751.838,-314.414,0,0
193008,758.965,-314.925,0,0
193269,768.899,-315.65,0,0
193529,780.865,-317.481,0,0
193789,794.888,-321.471,0,0
194050,809.272,-328.514,0,0
194310,822.755,-337.354,0,0
194570,836.05,-347.393,0,0
194831,848.48,-359.115,0,0
195091,859.966,-371.61,0,0
195351,870.955,-384.545,0,0
195612,881.79,-398.126,0,0
195872,893.076,-413,0,0
196132,903.837,-430.083,0,0
196393,912.931,-449.244,0,0
196653,919.565,-469.314,0,0
196913,924.453,-489.381,0,0
197174,928.392,-509.626,0,0
197434,930.953,-530.359,0,0
197694,931.958,-551.783,0,0
197955,930.817,-573.216,0,0
198215,927.805,-594.28,0,0
198475,923.173,-614.97,0,0
198735,917.098,-634.439,0,0
198996,910.148,-652.93,0,0
199256,902.57,-670.655,0,0
199516,894.035,-688.17,0,0
199777,883.907,-705.45,0,0
200037,872.429,-720.968,0,0
200297,860.38,-734.602,0,0
200558,848.232,-747.076,0,0
200818,836.284,-758.469,0,0
201078,824.665,-768.963,0,0
201339,813.351,-779.465,0,0
201599,801.533,-790.407,0,0
201859,788.371,-801.245,0,0
202120,773.426,-811.747,0,0
202380.025,756.554,-819.914,0,0
202640.35,738.726,-825.153,0,0
202900.675,721.854,-827.504,0,0
203161.0,706.623,-828.026,0,0
203421.325,692.74,-827.421,0,0
203681.65,680.28,-826.035,0,0
203941.975,669.103,-824.472,0,0
204202.3,658.922,-822.825,0,0
204462.625,649.534,-821.046,0,0
204722.95,640.616,-819.586,0,0
204983.275,632.205,-818.259,0,0
205243.6,623.764,-816.825,0,0
205503.925,615.146,-815.326,0,0
205764.25,606.344,-813.233,0,0
206024.575,597.556,-810.197,0,0
206284.9,589.352,-805.922,0,0
206545.225,582.275,-800.415,0,0
206805.55,577.114,-794.26,0,0
207065.875,573.576,-788.449,0,0
207326.2,571.22,-783.392,0,0
207586.525,569.659,-779.046,0,0
207846.85,568.88,-775.332,0,0
208107.175,568.674,-772.634,0,0
208367.5,568.452,-770.921,0,0
208627.825,567.986,-769.707,0,0
208888.15,567.43,-768.861,0,0
209148.475,566.547,-768.257,0,0
209408.8,565.64,-767.562,0,0
209669.125,564.807,-766.755,0,0
209929.45,564.431,-765.983,0,0
210189.775,564.35,-765.447,0,0
210450.1,564.582,-765.032,0,0
210710.425,565.124,-764.973,0,0
210970.75,565.976,-765.582,0,0
211231.075,566.805,-766.576,0,0
211491.4,567.808,-768.048,0,0
211751.725,568.735,-770.148,0,0
212012.05,569.327,-772.887,0,0
212272.375,569.56,-775.906,0,0
212532.7,569.448,-779.204,0,0
212793.025,568.842,-782.761,0,0
213053.35,568.14,-786.238,0,0
213313.675,567.072,-789.75,0,0
213574.0,565.798,-793.241,0,0
213834.325,564.485,-796.724,0,0
214094.65,563.105,-800.377,0,0
214354.975,561.722,-804.008,0,0
214615.3,560.426,-807.948,0,0
214875.625,558.777,-812.297,0,0
215135.95,556.889,-817.081,0,0
215396.275,554.33,-822.151,0,0
215656.6,551.059,-827.174,0,0
215916.925,547.21,-831.948,0,0
216177.25,543.044,-836.444,0,0
216437.575,538.417,-840.611,0,0
216697.9,533.605,-844.399,0,0
216958.225,528.643,-847.905,0,0
217218.55,523.571,-851.073,0,0
217478.875,518.468,-853.945,0,0
217739.2,513.478,-856.563,0,0
217999.525,508.563,-859.183,0,0
218259.85,503.44,-861.796,0,0
218520,498.098,-864.256,0,0
218780,492.565,-866.448,0,0
219041,486.906,-868.301,0,0
219301,481.402,-869.861,0,0
219561,475.832,-871.337,0,0
219822,470.171,-872.808,0,0
220082,464.163,-874.019,0,0
220342,458.093,-874.773,0,0
220603,451.917,-874.896,0,0
220863,446.009,-874.679,0,0
221123,440.388,-874.031,0,0
221384,435.155,-872.964,0,0
221644,430.416,-871.776,0,0
221904,426.03,-870.731,0,0
222165,421.846,-869.744,0,0
222425,417.572,-868.837,0,0
222685,413.526,-867.709,0,0
222946,409.644,-866.377,0,0
223206,406.217,-864.944,0,0
223466,402.996,-863.519,0,0
223727,400.298,-862.287,0,0
223987,397.669,-861.209,0,0
224247,395.325,-860.259,0,0
224508,393.113,-859.565,0,0
224768,391.216,-859.15,0,0
225028,389.429,-859.244,0,0
225289,387.675,-859.73,0,0
225549,385.61,-860.697,0,0
225809,383.355,-861.878,0,0
226070,380.482,-863.342,0,0
226330,377.348,-864.752,0,0
226590,373.992,-866.059,0,0
226851,370.404,-867.403,0,0
227111,366.491,-868.693,0,0
227371,362.386,-869.855,0,0
227632,357.912,-870.809,0,0
227892,353.212,-871.351,0,0
228152,348.609,-871.459,0,0
228413,344.274,-871.363,0,0
228673,340.208,-871.268,0,0
228933,336.345,-871.241,0,0
229193,332.47,-871.433,0,0
229454,328.439,-871.817,0,0
229714,324.252,-872.217,0,0
229974,319.831,-872.793,0,0
230235,315.008,-873.353,0,0
230495,309.793,-873.822,0,0
230755,304.096,-873.837,0,0
231016,298.366,-873.265,0,0
231276,292.645,-872.405,0,0
231536,286.99,-871.194,0,0
231797,281.511,-869.582,0,0
232057,276.269,-867.853,0,0
232317,271.163,-866.037,0,0
232578,266.055,-864.146,0,0
232838,260.948,-862.193,0,0
233098,255.804,-860.066,0,0
233359,250.574,-857.759,0,0
233619,245.265,-855.086,0,0
233879,240.136,-851.991,0,0
234140,235.215,-848.705,0,0
234400,230.479,-845.155,0,0
234660.3,225.93,-841.457,0,0
234920.625,221.571,-837.437,0,0
235180.95,217.624,-833.049,0,0
235441.275,214.019,-828.669,0,0
235701.6,210.807,-824.221,0,0
235961.925,207.859,-819.844,0,0
236222.25,205.143,-815.532,0,0
236482.575,202.734,-811.22,0,0
236742.9,200.509,-806.996,0,0
237003.225,198.447,-802.865,0,0
237263.55,196.516,-798.792,0,0
237523.875,194.71,-794.747,0,0
237784.2,193.082,-790.696,0,0
238044.525,191.51,-786.661,0,0
238304.85,190.261,-782.529,0,0
238565.175,189.206,-778.383,0,0
238825.5,188.518,-774.34,0,0
239085.825,188.246,-770.453,0,0
239346.15,188.273,-767.123,0,0
239606.475,188.238,-763.942,0,0
239866.8,188.321,-761.033,0,0
240127.125,188.392,-758.376,0,0
240387.45,188.393,-756.084,0,0
240647.775,188.442,-753.804,0,0
240908.1,188.463,-751.804,0,0
241168.425,188.341,-750.195,0,0
241428.75,187.931,-748.675,0,0
241689.075,187.27,-747.236,0,0
241949.4,186.306,-745.835,0,0
242209.725,185.149,-744.225,0,0
242470.05,183.859,-742.462,0,0
242730.375,182.515,-740.463,0,0
242990.7,181.359,-738.223,0,0
243251.025,180.308,-735.957,0,0
243511.35,179.358,-733.7,0,0
243771.675,178.436,-731.458,0,0
244032.0,177.642,-729.173,0,0
244292.325,176.885,-726.798,0,0
244552.65,176.25,-724.456,0,0
244812.975,175.717,-722.149,0,0
245073.3,175.342,-720.134,0,0
245333.625,174.766,-718.019,0,0
245593.95,174.333,-715.865,0,0
245854.275,173.947,-713.661,0,0
246114.6,173.737,-711.547,0,0
246374.925,173.664,-709.549,0,0
246635.25,173.688,-707.806,0,0
246895.575,173.598,-706.232,0,0
247155.9,173.415,-704.836,0,0
247416.225,172.975,-703.506,0,0
247676.55,172.426,-702.048,0,0
247936.875,171.896,-700.571,0,0
248197.2,171.263,-699.086,0,0
248457.525,170.578,-697.608,0,0
248717.85,169.867,-695.947,0,0
248978.175,169.141,-694.332,0,0
249238.5,168.368,-692.626,0,0
249498.825,167.586,-690.851,0,0
249759.15,166.864,-688.857,0,0
250019.475,166.289,-686.9,0,0
250279.8,165.634,-684.801,0,0
250540,165.199,-682.593,0,0
250800,164.91,-680.403,0,0
251061,164.755,-678.21,0,0
251321,164.791,-676.13,0,0
251581,164.889,-674.092,0,0
251842,165.069,-672.156,0,0
252102,165.375,-670.252,0,0
252362,165.797,-668.51,0,0
252623,166.319,-666.934,0,0
252883,166.841,-665.638,0,0
253143,167.256,-664.512,0,0
253404,167.53,-663.536,0,0
253664,167.636,-662.706,0,0
253924,167.547,-661.839,0,0
254185,167.321,-660.94,0,0
254445,167.049,-659.954,0,0
254705,166.655,-658.967,0,0
254966,166.291,-657.951,0,0
255226,165.729,-656.948,0,0
255486,165.051,-655.819,0,0
255747,164.328,-654.645,0,0
256007,163.564,-653.248,0,0
256267,162.779,-651.736,0,0
256528,161.955,-650.12,0,0
256788,161.166,-648.257,0,0
257048,160.453,-646.219,0,0
257309,159.896,-644.037,0,0
257569,159.528,-641.732,0,0
257829,159.362,-639.367,0,0
258090,159.378,-637.022,0,0
258350,159.549,-634.685,0,0
258610,159.832,-632.347,0,0
258871,160.254,-629.998,0,0
259131,160.906,-627.7,0,0
259391,161.693,-625.474,0,0
259651,162.758,-623.378,0,0
259912,163.85,-621.526,0,0
260172,165,-619.901,0,0
260432,165.997,-618.345,0,0
260693,167.019,-616.801,0,0
260953,168.061,-615.228,0,0
261213,169.197,-613.784,0,0
261474,170.305,-612.442,0,0
261734,171.473,-611.136,0,0
261994,172.682,-610.023,0,0
262255,173.801,-609.049,0,0
262515,174.696,-608.115,0,0
262775,175.448,-607.067,0,0
263036,176.27,-605.843,0,0
263296,177.198,-604.587,0,0
263556,178.15,-603.357,0,0
263817,179.07,-602.117,0,0
264077,179.99,-600.753,0,0
264337,181.017,-599.312,0,0
264598,182.186,-597.742,0,0
264858,183.396,-596.07,0,0
265118,184.913,-594.333,0,0
265379,186.644,-592.546,0,0
265639,188.598,-590.804,0,0
265899,190.906,-589.08,0,0
266160,193.506,-587.434,0,0
266420,196.463,-585.975,0,0
266680.25,199.657,-584.726,0,0
266940.575,203.159,-583.783,0,0
267200.9,206.906,-583.15,0,0
267461.225,210.914,-582.89,0,0
267721.55,215.138,-583.044,0,0
267981.875,219.499,-583.746,0,0
268242.2,223.875,-585.026,0,0
268502.525,228.15,-586.852,0,0
268762.85,232.196,-589.165,0,0
269023.175,236.096,-591.881,0,0
269283.5,239.692,-595.011,0,0
269543.825,242.978,-598.465,0,0
269804.15,246.139,-602.23,0,0
270064.475,249.043,-606.259,0,0
270324.8,251.606,-610.762,0,0
270585.125,253.947,-615.655,0,0
270845.45,255.799,-621.014,0,0
271105.775,257.035,-626.556,0,0
271366.1,257.727,-632.365,0,0
271626.425,257.894,-638.171,0,0
271886.75,257.494,-644.101,0,0
272147.075,256.614,-650.054,0,0
272407.4,255.235,-656.107,0,0
272667.725,253.141,-662.235,0,0
272928.05,250.401,-668.253,0,0
273188.375,246.887,-674.034,0,0
273448.7,242.606,-679.406,0,0
273709.025,237.774,-684.317,0,0
273969.35,232.41,-688.637,0,0
274229.675,226.632,-692.262,0,0
274490.0,220.562,-695.152,0,0
274750.325,214.416,-697.297,0,0
275010.65,208.316,-698.751,0,0
275270.975,202.365,-699.544,0,0
275531.3,196.562,-699.827,0,0
275791.625,191.117,-699.731,0,0
276051.95,185.882,-699.3,0,0
276312.275,180.889,-698.633,0,0
276572.6,176.078,-697.732,0,0
276832.925,171.372,-696.599,0,0
277093.25,166.851,-695.196,0,0
277353.575,162.549,-693.531,0,0
277613.9,158.497,-691.688,0,0
277874.225,154.665,-689.668,0,0
278134.55,151.063,-687.566,0,0
278394.875,147.573,-685.318,0,0
278655.2,144.255,-682.922,0,0
278915.525,141.145,-680.334,0,0
279175.85,138.311,-677.603,0,0
279436.175,135.738,-674.72,0,0
279696.5,133.496,-671.816,0,0
279956.825,131.492,-668.844,0,0
280217.15,129.87,-665.91,0,0
280477.475,128.512,-663.007,0,0
280737.8,127.467,-660.22,0,0
280998.125,126.611,-657.662,0,0
281258.45,125.908,-655.217,0,0
281518.775,125.344,-652.968,0,0
281779.1,124.853,-650.867,0,0
282039.425,124.453,-648.89,0,0
282299.75,124.11,-647.036,0,0
282560,123.832,-645.377,0,0
282820,123.533,-643.892,0,0
283081,123.166,-642.501,0,0
283341,122.72,-641.166,0,0
283601,122.225,-639.841,0,0
283862,121.717,-638.497,0,0
284122,121.216,-637.109,0,0
284382,120.752,-635.704,0,0
284643,120.342,-634.259,0,0
284903,120.008,-632.801,0,0
285163,119.763,-631.269,0,0
285424,119.751,-629.704,0,0
285684,119.944,-628.241,0,0
285944,120.339,-626.946,0,0
286205,120.921,-625.843,0,0
286465,121.585,-624.962,0,0
286725,122.371,-624.365,0,0
286986,123.21,-624.111,0,0
287246,123.974,-624.224,0,0
287506,124.577,-624.69,0,0
287767,124.91,-625.487,0,0
288027,124.861,-626.516,0,0
288287,124.432,-627.624,0,0
288548,123.617,-628.75,0,0
288808,122.471,-629.762,0,0
289068,121.066,-630.645,0,0
289329,119.451,-631.394,0,0
289589,117.567,-631.987,0,0
289849,115.482,-632.318,0,0
290109,113.275,-632.371,0,0
290370,111.1,-632.087,0,0
290630,108.999,-631.581,0,0
290890,106.973,-630.962,0,0
291151,105.085,-630.255,0,0
291411,103.208,-629.529,0,0
291671,101.325,-628.722,0,0
291932,99.4189,-627.85,0,0
292192,97.5331,-626.872,0,0
292452,95.648,-625.743,0,0
292713,93.8614,-624.502,0,0
292973,92.1449,-623.189,0,0
293233,90.5081,-621.841,0,0
293494,88.9505,-620.456,0,0
293754,87.3924,-619.058,0,0
294014,85.856,-617.598,0,0
294275,84.3585,-616.036,0,0
294535,82.9066,-614.41,0,0
294795,81.558,-612.689,0,0
295056,80.3122,-610.921,0,0
295316,79.1557,-609.125,0,0
295576,78.1147,-607.324,0,0
295837,77.1901,-605.54,0,0
296097,76.3204,-603.771,0,0
296357,75.5503,-602.063,0,0
296618,74.7878,-600.396,0,0
296878,74.0533,-598.743,0,0
297138,73.329,-597.112,0,0
297399,72.6086,-595.482,0,0
297659,71.9021,-593.839,0,0
297919,71.2291,-592.173,0,0
298180,70.6061,-590.484,0,0
298440,70.0225,-588.777,0,0
298700.2,69.4947,-587.061,0,0
298960.525,69.0148,-585.338,0,0
299220.85,68.5942,-583.607,0,0
299481.175,68.2238,-581.915,0,0
299741.5,67.8966,-580.208,0,0
300001.825,67.6223,-578.517,0,0
300262.15,67.3881,-576.795,0,0
300522.475,67.2331,-575.123,0,0
300782.8,67.1361,-573.439,0,0
301043.125,67.0969,-571.778,0,0
301303.45,67.136,-570.165,0,0
301563.775,67.229,-568.592,0,0
301824.1,67.3729,-567.072,0,0
302084.425,67.5544,-565.593,0,0
302344.75,67.7803,-564.197,0,0
302605.075,68.0472,-562.83,0,0
302865.4,68.3372,-561.551,0,0
303125.725,68.6501,-560.327,0,0
303386.05,68.9657,-559.172,0,0
303646.375,69.2827,-558.074,0,0
303906.7,69.5875,-557.036,0,0
304167.025,69.8862,-556.03,0,0
304427.35,70.1623,-555.06,0,0
304687.675,70.4518,-554.141,0,0
304948.0,70.7294,-553.235,0,0
305208.325,71.0172,-552.376,0,0
305468.65,71.2902,-551.567,0,0
305728.975,71.5811,-550.798,0,0
305989.3,71.8239,-550.093,0,0
306249.625,72.0482,-549.427,0,0
306509.95,72.2401,-548.77,0,0
306770.275,72.405,-548.155,0,0
307030.6,72.5381,-547.53,0,0
307290.925,72.662,-546.909,0,0
307551.25,72.8031,-546.29,0,0
307811.575,72.9582,-545.701,0,0
308071.9,73.115,-545.175,0,0
308332.225,73.2728,-544.714,0,0
308592.55,73.3758,-544.322,0,0
308852.875,73.3972,-544.003,0,0
309113.2,73.2979,-543.692,0,0
309373.525,73.1341,-543.354,0,0
309633.85,72.8933,-542.941,0,0
309894.175,72.6236,-542.469,0,0
310154.5,72.3808,-541.938,0,0
310414.825,72.1587,-541.378,0,0
310675.15,71.9655,-540.824,0,0
310935.475,71.7746,-540.275,0,0
311195.8,71.6028,-539.721,0,0
311456.125,71.4357,-539.2,0,0
311716.45,71.2623,-538.687,0,0
311976.775,71.0803,-538.211,0,0
312237.1,70.8831,-537.724,0,0
312497.425,70.6544,-537.279,0,0
312757.75,70.3899,-536.822,0,0
313018.075,70.0966,-536.383,0,0
313278.4,69.7668,-535.929,0,0
313538.725,69.4135,-535.467,0,0
313799.05,69.0171,-534.961,0,0
314059.375,68.6126,-534.421,0,0
314319.7,68.212,-533.853,0,0
314580,67.7916,-533.267,0,0
314840,67.4036,-532.666,0,0
315101,66.9472,-532.072,0,0
315361,66.4845,-531.478,0,0
315621,66.1949,-530.681,0,0
315882,65.7597,-529.944,0,0
316142,65.3912,-529.249,0,0
316402,65.0419,-528.427,0,0
316663,64.7856,-527.708,0,0
316923,64.4722,-526.95,0,0
317183,64.2456,-526.21,0,0
317444,63.9548,-525.516,0,0
317704,63.7434,-524.828,0,0
317964,63.4873,-524.092,0,0
318225,63.3024,-523.413,0,0
318485,63.0601,-522.623,0,0
318745,62.8367,-521.911,0,0
319006,62.6296,-521.187,0,0
319266,62.476,-520.466,0,0
319526,62.3328,-519.785,0,0
319787,62.2559,-519.142,0,0
320047,62.1198,-518.511,0,0
320307,62.0137,-517.983,0,0
320567,61.9117,-517.346,0,0
320828,61.7679,-516.864,0,0
321088,61.5603,-516.325,0,0
321348,61.4215,-515.862,0,0
321609,61.2151,-515.381,0,0
321869,60.991,-514.873,0,0
322129,60.7368,-514.442,0,0
322390,60.497,-513.918,0,0
322650,60.1848,-513.459,0,0
322910,59.8514,-513.004,0,0
323171,59.5685,-512.507,0,0
323431,59.148,-512.059,0,0
323691,58.8512,-511.681,0,0
323952,58.3587,-511.148,0,0
324212,57.9155,-510.621,0,0
324472,57.4447,-510.066,0,0
324733,56.9723,-509.499,0,0
324993,56.3924,-508.906,0,0
325253,55.9021,-508.187,0,0
325514,55.4493,-507.57,0,0
325774,54.9351,-506.814,0,0
326034,54.5081,-506.07,0,0
326295,54.1132,-505.373,0,0
326555,53.6912,-504.597,0,0
326815,53.3111,-503.845,0,0
327076,52.9144,-503.037,0,0
327336,52.5668,-502.293,0,0
327596,52.1657,-501.565,0,0
327857,51.7844,-500.727,0,0
328117,51.4439,-500.003,0,0
328377,51.1051,-499.211,0,0
328638,50.712,-498.387,0,0
328898,50.3708,-497.593,0,0
329158,50.0291,-496.734,0,0
329419,49.7368,-495.893,0,0
329679,49.3903,-495.062,0,0
329939,49.1105,-494.243,0,0
330200,48.8024,-493.38,0,0
330460,48.5512,-492.528,0,0
330720.15,48.3182,-491.656,0,0
330980.475,48.04,-490.791,0,0
331240.8,47.7984,-489.95,0,0
331501.125,47.5469,-489.09,0,0
331761.45,47.3413,-488.226,0,0
332021.775,47.1209,-487.299,0,0
332282.1,46.9739,-486.482,0,0
332542.425,46.7803,-485.571,0,0
332802.75,46.612,-484.686,0,0
333063.075,46.47,-483.752,0,0
333323.4,46.396,-482.855,0,0
333583.725,46.3449,-481.975,0,0
333844.05,46.321,-481.005,0,0
334104.375,46.3383,-480.205,0,0
334364.7,46.3467,-479.343,0,0
334625.025,46.3264,-478.523,0,0
334885.35,46.3986,-477.794,0,0
335145.675,46.4317,-477.003,0,0
335406.0,46.5403,-476.356,0,0
335666.325,46.5749,-475.619,0,0
335926.65,46.5706,-474.959,0,0
336186.975,46.6082,-474.38,0,0
336447.3,46.6648,-473.704,0,0
336707.625,46.5988,-473.113,0,0
336967.95,46.5921,-472.513,0,0
337228.275,46.5296,-471.914,0,0
337488.6,46.5034,-471.38,0,0
337748.925,46.3962,-470.811,0,0
338009.25,46.2707,-470.169,0,0
338269.575,46.205,-469.638,0,0
338529.9,46.1076,-469.075,0,0
338790.225,45.9179,-468.425,0,0
339050.55,45.8064,-467.813,0,0
339310.875,45.6387,-467.198,0,0
339571.2,45.4681,-466.615,0,0
339831.525,45.3066,-465.983,0,0
340091.85,45.1413,-465.338,0,0
340352.175,44.9859,-464.704,0,0
340612.5,44.8153,-464.07,0,0
340872.825,44.6022,-463.432,0,0
341133.15,44.4104,-462.743,0,0
341393.475,44.223,-462.086,0,0
341653.8,44.0607,-461.356,0,0
341914.125,43.8461,-460.679,0,0
342174.45,43.6801,-459.939,0,0
342434.775,43.5376,-459.168,0,0
342695.1,43.3502,-458.399,0,0
342955.425,43.2058,-457.685,0,0
343215.75,43.0507,-456.935,0,0
343476.075,42.9622,-456.164,0,0
343736.4,42.8454,-455.403,0,0
343996.725,42.7088,-454.633,0,0
344257.05,42.6035,-453.819,0,0
344517.375,42.4957,-453.029,0,0
344777.7,42.4863,-452.271,0,0
345038.025,42.3855,-451.456,0,0
345298.35,42.3454,-450.64,0,0
345558.675,42.2914,-449.866,0,0
345819.0,42.2947,-449.053,0,0
346079.325,42.3152,-448.232,0,0
346339.65,42.2763,-447.441,0,0
346599.975,42.2952,-446.648,0,0
346860,42.3272,-445.855,0,0
347121,42.409,-445.095,0,0
347381,42.4371,-444.301,0,0
347641,42.5655,-443.574,0,0
347902,42.6213,-442.747,0,0
348162,42.6913,-442.057,0,0
348422,42.8039,-441.289,0,0
348683,42.8758,-440.527,0,0
348943,43.0258,-439.802,0,0
349203,43.193,-439.078,0,0
349464,43.3225,-438.333,0,0
349724,43.4523,-437.603,0,0
349984,43.6389,-436.912,0,0
350245,43.8581,-436.191,0,0
350505,44.0696,-435.521,0,0
350765,44.2693,-434.903,0,0
351025,44.4732,-434.249,0,0
351286,44.7098,-433.626,0,0
351546,44.8814,-433.021,0,0
351806,45.1512,-432.46,0,0
352067,45.3319,-431.907,0,0
352327,45.5535,-431.347,0,0
352587,45.7702,-430.825,0,0
352848,45.9478,-430.329,0,0
353108,46.1292,-429.79,0,0
353368,46.339,-429.269,0,0
353629,46.5456,-428.804,0,0
353889,46.6924,-428.346,0,0
354149,46.8824,-427.907,0,0
354410,47.0403,-427.441,0,0
354670,47.1203,-426.903,0,0
354930,47.3092,-426.513,0,0
355191,47.4362,-426.063,0,0
355451,47.545,-425.626,0,0
355711,47.6919,-425.19,0,0
355972,47.7775,-424.788,0,0
356232,47.8951,-424.375,0,0
356492,48.0123,-423.927,0,0
356753,48.1022,-423.511,0,0
357013,48.2058,-423.023,0,0
357273,48.2468,-422.616,0,0
357534,48.3448,-422.237,0,0
357794,48.4379,-421.823,0,0
358054,48.512,-421.392,0,0
358315,48.5381,-420.926,0,0
358575,48.5939,-420.567,0,0
358835,48.7119,-420.157,0,0
359096,48.7784,-419.752,0,0
359356,48.8262,-419.26,0,0
359616,48.8867,-418.874,0,0
359877,48.9494,-418.441,0,0
360137,48.969,-418.05,0,0
360397,49.0512,-417.604,0,0
360658,49.0854,-417.21,0,0
360918,49.1187,-416.799,0,0
361178,49.1661,-416.387,0,0
361438,49.2223,-415.995,0,0
361699,49.2491,-415.56,0,0
361959,49.264,-415.155,0,0
362219,49.3073,-414.751,0,0
362480,49.3401,-414.349,0,0
362740.1,49.4277,-413.919,0,0
363000.425,49.4281,-413.493,0,0
363260.75,49.4537,-413.104,0,0
363521.075,49.4902,-412.689,0,0
363781.4,49.5222,-412.291,0,0
364041.725,49.5301,-411.867,0,0
364302.05,49.4791,-411.444,0,0
364562.375,49.5298,-411.05,0,0
364822.7,49.5674,-410.618,0,0
365083.025,49.6161,-410.191,0,0
365343.35,49.6133,-409.775,0,0
365603.675,49.659,-409.31,0,0
365864.0,49.7213,-408.924,0,0
366124.325,49.7586,-408.516,0,0
366384.65,49.7867,-408.106,0,0
366644.975,49.83,-407.707,0,0
366905.3,49.8667,-407.295,0,0
367165.625,49.9046,-406.886,0,0
367425.95,49.9191,-406.429,0,0
367686.275,49.9408,-406.028,0,0
367946.6,50.0324,-405.635,0,0
368206.925,50.0232,-405.201,0,0
368467.25,50.0821,-404.708,0,0
368727.575,50.1209,-404.261,0,0
368987.9,50.1575,-403.843,0,0
369248.225,50.2119,-403.416,0,0
369508.55,50.3434,-402.961,0,0
369768.875,50.4701,-402.527,0,0
370029.2,50.6336,-402.094,0,0
370289.525,50.8409,-401.766,0,0
370549.85,51.0057,-401.388,0,0
370810.175,51.1608,-401.101,0,0
371070.5,51.3761,-400.823,0,0
371330.825,51.481,-400.596,0,0
371591.15,51.6117,-400.374,0,0
371851.475,51.6996,-400.169,0,0
372111.8,51.7886,-399.977,0,0
372372.125,51.8585,-399.846,0,0
372632.45,51.8587,-399.666,0,0
372892.775,51.8236,-399.479,0,0
373153.1,51.7678,-399.38,0,0
373413.425,51.7326,-399.187,0,0
373673.75,51.6155,-399.029,0,0
373934.075,51.4301,-398.83,0,0
374194.4,51.3075,-398.655,0,0
374454.725,51.0986,-398.446,0,0
374715.05,50.8317,-398.172,0,0
374975.375,50.6285,-397.879,0,0
375235.7,50.3719,-397.549,0,0
375496.025,50.1747,-397.144,0,0
375756.35,49.9542,-396.722,0,0
376016.675,49.8038,-396.27,0,0
376277.0,49.6863,-395.803,0,0
376537.325,49.5525,-395.355,0,0
376797.65,49.5009,-394.87,0,0
377057.975,49.505,-394.442,0,0
377318.3,49.4881,-394.074,0,0
377578.625,49.4744,-393.671,0,0
377838.95,49.3894,-393.369,0,0
378099.275,49.3267,-393.057,0,0
378359.6,49.2183,-392.781,0,0
378619.925,49.0936,-392.48,0,0
378880,48.917,-392.118,0,0
379141,48.7023,-391.766,0,0
379401,48.4747,-391.341,0,0
379661,48.2893,-390.861,0,0
379922,48.1724,-390.283,0,0
380182,48.0721,-389.745,0,0
380442,48.0872,-389.121,0,0
380703,48.1609,-388.628,0,0
380963,48.2456,-388.136,0,0
381223,48.4021,-387.707,0,0
381483,48.5465,-387.412,0,0
381744,48.7004,-387.169,0,0
382004,48.7825,-386.985,0,0
382264,48.7955,-386.85,0,0
382525,48.7228,-386.704,0,0
382785,48.6049,-386.569,0,0
383045,48.4357,-386.376,0,0
383306,48.2477,-386.178,0,0
383566,47.9761,-385.988,0,0
383826,47.7133,-385.737,0,0
384087,47.4269,-385.461,0,0
384347,47.1267,-385.203,0,0
384607,46.8239,-384.858,0,0
384868,46.4932,-384.48,0,0
385128,46.1743,-384.056,0,0
385388,45.8044,-383.624,0,0
385649,45.4953,-383.224,0,0
385909,45.2093,-382.69,0,0
386169,44.8622,-382.221,0,0
386430,44.5786,-381.682,0,0
386690,44.3118,-381.121,0,0
386950,44.0933,-380.546,0,0
387211,43.8071,-379.934,0,0
387471,43.5571,-379.324,0,0
387731,43.3627,-378.69,0,0
387992,43.1804,-378.08,0,0
388252,43.0129,-377.435,0,0
388512,42.8677,-376.803,0,0
388773,42.788,-376.135,0,0
389033,42.6548,-375.451,0,0
389293,42.5816,-374.849,0,0
389554,42.5543,-374.18,0,0
389814,42.5213,-373.59,0,0
390074,42.5171,-372.996,0,0
390335,42.4992,-372.422,0,0
390595,42.5111,-371.877,0,0
390855,42.4881,-371.321,0,0
391116,42.4518,-370.768,0,0
391376,42.4303,-370.275,0,0
391636,42.4137,-369.721,0,0
391896,42.3666,-369.195,0,0
392157,42.3118,-368.65,0,0
392417,42.3012,-368.136,0,0
392677,42.1947,-367.571,0,0
392938,42.16,-367.048,0,0
393198,42.1119,-366.493,0,0
393458,42.0479,-365.91,0,0
393719,42.0555,-365.347,0,0
393979,41.9819,-364.804,0,0
394239,41.9215,-364.205,0,0
394500,41.9141,-363.575,0,0
394760.05,41.907,-363.019,0,0
395020.375,41.9013,-362.422,0,0
395280.7,41.901,-361.811,0,0
395541.025,41.9425,-361.215,0,0
395801.35,41.9891,-360.637,0,0
396061.675,42.0135,-360.052,0,0
396322.0,42.0781,-359.491,0,0
396582.325,42.133,-358.927,0,0
396842.65,42.1764,-358.39,0,0
397102.975,42.2301,-357.853,0,0
397363.3,42.3021,-357.313,0,0
397623.625,42.3439,-356.781,0,0
397883.95,42.3853,-356.274,0,0
398144.275,42.4293,-355.756,0,0
398404.6,42.4922,-355.208,0,0
398664.925,42.5137,-354.683,0,0
398925.25,42.5518,-354.151,0,0
399185.575,42.5996,-353.641,0,0
399445.9,42.6186,-353.1,0,0
399706.225,42.6509,-352.569,0,0
399966.55,42.6986,-352.031,0,0
400006.6,42.6859,-351.95,0,0