File: Accelerated corrosion test data/2025-10-18_18-00-03/sample_3.csv
Frequency (Hz),Impedance (ohms),Phase (Radians),Temperature (C),Humidity (%)
10000.0,253.878,-11853.6,0,0
10260.325,247.322,-11554.8,0,0
10520.65,241.982,-11270.6,0,0
10780.975,238.452,-10999.5,0,0
11041.3,231.614,-10746.2,0,0
11301.625,226.307,-10499.8,0,0
11561.95,221.224,-10265,0,0
11822.275,216.905,-10040.3,0,0
12082.6,214.082,-9826.05,0,0
12342.925,212.848,-9619.3,0,0
12603.25,205.158,-9423.16,0,0
12863.575,201.587,-9232.19,0,0
13123.9,202.458,-9048.18,0,0
13384.225,195.104,-8879.29,0,0
13644.55,191.188,-8710.51,0,0
13904.875,187.56,-8545.8,0,0
14165.2,188.288,-8388.4,0,0
14425.525,181.846,-8237.65,0,0
14685.8,179.879,-8091.96,0,0
14946.175,177.617,-7952.13,0,0
15206.5,175.723,-7810.57,0,0
15466.825,187.15,-7669.39,0,0
15727.15,191.72,-7575.7,0,0
15987.5,172.656,-7455.37,0,0
16247.8,169.992,-7327.21,0,0
16508.125,162.712,-7213.02,0,0
16768.45,170.289,-7093.29,0,0
17028.775,159.209,-6992.86,0,0
17289.1,165.233,-6879.99,0,0
17549.425,158.018,-6788.06,0,0
17809.75,158.479,-6682.74,0,0
18070.075,161.884,-6597.17,0,0
18330.4,152.866,-6501.06,0,0
18590.725,149.716,-6409.35,0,0
18851.05,146.711,-6318.01,0,0
19111.375,148.117,-6229.9,0,0
19371.7,146.401,-6145.02,0,0
19632.025,148.049,-6060.1,0,0
19892.35,150.968,-5979.24,0,0
20152.675,150.53,-5904.19,0,0
20413.0,161.67,-5828.23,0,0
20673.3,170.399,-5762.28,0,0
20933.65,162.827,-5705.09,0,0
21193.975,162.248,-5642.86,0,0
21454.3,144.951,-5578,0,0
21714.625,141.267,-5502.59,0,0
21974.9,144.45,-5437.4,0,0
22235.275,139.051,-5379.14,0,0
22495.6,137.733,-5316.19,0,0
22755.925,130.76,-5255.11,0,0
23016.25,129.076,-5195.66,0,0
23276.6,129.834,-5133.1,0,0
23536.9,129.581,-5087.81,0,0
23797.225,122.309,-5028.44,0,0
24057.55,120.571,-4970.83,0,0
24317.875,121.322,-4915.01,0,0
24578.2,117.946,-4865.3,0,0
24838.525,120.016,-4812.48,0,0
25098.85,116.622,-4764.92,0,0
25359.175,115.02,-4714.61,0,0
25619.5,114.333,-4667.02,0,0
25879.8,111.991,-4619.99,0,0
26140.1,109.385,-4572.14,0,0
26400.5,109.525,-4524.65,0,0
26660.8,109.25,-4479.51,0,0
26921.1,110.264,-4434.78,0,0
27181.4,109.352,-4394.8,0,0
27441.8,108.96,-4350.68,0,0
27702.1,109.251,-4311.38,0,0
27962.4,106.618,-4269.81,0,0
28222.7,105.135,-4226.37,0,0
28483.1,114.458,-4185.91,0,0
28743.4,115.679,-4152.22,0,0
29003.7,115.074,-4121.2,0,0
29264,108.587,-4086.65,0,0
29524.4,109.507,-4050.23,0,0
29784.7,105.553,-4014.4,0,0
30045,102.68,-3979.97,0,0
30305.3,101.746,-3942.9,0,0
30565.7,103.5,-3908.92,0,0
30826,102.248,-3876.51,0,0
31086.3,103.696,-3843.95,0,0
31346.6,99.6602,-3813,0,0
31607,98.9708,-3778.99,0,0
31867.3,99.3153,-3744.41,0,0
32127.6,103.467,-3710.9,0,0
32387.9,112.083,-3682.57,0,0
32648.3,113.994,-3666.74,0,0
32908.6,104.008,-3640.72,0,0
33168.9,102.25,-3612.42,0,0
33429.2,100.267,-3587.03,0,0
33689.6,93.8865,-3558.44,0,0
33949.9,92.0282,-3527.98,0,0
34210.2,91.9754,-3500.62,0,0
34470.5,90.6496,-3473.97,0,0
34730.9,88.8748,-3447.81,0,0
34991.2,87.5699,-3420.6,0,0
35251.5,86.66,-3394.67,0,0
35511.8,85.5588,-3369.35,0,0
35772.2,85.044,-3343.85,0,0
36032.5,84.3191,-3319.08,0,0
36292.8,83.6682,-3294.4,0,0
36553.1,83.5346,-3270.59,0,0
36813.5,82.32,-3247.01,0,0
37073.8,81.8879,-3223.7,0,0
37334.1,80.9763,-3200.34,0,0
37594.4,80.6989,-3177.85,0,0
37854.8,80.1581,-3155.61,0,0
38115.1,79.7842,-3133.35,0,0
38375.4,79.1875,-3111.53,0,0
38635.7,78.5897,-3089.84,0,0
38896.1,78.1551,-3068.86,0,0
39156.4,77.9937,-3047.84,0,0
39416.7,77.7228,-3027.58,0,0
39677,76.932,-3007.23,0,0
39937.4,76.4638,-2986.83,0,0
40197.7,76.5421,-2966.58,0,0
40458,75.633,-2947.2,0,0
40718.3,75.5066,-2927.91,0,0
40978.7,75.1111,-2908.41,0,0
41239,75.1556,-2889.42,0,0
41499.3,74.9478,-2870.73,0,0
41759.6,75.2938,-2852.77,0,0
42020,74.8776,-2834.71,0,0
42280.275,74.3907,-2817.07,0,0
42540.6,73.8803,-2799.18,0,0
42800.925,73.6893,-2781.88,0,0
43061.25,73.2018,-2764.75,0,0
43321.575,72.6275,-2747.34,0,0
43581.9,72.4086,-2730.29,0,0
43842.225,72.6112,-2713.23,0,0
44102.55,72.6198,-2696.61,0,0
44362.875,72.7602,-2681.12,0,0
44623.2,71.9352,-2665.03,0,0
44883.525,71.7319,-2648.97,0,0
45143.85,71.4987,-2633.09,0,0
45404.175,70.9699,-2617.58,0,0
45664.5,70.8424,-2601.42,0,0
45924.825,71.6943,-2586.78,0,0
46185.15,70.6905,-2572.2,0,0
46445.475,70.1905,-2556.84,0,0
46705.8,70.6588,-2541.69,0,0
46966.125,70.736,-2527.62,0,0
47226.45,70.3083,-2513.04,0,0
47486.775,70.2494,-2498.27,0,0
47747.1,71.2757,-2484.05,0,0
48007.425,70.9712,-2471.23,0,0
48267.75,70.9155,-2457.84,0,0
48528.075,70.2697,-2444.62,0,0
48788.4,69.6997,-2431.63,0,0
49048.725,69.0768,-2418.07,0,0
49309.05,68.6619,-2404.63,0,0
49569.375,68.4251,-2391.4,0,0
49829.7,68.2097,-2378.65,0,0
50090.025,67.6543,-2365.65,0,0
50350.35,67.1283,-2352.58,0,0
50610.675,67.0771,-2339.5,0,0
50871.0,66.9494,-2327.02,0,0
51131.325,66.8495,-2314.53,0,0
51391.65,66.7935,-2301.92,0,0
51651.975,66.7794,-2289.8,0,0
51912.3,66.771,-2277.85,0,0
52172.625,66.3862,-2265.68,0,0
52432.95,66.3492,-2253.42,0,0
52693.275,66.6948,-2241.41,0,0
52953.6,67.069,-2229.48,0,0
53213.925,67.7626,-2218.03,0,0
53474.25,68.2586,-2207.1,0,0
53734.575,68.4012,-2195.99,0,0
53994.9,68.6648,-2184.9,0,0
54255.225,70.0263,-2174.17,0,0
54515.55,70.8318,-2165.23,0,0
54775.875,69.7232,-2155.83,0,0
55036.2,69.4156,-2145.55,0,0
55296.525,68.6768,-2136.32,0,0
55556.85,67.4066,-2126.75,0,0
55817.175,65.9657,-2116.01,0,0
56077.5,64.689,-2105.55,0,0
56337.825,64.0529,-2094.93,0,0
56598.15,62.7749,-2084.28,0,0
56858.475,62.1705,-2073.51,0,0
57118.8,61.6358,-2062.51,0,0
57379.125,61.6246,-2051.98,0,0
57639.45,61.483,-2041.59,0,0
57899.775,61.6191,-2031.21,0,0
58160.1,61.5739,-2021.3,0,0
58420.4,61.4779,-2011.17,0,0
58680.7,61.4629,-2001.29,0,0
58941.1,61.6185,-1991.31,0,0
59201.4,61.9083,-1981.33,0,0
59461.7,62.1707,-1971.7,0,0
59722,62.4622,-1962.28,0,0
59982.4,62.5981,-1952.67,0,0
60242.7,62.94,-1943.39,0,0
60503,63.1802,-1934.1,0,0
60763.3,63.4555,-1924.87,0,0
61023.7,63.793,-1915.69,0,0
61284,64.1682,-1906.6,0,0
61544.3,64.7618,-1897.38,0,0
61804.6,65.2944,-1888.68,0,0
62065,65.5141,-1879.69,0,0
62325.3,65.9797,-1870.9,0,0
62585.6,66.483,-1862.01,0,0
62845.9,67.4082,-1852.92,0,0
63106.3,68.4606,-1844.28,0,0
63366.6,69.2386,-1835.88,0,0
63626.9,70.4182,-1827.05,0,0
63887.2,71.4259,-1818.57,0,0
64147.6,73.2125,-1809.51,0,0
64407.9,75.9858,-1801.4,0,0
64668.2,78.032,-1793.99,0,0
64928.5,81.1755,-1786.11,0,0
65188.9,85.0528,-1780.55,0,0
65449.2,87.3709,-1775.51,0,0
65709.5,89.9383,-1770.57,0,0
65969.8,93.7658,-1768.5,0,0
66230.2,92.3171,-1769.3,0,0
66490.5,86.6567,-1766.68,0,0
66750.8,81.3833,-1759.81,0,0
67011.1,78.4206,-1751.71,0,0
67271.5,76.028,-1743.05,0,0
67531.8,75.0859,-1734.17,0,0
67792.1,75.1831,-1726,0,0
68052.4,75.7633,-1718.2,0,0
68312.8,76.5299,-1711.66,0,0
68573.1,76.1323,-1705.03,0,0
68833.4,76.7068,-1697.9,0,0
69093.7,77.618,-1691.71,0,0
69354.1,78.206,-1686.34,0,0
69614.4,77.7784,-1681.54,0,0
69874.7,76.6187,-1675.84,0,0
70135,75.7391,-1669.82,0,0
70395.4,74.9747,-1664.15,0,0
70655.7,73.5494,-1657.95,0,0
70916,72.4059,-1651.5,0,0
71176.3,71.6649,-1644.86,0,0
71436.7,70.6573,-1638.42,0,0
71697,69.9878,-1631.28,0,0
71957.3,70.1384,-1624.45,0,0
72217.6,70.3386,-1618.11,0,0
72478,70.4224,-1612.22,0,0
72738.3,70.5457,-1606.69,0,0
72998.6,70.1079,-1600.94,0,0
73258.9,69.6359,-1595.27,0,0
73519.3,69.3032,-1589.51,0,0
73779.6,68.8391,-1583.97,0,0
74039.9,68.0863,-1578.49,0,0
74300.225,67.2753,-1572.86,0,0
74560.55,66.6518,-1567.2,0,0
74820.875,65.8485,-1561.44,0,0
75081.2,65.0623,-1555.64,0,0
75341.525,64.3301,-1549.85,0,0
75601.85,63.606,-1544.11,0,0
75862.175,62.8291,-1538.19,0,0
76122.5,62.1004,-1532.31,0,0
76382.825,61.4446,-1526.35,0,0
76643.15,60.8218,-1520.49,0,0
76903.475,60.3436,-1514.6,0,0
77163.8,59.8218,-1508.78,0,0
77424.125,59.3293,-1503.06,0,0
77684.45,58.7899,-1497.33,0,0
77944.775,58.3142,-1491.56,0,0
78205.1,57.8572,-1485.86,0,0
78465.425,57.3329,-1480.13,0,0
78725.75,56.8972,-1474.41,0,0
78986.075,56.5288,-1468.67,0,0
79246.4,56.118,-1462.99,0,0
79506.725,55.7521,-1457.37,0,0
79767.05,55.4169,-1451.69,0,0
80027.375,55.1569,-1446.14,0,0
80287.7,54.8908,-1440.5,0,0
80548.025,54.6847,-1435.03,0,0
80808.35,54.4815,-1429.52,0,0
81068.675,54.2282,-1424.01,0,0
81329.0,54.0296,-1418.59,0,0
81589.325,53.8799,-1413.17,0,0
81849.65,53.7178,-1407.77,0,0
82109.975,53.5779,-1402.4,0,0
82370.3,53.4623,-1397.08,0,0
82630.625,53.3714,-1391.78,0,0
82890.95,53.2629,-1386.53,0,0
83151.275,53.2181,-1381.3,0,0
83411.6,53.1091,-1376.1,0,0
83671.925,53.0478,-1370.94,0,0
83932.25,53.006,-1365.84,0,0
84192.575,53.013,-1360.76,0,0
84452.9,52.8778,-1355.71,0,0
84713.225,52.867,-1350.67,0,0
84973.55,52.8337,-1345.6,0,0
85233.875,52.8515,-1340.62,0,0
85494.2,52.9015,-1335.58,0,0
85754.525,52.8738,-1330.69,0,0
86014.85,52.8912,-1325.82,0,0
86275.175,52.9243,-1320.91,0,0
86535.5,52.9467,-1316.06,0,0
86795.825,53.0178,-1311.16,0,0
87056.15,53.0124,-1306.39,0,0
87316.475,53.1445,-1301.5,0,0
87576.8,53.2541,-1296.72,0,0
87837.125,53.4286,-1292.06,0,0
88097.45,53.4615,-1287.27,0,0
88357.775,53.5082,-1282.57,0,0
88618.1,53.6248,-1277.62,0,0
88878.425,53.9606,-1272.8,0,0
89138.75,54.3392,-1267.94,0,0
89399.075,54.9157,-1263.39,0,0
89659.4,55.4161,-1258.86,0,0
89919.725,55.8545,-1254.6,0,0
90180,56.2628,-1250.34,0,0
90440.4,56.6309,-1246.12,0,0
90700.7,56.8722,-1241.66,0,0
90961,57.3259,-1237.4,0,0
91221.3,57.7402,-1233.22,0,0
91481.7,58.1465,-1229.12,0,0
91742,58.5393,-1224.94,0,0
92002.3,58.9901,-1220.89,0,0
92262.6,59.5558,-1216.78,0,0
92523,60.3075,-1213.02,0,0
92783.3,60.6455,-1209.41,0,0
93043.6,61.0256,-1205.61,0,0
93303.9,61.5547,-1201.84,0,0
93564.3,62.2177,-1198.4,0,0
93824.6,62.991,-1195.16,0,0
94084.9,63.3202,-1192.66,0,0
94345.2,63.035,-1190.05,0,0
94605.6,62.3737,-1187.23,0,0
94865.9,61.628,-1184.26,0,0
95126.2,60.3243,-1181.18,0,0
95386.5,58.9455,-1177.18,0,0
95646.9,58.085,-1172.96,0,0
95907.2,57.3329,-1168.83,0,0
96167.5,56.5057,-1164.44,0,0
96427.8,56.2939,-1159.9,0,0
96688.2,56.161,-1155.65,0,0
96948.5,56.0837,-1151.51,0,0
97208.8,55.9963,-1147.44,0,0
97469.1,55.9153,-1143.4,0,0
97729.5,55.8425,-1139.41,0,0
97989.8,55.725,-1135.39,0,0
98250.1,55.7482,-1131.36,0,0
98510.4,55.8551,-1127.42,0,0
98770.8,55.8535,-1123.62,0,0
99031.1,55.7581,-1119.81,0,0
99291.4,55.6659,-1115.98,0,0
99551.7,55.4716,-1112.1,0,0
99812.1,55.4404,-1108.19,0,0
100072,55.4289,-1104.26,0,0
100333,55.3463,-1100.35,0,0
100593,55.2446,-1096.48,0,0
100853,55.197,-1092.38,0,0
101114,55.3,-1088.33,0,0
101374,55.3352,-1084.32,0,0
101634,55.5032,-1080.17,0,0
101895,55.8137,-1076.07,0,0
102155,56.2184,-1071.96,0,0
102415,56.8016,-1067.84,0,0
102676,57.701,-1063.91,0,0
102936,58.6322,-1060.36,0,0
103196,59.3238,-1057.08,0,0
103457,59.7744,-1053.67,0,0
103717,60.3044,-1050.11,0,0
103977,61.1541,-1046.54,0,0
104238,62.2484,-1043.42,0,0
104498,63.1046,-1040.84,0,0
104758,63.4166,-1038.25,0,0
105019,63.5847,-1035.69,0,0
105279,63.5462,-1032.73,0,0
105539,63.8059,-1029.79,0,0
105800,63.8997,-1027.12,0,0
106060,63.7348,-1024.45,0,0
106320.175,63.3753,-1021.62,0,0
106580.5,63.1096,-1018.6,0,0
106840.825,62.7325,-1015.63,0,0
107101.15,62.3032,-1012.41,0,0
107361.475,62.0344,-1009.23,0,0
107621.8,61.6537,-1006.01,0,0
107882.125,61.355,-1002.7,0,0
108142.45,61.034,-999.426,0,0
108402.775,60.56,-996.158,0,0
108663.1,60.0678,-992.56,0,0
108923.425,59.7529,-988.791,0,0
109183.75,59.6885,-985.021,0,0
109444.075,59.6816,-981.451,0,0
109704.4,59.6175,-977.778,0,0
109964.725,59.623,-974.096,0,0
110225.05,59.7142,-970.383,0,0
110485.375,59.9566,-966.41,0,0
110745.7,60.4226,-962.774,0,0
111006.025,60.9934,-959.293,0,0
111266.35,61.4195,-955.861,0,0
111526.675,61.8479,-952.455,0,0
111787.0,62.3714,-949.063,0,0
112047.325,62.8226,-945.861,0,0
112307.65,63.3734,-942.707,0,0
112567.975,63.7103,-939.477,0,0
112828.3,64.1362,-936.377,0,0
113088.625,64.5065,-933.277,0,0
113348.95,64.7387,-930.276,0,0
113609.275,64.9203,-927.02,0,0
113869.6,65.1881,-923.765,0,0
114129.925,65.4737,-920.493,0,0
114390.25,65.7563,-917.189,0,0
114650.575,66.0094,-913.826,0,0
114910.9,66.3575,-910.412,0,0
115171.225,66.8674,-907.017,0,0
115431.55,67.3954,-903.569,0,0
115691.875,68.0295,-900.233,0,0
115952.2,68.6268,-896.901,0,0
116212.525,69.3475,-893.574,0,0
116472.85,70.1021,-890.13,0,0
116733.175,71.0486,-886.885,0,0
116993.5,71.91,-883.755,0,0
117253.825,72.6273,-880.505,0,0
117514.15,73.5755,-876.9,0,0
117774.475,75.2585,-873.396,0,0
118034.8,76.9825,-870.687,0,0
118295.125,78.489,-868.081,0,0
118555.45,79.9532,-865.779,0,0
118815.775,80.9408,-863.373,0,0
119076.1,82.1703,-860.526,0,0
119336.425,84.0301,-858.018,0,0
119596.75,85.9308,-856.067,0,0
119857.075,87.6649,-854.462,0,0
120117.4,89.3437,-853.764,0,0
120377.725,89.9559,-853.178,0,0
120638.05,90.3032,-852.325,0,0
120898.375,90.1271,-851.63,0,0
121158.7,89.3613,-850.432,0,0
121419.025,88.5004,-848.744,0,0
121679.35,87.5129,-846.555,0,0
121939.675,86.8251,-843.903,0,0
122200.0,86.485,-841.087,0,0
122460,86.3994,-838.224,0,0
122721,86.5702,-835.381,0,0
122981,87.0047,-832.636,0,0
123241,87.454,-830.264,0,0
123502,87.676,-827.937,0,0
123762,87.9762,-825.492,0,0
124022,88.3656,-823.085,0,0
124283,88.7214,-820.769,0,0
124543,89.1476,-818.496,0,0
124803,89.5575,-816.307,0,0
125064,89.8913,-814.184,0,0
125324,90.2901,-812.096,0,0
125584,90.5895,-810.114,0,0
125845,90.8615,-808.23,0,0
126105,90.9725,-806.431,0,0
126365,90.886,-804.579,0,0
126626,90.6777,-802.536,0,0
126886,90.6257,-800.425,0,0
127146,90.552,-798.323,0,0
127406,90.4715,-796.33,0,0
127667,90.2489,-794.333,0,0
127927,89.9106,-792.306,0,0
128187,89.4357,-790.085,0,0
128448,88.9119,-787.756,0,0
128708,88.5613,-785.13,0,0
128968,88.3606,-782.609,0,0
129229,88.2181,-780.085,0,0
129489,88.0388,-777.595,0,0
129749,87.7738,-774.93,0,0
130010,87.7834,-772.074,0,0
130270,88.1304,-769.451,0,0
130530,88.4634,-766.971,0,0
130791,88.8393,-764.765,0,0
131051,88.9768,-762.773,0,0
131311,88.9343,-760.712,0,0
131572,88.7365,-758.617,0,0
131832,88.4659,-756.413,0,0
132092,88.1945,-754.006,0,0
132353,87.964,-751.627,0,0
132613,87.9021,-749.207,0,0
132873,87.767,-746.858,0,0
133134,87.6469,-744.584,0,0
133394,87.385,-742.327,0,0
133654,87.0031,-740.004,0,0
133915,86.6127,-737.485,0,0
134175,86.3243,-734.914,0,0
134435,86.106,-732.396,0,0
134696,85.8224,-729.875,0,0
134956,85.442,-727.257,0,0
135216,85.1555,-724.61,0,0
135477,84.983,-721.997,0,0
135737,84.7047,-719.453,0,0
135997,84.2123,-716.83,0,0
136258,83.7509,-713.933,0,0
136518,83.4086,-710.91,0,0
136778,83.2407,-707.811,0,0
137039,83.1477,-704.799,0,0
137299,83.1023,-701.703,0,0
137559,83.2944,-698.547,0,0
137819,83.6274,-695.609,0,0
138080,83.935,-692.797,0,0
138340.125,84.2707,-690.039,0,0
138600.45,84.6175,-687.493,0,0
138860.775,84.687,-685.09,0,0
139121.1,84.6085,-682.524,0,0
139381.425,84.5177,-679.927,0,0
139641.75,84.3562,-677.25,0,0
139902.075,84.1517,-674.384,0,0
140162.4,84.182,-671.481,0,0
140422.725,84.2288,-668.763,0,0
140683.05,84.1054,-666.082,0,0
140943.375,83.9074,-663.314,0,0
141203.7,83.6812,-660.437,0,0
141464.025,83.3731,-657.58,0,0
141724.35,83.0183,-654.478,0,0
141984.675,82.79,-651.217,0,0
142245.0,82.6566,-647.995,0,0
142505.325,82.506,-644.714,0,0
142765.65,82.4133,-641.334,0,0
143025.975,82.4198,-637.874,0,0
143286.3,82.4523,-634.438,0,0
143546.625,82.568,-630.995,0,0
143806.95,82.6915,-627.551,0,0
144067.275,82.8208,-624.019,0,0
144327.6,83.0335,-620.423,0,0
144587.925,83.3104,-616.82,0,0
144848.25,83.6381,-613.198,0,0
145108.575,84.0246,-609.58,0,0
145368.9,84.4336,-605.99,0,0
145629.225,84.8354,-602.359,0,0
145889.55,85.1661,-598.646,0,0
146149.875,85.613,-594.717,0,0
146410.2,86.3118,-590.764,0,0
146670.525,87.0134,-586.975,0,0
146930.85,87.7051,-583.12,0,0
147191.175,88.4668,-579.135,0,0
147451.5,89.3904,-575.152,0,0
147711.825,90.3439,-571.234,0,0
147972.15,91.2611,-567.221,0,0
148232.475,92.3557,-563.085,0,0
148492.8,93.6097,-558.942,0,0
148753.125,94.9804,-554.827,0,0
149013.45,96.4003,-550.739,0,0
149273.775,97.9247,-546.524,0,0
149534.1,99.728,-542.301,0,0
149794.425,101.715,-538.2,0,0
150054.75,103.79,-534.184,0,0
150315.075,106.089,-530.269,0,0
150575.4,108.442,-526.574,0,0
150835.725,110.824,-522.967,0,0
151096.05,113.252,-519.458,0,0
151356.375,115.734,-516.019,0,0
151616.7,118.339,-512.679,0,0
151877.025,121.055,-509.55,0,0
152137.35,123.701,-506.738,0,0
152397.675,126.147,-504.033,0,0
152658.0,128.529,-501.293,0,0
152918.325,130.934,-498.699,0,0
153178.65,133.14,-496.263,0,0
153438.975,135.079,-493.7,0,0
153699.3,137.022,-490.934,0,0
153959.625,139.179,-488.132,0,0
154219.95,141.422,-485.68,0,0
154480,143.148,-483.397,0,0
154741,144.539,-480.709,0,0
155001,146.095,-477.581,0,0
155261,147.857,-474.242,0,0
155522,149.907,-471.05,0,0
155782,151.9,-467.885,0,0
156042,153.867,-464.61,0,0
156303,155.899,-461.249,0,0
156563,158.05,-457.619,0,0
156823,160.618,-453.684,0,0
157084,163.83,-449.892,0,0
157344,167.537,-446.502,0,0
157604,171.458,-443.983,0,0
157864,175.142,-442.206,0,0
158125,177.982,-441.266,0,0
158385,179.572,-440.08,0,0
158645,180.596,-437.987,0,0
158906,181.643,-435.432,0,0
159166,182.489,-432.364,0,0
159426,183.247,-428.723,0,0
159687,184.02,-424.273,0,0
159947,185.437,-419.011,0,0
160207,187.78,-413.144,0,0
160468,191.296,-407.459,0,0
160728,195.298,-402.586,0,0
160988,198.816,-398.232,0,0
161249,201.942,-392.835,0,0
161509,206.304,-386.658,0,0
161769,211.919,-380.899,0,0
162030,217.909,-376.16,0,0
162290,223.914,-371.485,0,0
162550,230.115,-367.194,0,0
162811,236.215,-362.926,0,0
163071,242.653,-358.008,0,0
163331,250.505,-352.976,0,0
163592,259.321,-349.138,0,0
163852,267.923,-346.124,0,0
164112,276.742,-343.079,0,0
164373,286.3,-340.214,0,0
164633,296.875,-338.137,0,0
164893,308.201,-337.309,0,0
165154,319.493,-338.306,0,0
165414,330.03,-340.371,0,0
165674,339.905,-343.284,0,0
165935,349.211,-346.318,0,0
166195,358.705,-349.741,0,0
166455,368.075,-354.237,0,0
166716,376.922,-359.351,0,0
166976,385.34,-365.483,0,0
167236,392.847,-372.269,0,0
167497,399.175,-379.436,0,0
167757,404.694,-386.81,0,0
168017,409.563,-394.298,0,0
168277,413.432,-401.651,0,0
168538,417,-408.455,0,0
168798,421.036,-415.741,0,0
169058,424.351,-424.388,0,0
169319,425.946,-433.795,0,0
169579,425.451,-442.983,0,0
169839,422.928,-451.184,0,0
170100,419.196,-457.179,0,0
170360.075,415.752,-461.032,0,0
170620.4,413.465,-463.942,0,0
170880.725,411.49,-466.969,0,0
171141.05,409.173,-469.172,0,0
171401.375,407.69,-470.423,0,0
171661.7,407.119,-471.934,0,0
171922.025,406.418,-473.705,0,0
172182.35,405.345,-475.083,0,0
172442.675,404.44,-475.487,0,0
172703.0,405.059,-475.163,0,0
172963.325,407.04,-475.789,0,0
173223.65,409.059,-477.708,0,0
173483.975,410.619,-480.371,0,0
173744.3,411.359,-483.24,0,0
174004.625,411.984,-485.447,0,0
174264.95,413.366,-487.929,0,0
174525.275,414.193,-491.639,0,0
174785.6,413.827,-494.775,0,0
175045.925,413.726,-496.94,0,0
175306.25,414.559,-499.032,0,0
175566.575,416.17,-502.128,0,0
175826.9,417.229,-506.846,0,0
176087.225,417.028,-511.847,0,0
176347.55,416.236,-516.552,0,0
176607.875,415.364,-522.039,0,0
176868.2,412.624,-528.517,0,0
177128.525,407.546,-533.906,0,0
177388.85,401.512,-537.291,0,0
177649.175,395.905,-539.312,0,0
177909.5,390.154,-541.088,0,0
178169.825,383.466,-541.336,0,0
178430.15,377.48,-539.534,0,0
178690.475,372.955,-536.835,0,0
178950.8,369.484,-533.956,0,0
179211.125,366.663,-530.97,0,0
179471.45,364.545,-527.697,0,0
179731.775,363.477,-524.304,0,0
179992.1,363.314,-521.379,0,0
180252.425,363.588,-519.108,0,0
180512.75,364.205,-517.157,0,0
180773.075,365.184,-515.678,0,0
181033.4,366.452,-514.824,0,0
181293.725,367.807,-514.843,0,0
181554.05,368.844,-515.649,0,0
181814.375,369.319,-517.107,0,0
182074.7,368.641,-518.936,0,0
182335.025,367.158,-520.211,0,0
182595.35,365.598,-521.112,0,0
182855.675,363.761,-521.973,0,0
183116.0,361.57,-522.554,0,0
183376.325,359.093,-522.885,0,0
183636.65,356.35,-522.923,0,0
183896.975,353.241,-522.517,0,0
184157.3,350.213,-521.373,0,0
184417.625,347.488,-520.165,0,0
184677.95,344.239,-518.762,0,0
184938.275,341.136,-516.332,0,0
185198.6,338.545,-513.782,0,0
185458.925,335.916,-511.041,0,0
185719.25,333.403,-507.733,0,0
185979.575,331.195,-504.07,0,0
186239.9,329.103,-499.902,0,0
186500,327.737,-495.02,0,0
186761,327.5,-490.042,0,0
187021,328.087,-485.606,0,0
187281,328.867,-481.687,0,0
187542,329.776,-478.022,0,0
187802,330.844,-474.587,0,0
188062,332.11,-471.392,0,0
188322,333.431,-468.739,0,0
188583,334.223,-466.422,0,0
188843,334.356,-463.774,0,0
189103,334.547,-460.22,0,0
189364,335.549,-456.281,0,0
189624,337.159,-452.671,0,0
189884,338.994,-449.448,0,0
190145,340.807,-446.517,0,0
190405,342.555,-443.562,0,0
190665,344.515,-440.674,0,0
190926,346.495,-438.152,0,0
191186,348.255,-435.786,0,0
191446,349.645,-433.206,0,0
191707,351.239,-430.235,0,0
191967,353.115,-427.491,0,0
192227,354.536,-424.857,0,0
192488,355.674,-421.51,0,0
192748,357.143,-417.441,0,0
193008,359.483,-412.871,0,0
193269,362.7,-408.329,0,0
193529,366.647,-404.26,0,0
193789,370.8,-400.705,0,0
194050,375.091,-397.305,0,0
194310,379.75,-394.106,0,0
194570,384.587,-391.199,0,0
194831,389.691,-388.484,0,0
195091,395.021,-385.989,0,0
195351,400.619,-383.725,0,0
195612,407.047,-381.744,0,0
195872,413.734,-380.458,0,0
196132,420.813,-380.185,0,0
196393,427.744,-381.148,0,0
196653,434.1,-383.358,0,0
196913,438.9,-386.155,0,0
197174,442.561,-388.315,0,0
197434,446.313,-389.851,0,0
197694,450.344,-391.581,0,0
197955,454.148,-393.973,0,0
198215,457.143,-396.611,0,0
198475,459.445,-399.218,0,0
198735,460.919,-401.441,0,0
198996,462.054,-402.795,0,0
199256,463.35,-403.754,0,0
199516,464.685,-404.45,0,0
199777,465.913,-405.074,0,0
200037,466.734,-405.499,0,0
200297,467.137,-405.345,0,0
200558,467.584,-403.782,0,0
200818,469.065,-401.321,0,0
201078,471.622,-398.975,0,0
201339,474.644,-396.892,0,0
201599,477.867,-394.916,0,0
201859,481.344,-392.712,0,0
202120,485.448,-390.176,0,0
202380.025,490.642,-387.732,0,0
202640.35,496.815,-386.055,0,0
202900.675,503.287,-385.381,0,0
203161.0,509.734,-385.435,0,0
203421.325,516.005,-385.968,0,0
203681.65,522.454,-386.831,0,0
203941.975,529.061,-388.495,0,0
204202.3,535.335,-390.926,0,0
204462.625,541.105,-393.799,0,0
204722.95,546.443,-397.084,0,0
204983.275,551.392,-400.861,0,0
205243.6,555.1,-405.136,0,0
205503.925,557.864,-408.807,0,0
205764.25,560.036,-411.829,0,0
206024.575,561.773,-414.077,0,0
206284.9,563.625,-415.247,0,0
206545.225,565.914,-415.707,0,0
206805.55,568.952,-415.359,0,0
207065.875,573.232,-414.965,0,0
207326.2,578.269,-415.233,0,0
207586.525,583.35,-415.887,0,0
207846.85,588.631,-416.273,0,0
208107.175,594.936,-416.768,0,0
208367.5,602.037,-418.11,0,0
208627.825,609.385,-420.421,0,0
208888.15,616.74,-423.696,0,0
209148.475,623.591,-427.792,0,0
209408.8,630.018,-432.234,0,0
209669.125,636.14,-436.756,0,0
209929.45,642.286,-441.598,0,0
210189.775,648.223,-446.703,0,0
210450.1,654.058,-452.083,0,0
210710.425,659.64,-457.91,0,0
210970.75,665.143,-463.891,0,0
211231.075,670.459,-470.36,0,0
211491.4,675.285,-477.181,0,0
211751.725,679.711,-484.003,0,0
212012.05,683.908,-490.72,0,0
212272.375,688.189,-497.48,0,0
212532.7,692.569,-504.512,0,0
212793.025,696.965,-512.042,0,0
213053.35,701.088,-520.129,0,0
213313.675,704.774,-528.752,0,0
213574.0,707.659,-537.708,0,0
213834.325,709.918,-546.647,0,0
214094.65,711.776,-555.444,0,0
214354.975,713.292,-564.224,0,0
214615.3,714.451,-572.984,0,0
214875.625,715.106,-581.634,0,0
215135.95,715.579,-589.855,0,0
215396.275,716.187,-598.152,0,0
215656.6,716.67,-606.492,0,0
215916.925,716.991,-614.93,0,0
216177.25,717.341,-623.757,0,0
216437.575,717.197,-632.906,0,0
216697.9,716.489,-642.335,0,0
216958.225,715.083,-651.593,0,0
217218.55,713.356,-660.607,0,0
217478.875,711.32,-669.841,0,0
217739.2,708.601,-678.815,0,0
217999.525,705.221,-687.453,0,0
218259.85,701.529,-695.506,0,0
218520,697.819,-703.173,0,0
218780,693.978,-710.247,0,0
219041,690.351,-717.024,0,0
219301,686.992,-723.761,0,0
219561,683.681,-730.519,0,0
219822,680.278,-737.59,0,0
220082,676.669,-744.608,0,0
220342,672.9,-751.501,0,0
220603,669.156,-758.653,0,0
220863,665.293,-765.913,0,0
221123,661.02,-773.339,0,0
221384,656.45,-781.138,0,0
221644,651.322,-789.223,0,0
221904,645.097,-797.59,0,0
222165,637.832,-805.461,0,0
222425,629.27,-812.515,0,0
222685,620.339,-818.461,0,0
222946,611.025,-823.567,0,0
223206,601.661,-827.516,0,0
223466,592.552,-830.443,0,0
223727,583.614,-832.626,0,0
223987,574.972,-834.013,0,0
224247,566.749,-834.541,0,0
224508,559.258,-834.183,0,0
224768,552.898,-833.533,0,0
225028,547.574,-832.703,0,0
225289,543.064,-832.443,0,0
225549,538.966,-832.537,0,0
225809,535.074,-833.087,0,0
226070,531.284,-833.988,0,0
226330,527.577,-835.066,0,0
226590,523.882,-836.326,0,0
226851,520.591,-837.657,0,0
227111,517.331,-839.783,0,0
227371,513.611,-842.55,0,0
227632,509.293,-845.228,0,0
227892,504.515,-847.881,0,0
228152,499.301,-850.338,0,0
228413,493.912,-852.31,0,0
228673,488.543,-853.864,0,0
228933,483.428,-855.242,0,0
229193,478.566,-856.584,0,0
229454,473.729,-858.122,0,0
229714,468.642,-859.838,0,0
229974,463.184,-861.414,0,0
230235,457.559,-863.007,0,0
230495,451.765,-864.081,0,0
230755,445.966,-864.999,0,0
231016,440.065,-865.555,0,0
231276,434.162,-865.861,0,0
231536,428.486,-865.844,0,0
231797,423.018,-865.702,0,0
232057,417.633,-865.503,0,0
232317,412.292,-865.16,0,0
232578,407.163,-864.735,0,0
232838,402.152,-864.307,0,0
233098,397.103,-863.861,0,0
233359,392.088,-863.329,0,0
233619,387.078,-862.701,0,0
233879,382.078,-861.905,0,0
234140,377.37,-860.896,0,0
234400,372.76,-860.036,0,0
234660.3,368.298,-859.237,0,0
234920.625,363.776,-858.543,0,0
235180.95,359.221,-857.91,0,0
235441.275,354.608,-857.219,0,0
235701.6,349.851,-856.538,0,0
235961.925,344.929,-855.731,0,0
236222.25,339.813,-854.686,0,0
236482.575,334.808,-853.346,0,0
236742.9,330.072,-851.979,0,0
237003.225,325.187,-850.723,0,0
237263.55,320.169,-849.31,0,0
237523.875,314.911,-847.718,0,0
237784.2,309.667,-845.695,0,0
238044.525,304.454,-843.27,0,0
238304.85,299.522,-840.545,0,0
238565.175,294.747,-837.691,0,0
238825.5,290.335,-834.531,0,0
239085.825,286.123,-831.4,0,0
239346.15,282.143,-828.111,0,0
239606.475,278.452,-824.979,0,0
239866.8,274.853,-821.802,0,0
240127.125,271.237,-818.529,0,0
240387.45,267.605,-815.247,0,0
240647.775,264.271,-811.809,0,0
240908.1,261.014,-808.18,0,0
241168.425,258.036,-804.539,0,0
241428.75,255.278,-800.688,0,0
241689.075,252.707,-796.818,0,0
241949.4,250.45,-792.969,0,0
242209.725,248.536,-789.236,0,0
242470.05,246.719,-785.544,0,0
242730.375,245.146,-781.891,0,0
242990.7,243.848,-778.267,0,0
243251.025,242.924,-774.916,0,0
243511.35,242.004,-771.921,0,0
243771.675,241.255,-769.283,0,0
244032.0,240.331,-766.966,0,0
244292.325,239.185,-764.742,0,0
244552.65,237.813,-762.505,0,0
244812.975,236.354,-760.294,0,0
245073.3,234.91,-757.886,0,0
245333.625,233.388,-755.348,0,0
245593.95,231.966,-752.755,0,0
245854.275,230.754,-750.124,0,0
246114.6,229.608,-747.475,0,0
246374.925,228.509,-744.771,0,0
246635.25,227.675,-742.098,0,0
246895.575,226.912,-739.639,0,0
247155.9,226.161,-737.315,0,0
247416.225,225.293,-735.044,0,0
247676.55,224.417,-732.706,0,0
247936.875,223.607,-730.25,0,0
248197.2,222.92,-727.703,0,0
248457.525,222.44,-725.139,0,0
248717.85,222.243,-722.729,0,0
248978.175,222.329,-720.519,0,0
249238.5,222.428,-718.644,0,0
249498.825,222.498,-717.089,0,0
249759.15,222.373,-715.719,0,0
250019.475,222.118,-714.573,0,0
250279.8,221.662,-713.542,0,0
250540,220.931,-712.595,0,0
250800,219.912,-711.567,0,0
251061,218.876,-710.474,0,0
251321,217.595,-709.238,0,0
251581,216.22,-707.912,0,0
251842,214.764,-706.439,0,0
252102,213.206,-704.797,0,0
252362,211.586,-702.924,0,0
252623,210.025,-700.828,0,0
252883,208.645,-698.576,0,0
253143,207.336,-696.291,0,0
253404,206.03,-693.906,0,0
253664,204.652,-691.358,0,0
253924,203.44,-688.591,0,0
254185,202.38,-685.61,0,0
254445,201.542,-682.51,0,0
254705,200.99,-679.43,0,0
254966,200.531,-676.182,0,0
255226,200.326,-672.892,0,0
255486,200.418,-669.476,0,0
255747,200.839,-666.055,0,0
256007,201.619,-662.856,0,0
256267,202.554,-659.764,0,0
256528,203.779,-656.952,0,0
256788,205.041,-654.37,0,0
257048,206.346,-651.967,0,0
257309,207.7,-649.688,0,0
257569,209.292,-647.62,0,0
257829,210.525,-645.642,0,0
258090,211.87,-643.451,0,0
258350,213.357,-641.281,0,0
258610,215.13,-639.003,0,0
258871,217.198,-636.865,0,0
259131,219.564,-634.84,0,0
259391,222.311,-633.263,0,0
259651,225.225,-632.039,0,0
259912,228.165,-631.217,0,0
260172,231.106,-630.772,0,0
260432,234.079,-630.416,0,0
260693,237.28,-630.456,0,0
260953,240.644,-631.071,0,0
261213,243.964,-632.389,0,0
261474,246.902,-634.365,0,0
261734,249.349,-636.884,0,0
261994,251.229,-639.661,0,0
262255,252.585,-642.716,0,0
262515,253.275,-645.837,0,0
262775,253.409,-648.848,0,0
263036,253.189,-651.699,0,0
263296,252.699,-654.451,0,0
263556,251.842,-657.154,0,0
263817,250.657,-659.776,0,0
264077,249.037,-662.231,0,0
264337,247.163,-664.372,0,0
264598,245.101,-666.224,0,0
264858,242.889,-667.906,0,0
265118,240.482,-669.467,0,0
265379,237.85,-670.637,0,0
265639,235.087,-671.676,0,0
265899,232.219,-672.392,0,0
266160,229.215,-672.853,0,0
266420,226.07,-672.96,0,0
266680.25,222.892,-672.653,0,0
266940.575,219.78,-672.014,0,0
267200.9,216.801,-670.97,0,0
267461.225,214.011,-669.6,0,0
267721.55,211.475,-667.998,0,0
267981.875,209.2,-666.236,0,0
268242.2,207.256,-664.339,0,0
268502.525,205.528,-662.478,0,0
268762.85,203.984,-660.634,0,0
269023.175,202.537,-658.799,0,0
269283.5,201.191,-656.943,0,0
269543.825,199.883,-654.995,0,0
269804.15,198.769,-652.983,0,0
270064.475,197.78,-650.832,0,0
270324.8,197.024,-648.772,0,0
270585.125,196.535,-646.665,0,0
270845.45,196.177,-644.745,0,0
271105.775,195.943,-642.888,0,0
271366.1,195.745,-641.142,0,0
271626.425,195.667,-639.478,0,0
271886.75,195.528,-637.854,0,0
272147.075,195.571,-636.445,0,0
272407.4,195.49,-635.146,0,0
272667.725,195.313,-633.791,0,0
272928.05,195.084,-632.393,0,0
273188.375,194.921,-630.873,0,0
273448.7,194.841,-629.292,0,0
273709.025,194.845,-627.64,0,0
273969.35,195.043,-625.993,0,0
274229.675,195.341,-624.357,0,0
274490.0,195.753,-622.785,0,0
274750.325,196.222,-621.194,0,0
275010.65,196.892,-619.657,0,0
275270.975,197.711,-618.128,0,0
275531.3,198.651,-616.643,0,0
275791.625,199.775,-615.32,0,0
276051.95,201.134,-614.061,0,0
276312.275,202.661,-613.028,0,0
276572.6,204.361,-612.311,0,0
276832.925,206.066,-611.92,0,0
277093.25,207.727,-611.789,0,0
277353.575,209.307,-611.914,0,0
277613.9,210.78,-612.237,0,0
277874.225,212.183,-612.72,0,0
278134.55,213.53,-613.375,0,0
278394.875,214.803,-614.248,0,0
278655.2,215.909,-615.354,0,0
278915.525,216.811,-616.629,0,0
279175.85,217.493,-618.074,0,0
279436.175,217.985,-619.604,0,0
279696.5,218.26,-621.231,0,0
279956.825,218.329,-623.006,0,0
280217.15,217.869,-624.744,0,0
280477.475,217.294,-626.449,0,0
280737.8,216.48,-628.034,0,0
280998.125,215.429,-629.482,0,0
281258.45,214.269,-630.803,0,0
281518.775,212.922,-632.022,0,0
281779.1,211.452,-633.106,0,0
282039.425,209.848,-634.036,0,0
282299.75,208.194,-634.755,0,0
282560,206.51,-635.399,0,0
282820,204.761,-635.951,0,0
283081,202.876,-636.397,0,0
283341,200.882,-636.617,0,0
283601,198.908,-636.62,0,0
283862,196.991,-636.447,0,0
284122,195.136,-636.176,0,0
284382,193.268,-635.775,0,0
284643,191.426,-635.253,0,0
284903,189.593,-634.606,0,0
285163,187.88,-633.762,0,0
285424,186.274,-632.841,0,0
285684,184.704,-631.823,0,0
285944,183.288,-630.755,0,0
286205,181.938,-629.579,0,0
286465,180.672,-628.315,0,0
286725,179.552,-626.999,0,0
286986,178.586,-625.62,0,0
287246,177.784,-624.256,0,0
287506,177.117,-622.943,0,0
287767,176.541,-621.66,0,0
288027,176.077,-620.467,0,0
288287,175.634,-619.31,0,0
288548,175.229,-618.21,0,0
288808,174.902,-617.051,0,0
289068,174.693,-615.992,0,0
289329,174.573,-614.973,0,0
289589,174.575,-614.075,0,0
289849,174.581,-613.333,0,0
290109,174.642,-612.725,0,0
290370,174.623,-612.319,0,0
290630,174.434,-612.02,0,0
290890,174.115,-611.78,0,0
291151,173.607,-611.505,0,0
291411,173.001,-611.115,0,0
291671,172.331,-610.62,0,0
291932,171.674,-610.066,0,0
292192,171,-609.415,0,0
292452,170.323,-608.65,0,0
292713,169.687,-607.735,0,0
292973,169.171,-606.737,0,0
293233,168.795,-605.706,0,0
293494,168.568,-604.647,0,0
293754,168.443,-603.628,0,0
294014,168.422,-602.64,0,0
294275,168.496,-601.687,0,0
294535,168.701,-600.749,0,0
294795,169.058,-599.908,0,0
295056,169.515,-599.227,0,0
295316,170.033,-598.707,0,0
295576,170.614,-598.381,0,0
295837,171.155,-598.193,0,0
296097,171.678,-598.17,0,0
296357,172.147,-598.321,0,0
296618,172.518,-598.597,0,0
296878,172.769,-599.006,0,0
297138,172.911,-599.526,0,0
297399,172.842,-600.08,0,0
297659,172.683,-600.684,0,0
297919,172.403,-601.249,0,0
298180,171.982,-601.862,0,0
298440,171.465,-602.426,0,0
298700.2,170.873,-602.978,0,0
298960.525,170.189,-603.518,0,0
299220.85,169.416,-604.026,0,0
299481.175,168.542,-604.508,0,0
299741.5,167.583,-604.953,0,0
300001.825,166.528,-605.355,0,0
300262.15,165.432,-605.676,0,0
300522.475,164.239,-605.944,0,0
300782.8,162.999,-606.115,0,0
301043.125,161.701,-606.218,0,0
301303.45,160.361,-606.234,0,0
301563.775,158.978,-606.157,0,0
301824.1,157.596,-605.972,0,0
302084.425,156.245,-605.69,0,0
302344.75,154.878,-605.336,0,0
302605.075,153.543,-604.899,0,0
302865.4,152.246,-604.405,0,0
303125.725,150.968,-603.876,0,0
303386.05,149.735,-603.304,0,0
303646.375,148.48,-602.687,0,0
303906.7,147.25,-602.012,0,0
304167.025,146.044,-601.262,0,0
304427.35,144.866,-600.455,0,0
304687.675,143.746,-599.597,0,0
304948.0,142.685,-598.699,0,0
305208.325,141.706,-597.742,0,0
305468.65,140.781,-596.786,0,0
305728.975,139.924,-595.806,0,0
305989.3,139.117,-594.843,0,0
306249.625,138.371,-593.895,0,0
306509.95,137.644,-592.936,0,0
306770.275,136.958,-591.965,0,0
307030.6,136.335,-591.003,0,0
307290.925,135.805,-590.073,0,0
307551.25,135.301,-589.17,0,0
307811.575,134.812,-588.348,0,0
308071.9,134.353,-587.535,0,0
308332.225,133.902,-586.78,0,0
308592.55,133.453,-586.051,0,0
308852.875,133.007,-585.333,0,0
309113.2,132.554,-584.655,0,0
309373.525,132.108,-584.008,0,0
309633.85,131.653,-583.406,0,0
309894.175,131.2,-582.817,0,0
310154.5,130.758,-582.281,0,0
310414.825,130.241,-581.818,0,0
310675.15,129.66,-581.379,0,0
310935.475,129.024,-580.942,0,0
311195.8,128.302,-580.478,0,0
311456.125,127.522,-579.981,0,0
311716.45,126.699,-579.45,0,0
311976.775,125.815,-578.873,0,0
312237.1,124.939,-578.21,0,0
312497.425,124.008,-577.516,0,0
312757.75,123.07,-576.74,0,0
313018.075,122.117,-575.908,0,0
313278.4,121.163,-574.95,0,0
313538.725,120.221,-573.918,0,0
313799.05,119.343,-572.789,0,0
314059.375,118.522,-571.573,0,0
314319.7,117.765,-570.268,0,0
314580,117.148,-568.986,0,0
314840,116.592,-567.504,0,0
315101,116.206,-566.101,0,0
315361,115.974,-564.777,0,0
315621,115.81,-563.449,0,0
315882,115.811,-562.146,0,0
316142,115.716,-560.935,0,0
316402,115.732,-559.772,0,0
316663,115.895,-558.727,0,0
316923,116.041,-557.667,0,0
317183,116.251,-556.862,0,0
317444,116.338,-556.103,0,0
317704,116.525,-555.27,0,0
317964,116.553,-554.56,0,0
318225,116.585,-553.875,0,0
318485,116.658,-553.259,0,0
318745,116.712,-552.547,0,0
319006,116.658,-551.875,0,0
319266,116.795,-551.278,0,0
319526,116.787,-550.665,0,0
319787,116.791,-550.079,0,0
320047,116.895,-549.502,0,0
320307,116.878,-548.878,0,0
320567,116.985,-548.317,0,0
320828,116.932,-547.744,0,0
321088,117.062,-547.125,0,0
321348,117.261,-546.578,0,0
321609,117.444,-546.094,0,0
321869,117.663,-545.684,0,0
322129,117.913,-545.341,0,0
322390,118.123,-545.067,0,0
322650,118.421,-544.91,0,0
322910,118.65,-544.76,0,0
323171,118.78,-544.755,0,0
323431,118.933,-544.802,0,0
323691,119.021,-544.929,0,0
323952,119,-545.109,0,0
324212,118.868,-545.461,0,0
324472,118.687,-545.816,0,0
324733,118.292,-545.964,0,0
324993,117.833,-546.272,0,0
325253,117.246,-546.58,0,0
325514,116.7,-546.691,0,0
325774,116.079,-546.874,0,0
326034,115.266,-546.963,0,0
326295,114.435,-547.09,0,0
326555,113.658,-547.068,0,0
326815,112.785,-547.032,0,0
327076,111.852,-546.84,0,0
327336,110.92,-546.667,0,0
327596,110.027,-546.459,0,0
327857,109.102,-546.13,0,0
328117,108.148,-545.883,0,0
328377,107.188,-545.468,0,0
328638,106.255,-545.054,0,0
328898,105.336,-544.527,0,0
329158,104.48,-544.066,0,0
329419,103.578,-543.451,0,0
329679,102.757,-542.869,0,0
329939,101.993,-542.361,0,0
330200,101.114,-541.793,0,0
330460,100.318,-541.265,0,0
330720.15,99.5135,-540.684,0,0
330980.475,98.6957,-540.103,0,0
331240.8,97.8446,-539.53,0,0
331501.125,96.9677,-538.855,0,0
331761.45,96.0902,-538.23,0,0
332021.775,95.1751,-537.531,0,0
332282.1,94.321,-536.808,0,0
332542.425,93.3978,-536.082,0,0
332802.75,92.5185,-535.313,0,0
333063.075,91.5996,-534.501,0,0
333323.4,90.7559,-533.616,0,0
333583.725,89.8788,-532.745,0,0
333844.05,88.986,-531.766,0,0
334104.375,88.2122,-530.803,0,0
334364.7,87.3404,-529.818,0,0
334625.025,86.6196,-528.855,0,0
334885.35,85.7044,-527.706,0,0
335145.675,84.9781,-526.613,0,0
335406.0,84.292,-525.458,0,0
335666.325,83.5887,-524.278,0,0
335926.65,83.0138,-523.014,0,0
336186.975,82.3919,-521.798,0,0
336447.3,81.8083,-520.554,0,0
336707.625,81.3254,-519.368,0,0
336967.95,80.856,-518.125,0,0
337228.275,80.4396,-516.832,0,0
337488.6,79.9996,-515.548,0,0
337748.925,79.6094,-514.379,0,0
338009.25,79.2988,-513.084,0,0
338269.575,78.9324,-511.783,0,0
338529.9,78.702,-510.468,0,0
338790.225,78.3759,-509.176,0,0
339050.55,78.1414,-507.809,0,0
339310.875,78.0107,-506.512,0,0
339571.2,77.8723,-505.117,0,0
339831.525,77.8197,-503.804,0,0
340091.85,77.8138,-502.426,0,0
340352.175,77.8471,-500.998,0,0
340612.5,77.9989,-499.642,0,0
340872.825,78.2547,-498.331,0,0
341133.15,78.5813,-497.05,0,0
341393.475,78.9317,-495.842,0,0
341653.8,79.4264,-494.664,0,0
341914.125,79.8878,-493.588,0,0
342174.45,80.4073,-492.579,0,0
342434.775,80.9779,-491.606,0,0
342695.1,81.5561,-490.816,0,0
342955.425,82.1157,-490.104,0,0
343215.75,82.6609,-489.46,0,0
343476.075,83.2101,-488.975,0,0
343736.4,83.6247,-488.524,0,0
343996.725,84.0401,-488.164,0,0
344257.05,84.3774,-487.752,0,0
344517.375,84.6202,-487.418,0,0
344777.7,84.8329,-487.121,0,0
345038.025,84.9806,-486.793,0,0
345298.35,85.0509,-486.486,0,0
345558.675,85.1076,-486.113,0,0
345819.0,85.1226,-485.715,0,0
346079.325,85.1468,-485.429,0,0
346339.65,85.105,-484.96,0,0
346599.975,85.0746,-484.631,0,0
346860,85.0495,-484.169,0,0
347121,84.9232,-483.824,0,0
347381,84.7705,-483.438,0,0
347641,84.6051,-483,0,0
347902,84.3557,-482.489,0,0
348162,84.1133,-481.963,0,0
348422,83.9193,-481.415,0,0
348683,83.6203,-480.744,0,0
348943,83.4648,-479.997,0,0
349203,83.3135,-479.224,0,0
349464,83.2322,-478.38,0,0
349724,83.1883,-477.566,0,0
349984,83.3104,-476.73,0,0
350245,83.4678,-475.845,0,0
350505,83.7244,-475.042,0,0
350765,84.09,-474.422,0,0
351025,84.4876,-473.764,0,0
351286,84.8399,-473.307,0,0
351546,85.2511,-472.876,0,0
351806,85.5353,-472.545,0,0
352067,85.8961,-472.266,0,0
352327,86.1082,-472.087,0,0
352587,86.2933,-471.971,0,0
352848,86.473,-471.838,0,0
353108,86.5238,-471.737,0,0
353368,86.5325,-471.695,0,0
353629,86.4281,-471.563,0,0
353889,86.2425,-471.513,0,0
354149,86.0095,-471.317,0,0
354410,85.8165,-471.141,0,0
354670,85.4661,-470.928,0,0
354930,85.2486,-470.644,0,0
355191,84.9685,-470.349,0,0
355451,84.5739,-469.986,0,0
355711,84.3066,-469.638,0,0
355972,84.0296,-469.29,0,0
356232,83.5737,-468.847,0,0
356492,83.232,-468.456,0,0
356753,82.8198,-468,0,0
357013,82.4605,-467.444,0,0
357273,82.0529,-466.906,0,0
357534,81.685,-466.244,0,0
357794,81.3233,-465.615,0,0
358054,81.0172,-464.867,0,0
358315,80.8172,-464.133,0,0
358575,80.6122,-463.369,0,0
358835,80.5238,-462.666,0,0
359096,80.4337,-461.917,0,0
359356,80.4335,-461.206,0,0
359616,80.4471,-460.532,0,0
359877,80.4112,-459.907,0,0
360137,80.4734,-459.329,0,0
360397,80.4668,-458.742,0,0
360658,80.3673,-458.182,0,0
360918,80.3766,-457.689,0,0
361178,80.2984,-457.132,0,0
361438,80.2735,-456.613,0,0
361699,80.1569,-456.027,0,0
361959,80.0617,-455.44,0,0
362219,79.9784,-454.842,0,0
362480,79.8872,-454.18,0,0
362740.1,79.8953,-453.462,0,0
363000.425,79.8811,-452.756,0,0
363260.75,79.9637,-452.03,0,0
363521.075,80.164,-451.297,0,0
363781.4,80.3849,-450.677,0,0
364041.725,80.6747,-450.093,0,0
364302.05,80.988,-449.521,0,0
364562.375,81.2894,-449.091,0,0
364822.7,81.6363,-448.726,0,0
365083.025,81.9096,-448.422,0,0
365343.35,82.1803,-448.141,0,0
365603.675,82.4269,-447.925,0,0
365864.0,82.6188,-447.795,0,0
366124.325,82.7739,-447.76,0,0
366384.65,82.8358,-447.776,0,0
366644.975,82.8079,-447.802,0,0
366905.3,82.6929,-447.769,0,0
367165.625,82.4565,-447.779,0,0
367425.95,82.157,-447.708,0,0
367686.275,81.7766,-447.646,0,0
367946.6,81.3352,-447.451,0,0
368206.925,80.7921,-447.257,0,0
368467.25,80.2011,-446.906,0,0
368727.575,79.6201,-446.396,0,0
368987.9,79.0661,-445.727,0,0
369248.225,78.5581,-444.958,0,0
369508.55,78.246,-444.15,0,0
369768.875,77.9521,-443.254,0,0
370029.2,77.8901,-442.323,0,0
370289.525,77.9403,-441.393,0,0
370549.85,78.0232,-440.528,0,0
370810.175,78.33,-439.798,0,0
371070.5,78.6361,-439.129,0,0
371330.825,79.0119,-438.621,0,0
371591.15,79.3273,-438.258,0,0
371851.475,79.6941,-437.939,0,0
372111.8,79.9306,-437.803,0,0
372372.125,80.0811,-437.722,0,0
372632.45,80.1512,-437.716,0,0
372892.775,80.0702,-437.654,0,0
373153.1,79.8946,-437.599,0,0
373413.425,79.5729,-437.538,0,0
373673.75,79.2254,-437.335,0,0
373934.075,78.8481,-437.069,0,0
374194.4,78.4354,-436.74,0,0
374454.725,78.043,-436.329,0,0
374715.05,77.6319,-435.889,0,0
374975.375,77.2342,-435.377,0,0
375235.7,76.8793,-434.863,0,0
375496.025,76.4855,-434.166,0,0
375756.35,76.2047,-433.47,0,0
376016.675,76.0003,-432.748,0,0
376277.0,75.7623,-431.982,0,0
376537.325,75.6429,-431.276,0,0
376797.65,75.5864,-430.517,0,0
377057.975,75.5652,-429.789,0,0
377318.3,75.5743,-429.098,0,0
377578.625,75.5709,-428.366,0,0
377838.95,75.693,-427.725,0,0
378099.275,75.8093,-427.063,0,0
378359.6,75.8988,-426.461,0,0
378619.925,76.0429,-425.865,0,0
378880,76.2013,-425.325,0,0
379141,76.4719,-424.786,0,0
379401,76.6507,-424.296,0,0
379661,76.8684,-423.87,0,0
379922,77.0747,-423.464,0,0
380182,77.2491,-423.153,0,0
380442,77.4198,-422.922,0,0
380703,77.483,-422.649,0,0
380963,77.4328,-422.328,0,0
381223,77.452,-422.065,0,0
381483,77.4452,-421.736,0,0
381744,77.4115,-421.405,0,0
382004,77.3972,-421.04,0,0
382264,77.4505,-420.716,0,0
382525,77.479,-420.375,0,0
382785,77.5543,-420.124,0,0
383045,77.5249,-419.833,0,0
383306,77.4611,-419.613,0,0
383566,77.3891,-419.427,0,0
383826,77.2966,-419.199,0,0
384087,77.1367,-418.945,0,0
384347,76.9598,-418.715,0,0
384607,76.7272,-418.424,0,0
384868,76.4845,-418.132,0,0
385128,76.2321,-417.734,0,0
385388,75.973,-417.448,0,0
385649,75.7471,-417.016,0,0
385909,75.4427,-416.609,0,0
386169,75.1861,-416.22,0,0
386430,74.889,-415.771,0,0
386690,74.6174,-415.312,0,0
386950,74.3001,-414.773,0,0
387211,74.0387,-414.259,0,0
387471,73.7109,-413.689,0,0
387731,73.4034,-413.067,0,0
387992,73.1243,-412.387,0,0
388252,72.8282,-411.706,0,0
388512,72.6054,-410.974,0,0
388773,72.3907,-410.18,0,0
389033,72.2489,-409.445,0,0
389293,72.1402,-408.609,0,0
389554,71.9981,-407.761,0,0
389814,71.9773,-406.879,0,0
390074,71.9945,-406.035,0,0
390335,72.0511,-405.156,0,0
390595,72.1469,-404.256,0,0
390855,72.3069,-403.394,0,0
391116,72.583,-402.523,0,0
391376,72.843,-401.701,0,0
391636,73.21,-400.916,0,0
391896,73.6518,-400.124,0,0
392157,74.0993,-399.396,0,0
392417,74.5775,-398.814,0,0
392677,75.0814,-398.245,0,0
392938,75.6113,-397.771,0,0
393198,76.0638,-397.317,0,0
393458,76.5264,-396.935,0,0
393719,76.9611,-396.583,0,0
393979,77.3748,-396.203,0,0
394239,77.7513,-395.878,0,0
394500,78.1725,-395.565,0,0
394760.05,78.5873,-395.309,0,0
395020.375,79.006,-394.948,0,0
395280.7,79.4219,-394.774,0,0
395541.025,79.7969,-394.54,0,0
395801.35,80.2189,-394.416,0,0
396061.675,80.6289,-394.28,0,0
396322.0,80.9901,-394.21,0,0
396582.325,81.3573,-394.174,0,0
396842.65,81.6811,-394.174,0,0
397102.975,81.9785,-394.213,0,0
397363.3,82.192,-394.225,0,0
397623.625,82.4318,-394.325,0,0
397883.95,82.5738,-394.458,0,0
398144.275,82.6438,-394.541,0,0
398404.6,82.7189,-394.634,0,0
398664.925,82.7608,-394.71,0,0
398925.25,82.7357,-394.804,0,0
399185.575,82.7462,-394.889,0,0
399445.9,82.6867,-394.983,0,0
399706.225,82.5911,-395.06,0,0
399966.55,82.4531,-395.117,0,0
400006.6,82.4068,-395.128,0,0