File: Accelerated corrosion test data/2025-10-18_18-00-03/sample_2.csv
Frequency (Hz),Impedance (ohms),Phase (Radians),Temperature (C),Humidity (%)
10000.0,224.19,-11444.5,0,0
10260.325,218.855,-11157.2,0,0
10520.65,213.677,-10883.1,0,0
10780.975,209.312,-10621.9,0,0
11041.3,204.254,-10373.8,0,0
11301.625,199.711,-10136,0,0
11561.95,196.392,-9907.52,0,0
11822.275,194.063,-9699.2,0,0
12082.6,189.163,-9488.2,0,0
12342.925,183.983,-9291.68,0,0
12603.25,179.845,-9099.35,0,0
12863.575,176.898,-8915.26,0,0
13123.9,174.042,-8741.8,0,0
13384.225,170.565,-8570.46,0,0
13644.55,168.112,-8404.58,0,0
13904.875,180.371,-8262.56,0,0
14165.2,162.485,-8105.07,0,0
14425.525,158.324,-7956.47,0,0
14685.8,164.512,-7811.55,0,0
14946.175,157.961,-7680.02,0,0
15206.5,157.497,-7560.47,0,0
15466.825,159.158,-7427.58,0,0
15727.15,148.742,-7311.24,0,0
15987.5,146.504,-7190.33,0,0
16247.8,146.466,-7077.04,0,0
16508.125,140.878,-6965.78,0,0
16768.45,138.35,-6857.58,0,0
17028.775,136.869,-6753.17,0,0
17289.1,134.893,-6652.43,0,0
17549.425,132.529,-6553.26,0,0
17809.75,130.908,-6457.07,0,0
18070.075,129.175,-6364.96,0,0
18330.4,127.635,-6273.63,0,0
18590.725,126.5,-6184.61,0,0
18851.05,125.482,-6098.99,0,0
19111.375,126.829,-6017.66,0,0
19371.7,125.242,-5940.67,0,0
19632.025,120.902,-5860.97,0,0
19892.35,118.923,-5783.24,0,0
20152.675,117.277,-5707.24,0,0
20413.0,116.596,-5633.26,0,0
20673.3,115.889,-5560.31,0,0
20933.65,116.932,-5488.49,0,0
21193.975,121.321,-5421.99,0,0
21454.3,127.41,-5363.1,0,0
21714.625,123.757,-5304.93,0,0
21974.9,123.454,-5239.38,0,0
22235.275,116.286,-5183.8,0,0
22495.6,113.147,-5123.58,0,0
22755.925,111.126,-5061.97,0,0
23016.25,110.627,-5007.45,0,0
23276.6,110.523,-4953.44,0,0
23536.9,107.286,-4898.36,0,0
23797.225,105.782,-4843.22,0,0
24057.55,105.05,-4792.34,0,0
24317.875,101.34,-4741.31,0,0
24578.2,99.7672,-4690.39,0,0
24838.525,98.5242,-4639.83,0,0
25098.85,98.3361,-4591.57,0,0
25359.175,96.617,-4543.63,0,0
25619.5,96.0024,-4497.3,0,0
25879.8,95.0492,-4450.83,0,0
26140.1,95.6455,-4406.77,0,0
26400.5,94.1763,-4362.05,0,0
26660.8,94.6234,-4321.24,0,0
26921.1,94.1021,-4279.17,0,0
27181.4,92.2702,-4238.69,0,0
27441.8,90.7501,-4198.5,0,0
27702.1,89.3529,-4158.18,0,0
27962.4,89.0732,-4117.59,0,0
28222.7,88.9726,-4079.05,0,0
28483.1,88.3316,-4041.2,0,0
28743.4,88.3663,-4002.9,0,0
29003.7,89.6533,-3966.96,0,0
29264,90.6395,-3930.04,0,0
29524.4,93.5256,-3895.37,0,0
29784.7,95.5269,-3867.9,0,0
30045,91.8297,-3834.85,0,0
30305.3,93.184,-3802.27,0,0
30565.7,89.015,-3773.24,0,0
30826,86.8747,-3740.57,0,0
31086.3,85.7693,-3708.68,0,0
31346.6,84.4639,-3677.19,0,0
31607,84.0059,-3647.09,0,0
31867.3,81.8521,-3616.8,0,0
32127.6,81.4522,-3586.01,0,0
32387.9,82.5341,-3556.71,0,0
32648.3,83.2784,-3529.37,0,0
32908.6,81.3685,-3502.3,0,0
33168.9,80.8542,-3475.27,0,0
33429.2,79.2371,-3447.51,0,0
33689.6,78.9763,-3420.91,0,0
33949.9,77.8676,-3395,0,0
34210.2,76.1583,-3368.64,0,0
34470.5,75.646,-3342.51,0,0
34730.9,75.1004,-3316.9,0,0
34991.2,74.6974,-3291.76,0,0
35251.5,73.9942,-3267.44,0,0
35511.8,73.5105,-3242.81,0,0
35772.2,73.1996,-3219.08,0,0
36032.5,72.5135,-3195.44,0,0
36292.8,71.8777,-3172.05,0,0
36553.1,71.3391,-3149.16,0,0
36813.5,71.1134,-3126.39,0,0
37073.8,70.4929,-3103.84,0,0
37334.1,70.4353,-3081.83,0,0
37594.4,70.1852,-3060.63,0,0
37854.8,69.796,-3039.06,0,0
38115.1,69.2413,-3018.33,0,0
38375.4,68.6526,-2997.36,0,0
38635.7,68.2294,-2976.67,0,0
38896.1,68.0064,-2956.32,0,0
39156.4,67.6621,-2936.44,0,0
39416.7,67.2222,-2916.59,0,0
39677,66.7359,-2897.05,0,0
39937.4,66.5222,-2877.7,0,0
40197.7,66.278,-2858.7,0,0
40458,65.7458,-2839.74,0,0
40718.3,65.7954,-2821.15,0,0
40978.7,65.4181,-2803.03,0,0
41239,65.4152,-2784.83,0,0
41499.3,65.1508,-2767.32,0,0
41759.6,64.7955,-2749.43,0,0
42020,64.659,-2731.9,0,0
42280.275,64.4266,-2714.97,0,0
42540.6,63.9364,-2697.89,0,0
42800.925,63.7486,-2681.31,0,0
43061.25,63.383,-2664.79,0,0
43321.575,63.2935,-2648.19,0,0
43581.9,63.0802,-2631.99,0,0
43842.225,62.5932,-2616,0,0
44102.55,62.4839,-2600.22,0,0
44362.875,62.3326,-2584.6,0,0
44623.2,62.015,-2569.27,0,0
44883.525,61.5647,-2553.65,0,0
45143.85,61.6488,-2538.34,0,0
45404.175,61.5985,-2523.59,0,0
45664.5,61.3172,-2508.51,0,0
45924.825,61.414,-2493.49,0,0
46185.15,61.5033,-2479.96,0,0
46445.475,60.7566,-2465.76,0,0
46705.8,60.4007,-2451.2,0,0
46966.125,60.3623,-2437.07,0,0
47226.45,60.588,-2423.11,0,0
47486.775,60.4003,-2409.77,0,0
47747.1,60.2681,-2395.95,0,0
48007.425,60.1632,-2382.37,0,0
48267.75,61.1897,-2368.9,0,0
48528.075,61.4826,-2357.37,0,0
48788.4,60.7037,-2345.05,0,0
49048.725,59.9072,-2332.57,0,0
49309.05,59.3235,-2319.81,0,0
49569.375,58.7669,-2307.18,0,0
49829.7,58.466,-2294.69,0,0
50090.025,57.9534,-2282.31,0,0
50350.35,57.6369,-2270.04,0,0
50610.675,57.4559,-2257.61,0,0
50871.0,57.5365,-2245.76,0,0
51131.325,57.1612,-2234.11,0,0
51391.65,56.8875,-2222.52,0,0
51651.975,56.4173,-2211.03,0,0
51912.3,55.7798,-2199.29,0,0
52172.625,55.4686,-2187.69,0,0
52432.95,55.2045,-2176.29,0,0
52693.275,54.926,-2164.85,0,0
52953.6,54.739,-2153.48,0,0
53213.925,54.6711,-2142.39,0,0
53474.25,54.438,-2131.36,0,0
53734.575,54.2543,-2120.54,0,0
53994.9,54.2292,-2109.52,0,0
54255.225,54.0804,-2098.67,0,0
54515.55,54.1174,-2088.2,0,0
54775.875,54.0017,-2077.76,0,0
55036.2,53.8319,-2067.3,0,0
55296.525,53.6899,-2056.89,0,0
55556.85,53.7684,-2046.6,0,0
55817.175,53.6531,-2036.65,0,0
56077.5,53.7333,-2026.61,0,0
56337.825,53.541,-2016.63,0,0
56598.15,53.5291,-2006.66,0,0
56858.475,53.6956,-1996.88,0,0
57118.8,53.7602,-1987.22,0,0
57379.125,53.6463,-1977.61,0,0
57639.45,53.9203,-1968.08,0,0
57899.775,53.9119,-1958.81,0,0
58160.1,53.759,-1949.55,0,0
58420.4,53.6711,-1940.18,0,0
58680.7,53.7836,-1930.91,0,0
58941.1,54.0241,-1921.59,0,0
59201.4,54.2673,-1912.59,0,0
59461.7,54.4944,-1903.55,0,0
59722,54.8715,-1894.63,0,0
59982.4,55.4344,-1885.82,0,0
60242.7,56.1059,-1877.74,0,0
60503,55.9315,-1869.46,0,0
60763.3,55.8483,-1860.94,0,0
61023.7,56.3879,-1852.18,0,0
61284,57.3745,-1843.91,0,0
61544.3,58.3289,-1836.22,0,0
61804.6,59.2556,-1829.46,0,0
62065,58.6633,-1822.95,0,0
62325.3,57.8555,-1815.48,0,0
62585.6,57.5858,-1807.73,0,0
62845.9,57.4509,-1800.94,0,0
63106.3,55.9855,-1793.42,0,0
63366.6,55.8327,-1785.41,0,0
63626.9,55.1958,-1778.1,0,0
63887.2,54.8327,-1770.49,0,0
64147.6,54.0676,-1763.49,0,0
64407.9,53.1662,-1755.69,0,0
64668.2,52.7313,-1747.93,0,0
64928.5,51.8065,-1740.54,0,0
65188.9,50.9689,-1732.43,0,0
65449.2,50.74,-1724.25,0,0
65709.5,50.5764,-1716.36,0,0
65969.8,50.625,-1708.57,0,0
66230.2,50.5894,-1700.94,0,0
66490.5,50.8154,-1693.4,0,0
66750.8,50.8294,-1686.1,0,0
67011.1,50.8124,-1678.44,0,0
67271.5,51.2766,-1670.9,0,0
67531.8,52.0197,-1663.62,0,0
67792.1,52.7677,-1656.91,0,0
68052.4,53.0842,-1650.71,0,0
68312.8,53.0638,-1643.76,0,0
68573.1,53.6664,-1637.06,0,0
68833.4,54.0348,-1630.71,0,0
69093.7,54.3652,-1624.39,0,0
69354.1,54.8998,-1618.02,0,0
69614.4,55.5898,-1612.22,0,0
69874.7,56.0449,-1606.94,0,0
70135,55.7643,-1602.02,0,0
70395.4,54.8064,-1596.58,0,0
70655.7,53.8278,-1590.71,0,0
70916,53.3164,-1584.44,0,0
71176.3,52.8945,-1578.92,0,0
71436.7,51.9166,-1573.19,0,0
71697,50.8904,-1567.28,0,0
71957.3,49.6445,-1561.15,0,0
72217.6,48.4893,-1554.75,0,0
72478,47.6628,-1548.09,0,0
72738.3,46.7394,-1541.54,0,0
72998.6,46.4512,-1534.67,0,0
73258.9,45.9794,-1528.4,0,0
73519.3,45.265,-1521.8,0,0
73779.6,44.9143,-1514.94,0,0
74039.9,44.8582,-1508.24,0,0
74300.225,44.9689,-1501.81,0,0
74560.55,44.9442,-1495.49,0,0
74820.875,45.0181,-1489.09,0,0
75081.2,45.1087,-1482.73,0,0
75341.525,45.4211,-1476.52,0,0
75601.85,45.5936,-1470.4,0,0
75862.175,45.9425,-1464.2,0,0
76122.5,46.5418,-1458.25,0,0
76382.825,46.9293,-1452.48,0,0
76643.15,47.3767,-1446.68,0,0
76903.475,47.6957,-1440.95,0,0
77163.8,48.2831,-1435.17,0,0
77424.125,48.9926,-1429.59,0,0
77684.45,49.6625,-1424.27,0,0
77944.775,50.3112,-1418.95,0,0
78205.1,51.1762,-1413.84,0,0
78465.425,51.9054,-1409.08,0,0
78725.75,52.4512,-1404.41,0,0
78986.075,52.7819,-1399.98,0,0
79246.4,53.0683,-1395.37,0,0
79506.725,53.4373,-1391.16,0,0
79767.05,53.1934,-1387.23,0,0
80027.375,52.6007,-1382.98,0,0
80287.7,51.8576,-1378.38,0,0
80548.025,51.0236,-1373.6,0,0
80808.35,50.4417,-1368.52,0,0
81068.675,49.9029,-1363.48,0,0
81329.0,49.5005,-1358.39,0,0
81589.325,49.1467,-1353.34,0,0
81849.65,48.7276,-1348.34,0,0
82109.975,48.3378,-1343.14,0,0
82370.3,48.101,-1337.93,0,0
82630.625,47.9437,-1332.71,0,0
82890.95,47.8771,-1327.49,0,0
83151.275,48.003,-1322.36,0,0
83411.6,48.1914,-1317.33,0,0
83671.925,48.3906,-1312.4,0,0
83932.25,48.5048,-1307.6,0,0
84192.575,48.7826,-1302.87,0,0
84452.9,48.8411,-1298.23,0,0
84713.225,48.8535,-1293.49,0,0
84973.55,48.9326,-1288.83,0,0
85233.875,48.9673,-1283.92,0,0
85494.2,49.3389,-1279.13,0,0
85754.525,49.739,-1274.67,0,0
86014.85,49.9672,-1270.34,0,0
86275.175,50.0258,-1265.94,0,0
86535.5,50.107,-1261.42,0,0
86795.825,50.3749,-1256.99,0,0
87056.15,50.5591,-1252.63,0,0
87316.475,50.7689,-1248.46,0,0
87576.8,50.7697,-1244.3,0,0
87837.125,50.796,-1240.02,0,0
88097.45,50.8181,-1235.62,0,0
88357.775,51.1504,-1231.45,0,0
88618.1,51.0263,-1227.53,0,0
88878.425,50.8332,-1222.96,0,0
89138.75,51.1558,-1218.65,0,0
89399.075,51.1938,-1214.5,0,0
89659.4,51.3583,-1210.16,0,0
89919.725,51.7532,-1206.09,0,0
90180,51.7203,-1202.46,0,0
90440.4,51.2956,-1198.25,0,0
90700.7,51.1845,-1193.59,0,0
90961,51.6514,-1189.1,0,0
91221.3,52.254,-1185.08,0,0
91481.7,52.2516,-1181.25,0,0
91742,52.3567,-1177.01,0,0
92002.3,52.8355,-1172.65,0,0
92262.6,53.4982,-1168.62,0,0
92523,54.1449,-1164.85,0,0
92783.3,54.6957,-1161.23,0,0
93043.6,55.0786,-1157.82,0,0
93303.9,55.2383,-1154.17,0,0
93564.3,55.7847,-1150.63,0,0
93824.6,56.2255,-1147.48,0,0
94084.9,56.2439,-1144.47,0,0
94345.2,55.8393,-1141.37,0,0
94605.6,55.5072,-1137.79,0,0
94865.9,55.1481,-1134.39,0,0
95126.2,54.5317,-1130.72,0,0
95386.5,53.8488,-1126.47,0,0
95646.9,54.0347,-1121.84,0,0
95907.2,54.7441,-1117.58,0,0
96167.5,55.7171,-1114.01,0,0
96427.8,56.243,-1110.84,0,0
96688.2,56.6219,-1107.4,0,0
96948.5,57.2487,-1104.12,0,0
97208.8,57.9098,-1101.43,0,0
97469.1,57.828,-1098.94,0,0
97729.5,57.6752,-1095.97,0,0
97989.8,57.4673,-1093.07,0,0
98250.1,57.2639,-1090.06,0,0
98510.4,57.0152,-1087.18,0,0
98770.8,56.7025,-1084.32,0,0
99031.1,56.1348,-1081.52,0,0
99291.4,55.2869,-1078.86,0,0
99551.7,54.0293,-1075.53,0,0
99812.1,53.2773,-1071.67,0,0
100072,52.9577,-1068.01,0,0
100333,52.8661,-1064.72,0,0
100593,52.2246,-1061.92,0,0
100853,51.1103,-1058.71,0,0
101114,50.0349,-1055.2,0,0
101374,48.7561,-1051.37,0,0
101634,47.9152,-1046.98,0,0
101895,47.5342,-1042.83,0,0
102155,47.0596,-1038.79,0,0
102415,46.7601,-1034.71,0,0
102676,46.3124,-1030.79,0,0
102936,45.8353,-1026.51,0,0
103196,45.6427,-1022.1,0,0
103457,45.6515,-1017.7,0,0
103717,45.8799,-1013.3,0,0
103977,46.3399,-1008.96,0,0
104238,46.9457,-1004.84,0,0
104498,47.6579,-1000.8,0,0
104758,48.4079,-997.018,0,0
105019,49.1842,-993.305,0,0
105279,49.9396,-989.686,0,0
105539,50.7674,-986.086,0,0
105800,51.7342,-982.576,0,0
106060,52.8175,-979.286,0,0
106320.175,53.9431,-976.249,0,0
106580.5,54.933,-973.441,0,0
106840.825,55.9337,-970.735,0,0
107101.15,56.9005,-968.437,0,0
107361.475,57.4824,-966.545,0,0
107621.8,57.418,-964.546,0,0
107882.125,57.2759,-962.181,0,0
108142.45,57.1386,-959.753,0,0
108402.775,56.8554,-957.393,0,0
108663.1,56.454,-954.987,0,0
108923.425,55.7242,-952.463,0,0
109183.75,54.9746,-949.484,0,0
109444.075,54.4384,-946.526,0,0
109704.4,53.7787,-943.587,0,0
109964.725,53.051,-940.415,0,0
110225.05,52.3543,-936.92,0,0
110485.375,51.9144,-933.359,0,0
110745.7,51.5567,-929.855,0,0
111006.025,51.3131,-926.34,0,0
111266.35,51.153,-922.661,0,0
111526.675,51.0896,-919.037,0,0
111787.0,51.2049,-915.472,0,0
112047.325,51.2932,-912.096,0,0
112307.65,51.2503,-908.735,0,0
112567.975,51.2864,-905.095,0,0
112828.3,51.4687,-901.598,0,0
113088.625,51.677,-898.074,0,0
113348.95,51.9977,-894.606,0,0
113609.275,52.2651,-891.224,0,0
113869.6,52.5684,-887.762,0,0
114129.925,52.9274,-884.341,0,0
114390.25,53.3531,-880.865,0,0
114650.575,53.8961,-877.45,0,0
114910.9,54.5519,-874.092,0,0
115171.225,55.2044,-870.917,0,0
115431.55,55.7296,-867.84,0,0
115691.875,56.2312,-864.645,0,0
115952.2,56.7861,-861.447,0,0
116212.525,57.456,-858.278,0,0
116472.85,58.1472,-855.174,0,0
116733.175,58.9153,-852.114,0,0
116993.5,59.6677,-849.162,0,0
117253.825,60.4166,-846.226,0,0
117514.15,61.2286,-843.366,0,0
117774.475,62.0501,-840.652,0,0
118034.8,62.7043,-837.959,0,0
118295.125,63.3964,-835.219,0,0
118555.45,64.1695,-832.471,0,0
118815.775,65.0656,-829.844,0,0
119076.1,65.8381,-827.456,0,0
119336.425,66.572,-825.008,0,0
119596.75,67.3384,-822.681,0,0
119857.075,68.0029,-820.396,0,0
120117.4,68.5701,-818.37,0,0
120377.725,69.0862,-816.294,0,0
120638.05,69.3386,-814.382,0,0
120898.375,69.3528,-812.39,0,0
121158.7,69.3377,-810.104,0,0
121419.025,69.3908,-807.84,0,0
121679.35,69.3038,-805.615,0,0
121939.675,69.1284,-803.195,0,0
122200.0,68.9477,-800.713,0,0
122460,68.83,-798.069,0,0
122721,68.7555,-795.412,0,0
122981,68.7515,-792.723,0,0
123241,68.8158,-790.069,0,0
123502,68.8362,-787.457,0,0
123762,68.759,-784.816,0,0
124022,68.7582,-782.059,0,0
124283,68.765,-779.327,0,0
124543,68.7615,-776.58,0,0
124803,68.7549,-773.794,0,0
125064,68.7585,-770.993,0,0
125324,68.7764,-768.091,0,0
125584,68.8312,-765.15,0,0
125845,68.905,-762.169,0,0
126105,69.0476,-759.176,0,0
126365,69.22,-756.137,0,0
126626,69.4477,-752.992,0,0
126886,69.8937,-749.849,0,0
127146,70.411,-746.696,0,0
127406,70.9576,-743.777,0,0
127667,71.6383,-740.852,0,0
127927,72.2513,-737.994,0,0
128187,72.9025,-735.188,0,0
128448,73.5628,-732.384,0,0
128708,74.2687,-729.665,0,0
128968,74.9562,-727.044,0,0
129229,75.6459,-724.48,0,0
129489,76.2192,-721.91,0,0
129749,76.7704,-719.287,0,0
130010,77.4214,-716.651,0,0
130270,78.1757,-714.077,0,0
130530,78.921,-711.634,0,0
130791,79.6548,-709.321,0,0
131051,80.2399,-707.146,0,0
131311,80.6803,-704.939,0,0
131572,81.0048,-702.693,0,0
131832,81.3374,-700.403,0,0
132092,81.5521,-698.141,0,0
132353,81.6525,-695.744,0,0
132613,81.8023,-693.213,0,0
132873,81.9912,-690.643,0,0
133134,82.2067,-688.029,0,0
133394,82.4933,-685.434,0,0
133654,82.7531,-682.861,0,0
133915,82.9825,-680.301,0,0
134175,83.1254,-677.752,0,0
134435,83.2089,-675.081,0,0
134696,83.2925,-672.332,0,0
134956,83.3944,-669.423,0,0
135216,83.6073,-666.441,0,0
135477,83.9064,-663.436,0,0
135737,84.3216,-660.444,0,0
135997,84.7279,-657.499,0,0
136258,85.1789,-654.552,0,0
136518,85.6415,-651.685,0,0
136778,86.0041,-648.724,0,0
137039,86.4622,-645.645,0,0
137299,87.0555,-642.564,0,0
137559,87.6931,-639.626,0,0
137819,88.3188,-636.679,0,0
138080,88.8893,-633.825,0,0
138340.125,89.343,-630.941,0,0
138600.45,89.7733,-627.917,0,0
138860.775,90.2245,-624.836,0,0
139121.1,90.6929,-621.679,0,0
139381.425,91.2236,-618.484,0,0
139641.75,91.6804,-615.21,0,0
139902.075,92.1959,-611.763,0,0
140162.4,92.8384,-608.268,0,0
140422.725,93.5026,-604.645,0,0
140683.05,94.3047,-600.86,0,0
140943.375,95.356,-596.961,0,0
141203.7,96.6986,-593.11,0,0
141464.025,98.2203,-589.389,0,0
141724.35,99.8152,-585.727,0,0
141984.675,101.596,-582.138,0,0
142245.0,103.556,-578.76,0,0
142505.325,105.452,-575.622,0,0
142765.65,107.218,-572.609,0,0
143025.975,108.797,-569.578,0,0
143286.3,110.443,-566.296,0,0
143546.625,112.218,-562.968,0,0
143806.95,114.159,-559.737,0,0
144067.275,116.116,-556.625,0,0
144327.6,118.002,-553.495,0,0
144587.925,119.898,-550.281,0,0
144848.25,121.977,-546.96,0,0
145108.575,124.235,-543.725,0,0
145368.9,126.602,-540.558,0,0
145629.225,129.004,-537.556,0,0
145889.55,131.292,-534.592,0,0
146149.875,133.595,-531.514,0,0
146410.2,136.019,-528.365,0,0
146670.525,138.532,-525.146,0,0
146930.85,141.258,-521.886,0,0
147191.175,144.171,-518.678,0,0
147451.5,147.233,-515.523,0,0
147711.825,150.425,-512.44,0,0
147972.15,153.693,-509.338,0,0
148232.475,157.22,-506.145,0,0
148492.8,161.091,-503.002,0,0
148753.125,165.327,-499.948,0,0
149013.45,170.017,-497.134,0,0
149273.775,175.041,-494.805,0,0
149534.1,180.2,-492.899,0,0
149794.425,185.478,-491.447,0,0
150054.75,190.74,-490.312,0,0
150315.075,196.313,-489.452,0,0
150575.4,202.06,-489.399,0,0
150835.725,207.457,-490.001,0,0
151096.05,212.665,-490.924,0,0
151356.375,217.808,-492.435,0,0
151616.7,222.539,-494.609,0,0
151877.025,226.672,-497.295,0,0
152137.35,229.993,-500.199,0,0
152397.675,232.78,-502.995,0,0
152658.0,235.184,-505.779,0,0
152918.325,237.318,-508.563,0,0
153178.65,239.096,-511.581,0,0
153438.975,240.146,-514.725,0,0
153699.3,240.531,-517.541,0,0
153959.625,240.506,-519.964,0,0
154219.95,240.18,-521.968,0,0
154480,239.683,-523.521,0,0
154741,239.189,-524.753,0,0
155001,238.758,-525.596,0,0
155261,238.34,-526.325,0,0
155522,238.196,-527.008,0,0
155782,237.963,-527.894,0,0
156042,237.326,-528.599,0,0
156303,236.669,-529.057,0,0
156563,235.947,-529.493,0,0
156823,234.877,-529.702,0,0
157084,233.883,-529.603,0,0
157344,232.935,-529.091,0,0
157604,232.264,-528.453,0,0
157864,231.691,-527.568,0,0
158125,231.335,-526.95,0,0
158385,230.838,-526.225,0,0
158645,230.5,-525.476,0,0
158906,230.154,-524.74,0,0
159166,229.426,-523.985,0,0
159426,228.555,-522.752,0,0
159687,228.092,-520.927,0,0
159947,228.23,-519.002,0,0
160207,228.779,-517.566,0,0
160468,229.085,-516.47,0,0
160728,229.3,-514.879,0,0
160988,230.115,-513.13,0,0
161249,231.471,-511.595,0,0
161509,233.126,-510.424,0,0
161769,235.275,-509.567,0,0
162030,237.966,-510.021,0,0
162290,239.873,-511.87,0,0
162550,240.493,-514.251,0,0
162811,240.238,-516.84,0,0
163071,238.609,-519.094,0,0
163331,236.223,-520.555,0,0
163592,233.708,-520.994,0,0
163852,231.334,-521.196,0,0
164112,228.734,-521.265,0,0
164373,225.828,-520.945,0,0
164633,222.903,-520.171,0,0
164893,219.771,-519.127,0,0
165154,216.307,-517.411,0,0
165414,212.99,-514.864,0,0
165674,210.212,-511.783,0,0
165935,207.932,-508.615,0,0
166195,205.989,-505.356,0,0
166455,204.127,-502.13,0,0
166716,202.127,-498.682,0,0
166976,200.627,-495.013,0,0
167236,199.25,-491.32,0,0
167497,197.91,-487.681,0,0
167757,196.519,-483.586,0,0
168017,195.237,-479.263,0,0
168277,194.588,-474.665,0,0
168538,194.29,-470.209,0,0
168798,194.089,-465.989,0,0
169058,193.9,-461.717,0,0
169319,193.77,-457.202,0,0
169579,193.942,-452.513,0,0
169839,194.481,-447.894,0,0
170100,195.19,-443.405,0,0
170360.075,196,-439.134,0,0
170620.4,196.651,-434.916,0,0
170880.725,197.14,-430.381,0,0
171141.05,198.055,-425.561,0,0
171401.375,199.358,-420.782,0,0
171661.7,200.637,-416.137,0,0
171922.025,202.25,-411.573,0,0
172182.35,203.733,-407.014,0,0
172442.675,205.397,-402.08,0,0
172703.0,207.653,-397.318,0,0
172963.325,210.013,-392.989,0,0
173223.65,212.052,-388.702,0,0
173483.975,214.051,-384.105,0,0
173744.3,216.325,-379.322,0,0
174004.625,218.859,-374.483,0,0
174264.95,221.577,-369.584,0,0
174525.275,224.686,-364.483,0,0
174785.6,228.312,-359.449,0,0
175045.925,232.359,-354.743,0,0
175306.25,236.557,-350.18,0,0
175566.575,241.126,-345.946,0,0
175826.9,245.694,-342.084,0,0
176087.225,250.375,-338.217,0,0
176347.55,255.544,-334.624,0,0
176607.875,260.711,-331.359,0,0
176868.2,266.113,-328.378,0,0
177128.525,271.887,-325.775,0,0
177388.85,277.688,-324.095,0,0
177649.175,282.996,-322.881,0,0
177909.5,287.958,-321.969,0,0
178169.825,292.556,-320.99,0,0
178430.15,297.394,-320.17,0,0
178690.475,302.041,-319.895,0,0
178950.8,306.283,-320.026,0,0
179211.125,310.086,-320.632,0,0
179471.45,312.959,-321.445,0,0
179731.775,314.782,-322.026,0,0
179992.1,315.719,-321.864,0,0
180252.425,318.311,-319.841,0,0
180512.75,319.466,-318.766,0,0
180773.075,320.586,-317.08,0,0
181033.4,321.647,-314.935,0,0
181293.725,322.669,-312.06,0,0
181554.05,324.23,-308.439,0,0
181814.375,326.66,-304.53,0,0
182074.7,329.648,-301.018,0,0
182335.025,332.536,-297.96,0,0
182595.35,334.836,-294.781,0,0
182855.675,337.043,-290.776,0,0
183116.0,339.783,-286.041,0,0
183376.325,343.121,-281.013,0,0
183636.65,347.389,-275.713,0,0
183896.975,352.298,-270.607,0,0
184157.3,357.699,-265.668,0,0
184417.625,363.718,-261.011,0,0
184677.95,370.219,-256.881,0,0
184938.275,376.882,-253.215,0,0
185198.6,383.569,-249.995,0,0
185458.925,390.216,-247.079,0,0
185719.25,396.931,-244.159,0,0
185979.575,403.655,-241.569,0,0
186239.9,410.293,-239.206,0,0
186500,416.638,-236.722,0,0
186761,423.026,-233.581,0,0
187021,430.407,-230.004,0,0
187281,438.922,-227.106,0,0
187542,447.515,-225.222,0,0
187802,455.8,-223.82,0,0
188062,464.049,-222.555,0,0
188322,472.264,-221.575,0,0
188583,480.369,-220.953,0,0
188843,488.05,-220.638,0,0
189103,495.277,-219.957,0,0
189364,502.481,-218.643,0,0
189624,510.055,-217.021,0,0
189884,518.17,-215.069,0,0
190145,526.893,-213.191,0,0
190405,536.076,-211.305,0,0
190665,545.66,-209.486,0,0
190926,555.961,-207.515,0,0
191186,567.309,-205.862,0,0
191446,579.403,-205.193,0,0
191707,591.413,-205.191,0,0
191967,603.797,-205.211,0,0
192227,617.075,-205.702,0,0
192488,630.954,-207.099,0,0
192748,645.179,-209.356,0,0
193008,659.851,-212.396,0,0
193269,675.019,-216.684,0,0
193529,690.228,-222.382,0,0
193789,705.06,-229.434,0,0
194050,719.334,-237.597,0,0
194310,732.806,-246.617,0,0
194570,745.7,-256.031,0,0
194831,758.356,-266.092,0,0
195091,770.431,-277.23,0,0
195351,781.411,-289.037,0,0
195612,791.191,-300.862,0,0
195872,800.536,-312.409,0,0
196132,809.776,-323.728,0,0
196393,819.08,-335.394,0,0
196653,828.352,-347.467,0,0
196913,837.398,-360.046,0,0
197174,846.362,-373.13,0,0
197434,855.173,-387.012,0,0
197694,863.566,-401.963,0,0
197955,870.991,-417.773,0,0
198215,877.344,-434.152,0,0
198475,882.633,-450.744,0,0
198735,887.057,-467.327,0,0
198996,890.856,-484.214,0,0
199256,893.584,-501.199,0,0
199516,895.753,-518.052,0,0
199777,897.364,-534.898,0,0
200037,898.269,-551.891,0,0
200297,898.822,-569.176,0,0
200558,898.477,-586.968,0,0
200818,896.901,-605.111,0,0
201078,893.951,-623.418,0,0
201339,889.44,-641.085,0,0
201599,883.904,-657.884,0,0
201859,877.697,-673.965,0,0
202120,870.937,-689.282,0,0
202380.025,863.676,-703.93,0,0
202640.35,856.191,-718.282,0,0
202900.675,848.01,-732.392,0,0
203161.0,838.971,-745.896,0,0
203421.325,829.019,-758.466,0,0
203681.65,818.977,-769.846,0,0
203941.975,808.971,-780.387,0,0
204202.3,799.328,-790.355,0,0
204462.625,789.837,-800.242,0,0
204722.95,779.954,-810.283,0,0
204983.275,769.06,-820.278,0,0
205243.6,757.3,-829.577,0,0
205503.925,744.849,-837.252,0,0
205764.25,732.312,-843.663,0,0
206024.575,720.311,-848.96,0,0
206284.9,708.925,-853.736,0,0
206545.225,697.593,-857.921,0,0
206805.55,686.483,-861.414,0,0
207065.875,675.877,-864.523,0,0
207326.2,665.489,-867.076,0,0
207586.525,655.266,-869.114,0,0
207846.85,645.49,-870.22,0,0
208107.175,636.885,-871,0,0
208367.5,629.237,-871.894,0,0
208627.825,622.105,-873.171,0,0
208888.15,615.391,-874.87,0,0
209148.475,608.882,-877.071,0,0
209408.8,602.396,-880.086,0,0
209669.125,594.93,-883.694,0,0
209929.45,586.641,-886.961,0,0
210189.775,578.067,-889.465,0,0
210450.1,569.538,-891.71,0,0
210710.425,560.796,-894.037,0,0
210970.75,551.544,-895.86,0,0
211231.075,541.836,-897.274,0,0
211491.4,531.969,-897.855,0,0
211751.725,521.952,-897.389,0,0
212012.05,512.606,-895.855,0,0
212272.375,504.175,-893.929,0,0
212532.7,496.384,-892.101,0,0
212793.025,488.751,-890.235,0,0
213053.35,481.21,-888.14,0,0
213313.675,473.921,-885.82,0,0
213574.0,467.102,-883.144,0,0
213834.325,460.731,-880.482,0,0
214094.65,454.702,-877.879,0,0
214354.975,448.899,-875.188,0,0
214615.3,443.195,-872.538,0,0
214875.625,437.64,-869.848,0,0
215135.95,432.29,-867.143,0,0
215396.275,427.154,-864.125,0,0
215656.6,422.097,-861,0,0
215916.925,417.506,-857.838,0,0
216177.25,413.191,-854.637,0,0
216437.575,409.078,-851.448,0,0
216697.9,405.237,-848.291,0,0
216958.225,401.632,-845.149,0,0
217218.55,398.23,-842.123,0,0
217478.875,395.09,-839.118,0,0
217739.2,392.073,-836.277,0,0
217999.525,388.999,-833.502,0,0
218259.85,386.147,-830.533,0,0
218520,383.487,-827.6,0,0
218780,381.112,-824.702,0,0
219041,378.934,-821.934,0,0
219301,376.921,-819.217,0,0
219561,374.963,-816.685,0,0
219822,373.187,-814.323,0,0
220082,371.425,-812.008,0,0
220342,369.624,-809.649,0,0
220603,367.874,-807.23,0,0
220863,366.497,-804.67,0,0
221123,365.435,-802.234,0,0
221384,364.505,-800.031,0,0
221644,363.793,-797.956,0,0
221904,363.237,-796.108,0,0
222165,362.871,-794.513,0,0
222425,362.571,-793.204,0,0
222685,362.231,-792.159,0,0
222946,361.748,-791.466,0,0
223206,361.104,-790.808,0,0
223466,360.204,-790.339,0,0
223727,359.318,-789.769,0,0
223987,358.364,-789.138,0,0
224247,357.425,-788.502,0,0
224508,356.575,-787.881,0,0
224768,355.593,-787.298,0,0
225028,354.728,-786.708,0,0
225289,353.88,-786.046,0,0
225549,353.193,-785.459,0,0
225809,352.646,-784.984,0,0
226070,352.16,-784.708,0,0
226330,351.6,-784.481,0,0
226590,351.192,-784.32,0,0
226851,350.827,-784.363,0,0
227111,350.479,-784.495,0,0
227371,350.221,-784.736,0,0
227632,350.027,-785.213,0,0
227892,349.945,-786.041,0,0
228152,349.644,-787.308,0,0
228413,349.118,-788.763,0,0
228673,348.3,-790.524,0,0
228933,347.207,-792.269,0,0
229193,345.727,-794.177,0,0
229454,344.059,-796.051,0,0
229714,342.128,-797.872,0,0
229974,339.853,-799.586,0,0
230235,337.419,-801.26,0,0
230495,334.896,-802.749,0,0
230755,332.075,-804.083,0,0
231016,329.174,-805.122,0,0
231276,326.44,-806.158,0,0
231536,323.673,-807.182,0,0
231797,320.743,-808.273,0,0
232057,317.633,-809.306,0,0
232317,314.364,-810.204,0,0
232578,310.976,-810.904,0,0
232838,307.565,-811.52,0,0
233098,304.077,-811.955,0,0
233359,300.504,-812.28,0,0
233619,296.96,-812.374,0,0
233879,293.384,-812.31,0,0
234140,289.832,-812.152,0,0
234400,286.401,-811.816,0,0
234660.3,283.011,-811.481,0,0
234920.625,279.562,-811.085,0,0
235180.95,276.16,-810.627,0,0
235441.275,272.78,-810.083,0,0
235701.6,269.358,-809.49,0,0
235961.925,265.999,-808.75,0,0
236222.25,262.662,-808.04,0,0
236482.575,259.307,-807.228,0,0
236742.9,255.892,-806.349,0,0
237003.225,252.403,-805.343,0,0
237263.55,248.961,-804.186,0,0
237523.875,245.539,-802.864,0,0
237784.2,242.203,-801.357,0,0
238044.525,239.036,-799.786,0,0
238304.85,236.009,-798.171,0,0
238565.175,233.03,-796.587,0,0
238825.5,230.16,-794.949,0,0
239085.825,227.305,-793.324,0,0
239346.15,224.435,-791.571,0,0
239606.475,221.656,-789.75,0,0
239866.8,218.931,-787.914,0,0
240127.125,216.289,-786.081,0,0
240387.45,213.776,-784.149,0,0
240647.775,211.252,-782.19,0,0
240908.1,208.731,-780.184,0,0
241168.425,206.37,-778.129,0,0
241428.75,204.099,-776.025,0,0
241689.075,201.89,-773.908,0,0
241949.4,199.764,-771.765,0,0
242209.725,197.817,-769.604,0,0
242470.05,196.007,-767.435,0,0
242730.375,194.305,-765.424,0,0
242990.7,192.712,-763.426,0,0
243251.025,191.113,-761.556,0,0
243511.35,189.533,-759.713,0,0
243771.675,188.055,-757.986,0,0
244032.0,186.608,-756.288,0,0
244292.325,185.185,-754.79,0,0
244552.65,183.658,-753.287,0,0
244812.975,182.168,-751.935,0,0
245073.3,180.659,-750.603,0,0
245333.625,179.145,-749.381,0,0
245593.95,177.507,-748.251,0,0
245854.275,175.709,-747.345,0,0
246114.6,173.693,-746.545,0,0
246374.925,171.4,-745.607,0,0
246635.25,168.744,-744.637,0,0
246895.575,165.962,-743.24,0,0
247155.9,163.117,-741.616,0,0
247416.225,160.344,-739.77,0,0
247676.55,157.603,-737.672,0,0
247936.875,154.981,-735.442,0,0
248197.2,152.453,-733.099,0,0
248457.525,149.968,-730.668,0,0
248717.85,147.542,-728.207,0,0
248978.175,145.146,-725.63,0,0
249238.5,142.802,-722.917,0,0
249498.825,140.543,-720.037,0,0
249759.15,138.383,-717.007,0,0
250019.475,136.395,-713.906,0,0
250279.8,134.495,-710.762,0,0
250540,132.678,-707.519,0,0
250800,131.003,-704.258,0,0
251061,129.48,-700.848,0,0
251321,128.123,-697.397,0,0
251581,126.886,-693.899,0,0
251842,125.812,-690.397,0,0
252102,124.97,-686.923,0,0
252362,124.264,-683.426,0,0
252623,123.716,-680.069,0,0
252883,123.277,-676.8,0,0
253143,122.841,-673.605,0,0
253404,122.486,-670.408,0,0
253664,122.19,-667.251,0,0
253924,121.975,-664.097,0,0
254185,121.797,-661.024,0,0
254445,121.665,-657.953,0,0
254705,121.621,-654.783,0,0
254966,121.583,-651.655,0,0
255226,121.65,-648.551,0,0
255486,121.877,-645.34,0,0
255747,122.274,-642.195,0,0
256007,122.777,-639.071,0,0
256267,123.417,-635.986,0,0
256528,124.213,-633.009,0,0
256788,125.151,-630.148,0,0
257048,126.165,-627.406,0,0
257309,127.221,-624.825,0,0
257569,128.273,-622.343,0,0
257829,129.361,-619.909,0,0
258090,130.476,-617.522,0,0
258350,131.647,-615.259,0,0
258610,132.852,-613.015,0,0
258871,134.083,-610.824,0,0
259131,135.359,-608.703,0,0
259391,136.746,-606.607,0,0
259651,138.153,-604.629,0,0
259912,139.616,-602.747,0,0
260172,141.164,-600.957,0,0
260432,142.676,-599.225,0,0
260693,144.235,-597.583,0,0
260953,145.877,-596.009,0,0
261213,147.555,-594.553,0,0
261474,149.288,-593.172,0,0
261734,151.016,-591.998,0,0
261994,152.777,-590.926,0,0
262255,154.489,-589.973,0,0
262515,156.186,-589.162,0,0
262775,157.846,-588.441,0,0
263036,159.467,-587.791,0,0
263296,161.042,-587.236,0,0
263556,162.584,-586.79,0,0
263817,164.041,-586.411,0,0
264077,165.516,-586.078,0,0
264337,166.918,-585.84,0,0
264598,168.314,-585.686,0,0
264858,169.648,-585.653,0,0
265118,170.936,-585.706,0,0
265379,172.056,-585.895,0,0
265639,173.08,-586.093,0,0
265899,173.961,-586.323,0,0
266160,174.751,-586.485,0,0
266420,175.477,-586.731,0,0
266680.25,176.162,-586.916,0,0
266940.575,176.736,-587.111,0,0
267200.9,177.286,-587.302,0,0
267461.225,177.766,-587.487,0,0
267721.55,178.179,-587.684,0,0
267981.875,178.578,-587.883,0,0
268242.2,178.873,-588.073,0,0
268502.525,179.125,-588.271,0,0
268762.85,179.179,-588.498,0,0
269023.175,179.097,-588.651,0,0
269283.5,178.903,-588.638,0,0
269543.825,178.592,-588.432,0,0
269804.15,178.353,-588.014,0,0
270064.475,178.155,-587.466,0,0
270324.8,178.031,-586.757,0,0
270585.125,178.048,-585.927,0,0
270845.45,178.23,-585.014,0,0
271105.775,178.552,-584.016,0,0
271366.1,179.025,-583.042,0,0
271626.425,179.637,-582.026,0,0
271886.75,180.378,-581.029,0,0
272147.075,181.255,-580.006,0,0
272407.4,182.338,-579.019,0,0
272667.725,183.585,-578.124,0,0
272928.05,185.004,-577.252,0,0
273188.375,186.602,-576.49,0,0
273448.7,188.403,-575.826,0,0
273709.025,190.396,-575.324,0,0
273969.35,192.63,-575.02,0,0
274229.675,195.075,-575.017,0,0
274490.0,197.701,-575.421,0,0
274750.325,200.336,-576.186,0,0
275010.65,203.003,-577.355,0,0
275270.975,205.584,-578.931,0,0
275531.3,208.109,-580.989,0,0
275791.625,210.357,-583.523,0,0
276051.95,212.242,-586.443,0,0
276312.275,213.664,-589.707,0,0
276572.6,214.59,-593.144,0,0
276832.925,215.017,-596.64,0,0
277093.25,214.963,-600.103,0,0
277353.575,214.574,-603.475,0,0
277613.9,213.802,-606.758,0,0
277874.225,212.703,-609.926,0,0
278134.55,211.303,-612.903,0,0
278394.875,209.62,-615.709,0,0
278655.2,207.673,-618.236,0,0
278915.525,205.612,-620.506,0,0
279175.85,203.439,-622.576,0,0
279436.175,201.208,-624.484,0,0
279696.5,198.822,-626.233,0,0
279956.825,196.362,-627.73,0,0
280217.15,193.793,-628.954,0,0
280477.475,191.3,-629.969,0,0
280737.8,188.916,-630.826,0,0
280998.125,186.622,-631.618,0,0
281258.45,184.345,-632.419,0,0
281518.775,182.04,-633.241,0,0
281779.1,179.581,-634.062,0,0
282039.425,176.976,-634.829,0,0
282299.75,174.193,-635.444,0,0
282560,171.269,-635.867,0,0
282820,168.195,-635.995,0,0
283081,165.113,-635.826,0,0
283341,162.081,-635.321,0,0
283601,159.266,-634.502,0,0
283862,156.745,-633.548,0,0
284122,154.502,-632.586,0,0
284382,152.444,-631.818,0,0
284643,150.312,-631.217,0,0
284903,148.021,-630.773,0,0
285163,145.468,-630.223,0,0
285424,142.729,-629.515,0,0
285684,139.858,-628.535,0,0
285944,136.928,-627.282,0,0
286205,133.962,-625.722,0,0
286465,131.036,-623.854,0,0
286725,128.228,-621.628,0,0
286986,125.598,-619.126,0,0
287246,123.166,-616.347,0,0
287506,120.975,-613.327,0,0
287767,119.043,-610.105,0,0
288027,117.383,-606.658,0,0
288287,116.055,-603.012,0,0
288548,115.102,-599.165,0,0
288808,114.63,-595.255,0,0
289068,114.626,-591.305,0,0
289329,115.093,-587.466,0,0
289589,116.016,-583.745,0,0
289849,117.36,-580.28,0,0
290109,119.059,-577.111,0,0
290370,121.012,-574.2,0,0
290630,123.295,-571.571,0,0
290890,125.937,-569.299,0,0
291151,128.816,-567.502,0,0
291411,131.846,-566.234,0,0
291671,134.948,-565.51,0,0
291932,138.014,-565.323,0,0
292192,140.955,-565.684,0,0
292452,143.668,-566.608,0,0
292713,146.013,-568.028,0,0
292973,147.832,-569.834,0,0
293233,149.061,-571.869,0,0
293494,149.684,-573.931,0,0
293754,149.763,-575.856,0,0
294014,149.387,-577.507,0,0
294275,148.643,-578.796,0,0
294535,147.748,-579.612,0,0
294795,146.894,-579.973,0,0
295056,146.198,-579.943,0,0
295316,145.892,-579.66,0,0
295576,145.969,-579.243,0,0
295837,146.524,-578.97,0,0
296097,147.548,-579.031,0,0
296357,148.801,-579.717,0,0
296618,149.94,-581.106,0,0
296878,150.72,-583.044,0,0
297138,150.891,-585.343,0,0
297399,150.42,-587.734,0,0
297659,149.377,-590.01,0,0
297919,147.869,-591.989,0,0
298180,146.072,-593.615,0,0
298440,144.114,-594.917,0,0
298700.2,142.095,-595.926,0,0
298960.525,140.022,-596.67,0,0
299220.85,137.959,-597.211,0,0
299481.175,135.887,-597.539,0,0
299741.5,133.829,-597.71,0,0
300001.825,131.788,-597.68,0,0
300262.15,129.804,-597.474,0,0
300522.475,127.902,-597.075,0,0
300782.8,126.112,-596.492,0,0
301043.125,124.517,-595.765,0,0
301303.45,123.139,-595.001,0,0
301563.775,121.947,-594.283,0,0
301824.1,120.888,-593.605,0,0
302084.425,119.937,-593.016,0,0
302344.75,119.053,-592.508,0,0
302605.075,118.209,-592.125,0,0
302865.4,117.355,-591.85,0,0
303125.725,116.478,-591.657,0,0
303386.05,115.533,-591.532,0,0
303646.375,114.541,-591.468,0,0
303906.7,113.476,-591.425,0,0
304167.025,112.319,-591.401,0,0
304427.35,111.08,-591.43,0,0
304687.675,109.707,-591.437,0,0
304948.0,108.187,-591.382,0,0
305208.325,106.6,-591.247,0,0
305468.65,104.93,-590.979,0,0
305728.975,103.224,-590.603,0,0
305989.3,101.513,-590.115,0,0
306249.625,99.7998,-589.506,0,0
306509.95,98.1073,-588.828,0,0
306770.275,96.4101,-588.02,0,0
307030.6,94.7931,-587.12,0,0
307290.925,93.2158,-586.141,0,0
307551.25,91.7317,-585.111,0,0
307811.575,90.3261,-584.045,0,0
308071.9,88.9475,-582.987,0,0
308332.225,87.5963,-581.916,0,0
308592.55,86.2555,-580.787,0,0
308852.875,84.9581,-579.592,0,0
309113.2,83.72,-578.402,0,0
309373.525,82.5535,-577.198,0,0
309633.85,81.4145,-575.97,0,0
309894.175,80.2996,-574.753,0,0
310154.5,79.2092,-573.519,0,0
310414.825,78.1344,-572.262,0,0
310675.15,77.0834,-570.941,0,0
310935.475,76.0843,-569.614,0,0
311195.8,75.1298,-568.279,0,0
311456.125,74.2529,-566.915,0,0
311716.45,73.4066,-565.567,0,0
311976.775,72.5913,-564.207,0,0
312237.1,71.8314,-562.845,0,0
312497.425,71.0812,-561.504,0,0
312757.75,70.3973,-560.167,0,0
313018.075,69.7402,-558.847,0,0
313278.4,69.1095,-557.528,0,0
313538.725,68.4804,-556.231,0,0
313799.05,67.8755,-554.936,0,0
314059.375,67.2843,-553.646,0,0
314319.7,66.7054,-552.351,0,0
314580,66.1349,-551.048,0,0
314840,65.6826,-549.769,0,0
315101,65.1797,-548.492,0,0
315361,64.632,-547.266,0,0
315621,64.2662,-545.984,0,0
315882,63.729,-544.668,0,0
316142,63.2538,-543.391,0,0
316402,62.8578,-542.074,0,0
316663,62.4892,-540.796,0,0
316923,62.1655,-539.564,0,0
317183,61.7969,-538.209,0,0
317444,61.5232,-537.013,0,0
317704,61.2688,-535.769,0,0
317964,61.0372,-534.521,0,0
318225,60.9084,-533.361,0,0
318485,60.593,-532.121,0,0
318745,60.3977,-531.054,0,0
319006,60.229,-529.925,0,0
319266,60.0056,-528.881,0,0
319526,59.7765,-527.72,0,0
319787,59.5937,-526.695,0,0
320047,59.3041,-525.549,0,0
320307,59.1859,-524.537,0,0
320567,58.9185,-523.41,0,0
320828,58.6462,-522.307,0,0
321088,58.4257,-521.211,0,0
321348,58.2016,-520.115,0,0
321609,58.0058,-519.016,0,0
321869,57.806,-517.859,0,0
322129,57.5991,-516.741,0,0
322390,57.4939,-515.669,0,0
322650,57.3056,-514.541,0,0
322910,57.0908,-513.372,0,0
323171,56.9488,-512.234,0,0
323431,56.8075,-511.061,0,0
323691,56.7018,-509.776,0,0
323952,56.5031,-508.577,0,0
324212,56.4152,-507.24,0,0
324472,56.3736,-505.88,0,0
324733,56.4379,-504.55,0,0
324993,56.5284,-503.149,0,0
325253,56.7928,-501.891,0,0
325514,57.1323,-500.449,0,0
325774,57.5536,-499.12,0,0
326034,58.0823,-497.932,0,0
326295,58.6605,-496.76,0,0
326555,59.3133,-495.772,0,0
326815,60.0354,-494.888,0,0
327076,60.7524,-494.076,0,0
327336,61.3351,-493.441,0,0
327596,61.9356,-492.874,0,0
327857,62.4633,-492.431,0,0
328117,62.8876,-491.893,0,0
328377,63.2877,-491.427,0,0
328638,63.701,-490.958,0,0
328898,63.9994,-490.439,0,0
329158,64.3412,-490.022,0,0
329419,64.7125,-489.583,0,0
329679,65.0332,-489.268,0,0
329939,65.3819,-488.871,0,0
330200,65.6854,-488.599,0,0
330460,65.9689,-488.381,0,0
330720.15,66.1963,-488.181,0,0
330980.475,66.4262,-487.992,0,0
331240.8,66.6524,-487.922,0,0
331501.125,66.7418,-487.884,0,0
331761.45,66.7327,-487.792,0,0
332021.775,66.6959,-487.767,0,0
332282.1,66.5447,-487.75,0,0
332542.425,66.2975,-487.759,0,0
332802.75,66.0315,-487.658,0,0
333063.075,65.6449,-487.579,0,0
333323.4,65.1299,-487.399,0,0
333583.725,64.6991,-487.15,0,0
333844.05,64.1377,-486.808,0,0
334104.375,63.5825,-486.486,0,0
334364.7,63.1199,-486.019,0,0
334625.025,62.5644,-485.542,0,0
334885.35,62.0701,-484.977,0,0
335145.675,61.6199,-484.396,0,0
335406.0,61.1448,-483.803,0,0
335666.325,60.7541,-483.134,0,0
335926.65,60.3097,-482.567,0,0
336186.975,59.9064,-481.839,0,0
336447.3,59.4726,-481.129,0,0
336707.625,59.0193,-480.423,0,0
336967.95,58.7749,-479.744,0,0
337228.275,58.3479,-478.936,0,0
337488.6,58.0004,-478.171,0,0
337748.925,57.6832,-477.386,0,0
338009.25,57.3669,-476.636,0,0
338269.575,57.0949,-475.817,0,0
338529.9,56.8024,-475.007,0,0
338790.225,56.541,-474.215,0,0
339050.55,56.2616,-473.401,0,0
339310.875,56.0267,-472.504,0,0
339571.2,55.7867,-471.641,0,0
339831.525,55.5469,-470.816,0,0
340091.85,55.3612,-469.961,0,0
340352.175,55.1833,-469.09,0,0
340612.5,55.0455,-468.238,0,0
340872.825,54.8944,-467.352,0,0
341133.15,54.8059,-466.486,0,0
341393.475,54.6521,-465.539,0,0
341653.8,54.63,-464.727,0,0
341914.125,54.489,-463.835,0,0
342174.45,54.4406,-462.987,0,0
342434.775,54.3414,-462.049,0,0
342695.1,54.3597,-461.164,0,0
342955.425,54.3031,-460.242,0,0
343215.75,54.327,-459.351,0,0
343476.075,54.372,-458.411,0,0
343736.4,54.4421,-457.528,0,0
343996.725,54.5047,-456.634,0,0
344257.05,54.6474,-455.79,0,0
344517.375,54.774,-454.854,0,0
344777.7,54.8859,-454.034,0,0
345038.025,55.0395,-453.222,0,0
345298.35,55.2507,-452.32,0,0
345558.675,55.4112,-451.544,0,0
345819.0,55.5866,-450.756,0,0
346079.325,55.8384,-449.982,0,0
346339.65,56.0327,-449.161,0,0
346599.975,56.2331,-448.386,0,0
346860,56.5053,-447.69,0,0
347121,56.7661,-446.924,0,0
347381,56.9967,-446.206,0,0
347641,57.2866,-445.458,0,0
347902,57.548,-444.774,0,0
348162,57.8854,-444.056,0,0
348422,58.1886,-443.367,0,0
348683,58.4964,-442.698,0,0
348943,58.8015,-442.08,0,0
349203,59.1822,-441.441,0,0
349464,59.5254,-440.868,0,0
349724,59.895,-440.26,0,0
349984,60.239,-439.722,0,0
350245,60.662,-439.168,0,0
350505,61.0405,-438.682,0,0
350765,61.4349,-438.177,0,0
351025,61.8066,-437.727,0,0
351286,62.1627,-437.295,0,0
351546,62.5395,-436.926,0,0
351806,62.8131,-436.562,0,0
352067,63.1056,-436.261,0,0
352327,63.3929,-435.968,0,0
352587,63.5976,-435.609,0,0
352848,63.8117,-435.268,0,0
353108,63.9761,-434.898,0,0
353368,64.1703,-434.529,0,0
353629,64.3471,-434.144,0,0
353889,64.5731,-433.715,0,0
354149,64.7935,-433.309,0,0
354410,65.0272,-432.947,0,0
354670,65.2182,-432.522,0,0
354930,65.4777,-432.178,0,0
355191,65.7056,-431.771,0,0
355451,65.9101,-431.456,0,0
355711,66.1663,-431.061,0,0
355972,66.4406,-430.715,0,0
356232,66.6459,-430.31,0,0
356492,66.8955,-429.939,0,0
356753,67.2218,-429.609,0,0
357013,67.5187,-429.246,0,0
357273,67.8384,-428.93,0,0
357534,68.1533,-428.657,0,0
357794,68.49,-428.397,0,0
358054,68.8326,-428.214,0,0
358315,69.1141,-427.976,0,0
358575,69.4351,-427.816,0,0
358835,69.7432,-427.666,0,0
359096,70.0671,-427.515,0,0
359356,70.3588,-427.47,0,0
359616,70.658,-427.39,0,0
359877,70.8339,-427.301,0,0
360137,71.1488,-427.353,0,0
360397,71.3322,-427.357,0,0
360658,71.5044,-427.407,0,0
360918,71.5899,-427.427,0,0
361178,71.7334,-427.483,0,0
361438,71.7814,-427.601,0,0
361699,71.7517,-427.653,0,0
361959,71.771,-427.643,0,0
362219,71.7414,-427.732,0,0
362480,71.6021,-427.753,0,0
362740.1,71.5437,-427.735,0,0
363000.425,71.3944,-427.752,0,0
363260.75,71.3144,-427.727,0,0
363521.075,71.1901,-427.73,0,0
363781.4,71.0103,-427.665,0,0
364041.725,70.8439,-427.606,0,0
364302.05,70.6385,-427.523,0,0
364562.375,70.4159,-427.447,0,0
364822.7,70.2488,-427.34,0,0
365083.025,70.0256,-427.213,0,0
365343.35,69.8208,-427.062,0,0
365603.675,69.548,-426.924,0,0
365864.0,69.2609,-426.714,0,0
366124.325,69.0506,-426.498,0,0
366384.65,68.8177,-426.272,0,0
366644.975,68.5983,-426,0,0
366905.3,68.379,-425.666,0,0
367165.625,68.2104,-425.371,0,0
367425.95,68.0779,-425.069,0,0
367686.275,67.9523,-424.693,0,0
367946.6,67.8794,-424.344,0,0
368206.925,67.8509,-424.057,0,0
368467.25,67.8778,-423.772,0,0
368727.575,67.9143,-423.588,0,0
368987.9,67.9206,-423.462,0,0
369248.225,67.9495,-423.355,0,0
369508.55,67.8902,-423.296,0,0
369768.875,67.7444,-423.258,0,0
370029.2,67.5792,-423.267,0,0
370289.525,67.3777,-423.195,0,0
370549.85,67.134,-423.096,0,0
370810.175,66.8093,-423.014,0,0
371070.5,66.5176,-422.877,0,0
371330.825,66.2465,-422.674,0,0
371591.15,65.9297,-422.43,0,0
371851.475,65.6967,-422.209,0,0
372111.8,65.48,-421.963,0,0
372372.125,65.1972,-421.719,0,0
372632.45,64.9692,-421.495,0,0
372892.775,64.7633,-421.236,0,0
373153.1,64.5278,-421.001,0,0
373413.425,64.3423,-420.822,0,0
373673.75,64.1381,-420.607,0,0
373934.075,63.9253,-420.402,0,0
374194.4,63.7277,-420.195,0,0
374454.725,63.4496,-420.075,0,0
374715.05,63.1647,-419.877,0,0
374975.375,62.8461,-419.727,0,0
375235.7,62.5298,-419.565,0,0
375496.025,62.1663,-419.327,0,0
375756.35,61.7987,-419.079,0,0
376016.675,61.4543,-418.825,0,0
376277.0,61.1257,-418.564,0,0
376537.325,60.7611,-418.246,0,0
376797.65,60.4671,-417.935,0,0
377057.975,60.1434,-417.595,0,0
377318.3,59.8887,-417.39,0,0
377578.625,59.6165,-417.107,0,0
377838.95,59.319,-416.861,0,0
378099.275,58.9613,-416.657,0,0
378359.6,58.5791,-416.435,0,0
378619.925,58.1239,-416.268,0,0
378880,57.6253,-416.045,0,0
379141,57.0629,-415.831,0,0
379401,56.4489,-415.476,0,0
379661,55.8194,-415.085,0,0
379922,55.1421,-414.532,0,0
380182,54.5246,-413.887,0,0
380442,54.0001,-413.098,0,0
380703,53.607,-412.23,0,0
380963,53.4042,-411.411,0,0
381223,53.2735,-410.63,0,0
381483,53.3694,-409.885,0,0
381744,53.4131,-409.348,0,0
382004,53.4489,-408.947,0,0
382264,53.4451,-408.592,0,0
382525,53.3769,-408.331,0,0
382785,53.2339,-408.076,0,0
383045,53.0073,-407.836,0,0
383306,52.6983,-407.658,0,0
383566,52.3587,-407.362,0,0
383826,51.9957,-407.034,0,0
384087,51.5788,-406.714,0,0
384347,51.1809,-406.315,0,0
384607,50.7427,-405.91,0,0
384868,50.2978,-405.456,0,0
385128,49.8583,-404.951,0,0
385388,49.4568,-404.41,0,0
385649,49.0605,-403.848,0,0
385909,48.6154,-403.234,0,0
386169,48.2507,-402.595,0,0
386430,47.9248,-401.975,0,0
386690,47.5885,-401.314,0,0
386950,47.271,-400.684,0,0
387211,47.0143,-400.009,0,0
387471,46.7582,-399.35,0,0
387731,46.5016,-398.646,0,0
387992,46.2448,-398.034,0,0
388252,45.9903,-397.34,0,0
388512,45.7981,-396.651,0,0
388773,45.5796,-395.908,0,0
389033,45.4072,-395.196,0,0
389293,45.278,-394.471,0,0
389554,45.2021,-393.735,0,0
389814,45.1474,-392.968,0,0
390074,45.0911,-392.288,0,0
390335,45.135,-391.631,0,0
390595,45.2025,-390.957,0,0
390855,45.2594,-390.375,0,0
391116,45.3827,-389.842,0,0
391376,45.4492,-389.39,0,0
391636,45.5037,-388.991,0,0
391896,45.5223,-388.677,0,0
392157,45.4368,-388.358,0,0
392417,45.3237,-388.008,0,0
392677,45.0726,-387.687,0,0
392938,44.8404,-387.327,0,0
393198,44.6042,-386.908,0,0
393458,44.2451,-386.503,0,0
393719,43.8694,-386.028,0,0
393979,43.5063,-385.478,0,0
394239,43.1344,-384.908,0,0
394500,42.7811,-384.265,0,0
394760.05,42.4176,-383.532,0,0
395020.375,42.122,-382.8,0,0
395280.7,41.8335,-382.012,0,0
395541.025,41.613,-381.231,0,0
395801.35,41.411,-380.398,0,0
396061.675,41.2791,-379.553,0,0
396322.0,41.1357,-378.741,0,0
396582.325,41.0225,-377.913,0,0
396842.65,40.9901,-377.044,0,0
397102.975,40.937,-376.261,0,0
397363.3,40.9476,-375.422,0,0
397623.625,40.9959,-374.593,0,0
397883.95,41.033,-373.814,0,0
398144.275,41.1491,-373.045,0,0
398404.6,41.2175,-372.294,0,0
398664.925,41.3198,-371.547,0,0
398925.25,41.4652,-370.827,0,0
399185.575,41.5896,-370.117,0,0
399445.9,41.744,-369.437,0,0
399706.225,41.8702,-368.753,0,0
399966.55,42.0381,-368.075,0,0
400006.6,42.0427,-368.03,0,0