File: Accelerated corrosion test data/2025-09-30_18-00-03/sample_7.csv
Frequency (Hz),Impedance (ohms),Phase (Radians),Temperature (C),Humidity (%)
10000.0,277.953,-12022,0,0
10260.325,276.882,-11733.1,0,0
10520.65,261.731,-11435.7,0,0
10780.975,255.643,-11156.5,0,0
11041.3,252.403,-10890.5,0,0
11301.625,249.664,-10636.2,0,0
11561.95,251.833,-10389.1,0,0
11822.275,259.943,-10161.1,0,0
12082.6,266.008,-9935.81,0,0
12342.925,325.369,-9761.8,0,0
12603.25,264.196,-9593.63,0,0
12863.575,269.939,-9401.25,0,0
13123.9,240.994,-9220.31,0,0
13384.225,234.792,-9049.15,0,0
13644.55,227.37,-8866.33,0,0
13904.875,212.333,-8701.02,0,0
14165.2,209.588,-8531.98,0,0
14425.525,208.837,-8394.3,0,0
14685.8,207.339,-8242.85,0,0
14946.175,201.638,-8097.46,0,0
15206.5,200.44,-7967.19,0,0
15466.825,188.632,-7827.03,0,0
15727.15,187.306,-7700.33,0,0
15987.5,181.907,-7571.53,0,0
16247.8,181.868,-7452.88,0,0
16508.125,174.519,-7331.52,0,0
16768.45,174.087,-7213.91,0,0
17028.775,173.351,-7104.77,0,0
17289.1,169.163,-6996.29,0,0
17549.425,168.7,-6888.08,0,0
17809.75,172.701,-6779.41,0,0
18070.075,172.556,-6683.62,0,0
18330.4,182.768,-6577.85,0,0
18590.725,200.711,-6496,0,0
18851.05,194.742,-6427.64,0,0
19111.375,182.637,-6343.48,0,0
19371.7,204.184,-6271.77,0,0
19632.025,171.383,-6199.76,0,0
19892.35,159.118,-6102.63,0,0
20152.675,171.794,-6019.46,0,0
20413.0,173.943,-5949.5,0,0
20673.3,170.507,-5871.14,0,0
20933.65,178.615,-5809.95,0,0
21193.975,161.881,-5747.71,0,0
21454.3,154.318,-5673.24,0,0
21714.625,157.366,-5607.08,0,0
21974.9,148.867,-5544.2,0,0
22235.275,143.719,-5476.68,0,0
22495.6,141.755,-5414.31,0,0
22755.925,136.998,-5350.84,0,0
23016.25,132.652,-5287.97,0,0
23276.6,130.548,-5225.31,0,0
23536.9,131.594,-5165.43,0,0
23797.225,130.807,-5110.73,0,0
24057.55,127.023,-5053.96,0,0
24317.875,125.023,-4996.57,0,0
24578.2,126.534,-4942.86,0,0
24838.525,124.637,-4889.37,0,0
25098.85,122.891,-4838.09,0,0
25359.175,122.164,-4786.01,0,0
25619.5,121.38,-4734.71,0,0
25879.8,121.448,-4685.29,0,0
26140.1,122.215,-4633.37,0,0
26400.5,126.314,-4586.18,0,0
26660.8,124.7,-4541.29,0,0
26921.1,125.527,-4490.7,0,0
27181.4,131.981,-4443.36,0,0
27441.8,134.941,-4399.32,0,0
27702.1,147.021,-4352.06,0,0
27962.4,162.474,-4311.48,0,0
28222.7,181.61,-4288.68,0,0
28483.1,181.242,-4270.8,0,0
28743.4,173.662,-4251.03,0,0
29003.7,158.737,-4222.54,0,0
29264,144.456,-4186.03,0,0
29524.4,136.822,-4145.32,0,0
29784.7,131.728,-4107.63,0,0
30045,129.315,-4064.88,0,0
30305.3,133.114,-4028.26,0,0
30565.7,133.933,-3994.87,0,0
30826,137.109,-3962.58,0,0
31086.3,138.362,-3935.88,0,0
31346.6,134.37,-3907.71,0,0
31607,131.755,-3883.11,0,0
31867.3,122.748,-3851.49,0,0
32127.6,119.893,-3819.89,0,0
32387.9,116.05,-3789.53,0,0
32648.3,112.136,-3759.12,0,0
32908.6,109.432,-3728.52,0,0
33168.9,106.635,-3698.87,0,0
33429.2,104,-3669.16,0,0
33689.6,101.508,-3639.4,0,0
33949.9,99.9629,-3610.8,0,0
34210.2,97.926,-3581.84,0,0
34470.5,96.2751,-3553.73,0,0
34730.9,95.0241,-3526.03,0,0
34991.2,93.9704,-3498.68,0,0
35251.5,92.7378,-3471.9,0,0
35511.8,92.0588,-3445.11,0,0
35772.2,90.9978,-3418.85,0,0
36032.5,90.8481,-3393.01,0,0
36292.8,90.3151,-3368.34,0,0
36553.1,89.1584,-3343.31,0,0
36813.5,88.8144,-3318.41,0,0
37073.8,88.5609,-3294.06,0,0
37334.1,88.3667,-3270.1,0,0
37594.4,88.087,-3247.02,0,0
37854.8,87.2179,-3223.82,0,0
38115.1,87.5163,-3200.14,0,0
38375.4,87.9152,-3176.9,0,0
38635.7,88.4531,-3154.22,0,0
38896.1,89.9329,-3131.81,0,0
39156.4,91.21,-3110.44,0,0
39416.7,94.1387,-3089.2,0,0
39677,97.6365,-3070.63,0,0
39937.4,98.7215,-3054.36,0,0
40197.7,98.3529,-3038.2,0,0
40458,96.4,-3021.93,0,0
40718.3,93.7197,-3004.18,0,0
40978.7,91.2407,-2985.39,0,0
41239,88.6151,-2966.96,0,0
41499.3,86.6735,-2947.32,0,0
41759.6,85.6106,-2928.53,0,0
42020,84.2529,-2909.95,0,0
42280.275,82.7122,-2890.83,0,0
42540.6,82.0217,-2871.48,0,0
42800.925,82.1986,-2853.2,0,0
43061.25,82.2943,-2834.99,0,0
43321.575,83.0194,-2818.6,0,0
43581.9,81.4674,-2801.26,0,0
43842.225,81.3823,-2783.11,0,0
44102.55,82.996,-2765.72,0,0
44362.875,84.3924,-2750.93,0,0
44623.2,84.4319,-2735.62,0,0
44883.525,83.7797,-2721.91,0,0
45143.85,82.3675,-2706.49,0,0
45404.175,80.8982,-2690.59,0,0
45664.5,81.5478,-2673.98,0,0
45924.825,82.3328,-2660.66,0,0
46185.15,81.2986,-2647.29,0,0
46445.475,79.2184,-2633.56,0,0
46705.8,76.6495,-2619.41,0,0
46966.125,74.9689,-2603.89,0,0
47226.45,73.4876,-2588.02,0,0
47486.775,73.3099,-2573.11,0,0
47747.1,72.8151,-2558.22,0,0
48007.425,72.3814,-2543.97,0,0
48267.75,72.3687,-2530.01,0,0
48528.075,71.5422,-2516.08,0,0
48788.4,70.9289,-2502.29,0,0
49048.725,70.2017,-2488.41,0,0
49309.05,69.6296,-2474.78,0,0
49569.375,69.4381,-2461.31,0,0
49829.7,68.8973,-2447.83,0,0
50090.025,68.5632,-2434.75,0,0
50350.35,68.1594,-2421.6,0,0
50610.675,67.8093,-2408.87,0,0
50871.0,67.5906,-2396.02,0,0
51131.325,67.1618,-2383.51,0,0
51391.65,66.889,-2370.81,0,0
51651.975,66.4933,-2358.45,0,0
51912.3,66.2141,-2346.14,0,0
52172.625,66.2032,-2333.85,0,0
52432.95,65.8983,-2321.94,0,0
52693.275,65.5646,-2309.98,0,0
52953.6,65.5857,-2298.18,0,0
53213.925,65.4454,-2286.68,0,0
53474.25,65.3794,-2275.45,0,0
53734.575,65.0589,-2264.15,0,0
53994.9,64.6557,-2252.93,0,0
54255.225,64.2735,-2241.78,0,0
54515.55,64.0435,-2230.69,0,0
54775.875,63.8024,-2219.58,0,0
55036.2,63.6646,-2208.62,0,0
55296.525,63.4119,-2197.88,0,0
55556.85,63.2986,-2187.07,0,0
55817.175,63.0584,-2176.58,0,0
56077.5,62.7614,-2165.95,0,0
56337.825,62.9038,-2155.39,0,0
56598.15,62.7344,-2145.35,0,0
56858.475,62.5065,-2135.21,0,0
57118.8,62.2506,-2125.07,0,0
57379.125,62.0562,-2115.09,0,0
57639.45,61.7709,-2104.99,0,0
57899.775,61.6448,-2094.99,0,0
58160.1,61.7577,-2084.93,0,0
58420.4,62.1303,-2075.17,0,0
58680.7,62.2791,-2066.13,0,0
58941.1,62.0142,-2056.86,0,0
59201.4,61.7529,-2047.52,0,0
59461.7,61.7896,-2037.91,0,0
59722,62.1997,-2028.99,0,0
59982.4,62.0044,-2020.24,0,0
60242.7,62.0276,-2011.41,0,0
60503,61.8204,-2003.03,0,0
60763.3,61.3517,-1994.29,0,0
61023.7,60.9037,-1985.66,0,0
61284,60.4752,-1976.8,0,0
61544.3,60.3666,-1968.32,0,0
61804.6,59.8599,-1959.87,0,0
62065,59.3925,-1951.23,0,0
62325.3,59.0188,-1942.51,0,0
62585.6,58.8359,-1933.95,0,0
62845.9,58.5771,-1925.68,0,0
63106.3,58.4144,-1917.27,0,0
63366.6,58.3296,-1908.94,0,0
63626.9,58.3008,-1900.81,0,0
63887.2,57.9038,-1892.77,0,0
64147.6,57.5845,-1884.57,0,0
64407.9,57.4133,-1876.53,0,0
64668.2,57.2236,-1868.42,0,0
64928.5,57.2596,-1860.51,0,0
65188.9,57.2938,-1852.43,0,0
65449.2,57.4297,-1844.8,0,0
65709.5,57.5051,-1837.42,0,0
65969.8,57.2942,-1830.14,0,0
66230.2,56.9432,-1822.76,0,0
66490.5,56.8597,-1815.45,0,0
66750.8,56.5901,-1808.04,0,0
67011.1,56.1261,-1800.9,0,0
67271.5,55.5087,-1793.52,0,0
67531.8,55.1863,-1786.17,0,0
67792.1,55.2232,-1778.68,0,0
68052.4,54.8762,-1771.51,0,0
68312.8,54.4169,-1764.19,0,0
68573.1,54.4296,-1757.05,0,0
68833.4,54.0682,-1749.71,0,0
69093.7,54.1705,-1742.65,0,0
69354.1,54.2935,-1735.73,0,0
69614.4,54.1186,-1728.51,0,0
69874.7,54.044,-1721.87,0,0
70135,53.9264,-1715.04,0,0
70395.4,53.8418,-1708.23,0,0
70655.7,53.6942,-1701.65,0,0
70916,53.6755,-1695.02,0,0
71176.3,53.5835,-1688.53,0,0
71436.7,53.5128,-1682.14,0,0
71697,53.1556,-1675.61,0,0
71957.3,52.9865,-1668.95,0,0
72217.6,52.7454,-1662.66,0,0
72478,52.6333,-1656.29,0,0
72738.3,52.4725,-1649.85,0,0
72998.6,52.2163,-1643.5,0,0
73258.9,52.0238,-1637.19,0,0
73519.3,51.8371,-1630.87,0,0
73779.6,51.7248,-1624.59,0,0
74039.9,51.6444,-1618.41,0,0
74300.225,51.4961,-1612.16,0,0
74560.55,51.4716,-1606.16,0,0
74820.875,51.3456,-1599.97,0,0
75081.2,51.2319,-1594.04,0,0
75341.525,51.1514,-1588.01,0,0
75601.85,51.073,-1582.04,0,0
75862.175,50.9289,-1576.12,0,0
76122.5,50.8121,-1570.23,0,0
76382.825,50.7787,-1564.32,0,0
76643.15,50.7056,-1558.54,0,0
76903.475,50.6033,-1552.7,0,0
77163.8,50.5509,-1546.96,0,0
77424.125,50.4576,-1541.24,0,0
77684.45,50.4566,-1535.6,0,0
77944.775,50.3568,-1530.03,0,0
78205.1,50.3242,-1524.41,0,0
78465.425,50.1948,-1518.82,0,0
78725.75,50.178,-1513.27,0,0
78986.075,50.1915,-1507.75,0,0
79246.4,50.0777,-1502.3,0,0
79506.725,50.055,-1496.84,0,0
79767.05,50.0257,-1491.45,0,0
80027.375,50.0752,-1486.07,0,0
80287.7,49.9864,-1480.79,0,0
80548.025,49.9707,-1475.56,0,0
80808.35,49.8996,-1470.32,0,0
81068.675,49.8317,-1465.06,0,0
81329.0,49.83,-1459.81,0,0
81589.325,49.7367,-1454.61,0,0
81849.65,49.7599,-1449.55,0,0
82109.975,49.6975,-1444.36,0,0
82370.3,49.7429,-1439.23,0,0
82630.625,49.7492,-1434.2,0,0
82890.95,49.694,-1429.22,0,0
83151.275,49.6775,-1424.15,0,0
83411.6,49.5272,-1419.1,0,0
83671.925,49.5413,-1414.07,0,0
83932.25,49.5996,-1409.14,0,0
84192.575,49.6265,-1404.21,0,0
84452.9,49.7319,-1399.35,0,0
84713.225,49.7111,-1394.49,0,0
84973.55,49.8515,-1389.67,0,0
85233.875,49.8961,-1384.94,0,0
85494.2,49.8816,-1380.27,0,0
85754.525,49.8345,-1375.59,0,0
86014.85,49.8199,-1370.88,0,0
86275.175,49.9435,-1366.06,0,0
86535.5,49.9495,-1361.58,0,0
86795.825,49.9845,-1357,0,0
87056.15,49.9014,-1352.33,0,0
87316.475,50.0304,-1347.71,0,0
87576.8,50.0742,-1343.14,0,0
87837.125,50.1753,-1338.64,0,0
88097.45,50.2109,-1334.13,0,0
88357.775,50.2706,-1329.79,0,0
88618.1,50.2115,-1325.4,0,0
88878.425,50.1187,-1321,0,0
89138.75,50.3406,-1316.49,0,0
89399.075,50.0843,-1312.21,0,0
89659.4,50.129,-1307.73,0,0
89919.725,50.2983,-1303.36,0,0
90180,50.3154,-1298.85,0,0
90440.4,50.449,-1294.41,0,0
90700.7,50.5559,-1290.36,0,0
90961,50.6307,-1286.03,0,0
91221.3,50.8705,-1281.93,0,0
91481.7,50.7819,-1277.38,0,0
91742,51.0236,-1273.43,0,0
92002.3,50.9916,-1269.2,0,0
92262.6,51.2231,-1264.95,0,0
92523,51.2999,-1261.17,0,0
92783.3,51.2446,-1257.07,0,0
93043.6,51.1738,-1252.86,0,0
93303.9,51.1456,-1248.66,0,0
93564.3,51.3488,-1244.35,0,0
93824.6,51.7244,-1240.04,0,0
94084.9,52.1908,-1235.98,0,0
94345.2,52.7336,-1232.43,0,0
94605.6,53.0192,-1228.89,0,0
94865.9,52.8781,-1225.34,0,0
95126.2,52.9002,-1221.52,0,0
95386.5,53.1178,-1217.83,0,0
95646.9,52.9229,-1214.41,0,0
95907.2,52.5312,-1210.58,0,0
96167.5,52.5359,-1206.51,0,0
96427.8,52.4948,-1202.92,0,0
96688.2,52.1981,-1198.97,0,0
96948.5,52.1296,-1194.95,0,0
97208.8,52.2014,-1191.11,0,0
97469.1,52.0842,-1187.11,0,0
97729.5,52.2514,-1182.95,0,0
97989.8,52.6594,-1179.13,0,0
98250.1,52.832,-1175.49,0,0
98510.4,53.1536,-1171.78,0,0
98770.8,53.2532,-1168.36,0,0
99031.1,53.1476,-1164.78,0,0
99291.4,53.16,-1161.07,0,0
99551.7,53.0101,-1157.44,0,0
99812.1,52.9968,-1153.39,0,0
100072,53.335,-1149.59,0,0
100333,53.5725,-1145.98,0,0
100593,53.6263,-1142.37,0,0
100853,53.6195,-1138.55,0,0
101114,54.0494,-1134.63,0,0
101374,54.5629,-1131.06,0,0
101634,54.7651,-1127.64,0,0
101895,55.0012,-1124.15,0,0
102155,55.1113,-1120.51,0,0
102415,55.4979,-1116.8,0,0
102676,55.8844,-1113.24,0,0
102936,56.3497,-1109.63,0,0
103196,57.0607,-1106.07,0,0
103457,57.7997,-1102.87,0,0
103717,58.4828,-1099.94,0,0
103977,58.7734,-1097.33,0,0
104238,58.5315,-1094.18,0,0
104498,58.8749,-1090.72,0,0
104758,59.4333,-1087.69,0,0
105019,59.5434,-1085.07,0,0
105279,59.4962,-1082.06,0,0
105539,59.4213,-1078.97,0,0
105800,59.3697,-1075.9,0,0
106060,59.1804,-1072.79,0,0
106320.175,59.0176,-1069.39,0,0
106580.5,59.0582,-1065.85,0,0
106840.825,59.3209,-1062.31,0,0
107101.15,59.8366,-1058.99,0,0
107361.475,60.0768,-1056.05,0,0
107621.8,60.2674,-1052.9,0,0
107882.125,60.5534,-1049.8,0,0
108142.45,60.7611,-1046.74,0,0
108402.775,60.9189,-1043.77,0,0
108663.1,60.943,-1040.7,0,0
108923.425,60.8274,-1037.64,0,0
109183.75,60.8734,-1034.38,0,0
109444.075,61.1031,-1031.13,0,0
109704.4,61.0657,-1027.94,0,0
109964.725,61.023,-1024.57,0,0
110225.05,61.1254,-1021.05,0,0
110485.375,61.4463,-1017.31,0,0
110745.7,61.9972,-1013.85,0,0
111006.025,62.73,-1010.28,0,0
111266.35,63.4416,-1007.21,0,0
111526.675,64.0169,-1004.04,0,0
111787.0,64.7268,-1000.73,0,0
112047.325,65.3002,-997.48,0,0
112307.65,66.2764,-994.281,0,0
112567.975,67.0686,-991.155,0,0
112828.3,68.0898,-987.934,0,0
113088.625,69.4178,-985.072,0,0
113348.95,70.5846,-982.404,0,0
113609.275,71.4645,-980.003,0,0
113869.6,72.3221,-977.46,0,0
114129.925,73.0842,-974.868,0,0
114390.25,74.0365,-972.242,0,0
114650.575,74.9437,-969.892,0,0
114910.9,75.8322,-967.172,0,0
115171.225,76.8245,-964.603,0,0
115431.55,77.9472,-962.24,0,0
115691.875,79.1193,-959.71,0,0
115952.2,80.6015,-957.389,0,0
116212.525,82.1627,-955.453,0,0
116472.85,83.6439,-953.784,0,0
116733.175,85.0546,-952.418,0,0
116993.5,86.2521,-951.384,0,0
117253.825,87.1017,-950.524,0,0
117514.15,87.5599,-949.568,0,0
117774.475,87.8397,-948.673,0,0
118034.8,87.7634,-947.456,0,0
118295.125,87.8973,-945.671,0,0
118555.45,88.6996,-944.202,0,0
118815.775,89.5154,-943.359,0,0
119076.1,89.8199,-942.694,0,0
119336.425,90.0898,-942.075,0,0
119596.75,90.3501,-941.913,0,0
119857.075,89.8059,-942.398,0,0
120117.4,88.2391,-942.288,0,0
120377.725,86.6364,-941.586,0,0
120638.05,84.858,-940.78,0,0
120898.375,82.8248,-939.665,0,0
121158.7,80.4384,-938.171,0,0
121419.025,78.1046,-935.843,0,0
121679.35,76.4509,-933.078,0,0
121939.675,75.0893,-930.677,0,0
122200.0,73.6419,-928.239,0,0
122460,72.1251,-925.494,0,0
122721,70.9125,-922.714,0,0
122981,69.8593,-919.946,0,0
123241,68.7962,-917.218,0,0
123502,67.685,-914.411,0,0
123762,66.697,-911.39,0,0
124022,65.9487,-908.373,0,0
124283,65.3671,-905.399,0,0
124543,64.8079,-902.516,0,0
124803,64.4555,-899.763,0,0
125064,63.9467,-897.318,0,0
125324,63.1168,-894.851,0,0
125584,62.2548,-892.112,0,0
125845,61.4308,-889.144,0,0
126105,60.8623,-886.156,0,0
126365,60.4205,-883.319,0,0
126626,59.8246,-880.492,0,0
126886,59.2513,-877.66,0,0
127146,58.6362,-874.688,0,0
127406,58.1322,-871.646,0,0
127667,57.8468,-868.593,0,0
127927,57.569,-865.741,0,0
128187,57.2156,-862.842,0,0
128448,56.8218,-859.926,0,0
128708,56.5185,-856.959,0,0
128968,56.2307,-853.997,0,0
129229,55.9911,-850.982,0,0
129489,55.9165,-848.132,0,0
129749,55.6647,-845.274,0,0
130010,55.4048,-842.339,0,0
130270,55.3017,-839.356,0,0
130530,55.1946,-836.408,0,0
130791,55.1562,-833.557,0,0
131051,55.0625,-830.792,0,0
131311,54.7707,-827.996,0,0
131572,54.5721,-824.937,0,0
131832,54.437,-821.886,0,0
132092,54.4147,-818.761,0,0
132353,54.4617,-815.763,0,0
132613,54.4658,-812.705,0,0
132873,54.5849,-809.603,0,0
133134,54.7474,-806.533,0,0
133394,54.978,-803.393,0,0
133654,55.3107,-800.288,0,0
133915,55.7163,-797.234,0,0
134175,56.1941,-794.216,0,0
134435,56.7444,-791.213,0,0
134696,57.4358,-788.213,0,0
134956,58.145,-785.354,0,0
135216,58.9624,-782.589,0,0
135477,59.9386,-780,0,0
135737,60.8876,-777.433,0,0
135997,61.9345,-775.159,0,0
136258,63.0017,-773.263,0,0
136518,63.6459,-771.572,0,0
136778,64.0776,-769.875,0,0
137039,64.2683,-768.268,0,0
137299,64.0658,-766.458,0,0
137559,64.0173,-764.414,0,0
137819,63.9766,-762.391,0,0
138080,63.7524,-760.303,0,0
138340.125,63.4208,-758.142,0,0
138600.45,63.0762,-755.838,0,0
138860.775,62.674,-753.34,0,0
139121.1,62.4327,-750.579,0,0
139381.425,62.4306,-747.835,0,0
139641.75,62.4839,-745.252,0,0
139902.075,62.4345,-742.638,0,0
140162.4,62.5447,-739.932,0,0
140422.725,62.6742,-737.325,0,0
140683.05,62.7858,-734.799,0,0
140943.375,62.8282,-732.229,0,0
141203.7,62.9061,-729.605,0,0
141464.025,62.9767,-727.019,0,0
141724.35,62.9236,-724.317,0,0
141984.675,63.0131,-721.454,0,0
142245.0,63.2575,-718.67,0,0
142505.325,63.4732,-715.963,0,0
142765.65,63.7131,-713.172,0,0
143025.975,63.9804,-710.325,0,0
143286.3,64.363,-707.551,0,0
143546.625,64.8528,-704.777,0,0
143806.95,65.376,-702.147,0,0
144067.275,65.8319,-699.58,0,0
144327.6,66.2517,-697.004,0,0
144587.925,66.7055,-694.51,0,0
144848.25,67.0331,-692.039,0,0
145108.575,67.4217,-689.427,0,0
145368.9,67.846,-687.022,0,0
145629.225,68.0697,-684.656,0,0
145889.55,68.0462,-682.069,0,0
146149.875,68.1816,-679.231,0,0
146410.2,68.5222,-676.412,0,0
146670.525,68.917,-673.68,0,0
146930.85,69.2505,-670.905,0,0
147191.175,69.7547,-668.153,0,0
147451.5,70.2066,-665.569,0,0
147711.825,70.4882,-662.898,0,0
147972.15,70.8808,-660.085,0,0
148232.475,71.3613,-657.36,0,0
148492.8,71.8258,-654.707,0,0
148753.125,72.2161,-652.147,0,0
149013.45,72.4261,-649.542,0,0
149273.775,72.5607,-646.827,0,0
149534.1,72.6601,-643.9,0,0
149794.425,72.8547,-640.857,0,0
150054.75,73.1011,-637.739,0,0
150315.075,73.439,-634.572,0,0
150575.4,73.8297,-631.37,0,0
150835.725,74.2233,-628.114,0,0
151096.05,74.6903,-624.767,0,0
151356.375,75.2164,-621.354,0,0
151616.7,75.8764,-617.865,0,0
151877.025,76.6242,-614.366,0,0
152137.35,77.4949,-610.838,0,0
152397.675,78.4092,-607.275,0,0
152658.0,79.4768,-603.694,0,0
152918.325,80.6942,-600.098,0,0
153178.65,82.0146,-596.612,0,0
153438.975,83.3929,-593.208,0,0
153699.3,84.7259,-589.85,0,0
153959.625,86.0584,-586.324,0,0
154219.95,87.5649,-582.786,0,0
154480,89.2233,-579.253,0,0
154741,91.0492,-575.78,0,0
155001,92.9821,-572.496,0,0
155261,94.981,-569.17,0,0
155522,96.9183,-565.84,0,0
155782,99.0581,-562.663,0,0
156042,101.346,-559.56,0,0
156303,103.592,-556.593,0,0
156563,106.044,-553.736,0,0
156823,108.309,-550.969,0,0
157084,110.67,-548.31,0,0
157344,113.105,-545.768,0,0
157604,115.464,-543.33,0,0
157864,117.782,-541.124,0,0
158125,119.918,-539.1,0,0
158385,121.878,-536.967,0,0
158645,123.833,-534.855,0,0
158906,125.789,-532.874,0,0
159166,127.462,-531.053,0,0
159426,128.615,-529.179,0,0
159687,129.549,-527.139,0,0
159947,130.027,-524.524,0,0
160207,130.7,-521.401,0,0
160468,131.447,-517.827,0,0
160728,132.478,-513.883,0,0
160988,133.746,-509.852,0,0
161249,135.121,-505.412,0,0
161509,136.88,-500.57,0,0
161769,139.32,-495.551,0,0
162030,142.292,-490.615,0,0
162290,145.578,-485.823,0,0
162550,149.262,-481.192,0,0
162811,152.935,-476.699,0,0
163071,156.839,-472.079,0,0
163331,161.131,-467.28,0,0
163592,166.12,-462.486,0,0
163852,171.603,-458.149,0,0
164112,177.313,-454.198,0,0
164373,183.093,-450.505,0,0
164633,189.229,-446.941,0,0
164893,195.647,-443.904,0,0
165154,201.79,-441.302,0,0
165414,207.812,-438.417,0,0
165674,214.019,-435.524,0,0
165935,220.506,-432.287,0,0
166195,227.704,-428.719,0,0
166455,236.049,-425.253,0,0
166716,245.578,-422.587,0,0
166976,255.549,-421.239,0,0
167236,265.637,-420.715,0,0
167497,275.777,-421.039,0,0
167757,285.971,-422.257,0,0
168017,296.12,-424.057,0,0
168277,306.341,-426.621,0,0
168538,316.725,-430.182,0,0
168798,326.58,-435.053,0,0
169058,335.949,-440.374,0,0
169319,344.921,-446.738,0,0
169579,352.75,-453.912,0,0
169839,359.669,-460.783,0,0
170100,366.567,-467.39,0,0
170360.075,374.032,-474.345,0,0
170620.4,382.166,-482.94,0,0
170880.725,388.948,-493.89,0,0
171141.05,393.339,-505.593,0,0
171401.375,395.83,-516.897,0,0
171661.7,397.139,-527.348,0,0
171922.025,398.127,-536.951,0,0
172182.35,399.525,-546.756,0,0
172442.675,400.171,-557.628,0,0
172703.0,399.202,-569.056,0,0
172963.325,396.483,-580.25,0,0
173223.65,392.171,-590.764,0,0
173483.975,386.482,-599.957,0,0
173744.3,380.121,-607.593,0,0
174004.625,373.743,-613.986,0,0
174264.95,367.162,-619.786,0,0
174525.275,360.099,-624.479,0,0
174785.6,353.033,-628.104,0,0
175045.925,345.818,-630.699,0,0
175306.25,338.863,-631.949,0,0
175566.575,332.14,-632.363,0,0
175826.9,325.544,-630.854,0,0
176087.225,321.121,-627.351,0,0
176347.55,319.629,-623.907,0,0
176607.875,319.864,-621.834,0,0
176868.2,320.811,-621.115,0,0
177128.525,322.171,-621.449,0,0
177388.85,323.867,-622.664,0,0
177649.175,325.748,-625.164,0,0
177909.5,327.296,-628.48,0,0
178169.825,329.197,-632.899,0,0
178430.15,330.712,-639.481,0,0
178690.475,330.161,-648.077,0,0
178950.8,326.443,-656.846,0,0
179211.125,320.562,-664.294,0,0
179471.45,313.588,-670.176,0,0
179731.775,306.202,-674.844,0,0
179992.1,298.048,-678.355,0,0
180252.425,290.163,-679.969,0,0
180512.75,283.337,-680.913,0,0
180773.075,277.28,-681.646,0,0
181033.4,271.829,-682.976,0,0
181293.725,265.673,-685.575,0,0
181554.05,257.25,-687.749,0,0
181814.375,248.074,-687.674,0,0
182074.7,239.659,-686.329,0,0
182335.025,231.751,-684.334,0,0
182595.35,223.987,-681.808,0,0
182855.675,216.583,-678.374,0,0
183116.0,209.817,-674.126,0,0
183376.325,204.109,-669.635,0,0
183636.65,198.928,-665.469,0,0
183896.975,193.645,-661.309,0,0
184157.3,188.457,-656.568,0,0
184417.625,183.8,-651.214,0,0
184677.95,180.091,-645.396,0,0
184938.275,177.65,-639.915,0,0
185198.6,175.612,-635.486,0,0
185458.925,173.139,-631.777,0,0
185719.25,170.185,-628.053,0,0
185979.575,166.782,-623.833,0,0
186239.9,163.617,-618.879,0,0
186500,161.153,-613.584,0,0
186761,159.161,-608.536,0,0
187021,157.128,-603.513,0,0
187281,155.384,-598.034,0,0
187542,154.429,-592.414,0,0
187802,154.124,-587.199,0,0
188062,154.197,-582.381,0,0
188322,154.702,-578.166,0,0
188583,155.18,-574.945,0,0
188843,154.815,-572.404,0,0
189103,153.452,-569.677,0,0
189364,151.748,-566.276,0,0
189624,150.103,-562.342,0,0
189884,148.62,-558.083,0,0
190145,147.35,-553.569,0,0
190405,146.346,-548.927,0,0
190665,145.549,-544.337,0,0
190926,144.584,-539.575,0,0
191186,143.841,-534.281,0,0
191446,143.787,-528.802,0,0
191707,144.206,-523.567,0,0
191967,144.875,-518.617,0,0
192227,145.557,-513.937,0,0
192488,146.109,-509.271,0,0
192748,146.77,-504.445,0,0
193008,147.659,-499.588,0,0
193269,148.666,-494.83,0,0
193529,149.824,-490.074,0,0
193789,151.084,-485.349,0,0
194050,152.442,-480.58,0,0
194310,153.991,-475.765,0,0
194570,155.782,-470.988,0,0
194831,157.797,-466.304,0,0
195091,160.067,-461.665,0,0
195351,162.541,-457.367,0,0
195612,164.854,-453.255,0,0
195872,167.144,-449.036,0,0
196132,169.712,-444.833,0,0
196393,172.475,-440.795,0,0
196653,175.252,-436.923,0,0
196913,178.063,-433.22,0,0
197174,180.815,-429.647,0,0
197434,183.456,-425.996,0,0
197694,186.214,-422.379,0,0
197955,188.918,-418.775,0,0
198215,191.677,-415.033,0,0
198475,194.575,-411.184,0,0
198735,197.716,-407.432,0,0
198996,200.901,-403.753,0,0
199256,204.143,-400.054,0,0
199516,207.336,-396.41,0,0
199777,210.564,-392.51,0,0
200037,214.13,-388.445,0,0
200297,217.99,-384.259,0,0
200558,222.349,-380.169,0,0
200818,227.08,-376.379,0,0
201078,231.727,-373.05,0,0
201339,236.194,-369.635,0,0
201599,240.862,-365.9,0,0
201859,246.021,-362.034,0,0
202120,251.752,-358.341,0,0
202380.025,257.961,-355.015,0,0
202640.35,264.33,-352.245,0,0
202900.675,270.626,-349.766,0,0
203161.0,277.114,-347.373,0,0
203421.325,283.988,-345.137,0,0
203681.65,291.081,-343.4,0,0
203941.975,298.27,-342.187,0,0
204202.3,305.45,-341.259,0,0
204462.625,312.683,-340.78,0,0
204722.95,319.844,-340.69,0,0
204983.275,326.859,-340.93,0,0
205243.6,333.706,-341.135,0,0
205503.925,340.865,-341.563,0,0
205764.25,348.404,-342.547,0,0
206024.575,355.728,-344.409,0,0
206284.9,362.508,-346.781,0,0
206545.225,368.768,-349.453,0,0
206805.55,374.502,-352.435,0,0
207065.875,379.616,-355.575,0,0
207326.2,383.902,-358.395,0,0
207586.525,387.749,-360.653,0,0
207846.85,391.335,-362.278,0,0
208107.175,394.761,-363.01,0,0
208367.5,398.518,-362.397,0,0
208627.825,403.772,-360.809,0,0
208888.15,411.104,-359.042,0,0
209148.475,420.415,-358.218,0,0
209408.8,430.955,-359.174,0,0
209669.125,442.101,-362.189,0,0
209929.45,452.856,-367.169,0,0
210189.775,462.516,-373.523,0,0
210450.1,471.795,-380.579,0,0
210710.425,480.581,-388.947,0,0
210970.75,488.218,-398.506,0,0
211231.075,494.597,-408.767,0,0
211491.4,499.631,-419.593,0,0
211751.725,503,-430.686,0,0
212012.05,504.683,-441.176,0,0
212272.375,505.569,-450.611,0,0
212532.7,506.276,-459.202,0,0
212793.025,507.22,-467.506,0,0
213053.35,508.05,-476.156,0,0
213313.675,508.21,-485.104,0,0
213574.0,507.608,-493.882,0,0
213834.325,506.543,-502.378,0,0
214094.65,504.911,-510.851,0,0
214354.975,502.651,-519.142,0,0
214615.3,499.393,-527.094,0,0
214875.625,495.259,-534.116,0,0
215135.95,490.96,-539.941,0,0
215396.275,486.822,-544.764,0,0
215656.6,483.46,-548.969,0,0
215916.925,480.575,-553.238,0,0
216177.25,477.87,-557.599,0,0
216437.575,475.185,-562.117,0,0
216697.9,472.343,-566.809,0,0
216958.225,469.371,-571.674,0,0
217218.55,465.771,-576.697,0,0
217478.875,461.565,-581.571,0,0
217739.2,456.761,-585.949,0,0
217999.525,451.506,-589.717,0,0
218259.85,446.116,-592.747,0,0
218520,440.936,-595.216,0,0
218780,435.744,-597.609,0,0
219041,430.168,-599.714,0,0
219301,424.086,-601.245,0,0
219561,417.841,-601.589,0,0
219822,411.985,-600.91,0,0
220082,406.653,-599.633,0,0
220342,401.954,-597.797,0,0
220603,397.799,-595.502,0,0
220863,394.247,-592.907,0,0
221123,391.459,-590.113,0,0
221384,389.169,-587.415,0,0
221644,387.23,-584.683,0,0
221904,385.76,-581.766,0,0
222165,384.884,-578.802,0,0
222425,384.7,-575.908,0,0
222685,385.059,-573.405,0,0
222946,385.673,-571.453,0,0
223206,386.283,-569.784,0,0
223466,386.978,-568.188,0,0
223727,387.777,-566.611,0,0
223987,388.81,-565.046,0,0
224247,390.19,-563.673,0,0
224508,391.66,-562.373,0,0
224768,393.314,-561.205,0,0
225028,395.226,-559.995,0,0
225289,397.599,-558.737,0,0
225549,400.572,-557.735,0,0
225809,404.288,-557.288,0,0
226070,407.958,-557.447,0,0
226330,411.976,-558.328,0,0
226590,416.1,-559.937,0,0
226851,419.723,-562.363,0,0
227111,422.891,-565.047,0,0
227371,425.795,-567.718,0,0
227632,428.763,-570.536,0,0
227892,431.81,-573.484,0,0
228152,435.14,-576.797,0,0
228413,438.589,-580.786,0,0
228673,441.861,-585.639,0,0
228933,444.681,-591.218,0,0
229193,446.849,-597.305,0,0
229454,448.258,-603.891,0,0
229714,448.934,-610.536,0,0
229974,448.94,-616.985,0,0
230235,448.755,-623.17,0,0
230495,448.605,-629.853,0,0
230755,447.768,-637.248,0,0
231016,445.608,-644.64,0,0
231276,442.594,-651.405,0,0
231536,439.339,-657.52,0,0
231797,436.025,-663.384,0,0
232057,432.472,-669.131,0,0
232317,428.732,-674.729,0,0
232578,424.87,-680.359,0,0
232838,420.707,-686.105,0,0
233098,416.044,-691.96,0,0
233359,410.783,-697.886,0,0
233619,404.809,-704.004,0,0
233879,397.502,-709.895,0,0
234140,389.087,-714.824,0,0
234400,380.003,-718.592,0,0
234660.3,370.509,-721.281,0,0
234920.625,360.623,-722.66,0,0
235180.95,350.912,-722.665,0,0
235441.275,341.568,-721.303,0,0
235701.6,333.128,-718.693,0,0
235961.925,325.902,-715.566,0,0
236222.25,319.611,-712.299,0,0
236482.575,313.974,-708.883,0,0
236742.9,309.267,-705.35,0,0
237003.225,305.392,-702.407,0,0
237263.55,301.554,-700.277,0,0
237523.875,297.305,-698.327,0,0
237784.2,292.761,-696.183,0,0
238044.525,288.086,-693.821,0,0
238304.85,283.161,-690.902,0,0
238565.175,278.229,-687.215,0,0
238825.5,274.104,-682.527,0,0
239085.825,270.975,-677.545,0,0
239346.15,268.818,-672.636,0,0
239606.475,267.505,-668.23,0,0
239866.8,266.562,-664.033,0,0
240127.125,266.092,-660.167,0,0
240387.45,266.569,-656.974,0,0
240647.775,267.08,-654.95,0,0
240908.1,266.983,-653.795,0,0
241168.425,266.06,-652.741,0,0
241428.75,264.842,-651.439,0,0
241689.075,263.677,-650.087,0,0
241949.4,262.4,-648.957,0,0
242209.725,260.638,-648.075,0,0
242470.05,258.185,-646.838,0,0
242730.375,255.415,-644.814,0,0
242990.7,252.889,-641.947,0,0
243251.025,250.997,-638.639,0,0
243511.35,249.663,-635.432,0,0
243771.675,248.387,-632.193,0,0
244032.0,247.275,-628.577,0,0
244292.325,246.785,-624.682,0,0
244552.65,247.018,-620.733,0,0
244812.975,247.966,-617.215,0,0
245073.3,249.378,-613.966,0,0
245333.625,251.282,-611.344,0,0
245593.95,253.277,-609.528,0,0
245854.275,255.075,-608.407,0,0
246114.6,256.546,-607.613,0,0
246374.925,257.623,-606.952,0,0
246635.25,258.527,-606.253,0,0
246895.575,259.431,-605.697,0,0
247155.9,260.283,-605.448,0,0
247416.225,260.668,-605.126,0,0
247676.55,260.919,-604.693,0,0
247936.875,261.338,-604.089,0,0
248197.2,261.796,-603.537,0,0
248457.525,262.305,-603.052,0,0
248717.85,262.771,-602.715,0,0
248978.175,263.208,-602.389,0,0
249238.5,263.585,-602.079,0,0
249498.825,264.07,-601.812,0,0
249759.15,264.628,-601.577,0,0
250019.475,265.208,-601.725,0,0
250279.8,265.585,-601.95,0,0
250540,265.704,-602.258,0,0
250800,265.66,-602.429,0,0
251061,265.653,-602.449,0,0
251321,265.832,-602.36,0,0
251581,266.099,-602.444,0,0
251842,266.411,-602.695,0,0
252102,266.717,-603.177,0,0
252362,266.862,-603.857,0,0
252623,266.759,-604.638,0,0
252883,266.489,-605.422,0,0
253143,266.101,-606.088,0,0
253404,265.713,-606.762,0,0
253664,265.324,-607.494,0,0
253924,264.846,-608.493,0,0
254185,264.049,-609.619,0,0
254445,262.866,-610.749,0,0
254705,261.466,-611.66,0,0
254966,259.867,-612.398,0,0
255226,258.038,-612.867,0,0
255486,256.234,-613.364,0,0
255747,254.12,-613.481,0,0
256007,252.017,-613.327,0,0
256267,249.894,-612.898,0,0
256528,247.893,-612.177,0,0
256788,246.11,-611.294,0,0
257048,244.442,-610.457,0,0
257309,242.755,-609.517,0,0
257569,240.999,-608.449,0,0
257829,239.286,-607.12,0,0
258090,237.734,-605.639,0,0
258350,236.297,-604.004,0,0
258610,235.03,-602.208,0,0
258871,233.973,-600.313,0,0
259131,233.15,-598.414,0,0
259391,232.488,-596.514,0,0
259651,231.89,-594.626,0,0
259912,231.3,-592.707,0,0
260172,230.9,-590.756,0,0
260432,230.531,-588.709,0,0
260693,230.291,-586.431,0,0
260953,230.333,-584.108,0,0
261213,230.639,-581.717,0,0
261474,231.162,-579.239,0,0
261734,232.063,-576.729,0,0
261994,233.357,-574.233,0,0
262255,235.105,-571.816,0,0
262515,237.353,-569.729,0,0
262775,239.958,-568.052,0,0
263036,242.813,-566.849,0,0
263296,245.848,-566.136,0,0
263556,248.972,-565.995,0,0
263817,252.048,-566.455,0,0
264077,254.932,-567.53,0,0
264337,257.378,-569.19,0,0
264598,259.211,-571.034,0,0
264858,260.637,-572.904,0,0
265118,261.66,-574.687,0,0
265379,262.485,-576.465,0,0
265639,262.962,-578.104,0,0
265899,263.47,-579.512,0,0
266160,263.924,-580.867,0,0
266420,264.428,-582.168,0,0
266680.25,264.922,-583.547,0,0
266940.575,265.476,-584.995,0,0
267200.9,265.976,-586.609,0,0
267461.225,266.367,-588.447,0,0
267721.55,266.502,-590.364,0,0
267981.875,266.36,-592.355,0,0
268242.2,265.971,-594.233,0,0
268502.525,265.334,-595.914,0,0
268762.85,264.702,-597.412,0,0
269023.175,264.001,-598.717,0,0
269283.5,263.313,-599.852,0,0
269543.825,262.841,-600.755,0,0
269804.15,262.645,-601.59,0,0
270064.475,262.729,-602.556,0,0
270324.8,263.02,-603.833,0,0
270585.125,263.338,-605.344,0,0
270845.45,263.687,-607.125,0,0
271105.775,263.96,-609.126,0,0
271366.1,264.214,-611.16,0,0
271626.425,264.74,-613.546,0,0
271886.75,265.264,-616.425,0,0
272147.075,265.748,-619.964,0,0
272407.4,265.876,-624.298,0,0
272667.725,265.213,-629.335,0,0
272928.05,263.59,-634.669,0,0
273188.375,260.95,-639.979,0,0
273448.7,257.547,-645.132,0,0
273709.025,253.333,-650.171,0,0
273969.35,248.198,-654.875,0,0
274229.675,242.182,-658.982,0,0
274490.0,235.391,-662.195,0,0
274750.325,228.242,-664.334,0,0
275010.65,221.097,-665.518,0,0
275270.975,213.952,-666.054,0,0
275531.3,206.976,-665.953,0,0
275791.625,199.978,-665.236,0,0
276051.95,193.052,-663.803,0,0
276312.275,186.391,-661.653,0,0
276572.6,180.115,-658.903,0,0
276832.925,174.274,-655.728,0,0
277093.25,168.823,-652.121,0,0
277353.575,163.779,-648.152,0,0
277613.9,159.233,-643.819,0,0
277874.225,155.209,-639.187,0,0
278134.55,151.752,-634.403,0,0
278394.875,148.853,-629.521,0,0
278655.2,146.541,-624.646,0,0
278915.525,144.73,-619.923,0,0
279175.85,143.329,-615.408,0,0
279436.175,142.2,-611.103,0,0
279696.5,141.347,-606.958,0,0
279956.825,140.756,-602.991,0,0
280217.15,140.391,-599.182,0,0
280477.475,140.196,-595.629,0,0
280737.8,140.255,-592.312,0,0
280998.125,140.447,-589.291,0,0
281258.45,140.61,-586.603,0,0
281518.775,140.688,-584.111,0,0
281779.1,140.662,-581.783,0,0
282039.425,140.548,-579.534,0,0
282299.75,140.333,-577.362,0,0
282560,140.007,-575.225,0,0
282820,139.541,-573.036,0,0
283081,139.018,-570.681,0,0
283341,138.509,-568.2,0,0
283601,138.066,-565.616,0,0
283862,137.717,-562.896,0,0
284122,137.496,-560.04,0,0
284382,137.537,-557.06,0,0
284643,137.85,-554.127,0,0
284903,138.445,-551.276,0,0
285163,139.163,-548.631,0,0
285424,140.065,-546.11,0,0
285684,141.036,-543.816,0,0
285944,142.026,-541.679,0,0
286205,143.024,-539.677,0,0
286465,144.026,-537.795,0,0
286725,145.012,-536.035,0,0
286986,145.957,-534.414,0,0
287246,146.827,-532.904,0,0
287506,147.57,-531.42,0,0
287767,148.21,-529.93,0,0
288027,148.775,-528.383,0,0
288287,149.304,-526.735,0,0
288548,149.867,-524.968,0,0
288808,150.521,-523.076,0,0
289068,151.339,-521.117,0,0
289329,152.313,-519.186,0,0
289589,153.45,-517.324,0,0
289849,154.697,-515.554,0,0
290109,156.008,-513.912,0,0
290370,157.309,-512.306,0,0
290630,158.695,-510.736,0,0
290890,160.193,-509.227,0,0
291151,161.806,-507.866,0,0
291411,163.401,-506.654,0,0
291671,164.977,-505.583,0,0
291932,166.492,-504.562,0,0
292192,167.98,-503.576,0,0
292452,169.497,-502.645,0,0
292713,171.03,-501.76,0,0
292973,172.518,-500.928,0,0
293233,173.979,-500.141,0,0
293494,175.437,-499.354,0,0
293754,176.897,-498.527,0,0
294014,178.366,-497.701,0,0
294275,179.916,-496.894,0,0
294535,181.488,-496.086,0,0
294795,183.093,-495.311,0,0
295056,184.74,-494.478,0,0
295316,186.496,-493.6,0,0
295576,188.417,-492.757,0,0
295837,190.504,-491.989,0,0
296097,192.712,-491.339,0,0
296357,195.013,-490.81,0,0
296618,197.427,-490.395,0,0
296878,199.923,-490.115,0,0
297138,202.509,-489.998,0,0
297399,205.15,-490.067,0,0
297659,207.828,-490.275,0,0
297919,210.569,-490.659,0,0
298180,213.315,-491.228,0,0
298440,216.081,-491.992,0,0
298700.2,218.828,-492.92,0,0
298960.525,221.543,-493.949,0,0
299220.85,224.272,-495.22,0,0
299481.175,227.019,-496.569,0,0
299741.5,229.815,-498.153,0,0
300001.825,232.6,-499.837,0,0
300262.15,235.329,-501.817,0,0
300522.475,238.232,-503.979,0,0
300782.8,241.164,-506.425,0,0
301043.125,244.041,-509.285,0,0
301303.45,246.883,-512.447,0,0
301563.775,249.541,-515.997,0,0
301824.1,252.051,-520.043,0,0
302084.425,254.407,-524.486,0,0
302344.75,256.355,-529.557,0,0
302605.075,257.831,-535.133,0,0
302865.4,258.471,-541.102,0,0
303125.725,258.225,-547.203,0,0
303386.05,257.078,-553.151,0,0
303646.375,255.242,-558.753,0,0
303906.7,252.833,-563.885,0,0
304167.025,250.103,-568.523,0,0
304427.35,247.182,-572.781,0,0
304687.675,244.082,-576.737,0,0
304948.0,240.782,-580.441,0,0
305208.325,237.249,-583.907,0,0
305468.65,233.491,-587.004,0,0
305728.975,229.623,-589.792,0,0
305989.3,225.644,-592.245,0,0
306249.625,221.589,-594.4,0,0
306509.95,217.425,-596.252,0,0
306770.275,213.208,-597.762,0,0
307030.6,208.962,-598.912,0,0
307290.925,204.813,-599.732,0,0
307551.25,200.757,-600.287,0,0
307811.575,196.816,-600.594,0,0
308071.9,192.961,-600.706,0,0
308332.225,189.191,-600.624,0,0
308592.55,185.491,-600.34,0,0
308852.875,181.934,-599.847,0,0
309113.2,178.493,-599.161,0,0
309373.525,175.228,-598.306,0,0
309633.85,172.141,-597.314,0,0
309894.175,169.234,-596.252,0,0
310154.5,166.494,-595.101,0,0
310414.825,163.894,-593.967,0,0
310675.15,161.419,-592.77,0,0
310935.475,159.047,-591.544,0,0
311195.8,156.776,-590.297,0,0
311456.125,154.595,-588.995,0,0
311716.45,152.54,-587.683,0,0
311976.775,150.621,-586.365,0,0
312237.1,148.817,-585.122,0,0
312497.425,147.052,-583.928,0,0
312757.75,145.285,-582.747,0,0
313018.075,143.538,-581.58,0,0
313278.4,141.782,-580.35,0,0
313538.725,140.052,-579.115,0,0
313799.05,138.353,-577.828,0,0
314059.375,136.69,-576.485,0,0
314319.7,135.042,-575.105,0,0
314580,133.479,-573.639,0,0
314840,132.036,-572.119,0,0
315101,130.595,-570.472,0,0
315361,129.425,-568.864,0,0
315621,128.302,-567.233,0,0
315882,127.222,-565.767,0,0
316142,126.275,-564.146,0,0
316402,125.388,-562.701,0,0
316663,124.548,-561.261,0,0
316923,123.763,-559.791,0,0
317183,123.14,-558.39,0,0
317444,122.318,-557.088,0,0
317704,121.725,-555.732,0,0
317964,121.103,-554.483,0,0
318225,120.441,-553.238,0,0
318485,119.924,-551.955,0,0
318745,119.396,-550.681,0,0
319006,118.851,-549.469,0,0
319266,118.402,-548.224,0,0
319526,118.085,-547.021,0,0
319787,117.786,-545.838,0,0
320047,117.541,-544.828,0,0
320307,117.277,-543.864,0,0
320567,117.212,-542.931,0,0
320828,116.974,-542.139,0,0
321088,116.718,-541.419,0,0
321348,116.424,-540.836,0,0
321609,116.064,-540.193,0,0
321869,115.737,-539.51,0,0
322129,115.361,-539.035,0,0
322390,114.771,-538.4,0,0
322650,114.303,-537.812,0,0
322910,113.75,-537.222,0,0
323171,113.204,-536.644,0,0
323431,112.591,-536.046,0,0
323691,112.046,-535.37,0,0
323952,111.401,-534.735,0,0
324212,110.776,-534.047,0,0
324472,110.241,-533.35,0,0
324733,109.587,-532.608,0,0
324993,109.01,-531.941,0,0
325253,108.437,-531.186,0,0
325514,107.894,-530.392,0,0
325774,107.402,-529.685,0,0
326034,106.863,-528.91,0,0
326295,106.376,-528.29,0,0
326555,105.938,-527.654,0,0
326815,105.452,-526.955,0,0
327076,104.883,-526.315,0,0
327336,104.378,-525.708,0,0
327596,103.815,-525.075,0,0
327857,103.338,-524.522,0,0
328117,102.722,-523.922,0,0
328377,102.086,-523.385,0,0
328638,101.424,-522.826,0,0
328898,100.826,-522.201,0,0
329158,100.165,-521.559,0,0
329419,99.5266,-520.853,0,0
329679,98.8485,-520.113,0,0
329939,98.2562,-519.526,0,0
330200,97.6279,-518.777,0,0
330460,96.9873,-518.122,0,0
330720.15,96.3884,-517.448,0,0
330980.475,95.8162,-516.739,0,0
331240.8,95.1929,-516.175,0,0
331501.125,94.5673,-515.566,0,0
331761.45,93.9058,-514.983,0,0
332021.775,93.2558,-514.452,0,0
332282.1,92.4762,-513.838,0,0
332542.425,91.5907,-513.23,0,0
332802.75,90.6713,-512.589,0,0
333063.075,89.773,-511.849,0,0
333323.4,88.8214,-511.057,0,0
333583.725,87.8996,-510.207,0,0
333844.05,86.9942,-509.274,0,0
334104.375,86.0533,-508.331,0,0
334364.7,85.1754,-507.269,0,0
334625.025,84.3489,-506.201,0,0
334885.35,83.4321,-505.1,0,0
335145.675,82.777,-504.024,0,0
335406.0,81.9958,-502.888,0,0
335666.325,81.2578,-501.729,0,0
335926.65,80.5995,-500.538,0,0
336186.975,79.8988,-499.361,0,0
336447.3,79.2085,-498.066,0,0
336707.625,78.6512,-496.815,0,0
336967.95,78.0621,-495.592,0,0
337228.275,77.4962,-494.261,0,0
337488.6,77.0154,-493.024,0,0
337748.925,76.6264,-491.72,0,0
338009.25,76.1781,-490.427,0,0
338269.575,75.7568,-489.148,0,0
338529.9,75.4368,-487.821,0,0
338790.225,75.1415,-486.631,0,0
339050.55,74.8585,-485.311,0,0
339310.875,74.6275,-484.065,0,0
339571.2,74.2867,-482.835,0,0
339831.525,74.1056,-481.583,0,0
340091.85,73.8653,-480.311,0,0
340352.175,73.6859,-479.111,0,0
340612.5,73.5529,-477.84,0,0
340872.825,73.3228,-476.637,0,0
341133.15,73.2551,-475.367,0,0
341393.475,73.108,-474.119,0,0
341653.8,73.072,-472.893,0,0
341914.125,73.0495,-471.686,0,0
342174.45,72.9896,-470.506,0,0
342434.775,73.043,-469.322,0,0
342695.1,73.0217,-468.112,0,0
342955.425,73.11,-466.925,0,0
343215.75,73.1945,-465.804,0,0
343476.075,73.297,-464.677,0,0
343736.4,73.4311,-463.542,0,0
343996.725,73.6352,-462.44,0,0
344257.05,73.8211,-461.4,0,0
344517.375,74.0908,-460.383,0,0
344777.7,74.3153,-459.459,0,0
345038.025,74.5185,-458.444,0,0
345298.35,74.8029,-457.634,0,0
345558.675,75.0447,-456.777,0,0
345819.0,75.2786,-455.967,0,0
346079.325,75.4649,-455.198,0,0
346339.65,75.7101,-454.445,0,0
346599.975,75.865,-453.758,0,0
346860,76.0275,-453.066,0,0
347121,76.1568,-452.42,0,0
347381,76.2141,-451.769,0,0
347641,76.2707,-451.177,0,0
347902,76.2802,-450.499,0,0
348162,76.2393,-449.901,0,0
348422,76.1146,-449.254,0,0
348683,76.0146,-448.542,0,0
348943,75.884,-447.826,0,0
349203,75.7362,-446.987,0,0
349464,75.6026,-446.192,0,0
349724,75.4794,-445.382,0,0
349984,75.4069,-444.46,0,0
350245,75.34,-443.641,0,0
350505,75.2291,-442.741,0,0
350765,75.1218,-441.812,0,0
351025,75.0362,-440.865,0,0
351286,75.0669,-439.83,0,0
351546,75.0579,-438.794,0,0
351806,75.1731,-437.723,0,0
352067,75.3422,-436.703,0,0
352327,75.4951,-435.701,0,0
352587,75.7368,-434.737,0,0
352848,75.9919,-433.748,0,0
353108,76.3158,-432.785,0,0
353368,76.6342,-431.871,0,0
353629,77.0542,-431.006,0,0
353889,77.4777,-430.153,0,0
354149,77.8703,-429.396,0,0
354410,78.3545,-428.699,0,0
354670,78.7637,-428.001,0,0
354930,79.2492,-427.409,0,0
355191,79.6669,-426.917,0,0
355451,80.0653,-426.47,0,0
355711,80.3793,-426.043,0,0
355972,80.6424,-425.651,0,0
356232,80.8524,-425.323,0,0
356492,80.984,-425.008,0,0
356753,81.0467,-424.654,0,0
357013,81.0908,-424.302,0,0
357273,81.0776,-423.928,0,0
357534,80.9775,-423.52,0,0
357794,80.8523,-423.113,0,0
358054,80.6782,-422.614,0,0
358315,80.4266,-422.126,0,0
358575,80.1632,-421.52,0,0
358835,79.9095,-420.816,0,0
359096,79.6478,-420.051,0,0
359356,79.4423,-419.13,0,0
359616,79.2242,-418.218,0,0
359877,79.1298,-417.218,0,0
360137,79.045,-416.205,0,0
360397,79.076,-415.119,0,0
360658,79.2343,-414.114,0,0
360918,79.3592,-413.053,0,0
361178,79.6034,-412.056,0,0
361438,79.9107,-411.074,0,0
361699,80.1954,-410.161,0,0
361959,80.5618,-409.205,0,0
362219,80.8683,-408.341,0,0
362480,81.3049,-407.448,0,0
362740.1,81.6888,-406.593,0,0
363000.425,82.076,-405.837,0,0
363260.75,82.5518,-405.006,0,0
363521.075,82.9969,-404.256,0,0
363781.4,83.4061,-403.543,0,0
364041.725,83.8695,-402.749,0,0
364302.05,84.3399,-402.05,0,0
364562.375,84.8724,-401.358,0,0
364822.7,85.4067,-400.689,0,0
365083.025,85.9573,-400.01,0,0
365343.35,86.5229,-399.424,0,0
365603.675,87.0938,-398.921,0,0
365864.0,87.6846,-398.433,0,0
366124.325,88.248,-397.994,0,0
366384.65,88.7759,-397.606,0,0
366644.975,89.2767,-397.278,0,0
366905.3,89.685,-396.9,0,0
367165.625,90.1204,-396.548,0,0
367425.95,90.505,-396.18,0,0
367686.275,90.908,-395.829,0,0
367946.6,91.3422,-395.492,0,0
368206.925,91.788,-395.135,0,0
368467.25,92.2064,-394.816,0,0
368727.575,92.7136,-394.575,0,0
368987.9,93.1431,-394.389,0,0
369248.225,93.5713,-394.229,0,0
369508.55,93.9097,-394.19,0,0
369768.875,94.1835,-394.215,0,0
370029.2,94.3851,-394.224,0,0
370289.525,94.4246,-394.3,0,0
370549.85,94.4246,-394.313,0,0
370810.175,94.2803,-394.308,0,0
371070.5,94.0509,-394.183,0,0
371330.825,93.7023,-394.014,0,0
371591.15,93.3093,-393.706,0,0
371851.475,92.9566,-393.268,0,0
372111.8,92.5662,-392.684,0,0
372372.125,92.3201,-392.001,0,0
372632.45,92.0457,-391.276,0,0
372892.775,91.8643,-390.45,0,0
373153.1,91.7656,-389.629,0,0
373413.425,91.7642,-388.747,0,0
373673.75,91.8066,-387.882,0,0
373934.075,91.9506,-387.008,0,0
374194.4,92.1437,-386.165,0,0
374454.725,92.3418,-385.406,0,0
374715.05,92.5804,-384.595,0,0
374975.375,92.824,-383.777,0,0
375235.7,93.0958,-383.054,0,0
375496.025,93.41,-382.279,0,0
375756.35,93.7173,-381.532,0,0
376016.675,94.0056,-380.791,0,0
376277.0,94.3648,-380.114,0,0
376537.325,94.7217,-379.379,0,0
376797.65,95.1052,-378.676,0,0
377057.975,95.4785,-378.051,0,0
377318.3,95.8351,-377.38,0,0
377578.625,96.2099,-376.719,0,0
377838.95,96.5313,-376.018,0,0
378099.275,96.9041,-375.305,0,0
378359.6,97.2868,-374.562,0,0
378619.925,97.7403,-373.786,0,0
378880,98.1878,-373.064,0,0
379141,98.7038,-372.289,0,0
379401,99.307,-371.585,0,0
379661,99.9281,-370.862,0,0
379922,100.548,-370.261,0,0
380182,101.199,-369.621,0,0
380442,101.847,-369.053,0,0
380703,102.519,-368.527,0,0
380963,103.173,-368.018,0,0
381223,103.774,-367.529,0,0
381483,104.453,-367.038,0,0
381744,105.119,-366.584,0,0
382004,105.758,-366.062,0,0
382264,106.447,-365.619,0,0
382525,107.145,-365.193,0,0
382785,107.892,-364.811,0,0
383045,108.605,-364.422,0,0
383306,109.309,-364.141,0,0
383566,110.015,-363.827,0,0
383826,110.687,-363.535,0,0
384087,111.362,-363.32,0,0
384347,112.015,-363.087,0,0
384607,112.62,-362.881,0,0
384868,113.292,-362.66,0,0
385128,113.894,-362.46,0,0
385388,114.449,-362.238,0,0
385649,115.025,-362.111,0,0
385909,115.521,-361.914,0,0
386169,116.062,-361.715,0,0
386430,116.514,-361.469,0,0
386690,117.059,-361.198,0,0
386950,117.614,-360.887,0,0
387211,118.12,-360.577,0,0
387471,118.732,-360.346,0,0
387731,119.309,-360.087,0,0
387992,119.897,-359.832,0,0
388252,120.44,-359.552,0,0
388512,121.018,-359.256,0,0
388773,121.614,-358.914,0,0
389033,122.234,-358.651,0,0
389293,122.891,-358.248,0,0
389554,123.631,-357.933,0,0
389814,124.391,-357.641,0,0
390074,125.148,-357.375,0,0
390335,125.944,-357.136,0,0
390595,126.774,-356.947,0,0
390855,127.604,-356.718,0,0
391116,128.483,-356.543,0,0
391376,129.35,-356.488,0,0
391636,130.176,-356.402,0,0
391896,130.995,-356.369,0,0
392157,131.797,-356.269,0,0
392417,132.639,-356.22,0,0
392677,133.498,-356.118,0,0
392938,134.4,-356.059,0,0
393198,135.302,-355.953,0,0
393458,136.329,-355.977,0,0
393719,137.359,-355.975,0,0
393979,138.342,-356.05,0,0
394239,139.384,-356.149,0,0
394500,140.473,-356.323,0,0
394760.05,141.561,-356.465,0,0
395020.375,142.706,-356.708,0,0
395280.7,143.861,-357.036,0,0
395541.025,145.072,-357.386,0,0
395801.35,146.226,-357.9,0,0
396061.675,147.375,-358.474,0,0
396322.0,148.475,-359.066,0,0
396582.325,149.583,-359.718,0,0
396842.65,150.694,-360.421,0,0
397102.975,151.824,-361.168,0,0
397363.3,152.973,-362.101,0,0
397623.625,154.095,-363.072,0,0
397883.95,155.174,-364.174,0,0
398144.275,156.209,-365.419,0,0
398404.6,157.139,-366.699,0,0
398664.925,157.987,-368.194,0,0
398925.25,158.722,-369.77,0,0
399185.575,159.388,-371.383,0,0
399445.9,159.81,-373.054,0,0
399706.225,160.133,-374.895,0,0
399966.55,160.268,-376.696,0,0
400006.6,160.252,-376.96,0,0