File: Accelerated corrosion test data/2025-09-30_18-00-03/sample_8.csv
Frequency (Hz),Impedance (ohms),Phase (Radians),Temperature (C),Humidity (%)
10000.0,322.622,-10874.6,0,0
10260.325,314.034,-10602.4,0,0
10520.65,306.847,-10343.2,0,0
10780.975,298.415,-10097.2,0,0
11041.3,291.7,-9861.62,0,0
11301.625,285.196,-9638.22,0,0
11561.95,279.003,-9422.97,0,0
11822.275,273.121,-9218.53,0,0
12082.6,271.146,-9020.22,0,0
12342.925,267.034,-8835.73,0,0
12603.25,261.595,-8655.79,0,0
12863.575,257.515,-8486.59,0,0
13123.9,248.505,-8323.22,0,0
13384.225,243.014,-8161.85,0,0
13644.55,239.128,-8007.89,0,0
13904.875,232.726,-7861.21,0,0
14165.2,226.811,-7717.61,0,0
14425.525,222.735,-7580.1,0,0
14685.8,218.891,-7446.91,0,0
14946.175,215.067,-7318.66,0,0
15206.5,211.476,-7194.38,0,0
15466.825,208.5,-7074.91,0,0
15727.15,204.702,-6959.05,0,0
15987.5,201.295,-6846.87,0,0
16247.8,198.321,-6738.17,0,0
16508.125,195.112,-6632.93,0,0
16768.45,191.846,-6531.01,0,0
17028.775,189.18,-6431.9,0,0
17289.1,186.096,-6335.6,0,0
17549.425,182.95,-6242.3,0,0
17809.75,181.556,-6151.23,0,0
18070.075,179.252,-6064.16,0,0
18330.4,176.036,-5977.84,0,0
18590.725,173.666,-5893.33,0,0
18851.05,173.593,-5810.84,0,0
19111.375,171.877,-5732.89,0,0
19371.7,174.024,-5656.12,0,0
19632.025,170.108,-5584.36,0,0
19892.35,167.64,-5514.59,0,0
20152.675,164.705,-5442.43,0,0
20413.0,163.952,-5373.11,0,0
20673.3,162.857,-5306.18,0,0
20933.65,161.21,-5243.11,0,0
21193.975,158.814,-5180.28,0,0
21454.3,156.086,-5117.03,0,0
21714.625,154.692,-5054.67,0,0
21974.9,154.187,-4996.04,0,0
22235.275,154.269,-4938.19,0,0
22495.6,152.105,-4882.07,0,0
22755.925,151.155,-4828.93,0,0
23016.25,147.903,-4774.68,0,0
23276.6,145.108,-4722.63,0,0
23536.9,142.826,-4670.27,0,0
23797.225,141.147,-4619.58,0,0
24057.55,139.265,-4569.42,0,0
24317.875,137.61,-4520.26,0,0
24578.2,135.499,-4472.36,0,0
24838.525,133.942,-4425.18,0,0
25098.85,132.541,-4379.49,0,0
25359.175,131.601,-4334.1,0,0
25619.5,130.698,-4289.84,0,0
25879.8,128.914,-4246.38,0,0
26140.1,128.192,-4204.57,0,0
26400.5,127.153,-4163.02,0,0
26660.8,125.38,-4122.35,0,0
26921.1,124.852,-4081.05,0,0
27181.4,124.838,-4042.21,0,0
27441.8,123.141,-4003.88,0,0
27702.1,122.927,-3966.96,0,0
27962.4,120.983,-3929.76,0,0
28222.7,120.988,-3892.25,0,0
28483.1,120.338,-3857.06,0,0
28743.4,120.333,-3821.67,0,0
29003.7,119.436,-3787.81,0,0
29264,118.984,-3753.48,0,0
29524.4,118.238,-3720.81,0,0
29784.7,118.145,-3687.71,0,0
30045,117.694,-3656.53,0,0
30305.3,117.694,-3625.34,0,0
30565.7,116.855,-3594.84,0,0
30826,115.749,-3564.54,0,0
31086.3,115.133,-3534.75,0,0
31346.6,114.283,-3504.95,0,0
31607,113.874,-3475.84,0,0
31867.3,113.427,-3447.5,0,0
32127.6,113.098,-3419.63,0,0
32387.9,112.355,-3391.66,0,0
32648.3,112.504,-3364.23,0,0
32908.6,112.511,-3336.84,0,0
33168.9,112.507,-3311.03,0,0
33429.2,113.528,-3285.35,0,0
33689.6,114.314,-3261.05,0,0
33949.9,114.029,-3237.65,0,0
34210.2,113.271,-3213.85,0,0
34470.5,112.602,-3190.45,0,0
34730.9,111.705,-3166.93,0,0
34991.2,111.99,-3144.07,0,0
35251.5,111.548,-3121.84,0,0
35511.8,110.578,-3100.33,0,0
35772.2,109.398,-3078.65,0,0
36032.5,108.181,-3057.09,0,0
36292.8,106.849,-3036.25,0,0
36553.1,105.4,-3014.78,0,0
36813.5,104.054,-2993.85,0,0
37073.8,102.876,-2973.15,0,0
37334.1,101.86,-2952.68,0,0
37594.4,100.377,-2932.62,0,0
37854.8,98.8213,-2912.27,0,0
38115.1,97.6447,-2892.6,0,0
38375.4,96.1453,-2872.91,0,0
38635.7,94.7357,-2853.07,0,0
38896.1,93.7607,-2833.82,0,0
39156.4,92.5661,-2814.65,0,0
39416.7,91.2852,-2795.49,0,0
39677,90.2636,-2776.65,0,0
39937.4,89.339,-2757.92,0,0
40197.7,88.1573,-2738.97,0,0
40458,88.008,-2720.3,0,0
40718.3,87.8389,-2702.44,0,0
40978.7,87.0241,-2685.24,0,0
41239,86.5251,-2667.94,0,0
41499.3,86.0609,-2650.72,0,0
41759.6,85.571,-2633.52,0,0
42020,84.9928,-2616.95,0,0
42280.275,84.4825,-2600.31,0,0
42540.6,84.081,-2583.65,0,0
42800.925,83.6126,-2567.49,0,0
43061.25,83.5666,-2551.14,0,0
43321.575,83.798,-2535.72,0,0
43581.9,83.9667,-2520.64,0,0
43842.225,83.2847,-2506.13,0,0
44102.55,82.4045,-2491.32,0,0
44362.875,81.5622,-2476.14,0,0
44623.2,81.1445,-2461.71,0,0
44883.525,80.4704,-2446.9,0,0
45143.85,80.0126,-2432.46,0,0
45404.175,79.5969,-2417.97,0,0
45664.5,79.0174,-2403.59,0,0
45924.825,78.652,-2389.88,0,0
46185.15,78.2467,-2376.04,0,0
46445.475,77.712,-2361.95,0,0
46705.8,77.0021,-2348.35,0,0
46966.125,77.0905,-2334.83,0,0
47226.45,76.5604,-2321.56,0,0
47486.775,76.3319,-2308.44,0,0
47747.1,76.1988,-2295.53,0,0
48007.425,75.6184,-2282.69,0,0
48267.75,75.2967,-2270.09,0,0
48528.075,74.7394,-2257.32,0,0
48788.4,74.9475,-2245.27,0,0
49048.725,74.0913,-2233.03,0,0
49309.05,73.54,-2220.63,0,0
49569.375,73.321,-2208.31,0,0
49829.7,72.9185,-2196.39,0,0
50090.025,72.5074,-2184.45,0,0
50350.35,72.1663,-2172.59,0,0
50610.675,71.8985,-2160.95,0,0
50871.0,71.6419,-2149.25,0,0
51131.325,71.386,-2137.66,0,0
51391.65,71.2581,-2126.33,0,0
51651.975,71.1046,-2114.98,0,0
51912.3,71.1258,-2103.93,0,0
52172.625,71.1323,-2093.04,0,0
52432.95,70.8397,-2082.54,0,0
52693.275,70.6319,-2071.64,0,0
52953.6,70.6782,-2060.98,0,0
53213.925,70.8195,-2050.74,0,0
53474.25,70.5674,-2040.64,0,0
53734.575,70.5184,-2030.69,0,0
53994.9,70.105,-2021.14,0,0
54255.225,69.6832,-2011.31,0,0
54515.55,68.7336,-2001.46,0,0
54775.875,68.197,-1991.36,0,0
55036.2,67.6541,-1981.91,0,0
55296.525,67.0774,-1972.03,0,0
55556.85,66.2867,-1962.14,0,0
55817.175,65.8632,-1952.32,0,0
56077.5,65.2587,-1942.61,0,0
56337.825,64.8387,-1932.83,0,0
56598.15,64.4669,-1923.2,0,0
56858.475,64.1799,-1913.5,0,0
57118.8,63.9643,-1904.09,0,0
57379.125,63.7931,-1894.69,0,0
57639.45,63.637,-1885.44,0,0
57899.775,63.4615,-1876.25,0,0
58160.1,63.345,-1867.08,0,0
58420.4,63.2216,-1858.01,0,0
58680.7,63.2151,-1849.11,0,0
58941.1,63.3328,-1840.22,0,0
59201.4,63.3983,-1831.72,0,0
59461.7,63.3131,-1823.45,0,0
59722,63.0241,-1815.19,0,0
59982.4,62.5914,-1806.77,0,0
60242.7,62.332,-1798.36,0,0
60503,61.8904,-1789.9,0,0
60763.3,61.7743,-1781.45,0,0
61023.7,61.5767,-1773.07,0,0
61284,61.541,-1764.68,0,0
61544.3,61.5782,-1756.42,0,0
61804.6,61.6829,-1748.38,0,0
62065,61.6208,-1740.53,0,0
62325.3,61.4898,-1732.55,0,0
62585.6,61.4161,-1724.63,0,0
62845.9,61.326,-1716.72,0,0
63106.3,61.6117,-1708.82,0,0
63366.6,61.6836,-1701.06,0,0
63626.9,62.0089,-1693.61,0,0
63887.2,62.1215,-1686.18,0,0
64147.6,62.3163,-1678.59,0,0
64407.9,62.8097,-1671.22,0,0
64668.2,63.2455,-1664.36,0,0
64928.5,63.3559,-1657.6,0,0
65188.9,63.3418,-1651.03,0,0
65449.2,63.2382,-1644.34,0,0
65709.5,63.1215,-1638.03,0,0
65969.8,62.728,-1631.37,0,0
66230.2,62.2317,-1624.74,0,0
66490.5,61.5016,-1618.04,0,0
66750.8,60.9591,-1610.94,0,0
67011.1,60.3878,-1603.94,0,0
67271.5,60.1445,-1597,0,0
67531.8,59.8718,-1590.15,0,0
67792.1,59.6643,-1583.06,0,0
68052.4,59.6709,-1576.35,0,0
68312.8,59.3959,-1569.69,0,0
68573.1,59.2055,-1562.91,0,0
68833.4,59.1534,-1556.4,0,0
69093.7,59.0519,-1549.57,0,0
69354.1,58.9407,-1543.11,0,0
69614.4,58.9568,-1536.44,0,0
69874.7,58.8761,-1530.01,0,0
70135,58.9745,-1523.43,0,0
70395.4,59.23,-1517.14,0,0
70655.7,59.2435,-1511.02,0,0
70916,59.3131,-1504.76,0,0
71176.3,59.4617,-1498.66,0,0
71436.7,59.539,-1492.52,0,0
71697,59.6301,-1486.47,0,0
71957.3,59.799,-1480.67,0,0
72217.6,59.7657,-1474.86,0,0
72478,59.9459,-1469.03,0,0
72738.3,59.8841,-1463.46,0,0
72998.6,59.6546,-1457.87,0,0
73258.9,59.3588,-1452.15,0,0
73519.3,59.1637,-1446.26,0,0
73779.6,59.0226,-1440.4,0,0
74039.9,58.9845,-1434.59,0,0
74300.225,59.1313,-1428.99,0,0
74560.55,58.953,-1423.54,0,0
74820.875,58.7031,-1417.88,0,0
75081.2,58.5759,-1412.19,0,0
75341.525,58.4758,-1406.64,0,0
75601.85,58.3755,-1400.91,0,0
75862.175,58.438,-1395.36,0,0
76122.5,58.4885,-1389.9,0,0
76382.825,58.5334,-1384.45,0,0
76643.15,58.581,-1379.05,0,0
76903.475,58.6294,-1373.81,0,0
77163.8,58.5487,-1368.53,0,0
77424.125,58.4579,-1363.27,0,0
77684.45,58.3746,-1357.98,0,0
77944.775,58.332,-1352.71,0,0
78205.1,58.2966,-1347.5,0,0
78465.425,58.1508,-1342.31,0,0
78725.75,58.0496,-1337.12,0,0
78986.075,57.9799,-1331.83,0,0
79246.4,57.9567,-1326.7,0,0
79506.725,57.8699,-1321.47,0,0
79767.05,57.7696,-1316.24,0,0
80027.375,57.885,-1311.02,0,0
80287.7,57.9502,-1305.87,0,0
80548.025,58.0521,-1300.79,0,0
80808.35,58.1987,-1295.78,0,0
81068.675,58.1839,-1290.84,0,0
81329.0,58.1925,-1285.72,0,0
81589.325,58.3334,-1280.69,0,0
81849.65,58.4635,-1275.73,0,0
82109.975,58.5431,-1270.73,0,0
82370.3,58.6711,-1265.66,0,0
82630.625,58.9744,-1260.6,0,0
82890.95,59.3701,-1255.66,0,0
83151.275,59.8197,-1250.98,0,0
83411.6,60.066,-1246.27,0,0
83671.925,60.3593,-1241.45,0,0
83932.25,60.7867,-1236.7,0,0
84192.575,61.4263,-1232.09,0,0
84452.9,61.8708,-1227.73,0,0
84713.225,62.1504,-1223.48,0,0
84973.55,62.4581,-1219.01,0,0
85233.875,62.8275,-1214.71,0,0
85494.2,63.1582,-1210.47,0,0
85754.525,63.2573,-1206.54,0,0
86014.85,63.0921,-1202.27,0,0
86275.175,63.0755,-1197.92,0,0
86535.5,63.0322,-1193.49,0,0
86795.825,63.0661,-1188.94,0,0
87056.15,63.3168,-1184.35,0,0
87316.475,63.6543,-1179.99,0,0
87576.8,63.8989,-1175.69,0,0
87837.125,63.8837,-1171.14,0,0
88097.45,64.3166,-1166.68,0,0
88357.775,64.7882,-1162.35,0,0
88618.1,65.1598,-1158.09,0,0
88878.425,65.6417,-1153.7,0,0
89138.75,66.1183,-1149.52,0,0
89399.075,66.8906,-1145.29,0,0
89659.4,67.1828,-1141.27,0,0
89919.725,67.5346,-1137.05,0,0
90180,68.0806,-1132.93,0,0
90440.4,68.6842,-1128.78,0,0
90700.7,69.2351,-1124.87,0,0
90961,69.7512,-1120.88,0,0
91221.3,70.4591,-1116.75,0,0
91481.7,71.5412,-1112.56,0,0
91742,72.5855,-1109.01,0,0
92002.3,73.5478,-1105.4,0,0
92262.6,74.6486,-1102.14,0,0
92523,75.5783,-1099.05,0,0
92783.3,76.2859,-1096.18,0,0
93043.6,76.8905,-1093.34,0,0
93303.9,77.2032,-1090.68,0,0
93564.3,77.2698,-1087.9,0,0
93824.6,77.3047,-1085.07,0,0
94084.9,77.0367,-1082.37,0,0
94345.2,76.27,-1079.36,0,0
94605.6,75.5573,-1075.63,0,0
94865.9,75.3116,-1071.53,0,0
95126.2,75.6313,-1067.73,0,0
95386.5,75.7873,-1064.04,0,0
95646.9,76.3093,-1060.47,0,0
95907.2,76.6577,-1057.17,0,0
96167.5,76.6842,-1054.08,0,0
96427.8,76.6317,-1050.62,0,0
96688.2,76.7646,-1046.95,0,0
96948.5,77.0657,-1043.41,0,0
97208.8,77.4074,-1039.97,0,0
97469.1,77.838,-1036.47,0,0
97729.5,78.5892,-1033.16,0,0
97989.8,79.1517,-1030.25,0,0
98250.1,79.477,-1027.39,0,0
98510.4,79.6343,-1024.37,0,0
98770.8,79.9396,-1021.31,0,0
99031.1,80.3706,-1018.43,0,0
99291.4,80.5275,-1015.84,0,0
99551.7,80.3877,-1013.13,0,0
99812.1,80.105,-1010.17,0,0
100072,80.0373,-1006.89,0,0
100333,80.2042,-1003.66,0,0
100593,80.4848,-1000.65,0,0
100853,80.7846,-997.9,0,0
101114,80.772,-995.17,0,0
101374,80.5953,-992.415,0,0
101634,80.3902,-989.485,0,0
101895,80.2043,-986.487,0,0
102155,80.0044,-983.405,0,0
102415,79.9623,-980.195,0,0
102676,80.0178,-977.02,0,0
102936,80.1656,-973.943,0,0
103196,80.3076,-971.001,0,0
103457,80.45,-968.12,0,0
103717,80.4918,-965.342,0,0
103977,80.4625,-962.634,0,0
104238,80.2032,-959.821,0,0
104498,79.946,-956.79,0,0
104758,79.7852,-953.651,0,0
105019,79.8456,-950.595,0,0
105279,79.8136,-947.565,0,0
105539,79.9465,-944.48,0,0
105800,80.044,-941.572,0,0
106060,80.0819,-938.651,0,0
106320.175,80.1739,-935.722,0,0
106580.5,80.2572,-932.833,0,0
106840.825,80.3809,-929.995,0,0
107101.15,80.414,-927.208,0,0
107361.475,80.4113,-924.413,0,0
107621.8,80.4145,-921.545,0,0
107882.125,80.4368,-918.799,0,0
108142.45,80.3024,-915.993,0,0
108402.775,80.2051,-912.989,0,0
108663.1,80.2853,-909.972,0,0
108923.425,80.4502,-907.093,0,0
109183.75,80.6921,-904.25,0,0
109444.075,80.8581,-901.443,0,0
109704.4,81.0789,-898.745,0,0
109964.725,81.2303,-896.246,0,0
110225.05,81.2912,-893.574,0,0
110485.375,81.3471,-890.929,0,0
110745.7,81.3704,-888.361,0,0
111006.025,81.3721,-885.787,0,0
111266.35,81.2177,-883.297,0,0
111526.675,81.1749,-880.662,0,0
111787.0,80.9628,-877.681,0,0
112047.325,80.9889,-875.086,0,0
112307.65,80.935,-872.441,0,0
112567.975,80.9453,-869.789,0,0
112828.3,80.8527,-867.175,0,0
113088.625,80.8206,-864.473,0,0
113348.95,80.6722,-861.821,0,0
113609.275,80.6413,-859.149,0,0
113869.6,80.6035,-856.464,0,0
114129.925,80.5666,-853.793,0,0
114390.25,80.5454,-851.273,0,0
114650.575,80.346,-848.671,0,0
114910.9,80.3152,-846.095,0,0
115171.225,80.1248,-843.485,0,0
115431.55,79.95,-840.834,0,0
115691.875,79.7597,-838.187,0,0
115952.2,79.6211,-835.506,0,0
116212.525,79.443,-832.822,0,0
116472.85,79.2824,-830.11,0,0
116733.175,79.0868,-827.409,0,0
116993.5,78.8827,-824.606,0,0
117253.825,78.7848,-821.871,0,0
117514.15,78.5933,-819.096,0,0
117774.475,78.4485,-816.244,0,0
118034.8,78.3416,-813.444,0,0
118295.125,78.1962,-810.601,0,0
118555.45,78.1523,-807.638,0,0
118815.775,78.2585,-804.717,0,0
119076.1,78.4522,-801.902,0,0
119336.425,78.5329,-799.329,0,0
119596.75,78.5922,-796.616,0,0
119857.075,78.6365,-793.988,0,0
120117.4,78.5519,-791.238,0,0
120377.725,78.521,-788.563,0,0
120638.05,78.4356,-785.88,0,0
120898.375,78.3164,-783.086,0,0
121158.7,78.27,-780.148,0,0
121419.025,78.4403,-777.238,0,0
121679.35,78.5821,-774.489,0,0
121939.675,78.6814,-771.72,0,0
122200.0,78.789,-769.012,0,0
122460,78.86,-766.235,0,0
122721,78.9955,-763.488,0,0
122981,79.1202,-760.784,0,0
123241,79.238,-758.094,0,0
123502,79.2612,-755.412,0,0
123762,79.3101,-752.603,0,0
124022,79.3512,-749.776,0,0
124283,79.4376,-746.864,0,0
124543,79.695,-743.939,0,0
124803,79.9858,-741.094,0,0
125064,80.3777,-738.275,0,0
125324,80.7451,-735.587,0,0
125584,81.0957,-732.96,0,0
125845,81.3814,-730.293,0,0
126105,81.6728,-727.671,0,0
126365,81.9213,-724.995,0,0
126626,82.3371,-722.242,0,0
126886,82.7882,-719.69,0,0
127146,83.1369,-717.188,0,0
127406,83.4977,-714.709,0,0
127667,83.883,-712.269,0,0
127927,84.1247,-709.86,0,0
128187,84.3622,-707.45,0,0
128448,84.5757,-705.097,0,0
128708,84.6562,-702.669,0,0
128968,84.7721,-700.284,0,0
129229,84.7052,-697.831,0,0
129489,84.6646,-695.251,0,0
129749,84.6797,-692.668,0,0
130010,84.6153,-690.135,0,0
130270,84.487,-687.37,0,0
130530,84.4759,-684.606,0,0
130791,84.3911,-681.712,0,0
131051,84.3317,-678.711,0,0
131311,84.3997,-675.422,0,0
131572,84.9181,-672.047,0,0
131832,85.7753,-669.042,0,0
132092,86.5063,-666.403,0,0
132353,87.1101,-663.831,0,0
132613,87.515,-661.334,0,0
132873,87.7325,-658.643,0,0
133134,88.121,-655.688,0,0
133394,88.7705,-652.75,0,0
133654,89.5885,-650.097,0,0
133915,90.2438,-647.593,0,0
134175,90.8804,-645.149,0,0
134435,91.3707,-642.675,0,0
134696,91.8802,-640.209,0,0
134956,92.3743,-637.782,0,0
135216,92.8319,-635.28,0,0
135477,93.1572,-632.834,0,0
135737,93.6807,-630.246,0,0
135997,94.2188,-627.808,0,0
136258,94.7669,-625.432,0,0
136518,95.0308,-623.175,0,0
136778,95.3043,-620.625,0,0
137039,95.7575,-618.122,0,0
137299,96.2084,-615.752,0,0
137559,96.6411,-613.569,0,0
137819,96.7143,-611.484,0,0
138080,96.5131,-609.234,0,0
138340.125,96.1379,-606.722,0,0
138600.45,95.7938,-603.84,0,0
138860.775,95.6771,-600.737,0,0
139121.1,95.7411,-597.652,0,0
139381.425,95.8596,-594.511,0,0
139641.75,96.1103,-591.364,0,0
139902.075,96.4009,-588.252,0,0
140162.4,96.7689,-585.116,0,0
140422.725,97.1664,-582.038,0,0
140683.05,97.5013,-578.973,0,0
140943.375,97.7833,-575.746,0,0
141203.7,98.2093,-572.487,0,0
141464.025,98.6605,-569.213,0,0
141724.35,99.1522,-565.852,0,0
141984.675,99.7779,-562.478,0,0
142245.0,100.449,-559.124,0,0
142505.325,101.109,-555.781,0,0
142765.65,101.853,-552.353,0,0
143025.975,102.713,-549.003,0,0
143286.3,103.473,-545.712,0,0
143546.625,104.126,-542.3,0,0
143806.95,104.833,-538.704,0,0
144067.275,105.66,-534.985,0,0
144327.6,106.624,-531.142,0,0
144587.925,107.8,-527.188,0,0
144848.25,109.209,-523.209,0,0
145108.575,110.877,-519.302,0,0
145368.9,112.664,-515.485,0,0
145629.225,114.638,-511.696,0,0
145889.55,116.93,-508.026,0,0
146149.875,119.385,-504.725,0,0
146410.2,121.735,-501.706,0,0
146670.525,124.008,-498.845,0,0
146930.85,126.218,-496.104,0,0
147191.175,128.306,-493.459,0,0
147451.5,130.358,-490.758,0,0
147711.825,132.525,-488.24,0,0
147972.15,134.426,-486.098,0,0
148232.475,135.705,-483.916,0,0
148492.8,136.59,-481.237,0,0
148753.125,137.562,-477.922,0,0
149013.45,138.871,-474.181,0,0
149273.775,140.507,-470.149,0,0
149534.1,142.671,-465.943,0,0
149794.425,145.385,-461.789,0,0
150054.75,148.594,-457.992,0,0
150315.075,151.952,-454.342,0,0
150575.4,155.661,-450.989,0,0
150835.725,159.49,-448.103,0,0
151096.05,163.14,-445.328,0,0
151356.375,167.119,-442.285,0,0
151616.7,171.893,-439.59,0,0
151877.025,177.036,-437.951,0,0
152137.35,182.155,-437.308,0,0
152397.675,186.379,-437.597,0,0
152658.0,189.862,-438.091,0,0
152918.325,192.628,-438.711,0,0
153178.65,194.609,-439.155,0,0
153438.975,196.263,-439.055,0,0
153699.3,197.812,-438.643,0,0
153959.625,199.469,-438.007,0,0
154219.95,200.923,-437.421,0,0
154480,202.066,-436.703,0,0
154741,203.011,-435.384,0,0
155001,204.276,-433.589,0,0
155261,205.839,-431.462,0,0
155522,207.938,-429.275,0,0
155782,210.656,-427.271,0,0
156042,213.793,-425.466,0,0
156303,217.66,-424.551,0,0
156563,221.237,-425.235,0,0
156823,223.331,-426.697,0,0
157084,224.207,-428.14,0,0
157344,223.558,-429.133,0,0
157604,221.939,-428.071,0,0
157864,221.173,-425.523,0,0
158125,221.211,-422.302,0,0
158385,222.214,-418.79,0,0
158645,223.659,-415.499,0,0
158906,225.621,-411.883,0,0
159166,228.732,-408.141,0,0
159426,233.147,-404.871,0,0
159687,238.309,-403.211,0,0
159947,243.148,-403.232,0,0
160207,246.958,-404.287,0,0
160468,249.405,-405.695,0,0
160728,250.828,-406.957,0,0
160988,251.039,-407.6,0,0
161249,250.658,-406.683,0,0
161509,251.006,-404.489,0,0
161769,252.411,-401.845,0,0
162030,254.741,-399.422,0,0
162290,257.714,-397.305,0,0
162550,261.023,-395.824,0,0
162811,264.48,-394.898,0,0
163071,267.824,-394.556,0,0
163331,271.102,-394.518,0,0
163592,274.238,-394.929,0,0
163852,277.133,-395.977,0,0
164112,279.535,-397.277,0,0
164373,281.4,-399.037,0,0
164633,282.272,-400.811,0,0
164893,282.404,-401.899,0,0
165154,282.681,-402.542,0,0
165414,282.783,-402.943,0,0
165674,282.908,-403.017,0,0
165935,283.519,-403.398,0,0
166195,283.802,-404.184,0,0
166455,283.375,-405.327,0,0
166716,281.961,-406.266,0,0
166976,279.889,-406.475,0,0
167236,277.435,-405.824,0,0
167497,275.136,-404.286,0,0
167757,272.907,-402.245,0,0
168017,270.721,-399.814,0,0
168277,268.674,-396.618,0,0
168538,267.102,-392.799,0,0
168798,265.989,-388.652,0,0
169058,265.379,-384.134,0,0
169319,265.303,-379.777,0,0
169579,265.547,-375.052,0,0
169839,266.326,-370.306,0,0
170100,267.561,-365.807,0,0
170360.075,268.664,-361.592,0,0
170620.4,269.978,-357.052,0,0
170880.725,271.568,-352.618,0,0
171141.05,273.262,-348.076,0,0
171401.375,275.215,-343.426,0,0
171661.7,277.404,-338.793,0,0
171922.025,279.828,-333.889,0,0
172182.35,282.948,-328.97,0,0
172442.675,286.515,-324.275,0,0
172703.0,290.279,-319.895,0,0
172963.325,294.387,-315.844,0,0
173223.65,298.506,-312.161,0,0
173483.975,302.65,-308.489,0,0
173744.3,307.154,-305.029,0,0
174004.625,311.548,-301.856,0,0
174264.95,316.196,-298.886,0,0
174525.275,320.965,-296.332,0,0
174785.6,325.568,-294.365,0,0
175045.925,329.459,-292.605,0,0
175306.25,333.177,-290.234,0,0
175566.575,337.093,-287.978,0,0
175826.9,340.628,-285.883,0,0
176087.225,343.891,-283.367,0,0
176347.55,347.071,-280.261,0,0
176607.875,350.839,-276.495,0,0
176868.2,355.409,-272.552,0,0
177128.525,360.65,-269.17,0,0
177388.85,366.14,-266.342,0,0
177649.175,371.48,-263.896,0,0
177909.5,376.509,-261.352,0,0
178169.825,381.869,-258.576,0,0
178430.15,387.5,-255.764,0,0
178690.475,393.493,-253.184,0,0
178950.8,399.683,-250.753,0,0
179211.125,405.893,-248.688,0,0
179471.45,412.469,-246.658,0,0
179731.775,419.24,-245.123,0,0
179992.1,425.971,-244.105,0,0
180252.425,432.257,-243.356,0,0
180512.75,438.326,-242.186,0,0
180773.075,444.85,-240.889,0,0
181033.4,451.833,-239.831,0,0
181293.725,458.997,-239.294,0,0
181554.05,465.75,-239.331,0,0
181814.375,472.228,-239.157,0,0
182074.7,479.092,-238.955,0,0
182335.025,485.825,-239.253,0,0
182595.35,492.521,-239.339,0,0
182855.675,499.451,-239.608,0,0
183116.0,506.578,-240.366,0,0
183376.325,513.523,-241.782,0,0
183636.65,519.4,-243.322,0,0
183896.975,525.158,-243.881,0,0
184157.3,531.37,-244.362,0,0
184417.625,537.938,-244.821,0,0
184677.95,544.905,-245.539,0,0
184938.275,551.822,-246.916,0,0
185198.6,558.161,-248.608,0,0
185458.925,563.713,-249.737,0,0
185719.25,569.537,-249.88,0,0
185979.575,576.235,-249.595,0,0
186239.9,583.756,-249.347,0,0
186500,592.04,-249.342,0,0
186761,601.011,-250.324,0,0
187021,610.146,-252.095,0,0
187281,618.821,-254.492,0,0
187542,627.326,-256.838,0,0
187802,635.934,-259.14,0,0
188062,645.118,-261.405,0,0
188322,655.114,-264.241,0,0
188583,665.646,-268.232,0,0
188843,675.823,-273.636,0,0
189103,685.241,-279.811,0,0
189364,694.049,-286.565,0,0
189624,701.739,-293.856,0,0
189884,708.229,-300.823,0,0
190145,714.114,-306.827,0,0
190405,720.383,-311.967,0,0
190665,726.916,-316.94,0,0
190926,733.506,-321.472,0,0
191186,740.914,-325.148,0,0
191446,750.105,-328.912,0,0
191707,760.501,-333.567,0,0
191967,771.875,-339.662,0,0
192227,783.658,-347.639,0,0
192488,794.858,-357.444,0,0
192748,805.071,-368.642,0,0
193008,813.805,-380.282,0,0
193269,821.655,-392.363,0,0
193529,829.017,-403.647,0,0
193789,836.666,-414.679,0,0
194050,845.255,-426.354,0,0
194310,853.978,-439.46,0,0
194570,862.742,-453.817,0,0
194831,871.073,-470.315,0,0
195091,877.396,-488.624,0,0
195351,881.301,-507.72,0,0
195612,882.939,-526.105,0,0
195872,883.738,-543.416,0,0
196132,884.729,-560.392,0,0
196393,885.573,-578.08,0,0
196653,885.315,-597.041,0,0
196913,883.098,-616.472,0,0
197174,879.273,-635.861,0,0
197434,873.579,-655.159,0,0
197694,865.908,-673.619,0,0
197955,856.83,-690.711,0,0
198215,846.786,-706.452,0,0
198475,835.863,-720.84,0,0
198735,824.746,-733.433,0,0
198996,813.956,-745.103,0,0
199256,803.378,-756.287,0,0
199516,792.633,-767.395,0,0
199777,781.464,-778.248,0,0
200037,769.487,-788.787,0,0
200297,756.329,-798.499,0,0
200558,742.161,-806.783,0,0
200818,727.623,-813.707,0,0
201078,712.917,-818.669,0,0
201339,699.139,-821.605,0,0
201599,686.822,-823.742,0,0
201859,675.793,-825.953,0,0
202120,665.101,-828.394,0,0
202380.025,654.227,-830.906,0,0
202640.35,643.099,-833.468,0,0
202900.675,631.367,-835.316,0,0
203161.0,619.711,-836.181,0,0
203421.325,608.342,-835.928,0,0
203681.65,597.535,-835.184,0,0
203941.975,586.769,-833.934,0,0
204202.3,576.636,-831.759,0,0
204462.625,567.149,-829.309,0,0
204722.95,558.151,-826.43,0,0
204983.275,549.811,-822.841,0,0
205243.6,542.264,-819.228,0,0
205503.925,535.353,-815.797,0,0
205764.25,528.759,-812.46,0,0
206024.575,522.2,-808.777,0,0
206284.9,515.999,-804.97,0,0
206545.225,510.183,-800.89,0,0
206805.55,504.777,-796.335,0,0
207065.875,500.09,-791.459,0,0
207326.2,496.149,-786.524,0,0
207586.525,493.028,-781.805,0,0
207846.85,490.489,-777.211,0,0
208107.175,488.604,-772.957,0,0
208367.5,487.468,-769.304,0,0
208627.825,486.16,-766.227,0,0
208888.15,484.802,-763.691,0,0
209148.475,483.371,-761.059,0,0
209408.8,481.908,-758.551,0,0
209669.125,480.72,-755.798,0,0
209929.45,479.817,-753.023,0,0
210189.775,479.045,-750.334,0,0
210450.1,478.913,-747.614,0,0
210710.425,479.135,-745.05,0,0
210970.75,479.904,-742.895,0,0
211231.075,481.043,-741.303,0,0
211491.4,482.166,-740.381,0,0
211751.725,483.203,-739.609,0,0
212012.05,484.333,-739.129,0,0
212272.375,485.741,-739.084,0,0
212532.7,487.134,-739.583,0,0
212793.025,488.353,-740.521,0,0
213053.35,489.577,-742.006,0,0
213313.675,490.626,-744.009,0,0
213574.0,491.102,-746.54,0,0
213834.325,490.943,-749.568,0,0
214094.65,490.153,-752.467,0,0
214354.975,488.771,-755.488,0,0
214615.3,486.831,-758.229,0,0
214875.625,484.197,-760.709,0,0
215135.95,481.326,-762.547,0,0
215396.275,478.443,-763.976,0,0
215656.6,475.395,-765.057,0,0
215916.925,472.259,-765.583,0,0
216177.25,469.263,-765.513,0,0
216437.575,466.793,-765.049,0,0
216697.9,464.442,-764.39,0,0
216958.225,462.422,-763.391,0,0
217218.55,461.051,-762.086,0,0
217478.875,460.412,-760.678,0,0
217739.2,460.412,-759.619,0,0
217999.525,460.889,-758.943,0,0
218259.85,461.591,-758.794,0,0
218520,462.632,-758.941,0,0
218780,463.955,-759.667,0,0
219041,465.084,-761.073,0,0
219301,466.07,-762.949,0,0
219561,466.968,-765.114,0,0
219822,467.392,-767.649,0,0
220082,467.953,-770.195,0,0
220342,468.256,-773.185,0,0
220603,468.297,-776.357,0,0
220863,468.271,-779.879,0,0
221123,468.167,-783.484,0,0
221384,467.768,-787.581,0,0
221644,466.881,-792.027,0,0
221904,465.438,-796.525,0,0
222165,463.842,-801.023,0,0
222425,461.658,-805.802,0,0
222685,458.909,-810.709,0,0
222946,455.685,-815.491,0,0
223206,451.788,-820.095,0,0
223466,447.312,-824.158,0,0
223727,442.66,-827.791,0,0
223987,438.001,-830.696,0,0
224247,433.287,-833.558,0,0
224508,428.788,-836.192,0,0
224768,423.969,-838.768,0,0
225028,419.216,-841.4,0,0
225289,414.415,-843.63,0,0
225549,409.383,-845.803,0,0
225809,404.467,-847.936,0,0
226070,399.138,-849.897,0,0
226330,393.594,-851.764,0,0
226590,387.753,-853.337,0,0
226851,381.795,-854.311,0,0
227111,375.84,-854.908,0,0
227371,370.141,-855.061,0,0
227632,364.547,-855.149,0,0
227892,359.105,-855.089,0,0
228152,353.571,-854.727,0,0
228413,348.294,-853.971,0,0
228673,343.325,-853.352,0,0
228933,338.236,-852.551,0,0
229193,333.484,-851.576,0,0
229454,329.017,-850.405,0,0
229714,324.595,-849.534,0,0
229974,320.21,-848.588,0,0
230235,315.774,-847.891,0,0
230495,311.391,-846.855,0,0
230755,306.797,-845.934,0,0
231016,302.14,-844.834,0,0
231276,297.553,-843.45,0,0
231536,293.052,-841.911,0,0
231797,288.674,-840.39,0,0
232057,284.237,-838.864,0,0
232317,279.898,-837.055,0,0
232578,275.61,-835.157,0,0
232838,271.278,-833.274,0,0
233098,266.951,-831.221,0,0
233359,262.675,-828.906,0,0
233619,258.552,-826.482,0,0
233879,254.557,-823.789,0,0
234140,250.635,-821.126,0,0
234400,247.009,-818.241,0,0
234660.3,243.34,-815.35,0,0
234920.625,239.946,-812.236,0,0
235180.95,236.704,-809.126,0,0
235441.275,233.517,-805.924,0,0
235701.6,230.631,-802.609,0,0
235961.925,227.85,-799.29,0,0
236222.25,225.249,-795.911,0,0
236482.575,222.918,-792.478,0,0
236742.9,220.755,-789.051,0,0
237003.225,218.928,-785.699,0,0
237263.55,217.299,-782.411,0,0
237523.875,215.838,-779.334,0,0
237784.2,214.492,-776.448,0,0
238044.525,213.166,-773.643,0,0
238304.85,211.968,-771.058,0,0
238565.175,210.717,-768.567,0,0
238825.5,209.407,-766.096,0,0
239085.825,208.154,-763.562,0,0
239346.15,207.029,-761.309,0,0
239606.475,205.963,-759.069,0,0
239866.8,204.776,-756.905,0,0
240127.125,203.715,-754.837,0,0
240387.45,202.574,-752.909,0,0
240647.775,201.34,-751.016,0,0
240908.1,200.028,-749.14,0,0
241168.425,198.685,-747.347,0,0
241428.75,197.183,-745.559,0,0
241689.075,195.58,-743.682,0,0
241949.4,193.95,-741.701,0,0
242209.725,192.282,-739.526,0,0
242470.05,190.661,-737.329,0,0
242730.375,189.06,-734.977,0,0
242990.7,187.621,-732.579,0,0
243251.025,186.248,-730.117,0,0
243511.35,184.93,-727.705,0,0
243771.675,183.653,-725.144,0,0
244032.0,182.533,-722.625,0,0
244292.325,181.57,-720.038,0,0
244552.65,180.737,-717.523,0,0
244812.975,180.029,-715.197,0,0
245073.3,179.145,-713.133,0,0
245333.625,178.073,-710.884,0,0
245593.95,177.181,-708.573,0,0
245854.275,176.117,-706.196,0,0
246114.6,174.976,-703.62,0,0
246374.925,174.122,-700.963,0,0
246635.25,173.502,-698.126,0,0
246895.575,172.956,-695.438,0,0
247155.9,172.636,-692.703,0,0
247416.225,172.394,-690.179,0,0
247676.55,172.194,-687.707,0,0
247936.875,172.094,-685.348,0,0
248197.2,171.986,-683.058,0,0
248457.525,171.894,-680.88,0,0
248717.85,171.757,-678.758,0,0
248978.175,171.524,-676.613,0,0
249238.5,171.254,-674.354,0,0
249498.825,171.008,-672.113,0,0
249759.15,170.801,-669.686,0,0
250019.475,170.726,-667.173,0,0
250279.8,170.814,-664.67,0,0
250540,170.972,-662.173,0,0
250800,171.325,-659.732,0,0
251061,171.732,-657.193,0,0
251321,172.3,-654.708,0,0
251581,173.163,-652.204,0,0
251842,174.239,-649.887,0,0
252102,175.396,-647.708,0,0
252362,176.779,-645.748,0,0
252623,178.294,-644.096,0,0
252883,179.742,-642.81,0,0
253143,181.089,-641.807,0,0
253404,182.125,-641.02,0,0
253664,182.965,-640.299,0,0
253924,183.518,-639.569,0,0
254185,183.904,-638.73,0,0
254445,184.258,-637.792,0,0
254705,184.595,-636.69,0,0
254966,184.844,-635.445,0,0
255226,185.218,-634.192,0,0
255486,185.661,-632.696,0,0
255747,186.204,-631.229,0,0
256007,186.915,-629.634,0,0
256267,187.81,-628.144,0,0
256528,188.968,-626.754,0,0
256788,190.249,-625.596,0,0
257048,191.448,-624.684,0,0
257309,192.573,-623.833,0,0
257569,193.598,-623.036,0,0
257829,194.66,-622.199,0,0
258090,195.794,-621.349,0,0
258350,197.058,-620.657,0,0
258610,198.338,-620.056,0,0
258871,199.58,-619.639,0,0
259131,200.99,-619.22,0,0
259391,202.203,-619.025,0,0
259651,203.349,-618.954,0,0
259912,204.482,-619.002,0,0
260172,205.585,-619.111,0,0
260432,206.426,-619.281,0,0
260693,207.203,-619.425,0,0
260953,207.929,-619.473,0,0
261213,208.766,-619.609,0,0
261474,209.55,-619.848,0,0
261734,210.277,-620.186,0,0
261994,210.923,-620.571,0,0
262255,211.416,-621.025,0,0
262515,211.783,-621.522,0,0
262775,211.88,-621.936,0,0
263036,211.81,-622.147,0,0
263296,211.801,-622.059,0,0
263556,211.894,-621.832,0,0
263817,212.193,-621.581,0,0
264077,212.52,-621.357,0,0
264337,212.848,-621.087,0,0
264598,213.22,-620.846,0,0
264858,213.699,-620.397,0,0
265118,214.259,-619.939,0,0
265379,215.055,-619.42,0,0
265639,216.024,-618.887,0,0
265899,217.214,-618.397,0,0
266160,218.728,-618.018,0,0
266420,220.44,-617.853,0,0
266680.25,222.311,-617.871,0,0
266940.575,224.3,-618.236,0,0
267200.9,226.397,-618.852,0,0
267461.225,228.568,-619.758,0,0
267721.55,230.813,-620.967,0,0
267981.875,233.046,-622.602,0,0
268242.2,235.155,-624.665,0,0
268502.525,237.019,-626.926,0,0
268762.85,238.865,-629.562,0,0
269023.175,240.41,-632.509,0,0
269283.5,241.805,-635.9,0,0
269543.825,242.696,-639.494,0,0
269804.15,243.246,-643.196,0,0
270064.475,243.322,-647.017,0,0
270324.8,243.149,-651.045,0,0
270585.125,242.339,-654.839,0,0
270845.45,241.423,-658.725,0,0
271105.775,240.176,-662.571,0,0
271366.1,238.531,-666.435,0,0
271626.425,236.622,-670.123,0,0
271886.75,234.436,-673.721,0,0
272147.075,232.058,-677.331,0,0
272407.4,229.321,-680.899,0,0
272667.725,226.129,-684.454,0,0
272928.05,222.458,-687.793,0,0
273188.375,218.301,-690.742,0,0
273448.7,213.809,-693.327,0,0
273709.025,209.064,-695.386,0,0
273969.35,204.215,-696.913,0,0
274229.675,199.286,-698.016,0,0
274490.0,194.411,-698.681,0,0
274750.325,189.574,-698.962,0,0
275010.65,184.856,-698.805,0,0
275270.975,180.323,-698.395,0,0
275531.3,175.748,-697.621,0,0
275791.625,171.404,-696.528,0,0
276051.95,167.245,-695.203,0,0
276312.275,163.346,-693.539,0,0
276572.6,159.738,-691.683,0,0
276832.925,156.477,-689.732,0,0
277093.25,153.465,-687.743,0,0
277353.575,150.694,-685.772,0,0
277613.9,148.073,-683.816,0,0
277874.225,145.531,-681.898,0,0
278134.55,143.05,-679.94,0,0
278394.875,140.704,-677.94,0,0
278655.2,138.489,-675.833,0,0
278915.525,136.402,-673.714,0,0
279175.85,134.43,-671.565,0,0
279436.175,132.58,-669.411,0,0
279696.5,130.858,-667.191,0,0
279956.825,129.261,-664.954,0,0
280217.15,127.75,-662.654,0,0
280477.475,126.496,-660.309,0,0
280737.8,125.477,-658.046,0,0
280998.125,124.647,-655.792,0,0
281258.45,124.028,-653.772,0,0
281518.775,123.46,-652.016,0,0
281779.1,122.819,-650.359,0,0
282039.425,122.101,-648.779,0,0
282299.75,121.386,-647.152,0,0
282560,120.703,-645.529,0,0
282820,120.093,-643.908,0,0
283081,119.537,-642.299,0,0
283341,119.058,-640.741,0,0
283601,118.605,-639.256,0,0
283862,118.173,-637.781,0,0
284122,117.789,-636.291,0,0
284382,117.5,-634.775,0,0
284643,117.296,-633.347,0,0
284903,117.242,-631.993,0,0
285163,117.121,-630.768,0,0
285424,117.128,-629.532,0,0
285684,117.196,-628.33,0,0
285944,117.428,-627.286,0,0
286205,117.736,-626.395,0,0
286465,118.116,-625.693,0,0
286725,118.5,-625.219,0,0
286986,118.812,-625.017,0,0
287246,118.993,-625.057,0,0
287506,118.971,-625.241,0,0
287767,118.735,-625.56,0,0
288027,118.261,-625.938,0,0
288287,117.553,-626.305,0,0
288548,116.625,-626.575,0,0
288808,115.574,-626.751,0,0
289068,114.417,-626.819,0,0
289329,113.173,-626.781,0,0
289589,111.895,-626.627,0,0
289849,110.541,-626.421,0,0
290109,109.177,-626.102,0,0
290370,107.81,-625.737,0,0
290630,106.383,-625.284,0,0
290890,104.978,-624.711,0,0
291151,103.632,-624.09,0,0
291411,102.318,-623.441,0,0
291671,101.016,-622.772,0,0
291932,99.6814,-622.182,0,0
292192,98.2924,-621.56,0,0
292452,96.8301,-620.921,0,0
292713,95.2683,-620.185,0,0
292973,93.6977,-619.325,0,0
293233,92.0539,-618.382,0,0
293494,90.4581,-617.302,0,0
293754,88.8725,-616.084,0,0
294014,87.3716,-614.794,0,0
294275,85.9143,-613.374,0,0
294535,84.581,-611.914,0,0
294795,83.3267,-610.391,0,0
295056,82.165,-608.833,0,0
295316,81.0824,-607.319,0,0
295576,80.0598,-605.781,0,0
295837,79.085,-604.245,0,0
296097,78.1493,-602.713,0,0
296357,77.2502,-601.177,0,0
296618,76.3913,-599.604,0,0
296878,75.5855,-598.064,0,0
297138,74.8123,-596.474,0,0
297399,74.0888,-594.911,0,0
297659,73.4,-593.325,0,0
297919,72.7868,-591.753,0,0
298180,72.1767,-590.192,0,0
298440,71.6212,-588.612,0,0
298700.2,71.1016,-587.06,0,0
298960.525,70.6227,-585.475,0,0
299220.85,70.1877,-583.904,0,0
299481.175,69.8319,-582.35,0,0
299741.5,69.53,-580.821,0,0
300001.825,69.2471,-579.313,0,0
300262.15,68.9835,-577.822,0,0
300522.475,68.7547,-576.384,0,0
300782.8,68.5507,-574.96,0,0
301043.125,68.363,-573.556,0,0
301303.45,68.1953,-572.123,0,0
301563.775,68.0276,-570.704,0,0
301824.1,67.9702,-569.285,0,0
302084.425,67.9435,-567.881,0,0
302344.75,67.9643,-566.526,0,0
302605.075,68.0353,-565.196,0,0
302865.4,68.1628,-563.938,0,0
303125.725,68.3021,-562.706,0,0
303386.05,68.4629,-561.549,0,0
303646.375,68.6467,-560.454,0,0
303906.7,68.8411,-559.402,0,0
304167.025,69.0034,-558.427,0,0
304427.35,69.1748,-557.499,0,0
304687.675,69.3475,-556.616,0,0
304948.0,69.4506,-555.783,0,0
305208.325,69.533,-554.941,0,0
305468.65,69.5991,-554.123,0,0
305728.975,69.6286,-553.318,0,0
305989.3,69.6732,-552.507,0,0
306249.625,69.7213,-551.689,0,0
306509.95,69.8014,-550.874,0,0
306770.275,69.8999,-550.106,0,0
307030.6,70.0097,-549.379,0,0
307290.925,70.0998,-548.708,0,0
307551.25,70.1853,-548.077,0,0
307811.575,70.2314,-547.476,0,0
308071.9,70.2478,-546.902,0,0
308332.225,70.2539,-546.337,0,0
308592.55,70.232,-545.807,0,0
308852.875,70.2029,-545.305,0,0
309113.2,70.1222,-544.844,0,0
309373.525,69.9785,-544.367,0,0
309633.85,69.7982,-543.919,0,0
309894.175,69.5912,-543.471,0,0
310154.5,69.3007,-542.992,0,0
310414.825,68.989,-542.456,0,0
310675.15,68.6703,-541.885,0,0
310935.475,68.3813,-541.308,0,0
311195.8,68.0898,-540.694,0,0
311456.125,67.817,-540.095,0,0
311716.45,67.5467,-539.49,0,0
311976.775,67.2835,-538.884,0,0
312237.1,66.9584,-538.362,0,0
312497.425,66.6338,-537.774,0,0
312757.75,66.3173,-537.179,0,0
313018.075,65.9576,-536.573,0,0
313278.4,65.6186,-535.961,0,0
313538.725,65.2496,-535.346,0,0
313799.05,64.8746,-534.727,0,0
314059.375,64.4911,-534.101,0,0
314319.7,64.0405,-533.446,0,0
314580,63.6428,-532.761,0,0
314840,63.135,-532.063,0,0
315101,62.7286,-531.269,0,0
315361,62.2961,-530.388,0,0
315621,61.8959,-529.538,0,0
315882,61.5742,-528.704,0,0
316142,61.2775,-527.75,0,0
316402,61.0398,-526.922,0,0
316663,60.8183,-525.995,0,0
316923,60.629,-525.183,0,0
317183,60.4047,-524.231,0,0
317444,60.3079,-523.41,0,0
317704,60.1833,-522.522,0,0
317964,60.1068,-521.725,0,0
318225,60.1415,-520.944,0,0
318485,60.1129,-520.296,0,0
318745,60.0594,-519.524,0,0
319006,60.046,-518.886,0,0
319266,60.0094,-518.281,0,0
319526,59.9791,-517.67,0,0
319787,59.8576,-517.092,0,0
320047,59.7529,-516.53,0,0
320307,59.6936,-516.004,0,0
320567,59.6049,-515.487,0,0
320828,59.5109,-514.999,0,0
321088,59.3431,-514.453,0,0
321348,59.1439,-514.027,0,0
321609,59.0155,-513.543,0,0
321869,58.7984,-513.165,0,0
322129,58.4559,-512.674,0,0
322390,58.2499,-512.245,0,0
322650,57.9079,-511.804,0,0
322910,57.6129,-511.231,0,0
323171,57.2577,-510.688,0,0
323431,56.9543,-510.193,0,0
323691,56.6061,-509.635,0,0
323952,56.2655,-509.137,0,0
324212,55.892,-508.7,0,0
324472,55.5818,-508.213,0,0
324733,55.082,-507.636,0,0
324993,54.6543,-507.119,0,0
325253,54.2148,-506.562,0,0
325514,53.7121,-505.949,0,0
325774,53.1567,-505.296,0,0
326034,52.743,-504.59,0,0
326295,52.306,-503.869,0,0
326555,51.887,-503.113,0,0
326815,51.4797,-502.43,0,0
327076,51.0432,-501.639,0,0
327336,50.7179,-500.916,0,0
327596,50.3063,-500.183,0,0
327857,49.9211,-499.364,0,0
328117,49.5741,-498.62,0,0
328377,49.2075,-497.85,0,0
328638,48.8408,-497.057,0,0
328898,48.4881,-496.224,0,0
329158,48.1275,-495.412,0,0
329419,47.8436,-494.595,0,0
329679,47.5332,-493.793,0,0
329939,47.2504,-492.964,0,0
330200,46.9143,-492.106,0,0
330460,46.6797,-491.247,0,0
330720.15,46.3765,-490.396,0,0
330980.475,46.1179,-489.551,0,0
331240.8,45.9019,-488.736,0,0
331501.125,45.7016,-487.845,0,0
331761.45,45.4821,-487.021,0,0
332021.775,45.2411,-486.16,0,0
332282.1,45.0469,-485.311,0,0
332542.425,44.8676,-484.463,0,0
332802.75,44.6728,-483.602,0,0
333063.075,44.5074,-482.756,0,0
333323.4,44.3313,-481.89,0,0
333583.725,44.2436,-480.996,0,0
333844.05,44.1179,-480.194,0,0
334104.375,44.0318,-479.305,0,0
334364.7,43.9327,-478.47,0,0
334625.025,43.9675,-477.648,0,0
334885.35,43.8396,-476.735,0,0
335145.675,43.8159,-475.991,0,0
335406.0,43.8517,-475.132,0,0
335666.325,43.7644,-474.376,0,0
335926.65,43.7778,-473.622,0,0
336186.975,43.8219,-472.974,0,0
336447.3,43.8217,-472.223,0,0
336707.625,43.8006,-471.539,0,0
336967.95,43.8458,-470.849,0,0
337228.275,43.8327,-470.19,0,0
337488.6,43.7773,-469.498,0,0
337748.925,43.788,-468.848,0,0
338009.25,43.7799,-468.216,0,0
338269.575,43.7084,-467.6,0,0
338529.9,43.6228,-466.992,0,0
338790.225,43.5953,-466.327,0,0
339050.55,43.5549,-465.668,0,0
339310.875,43.5121,-465.106,0,0
339571.2,43.3855,-464.521,0,0
339831.525,43.3056,-463.871,0,0
340091.85,43.2311,-463.287,0,0
340352.175,43.1583,-462.634,0,0
340612.5,43.0324,-462.034,0,0
340872.825,42.8853,-461.427,0,0
341133.15,42.7778,-460.872,0,0
341393.475,42.6032,-460.207,0,0
341653.8,42.4978,-459.617,0,0
341914.125,42.3395,-458.929,0,0
342174.45,42.2429,-458.293,0,0
342434.775,42.0986,-457.687,0,0
342695.1,41.8833,-456.971,0,0
342955.425,41.7673,-456.31,0,0
343215.75,41.6204,-455.607,0,0
343476.075,41.4792,-454.946,0,0
343736.4,41.3768,-454.227,0,0
343996.725,41.219,-453.528,0,0
344257.05,41.0761,-452.782,0,0
344517.375,40.9736,-452.07,0,0
344777.7,40.8458,-451.314,0,0
345038.025,40.7882,-450.551,0,0
345298.35,40.7294,-449.849,0,0
345558.675,40.6435,-449.112,0,0
345819.0,40.5547,-448.371,0,0
346079.325,40.478,-447.658,0,0
346339.65,40.4533,-446.903,0,0
346599.975,40.3908,-446.127,0,0
346860,40.3614,-445.375,0,0
347121,40.3041,-444.621,0,0
347381,40.3537,-443.89,0,0
347641,40.3509,-443.171,0,0
347902,40.3922,-442.385,0,0
348162,40.4712,-441.686,0,0
348422,40.4757,-440.989,0,0
348683,40.552,-440.264,0,0
348943,40.5837,-439.551,0,0
349203,40.6449,-438.848,0,0
349464,40.7071,-438.184,0,0
349724,40.759,-437.436,0,0
349984,40.8845,-436.798,0,0
350245,40.96,-436.156,0,0
350505,41.0473,-435.509,0,0
350765,41.165,-434.904,0,0
351025,41.2721,-434.235,0,0
351286,41.3419,-433.639,0,0
351546,41.4903,-433.031,0,0
351806,41.5522,-432.405,0,0
352067,41.6838,-431.838,0,0
352327,41.7611,-431.237,0,0
352587,41.7886,-430.712,0,0
352848,41.8902,-430.13,0,0
353108,41.9631,-429.574,0,0
353368,41.9982,-429.001,0,0
353629,42.085,-428.439,0,0
353889,42.1784,-427.865,0,0
354149,42.2665,-427.265,0,0
354410,42.3693,-426.712,0,0
354670,42.4325,-426.22,0,0
354930,42.5009,-425.621,0,0
355191,42.5972,-425.122,0,0
355451,42.6992,-424.589,0,0
355711,42.7222,-424.102,0,0
355972,42.79,-423.6,0,0
356232,42.88,-423.092,0,0
356492,42.9563,-422.647,0,0
356753,43.0026,-422.154,0,0
357013,43.0455,-421.669,0,0
357273,43.0604,-421.193,0,0
357534,43.0393,-420.723,0,0
357794,43.0238,-420.273,0,0
358054,43.0082,-419.772,0,0
358315,42.965,-419.242,0,0
358575,42.9264,-418.764,0,0
358835,42.9246,-418.221,0,0
359096,42.8682,-417.723,0,0
359356,42.8623,-417.109,0,0
359616,42.8517,-416.536,0,0
359877,42.8004,-416.039,0,0
360137,42.7923,-415.427,0,0
360397,42.7988,-414.776,0,0
360658,42.8137,-414.253,0,0
360918,42.8229,-413.684,0,0
361178,42.78,-413.104,0,0
361438,42.799,-412.5,0,0
361699,42.8136,-411.908,0,0
361959,42.8454,-411.352,0,0
362219,42.8689,-410.722,0,0
362480,42.9136,-410.11,0,0
362740.1,42.9299,-409.489,0,0
363000.425,42.9748,-408.932,0,0
363260.75,43.044,-408.269,0,0
363521.075,43.1362,-407.664,0,0
363781.4,43.2281,-407.015,0,0
364041.725,43.3092,-406.43,0,0
364302.05,43.4907,-405.778,0,0
364562.375,43.6336,-405.15,0,0
364822.7,43.7868,-404.601,0,0
365083.025,43.921,-404.018,0,0
365343.35,44.1256,-403.412,0,0
365603.675,44.2868,-402.842,0,0
365864.0,44.5051,-402.309,0,0
366124.325,44.7303,-401.767,0,0
366384.65,44.9511,-401.239,0,0
366644.975,45.1118,-400.733,0,0
366905.3,45.331,-400.258,0,0
367165.625,45.5509,-399.803,0,0
367425.95,45.7578,-399.324,0,0
367686.275,45.976,-398.89,0,0
367946.6,46.1073,-398.446,0,0
368206.925,46.3086,-398.018,0,0
368467.25,46.4992,-397.567,0,0
368727.575,46.664,-397.112,0,0
368987.9,46.8179,-396.704,0,0
369248.225,47.0131,-396.233,0,0
369508.55,47.2172,-395.767,0,0
369768.875,47.4133,-395.355,0,0
370029.2,47.665,-394.942,0,0
370289.525,47.9282,-394.545,0,0
370549.85,48.1761,-394.17,0,0
370810.175,48.4326,-393.784,0,0
371070.5,48.7091,-393.507,0,0
371330.825,48.9421,-393.229,0,0
371591.15,49.178,-392.98,0,0
371851.475,49.3932,-392.715,0,0
372111.8,49.5649,-392.485,0,0
372372.125,49.7299,-392.311,0,0
372632.45,49.8509,-392.114,0,0
372892.775,49.9674,-391.926,0,0
373153.1,50.0804,-391.759,0,0
373413.425,50.1037,-391.565,0,0
373673.75,50.1253,-391.414,0,0
373934.075,50.1151,-391.247,0,0
374194.4,50.0393,-391.022,0,0
374454.725,50.0126,-390.771,0,0
374715.05,49.9074,-390.492,0,0
374975.375,49.8655,-390.17,0,0
375235.7,49.7986,-389.86,0,0
375496.025,49.7566,-389.521,0,0
375756.35,49.7249,-389.17,0,0
376016.675,49.7254,-388.839,0,0
376277.0,49.6911,-388.505,0,0
376537.325,49.7143,-388.133,0,0
376797.65,49.7589,-387.783,0,0
377057.975,49.7665,-387.473,0,0
377318.3,49.7903,-387.178,0,0
377578.625,49.8399,-386.85,0,0
377838.95,49.8041,-386.621,0,0
378099.275,49.8179,-386.373,0,0
378359.6,49.7659,-386.119,0,0
378619.925,49.6735,-385.813,0,0
378880,49.5544,-385.562,0,0
379141,49.4533,-385.146,0,0
379401,49.3445,-384.749,0,0
379661,49.2699,-384.324,0,0
379922,49.231,-383.866,0,0
380182,49.2394,-383.441,0,0
380442,49.3872,-382.986,0,0
380703,49.5271,-382.638,0,0
380963,49.7028,-382.31,0,0
381223,49.9218,-382.043,0,0
381483,50.0989,-381.938,0,0
381744,50.2015,-381.888,0,0
382004,50.1957,-381.929,0,0
382264,50.1104,-381.98,0,0
382525,49.8925,-381.981,0,0
382785,49.5779,-381.905,0,0
383045,49.2394,-381.764,0,0
383306,48.841,-381.54,0,0
383566,48.4331,-381.29,0,0
383826,48.0616,-380.934,0,0
384087,47.6961,-380.558,0,0
384347,47.3016,-380.149,0,0
384607,47.0041,-379.662,0,0
384868,46.6605,-379.179,0,0
385128,46.3951,-378.66,0,0
385388,46.1258,-378.13,0,0
385649,45.8401,-377.586,0,0
385909,45.6359,-377.03,0,0
386169,45.4343,-376.444,0,0
386430,45.1896,-375.841,0,0
386690,45.0595,-375.242,0,0
386950,44.8851,-374.636,0,0
387211,44.772,-374.031,0,0
387471,44.6675,-373.45,0,0
387731,44.5604,-372.824,0,0
387992,44.4872,-372.218,0,0
388252,44.4355,-371.601,0,0
388512,44.3785,-371.02,0,0
388773,44.3849,-370.405,0,0
389033,44.3765,-369.8,0,0
389293,44.3708,-369.244,0,0
389554,44.4073,-368.648,0,0
389814,44.4087,-368.107,0,0
390074,44.5147,-367.553,0,0
390335,44.5212,-367.012,0,0
390595,44.5835,-366.554,0,0
390855,44.6522,-366.057,0,0
391116,44.6563,-365.601,0,0
391376,44.6611,-365.109,0,0
391636,44.6969,-364.609,0,0
391896,44.6418,-364.129,0,0
392157,44.6979,-363.683,0,0
392417,44.6713,-363.207,0,0
392677,44.6548,-362.709,0,0
392938,44.6365,-362.226,0,0
393198,44.6432,-361.743,0,0
393458,44.6414,-361.251,0,0
393719,44.6082,-360.727,0,0
393979,44.6155,-360.237,0,0
394239,44.5907,-359.686,0,0
394500,44.6139,-359.165,0,0
394760.05,44.612,-358.656,0,0
395020.375,44.6628,-358.118,0,0
395280.7,44.6715,-357.58,0,0
395541.025,44.7254,-357.069,0,0
395801.35,44.744,-356.544,0,0
396061.675,44.7832,-356.014,0,0
396322.0,44.8545,-355.502,0,0
396582.325,44.9389,-355.028,0,0
396842.65,45.0053,-354.506,0,0
397102.975,45.0802,-354.009,0,0
397363.3,45.1279,-353.523,0,0
397623.625,45.215,-353.055,0,0
397883.95,45.3026,-352.552,0,0
398144.275,45.3575,-352.096,0,0
398404.6,45.3978,-351.634,0,0
398664.925,45.4625,-351.187,0,0
398925.25,45.5391,-350.701,0,0
399185.575,45.579,-350.264,0,0
399445.9,45.5938,-349.769,0,0
399706.225,45.6515,-349.312,0,0
399966.55,45.6714,-348.824,0,0
400006.6,45.6799,-348.776,0,0