File: Accelerated corrosion test data/2025-09-30_18-00-03/sample_3.csv
Frequency (Hz),Impedance (ohms),Phase (Radians),Temperature (C),Humidity (%)
10000.0,255.136,-11689.6,0,0
10260.325,249.075,-11395.1,0,0
10520.65,242.863,-11114.8,0,0
10780.975,238.704,-10847.3,0,0
11041.3,232.945,-10597.9,0,0
11301.625,227.329,-10354.7,0,0
11561.95,222.61,-10123.1,0,0
11822.275,217.695,-9901.21,0,0
12082.6,215.021,-9689.53,0,0
12342.925,211.883,-9486.22,0,0
12603.25,205.881,-9293.28,0,0
12863.575,202.172,-9105.65,0,0
13123.9,202.025,-8923.83,0,0
13384.225,195.315,-8756.26,0,0
13644.55,192.047,-8590.4,0,0
13904.875,188.441,-8428.69,0,0
14165.2,187.1,-8272.31,0,0
14425.525,182.856,-8124.73,0,0
14685.8,180.736,-7982.59,0,0
14946.175,178.856,-7844.79,0,0
15206.5,175.068,-7705.77,0,0
15466.825,177.874,-7570.23,0,0
15727.15,198.695,-7459.06,0,0
15987.5,176.214,-7354.26,0,0
16247.8,169.784,-7226.35,0,0
16508.125,164.226,-7115.34,0,0
16768.45,165.111,-6995.62,0,0
17028.775,160.153,-6898.5,0,0
17289.1,162.6,-6786.14,0,0
17549.425,158.312,-6694.08,0,0
17809.75,159.498,-6591.28,0,0
18070.075,164.401,-6502.28,0,0
18330.4,152.654,-6413.26,0,0
18590.725,150.463,-6321.05,0,0
18851.05,146.629,-6232.18,0,0
19111.375,147.492,-6142.87,0,0
19371.7,147.049,-6061.07,0,0
19632.025,147.725,-5979.32,0,0
19892.35,149.179,-5897.23,0,0
20152.675,150.191,-5825.74,0,0
20413.0,157.77,-5745.8,0,0
20673.3,163.561,-5677.41,0,0
20933.65,163.854,-5628.01,0,0
21193.975,162.994,-5563.96,0,0
21454.3,145.982,-5501.53,0,0
21714.625,139.258,-5427.39,0,0
21974.9,144.041,-5362.29,0,0
22235.275,140.002,-5303.35,0,0
22495.6,139.838,-5242.6,0,0
22755.925,130.794,-5183.07,0,0
23016.25,129.469,-5124.52,0,0
23276.6,129.29,-5062.67,0,0
23536.9,130.375,-5017.04,0,0
23797.225,122.782,-4959.24,0,0
24057.55,120.798,-4902.54,0,0
24317.875,120.205,-4847.54,0,0
24578.2,118.482,-4797.38,0,0
24838.525,119.757,-4745.02,0,0
25098.85,117.833,-4699.83,0,0
25359.175,115.801,-4650.43,0,0
25619.5,114.159,-4602.75,0,0
25879.8,112.385,-4556.48,0,0
26140.1,109.811,-4509.27,0,0
26400.5,109.059,-4463.21,0,0
26660.8,109.075,-4418.95,0,0
26921.1,109.752,-4374.31,0,0
27181.4,109.041,-4334.37,0,0
27441.8,108.128,-4290.56,0,0
27702.1,109.729,-4251.5,0,0
27962.4,106.238,-4212.79,0,0
28222.7,104.751,-4169.63,0,0
28483.1,111.492,-4128.3,0,0
28743.4,114.503,-4094.6,0,0
29003.7,114.37,-4062.5,0,0
29264,107.701,-4028.97,0,0
29524.4,110.843,-3992.57,0,0
29784.7,105.908,-3959.23,0,0
30045,103.86,-3925.8,0,0
30305.3,101.259,-3888.9,0,0
30565.7,103.825,-3855.95,0,0
30826,101.555,-3822.4,0,0
31086.3,103.486,-3791.2,0,0
31346.6,99.2322,-3760.68,0,0
31607,98.2923,-3726.6,0,0
31867.3,99.0691,-3693.12,0,0
32127.6,102.168,-3660.62,0,0
32387.9,108.832,-3631.58,0,0
32648.3,112.073,-3614.17,0,0
32908.6,103.547,-3589.15,0,0
33168.9,102.213,-3560.94,0,0
33429.2,100.331,-3535.57,0,0
33689.6,95.5226,-3508.5,0,0
33949.9,92.2432,-3479.64,0,0
34210.2,91.8252,-3451.71,0,0
34470.5,91.0119,-3425.76,0,0
34730.9,88.9372,-3399.33,0,0
34991.2,87.7227,-3373.08,0,0
35251.5,87.1798,-3347.6,0,0
35511.8,85.7745,-3322.51,0,0
35772.2,85.4343,-3297.5,0,0
36032.5,84.4619,-3272.88,0,0
36292.8,83.9664,-3248.83,0,0
36553.1,83.5994,-3225,0,0
36813.5,82.8715,-3201.9,0,0
37073.8,82.2384,-3178.94,0,0
37334.1,81.3386,-3156.23,0,0
37594.4,81.1037,-3133.85,0,0
37854.8,80.735,-3111.52,0,0
38115.1,79.9656,-3090.04,0,0
38375.4,79.7883,-3068.43,0,0
38635.7,79.2078,-3047.12,0,0
38896.1,78.9473,-3026.27,0,0
39156.4,78.3072,-3005.65,0,0
39416.7,77.9311,-2985.65,0,0
39677,77.5512,-2965.78,0,0
39937.4,76.7557,-2945.62,0,0
40197.7,76.8372,-2925.71,0,0
40458,76.2341,-2906.6,0,0
40718.3,75.743,-2887.41,0,0
40978.7,75.4451,-2868.38,0,0
41239,75.2545,-2849.46,0,0
41499.3,75.0277,-2831.32,0,0
41759.6,75.1541,-2813.21,0,0
42020,74.719,-2795.54,0,0
42280.275,74.9411,-2777.82,0,0
42540.6,74.4687,-2760.49,0,0
42800.925,73.9805,-2743.63,0,0
43061.25,73.6142,-2726.45,0,0
43321.575,73.1362,-2709.76,0,0
43581.9,72.6888,-2692.37,0,0
43842.225,72.8132,-2675.55,0,0
44102.55,72.5238,-2659.52,0,0
44362.875,72.6789,-2643.78,0,0
44623.2,72.4579,-2627.97,0,0
44883.525,71.9841,-2612.4,0,0
45143.85,71.5447,-2596.72,0,0
45404.175,71.351,-2581.02,0,0
45664.5,71.1722,-2565.56,0,0
45924.825,71.8184,-2550.64,0,0
46185.15,71.231,-2536.46,0,0
46445.475,70.9722,-2521.46,0,0
46705.8,70.8596,-2506.7,0,0
46966.125,71.0897,-2492.19,0,0
47226.45,70.4992,-2478.21,0,0
47486.775,70.4931,-2463.75,0,0
47747.1,71.1212,-2449.45,0,0
48007.425,71.3849,-2436.62,0,0
48267.75,71.4324,-2424.11,0,0
48528.075,70.4478,-2410.58,0,0
48788.4,70.2359,-2397.68,0,0
49048.725,69.4805,-2384.77,0,0
49309.05,68.9493,-2371.13,0,0
49569.375,68.7522,-2357.96,0,0
49829.7,68.6553,-2345.27,0,0
50090.025,68.0233,-2332.61,0,0
50350.35,67.5387,-2319.93,0,0
50610.675,67.518,-2306.93,0,0
50871.0,67.5406,-2294.38,0,0
51131.325,67.4192,-2282.2,0,0
51391.65,67.2376,-2269.86,0,0
51651.975,67.1465,-2257.92,0,0
51912.3,67.286,-2246.01,0,0
52172.625,67.0761,-2234.1,0,0
52432.95,66.9996,-2221.92,0,0
52693.275,67.343,-2210.02,0,0
52953.6,67.7682,-2198.37,0,0
53213.925,68.581,-2186.96,0,0
53474.25,69.2117,-2176.49,0,0
53734.575,69.2982,-2165.65,0,0
53994.9,69.6554,-2154.69,0,0
54255.225,70.7202,-2144.41,0,0
54515.55,71.5905,-2135.17,0,0
54775.875,70.8283,-2126.41,0,0
55036.2,69.867,-2116.31,0,0
55296.525,69.299,-2106.96,0,0
55556.85,67.8459,-2097.78,0,0
55817.175,66.2651,-2086.75,0,0
56077.5,65.1805,-2076.6,0,0
56337.825,64.421,-2066.09,0,0
56598.15,63.3794,-2055.55,0,0
56858.475,62.6174,-2044.85,0,0
57118.8,62.314,-2034.18,0,0
57379.125,62.2884,-2023.61,0,0
57639.45,62.0776,-2013.36,0,0
57899.775,62.2752,-2003.19,0,0
58160.1,62.2107,-1993.34,0,0
58420.4,62.1875,-1983.32,0,0
58680.7,62.2997,-1973.45,0,0
58941.1,62.3296,-1963.75,0,0
59201.4,62.4356,-1954,0,0
59461.7,62.8786,-1944.45,0,0
59722,63.1521,-1935.06,0,0
59982.4,63.3205,-1925.71,0,0
60242.7,63.6027,-1916.47,0,0
60503,63.8209,-1907.25,0,0
60763.3,64.2396,-1897.98,0,0
61023.7,64.648,-1888.95,0,0
61284,65.1669,-1880.03,0,0
61544.3,66.0018,-1871.2,0,0
61804.6,66.1935,-1862.86,0,0
62065,66.6137,-1853.85,0,0
62325.3,67.027,-1845.08,0,0
62585.6,67.7236,-1836.37,0,0
62845.9,68.3366,-1827.46,0,0
63106.3,69.5619,-1819.08,0,0
63366.6,70.2039,-1810.77,0,0
63626.9,71.3144,-1802.05,0,0
63887.2,72.8223,-1793.47,0,0
64147.6,74.852,-1785.4,0,0
64407.9,76.7425,-1777.67,0,0
64668.2,79.0936,-1770.03,0,0
64928.5,81.8739,-1762.48,0,0
65188.9,85.4961,-1756.6,0,0
65449.2,88.6597,-1752.13,0,0
65709.5,90.2585,-1747.75,0,0
65969.8,93.395,-1745.37,0,0
66230.2,92.1095,-1745.51,0,0
66490.5,87.5715,-1742.54,0,0
66750.8,81.748,-1737.41,0,0
67011.1,78.5684,-1727.65,0,0
67271.5,77.6227,-1719.98,0,0
67531.8,75.8583,-1712.17,0,0
67792.1,75.512,-1704.06,0,0
68052.4,75.8128,-1696.13,0,0
68312.8,76.9728,-1689.17,0,0
68573.1,76.9703,-1683.42,0,0
68833.4,76.6651,-1676.97,0,0
69093.7,76.9983,-1670.89,0,0
69354.1,77.0847,-1665.1,0,0
69614.4,76.7041,-1659.91,0,0
69874.7,75.7894,-1654.22,0,0
70135,74.6029,-1648.7,0,0
70395.4,73.4103,-1642.47,0,0
70655.7,72.2954,-1636.27,0,0
70916,71.0808,-1629.84,0,0
71176.3,70.2721,-1623.1,0,0
71436.7,69.5103,-1616.71,0,0
71697,68.8745,-1609.77,0,0
71957.3,68.7796,-1603.06,0,0
72217.6,68.7979,-1596.96,0,0
72478,68.7645,-1590.76,0,0
72738.3,68.6517,-1584.94,0,0
72998.6,68.4173,-1579.32,0,0
73258.9,67.833,-1573.73,0,0
73519.3,67.3481,-1567.94,0,0
73779.6,66.7932,-1562.17,0,0
74039.9,66.1941,-1556.62,0,0
74300.225,65.5089,-1550.95,0,0
74560.55,64.8035,-1545.13,0,0
74820.875,64.0233,-1539.35,0,0
75081.2,63.3242,-1533.43,0,0
75341.525,62.7064,-1527.66,0,0
75601.85,62.0824,-1521.83,0,0
75862.175,61.417,-1515.97,0,0
76122.5,60.7301,-1510.05,0,0
76382.825,60.2021,-1504.14,0,0
76643.15,59.6752,-1498.27,0,0
76903.475,59.2821,-1492.4,0,0
77163.8,58.9635,-1486.62,0,0
77424.125,58.5582,-1480.91,0,0
77684.45,58.1368,-1475.29,0,0
77944.775,57.5893,-1469.58,0,0
78205.1,57.2796,-1463.91,0,0
78465.425,56.8125,-1458.24,0,0
78725.75,56.4701,-1452.66,0,0
78986.075,56.1393,-1446.97,0,0
79246.4,55.824,-1441.39,0,0
79506.725,55.5976,-1435.79,0,0
79767.05,55.3054,-1430.23,0,0
80027.375,55.0215,-1424.7,0,0
80287.7,54.8272,-1419.18,0,0
80548.025,54.6388,-1413.76,0,0
80808.35,54.4506,-1408.36,0,0
81068.675,54.2495,-1402.99,0,0
81329.0,54.0513,-1397.61,0,0
81589.325,53.9652,-1392.31,0,0
81849.65,53.8499,-1386.97,0,0
82109.975,53.7288,-1381.71,0,0
82370.3,53.6101,-1376.38,0,0
82630.625,53.5606,-1371.18,0,0
82890.95,53.4749,-1365.99,0,0
83151.275,53.4169,-1360.81,0,0
83411.6,53.3586,-1355.71,0,0
83671.925,53.3233,-1350.63,0,0
83932.25,53.3702,-1345.51,0,0
84192.575,53.3153,-1340.49,0,0
84452.9,53.3093,-1335.54,0,0
84713.225,53.2136,-1330.52,0,0
84973.55,53.2253,-1325.61,0,0
85233.875,53.2772,-1320.61,0,0
85494.2,53.3183,-1315.65,0,0
85754.525,53.3619,-1310.72,0,0
86014.85,53.3306,-1305.91,0,0
86275.175,53.4568,-1301.19,0,0
86535.5,53.5074,-1296.32,0,0
86795.825,53.5663,-1291.5,0,0
87056.15,53.6265,-1286.68,0,0
87316.475,53.6954,-1281.7,0,0
87576.8,53.8946,-1277.26,0,0
87837.125,54.0458,-1272.36,0,0
88097.45,54.2052,-1267.72,0,0
88357.775,54.6008,-1263.16,0,0
88618.1,54.3664,-1258.1,0,0
88878.425,54.733,-1253.45,0,0
89138.75,55.101,-1248.71,0,0
89399.075,55.6652,-1243.93,0,0
89659.4,56.1505,-1239.44,0,0
89919.725,56.6958,-1235.04,0,0
90180,57.2356,-1230.75,0,0
90440.4,57.68,-1226.55,0,0
90700.7,58.0074,-1222.21,0,0
90961,58.571,-1217.9,0,0
91221.3,59.1584,-1213.63,0,0
91481.7,59.8392,-1209.58,0,0
91742,60.4763,-1205.5,0,0
92002.3,61.114,-1201.52,0,0
92262.6,61.8375,-1197.61,0,0
92523,62.7081,-1193.93,0,0
92783.3,63.3236,-1190.48,0,0
93043.6,63.852,-1186.8,0,0
93303.9,64.6569,-1183.41,0,0
93564.3,65.2884,-1180.16,0,0
93824.6,65.8736,-1177.3,0,0
94084.9,66.1937,-1174.59,0,0
94345.2,66.1954,-1171.95,0,0
94605.6,66.1002,-1169.45,0,0
94865.9,65.5709,-1167.05,0,0
95126.2,64.0137,-1164.59,0,0
95386.5,62.2173,-1160.91,0,0
95646.9,60.9118,-1156.64,0,0
95907.2,60.1736,-1152.31,0,0
96167.5,59.6495,-1148.02,0,0
96427.8,59.2951,-1143.54,0,0
96688.2,59.2859,-1139.57,0,0
96948.5,59.351,-1135.42,0,0
97208.8,59.2748,-1131.52,0,0
97469.1,59.3056,-1127.6,0,0
97729.5,59.3283,-1123.85,0,0
97989.8,59.2515,-1120.16,0,0
98250.1,59.2855,-1116.44,0,0
98510.4,59.2869,-1112.85,0,0
98770.8,59.0267,-1109.17,0,0
99031.1,58.8639,-1105.58,0,0
99291.4,58.6896,-1101.93,0,0
99551.7,58.4261,-1098.35,0,0
99812.1,58.0738,-1094.48,0,0
100072,57.8486,-1090.65,0,0
100333,57.7262,-1086.83,0,0
100593,57.4109,-1083.03,0,0
100853,57.2177,-1078.98,0,0
101114,57.1616,-1074.93,0,0
101374,57.0251,-1070.8,0,0
101634,57.2102,-1066.61,0,0
101895,57.5037,-1062.55,0,0
102155,57.8224,-1058.48,0,0
102415,58.3713,-1054.32,0,0
102676,59.2642,-1050.33,0,0
102936,60.2835,-1046.79,0,0
103196,61.057,-1043.5,0,0
103457,61.679,-1040.18,0,0
103717,62.3803,-1036.92,0,0
103977,63.0102,-1033.61,0,0
104238,64.0329,-1030.38,0,0
104498,65.1373,-1027.83,0,0
104758,65.6875,-1025.77,0,0
105019,65.6565,-1023.53,0,0
105279,65.4168,-1021.04,0,0
105539,65.2639,-1018.34,0,0
105800,65.1324,-1015.77,0,0
106060,64.5961,-1013.32,0,0
106320.175,63.7781,-1010.41,0,0
106580.5,63.2047,-1007.36,0,0
106840.825,62.5734,-1004.25,0,0
107101.15,61.9265,-1001.04,0,0
107361.475,61.2802,-997.694,0,0
107621.8,60.7712,-994.115,0,0
107882.125,60.249,-990.576,0,0
108142.45,59.907,-986.928,0,0
108402.775,59.6652,-983.375,0,0
108663.1,59.2547,-979.741,0,0
108923.425,58.9957,-975.989,0,0
109183.75,58.8388,-972.14,0,0
109444.075,58.8146,-968.335,0,0
109704.4,58.9342,-964.478,0,0
109964.725,59.1174,-960.862,0,0
110225.05,59.1964,-957.049,0,0
110485.375,59.5056,-953.249,0,0
110745.7,59.999,-949.393,0,0
111006.025,60.5527,-945.746,0,0
111266.35,61.4326,-942.444,0,0
111526.675,61.916,-938.999,0,0
111787.0,62.3677,-935.788,0,0
112047.325,62.8706,-932.562,0,0
112307.65,63.3488,-929.331,0,0
112567.975,63.8451,-926.183,0,0
112828.3,64.1873,-923.076,0,0
113088.625,64.494,-919.857,0,0
113348.95,64.8017,-916.695,0,0
113609.275,65.2048,-913.405,0,0
113869.6,65.6039,-910.11,0,0
114129.925,66.1228,-906.838,0,0
114390.25,66.5629,-903.564,0,0
114650.575,67.0679,-900.275,0,0
114910.9,67.6596,-896.993,0,0
115171.225,68.3443,-893.745,0,0
115431.55,68.8548,-890.566,0,0
115691.875,69.6421,-887.307,0,0
115952.2,70.4826,-884.136,0,0
116212.525,71.1317,-881.03,0,0
116472.85,72.0058,-877.799,0,0
116733.175,72.9698,-874.635,0,0
116993.5,73.9865,-871.642,0,0
117253.825,74.8872,-868.7,0,0
117514.15,75.9351,-865.527,0,0
117774.475,77.2726,-862.546,0,0
118034.8,78.6666,-859.726,0,0
118295.125,80.316,-857.052,0,0
118555.45,81.9688,-854.941,0,0
118815.775,83.1584,-853.013,0,0
119076.1,84.1812,-850.885,0,0
119336.425,85.4276,-848.632,0,0
119596.75,87.0048,-846.707,0,0
119857.075,88.6669,-845.405,0,0
120117.4,89.6793,-844.801,0,0
120377.725,89.6622,-844.155,0,0
120638.05,89.3667,-842.703,0,0
120898.375,89.2803,-841.021,0,0
121158.7,89.2425,-839.539,0,0
121419.025,88.6426,-837.903,0,0
121679.35,87.978,-835.859,0,0
121939.675,87.5108,-833.475,0,0
122200.0,87.3086,-830.927,0,0
122460,87.304,-828.431,0,0
122721,87.4225,-825.949,0,0
122981,87.5276,-823.508,0,0
123241,87.824,-821.146,0,0
123502,88.0878,-818.999,0,0
123762,88.1598,-816.901,0,0
124022,88.2485,-814.647,0,0
124283,88.3725,-812.437,0,0
124543,88.5408,-810.331,0,0
124803,88.7111,-808.157,0,0
125064,88.8287,-806.117,0,0
125324,88.8819,-804.079,0,0
125584,88.8837,-802.097,0,0
125845,88.8371,-800.077,0,0
126105,88.721,-798.139,0,0
126365,88.4803,-796.176,0,0
126626,88.179,-794.11,0,0
126886,87.8126,-792.007,0,0
127146,87.4977,-789.83,0,0
127406,87.068,-787.733,0,0
127667,86.5734,-785.438,0,0
127927,86.0174,-783.071,0,0
128187,85.63,-780.607,0,0
128448,85.0946,-778.178,0,0
128708,84.5596,-775.477,0,0
128968,84.1845,-772.626,0,0
129229,83.9751,-769.811,0,0
129489,83.8284,-767.065,0,0
129749,83.695,-764.281,0,0
130010,83.5714,-761.382,0,0
130270,83.7433,-758.41,0,0
130530,84.1104,-755.625,0,0
130791,84.607,-753.104,0,0
131051,84.9843,-750.883,0,0
131311,85.0875,-748.683,0,0
131572,85.088,-746.354,0,0
131832,85.1206,-744.12,0,0
132092,84.9372,-741.841,0,0
132353,84.7093,-739.519,0,0
132613,84.5565,-736.959,0,0
132873,84.5578,-734.525,0,0
133134,84.4801,-732.184,0,0
133394,84.2688,-729.829,0,0
133654,83.9947,-727.448,0,0
133915,83.742,-724.955,0,0
134175,83.4409,-722.357,0,0
134435,83.2606,-719.754,0,0
134696,82.9893,-717.233,0,0
134956,82.6625,-714.611,0,0
135216,82.3616,-711.823,0,0
135477,82.1751,-709.013,0,0
135737,81.9826,-706.357,0,0
135997,81.6582,-703.56,0,0
136258,81.3669,-700.632,0,0
136518,81.1851,-697.629,0,0
136778,81.0553,-694.535,0,0
137039,81.1045,-691.353,0,0
137299,81.3089,-688.271,0,0
137559,81.6525,-685.321,0,0
137819,81.8823,-682.563,0,0
138080,82.0454,-679.704,0,0
138340.125,82.3659,-676.826,0,0
138600.45,82.7646,-674.185,0,0
138860.775,82.952,-671.739,0,0
139121.1,82.8885,-669.211,0,0
139381.425,82.8156,-666.492,0,0
139641.75,82.7181,-663.812,0,0
139902.075,82.5207,-660.975,0,0
140162.4,82.3449,-657.978,0,0
140422.725,82.3308,-654.934,0,0
140683.05,82.4153,-651.839,0,0
140943.375,82.5701,-648.938,0,0
141203.7,82.5896,-645.993,0,0
141464.025,82.6051,-643.055,0,0
141724.35,82.4924,-640.057,0,0
141984.675,82.3812,-636.898,0,0
142245.0,82.372,-633.619,0,0
142505.325,82.472,-630.397,0,0
142765.65,82.5026,-627.128,0,0
143025.975,82.5589,-623.765,0,0
143286.3,82.7046,-620.383,0,0
143546.625,82.852,-616.993,0,0
143806.95,83.0438,-613.492,0,0
144067.275,83.3395,-609.951,0,0
144327.6,83.6792,-606.435,0,0
144587.925,84.009,-602.885,0,0
144848.25,84.4253,-599.356,0,0
145108.575,84.8391,-595.74,0,0
145368.9,85.2973,-592.116,0,0
145629.225,85.7468,-588.48,0,0
145889.55,86.2112,-584.707,0,0
146149.875,86.7793,-580.919,0,0
146410.2,87.4008,-577.049,0,0
146670.525,88.1317,-573.092,0,0
146930.85,88.9648,-569.154,0,0
147191.175,89.8528,-565.181,0,0
147451.5,90.8141,-561.145,0,0
147711.825,91.9083,-557.06,0,0
147972.15,93.1619,-553.029,0,0
148232.475,94.4779,-549.001,0,0
148492.8,95.8275,-544.991,0,0
148753.125,97.2556,-540.908,0,0
149013.45,98.8229,-536.805,0,0
149273.775,100.505,-532.687,0,0
149534.1,102.33,-528.556,0,0
149794.425,104.373,-524.445,0,0
150054.75,106.521,-520.373,0,0
150315.075,108.891,-516.403,0,0
150575.4,111.453,-512.557,0,0
150835.725,114.147,-508.933,0,0
151096.05,116.849,-505.476,0,0
151356.375,119.626,-502.174,0,0
151616.7,122.458,-499.127,0,0
151877.025,125.146,-496.208,0,0
152137.35,127.736,-493.395,0,0
152397.675,130.353,-490.561,0,0
152658.0,133.009,-487.88,0,0
152918.325,135.642,-485.349,0,0
153178.65,138.178,-483.037,0,0
153438.975,140.429,-480.841,0,0
153699.3,142.459,-478.555,0,0
153959.625,144.388,-476.12,0,0
154219.95,146.409,-473.5,0,0
154480,148.445,-471.251,0,0
154741,150.009,-469.095,0,0
155001,151.041,-466.322,0,0
155261,152.234,-462.796,0,0
155522,154.173,-458.971,0,0
155782,156.682,-455.473,0,0
156042,159.105,-452.416,0,0
156303,161.154,-449.118,0,0
156563,163.492,-445.63,0,0
156823,166.051,-442.054,0,0
157084,169.022,-438.535,0,0
157344,172.122,-435.309,0,0
157604,175.304,-432.375,0,0
157864,178.369,-429.591,0,0
158125,181.454,-427.085,0,0
158385,184.18,-424.862,0,0
158645,186.54,-422.611,0,0
158906,188.013,-420.107,0,0
159166,189.702,-416.467,0,0
159426,192.148,-412.955,0,0
159687,193.809,-409.603,0,0
159947,195.35,-405.027,0,0
160207,197.705,-399.825,0,0
160468,200.542,-394.424,0,0
160728,203.705,-388.331,0,0
160988,208.321,-381.734,0,0
161249,214.394,-375.993,0,0
161509,220.49,-371.458,0,0
161769,226.082,-366.864,0,0
162030,232.407,-361.272,0,0
162290,240.391,-356.399,0,0
162550,248.769,-352.85,0,0
162811,256.902,-349.947,0,0
163071,264.818,-347.157,0,0
163331,273.277,-344.754,0,0
163592,281.91,-342.697,0,0
163852,290.906,-341.029,0,0
164112,300.164,-340.199,0,0
164373,308.861,-339.689,0,0
164633,318.209,-338.626,0,0
164893,329.067,-338.216,0,0
165154,340.701,-339.684,0,0
165414,352.097,-343.444,0,0
165674,361.77,-348.64,0,0
165935,370.238,-353.66,0,0
166195,378.771,-358.74,0,0
166455,387.022,-365.017,0,0
166716,394.129,-371.733,0,0
166976,400.759,-378.979,0,0
167236,406.335,-386.696,0,0
167497,410.891,-394.167,0,0
167757,414.976,-401.418,0,0
168017,418.808,-408.728,0,0
168277,422.431,-416.842,0,0
168538,424.627,-425.764,0,0
168798,424.767,-434.057,0,0
169058,424.328,-440.527,0,0
169319,425.193,-446.168,0,0
169579,426.725,-453.652,0,0
169839,425.834,-462.894,0,0
170100,421.661,-470.905,0,0
170360.075,416.501,-475.73,0,0
170620.4,412.419,-478.801,0,0
170880.725,408.952,-481.413,0,0
171141.05,405.516,-483.586,0,0
171401.375,401.946,-484.622,0,0
171661.7,399.434,-484.419,0,0
171922.025,398.37,-484.336,0,0
172182.35,397.408,-484.808,0,0
172442.675,396.581,-484.98,0,0
172703.0,396.275,-484.747,0,0
172963.325,396.925,-484.707,0,0
173223.65,398.028,-485.283,0,0
173483.975,399.018,-486.444,0,0
173744.3,399.892,-487.319,0,0
174004.625,401.607,-488.038,0,0
174264.95,404.385,-489.917,0,0
174525.275,406.553,-493.568,0,0
174785.6,407.603,-497.63,0,0
175045.925,407.976,-501.786,0,0
175306.25,407.765,-506.013,0,0
175566.575,407.103,-510.263,0,0
175826.9,405.781,-515.035,0,0
176087.225,402.876,-519.742,0,0
176347.55,398.748,-522.861,0,0
176607.875,395.494,-524.38,0,0
176868.2,392.966,-526.155,0,0
177128.525,390.427,-528.284,0,0
177388.85,387.171,-530.539,0,0
177649.175,383.56,-532.216,0,0
177909.5,379.759,-533.946,0,0
178169.825,374.723,-535.206,0,0
178430.15,369.212,-534.686,0,0
178690.475,364.471,-532.677,0,0
178950.8,360.861,-529.876,0,0
179211.125,358.579,-527.123,0,0
179471.45,356.583,-525.058,0,0
179731.775,354.228,-522.72,0,0
179992.1,352.262,-519.481,0,0
180252.425,351.461,-515.924,0,0
180512.75,351.991,-512.724,0,0
180773.075,353.18,-510.682,0,0
181033.4,354.098,-509.399,0,0
181293.725,354.88,-508.395,0,0
181554.05,355.897,-507.512,0,0
181814.375,357.542,-507.413,0,0
182074.7,358.692,-508.986,0,0
182335.025,358.353,-511.402,0,0
182595.35,356.13,-513.386,0,0
182855.675,353.215,-514.059,0,0
183116.0,350.375,-513.813,0,0
183376.325,347.636,-513.126,0,0
183636.65,344.905,-512.057,0,0
183896.975,342.274,-510.547,0,0
184157.3,339.733,-508.474,0,0
184417.625,337.409,-506.377,0,0
184677.95,335.128,-503.96,0,0
184938.275,332.879,-501.333,0,0
185198.6,330.728,-498.007,0,0
185458.925,329.212,-494.333,0,0
185719.25,328.077,-490.696,0,0
185979.575,327.175,-486.967,0,0
186239.9,326.412,-483.128,0,0
186500,325.889,-478.939,0,0
186761,325.941,-474.493,0,0
187021,326.661,-469.875,0,0
187281,328.212,-465.646,0,0
187542,330.006,-462.048,0,0
187802,331.645,-458.991,0,0
188062,333.39,-455.772,0,0
188322,335.159,-452.768,0,0
188583,337.597,-449.998,0,0
188843,339.829,-448.158,0,0
189103,341.236,-446.413,0,0
189364,342.26,-444.338,0,0
189624,343.24,-441.688,0,0
189884,344.694,-438.94,0,0
190145,346.216,-436.103,0,0
190405,348.083,-433.198,0,0
190665,350.265,-430.574,0,0
190926,352.412,-428.194,0,0
191186,354.452,-426.149,0,0
191446,356.107,-423.853,0,0
191707,357.82,-421.073,0,0
191967,359.789,-418.207,0,0
192227,361.951,-415.51,0,0
192488,364.103,-412.753,0,0
192748,366.255,-409.891,0,0
193008,368.482,-406.407,0,0
193269,371.238,-402.679,0,0
193529,374.651,-399.037,0,0
193789,378.235,-395.691,0,0
194050,382.032,-391.878,0,0
194310,386.744,-387.785,0,0
194570,392.645,-384.026,0,0
194831,399.334,-381.192,0,0
195091,406.592,-379.271,0,0
195351,414.067,-378.534,0,0
195612,421.175,-378.991,0,0
195872,428.017,-380.091,0,0
196132,434.393,-381.975,0,0
196393,439.885,-384.6,0,0
196653,444.786,-387.162,0,0
196913,449.511,-389.858,0,0
197174,453.618,-393.281,0,0
197434,456.85,-397.035,0,0
197694,459.178,-400.045,0,0
197955,461.337,-403.16,0,0
198215,462.761,-406.066,0,0
198475,463.592,-408.472,0,0
198735,463.666,-410.636,0,0
198996,463.127,-411.473,0,0
199256,463.331,-410.872,0,0
199516,464.617,-410.016,0,0
199777,466.738,-409.428,0,0
200037,469.046,-409.452,0,0
200297,470.826,-410.32,0,0
200558,471.598,-410.583,0,0
200818,472.25,-409.739,0,0
201078,473.786,-408.342,0,0
201339,475.763,-407.112,0,0
201599,477.808,-405.839,0,0
201859,479.792,-404.298,0,0
202120,482.181,-402.099,0,0
202380.025,485.308,-399.552,0,0
202640.35,489.511,-397.157,0,0
202900.675,494.208,-395.207,0,0
203161.0,499.308,-393.577,0,0
203421.325,504.836,-392.141,0,0
203681.65,511.038,-391.181,0,0
203941.975,517.601,-391.107,0,0
204202.3,524.117,-391.835,0,0
204462.625,530.464,-393.077,0,0
204722.95,536.625,-394.657,0,0
204983.275,543.017,-396.533,0,0
205243.6,549.419,-399.47,0,0
205503.925,555.295,-403.293,0,0
205764.25,560.038,-407.534,0,0
206024.575,563.891,-411.682,0,0
206284.9,567.046,-415.568,0,0
206545.225,569.66,-418.973,0,0
206805.55,571.967,-421.587,0,0
207065.875,574.395,-423.685,0,0
207326.2,577.104,-425.387,0,0
207586.525,580.069,-426.843,0,0
207846.85,583.059,-427.99,0,0
208107.175,586.534,-428.576,0,0
208367.5,590.927,-428.999,0,0
208627.825,596.092,-429.793,0,0
208888.15,601.613,-431.074,0,0
209148.475,607.455,-432.607,0,0
209408.8,613.698,-434.559,0,0
209669.125,620.39,-437.172,0,0
209929.45,627.19,-440.562,0,0
210189.775,633.813,-444.55,0,0
210450.1,640.279,-449.133,0,0
210710.425,646.661,-454.123,0,0
210970.75,652.67,-459.654,0,0
211231.075,658.426,-465.425,0,0
211491.4,663.882,-471.53,0,0
211751.725,669.156,-477.899,0,0
212012.05,674.066,-484.628,0,0
212272.375,678.613,-491.435,0,0
212532.7,682.87,-497.899,0,0
212793.025,687.466,-504.545,0,0
213053.35,692.229,-511.34,0,0
213313.675,696.803,-519.125,0,0
213574.0,701.081,-527.19,0,0
213834.325,705.047,-535.671,0,0
214094.65,708.664,-544.508,0,0
214354.975,711.925,-553.632,0,0
214615.3,714.349,-563.1,0,0
214875.625,716.446,-572.389,0,0
215135.95,718.3,-582.039,0,0
215396.275,719.608,-591.826,0,0
215656.6,720.174,-601.569,0,0
215916.925,720.632,-610.737,0,0
216177.25,721.31,-620.053,0,0
216437.575,721.739,-630.082,0,0
216697.9,721.759,-640.581,0,0
216958.225,720.879,-651.611,0,0
217218.55,718.602,-662.404,0,0
217478.875,715.616,-672.422,0,0
217739.2,712.49,-681.923,0,0
217999.525,709.187,-691.378,0,0
218259.85,705.648,-700.716,0,0
218520,701.52,-709.87,0,0
218780,696.847,-718.749,0,0
219041,691.402,-727.132,0,0
219301,685.725,-734.283,0,0
219561,680.552,-740.766,0,0
219822,675.64,-746.899,0,0
220082,671.354,-752.816,0,0
220342,667.732,-758.949,0,0
220603,664.226,-766.068,0,0
220863,660.292,-774.092,0,0
221123,655.27,-782.486,0,0
221384,649.314,-790.6,0,0
221644,642.619,-798.492,0,0
221904,635.41,-805.704,0,0
222165,627.167,-812.587,0,0
222425,618.264,-818.448,0,0
222685,609.8,-823.45,0,0
222946,601.172,-828.212,0,0
223206,592.182,-832.267,0,0
223466,582.975,-835.351,0,0
223727,573.738,-837.41,0,0
223987,564.953,-838.538,0,0
224247,556.987,-838.999,0,0
224508,549.594,-839.164,0,0
224768,542.829,-838.711,0,0
225028,536.609,-838.433,0,0
225289,531.228,-837.69,0,0
225549,526.554,-837.002,0,0
225809,522.616,-836.642,0,0
226070,519.2,-836.694,0,0
226330,516.285,-837.325,0,0
226590,513.466,-838.951,0,0
226851,510.323,-841.259,0,0
227111,506.688,-843.997,0,0
227371,502.283,-846.715,0,0
227632,497.65,-849.418,0,0
227892,492.697,-851.954,0,0
228152,487.623,-854.284,0,0
228413,482.59,-856.647,0,0
228673,477.207,-859.012,0,0
228933,471.525,-861.476,0,0
229193,465.508,-863.545,0,0
229454,459.234,-865.242,0,0
229714,452.847,-866.691,0,0
229974,446.433,-867.856,0,0
230235,439.842,-868.77,0,0
230495,433.527,-869.205,0,0
230755,427.13,-869.467,0,0
231016,420.755,-869.41,0,0
231276,414.478,-869.008,0,0
231536,408.369,-868.49,0,0
231797,402.473,-867.736,0,0
232057,396.922,-866.866,0,0
232317,391.32,-865.892,0,0
232578,385.983,-864.879,0,0
232838,380.745,-863.829,0,0
233098,375.522,-862.831,0,0
233359,370.349,-861.64,0,0
233619,365.429,-860.399,0,0
233879,360.522,-859.184,0,0
234140,355.882,-858.022,0,0
234400,350.925,-856.938,0,0
234660.3,345.96,-855.742,0,0
234920.625,341.111,-854.527,0,0
235180.95,336.289,-852.933,0,0
235441.275,331.539,-851.632,0,0
235701.6,326.48,-850.242,0,0
235961.925,321.51,-848.707,0,0
236222.25,316.409,-846.95,0,0
236482.575,311.31,-844.846,0,0
236742.9,306.489,-842.797,0,0
237003.225,301.589,-840.365,0,0
237263.55,296.869,-837.89,0,0
237523.875,292.191,-835.302,0,0
237784.2,287.67,-832.636,0,0
238044.525,283.013,-829.838,0,0
238304.85,278.581,-826.64,0,0
238565.175,274.187,-823.412,0,0
238825.5,270.031,-819.937,0,0
239085.825,266.032,-816.244,0,0
239346.15,262.337,-812.255,0,0
239606.475,258.923,-808.436,0,0
239866.8,255.672,-804.455,0,0
240127.125,252.818,-800.475,0,0
240387.45,250.058,-796.553,0,0
240647.775,247.6,-792.705,0,0
240908.1,245.187,-788.666,0,0
241168.425,243.233,-784.783,0,0
241428.75,241.371,-781.085,0,0
241689.075,239.594,-777.452,0,0
241949.4,237.798,-773.842,0,0
242209.725,236.213,-770.002,0,0
242470.05,235.062,-766.307,0,0
242730.375,234.099,-762.731,0,0
242990.7,233.191,-759.509,0,0
243251.025,232.345,-756.325,0,0
243511.35,231.591,-753.214,0,0
243771.675,230.943,-750.235,0,0
244032.0,230.461,-747.386,0,0
244292.325,230.149,-744.789,0,0
244552.65,229.694,-742.41,0,0
244812.975,229.206,-740.341,0,0
245073.3,228.545,-738.308,0,0
245333.625,227.686,-736.348,0,0
245593.95,226.943,-734.156,0,0
245854.275,226.12,-732.12,0,0
246114.6,225.14,-729.789,0,0
246374.925,224.41,-727.608,0,0
246635.25,223.707,-725.541,0,0
246895.575,223.089,-723.47,0,0
247155.9,222.365,-721.437,0,0
247416.225,221.563,-719.396,0,0
247676.55,220.885,-717.314,0,0
247936.875,220.228,-715.252,0,0
248197.2,219.541,-713.196,0,0
248457.525,219.031,-711.06,0,0
248717.85,218.667,-708.949,0,0
248978.175,218.424,-707.02,0,0
249238.5,218.091,-705.28,0,0
249498.825,217.789,-703.586,0,0
249759.15,217.471,-702.056,0,0
250019.475,217.013,-700.473,0,0
250279.8,216.674,-699.024,0,0
250540,216.251,-697.657,0,0
250800,215.634,-696.516,0,0
251061,214.967,-695.263,0,0
251321,214.11,-694.115,0,0
251581,213.093,-692.841,0,0
251842,211.876,-691.475,0,0
252102,210.634,-689.951,0,0
252362,209.256,-688.335,0,0
252623,207.843,-686.545,0,0
252883,206.481,-684.508,0,0
253143,205.033,-682.25,0,0
253404,203.714,-679.77,0,0
253664,202.492,-677.078,0,0
253924,201.428,-674.098,0,0
254185,200.755,-670.983,0,0
254445,200.336,-667.978,0,0
254705,200.107,-664.863,0,0
254966,199.989,-661.774,0,0
255226,200.136,-658.781,0,0
255486,200.364,-655.658,0,0
255747,200.778,-652.513,0,0
256007,201.534,-649.221,0,0
256267,202.683,-646.049,0,0
256528,204.193,-643.086,0,0
256788,205.995,-640.339,0,0
257048,207.927,-637.913,0,0
257309,210.086,-635.705,0,0
257569,212.336,-633.884,0,0
257829,214.629,-632.468,0,0
258090,216.785,-631.422,0,0
258350,218.75,-630.537,0,0
258610,220.481,-629.74,0,0
258871,222.14,-628.875,0,0
259131,223.862,-627.907,0,0
259391,225.717,-627,0,0
259651,227.907,-626.01,0,0
259912,230.299,-625.318,0,0
260172,232.938,-625.112,0,0
260432,235.54,-625.18,0,0
260693,238.125,-625.751,0,0
260953,240.543,-626.62,0,0
261213,242.894,-627.762,0,0
261474,245.105,-629.403,0,0
261734,247.038,-631.435,0,0
261994,248.591,-633.714,0,0
262255,249.728,-636.243,0,0
262515,250.526,-638.908,0,0
262775,250.823,-641.724,0,0
263036,250.662,-644.575,0,0
263296,250.091,-647.297,0,0
263556,249.038,-649.974,0,0
263817,247.719,-652.362,0,0
264077,246.059,-654.589,0,0
264337,244.146,-656.609,0,0
264598,242.004,-658.356,0,0
264858,239.785,-659.893,0,0
265118,237.272,-661.229,0,0
265379,234.491,-662.282,0,0
265639,231.656,-663.03,0,0
265899,228.634,-663.376,0,0
266160,225.628,-663.328,0,0
266420,222.747,-662.936,0,0
266680.25,219.912,-662.32,0,0
266940.575,217.211,-661.486,0,0
267200.9,214.629,-660.298,0,0
267461.225,212.127,-658.946,0,0
267721.55,209.917,-657.344,0,0
267981.875,207.867,-655.588,0,0
268242.2,206.071,-653.719,0,0
268502.525,204.481,-651.727,0,0
268762.85,203.131,-649.737,0,0
269023.175,201.975,-647.767,0,0
269283.5,200.992,-645.786,0,0
269543.825,200.168,-643.788,0,0
269804.15,199.548,-641.859,0,0
270064.475,198.978,-640.029,0,0
270324.8,198.487,-638.174,0,0
270585.125,198.107,-636.303,0,0
270845.45,197.959,-634.508,0,0
271105.775,197.893,-632.675,0,0
271366.1,198.014,-631.011,0,0
271626.425,198.243,-629.452,0,0
271886.75,198.484,-628.034,0,0
272147.075,198.758,-626.712,0,0
272407.4,199.072,-625.483,0,0
272667.725,199.315,-624.343,0,0
272928.05,199.672,-623.313,0,0
273188.375,199.935,-622.312,0,0
273448.7,200.167,-621.347,0,0
273709.025,200.396,-620.346,0,0
273969.35,200.611,-619.311,0,0
274229.675,200.897,-618.203,0,0
274490.0,201.291,-617.048,0,0
274750.325,201.921,-615.891,0,0
275010.65,202.64,-614.808,0,0
275270.975,203.5,-613.933,0,0
275531.3,204.394,-613.151,0,0
275791.625,205.256,-612.409,0,0
276051.95,206.338,-611.693,0,0
276312.275,207.574,-611.113,0,0
276572.6,208.94,-610.751,0,0
276832.925,210.438,-610.637,0,0
277093.25,211.987,-610.804,0,0
277353.575,213.528,-611.368,0,0
277613.9,214.963,-612.294,0,0
277874.225,216.13,-613.502,0,0
278134.55,217.089,-614.892,0,0
278394.875,217.779,-616.48,0,0
278655.2,218.222,-618.189,0,0
278915.525,218.383,-619.996,0,0
279175.85,218.261,-621.924,0,0
279436.175,217.871,-623.842,0,0
279696.5,217.1,-625.883,0,0
279956.825,215.941,-627.756,0,0
280217.15,214.398,-629.491,0,0
280477.475,212.631,-630.912,0,0
280737.8,210.597,-632.045,0,0
280998.125,208.546,-632.738,0,0
281258.45,206.562,-633.145,0,0
281518.775,204.716,-633.447,0,0
281779.1,202.919,-633.632,0,0
282039.425,201.14,-633.751,0,0
282299.75,199.385,-633.815,0,0
282560,197.592,-633.82,0,0
282820,195.746,-633.735,0,0
283081,193.849,-633.561,0,0
283341,191.934,-633.212,0,0
283601,190.023,-632.675,0,0
283862,188.173,-632,0,0
284122,186.376,-631.192,0,0
284382,184.726,-630.292,0,0
284643,183.156,-629.298,0,0
284903,181.666,-628.33,0,0
285163,180.163,-627.4,0,0
285424,178.656,-626.154,0,0
285684,177.226,-624.884,0,0
285944,175.915,-623.583,0,0
286205,174.656,-622.207,0,0
286465,173.432,-620.732,0,0
286725,172.337,-619.14,0,0
286986,171.368,-617.444,0,0
287246,170.561,-615.649,0,0
287506,169.957,-613.798,0,0
287767,169.584,-611.934,0,0
288027,169.443,-610.098,0,0
288287,169.502,-608.385,0,0
288548,169.748,-606.781,0,0
288808,170.149,-605.373,0,0
289068,170.658,-604.116,0,0
289329,171.28,-603.162,0,0
289589,171.876,-602.419,0,0
289849,172.313,-601.887,0,0
290109,172.679,-601.429,0,0
290370,172.877,-601.01,0,0
290630,172.982,-600.606,0,0
290890,173.055,-600.207,0,0
291151,173.123,-599.792,0,0
291411,173.158,-599.435,0,0
291671,173.168,-599.081,0,0
291932,173.122,-598.743,0,0
292192,173.027,-598.375,0,0
292452,172.901,-597.994,0,0
292713,172.766,-597.544,0,0
292973,172.634,-597.054,0,0
293233,172.537,-596.475,0,0
293494,172.555,-595.83,0,0
293754,172.728,-595.178,0,0
294014,173.062,-594.579,0,0
294275,173.505,-594.132,0,0
294535,174.034,-593.821,0,0
294795,174.566,-593.619,0,0
295056,175.131,-593.561,0,0
295316,175.791,-593.661,0,0
295576,176.393,-593.99,0,0
295837,176.957,-594.489,0,0
296097,177.359,-595.218,0,0
296357,177.582,-596.039,0,0
296618,177.649,-596.92,0,0
296878,177.564,-597.878,0,0
297138,177.354,-598.873,0,0
297399,176.993,-599.916,0,0
297659,176.452,-600.981,0,0
297919,175.706,-602.049,0,0
298180,174.795,-603.097,0,0
298440,173.684,-604.067,0,0
298700.2,172.441,-604.898,0,0
298960.525,171.039,-605.592,0,0
299220.85,169.55,-606.105,0,0
299481.175,168.07,-606.521,0,0
299741.5,166.559,-606.778,0,0
300001.825,165.085,-606.953,0,0
300262.15,163.582,-607.073,0,0
300522.475,162.061,-607.1,0,0
300782.8,160.558,-607.071,0,0
301043.125,159.029,-606.956,0,0
301303.45,157.497,-606.775,0,0
301563.775,155.979,-606.517,0,0
301824.1,154.43,-606.195,0,0
302084.425,152.882,-605.763,0,0
302344.75,151.36,-605.255,0,0
302605.075,149.908,-604.669,0,0
302865.4,148.478,-604.013,0,0
303125.725,147.112,-603.314,0,0
303386.05,145.775,-602.588,0,0
303646.375,144.442,-601.822,0,0
303906.7,143.216,-601.009,0,0
304167.025,141.976,-600.172,0,0
304427.35,140.738,-599.235,0,0
304687.675,139.612,-598.283,0,0
304948.0,138.523,-597.282,0,0
305208.325,137.534,-596.254,0,0
305468.65,136.648,-595.238,0,0
305728.975,135.718,-594.297,0,0
305989.3,134.843,-593.311,0,0
306249.625,133.994,-592.3,0,0
306509.95,133.166,-591.286,0,0
306770.275,132.414,-590.239,0,0
307030.6,131.729,-589.186,0,0
307290.925,131.14,-588.168,0,0
307551.25,130.605,-587.17,0,0
307811.575,130.131,-586.239,0,0
308071.9,129.702,-585.37,0,0
308332.225,129.255,-584.583,0,0
308592.55,128.818,-583.869,0,0
308852.875,128.374,-583.212,0,0
309113.2,127.88,-582.598,0,0
309373.525,127.316,-581.996,0,0
309633.85,126.666,-581.465,0,0
309894.175,126.031,-580.931,0,0
310154.5,125.322,-580.349,0,0
310414.825,124.525,-579.738,0,0
310675.15,123.72,-579.069,0,0
310935.475,122.886,-578.389,0,0
311195.8,122.018,-577.654,0,0
311456.125,121.17,-576.848,0,0
311716.45,120.346,-575.988,0,0
311976.775,119.52,-575.107,0,0
312237.1,118.701,-574.201,0,0
312497.425,117.875,-573.24,0,0
312757.75,117.035,-572.234,0,0
313018.075,116.244,-571.161,0,0
313278.4,115.437,-569.998,0,0
313538.725,114.708,-568.726,0,0
313799.05,114.067,-567.435,0,0
314059.375,113.525,-566.109,0,0
314319.7,113.059,-564.771,0,0
314580,112.591,-563.391,0,0
314840,112.396,-562.032,0,0
315101,112.206,-560.635,0,0
315361,112.073,-559.249,0,0
315621,112.102,-557.931,0,0
315882,112.296,-556.779,0,0
316142,112.543,-555.714,0,0
316402,112.703,-554.552,0,0
316663,113.042,-553.739,0,0
316923,113.321,-552.835,0,0
317183,113.639,-552.162,0,0
317444,113.961,-551.497,0,0
317704,114.169,-550.937,0,0
317964,114.416,-550.581,0,0
318225,114.581,-550.187,0,0
318485,114.643,-549.893,0,0
318745,114.57,-549.5,0,0
319006,114.451,-549.179,0,0
319266,114.404,-548.774,0,0
319526,114.218,-548.342,0,0
319787,114.056,-548.024,0,0
320047,113.893,-547.532,0,0
320307,113.757,-547.084,0,0
320567,113.494,-546.616,0,0
320828,113.373,-546.094,0,0
321088,113.171,-545.587,0,0
321348,113.125,-545.101,0,0
321609,113.041,-544.62,0,0
321869,112.955,-544.149,0,0
322129,112.941,-543.732,0,0
322390,112.977,-543.478,0,0
322650,112.993,-543.198,0,0
322910,112.979,-543.003,0,0
323171,112.934,-542.848,0,0
323431,112.787,-542.709,0,0
323691,112.725,-542.663,0,0
323952,112.538,-542.745,0,0
324212,112.229,-542.699,0,0
324472,111.907,-542.693,0,0
324733,111.557,-542.737,0,0
324993,111.096,-542.723,0,0
325253,110.551,-542.804,0,0
325514,110.016,-542.825,0,0
325774,109.348,-542.785,0,0
326034,108.666,-542.709,0,0
326295,107.943,-542.64,0,0
326555,107.147,-542.499,0,0
326815,106.358,-542.303,0,0
327076,105.529,-541.984,0,0
327336,104.668,-541.741,0,0
327596,103.802,-541.393,0,0
327857,102.999,-540.88,0,0
328117,102.085,-540.529,0,0
328377,101.284,-540.031,0,0
328638,100.489,-539.476,0,0
328898,99.7669,-538.94,0,0
329158,99.0418,-538.448,0,0
329419,98.3786,-537.98,0,0
329679,97.5531,-537.478,0,0
329939,96.8044,-536.981,0,0
330200,95.9427,-536.422,0,0
330460,95.1959,-535.961,0,0
330720.15,94.3074,-535.341,0,0
330980.475,93.4628,-534.718,0,0
331240.8,92.6025,-534.188,0,0
331501.125,91.7249,-533.518,0,0
331761.45,90.8569,-532.861,0,0
332021.775,89.9338,-532.1,0,0
332282.1,89.0517,-531.296,0,0
332542.425,88.1337,-530.449,0,0
332802.75,87.3136,-529.627,0,0
333063.075,86.4737,-528.705,0,0
333323.4,85.5576,-527.743,0,0
333583.725,84.7835,-526.794,0,0
333844.05,83.9919,-525.817,0,0
334104.375,83.139,-524.861,0,0
334364.7,82.3682,-523.826,0,0
334625.025,81.5559,-522.66,0,0
334885.35,80.815,-521.461,0,0
335145.675,80.1435,-520.165,0,0
335406.0,79.4901,-518.943,0,0
335666.325,79.0207,-517.634,0,0
335926.65,78.4932,-516.421,0,0
336186.975,78.0104,-515.108,0,0
336447.3,77.6074,-513.815,0,0
336707.625,77.2743,-512.501,0,0
336967.95,76.9155,-511.289,0,0
337228.275,76.6971,-509.982,0,0
337488.6,76.4991,-508.744,0,0
337748.925,76.2663,-507.501,0,0
338009.25,76.024,-506.26,0,0
338269.575,75.8627,-505.096,0,0
338529.9,75.6358,-503.826,0,0
338790.225,75.536,-502.522,0,0
339050.55,75.4734,-501.227,0,0
339310.875,75.4507,-499.917,0,0
339571.2,75.5368,-498.633,0,0
339831.525,75.6454,-497.364,0,0
340091.85,75.7968,-496.083,0,0
340352.175,76.0463,-494.882,0,0
340612.5,76.3965,-493.712,0,0
340872.825,76.7999,-492.598,0,0
341133.15,77.1874,-491.54,0,0
341393.475,77.6855,-490.56,0,0
341653.8,78.1027,-489.753,0,0
341914.125,78.6236,-488.907,0,0
342174.45,79.1044,-488.158,0,0
342434.775,79.6021,-487.464,0,0
342695.1,80.0448,-486.862,0,0
342955.425,80.4849,-486.401,0,0
343215.75,80.781,-485.944,0,0
343476.075,81.2028,-485.553,0,0
343736.4,81.4468,-485.184,0,0
343996.725,81.683,-484.829,0,0
344257.05,81.8618,-484.507,0,0
344517.375,81.9508,-484.212,0,0
344777.7,81.995,-483.932,0,0
345038.025,82.0019,-483.56,0,0
345298.35,81.9512,-483.283,0,0
345558.675,81.9521,-482.996,0,0
345819.0,81.8615,-482.569,0,0
346079.325,81.8006,-482.164,0,0
346339.65,81.6069,-481.774,0,0
346599.975,81.463,-481.331,0,0
346860,81.2766,-480.87,0,0
347121,81.1368,-480.402,0,0
347381,80.8856,-479.888,0,0
347641,80.6759,-479.271,0,0
347902,80.4749,-478.7,0,0
348162,80.3023,-478.048,0,0
348422,80.1521,-477.394,0,0
348683,80.0883,-476.625,0,0
348943,80.044,-475.946,0,0
349203,80.0332,-475.233,0,0
349464,80.0657,-474.59,0,0
349724,80.1351,-473.925,0,0
349984,80.2438,-473.254,0,0
350245,80.4041,-472.562,0,0
350505,80.5755,-472.008,0,0
350765,80.7724,-471.452,0,0
351025,80.9658,-470.965,0,0
351286,81.2898,-470.513,0,0
351546,81.4932,-470.193,0,0
351806,81.6875,-469.861,0,0
352067,81.8528,-469.651,0,0
352327,82.0223,-469.497,0,0
352587,82.0588,-469.377,0,0
352848,82.1006,-469.208,0,0
353108,82.0049,-469.161,0,0
353368,81.8245,-469.095,0,0
353629,81.6152,-468.985,0,0
353889,81.274,-468.83,0,0
354149,80.8951,-468.654,0,0
354410,80.4089,-468.404,0,0
354670,80.0043,-468.066,0,0
354930,79.535,-467.71,0,0
355191,79.129,-467.267,0,0
355451,78.651,-466.733,0,0
355711,78.1837,-466.205,0,0
355972,77.7956,-465.626,0,0
356232,77.41,-464.985,0,0
356492,77.0532,-464.316,0,0
356753,76.7851,-463.634,0,0
357013,76.5175,-462.983,0,0
357273,76.2724,-462.258,0,0
357534,75.9875,-461.568,0,0
357794,75.8175,-460.846,0,0
358054,75.6549,-460.197,0,0
358315,75.5405,-459.557,0,0
358575,75.3354,-458.876,0,0
358835,75.0916,-458.123,0,0
359096,74.9504,-457.473,0,0
359356,74.8537,-456.67,0,0
359616,74.7254,-455.933,0,0
359877,74.6548,-455.235,0,0
360137,74.5902,-454.49,0,0
360397,74.5989,-453.809,0,0
360658,74.5288,-453.044,0,0
360918,74.6161,-452.295,0,0
361178,74.6242,-451.576,0,0
361438,74.7242,-450.876,0,0
361699,74.8162,-450.165,0,0
361959,74.9088,-449.523,0,0
362219,75.1125,-448.855,0,0
362480,75.257,-448.22,0,0
362740.1,75.4638,-447.597,0,0
363000.425,75.6548,-447.012,0,0
363260.75,75.7727,-446.515,0,0
363521.075,76.0656,-445.94,0,0
363781.4,76.232,-445.49,0,0
364041.725,76.5312,-445.003,0,0
364302.05,76.7668,-444.565,0,0
364562.375,77.1159,-444.21,0,0
364822.7,77.3737,-443.911,0,0
365083.025,77.7049,-443.702,0,0
365343.35,77.9198,-443.53,0,0
365603.675,78.0896,-443.485,0,0
365864.0,78.202,-443.462,0,0
366124.325,78.2921,-443.421,0,0
366384.65,78.2865,-443.525,0,0
366644.975,78.1396,-443.57,0,0
366905.3,77.8206,-443.687,0,0
367165.625,77.394,-443.749,0,0
367425.95,76.8347,-443.634,0,0
367686.275,76.1841,-443.435,0,0
367946.6,75.5121,-443.159,0,0
368206.925,74.8659,-442.633,0,0
368467.25,74.2397,-442.071,0,0
368727.575,73.6341,-441.362,0,0
368987.9,73.0459,-440.557,0,0
369248.225,72.5833,-439.622,0,0
369508.55,72.2538,-438.581,0,0
369768.875,72.1084,-437.542,0,0
370029.2,72.1498,-436.484,0,0
370289.525,72.2602,-435.441,0,0
370549.85,72.5238,-434.527,0,0
370810.175,72.9353,-433.749,0,0
371070.5,73.3754,-433.11,0,0
371330.825,73.8424,-432.582,0,0
371591.15,74.1986,-432.257,0,0
371851.475,74.4998,-431.954,0,0
372111.8,74.7977,-431.758,0,0
372372.125,74.9457,-431.692,0,0
372632.45,74.9977,-431.59,0,0
372892.775,74.9533,-431.492,0,0
373153.1,74.8054,-431.371,0,0
373413.425,74.5952,-431.208,0,0
373673.75,74.302,-430.993,0,0
373934.075,74.0125,-430.707,0,0
374194.4,73.6868,-430.367,0,0
374454.725,73.3499,-429.95,0,0
374715.05,73.0411,-429.502,0,0
374975.375,72.7311,-428.977,0,0
375235.7,72.416,-428.445,0,0
375496.025,72.1771,-427.874,0,0
375756.35,71.8969,-427.294,0,0
376016.675,71.6687,-426.624,0,0
376277.0,71.4658,-425.964,0,0
376537.325,71.2836,-425.245,0,0
376797.65,71.1971,-424.524,0,0
377057.975,71.0789,-423.786,0,0
377318.3,71.0836,-423.002,0,0
377578.625,71.0812,-422.254,0,0
377838.95,71.1338,-421.554,0,0
378099.275,71.33,-420.889,0,0
378359.6,71.473,-420.257,0,0
378619.925,71.6357,-419.634,0,0
378880,71.763,-419.028,0,0
379141,71.9278,-418.5,0,0
379401,72.1533,-418.005,0,0
379661,72.3407,-417.569,0,0
379922,72.525,-417.113,0,0
380182,72.6733,-416.719,0,0
380442,72.8263,-416.291,0,0
380703,72.9067,-415.916,0,0
380963,73.1088,-415.473,0,0
381223,73.199,-415.107,0,0
381483,73.3903,-414.724,0,0
381744,73.5661,-414.386,0,0
382004,73.7485,-414.072,0,0
382264,73.915,-413.821,0,0
382525,74.0579,-413.642,0,0
382785,74.161,-413.464,0,0
383045,74.1805,-413.34,0,0
383306,74.1577,-413.213,0,0
383566,74.065,-413.087,0,0
383826,73.9004,-412.939,0,0
384087,73.7197,-412.776,0,0
384347,73.4885,-412.57,0,0
384607,73.2299,-412.33,0,0
384868,72.9331,-412.022,0,0
385128,72.6621,-411.659,0,0
385388,72.3816,-411.326,0,0
385649,72.0539,-410.893,0,0
385909,71.7681,-410.491,0,0
386169,71.4718,-409.957,0,0
386430,71.1824,-409.476,0,0
386690,70.892,-408.946,0,0
386950,70.6197,-408.351,0,0
387211,70.3936,-407.757,0,0
387471,70.1609,-407.178,0,0
387731,70.0078,-406.501,0,0
387992,69.8211,-405.87,0,0
388252,69.66,-405.232,0,0
388512,69.522,-404.495,0,0
388773,69.3772,-403.793,0,0
389033,69.267,-403.085,0,0
389293,69.187,-402.351,0,0
389554,69.139,-401.61,0,0
389814,69.1015,-400.878,0,0
390074,69.1243,-400.031,0,0
390335,69.1584,-399.248,0,0
390595,69.2168,-398.458,0,0
390855,69.379,-397.697,0,0
391116,69.5912,-396.891,0,0
391376,69.8601,-396.136,0,0
391636,70.0749,-395.341,0,0
391896,70.3846,-394.666,0,0
392157,70.7313,-393.954,0,0
392417,71.056,-393.318,0,0
392677,71.4901,-392.615,0,0
392938,71.957,-391.985,0,0
393198,72.4277,-391.425,0,0
393458,72.895,-390.954,0,0
393719,73.4138,-390.458,0,0
393979,73.9458,-390.062,0,0
394239,74.4499,-389.68,0,0
394500,74.9612,-389.386,0,0
394760.05,75.5152,-389.144,0,0
395020.375,76.006,-388.916,0,0
395280.7,76.4739,-388.744,0,0
395541.025,77.0009,-388.651,0,0
395801.35,77.4371,-388.576,0,0
396061.675,77.8741,-388.588,0,0
396322.0,78.2345,-388.622,0,0
396582.325,78.5426,-388.671,0,0
396842.65,78.8239,-388.781,0,0
397102.975,79.0786,-388.86,0,0
397363.3,79.2105,-389.077,0,0
397623.625,79.3194,-389.188,0,0
397883.95,79.4531,-389.367,0,0
398144.275,79.4049,-389.504,0,0
398404.6,79.3443,-389.655,0,0
398664.925,79.2674,-389.777,0,0
398925.25,79.1432,-389.927,0,0
399185.575,78.9578,-390,0,0
399445.9,78.6553,-390.083,0,0
399706.225,78.4165,-390.092,0,0
399966.55,78.0977,-390.048,0,0
400006.6,78.0044,-390.043,0,0