File: Accelerated corrosion test data/2025-09-30_18-00-03/sample_1.csv
Frequency (Hz),Impedance (ohms),Phase (Radians),Temperature (C),Humidity (%)
10000.0,379.927,-12166.6,0,0
10260.325,372.202,-11855.3,0,0
10520.65,344.154,-11576.4,0,0
10780.975,361.079,-11292.4,0,0
11041.3,314.153,-11035.7,0,0
11301.625,317.128,-10779.1,0,0
11561.95,299.704,-10535.5,0,0
11822.275,293.766,-10298.5,0,0
12082.6,315.376,-10064.9,0,0
12342.925,293.746,-9891.79,0,0
12603.25,254.22,-9682.82,0,0
12863.575,251.026,-9481.39,0,0
13123.9,259.371,-9288.43,0,0
13384.225,244.485,-9117.99,0,0
13644.55,238.409,-8938.24,0,0
13904.875,230.492,-8761.49,0,0
14165.2,239.089,-8619.3,0,0
14425.525,247.379,-8461.93,0,0
14685.8,258.165,-8293.66,0,0
14946.175,227.713,-8194.28,0,0
15206.5,230.719,-8036.13,0,0
15466.825,230.764,-7906.93,0,0
15727.15,213.287,-7788.63,0,0
15987.5,203.176,-7654.8,0,0
16247.8,201.009,-7529.69,0,0
16508.125,197.456,-7407.31,0,0
16768.45,199.571,-7292.01,0,0
17028.775,205.77,-7185.26,0,0
17289.1,189.025,-7080.04,0,0
17549.425,187.492,-6973.68,0,0
17809.75,184.489,-6873.5,0,0
18070.075,182.05,-6775.74,0,0
18330.4,171.183,-6678.81,0,0
18590.725,172.624,-6583.9,0,0
18851.05,170.858,-6486.52,0,0
19111.375,167.251,-6405.18,0,0
19371.7,162.633,-6313.64,0,0
19632.025,167.545,-6224.3,0,0
19892.35,154.328,-6139.45,0,0
20152.675,148.764,-6053.55,0,0
20413.0,181.071,-5966.25,0,0
20673.3,182.695,-5925.54,0,0
20933.65,165.391,-5856.74,0,0
21193.975,168.425,-5790.55,0,0
21454.3,152.16,-5719.6,0,0
21714.625,151.793,-5653.08,0,0
21974.9,145.543,-5566.07,0,0
22235.275,176.345,-5523.01,0,0
22495.6,143.199,-5481.45,0,0
22755.925,131.267,-5412.21,0,0
23016.25,121.451,-5345.77,0,0
23276.6,118.88,-5285.42,0,0
23536.9,114,-5225.07,0,0
23797.225,111.403,-5163.06,0,0
24057.55,114.157,-5103,0,0
24317.875,110.505,-5054.22,0,0
24578.2,110.354,-4995.18,0,0
24838.525,110.356,-4945.33,0,0
25098.85,110.396,-4891.5,0,0
25359.175,104.782,-4842.45,0,0
25619.5,105.213,-4791.6,0,0
25879.8,102.493,-4739.85,0,0
26140.1,102.158,-4691.13,0,0
26400.5,101.865,-4641.25,0,0
26660.8,104.225,-4590.95,0,0
26921.1,112.797,-4545.46,0,0
27181.4,118.454,-4509.58,0,0
27441.8,110.301,-4476.64,0,0
27702.1,103.117,-4426.7,0,0
27962.4,111.34,-4379.45,0,0
28222.7,109.041,-4340.21,0,0
28483.1,120.383,-4296.39,0,0
28743.4,130.453,-4279.47,0,0
29003.7,113.286,-4243.6,0,0
29264,116.406,-4207.92,0,0
29524.4,105.842,-4172.79,0,0
29784.7,104.729,-4132.13,0,0
30045,99.3779,-4099.47,0,0
30305.3,98.8229,-4060.76,0,0
30565.7,96.5682,-4022.46,0,0
30826,103.461,-3987.66,0,0
31086.3,105.837,-3959.25,0,0
31346.6,99.8946,-3930.01,0,0
31607,92.8169,-3893.19,0,0
31867.3,96.8708,-3859.59,0,0
32127.6,97.0221,-3829.34,0,0
32387.9,96.3208,-3803.93,0,0
32648.3,92.1873,-3771.34,0,0
32908.6,94.0954,-3742.91,0,0
33168.9,89.5704,-3714.18,0,0
33429.2,87.719,-3685.78,0,0
33689.6,85.199,-3656.19,0,0
33949.9,84.5672,-3625.64,0,0
34210.2,86.8052,-3600.19,0,0
34470.5,85.2067,-3572.39,0,0
34730.9,83.3327,-3544.94,0,0
34991.2,80.3527,-3517.72,0,0
35251.5,79.4464,-3491.43,0,0
35511.8,78.6126,-3464.91,0,0
35772.2,78.1454,-3439.54,0,0
36032.5,77.8132,-3414.34,0,0
36292.8,76.4185,-3388.71,0,0
36553.1,82.0212,-3363.78,0,0
36813.5,79.6053,-3339.51,0,0
37073.8,79.1514,-3315.92,0,0
37334.1,75.7455,-3292.23,0,0
37594.4,74.4165,-3269.1,0,0
37854.8,73.3681,-3246.35,0,0
38115.1,72.8946,-3223.3,0,0
38375.4,73.5217,-3200.95,0,0
38635.7,72.2415,-3179.01,0,0
38896.1,72.0701,-3156.74,0,0
39156.4,71.6789,-3135.26,0,0
39416.7,71.6088,-3114.64,0,0
39677,70.5142,-3093.65,0,0
39937.4,70.3896,-3072.53,0,0
40197.7,70.601,-3051.95,0,0
40458,70.0033,-3031.97,0,0
40718.3,70.3079,-3011.51,0,0
40978.7,71.705,-2992.56,0,0
41239,71.4713,-2973.99,0,0
41499.3,70.7143,-2956.03,0,0
41759.6,69.7614,-2937.42,0,0
42020,69.4219,-2917.9,0,0
42280.275,69.6269,-2899.64,0,0
42540.6,70.0317,-2882.01,0,0
42800.925,69.5056,-2865.12,0,0
43061.25,68.6961,-2846.95,0,0
43321.575,68.4577,-2829.97,0,0
43581.9,67.6242,-2812.73,0,0
43842.225,66.8762,-2794.68,0,0
44102.55,67.408,-2777.72,0,0
44362.875,68.3155,-2760.76,0,0
44623.2,68.5208,-2745.45,0,0
44883.525,67.9246,-2729.57,0,0
45143.85,68.1861,-2713.74,0,0
45404.175,68.3507,-2698.41,0,0
45664.5,67.3039,-2683.65,0,0
45924.825,66.7675,-2668.17,0,0
46185.15,65.9339,-2653.29,0,0
46445.475,65.2692,-2638.03,0,0
46705.8,64.5915,-2622.62,0,0
46966.125,64.0313,-2607.61,0,0
47226.45,64.1709,-2592.6,0,0
47486.775,63.9618,-2578.57,0,0
47747.1,63.4175,-2564.44,0,0
48007.425,62.7726,-2550.02,0,0
48267.75,62.6072,-2536.24,0,0
48528.075,61.8483,-2522.47,0,0
48788.4,61.215,-2508.23,0,0
49048.725,61.2987,-2494.44,0,0
49309.05,60.86,-2480.86,0,0
49569.375,60.3438,-2467.38,0,0
49829.7,60.2242,-2454.13,0,0
50090.025,59.8667,-2441,0,0
50350.35,59.5659,-2427.82,0,0
50610.675,59.228,-2414.85,0,0
50871.0,58.9622,-2401.75,0,0
51131.325,58.8781,-2389.12,0,0
51391.65,58.7669,-2376.87,0,0
51651.975,58.2065,-2364.51,0,0
51912.3,58.0643,-2351.97,0,0
52172.625,58.9324,-2339.91,0,0
52432.95,57.5362,-2327.69,0,0
52693.275,57.4327,-2315.57,0,0
52953.6,57.2449,-2303.6,0,0
53213.925,57.3009,-2291.92,0,0
53474.25,58.0438,-2280.57,0,0
53734.575,57.0846,-2268.94,0,0
53994.9,57.1183,-2257.87,0,0
54255.225,56.5686,-2246.69,0,0
54515.55,56.2506,-2235.56,0,0
54775.875,55.8453,-2224.39,0,0
55036.2,55.6059,-2213.14,0,0
55296.525,55.877,-2202.24,0,0
55556.85,55.6512,-2191.65,0,0
55817.175,55.3166,-2181.13,0,0
56077.5,56.5148,-2170.17,0,0
56337.825,56.78,-2159.59,0,0
56598.15,54.7659,-2149.24,0,0
56858.475,54.5516,-2138.88,0,0
57118.8,54.3591,-2128.44,0,0
57379.125,54.4385,-2118.11,0,0
57639.45,54.5831,-2108.31,0,0
57899.775,54.3939,-2098.26,0,0
58160.1,54.4914,-2088.35,0,0
58420.4,54.2277,-2078.6,0,0
58680.7,54.2096,-2068.83,0,0
58941.1,54.1588,-2059.08,0,0
59201.4,54.4196,-2049.58,0,0
59461.7,55.5183,-2040.51,0,0
59722,54.7732,-2031.08,0,0
59982.4,54.9332,-2021.71,0,0
60242.7,55.2808,-2012.43,0,0
60503,55.1806,-2003.3,0,0
60763.3,55.2663,-1994.63,0,0
61023.7,54.9685,-1986.08,0,0
61284,54.4537,-1977.04,0,0
61544.3,54.1807,-1967.87,0,0
61804.6,54.4102,-1959.33,0,0
62065,54.1406,-1950.97,0,0
62325.3,53.5421,-1941.93,0,0
62585.6,53.3283,-1933.08,0,0
62845.9,54.1138,-1924.27,0,0
63106.3,53.2945,-1915.77,0,0
63366.6,53.4837,-1907.26,0,0
63626.9,53.4204,-1898.93,0,0
63887.2,53.2454,-1890.61,0,0
64147.6,52.7109,-1882.01,0,0
64407.9,52.9489,-1873.89,0,0
64668.2,52.9433,-1865.48,0,0
64928.5,53.1949,-1857.29,0,0
65188.9,53.8968,-1849.12,0,0
65449.2,54.7885,-1841.6,0,0
65709.5,55.2276,-1834.73,0,0
65969.8,55.3342,-1827.84,0,0
66230.2,54.9676,-1820.35,0,0
66490.5,54.7962,-1813.11,0,0
66750.8,54.8088,-1805.95,0,0
67011.1,54.1322,-1799.1,0,0
67271.5,53.7546,-1790.8,0,0
67531.8,54.4359,-1783.5,0,0
67792.1,54.5842,-1776.92,0,0
68052.4,54.3036,-1770.3,0,0
68312.8,53.4855,-1763.17,0,0
68573.1,54.2413,-1755.86,0,0
68833.4,53.5952,-1748.81,0,0
69093.7,53.8321,-1742.16,0,0
69354.1,53.1964,-1735.41,0,0
69614.4,52.8921,-1728.84,0,0
69874.7,52.089,-1721.75,0,0
70135,51.7805,-1715.02,0,0
70395.4,51.2015,-1708.06,0,0
70655.7,50.7922,-1701.25,0,0
70916,50.5557,-1694.23,0,0
71176.3,50.5317,-1687.43,0,0
71436.7,50.3096,-1681.01,0,0
71697,49.5169,-1674.43,0,0
71957.3,49.0937,-1667.41,0,0
72217.6,48.9668,-1660.42,0,0
72478,48.6076,-1653.88,0,0
72738.3,48.4145,-1646.95,0,0
72998.6,48.468,-1640.18,0,0
73258.9,48.3465,-1633.59,0,0
73519.3,48.303,-1627.07,0,0
73779.6,48.1224,-1620.31,0,0
74039.9,48.3187,-1613.78,0,0
74300.225,48.2968,-1607.3,0,0
74560.55,48.3818,-1600.78,0,0
74820.875,48.4881,-1594.53,0,0
75081.2,48.4547,-1588.35,0,0
75341.525,48.4419,-1581.94,0,0
75601.85,48.7596,-1575.49,0,0
75862.175,48.9676,-1569.22,0,0
76122.5,49.4265,-1563.02,0,0
76382.825,49.6081,-1557.27,0,0
76643.15,49.6113,-1551.43,0,0
76903.475,49.7625,-1545.36,0,0
77163.8,50.0493,-1539.55,0,0
77424.125,50.4497,-1533.8,0,0
77684.45,50.2649,-1527.78,0,0
77944.775,50.6358,-1521.81,0,0
78205.1,51.1124,-1516.08,0,0
78465.425,51.7019,-1510.74,0,0
78725.75,51.971,-1505.61,0,0
78986.075,52.0135,-1500.36,0,0
79246.4,52.0631,-1495.14,0,0
79506.725,52.0517,-1489.9,0,0
79767.05,51.7214,-1484.65,0,0
80027.375,51.5563,-1479.32,0,0
80287.7,51.1212,-1473.91,0,0
80548.025,51.0849,-1468.18,0,0
80808.35,51.0405,-1462.73,0,0
81068.675,51.0749,-1457.21,0,0
81329.0,51.121,-1451.75,0,0
81589.325,51.1511,-1446.33,0,0
81849.65,51.1845,-1441.01,0,0
82109.975,51.2977,-1435.56,0,0
82370.3,51.3308,-1430.24,0,0
82630.625,51.3756,-1424.86,0,0
82890.95,51.5148,-1419.23,0,0
83151.275,51.8731,-1413.87,0,0
83411.6,52.2572,-1408.64,0,0
83671.925,52.582,-1403.35,0,0
83932.25,53.0885,-1398.29,0,0
84192.575,53.4969,-1393.3,0,0
84452.9,53.8321,-1388.28,0,0
84713.225,54.2353,-1383.32,0,0
84973.55,54.7631,-1378.47,0,0
85233.875,55.1253,-1373.84,0,0
85494.2,55.3942,-1369.13,0,0
85754.525,55.5971,-1364.5,0,0
86014.85,55.7208,-1359.63,0,0
86275.175,56.1753,-1354.82,0,0
86535.5,56.3713,-1350.4,0,0
86795.825,56.7584,-1345.79,0,0
87056.15,56.9249,-1340.91,0,0
87316.475,57.2844,-1336.64,0,0
87576.8,57.1747,-1332.37,0,0
87837.125,56.9558,-1327.63,0,0
88097.45,56.92,-1322.74,0,0
88357.775,57.0569,-1317.87,0,0
88618.1,57.309,-1313.15,0,0
88878.425,57.5676,-1308.36,0,0
89138.75,57.6095,-1303.41,0,0
89399.075,58.258,-1298.19,0,0
89659.4,58.8797,-1293.21,0,0
89919.725,59.6692,-1288.27,0,0
90180,60.8727,-1283.55,0,0
90440.4,61.9431,-1279.44,0,0
90700.7,62.4757,-1274.98,0,0
90961,63.3744,-1270.06,0,0
91221.3,64.7363,-1265.67,0,0
91481.7,66.227,-1261.4,0,0
91742,67.6525,-1257.66,0,0
92002.3,68.8231,-1254.03,0,0
92262.6,69.8448,-1250.34,0,0
92523,71.3597,-1246.6,0,0
92783.3,72.8981,-1243.39,0,0
93043.6,74.3384,-1240.35,0,0
93303.9,76.2105,-1237.7,0,0
93564.3,77.8667,-1235.9,0,0
93824.6,78.8717,-1235.18,0,0
94084.9,78.0506,-1234.49,0,0
94345.2,76.1253,-1233,0,0
94605.6,74.1937,-1229.89,0,0
94865.9,73.352,-1227.25,0,0
95126.2,70.9896,-1224.16,0,0
95386.5,69.7068,-1220.24,0,0
95646.9,68.1153,-1216.1,0,0
95907.2,67.1777,-1211.59,0,0
96167.5,66.6992,-1207.22,0,0
96427.8,66.3858,-1203.49,0,0
96688.2,65.4787,-1199.54,0,0
96948.5,64.5376,-1195.21,0,0
97208.8,64.1876,-1190.63,0,0
97469.1,64.1637,-1186.18,0,0
97729.5,64.2867,-1182.07,0,0
97989.8,64.5223,-1178.11,0,0
98250.1,64.156,-1174.33,0,0
98510.4,64.0021,-1170.42,0,0
98770.8,63.8172,-1166.31,0,0
99031.1,63.6535,-1162.24,0,0
99291.4,63.5786,-1158.11,0,0
99551.7,63.5124,-1154,0,0
99812.1,63.7574,-1149.84,0,0
100072,64.0153,-1146.06,0,0
100333,64.0963,-1142.19,0,0
100593,64.2095,-1138.25,0,0
100853,64.2079,-1134.52,0,0
101114,64.1612,-1130.65,0,0
101374,64.0594,-1126.85,0,0
101634,63.5205,-1122.81,0,0
101895,63.1544,-1118.24,0,0
102155,63.3277,-1113.37,0,0
102415,63.8086,-1108.55,0,0
102676,64.9072,-1104.05,0,0
102936,65.7268,-1099.84,0,0
103196,66.7367,-1095.66,0,0
103457,67.6451,-1091.67,0,0
103717,68.4787,-1087.33,0,0
103977,69.9941,-1083.02,0,0
104238,71.8921,-1079.29,0,0
104498,73.3313,-1076.01,0,0
104758,74.6752,-1072.75,0,0
105019,75.7217,-1069.54,0,0
105279,76.9946,-1066.13,0,0
105539,78.5068,-1062.84,0,0
105800,80.2743,-1059.76,0,0
106060,81.4142,-1056.94,0,0
106320.175,82.915,-1054.08,0,0
106580.5,84.4296,-1051.37,0,0
106840.825,85.9613,-1048.91,0,0
107101.15,87.3135,-1046.81,0,0
107361.475,88.4251,-1044.75,0,0
107621.8,89.2,-1042.61,0,0
107882.125,90.1365,-1040.28,0,0
108142.45,91.2029,-1038.07,0,0
108402.775,92.2286,-1036.11,0,0
108663.1,93.2081,-1034.28,0,0
108923.425,93.9947,-1032.7,0,0
109183.75,94.5054,-1031.18,0,0
109444.075,94.6995,-1029.44,0,0
109704.4,94.8896,-1027.72,0,0
109964.725,94.8852,-1025.97,0,0
110225.05,94.7345,-1024.08,0,0
110485.375,94.7273,-1022.07,0,0
110745.7,94.3848,-1019.99,0,0
111006.025,94.1508,-1017.39,0,0
111266.35,94.2148,-1015.15,0,0
111526.675,94.5074,-1012.64,0,0
111787.0,94.6278,-1010.59,0,0
112047.325,95.0088,-1008.54,0,0
112307.65,95.4062,-1006.41,0,0
112567.975,95.4893,-1004.7,0,0
112828.3,95.5413,-1002.98,0,0
113088.625,95.4554,-1001.26,0,0
113348.95,95.2497,-999.587,0,0
113609.275,95.023,-997.851,0,0
113869.6,94.5699,-996.319,0,0
114129.925,93.7233,-994.636,0,0
114390.25,92.8986,-992.663,0,0
114650.575,92.0855,-990.666,0,0
114910.9,91.241,-988.535,0,0
115171.225,90.3341,-986.351,0,0
115431.55,89.3669,-984.227,0,0
115691.875,88.0423,-981.814,0,0
115952.2,86.9365,-979.063,0,0
116212.525,86.028,-976.152,0,0
116472.85,85.2168,-973.356,0,0
116733.175,84.4881,-970.552,0,0
116993.5,83.6082,-967.649,0,0
117253.825,82.7824,-964.522,0,0
117514.15,82.176,-961.413,0,0
117774.475,81.6,-958.243,0,0
118034.8,81.149,-954.981,0,0
118295.125,80.842,-951.674,0,0
118555.45,80.6762,-948.449,0,0
118815.775,80.5395,-945.274,0,0
119076.1,80.5307,-942.16,0,0
119336.425,80.6392,-939.043,0,0
119596.75,80.8303,-936.08,0,0
119857.075,80.897,-933.184,0,0
120117.4,81.2087,-930.231,0,0
120377.725,81.5919,-927.492,0,0
120638.05,81.7703,-925.006,0,0
120898.375,81.8879,-922.595,0,0
121158.7,81.8002,-920.149,0,0
121419.025,81.8492,-917.767,0,0
121679.35,81.4745,-915.44,0,0
121939.675,81.1222,-912.795,0,0
122200.0,80.709,-910.076,0,0
122460,80.3385,-907.421,0,0
122721,79.9395,-904.513,0,0
122981,79.7063,-901.46,0,0
123241,79.5847,-898.426,0,0
123502,79.6108,-895.448,0,0
123762,79.5528,-892.55,0,0
124022,79.4356,-889.54,0,0
124283,79.6795,-886.429,0,0
124543,79.8214,-883.561,0,0
124803,79.9305,-880.72,0,0
125064,80.0797,-877.787,0,0
125324,80.3632,-874.817,0,0
125584,80.5926,-871.937,0,0
125845,80.903,-869.09,0,0
126105,81.0551,-866.332,0,0
126365,81.412,-863.516,0,0
126626,81.689,-860.712,0,0
126886,81.785,-857.934,0,0
127146,82.0109,-855.083,0,0
127406,82.2718,-852.091,0,0
127667,82.6678,-849.128,0,0
127927,83.0994,-846.119,0,0
128187,83.6038,-843.128,0,0
128448,84.3502,-840.26,0,0
128708,84.9918,-837.557,0,0
128968,85.5439,-834.832,0,0
129229,86.1621,-832.116,0,0
129489,86.7801,-829.357,0,0
129749,87.5289,-826.549,0,0
130010,88.5093,-823.72,0,0
130270,89.421,-821.073,0,0
130530,90.5131,-818.617,0,0
130791,91.5882,-816.302,0,0
131051,92.592,-814.115,0,0
131311,93.5363,-812.01,0,0
131572,94.3952,-809.995,0,0
131832,95.0694,-807.986,0,0
132092,95.8631,-806.007,0,0
132353,96.5483,-804.058,0,0
132613,97.0832,-802.06,0,0
132873,97.7005,-800.131,0,0
133134,98.2511,-798.15,0,0
133394,98.6713,-796.303,0,0
133654,99.2012,-794.28,0,0
133915,99.6757,-792.408,0,0
134175,99.887,-790.426,0,0
134435,100.074,-788.433,0,0
134696,100.334,-786.321,0,0
134956,100.7,-784.005,0,0
135216,101.278,-781.728,0,0
135477,101.725,-779.654,0,0
135737,102.127,-777.461,0,0
135997,102.699,-775.202,0,0
136258,103.44,-773.017,0,0
136518,104.126,-770.953,0,0
136778,104.891,-768.932,0,0
137039,105.52,-766.914,0,0
137299,106.268,-764.917,0,0
137559,107.262,-763.056,0,0
137819,108.078,-761.59,0,0
138080,108.869,-760.2,0,0
138340.125,109.175,-759.033,0,0
138600.45,109.213,-757.706,0,0
138860.775,109.275,-756.145,0,0
139121.1,109.16,-754.426,0,0
139381.425,109.295,-752.611,0,0
139641.75,109.435,-750.91,0,0
139902.075,109.271,-749.227,0,0
140162.4,109.111,-747.308,0,0
140422.725,109.061,-745.152,0,0
140683.05,109.061,-743.058,0,0
140943.375,109.09,-740.939,0,0
141203.7,109.221,-738.676,0,0
141464.025,109.446,-736.481,0,0
141724.35,109.722,-734.365,0,0
141984.675,110.006,-732.148,0,0
142245.0,110.497,-730.129,0,0
142505.325,110.846,-728.247,0,0
142765.65,110.952,-726.354,0,0
143025.975,111.236,-724.315,0,0
143286.3,111.256,-722.555,0,0
143546.625,111.149,-720.41,0,0
143806.95,111.143,-718.15,0,0
144067.275,111.249,-715.706,0,0
144327.6,111.608,-713.299,0,0
144587.925,111.884,-711.012,0,0
144848.25,112.169,-708.645,0,0
145108.575,112.603,-706.339,0,0
145368.9,113.158,-703.96,0,0
145629.225,113.735,-701.709,0,0
145889.55,114.272,-699.551,0,0
146149.875,114.824,-697.429,0,0
146410.2,115.334,-695.181,0,0
146670.525,116.085,-692.949,0,0
146930.85,116.893,-691.019,0,0
147191.175,117.419,-689.226,0,0
147451.5,117.753,-687.268,0,0
147711.825,118.291,-685.313,0,0
147972.15,118.84,-683.469,0,0
148232.475,119.15,-681.648,0,0
148492.8,119.464,-679.768,0,0
148753.125,119.668,-677.74,0,0
149013.45,119.885,-675.585,0,0
149273.775,120.352,-673.476,0,0
149534.1,120.722,-671.43,0,0
149794.425,121.042,-669.385,0,0
150054.75,121.345,-667.418,0,0
150315.075,121.619,-665.467,0,0
150575.4,121.829,-663.451,0,0
150835.725,121.879,-661.444,0,0
151096.05,121.716,-659.349,0,0
151356.375,121.539,-656.926,0,0
151616.7,121.555,-654.302,0,0
151877.025,121.585,-651.581,0,0
152137.35,121.694,-648.806,0,0
152397.675,121.877,-645.888,0,0
152658.0,122.255,-642.913,0,0
152918.325,122.706,-639.841,0,0
153178.65,123.479,-636.855,0,0
153438.975,124.115,-634.077,0,0
153699.3,124.509,-631.108,0,0
153959.625,124.926,-627.811,0,0
154219.95,125.714,-624.366,0,0
154480,126.557,-620.777,0,0
154741,127.875,-616.944,0,0
155001,129.666,-613.34,0,0
155261,131.617,-610.047,0,0
155522,133.548,-606.881,0,0
155782,135.621,-603.728,0,0
156042,137.848,-600.77,0,0
156303,140.072,-597.919,0,0
156563,142.453,-595.055,0,0
156823,145.015,-592.354,0,0
157084,147.792,-589.939,0,0
157344,150.488,-587.704,0,0
157604,153.205,-585.744,0,0
157864,155.752,-583.95,0,0
158125,158.136,-582.382,0,0
158385,160.122,-580.664,0,0
158645,162.101,-578.645,0,0
158906,164.137,-576.4,0,0
159166,166.593,-573.88,0,0
159426,169.489,-571.603,0,0
159687,172.499,-569.718,0,0
159947,175.388,-567.701,0,0
160207,178.513,-565.444,0,0
160468,182.381,-563.565,0,0
160728,186.391,-562.252,0,0
160988,190.336,-561.55,0,0
161249,194.016,-561.138,0,0
161509,197.459,-561.113,0,0
161769,200.697,-560.902,0,0
162030,203.979,-560.867,0,0
162290,207.065,-561.146,0,0
162550,209.86,-561.466,0,0
162811,212.675,-561.563,0,0
163071,215.628,-561.776,0,0
163331,218.8,-562.248,0,0
163592,221.837,-563.299,0,0
163852,224.299,-564.632,0,0
164112,226.353,-565.776,0,0
164373,228.238,-566.489,0,0
164633,230.576,-567.137,0,0
164893,233.079,-568.095,0,0
165154,235.533,-569.186,0,0
165414,238.165,-570.76,0,0
165674,240.556,-572.938,0,0
165935,242.479,-575.324,0,0
166195,243.892,-577.929,0,0
166455,244.965,-580.476,0,0
166716,245.707,-583.096,0,0
166976,245.845,-585.797,0,0
167236,245.637,-588.156,0,0
167497,245.282,-590.188,0,0
167757,244.751,-592.279,0,0
168017,243.985,-594.311,0,0
168277,242.828,-596.062,0,0
168538,241.639,-597.46,0,0
168798,240.334,-598.784,0,0
169058,238.837,-600.009,0,0
169319,237.184,-601.006,0,0
169579,235.031,-601.787,0,0
169839,232.782,-601.82,0,0
170100,230.982,-601.368,0,0
170360.075,229.268,-600.753,0,0
170620.4,227.911,-599.982,0,0
170880.725,226.893,-599.085,0,0
171141.05,226.14,-598.44,0,0
171401.375,225.257,-598.01,0,0
171661.7,224.269,-597.66,0,0
171922.025,222.939,-597.273,0,0
172182.35,221.467,-596.458,0,0
172442.675,220.145,-595.283,0,0
172703.0,219.064,-594.008,0,0
172963.325,218.092,-592.703,0,0
173223.65,217.21,-591.357,0,0
173483.975,216.306,-589.886,0,0
173744.3,215.519,-588.111,0,0
174004.625,215.172,-586.199,0,0
174264.95,215.193,-584.467,0,0
174525.275,215.335,-582.931,0,0
174785.6,215.624,-581.457,0,0
175045.925,216.134,-580.269,0,0
175306.25,216.599,-579.369,0,0
175566.575,216.883,-578.851,0,0
175826.9,216.782,-578.31,0,0
176087.225,216.537,-577.536,0,0
176347.55,216.512,-576.593,0,0
176607.875,216.577,-575.913,0,0
176868.2,216.564,-575.471,0,0
177128.525,216.128,-575.026,0,0
177388.85,215.545,-574.291,0,0
177649.175,215.185,-573.335,0,0
177909.5,215.022,-572.481,0,0
178169.825,214.802,-571.813,0,0
178430.15,214.446,-571.204,0,0
178690.475,214.064,-570.502,0,0
178950.8,213.673,-570.002,0,0
179211.125,213.024,-569.634,0,0
179471.45,212.165,-569.141,0,0
179731.775,211.35,-568.492,0,0
179992.1,210.362,-567.997,0,0
180252.425,208.978,-567.484,0,0
180512.75,207.276,-566.482,0,0
180773.075,205.939,-565.135,0,0
181033.4,204.566,-563.932,0,0
181293.725,202.962,-562.543,0,0
181554.05,201.409,-560.818,0,0
181814.375,200.045,-559.004,0,0
182074.7,198.628,-557.235,0,0
182335.025,197.013,-555.301,0,0
182595.35,195.286,-553.017,0,0
182855.675,193.755,-550.263,0,0
183116.0,192.631,-547.342,0,0
183376.325,191.735,-544.437,0,0
183636.65,190.901,-541.571,0,0
183896.975,190.132,-538.603,0,0
184157.3,189.571,-535.449,0,0
184417.625,189.217,-532.368,0,0
184677.95,188.982,-529.336,0,0
184938.275,188.841,-526.36,0,0
185198.6,188.771,-523.4,0,0
185458.925,188.635,-520.435,0,0
185719.25,188.654,-517.308,0,0
185979.575,188.753,-514.189,0,0
186239.9,188.983,-511.118,0,0
186500,189.209,-507.968,0,0
186761,189.598,-504.904,0,0
187021,190.06,-501.722,0,0
187281,190.673,-498.673,0,0
187542,191.393,-495.713,0,0
187802,191.949,-492.784,0,0
188062,192.42,-489.858,0,0
188322,192.862,-486.854,0,0
188583,193.529,-483.614,0,0
188843,194.279,-480.339,0,0
189103,195.019,-476.987,0,0
189364,196.165,-473.611,0,0
189624,197.4,-470.272,0,0
189884,198.779,-467.108,0,0
190145,200.162,-464.244,0,0
190405,201.37,-461.158,0,0
190665,202.516,-458.173,0,0
190926,203.871,-455.032,0,0
191186,205.231,-451.893,0,0
191446,206.675,-448.911,0,0
191707,208.001,-445.845,0,0
191967,209.541,-442.608,0,0
192227,211.19,-439.505,0,0
192488,212.699,-436.54,0,0
192748,214.04,-433.376,0,0
193008,215.514,-429.999,0,0
193269,217.073,-426.475,0,0
193529,218.936,-422.859,0,0
193789,220.963,-419.381,0,0
194050,222.918,-415.996,0,0
194310,224.867,-412.425,0,0
194570,226.911,-408.719,0,0
194831,229.104,-404.802,0,0
195091,231.616,-400.815,0,0
195351,234.464,-396.841,0,0
195612,237.467,-393.062,0,0
195872,240.603,-389.326,0,0
196132,243.717,-385.568,0,0
196393,246.942,-381.744,0,0
196653,250.549,-377.722,0,0
196913,254.455,-373.841,0,0
197174,258.727,-370.21,0,0
197434,263.264,-366.72,0,0
197694,267.718,-363.721,0,0
197955,272.128,-360.774,0,0
198215,276.547,-357.916,0,0
198475,280.916,-355.155,0,0
198735,285.223,-352.369,0,0
198996,289.65,-349.369,0,0
199256,294.145,-346.336,0,0
199516,298.918,-343.298,0,0
199777,303.798,-340.215,0,0
200037,308.833,-337.115,0,0
200297,314.029,-333.771,0,0
200558,319.819,-330.454,0,0
200818,325.952,-327.337,0,0
201078,332.478,-324.264,0,0
201339,339.339,-321.389,0,0
201599,346.57,-318.89,0,0
201859,354.046,-316.703,0,0
202120,361.727,-314.705,0,0
202380.025,369.702,-313.036,0,0
202640.35,378.041,-311.751,0,0
202900.675,386.441,-310.833,0,0
203161.0,394.963,-310.222,0,0
203421.325,403.845,-309.863,0,0
203681.65,413.035,-309.944,0,0
203941.975,422.605,-310.419,0,0
204202.3,432.494,-311.434,0,0
204462.625,442.802,-313.468,0,0
204722.95,453.137,-316.431,0,0
204983.275,463.175,-320.467,0,0
205243.6,472.741,-325.395,0,0
205503.925,481.926,-330.836,0,0
205764.25,490.572,-337.126,0,0
206024.575,498.436,-343.988,0,0
206284.9,505.536,-351.135,0,0
206545.225,512.131,-358.475,0,0
206805.55,518.177,-366.188,0,0
207065.875,523.645,-374.267,0,0
207326.2,528.257,-382.666,0,0
207586.525,531.876,-391.065,0,0
207846.85,534.746,-399.103,0,0
208107.175,537.186,-406.908,0,0
208367.5,539.153,-414.625,0,0
208627.825,540.488,-422.219,0,0
208888.15,541.399,-429.601,0,0
209148.475,541.652,-436.805,0,0
209408.8,541.228,-443.557,0,0
209669.125,540.344,-449.764,0,0
209929.45,539.211,-455.401,0,0
210189.775,537.795,-460.367,0,0
210450.1,536.298,-464.816,0,0
210710.425,534.691,-468.806,0,0
210970.75,532.817,-472.238,0,0
211231.075,530.904,-474.842,0,0
211491.4,529.294,-476.629,0,0
211751.725,528.24,-477.825,0,0
212012.05,527.661,-478.511,0,0
212272.375,527.733,-478.696,0,0
212532.7,528.785,-478.796,0,0
212793.025,530.619,-479.236,0,0
213053.35,532.824,-480.217,0,0
213313.675,535.059,-481.478,0,0
213574.0,537.447,-482.834,0,0
213834.325,540.185,-484.332,0,0
214094.65,543.263,-486.088,0,0
214354.975,546.455,-488.25,0,0
214615.3,549.814,-491.041,0,0
214875.625,552.836,-494.128,0,0
215135.95,555.511,-497.458,0,0
215396.275,557.966,-500.828,0,0
215656.6,560.431,-504.372,0,0
215916.925,562.294,-507.922,0,0
216177.25,563.83,-511.25,0,0
216437.575,565.319,-513.84,0,0
216697.9,567.23,-515.94,0,0
216958.225,569.915,-517.915,0,0
217218.55,573.151,-520.224,0,0
217478.875,576.651,-523.049,0,0
217739.2,580.204,-526.158,0,0
217999.525,583.841,-529.519,0,0
218259.85,587.492,-533.139,0,0
218520,591.062,-536.893,0,0
218780,594.844,-540.64,0,0
219041,599.034,-544.653,0,0
219301,603.439,-549.046,0,0
219561,607.909,-554.076,0,0
219822,612.505,-559.401,0,0
220082,617.061,-565.53,0,0
220342,621.307,-571.827,0,0
220603,625.456,-578.566,0,0
220863,629.738,-585.836,0,0
221123,633.786,-593.636,0,0
221384,637.477,-602.079,0,0
221644,640.714,-610.795,0,0
221904,643.74,-619.976,0,0
222165,646.453,-629.556,0,0
222425,648.786,-639.698,0,0
222685,650.499,-650.343,0,0
222946,651.475,-661.434,0,0
223206,651.783,-672.644,0,0
223466,651.407,-684.167,0,0
223727,650.178,-695.732,0,0
223987,648.005,-707.295,0,0
224247,645.278,-718.717,0,0
224508,641.844,-729.827,0,0
224768,638.051,-740.957,0,0
225028,633.691,-751.819,0,0
225289,628.733,-762.526,0,0
225549,622.694,-773.388,0,0
225809,616.036,-783.614,0,0
226070,609.046,-793.485,0,0
226330,601.375,-802.316,0,0
226590,593.375,-810.982,0,0
226851,584.89,-819.074,0,0
227111,575.829,-826.606,0,0
227371,566.72,-833.296,0,0
227632,557.667,-839.423,0,0
227892,548.599,-845.138,0,0
228152,539.393,-850.433,0,0
228413,529.936,-855.378,0,0
228673,520.61,-859.768,0,0
228933,510.862,-863.628,0,0
229193,501.211,-867.038,0,0
229454,491.484,-869.93,0,0
229714,481.875,-872.206,0,0
229974,472.127,-874.003,0,0
230235,462.644,-875.257,0,0
230495,453.331,-875.944,0,0
230755,444.363,-876.097,0,0
231016,435.788,-875.869,0,0
231276,427.408,-875.285,0,0
231536,419.608,-874.28,0,0
231797,412.176,-873.286,0,0
232057,405.187,-872.061,0,0
232317,398.57,-870.935,0,0
232578,392.066,-869.826,0,0
232838,385.819,-868.712,0,0
233098,379.642,-867.569,0,0
233359,373.582,-866.326,0,0
233619,367.761,-864.899,0,0
233879,362.209,-863.598,0,0
234140,356.686,-862.315,0,0
234400,351.239,-861.113,0,0
234660.3,345.897,-859.676,0,0
234920.625,340.608,-858.26,0,0
235180.95,335.305,-856.909,0,0
235441.275,330.189,-855.501,0,0
235701.6,324.878,-853.863,0,0
235961.925,319.796,-852.093,0,0
236222.25,314.854,-850.105,0,0
236482.575,310.239,-848.047,0,0
236742.9,305.779,-846.013,0,0
237003.225,301.578,-844.055,0,0
237263.55,297.437,-842.264,0,0
237523.875,293.432,-840.527,0,0
237784.2,289.319,-838.819,0,0
238044.525,285.188,-837.165,0,0
238304.85,281.022,-835.571,0,0
238565.175,276.783,-833.9,0,0
238825.5,272.482,-832.115,0,0
239085.825,268.22,-830.27,0,0
239346.15,263.94,-828.157,0,0
239606.475,259.769,-825.823,0,0
239866.8,255.659,-823.517,0,0
240127.125,251.768,-821.112,0,0
240387.45,247.933,-818.409,0,0
240647.775,244.302,-815.843,0,0
240908.1,240.966,-813.023,0,0
241168.425,237.542,-810.375,0,0
241428.75,234.376,-807.815,0,0
241689.075,231.08,-805.003,0,0
241949.4,228.279,-802.164,0,0
242209.725,225.561,-799.564,0,0
242470.05,222.832,-796.921,0,0
242730.375,220.196,-794.374,0,0
242990.7,217.632,-791.694,0,0
243251.025,215.212,-789.287,0,0
243511.35,212.908,-786.891,0,0
243771.675,210.493,-784.51,0,0
244032.0,208.225,-782.091,0,0
244292.325,205.884,-779.837,0,0
244552.65,203.593,-777.658,0,0
244812.975,201.222,-775.339,0,0
245073.3,198.713,-773.125,0,0
245333.625,196.615,-770.748,0,0
245593.95,194.246,-768.413,0,0
245854.275,191.957,-765.881,0,0
246114.6,189.666,-763.48,0,0
246374.925,187.496,-760.945,0,0
246635.25,185.423,-758.476,0,0
246895.575,183.405,-755.886,0,0
247155.9,181.424,-753.395,0,0
247416.225,179.514,-750.877,0,0
247676.55,177.751,-748.233,0,0
247936.875,175.941,-745.667,0,0
248197.2,174.257,-743.149,0,0
248457.525,172.625,-740.671,0,0
248717.85,171.05,-738.18,0,0
248978.175,169.421,-735.731,0,0
249238.5,167.801,-733.236,0,0
249498.825,166.36,-730.649,0,0
249759.15,164.748,-728.199,0,0
250019.475,163.434,-725.676,0,0
250279.8,162.017,-723.131,0,0
250540,160.632,-720.691,0,0
250800,159.345,-718.179,0,0
251061,158.121,-715.78,0,0
251321,156.886,-713.269,0,0
251581,155.693,-710.763,0,0
251842,154.515,-708.292,0,0
252102,153.386,-705.782,0,0
252362,152.314,-703.238,0,0
252623,151.241,-700.794,0,0
252883,150.221,-698.217,0,0
253143,149.236,-695.698,0,0
253404,148.239,-693.118,0,0
253664,147.373,-690.464,0,0
253924,146.544,-687.864,0,0
254185,145.852,-685.122,0,0
254445,145.215,-682.448,0,0
254705,144.702,-679.817,0,0
254966,144.352,-677.313,0,0
255226,143.924,-674.754,0,0
255486,143.751,-672.24,0,0
255747,143.478,-669.806,0,0
256007,143.173,-667.414,0,0
256267,142.958,-665,0,0
256528,142.746,-662.594,0,0
256788,142.605,-660.209,0,0
257048,142.585,-657.824,0,0
257309,142.544,-655.438,0,0
257569,142.66,-653.118,0,0
257829,142.781,-650.795,0,0
258090,142.963,-648.58,0,0
258350,143.205,-646.329,0,0
258610,143.471,-644.188,0,0
258871,143.735,-641.965,0,0
259131,144.083,-639.786,0,0
259391,144.588,-637.548,0,0
259651,145.102,-635.446,0,0
259912,145.78,-633.414,0,0
260172,146.601,-631.429,0,0
260432,147.308,-629.497,0,0
260693,148.239,-627.747,0,0
260953,149.161,-625.919,0,0
261213,150.164,-624.31,0,0
261474,151.175,-622.827,0,0
261734,152.163,-621.478,0,0
261994,153.136,-620.19,0,0
262255,154.167,-618.889,0,0
262515,155.145,-617.681,0,0
262775,156.173,-616.505,0,0
263036,157.298,-615.436,0,0
263296,158.505,-614.4,0,0
263556,159.68,-613.461,0,0
263817,160.963,-612.697,0,0
264077,162.287,-612.054,0,0
264337,163.616,-611.64,0,0
264598,165.011,-611.33,0,0
264858,166.215,-611.23,0,0
265118,167.45,-611.345,0,0
265379,168.605,-611.666,0,0
265639,169.667,-612.141,0,0
265899,170.492,-612.744,0,0
266160,171.212,-613.473,0,0
266420,171.812,-614.358,0,0
266680.25,172.171,-615.399,0,0
266940.575,172.309,-616.513,0,0
267200.9,172.103,-617.706,0,0
267461.225,171.702,-618.848,0,0
267721.55,170.988,-620.077,0,0
267981.875,169.988,-621.151,0,0
268242.2,168.758,-622.059,0,0
268502.525,167.266,-622.815,0,0
268762.85,165.607,-623.341,0,0
269023.175,163.774,-623.694,0,0
269283.5,161.874,-623.725,0,0
269543.825,159.929,-623.548,0,0
269804.15,157.898,-622.946,0,0
270064.475,155.951,-622.231,0,0
270324.8,154.197,-621.212,0,0
270585.125,152.524,-620.118,0,0
270845.45,150.96,-618.867,0,0
271105.775,149.48,-617.484,0,0
271366.1,148.084,-615.987,0,0
271626.425,146.812,-614.376,0,0
271886.75,145.756,-612.63,0,0
272147.075,144.863,-610.851,0,0
272407.4,144.133,-609.062,0,0
272667.725,143.543,-607.281,0,0
272928.05,143.109,-605.516,0,0
273188.375,142.797,-603.8,0,0
273448.7,142.601,-602.158,0,0
273709.025,142.464,-600.605,0,0
273969.35,142.404,-599.073,0,0
274229.675,142.33,-597.607,0,0
274490.0,142.322,-596.195,0,0
274750.325,142.386,-594.752,0,0
275010.65,142.561,-593.313,0,0
275270.975,142.753,-592.01,0,0
275531.3,143.077,-590.829,0,0
275791.625,143.225,-589.736,0,0
276051.95,143.526,-588.612,0,0
276312.275,143.768,-587.508,0,0
276572.6,144.089,-586.395,0,0
276832.925,144.478,-585.36,0,0
277093.25,144.984,-584.373,0,0
277353.575,145.458,-583.522,0,0
277613.9,145.973,-582.794,0,0
277874.225,146.454,-582.141,0,0
278134.55,146.898,-581.527,0,0
278394.875,147.38,-580.968,0,0
278655.2,147.85,-580.527,0,0
278915.525,148.323,-580.175,0,0
279175.85,148.782,-579.909,0,0
279436.175,149.2,-579.78,0,0
279696.5,149.46,-579.763,0,0
279956.825,149.685,-579.775,0,0
280217.15,149.717,-579.901,0,0
280477.475,149.716,-580.063,0,0
280737.8,149.542,-580.201,0,0
280998.125,149.219,-580.323,0,0
281258.45,148.766,-580.417,0,0
281518.775,148.239,-580.415,0,0
281779.1,147.664,-580.335,0,0
282039.425,147.107,-580.196,0,0
282299.75,146.502,-580.013,0,0
282560,145.724,-579.836,0,0
282820,144.989,-579.578,0,0
283081,144.192,-579.262,0,0
283341,143.369,-578.853,0,0
283601,142.626,-578.354,0,0
283862,141.836,-577.779,0,0
284122,141.027,-577.248,0,0
284382,140.258,-576.743,0,0
284643,139.396,-576.221,0,0
284903,138.478,-575.625,0,0
285163,137.467,-574.952,0,0
285424,136.433,-574.096,0,0
285684,135.469,-573.168,0,0
285944,134.546,-572.183,0,0
286205,133.622,-571.128,0,0
286465,132.734,-569.963,0,0
286725,131.784,-568.74,0,0
286986,130.924,-567.417,0,0
287246,130.116,-565.982,0,0
287506,129.35,-564.429,0,0
287767,128.655,-562.782,0,0
288027,128.151,-561.013,0,0
288287,127.779,-559.127,0,0
288548,127.568,-557.194,0,0
288808,127.659,-555.251,0,0
289068,127.968,-553.434,0,0
289329,128.42,-551.768,0,0
289589,128.966,-550.302,0,0
289849,129.591,-549.001,0,0
290109,130.197,-547.838,0,0
290370,130.721,-546.841,0,0
290630,131.219,-545.935,0,0
290890,131.544,-545.066,0,0
291151,131.876,-544.18,0,0
291411,132.097,-543.312,0,0
291671,132.369,-542.384,0,0
291932,132.631,-541.501,0,0
292192,132.845,-540.619,0,0
292452,133.078,-539.708,0,0
292713,133.342,-538.771,0,0
292973,133.634,-537.832,0,0
293233,133.869,-536.993,0,0
293494,134.071,-536.18,0,0
293754,134.269,-535.291,0,0
294014,134.275,-534.405,0,0
294275,134.354,-533.384,0,0
294535,134.444,-532.221,0,0
294795,134.635,-530.962,0,0
295056,134.874,-529.699,0,0
295316,135.172,-528.438,0,0
295576,135.649,-526.96,0,0
295837,136.223,-525.538,0,0
296097,137.04,-524.105,0,0
296357,138.056,-522.787,0,0
296618,139.16,-521.635,0,0
296878,140.318,-520.655,0,0
297138,141.49,-519.777,0,0
297399,142.591,-518.995,0,0
297659,143.693,-518.258,0,0
297919,144.819,-517.547,0,0
298180,146.044,-516.885,0,0
298440,147.186,-516.307,0,0
298700.2,148.337,-515.781,0,0
298960.525,149.571,-515.235,0,0
299220.85,150.801,-514.846,0,0
299481.175,152.183,-514.521,0,0
299741.5,153.549,-514.27,0,0
300001.825,154.844,-514.17,0,0
300262.15,156.034,-514.09,0,0
300522.475,157.237,-514.087,0,0
300782.8,158.412,-514.159,0,0
301043.125,159.67,-514.276,0,0
301303.45,160.855,-514.428,0,0
301563.775,161.946,-514.668,0,0
301824.1,163.221,-514.934,0,0
302084.425,164.373,-515.274,0,0
302344.75,165.511,-515.654,0,0
302605.075,166.719,-516.165,0,0
302865.4,167.754,-516.714,0,0
303125.725,168.796,-517.367,0,0
303386.05,169.785,-517.971,0,0
303646.375,170.826,-518.73,0,0
303906.7,171.822,-519.549,0,0
304167.025,172.741,-520.48,0,0
304427.35,173.485,-521.567,0,0
304687.675,174.201,-522.543,0,0
304948.0,174.786,-523.562,0,0
305208.325,175.282,-524.559,0,0
305468.65,175.883,-525.569,0,0
305728.975,176.323,-526.664,0,0
305989.3,176.814,-527.754,0,0
306249.625,177.232,-528.832,0,0
306509.95,177.548,-529.953,0,0
306770.275,177.859,-531.19,0,0
307030.6,178.141,-532.398,0,0
307290.925,178.4,-533.613,0,0
307551.25,178.518,-534.927,0,0
307811.575,178.602,-536.265,0,0
308071.9,178.658,-537.706,0,0
308332.225,178.525,-539.167,0,0
308592.55,178.365,-540.621,0,0
308852.875,178.116,-542.003,0,0
309113.2,177.55,-543.518,0,0
309373.525,177.033,-544.882,0,0
309633.85,176.563,-546.273,0,0
309894.175,175.833,-547.543,0,0
310154.5,175.199,-548.942,0,0
310414.825,174.391,-550.22,0,0
310675.15,173.631,-551.491,0,0
310935.475,172.707,-552.744,0,0
311195.8,171.782,-553.892,0,0
311456.125,170.779,-555.023,0,0
311716.45,169.741,-556.306,0,0
311976.775,168.624,-557.534,0,0
312237.1,167.39,-558.735,0,0
312497.425,165.977,-559.855,0,0
312757.75,164.532,-560.89,0,0
313018.075,163.015,-561.828,0,0
313278.4,161.35,-562.644,0,0
313538.725,159.662,-563.418,0,0
313799.05,158.082,-564.052,0,0
314059.375,156.331,-564.566,0,0
314319.7,154.701,-565.042,0,0
314580,153.021,-565.507,0,0
314840,151.338,-565.789,0,0
315101,149.604,-566.049,0,0
315361,147.885,-566.251,0,0
315621,146.2,-566.317,0,0
315882,144.489,-566.495,0,0
316142,142.79,-566.507,0,0
316402,141.072,-566.56,0,0
316663,139.31,-566.453,0,0
316923,137.516,-566.295,0,0
317183,135.806,-565.965,0,0
317444,134.109,-565.595,0,0
317704,132.458,-565.143,0,0
317964,130.927,-564.527,0,0
318225,129.437,-564.01,0,0
318485,127.917,-563.495,0,0
318745,126.562,-562.88,0,0
319006,125.197,-562.277,0,0
319266,123.881,-561.642,0,0
319526,122.572,-561.11,0,0
319787,121.182,-560.483,0,0
320047,119.818,-559.843,0,0
320307,118.431,-559.16,0,0
320567,117.163,-558.561,0,0
320828,115.741,-557.738,0,0
321088,114.392,-556.896,0,0
321348,113.106,-556.013,0,0
321609,111.851,-555.078,0,0
321869,110.601,-554.068,0,0
322129,109.435,-553.003,0,0
322390,108.32,-551.949,0,0
322650,107.315,-550.663,0,0
322910,106.34,-549.532,0,0
323171,105.375,-548.429,0,0
323431,104.554,-547.213,0,0
323691,103.752,-545.956,0,0
323952,103.052,-544.692,0,0
324212,102.46,-543.45,0,0
324472,101.972,-542.312,0,0
324733,101.568,-541.127,0,0
324993,101.193,-540.117,0,0
325253,100.842,-538.917,0,0
325514,100.591,-538.019,0,0
325774,100.395,-537.016,0,0
326034,100.089,-536.184,0,0
326295,99.8418,-535.305,0,0
326555,99.6202,-534.49,0,0
326815,99.4304,-533.755,0,0
327076,99.2783,-533.031,0,0
327336,99.0729,-532.284,0,0
327596,98.92,-531.621,0,0
327857,98.7587,-531.024,0,0
328117,98.5697,-530.436,0,0
328377,98.4046,-529.971,0,0
328638,98.1625,-529.458,0,0
328898,97.9173,-529.06,0,0
329158,97.7039,-528.513,0,0
329419,97.4267,-528.185,0,0
329679,97.1551,-527.804,0,0
329939,96.8836,-527.459,0,0
330200,96.5351,-527.129,0,0
330460,96.2418,-526.817,0,0
330720.15,95.8416,-526.554,0,0
330980.475,95.3826,-526.284,0,0
331240.8,94.9758,-526.064,0,0
331501.125,94.4179,-525.705,0,0
331761.45,93.9009,-525.465,0,0
332021.775,93.3167,-525.219,0,0
332282.1,92.6567,-524.934,0,0
332542.425,92.0986,-524.681,0,0
332802.75,91.3922,-524.288,0,0
333063.075,90.7544,-523.963,0,0
333323.4,90.0798,-523.582,0,0
333583.725,89.3436,-523.243,0,0
333844.05,88.6095,-522.819,0,0
334104.375,87.9176,-522.364,0,0
334364.7,87.122,-521.892,0,0
334625.025,86.3036,-521.428,0,0
334885.35,85.4675,-520.922,0,0
335145.675,84.6521,-520.231,0,0
335406.0,83.8318,-519.64,0,0
335666.325,83.0525,-518.977,0,0
335926.65,82.2904,-518.246,0,0
336186.975,81.5905,-517.51,0,0
336447.3,80.9514,-516.794,0,0
336707.625,80.2065,-516.058,0,0
336967.95,79.5239,-515.296,0,0
337228.275,78.8895,-514.58,0,0
337488.6,78.2762,-513.822,0,0
337748.925,77.5668,-513.152,0,0
338009.25,76.9192,-512.346,0,0
338269.575,76.2425,-511.525,0,0
338529.9,75.5867,-510.689,0,0
338790.225,74.9969,-509.944,0,0
339050.55,74.4171,-509.127,0,0
339310.875,73.8402,-508.272,0,0
339571.2,73.3247,-507.339,0,0
339831.525,72.7242,-506.549,0,0
340091.85,72.1926,-505.647,0,0
340352.175,71.6466,-504.812,0,0
340612.5,71.2423,-503.898,0,0
340872.825,70.7275,-503.082,0,0
341133.15,70.2875,-502.253,0,0
341393.475,69.8697,-501.363,0,0
341653.8,69.3026,-500.552,0,0
341914.125,69.0345,-499.723,0,0
342174.45,68.6603,-498.9,0,0
342434.775,68.1526,-498.023,0,0
342695.1,67.6366,-497.218,0,0
342955.425,67.1503,-496.39,0,0
343215.75,66.7793,-495.509,0,0
343476.075,66.3642,-494.715,0,0
343736.4,65.973,-493.908,0,0
343996.725,65.571,-492.977,0,0
344257.05,65.1988,-492.242,0,0
344517.375,64.7951,-491.399,0,0
344777.7,64.3932,-490.557,0,0
345038.025,63.9786,-489.689,0,0
345298.35,63.5067,-488.826,0,0
345558.675,63.1533,-487.977,0,0
345819.0,62.7419,-487.054,0,0
346079.325,62.3908,-486.122,0,0
346339.65,62.0412,-485.264,0,0
346599.975,61.6839,-484.301,0,0
346860,61.361,-483.391,0,0
347121,61.048,-482.411,0,0
347381,60.7725,-481.538,0,0
347641,60.4667,-480.634,0,0
347902,60.2153,-479.614,0,0
348162,59.8977,-478.719,0,0
348422,59.6825,-477.764,0,0
348683,59.4135,-476.825,0,0
348943,59.1336,-475.845,0,0
349203,58.9605,-474.9,0,0
349464,58.7634,-473.914,0,0
349724,58.6336,-472.904,0,0
349984,58.4609,-471.983,0,0
350245,58.3423,-470.996,0,0
350505,58.2705,-470.039,0,0
350765,58.1948,-469.121,0,0
351025,58.1285,-468.217,0,0
351286,58.0748,-467.307,0,0
351546,58.0268,-466.409,0,0
351806,58.0287,-465.585,0,0
352067,57.948,-464.699,0,0
352327,57.8865,-463.826,0,0
352587,57.8613,-463.021,0,0
352848,57.8044,-462.201,0,0
353108,57.7505,-461.347,0,0
353368,57.7152,-460.442,0,0
353629,57.6942,-459.679,0,0
353889,57.6533,-458.851,0,0
354149,57.6423,-457.925,0,0
354410,57.695,-457.098,0,0
354670,57.6735,-456.298,0,0
354930,57.6848,-455.479,0,0
355191,57.7235,-454.649,0,0
355451,57.8069,-453.834,0,0
355711,57.8641,-453.032,0,0
355972,57.9304,-452.271,0,0
356232,58.0344,-451.465,0,0
356492,58.1061,-450.718,0,0
356753,58.2228,-449.952,0,0
357013,58.2827,-449.242,0,0
357273,58.3975,-448.554,0,0
357534,58.4965,-447.847,0,0
357794,58.6041,-447.177,0,0
358054,58.7007,-446.517,0,0
358315,58.7539,-445.901,0,0
358575,58.7781,-445.244,0,0
358835,58.7983,-444.568,0,0
359096,58.8355,-443.915,0,0
359356,58.8522,-443.23,0,0
359616,58.8603,-442.523,0,0
359877,58.9376,-441.831,0,0
360137,58.9486,-441.199,0,0
360397,58.9873,-440.489,0,0
360658,59.066,-439.775,0,0
360918,59.1325,-439.076,0,0
361178,59.2335,-438.418,0,0
361438,59.2891,-437.775,0,0
361699,59.3542,-437.127,0,0
361959,59.4507,-436.494,0,0
362219,59.5566,-435.843,0,0
362480,59.5466,-435.253,0,0
362740.1,59.6145,-434.648,0,0
363000.425,59.649,-433.959,0,0
363260.75,59.6372,-433.313,0,0
363521.075,59.6641,-432.686,0,0
363781.4,59.7145,-432.001,0,0
364041.725,59.7305,-431.36,0,0
364302.05,59.7101,-430.645,0,0
364562.375,59.7769,-429.962,0,0
364822.7,59.8999,-429.243,0,0
365083.025,59.9195,-428.502,0,0
365343.35,59.9724,-427.816,0,0
365603.675,60.1117,-427.071,0,0
365864.0,60.1974,-426.34,0,0
366124.325,60.2736,-425.609,0,0
366384.65,60.405,-424.95,0,0
366644.975,60.5151,-424.229,0,0
366905.3,60.6388,-423.562,0,0
367165.625,60.7607,-422.824,0,0
367425.95,60.9109,-422.098,0,0
367686.275,60.9646,-421.391,0,0
367946.6,61.1192,-420.623,0,0
368206.925,61.1952,-419.766,0,0
368467.25,61.3786,-418.932,0,0
368727.575,61.6154,-418.08,0,0
368987.9,61.8161,-417.195,0,0
369248.225,62.1242,-416.297,0,0
369508.55,62.519,-415.433,0,0
369768.875,62.9197,-414.595,0,0
370029.2,63.4114,-413.776,0,0
370289.525,63.9633,-412.978,0,0
370549.85,64.5177,-412.185,0,0
370810.175,65.1016,-411.479,0,0
371070.5,65.7332,-410.879,0,0
371330.825,66.3631,-410.252,0,0
371591.15,67.0177,-409.734,0,0
371851.475,67.6558,-409.187,0,0
372111.8,68.2979,-408.717,0,0
372372.125,68.9488,-408.307,0,0
372632.45,69.5878,-407.932,0,0
372892.775,70.2561,-407.577,0,0
373153.1,70.901,-407.244,0,0
373413.425,71.5578,-406.946,0,0
373673.75,72.2153,-406.753,0,0
373934.075,72.8393,-406.571,0,0
374194.4,73.4398,-406.437,0,0
374454.725,74.0175,-406.366,0,0
374715.05,74.5688,-406.296,0,0
374975.375,75.0297,-406.327,0,0
375235.7,75.4765,-406.316,0,0
375496.025,75.8646,-406.241,0,0
375756.35,76.1959,-406.242,0,0
376016.675,76.5927,-406.224,0,0
376277.0,76.9239,-406.215,0,0
376537.325,77.2785,-406.14,0,0
376797.65,77.5962,-406.133,0,0
377057.975,77.9878,-406.122,0,0
377318.3,78.3108,-406.084,0,0
377578.625,78.6143,-406.173,0,0
377838.95,78.9443,-406.171,0,0
378099.275,79.1965,-406.274,0,0
378359.6,79.465,-406.274,0,0
378619.925,79.6772,-406.388,0,0
378880,79.9408,-406.487,0,0
379141,80.1819,-406.593,0,0
379401,80.371,-406.633,0,0
379661,80.5762,-406.767,0,0
379922,80.7141,-406.86,0,0
380182,80.8713,-406.97,0,0
380442,81.0324,-407.048,0,0
380703,81.2217,-407.185,0,0
380963,81.4143,-407.296,0,0
381223,81.5884,-407.481,0,0
381483,81.7658,-407.706,0,0
381744,81.8697,-407.982,0,0
382004,81.9826,-408.306,0,0
382264,82.0353,-408.722,0,0
382525,81.9685,-409.085,0,0
382785,81.8998,-409.453,0,0
383045,81.6907,-409.874,0,0
383306,81.4638,-410.3,0,0
383566,81.1319,-410.663,0,0
383826,80.7109,-410.997,0,0
384087,80.2518,-411.258,0,0
384347,79.7321,-411.503,0,0
384607,79.2766,-411.664,0,0
384868,78.7079,-411.8,0,0
385128,78.147,-411.84,0,0
385388,77.5547,-411.84,0,0
385649,76.9791,-411.807,0,0
385909,76.4262,-411.739,0,0
386169,75.8593,-411.639,0,0
386430,75.3017,-411.536,0,0
386690,74.6845,-411.363,0,0
386950,74.0895,-411.154,0,0
387211,73.5398,-410.924,0,0
387471,72.9093,-410.605,0,0
387731,72.3629,-410.212,0,0
387992,71.8194,-409.872,0,0
388252,71.2717,-409.439,0,0
388512,70.7667,-408.971,0,0
388773,70.3511,-408.484,0,0
389033,69.9714,-407.97,0,0
389293,69.6072,-407.461,0,0
389554,69.3386,-406.976,0,0
389814,69.0892,-406.465,0,0
390074,68.8556,-405.993,0,0
390335,68.6309,-405.564,0,0
390595,68.4231,-405.106,0,0
390855,68.2518,-404.736,0,0
391116,68.0319,-404.401,0,0
391376,67.8774,-404.029,0,0
391636,67.6473,-403.705,0,0
391896,67.4341,-403.41,0,0
392157,67.1686,-403.213,0,0
392417,66.9338,-402.935,0,0
392677,66.5802,-402.646,0,0
392938,66.2287,-402.411,0,0
393198,65.8536,-402.13,0,0
393458,65.4127,-401.809,0,0
393719,64.9763,-401.453,0,0
393979,64.5197,-401.032,0,0
394239,64.0751,-400.667,0,0
394500,63.588,-400.16,0,0
394760.05,63.1744,-399.68,0,0
395020.375,62.7187,-399.142,0,0
395280.7,62.3184,-398.602,0,0
395541.025,61.9226,-398.04,0,0
395801.35,61.5146,-397.49,0,0
396061.675,61.1687,-396.859,0,0
396322.0,60.7659,-396.244,0,0
396582.325,60.4095,-395.59,0,0
396842.65,60.1316,-394.941,0,0
397102.975,59.8064,-394.283,0,0
397363.3,59.5008,-393.604,0,0
397623.625,59.2368,-392.89,0,0
397883.95,58.9386,-392.234,0,0
398144.275,58.6999,-391.504,0,0
398404.6,58.5126,-390.811,0,0
398664.925,58.3157,-390.119,0,0
398925.25,58.1218,-389.381,0,0
399185.575,57.9166,-388.682,0,0
399445.9,57.7863,-387.948,0,0
399706.225,57.6305,-387.254,0,0
399966.55,57.4386,-386.523,0,0
400006.6,57.4324,-386.393,0,0