File: Accelerated corrosion test data/2025-09-30_18-00-03/sample_4.csv
Frequency (Hz),Impedance (ohms),Phase (Radians),Temperature (C),Humidity (%)
10000.0,264.604,-11794.5,0,0
10260.325,262.014,-11496.4,0,0
10520.65,252.382,-11215.6,0,0
10780.975,246.364,-10946.5,0,0
11041.3,241.305,-10690.4,0,0
11301.625,236.185,-10449,0,0
11561.95,230.412,-10214.2,0,0
11822.275,226.163,-9991.28,0,0
12082.6,221.771,-9777.6,0,0
12342.925,216.973,-9572.33,0,0
12603.25,214.099,-9374.24,0,0
12863.575,210.486,-9188.74,0,0
13123.9,210.611,-9010.42,0,0
13384.225,201.259,-8833.94,0,0
13644.55,197.566,-8664.11,0,0
13904.875,195.026,-8499.7,0,0
14165.2,195.486,-8339.2,0,0
14425.525,201.025,-8187.68,0,0
14685.8,204.545,-8077.64,0,0
14946.175,183.917,-7923.7,0,0
15206.5,182.381,-7779.86,0,0
15466.825,189.021,-7637.62,0,0
15727.15,191.256,-7536.68,0,0
15987.5,189.187,-7422.8,0,0
16247.8,172.54,-7296.16,0,0
16508.125,184.767,-7167.74,0,0
16768.45,179.509,-7070.38,0,0
17028.775,173.556,-6981.81,0,0
17289.1,162.169,-6869.36,0,0
17549.425,159.983,-6765.26,0,0
17809.75,157.271,-6665.01,0,0
18070.075,153.027,-6567.86,0,0
18330.4,154.955,-6471.85,0,0
18590.725,155.498,-6384.25,0,0
18851.05,150.97,-6299.92,0,0
19111.375,146.629,-6211.88,0,0
19371.7,144.332,-6127.05,0,0
19632.025,143.078,-6043.59,0,0
19892.35,144.896,-5962.91,0,0
20152.675,145.407,-5886.89,0,0
20413.0,142.377,-5815.07,0,0
20673.3,141.338,-5739.58,0,0
20933.65,138.571,-5667.58,0,0
21193.975,141.403,-5593.49,0,0
21454.3,152.257,-5527.57,0,0
21714.625,144.928,-5470.39,0,0
21974.9,151.002,-5401.39,0,0
22235.275,148.748,-5352.89,0,0
22495.6,137.234,-5298.21,0,0
22755.925,129.966,-5234.99,0,0
23016.25,125.882,-5173.43,0,0
23276.6,124.304,-5113.28,0,0
23536.9,122.727,-5056.08,0,0
23797.225,120.491,-5000.58,0,0
24057.55,118.609,-4944.45,0,0
24317.875,117.841,-4890.76,0,0
24578.2,116.252,-4837.64,0,0
24838.525,116.534,-4785.68,0,0
25098.85,115.724,-4736.36,0,0
25359.175,114.198,-4688.19,0,0
25619.5,113.758,-4638.54,0,0
25879.8,112.443,-4595.21,0,0
26140.1,109.367,-4546.35,0,0
26400.5,108.052,-4500.17,0,0
26660.8,108.206,-4454.72,0,0
26921.1,107.801,-4411.43,0,0
27181.4,106.726,-4366.91,0,0
27441.8,107.274,-4322.68,0,0
27702.1,109.492,-4279.14,0,0
27962.4,118.145,-4239.03,0,0
28222.7,120.248,-4205.54,0,0
28483.1,115.698,-4175.74,0,0
28743.4,110.912,-4135.78,0,0
29003.7,112.522,-4094.98,0,0
29264,116.042,-4061.36,0,0
29524.4,113.557,-4030.93,0,0
29784.7,108.089,-3998.4,0,0
30045,108.763,-3963.11,0,0
30305.3,102.556,-3929.79,0,0
30565.7,101.239,-3894.57,0,0
30826,99.8478,-3860,0,0
31086.3,99.7191,-3826.61,0,0
31346.6,100.732,-3793.95,0,0
31607,99.4377,-3763.87,0,0
31867.3,97.6487,-3732.66,0,0
32127.6,99.8185,-3701.14,0,0
32387.9,99.0775,-3674.95,0,0
32648.3,98.118,-3644.6,0,0
32908.6,95.994,-3618.35,0,0
33168.9,93.4167,-3589.38,0,0
33429.2,91.0601,-3560.78,0,0
33689.6,90.0187,-3532.43,0,0
33949.9,88.9023,-3504.12,0,0
34210.2,89.1077,-3476.41,0,0
34470.5,87.3615,-3450.79,0,0
34730.9,86.3295,-3423.82,0,0
34991.2,86.0112,-3397.21,0,0
35251.5,85.4409,-3372.12,0,0
35511.8,84.3501,-3346.59,0,0
35772.2,83.7896,-3321.94,0,0
36032.5,82.8465,-3297.26,0,0
36292.8,82.1918,-3272.47,0,0
36553.1,81.9604,-3248.3,0,0
36813.5,81.9559,-3224.43,0,0
37073.8,81.8178,-3202.1,0,0
37334.1,80.7906,-3178.92,0,0
37594.4,80.3979,-3156.12,0,0
37854.8,80.465,-3133.85,0,0
38115.1,79.2478,-3112.36,0,0
38375.4,78.5034,-3090.01,0,0
38635.7,78.365,-3067.9,0,0
38896.1,78.6171,-3047.07,0,0
39156.4,78.0761,-3026.15,0,0
39416.7,77.5228,-3005.38,0,0
39677,77.6784,-2984.01,0,0
39937.4,77.8719,-2963.18,0,0
40197.7,79.3854,-2942.71,0,0
40458,81.6514,-2924.72,0,0
40718.3,79.7565,-2907.4,0,0
40978.7,79.9238,-2887.46,0,0
41239,80.4483,-2868.35,0,0
41499.3,83.6092,-2852.38,0,0
41759.6,80.3119,-2836.95,0,0
42020,78.9254,-2818.31,0,0
42280.275,78.1023,-2799.27,0,0
42540.6,79.6465,-2782.75,0,0
42800.925,78.2148,-2767.11,0,0
43061.25,76.7482,-2749.13,0,0
43321.575,76.9613,-2732.6,0,0
43581.9,75.4171,-2716.16,0,0
43842.225,74.9217,-2699.02,0,0
44102.55,74.7877,-2683.24,0,0
44362.875,73.3771,-2666.42,0,0
44623.2,73.3085,-2649.94,0,0
44883.525,72.7899,-2634.26,0,0
45143.85,72.0191,-2618.43,0,0
45404.175,71.6401,-2601.82,0,0
45664.5,72.9034,-2585.51,0,0
45924.825,73.392,-2571.44,0,0
46185.15,72.3413,-2557.59,0,0
46445.475,71.4373,-2541.44,0,0
46705.8,72.2565,-2526.4,0,0
46966.125,72.5379,-2513.18,0,0
47226.45,72.9778,-2498.81,0,0
47486.775,72.6103,-2486.7,0,0
47747.1,70.8379,-2472.26,0,0
48007.425,69.8015,-2458.37,0,0
48267.75,69.5777,-2443.92,0,0
48528.075,69.0497,-2430.89,0,0
48788.4,68.1829,-2417.56,0,0
49048.725,66.9913,-2403.58,0,0
49309.05,67.3094,-2389.39,0,0
49569.375,66.5097,-2376.37,0,0
49829.7,65.8611,-2363.1,0,0
50090.025,65.8722,-2349.71,0,0
50350.35,65.6028,-2336.55,0,0
50610.675,65.4939,-2323.57,0,0
50871.0,65.2321,-2310.87,0,0
51131.325,64.7827,-2297.86,0,0
51391.65,64.8238,-2284.73,0,0
51651.975,65.1942,-2272.19,0,0
51912.3,64.9413,-2259.76,0,0
52172.625,65.3749,-2247.15,0,0
52432.95,65.4967,-2234.79,0,0
52693.275,65.7445,-2222.03,0,0
52953.6,67.2676,-2209.83,0,0
53213.925,67.9049,-2198.58,0,0
53474.25,68.6166,-2186.41,0,0
53734.575,70.1737,-2174.39,0,0
53994.9,72.9261,-2163.37,0,0
54255.225,74.8821,-2153.91,0,0
54515.55,77.2414,-2145.41,0,0
54775.875,77.0555,-2138.58,0,0
55036.2,74.8712,-2129.54,0,0
55296.525,74.137,-2119.94,0,0
55556.85,72.6002,-2110.62,0,0
55817.175,71.669,-2100.49,0,0
56077.5,69.6507,-2090.66,0,0
56337.825,68.2815,-2079.96,0,0
56598.15,67.2028,-2068.71,0,0
56858.475,66.7816,-2057.47,0,0
57118.8,66.7762,-2046.5,0,0
57379.125,67.191,-2036.04,0,0
57639.45,67.3625,-2025.89,0,0
57899.775,67.5284,-2015.54,0,0
58160.1,67.8086,-2005.29,0,0
58420.4,68.7214,-1995.24,0,0
58680.7,68.9894,-1986.15,0,0
58941.1,68.9173,-1975.79,0,0
59201.4,70.0672,-1964.95,0,0
59461.7,72.3075,-1955,0,0
59722,75.0118,-1946.18,0,0
59982.4,77.7218,-1938.86,0,0
60242.7,78.4323,-1932.4,0,0
60503,79.4611,-1924.54,0,0
60763.3,81.8088,-1918.15,0,0
61023.7,81.8409,-1914.73,0,0
61284,79.3484,-1909.63,0,0
61544.3,75.3851,-1903.15,0,0
61804.6,72.6651,-1893.42,0,0
62065,71.2248,-1885.1,0,0
62325.3,69.8127,-1877.01,0,0
62585.6,66.959,-1868.16,0,0
62845.9,66.0266,-1857.99,0,0
63106.3,65.5978,-1848.54,0,0
63366.6,65.8122,-1839.33,0,0
63626.9,65.9563,-1830.93,0,0
63887.2,65.5075,-1822.91,0,0
64147.6,64.9625,-1813.93,0,0
64407.9,64.9251,-1804.92,0,0
64668.2,65.9047,-1796.39,0,0
64928.5,66.2254,-1788.57,0,0
65188.9,66.3501,-1780.42,0,0
65449.2,66.9261,-1772.56,0,0
65709.5,67.0081,-1764.68,0,0
65969.8,67.9546,-1756.41,0,0
66230.2,68.9086,-1749.4,0,0
66490.5,69.516,-1742.18,0,0
66750.8,70.1362,-1734.96,0,0
67011.1,70.7691,-1727.96,0,0
67271.5,71.953,-1720.9,0,0
67531.8,72.4412,-1714.68,0,0
67792.1,73.6874,-1708.11,0,0
68052.4,74.5116,-1702.81,0,0
68312.8,74.8343,-1697.75,0,0
68573.1,74.4071,-1692.86,0,0
68833.4,73.4946,-1687.59,0,0
69093.7,71.7418,-1682.38,0,0
69354.1,69.7988,-1676.07,0,0
69614.4,68.0623,-1669.3,0,0
69874.7,66.6773,-1661.96,0,0
70135,65.961,-1654.61,0,0
70395.4,65.0424,-1647.69,0,0
70655.7,65.0356,-1639.46,0,0
70916,66.1563,-1633.06,0,0
71176.3,66.02,-1627.82,0,0
71436.7,65.1647,-1621.8,0,0
71697,64.9863,-1616,0,0
71957.3,63.7467,-1611.06,0,0
72217.6,61.3312,-1604.33,0,0
72478,60.0179,-1596.7,0,0
72738.3,59.4462,-1589.45,0,0
72998.6,58.4139,-1582.48,0,0
73258.9,57.9924,-1574.62,0,0
73519.3,58.3919,-1567.23,0,0
73779.6,58.7354,-1560.31,0,0
74039.9,59.2471,-1553.54,0,0
74300.225,59.6246,-1547.21,0,0
74560.55,59.9555,-1540.74,0,0
74820.875,60.4106,-1534.47,0,0
75081.2,60.8989,-1528.19,0,0
75341.525,61.6061,-1522.27,0,0
75601.85,62.0349,-1516.54,0,0
75862.175,62.3283,-1510.88,0,0
76122.5,62.7556,-1505.12,0,0
76382.825,63.1615,-1499.73,0,0
76643.15,62.9176,-1494.35,0,0
76903.475,62.704,-1488.23,0,0
77163.8,63.6004,-1481.92,0,0
77424.125,64.8791,-1476.57,0,0
77684.45,65.7613,-1472.05,0,0
77944.775,66.2445,-1467.76,0,0
78205.1,65.9769,-1463.47,0,0
78465.425,65.6151,-1458.88,0,0
78725.75,65.0172,-1454.32,0,0
78986.075,64.2411,-1449.6,0,0
79246.4,63.3301,-1444.48,0,0
79506.725,62.533,-1439.07,0,0
79767.05,61.9579,-1433.61,0,0
80027.375,61.4887,-1428.19,0,0
80287.7,61.1948,-1422.67,0,0
80548.025,61.0379,-1417.29,0,0
80808.35,60.8458,-1411.98,0,0
81068.675,60.7672,-1406.74,0,0
81329.0,60.6658,-1401.73,0,0
81589.325,60.4822,-1396.64,0,0
81849.65,60.2573,-1391.61,0,0
82109.975,60.0163,-1386.63,0,0
82370.3,59.6953,-1381.57,0,0
82630.625,59.5341,-1376.49,0,0
82890.95,59.2919,-1371.47,0,0
83151.275,59.1051,-1366.54,0,0
83411.6,58.8208,-1361.55,0,0
83671.925,58.6619,-1356.54,0,0
83932.25,58.503,-1351.6,0,0
84192.575,58.3053,-1346.71,0,0
84452.9,58.1225,-1341.82,0,0
84713.225,57.9116,-1336.85,0,0
84973.55,57.8217,-1332,0,0
85233.875,57.7511,-1327.2,0,0
85494.2,57.6403,-1322.44,0,0
85754.525,57.47,-1317.7,0,0
86014.85,57.4242,-1312.9,0,0
86275.175,57.283,-1308.21,0,0
86535.5,57.2461,-1303.54,0,0
86795.825,57.1923,-1298.94,0,0
87056.15,57.1481,-1294.4,0,0
87316.475,56.8935,-1289.96,0,0
87576.8,56.7162,-1285.49,0,0
87837.125,56.482,-1281.17,0,0
88097.45,55.9739,-1276.81,0,0
88357.775,55.2519,-1272.17,0,0
88618.1,54.7926,-1267.37,0,0
88878.425,54.4482,-1262.45,0,0
89138.75,54.2449,-1257.55,0,0
89399.075,54.1971,-1252.65,0,0
89659.4,54.1708,-1247.92,0,0
89919.725,54.1746,-1243.24,0,0
90180,54.1878,-1238.75,0,0
90440.4,54.1006,-1234.26,0,0
90700.7,54.0493,-1229.56,0,0
90961,53.889,-1225.03,0,0
91221.3,53.9178,-1220.39,0,0
91481.7,54.1137,-1215.74,0,0
91742,54.057,-1211.19,0,0
92002.3,54.3477,-1206.6,0,0
92262.6,54.7328,-1202.24,0,0
92523,55.0305,-1197.92,0,0
92783.3,55.3035,-1193.84,0,0
93043.6,55.664,-1189.95,0,0
93303.9,55.593,-1185.85,0,0
93564.3,55.2531,-1181.79,0,0
93824.6,54.9939,-1177.89,0,0
94084.9,54.7456,-1173.75,0,0
94345.2,54.5205,-1169.39,0,0
94605.6,54.1243,-1165.1,0,0
94865.9,53.9141,-1160.75,0,0
95126.2,53.9794,-1156.16,0,0
95386.5,53.8582,-1151.7,0,0
95646.9,53.8364,-1147.23,0,0
95907.2,53.8995,-1142.68,0,0
96167.5,54.1777,-1138.3,0,0
96427.8,54.5123,-1134.02,0,0
96688.2,54.6873,-1129.67,0,0
96948.5,54.8172,-1125.5,0,0
97208.8,55.0137,-1121.2,0,0
97469.1,55.361,-1116.92,0,0
97729.5,55.5819,-1112.78,0,0
97989.8,55.7644,-1108.49,0,0
98250.1,56.1001,-1104.2,0,0
98510.4,56.4233,-1099.97,0,0
98770.8,56.8703,-1095.6,0,0
99031.1,57.4039,-1091.37,0,0
99291.4,58.1324,-1087.17,0,0
99551.7,58.9665,-1083.23,0,0
99812.1,59.3421,-1079.46,0,0
100072,59.9035,-1075.42,0,0
100333,60.7428,-1071.19,0,0
100593,62.0257,-1067.33,0,0
100853,63.2475,-1064.18,0,0
101114,63.9932,-1061.18,0,0
101374,64.6818,-1058.32,0,0
101634,65.1137,-1055.79,0,0
101895,64.8915,-1053.45,0,0
102155,63.8291,-1050.78,0,0
102415,62.6517,-1047.1,0,0
102676,61.8696,-1043.18,0,0
102936,60.9972,-1039.19,0,0
103196,60.1041,-1034.62,0,0
103457,59.62,-1029.66,0,0
103717,59.6433,-1024.56,0,0
103977,60.1466,-1019.54,0,0
104238,60.8363,-1014.78,0,0
104498,61.608,-1010.08,0,0
104758,62.6333,-1005.41,0,0
105019,63.9124,-1000.91,0,0
105279,65.2718,-996.83,0,0
105539,66.5504,-992.734,0,0
105800,67.9422,-988.753,0,0
106060,69.3011,-984.991,0,0
106320.175,70.5864,-981.281,0,0
106580.5,71.9657,-977.517,0,0
106840.825,73.4074,-973.986,0,0
107101.15,74.7982,-970.546,0,0
107361.475,76.097,-967.129,0,0
107621.8,77.406,-963.667,0,0
107882.125,78.7802,-960.138,0,0
108142.45,80.4037,-956.718,0,0
108402.775,82.1256,-953.437,0,0
108663.1,83.919,-950.364,0,0
108923.425,85.7197,-947.465,0,0
109183.75,87.3996,-944.81,0,0
109444.075,89.1142,-942.269,0,0
109704.4,90.7488,-939.824,0,0
109964.725,92.1159,-937.512,0,0
110225.05,93.4208,-935.236,0,0
110485.375,94.8416,-933.025,0,0
110745.7,96.1458,-930.873,0,0
111006.025,97.3341,-928.731,0,0
111266.35,98.5251,-926.696,0,0
111526.675,99.5745,-924.602,0,0
111787.0,100.63,-922.612,0,0
112047.325,101.652,-920.697,0,0
112307.65,102.707,-918.882,0,0
112567.975,103.606,-917.087,0,0
112828.3,104.482,-915.303,0,0
113088.625,105.29,-913.602,0,0
113348.95,106.024,-911.978,0,0
113609.275,106.608,-910.433,0,0
113869.6,107.066,-908.794,0,0
114129.925,107.405,-907.213,0,0
114390.25,107.797,-905.551,0,0
114650.575,108.202,-903.941,0,0
114910.9,108.487,-902.438,0,0
115171.225,108.574,-900.958,0,0
115431.55,108.565,-899.513,0,0
115691.875,108.425,-897.938,0,0
115952.2,108.189,-896.242,0,0
116212.525,107.919,-894.508,0,0
116472.85,107.618,-892.848,0,0
116733.175,107.207,-891.221,0,0
116993.5,106.534,-889.381,0,0
117253.825,105.762,-887.385,0,0
117514.15,105.093,-885.036,0,0
117774.475,104.373,-882.577,0,0
118034.8,103.836,-879.837,0,0
118295.125,103.476,-877.02,0,0
118555.45,103.16,-874.106,0,0
118815.775,103.293,-870.875,0,0
119076.1,103.977,-867.743,0,0
119336.425,105.002,-864.783,0,0
119596.75,106.423,-862.541,0,0
119857.075,107.83,-860.978,0,0
120117.4,109.088,-859.965,0,0
120377.725,109.933,-859.52,0,0
120638.05,109.902,-859.583,0,0
120898.375,108.766,-859.391,0,0
121158.7,107.114,-858.343,0,0
121419.025,105.514,-856.809,0,0
121679.35,104.017,-854.78,0,0
121939.675,102.719,-852.493,0,0
122200.0,101.556,-850.222,0,0
122460,100.446,-847.786,0,0
122721,99.4843,-845.281,0,0
122981,98.6707,-842.589,0,0
123241,97.8752,-840.013,0,0
123502,97.1299,-837.433,0,0
123762,96.5298,-834.82,0,0
124022,95.9931,-832.318,0,0
124283,95.2944,-829.841,0,0
124543,94.6671,-827.301,0,0
124803,93.9531,-824.682,0,0
125064,93.3433,-821.998,0,0
125324,92.8702,-819.337,0,0
125584,92.3513,-816.794,0,0
125845,91.8225,-814.177,0,0
126105,91.399,-811.623,0,0
126365,90.9746,-809.196,0,0
126626,90.3889,-806.904,0,0
126886,89.6024,-804.505,0,0
127146,88.7444,-801.964,0,0
127406,87.9237,-799.335,0,0
127667,87.1942,-796.604,0,0
127927,86.4377,-793.999,0,0
128187,85.5912,-791.385,0,0
128448,84.621,-788.671,0,0
128708,83.7082,-785.786,0,0
128968,82.7691,-782.903,0,0
129229,81.7908,-780.008,0,0
129489,80.7017,-776.964,0,0
129749,79.616,-773.663,0,0
130010,78.7362,-770.219,0,0
130270,77.9557,-766.768,0,0
130530,77.2393,-763.253,0,0
130791,76.6106,-759.762,0,0
131051,75.9829,-756.186,0,0
131311,75.459,-752.52,0,0
131572,75.0383,-748.825,0,0
131832,74.7371,-745.165,0,0
132092,74.4338,-741.598,0,0
132353,74.1031,-737.928,0,0
132613,73.8889,-734.15,0,0
132873,73.7708,-730.417,0,0
133134,73.7348,-726.71,0,0
133394,73.7138,-723.029,0,0
133654,73.7056,-719.315,0,0
133915,73.7577,-715.558,0,0
134175,73.9183,-711.763,0,0
134435,74.1616,-708.035,0,0
134696,74.4594,-704.263,0,0
134956,74.7644,-700.551,0,0
135216,75.1642,-696.841,0,0
135477,75.6591,-693.116,0,0
135737,76.213,-689.486,0,0
135997,76.7728,-685.984,0,0
136258,77.2756,-682.456,0,0
136518,77.8136,-678.894,0,0
136778,78.4333,-675.33,0,0
137039,79.1158,-671.839,0,0
137299,79.8815,-668.537,0,0
137559,80.4936,-665.32,0,0
137819,80.9441,-662.105,0,0
138080,81.2666,-658.788,0,0
138340.125,81.5745,-655.252,0,0
138600.45,81.995,-651.615,0,0
138860.775,82.5006,-648.022,0,0
139121.1,83.0171,-644.341,0,0
139381.425,83.6062,-640.609,0,0
139641.75,84.301,-636.843,0,0
139902.075,85.0203,-633.108,0,0
140162.4,85.764,-629.333,0,0
140422.725,86.6246,-625.528,0,0
140683.05,87.5626,-621.686,0,0
140943.375,88.5642,-617.876,0,0
141203.7,89.7062,-614.051,0,0
141464.025,90.8631,-610.349,0,0
141724.35,92.0733,-606.709,0,0
141984.675,93.2176,-603.068,0,0
142245.0,94.4026,-599.4,0,0
142505.325,95.5973,-595.703,0,0
142765.65,96.9087,-592.031,0,0
143025.975,98.1588,-588.296,0,0
143286.3,99.4887,-584.645,0,0
143546.625,100.926,-580.972,0,0
143806.95,102.321,-577.224,0,0
144067.275,103.787,-573.469,0,0
144327.6,105.338,-569.663,0,0
144587.925,106.933,-565.895,0,0
144848.25,108.653,-562.125,0,0
145108.575,110.47,-558.372,0,0
145368.9,112.31,-554.691,0,0
145629.225,114.196,-550.969,0,0
145889.55,116.184,-547.295,0,0
146149.875,118.175,-543.673,0,0
146410.2,120.193,-539.977,0,0
146670.525,122.365,-536.31,0,0
146930.85,124.609,-532.722,0,0
147191.175,126.83,-529.22,0,0
147451.5,129.088,-525.657,0,0
147711.825,131.426,-522.101,0,0
147972.15,133.758,-518.598,0,0
148232.475,136.072,-515.021,0,0
148492.8,138.512,-511.315,0,0
148753.125,141.139,-507.613,0,0
149013.45,143.906,-503.93,0,0
149273.775,146.818,-500.279,0,0
149534.1,149.852,-496.675,0,0
149794.425,153.04,-493.133,0,0
150054.75,156.417,-489.666,0,0
150315.075,159.835,-486.383,0,0
150575.4,163.3,-483.102,0,0
150835.725,166.93,-479.803,0,0
151096.05,170.831,-476.624,0,0
151356.375,174.89,-473.667,0,0
151616.7,179.069,-470.973,0,0
151877.025,183.206,-468.522,0,0
152137.35,187.321,-466.116,0,0
152397.675,191.595,-463.819,0,0
152658.0,195.999,-461.753,0,0
152918.325,200.458,-459.961,0,0
153178.65,204.875,-458.419,0,0
153438.975,209.316,-457.146,0,0
153699.3,213.666,-456.214,0,0
153959.625,217.786,-455.532,0,0
154219.95,221.655,-454.997,0,0
154480,225.252,-454.48,0,0
154741,228.625,-454.164,0,0
155001,231.643,-453.698,0,0
155261,234.582,-453.028,0,0
155522,237.559,-452.15,0,0
155782,240.551,-451.202,0,0
156042,243.755,-450.28,0,0
156303,246.925,-449.529,0,0
156563,250.1,-448.865,0,0
156823,253.005,-448.376,0,0
157084,255.58,-447.447,0,0
157344,258.628,-446.115,0,0
157604,261.869,-445.168,0,0
157864,264.819,-444.125,0,0
158125,268.042,-442.824,0,0
158385,271.919,-441.487,0,0
158645,276.075,-440.515,0,0
158906,280.178,-439.818,0,0
159166,284.665,-439.351,0,0
159426,289.406,-439.495,0,0
159687,294.01,-440.345,0,0
159947,298.183,-441.704,0,0
160207,301.943,-443.238,0,0
160468,304.956,-445.148,0,0
160728,307.601,-446.687,0,0
160988,310.385,-448.158,0,0
161249,312.961,-450.274,0,0
161509,314.599,-452.281,0,0
161769,315.643,-453.879,0,0
162030,316.52,-455.112,0,0
162290,317.073,-455.8,0,0
162550,317.666,-455.806,0,0
162811,318.562,-455.527,0,0
163071,319.701,-455.149,0,0
163331,320.844,-454.511,0,0
163592,322.297,-453.662,0,0
163852,323.83,-452.63,0,0
164112,325.576,-451.414,0,0
164373,327.743,-449.753,0,0
164633,330.638,-448.16,0,0
164893,334.056,-446.95,0,0
165154,337.77,-446.149,0,0
165414,341.516,-445.738,0,0
165674,345.092,-445.658,0,0
165935,348.74,-445.479,0,0
166195,352.575,-445.48,0,0
166455,356.641,-445.402,0,0
166716,361.179,-445.403,0,0
166976,366.035,-445.843,0,0
167236,371.344,-447.034,0,0
167497,376.593,-448.658,0,0
167757,382.238,-450.916,0,0
168017,388.012,-454.172,0,0
168277,393.405,-458.48,0,0
168538,398.111,-463.737,0,0
168798,401.986,-469.48,0,0
169058,404.991,-475.557,0,0
169319,407.339,-481.763,0,0
169579,409.054,-488.181,0,0
169839,410.023,-494.715,0,0
170100,410.328,-501.129,0,0
170360.075,410.287,-507.58,0,0
170620.4,409.766,-514.383,0,0
170880.725,408.313,-521.567,0,0
171141.05,405.41,-528.851,0,0
171401.375,401.124,-535.365,0,0
171661.7,396.129,-540.829,0,0
171922.025,390.674,-545.461,0,0
172182.35,384.826,-549.227,0,0
172442.675,378.872,-552.218,0,0
172703.0,372.76,-554.812,0,0
172963.325,365.976,-556.712,0,0
173223.65,358.97,-557.324,0,0
173483.975,352.338,-556.973,0,0
173744.3,345.947,-555.948,0,0
174004.625,339.949,-554.12,0,0
174264.95,334.508,-551.92,0,0
174525.275,329.228,-549.349,0,0
174785.6,324.235,-546.226,0,0
175045.925,319.782,-542.651,0,0
175306.25,315.776,-538.783,0,0
175566.575,312.198,-534.784,0,0
175826.9,308.936,-530.465,0,0
176087.225,306.15,-525.969,0,0
176347.55,303.828,-521.349,0,0
176607.875,301.893,-516.661,0,0
176868.2,300.359,-511.973,0,0
177128.525,299.24,-507.315,0,0
177388.85,298.388,-502.708,0,0
177649.175,297.862,-498.079,0,0
177909.5,297.766,-493.569,0,0
178169.825,297.951,-489.385,0,0
178430.15,298.188,-485.501,0,0
178690.475,298.407,-481.676,0,0
178950.8,298.716,-477.885,0,0
179211.125,299.123,-474.142,0,0
179471.45,299.554,-470.465,0,0
179731.775,300.072,-466.789,0,0
179992.1,300.665,-463.217,0,0
180252.425,301.361,-459.621,0,0
180512.75,302.063,-456.11,0,0
180773.075,302.782,-452.65,0,0
181033.4,303.47,-449.072,0,0
181293.725,304.284,-445.491,0,0
181554.05,305.152,-441.92,0,0
181814.375,306.007,-438.333,0,0
182074.7,306.915,-434.728,0,0
182335.025,307.827,-431.038,0,0
182595.35,308.71,-427.253,0,0
182855.675,309.722,-423.334,0,0
183116.0,310.761,-419.314,0,0
183376.325,311.902,-415.153,0,0
183636.65,313.219,-410.831,0,0
183896.975,314.71,-406.388,0,0
184157.3,316.41,-401.87,0,0
184417.625,318.312,-397.308,0,0
184677.95,320.396,-392.701,0,0
184938.275,322.628,-388.064,0,0
185198.6,324.998,-383.389,0,0
185458.925,327.519,-378.617,0,0
185719.25,330.285,-373.727,0,0
185979.575,333.314,-368.756,0,0
186239.9,336.662,-363.795,0,0
186500,340.261,-358.914,0,0
186761,344.088,-353.999,0,0
187021,348.134,-349.147,0,0
187281,352.4,-344.357,0,0
187542,356.944,-339.514,0,0
187802,361.73,-334.828,0,0
188062,366.769,-330.131,0,0
188322,372.125,-325.546,0,0
188583,377.67,-320.998,0,0
188843,383.471,-316.62,0,0
189103,389.635,-312.234,0,0
189364,396.049,-308.069,0,0
189624,402.703,-304.033,0,0
189884,409.593,-300.124,0,0
190145,416.841,-296.328,0,0
190405,424.505,-292.658,0,0
190665,432.502,-289.362,0,0
190926,440.642,-286.41,0,0
191186,449.226,-283.621,0,0
191446,457.965,-281.25,0,0
191707,467.011,-279.308,0,0
191967,476.19,-277.744,0,0
192227,485.573,-276.645,0,0
192488,494.905,-275.841,0,0
192748,504.288,-275.517,0,0
193008,513.85,-275.464,0,0
193269,523.388,-275.901,0,0
193529,532.909,-276.797,0,0
193789,542.288,-277.958,0,0
194050,551.595,-279.338,0,0
194310,560.849,-280.895,0,0
194570,570.239,-282.65,0,0
194831,579.674,-284.712,0,0
195091,589.151,-287.067,0,0
195351,598.598,-289.808,0,0
195612,608.01,-292.735,0,0
195872,617.479,-295.868,0,0
196132,627.048,-299.302,0,0
196393,636.732,-303.079,0,0
196653,646.402,-307.262,0,0
196913,656.112,-311.668,0,0
197174,666.024,-316.439,0,0
197434,676.068,-321.698,0,0
197694,686.213,-327.557,0,0
197955,696.456,-333.978,0,0
198215,706.585,-341.227,0,0
198475,716.465,-349.159,0,0
198735,726.014,-357.706,0,0
198996,735.436,-366.717,0,0
199256,744.621,-376.529,0,0
199516,753.289,-387.28,0,0
199777,761.213,-398.797,0,0
200037,768.32,-410.62,0,0
200297,774.554,-422.813,0,0
200558,780.122,-435.386,0,0
200818,785.035,-447.928,0,0
201078,789.195,-460.782,0,0
201339,792.611,-473.825,0,0
201599,795.092,-487.026,0,0
201859,796.639,-500.003,0,0
202120,797.539,-512.504,0,0
202380.025,798.065,-525.004,0,0
202640.35,797.78,-537.349,0,0
202900.675,796.466,-549.208,0,0
203161.0,794.64,-560.339,0,0
203421.325,792.857,-570.455,0,0
203681.65,791.317,-580.354,0,0
203941.975,789.86,-589.987,0,0
204202.3,788.485,-599.767,0,0
204462.625,786.856,-609.848,0,0
204722.95,784.541,-619.794,0,0
204983.275,782.026,-629.164,0,0
205243.6,779.606,-638.382,0,0
205503.925,777.138,-647.512,0,0
205764.25,774.7,-656.697,0,0
206024.575,772.078,-665.966,0,0
206284.9,769.104,-675.431,0,0
206545.225,765.78,-684.863,0,0
206805.55,762.092,-694.131,0,0
207065.875,758.343,-703.449,0,0
207326.2,754.339,-712.858,0,0
207586.525,749.692,-722.661,0,0
207846.85,744.287,-732.327,0,0
208107.175,738.305,-741.745,0,0
208367.5,731.562,-750.885,0,0
208627.825,724,-759.718,0,0
208888.15,715.617,-767.603,0,0
209148.475,706.985,-774.571,0,0
209408.8,698.314,-780.801,0,0
209669.125,689.3,-786.34,0,0
209929.45,680.187,-790.89,0,0
210189.775,671.355,-794.647,0,0
210450.1,662.619,-797.733,0,0
210710.425,654.476,-800.195,0,0
210970.75,646.797,-802.319,0,0
211231.075,639.363,-804.25,0,0
211491.4,631.932,-805.946,0,0
211751.725,624.601,-806.975,0,0
212012.05,617.589,-807.671,0,0
212272.375,610.917,-807.745,0,0
212532.7,604.809,-807.434,0,0
212793.025,599.299,-806.865,0,0
213053.35,594.416,-806.098,0,0
213313.675,590.152,-805.334,0,0
213574.0,586.241,-804.729,0,0
213834.325,582.82,-804.261,0,0
214094.65,579.887,-803.517,0,0
214354.975,577.522,-803.222,0,0
214615.3,575.606,-803.215,0,0
214875.625,574.058,-803.699,0,0
215135.95,572.838,-804.76,0,0
215396.275,571.504,-806.485,0,0
215656.6,570.133,-808.537,0,0
215916.925,568.492,-811.079,0,0
216177.25,566.758,-813.909,0,0
216437.575,564.755,-817.057,0,0
216697.9,562.317,-820.365,0,0
216958.225,559.489,-823.678,0,0
217218.55,556.378,-827.044,0,0
217478.875,553.247,-830.311,0,0
217739.2,549.856,-833.6,0,0
217999.525,546.169,-836.999,0,0
218259.85,542.214,-840.235,0,0
218520,537.964,-843.393,0,0
218780,533.675,-846.254,0,0
219041,529.247,-848.818,0,0
219301,524.923,-851.216,0,0
219561,520.814,-853.58,0,0
219822,516.831,-856.117,0,0
220082,512.733,-858.874,0,0
220342,508.37,-861.857,0,0
220603,503.617,-864.591,0,0
220863,498.739,-867.259,0,0
221123,493.624,-869.81,0,0
221384,488.392,-872.343,0,0
221644,482.989,-874.868,0,0
221904,477.22,-877.154,0,0
222165,471.305,-879.21,0,0
222425,465.043,-880.993,0,0
222685,458.88,-882.124,0,0
222946,452.927,-883.12,0,0
223206,447.039,-883.864,0,0
223466,441.109,-884.575,0,0
223727,435.351,-885.235,0,0
223987,429.469,-885.74,0,0
224247,423.485,-886.2,0,0
224508,417.741,-886.406,0,0
224768,411.832,-886.552,0,0
225028,405.848,-886.717,0,0
225289,399.818,-886.425,0,0
225549,393.896,-886.256,0,0
225809,387.729,-885.889,0,0
226070,381.493,-885.369,0,0
226330,375.089,-884.434,0,0
226590,368.759,-883.245,0,0
226851,362.439,-881.543,0,0
227111,356.531,-879.687,0,0
227371,350.742,-877.54,0,0
227632,345.156,-875.411,0,0
227892,339.671,-873.13,0,0
228152,334.135,-870.812,0,0
228413,328.726,-868.209,0,0
228673,323.382,-865.344,0,0
228933,318.157,-862.238,0,0
229193,313.254,-858.89,0,0
229454,308.648,-855.476,0,0
229714,304.158,-852.039,0,0
229974,299.92,-848.267,0,0
230235,295.728,-844.515,0,0
230495,291.943,-840.707,0,0
230755,288.429,-836.751,0,0
231016,285.273,-832.797,0,0
231276,282.222,-828.708,0,0
231536,279.548,-824.811,0,0
231797,277.215,-820.899,0,0
232057,274.896,-817.292,0,0
232317,272.678,-813.685,0,0
232578,270.591,-810.164,0,0
232838,268.655,-806.675,0,0
233098,266.786,-803.265,0,0
233359,265.118,-799.865,0,0
233619,263.461,-796.465,0,0
233879,262.095,-793.129,0,0
234140,260.77,-789.883,0,0
234400,259.786,-786.75,0,0
234660.3,258.718,-783.79,0,0
234920.625,257.644,-780.95,0,0
235180.95,256.731,-778.09,0,0
235441.275,255.935,-775.466,0,0
235701.6,255.145,-772.863,0,0
235961.925,254.491,-770.499,0,0
236222.25,253.731,-768.158,0,0
236482.575,252.945,-765.863,0,0
236742.9,252.136,-763.688,0,0
237003.225,251.383,-761.5,0,0
237263.55,250.695,-759.323,0,0
237523.875,249.951,-757.145,0,0
237784.2,249.395,-755.033,0,0
238044.525,248.877,-752.919,0,0
238304.85,248.36,-750.956,0,0
238565.175,247.984,-749.028,0,0
238825.5,247.728,-747.278,0,0
239085.825,247.473,-745.677,0,0
239346.15,247.054,-744.167,0,0
239606.475,246.77,-742.817,0,0
239866.8,246.294,-741.588,0,0
240127.125,245.787,-740.353,0,0
240387.45,245.259,-739.142,0,0
240647.775,244.669,-738.117,0,0
240908.1,244.029,-737.131,0,0
241168.425,243.293,-736.278,0,0
241428.75,242.366,-735.374,0,0
241689.075,241.345,-734.47,0,0
241949.4,240.306,-733.576,0,0
242209.725,239.126,-732.488,0,0
242470.05,237.956,-731.476,0,0
242730.375,236.805,-730.505,0,0
242990.7,235.452,-729.418,0,0
243251.025,234.122,-728.213,0,0
243511.35,232.78,-726.926,0,0
243771.675,231.488,-725.689,0,0
244032.0,230.199,-724.377,0,0
244292.325,228.865,-723.071,0,0
244552.65,227.474,-721.692,0,0
244812.975,226.153,-720.309,0,0
245073.3,224.758,-718.859,0,0
245333.625,223.433,-717.338,0,0
245593.95,221.991,-715.713,0,0
245854.275,220.651,-713.99,0,0
246114.6,219.345,-712.203,0,0
246374.925,218.209,-710.257,0,0
246635.25,217.189,-708.314,0,0
246895.575,216.295,-706.452,0,0
247155.9,215.393,-704.602,0,0
247416.225,214.627,-702.787,0,0
247676.55,214,-700.948,0,0
247936.875,213.475,-699.419,0,0
248197.2,212.866,-697.898,0,0
248457.525,212.256,-696.493,0,0
248717.85,211.488,-695.208,0,0
248978.175,210.593,-693.952,0,0
249238.5,209.697,-692.603,0,0
249498.825,208.674,-691.348,0,0
249759.15,207.665,-689.931,0,0
250019.475,206.492,-688.573,0,0
250279.8,205.365,-687.008,0,0
250540,204.258,-685.362,0,0
250800,203.262,-683.767,0,0
251061,202.208,-682.28,0,0
251321,201.089,-680.807,0,0
251581,199.843,-679.331,0,0
251842,198.444,-677.783,0,0
252102,196.963,-676.109,0,0
252362,195.439,-674.329,0,0
252623,193.653,-672.426,0,0
252883,191.855,-670.218,0,0
253143,190.075,-667.736,0,0
253404,188.292,-664.888,0,0
253664,186.833,-661.716,0,0
253924,185.675,-658.435,0,0
254185,184.672,-655.143,0,0
254445,183.843,-651.69,0,0
254705,183.163,-648.255,0,0
254966,182.82,-644.744,0,0
255226,182.511,-641.156,0,0
255486,182.416,-637.653,0,0
255747,182.435,-634.042,0,0
256007,182.641,-630.37,0,0
256267,182.949,-626.662,0,0
256528,183.538,-622.796,0,0
256788,184.449,-618.954,0,0
257048,185.603,-615.191,0,0
257309,187.012,-611.473,0,0
257569,188.65,-607.9,0,0
257829,190.453,-604.386,0,0
258090,192.482,-601.017,0,0
258350,194.642,-597.816,0,0
258610,196.925,-594.649,0,0
258871,199.39,-591.566,0,0
259131,202.051,-588.534,0,0
259391,205,-585.58,0,0
259651,208.256,-582.802,0,0
259912,211.678,-580.304,0,0
260172,215.304,-578.004,0,0
260432,219.078,-575.974,0,0
260693,223.105,-574.207,0,0
260953,227.286,-572.69,0,0
261213,231.633,-571.604,0,0
261474,236.103,-570.936,0,0
261734,240.527,-570.695,0,0
261994,244.808,-570.875,0,0
262255,248.972,-571.331,0,0
262515,253.018,-571.896,0,0
262775,257.049,-572.76,0,0
263036,261.049,-573.897,0,0
263296,264.946,-575.386,0,0
263556,268.688,-577.02,0,0
263817,272.588,-579.137,0,0
264077,275.937,-581.596,0,0
264337,279.005,-584.056,0,0
264598,281.949,-586.581,0,0
264858,284.802,-589.316,0,0
265118,287.697,-592.3,0,0
265379,290.477,-595.648,0,0
265639,292.944,-599.267,0,0
265899,295.149,-603.294,0,0
266160,296.994,-607.573,0,0
266420,298.334,-612.101,0,0
266680.25,299.25,-616.762,0,0
266940.575,299.559,-621.59,0,0
267200.9,299.212,-626.403,0,0
267461.225,298.278,-630.969,0,0
267721.55,296.789,-635.117,0,0
267981.875,295.157,-638.823,0,0
268242.2,293.348,-642.207,0,0
268502.525,291.539,-645.341,0,0
268762.85,289.683,-648.311,0,0
269023.175,287.749,-651.172,0,0
269283.5,285.745,-653.971,0,0
269543.825,283.479,-656.753,0,0
269804.15,280.896,-659.446,0,0
270064.475,277.838,-661.837,0,0
270324.8,274.626,-663.526,0,0
270585.125,271.596,-664.631,0,0
270845.45,268.84,-665.408,0,0
271105.775,266.393,-665.956,0,0
271366.1,264.201,-666.479,0,0
271626.425,262.299,-666.989,0,0
271886.75,260.632,-667.633,0,0
272147.075,259.054,-668.319,0,0
272407.4,257.593,-669.204,0,0
272667.725,256.107,-670.307,0,0
272928.05,254.522,-671.596,0,0
273188.375,252.743,-672.972,0,0
273448.7,250.814,-674.32,0,0
273709.025,248.784,-675.809,0,0
273969.35,246.531,-677.283,0,0
274229.675,244.067,-678.701,0,0
274490.0,241.403,-680.2,0,0
274750.325,238.479,-681.567,0,0
275010.65,235.335,-682.835,0,0
275270.975,231.833,-683.892,0,0
275531.3,228.183,-684.685,0,0
275791.625,224.254,-685.197,0,0
276051.95,220.139,-685.335,0,0
276312.275,216.037,-685.046,0,0
276572.6,211.98,-684.372,0,0
276832.925,207.918,-683.399,0,0
277093.25,203.956,-681.981,0,0
277353.575,200.195,-680.186,0,0
277613.9,196.702,-678.096,0,0
277874.225,193.477,-675.728,0,0
278134.55,190.601,-673.218,0,0
278394.875,188.01,-670.595,0,0
278655.2,185.636,-667.923,0,0
278915.525,183.446,-665.1,0,0
279175.85,181.637,-662.139,0,0
279436.175,180.09,-659.141,0,0
279696.5,179.017,-656.165,0,0
279956.825,178.259,-653.279,0,0
280217.15,177.778,-650.624,0,0
280477.475,177.485,-648.257,0,0
280737.8,177.343,-646.051,0,0
280998.125,177.202,-644.104,0,0
281258.45,177.092,-642.315,0,0
281518.775,176.986,-640.69,0,0
281779.1,176.882,-639.225,0,0
282039.425,176.623,-637.866,0,0
282299.75,176.228,-636.509,0,0
282560,175.834,-635.018,0,0
282820,175.481,-633.482,0,0
283081,175.213,-631.825,0,0
283341,175.188,-630.174,0,0
283601,175.358,-628.62,0,0
283862,175.731,-627.261,0,0
284122,176.133,-626.187,0,0
284382,176.476,-625.352,0,0
284643,176.669,-624.718,0,0
284903,176.692,-624.11,0,0
285163,176.622,-623.561,0,0
285424,176.445,-622.984,0,0
285684,176.23,-622.43,0,0
285944,175.899,-621.869,0,0
286205,175.527,-621.365,0,0
286465,175.035,-620.893,0,0
286725,174.345,-620.373,0,0
286986,173.503,-619.728,0,0
287246,172.507,-618.923,0,0
287506,171.429,-617.983,0,0
287767,170.222,-616.713,0,0
288027,168.997,-615.025,0,0
288287,168.056,-612.934,0,0
288548,167.47,-610.591,0,0
288808,167.242,-608.093,0,0
289068,167.449,-605.553,0,0
289329,168.022,-603,0,0
289589,168.981,-600.538,0,0
289849,170.348,-598.228,0,0
290109,172.092,-596.156,0,0
290370,174.169,-594.4,0,0
290630,176.462,-593.095,0,0
290890,178.85,-592.169,0,0
291151,181.267,-591.575,0,0
291411,183.773,-591.364,0,0
291671,186.278,-591.469,0,0
291932,188.76,-592.024,0,0
292192,191.136,-592.968,0,0
292452,193.316,-594.303,0,0
292713,195.207,-595.914,0,0
292973,196.866,-597.772,0,0
293233,198.318,-599.835,0,0
293494,199.487,-602.193,0,0
293754,200.33,-604.766,0,0
294014,200.822,-607.485,0,0
294275,200.846,-610.353,0,0
294535,200.45,-613.15,0,0
294795,199.679,-615.963,0,0
295056,198.513,-618.694,0,0
295316,196.941,-621.242,0,0
295576,195.008,-623.524,0,0
295837,192.852,-625.49,0,0
296097,190.507,-627.179,0,0
296357,188.098,-628.567,0,0
296618,185.567,-629.702,0,0
296878,182.991,-630.567,0,0
297138,180.385,-631.169,0,0
297399,177.796,-631.504,0,0
297659,175.307,-631.618,0,0
297919,172.862,-631.528,0,0
298180,170.538,-631.295,0,0
298440,168.315,-630.863,0,0
298700.2,166.271,-630.36,0,0
298960.525,164.371,-629.762,0,0
299220.85,162.564,-629.233,0,0
299481.175,160.83,-628.691,0,0
299741.5,159.113,-628.144,0,0
300001.825,157.402,-627.558,0,0
300262.15,155.729,-626.949,0,0
300522.475,154.03,-626.281,0,0
300782.8,152.445,-625.609,0,0
301043.125,150.813,-624.902,0,0
301303.45,149.213,-624.143,0,0
301563.775,147.614,-623.336,0,0
301824.1,146.027,-622.5,0,0
302084.425,144.453,-621.596,0,0
302344.75,142.913,-620.588,0,0
302605.075,141.411,-619.512,0,0
302865.4,140.023,-618.357,0,0
303125.725,138.704,-617.173,0,0
303386.05,137.457,-616.002,0,0
303646.375,136.268,-614.785,0,0
303906.7,135.107,-613.542,0,0
304167.025,134.076,-612.28,0,0
304427.35,133.087,-611.024,0,0
304687.675,132.185,-609.784,0,0
304948.0,131.313,-608.579,0,0
305208.325,130.444,-607.371,0,0
305468.65,129.668,-606.127,0,0
305728.975,128.921,-604.869,0,0
305989.3,128.276,-603.593,0,0
306249.625,127.697,-602.338,0,0
306509.95,127.214,-601.145,0,0
306770.275,126.799,-599.998,0,0
307030.6,126.464,-598.918,0,0
307290.925,126.17,-597.958,0,0
307551.25,125.875,-597.107,0,0
307811.575,125.534,-596.288,0,0
308071.9,125.166,-595.526,0,0
308332.225,124.786,-594.786,0,0
308592.55,124.393,-594.095,0,0
308852.875,123.983,-593.448,0,0
309113.2,123.529,-592.821,0,0
309373.525,123.042,-592.24,0,0
309633.85,122.535,-591.666,0,0
309894.175,121.951,-591.082,0,0
310154.5,121.368,-590.53,0,0
310414.825,120.752,-589.938,0,0
310675.15,120.073,-589.373,0,0
310935.475,119.401,-588.752,0,0
311195.8,118.695,-588.124,0,0
311456.125,117.955,-587.435,0,0
311716.45,117.195,-586.755,0,0
311976.775,116.446,-586.047,0,0
312237.1,115.673,-585.275,0,0
312497.425,114.903,-584.453,0,0
312757.75,114.146,-583.591,0,0
313018.075,113.442,-582.663,0,0
313278.4,112.78,-581.708,0,0
313538.725,112.191,-580.735,0,0
313799.05,111.639,-579.778,0,0
314059.375,111.133,-578.827,0,0
314319.7,110.657,-577.876,0,0
314580,110.249,-576.984,0,0
314840,109.849,-575.978,0,0
315101,109.518,-575.11,0,0
315361,109.255,-574.26,0,0
315621,108.955,-573.415,0,0
315882,108.76,-572.69,0,0
316142,108.452,-572.008,0,0
316402,108.21,-571.265,0,0
316663,107.936,-570.719,0,0
316923,107.683,-570.069,0,0
317183,107.398,-569.639,0,0
317444,107.183,-569.119,0,0
317704,106.867,-568.616,0,0
317964,106.515,-568.217,0,0
318225,106.175,-567.849,0,0
318485,105.832,-567.515,0,0
318745,105.358,-567.112,0,0
319006,104.871,-566.932,0,0
319266,104.254,-566.704,0,0
319526,103.637,-566.418,0,0
319787,102.917,-566.171,0,0
320047,102.134,-565.811,0,0
320307,101.277,-565.525,0,0
320567,100.408,-565.168,0,0
320828,99.4545,-564.803,0,0
321088,98.5337,-564.453,0,0
321348,97.569,-564.13,0,0
321609,96.4513,-563.707,0,0
321869,95.1513,-563.102,0,0
322129,93.8754,-562.566,0,0
322390,92.6228,-561.806,0,0
322650,91.2672,-561.016,0,0
322910,89.9057,-560.025,0,0
323171,88.5802,-558.883,0,0
323431,87.3421,-557.607,0,0
323691,86.1828,-556.287,0,0
323952,85.0551,-554.758,0,0
324212,84.2023,-553.273,0,0
324472,83.393,-551.717,0,0
324733,82.6271,-550.189,0,0
324993,82.0802,-548.758,0,0
325253,81.572,-547.346,0,0
325514,81.0708,-545.893,0,0
325774,80.5775,-544.6,0,0
326034,80.1189,-543.196,0,0
326295,79.7368,-541.833,0,0
326555,79.2923,-540.57,0,0
326815,78.8457,-539.217,0,0
327076,78.4608,-537.943,0,0
327336,78.0995,-536.545,0,0
327596,77.6364,-535.231,0,0
327857,77.3567,-533.746,0,0
328117,77.0496,-532.451,0,0
328377,76.8494,-531.015,0,0
328638,76.6208,-529.534,0,0
328898,76.5146,-528.036,0,0
329158,76.4794,-526.626,0,0
329419,76.5038,-525.178,0,0
329679,76.5423,-523.816,0,0
329939,76.6491,-522.466,0,0
330200,76.9413,-521.183,0,0
330460,77.1746,-519.951,0,0
330720.15,77.4502,-518.767,0,0
330980.475,77.8972,-517.647,0,0
331240.8,78.2949,-516.669,0,0
331501.125,78.6163,-515.799,0,0
331761.45,78.9796,-514.998,0,0
332021.775,79.2615,-514.274,0,0
332282.1,79.5129,-513.614,0,0
332542.425,79.6886,-512.975,0,0
332802.75,79.772,-512.391,0,0
333063.075,79.8677,-511.861,0,0
333323.4,79.8675,-511.239,0,0
333583.725,79.8388,-510.611,0,0
333844.05,79.7696,-510.146,0,0
334104.375,79.6579,-509.53,0,0
334364.7,79.481,-508.916,0,0
334625.025,79.2884,-508.25,0,0
334885.35,79.0654,-507.701,0,0
335145.675,78.7558,-506.924,0,0
335406.0,78.4803,-506.254,0,0
335666.325,78.1623,-505.471,0,0
335926.65,77.8434,-504.7,0,0
336186.975,77.5476,-503.778,0,0
336447.3,77.2438,-502.933,0,0
336707.625,76.9108,-502.034,0,0
336967.95,76.5756,-501.103,0,0
337228.275,76.2685,-499.995,0,0
337488.6,75.9513,-498.902,0,0
337748.925,75.6898,-497.804,0,0
338009.25,75.4612,-496.54,0,0
338269.575,75.3969,-495.322,0,0
338529.9,75.2851,-493.998,0,0
338790.225,75.3039,-492.701,0,0
339050.55,75.3848,-491.356,0,0
339310.875,75.6325,-490.072,0,0
339571.2,75.8808,-488.797,0,0
339831.525,76.2098,-487.524,0,0
340091.85,76.6842,-486.327,0,0
340352.175,77.0978,-485.128,0,0
340612.5,77.6089,-484.047,0,0
340872.825,78.2036,-482.863,0,0
341133.15,78.8305,-481.835,0,0
341393.475,79.5788,-480.796,0,0
341653.8,80.2857,-479.842,0,0
341914.125,81.0696,-479.066,0,0
342174.45,81.9932,-478.294,0,0
342434.775,82.9006,-477.679,0,0
342695.1,83.768,-477.126,0,0
342955.425,84.7483,-476.746,0,0
343215.75,85.6465,-476.461,0,0
343476.075,86.4835,-476.362,0,0
343736.4,87.2712,-476.305,0,0
343996.725,87.8544,-476.381,0,0
344257.05,88.4734,-476.468,0,0
344517.375,88.8999,-476.619,0,0
344777.7,89.2493,-476.749,0,0
345038.025,89.5275,-477.041,0,0
345298.35,89.7193,-477.195,0,0
345558.675,89.7764,-477.43,0,0
345819.0,89.793,-477.562,0,0
346079.325,89.6978,-477.757,0,0
346339.65,89.5382,-477.863,0,0
346599.975,89.3924,-477.919,0,0
346860,89.1266,-477.954,0,0
347121,88.7682,-477.933,0,0
347381,88.5331,-477.869,0,0
347641,88.1624,-477.835,0,0
347902,87.8376,-477.675,0,0
348162,87.4443,-477.495,0,0
348422,87.0708,-477.287,0,0
348683,86.5937,-477.045,0,0
348943,86.1734,-476.773,0,0
349203,85.7334,-476.443,0,0
349464,85.3069,-476.111,0,0
349724,84.799,-475.685,0,0
349984,84.3909,-475.299,0,0
350245,83.8746,-474.816,0,0
350505,83.3449,-474.258,0,0
350765,82.9079,-473.697,0,0
351025,82.447,-473.013,0,0
351286,82.0839,-472.4,0,0
351546,81.6864,-471.683,0,0
351806,81.314,-470.947,0,0
352067,81.0504,-470.234,0,0
352327,80.7164,-469.496,0,0
352587,80.5089,-468.633,0,0
352848,80.2736,-467.876,0,0
353108,80.116,-466.965,0,0
353368,80.0153,-466.172,0,0
353629,79.9152,-465.37,0,0
353889,79.9338,-464.514,0,0
354149,79.9844,-463.654,0,0
354410,80.1115,-462.865,0,0
354670,80.3118,-462.192,0,0
354930,80.4592,-461.593,0,0
355191,80.693,-460.989,0,0
355451,80.8569,-460.544,0,0
355711,80.9315,-460.142,0,0
355972,80.98,-459.741,0,0
356232,81.0429,-459.309,0,0
356492,81.0161,-458.938,0,0
356753,80.9777,-458.571,0,0
357013,80.9087,-458.166,0,0
357273,80.8324,-457.778,0,0
357534,80.6863,-457.383,0,0
357794,80.4951,-457.048,0,0
358054,80.2983,-456.656,0,0
358315,80.009,-456.229,0,0
358575,79.7292,-455.737,0,0
358835,79.3126,-455.219,0,0
359096,78.9924,-454.584,0,0
359356,78.5527,-453.927,0,0
359616,78.3426,-453.124,0,0
359877,78.0068,-452.271,0,0
360137,77.7549,-451.392,0,0
360397,77.5671,-450.517,0,0
360658,77.5465,-449.558,0,0
360918,77.5208,-448.648,0,0
361178,77.5411,-447.776,0,0
361438,77.6189,-446.93,0,0
361699,77.7733,-446.066,0,0
361959,77.924,-445.165,0,0
362219,78.0938,-444.366,0,0
362480,78.3202,-443.686,0,0
362740.1,78.5763,-442.843,0,0
363000.425,78.905,-442.153,0,0
363260.75,79.1793,-441.52,0,0
363521.075,79.458,-440.891,0,0
363781.4,79.717,-440.336,0,0
364041.725,79.9508,-439.831,0,0
364302.05,80.1795,-439.34,0,0
364562.375,80.375,-438.83,0,0
364822.7,80.4309,-438.374,0,0
365083.025,80.5294,-437.934,0,0
365343.35,80.5477,-437.393,0,0
365603.675,80.5113,-436.848,0,0
365864.0,80.4653,-436.181,0,0
366124.325,80.4392,-435.519,0,0
366384.65,80.4884,-434.724,0,0
366644.975,80.5573,-433.917,0,0
366905.3,80.689,-433.014,0,0
367165.625,80.916,-432.134,0,0
367425.95,81.1344,-431.301,0,0
367686.275,81.4559,-430.433,0,0
367946.6,81.8016,-429.491,0,0
368206.925,82.2367,-428.578,0,0
368467.25,82.7081,-427.715,0,0
368727.575,83.3577,-426.783,0,0
368987.9,84.0669,-425.927,0,0
369248.225,84.8492,-425.123,0,0
369508.55,85.7559,-424.409,0,0
369768.875,86.723,-423.763,0,0
370029.2,87.6883,-423.298,0,0
370289.525,88.7011,-422.952,0,0
370549.85,89.7161,-422.657,0,0
370810.175,90.6738,-422.463,0,0
371070.5,91.7307,-422.334,0,0
371330.825,92.7046,-422.31,0,0
371591.15,93.7025,-422.391,0,0
371851.475,94.6379,-422.579,0,0
372111.8,95.5551,-422.854,0,0
372372.125,96.4263,-423.248,0,0
372632.45,97.237,-423.778,0,0
372892.775,97.96,-424.387,0,0
373153.1,98.4966,-425.062,0,0
373413.425,98.9615,-425.79,0,0
373673.75,99.2228,-426.622,0,0
373934.075,99.3576,-427.446,0,0
374194.4,99.31,-428.267,0,0
374454.725,99.1894,-428.91,0,0
374715.05,98.8192,-429.517,0,0
374975.375,98.4552,-429.97,0,0
375235.7,98.0597,-430.313,0,0
375496.025,97.69,-430.535,0,0
375756.35,97.3321,-430.672,0,0
376016.675,97.02,-430.828,0,0
376277.0,96.7681,-430.858,0,0
376537.325,96.5377,-430.891,0,0
376797.65,96.3091,-431.031,0,0
377057.975,96.0995,-431.105,0,0
377318.3,95.8589,-431.226,0,0
377578.625,95.6175,-431.277,0,0
377838.95,95.3608,-431.37,0,0
378099.275,95.0923,-431.488,0,0
378359.6,94.775,-431.532,0,0
378619.925,94.4159,-431.562,0,0
378880,94.0529,-431.606,0,0
379141,93.669,-431.562,0,0
379401,93.3289,-431.491,0,0
379661,93.0354,-431.359,0,0
379922,92.7415,-431.292,0,0
380182,92.4615,-431.19,0,0
380442,92.1775,-431.056,0,0
380703,91.9833,-430.914,0,0
380963,91.7154,-430.836,0,0
381223,91.4621,-430.764,0,0
381483,91.2692,-430.694,0,0
381744,91.0185,-430.606,0,0
382004,90.7542,-430.53,0,0
382264,90.6051,-430.399,0,0
382525,90.4132,-430.36,0,0
382785,90.2524,-430.318,0,0
383045,90.0639,-430.301,0,0
383306,89.9296,-430.361,0,0
383566,89.7887,-430.466,0,0
383826,89.5866,-430.715,0,0
384087,89.271,-430.926,0,0
384347,88.8695,-431.197,0,0
384607,88.4264,-431.528,0,0
384868,87.7788,-431.924,0,0
385128,87.0451,-432.183,0,0
385388,86.1817,-432.37,0,0
385649,85.2654,-432.445,0,0
385909,84.2806,-432.407,0,0
386169,83.2794,-432.253,0,0
386430,82.3156,-431.987,0,0
386690,81.315,-431.603,0,0
386950,80.3878,-431.122,0,0
387211,79.5117,-430.63,0,0
387471,78.6623,-430.003,0,0
387731,77.8324,-429.369,0,0
387992,77.02,-428.583,0,0
388252,76.3324,-427.746,0,0
388512,75.7267,-426.835,0,0
388773,75.2479,-425.935,0,0
389033,74.8185,-424.977,0,0
389293,74.5719,-424.036,0,0
389554,74.4159,-423.154,0,0
389814,74.3037,-422.316,0,0
390074,74.3398,-421.538,0,0
390335,74.4846,-420.836,0,0
390595,74.6113,-420.286,0,0
390855,74.7961,-419.821,0,0
391116,74.9586,-419.465,0,0
391376,75.0717,-419.302,0,0
391636,75.1662,-419.207,0,0
391896,75.0789,-419.173,0,0
392157,74.9561,-419.242,0,0
392417,74.6895,-419.294,0,0
392677,74.2776,-419.386,0,0
392938,73.7719,-419.418,0,0
393198,73.2136,-419.423,0,0
393458,72.5277,-419.356,0,0
393719,71.7978,-419.24,0,0
393979,70.9387,-418.981,0,0
394239,70.0595,-418.672,0,0
394500,69.2636,-418.255,0,0
394760.05,68.3624,-417.674,0,0
395020.375,67.5367,-417.065,0,0
395280.7,66.7464,-416.4,0,0
395541.025,66.0549,-415.656,0,0
395801.35,65.3388,-414.887,0,0
396061.675,64.7016,-414.072,0,0
396322.0,64.0565,-413.198,0,0
396582.325,63.5231,-412.33,0,0
396842.65,63.0315,-411.39,0,0
397102.975,62.5705,-410.498,0,0
397363.3,62.1033,-409.604,0,0
397623.625,61.6862,-408.657,0,0
397883.95,61.3418,-407.684,0,0
398144.275,60.9912,-406.793,0,0
398404.6,60.7398,-405.864,0,0
398664.925,60.4676,-404.933,0,0
398925.25,60.229,-404.007,0,0
399185.575,59.9174,-403.114,0,0
399445.9,59.6834,-402.185,0,0
399706.225,59.4827,-401.232,0,0
399966.55,59.2643,-400.27,0,0
400006.6,59.1994,-400.089,0,0