File: Accelerated corrosion test data/2025-09-30_18-00-03/sample_2.csv
Frequency (Hz),Impedance (ohms),Phase (Radians),Temperature (C),Humidity (%)
10000.0,223.88,-11338.1,0,0
10260.325,218.362,-11052.6,0,0
10520.65,212.709,-10781.3,0,0
10780.975,209.067,-10522.2,0,0
11041.3,203.139,-10276.8,0,0
11301.625,199.154,-10041,0,0
11561.95,195.908,-9815.89,0,0
11822.275,192.336,-9604.93,0,0
12082.6,190.319,-9401.36,0,0
12342.925,182.841,-9204.28,0,0
12603.25,179.328,-9014.46,0,0
12863.575,175.985,-8831.93,0,0
13123.9,174.262,-8660.51,0,0
13384.225,170.156,-8490.92,0,0
13644.55,167.371,-8326.58,0,0
13904.875,179.125,-8183.4,0,0
14165.2,162.343,-8029.76,0,0
14425.525,158.448,-7883.1,0,0
14685.8,161.37,-7738.03,0,0
14946.175,158.431,-7611.42,0,0
15206.5,158.124,-7490.25,0,0
15466.825,162.889,-7357.19,0,0
15727.15,148.026,-7243.66,0,0
15987.5,144.841,-7123.5,0,0
16247.8,145.259,-7009.18,0,0
16508.125,140.101,-6900.64,0,0
16768.45,138.02,-6793.34,0,0
17028.775,136.141,-6689.83,0,0
17289.1,134.563,-6590.21,0,0
17549.425,131.925,-6492.07,0,0
17809.75,130.201,-6396.46,0,0
18070.075,129.24,-6304.99,0,0
18330.4,127.124,-6214.63,0,0
18590.725,125.699,-6127.48,0,0
18851.05,124.901,-6041.84,0,0
19111.375,126.414,-5961.49,0,0
19371.7,125.584,-5884.2,0,0
19632.025,120.534,-5806.9,0,0
19892.35,118.222,-5729.48,0,0
20152.675,116.576,-5654.44,0,0
20413.0,116.033,-5581.35,0,0
20673.3,115.298,-5509.17,0,0
20933.65,116.024,-5438.34,0,0
21193.975,118.76,-5372.04,0,0
21454.3,126.115,-5310.54,0,0
21714.625,124.46,-5253.3,0,0
21974.9,121.366,-5189.75,0,0
22235.275,116.297,-5135.92,0,0
22495.6,112.499,-5075.77,0,0
22755.925,110.04,-5015.06,0,0
23016.25,109.334,-4960.58,0,0
23276.6,109.861,-4906.37,0,0
23536.9,106.676,-4851.82,0,0
23797.225,105.187,-4798.08,0,0
24057.55,104.212,-4746.86,0,0
24317.875,100.97,-4696.8,0,0
24578.2,99.7693,-4646.09,0,0
24838.525,97.9177,-4596.87,0,0
25098.85,97.691,-4548.14,0,0
25359.175,96.8924,-4500.65,0,0
25619.5,95.0667,-4455.11,0,0
25879.8,94.7016,-4409,0,0
26140.1,94.0727,-4364.9,0,0
26400.5,94.0386,-4322.05,0,0
26660.8,94.2195,-4281,0,0
26921.1,93.0246,-4238.63,0,0
27181.4,92.639,-4199.38,0,0
27441.8,90.7822,-4159.21,0,0
27702.1,89.3482,-4119.45,0,0
27962.4,88.8873,-4079.8,0,0
28222.7,88.8123,-4041.49,0,0
28483.1,88.2743,-4003.71,0,0
28743.4,87.0875,-3966.58,0,0
29003.7,88.9429,-3929.35,0,0
29264,88.5889,-3893.78,0,0
29524.4,92.2567,-3858.7,0,0
29784.7,94.2524,-3831.93,0,0
30045,90.0082,-3798.62,0,0
30305.3,92.6795,-3766.15,0,0
30565.7,88.4435,-3737.61,0,0
30826,86.66,-3704.67,0,0
31086.3,85.1897,-3673.75,0,0
31346.6,83.507,-3642.71,0,0
31607,83.8325,-3612.58,0,0
31867.3,81.8116,-3583.15,0,0
32127.6,80.8328,-3552.68,0,0
32387.9,81.1502,-3522.62,0,0
32648.3,82.6413,-3495.51,0,0
32908.6,81.4223,-3469.47,0,0
33168.9,80.4732,-3442.37,0,0
33429.2,78.3293,-3415.16,0,0
33689.6,78.5693,-3388.93,0,0
33949.9,77.2431,-3363.34,0,0
34210.2,75.7592,-3337.15,0,0
34470.5,75.189,-3311.1,0,0
34730.9,74.6507,-3285.55,0,0
34991.2,73.9477,-3260.89,0,0
35251.5,73.5584,-3236.62,0,0
35511.8,73.095,-3212.4,0,0
35772.2,72.6532,-3188.67,0,0
36032.5,71.8555,-3165.37,0,0
36292.8,71.4899,-3142.23,0,0
36553.1,71.0641,-3119.51,0,0
36813.5,70.5571,-3096.89,0,0
37073.8,70.3193,-3074.83,0,0
37334.1,70.0397,-3052.92,0,0
37594.4,69.595,-3031.73,0,0
37854.8,69.4657,-3010.41,0,0
38115.1,68.8473,-2989.82,0,0
38375.4,68.2913,-2969.07,0,0
38635.7,67.9202,-2948.61,0,0
38896.1,67.5972,-2928.4,0,0
39156.4,67.2317,-2908.69,0,0
39416.7,66.8111,-2889.15,0,0
39677,66.4697,-2869.76,0,0
39937.4,66.4746,-2850.58,0,0
40197.7,65.8313,-2831.93,0,0
40458,65.2003,-2813.1,0,0
40718.3,65.3102,-2794.56,0,0
40978.7,65.0123,-2776.65,0,0
41239,64.6506,-2758.66,0,0
41499.3,64.517,-2740.91,0,0
41759.6,64.3548,-2723.34,0,0
42020,64.3057,-2706.28,0,0
42280.275,64.0761,-2689.62,0,0
42540.6,63.5179,-2672.53,0,0
42800.925,63.0169,-2655.91,0,0
43061.25,62.7296,-2639.29,0,0
43321.575,62.865,-2623.03,0,0
43581.9,62.6991,-2607.03,0,0
43842.225,62.2883,-2591.11,0,0
44102.55,62.5458,-2575.7,0,0
44362.875,62.0886,-2560.38,0,0
44623.2,61.3194,-2545.09,0,0
44883.525,61.034,-2529.65,0,0
45143.85,61.1338,-2514.3,0,0
45404.175,61.0433,-2499.69,0,0
45664.5,60.6228,-2484.93,0,0
45924.825,60.9029,-2470.18,0,0
46185.15,61.0479,-2456.34,0,0
46445.475,60.2598,-2442.5,0,0
46705.8,60.1325,-2428.02,0,0
46966.125,59.9123,-2413.98,0,0
47226.45,59.9112,-2399.97,0,0
47486.775,60.2388,-2386.8,0,0
47747.1,59.9751,-2373.68,0,0
48007.425,59.7892,-2360.1,0,0
48267.75,60.3845,-2346.74,0,0
48528.075,60.6833,-2334.53,0,0
48788.4,60.2332,-2322.35,0,0
49048.725,59.9036,-2310.15,0,0
49309.05,59.3336,-2298.13,0,0
49569.375,58.3124,-2285.43,0,0
49829.7,58.1869,-2272.9,0,0
50090.025,57.6692,-2260.79,0,0
50350.35,57.2154,-2248.27,0,0
50610.675,57.2221,-2236.15,0,0
50871.0,57.1495,-2224.34,0,0
51131.325,57.0645,-2212.7,0,0
51391.65,56.7518,-2201.5,0,0
51651.975,56.2462,-2190.02,0,0
51912.3,55.6475,-2178.48,0,0
52172.625,55.3176,-2166.99,0,0
52432.95,54.9881,-2155.56,0,0
52693.275,54.8358,-2144.29,0,0
52953.6,54.5861,-2133.21,0,0
53213.925,54.3985,-2122.15,0,0
53474.25,54.2286,-2111.22,0,0
53734.575,53.9674,-2100.42,0,0
53994.9,53.8999,-2089.66,0,0
54255.225,53.8733,-2078.92,0,0
54515.55,53.7173,-2068.43,0,0
54775.875,53.6548,-2058.11,0,0
55036.2,53.6137,-2047.7,0,0
55296.525,53.4674,-2037.41,0,0
55556.85,53.4505,-2027.34,0,0
55817.175,53.4832,-2017.31,0,0
56077.5,53.2593,-2007.44,0,0
56337.825,53.256,-1997.51,0,0
56598.15,53.282,-1987.57,0,0
56858.475,53.383,-1977.91,0,0
57118.8,53.5392,-1968.29,0,0
57379.125,53.5251,-1959.01,0,0
57639.45,53.4521,-1949.45,0,0
57899.775,53.6211,-1940.12,0,0
58160.1,53.5687,-1931.03,0,0
58420.4,53.5086,-1921.84,0,0
58680.7,53.497,-1912.57,0,0
58941.1,53.8297,-1903.44,0,0
59201.4,53.9919,-1894.4,0,0
59461.7,54.1821,-1885.54,0,0
59722,54.4729,-1876.64,0,0
59982.4,55.1737,-1867.99,0,0
60242.7,55.6268,-1859.86,0,0
60503,55.4636,-1851.82,0,0
60763.3,55.5773,-1843.15,0,0
61023.7,56.1223,-1834.63,0,0
61284,57.0591,-1826.39,0,0
61544.3,58.0196,-1818.91,0,0
61804.6,58.6579,-1811.98,0,0
62065,58.348,-1805.6,0,0
62325.3,57.3595,-1798.23,0,0
62585.6,57.1055,-1790.36,0,0
62845.9,57.1779,-1783.39,0,0
63106.3,56.3624,-1776.33,0,0
63366.6,55.7085,-1769.1,0,0
63626.9,54.5746,-1761.41,0,0
63887.2,54.3297,-1753.67,0,0
64147.6,53.7355,-1746.46,0,0
64407.9,52.9709,-1738.77,0,0
64668.2,52.5102,-1731.28,0,0
64928.5,51.6395,-1723.82,0,0
65188.9,50.8621,-1716.18,0,0
65449.2,50.2213,-1708.07,0,0
65709.5,50.3084,-1699.96,0,0
65969.8,50.4013,-1692.24,0,0
66230.2,50.4609,-1684.79,0,0
66490.5,50.5214,-1677.35,0,0
66750.8,50.6601,-1670.1,0,0
67011.1,50.5142,-1662.53,0,0
67271.5,51.0531,-1655.1,0,0
67531.8,51.7512,-1647.95,0,0
67792.1,52.5412,-1641.07,0,0
68052.4,52.9229,-1634.87,0,0
68312.8,52.896,-1628.26,0,0
68573.1,53.3499,-1621.58,0,0
68833.4,53.8092,-1615.27,0,0
69093.7,53.9162,-1609.08,0,0
69354.1,54.4537,-1602.53,0,0
69614.4,55.2343,-1596.83,0,0
69874.7,55.4981,-1591.72,0,0
70135,55.1512,-1586.47,0,0
70395.4,54.5578,-1581.18,0,0
70655.7,53.4636,-1575.55,0,0
70916,52.8056,-1569.25,0,0
71176.3,52.5644,-1563.38,0,0
71436.7,51.8339,-1557.85,0,0
71697,50.7882,-1552.32,0,0
71957.3,49.3454,-1546.26,0,0
72217.6,48.1998,-1539.79,0,0
72478,47.3338,-1533,0,0
72738.3,46.8456,-1526.57,0,0
72998.6,46.2933,-1520.05,0,0
73258.9,45.6953,-1513.71,0,0
73519.3,45.1414,-1507.06,0,0
73779.6,44.8952,-1500.41,0,0
74039.9,44.7944,-1493.94,0,0
74300.225,44.7911,-1487.43,0,0
74560.55,44.8087,-1481.14,0,0
74820.875,44.8674,-1474.82,0,0
75081.2,45.0229,-1468.57,0,0
75341.525,45.2299,-1462.28,0,0
75601.85,45.512,-1456.25,0,0
75862.175,45.8708,-1450.16,0,0
76122.5,46.3354,-1444.27,0,0
76382.825,46.7216,-1438.5,0,0
76643.15,47.125,-1432.75,0,0
76903.475,47.5991,-1426.98,0,0
77163.8,48.1902,-1421.31,0,0
77424.125,48.836,-1415.86,0,0
77684.45,49.4944,-1410.46,0,0
77944.775,50.1651,-1405.28,0,0
78205.1,51.0052,-1400.2,0,0
78465.425,51.6342,-1395.48,0,0
78725.75,52.1571,-1390.75,0,0
78986.075,52.7935,-1386.38,0,0
79246.4,52.8775,-1382.14,0,0
79506.725,53.0451,-1377.69,0,0
79767.05,53.0102,-1373.83,0,0
80027.375,52.2706,-1369.57,0,0
80287.7,51.487,-1365,0,0
80548.025,50.8089,-1360.16,0,0
80808.35,50.2152,-1355.17,0,0
81068.675,49.8643,-1350.18,0,0
81329.0,49.3893,-1345.18,0,0
81589.325,49.0686,-1340.15,0,0
81849.65,48.6935,-1335.16,0,0
82109.975,48.3542,-1330.06,0,0
82370.3,48.0991,-1324.96,0,0
82630.625,47.9448,-1319.77,0,0
82890.95,47.8248,-1314.69,0,0
83151.275,47.9046,-1309.53,0,0
83411.6,48.0199,-1304.49,0,0
83671.925,48.1824,-1299.53,0,0
83932.25,48.4568,-1294.73,0,0
84192.575,48.7358,-1290.07,0,0
84452.9,48.828,-1285.41,0,0
84713.225,48.9053,-1280.75,0,0
84973.55,48.963,-1275.97,0,0
85233.875,49.2654,-1271.32,0,0
85494.2,49.4771,-1266.78,0,0
85754.525,49.7725,-1262.29,0,0
86014.85,50.0804,-1257.92,0,0
86275.175,50.1648,-1253.6,0,0
86535.5,50.1807,-1249.28,0,0
86795.825,50.2207,-1244.7,0,0
87056.15,50.6799,-1240.21,0,0
87316.475,51.1752,-1236.11,0,0
87576.8,51.2912,-1232.37,0,0
87837.125,50.98,-1228.34,0,0
88097.45,50.881,-1223.84,0,0
88357.775,51.2131,-1219.51,0,0
88618.1,51.3205,-1215.82,0,0
88878.425,50.8173,-1211.58,0,0
89138.75,50.7737,-1206.98,0,0
89399.075,50.8643,-1202.39,0,0
89659.4,51.3523,-1198.04,0,0
89919.725,51.8021,-1194.1,0,0
90180,51.976,-1190.37,0,0
90440.4,51.743,-1186.59,0,0
90700.7,51.4036,-1182.19,0,0
90961,51.6455,-1177.57,0,0
91221.3,52.2969,-1173.51,0,0
91481.7,52.5086,-1169.67,0,0
91742,52.5674,-1165.56,0,0
92002.3,52.939,-1161.25,0,0
92262.6,53.6405,-1157.16,0,0
92523,54.303,-1153.62,0,0
92783.3,54.7162,-1149.94,0,0
93043.6,55.3285,-1146.29,0,0
93303.9,55.8582,-1142.99,0,0
93564.3,56.2657,-1139.74,0,0
93824.6,56.4257,-1136.83,0,0
94084.9,56.1548,-1133.78,0,0
94345.2,55.692,-1130.36,0,0
94605.6,55.2531,-1126.68,0,0
94865.9,55.3019,-1122.83,0,0
95126.2,55.1422,-1119.48,0,0
95386.5,54.62,-1115.75,0,0
95646.9,54.3659,-1111.23,0,0
95907.2,55.1751,-1106.92,0,0
96167.5,56.0994,-1103.46,0,0
96427.8,56.6977,-1100.3,0,0
96688.2,57.0602,-1097.3,0,0
96948.5,57.2528,-1094.12,0,0
97208.8,57.6519,-1090.86,0,0
97469.1,58.0252,-1088.11,0,0
97729.5,58.0675,-1085.44,0,0
97989.8,57.9548,-1082.65,0,0
98250.1,57.7789,-1079.82,0,0
98510.4,57.5983,-1077.04,0,0
98770.8,57.4046,-1074.58,0,0
99031.1,56.5024,-1072.32,0,0
99291.4,55.3092,-1069.38,0,0
99551.7,53.986,-1066.3,0,0
99812.1,52.6903,-1062.64,0,0
100072,51.8323,-1058.74,0,0
100333,51.3467,-1054.79,0,0
100593,51.0672,-1051.32,0,0
100853,50.4498,-1048.01,0,0
101114,49.5269,-1044.55,0,0
101374,48.4052,-1040.68,0,0
101634,47.6771,-1036.32,0,0
101895,47.4955,-1032.03,0,0
102155,47.4345,-1028.2,0,0
102415,47.0452,-1024.5,0,0
102676,46.5964,-1020.51,0,0
102936,46.2655,-1016.42,0,0
103196,45.927,-1012.21,0,0
103457,45.9113,-1007.85,0,0
103717,46.0404,-1003.52,0,0
103977,46.4184,-999.108,0,0
104238,47.1101,-994.902,0,0
104498,47.9737,-990.993,0,0
104758,48.7778,-987.286,0,0
105019,49.4513,-983.618,0,0
105279,50.32,-980.099,0,0
105539,51.085,-976.586,0,0
105800,52.0561,-973.075,0,0
106060,53.2465,-969.832,0,0
106320.175,54.3907,-967.049,0,0
106580.5,55.3963,-964.457,0,0
106840.825,56.161,-962.196,0,0
107101.15,56.4675,-959.936,0,0
107361.475,56.7557,-957.388,0,0
107621.8,57.1111,-955.051,0,0
107882.125,57.2334,-952.924,0,0
108142.45,56.8775,-950.749,0,0
108402.775,56.4062,-948.166,0,0
108663.1,56.0087,-945.529,0,0
108923.425,55.5009,-942.996,0,0
109183.75,54.7422,-940.18,0,0
109444.075,54.1261,-937.062,0,0
109704.4,53.601,-933.949,0,0
109964.725,52.9317,-930.777,0,0
110225.05,52.3482,-927.282,0,0
110485.375,51.9777,-923.784,0,0
110745.7,51.8548,-920.196,0,0
111006.025,51.6933,-916.762,0,0
111266.35,51.6845,-913.306,0,0
111526.675,51.525,-909.804,0,0
111787.0,51.5872,-906.268,0,0
112047.325,51.7691,-902.794,0,0
112307.65,51.9594,-899.499,0,0
112567.975,51.986,-896.085,0,0
112828.3,52.0502,-892.527,0,0
113088.625,52.3158,-889.019,0,0
113348.95,52.6339,-885.62,0,0
113609.275,52.9928,-882.141,0,0
113869.6,53.5147,-878.768,0,0
114129.925,54.0449,-875.47,0,0
114390.25,54.5217,-872.267,0,0
114650.575,54.9832,-869.027,0,0
114910.9,55.5216,-865.787,0,0
115171.225,56.108,-862.662,0,0
115431.55,56.78,-859.527,0,0
115691.875,57.349,-856.495,0,0
115952.2,57.9601,-853.405,0,0
116212.525,58.6036,-850.335,0,0
116472.85,59.3293,-847.306,0,0
116733.175,60.1732,-844.403,0,0
116993.5,60.9048,-841.648,0,0
117253.825,61.5992,-838.884,0,0
117514.15,62.2787,-836.146,0,0
117774.475,62.9801,-833.424,0,0
118034.8,63.7854,-830.765,0,0
118295.125,64.5376,-828.204,0,0
118555.45,65.2871,-825.733,0,0
118815.775,66.0428,-823.341,0,0
119076.1,66.6441,-821.073,0,0
119336.425,67.1779,-818.678,0,0
119596.75,67.989,-816.434,0,0
119857.075,68.551,-814.553,0,0
120117.4,68.8096,-812.55,0,0
120377.725,69.0474,-810.514,0,0
120638.05,69.1747,-808.649,0,0
120898.375,68.8511,-806.606,0,0
121158.7,68.586,-804.176,0,0
121419.025,68.4845,-801.749,0,0
121679.35,68.3784,-799.301,0,0
121939.675,68.2896,-796.812,0,0
122200.0,68.1183,-794.319,0,0
122460,67.9568,-791.694,0,0
122721,67.8464,-789.009,0,0
122981,67.8133,-786.333,0,0
123241,67.8054,-783.665,0,0
123502,67.7651,-781.03,0,0
123762,67.685,-778.373,0,0
124022,67.596,-775.61,0,0
124283,67.5211,-772.833,0,0
124543,67.4411,-770.01,0,0
124803,67.4165,-767.136,0,0
125064,67.3883,-764.245,0,0
125324,67.488,-761.251,0,0
125584,67.586,-758.302,0,0
125845,67.71,-755.302,0,0
126105,67.9157,-752.239,0,0
126365,68.1819,-749.201,0,0
126626,68.5456,-746.195,0,0
126886,68.9354,-743.219,0,0
127146,69.2879,-740.305,0,0
127406,69.8215,-737.223,0,0
127667,70.4846,-734.338,0,0
127927,71.1195,-731.58,0,0
128187,71.6995,-728.867,0,0
128448,72.2948,-726.164,0,0
128708,72.9134,-723.531,0,0
128968,73.4296,-720.917,0,0
129229,73.9751,-718.331,0,0
129489,74.4797,-715.756,0,0
129749,74.9712,-713.17,0,0
130010,75.5377,-710.567,0,0
130270,76.0995,-708.088,0,0
130530,76.5311,-705.685,0,0
130791,76.895,-703.196,0,0
131051,77.3022,-700.716,0,0
131311,77.6425,-698.212,0,0
131572,78.0041,-695.734,0,0
131832,78.3313,-693.254,0,0
132092,78.5908,-690.762,0,0
132353,78.8242,-688.257,0,0
132613,79.0329,-685.692,0,0
132873,79.1537,-683.042,0,0
133134,79.2994,-680.34,0,0
133394,79.4988,-677.513,0,0
133654,79.7831,-674.697,0,0
133915,80.0929,-671.862,0,0
134175,80.3757,-669.058,0,0
134435,80.6358,-666.156,0,0
134696,81.0561,-663.219,0,0
134956,81.49,-660.323,0,0
135216,81.9477,-657.456,0,0
135477,82.4042,-654.528,0,0
135737,82.8539,-651.673,0,0
135997,83.2684,-648.741,0,0
136258,83.7001,-645.783,0,0
136518,84.2359,-642.797,0,0
136778,84.7653,-639.796,0,0
137039,85.3556,-636.792,0,0
137299,86.0008,-633.83,0,0
137559,86.5799,-630.956,0,0
137819,87.0865,-628.003,0,0
138080,87.6045,-624.979,0,0
138340.125,88.1678,-621.88,0,0
138600.45,88.7324,-618.805,0,0
138860.775,89.2414,-615.661,0,0
139121.1,89.7938,-612.402,0,0
139381.425,90.5009,-609.031,0,0
139641.75,91.1963,-605.674,0,0
139902.075,91.8535,-602.271,0,0
140162.4,92.6327,-598.671,0,0
140422.725,93.5651,-594.961,0,0
140683.05,94.7374,-591.262,0,0
140943.375,95.9577,-587.686,0,0
141203.7,97.1471,-584.011,0,0
141464.025,98.5809,-580.175,0,0
141724.35,100.237,-576.418,0,0
141984.675,102.078,-572.759,0,0
142245.0,104.011,-569.263,0,0
142505.325,105.969,-565.807,0,0
142765.65,108.066,-562.374,0,0
143025.975,110.301,-559.179,0,0
143286.3,112.404,-556.084,0,0
143546.625,114.485,-552.952,0,0
143806.95,116.603,-549.801,0,0
144067.275,118.822,-546.616,0,0
144327.6,121.186,-543.53,0,0
144587.925,123.525,-540.435,0,0
144848.25,125.988,-537.345,0,0
145108.575,128.604,-534.296,0,0
145368.9,131.334,-531.392,0,0
145629.225,134.082,-528.657,0,0
145889.55,136.771,-525.987,0,0
146149.875,139.406,-523.304,0,0
146410.2,142.085,-520.527,0,0
146670.525,144.887,-517.692,0,0
146930.85,147.862,-514.822,0,0
147191.175,151.059,-511.997,0,0
147451.5,154.423,-509.302,0,0
147711.825,157.909,-506.724,0,0
147972.15,161.512,-504.241,0,0
148232.475,165.209,-501.825,0,0
148492.8,169.002,-499.408,0,0
148753.125,173.074,-496.901,0,0
149013.45,177.686,-494.438,0,0
149273.775,182.945,-492.399,0,0
149534.1,188.469,-491.151,0,0
149794.425,194.047,-490.502,0,0
150054.75,199.556,-490.548,0,0
150315.075,204.825,-491.015,0,0
150575.4,210.066,-491.921,0,0
150835.725,215.185,-493.497,0,0
151096.05,219.854,-495.768,0,0
151356.375,223.87,-498.473,0,0
151616.7,227.363,-501.334,0,0
151877.025,230.425,-504.527,0,0
152137.35,232.715,-507.969,0,0
152397.675,234.29,-511.289,0,0
152658.0,235.368,-514.441,0,0
152918.325,235.971,-517.429,0,0
153178.65,236.18,-520.202,0,0
153438.975,235.893,-522.775,0,0
153699.3,235.264,-524.914,0,0
153959.625,234.377,-526.745,0,0
154219.95,233.216,-528.125,0,0
154480,231.941,-528.992,0,0
154741,230.964,-529.566,0,0
155001,230.008,-529.922,0,0
155261,229.022,-530.094,0,0
155522,228.092,-530.211,0,0
155782,227.157,-529.94,0,0
156042,226.296,-529.692,0,0
156303,225.544,-529.292,0,0
156563,224.685,-528.908,0,0
156823,223.743,-528.33,0,0
157084,222.769,-527.338,0,0
157344,222.19,-526.304,0,0
157604,221.558,-525.266,0,0
157864,221.162,-523.872,0,0
158125,220.943,-522.648,0,0
158385,220.726,-521.564,0,0
158645,220.137,-520.608,0,0
158906,219.666,-518.984,0,0
159166,219.6,-517.349,0,0
159426,219.312,-515.81,0,0
159687,219.273,-513.675,0,0
159947,220.214,-511.663,0,0
160207,221.053,-510.481,0,0
160468,221.573,-509.24,0,0
160728,222.16,-507.826,0,0
160988,223.047,-506.155,0,0
161249,224.366,-504.476,0,0
161509,226.445,-503.366,0,0
161769,228.643,-503.271,0,0
162030,230.37,-503.806,0,0
162290,231.546,-504.804,0,0
162550,232.529,-506.074,0,0
162811,233.116,-508.187,0,0
163071,232.379,-510.721,0,0
163331,230.138,-512.73,0,0
163592,227.471,-513.642,0,0
163852,224.595,-513.909,0,0
164112,221.891,-513.64,0,0
164373,218.907,-513.349,0,0
164633,215.542,-512.438,0,0
164893,212.283,-510.634,0,0
165154,209.22,-508.666,0,0
165414,205.972,-506.42,0,0
165674,202.699,-503.464,0,0
165935,199.871,-499.737,0,0
166195,197.626,-495.569,0,0
166455,196.123,-491.379,0,0
166716,194.852,-487.505,0,0
166976,193.654,-483.728,0,0
167236,192.441,-479.751,0,0
167497,191.463,-475.682,0,0
167757,190.696,-471.676,0,0
168017,189.757,-467.441,0,0
168277,189.021,-462.954,0,0
168538,188.526,-458.117,0,0
168798,188.52,-453.189,0,0
169058,189.001,-448.437,0,0
169319,189.503,-443.896,0,0
169579,190.262,-439.398,0,0
169839,191.011,-435.087,0,0
170100,191.799,-430.69,0,0
170360.075,192.719,-426.573,0,0
170620.4,193.273,-422.432,0,0
170880.725,193.66,-417.777,0,0
171141.05,194.466,-412.731,0,0
171401.375,195.802,-407.564,0,0
171661.7,197.347,-402.549,0,0
171922.025,199.243,-397.657,0,0
172182.35,201.076,-392.885,0,0
172442.675,202.872,-388.051,0,0
172703.0,204.938,-382.867,0,0
172963.325,207.549,-377.731,0,0
173223.65,210.193,-372.837,0,0
173483.975,212.994,-367.828,0,0
173744.3,216.033,-362.816,0,0
174004.625,219.382,-357.89,0,0
174264.95,222.907,-352.925,0,0
174525.275,226.743,-347.925,0,0
174785.6,231.101,-343.038,0,0
175045.925,235.985,-338.46,0,0
175306.25,241.147,-334.387,0,0
175566.575,246.294,-330.845,0,0
175826.9,251.337,-327.546,0,0
176087.225,256.351,-324.384,0,0
176347.55,261.417,-321.307,0,0
176607.875,266.647,-318.196,0,0
176868.2,272.463,-315.163,0,0
177128.525,278.989,-312.917,0,0
177388.85,285.444,-311.901,0,0
177649.175,291.393,-311.747,0,0
177909.5,296.534,-312.15,0,0
178169.825,299.958,-312.053,0,0
178430.15,303.77,-311.713,0,0
178690.475,307.689,-311.173,0,0
178950.8,311.696,-310.957,0,0
179211.125,315.421,-311.12,0,0
179471.45,318.791,-311.712,0,0
179731.775,321.227,-312.384,0,0
179992.1,322.852,-312.803,0,0
180252.425,323.897,-312.665,0,0
180512.75,324.402,-311.924,0,0
180773.075,324.6,-310.116,0,0
181033.4,324.989,-307.361,0,0
181293.725,325.82,-303.899,0,0
181554.05,327.221,-299.843,0,0
181814.375,329.318,-295.56,0,0
182074.7,331.64,-291.192,0,0
182335.025,334.438,-286.459,0,0
182595.35,337.836,-281.616,0,0
182855.675,341.88,-276.785,0,0
183116.0,346.311,-272.361,0,0
183376.325,350.77,-268.003,0,0
183636.65,355.354,-263.491,0,0
183896.975,360.212,-258.81,0,0
184157.3,365.631,-253.989,0,0
184417.625,371.612,-249.176,0,0
184677.95,378.02,-244.502,0,0
184938.275,385.141,-239.999,0,0
185198.6,392.695,-235.787,0,0
185458.925,400.621,-232.03,0,0
185719.25,409.145,-228.482,0,0
185979.575,418.312,-225.811,0,0
186239.9,427.546,-224.351,0,0
186500,435.826,-223.815,0,0
186761,443.362,-223.278,0,0
187021,450.396,-222.042,0,0
187281,457.894,-220.021,0,0
187542,466.485,-218.092,0,0
187802,475.634,-217.201,0,0
188062,484.464,-217.105,0,0
188322,492.677,-217.4,0,0
188583,500.267,-217.421,0,0
188843,507.854,-216.831,0,0
189103,516.109,-215.908,0,0
189364,524.627,-215.436,0,0
189624,533.285,-215.151,0,0
189884,541.801,-214.548,0,0
190145,550.793,-213.761,0,0
190405,560.303,-212.872,0,0
190665,570.501,-212.114,0,0
190926,581.442,-211.459,0,0
191186,593.38,-211.275,0,0
191446,605.94,-212.2,0,0
191707,618.501,-214.135,0,0
191967,630.962,-216.454,0,0
192227,643.638,-219.106,0,0
192488,656.866,-222.136,0,0
192748,670.776,-226.037,0,0
193008,685.052,-231.189,0,0
193269,699.249,-237.602,0,0
193529,713.226,-245.373,0,0
193789,726.428,-254.189,0,0
194050,738.937,-263.58,0,0
194310,751.025,-273.778,0,0
194570,762.223,-284.492,0,0
194831,772.688,-295.306,0,0
195091,783.139,-306.342,0,0
195351,793.281,-318.018,0,0
195612,802.998,-330.502,0,0
195872,811.959,-343.46,0,0
196132,819.973,-356.563,0,0
196393,827.607,-369.509,0,0
196653,835.266,-382.848,0,0
196913,842.541,-396.755,0,0
197174,849.311,-411.311,0,0
197434,855.214,-426.476,0,0
197694,859.998,-441.769,0,0
197955,864.046,-456.691,0,0
198215,867.991,-471.196,0,0
198475,872.315,-486.274,0,0
198735,876.267,-502.411,0,0
198996,878.93,-519.424,0,0
199256,880.427,-536.651,0,0
199516,880.718,-553.738,0,0
199777,879.719,-570.286,0,0
200037,879.087,-586.245,0,0
200297,877.878,-603.058,0,0
200558,875.611,-620.237,0,0
200818,872.363,-637.222,0,0
201078,868.32,-654.163,0,0
201339,863.128,-671.311,0,0
201599,856.557,-688.416,0,0
201859,848.285,-704.604,0,0
202120,838.996,-719.604,0,0
202380.025,829.165,-733.684,0,0
202640.35,818.607,-747.025,0,0
202900.675,806.841,-759.113,0,0
203161.0,794.966,-769.375,0,0
203421.325,783.4,-778.328,0,0
203681.65,772.332,-786.469,0,0
203941.975,761.48,-794.106,0,0
204202.3,750.681,-801.042,0,0
204462.625,740.474,-807.153,0,0
204722.95,730.771,-813.03,0,0
204983.275,721.492,-819.44,0,0
205243.6,711.527,-825.749,0,0
205503.925,700.875,-831.864,0,0
205764.25,689.718,-837.081,0,0
206024.575,678.528,-840.997,0,0
206284.9,667.937,-843.963,0,0
206545.225,657.73,-846.46,0,0
206805.55,648.201,-848.364,0,0
207065.875,639.088,-850.142,0,0
207326.2,630.297,-851.725,0,0
207586.525,621.74,-853.024,0,0
207846.85,613.501,-854.27,0,0
208107.175,605.543,-854.97,0,0
208367.5,598.404,-855.38,0,0
208627.825,592.102,-856.096,0,0
208888.15,585.999,-857.614,0,0
209148.475,579.785,-859.43,0,0
209408.8,573.347,-861.66,0,0
209669.125,566.412,-864.177,0,0
209929.45,558.919,-866.51,0,0
210189.775,551.134,-868.392,0,0
210450.1,543.095,-869.995,0,0
210710.425,534.897,-871.303,0,0
210970.75,526.405,-872.092,0,0
211231.075,517.746,-872.455,0,0
211491.4,509.018,-872.012,0,0
211751.725,500.515,-870.791,0,0
212012.05,492.546,-868.837,0,0
212272.375,485.334,-866.529,0,0
212532.7,478.784,-864.092,0,0
212793.025,472.61,-862.023,0,0
213053.35,466.399,-859.907,0,0
213313.675,460.454,-857.482,0,0
213574.0,454.835,-854.866,0,0
213834.325,449.658,-852.212,0,0
214094.65,444.79,-849.645,0,0
214354.975,440.106,-847.193,0,0
214615.3,435.709,-844.751,0,0
214875.625,431.34,-842.441,0,0
215135.95,427.224,-840.102,0,0
215396.275,423.038,-837.902,0,0
215656.6,418.933,-835.594,0,0
215916.925,414.883,-833.135,0,0
216177.25,411.066,-830.488,0,0
216437.575,407.506,-827.84,0,0
216697.9,404.164,-825.153,0,0
216958.225,400.903,-822.571,0,0
217218.55,397.832,-819.754,0,0
217478.875,395.135,-816.972,0,0
217739.2,392.615,-814.354,0,0
217999.525,390.219,-811.797,0,0
218259.85,387.991,-809.33,0,0
218520,385.881,-806.896,0,0
218780,383.887,-804.444,0,0
219041,382.158,-801.957,0,0
219301,380.661,-799.825,0,0
219561,379.259,-797.687,0,0
219822,377.906,-795.687,0,0
220082,376.631,-793.964,0,0
220342,375.413,-792.093,0,0
220603,374.114,-790.46,0,0
220863,372.956,-788.744,0,0
221123,371.895,-786.864,0,0
221384,371.101,-785.1,0,0
221644,370.52,-783.46,0,0
221904,370.13,-781.896,0,0
222165,370.029,-780.526,0,0
222425,370.092,-779.541,0,0
222685,370.159,-778.915,0,0
222946,370.283,-778.531,0,0
223206,370.253,-778.392,0,0
223466,370.073,-778.585,0,0
223727,369.64,-778.973,0,0
223987,369.16,-779.434,0,0
224247,368.371,-779.998,0,0
224508,367.446,-780.379,0,0
224768,366.535,-780.788,0,0
225028,365.384,-781.151,0,0
225289,364.422,-781.64,0,0
225549,363.375,-782.07,0,0
225809,362.23,-782.239,0,0
226070,361.414,-782.578,0,0
226330,360.777,-782.986,0,0
226590,360.014,-783.802,0,0
226851,359.244,-784.687,0,0
227111,358.342,-785.735,0,0
227371,357.239,-786.771,0,0
227632,356.194,-787.96,0,0
227892,355.116,-789.246,0,0
228152,353.905,-790.699,0,0
228413,352.573,-792.318,0,0
228673,351.013,-794.125,0,0
228933,349.306,-795.937,0,0
229193,347.325,-797.909,0,0
229454,345.1,-799.948,0,0
229714,342.528,-801.823,0,0
229974,339.816,-803.678,0,0
230235,336.907,-805.509,0,0
230495,333.7,-807.055,0,0
230755,330.352,-808.537,0,0
231016,326.866,-809.977,0,0
231276,323.136,-811.209,0,0
231536,319.326,-812.059,0,0
231797,315.443,-812.674,0,0
232057,311.658,-813.158,0,0
232317,307.884,-813.55,0,0
232578,304.092,-813.785,0,0
232838,300.317,-813.897,0,0
233098,296.507,-813.896,0,0
233359,292.641,-813.787,0,0
233619,288.783,-813.437,0,0
233879,285.098,-812.965,0,0
234140,281.421,-812.452,0,0
234400,277.816,-811.841,0,0
234660.3,274.317,-811.322,0,0
234920.625,270.668,-810.61,0,0
235180.95,266.98,-809.916,0,0
235441.275,263.352,-809.165,0,0
235701.6,259.676,-808.03,0,0
235961.925,256.035,-806.966,0,0
236222.25,252.51,-805.738,0,0
236482.575,249.096,-804.431,0,0
236742.9,245.727,-803.028,0,0
237003.225,242.365,-801.658,0,0
237263.55,239.039,-800.224,0,0
237523.875,235.69,-798.625,0,0
237784.2,232.421,-796.891,0,0
238044.525,229.242,-795.042,0,0
238304.85,226.241,-793.112,0,0
238565.175,223.404,-791.283,0,0
238825.5,220.556,-789.409,0,0
239085.825,217.757,-787.454,0,0
239346.15,214.904,-785.522,0,0
239606.475,212.194,-783.526,0,0
239866.8,209.613,-781.411,0,0
240127.125,207.184,-779.42,0,0
240387.45,204.642,-777.221,0,0
240647.775,202.197,-775.108,0,0
240908.1,199.875,-772.972,0,0
241168.425,197.612,-770.749,0,0
241428.75,195.461,-768.468,0,0
241689.075,193.449,-766.277,0,0
241949.4,191.511,-764.101,0,0
242209.725,189.661,-761.993,0,0
242470.05,187.811,-759.856,0,0
242730.375,186.038,-757.738,0,0
242990.7,184.414,-755.677,0,0
243251.025,182.841,-753.719,0,0
243511.35,181.325,-751.824,0,0
243771.675,179.776,-750.07,0,0
244032.0,178.179,-748.416,0,0
244292.325,176.58,-746.747,0,0
244552.65,174.978,-745.306,0,0
244812.975,173.156,-743.69,0,0
245073.3,171.297,-742.034,0,0
245333.625,169.442,-740.478,0,0
245593.95,167.633,-738.91,0,0
245854.275,165.744,-737.366,0,0
246114.6,163.708,-735.931,0,0
246374.925,161.461,-734.417,0,0
246635.25,159.133,-732.729,0,0
246895.575,156.617,-730.953,0,0
247155.9,154.078,-728.914,0,0
247416.225,151.563,-726.57,0,0
247676.55,149.253,-724.061,0,0
247936.875,146.971,-721.446,0,0
248197.2,144.882,-718.761,0,0
248457.525,142.837,-716.006,0,0
248717.85,140.811,-713.205,0,0
248978.175,138.918,-710.306,0,0
249238.5,137.089,-707.292,0,0
249498.825,135.433,-704.109,0,0
249759.15,133.88,-701.012,0,0
250019.475,132.464,-697.902,0,0
250279.8,131.206,-694.65,0,0
250540,130.009,-691.441,0,0
250800,128.978,-688.229,0,0
251061,128.036,-685.044,0,0
251321,127.201,-681.863,0,0
251581,126.439,-678.671,0,0
251842,125.782,-675.494,0,0
252102,125.177,-672.3,0,0
252362,124.702,-669.118,0,0
252623,124.305,-665.977,0,0
252883,124.016,-662.825,0,0
253143,123.831,-659.753,0,0
253404,123.718,-656.69,0,0
253664,123.652,-653.712,0,0
253924,123.627,-650.674,0,0
254185,123.672,-647.668,0,0
254445,123.866,-644.698,0,0
254705,124.095,-641.704,0,0
254966,124.408,-638.672,0,0
255226,124.815,-635.765,0,0
255486,125.407,-632.847,0,0
255747,126.076,-629.975,0,0
256007,126.847,-627.141,0,0
256267,127.716,-624.494,0,0
256528,128.614,-621.852,0,0
256788,129.59,-619.317,0,0
257048,130.614,-616.806,0,0
257309,131.768,-614.348,0,0
257569,132.997,-611.992,0,0
257829,134.292,-609.751,0,0
258090,135.641,-607.643,0,0
258350,136.987,-605.636,0,0
258610,138.324,-603.709,0,0
258871,139.669,-601.82,0,0
259131,141.004,-599.938,0,0
259391,142.481,-598.105,0,0
259651,144.023,-596.391,0,0
259912,145.59,-594.739,0,0
260172,147.275,-593.071,0,0
260432,148.978,-591.641,0,0
260693,150.769,-590.262,0,0
260953,152.568,-589.097,0,0
261213,154.4,-588.011,0,0
261474,156.295,-587.062,0,0
261734,158.183,-586.284,0,0
261994,160.049,-585.681,0,0
262255,161.86,-585.239,0,0
262515,163.605,-584.97,0,0
262775,165.223,-584.805,0,0
263036,166.746,-584.675,0,0
263296,168.264,-584.648,0,0
263556,169.751,-584.764,0,0
263817,171.152,-585.049,0,0
264077,172.433,-585.462,0,0
264337,173.489,-585.969,0,0
264598,174.333,-586.667,0,0
264858,175.022,-587.25,0,0
265118,175.48,-587.842,0,0
265379,175.632,-588.404,0,0
265639,175.76,-588.821,0,0
265899,175.724,-589.156,0,0
266160,175.59,-589.284,0,0
266420,175.453,-589.219,0,0
266680.25,175.376,-589.036,0,0
266940.575,175.366,-588.809,0,0
267200.9,175.411,-588.603,0,0
267461.225,175.493,-588.363,0,0
267721.55,175.505,-588.164,0,0
267981.875,175.475,-588.003,0,0
268242.2,175.37,-587.783,0,0
268502.525,175.16,-587.473,0,0
268762.85,174.883,-587.088,0,0
269023.175,174.537,-586.518,0,0
269283.5,174.135,-585.773,0,0
269543.825,173.84,-584.794,0,0
269804.15,173.667,-583.544,0,0
270064.475,173.745,-582.112,0,0
270324.8,174.092,-580.651,0,0
270585.125,174.651,-579.172,0,0
270845.45,175.498,-577.693,0,0
271105.775,176.605,-576.283,0,0
271366.1,177.898,-574.984,0,0
271626.425,179.366,-573.883,0,0
271886.75,180.952,-572.904,0,0
272147.075,182.671,-572.074,0,0
272407.4,184.451,-571.365,0,0
272667.725,186.382,-570.733,0,0
272928.05,188.415,-570.23,0,0
273188.375,190.654,-569.834,0,0
273448.7,193.083,-569.638,0,0
273709.025,195.739,-569.683,0,0
273969.35,198.642,-570.107,0,0
274229.675,201.672,-571.004,0,0
274490.0,204.717,-572.384,0,0
274750.325,207.655,-574.359,0,0
275010.65,210.359,-576.83,0,0
275270.975,212.702,-579.719,0,0
275531.3,214.714,-583.03,0,0
275791.625,216.257,-586.627,0,0
276051.95,217.29,-590.466,0,0
276312.275,217.779,-594.445,0,0
276572.6,217.708,-598.476,0,0
276832.925,217.082,-602.444,0,0
277093.25,215.911,-606.232,0,0
277353.575,214.254,-609.723,0,0
277613.9,212.342,-612.852,0,0
277874.225,210.202,-615.674,0,0
278134.55,207.93,-618.199,0,0
278394.875,205.507,-620.404,0,0
278655.2,203.031,-622.341,0,0
278915.525,200.555,-624.028,0,0
279175.85,198.069,-625.527,0,0
279436.175,195.627,-626.893,0,0
279696.5,193.207,-628.074,0,0
279956.825,190.778,-629.157,0,0
280217.15,188.3,-630.172,0,0
280477.475,185.868,-631.158,0,0
280737.8,183.35,-632.071,0,0
280998.125,180.763,-632.894,0,0
281258.45,178.051,-633.603,0,0
281518.775,175.293,-634.189,0,0
281779.1,172.495,-634.634,0,0
282039.425,169.604,-634.97,0,0
282299.75,166.616,-635.201,0,0
282560,163.512,-635.223,0,0
282820,160.279,-634.984,0,0
283081,157.021,-634.394,0,0
283341,153.859,-633.453,0,0
283601,150.885,-632.137,0,0
283862,148.266,-630.598,0,0
284122,146.055,-629.007,0,0
284382,144.178,-627.593,0,0
284643,142.44,-626.47,0,0
284903,140.497,-625.606,0,0
285163,138.34,-624.721,0,0
285424,135.924,-623.711,0,0
285684,133.412,-622.479,0,0
285944,130.909,-620.979,0,0
286205,128.42,-619.281,0,0
286465,125.915,-617.346,0,0
286725,123.489,-615.165,0,0
286986,121.165,-612.728,0,0
287246,118.97,-610,0,0
287506,116.96,-607.012,0,0
287767,115.208,-603.756,0,0
288027,113.763,-600.265,0,0
288287,112.697,-596.574,0,0
288548,112.037,-592.7,0,0
288808,111.894,-588.767,0,0
289068,112.22,-584.857,0,0
289329,113.03,-581.047,0,0
289589,114.31,-577.361,0,0
289849,116.122,-573.954,0,0
290109,118.424,-570.88,0,0
290370,121.151,-568.342,0,0
290630,124.134,-566.385,0,0
290890,127.235,-565.068,0,0
291151,130.271,-564.424,0,0
291411,133.101,-564.257,0,0
291671,135.681,-564.496,0,0
291932,138.028,-565.097,0,0
292192,140.098,-565.966,0,0
292452,141.919,-567.094,0,0
292713,143.464,-568.471,0,0
292973,144.67,-570.08,0,0
293233,145.45,-571.916,0,0
293494,145.693,-573.819,0,0
293754,145.405,-575.598,0,0
294014,144.667,-577.039,0,0
294275,143.634,-578.042,0,0
294535,142.52,-578.584,0,0
294795,141.482,-578.6,0,0
295056,140.816,-578.216,0,0
295316,140.663,-577.709,0,0
295576,141.042,-577.3,0,0
295837,141.835,-577.309,0,0
296097,142.796,-577.867,0,0
296357,143.627,-579.01,0,0
296618,144.134,-580.622,0,0
296878,144.154,-582.581,0,0
297138,143.597,-584.624,0,0
297399,142.498,-586.586,0,0
297659,140.962,-588.282,0,0
297919,139.118,-589.595,0,0
298180,137.154,-590.551,0,0
298440,135.179,-591.177,0,0
298700.2,133.239,-591.557,0,0
298960.525,131.36,-591.728,0,0
299220.85,129.596,-591.783,0,0
299481.175,127.881,-591.753,0,0
299741.5,126.206,-591.625,0,0
300001.825,124.588,-591.464,0,0
300262.15,122.939,-591.223,0,0
300522.475,121.311,-590.87,0,0
300782.8,119.722,-590.398,0,0
301043.125,118.19,-589.818,0,0
301303.45,116.766,-589.153,0,0
301563.775,115.429,-588.391,0,0
301824.1,114.241,-587.568,0,0
302084.425,113.241,-586.735,0,0
302344.75,112.418,-585.981,0,0
302605.075,111.725,-585.34,0,0
302865.4,111.087,-584.887,0,0
303125.725,110.434,-584.606,0,0
303386.05,109.707,-584.459,0,0
303646.375,108.873,-584.431,0,0
303906.7,107.879,-584.439,0,0
304167.025,106.77,-584.462,0,0
304427.35,105.529,-584.449,0,0
304687.675,104.208,-584.411,0,0
304948.0,102.74,-584.337,0,0
305208.325,101.147,-584.183,0,0
305468.65,99.4984,-583.912,0,0
305728.975,97.7743,-583.469,0,0
305989.3,96.0309,-582.897,0,0
306249.625,94.313,-582.205,0,0
306509.95,92.589,-581.381,0,0
306770.275,90.9242,-580.446,0,0
307030.6,89.3199,-579.4,0,0
307290.925,87.8091,-578.265,0,0
307551.25,86.3843,-577.084,0,0
307811.575,85.0462,-575.861,0,0
308071.9,83.7677,-574.618,0,0
308332.225,82.5719,-573.373,0,0
308592.55,81.4133,-572.133,0,0
308852.875,80.3038,-570.872,0,0
309113.2,79.205,-569.604,0,0
309373.525,78.1666,-568.323,0,0
309633.85,77.16,-567.02,0,0
309894.175,76.196,-565.703,0,0
310154.5,75.2412,-564.374,0,0
310414.825,74.3208,-563.053,0,0
310675.15,73.455,-561.702,0,0
310935.475,72.6369,-560.333,0,0
311195.8,71.8568,-558.939,0,0
311456.125,71.1132,-557.544,0,0
311716.45,70.4614,-556.137,0,0
311976.775,69.8629,-554.734,0,0
312237.1,69.3128,-553.372,0,0
312497.425,68.7917,-552.03,0,0
312757.75,68.327,-550.735,0,0
313018.075,67.8629,-549.487,0,0
313278.4,67.3986,-548.25,0,0
313538.725,66.9571,-547.024,0,0
313799.05,66.4948,-545.818,0,0
314059.375,66.07,-544.622,0,0
314319.7,65.6488,-543.409,0,0
314580,65.2337,-542.224,0,0
314840,64.8882,-541.045,0,0
315101,64.4076,-539.921,0,0
315361,64.061,-538.665,0,0
315621,63.7168,-537.564,0,0
315882,63.3276,-536.357,0,0
316142,62.996,-535.153,0,0
316402,62.6559,-533.93,0,0
316663,62.3654,-532.828,0,0
316923,62.1105,-531.637,0,0
317183,61.8748,-530.423,0,0
317444,61.6298,-529.326,0,0
317704,61.4458,-528.214,0,0
317964,61.3314,-527.108,0,0
318225,61.1416,-525.998,0,0
318485,61.0759,-524.907,0,0
318745,60.8822,-523.949,0,0
319006,60.7321,-522.953,0,0
319266,60.5773,-522.015,0,0
319526,60.319,-521.079,0,0
319787,60.1932,-520.078,0,0
320047,59.8946,-519.18,0,0
320307,59.7772,-518.271,0,0
320567,59.5225,-517.261,0,0
320828,59.223,-516.407,0,0
321088,59.0251,-515.343,0,0
321348,58.8093,-514.393,0,0
321609,58.5231,-513.413,0,0
321869,58.3417,-512.4,0,0
322129,58.0745,-511.359,0,0
322390,57.7927,-510.381,0,0
322650,57.5697,-509.394,0,0
322910,57.277,-508.352,0,0
323171,56.9864,-507.301,0,0
323431,56.7659,-506.111,0,0
323691,56.4629,-504.946,0,0
323952,56.2591,-503.646,0,0
324212,56.0697,-502.375,0,0
324472,56.0142,-500.958,0,0
324733,56.1022,-499.615,0,0
324993,56.1291,-498.217,0,0
325253,56.3819,-496.878,0,0
325514,56.7595,-495.532,0,0
325774,57.2316,-494.257,0,0
326034,57.7438,-493.112,0,0
326295,58.3862,-492.051,0,0
326555,58.9987,-491.112,0,0
326815,59.725,-490.297,0,0
327076,60.2608,-489.651,0,0
327336,60.8251,-489.072,0,0
327596,61.391,-488.549,0,0
327857,61.744,-488.102,0,0
328117,62.1528,-487.635,0,0
328377,62.4518,-487.192,0,0
328638,62.7071,-486.811,0,0
328898,63.0078,-486.335,0,0
329158,63.2541,-485.9,0,0
329419,63.4763,-485.554,0,0
329679,63.748,-485.156,0,0
329939,63.9768,-484.861,0,0
330200,64.1198,-484.568,0,0
330460,64.3202,-484.288,0,0
330720.15,64.4076,-484.094,0,0
330980.475,64.4843,-483.828,0,0
331240.8,64.5282,-483.622,0,0
331501.125,64.5028,-483.46,0,0
331761.45,64.4706,-483.3,0,0
332021.775,64.367,-483.106,0,0
332282.1,64.1671,-482.975,0,0
332542.425,63.9431,-482.873,0,0
332802.75,63.6109,-482.679,0,0
333063.075,63.2615,-482.442,0,0
333323.4,62.828,-482.183,0,0
333583.725,62.3742,-481.817,0,0
333844.05,61.8794,-481.411,0,0
334104.375,61.4191,-480.952,0,0
334364.7,60.9276,-480.466,0,0
334625.025,60.4853,-479.894,0,0
334885.35,60.0056,-479.228,0,0
335145.675,59.6243,-478.606,0,0
335406.0,59.1646,-477.961,0,0
335666.325,58.7717,-477.309,0,0
335926.65,58.3547,-476.613,0,0
336186.975,57.9681,-475.886,0,0
336447.3,57.574,-475.15,0,0
336707.625,57.2373,-474.394,0,0
336967.95,56.8503,-473.565,0,0
337228.275,56.5895,-472.71,0,0
337488.6,56.2381,-471.865,0,0
337748.925,56.0149,-470.962,0,0
338009.25,55.793,-470.099,0,0
338269.575,55.6048,-469.24,0,0
338529.9,55.4104,-468.392,0,0
338790.225,55.2454,-467.51,0,0
339050.55,55.0914,-466.634,0,0
339310.875,54.9648,-465.81,0,0
339571.2,54.9228,-464.899,0,0
339831.525,54.8153,-464.085,0,0
340091.85,54.7794,-463.169,0,0
340352.175,54.7879,-462.324,0,0
340612.5,54.7252,-461.498,0,0
340872.825,54.7253,-460.623,0,0
341133.15,54.6985,-459.809,0,0
341393.475,54.726,-458.965,0,0
341653.8,54.6863,-458.117,0,0
341914.125,54.7648,-457.28,0,0
342174.45,54.7855,-456.433,0,0
342434.775,54.8632,-455.592,0,0
342695.1,54.9762,-454.768,0,0
342955.425,55.0422,-453.944,0,0
343215.75,55.1448,-453.144,0,0
343476.075,55.2909,-452.338,0,0
343736.4,55.426,-451.569,0,0
343996.725,55.6352,-450.791,0,0
344257.05,55.7537,-449.97,0,0
344517.375,55.9145,-449.237,0,0
344777.7,56.1463,-448.543,0,0
345038.025,56.3465,-447.801,0,0
345298.35,56.5208,-447.052,0,0
345558.675,56.7657,-446.351,0,0
345819.0,57.0034,-445.657,0,0
346079.325,57.228,-444.967,0,0
346339.65,57.4763,-444.32,0,0
346599.975,57.7066,-443.704,0,0
346860,57.985,-443.077,0,0
347121,58.2519,-442.377,0,0
347381,58.5207,-441.789,0,0
347641,58.7809,-441.161,0,0
347902,59.0279,-440.604,0,0
348162,59.3141,-440.027,0,0
348422,59.5415,-439.412,0,0
348683,59.8909,-438.882,0,0
348943,60.1908,-438.31,0,0
349203,60.4669,-437.771,0,0
349464,60.8482,-437.273,0,0
349724,61.1628,-436.695,0,0
349984,61.5112,-436.252,0,0
350245,61.8986,-435.779,0,0
350505,62.2885,-435.37,0,0
350765,62.5644,-435.037,0,0
351025,62.9192,-434.71,0,0
351286,63.2161,-434.375,0,0
351546,63.4932,-434.114,0,0
351806,63.7089,-433.817,0,0
352067,63.9447,-433.569,0,0
352327,64.1456,-433.2,0,0
352587,64.3544,-432.884,0,0
352848,64.4894,-432.583,0,0
353108,64.676,-432.277,0,0
353368,64.8637,-431.983,0,0
353629,64.9801,-431.637,0,0
353889,65.247,-431.357,0,0
354149,65.3767,-431.019,0,0
354410,65.5363,-430.73,0,0
354670,65.7763,-430.382,0,0
354930,65.8708,-430.094,0,0
355191,66.0694,-429.796,0,0
355451,66.2128,-429.496,0,0
355711,66.3597,-429.195,0,0
355972,66.5695,-428.898,0,0
356232,66.7328,-428.637,0,0
356492,66.862,-428.314,0,0
356753,67.0462,-427.979,0,0
357013,67.2311,-427.687,0,0
357273,67.4722,-427.407,0,0
357534,67.6593,-427.071,0,0
357794,67.9497,-426.842,0,0
358054,68.1788,-426.597,0,0
358315,68.4561,-426.376,0,0
358575,68.7676,-426.187,0,0
358835,69.0867,-426.038,0,0
359096,69.3538,-425.975,0,0
359356,69.6554,-425.929,0,0
359616,69.8573,-425.939,0,0
359877,70.0625,-425.965,0,0
360137,70.1972,-426.093,0,0
360397,70.2979,-426.218,0,0
360658,70.3812,-426.286,0,0
360918,70.3815,-426.394,0,0
361178,70.3891,-426.525,0,0
361438,70.2578,-426.613,0,0
361699,70.184,-426.682,0,0
361959,70.0231,-426.723,0,0
362219,69.8468,-426.779,0,0
362480,69.726,-426.808,0,0
362740.1,69.4677,-426.849,0,0
363000.425,69.2167,-426.856,0,0
363260.75,69.019,-426.851,0,0
363521.075,68.7878,-426.811,0,0
363781.4,68.465,-426.807,0,0
364041.725,68.1553,-426.666,0,0
364302.05,67.8232,-426.567,0,0
364562.375,67.4104,-426.421,0,0
364822.7,67.1077,-426.286,0,0
365083.025,66.7157,-426.084,0,0
365343.35,66.3852,-425.857,0,0
365603.675,65.9958,-425.621,0,0
365864.0,65.6479,-425.324,0,0
366124.325,65.337,-424.991,0,0
366384.65,64.9581,-424.653,0,0
366644.975,64.6588,-424.242,0,0
366905.3,64.4282,-423.87,0,0
367165.625,64.1924,-423.401,0,0
367425.95,64.0109,-423.005,0,0
367686.275,63.8654,-422.553,0,0
367946.6,63.754,-422.192,0,0
368206.925,63.6643,-421.796,0,0
368467.25,63.5952,-421.428,0,0
368727.575,63.5755,-421.166,0,0
368987.9,63.5028,-420.911,0,0
369248.225,63.4458,-420.686,0,0
369508.55,63.3268,-420.478,0,0
369768.875,63.2308,-420.333,0,0
370029.2,63.0688,-420.155,0,0
370289.525,62.8572,-419.956,0,0
370549.85,62.6144,-419.788,0,0
370810.175,62.3826,-419.582,0,0
371070.5,62.1273,-419.342,0,0
371330.825,61.8639,-419.046,0,0
371591.15,61.6615,-418.787,0,0
371851.475,61.3929,-418.562,0,0
372111.8,61.2015,-418.234,0,0
372372.125,60.961,-417.968,0,0
372632.45,60.7716,-417.72,0,0
372892.775,60.5333,-417.465,0,0
373153.1,60.2956,-417.245,0,0
373413.425,60.0408,-417.011,0,0
373673.75,59.737,-416.74,0,0
373934.075,59.4894,-416.497,0,0
374194.4,59.2035,-416.216,0,0
374454.725,58.9073,-415.956,0,0
374715.05,58.5968,-415.675,0,0
374975.375,58.2648,-415.377,0,0
375235.7,57.94,-415.107,0,0
375496.025,57.5789,-414.739,0,0
375756.35,57.2636,-414.404,0,0
376016.675,56.9328,-413.984,0,0
376277.0,56.591,-413.586,0,0
376537.325,56.3018,-413.147,0,0
376797.65,56.081,-412.724,0,0
377057.975,55.8839,-412.358,0,0
377318.3,55.6907,-412.021,0,0
377578.625,55.4965,-411.717,0,0
377838.95,55.3342,-411.482,0,0
378099.275,55.0863,-411.284,0,0
378359.6,54.7344,-411.114,0,0
378619.925,54.3379,-410.931,0,0
378880,53.8326,-410.706,0,0
379141,53.2034,-410.404,0,0
379401,52.5889,-410.002,0,0
379661,51.957,-409.473,0,0
379922,51.3439,-408.888,0,0
380182,50.8108,-408.099,0,0
380442,50.3796,-407.249,0,0
380703,50.114,-406.391,0,0
380963,49.9562,-405.572,0,0
381223,49.9458,-404.812,0,0
381483,49.9633,-404.14,0,0
381744,50.0029,-403.567,0,0
382004,50.0322,-403.122,0,0
382264,49.9864,-402.707,0,0
382525,49.8955,-402.374,0,0
382785,49.794,-402.054,0,0
383045,49.567,-401.743,0,0
383306,49.3593,-401.383,0,0
383566,49.0647,-400.994,0,0
383826,48.7982,-400.618,0,0
384087,48.492,-400.177,0,0
384347,48.2333,-399.757,0,0
384607,47.9009,-399.275,0,0
384868,47.5815,-398.742,0,0
385128,47.2768,-398.254,0,0
385388,46.9798,-397.751,0,0
385649,46.6956,-397.21,0,0
385909,46.4118,-396.677,0,0
386169,46.0854,-396.107,0,0
386430,45.8168,-395.527,0,0
386690,45.5395,-394.941,0,0
386950,45.2496,-394.354,0,0
387211,44.9598,-393.722,0,0
387471,44.7062,-393.05,0,0
387731,44.4679,-392.336,0,0
387992,44.1862,-391.674,0,0
388252,44.0069,-390.955,0,0
388512,43.8742,-390.231,0,0
388773,43.7439,-389.492,0,0
389033,43.651,-388.722,0,0
389293,43.6202,-387.982,0,0
389554,43.6023,-387.25,0,0
389814,43.6517,-386.552,0,0
390074,43.7232,-385.903,0,0
390335,43.869,-385.303,0,0
390595,43.973,-384.725,0,0
390855,44.0935,-384.203,0,0
391116,44.2044,-383.751,0,0
391376,44.3247,-383.366,0,0
391636,44.3664,-383.038,0,0
391896,44.357,-382.715,0,0
392157,44.2918,-382.403,0,0
392417,44.1483,-382.117,0,0
392677,43.957,-381.814,0,0
392938,43.6898,-381.479,0,0
393198,43.4011,-381.08,0,0
393458,43.1094,-380.616,0,0
393719,42.7673,-380.137,0,0
393979,42.3997,-379.609,0,0
394239,42.0912,-378.977,0,0
394500,41.7507,-378.34,0,0
394760.05,41.4807,-377.61,0,0
395020.375,41.2707,-376.913,0,0
395280.7,41.0115,-376.142,0,0
395541.025,40.8395,-375.395,0,0
395801.35,40.7382,-374.595,0,0
396061.675,40.6352,-373.869,0,0
396322.0,40.5496,-373.078,0,0
396582.325,40.5141,-372.316,0,0
396842.65,40.4505,-371.553,0,0
397102.975,40.4646,-370.792,0,0
397363.3,40.4588,-370.054,0,0
397623.625,40.5233,-369.332,0,0
397883.95,40.5489,-368.596,0,0
398144.275,40.6112,-367.868,0,0
398404.6,40.6828,-367.176,0,0
398664.925,40.7654,-366.507,0,0
398925.25,40.8501,-365.791,0,0
399185.575,40.9644,-365.139,0,0
399445.9,41.0491,-364.49,0,0
399706.225,41.1821,-363.871,0,0
399966.55,41.3275,-363.224,0,0
400006.6,41.3214,-363.122,0,0