File: Accelerated corrosion test data/2025-10-20_06-00-03/sample_8.csv
Frequency (Hz),Impedance (ohms),Phase (Radians),Temperature (C),Humidity (%)
10000.0,303.941,-11049.6,0,0
10260.325,296.218,-10772.4,0,0
10520.65,289.335,-10509.1,0,0
10780.975,282.314,-10258,0,0
11041.3,276.001,-10019,0,0
11301.625,269.788,-9792.13,0,0
11561.95,264.15,-9573.14,0,0
11822.275,258.349,-9364.59,0,0
12082.6,256.376,-9162.98,0,0
12342.925,253.393,-8975.47,0,0
12603.25,248.83,-8793.19,0,0
12863.575,245.721,-8621.25,0,0
13123.9,237.267,-8454.73,0,0
13384.225,231.407,-8292.32,0,0
13644.55,229.192,-8135.74,0,0
13904.875,221.292,-7986.27,0,0
14165.2,215.196,-7840.77,0,0
14425.525,211.669,-7700.89,0,0
14685.8,207.748,-7564.63,0,0
14946.175,204.446,-7434.01,0,0
15206.5,201.189,-7307.6,0,0
15466.825,197.8,-7186.47,0,0
15727.15,194.62,-7068.38,0,0
15987.5,191.464,-6954.48,0,0
16247.8,188.617,-6844.02,0,0
16508.125,185.622,-6737.12,0,0
16768.45,182.409,-6633.11,0,0
17028.775,179.893,-6532.58,0,0
17289.1,177.22,-6434.69,0,0
17549.425,174.711,-6339.34,0,0
17809.75,172.557,-6246.86,0,0
18070.075,170.526,-6158.12,0,0
18330.4,167.792,-6070.58,0,0
18590.725,165.906,-5984.93,0,0
18851.05,166.829,-5900.56,0,0
19111.375,164.811,-5821.13,0,0
19371.7,167.966,-5745.03,0,0
19632.025,164.242,-5672.4,0,0
19892.35,161.391,-5601.13,0,0
20152.675,158.465,-5527.56,0,0
20413.0,158.664,-5457.31,0,0
20673.3,158.642,-5389.8,0,0
20933.65,155.508,-5327.72,0,0
21193.975,151.545,-5263.11,0,0
21454.3,148.961,-5198.34,0,0
21714.625,147.247,-5135.33,0,0
21974.9,146.962,-5074.66,0,0
22235.275,146.735,-5015.47,0,0
22495.6,145.82,-4959.33,0,0
22755.925,144.193,-4905.26,0,0
23016.25,141.947,-4850.21,0,0
23276.6,138.157,-4797.76,0,0
23536.9,135.786,-4744.54,0,0
23797.225,133.673,-4692.56,0,0
24057.55,131.607,-4641.01,0,0
24317.875,130.198,-4591.42,0,0
24578.2,127.977,-4542.89,0,0
24838.525,127.32,-4494.14,0,0
25098.85,125.819,-4447.18,0,0
25359.175,124.399,-4402.21,0,0
25619.5,123.665,-4356.36,0,0
25879.8,122.179,-4312.31,0,0
26140.1,121.69,-4270.37,0,0
26400.5,120.642,-4227.97,0,0
26660.8,119.294,-4186.24,0,0
26921.1,118.651,-4144.31,0,0
27181.4,119.078,-4105.19,0,0
27441.8,117.68,-4065.33,0,0
27702.1,117.3,-4028.2,0,0
27962.4,115.034,-3990.83,0,0
28222.7,116.164,-3953.16,0,0
28483.1,114.756,-3917.05,0,0
28743.4,114.323,-3881.63,0,0
29003.7,113.485,-3847.18,0,0
29264,113.837,-3812.72,0,0
29524.4,112.42,-3779.41,0,0
29784.7,112.161,-3745.93,0,0
30045,111.392,-3714.42,0,0
30305.3,110.669,-3683.18,0,0
30565.7,109.433,-3651.94,0,0
30826,108.309,-3620.57,0,0
31086.3,106.966,-3589.97,0,0
31346.6,106.221,-3559.53,0,0
31607,105.747,-3529.75,0,0
31867.3,105.09,-3500.59,0,0
32127.6,104.528,-3471.71,0,0
32387.9,104.157,-3442.97,0,0
32648.3,103.969,-3414.98,0,0
32908.6,104.283,-3387.34,0,0
33168.9,103.672,-3360.4,0,0
33429.2,104.529,-3333.61,0,0
33689.6,104.864,-3307.72,0,0
33949.9,104.816,-3282.49,0,0
34210.2,105.095,-3257.41,0,0
34470.5,105.372,-3232.7,0,0
34730.9,105.797,-3208.33,0,0
34991.2,106.76,-3184.5,0,0
35251.5,107.411,-3161.46,0,0
35511.8,108.377,-3139.34,0,0
35772.2,108.559,-3118.01,0,0
36032.5,109.164,-3097.13,0,0
36292.8,108.718,-3076.29,0,0
36553.1,108.571,-3056.39,0,0
36813.5,107.126,-3036.6,0,0
37073.8,106.856,-3016.39,0,0
37334.1,105.349,-2997.3,0,0
37594.4,103.46,-2978.33,0,0
37854.8,101.108,-2958.63,0,0
38115.1,99.3396,-2939.25,0,0
38375.4,97.0984,-2919.63,0,0
38635.7,94.8389,-2899.74,0,0
38896.1,93.0122,-2880.25,0,0
39156.4,91.112,-2860.6,0,0
39416.7,89.9229,-2840.75,0,0
39677,88.6603,-2821.45,0,0
39937.4,87.4209,-2802.09,0,0
40197.7,86.4963,-2782.68,0,0
40458,86.5551,-2764.05,0,0
40718.3,86.106,-2746.61,0,0
40978.7,85.3623,-2728.68,0,0
41239,84.6804,-2711.18,0,0
41499.3,83.8414,-2693.63,0,0
41759.6,83.5415,-2676.66,0,0
42020,82.725,-2659.66,0,0
42280.275,81.6563,-2642.64,0,0
42540.6,81.5498,-2625.63,0,0
42800.925,81.2311,-2608.97,0,0
43061.25,81.622,-2592.62,0,0
43321.575,81.7332,-2577.17,0,0
43581.9,81.7785,-2562.29,0,0
43842.225,80.7346,-2547.79,0,0
44102.55,79.5014,-2532.72,0,0
44362.875,78.6354,-2517.15,0,0
44623.2,77.8345,-2502.39,0,0
44883.525,77.0854,-2487.43,0,0
45143.85,76.6011,-2472.66,0,0
45404.175,75.7273,-2457.84,0,0
45664.5,75.3766,-2443.35,0,0
45924.825,74.786,-2429.34,0,0
46185.15,74.1705,-2414.9,0,0
46445.475,73.6687,-2400.94,0,0
46705.8,73.2389,-2386.95,0,0
46966.125,72.6386,-2373.3,0,0
47226.45,72.3119,-2359.74,0,0
47486.775,71.9948,-2346.31,0,0
47747.1,71.6993,-2333.24,0,0
48007.425,71.3528,-2320.09,0,0
48267.75,70.9493,-2307.04,0,0
48528.075,70.6471,-2294.26,0,0
48788.4,70.2874,-2281.8,0,0
49048.725,69.6687,-2269.16,0,0
49309.05,69.2156,-2256.76,0,0
49569.375,68.9704,-2244.33,0,0
49829.7,68.3953,-2231.98,0,0
50090.025,68.0352,-2219.68,0,0
50350.35,67.7936,-2207.78,0,0
50610.675,67.4241,-2195.84,0,0
50871.0,67.264,-2184.08,0,0
51131.325,66.9124,-2172.36,0,0
51391.65,66.806,-2160.7,0,0
51651.975,66.718,-2149.22,0,0
51912.3,66.6999,-2137.94,0,0
52172.625,66.4276,-2126.92,0,0
52432.95,66.3369,-2115.83,0,0
52693.275,66.1754,-2104.72,0,0
52953.6,66.3595,-2094.03,0,0
53213.925,66.4041,-2083.33,0,0
53474.25,66.6782,-2073.02,0,0
53734.575,66.6989,-2063.21,0,0
53994.9,66.1977,-2053.78,0,0
54255.225,65.4493,-2043.6,0,0
54515.55,64.9903,-2033.64,0,0
54775.875,64.4203,-2023.73,0,0
55036.2,63.9457,-2013.83,0,0
55296.525,63.1818,-2003.98,0,0
55556.85,62.386,-1994.07,0,0
55817.175,61.9405,-1984.16,0,0
56077.5,61.3262,-1974.29,0,0
56337.825,60.9099,-1964.38,0,0
56598.15,60.6977,-1954.55,0,0
56858.475,60.3969,-1944.93,0,0
57118.8,60.1485,-1935.35,0,0
57379.125,60.0084,-1925.96,0,0
57639.45,59.6957,-1916.58,0,0
57899.775,59.5995,-1907.31,0,0
58160.1,59.4583,-1898.08,0,0
58420.4,59.3638,-1889.11,0,0
58680.7,59.1705,-1880.24,0,0
58941.1,58.972,-1871.29,0,0
59201.4,58.8682,-1862.56,0,0
59461.7,58.5987,-1853.99,0,0
59722,58.291,-1845.3,0,0
59982.4,57.9156,-1836.67,0,0
60242.7,57.7027,-1828.09,0,0
60503,57.5316,-1819.47,0,0
60763.3,57.4481,-1810.83,0,0
61023.7,57.456,-1802.38,0,0
61284,57.342,-1794.15,0,0
61544.3,57.3817,-1785.95,0,0
61804.6,57.1749,-1777.99,0,0
62065,56.8578,-1769.86,0,0
62325.3,56.8524,-1761.61,0,0
62585.6,56.8679,-1753.54,0,0
62845.9,57.0662,-1745.59,0,0
63106.3,57.2897,-1737.79,0,0
63366.6,57.3769,-1730.16,0,0
63626.9,57.709,-1722.6,0,0
63887.2,57.6894,-1715.31,0,0
64147.6,57.6931,-1708.09,0,0
64407.9,57.5439,-1700.93,0,0
64668.2,57.3908,-1693.72,0,0
64928.5,57.1941,-1686.4,0,0
65188.9,57.1482,-1679.29,0,0
65449.2,56.8739,-1672.43,0,0
65709.5,56.6233,-1665.08,0,0
65969.8,56.6654,-1658.18,0,0
66230.2,56.2744,-1651.46,0,0
66490.5,55.9024,-1644.48,0,0
66750.8,55.4806,-1637.6,0,0
67011.1,55.0806,-1630.31,0,0
67271.5,54.9814,-1623.45,0,0
67531.8,54.7598,-1616.58,0,0
67792.1,54.6462,-1609.78,0,0
68052.4,54.3817,-1603.04,0,0
68312.8,54.1829,-1596.25,0,0
68573.1,53.8958,-1589.46,0,0
68833.4,53.6625,-1582.59,0,0
69093.7,53.5463,-1575.73,0,0
69354.1,53.6349,-1569.14,0,0
69614.4,53.6403,-1562.44,0,0
69874.7,53.6171,-1555.9,0,0
70135,53.7945,-1549.64,0,0
70395.4,53.7125,-1543.32,0,0
70655.7,53.7848,-1537.08,0,0
70916,53.6938,-1530.79,0,0
71176.3,53.6555,-1524.58,0,0
71436.7,53.7771,-1518.52,0,0
71697,53.7575,-1512.48,0,0
71957.3,53.6128,-1506.6,0,0
72217.6,53.451,-1500.57,0,0
72478,53.4178,-1494.64,0,0
72738.3,53.175,-1488.83,0,0
72998.6,52.8612,-1482.9,0,0
73258.9,52.6661,-1476.85,0,0
73519.3,52.6516,-1470.9,0,0
73779.6,52.6614,-1465.17,0,0
74039.9,52.4403,-1459.38,0,0
74300.225,52.3072,-1453.67,0,0
74560.55,52.0554,-1447.93,0,0
74820.875,51.894,-1442.13,0,0
75081.2,51.8382,-1436.34,0,0
75341.525,51.7331,-1430.74,0,0
75601.85,51.5956,-1425.01,0,0
75862.175,51.4707,-1419.4,0,0
76122.5,51.5279,-1413.77,0,0
76382.825,51.5166,-1408.24,0,0
76643.15,51.5505,-1402.79,0,0
76903.475,51.4678,-1397.45,0,0
77163.8,51.3026,-1392.08,0,0
77424.125,51.2164,-1386.66,0,0
77684.45,51.0927,-1381.27,0,0
77944.775,51.0032,-1375.99,0,0
78205.1,50.9667,-1370.67,0,0
78465.425,50.7694,-1365.5,0,0
78725.75,50.4961,-1360.18,0,0
78986.075,50.4694,-1354.8,0,0
79246.4,50.3172,-1349.61,0,0
79506.725,50.1581,-1344.39,0,0
79767.05,50.0336,-1339.07,0,0
80027.375,49.9221,-1333.82,0,0
80287.7,49.8326,-1328.59,0,0
80548.025,49.8146,-1323.32,0,0
80808.35,49.8032,-1318.09,0,0
81068.675,49.7739,-1312.89,0,0
81329.0,49.8074,-1307.67,0,0
81589.325,49.9697,-1302.52,0,0
81849.65,50.1088,-1297.46,0,0
82109.975,50.2399,-1292.47,0,0
82370.3,50.3824,-1287.47,0,0
82630.625,50.4607,-1282.49,0,0
82890.95,50.7191,-1277.48,0,0
83151.275,50.981,-1272.7,0,0
83411.6,51.1527,-1267.89,0,0
83671.925,51.4089,-1263.01,0,0
83932.25,51.8172,-1258.36,0,0
84192.575,52.19,-1253.91,0,0
84452.9,52.2777,-1249.46,0,0
84713.225,52.4912,-1245.23,0,0
84973.55,52.279,-1241.06,0,0
85233.875,51.7995,-1236.6,0,0
85494.2,51.5086,-1231.84,0,0
85754.525,51.3971,-1227.08,0,0
86014.85,51.264,-1222.34,0,0
86275.175,51.3324,-1217.56,0,0
86535.5,51.3095,-1212.85,0,0
86795.825,51.3577,-1208.05,0,0
87056.15,51.6091,-1203.39,0,0
87316.475,51.819,-1198.93,0,0
87576.8,51.9004,-1194.43,0,0
87837.125,51.9354,-1189.82,0,0
88097.45,52.1047,-1185.21,0,0
88357.775,52.2184,-1180.75,0,0
88618.1,52.3032,-1176.2,0,0
88878.425,52.5125,-1171.68,0,0
89138.75,52.5841,-1167.18,0,0
89399.075,52.7739,-1162.47,0,0
89659.4,52.9863,-1157.86,0,0
89919.725,53.3065,-1153.24,0,0
90180,53.7408,-1148.55,0,0
90440.4,54.2901,-1143.96,0,0
90700.7,54.912,-1139.32,0,0
90961,55.7684,-1134.82,0,0
91221.3,56.7378,-1130.46,0,0
91481.7,57.7806,-1126.63,0,0
91742,58.5463,-1122.99,0,0
92002.3,58.9506,-1119.38,0,0
92262.6,59.1774,-1115.67,0,0
92523,59.3243,-1111.85,0,0
92783.3,59.5468,-1107.73,0,0
93043.6,59.929,-1103.52,0,0
93303.9,60.5299,-1099.51,0,0
93564.3,61.0758,-1095.56,0,0
93824.6,61.6618,-1091.65,0,0
94084.9,62.2976,-1087.96,0,0
94345.2,62.8675,-1084.33,0,0
94605.6,63.0099,-1080.96,0,0
94865.9,63.0802,-1076.99,0,0
95126.2,63.4362,-1073.08,0,0
95386.5,63.6339,-1069.1,0,0
95646.9,64.1736,-1065.12,0,0
95907.2,64.5637,-1061.27,0,0
96167.5,65.0308,-1057.26,0,0
96427.8,65.4953,-1053.25,0,0
96688.2,66.2914,-1049.17,0,0
96948.5,67.1254,-1045.38,0,0
97208.8,67.8459,-1041.67,0,0
97469.1,68.5847,-1037.79,0,0
97729.5,69.4629,-1034,0,0
97989.8,70.4762,-1030.19,0,0
98250.1,71.596,-1026.51,0,0
98510.4,72.8273,-1022.96,0,0
98770.8,74.1322,-1019.61,0,0
99031.1,75.3852,-1016.61,0,0
99291.4,76.353,-1013.72,0,0
99551.7,77.1602,-1010.76,0,0
99812.1,77.9697,-1007.61,0,0
100072,78.9399,-1004.46,0,0
100333,80.051,-1001.38,0,0
100593,81.2425,-998.571,0,0
100853,82.3597,-995.889,0,0
101114,83.4426,-993.31,0,0
101374,84.4284,-990.959,0,0
101634,85.3189,-988.662,0,0
101895,86.1239,-986.508,0,0
102155,86.7303,-984.429,0,0
102415,87.1621,-982.4,0,0
102676,87.4001,-980.407,0,0
102936,87.4392,-978.26,0,0
103196,87.4422,-975.924,0,0
103457,87.4607,-973.518,0,0
103717,87.5415,-971.1,0,0
103977,87.6783,-968.774,0,0
104238,87.6651,-966.559,0,0
104498,87.5175,-964.349,0,0
104758,87.1378,-962.071,0,0
105019,86.5804,-959.551,0,0
105279,86.1018,-956.72,0,0
105539,85.8581,-953.802,0,0
105800,85.6346,-950.937,0,0
106060,85.5371,-947.994,0,0
106320.175,85.5619,-945.053,0,0
106580.5,85.6801,-942.225,0,0
106840.825,85.7545,-939.54,0,0
107101.15,85.7333,-936.901,0,0
107361.475,85.6814,-934.162,0,0
107621.8,85.5415,-931.512,0,0
107882.125,85.2377,-928.78,0,0
108142.45,84.9902,-925.69,0,0
108402.775,84.9032,-922.579,0,0
108663.1,85.0841,-919.372,0,0
108923.425,85.378,-916.329,0,0
109183.75,85.8285,-913.37,0,0
109444.075,86.3081,-910.658,0,0
109704.4,86.6944,-908.021,0,0
109964.725,87.1118,-905.404,0,0
110225.05,87.4004,-902.939,0,0
110485.375,87.5848,-900.455,0,0
110745.7,87.8125,-898.012,0,0
111006.025,87.9798,-895.534,0,0
111266.35,87.9319,-893.051,0,0
111526.675,88.127,-890.372,0,0
111787.0,88.4901,-887.821,0,0
112047.325,88.7613,-885.465,0,0
112307.65,88.9035,-883.121,0,0
112567.975,89.0125,-880.75,0,0
112828.3,89.0893,-878.419,0,0
113088.625,89.165,-876.132,0,0
113348.95,89.1196,-873.801,0,0
113609.275,89.007,-871.432,0,0
113869.6,88.928,-868.985,0,0
114129.925,88.9021,-866.523,0,0
114390.25,88.8724,-864.08,0,0
114650.575,88.9666,-861.605,0,0
114910.9,89.0036,-859.259,0,0
115171.225,89.103,-856.902,0,0
115431.55,89.1126,-854.742,0,0
115691.875,88.9482,-852.689,0,0
115952.2,88.4677,-850.486,0,0
116212.525,88.0957,-847.943,0,0
116472.85,87.8384,-845.354,0,0
116733.175,87.5705,-842.765,0,0
116993.5,87.4051,-840.131,0,0
117253.825,87.3008,-837.495,0,0
117514.15,87.269,-834.882,0,0
117774.475,87.2852,-832.321,0,0
118034.8,87.2922,-829.815,0,0
118295.125,87.2603,-827.348,0,0
118555.45,87.2337,-824.861,0,0
118815.775,87.2832,-822.357,0,0
119076.1,87.3381,-819.971,0,0
119336.425,87.325,-817.697,0,0
119596.75,87.1734,-815.454,0,0
119857.075,86.9075,-813.023,0,0
120117.4,86.7184,-810.57,0,0
120377.725,86.5602,-808.097,0,0
120638.05,86.3525,-805.628,0,0
120898.375,86.222,-803.025,0,0
121158.7,86.2034,-800.466,0,0
121419.025,86.2085,-798.038,0,0
121679.35,86.11,-795.67,0,0
121939.675,85.9682,-793.215,0,0
122200.0,85.8425,-790.745,0,0
122460,85.7842,-788.298,0,0
122721,85.7067,-785.922,0,0
122981,85.554,-783.519,0,0
123241,85.3952,-781.117,0,0
123502,85.2871,-778.675,0,0
123762,85.1171,-776.277,0,0
124022,84.9114,-773.886,0,0
124283,84.6817,-771.501,0,0
124543,84.3937,-769.086,0,0
124803,84.1071,-766.578,0,0
125064,83.7888,-764.082,0,0
125324,83.4941,-761.537,0,0
125584,83.2016,-758.954,0,0
125845,82.8903,-756.361,0,0
126105,82.5822,-753.7,0,0
126365,82.2953,-750.991,0,0
126626,82.0881,-748.24,0,0
126886,81.8936,-745.477,0,0
127146,81.701,-742.748,0,0
127406,81.5676,-739.997,0,0
127667,81.3545,-737.191,0,0
127927,81.231,-734.347,0,0
128187,81.2822,-731.504,0,0
128448,81.2696,-728.758,0,0
128708,81.3117,-726.011,0,0
128968,81.2477,-723.318,0,0
129229,81.1898,-720.544,0,0
129489,81.1431,-717.799,0,0
129749,81.0141,-715.011,0,0
130010,80.9372,-712.09,0,0
130270,80.891,-709.066,0,0
130530,81.0956,-705.931,0,0
130791,81.5484,-702.986,0,0
131051,81.9764,-700.265,0,0
131311,82.3239,-697.561,0,0
131572,82.7055,-695,0,0
131832,82.8953,-692.537,0,0
132092,82.9755,-689.91,0,0
132353,83.134,-687.26,0,0
132613,83.3184,-684.594,0,0
132873,83.5275,-681.991,0,0
133134,83.6223,-679.458,0,0
133394,83.6096,-676.829,0,0
133654,83.6075,-674.044,0,0
133915,83.6546,-671.261,0,0
134175,83.6967,-668.387,0,0
134435,83.8664,-665.42,0,0
134696,84.1619,-662.481,0,0
134956,84.5288,-659.583,0,0
135216,85.0035,-656.724,0,0
135477,85.4512,-653.973,0,0
135737,85.9733,-651.262,0,0
135997,86.5515,-648.706,0,0
136258,87.0877,-646.398,0,0
136518,87.2278,-644.123,0,0
136778,87.3231,-641.713,0,0
137039,87.3218,-639.296,0,0
137299,87.1618,-636.762,0,0
137559,86.9671,-634.135,0,0
137819,86.6762,-631.318,0,0
138080,86.4351,-628.299,0,0
138340.125,86.2395,-625.132,0,0
138600.45,86.2725,-621.744,0,0
138860.775,86.532,-618.419,0,0
139121.1,86.8994,-615.17,0,0
139381.425,87.3085,-612.022,0,0
139641.75,87.6593,-608.91,0,0
139902.075,88.063,-605.705,0,0
140162.4,88.5636,-602.518,0,0
140422.725,89.0298,-599.49,0,0
140683.05,89.3996,-596.421,0,0
140943.375,89.6829,-593.192,0,0
141203.7,90.1755,-589.825,0,0
141464.025,90.7965,-586.605,0,0
141724.35,91.2925,-583.486,0,0
141984.675,91.6164,-580.211,0,0
142245.0,92.0627,-576.73,0,0
142505.325,92.6566,-573.183,0,0
142765.65,93.3388,-569.66,0,0
143025.975,94.0868,-566.092,0,0
143286.3,94.8971,-562.446,0,0
143546.625,95.9356,-558.832,0,0
143806.95,97.03,-555.373,0,0
144067.275,97.98,-551.938,0,0
144327.6,98.9316,-548.385,0,0
144587.925,99.9492,-544.687,0,0
144848.25,101.169,-540.852,0,0
145108.575,102.673,-537.081,0,0
145368.9,104.235,-533.518,0,0
145629.225,105.79,-529.938,0,0
145889.55,107.396,-526.443,0,0
146149.875,109.011,-522.905,0,0
146410.2,110.703,-519.255,0,0
146670.525,112.654,-515.586,0,0
146930.85,114.862,-512.126,0,0
147191.175,117.092,-509.007,0,0
147451.5,119.075,-506.129,0,0
147711.825,120.734,-503.23,0,0
147972.15,122.193,-500.098,0,0
148232.475,123.599,-496.572,0,0
148492.8,125.198,-492.669,0,0
148753.125,127.174,-488.562,0,0
149013.45,129.517,-484.441,0,0
149273.775,132.118,-480.353,0,0
149534.1,134.899,-476.257,0,0
149794.425,138.015,-471.997,0,0
150054.75,141.59,-467.651,0,0
150315.075,145.879,-463.653,0,0
150575.4,150.4,-460.049,0,0
150835.725,155.304,-456.738,0,0
151096.05,160.511,-453.935,0,0
151356.375,166.057,-451.624,0,0
151616.7,171.872,-450.319,0,0
151877.025,177.166,-449.774,0,0
152137.35,181.969,-449.586,0,0
152397.675,186.68,-449.65,0,0
152658.0,190.987,-450.288,0,0
152918.325,194.562,-450.934,0,0
153178.65,198.191,-451.5,0,0
153438.975,201.396,-452.592,0,0
153699.3,203.931,-453.771,0,0
153959.625,205.734,-454.635,0,0
154219.95,207.757,-454.836,0,0
154480,209.627,-455.173,0,0
154741,211.022,-455.089,0,0
155001,213.182,-454.027,0,0
155261,216.413,-453.532,0,0
155522,219.791,-453.748,0,0
155782,223.425,-454.893,0,0
156042,226.648,-457.283,0,0
156303,228.342,-460.458,0,0
156563,228.753,-463.787,0,0
156823,227.848,-466.455,0,0
157084,226.083,-468.15,0,0
157344,223.629,-468.514,0,0
157604,221.439,-467.293,0,0
157864,220.254,-464.999,0,0
158125,220.489,-462.322,0,0
158385,221.585,-460.373,0,0
158645,222.916,-458.89,0,0
158906,224.38,-458.066,0,0
159166,225.502,-457.337,0,0
159426,227.175,-456.668,0,0
159687,228.728,-457.234,0,0
159947,229.18,-458.381,0,0
160207,228.41,-459.355,0,0
160468,226.856,-459.545,0,0
160728,224.848,-458.928,0,0
160988,222.625,-456.821,0,0
161249,221.401,-453.736,0,0
161509,220.823,-450.291,0,0
161769,221.225,-446.538,0,0
162030,222.59,-443.018,0,0
162290,224.524,-439.673,0,0
162550,227.374,-437.356,0,0
162811,230.046,-436.188,0,0
163071,232.061,-435.404,0,0
163331,233.765,-434.665,0,0
163592,235.404,-434.134,0,0
163852,236.659,-433.7,0,0
164112,237.575,-433.089,0,0
164373,238.59,-432.15,0,0
164633,240.119,-431.37,0,0
164893,241.698,-431.094,0,0
165154,243.072,-431.109,0,0
165414,244.342,-431.763,0,0
165674,244.928,-432.95,0,0
165935,244.479,-434.263,0,0
166195,242.942,-434.993,0,0
166455,241.543,-434.824,0,0
166716,239.944,-434.73,0,0
166976,237.731,-434.309,0,0
167236,235.342,-433.091,0,0
167497,233.173,-431.143,0,0
167757,231.38,-429.106,0,0
168017,229.409,-426.985,0,0
168277,227.369,-424.466,0,0
168538,225.504,-421.591,0,0
168798,223.499,-418.577,0,0
169058,221.397,-414.937,0,0
169319,219.768,-410.604,0,0
169579,218.758,-406.153,0,0
169839,218.035,-401.904,0,0
170100,217.232,-397.49,0,0
170360.075,216.62,-392.789,0,0
170620.4,216.373,-388,0,0
170880.725,216.339,-383.136,0,0
171141.05,216.433,-378.268,0,0
171401.375,216.497,-373.365,0,0
171661.7,216.604,-367.896,0,0
171922.025,217.344,-362.008,0,0
172182.35,218.726,-356.155,0,0
172442.675,220.703,-350.647,0,0
172703.0,222.728,-345.705,0,0
172963.325,224.54,-340.478,0,0
173223.65,226.754,-335.292,0,0
173483.975,229.225,-330.111,0,0
173744.3,231.964,-325.2,0,0
174004.625,234.781,-320.646,0,0
174264.95,237.571,-316.167,0,0
174525.275,240.524,-312.23,0,0
174785.6,242.704,-308.598,0,0
175045.925,244.218,-304.381,0,0
175306.25,245.831,-299.476,0,0
175566.575,247.73,-294.11,0,0
175826.9,250.076,-288.24,0,0
176087.225,252.982,-282.399,0,0
176347.55,256.224,-276.664,0,0
176607.875,259.816,-270.961,0,0
176868.2,263.659,-265.537,0,0
177128.525,267.521,-260.485,0,0
177388.85,270.884,-255.374,0,0
177649.175,274.046,-249.581,0,0
177909.5,277.541,-243.03,0,0
178169.825,281.744,-235.801,0,0
178430.15,287.201,-228.704,0,0
178690.475,293.276,-222.06,0,0
178950.8,299.618,-215.762,0,0
179211.125,306.51,-209.439,0,0
179471.45,313.992,-203.892,0,0
179731.775,321.108,-198.878,0,0
179992.1,328.192,-193.343,0,0
180252.425,336.182,-187.989,0,0
180512.75,344.229,-182.936,0,0
180773.075,352.861,-178.018,0,0
181033.4,361.525,-173.481,0,0
181293.725,370.406,-169.217,0,0
181554.05,379.25,-164.898,0,0
181814.375,388.982,-160.244,0,0
182074.7,399.861,-156.212,0,0
182335.025,411.388,-153.293,0,0
182595.35,423.242,-151.613,0,0
182855.675,434.683,-151.411,0,0
183116.0,445.155,-151.798,0,0
183376.325,455.159,-152.374,0,0
183636.65,464.715,-153.358,0,0
183896.975,473.331,-154.736,0,0
184157.3,480.597,-155.296,0,0
184417.625,488.05,-154.056,0,0
184677.95,496.926,-152.014,0,0
184938.275,507.348,-150.321,0,0
185198.6,518.659,-149.58,0,0
185458.925,530.711,-150.019,0,0
185719.25,542.634,-151.995,0,0
185979.575,553.455,-154.705,0,0
186239.9,564.159,-157.27,0,0
186500,575.366,-160.651,0,0
186761,585.611,-165.122,0,0
187021,595.108,-169.533,0,0
187281,604.298,-174.182,0,0
187542,612.919,-178.972,0,0
187802,621.04,-183.699,0,0
188062,628.797,-188.034,0,0
188322,636.951,-192.054,0,0
188583,645.319,-196.749,0,0
188843,653.04,-201.817,0,0
189103,660.279,-206.872,0,0
189364,666.905,-211.793,0,0
189624,673.26,-215.926,0,0
189884,680.183,-219.822,0,0
190145,686.856,-224.143,0,0
190405,692.882,-227.832,0,0
190665,699.244,-230.362,0,0
190926,706.948,-232.181,0,0
191186,716.403,-234.592,0,0
191446,726.357,-238.944,0,0
191707,735.583,-244.234,0,0
191967,744.021,-250.322,0,0
192227,750.845,-256.341,0,0
192488,756.816,-260.83,0,0
192748,763.195,-263.775,0,0
193008,770.812,-265.327,0,0
193269,780.468,-266.356,0,0
193529,791.914,-267.789,0,0
193789,805.222,-269.824,0,0
194050,820.485,-273.541,0,0
194310,836.392,-279.457,0,0
194570,852.797,-286.752,0,0
194831,869.667,-296.297,0,0
195091,885.945,-307.899,0,0
195351,901.641,-320.591,0,0
195612,917.085,-334.323,0,0
195872,932.905,-349.438,0,0
196132,948.775,-367.219,0,0
196393,963.281,-387.699,0,0
196653,975.67,-409.679,0,0
196913,986.394,-432.628,0,0
197174,995.864,-456.565,0,0
197434,1004.16,-482.167,0,0
197694,1010.08,-509.343,0,0
197955,1013.32,-537.496,0,0
198215,1013.76,-566.183,0,0
198475,1011.24,-594.478,0,0
198735,1006.45,-622.21,0,0
198996,999.466,-649.267,0,0
199256,990.416,-675.807,0,0
199516,978.714,-701.564,0,0
199777,964.375,-725.682,0,0
200037,947.578,-747.373,0,0
200297,929.48,-765.551,0,0
200558,911.523,-780.966,0,0
200818,894.157,-794.036,0,0
201078,877.808,-805.688,0,0
201339,862.575,-816.7,0,0
201599,847.612,-828.021,0,0
201859,831.92,-839.539,0,0
202120,815.016,-851.352,0,0
202380.025,795.64,-861.317,0,0
202640.35,774.702,-868.849,0,0
202900.675,753.753,-872.761,0,0
203161.0,734.535,-874.332,0,0
203421.325,716.479,-874.481,0,0
203681.65,699.798,-873.247,0,0
203941.975,684.705,-871.054,0,0
204202.3,670.971,-868.808,0,0
204462.625,657.985,-866.516,0,0
204722.95,645.531,-864.246,0,0
204983.275,632.792,-861.556,0,0
205243.6,620.233,-857.866,0,0
205503.925,608.01,-853.108,0,0
205764.25,597.111,-847.085,0,0
206024.575,587.403,-840.319,0,0
206284.9,579.071,-833.178,0,0
206545.225,571.887,-825.581,0,0
206805.55,566.499,-817.681,0,0
207065.875,562.798,-810.388,0,0
207326.2,560.042,-804.103,0,0
207586.525,558.001,-798.497,0,0
207846.85,556.574,-793.593,0,0
208107.175,555.644,-789.548,0,0
208367.5,554.874,-786.305,0,0
208627.825,553.993,-783.622,0,0
208888.15,552.968,-781.373,0,0
209148.475,551.702,-779.378,0,0
209408.8,550.178,-777.278,0,0
209669.125,548.697,-774.821,0,0
209929.45,547.743,-771.943,0,0
210189.775,547.616,-769.085,0,0
210450.1,548.17,-766.56,0,0
210710.425,549.228,-764.46,0,0
210970.75,550.94,-762.884,0,0
211231.075,552.985,-762.225,0,0
211491.4,555.143,-762.099,0,0
211751.725,557.399,-762.735,0,0
212012.05,559.578,-764.181,0,0
212272.375,561.471,-766.352,0,0
212532.7,562.901,-768.984,0,0
212793.025,563.992,-771.966,0,0
213053.35,564.793,-775.414,0,0
213313.675,565.133,-779.099,0,0
213574.0,564.867,-783.141,0,0
213834.325,564.072,-786.962,0,0
214094.65,563.046,-790.628,0,0
214354.975,561.788,-794.158,0,0
214615.3,560.585,-797.63,0,0
214875.625,559.402,-801.191,0,0
215135.95,558.089,-804.976,0,0
215396.275,556.59,-808.857,0,0
215656.6,554.877,-812.933,0,0
215916.925,553.013,-817.087,0,0
216177.25,550.772,-821.294,0,0
216437.575,547.886,-825.535,0,0
216697.9,545.219,-829.422,0,0
216958.225,542.303,-833.577,0,0
217218.55,539.243,-837.688,0,0
217478.875,535.993,-841.809,0,0
217739.2,532.603,-845.973,0,0
217999.525,529.069,-850.286,0,0
218259.85,525.141,-854.794,0,0
218520,520.794,-859.278,0,0
218780,515.907,-863.802,0,0
219041,510.496,-868.148,0,0
219301,504.598,-872.083,0,0
219561,498.376,-875.576,0,0
219822,492.024,-878.719,0,0
220082,485.394,-881.452,0,0
220342,478.486,-884.034,0,0
220603,471.159,-885.957,0,0
220863,463.757,-887.288,0,0
221123,456.331,-887.856,0,0
221384,449.236,-887.826,0,0
221644,442.484,-887.342,0,0
221904,436.085,-886.512,0,0
222165,429.847,-885.578,0,0
222425,423.79,-884.299,0,0
222685,417.973,-882.627,0,0
222946,412.386,-880.687,0,0
223206,407.296,-878.292,0,0
223466,402.976,-875.67,0,0
223727,399.125,-873.413,0,0
223987,395.6,-871.069,0,0
224247,392.411,-868.889,0,0
224508,389.655,-866.847,0,0
224768,387.204,-864.842,0,0
225028,384.926,-863.16,0,0
225289,383.214,-861.859,0,0
225549,381.382,-860.982,0,0
225809,379.76,-860.602,0,0
226070,377.959,-860.602,0,0
226330,376.035,-860.792,0,0
226590,373.958,-861.239,0,0
226851,371.528,-861.95,0,0
227111,368.847,-862.827,0,0
227371,365.877,-863.71,0,0
227632,362.539,-864.431,0,0
227892,358.95,-865.061,0,0
228152,355.296,-865.24,0,0
228413,351.665,-865.27,0,0
228673,348.348,-865.03,0,0
228933,345.339,-864.96,0,0
229193,342.487,-865.171,0,0
229454,339.531,-865.706,0,0
229714,336.559,-866.392,0,0
229974,333.094,-867.229,0,0
230235,329.472,-868.23,0,0
230495,325.458,-869.242,0,0
230755,321.085,-870.185,0,0
231016,316.328,-870.863,0,0
231276,311.545,-871.265,0,0
231536,306.544,-871.611,0,0
231797,301.35,-871.67,0,0
232057,296.002,-871.395,0,0
232317,290.723,-870.826,0,0
232578,285.442,-870.19,0,0
232838,280.002,-869.397,0,0
233098,274.524,-868.408,0,0
233359,268.775,-867.177,0,0
233619,262.898,-865.6,0,0
233879,257.043,-863.437,0,0
234140,251.265,-860.919,0,0
234400,245.664,-858.068,0,0
234660.3,240.253,-854.818,0,0
234920.625,234.981,-851.225,0,0
235180.95,230.162,-847.291,0,0
235441.275,225.737,-843.192,0,0
235701.6,221.64,-838.974,0,0
235961.925,217.87,-834.69,0,0
236222.25,214.413,-830.317,0,0
236482.575,211.253,-825.967,0,0
236742.9,208.358,-821.593,0,0
237003.225,205.708,-817.307,0,0
237263.55,203.21,-813.044,0,0
237523.875,200.962,-808.754,0,0
237784.2,198.932,-804.56,0,0
238044.525,197.047,-800.401,0,0
238304.85,195.314,-796.242,0,0
238565.175,193.754,-792.029,0,0
238825.5,192.606,-787.734,0,0
239085.825,191.72,-783.598,0,0
239346.15,191.251,-779.649,0,0
239606.475,191.016,-776.046,0,0
239866.8,190.897,-772.637,0,0
240127.125,190.951,-769.665,0,0
240387.45,190.921,-766.825,0,0
240647.775,190.968,-764.239,0,0
240908.1,191.157,-761.875,0,0
241168.425,191.29,-759.957,0,0
241428.75,191.2,-758.425,0,0
241689.075,190.898,-757.122,0,0
241949.4,190.127,-755.866,0,0
242209.725,189.07,-754.608,0,0
242470.05,187.734,-753.19,0,0
242730.375,186.315,-751.548,0,0
242990.7,184.827,-749.714,0,0
243251.025,183.416,-747.703,0,0
243511.35,182.03,-745.693,0,0
243771.675,180.593,-743.589,0,0
244032.0,179.223,-741.273,0,0
244292.325,177.918,-738.859,0,0
244552.65,176.837,-736.351,0,0
244812.975,175.884,-733.884,0,0
245073.3,175.066,-731.594,0,0
245333.625,174.025,-729.268,0,0
245593.95,173.05,-726.878,0,0
245854.275,172.2,-724.218,0,0
246114.6,171.631,-721.512,0,0
246374.925,171.278,-718.905,0,0
246635.25,171.069,-716.57,0,0
246895.575,170.908,-714.442,0,0
247155.9,170.664,-712.462,0,0
247416.225,170.279,-710.598,0,0
247676.55,169.782,-708.642,0,0
247936.875,169.286,-706.607,0,0
248197.2,168.787,-704.543,0,0
248457.525,168.342,-702.475,0,0
248717.85,167.932,-700.346,0,0
248978.175,167.643,-698.167,0,0
249238.5,167.287,-696.025,0,0
249498.825,167.056,-693.784,0,0
249759.15,167.012,-691.594,0,0
250019.475,167.029,-689.49,0,0
250279.8,167.069,-687.353,0,0
250540,167.175,-685.238,0,0
250800,167.359,-683.142,0,0
251061,167.698,-681.11,0,0
251321,168.166,-679.108,0,0
251581,168.795,-677.249,0,0
251842,169.486,-675.558,0,0
252102,170.217,-674.079,0,0
252362,170.968,-672.719,0,0
252623,171.727,-671.543,0,0
252883,172.514,-670.515,0,0
253143,173.231,-669.738,0,0
253404,173.835,-669.188,0,0
253664,174.249,-668.78,0,0
253924,174.425,-668.498,0,0
254185,174.386,-668.298,0,0
254445,174.18,-668.043,0,0
254705,173.784,-667.761,0,0
254966,173.238,-667.385,0,0
255226,172.474,-667.035,0,0
255486,171.565,-666.551,0,0
255747,170.486,-665.911,0,0
256007,169.337,-664.985,0,0
256267,168.166,-663.986,0,0
256528,166.927,-662.815,0,0
256788,165.67,-661.479,0,0
257048,164.405,-659.893,0,0
257309,163.227,-658.072,0,0
257569,162.157,-656.039,0,0
257829,161.284,-653.867,0,0
258090,160.618,-651.563,0,0
258350,160.151,-649.205,0,0
258610,159.871,-646.833,0,0
258871,159.784,-644.453,0,0
259131,159.929,-642.034,0,0
259391,160.202,-639.71,0,0
259651,160.79,-637.485,0,0
259912,161.458,-635.479,0,0
260172,162.188,-633.717,0,0
260432,162.872,-632.044,0,0
260693,163.494,-630.495,0,0
260953,164.039,-628.888,0,0
261213,164.671,-627.306,0,0
261474,165.369,-625.787,0,0
261734,166.079,-624.359,0,0
261994,166.817,-622.982,0,0
262255,167.542,-621.778,0,0
262515,168.102,-620.667,0,0
262775,168.498,-619.453,0,0
263036,168.776,-618.053,0,0
263296,169.201,-616.478,0,0
263556,169.76,-614.88,0,0
263817,170.337,-613.351,0,0
264077,170.982,-611.746,0,0
264337,171.6,-610.039,0,0
264598,172.344,-608.303,0,0
264858,173.062,-606.445,0,0
265118,174.004,-604.451,0,0
265379,175.166,-602.379,0,0
265639,176.518,-600.285,0,0
265899,178.069,-598.103,0,0
266160,179.906,-595.889,0,0
266420,182.078,-593.7,0,0
266680.25,184.61,-591.624,0,0
266940.575,187.473,-589.737,0,0
267200.9,190.639,-588.036,0,0
267461.225,194.161,-586.575,0,0
267721.55,198.007,-585.485,0,0
267981.875,202.087,-584.917,0,0
268242.2,206.303,-584.819,0,0
268502.525,210.526,-585.261,0,0
268762.85,214.68,-586.152,0,0
269023.175,218.698,-587.453,0,0
269283.5,222.528,-589.059,0,0
269543.825,226.237,-590.866,0,0
269804.15,229.963,-592.854,0,0
270064.475,233.834,-595.23,0,0
270324.8,237.716,-598.196,0,0
270585.125,241.457,-601.749,0,0
270845.45,244.848,-605.933,0,0
271105.775,247.743,-610.571,0,0
271366.1,250.069,-615.572,0,0
271626.425,251.879,-620.839,0,0
271886.75,253.169,-626.202,0,0
272147.075,254.062,-631.717,0,0
272407.4,254.576,-637.334,0,0
272667.725,254.67,-643.182,0,0
272928.05,254.235,-649.367,0,0
273188.375,253.1,-655.693,0,0
273448.7,251.165,-662.131,0,0
273709.025,248.246,-668.49,0,0
273969.35,244.522,-674.451,0,0
274229.675,240.039,-679.874,0,0
274490.0,234.921,-684.647,0,0
274750.325,229.447,-688.618,0,0
275010.65,223.696,-691.918,0,0
275270.975,217.82,-694.536,0,0
275531.3,211.956,-696.442,0,0
275791.625,206.114,-697.733,0,0
276051.95,200.501,-698.547,0,0
276312.275,195.046,-698.915,0,0
276572.6,189.741,-698.941,0,0
276832.925,184.62,-698.61,0,0
277093.25,179.628,-697.97,0,0
277353.575,174.865,-697.033,0,0
277613.9,170.317,-695.851,0,0
277874.225,165.987,-694.422,0,0
278134.55,161.845,-692.829,0,0
278394.875,157.856,-691.076,0,0
278655.2,154.057,-689.103,0,0
278915.525,150.457,-686.947,0,0
279175.85,147.049,-684.541,0,0
279436.175,143.97,-681.992,0,0
279696.5,141.153,-679.259,0,0
279956.825,138.664,-676.578,0,0
280217.15,136.442,-673.791,0,0
280477.475,134.579,-670.918,0,0
280737.8,133.035,-668.201,0,0
280998.125,131.728,-665.6,0,0
281258.45,130.603,-663.16,0,0
281518.775,129.618,-660.89,0,0
281779.1,128.746,-658.724,0,0
282039.425,127.927,-656.669,0,0
282299.75,127.192,-654.698,0,0
282560,126.57,-652.836,0,0
282820,126.037,-651.139,0,0
283081,125.469,-649.603,0,0
283341,124.816,-648.14,0,0
283601,124.097,-646.689,0,0
283862,123.326,-645.185,0,0
284122,122.569,-643.581,0,0
284382,121.949,-641.88,0,0
284643,121.429,-640.176,0,0
284903,121.049,-638.505,0,0
285163,120.803,-636.742,0,0
285424,120.744,-635.067,0,0
285684,120.913,-633.48,0,0
285944,121.187,-632.044,0,0
286205,121.605,-630.752,0,0
286465,122.131,-629.59,0,0
286725,122.815,-628.613,0,0
286986,123.656,-627.866,0,0
287246,124.617,-627.454,0,0
287506,125.581,-627.481,0,0
287767,126.397,-627.911,0,0
288027,126.993,-628.679,0,0
288287,127.28,-629.74,0,0
288548,127.175,-631.013,0,0
288808,126.677,-632.352,0,0
289068,125.826,-633.749,0,0
289329,124.567,-635.06,0,0
289589,122.988,-636.309,0,0
289849,121.058,-637.332,0,0
290109,118.85,-638.085,0,0
290370,116.412,-638.517,0,0
290630,113.996,-638.598,0,0
290890,111.607,-638.417,0,0
291151,109.29,-638.011,0,0
291411,107.041,-637.5,0,0
291671,104.84,-636.914,0,0
291932,102.614,-636.239,0,0
292192,100.381,-635.414,0,0
292452,98.1615,-634.478,0,0
292713,95.998,-633.38,0,0
292973,93.9047,-632.163,0,0
293233,91.8663,-630.871,0,0
293494,89.903,-629.493,0,0
293754,87.9775,-628.045,0,0
294014,86.1124,-626.486,0,0
294275,84.3001,-624.839,0,0
294535,82.5735,-623.096,0,0
294795,80.9974,-621.318,0,0
295056,79.4661,-619.428,0,0
295316,78.0751,-617.553,0,0
295576,76.7764,-615.613,0,0
295837,75.5998,-613.693,0,0
296097,74.5187,-611.752,0,0
296357,73.5234,-609.875,0,0
296618,72.585,-608.027,0,0
296878,71.6928,-606.211,0,0
297138,70.8327,-604.411,0,0
297399,69.9776,-602.611,0,0
297659,69.169,-600.834,0,0
297919,68.3623,-599.007,0,0
298180,67.6144,-597.172,0,0
298440,66.8993,-595.343,0,0
298700.2,66.2572,-593.485,0,0
298960.525,65.6466,-591.615,0,0
299220.85,65.0825,-589.72,0,0
299481.175,64.5767,-587.829,0,0
299741.5,64.1235,-585.964,0,0
300001.825,63.7227,-584.048,0,0
300262.15,63.4102,-582.15,0,0
300522.475,63.1677,-580.277,0,0
300782.8,62.9816,-578.416,0,0
301043.125,62.8299,-576.566,0,0
301303.45,62.7334,-574.721,0,0
301563.775,62.7256,-572.897,0,0
301824.1,62.7975,-571.094,0,0
302084.425,62.9646,-569.334,0,0
302344.75,63.1789,-567.639,0,0
302605.075,63.4603,-566.014,0,0
302865.4,63.7791,-564.465,0,0
303125.725,64.1067,-562.972,0,0
303386.05,64.4884,-561.533,0,0
303646.375,64.8875,-560.164,0,0
303906.7,65.3058,-558.846,0,0
304167.025,65.7189,-557.615,0,0
304427.35,66.152,-556.411,0,0
304687.675,66.5651,-555.248,0,0
304948.0,67.0283,-554.147,0,0
305208.325,67.4984,-553.098,0,0
305468.65,67.9549,-552.094,0,0
305728.975,68.4692,-551.156,0,0
305989.3,68.9385,-550.307,0,0
306249.625,69.4174,-549.51,0,0
306509.95,69.8468,-548.793,0,0
306770.275,70.252,-548.096,0,0
307030.6,70.6254,-547.433,0,0
307290.925,70.9637,-546.802,0,0
307551.25,71.3032,-546.188,0,0
307811.575,71.6271,-545.624,0,0
308071.9,72.0029,-545.103,0,0
308332.225,72.3454,-544.645,0,0
308592.55,72.6758,-544.306,0,0
308852.875,72.8875,-544.049,0,0
309113.2,73.0032,-543.858,0,0
309373.525,72.9756,-543.655,0,0
309633.85,72.8346,-543.415,0,0
309894.175,72.6369,-543.102,0,0
310154.5,72.398,-542.701,0,0
310414.825,72.1532,-542.263,0,0
310675.15,71.9127,-541.797,0,0
310935.475,71.7055,-541.304,0,0
311195.8,71.4789,-540.768,0,0
311456.125,71.2834,-540.246,0,0
311716.45,71.1275,-539.691,0,0
311976.775,70.9651,-539.179,0,0
312237.1,70.8028,-538.701,0,0
312497.425,70.6172,-538.235,0,0
312757.75,70.3893,-537.782,0,0
313018.075,70.134,-537.345,0,0
313278.4,69.8578,-536.881,0,0
313538.725,69.5488,-536.403,0,0
313799.05,69.2131,-535.926,0,0
314059.375,68.8529,-535.409,0,0
314319.7,68.5033,-534.882,0,0
314580,68.1602,-534.266,0,0
314840,67.7536,-533.682,0,0
315101,67.2847,-533.144,0,0
315361,66.9299,-532.494,0,0
315621,66.526,-531.804,0,0
315882,66.1654,-531.132,0,0
316142,65.8309,-530.42,0,0
316402,65.4474,-529.655,0,0
316663,65.233,-528.93,0,0
316923,64.9414,-528.138,0,0
317183,64.6918,-527.397,0,0
317444,64.4951,-526.67,0,0
317704,64.3254,-525.98,0,0
317964,64.1094,-525.276,0,0
318225,63.8129,-524.632,0,0
318485,63.5678,-523.864,0,0
318745,63.3122,-523.204,0,0
319006,63.0905,-522.412,0,0
319266,62.9254,-521.66,0,0
319526,62.771,-520.918,0,0
319787,62.6598,-520.117,0,0
320047,62.6133,-519.385,0,0
320307,62.61,-518.683,0,0
320567,62.6132,-518.109,0,0
320828,62.5172,-517.529,0,0
321088,62.5185,-517.005,0,0
321348,62.4621,-516.499,0,0
321609,62.3485,-516.031,0,0
321869,62.2431,-515.555,0,0
322129,62.0836,-515.037,0,0
322390,61.9626,-514.638,0,0
322650,61.7872,-514.207,0,0
322910,61.6109,-513.833,0,0
323171,61.4209,-513.415,0,0
323431,61.1443,-513.099,0,0
323691,60.8709,-512.705,0,0
323952,60.5258,-512.379,0,0
324212,60.0991,-511.961,0,0
324472,59.6758,-511.54,0,0
324733,59.2068,-511.161,0,0
324993,58.7416,-510.616,0,0
325253,58.2274,-510.072,0,0
325514,57.7365,-509.491,0,0
325774,57.2344,-508.901,0,0
326034,56.7421,-508.228,0,0
326295,56.2816,-507.546,0,0
326555,55.8433,-506.868,0,0
326815,55.4206,-506.134,0,0
327076,55.0847,-505.408,0,0
327336,54.6827,-504.753,0,0
327596,54.3137,-504.056,0,0
327857,53.967,-503.367,0,0
328117,53.6053,-502.668,0,0
328377,53.2044,-501.948,0,0
328638,52.8104,-501.305,0,0
328898,52.4643,-500.617,0,0
329158,52.0579,-499.882,0,0
329419,51.6107,-499.153,0,0
329679,51.2421,-498.396,0,0
329939,50.8715,-497.593,0,0
330200,50.446,-496.821,0,0
330460,50.1263,-496.003,0,0
330720.15,49.6921,-495.282,0,0
330980.475,49.3142,-494.377,0,0
331240.8,49.027,-493.611,0,0
331501.125,48.6414,-492.724,0,0
331761.45,48.3541,-491.797,0,0
332021.775,48.0465,-490.99,0,0
332282.1,47.6917,-490.032,0,0
332542.425,47.4529,-489.107,0,0
332802.75,47.2247,-488.261,0,0
333063.075,47.0124,-487.273,0,0
333323.4,46.7718,-486.356,0,0
333583.725,46.5619,-485.348,0,0
333844.05,46.4672,-484.408,0,0
334104.375,46.3626,-483.482,0,0
334364.7,46.2716,-482.532,0,0
334625.025,46.2526,-481.563,0,0
334885.35,46.1971,-480.632,0,0
335145.675,46.2294,-479.738,0,0
335406.0,46.349,-478.91,0,0
335666.325,46.4501,-478.066,0,0
335926.65,46.5769,-477.318,0,0
336186.975,46.7027,-476.617,0,0
336447.3,46.7234,-475.928,0,0
336707.625,46.8806,-475.273,0,0
336967.95,46.9278,-474.718,0,0
337228.275,46.9615,-474.06,0,0
337488.6,47.0074,-473.49,0,0
337748.925,46.9942,-472.962,0,0
338009.25,46.9591,-472.431,0,0
338269.575,46.9363,-471.928,0,0
338529.9,46.8167,-471.426,0,0
338790.225,46.7019,-470.886,0,0
339050.55,46.5685,-470.376,0,0
339310.875,46.398,-469.82,0,0
339571.2,46.2242,-469.264,0,0
339831.525,46.0205,-468.719,0,0
340091.85,45.8636,-468.106,0,0
340352.175,45.6473,-467.511,0,0
340612.5,45.4289,-466.934,0,0
340872.825,45.2073,-466.298,0,0
341133.15,44.9519,-465.726,0,0
341393.475,44.6952,-465.078,0,0
341653.8,44.4451,-464.367,0,0
341914.125,44.1229,-463.649,0,0
342174.45,43.939,-462.921,0,0
342434.775,43.6263,-462.228,0,0
342695.1,43.3647,-461.462,0,0
342955.425,43.1638,-460.644,0,0
343215.75,42.9446,-459.913,0,0
343476.075,42.7704,-459.11,0,0
343736.4,42.6147,-458.298,0,0
343996.725,42.4235,-457.465,0,0
344257.05,42.2204,-456.641,0,0
344517.375,42.09,-455.781,0,0
344777.7,41.9497,-454.85,0,0
345038.025,41.8616,-454.047,0,0
345298.35,41.768,-453.181,0,0
345558.675,41.7099,-452.319,0,0
345819.0,41.6927,-451.444,0,0
346079.325,41.6283,-450.593,0,0
346339.65,41.6491,-449.767,0,0
346599.975,41.609,-448.929,0,0
346860,41.6516,-448.024,0,0
347121,41.6792,-447.207,0,0
347381,41.7496,-446.324,0,0
347641,41.7856,-445.522,0,0
347902,41.8643,-444.664,0,0
348162,41.945,-443.911,0,0
348422,42.023,-443.086,0,0
348683,42.1331,-442.299,0,0
348943,42.2255,-441.498,0,0
349203,42.3036,-440.694,0,0
349464,42.4226,-439.872,0,0
349724,42.5762,-439.105,0,0
349984,42.7319,-438.292,0,0
350245,42.9274,-437.498,0,0
350505,43.0982,-436.755,0,0
350765,43.3074,-435.993,0,0
351025,43.5638,-435.238,0,0
351286,43.812,-434.524,0,0
351546,44.0469,-433.847,0,0
351806,44.2795,-433.094,0,0
352067,44.5486,-432.488,0,0
352327,44.8218,-431.881,0,0
352587,45.0955,-431.26,0,0
352848,45.383,-430.646,0,0
353108,45.6297,-430.076,0,0
353368,45.8332,-429.474,0,0
353629,46.1622,-428.964,0,0
353889,46.3908,-428.421,0,0
354149,46.607,-427.887,0,0
354410,46.8699,-427.407,0,0
354670,47.0863,-426.899,0,0
354930,47.3439,-426.403,0,0
355191,47.56,-425.941,0,0
355451,47.7647,-425.427,0,0
355711,47.99,-424.969,0,0
355972,48.1896,-424.522,0,0
356232,48.3666,-424.12,0,0
356492,48.565,-423.671,0,0
356753,48.7526,-423.243,0,0
357013,48.8624,-422.804,0,0
357273,49.001,-422.415,0,0
357534,49.1323,-422,0,0
357794,49.2571,-421.583,0,0
358054,49.435,-421.135,0,0
358315,49.5526,-420.688,0,0
358575,49.6651,-420.292,0,0
358835,49.8289,-419.871,0,0
359096,49.9334,-419.395,0,0
359356,50.0434,-419.012,0,0
359616,50.1992,-418.591,0,0
359877,50.3233,-418.181,0,0
360137,50.4415,-417.735,0,0
360397,50.5387,-417.266,0,0
360658,50.7174,-416.846,0,0
360918,50.8165,-416.476,0,0
361178,50.9462,-416.052,0,0
361438,51.1033,-415.651,0,0
361699,51.2261,-415.288,0,0
361959,51.3619,-414.896,0,0
362219,51.4995,-414.559,0,0
362480,51.6099,-414.2,0,0
362740.1,51.6801,-413.823,0,0
363000.425,51.8254,-413.473,0,0
363260.75,51.9067,-413.13,0,0
363521.075,51.961,-412.757,0,0
363781.4,52.0299,-412.443,0,0
364041.725,52.0973,-412.082,0,0
364302.05,52.1672,-411.755,0,0
364562.375,52.2328,-411.359,0,0
364822.7,52.3498,-411.021,0,0
365083.025,52.3721,-410.667,0,0
365343.35,52.4011,-410.325,0,0
365603.675,52.5001,-410.022,0,0
365864.0,52.5177,-409.644,0,0
366124.325,52.5457,-409.296,0,0
366384.65,52.5097,-408.963,0,0
366644.975,52.568,-408.568,0,0
366905.3,52.572,-408.203,0,0
367165.625,52.5575,-407.823,0,0
367425.95,52.6071,-407.428,0,0
367686.275,52.6267,-407.003,0,0
367946.6,52.6386,-406.665,0,0
368206.925,52.639,-406.229,0,0
368467.25,52.6246,-405.813,0,0
368727.575,52.6493,-405.383,0,0
368987.9,52.7167,-404.918,0,0
369248.225,52.7421,-404.463,0,0
369508.55,52.8414,-403.956,0,0
369768.875,52.9922,-403.511,0,0
370029.2,53.1541,-403.028,0,0
370289.525,53.3551,-402.609,0,0
370549.85,53.5964,-402.187,0,0
370810.175,53.789,-401.856,0,0
371070.5,54.08,-401.562,0,0
371330.825,54.2944,-401.329,0,0
371591.15,54.5338,-401.098,0,0
371851.475,54.6605,-400.907,0,0
372111.8,54.8364,-400.72,0,0
372372.125,54.9893,-400.555,0,0
372632.45,55.1033,-400.449,0,0
372892.775,55.1937,-400.306,0,0
373153.1,55.2382,-400.222,0,0
373413.425,55.2493,-400.121,0,0
373673.75,55.261,-400.005,0,0
373934.075,55.2007,-399.923,0,0
374194.4,55.1017,-399.809,0,0
374454.725,55.0069,-399.699,0,0
374715.05,54.8307,-399.555,0,0
374975.375,54.6768,-399.409,0,0
375235.7,54.4723,-399.202,0,0
375496.025,54.2486,-398.979,0,0
375756.35,54.0658,-398.703,0,0
376016.675,53.8471,-398.406,0,0
376277.0,53.6333,-398.098,0,0
376537.325,53.475,-397.733,0,0
376797.65,53.3503,-397.389,0,0
377057.975,53.2195,-397.062,0,0
377318.3,53.1589,-396.676,0,0
377578.625,53.0438,-396.392,0,0
377838.95,52.9059,-396.119,0,0
378099.275,52.7835,-395.882,0,0
378359.6,52.6271,-395.619,0,0
378619.925,52.3953,-395.354,0,0
378880,52.1319,-395.039,0,0
379141,51.8748,-394.694,0,0
379401,51.5526,-394.249,0,0
379661,51.2837,-393.785,0,0
379922,51.0252,-393.224,0,0
380182,50.9098,-392.618,0,0
380442,50.8196,-391.992,0,0
380703,50.8452,-391.371,0,0
380963,50.9368,-390.83,0,0
381223,51.0742,-390.341,0,0
381483,51.2835,-389.916,0,0
381744,51.4287,-389.627,0,0
382004,51.5525,-389.385,0,0
382264,51.5955,-389.247,0,0
382525,51.6196,-389.086,0,0
382785,51.5786,-388.974,0,0
383045,51.4762,-388.85,0,0
383306,51.2989,-388.653,0,0
383566,51.146,-388.469,0,0
383826,50.9453,-388.28,0,0
384087,50.6932,-388.07,0,0
384347,50.4363,-387.844,0,0
384607,50.1476,-387.588,0,0
384868,49.8236,-387.28,0,0
385128,49.5349,-386.988,0,0
385388,49.1664,-386.627,0,0
385649,48.8256,-386.25,0,0
385909,48.477,-385.884,0,0
386169,48.1461,-385.418,0,0
386430,47.8097,-384.997,0,0
386690,47.4829,-384.475,0,0
386950,47.1992,-383.947,0,0
387211,46.8703,-383.427,0,0
387471,46.5781,-382.889,0,0
387731,46.2919,-382.288,0,0
387992,46.0358,-381.696,0,0
388252,45.7882,-381.094,0,0
388512,45.5606,-380.437,0,0
388773,45.3901,-379.793,0,0
389033,45.1866,-379.142,0,0
389293,45.0724,-378.489,0,0
389554,44.9689,-377.854,0,0
389814,44.868,-377.215,0,0
390074,44.7964,-376.569,0,0
390335,44.7439,-375.935,0,0
390595,44.7131,-375.35,0,0
390855,44.6756,-374.73,0,0
391116,44.6418,-374.161,0,0
391376,44.5427,-373.585,0,0
391636,44.5439,-372.997,0,0
391896,44.4648,-372.431,0,0
392157,44.4692,-371.867,0,0
392417,44.4353,-371.3,0,0
392677,44.3972,-370.763,0,0
392938,44.3558,-370.226,0,0
393198,44.333,-369.625,0,0
393458,44.2808,-369.084,0,0
393719,44.239,-368.543,0,0
393979,44.1692,-367.928,0,0
394239,44.1509,-367.342,0,0
394500,44.1368,-366.762,0,0
394760.05,44.1072,-366.152,0,0
395020.375,44.095,-365.542,0,0
395280.7,44.1367,-364.933,0,0
395541.025,44.0928,-364.335,0,0
395801.35,44.1487,-363.738,0,0
396061.675,44.2032,-363.129,0,0
396322.0,44.2525,-362.532,0,0
396582.325,44.3159,-361.947,0,0
396842.65,44.3821,-361.412,0,0
397102.975,44.4725,-360.816,0,0
397363.3,44.5391,-360.263,0,0
397623.625,44.6348,-359.76,0,0
397883.95,44.6701,-359.213,0,0
398144.275,44.751,-358.688,0,0
398404.6,44.8608,-358.131,0,0
398664.925,44.9083,-357.603,0,0
398925.25,44.988,-357.044,0,0
399185.575,45.0713,-356.577,0,0
399445.9,45.1215,-356.039,0,0
399706.225,45.1931,-355.56,0,0
399966.55,45.2409,-355.043,0,0
400006.6,45.2527,-354.967,0,0