File: Accelerated corrosion test data/2025-10-20_06-00-03/sample_7.csv
Frequency (Hz),Impedance (ohms),Phase (Radians),Temperature (C),Humidity (%)
10000.0,274.167,-12155.4,0,0
10260.325,277.304,-11863.8,0,0
10520.65,257.522,-11561.4,0,0
10780.975,251.753,-11278.6,0,0
11041.3,249.039,-11009.1,0,0
11301.625,246.29,-10751.9,0,0
11561.95,248.619,-10501.4,0,0
11822.275,258.029,-10272,0,0
12082.6,263.881,-10047.5,0,0
12342.925,327.462,-9863.67,0,0
12603.25,263.365,-9703.53,0,0
12863.575,270.952,-9497.52,0,0
13123.9,237.945,-9325.13,0,0
13384.225,232.877,-9148.87,0,0
13644.55,220.338,-8961.81,0,0
13904.875,207.618,-8800.87,0,0
14165.2,203.908,-8628.21,0,0
14425.525,206.116,-8488.4,0,0
14685.8,202.944,-8332.88,0,0
14946.175,198.616,-8185.22,0,0
15206.5,197.996,-8054.13,0,0
15466.825,183.678,-7913.22,0,0
15727.15,185.538,-7783.77,0,0
15987.5,179.302,-7654.92,0,0
16247.8,178.088,-7533.2,0,0
16508.125,170.746,-7411.97,0,0
16768.45,169.76,-7292.5,0,0
17028.775,169.485,-7181.03,0,0
17289.1,166.098,-7073.42,0,0
17549.425,165.751,-6963.69,0,0
17809.75,165.752,-6853.22,0,0
18070.075,167.688,-6756.14,0,0
18330.4,173.9,-6648.59,0,0
18590.725,193.642,-6557.06,0,0
18851.05,195.809,-6497.63,0,0
19111.375,183.909,-6414.17,0,0
19371.7,213.24,-6328.45,0,0
19632.025,174.009,-6271.6,0,0
19892.35,156.936,-6171.23,0,0
20152.675,170.102,-6085.2,0,0
20413.0,173.699,-6009.38,0,0
20673.3,171.045,-5932.22,0,0
20933.65,182.784,-5872.2,0,0
21193.975,162.968,-5815.58,0,0
21454.3,153.451,-5738.61,0,0
21714.625,157.389,-5672.42,0,0
21974.9,145.333,-5609.25,0,0
22235.275,139.269,-5538.78,0,0
22495.6,137.765,-5472.86,0,0
22755.925,132.608,-5410.1,0,0
23016.25,129.335,-5346.05,0,0
23276.6,127.081,-5283.35,0,0
23536.9,127.208,-5222.03,0,0
23797.225,127.569,-5165.31,0,0
24057.55,123.766,-5108.93,0,0
24317.875,121.579,-5051.39,0,0
24578.2,122.859,-4995.31,0,0
24838.525,121.262,-4942.77,0,0
25098.85,120.211,-4890.55,0,0
25359.175,119.072,-4837.55,0,0
25619.5,117.637,-4785.35,0,0
25879.8,118.303,-4734.63,0,0
26140.1,117.193,-4683.55,0,0
26400.5,122.677,-4635.08,0,0
26660.8,119.843,-4589.64,0,0
26921.1,119.669,-4539.44,0,0
27181.4,125.009,-4488.9,0,0
27441.8,129.215,-4443.79,0,0
27702.1,137.787,-4393.95,0,0
27962.4,150.858,-4347.15,0,0
28222.7,178.644,-4309.61,0,0
28483.1,197.676,-4297.07,0,0
28743.4,197.448,-4290.21,0,0
29003.7,179.246,-4277.43,0,0
29264,154.812,-4244.55,0,0
29524.4,141.439,-4204.07,0,0
29784.7,133.397,-4162.21,0,0
30045,126.377,-4119.96,0,0
30305.3,126.424,-4079.36,0,0
30565.7,128.722,-4043.25,0,0
30826,131.256,-4009.68,0,0
31086.3,131.515,-3979.53,0,0
31346.6,129.577,-3950.25,0,0
31607,131.072,-3922.97,0,0
31867.3,120.591,-3894.61,0,0
32127.6,118.302,-3861.26,0,0
32387.9,115.152,-3831.28,0,0
32648.3,111.328,-3801.97,0,0
32908.6,107.308,-3771.15,0,0
33168.9,104.013,-3741.18,0,0
33429.2,101.452,-3710.7,0,0
33689.6,98.3757,-3680.94,0,0
33949.9,96.3655,-3651.17,0,0
34210.2,94.6799,-3622.12,0,0
34470.5,92.8825,-3593.4,0,0
34730.9,91.4122,-3565.03,0,0
34991.2,90.7961,-3536.97,0,0
35251.5,89.4862,-3509.99,0,0
35511.8,88.4062,-3482.73,0,0
35772.2,87.8995,-3455.99,0,0
36032.5,87.8366,-3430.07,0,0
36292.8,87.4369,-3405.07,0,0
36553.1,86.235,-3379.87,0,0
36813.5,85.6408,-3354.6,0,0
37073.8,85.5626,-3329.78,0,0
37334.1,85.306,-3305.72,0,0
37594.4,85.6449,-3282.03,0,0
37854.8,84.5947,-3258.44,0,0
38115.1,84.6507,-3234.1,0,0
38375.4,85.2819,-3210.74,0,0
38635.7,85.9815,-3187.67,0,0
38896.1,87.4943,-3164.48,0,0
39156.4,89.8719,-3142.98,0,0
39416.7,93.3145,-3120.93,0,0
39677,97.7991,-3102.37,0,0
39937.4,100.482,-3087.07,0,0
40197.7,99.878,-3072.12,0,0
40458,97.4389,-3057.36,0,0
40718.3,93.2793,-3039.69,0,0
40978.7,89.6638,-3020.73,0,0
41239,87.1508,-3001.51,0,0
41499.3,84.7898,-2982.02,0,0
41759.6,83.483,-2962.34,0,0
42020,81.9166,-2943.76,0,0
42280.275,79.9312,-2924.31,0,0
42540.6,78.9337,-2904.69,0,0
42800.925,79.7179,-2885.7,0,0
43061.25,79.3011,-2867.65,0,0
43321.575,80.4071,-2850.28,0,0
43581.9,78.5298,-2833.28,0,0
43842.225,78.0973,-2814.76,0,0
44102.55,79.3594,-2796.65,0,0
44362.875,81.2853,-2779.92,0,0
44623.2,82.8221,-2765.26,0,0
44883.525,82.7721,-2752.61,0,0
45143.85,79.9425,-2737.26,0,0
45404.175,78.9051,-2721.36,0,0
45664.5,78.1868,-2704.21,0,0
45924.825,80.0459,-2690.03,0,0
46185.15,79.3801,-2677.4,0,0
46445.475,77.2249,-2664.01,0,0
46705.8,74.3079,-2649.29,0,0
46966.125,72.1436,-2633.53,0,0
47226.45,70.6153,-2617.32,0,0
47486.775,70.4243,-2602.01,0,0
47747.1,69.7534,-2587.17,0,0
48007.425,69.6576,-2572.47,0,0
48267.75,69.2793,-2558.29,0,0
48528.075,68.6642,-2544.52,0,0
48788.4,68.1526,-2530.31,0,0
49048.725,67.3566,-2516.33,0,0
49309.05,66.8724,-2502.48,0,0
49569.375,66.5416,-2488.94,0,0
49829.7,66.1619,-2475.31,0,0
50090.025,65.8277,-2461.95,0,0
50350.35,65.5408,-2448.75,0,0
50610.675,65.3947,-2435.59,0,0
50871.0,64.8224,-2423.01,0,0
51131.325,64.4684,-2410.06,0,0
51391.65,64.1395,-2397.43,0,0
51651.975,63.9132,-2384.77,0,0
51912.3,63.7178,-2372.49,0,0
52172.625,63.5005,-2360.02,0,0
52432.95,63.4833,-2348.02,0,0
52693.275,63.2415,-2335.9,0,0
52953.6,63.0946,-2324.03,0,0
53213.925,63.2029,-2312.46,0,0
53474.25,63.075,-2301.17,0,0
53734.575,62.6123,-2289.89,0,0
53994.9,62.1765,-2278.66,0,0
54255.225,61.878,-2267.37,0,0
54515.55,61.4568,-2256.07,0,0
54775.875,61.081,-2245.03,0,0
55036.2,60.9184,-2233.9,0,0
55296.525,60.5183,-2223.03,0,0
55556.85,60.338,-2212.17,0,0
55817.175,60.0362,-2201.39,0,0
56077.5,59.7748,-2190.73,0,0
56337.825,59.747,-2179.92,0,0
56598.15,59.7433,-2169.61,0,0
56858.475,59.5828,-2159.37,0,0
57118.8,59.3805,-2149.15,0,0
57379.125,59.3429,-2139.09,0,0
57639.45,59.1276,-2129.03,0,0
57899.775,58.782,-2119.01,0,0
58160.1,58.5798,-2108.91,0,0
58420.4,58.9015,-2098.86,0,0
58680.7,59.2247,-2089.48,0,0
58941.1,59.0101,-2080.22,0,0
59201.4,58.8076,-2070.75,0,0
59461.7,58.7621,-2061.31,0,0
59722,59.0844,-2052.1,0,0
59982.4,58.7556,-2043.27,0,0
60242.7,58.8739,-2034.13,0,0
60503,58.9553,-2025.64,0,0
60763.3,58.3042,-2017.06,0,0
61023.7,57.9188,-2008.19,0,0
61284,57.4566,-1999.47,0,0
61544.3,57.1554,-1990.66,0,0
61804.6,56.7493,-1982.08,0,0
62065,56.2699,-1973.41,0,0
62325.3,55.9499,-1964.61,0,0
62585.6,55.7082,-1955.95,0,0
62845.9,55.4339,-1947.35,0,0
63106.3,55.1975,-1938.95,0,0
63366.6,55.0351,-1930.42,0,0
63626.9,55.0268,-1922.06,0,0
63887.2,54.875,-1914.02,0,0
64147.6,54.655,-1905.81,0,0
64407.9,54.5023,-1897.7,0,0
64668.2,54.3497,-1889.54,0,0
64928.5,54.3007,-1881.53,0,0
65188.9,54.3216,-1873.5,0,0
65449.2,54.4275,-1865.74,0,0
65709.5,54.559,-1858.23,0,0
65969.8,54.3223,-1850.87,0,0
66230.2,54.3215,-1843.43,0,0
66490.5,54.0925,-1836.05,0,0
66750.8,53.4914,-1828.83,0,0
67011.1,53.1469,-1821.42,0,0
67271.5,52.5826,-1813.97,0,0
67531.8,52.3615,-1806.45,0,0
67792.1,52.1115,-1799.03,0,0
68052.4,51.8541,-1791.67,0,0
68312.8,51.4839,-1784.37,0,0
68573.1,51.5236,-1777.1,0,0
68833.4,51.4182,-1769.91,0,0
69093.7,51.1596,-1762.7,0,0
69354.1,51.1032,-1755.61,0,0
69614.4,51.024,-1748.64,0,0
69874.7,50.8152,-1741.68,0,0
70135,50.7747,-1734.69,0,0
70395.4,50.6309,-1727.84,0,0
70655.7,50.6443,-1720.99,0,0
70916,50.6448,-1714.25,0,0
71176.3,50.6276,-1707.79,0,0
71436.7,50.5191,-1701.19,0,0
71697,50.5284,-1694.71,0,0
71957.3,50.183,-1688.31,0,0
72217.6,49.868,-1681.87,0,0
72478,49.716,-1675.31,0,0
72738.3,49.4958,-1668.9,0,0
72998.6,49.2081,-1662.39,0,0
73258.9,49.079,-1656.1,0,0
73519.3,48.9502,-1649.71,0,0
73779.6,48.755,-1643.4,0,0
74039.9,48.6046,-1637.17,0,0
74300.225,48.5511,-1630.86,0,0
74560.55,48.4273,-1624.66,0,0
74820.875,48.3488,-1618.6,0,0
75081.2,48.255,-1612.41,0,0
75341.525,48.1669,-1606.42,0,0
75601.85,48.0223,-1600.43,0,0
75862.175,47.8914,-1594.5,0,0
76122.5,47.7692,-1588.51,0,0
76382.825,47.664,-1582.61,0,0
76643.15,47.633,-1576.66,0,0
76903.475,47.5116,-1570.84,0,0
77163.8,47.5235,-1564.98,0,0
77424.125,47.4603,-1559.25,0,0
77684.45,47.4145,-1553.49,0,0
77944.775,47.3812,-1547.86,0,0
78205.1,47.2659,-1542.24,0,0
78465.425,47.2537,-1536.63,0,0
78725.75,47.0832,-1531.01,0,0
78986.075,47.1203,-1525.47,0,0
79246.4,47.0386,-1519.96,0,0
79506.725,47.0574,-1514.47,0,0
79767.05,47.0749,-1508.99,0,0
80027.375,47.0323,-1503.65,0,0
80287.7,46.9296,-1498.36,0,0
80548.025,46.8693,-1493.06,0,0
80808.35,46.8263,-1487.78,0,0
81068.675,46.7531,-1482.58,0,0
81329.0,46.6349,-1477.24,0,0
81589.325,46.5737,-1472.03,0,0
81849.65,46.5037,-1466.83,0,0
82109.975,46.4209,-1461.65,0,0
82370.3,46.333,-1456.41,0,0
82630.625,46.2735,-1451.24,0,0
82890.95,46.3211,-1446.14,0,0
83151.275,46.2338,-1441.05,0,0
83411.6,46.2101,-1436.02,0,0
83671.925,46.1613,-1430.95,0,0
83932.25,46.255,-1425.91,0,0
84192.575,46.288,-1420.97,0,0
84452.9,46.3143,-1415.98,0,0
84713.225,46.417,-1411.11,0,0
84973.55,46.4597,-1406.21,0,0
85233.875,46.4808,-1401.47,0,0
85494.2,46.5393,-1396.78,0,0
85754.525,46.5589,-1392.08,0,0
86014.85,46.4755,-1387.37,0,0
86275.175,46.5614,-1382.58,0,0
86535.5,46.5747,-1377.95,0,0
86795.825,46.5577,-1373.28,0,0
87056.15,46.5037,-1368.69,0,0
87316.475,46.5544,-1364.01,0,0
87576.8,46.6061,-1359.49,0,0
87837.125,46.6426,-1354.97,0,0
88097.45,46.6826,-1350.6,0,0
88357.775,46.599,-1346.25,0,0
88618.1,46.4606,-1341.73,0,0
88878.425,46.353,-1337.32,0,0
89138.75,46.1598,-1332.83,0,0
89399.075,46.011,-1328.31,0,0
89659.4,46.004,-1323.74,0,0
89919.725,45.9893,-1319.29,0,0
90180,45.9878,-1314.97,0,0
90440.4,45.9423,-1310.31,0,0
90700.7,46.0817,-1305.85,0,0
90961,46.0776,-1301.53,0,0
91221.3,46.0469,-1297.19,0,0
91481.7,46.0978,-1292.7,0,0
91742,46.1804,-1288.37,0,0
92002.3,46.3045,-1284.07,0,0
92262.6,46.2607,-1279.7,0,0
92523,46.3508,-1275.46,0,0
92783.3,46.3833,-1271.15,0,0
93043.6,46.4902,-1266.71,0,0
93303.9,46.5924,-1262.13,0,0
93564.3,47.1191,-1257.57,0,0
93824.6,47.7866,-1253.13,0,0
94084.9,48.7634,-1249.07,0,0
94345.2,49.7274,-1245.4,0,0
94605.6,50.4522,-1242.02,0,0
94865.9,50.8799,-1239.2,0,0
95126.2,50.6414,-1236.11,0,0
95386.5,50.3045,-1232.73,0,0
95646.9,49.7493,-1229.22,0,0
95907.2,49.1751,-1225.4,0,0
96167.5,48.796,-1221.36,0,0
96427.8,48.5936,-1217.36,0,0
96688.2,48.3918,-1213.23,0,0
96948.5,48.2897,-1209.19,0,0
97208.8,48.313,-1205.05,0,0
97469.1,48.4659,-1201.09,0,0
97729.5,48.5699,-1197.13,0,0
97989.8,48.8051,-1193.15,0,0
98250.1,49.1406,-1189.43,0,0
98510.4,49.2738,-1185.8,0,0
98770.8,49.3456,-1182.18,0,0
99031.1,49.3279,-1178.46,0,0
99291.4,49.3032,-1174.79,0,0
99551.7,49.2706,-1171.17,0,0
99812.1,48.9858,-1167.33,0,0
100072,48.9673,-1163.26,0,0
100333,49.2097,-1159.19,0,0
100593,49.661,-1155.39,0,0
100853,49.8113,-1151.7,0,0
101114,50.0698,-1147.84,0,0
101374,50.5906,-1144.09,0,0
101634,50.9046,-1140.66,0,0
101895,51.0517,-1136.86,0,0
102155,51.5847,-1133.17,0,0
102415,52.01,-1129.63,0,0
102676,52.4675,-1126.14,0,0
102936,52.884,-1122.72,0,0
103196,53.3363,-1119.2,0,0
103457,54.0072,-1115.81,0,0
103717,54.7616,-1112.7,0,0
103977,55.2977,-1110.03,0,0
104238,55.1003,-1107.29,0,0
104498,55.1008,-1103.81,0,0
104758,55.5331,-1100.59,0,0
105019,55.8309,-1097.74,0,0
105279,55.7613,-1094.88,0,0
105539,55.6083,-1091.87,0,0
105800,55.3547,-1088.67,0,0
106060,55.2151,-1085.37,0,0
106320.175,55.0696,-1081.97,0,0
106580.5,55.07,-1078.49,0,0
106840.825,55.1456,-1075.02,0,0
107101.15,55.4718,-1071.56,0,0
107361.475,55.638,-1068.39,0,0
107621.8,55.6971,-1065.1,0,0
107882.125,55.898,-1061.79,0,0
108142.45,55.9036,-1058.46,0,0
108402.775,56.0857,-1054.97,0,0
108663.1,56.5078,-1051.59,0,0
108923.425,56.8097,-1048.54,0,0
109183.75,56.9121,-1045.35,0,0
109444.075,57.0261,-1042.09,0,0
109704.4,57.103,-1038.79,0,0
109964.725,57.2265,-1035.26,0,0
110225.05,57.4313,-1031.73,0,0
110485.375,57.7599,-1028.01,0,0
110745.7,58.3662,-1024.35,0,0
111006.025,59.0894,-1020.91,0,0
111266.35,59.9377,-1017.54,0,0
111526.675,60.4201,-1014.4,0,0
111787.0,60.9785,-1010.97,0,0
112047.325,61.6037,-1007.39,0,0
112307.65,62.6774,-1003.88,0,0
112567.975,63.7753,-1000.64,0,0
112828.3,65.0556,-997.373,0,0
113088.625,66.3604,-994.428,0,0
113348.95,67.6557,-991.68,0,0
113609.275,68.776,-989.156,0,0
113869.6,69.5764,-986.393,0,0
114129.925,70.6664,-983.433,0,0
114390.25,71.86,-980.6,0,0
114650.575,73.2278,-977.879,0,0
114910.9,74.6911,-975.352,0,0
115171.225,76.0211,-972.913,0,0
115431.55,77.3626,-970.495,0,0
115691.875,78.7954,-967.967,0,0
115952.2,80.8076,-965.633,0,0
116212.525,82.6896,-963.895,0,0
116472.85,84.3969,-962.321,0,0
116733.175,86.1526,-961.047,0,0
116993.5,87.7091,-960.036,0,0
117253.825,88.9613,-959.212,0,0
117514.15,90.067,-958.374,0,0
117774.475,91.0647,-957.701,0,0
118034.8,91.7415,-957.28,0,0
118295.125,92.0593,-956.431,0,0
118555.45,92.8515,-955.451,0,0
118815.775,93.9513,-955.106,0,0
119076.1,94.5132,-955.288,0,0
119336.425,94.6876,-955.581,0,0
119596.75,94.4427,-956.218,0,0
119857.075,93.5116,-956.885,0,0
120117.4,91.8201,-957.189,0,0
120377.725,90.1245,-956.924,0,0
120638.05,88.0927,-956.854,0,0
120898.375,85.4068,-956.248,0,0
121158.7,82.4355,-954.942,0,0
121419.025,79.6517,-952.727,0,0
121679.35,77.5176,-950.091,0,0
121939.675,75.8321,-947.545,0,0
122200.0,74.2898,-945.215,0,0
122460,72.4606,-942.803,0,0
122721,70.8672,-940.031,0,0
122981,69.493,-937.374,0,0
123241,67.9936,-934.706,0,0
123502,66.5194,-931.778,0,0
123762,65.2281,-928.617,0,0
124022,64.3546,-925.463,0,0
124283,63.6623,-922.487,0,0
124543,63.0293,-919.763,0,0
124803,62.2583,-917.087,0,0
125064,61.4969,-914.409,0,0
125324,60.6586,-911.9,0,0
125584,59.5604,-909.224,0,0
125845,58.5666,-906.241,0,0
126105,57.749,-903.273,0,0
126365,57.0323,-900.441,0,0
126626,56.1386,-897.45,0,0
126886,55.4072,-894.338,0,0
127146,54.7534,-891.338,0,0
127406,53.9223,-888.189,0,0
127667,53.4785,-884.929,0,0
127927,53.1696,-881.75,0,0
128187,52.982,-878.708,0,0
128448,52.7939,-875.823,0,0
128708,52.396,-873.06,0,0
128968,51.9594,-870.125,0,0
129229,51.6187,-867.085,0,0
129489,51.4077,-864.141,0,0
129749,51.1185,-861.298,0,0
130010,50.7206,-858.317,0,0
130270,50.5079,-855.241,0,0
130530,50.4787,-852.324,0,0
130791,50.3893,-849.621,0,0
131051,50.0334,-846.92,0,0
131311,49.602,-844.07,0,0
131572,49.1014,-840.978,0,0
131832,48.8714,-837.748,0,0
132092,48.7389,-834.623,0,0
132353,48.6897,-831.513,0,0
132613,48.6208,-828.398,0,0
132873,48.6007,-825.231,0,0
133134,48.6911,-822.031,0,0
133394,48.8733,-818.856,0,0
133654,49.1242,-815.64,0,0
133915,49.4692,-812.479,0,0
134175,49.9756,-809.307,0,0
134435,50.7072,-806.249,0,0
134696,51.4558,-803.466,0,0
134956,52.0708,-800.801,0,0
135216,52.6716,-798.09,0,0
135477,53.4761,-795.426,0,0
135737,54.3226,-792.914,0,0
135997,55.3707,-790.62,0,0
136258,56.2958,-788.773,0,0
136518,56.8841,-787.118,0,0
136778,57.2701,-785.566,0,0
137039,57.3568,-784.224,0,0
137299,56.85,-782.696,0,0
137559,56.1251,-780.729,0,0
137819,55.4939,-778.389,0,0
138080,54.9726,-775.983,0,0
138340.125,54.4137,-773.497,0,0
138600.45,53.9398,-770.816,0,0
138860.775,53.5297,-768.047,0,0
139121.1,53.2227,-765.14,0,0
139381.425,53.1318,-762.248,0,0
139641.75,53.0548,-759.395,0,0
139902.075,53.0624,-756.499,0,0
140162.4,53.2159,-753.621,0,0
140422.725,53.3928,-751.005,0,0
140683.05,53.422,-748.34,0,0
140943.375,53.4259,-745.658,0,0
141203.7,53.4163,-742.914,0,0
141464.025,53.3784,-740.124,0,0
141724.35,53.3504,-737.175,0,0
141984.675,53.5137,-734.146,0,0
142245.0,53.8483,-731.219,0,0
142505.325,54.1151,-728.384,0,0
142765.65,54.3744,-725.481,0,0
143025.975,54.776,-722.473,0,0
143286.3,55.3227,-719.514,0,0
143546.625,55.9854,-716.784,0,0
143806.95,56.5591,-714.114,0,0
144067.275,57.1818,-711.444,0,0
144327.6,57.8484,-708.983,0,0
144587.925,58.4327,-706.599,0,0
144848.25,58.927,-704.277,0,0
145108.575,59.3535,-701.975,0,0
145368.9,59.6336,-699.815,0,0
145629.225,59.6655,-697.483,0,0
145889.55,59.7232,-694.916,0,0
146149.875,59.841,-692.299,0,0
146410.2,60.049,-689.576,0,0
146670.525,60.403,-686.873,0,0
146930.85,60.7918,-684.311,0,0
147191.175,61.1544,-681.741,0,0
147451.5,61.5254,-679.329,0,0
147711.825,61.6407,-676.914,0,0
147972.15,61.7965,-674.258,0,0
148232.475,62.1242,-671.712,0,0
148492.8,62.2857,-669.303,0,0
148753.125,62.2956,-666.819,0,0
149013.45,62.2353,-664.225,0,0
149273.775,62.1256,-661.521,0,0
149534.1,61.976,-658.704,0,0
149794.425,61.9135,-655.734,0,0
150054.75,61.8222,-652.77,0,0
150315.075,61.7106,-649.634,0,0
150575.4,61.7088,-646.389,0,0
150835.725,61.7388,-643.094,0,0
151096.05,61.8265,-639.665,0,0
151356.375,62.0284,-636.116,0,0
151616.7,62.3675,-632.539,0,0
151877.025,62.7993,-628.967,0,0
152137.35,63.2905,-625.366,0,0
152397.675,63.8758,-621.73,0,0
152658.0,64.5234,-618.053,0,0
152918.325,65.2796,-614.331,0,0
153178.65,66.1269,-610.632,0,0
153438.975,67.1052,-606.926,0,0
153699.3,68.1421,-603.3,0,0
153959.625,69.1381,-599.679,0,0
154219.95,70.1876,-595.913,0,0
154480,71.3515,-592.12,0,0
154741,72.6435,-588.313,0,0
155001,74.0337,-584.487,0,0
155261,75.5283,-580.601,0,0
155522,77.2157,-576.761,0,0
155782,79.038,-572.989,0,0
156042,80.9743,-569.259,0,0
156303,83.0411,-565.636,0,0
156563,85.1076,-562.063,0,0
156823,87.2989,-558.503,0,0
157084,89.5829,-554.959,0,0
157344,92.041,-551.477,0,0
157604,94.7277,-548.086,0,0
157864,97.5885,-544.988,0,0
158125,100.474,-542.209,0,0
158385,103.307,-539.649,0,0
158645,106.072,-537.328,0,0
158906,108.722,-535.275,0,0
159166,111.133,-533.481,0,0
159426,113.264,-531.882,0,0
159687,114.893,-530.301,0,0
159947,116.051,-528.564,0,0
160207,116.844,-526.515,0,0
160468,117.464,-524.005,0,0
160728,118.034,-521.003,0,0
160988,118.78,-517.734,0,0
161249,119.44,-514.265,0,0
161509,119.999,-510.18,0,0
161769,120.902,-505.424,0,0
162030,122.538,-500.268,0,0
162290,124.775,-495.155,0,0
162550,127.473,-490.18,0,0
162811,130.354,-485.486,0,0
163071,133.144,-480.733,0,0
163331,136.17,-475.597,0,0
163592,139.794,-470.153,0,0
163852,144.199,-465.051,0,0
164112,148.893,-460.479,0,0
164373,153.49,-456.097,0,0
164633,158.172,-451.802,0,0
164893,163.071,-447.66,0,0
165154,167.856,-443.865,0,0
165414,172.182,-439.627,0,0
165674,176.757,-434.603,0,0
165935,182.158,-429.214,0,0
166195,188.164,-423.651,0,0
166455,195.03,-417.848,0,0
166716,203.087,-412.376,0,0
166976,211.832,-407.545,0,0
167236,220.979,-403.084,0,0
167497,230.884,-398.743,0,0
167757,241.939,-395.051,0,0
168017,253.726,-392.5,0,0
168277,265.787,-390.843,0,0
168538,278.261,-390.063,0,0
168798,291.251,-390.365,0,0
169058,304.382,-391.777,0,0
169319,317.969,-394.499,0,0
169579,331.213,-398.967,0,0
169839,343.312,-404.681,0,0
170100,354.921,-410.312,0,0
170360.075,366.753,-416.45,0,0
170620.4,379.041,-423.849,0,0
170880.725,391.103,-433.238,0,0
171141.05,401.811,-444.262,0,0
171401.375,411.129,-456.143,0,0
171661.7,419.241,-468.677,0,0
171922.025,426.254,-481.51,0,0
172182.35,432.788,-495.025,0,0
172442.675,438.392,-509.824,0,0
172703.0,442.009,-525.984,0,0
172963.325,443.277,-542.17,0,0
173223.65,442.843,-558.374,0,0
173483.975,440.445,-574.35,0,0
173744.3,436.327,-590.394,0,0
174004.625,428.921,-606.118,0,0
174264.95,418.523,-619.118,0,0
174525.275,407.19,-628.965,0,0
174785.6,395.978,-636.39,0,0
175045.925,384.344,-641.999,0,0
175306.25,373.028,-644.65,0,0
175566.575,363.552,-645.867,0,0
175826.9,354.061,-646.36,0,0
176087.225,345.448,-643.864,0,0
176347.55,340.397,-640.015,0,0
176607.875,337.728,-637.617,0,0
176868.2,335.217,-636.148,0,0
177128.525,333.403,-634.321,0,0
177388.85,333.296,-632.755,0,0
177649.175,333.971,-632.68,0,0
177909.5,334.457,-632.906,0,0
178169.825,336.395,-633.08,0,0
178430.15,340.351,-634.997,0,0
178690.475,345.153,-640.634,0,0
178950.8,347.429,-650.14,0,0
179211.125,345.666,-660.686,0,0
179471.45,340.704,-670.217,0,0
179731.775,333.876,-677.67,0,0
179992.1,326.832,-683.45,0,0
180252.425,319.321,-688.261,0,0
180512.75,311.842,-691.677,0,0
180773.075,305.127,-694.557,0,0
181033.4,298.566,-697.608,0,0
181293.725,291.725,-700.955,0,0
181554.05,283.501,-704.197,0,0
181814.375,274.672,-705.831,0,0
182074.7,266.507,-706.601,0,0
182335.025,258.336,-707.538,0,0
182595.35,249.169,-708.129,0,0
182855.675,239.321,-707.254,0,0
183116.0,229.645,-704.834,0,0
183376.325,220.811,-700.836,0,0
183636.65,213.426,-696.316,0,0
183896.975,206.85,-691.801,0,0
184157.3,200.768,-687.354,0,0
184417.625,194.944,-682.754,0,0
184677.95,189.495,-677.694,0,0
184938.275,184.931,-672.406,0,0
185198.6,181.17,-667.577,0,0
185458.925,177.43,-663.27,0,0
185719.25,173.446,-659.304,0,0
185979.575,168.775,-654.982,0,0
186239.9,164.322,-649.526,0,0
186500,160.883,-643.668,0,0
186761,158.117,-638.064,0,0
187021,155.536,-632.679,0,0
187281,153.017,-627.119,0,0
187542,151.053,-621.166,0,0
187802,150.062,-615.341,0,0
188062,149.682,-610.185,0,0
188322,149.415,-605.868,0,0
188583,148.812,-602.011,0,0
188843,148.019,-598.452,0,0
189103,146.746,-595.067,0,0
189364,145.056,-591.392,0,0
189624,143.417,-587.338,0,0
189884,141.883,-583.252,0,0
190145,140.194,-578.979,0,0
190405,138.681,-574.307,0,0
190665,137.486,-569.599,0,0
190926,136.241,-564.908,0,0
191186,134.996,-559.804,0,0
191446,134.312,-554.292,0,0
191707,134.253,-549,0,0
191967,134.384,-544.132,0,0
192227,134.338,-539.52,0,0
192488,134.135,-534.733,0,0
192748,134.104,-529.691,0,0
193008,134.302,-524.549,0,0
193269,134.787,-519.314,0,0
193529,135.627,-514.229,0,0
193789,136.512,-509.305,0,0
194050,137.507,-504.29,0,0
194310,138.743,-499.323,0,0
194570,140.168,-494.427,0,0
194831,141.757,-489.598,0,0
195091,143.589,-484.802,0,0
195351,145.673,-480.248,0,0
195612,147.855,-475.963,0,0
195872,149.944,-471.862,0,0
196132,152.106,-467.662,0,0
196393,154.471,-463.631,0,0
196653,156.914,-459.866,0,0
196913,159.279,-456.186,0,0
197174,161.844,-452.593,0,0
197434,164.387,-449.296,0,0
197694,166.867,-446.201,0,0
197955,169.068,-443.343,0,0
198215,170.903,-440.469,0,0
198475,172.709,-437.338,0,0
198735,174.5,-434.089,0,0
198996,176.266,-430.858,0,0
199256,177.938,-427.528,0,0
199516,179.591,-424.069,0,0
199777,181.097,-420.383,0,0
200037,182.699,-416.246,0,0
200297,184.613,-411.924,0,0
200558,186.908,-407.53,0,0
200818,189.379,-403.098,0,0
201078,191.985,-398.751,0,0
201339,194.576,-394.36,0,0
201599,197.317,-389.669,0,0
201859,200.316,-384.733,0,0
202120,203.832,-379.625,0,0
202380.025,207.797,-374.534,0,0
202640.35,212.342,-369.717,0,0
202900.675,217.003,-365.199,0,0
203161.0,221.907,-360.795,0,0
203421.325,226.943,-356.497,0,0
203681.65,232.169,-352.394,0,0
203941.975,237.607,-348.33,0,0
204202.3,243.217,-344.325,0,0
204462.625,249.177,-340.473,0,0
204722.95,255.317,-336.804,0,0
204983.275,261.601,-333.249,0,0
205243.6,268.089,-329.606,0,0
205503.925,275.408,-325.768,0,0
205764.25,283.596,-322.66,0,0
206024.575,292.102,-320.568,0,0
206284.9,300.368,-319.278,0,0
206545.225,308.687,-318.444,0,0
206805.55,316.688,-318.3,0,0
207065.875,324.254,-318.798,0,0
207326.2,331.104,-319.361,0,0
207586.525,337.513,-319.75,0,0
207846.85,343.629,-320.074,0,0
208107.175,349.189,-320.03,0,0
208367.5,354.935,-318.812,0,0
208627.825,361.539,-316.996,0,0
208888.15,369.091,-315.191,0,0
209148.475,377.43,-313.474,0,0
209408.8,386.756,-311.912,0,0
209669.125,397.163,-310.931,0,0
209929.45,408.582,-310.814,0,0
210189.775,420.904,-312.103,0,0
210450.1,433.724,-315.045,0,0
210710.425,446.631,-319.719,0,0
210970.75,458.699,-326.606,0,0
211231.075,469.337,-334.773,0,0
211491.4,478.556,-343.494,0,0
211751.725,486.599,-352.248,0,0
212012.05,493.868,-361.168,0,0
212272.375,500.531,-370.415,0,0
212532.7,506.101,-379.954,0,0
212793.025,510.661,-388.965,0,0
213053.35,514.943,-397.654,0,0
213313.675,518.79,-406.217,0,0
213574.0,522.342,-414.418,0,0
213834.325,525.988,-422.377,0,0
214094.65,529.876,-430.441,0,0
214354.975,533.965,-439.053,0,0
214615.3,537.807,-448.751,0,0
214875.625,540.353,-459.123,0,0
215135.95,541.667,-469.162,0,0
215396.275,542.374,-478.786,0,0
215656.6,542.747,-487.977,0,0
215916.925,543.019,-496.872,0,0
216177.25,543.337,-505.596,0,0
216437.575,543.871,-514.628,0,0
216697.9,544.305,-524.479,0,0
216958.225,543.825,-535.267,0,0
217218.55,541.903,-546.454,0,0
217478.875,538.493,-557.266,0,0
217739.2,534.081,-567.362,0,0
217999.525,528.985,-576.629,0,0
218259.85,523.719,-585.318,0,0
218520,518.006,-593.876,0,0
218780,511.461,-602.332,0,0
219041,503.764,-610.314,0,0
219301,494.688,-617.371,0,0
219561,484.699,-622.55,0,0
219822,474.67,-625.875,0,0
220082,465.021,-627.606,0,0
220342,456.037,-627.933,0,0
220603,448.136,-627.087,0,0
220863,441.359,-625.796,0,0
221123,435.463,-624.227,0,0
221384,430.147,-622.497,0,0
221644,425.443,-620.629,0,0
221904,421.287,-618.542,0,0
222165,417.697,-616.36,0,0
222425,414.754,-613.977,0,0
222685,412.681,-611.621,0,0
222946,411.282,-609.781,0,0
223206,410.036,-608.495,0,0
223466,408.743,-607.41,0,0
223727,407.626,-606.417,0,0
223987,406.652,-605.581,0,0
224247,405.729,-604.939,0,0
224508,404.753,-604.369,0,0
224768,403.689,-603.739,0,0
225028,402.605,-602.946,0,0
225289,401.545,-601.869,0,0
225549,400.892,-600.257,0,0
225809,401.025,-598.34,0,0
226070,402.01,-596.739,0,0
226330,403.619,-595.682,0,0
226590,405.489,-595.218,0,0
226851,407.547,-595.389,0,0
227111,409.449,-596.001,0,0
227371,411.367,-596.85,0,0
227632,413.297,-598.024,0,0
227892,415.249,-599.463,0,0
228152,417.284,-601.217,0,0
228413,419.279,-603.332,0,0
228673,421.349,-605.852,0,0
228933,423.388,-608.795,0,0
229193,425.272,-612.406,0,0
229454,426.566,-616.498,0,0
229714,427.199,-620.793,0,0
229974,427.39,-624.587,0,0
230235,427.898,-628.225,0,0
230495,428.933,-632.36,0,0
230755,429.741,-637.555,0,0
231016,429.515,-643.442,0,0
231276,428.162,-649.102,0,0
231536,426.476,-654.18,0,0
231797,424.767,-659.049,0,0
232057,422.939,-663.969,0,0
232317,421.129,-668.881,0,0
232578,419.397,-674.164,0,0
232838,417.351,-680.133,0,0
233098,414.448,-686.58,0,0
233359,410.648,-693.115,0,0
233619,406.136,-699.673,0,0
233879,400.442,-706.516,0,0
234140,393.164,-712.903,0,0
234400,384.64,-717.895,0,0
234660.3,375.623,-721.331,0,0
234920.625,366.595,-723.489,0,0
235180.95,357.807,-724.872,0,0
235441.275,348.857,-725.184,0,0
235701.6,340.351,-724.153,0,0
235961.925,332.775,-722.203,0,0
236222.25,326.159,-719.831,0,0
236482.575,320.29,-717.504,0,0
236742.9,314.913,-715.098,0,0
237003.225,310.267,-712.732,0,0
237263.55,305.958,-711.015,0,0
237523.875,301.155,-709.736,0,0
237784.2,295.878,-708.051,0,0
238044.525,290.444,-705.82,0,0
238304.85,285.128,-702.902,0,0
238565.175,280.145,-699.275,0,0
238825.5,275.766,-695.036,0,0
239085.825,272.314,-690.4,0,0
239346.15,269.811,-685.768,0,0
239606.475,268.206,-681.388,0,0
239866.8,267.381,-677.432,0,0
240127.125,267.205,-674.257,0,0
240387.45,267.425,-671.976,0,0
240647.775,267.664,-670.923,0,0
240908.1,266.955,-670.812,0,0
241168.425,265.221,-670.884,0,0
241428.75,262.776,-670.536,0,0
241689.075,260.086,-669.848,0,0
241949.4,257.34,-668.983,0,0
242209.725,254.151,-668.146,0,0
242470.05,250.231,-666.903,0,0
242730.375,245.919,-664.486,0,0
242990.7,242.146,-660.915,0,0
243251.025,239.397,-656.811,0,0
243511.35,237.433,-652.817,0,0
243771.675,235.786,-649.016,0,0
244032.0,234.382,-645.07,0,0
244292.325,233.539,-640.903,0,0
244552.65,233.495,-636.763,0,0
244812.975,234.208,-633.108,0,0
245073.3,235.426,-630.337,0,0
245333.625,236.681,-628.396,0,0
245593.95,237.647,-627.173,0,0
245854.275,238.127,-626.479,0,0
246114.6,237.938,-626.049,0,0
246374.925,237.15,-625.415,0,0
246635.25,236.141,-624.486,0,0
246895.575,235.04,-623.376,0,0
247155.9,233.75,-622.235,0,0
247416.225,232.176,-620.79,0,0
247676.55,230.616,-618.869,0,0
247936.875,229.204,-616.705,0,0
248197.2,227.996,-614.266,0,0
248457.525,226.975,-611.695,0,0
248717.85,226.19,-609.108,0,0
248978.175,225.53,-606.404,0,0
249238.5,225.015,-603.72,0,0
249498.825,224.626,-600.889,0,0
249759.15,224.45,-597.993,0,0
250019.475,224.546,-594.963,0,0
250279.8,224.845,-591.917,0,0
250540,225.409,-588.996,0,0
250800,226.163,-586.046,0,0
251061,227.166,-583.15,0,0
251321,228.415,-580.276,0,0
251581,229.962,-577.48,0,0
251842,231.801,-574.85,0,0
252102,233.895,-572.343,0,0
252362,236.302,-570.054,0,0
252623,239.026,-568.088,0,0
252883,241.947,-566.476,0,0
253143,245.076,-565.201,0,0
253404,248.419,-564.469,0,0
253664,251.727,-564.302,0,0
253924,254.895,-564.639,0,0
254185,257.885,-565.404,0,0
254445,260.594,-566.661,0,0
254705,262.924,-568.191,0,0
254966,264.861,-569.985,0,0
255226,266.424,-571.822,0,0
255486,267.72,-573.809,0,0
255747,268.618,-575.889,0,0
256007,269.112,-578.063,0,0
256267,269.177,-580.1,0,0
256528,268.942,-581.916,0,0
256788,268.595,-583.579,0,0
257048,268.003,-585.16,0,0
257309,267.132,-586.597,0,0
257569,266.034,-587.674,0,0
257829,264.871,-588.416,0,0
258090,263.79,-588.851,0,0
258350,262.764,-589.029,0,0
258610,261.974,-588.974,0,0
258871,261.499,-588.786,0,0
259131,261.396,-588.824,0,0
259391,261.313,-589.229,0,0
259651,260.989,-589.887,0,0
259912,260.341,-590.6,0,0
260172,259.406,-591.124,0,0
260432,258.276,-591.346,0,0
260693,257.237,-591.26,0,0
260953,256.33,-591.042,0,0
261213,255.434,-590.708,0,0
261474,254.613,-590.202,0,0
261734,253.941,-589.535,0,0
261994,253.36,-588.728,0,0
262255,252.974,-587.811,0,0
262515,252.883,-586.658,0,0
262775,253.191,-585.48,0,0
263036,253.961,-584.396,0,0
263296,255.16,-583.655,0,0
263556,256.628,-583.395,0,0
263817,258.072,-583.664,0,0
264077,259.418,-584.318,0,0
264337,260.579,-585.387,0,0
264598,261.421,-586.789,0,0
264858,261.772,-588.322,0,0
265118,261.665,-589.769,0,0
265379,261.304,-590.93,0,0
265639,260.984,-591.761,0,0
265899,260.843,-592.594,0,0
266160,260.664,-593.381,0,0
266420,260.572,-594.187,0,0
266680.25,260.556,-595.131,0,0
266940.575,260.531,-596.215,0,0
267200.9,260.414,-597.426,0,0
267461.225,260.225,-598.777,0,0
267721.55,259.821,-600.277,0,0
267981.875,259.229,-601.904,0,0
268242.2,258.216,-603.532,0,0
268502.525,256.847,-605.008,0,0
268762.85,255.257,-606.18,0,0
269023.175,253.484,-606.866,0,0
269283.5,251.83,-607.245,0,0
269543.825,250.336,-607.324,0,0
269804.15,249.023,-607.172,0,0
270064.475,248.055,-606.9,0,0
270324.8,247.221,-606.445,0,0
270585.125,246.701,-605.887,0,0
270845.45,246.708,-605.199,0,0
271105.775,247.189,-604.673,0,0
271366.1,248.131,-604.483,0,0
271626.425,249.485,-604.694,0,0
271886.75,251.221,-605.448,0,0
272147.075,253.206,-606.857,0,0
272407.4,255.34,-609.14,0,0
272667.725,257.32,-612.53,0,0
272928.05,258.653,-616.964,0,0
273188.375,259.012,-622.121,0,0
273448.7,258.384,-627.694,0,0
273709.025,256.597,-633.508,0,0
273969.35,253.647,-639.216,0,0
274229.675,249.623,-644.54,0,0
274490.0,244.72,-649.258,0,0
274750.325,239.247,-653.161,0,0
275010.65,233.48,-656.607,0,0
275270.975,227.232,-659.567,0,0
275531.3,220.377,-661.968,0,0
275791.625,213.014,-663.42,0,0
276051.95,205.475,-663.85,0,0
276312.275,197.991,-663.323,0,0
276572.6,190.808,-661.918,0,0
276832.925,183.963,-659.868,0,0
277093.25,177.44,-657.262,0,0
277353.575,171.221,-654.07,0,0
277613.9,165.442,-650.255,0,0
277874.225,160.268,-645.95,0,0
278134.55,155.748,-641.284,0,0
278394.875,151.872,-636.482,0,0
278655.2,148.612,-631.559,0,0
278915.525,145.881,-626.686,0,0
279175.85,143.701,-621.914,0,0
279436.175,141.857,-617.321,0,0
279696.5,140.383,-612.873,0,0
279956.825,139.194,-608.512,0,0
280217.15,138.295,-604.322,0,0
280477.475,137.684,-600.26,0,0
280737.8,137.386,-596.425,0,0
280998.125,137.318,-592.892,0,0
281258.45,137.421,-589.755,0,0
281518.775,137.468,-587.026,0,0
281779.1,137.283,-584.582,0,0
282039.425,136.809,-582.191,0,0
282299.75,136.153,-579.699,0,0
282560,135.411,-577.066,0,0
282820,134.625,-574.294,0,0
283081,133.861,-571.287,0,0
283341,133.219,-568.073,0,0
283601,132.804,-564.674,0,0
283862,132.655,-561.168,0,0
284122,132.822,-557.587,0,0
284382,133.338,-554.02,0,0
284643,134.14,-550.635,0,0
284903,135.189,-547.368,0,0
285163,136.486,-544.282,0,0
285424,138.022,-541.368,0,0
285684,139.778,-538.782,0,0
285944,141.648,-536.558,0,0
286205,143.465,-534.676,0,0
286465,145.232,-532.985,0,0
286725,146.981,-531.54,0,0
286986,148.681,-530.357,0,0
287246,150.26,-529.424,0,0
287506,151.668,-528.738,0,0
287767,152.795,-528.237,0,0
288027,153.582,-527.825,0,0
288287,154.061,-527.342,0,0
288548,154.293,-526.706,0,0
288808,154.373,-525.87,0,0
289068,154.375,-524.819,0,0
289329,154.356,-523.562,0,0
289589,154.404,-522.119,0,0
289849,154.512,-520.548,0,0
290109,154.726,-518.806,0,0
290370,155.022,-516.981,0,0
290630,155.491,-515.007,0,0
290890,156.209,-512.956,0,0
291151,157.136,-510.961,0,0
291411,158.278,-509.069,0,0
291671,159.506,-507.327,0,0
291932,160.766,-505.724,0,0
292192,162.018,-504.195,0,0
292452,163.234,-502.668,0,0
292713,164.495,-501.112,0,0
292973,165.883,-499.513,0,0
293233,167.409,-497.957,0,0
293494,169.029,-496.532,0,0
293754,170.675,-495.173,0,0
294014,172.374,-493.885,0,0
294275,174.106,-492.656,0,0
294535,175.824,-491.475,0,0
294795,177.579,-490.318,0,0
295056,179.378,-489.114,0,0
295316,181.301,-487.876,0,0
295576,183.366,-486.671,0,0
295837,185.602,-485.541,0,0
296097,187.942,-484.527,0,0
296357,190.355,-483.629,0,0
296618,192.861,-482.799,0,0
296878,195.491,-482.074,0,0
297138,198.237,-481.471,0,0
297399,201.06,-481.014,0,0
297659,203.983,-480.687,0,0
297919,206.988,-480.534,0,0
298180,210.074,-480.533,0,0
298440,213.181,-480.74,0,0
298700.2,216.345,-481.117,0,0
298960.525,219.465,-481.654,0,0
299220.85,222.64,-482.321,0,0
299481.175,225.923,-483.077,0,0
299741.5,229.215,-483.973,0,0
300001.825,232.752,-485.039,0,0
300262.15,236.385,-486.401,0,0
300522.475,240.083,-488.032,0,0
300782.8,243.764,-490.091,0,0
301043.125,247.496,-492.275,0,0
301303.45,251.268,-494.782,0,0
301563.775,255.333,-497.678,0,0
301824.1,259.315,-501.19,0,0
302084.425,263.284,-505.306,0,0
302344.75,267.087,-510.105,0,0
302605.075,270.514,-515.674,0,0
302865.4,273.384,-521.908,0,0
303125.725,275.4,-528.772,0,0
303386.05,276.439,-536.012,0,0
303646.375,276.421,-543.295,0,0
303906.7,275.467,-550.383,0,0
304167.025,273.729,-557.083,0,0
304427.35,271.323,-563.364,0,0
304687.675,268.449,-569.079,0,0
304948.0,265.27,-574.292,0,0
305208.325,261.918,-579.051,0,0
305468.65,258.483,-583.532,0,0
305728.975,254.91,-587.823,0,0
305989.3,251.057,-591.881,0,0
306249.625,246.932,-595.673,0,0
306509.95,242.546,-599.102,0,0
306770.275,237.972,-602.143,0,0
307030.6,233.3,-604.778,0,0
307290.925,228.526,-607.04,0,0
307551.25,223.771,-608.918,0,0
307811.575,219.042,-610.464,0,0
308071.9,214.298,-611.725,0,0
308332.225,209.556,-612.726,0,0
308592.55,204.845,-613.417,0,0
308852.875,200.159,-613.783,0,0
309113.2,195.547,-613.873,0,0
309373.525,191.017,-613.586,0,0
309633.85,186.701,-613.011,0,0
309894.175,182.594,-612.138,0,0
310154.5,178.697,-611.077,0,0
310414.825,175.119,-609.899,0,0
310675.15,171.785,-608.636,0,0
310935.475,168.639,-607.364,0,0
311195.8,165.647,-606.09,0,0
311456.125,162.768,-604.777,0,0
311716.45,160.022,-603.446,0,0
311976.775,157.386,-602.119,0,0
312237.1,154.861,-600.778,0,0
312497.425,152.428,-599.451,0,0
312757.75,150.016,-598.136,0,0
313018.075,147.66,-596.818,0,0
313278.4,145.283,-595.473,0,0
313538.725,142.939,-594.078,0,0
313799.05,140.584,-592.581,0,0
314059.375,138.285,-590.953,0,0
314319.7,136.083,-589.226,0,0
314580,133.953,-587.391,0,0
314840,131.972,-585.48,0,0
315101,130.125,-583.45,0,0
315361,128.455,-581.415,0,0
315621,126.953,-579.364,0,0
315882,125.591,-577.295,0,0
316142,124.382,-575.254,0,0
316402,123.278,-573.269,0,0
316663,122.358,-571.329,0,0
316923,121.537,-569.461,0,0
317183,120.777,-567.71,0,0
317444,120.068,-566.039,0,0
317704,119.376,-564.433,0,0
317964,118.72,-562.886,0,0
318225,118.07,-561.337,0,0
318485,117.469,-559.841,0,0
318745,116.865,-558.356,0,0
319006,116.323,-556.861,0,0
319266,115.861,-555.382,0,0
319526,115.459,-553.95,0,0
319787,115.117,-552.567,0,0
320047,114.874,-551.285,0,0
320307,114.624,-550.087,0,0
320567,114.373,-548.955,0,0
320828,114.102,-547.902,0,0
321088,113.829,-546.898,0,0
321348,113.509,-545.934,0,0
321609,113.187,-544.997,0,0
321869,112.834,-544.034,0,0
322129,112.481,-543.103,0,0
322390,112.158,-542.17,0,0
322650,111.845,-541.264,0,0
322910,111.526,-540.395,0,0
323171,111.208,-539.532,0,0
323431,110.881,-538.679,0,0
323691,110.582,-537.835,0,0
323952,110.278,-537.033,0,0
324212,109.969,-536.267,0,0
324472,109.652,-535.515,0,0
324733,109.318,-534.758,0,0
324993,108.955,-534,0,0
325253,108.613,-533.212,0,0
325514,108.297,-532.395,0,0
325774,108.054,-531.579,0,0
326034,107.865,-530.808,0,0
326295,107.727,-530.1,0,0
326555,107.621,-529.467,0,0
326815,107.509,-528.899,0,0
327076,107.393,-528.422,0,0
327336,107.245,-528.015,0,0
327596,107.052,-527.681,0,0
327857,106.8,-527.404,0,0
328117,106.443,-527.175,0,0
328377,106.025,-526.948,0,0
328638,105.523,-526.701,0,0
328898,104.969,-526.411,0,0
329158,104.406,-526.088,0,0
329419,103.837,-525.765,0,0
329679,103.259,-525.432,0,0
329939,102.669,-525.114,0,0
330200,102.051,-524.808,0,0
330460,101.385,-524.499,0,0
330720.15,100.681,-524.238,0,0
330980.475,99.9981,-523.875,0,0
331240.8,99.2528,-523.627,0,0
331501.125,98.4502,-523.323,0,0
331761.45,97.5784,-523.037,0,0
332021.775,96.6334,-522.759,0,0
332282.1,95.6608,-522.344,0,0
332542.425,94.6418,-522.034,0,0
332802.75,93.5476,-521.566,0,0
333063.075,92.4371,-521.048,0,0
333323.4,91.2183,-520.429,0,0
333583.725,90.0843,-519.715,0,0
333844.05,89.0094,-519.041,0,0
334104.375,87.8956,-518.245,0,0
334364.7,86.7881,-517.405,0,0
334625.025,85.6857,-516.498,0,0
334885.35,84.6472,-515.587,0,0
335145.675,83.5498,-514.56,0,0
335406.0,82.6086,-513.603,0,0
335666.325,81.6479,-512.654,0,0
335926.65,80.6607,-511.659,0,0
336186.975,79.7195,-510.599,0,0
336447.3,78.7019,-509.575,0,0
336707.625,77.6804,-508.399,0,0
336967.95,76.7538,-507.156,0,0
337228.275,75.876,-505.98,0,0
337488.6,75.0022,-504.748,0,0
337748.925,74.1127,-503.378,0,0
338009.25,73.3774,-502.035,0,0
338269.575,72.6406,-500.748,0,0
338529.9,72.0266,-499.347,0,0
338790.225,71.3793,-498.049,0,0
339050.55,70.757,-496.752,0,0
339310.875,70.208,-495.411,0,0
339571.2,69.6603,-494.092,0,0
339831.525,69.1265,-492.722,0,0
340091.85,68.609,-491.434,0,0
340352.175,68.1227,-490.058,0,0
340612.5,67.6022,-488.732,0,0
340872.825,67.152,-487.415,0,0
341133.15,66.7365,-486.025,0,0
341393.475,66.2644,-484.645,0,0
341653.8,65.9028,-483.162,0,0
341914.125,65.5662,-481.752,0,0
342174.45,65.3176,-480.364,0,0
342434.775,65.0639,-478.877,0,0
342695.1,64.9025,-477.412,0,0
342955.425,64.7662,-476.02,0,0
343215.75,64.64,-474.677,0,0
343476.075,64.5654,-473.208,0,0
343736.4,64.5309,-471.821,0,0
343996.725,64.5871,-470.453,0,0
344257.05,64.648,-469.055,0,0
344517.375,64.7866,-467.804,0,0
344777.7,64.9619,-466.547,0,0
345038.025,65.1832,-465.381,0,0
345298.35,65.4148,-464.278,0,0
345558.675,65.6841,-463.188,0,0
345819.0,65.9315,-462.24,0,0
346079.325,66.2137,-461.31,0,0
346339.65,66.3899,-460.492,0,0
346599.975,66.4827,-459.692,0,0
346860,66.6295,-458.987,0,0
347121,66.6474,-458.261,0,0
347381,66.6326,-457.568,0,0
347641,66.5221,-456.853,0,0
347902,66.3544,-456.132,0,0
348162,66.1574,-455.406,0,0
348422,65.8592,-454.647,0,0
348683,65.5318,-453.778,0,0
348943,65.2193,-452.825,0,0
349203,64.9246,-451.812,0,0
349464,64.6133,-450.784,0,0
349724,64.4204,-449.703,0,0
349984,64.1686,-448.545,0,0
350245,63.9839,-447.442,0,0
350505,63.798,-446.326,0,0
350765,63.6006,-445.175,0,0
351025,63.4305,-443.964,0,0
351286,63.2958,-442.731,0,0
351546,63.2242,-441.373,0,0
351806,63.2133,-439.983,0,0
352067,63.3203,-438.689,0,0
352327,63.436,-437.305,0,0
352587,63.6897,-436.023,0,0
352848,64.0236,-434.709,0,0
353108,64.3805,-433.485,0,0
353368,64.7456,-432.301,0,0
353629,65.1533,-431.098,0,0
353889,65.6735,-430.034,0,0
354149,66.1968,-429.002,0,0
354410,66.7494,-428.084,0,0
354670,67.2241,-427.154,0,0
354930,67.7421,-426.377,0,0
355191,68.2625,-425.59,0,0
355451,68.7949,-424.849,0,0
355711,69.2919,-424.233,0,0
355972,69.767,-423.636,0,0
356232,70.1482,-423.168,0,0
356492,70.4746,-422.737,0,0
356753,70.6597,-422.318,0,0
357013,70.8257,-421.869,0,0
357273,70.9033,-421.435,0,0
357534,70.8597,-420.989,0,0
357794,70.7799,-420.54,0,0
358054,70.648,-420.008,0,0
358315,70.4308,-419.397,0,0
358575,70.1158,-418.684,0,0
358835,69.8173,-417.814,0,0
359096,69.5939,-416.96,0,0
359356,69.3314,-415.989,0,0
359616,69.1669,-414.91,0,0
359877,69.045,-413.779,0,0
360137,68.9786,-412.637,0,0
360397,69.0005,-411.481,0,0
360658,69.028,-410.248,0,0
360918,69.206,-409.029,0,0
361178,69.3742,-407.853,0,0
361438,69.6297,-406.65,0,0
361699,69.8862,-405.41,0,0
361959,70.2189,-404.185,0,0
362219,70.6417,-403.012,0,0
362480,71.0848,-401.887,0,0
362740.1,71.5962,-400.747,0,0
363000.425,72.1267,-399.683,0,0
363260.75,72.7245,-398.604,0,0
363521.075,73.2954,-397.544,0,0
363781.4,73.9079,-396.542,0,0
364041.725,74.5636,-395.576,0,0
364302.05,75.2422,-394.639,0,0
364562.375,75.9476,-393.719,0,0
364822.7,76.6826,-392.89,0,0
365083.025,77.4567,-392.105,0,0
365343.35,78.2177,-391.325,0,0
365603.675,79.0174,-390.667,0,0
365864.0,79.8021,-390.05,0,0
366124.325,80.5507,-389.461,0,0
366384.65,81.264,-388.967,0,0
366644.975,81.9078,-388.499,0,0
366905.3,82.5307,-388.007,0,0
367165.625,83.1271,-387.538,0,0
367425.95,83.7024,-387.033,0,0
367686.275,84.2778,-386.551,0,0
367946.6,84.8657,-386.046,0,0
368206.925,85.4953,-385.533,0,0
368467.25,86.1465,-385.119,0,0
368727.575,86.7379,-384.718,0,0
368987.9,87.3702,-384.348,0,0
369248.225,88.0167,-383.98,0,0
369508.55,88.6384,-383.728,0,0
369768.875,89.247,-383.507,0,0
370029.2,89.8101,-383.318,0,0
370289.525,90.3198,-383.195,0,0
370549.85,90.7959,-383.084,0,0
370810.175,91.1276,-383.032,0,0
371070.5,91.4054,-382.968,0,0
371330.825,91.5637,-382.903,0,0
371591.15,91.6513,-382.774,0,0
371851.475,91.688,-382.541,0,0
372111.8,91.7344,-382.236,0,0
372372.125,91.7039,-381.862,0,0
372632.45,91.6948,-381.385,0,0
372892.775,91.7146,-380.882,0,0
373153.1,91.7865,-380.327,0,0
373413.425,91.8888,-379.666,0,0
373673.75,92.0743,-379.051,0,0
373934.075,92.3006,-378.375,0,0
374194.4,92.605,-377.766,0,0
374454.725,92.8926,-377.132,0,0
374715.05,93.2666,-376.518,0,0
374975.375,93.642,-375.957,0,0
375235.7,94.0804,-375.397,0,0
375496.025,94.4542,-374.871,0,0
375756.35,94.8589,-374.417,0,0
376016.675,95.2428,-373.962,0,0
376277.0,95.6022,-373.539,0,0
376537.325,95.9797,-373.194,0,0
376797.65,96.2869,-372.792,0,0
377057.975,96.5254,-372.395,0,0
377318.3,96.7256,-372.032,0,0
377578.625,96.907,-371.602,0,0
377838.95,97.0809,-371.066,0,0
378099.275,97.2444,-370.492,0,0
378359.6,97.4556,-369.941,0,0
378619.925,97.7057,-369.284,0,0
378880,97.9797,-368.649,0,0
379141,98.2931,-367.972,0,0
379401,98.6671,-367.328,0,0
379661,99.0508,-366.656,0,0
379922,99.5198,-366.04,0,0
380182,99.994,-365.451,0,0
380442,100.414,-364.931,0,0
380703,100.872,-364.381,0,0
380963,101.275,-363.845,0,0
381223,101.75,-363.308,0,0
381483,102.193,-362.722,0,0
381744,102.65,-362.19,0,0
382004,103.116,-361.645,0,0
382264,103.589,-361.09,0,0
382525,104.105,-360.553,0,0
382785,104.642,-360.042,0,0
383045,105.185,-359.548,0,0
383306,105.721,-359.085,0,0
383566,106.223,-358.665,0,0
383826,106.712,-358.192,0,0
384087,107.16,-357.744,0,0
384347,107.649,-357.265,0,0
384607,108.1,-356.792,0,0
384868,108.662,-356.332,0,0
385128,109.163,-355.852,0,0
385388,109.681,-355.373,0,0
385649,110.195,-354.99,0,0
385909,110.66,-354.541,0,0
386169,111.079,-354.077,0,0
386430,111.551,-353.605,0,0
386690,112.045,-353.061,0,0
386950,112.541,-352.574,0,0
387211,113.092,-352.009,0,0
387471,113.585,-351.505,0,0
387731,114.067,-351,0,0
387992,114.547,-350.435,0,0
388252,115.012,-349.782,0,0
388512,115.511,-349.11,0,0
388773,116.076,-348.355,0,0
389033,116.759,-347.555,0,0
389293,117.517,-346.758,0,0
389554,118.398,-345.959,0,0
389814,119.377,-345.239,0,0
390074,120.422,-344.586,0,0
390335,121.511,-344.059,0,0
390595,122.594,-343.583,0,0
390855,123.666,-343.181,0,0
391116,124.72,-342.801,0,0
391376,125.771,-342.456,0,0
391636,126.799,-342.127,0,0
391896,127.826,-341.844,0,0
392157,128.865,-341.528,0,0
392417,129.932,-341.288,0,0
392677,130.985,-341.061,0,0
392938,132.03,-340.843,0,0
393198,133.093,-340.691,0,0
393458,134.132,-340.554,0,0
393719,135.067,-340.431,0,0
393979,136.038,-340.263,0,0
394239,136.958,-340.059,0,0
394500,137.904,-339.842,0,0
394760.05,138.857,-339.56,0,0
395020.375,139.903,-339.191,0,0
395280.7,140.961,-338.81,0,0
395541.025,142.135,-338.415,0,0
395801.35,143.419,-338.031,0,0
396061.675,144.723,-337.644,0,0
396322.0,146.114,-337.27,0,0
396582.325,147.648,-336.886,0,0
396842.65,149.29,-336.545,0,0
397102.975,151.063,-336.228,0,0
397363.3,152.989,-336.015,0,0
397623.625,155.029,-335.92,0,0
397883.95,157.214,-335.923,0,0
398144.275,159.513,-336.065,0,0
398404.6,161.921,-336.374,0,0
398664.925,164.447,-336.899,0,0
398925.25,167.05,-337.659,0,0
399185.575,169.733,-338.677,0,0
399445.9,172.475,-339.933,0,0
399706.225,175.179,-341.601,0,0
399966.55,177.848,-343.592,0,0
400006.6,178.245,-343.896,0,0