File: Accelerated corrosion test data/2025-10-20_06-00-03/sample_2.csv
Frequency (Hz),Impedance (ohms),Phase (Radians),Temperature (C),Humidity (%)
10000.0,223.485,-11536.9,0,0
10260.325,218.32,-11246.7,0,0
10520.65,212.973,-10970.6,0,0
10780.975,208.396,-10707.1,0,0
11041.3,203.56,-10457.1,0,0
11301.625,199.229,-10217.3,0,0
11561.95,195.899,-9987.05,0,0
11822.275,194.315,-9777.35,0,0
12082.6,188.45,-9564.43,0,0
12342.925,183.762,-9366.13,0,0
12603.25,179.293,-9172.91,0,0
12863.575,176.025,-8986.95,0,0
13123.9,173.739,-8812.27,0,0
13384.225,169.365,-8639.95,0,0
13644.55,167.774,-8472.21,0,0
13904.875,185.579,-8318.48,0,0
14165.2,161.572,-8172.63,0,0
14425.525,159.583,-8021.72,0,0
14685.8,162.524,-7872.86,0,0
14946.175,156.341,-7743.52,0,0
15206.5,162.02,-7623.31,0,0
15466.825,157.168,-7485.79,0,0
15727.15,148.585,-7370.63,0,0
15987.5,146.017,-7248.19,0,0
16247.8,145.508,-7132.81,0,0
16508.125,140.394,-7021.72,0,0
16768.45,138.135,-6912.36,0,0
17028.775,136.567,-6807.1,0,0
17289.1,135.399,-6706.13,0,0
17549.425,132.552,-6605.55,0,0
17809.75,130.021,-6508.37,0,0
18070.075,129.022,-6415.33,0,0
18330.4,127.343,-6323.63,0,0
18590.725,126.251,-6234.34,0,0
18851.05,125.145,-6147.41,0,0
19111.375,126.805,-6065.42,0,0
19371.7,125.993,-5987.95,0,0
19632.025,120.723,-5908.06,0,0
19892.35,118.344,-5829.58,0,0
20152.675,116.992,-5752.87,0,0
20413.0,116.412,-5677.9,0,0
20673.3,115.853,-5604.36,0,0
20933.65,116.61,-5531.97,0,0
21193.975,123.981,-5463.74,0,0
21454.3,131.081,-5402.83,0,0
21714.625,127.157,-5347.58,0,0
21974.9,120.886,-5281.44,0,0
22235.275,117.189,-5226.61,0,0
22495.6,113.159,-5164.97,0,0
22755.925,110.381,-5103.12,0,0
23016.25,111.189,-5048.03,0,0
23276.6,112.305,-4992.86,0,0
23536.9,107.205,-4937.8,0,0
23797.225,105.902,-4882.57,0,0
24057.55,105.33,-4830.9,0,0
24317.875,101.611,-4779.76,0,0
24578.2,100.015,-4727.79,0,0
24838.525,98.6544,-4677.85,0,0
25098.85,98.1082,-4627.49,0,0
25359.175,96.6101,-4580.16,0,0
25619.5,96.1631,-4533.32,0,0
25879.8,94.9902,-4486.84,0,0
26140.1,95.3959,-4441.47,0,0
26400.5,94.747,-4398.14,0,0
26660.8,94.6311,-4355.49,0,0
26921.1,93.6548,-4312.87,0,0
27181.4,92.5036,-4272.8,0,0
27441.8,90.4363,-4232.39,0,0
27702.1,89.5059,-4191.24,0,0
27962.4,89.0601,-4150.24,0,0
28222.7,88.8345,-4111.44,0,0
28483.1,88.7513,-4073.84,0,0
28743.4,88.302,-4035.1,0,0
29003.7,90.1465,-3998.19,0,0
29264,90.2323,-3961.72,0,0
29524.4,93.3423,-3925.87,0,0
29784.7,98.1128,-3896.38,0,0
30045,92.6031,-3867.47,0,0
30305.3,93.4247,-3832.04,0,0
30565.7,89.9191,-3804.47,0,0
30826,87.0987,-3770.72,0,0
31086.3,86.0056,-3738.94,0,0
31346.6,84.2652,-3707.32,0,0
31607,84.784,-3675.9,0,0
31867.3,82.2701,-3646.51,0,0
32127.6,81.3249,-3615.54,0,0
32387.9,81.6565,-3584.79,0,0
32648.3,83.3586,-3557.53,0,0
32908.6,82.818,-3530.88,0,0
33168.9,81.0668,-3503.44,0,0
33429.2,79.1066,-3476.22,0,0
33689.6,78.7939,-3449,0,0
33949.9,77.8713,-3422.47,0,0
34210.2,76.3267,-3396.46,0,0
34470.5,75.5036,-3369.72,0,0
34730.9,74.9686,-3343.94,0,0
34991.2,74.4481,-3318.55,0,0
35251.5,74.0665,-3293.77,0,0
35511.8,73.443,-3269.15,0,0
35772.2,73.0514,-3245.03,0,0
36032.5,72.3846,-3221.48,0,0
36292.8,71.7837,-3197.58,0,0
36553.1,71.2236,-3174.59,0,0
36813.5,70.9022,-3151.55,0,0
37073.8,70.3974,-3129.06,0,0
37334.1,70.2041,-3106.78,0,0
37594.4,69.8514,-3085.09,0,0
37854.8,69.8719,-3063.39,0,0
38115.1,69.4212,-3042.7,0,0
38375.4,68.5275,-3021.63,0,0
38635.7,68.3187,-3000.77,0,0
38896.1,67.9956,-2980.12,0,0
39156.4,67.3843,-2960.15,0,0
39416.7,67.1388,-2940.11,0,0
39677,66.7525,-2920.54,0,0
39937.4,66.314,-2901,0,0
40197.7,65.982,-2881.8,0,0
40458,65.6255,-2862.66,0,0
40718.3,65.7037,-2843.8,0,0
40978.7,65.5906,-2825.38,0,0
41239,65.0099,-2807.33,0,0
41499.3,65.0436,-2789.2,0,0
41759.6,64.6137,-2771.45,0,0
42020,64.5055,-2753.89,0,0
42280.275,64.5448,-2736.69,0,0
42540.6,64.0592,-2719.85,0,0
42800.925,63.6885,-2703.18,0,0
43061.25,63.3143,-2686.33,0,0
43321.575,63.0109,-2669.66,0,0
43581.9,62.9382,-2653.26,0,0
43842.225,62.6274,-2637.05,0,0
44102.55,62.3779,-2621.11,0,0
44362.875,62.5417,-2605.55,0,0
44623.2,61.9547,-2590.2,0,0
44883.525,61.5145,-2574.41,0,0
45143.85,61.3235,-2558.66,0,0
45404.175,61.4824,-2544.11,0,0
45664.5,61.0343,-2528.99,0,0
45924.825,61.3669,-2513.83,0,0
46185.15,61.4113,-2500.05,0,0
46445.475,60.7108,-2485.86,0,0
46705.8,60.4118,-2471.34,0,0
46966.125,60.4381,-2457.04,0,0
47226.45,60.5134,-2442.75,0,0
47486.775,60.5304,-2429.25,0,0
47747.1,60.0736,-2415.69,0,0
48007.425,60.1824,-2401.97,0,0
48267.75,60.7387,-2388.01,0,0
48528.075,61.4097,-2376.36,0,0
48788.4,60.6531,-2364,0,0
49048.725,60.1235,-2351.64,0,0
49309.05,59.3142,-2339.05,0,0
49569.375,58.5607,-2326.23,0,0
49829.7,58.1516,-2313.48,0,0
50090.025,58.0143,-2300.89,0,0
50350.35,57.3529,-2288.73,0,0
50610.675,57.1302,-2276.13,0,0
50871.0,57.3079,-2264.18,0,0
51131.325,56.9559,-2252.44,0,0
51391.65,56.6753,-2240.67,0,0
51651.975,56.3466,-2229.09,0,0
51912.3,55.6551,-2217.47,0,0
52172.625,55.1202,-2205.63,0,0
52432.95,54.9362,-2193.93,0,0
52693.275,54.8118,-2182.51,0,0
52953.6,54.4398,-2171.19,0,0
53213.925,54.3469,-2159.9,0,0
53474.25,54.3051,-2148.8,0,0
53734.575,54.0977,-2137.89,0,0
53994.9,53.9155,-2126.88,0,0
54255.225,53.9121,-2115.94,0,0
54515.55,53.802,-2105.2,0,0
54775.875,53.8081,-2094.8,0,0
55036.2,53.6006,-2084.3,0,0
55296.525,53.5338,-2073.79,0,0
55556.85,53.4317,-2063.41,0,0
55817.175,53.5128,-2053.28,0,0
56077.5,53.4806,-2043.09,0,0
56337.825,53.4266,-2033.06,0,0
56598.15,53.3844,-2023.12,0,0
56858.475,53.436,-2013.3,0,0
57118.8,53.5689,-2003.55,0,0
57379.125,53.5088,-1993.84,0,0
57639.45,53.5756,-1984.22,0,0
57899.775,53.6236,-1974.82,0,0
58160.1,53.7458,-1965.54,0,0
58420.4,53.4967,-1956.27,0,0
58680.7,53.6001,-1946.71,0,0
58941.1,53.7674,-1937.5,0,0
59201.4,53.9964,-1928.23,0,0
59461.7,54.2331,-1919.13,0,0
59722,54.4704,-1910.14,0,0
59982.4,55.0586,-1901.08,0,0
60242.7,55.9083,-1892.81,0,0
60503,55.9883,-1884.88,0,0
60763.3,55.8744,-1876.41,0,0
61023.7,55.9639,-1867.75,0,0
61284,56.7612,-1859.04,0,0
61544.3,57.9867,-1851.22,0,0
61804.6,58.68,-1844.17,0,0
62065,58.7609,-1837.84,0,0
62325.3,57.6632,-1830.42,0,0
62585.6,57.0449,-1822.45,0,0
62845.9,57.4628,-1815.12,0,0
63106.3,56.3305,-1808.51,0,0
63366.6,55.2321,-1800.15,0,0
63626.9,55.3079,-1792.57,0,0
63887.2,54.4631,-1785.12,0,0
64147.6,54.1279,-1777.55,0,0
64407.9,53.1479,-1770.17,0,0
64668.2,52.5819,-1762.17,0,0
64928.5,51.9925,-1754.73,0,0
65188.9,51.0845,-1746.91,0,0
65449.2,50.555,-1738.58,0,0
65709.5,50.5171,-1730.67,0,0
65969.8,50.5696,-1722.9,0,0
66230.2,50.337,-1715.23,0,0
66490.5,50.5487,-1707.48,0,0
66750.8,50.7109,-1700.17,0,0
67011.1,50.5562,-1692.64,0,0
67271.5,50.8317,-1685.04,0,0
67531.8,51.4742,-1677.59,0,0
67792.1,52.2423,-1670.51,0,0
68052.4,52.9465,-1663.96,0,0
68312.8,53.0535,-1657.74,0,0
68573.1,53.1028,-1650.65,0,0
68833.4,53.7719,-1644.04,0,0
69093.7,54.3298,-1637.81,0,0
69354.1,54.6025,-1631.77,0,0
69614.4,54.8997,-1625.51,0,0
69874.7,55.5358,-1619.8,0,0
70135,55.5613,-1614.67,0,0
70395.4,55.308,-1609.38,0,0
70655.7,54.1164,-1603.99,0,0
70916,53.1227,-1597.76,0,0
71176.3,52.7477,-1591.84,0,0
71436.7,51.7958,-1586.19,0,0
71697,50.9991,-1580.09,0,0
71957.3,49.8801,-1574.22,0,0
72217.6,48.7108,-1567.9,0,0
72478,47.622,-1561.31,0,0
72738.3,46.7772,-1554.63,0,0
72998.6,46.0794,-1547.73,0,0
73258.9,45.7896,-1541.2,0,0
73519.3,45.1775,-1534.62,0,0
73779.6,44.8054,-1527.86,0,0
74039.9,44.5711,-1521.13,0,0
74300.225,44.6296,-1514.55,0,0
74560.55,44.7025,-1508.12,0,0
74820.875,44.7241,-1501.68,0,0
75081.2,44.8819,-1495.32,0,0
75341.525,45.1426,-1488.97,0,0
75601.85,45.3811,-1482.86,0,0
75862.175,45.6745,-1476.67,0,0
76122.5,46.1153,-1470.57,0,0
76382.825,46.6294,-1464.7,0,0
76643.15,47.0401,-1458.87,0,0
76903.475,47.496,-1453.09,0,0
77163.8,47.9984,-1447.31,0,0
77424.125,48.6323,-1441.67,0,0
77684.45,49.4031,-1436.22,0,0
77944.775,50.0389,-1430.94,0,0
78205.1,50.7774,-1425.66,0,0
78465.425,51.7321,-1420.78,0,0
78725.75,52.2323,-1416.31,0,0
78986.075,52.703,-1411.76,0,0
79246.4,52.8307,-1407.28,0,0
79506.725,53.0962,-1402.81,0,0
79767.05,53.1263,-1398.75,0,0
80027.375,52.5868,-1394.63,0,0
80287.7,51.7466,-1390.11,0,0
80548.025,51.0136,-1385.27,0,0
80808.35,50.3008,-1380.36,0,0
81068.675,49.7351,-1375.23,0,0
81329.0,49.2684,-1370.09,0,0
81589.325,48.8865,-1364.97,0,0
81849.65,48.5393,-1359.8,0,0
82109.975,48.1947,-1354.7,0,0
82370.3,47.8988,-1349.51,0,0
82630.625,47.731,-1344.22,0,0
82890.95,47.6961,-1338.97,0,0
83151.275,47.7683,-1333.81,0,0
83411.6,47.855,-1328.71,0,0
83671.925,48.0707,-1323.76,0,0
83932.25,48.2993,-1318.87,0,0
84192.575,48.4104,-1314.09,0,0
84452.9,48.5561,-1309.4,0,0
84713.225,48.601,-1304.75,0,0
84973.55,48.6567,-1299.99,0,0
85233.875,48.6652,-1295.28,0,0
85494.2,48.8247,-1290.45,0,0
85754.525,49.208,-1285.78,0,0
86014.85,49.4492,-1281.34,0,0
86275.175,49.5916,-1276.85,0,0
86535.5,49.6558,-1272.48,0,0
86795.825,49.815,-1267.99,0,0
87056.15,50.0051,-1263.51,0,0
87316.475,50.2223,-1259.23,0,0
87576.8,50.2916,-1255.03,0,0
87837.125,50.2914,-1250.7,0,0
88097.45,50.1739,-1246.39,0,0
88357.775,50.4209,-1241.84,0,0
88618.1,50.7265,-1237.75,0,0
88878.425,50.4691,-1233.65,0,0
89138.75,50.6615,-1228.98,0,0
89399.075,50.9055,-1225.08,0,0
89659.4,50.7568,-1220.78,0,0
89919.725,51.0946,-1216.44,0,0
90180,51.438,-1212.59,0,0
90440.4,51.0494,-1208.79,0,0
90700.7,50.5423,-1204.31,0,0
90961,50.6784,-1199.52,0,0
91221.3,51.3395,-1195.03,0,0
91481.7,51.8521,-1191.02,0,0
91742,52.0643,-1187.05,0,0
92002.3,52.3281,-1182.84,0,0
92262.6,53.0237,-1178.6,0,0
92523,53.6918,-1174.78,0,0
92783.3,54.2927,-1171.15,0,0
93043.6,54.6699,-1167.67,0,0
93303.9,54.9344,-1164.2,0,0
93564.3,55.3129,-1160.67,0,0
93824.6,55.8641,-1157.35,0,0
94084.9,55.8746,-1154.47,0,0
94345.2,55.3572,-1151.28,0,0
94605.6,54.9675,-1147.65,0,0
94865.9,54.8229,-1144.12,0,0
95126.2,54.2337,-1140.67,0,0
95386.5,53.5819,-1136.56,0,0
95646.9,53.3686,-1132.17,0,0
95907.2,53.637,-1127.64,0,0
96167.5,54.5823,-1123.59,0,0
96427.8,55.449,-1120.1,0,0
96688.2,55.8957,-1116.96,0,0
96948.5,56.2062,-1113.53,0,0
97208.8,56.953,-1110.29,0,0
97469.1,57.5723,-1107.73,0,0
97729.5,57.2838,-1105.35,0,0
97989.8,56.7876,-1102.29,0,0
98250.1,56.6888,-1099,0,0
98510.4,56.5911,-1096.16,0,0
98770.8,56.2155,-1093.32,0,0
99031.1,55.7798,-1090.49,0,0
99291.4,55.0045,-1087.69,0,0
99551.7,53.8625,-1084.54,0,0
99812.1,52.8243,-1080.79,0,0
100072,52.4413,-1076.89,0,0
100333,52.284,-1073.39,0,0
100593,51.9171,-1070.19,0,0
100853,51.1899,-1067.14,0,0
101114,50.3125,-1063.67,0,0
101374,49.3115,-1060.27,0,0
101634,48.0711,-1056.32,0,0
101895,47.303,-1051.84,0,0
102155,47.0855,-1047.54,0,0
102415,46.9246,-1043.58,0,0
102676,46.5339,-1039.8,0,0
102936,45.939,-1035.63,0,0
103196,45.6376,-1031.28,0,0
103457,45.5742,-1026.77,0,0
103717,45.789,-1022.42,0,0
103977,46.0711,-1018.12,0,0
104238,46.5891,-1013.8,0,0
104498,47.3527,-1009.71,0,0
104758,48.124,-1005.78,0,0
105019,48.9983,-1002.14,0,0
105279,49.5773,-998.597,0,0
105539,50.2885,-994.798,0,0
105800,51.3206,-991.265,0,0
106060,52.2547,-987.831,0,0
106320.175,53.4166,-984.475,0,0
106580.5,54.7182,-981.578,0,0
106840.825,55.7794,-979.015,0,0
107101.15,56.6966,-976.511,0,0
107361.475,57.5958,-974.381,0,0
107621.8,57.9016,-972.604,0,0
107882.125,57.8268,-970.394,0,0
108142.45,57.6191,-968.308,0,0
108402.775,57.1243,-965.836,0,0
108663.1,56.9834,-963.216,0,0
108923.425,56.5604,-960.982,0,0
109183.75,55.6667,-958.432,0,0
109444.075,54.8778,-955.414,0,0
109704.4,54.3605,-952.459,0,0
109964.725,53.5341,-949.47,0,0
110225.05,52.7149,-946.146,0,0
110485.375,52.038,-942.567,0,0
110745.7,51.6388,-938.943,0,0
111006.025,51.3238,-935.305,0,0
111266.35,51.0795,-931.744,0,0
111526.675,50.9628,-928.158,0,0
111787.0,51.0113,-924.621,0,0
112047.325,51.0474,-921.023,0,0
112307.65,51.1608,-917.684,0,0
112567.975,51.0607,-914.237,0,0
112828.3,51.1481,-910.723,0,0
113088.625,51.2372,-907.21,0,0
113348.95,51.4545,-903.575,0,0
113609.275,51.7893,-900.16,0,0
113869.6,52.045,-896.75,0,0
114129.925,52.3353,-893.325,0,0
114390.25,52.7004,-889.875,0,0
114650.575,53.085,-886.414,0,0
114910.9,53.5682,-883.037,0,0
115171.225,54.1021,-879.72,0,0
115431.55,54.7045,-876.526,0,0
115691.875,55.1404,-873.387,0,0
115952.2,55.5963,-870.151,0,0
116212.525,56.0996,-866.861,0,0
116472.85,56.7011,-863.638,0,0
116733.175,57.3769,-860.42,0,0
116993.5,58.0637,-857.318,0,0
117253.825,58.7392,-854.259,0,0
117514.15,59.4141,-851.121,0,0
117774.475,60.2923,-848.064,0,0
118034.8,61.23,-845.206,0,0
118295.125,61.9597,-842.482,0,0
118555.45,62.6852,-839.585,0,0
118815.775,63.5977,-836.719,0,0
119076.1,64.6515,-834.12,0,0
119336.425,65.4262,-831.668,0,0
119596.75,66.2493,-829.184,0,0
119857.075,67.1163,-826.802,0,0
120117.4,67.9808,-824.632,0,0
120377.725,68.6148,-822.621,0,0
120638.05,69.1031,-820.56,0,0
120898.375,69.4991,-818.64,0,0
121158.7,69.4678,-816.693,0,0
121419.025,69.4667,-814.373,0,0
121679.35,69.513,-812.124,0,0
121939.675,69.4378,-809.756,0,0
122200.0,69.3952,-807.327,0,0
122460,69.3168,-804.855,0,0
122721,69.2288,-802.25,0,0
122981,69.2435,-799.588,0,0
123241,69.2839,-796.872,0,0
123502,69.4708,-794.184,0,0
123762,69.6594,-791.611,0,0
124022,69.7473,-789.093,0,0
124283,69.7622,-786.527,0,0
124543,69.7593,-783.908,0,0
124803,69.7478,-781.303,0,0
125064,69.7301,-778.58,0,0
125324,69.6552,-775.864,0,0
125584,69.6049,-772.97,0,0
125845,69.6443,-770.068,0,0
126105,69.7358,-767.191,0,0
126365,69.7628,-764.266,0,0
126626,69.8114,-761.228,0,0
126886,70.0005,-758.083,0,0
127146,70.3477,-754.972,0,0
127406,70.7695,-751.914,0,0
127667,71.1856,-748.91,0,0
127927,71.6399,-745.884,0,0
128187,72.126,-742.887,0,0
128448,72.7175,-739.87,0,0
128708,73.3613,-736.882,0,0
128968,74.1,-733.937,0,0
129229,74.8598,-731.102,0,0
129489,75.6064,-728.333,0,0
129749,76.3355,-725.556,0,0
130010,77.1498,-722.725,0,0
130270,78.1377,-719.986,0,0
130530,79.1856,-717.45,0,0
130791,80.1965,-715.094,0,0
131051,81.0714,-712.924,0,0
131311,81.7891,-710.805,0,0
131572,82.3641,-708.638,0,0
131832,82.8841,-706.45,0,0
132092,83.4075,-704.234,0,0
132353,83.8112,-702.029,0,0
132613,84.159,-699.792,0,0
132873,84.4783,-697.48,0,0
133134,84.7629,-695.168,0,0
133394,85.2031,-692.83,0,0
133654,85.4954,-690.568,0,0
133915,85.7539,-688.308,0,0
134175,85.9048,-686.031,0,0
134435,85.9325,-683.715,0,0
134696,85.8929,-681.217,0,0
134956,85.8486,-678.633,0,0
135216,85.8574,-675.877,0,0
135477,85.9769,-673.06,0,0
135737,86.1466,-670.27,0,0
135997,86.3192,-667.405,0,0
136258,86.5659,-664.466,0,0
136518,86.9292,-661.587,0,0
136778,87.2453,-658.749,0,0
137039,87.5167,-655.793,0,0
137299,87.9746,-652.743,0,0
137559,88.5222,-649.828,0,0
137819,89.071,-646.994,0,0
138080,89.5878,-644.257,0,0
138340.125,89.8746,-641.572,0,0
138600.45,90.0628,-638.694,0,0
138860.775,90.284,-635.631,0,0
139121.1,90.5888,-632.534,0,0
139381.425,90.9414,-629.337,0,0
139641.75,91.2673,-626.156,0,0
139902.075,91.5254,-622.803,0,0
140162.4,91.8868,-619.191,0,0
140422.725,92.5059,-615.461,0,0
140683.05,93.3319,-611.736,0,0
140943.375,94.2705,-608.047,0,0
141203.7,95.284,-604.317,0,0
141464.025,96.5386,-600.466,0,0
141724.35,98.15,-596.752,0,0
141984.675,99.9114,-593.321,0,0
142245.0,101.641,-590.186,0,0
142505.325,103.246,-587.205,0,0
142765.65,104.684,-584.247,0,0
143025.975,106.011,-581.218,0,0
143286.3,107.351,-578.013,0,0
143546.625,108.807,-574.739,0,0
143806.95,110.397,-571.462,0,0
144067.275,112.07,-568.322,0,0
144327.6,113.653,-565.216,0,0
144587.925,115.212,-561.987,0,0
144848.25,116.949,-558.666,0,0
145108.575,118.834,-555.399,0,0
145368.9,120.715,-552.281,0,0
145629.225,122.618,-549.128,0,0
145889.55,124.466,-546.025,0,0
146149.875,126.287,-542.791,0,0
146410.2,128.213,-539.437,0,0
146670.525,130.242,-536.012,0,0
146930.85,132.382,-532.517,0,0
147191.175,134.696,-528.952,0,0
147451.5,137.199,-525.346,0,0
147711.825,139.878,-521.787,0,0
147972.15,142.664,-518.189,0,0
148232.475,145.644,-514.467,0,0
148492.8,148.987,-510.695,0,0
148753.125,152.638,-507.049,0,0
149013.45,156.631,-503.368,0,0
149273.775,161.198,-499.913,0,0
149534.1,166.087,-496.958,0,0
149794.425,171.073,-494.385,0,0
150054.75,176.185,-492.091,0,0
150315.075,181.58,-489.987,0,0
150575.4,187.359,-488.437,0,0
150835.725,193.225,-487.667,0,0
151096.05,198.764,-487.487,0,0
151356.375,204.125,-487.581,0,0
151616.7,209.474,-488.068,0,0
151877.025,214.713,-489.101,0,0
152137.35,219.638,-490.8,0,0
152397.675,223.888,-492.933,0,0
152658.0,227.554,-495.166,0,0
152918.325,230.786,-497.379,0,0
153178.65,233.761,-499.593,0,0
153438.975,236.461,-502.071,0,0
153699.3,238.523,-504.62,0,0
153959.625,240.139,-506.923,0,0
154219.95,241.467,-509.035,0,0
154480,242.581,-510.96,0,0
154741,243.43,-512.565,0,0
155001,244.353,-513.946,0,0
155261,245.295,-515.17,0,0
155522,246.392,-516.415,0,0
155782,247.551,-517.977,0,0
156042,248.066,-519.905,0,0
156303,248.329,-521.44,0,0
156563,248.482,-522.983,0,0
156823,248.462,-524.357,0,0
157084,248.406,-525.752,0,0
157344,247.745,-526.963,0,0
157604,246.934,-527.81,0,0
157864,246.28,-528.28,0,0
158125,245.668,-528.777,0,0
158385,244.772,-529.35,0,0
158645,243.588,-529.445,0,0
158906,242.456,-529.257,0,0
159166,241.424,-528.702,0,0
159426,240.55,-527.743,0,0
159687,239.838,-526.544,0,0
159947,239.637,-525.16,0,0
160207,240.012,-523.971,0,0
160468,240.197,-523.344,0,0
160728,239.936,-522.496,0,0
160988,239.984,-520.994,0,0
161249,240.825,-519.39,0,0
161509,242.436,-518.044,0,0
161769,244.529,-517.598,0,0
162030,246.722,-518.162,0,0
162290,248.501,-519.851,0,0
162550,248.949,-522.191,0,0
162811,248.529,-524.098,0,0
163071,247.64,-526.072,0,0
163331,246,-527.715,0,0
163592,243.931,-528.945,0,0
163852,241.494,-529.449,0,0
164112,239.312,-529.733,0,0
164373,236.748,-529.854,0,0
164633,234.097,-529.897,0,0
164893,231.111,-529.549,0,0
165154,227.646,-528.603,0,0
165414,224.188,-526.776,0,0
165674,221.234,-524.402,0,0
165935,218.789,-521.715,0,0
166195,216.74,-519.036,0,0
166455,214.854,-516.572,0,0
166716,212.845,-514.126,0,0
166976,210.617,-511.305,0,0
167236,208.783,-508.391,0,0
167497,206.619,-505.577,0,0
167757,204.195,-502.007,0,0
168017,202.009,-497.911,0,0
168277,200.316,-493.351,0,0
168538,199.418,-488.563,0,0
168798,199.066,-484.126,0,0
169058,198.614,-479.991,0,0
169319,198.051,-475.788,0,0
169579,197.77,-471.255,0,0
169839,197.764,-466.716,0,0
170100,198.127,-462.273,0,0
170360.075,198.504,-458.003,0,0
170620.4,198.923,-453.882,0,0
170880.725,199.151,-449.569,0,0
171141.05,199.567,-444.899,0,0
171401.375,200.299,-440.164,0,0
171661.7,201.332,-435.547,0,0
171922.025,202.492,-430.772,0,0
172182.35,204.013,-426.086,0,0
172442.675,205.578,-421.681,0,0
172703.0,207.265,-417.135,0,0
172963.325,209.26,-412.812,0,0
173223.65,211.113,-408.736,0,0
173483.975,212.759,-404.522,0,0
173744.3,214.524,-399.979,0,0
174004.625,216.632,-395.42,0,0
174264.95,218.914,-390.846,0,0
174525.275,221.278,-386.199,0,0
174785.6,224.013,-381.36,0,0
175045.925,227.182,-376.569,0,0
175306.25,230.678,-372.108,0,0
175566.575,234.372,-367.825,0,0
175826.9,238.294,-363.833,0,0
176087.225,241.981,-360.147,0,0
176347.55,245.687,-355.973,0,0
176607.875,250.09,-351.815,0,0
176868.2,255.009,-348.078,0,0
177128.525,260.206,-344.864,0,0
177388.85,265.666,-342.324,0,0
177649.175,270.904,-340.556,0,0
177909.5,275.49,-339.251,0,0
178169.825,279.454,-337.754,0,0
178430.15,283.64,-335.763,0,0
178690.475,288.515,-334.037,0,0
178950.8,293.544,-333.379,0,0
179211.125,297.861,-333.498,0,0
179471.45,300.542,-333.094,0,0
179731.775,303.951,-332.715,0,0
179992.1,306.229,-333.008,0,0
180252.425,307.85,-332.512,0,0
180512.75,309.494,-331.488,0,0
180773.075,310.981,-330.414,0,0
181033.4,311.976,-328.874,0,0
181293.725,312.854,-326.586,0,0
181554.05,313.905,-323.559,0,0
181814.375,315.527,-320.082,0,0
182074.7,317.64,-316.333,0,0
182335.025,320.138,-312.697,0,0
182595.35,322.673,-309.279,0,0
182855.675,324.882,-305.585,0,0
183116.0,327.502,-301.087,0,0
183376.325,330.72,-296.371,0,0
183636.65,334.489,-291.658,0,0
183896.975,338.823,-286.903,0,0
184157.3,343.524,-282.196,0,0
184417.625,348.723,-277.79,0,0
184677.95,354.342,-273.708,0,0
184938.275,360.152,-270.127,0,0
185198.6,365.875,-266.815,0,0
185458.925,371.555,-263.668,0,0
185719.25,377.273,-260.479,0,0
185979.575,383.021,-257.308,0,0
186239.9,388.951,-254.027,0,0
186500,395.262,-250.943,0,0
186761,401.442,-248.039,0,0
187021,407.558,-244.568,0,0
187281,414.694,-240.871,0,0
187542,422.633,-237.825,0,0
187802,430.614,-235.616,0,0
188062,438.401,-233.705,0,0
188322,446.361,-232.168,0,0
188583,453.951,-231.197,0,0
188843,461.041,-230.253,0,0
189103,467.781,-229.029,0,0
189364,474.576,-227.314,0,0
189624,481.512,-225.189,0,0
189884,488.822,-222.703,0,0
190145,496.714,-219.885,0,0
190405,505.441,-217.122,0,0
190665,514.88,-214.765,0,0
190926,524.222,-212.655,0,0
191186,534.381,-210.388,0,0
191446,545.329,-208.56,0,0
191707,556.709,-207.5,0,0
191967,568.106,-206.818,0,0
192227,580.009,-206.219,0,0
192488,592.486,-206.162,0,0
192748,605.359,-206.514,0,0
193008,619.006,-207.338,0,0
193269,633.46,-209.244,0,0
193529,648.12,-212.497,0,0
193789,662.625,-216.923,0,0
194050,676.798,-222.41,0,0
194310,690.437,-228.549,0,0
194570,703.91,-235.056,0,0
194831,717.357,-242.343,0,0
195091,730.818,-250.523,0,0
195351,743.729,-259.782,0,0
195612,755.592,-269.69,0,0
195872,766.705,-279.552,0,0
196132,777.812,-289.367,0,0
196393,789.001,-299.681,0,0
196653,800.018,-310.647,0,0
196913,810.576,-322.158,0,0
197174,820.913,-334.11,0,0
197434,831.088,-346.526,0,0
197694,841.264,-359.76,0,0
197955,850.864,-374.091,0,0
198215,859.464,-389.247,0,0
198475,867.175,-404.767,0,0
198735,874.027,-420.578,0,0
198996,880.366,-436.617,0,0
199256,886.018,-453.331,0,0
199516,890.594,-470.232,0,0
199777,894.584,-487.273,0,0
200037,897.525,-504.62,0,0
200297,899.798,-522.004,0,0
200558,901.327,-539.702,0,0
200818,901.915,-557.54,0,0
201078,901.625,-575.605,0,0
201339,900.079,-593.786,0,0
201599,897.138,-611.727,0,0
201859,892.877,-628.993,0,0
202120,887.907,-645.34,0,0
202380.025,882.381,-660.918,0,0
202640.35,876.57,-675.805,0,0
202900.675,870.447,-690.732,0,0
203161.0,863.393,-705.363,0,0
203421.325,855.46,-719.167,0,0
203681.65,846.88,-731.81,0,0
203941.975,838.6,-743.052,0,0
204202.3,831.025,-753.803,0,0
204462.625,823.902,-765.004,0,0
204722.95,816.794,-776.712,0,0
204983.275,808.679,-789.141,0,0
205243.6,799.217,-801.316,0,0
205503.925,788.288,-812.58,0,0
205764.25,776.798,-822.491,0,0
206024.575,765.05,-831.098,0,0
206284.9,753.758,-838.556,0,0
206545.225,742.786,-845.705,0,0
206805.55,731.483,-852.686,0,0
207065.875,719.579,-858.77,0,0
207326.2,707.709,-863.573,0,0
207586.525,696.211,-867.152,0,0
207846.85,685.452,-869.81,0,0
208107.175,675.909,-871.671,0,0
208367.5,667.641,-873.767,0,0
208627.825,659.758,-876.352,0,0
208888.15,652.162,-878.967,0,0
209148.475,645.307,-881.97,0,0
209408.8,638.655,-885.903,0,0
209669.125,631.33,-890.676,0,0
209929.45,623.105,-895.613,0,0
210189.775,614.1,-900.022,0,0
210450.1,604.789,-903.981,0,0
210710.425,595.296,-907.823,0,0
210970.75,585.396,-911.433,0,0
211231.075,574.852,-914.656,0,0
211491.4,563.703,-916.945,0,0
211751.725,552.323,-918.171,0,0
212012.05,541.247,-918.185,0,0
212272.375,530.862,-917.408,0,0
212532.7,521.313,-916.338,0,0
212793.025,512.022,-915.044,0,0
213053.35,502.921,-913.709,0,0
213313.675,494.013,-911.924,0,0
213574.0,485.515,-909.823,0,0
213834.325,477.357,-907.428,0,0
214094.65,469.652,-904.945,0,0
214354.975,462.269,-902.316,0,0
214615.3,455.065,-899.697,0,0
214875.625,448.006,-896.822,0,0
215135.95,441.238,-893.833,0,0
215396.275,434.683,-890.681,0,0
215656.6,428.223,-887.415,0,0
215916.925,422.146,-883.777,0,0
216177.25,416.545,-879.963,0,0
216437.575,411.338,-876.153,0,0
216697.9,406.417,-872.405,0,0
216958.225,401.808,-868.564,0,0
217218.55,397.518,-864.685,0,0
217478.875,393.624,-860.905,0,0
217739.2,390.027,-857.277,0,0
217999.525,386.562,-853.867,0,0
218259.85,383.163,-850.47,0,0
218520,379.934,-847.016,0,0
218780,377.011,-843.563,0,0
219041,374.341,-840.222,0,0
219301,371.788,-837.094,0,0
219561,369.446,-834.057,0,0
219822,367.173,-831.109,0,0
220082,365.054,-828.273,0,0
220342,362.828,-825.554,0,0
220603,360.696,-822.78,0,0
220863,358.662,-819.765,0,0
221123,357.098,-816.709,0,0
221384,355.937,-813.892,0,0
221644,354.914,-811.488,0,0
221904,353.816,-809.275,0,0
222165,352.857,-807.166,0,0
222425,351.914,-805.4,0,0
222685,351.044,-803.69,0,0
222946,350.006,-802.105,0,0
223206,348.972,-800.681,0,0
223466,347.759,-799.321,0,0
223727,346.444,-797.829,0,0
223987,345.312,-796.207,0,0
224247,344.329,-794.716,0,0
224508,343.443,-793.237,0,0
224768,342.565,-791.913,0,0
225028,341.724,-790.517,0,0
225289,340.832,-789.247,0,0
225549,340.101,-788.074,0,0
225809,339.384,-786.847,0,0
226070,338.753,-785.552,0,0
226330,338.26,-784.383,0,0
226590,337.973,-783.297,0,0
226851,337.79,-782.383,0,0
227111,337.716,-781.616,0,0
227371,337.58,-780.982,0,0
227632,337.704,-780.381,0,0
227892,338.018,-780.135,0,0
228152,338.456,-780.289,0,0
228413,338.666,-780.865,0,0
228673,338.76,-781.723,0,0
228933,338.476,-782.8,0,0
229193,338.007,-784.025,0,0
229454,337.262,-785.391,0,0
229714,336.246,-786.797,0,0
229974,334.989,-788.016,0,0
230235,333.559,-789.446,0,0
230495,331.983,-790.638,0,0
230755,330.262,-791.85,0,0
231016,328.528,-793.02,0,0
231276,326.609,-794.096,0,0
231536,324.678,-795.282,0,0
231797,322.644,-796.402,0,0
232057,320.446,-797.607,0,0
232317,318.035,-798.742,0,0
232578,315.485,-799.798,0,0
232838,312.75,-800.717,0,0
233098,309.985,-801.523,0,0
233359,307.129,-802.197,0,0
233619,304.189,-802.777,0,0
233879,301.192,-803.256,0,0
234140,298.184,-803.57,0,0
234400,295.075,-803.806,0,0
234660.3,292.104,-803.787,0,0
234920.625,289.132,-803.894,0,0
235180.95,286.114,-803.88,0,0
235441.275,283.096,-803.749,0,0
235701.6,280.031,-803.594,0,0
235961.925,277.026,-803.392,0,0
236222.25,274.032,-803.137,0,0
236482.575,270.935,-802.895,0,0
236742.9,267.793,-802.583,0,0
237003.225,264.592,-802.23,0,0
237263.55,261.302,-801.703,0,0
237523.875,257.969,-800.983,0,0
237784.2,254.683,-800.113,0,0
238044.525,251.52,-799.05,0,0
238304.85,248.504,-797.925,0,0
238565.175,245.587,-796.848,0,0
238825.5,242.65,-795.808,0,0
239085.825,239.721,-794.698,0,0
239346.15,236.716,-793.541,0,0
239606.475,233.647,-792.278,0,0
239866.8,230.597,-790.868,0,0
240127.125,227.577,-789.402,0,0
240387.45,224.705,-787.819,0,0
240647.775,221.797,-786.099,0,0
240908.1,219.048,-784.347,0,0
241168.425,216.34,-782.439,0,0
241428.75,213.688,-780.45,0,0
241689.075,211.182,-778.364,0,0
241949.4,208.802,-776.113,0,0
242209.725,206.631,-773.886,0,0
242470.05,204.631,-771.617,0,0
242730.375,202.878,-769.353,0,0
242990.7,201.275,-767.189,0,0
243251.025,199.787,-765.194,0,0
243511.35,198.412,-763.241,0,0
243771.675,197.147,-761.407,0,0
244032.0,195.878,-759.676,0,0
244292.325,194.758,-758.11,0,0
244552.65,193.692,-756.681,0,0
244812.975,192.536,-755.404,0,0
245073.3,191.532,-754.308,0,0
245333.625,190.374,-753.419,0,0
245593.95,189.104,-752.729,0,0
245854.275,187.722,-752.188,0,0
246114.6,186.081,-751.801,0,0
246374.925,184.18,-751.543,0,0
246635.25,181.988,-751.318,0,0
246895.575,179.378,-750.904,0,0
247155.9,176.491,-750.217,0,0
247416.225,173.534,-749.199,0,0
247676.55,170.614,-747.988,0,0
247936.875,167.604,-746.56,0,0
248197.2,164.692,-745.003,0,0
248457.525,161.775,-743.301,0,0
248717.85,158.869,-741.485,0,0
248978.175,155.877,-739.512,0,0
249238.5,152.971,-737.379,0,0
249498.825,150.082,-735.104,0,0
249759.15,147.102,-732.64,0,0
250019.475,144.296,-729.94,0,0
250279.8,141.516,-727.02,0,0
250540,138.891,-724.018,0,0
250800,136.394,-720.78,0,0
251061,134.057,-717.42,0,0
251321,131.931,-713.889,0,0
251581,130.018,-710.292,0,0
251842,128.345,-706.647,0,0
252102,126.854,-702.917,0,0
252362,125.648,-699.244,0,0
252623,124.665,-695.623,0,0
252883,123.815,-692.128,0,0
253143,123.025,-688.734,0,0
253404,122.298,-685.368,0,0
253664,121.674,-682.068,0,0
253924,121.101,-678.784,0,0
254185,120.608,-675.558,0,0
254445,120.161,-672.299,0,0
254705,119.769,-669.081,0,0
254966,119.453,-665.849,0,0
255226,119.213,-662.606,0,0
255486,119.092,-659.319,0,0
255747,119.089,-656.097,0,0
256007,119.211,-652.892,0,0
256267,119.446,-649.712,0,0
256528,119.757,-646.61,0,0
256788,120.182,-643.556,0,0
257048,120.708,-640.552,0,0
257309,121.275,-637.635,0,0
257569,121.929,-634.744,0,0
257829,122.673,-631.922,0,0
258090,123.497,-629.172,0,0
258350,124.343,-626.488,0,0
258610,125.267,-623.869,0,0
258871,126.247,-621.266,0,0
259131,127.32,-618.747,0,0
259391,128.514,-616.283,0,0
259651,129.772,-613.84,0,0
259912,131.062,-611.573,0,0
260172,132.511,-609.389,0,0
260432,133.944,-607.31,0,0
260693,135.431,-605.355,0,0
260953,136.905,-603.52,0,0
261213,138.448,-601.744,0,0
261474,140.035,-600.093,0,0
261734,141.622,-598.565,0,0
261994,143.171,-597.143,0,0
262255,144.728,-595.855,0,0
262515,146.224,-594.64,0,0
262775,147.681,-593.48,0,0
263036,149.101,-592.372,0,0
263296,150.532,-591.287,0,0
263556,151.934,-590.267,0,0
263817,153.362,-589.366,0,0
264077,154.784,-588.482,0,0
264337,156.157,-587.604,0,0
264598,157.562,-586.802,0,0
264858,159.007,-586.063,0,0
265118,160.448,-585.433,0,0
265379,161.872,-584.927,0,0
265639,163.215,-584.49,0,0
265899,164.51,-584.112,0,0
266160,165.715,-583.762,0,0
266420,166.894,-583.433,0,0
266680.25,168.089,-583.09,0,0
266940.575,169.292,-582.768,0,0
267200.9,170.527,-582.56,0,0
267461.225,171.78,-582.398,0,0
267721.55,172.998,-582.375,0,0
267981.875,174.161,-582.437,0,0
268242.2,175.3,-582.602,0,0
268502.525,176.331,-582.939,0,0
268762.85,177.2,-583.394,0,0
269023.175,177.844,-583.861,0,0
269283.5,178.296,-584.32,0,0
269543.825,178.553,-584.624,0,0
269804.15,178.756,-584.794,0,0
270064.475,178.968,-584.848,0,0
270324.8,179.098,-584.815,0,0
270585.125,179.354,-584.661,0,0
270845.45,179.585,-584.494,0,0
271105.775,179.86,-584.309,0,0
271366.1,180.07,-584.1,0,0
271626.425,180.232,-583.877,0,0
271886.75,180.382,-583.514,0,0
272147.075,180.511,-583.025,0,0
272407.4,180.768,-582.328,0,0
272667.725,181.142,-581.491,0,0
272928.05,181.738,-580.619,0,0
273188.375,182.491,-579.679,0,0
273448.7,183.471,-578.765,0,0
273709.025,184.68,-577.815,0,0
273969.35,186.144,-576.995,0,0
274229.675,187.854,-576.327,0,0
274490.0,189.79,-575.866,0,0
274750.325,191.898,-575.638,0,0
275010.65,194.086,-575.697,0,0
275270.975,196.471,-576.024,0,0
275531.3,198.966,-576.689,0,0
275791.625,201.477,-577.766,0,0
276051.95,203.951,-579.359,0,0
276312.275,206.202,-581.38,0,0
276572.6,208.173,-583.776,0,0
276832.925,209.764,-586.536,0,0
277093.25,210.926,-589.433,0,0
277353.575,211.673,-592.455,0,0
277613.9,212.063,-595.501,0,0
277874.225,212.079,-598.516,0,0
278134.55,211.813,-601.528,0,0
278394.875,211.227,-604.443,0,0
278655.2,210.36,-607.214,0,0
278915.525,209.279,-609.866,0,0
279175.85,208.036,-612.389,0,0
279436.175,206.576,-614.864,0,0
279696.5,204.96,-617.155,0,0
279956.825,203.038,-619.32,0,0
280217.15,201.069,-621.289,0,0
280477.475,198.968,-622.931,0,0
280737.8,196.88,-624.449,0,0
280998.125,194.87,-625.84,0,0
281258.45,192.83,-627.249,0,0
281518.775,190.723,-628.647,0,0
281779.1,188.444,-630.047,0,0
282039.425,186.002,-631.413,0,0
282299.75,183.321,-632.651,0,0
282560,180.388,-633.719,0,0
282820,177.262,-634.477,0,0
283081,174.027,-634.859,0,0
283341,170.794,-634.885,0,0
283601,167.699,-634.516,0,0
283862,164.86,-633.876,0,0
284122,162.339,-633.138,0,0
284382,160.07,-632.477,0,0
284643,157.885,-631.988,0,0
284903,155.589,-631.626,0,0
285163,153.154,-631.252,0,0
285424,150.53,-630.798,0,0
285684,147.754,-630.178,0,0
285944,144.923,-629.39,0,0
286205,141.97,-628.411,0,0
286465,138.911,-627.136,0,0
286725,135.832,-625.561,0,0
286986,132.795,-623.618,0,0
287246,129.863,-621.351,0,0
287506,127.086,-618.736,0,0
287767,124.52,-615.801,0,0
288027,122.222,-612.55,0,0
288287,120.254,-609.032,0,0
288548,118.663,-605.231,0,0
288808,117.543,-601.268,0,0
289068,116.952,-597.196,0,0
289329,116.875,-593.141,0,0
289589,117.312,-589.225,0,0
289849,118.187,-585.58,0,0
290109,119.368,-582.195,0,0
290370,120.828,-579.059,0,0
290630,122.458,-576.121,0,0
290890,124.383,-573.365,0,0
291151,126.638,-570.903,0,0
291411,129.143,-568.766,0,0
291671,131.88,-567.006,0,0
291932,134.824,-565.685,0,0
292192,137.879,-564.908,0,0
292452,141.039,-564.704,0,0
292713,144.032,-565.124,0,0
292973,146.707,-566.191,0,0
293233,148.869,-567.704,0,0
293494,150.422,-569.495,0,0
293754,151.378,-571.337,0,0
294014,151.802,-573.036,0,0
294275,151.801,-574.493,0,0
294535,151.493,-575.634,0,0
294795,150.981,-576.392,0,0
295056,150.524,-576.683,0,0
295316,150.296,-576.621,0,0
295576,150.379,-576.33,0,0
295837,150.913,-575.935,0,0
296097,151.948,-575.696,0,0
296357,153.487,-575.854,0,0
296618,155.282,-576.723,0,0
296878,157.003,-578.355,0,0
297138,158.279,-580.696,0,0
297399,158.917,-583.538,0,0
297659,158.757,-586.526,0,0
297919,157.9,-589.395,0,0
298180,156.457,-591.962,0,0
298440,154.655,-594.112,0,0
298700.2,152.661,-595.88,0,0
298960.525,150.589,-597.327,0,0
299220.85,148.414,-598.537,0,0
299481.175,146.157,-599.499,0,0
299741.5,143.841,-600.192,0,0
300001.825,141.495,-600.612,0,0
300262.15,139.228,-600.715,0,0
300522.475,137.072,-600.572,0,0
300782.8,135.1,-600.268,0,0
301043.125,133.27,-599.865,0,0
301303.45,131.632,-599.369,0,0
301563.775,130.1,-598.827,0,0
301824.1,128.708,-598.291,0,0
302084.425,127.46,-597.739,0,0
302344.75,126.358,-597.23,0,0
302605.075,125.373,-596.815,0,0
302865.4,124.424,-596.531,0,0
303125.725,123.477,-596.387,0,0
303386.05,122.453,-596.335,0,0
303646.375,121.323,-596.308,0,0
303906.7,120.183,-596.283,0,0
304167.025,118.954,-596.265,0,0
304427.35,117.68,-596.27,0,0
304687.675,116.324,-596.3,0,0
304948.0,114.894,-596.305,0,0
305208.325,113.344,-596.269,0,0
305468.65,111.699,-596.15,0,0
305728.975,109.966,-595.934,0,0
305989.3,108.221,-595.592,0,0
306249.625,106.464,-595.109,0,0
306509.95,104.749,-594.529,0,0
306770.275,103.069,-593.884,0,0
307030.6,101.435,-593.154,0,0
307290.925,99.8377,-592.395,0,0
307551.25,98.2737,-591.574,0,0
307811.575,96.7619,-590.741,0,0
308071.9,95.269,-589.872,0,0
308332.225,93.7796,-588.965,0,0
308592.55,92.2993,-588.04,0,0
308852.875,90.7995,-587.068,0,0
309113.2,89.3858,-585.99,0,0
309373.525,87.9858,-584.866,0,0
309633.85,86.6825,-583.735,0,0
309894.175,85.3962,-582.614,0,0
310154.5,84.1578,-581.437,0,0
310414.825,82.9147,-580.264,0,0
310675.15,81.7181,-579.073,0,0
310935.475,80.5556,-577.832,0,0
311195.8,79.446,-576.579,0,0
311456.125,78.3598,-575.309,0,0
311716.45,77.3179,-574.047,0,0
311976.775,76.295,-572.78,0,0
312237.1,75.3272,-571.493,0,0
312497.425,74.355,-570.196,0,0
312757.75,73.4219,-568.893,0,0
313018.075,72.5285,-567.575,0,0
313278.4,71.6552,-566.253,0,0
313538.725,70.8206,-564.932,0,0
313799.05,69.9986,-563.581,0,0
314059.375,69.2299,-562.221,0,0
314319.7,68.4883,-560.903,0,0
314580,67.7795,-559.541,0,0
314840,67.14,-558.234,0,0
315101,66.4684,-556.993,0,0
315361,65.7651,-555.642,0,0
315621,65.138,-554.347,0,0
315882,64.564,-552.95,0,0
316142,63.9564,-551.631,0,0
316402,63.3784,-550.364,0,0
316663,62.7292,-549.017,0,0
316923,62.2357,-547.636,0,0
317183,61.7743,-546.304,0,0
317444,61.3214,-544.987,0,0
317704,60.7776,-543.61,0,0
317964,60.4172,-542.292,0,0
318225,59.9746,-540.971,0,0
318485,59.5769,-539.625,0,0
318745,59.2669,-538.379,0,0
319006,58.9047,-537.087,0,0
319266,58.5998,-535.869,0,0
319526,58.1708,-534.609,0,0
319787,57.9572,-533.353,0,0
320047,57.5896,-532.121,0,0
320307,57.2428,-530.804,0,0
320567,56.9657,-529.509,0,0
320828,56.6071,-528.274,0,0
321088,56.3648,-526.877,0,0
321348,56.1637,-525.647,0,0
321609,55.9178,-524.352,0,0
321869,55.6626,-523.032,0,0
322129,55.4913,-521.73,0,0
322390,55.236,-520.412,0,0
322650,55.0941,-519.011,0,0
322910,54.9705,-517.754,0,0
323171,54.8848,-516.37,0,0
323431,54.7451,-515.064,0,0
323691,54.6897,-513.744,0,0
323952,54.6233,-512.389,0,0
324212,54.6165,-510.964,0,0
324472,54.7231,-509.538,0,0
324733,54.7807,-508.074,0,0
324993,55.0097,-506.615,0,0
325253,55.2239,-505.256,0,0
325514,55.5912,-503.811,0,0
325774,56.0213,-502.48,0,0
326034,56.5404,-501.099,0,0
326295,57.1408,-499.915,0,0
326555,57.7218,-498.742,0,0
326815,58.4852,-497.647,0,0
327076,59.2159,-496.724,0,0
327336,59.915,-495.878,0,0
327596,60.5553,-495.223,0,0
327857,61.1664,-494.57,0,0
328117,61.6404,-493.966,0,0
328377,62.2171,-493.364,0,0
328638,62.6955,-492.801,0,0
328898,63.0985,-492.189,0,0
329158,63.5885,-491.622,0,0
329419,64.1202,-491.076,0,0
329679,64.5822,-490.671,0,0
329939,65.0812,-490.191,0,0
330200,65.6427,-489.871,0,0
330460,66.0718,-489.567,0,0
330720.15,66.5346,-489.297,0,0
330980.475,66.959,-489.059,0,0
331240.8,67.3444,-489,0,0
331501.125,67.6278,-488.933,0,0
331761.45,67.8618,-488.953,0,0
332021.775,68.1289,-489.023,0,0
332282.1,68.1602,-489.108,0,0
332542.425,68.1862,-489.252,0,0
332802.75,68.0216,-489.327,0,0
333063.075,67.7496,-489.396,0,0
333323.4,67.4496,-489.43,0,0
333583.725,67.0263,-489.35,0,0
333844.05,66.5719,-489.278,0,0
334104.375,66.0743,-489.082,0,0
334364.7,65.5844,-488.818,0,0
334625.025,65.0128,-488.446,0,0
334885.35,64.5503,-488.026,0,0
335145.675,64.0179,-487.612,0,0
335406.0,63.5636,-487.113,0,0
335666.325,63.0766,-486.639,0,0
335926.65,62.6364,-486.078,0,0
336186.975,62.1679,-485.587,0,0
336447.3,61.6587,-484.958,0,0
336707.625,61.2816,-484.381,0,0
336967.95,60.8329,-483.735,0,0
337228.275,60.3813,-483.05,0,0
337488.6,59.9722,-482.376,0,0
337748.925,59.5951,-481.679,0,0
338009.25,59.2698,-480.953,0,0
338269.575,58.8786,-480.226,0,0
338529.9,58.5784,-479.547,0,0
338790.225,58.2751,-478.807,0,0
339050.55,57.9456,-478.061,0,0
339310.875,57.6124,-477.372,0,0
339571.2,57.3029,-476.619,0,0
339831.525,57.032,-475.829,0,0
340091.85,56.7323,-475.084,0,0
340352.175,56.4336,-474.314,0,0
340612.5,56.1786,-473.524,0,0
340872.825,55.8836,-472.739,0,0
341133.15,55.6254,-471.911,0,0
341393.475,55.3874,-471.131,0,0
341653.8,55.1166,-470.321,0,0
341914.125,54.8953,-469.424,0,0
342174.45,54.6614,-468.566,0,0
342434.775,54.3826,-467.753,0,0
342695.1,54.1625,-466.854,0,0
342955.425,54.0427,-465.951,0,0
343215.75,53.8356,-464.978,0,0
343476.075,53.6865,-464.055,0,0
343736.4,53.578,-463.113,0,0
343996.725,53.4711,-462.171,0,0
344257.05,53.389,-461.23,0,0
344517.375,53.379,-460.189,0,0
344777.7,53.393,-459.278,0,0
345038.025,53.389,-458.324,0,0
345298.35,53.3994,-457.402,0,0
345558.675,53.4814,-456.424,0,0
345819.0,53.5819,-455.531,0,0
346079.325,53.6942,-454.536,0,0
346339.65,53.8422,-453.608,0,0
346599.975,53.9778,-452.737,0,0
346860,54.1482,-451.853,0,0
347121,54.2985,-450.992,0,0
347381,54.5616,-450.129,0,0
347641,54.7178,-449.246,0,0
347902,55.0274,-448.415,0,0
348162,55.2455,-447.608,0,0
348422,55.5229,-446.754,0,0
348683,55.8025,-445.946,0,0
348943,56.1014,-445.197,0,0
349203,56.494,-444.436,0,0
349464,56.787,-443.759,0,0
349724,57.1325,-442.953,0,0
349984,57.5209,-442.311,0,0
350245,57.8595,-441.602,0,0
350505,58.2667,-441.025,0,0
350765,58.639,-440.405,0,0
351025,59.0388,-439.833,0,0
351286,59.4334,-439.307,0,0
351546,59.7504,-438.804,0,0
351806,60.1298,-438.336,0,0
352067,60.4553,-437.926,0,0
352327,60.7244,-437.5,0,0
352587,60.9284,-437.071,0,0
352848,61.1731,-436.6,0,0
353108,61.3689,-436.112,0,0
353368,61.5956,-435.657,0,0
353629,61.7841,-435.149,0,0
353889,61.9469,-434.651,0,0
354149,62.2065,-434.114,0,0
354410,62.4488,-433.583,0,0
354670,62.6695,-433.063,0,0
354930,62.9925,-432.564,0,0
355191,63.2407,-432.014,0,0
355451,63.5024,-431.505,0,0
355711,63.8397,-431.046,0,0
355972,64.1177,-430.489,0,0
356232,64.4785,-430.022,0,0
356492,64.8452,-429.522,0,0
356753,65.2047,-429.015,0,0
357013,65.6326,-428.566,0,0
357273,65.9879,-428.154,0,0
357534,66.4275,-427.744,0,0
357794,66.842,-427.376,0,0
358054,67.3205,-427.051,0,0
358315,67.7436,-426.785,0,0
358575,68.1994,-426.517,0,0
358835,68.6527,-426.265,0,0
359096,69.0402,-426.079,0,0
359356,69.4838,-425.93,0,0
359616,69.8463,-425.827,0,0
359877,70.2094,-425.688,0,0
360137,70.5643,-425.684,0,0
360397,70.9141,-425.576,0,0
360658,71.2066,-425.602,0,0
360918,71.4525,-425.542,0,0
361178,71.7066,-425.574,0,0
361438,71.9033,-425.605,0,0
361699,72.0624,-425.59,0,0
361959,72.1979,-425.652,0,0
362219,72.2352,-425.688,0,0
362480,72.3152,-425.681,0,0
362740.1,72.3351,-425.677,0,0
363000.425,72.3955,-425.647,0,0
363260.75,72.3286,-425.646,0,0
363521.075,72.2999,-425.541,0,0
363781.4,72.2732,-425.516,0,0
364041.725,72.2315,-425.463,0,0
364302.05,72.1638,-425.352,0,0
364562.375,72.0793,-425.191,0,0
364822.7,71.9801,-425.054,0,0
365083.025,71.9015,-424.921,0,0
365343.35,71.8395,-424.775,0,0
365603.675,71.803,-424.568,0,0
365864.0,71.7098,-424.391,0,0
366124.325,71.624,-424.191,0,0
366384.65,71.5714,-423.918,0,0
366644.975,71.4727,-423.749,0,0
366905.3,71.4798,-423.521,0,0
367165.625,71.4416,-423.216,0,0
367425.95,71.4335,-422.966,0,0
367686.275,71.4441,-422.687,0,0
367946.6,71.5284,-422.417,0,0
368206.925,71.6287,-422.165,0,0
368467.25,71.7821,-421.972,0,0
368727.575,71.9597,-421.76,0,0
368987.9,72.1543,-421.69,0,0
369248.225,72.3235,-421.616,0,0
369508.55,72.4496,-421.635,0,0
369768.875,72.5591,-421.721,0,0
370029.2,72.5729,-421.789,0,0
370289.525,72.5188,-421.884,0,0
370549.85,72.4155,-422.047,0,0
370810.175,72.2681,-422.141,0,0
371070.5,72.0309,-422.189,0,0
371330.825,71.8377,-422.168,0,0
371591.15,71.6235,-422.084,0,0
371851.475,71.3708,-421.974,0,0
372111.8,71.224,-421.899,0,0
372372.125,71.0616,-421.807,0,0
372632.45,70.8961,-421.724,0,0
372892.775,70.7705,-421.679,0,0
373153.1,70.6668,-421.606,0,0
373413.425,70.4869,-421.598,0,0
373673.75,70.2918,-421.588,0,0
373934.075,70.0525,-421.569,0,0
374194.4,69.8247,-421.544,0,0
374454.725,69.5324,-421.54,0,0
374715.05,69.2354,-421.531,0,0
374975.375,68.9029,-421.452,0,0
375235.7,68.566,-421.385,0,0
375496.025,68.2667,-421.342,0,0
375756.35,67.854,-421.233,0,0
376016.675,67.497,-421.114,0,0
376277.0,67.1418,-420.965,0,0
376537.325,66.8168,-420.838,0,0
376797.65,66.4388,-420.653,0,0
377057.975,66.0756,-420.524,0,0
377318.3,65.7495,-420.363,0,0
377578.625,65.3469,-420.23,0,0
377838.95,65.0248,-420.152,0,0
378099.275,64.6216,-420.051,0,0
378359.6,64.1679,-419.955,0,0
378619.925,63.68,-419.903,0,0
378880,63.1268,-419.76,0,0
379141,62.4834,-419.647,0,0
379401,61.8184,-419.395,0,0
379661,61.0486,-419.115,0,0
379922,60.3115,-418.644,0,0
380182,59.5949,-418.068,0,0
380442,58.9302,-417.363,0,0
380703,58.4458,-416.593,0,0
380963,58.09,-415.736,0,0
381223,57.9453,-414.933,0,0
381483,57.838,-414.229,0,0
381744,57.8385,-413.665,0,0
382004,57.8758,-413.22,0,0
382264,57.9011,-412.922,0,0
382525,57.8468,-412.659,0,0
382785,57.7166,-412.448,0,0
383045,57.5199,-412.323,0,0
383306,57.2435,-412.174,0,0
383566,56.9163,-412.031,0,0
383826,56.4411,-411.851,0,0
384087,55.9706,-411.62,0,0
384347,55.5144,-411.327,0,0
384607,54.961,-410.961,0,0
384868,54.4594,-410.667,0,0
385128,53.8766,-410.215,0,0
385388,53.3328,-409.734,0,0
385649,52.8232,-409.266,0,0
385909,52.3055,-408.624,0,0
386169,51.8356,-408.073,0,0
386430,51.3795,-407.487,0,0
386690,50.9694,-406.846,0,0
386950,50.5543,-406.187,0,0
387211,50.1818,-405.527,0,0
387471,49.8326,-404.876,0,0
387731,49.4514,-404.218,0,0
387992,49.1149,-403.529,0,0
388252,48.7964,-402.881,0,0
388512,48.5067,-402.133,0,0
388773,48.2421,-401.417,0,0
389033,47.9977,-400.631,0,0
389293,47.7843,-399.909,0,0
389554,47.652,-399.159,0,0
389814,47.5398,-398.395,0,0
390074,47.4911,-397.698,0,0
390335,47.4709,-396.992,0,0
390595,47.4892,-396.361,0,0
390855,47.5599,-395.789,0,0
391116,47.5804,-395.327,0,0
391376,47.6012,-394.845,0,0
391636,47.5469,-394.442,0,0
391896,47.4721,-394.114,0,0
392157,47.343,-393.77,0,0
392417,47.1599,-393.446,0,0
392677,46.8679,-393.122,0,0
392938,46.5199,-392.769,0,0
393198,46.1653,-392.331,0,0
393458,45.7713,-391.857,0,0
393719,45.3727,-391.346,0,0
393979,44.925,-390.805,0,0
394239,44.4621,-390.199,0,0
394500,44.1145,-389.511,0,0
394760.05,43.6771,-388.799,0,0
395020.375,43.2997,-388.004,0,0
395280.7,42.9475,-387.226,0,0
395541.025,42.6355,-386.363,0,0
395801.35,42.3926,-385.486,0,0
396061.675,42.1891,-384.627,0,0
396322.0,41.9929,-383.713,0,0
396582.325,41.8666,-382.824,0,0
396842.65,41.7823,-381.947,0,0
397102.975,41.6601,-381.044,0,0
397363.3,41.6164,-380.165,0,0
397623.625,41.6041,-379.281,0,0
397883.95,41.6398,-378.431,0,0
398144.275,41.7216,-377.582,0,0
398404.6,41.7843,-376.732,0,0
398664.925,41.8858,-375.925,0,0
398925.25,41.9853,-375.106,0,0
399185.575,42.1041,-374.336,0,0
399445.9,42.257,-373.557,0,0
399706.225,42.4247,-372.821,0,0
399966.55,42.5727,-372.097,0,0
400006.6,42.5823,-371.991,0,0