File: Accelerated corrosion test data/2025-10-20_06-00-03/sample_3.csv
Frequency (Hz),Impedance (ohms),Phase (Radians),Temperature (C),Humidity (%)
10000.0,253.224,-11949.7,0,0
10260.325,246.939,-11648.6,0,0
10520.65,241.21,-11362.2,0,0
10780.975,237.697,-11088.2,0,0
11041.3,231.02,-10833.5,0,0
11301.625,225.852,-10584.7,0,0
11561.95,220.751,-10347.6,0,0
11822.275,216.768,-10121,0,0
12082.6,213.593,-9904.89,0,0
12342.925,212.084,-9696.37,0,0
12603.25,204.572,-9499.45,0,0
12863.575,201.008,-9306.83,0,0
13123.9,201.993,-9120.74,0,0
13384.225,194.363,-8950.93,0,0
13644.55,190.674,-8780.06,0,0
13904.875,187.208,-8614.77,0,0
14165.2,188.865,-8456.2,0,0
14425.525,181.623,-8304.21,0,0
14685.8,180.368,-8156.27,0,0
14946.175,177.216,-8015.77,0,0
15206.5,175.877,-7872.95,0,0
15466.825,188.153,-7730.34,0,0
15727.15,193.049,-7637.58,0,0
15987.5,173.047,-7516.5,0,0
16247.8,169.738,-7386.18,0,0
16508.125,162.703,-7271.75,0,0
16768.45,169.087,-7149.49,0,0
17028.775,159.05,-7050.17,0,0
17289.1,164.377,-6934.72,0,0
17549.425,158.203,-6843.28,0,0
17809.75,158.075,-6736.71,0,0
18070.075,163.597,-6648.93,0,0
18330.4,153.127,-6553.64,0,0
18590.725,149.754,-6461.12,0,0
18851.05,146.65,-6368.98,0,0
19111.375,148.15,-6279.31,0,0
19371.7,146.767,-6194.19,0,0
19632.025,148.258,-6108.65,0,0
19892.35,150.507,-6027.8,0,0
20152.675,149.828,-5950.86,0,0
20413.0,163.042,-5872.66,0,0
20673.3,171.792,-5809.41,0,0
20933.65,165.597,-5749.36,0,0
21193.975,164.72,-5687.91,0,0
21454.3,146.794,-5624.72,0,0
21714.625,141.437,-5547.79,0,0
21974.9,144.883,-5483.12,0,0
22235.275,139.235,-5423.7,0,0
22495.6,136.84,-5359.29,0,0
22755.925,130.111,-5298.67,0,0
23016.25,128.986,-5238.21,0,0
23276.6,129.218,-5175.04,0,0
23536.9,130.806,-5129.18,0,0
23797.225,122.354,-5069.5,0,0
24057.55,120.398,-5011.26,0,0
24317.875,121.152,-4955.45,0,0
24578.2,118.133,-4905.37,0,0
24838.525,119.606,-4851.09,0,0
25098.85,116.438,-4803.99,0,0
25359.175,114.856,-4752.78,0,0
25619.5,114.465,-4704.39,0,0
25879.8,112.169,-4657.34,0,0
26140.1,109.761,-4609.18,0,0
26400.5,108.933,-4561.75,0,0
26660.8,108.784,-4515.66,0,0
26921.1,109.801,-4470.8,0,0
27181.4,110.154,-4430.92,0,0
27441.8,108.387,-4386.53,0,0
27702.1,109.036,-4345.56,0,0
27962.4,106.784,-4304.44,0,0
28222.7,105.167,-4260.92,0,0
28483.1,113.514,-4218.12,0,0
28743.4,115.524,-4184.11,0,0
29003.7,116.996,-4154.44,0,0
29264,108.735,-4120.53,0,0
29524.4,110.281,-4082.01,0,0
29784.7,105.472,-4046.74,0,0
30045,103.693,-4012.97,0,0
30305.3,102.076,-3974.38,0,0
30565.7,103.657,-3940.69,0,0
30826,102.713,-3908.28,0,0
31086.3,103.982,-3874.64,0,0
31346.6,100.584,-3844.32,0,0
31607,99.1744,-3809.52,0,0
31867.3,99.2683,-3775.04,0,0
32127.6,102.619,-3740.75,0,0
32387.9,112.754,-3713.16,0,0
32648.3,116.021,-3695.89,0,0
32908.6,104.924,-3672.2,0,0
33168.9,102.365,-3642.86,0,0
33429.2,100.448,-3616.39,0,0
33689.6,93.9376,-3587.93,0,0
33949.9,91.6621,-3556.98,0,0
34210.2,92.1935,-3529.16,0,0
34470.5,90.4514,-3502.24,0,0
34730.9,88.8047,-3476.02,0,0
34991.2,87.1116,-3448.91,0,0
35251.5,86.6601,-3422.37,0,0
35511.8,85.7618,-3396.68,0,0
35772.2,84.9193,-3371.05,0,0
36032.5,84.1993,-3346.39,0,0
36292.8,83.4998,-3321.49,0,0
36553.1,82.9462,-3297.26,0,0
36813.5,82.0548,-3273.72,0,0
37073.8,81.7117,-3250.16,0,0
37334.1,81.0807,-3227.09,0,0
37594.4,80.5853,-3203.59,0,0
37854.8,79.8685,-3181.23,0,0
38115.1,79.4807,-3159.1,0,0
38375.4,78.9722,-3136.85,0,0
38635.7,78.5819,-3115.2,0,0
38896.1,78.1499,-3093.9,0,0
39156.4,77.8558,-3072.57,0,0
39416.7,77.509,-3052.21,0,0
39677,76.8371,-3031.97,0,0
39937.4,76.1054,-3011.03,0,0
40197.7,76.0718,-2990.63,0,0
40458,75.5715,-2971.2,0,0
40718.3,75.375,-2951.49,0,0
40978.7,74.9391,-2931.86,0,0
41239,74.9402,-2912.83,0,0
41499.3,74.9653,-2894.28,0,0
41759.6,75.4334,-2875.77,0,0
42020,74.6549,-2858.01,0,0
42280.275,74.2978,-2839.75,0,0
42540.6,73.8468,-2822.05,0,0
42800.925,73.8992,-2804.89,0,0
43061.25,73.1907,-2787.33,0,0
43321.575,72.6005,-2770.03,0,0
43581.9,72.344,-2752.57,0,0
43842.225,72.416,-2735.27,0,0
44102.55,72.6991,-2718.61,0,0
44362.875,72.7737,-2702.82,0,0
44623.2,72.0936,-2686.76,0,0
44883.525,71.7651,-2670.55,0,0
45143.85,71.435,-2654.84,0,0
45404.175,71.0781,-2638.96,0,0
45664.5,70.6729,-2622.93,0,0
45924.825,71.5984,-2607.6,0,0
46185.15,70.8245,-2593.36,0,0
46445.475,70.1991,-2577.58,0,0
46705.8,70.4389,-2562.21,0,0
46966.125,70.647,-2548.17,0,0
47226.45,70.0341,-2533.76,0,0
47486.775,70.1452,-2519.05,0,0
47747.1,70.8307,-2504.27,0,0
48007.425,71.0535,-2491.65,0,0
48267.75,70.9551,-2478.03,0,0
48528.075,70.1795,-2464.94,0,0
48788.4,69.7516,-2451.81,0,0
49048.725,68.897,-2438.23,0,0
49309.05,68.3986,-2424.58,0,0
49569.375,68.2967,-2411.03,0,0
49829.7,67.9829,-2398.22,0,0
50090.025,67.3825,-2385.32,0,0
50350.35,67.0012,-2372.07,0,0
50610.675,66.6803,-2358.91,0,0
50871.0,66.646,-2346.18,0,0
51131.325,66.497,-2333.66,0,0
51391.65,66.4588,-2320.97,0,0
51651.975,66.5103,-2308.67,0,0
51912.3,66.5506,-2296.67,0,0
52172.625,66.1853,-2284.47,0,0
52432.95,66.1797,-2272.15,0,0
52693.275,66.3541,-2260.11,0,0
52953.6,66.6858,-2248.21,0,0
53213.925,67.2497,-2236.47,0,0
53474.25,67.8675,-2225.34,0,0
53734.575,67.9501,-2214.25,0,0
53994.9,68.1375,-2203.16,0,0
54255.225,69.2987,-2192.17,0,0
54515.55,70.0388,-2182.7,0,0
54775.875,69.3052,-2173.47,0,0
55036.2,68.8741,-2163.1,0,0
55296.525,68.289,-2153.6,0,0
55556.85,67.1847,-2143.7,0,0
55817.175,65.5091,-2133.33,0,0
56077.5,64.6409,-2122.73,0,0
56337.825,63.6866,-2112.01,0,0
56598.15,62.7237,-2101.43,0,0
56858.475,61.9913,-2090.67,0,0
57118.8,61.4319,-2079.74,0,0
57379.125,61.349,-2069,0,0
57639.45,61.2761,-2058.33,0,0
57899.775,61.2247,-2048.14,0,0
58160.1,61.3356,-2038.09,0,0
58420.4,61.209,-2028.03,0,0
58680.7,61.1498,-2017.76,0,0
58941.1,61.2814,-2007.78,0,0
59201.4,61.4641,-1997.9,0,0
59461.7,61.8144,-1988.06,0,0
59722,62.0005,-1978.53,0,0
59982.4,62.2835,-1968.99,0,0
60242.7,62.4955,-1959.52,0,0
60503,62.7601,-1950.2,0,0
60763.3,63.1037,-1940.96,0,0
61023.7,63.2877,-1931.71,0,0
61284,63.6742,-1922.28,0,0
61544.3,64.212,-1913.08,0,0
61804.6,64.7375,-1904.48,0,0
62065,64.9509,-1895.39,0,0
62325.3,65.5336,-1886.5,0,0
62585.6,65.9961,-1877.69,0,0
62845.9,66.4961,-1868.49,0,0
63106.3,67.5231,-1859.52,0,0
63366.6,68.8065,-1851.16,0,0
63626.9,69.7096,-1842.34,0,0
63887.2,70.6187,-1833.84,0,0
64147.6,71.953,-1824.74,0,0
64407.9,74.6971,-1815.9,0,0
64668.2,77.211,-1808.7,0,0
64928.5,79.7718,-1800.59,0,0
65188.9,83.9568,-1794.5,0,0
65449.2,86.3305,-1789.42,0,0
65709.5,88.9716,-1784.66,0,0
65969.8,92.5538,-1781.41,0,0
66230.2,92.3933,-1782.17,0,0
66490.5,86.8561,-1780.62,0,0
66750.8,81.393,-1773.98,0,0
67011.1,78.049,-1765.37,0,0
67271.5,75.6784,-1756.72,0,0
67531.8,74.611,-1747.97,0,0
67792.1,74.637,-1739.43,0,0
68052.4,75.077,-1731.61,0,0
68312.8,76.1599,-1724.4,0,0
68573.1,76.1547,-1718.37,0,0
68833.4,76.1515,-1711.16,0,0
69093.7,77.1118,-1704.4,0,0
69354.1,77.7539,-1698.89,0,0
69614.4,77.9061,-1693.39,0,0
69874.7,77.2551,-1688.14,0,0
70135,76.5289,-1682.53,0,0
70395.4,75.6871,-1676.58,0,0
70655.7,74.3906,-1670.8,0,0
70916,73.1685,-1664.44,0,0
71176.3,72.1585,-1657.77,0,0
71436.7,71.6171,-1651.17,0,0
71697,70.5997,-1644.41,0,0
71957.3,70.6509,-1637.32,0,0
72217.6,70.8767,-1630.71,0,0
72478,71.1501,-1624.63,0,0
72738.3,71.4047,-1618.97,0,0
72998.6,71.1041,-1613.53,0,0
73258.9,70.7262,-1607.8,0,0
73519.3,70.3366,-1602.11,0,0
73779.6,70.1241,-1596.5,0,0
74039.9,69.5421,-1591.18,0,0
74300.225,68.7447,-1585.68,0,0
74560.55,67.9993,-1580.06,0,0
74820.875,67.1875,-1574.42,0,0
75081.2,66.3657,-1568.72,0,0
75341.525,65.538,-1562.96,0,0
75601.85,64.7774,-1557.26,0,0
75862.175,63.9927,-1551.42,0,0
76122.5,63.15,-1545.62,0,0
76382.825,62.4453,-1539.64,0,0
76643.15,61.7913,-1533.78,0,0
76903.475,61.1815,-1527.89,0,0
77163.8,60.6195,-1522.18,0,0
77424.125,60.0142,-1516.41,0,0
77684.45,59.475,-1510.65,0,0
77944.775,58.833,-1504.84,0,0
78205.1,58.2875,-1499.05,0,0
78465.425,57.8107,-1493.26,0,0
78725.75,57.3099,-1487.53,0,0
78986.075,56.8044,-1481.8,0,0
79246.4,56.3881,-1476.08,0,0
79506.725,55.9488,-1470.35,0,0
79767.05,55.5535,-1464.66,0,0
80027.375,55.2874,-1458.96,0,0
80287.7,55.0514,-1453.39,0,0
80548.025,54.8131,-1447.82,0,0
80808.35,54.5085,-1442.24,0,0
81068.675,54.2769,-1436.74,0,0
81329.0,54.0394,-1431.22,0,0
81589.325,53.8143,-1425.76,0,0
81849.65,53.6585,-1420.34,0,0
82109.975,53.5011,-1414.92,0,0
82370.3,53.3447,-1409.56,0,0
82630.625,53.3099,-1404.23,0,0
82890.95,53.1656,-1398.96,0,0
83151.275,53.0959,-1393.67,0,0
83411.6,52.8959,-1388.48,0,0
83671.925,52.8257,-1383.22,0,0
83932.25,52.7842,-1378.03,0,0
84192.575,52.736,-1372.94,0,0
84452.9,52.7318,-1367.82,0,0
84713.225,52.5979,-1362.8,0,0
84973.55,52.5587,-1357.67,0,0
85233.875,52.5374,-1352.56,0,0
85494.2,52.5628,-1347.64,0,0
85754.525,52.5434,-1342.62,0,0
86014.85,52.5677,-1337.72,0,0
86275.175,52.5248,-1332.78,0,0
86535.5,52.5602,-1327.91,0,0
86795.825,52.5379,-1323,0,0
87056.15,52.6033,-1318.07,0,0
87316.475,52.6452,-1313.11,0,0
87576.8,52.7866,-1308.3,0,0
87837.125,52.887,-1303.54,0,0
88097.45,53.0174,-1298.81,0,0
88357.775,53.0476,-1294,0,0
88618.1,53.2105,-1289.14,0,0
88878.425,53.3447,-1284.29,0,0
89138.75,53.8043,-1279.49,0,0
89399.075,54.2836,-1274.68,0,0
89659.4,54.7295,-1270.41,0,0
89919.725,55.224,-1265.78,0,0
90180,55.5283,-1261.52,0,0
90440.4,55.8246,-1257.05,0,0
90700.7,56.0873,-1252.86,0,0
90961,56.6219,-1248.34,0,0
91221.3,56.8453,-1244.18,0,0
91481.7,57.2531,-1240,0,0
91742,57.6451,-1235.82,0,0
92002.3,58.0875,-1231.65,0,0
92262.6,58.6294,-1227.45,0,0
92523,59.329,-1223.44,0,0
92783.3,59.7983,-1219.89,0,0
93043.6,60.0905,-1215.98,0,0
93303.9,60.7248,-1212.11,0,0
93564.3,61.4654,-1208.61,0,0
93824.6,62.0722,-1205.36,0,0
94084.9,62.605,-1202.58,0,0
94345.2,62.3382,-1199.95,0,0
94605.6,61.8819,-1197.18,0,0
94865.9,61.1551,-1194.11,0,0
95126.2,60.0661,-1190.96,0,0
95386.5,58.7023,-1187.31,0,0
95646.9,57.6538,-1183.08,0,0
95907.2,56.8932,-1178.84,0,0
96167.5,56.1424,-1174.52,0,0
96427.8,55.7663,-1169.91,0,0
96688.2,55.6885,-1165.56,0,0
96948.5,55.6049,-1161.32,0,0
97208.8,55.5599,-1157.27,0,0
97469.1,55.5135,-1153.16,0,0
97729.5,55.3947,-1149.1,0,0
97989.8,55.379,-1145.11,0,0
98250.1,55.3137,-1141.11,0,0
98510.4,55.3939,-1137.07,0,0
98770.8,55.4598,-1133.19,0,0
99031.1,55.4093,-1129.4,0,0
99291.4,55.3777,-1125.54,0,0
99551.7,55.2559,-1121.6,0,0
99812.1,55.2245,-1117.72,0,0
100072,55.1741,-1113.78,0,0
100333,55.1527,-1109.94,0,0
100593,55.0763,-1106.01,0,0
100853,54.9509,-1101.95,0,0
101114,55.0291,-1097.87,0,0
101374,55.0955,-1093.86,0,0
101634,55.2472,-1089.68,0,0
101895,55.5382,-1085.56,0,0
102155,55.9017,-1081.42,0,0
102415,56.4575,-1077.23,0,0
102676,57.309,-1073.22,0,0
102936,58.2713,-1069.53,0,0
103196,59.059,-1066.27,0,0
103457,59.5744,-1062.91,0,0
103717,60.1216,-1059.35,0,0
103977,60.8244,-1055.8,0,0
104238,61.7752,-1052.42,0,0
104498,62.8926,-1049.58,0,0
104758,63.4494,-1047.15,0,0
105019,63.6633,-1044.55,0,0
105279,63.7105,-1041.72,0,0
105539,63.9137,-1038.74,0,0
105800,64.0693,-1036.07,0,0
106060,64.0063,-1033.44,0,0
106320.175,63.7276,-1030.72,0,0
106580.5,63.3809,-1027.72,0,0
106840.825,63.0825,-1024.81,0,0
107101.15,62.5567,-1021.75,0,0
107361.475,62.2508,-1018.49,0,0
107621.8,61.9489,-1015.3,0,0
107882.125,61.5634,-1012,0,0
108142.45,61.3073,-1008.72,0,0
108402.775,60.9027,-1005.54,0,0
108663.1,60.3614,-1002.08,0,0
108923.425,59.8943,-998.417,0,0
109183.75,59.6859,-994.593,0,0
109444.075,59.6831,-990.833,0,0
109704.4,59.6817,-987.298,0,0
109964.725,59.6013,-983.727,0,0
110225.05,59.5642,-979.975,0,0
110485.375,59.6009,-976.107,0,0
110745.7,60.0257,-972.236,0,0
111006.025,60.5041,-968.557,0,0
111266.35,61.0525,-965.119,0,0
111526.675,61.5159,-961.744,0,0
111787.0,62.0985,-958.417,0,0
112047.325,62.507,-955.227,0,0
112307.65,62.9893,-951.96,0,0
112567.975,63.4078,-948.851,0,0
112828.3,63.7534,-945.719,0,0
113088.625,64.0884,-942.655,0,0
113348.95,64.3016,-939.668,0,0
113609.275,64.373,-936.409,0,0
113869.6,64.579,-933.154,0,0
114129.925,64.841,-929.958,0,0
114390.25,64.941,-926.723,0,0
114650.575,65.1145,-923.305,0,0
114910.9,65.3408,-919.853,0,0
115171.225,65.7577,-916.351,0,0
115431.55,66.2627,-912.877,0,0
115691.875,66.7844,-909.471,0,0
115952.2,67.3182,-906.105,0,0
116212.525,67.8674,-902.69,0,0
116472.85,68.5379,-899.194,0,0
116733.175,69.3824,-895.791,0,0
116993.5,70.2077,-892.519,0,0
117253.825,70.938,-889.161,0,0
117514.15,71.7524,-885.574,0,0
117774.475,73.1533,-881.78,0,0
118034.8,75.1641,-878.63,0,0
118295.125,76.8037,-876.131,0,0
118555.45,78.1728,-873.72,0,0
118815.775,79.2084,-871.284,0,0
119076.1,80.4168,-868.391,0,0
119336.425,82.1072,-865.645,0,0
119596.75,84.1022,-863.339,0,0
119857.075,86.1273,-861.603,0,0
120117.4,88.1122,-860.526,0,0
120377.725,89.1286,-860.318,0,0
120638.05,89.3592,-859.593,0,0
120898.375,89.4229,-858.927,0,0
121158.7,88.5529,-858.031,0,0
121419.025,87.4269,-856.371,0,0
121679.35,86.3711,-854.128,0,0
121939.675,85.6017,-851.384,0,0
122200.0,85.2067,-848.504,0,0
122460,85.0219,-845.605,0,0
122721,85.0509,-842.615,0,0
122981,85.4239,-839.646,0,0
123241,85.9881,-837.015,0,0
123502,86.4078,-834.614,0,0
123762,86.6747,-832.113,0,0
124022,87.0983,-829.56,0,0
124283,87.5827,-827.161,0,0
124543,88.039,-824.791,0,0
124803,88.4794,-822.521,0,0
125064,88.9072,-820.235,0,0
125324,89.3886,-817.975,0,0
125584,89.8548,-815.854,0,0
125845,90.3237,-813.841,0,0
126105,90.6805,-811.971,0,0
126365,90.8125,-810.142,0,0
126626,90.7786,-808.151,0,0
126886,90.8156,-806.038,0,0
127146,90.9026,-803.897,0,0
127406,91.0595,-801.861,0,0
127667,91.0801,-800.021,0,0
127927,90.9323,-798.115,0,0
128187,90.6708,-796.13,0,0
128448,90.2452,-794.036,0,0
128708,89.7477,-791.639,0,0
128968,89.5205,-789.056,0,0
129229,89.4768,-786.557,0,0
129489,89.4572,-784.201,0,0
129749,89.2437,-781.818,0,0
130010,89.1371,-779.083,0,0
130270,89.4442,-776.446,0,0
130530,89.7901,-774.146,0,0
130791,90.0829,-771.997,0,0
131051,90.247,-769.996,0,0
131311,90.194,-768.102,0,0
131572,89.9675,-766.119,0,0
131832,89.5682,-763.982,0,0
132092,89.2187,-761.682,0,0
132353,88.8935,-759.277,0,0
132613,88.6583,-756.831,0,0
132873,88.5385,-754.433,0,0
133134,88.3308,-752.11,0,0
133394,88.0911,-749.774,0,0
133654,87.757,-747.457,0,0
133915,87.3522,-745.021,0,0
134175,87,-742.35,0,0
134435,86.8219,-739.699,0,0
134696,86.6567,-737.207,0,0
134956,86.3421,-734.719,0,0
135216,86.0275,-732.04,0,0
135477,85.865,-729.384,0,0
135737,85.6982,-726.838,0,0
135997,85.3442,-724.287,0,0
136258,84.879,-721.591,0,0
136518,84.5362,-718.637,0,0
136778,84.3117,-715.679,0,0
137039,84.1758,-712.638,0,0
137299,84.1079,-709.635,0,0
137559,84.179,-706.504,0,0
137819,84.5167,-703.476,0,0
138080,84.8926,-700.7,0,0
138340.125,85.2005,-698.045,0,0
138600.45,85.4859,-695.417,0,0
138860.775,85.772,-693.016,0,0
139121.1,85.6879,-690.653,0,0
139381.425,85.5703,-688.108,0,0
139641.75,85.4081,-685.524,0,0
139902.075,85.198,-682.808,0,0
140162.4,85.1248,-679.96,0,0
140422.725,85.1473,-677.267,0,0
140683.05,85.0472,-674.684,0,0
140943.375,84.8061,-672.038,0,0
141203.7,84.4853,-669.269,0,0
141464.025,84.1276,-666.46,0,0
141724.35,83.6884,-663.46,0,0
141984.675,83.3122,-660.283,0,0
142245.0,83.1005,-657.047,0,0
142505.325,82.8812,-653.822,0,0
142765.65,82.7029,-650.5,0,0
143025.975,82.5605,-647.103,0,0
143286.3,82.5522,-643.673,0,0
143546.625,82.537,-640.199,0,0
143806.95,82.5891,-636.734,0,0
144067.275,82.6505,-633.23,0,0
144327.6,82.7869,-629.594,0,0
144587.925,83.0276,-625.991,0,0
144848.25,83.3333,-622.368,0,0
145108.575,83.6965,-618.753,0,0
145368.9,84.0954,-615.205,0,0
145629.225,84.456,-611.639,0,0
145889.55,84.7072,-608.019,0,0
146149.875,85.024,-604.165,0,0
146410.2,85.5433,-600.201,0,0
146670.525,86.2493,-596.366,0,0
146930.85,86.8866,-592.54,0,0
147191.175,87.6129,-588.633,0,0
147451.5,88.3993,-584.715,0,0
147711.825,89.2838,-580.783,0,0
147972.15,90.1864,-576.852,0,0
148232.475,91.1609,-572.839,0,0
148492.8,92.2475,-568.784,0,0
148753.125,93.4103,-564.745,0,0
149013.45,94.6564,-560.655,0,0
149273.775,95.9834,-556.487,0,0
149534.1,97.5155,-552.231,0,0
149794.425,99.3346,-548.036,0,0
150054.75,101.267,-544.026,0,0
150315.075,103.32,-540.079,0,0
150575.4,105.455,-536.261,0,0
150835.725,107.628,-532.506,0,0
151096.05,109.906,-528.85,0,0
151356.375,112.224,-525.281,0,0
151616.7,114.644,-521.753,0,0
151877.025,117.205,-518.413,0,0
152137.35,119.809,-515.316,0,0
152397.675,122.255,-512.437,0,0
152658.0,124.574,-509.546,0,0
152918.325,126.891,-506.686,0,0
153178.65,129.207,-503.974,0,0
153438.975,131.248,-501.334,0,0
153699.3,133.242,-498.472,0,0
153959.625,135.359,-495.571,0,0
154219.95,137.596,-492.753,0,0
154480,139.708,-490.254,0,0
154741,141.421,-487.68,0,0
155001,143.076,-484.584,0,0
155261,144.977,-481.452,0,0
155522,147.109,-478.299,0,0
155782,149.133,-475.335,0,0
156042,151.114,-472.151,0,0
156303,153.22,-468.928,0,0
156563,155.279,-465.483,0,0
156823,157.663,-461.717,0,0
157084,160.485,-458.101,0,0
157344,163.824,-454.534,0,0
157604,167.556,-451.638,0,0
157864,171.327,-449.636,0,0
158125,174.421,-448.376,0,0
158385,176.459,-447.257,0,0
158645,177.773,-445.414,0,0
158906,179.064,-443.295,0,0
159166,179.836,-440.823,0,0
159426,180.41,-437.528,0,0
159687,181.202,-433.46,0,0
159947,182.322,-428.878,0,0
160207,183.842,-423.598,0,0
160468,186.541,-417.904,0,0
160728,190.073,-412.925,0,0
160988,193.337,-408.745,0,0
161249,195.764,-403.705,0,0
161509,199.278,-397.599,0,0
161769,204.069,-391.768,0,0
162030,209.322,-386.616,0,0
162290,214.478,-381.895,0,0
162550,219.861,-376.755,0,0
162811,225.626,-372.041,0,0
163071,231.417,-367.023,0,0
163331,238.013,-361.415,0,0
163592,246.062,-356.082,0,0
163852,255.045,-351.969,0,0
164112,263.811,-348.733,0,0
164373,272.744,-345.562,0,0
164633,282.5,-342.88,0,0
164893,292.84,-340.659,0,0
165154,303.939,-339.82,0,0
165414,315.031,-340.404,0,0
165674,325.527,-342.308,0,0
165935,335.144,-344.651,0,0
166195,344.647,-347.016,0,0
166455,354.629,-350.308,0,0
166716,364.111,-354.752,0,0
166976,372.985,-360.054,0,0
167236,380.9,-366.128,0,0
167497,388.19,-372.707,0,0
167757,394.319,-379.724,0,0
168017,399.393,-386.644,0,0
168277,403.89,-393.432,0,0
168538,407.69,-399.962,0,0
168798,411.475,-406.361,0,0
169058,415.038,-413.15,0,0
169319,417.897,-420.728,0,0
169579,419.364,-428.543,0,0
169839,419.298,-436.186,0,0
170100,417.525,-442.537,0,0
170360.075,415.385,-446.902,0,0
170620.4,413.974,-449.81,0,0
170880.725,413.552,-452.666,0,0
171141.05,412.775,-455.347,0,0
171401.375,412.485,-456.842,0,0
171661.7,413.497,-458.599,0,0
171922.025,414.502,-461.248,0,0
172182.35,414.949,-464.166,0,0
172442.675,414.684,-466.326,0,0
172703.0,415.119,-467.276,0,0
172963.325,417.221,-468.501,0,0
173223.65,419.481,-471.226,0,0
173483.975,420.876,-474.465,0,0
173744.3,421.767,-477.469,0,0
174004.625,422.606,-479.973,0,0
174264.95,424.07,-482.144,0,0
174525.275,426.252,-485.149,0,0
174785.6,427.867,-489.238,0,0
175045.925,428.656,-492.986,0,0
175306.25,430.015,-496.289,0,0
175566.575,432.282,-500.415,0,0
175826.9,434.194,-506.369,0,0
176087.225,434.28,-513.199,0,0
176347.55,433.287,-519.697,0,0
176607.875,432.002,-526.15,0,0
176868.2,429.659,-533.79,0,0
177128.525,424.701,-541.594,0,0
177388.85,417.296,-547.231,0,0
177649.175,409.703,-550.245,0,0
177909.5,402.892,-552.273,0,0
178169.825,395.215,-553.679,0,0
178430.15,387.28,-552.591,0,0
178690.475,380.903,-549.637,0,0
178950.8,376.13,-546.147,0,0
179211.125,372.413,-542.471,0,0
179471.45,369.683,-538.601,0,0
179731.775,367.917,-534.606,0,0
179992.1,367.417,-530.869,0,0
180252.425,367.638,-528.01,0,0
180512.75,368.03,-525.519,0,0
180773.075,368.955,-523.384,0,0
181033.4,370.193,-521.94,0,0
181293.725,371.754,-521.034,0,0
181554.05,373.224,-521.037,0,0
181814.375,374.487,-521.46,0,0
182074.7,375.482,-522.854,0,0
182335.025,375.512,-524.721,0,0
182595.35,374.932,-526.399,0,0
182855.675,373.783,-528.106,0,0
183116.0,372.218,-529.486,0,0
183376.325,370.47,-530.634,0,0
183636.65,368.447,-531.831,0,0
183896.975,365.769,-532.917,0,0
184157.3,362.707,-533.331,0,0
184417.625,359.846,-533.436,0,0
184677.95,356.451,-533.671,0,0
184938.275,352.351,-532.942,0,0
185198.6,348.66,-531.302,0,0
185458.925,345.274,-529.446,0,0
185719.25,341.798,-527.267,0,0
185979.575,338.271,-524.443,0,0
186239.9,335.012,-520.87,0,0
186500,332.328,-516.497,0,0
186761,330.794,-511.826,0,0
187021,330.117,-507.531,0,0
187281,329.694,-503.787,0,0
187542,329.165,-500.286,0,0
187802,328.676,-496.597,0,0
188062,328.496,-492.782,0,0
188322,328.703,-489.256,0,0
188583,328.749,-486.092,0,0
188843,328.377,-482.752,0,0
189103,328.007,-478.718,0,0
189364,328.307,-474.215,0,0
189624,329.346,-469.843,0,0
189884,330.714,-465.729,0,0
190145,332.402,-461.933,0,0
190405,334.17,-458.432,0,0
190665,336.024,-455.022,0,0
190926,337.953,-451.858,0,0
191186,339.888,-448.941,0,0
191446,341.591,-446.154,0,0
191707,343.1,-443.218,0,0
191967,344.734,-440.081,0,0
192227,346.456,-437.025,0,0
192488,347.907,-433.761,0,0
192748,349.538,-429.994,0,0
193008,351.537,-425.806,0,0
193269,354.154,-421.372,0,0
193529,357.677,-417.026,0,0
193789,361.796,-413.273,0,0
194050,365.993,-410.105,0,0
194310,370.256,-407.248,0,0
194570,374.44,-404.653,0,0
194831,378.665,-402.002,0,0
195091,383.028,-399.356,0,0
195351,387.709,-396.712,0,0
195612,392.899,-394.118,0,0
195872,398.911,-392.009,0,0
196132,405.36,-390.851,0,0
196393,411.688,-390.716,0,0
196653,417.667,-391.414,0,0
196913,423.034,-392.914,0,0
197174,427.396,-394.913,0,0
197434,431.189,-396.156,0,0
197694,435.219,-397.46,0,0
197955,438.965,-399.417,0,0
198215,441.884,-401.583,0,0
198475,444.156,-403.435,0,0
198735,445.89,-405.054,0,0
198996,447.061,-406.058,0,0
199256,448.326,-406.274,0,0
199516,449.949,-406.33,0,0
199777,451.527,-406.408,0,0
200037,452.82,-406.378,0,0
200297,453.714,-406.016,0,0
200558,454.272,-404.608,0,0
200818,455.477,-401.926,0,0
201078,458.023,-398.822,0,0
201339,461.465,-396.097,0,0
201599,465.363,-393.693,0,0
201859,469.524,-391.413,0,0
202120,474.142,-389.16,0,0
202380.025,479.439,-387.005,0,0
202640.35,485.685,-385.514,0,0
202900.675,492.088,-385.084,0,0
203161.0,498.214,-385.307,0,0
203421.325,504.094,-385.822,0,0
203681.65,509.907,-386.455,0,0
203941.975,516.137,-387.263,0,0
204202.3,522.593,-388.927,0,0
204462.625,528.78,-391.561,0,0
204722.95,534.217,-394.997,0,0
204983.275,538.65,-398.579,0,0
205243.6,542.203,-402.067,0,0
205503.925,544.82,-405.091,0,0
205764.25,547.125,-406.983,0,0
206024.575,550.09,-408.497,0,0
206284.9,552.601,-410.12,0,0
206545.225,554.906,-410.905,0,0
206805.55,557.581,-410.859,0,0
207065.875,561.305,-410.229,0,0
207326.2,565.963,-409.774,0,0
207586.525,571.057,-409.896,0,0
207846.85,576.359,-409.939,0,0
208107.175,582.409,-409.826,0,0
208367.5,589.393,-410.308,0,0
208627.825,596.939,-411.754,0,0
208888.15,604.647,-414.345,0,0
209148.475,611.839,-417.882,0,0
209408.8,618.323,-421.718,0,0
209669.125,624.61,-425.367,0,0
209929.45,631.169,-429.224,0,0
210189.775,637.79,-433.606,0,0
210450.1,644.196,-438.256,0,0
210710.425,650.59,-443.14,0,0
210970.75,657.113,-448.508,0,0
211231.075,663.537,-454.512,0,0
211491.4,669.537,-461.25,0,0
211751.725,674.789,-468.208,0,0
212012.05,679.484,-474.94,0,0
212272.375,684.319,-481.396,0,0
212532.7,689.515,-488.126,0,0
212793.025,694.739,-495.469,0,0
213053.35,699.827,-503.396,0,0
213313.675,704.545,-512.085,0,0
213574.0,708.318,-521.421,0,0
213834.325,711.224,-530.677,0,0
214094.65,713.706,-539.781,0,0
214354.975,715.738,-548.889,0,0
214615.3,717.157,-557.706,0,0
214875.625,718.392,-566.222,0,0
215135.95,719.639,-574.656,0,0
215396.275,720.999,-583.21,0,0
215656.6,722.044,-591.955,0,0
215916.925,722.853,-600.774,0,0
216177.25,723.353,-609.711,0,0
216437.575,723.815,-618.758,0,0
216697.9,723.913,-628.323,0,0
216958.225,723.317,-638.024,0,0
217218.55,722.101,-647.726,0,0
217478.875,720.238,-657.335,0,0
217739.2,717.738,-666.762,0,0
217999.525,714.647,-675.585,0,0
218259.85,711.456,-683.793,0,0
218520,708.321,-691.766,0,0
218780,704.895,-699.209,0,0
219041,701.643,-706.47,0,0
219301,698.489,-713.581,0,0
219561,695.373,-720.63,0,0
219822,692.371,-727.629,0,0
220082,689.364,-734.781,0,0
220342,686.394,-741.952,0,0
220603,683.462,-749.545,0,0
220863,680.187,-757.649,0,0
221123,676.269,-765.9,0,0
221384,671.987,-774.148,0,0
221644,667.341,-782.706,0,0
221904,662.002,-791.588,0,0
222165,655.484,-800.459,0,0
222425,647.73,-808.992,0,0
222685,638.921,-816.171,0,0
222946,629.785,-822.509,0,0
223206,620.475,-827.899,0,0
223466,610.648,-832.229,0,0
223727,601.181,-835.145,0,0
223987,592.247,-837.523,0,0
224247,583.758,-839.141,0,0
224508,575.624,-840.048,0,0
224768,568.297,-840.43,0,0
225028,561.627,-840.41,0,0
225289,555.827,-840.597,0,0
225549,550.55,-840.73,0,0
225809,545.684,-841.266,0,0
226070,541.119,-841.956,0,0
226330,536.753,-842.888,0,0
226590,532.602,-844.016,0,0
226851,528.555,-845.315,0,0
227111,524.736,-847.047,0,0
227371,520.828,-849.52,0,0
227632,516.156,-852.266,0,0
227892,510.823,-854.906,0,0
228152,505.249,-857.012,0,0
228413,499.48,-858.714,0,0
228673,493.827,-860.046,0,0
228933,488.362,-861.098,0,0
229193,483.286,-862.14,0,0
229454,478.149,-863.261,0,0
229714,473.105,-864.624,0,0
229974,467.591,-866.081,0,0
230235,461.904,-867.247,0,0
230495,456.058,-868.133,0,0
230755,450.117,-868.632,0,0
231016,444.413,-868.839,0,0
231276,438.849,-868.914,0,0
231536,433.334,-868.824,0,0
231797,427.901,-868.55,0,0
232057,422.706,-868.188,0,0
232317,417.543,-867.792,0,0
232578,412.496,-867.264,0,0
232838,407.644,-866.644,0,0
233098,402.891,-866.139,0,0
233359,398.116,-865.646,0,0
233619,393.388,-865.02,0,0
233879,388.618,-864.353,0,0
234140,383.984,-863.555,0,0
234400,379.517,-862.71,0,0
234660.3,375.288,-861.901,0,0
234920.625,370.981,-861.254,0,0
235180.95,366.708,-860.749,0,0
235441.275,362.369,-860.317,0,0
235701.6,357.777,-859.95,0,0
235961.925,352.923,-859.54,0,0
236222.25,347.858,-858.819,0,0
236482.575,342.756,-857.722,0,0
236742.9,337.879,-856.417,0,0
237003.225,333.14,-855.087,0,0
237263.55,328.344,-853.781,0,0
237523.875,323.417,-852.432,0,0
237784.2,318.412,-850.799,0,0
238044.525,313.387,-848.776,0,0
238304.85,308.537,-846.528,0,0
238565.175,303.982,-844.142,0,0
238825.5,299.443,-841.658,0,0
239085.825,295.045,-839.09,0,0
239346.15,290.838,-836.426,0,0
239606.475,286.747,-833.606,0,0
239866.8,282.751,-830.733,0,0
240127.125,278.854,-827.841,0,0
240387.45,275.103,-825.029,0,0
240647.775,271.277,-821.957,0,0
240908.1,267.66,-818.732,0,0
241168.425,264.097,-815.402,0,0
241428.75,260.673,-811.891,0,0
241689.075,257.484,-808.086,0,0
241949.4,254.548,-804.225,0,0
242209.725,252.055,-800.185,0,0
242470.05,249.813,-796.327,0,0
242730.375,248.021,-792.415,0,0
242990.7,246.685,-788.764,0,0
243251.025,245.645,-785.518,0,0
243511.35,244.598,-782.775,0,0
243771.675,243.403,-780.402,0,0
244032.0,241.878,-778.203,0,0
244292.325,240.075,-776.01,0,0
244552.65,238.047,-773.585,0,0
244812.975,235.984,-770.907,0,0
245073.3,234.202,-768.015,0,0
245333.625,232.407,-765.145,0,0
245593.95,230.793,-762.178,0,0
245854.275,229.38,-759.228,0,0
246114.6,227.978,-756.314,0,0
246374.925,226.701,-753.403,0,0
246635.25,225.579,-750.486,0,0
246895.575,224.626,-747.675,0,0
247155.9,223.736,-745.015,0,0
247416.225,222.671,-742.473,0,0
247676.55,221.606,-739.787,0,0
247936.875,220.563,-737.014,0,0
248197.2,219.73,-734.082,0,0
248457.525,219.114,-731.08,0,0
248717.85,218.848,-728.095,0,0
248978.175,218.862,-725.311,0,0
249238.5,219.119,-722.809,0,0
249498.825,219.405,-720.714,0,0
249759.15,219.607,-718.924,0,0
250019.475,219.665,-717.317,0,0
250279.8,219.629,-715.938,0,0
250540,219.451,-714.616,0,0
250800,219.014,-713.43,0,0
251061,218.435,-712.204,0,0
251321,217.751,-711.009,0,0
251581,216.963,-709.812,0,0
251842,215.967,-708.609,0,0
252102,214.811,-707.294,0,0
252362,213.487,-705.838,0,0
252623,212.138,-704.127,0,0
252883,210.908,-702.303,0,0
253143,209.7,-700.447,0,0
253404,208.331,-698.561,0,0
253664,206.875,-696.446,0,0
253924,205.431,-694.07,0,0
254185,204.101,-691.365,0,0
254445,203.044,-688.566,0,0
254705,202.127,-685.648,0,0
254966,201.372,-682.762,0,0
255226,200.718,-679.725,0,0
255486,200.161,-676.436,0,0
255747,200.009,-673.071,0,0
256007,200.139,-669.65,0,0
256267,200.484,-666.35,0,0
256528,201.263,-663.06,0,0
256788,202.166,-659.917,0,0
257048,203.321,-656.974,0,0
257309,204.6,-654.182,0,0
257569,206.001,-651.591,0,0
257829,207.415,-649.151,0,0
258090,208.898,-646.74,0,0
258350,210.485,-644.349,0,0
258610,212.289,-642.01,0,0
258871,214.281,-639.737,0,0
259131,216.57,-637.633,0,0
259391,219.12,-635.702,0,0
259651,221.78,-634.093,0,0
259912,224.632,-632.792,0,0
260172,227.49,-631.598,0,0
260432,230.58,-630.644,0,0
260693,234.004,-629.982,0,0
260953,237.78,-629.802,0,0
261213,241.769,-630.411,0,0
261474,245.543,-632.001,0,0
261734,248.769,-634.248,0,0
261994,251.489,-636.96,0,0
262255,253.506,-639.979,0,0
262515,254.907,-643.16,0,0
262775,255.728,-646.362,0,0
263036,256.073,-649.422,0,0
263296,256.115,-652.371,0,0
263556,255.833,-655.31,0,0
263817,255.2,-658.156,0,0
264077,254.218,-660.989,0,0
264337,252.818,-663.563,0,0
264598,251.238,-665.957,0,0
264858,249.541,-668.059,0,0
265118,247.595,-670.176,0,0
265379,245.44,-672.257,0,0
265639,242.93,-674.083,0,0
265899,240.172,-675.7,0,0
266160,237.114,-677.032,0,0
266420,233.872,-677.986,0,0
266680.25,230.473,-678.568,0,0
266940.575,226.93,-678.67,0,0
267200.9,223.453,-678.29,0,0
267461.225,220.124,-677.482,0,0
267721.55,217.004,-676.282,0,0
267981.875,214.242,-674.906,0,0
268242.2,211.717,-673.362,0,0
268502.525,209.427,-671.802,0,0
268762.85,207.206,-670.114,0,0
269023.175,205.197,-668.389,0,0
269283.5,203.315,-666.578,0,0
269543.825,201.542,-664.648,0,0
269804.15,199.977,-662.677,0,0
270064.475,198.512,-660.641,0,0
270324.8,197.295,-658.574,0,0
270585.125,196.248,-656.45,0,0
270845.45,195.42,-654.333,0,0
271105.775,194.677,-652.383,0,0
271366.1,194.089,-650.418,0,0
271626.425,193.66,-648.638,0,0
271886.75,193.268,-646.942,0,0
272147.075,192.944,-645.428,0,0
272407.4,192.497,-644.045,0,0
272667.725,191.886,-642.608,0,0
272928.05,191.221,-641.1,0,0
273188.375,190.558,-639.456,0,0
273448.7,189.99,-637.651,0,0
273709.025,189.496,-635.752,0,0
273969.35,189.215,-633.839,0,0
274229.675,188.987,-631.864,0,0
274490.0,188.877,-629.847,0,0
274750.325,188.951,-627.793,0,0
275010.65,189.183,-625.767,0,0
275270.975,189.587,-623.724,0,0
275531.3,190.183,-621.716,0,0
275791.625,190.913,-619.769,0,0
276051.95,191.876,-617.873,0,0
276312.275,193.098,-616.133,0,0
276572.6,194.442,-614.541,0,0
276832.925,195.956,-613.192,0,0
277093.25,197.575,-612.106,0,0
277353.575,199.236,-611.265,0,0
277613.9,200.89,-610.647,0,0
277874.225,202.52,-610.214,0,0
278134.55,204.173,-609.974,0,0
278394.875,205.837,-609.948,0,0
278655.2,207.459,-610.192,0,0
278915.525,208.973,-610.695,0,0
279175.85,210.315,-611.381,0,0
279436.175,211.498,-612.23,0,0
279696.5,212.551,-613.181,0,0
279956.825,213.409,-614.279,0,0
280217.15,214.084,-615.614,0,0
280477.475,214.477,-616.936,0,0
280737.8,214.655,-618.296,0,0
280998.125,214.605,-619.653,0,0
281258.45,214.445,-620.926,0,0
281518.775,214.104,-622.215,0,0
281779.1,213.596,-623.496,0,0
282039.425,212.862,-624.666,0,0
282299.75,212.039,-625.72,0,0
282560,211.068,-626.717,0,0
282820,210.078,-627.659,0,0
283081,208.881,-628.494,0,0
283341,207.6,-629.172,0,0
283601,206.216,-629.679,0,0
283862,204.862,-630.018,0,0
284122,203.525,-630.269,0,0
284382,202.204,-630.466,0,0
284643,200.848,-630.631,0,0
284903,199.39,-630.671,0,0
285163,197.951,-630.565,0,0
285424,196.542,-630.288,0,0
285684,195.189,-629.952,0,0
285944,193.868,-629.535,0,0
286205,192.59,-629.034,0,0
286465,191.395,-628.419,0,0
286725,190.259,-627.74,0,0
286986,189.248,-626.979,0,0
287246,188.36,-626.204,0,0
287506,187.574,-625.476,0,0
287767,186.838,-624.787,0,0
288027,186.115,-624.121,0,0
288287,185.397,-623.432,0,0
288548,184.733,-622.676,0,0
288808,184.188,-621.882,0,0
289068,183.806,-621.079,0,0
289329,183.607,-620.355,0,0
289589,183.513,-619.879,0,0
289849,183.412,-619.603,0,0
290109,183.261,-619.499,0,0
290370,182.927,-619.539,0,0
290630,182.472,-619.663,0,0
290890,181.827,-619.774,0,0
291151,181.022,-619.845,0,0
291411,180.145,-619.911,0,0
291671,179.189,-619.907,0,0
291932,178.106,-619.835,0,0
292192,176.887,-619.678,0,0
292452,175.58,-619.326,0,0
292713,174.273,-618.783,0,0
292973,172.985,-618.019,0,0
293233,171.842,-617.079,0,0
293494,170.833,-616.054,0,0
293754,169.988,-614.954,0,0
294014,169.302,-613.833,0,0
294275,168.72,-612.697,0,0
294535,168.321,-611.602,0,0
294795,168.066,-610.499,0,0
295056,168.007,-609.504,0,0
295316,167.946,-608.654,0,0
295576,168.016,-607.948,0,0
295837,168.128,-607.375,0,0
296097,168.191,-606.932,0,0
296357,168.254,-606.608,0,0
296618,168.268,-606.379,0,0
296878,168.22,-606.231,0,0
297138,168.132,-606.16,0,0
297399,167.94,-606.163,0,0
297659,167.69,-606.218,0,0
297919,167.329,-606.277,0,0
298180,166.92,-606.346,0,0
298440,166.427,-606.402,0,0
298700.2,165.903,-606.443,0,0
298960.525,165.347,-606.501,0,0
299220.85,164.77,-606.571,0,0
299481.175,164.1,-606.643,0,0
299741.5,163.4,-606.748,0,0
300001.825,162.618,-606.83,0,0
300262.15,161.782,-606.876,0,0
300522.475,160.85,-606.895,0,0
300782.8,159.891,-606.873,0,0
301043.125,158.883,-606.8,0,0
301303.45,157.84,-606.709,0,0
301563.775,156.738,-606.577,0,0
301824.1,155.568,-606.363,0,0
302084.425,154.376,-606.06,0,0
302344.75,153.175,-605.713,0,0
302605.075,151.969,-605.254,0,0
302865.4,150.788,-604.724,0,0
303125.725,149.66,-604.132,0,0
303386.05,148.539,-603.518,0,0
303646.375,147.453,-602.876,0,0
303906.7,146.361,-602.196,0,0
304167.025,145.296,-601.451,0,0
304427.35,144.228,-600.688,0,0
304687.675,143.202,-599.84,0,0
304948.0,142.176,-598.955,0,0
305208.325,141.239,-598.033,0,0
305468.65,140.344,-597.086,0,0
305728.975,139.517,-596.094,0,0
305989.3,138.752,-595.123,0,0
306249.625,138.013,-594.154,0,0
306509.95,137.29,-593.163,0,0
306770.275,136.593,-592.165,0,0
307030.6,135.96,-591.128,0,0
307290.925,135.383,-590.08,0,0
307551.25,134.875,-589.059,0,0
307811.575,134.427,-588.06,0,0
308071.9,134.016,-587.067,0,0
308332.225,133.666,-586.12,0,0
308592.55,133.36,-585.2,0,0
308852.875,133.073,-584.333,0,0
309113.2,132.818,-583.518,0,0
309373.525,132.579,-582.74,0,0
309633.85,132.372,-582.03,0,0
309894.175,132.169,-581.376,0,0
310154.5,131.942,-580.79,0,0
310414.825,131.744,-580.257,0,0
310675.15,131.454,-579.81,0,0
310935.475,131.125,-579.414,0,0
311195.8,130.719,-579.055,0,0
311456.125,130.227,-578.691,0,0
311716.45,129.663,-578.343,0,0
311976.775,129.02,-577.964,0,0
312237.1,128.339,-577.553,0,0
312497.425,127.578,-577.112,0,0
312757.75,126.749,-576.611,0,0
313018.075,125.874,-576.015,0,0
313278.4,124.967,-575.351,0,0
313538.725,124.048,-574.552,0,0
313799.05,123.145,-573.657,0,0
314059.375,122.28,-572.688,0,0
314319.7,121.466,-571.599,0,0
314580,120.736,-570.431,0,0
314840,120.073,-569.218,0,0
315101,119.577,-567.935,0,0
315361,119.183,-566.772,0,0
315621,118.877,-565.447,0,0
315882,118.651,-564.25,0,0
316142,118.565,-563.057,0,0
316402,118.467,-561.946,0,0
316663,118.423,-560.915,0,0
316923,118.466,-559.913,0,0
317183,118.459,-559.038,0,0
317444,118.426,-558.175,0,0
317704,118.487,-557.337,0,0
317964,118.543,-556.545,0,0
318225,118.543,-555.842,0,0
318485,118.6,-555.071,0,0
318745,118.577,-554.328,0,0
319006,118.557,-553.675,0,0
319266,118.578,-553.041,0,0
319526,118.609,-552.362,0,0
319787,118.587,-551.736,0,0
320047,118.604,-551.079,0,0
320307,118.524,-550.503,0,0
320567,118.445,-549.888,0,0
320828,118.442,-549.214,0,0
321088,118.568,-548.47,0,0
321348,118.711,-547.762,0,0
321609,118.827,-547.139,0,0
321869,119.071,-546.517,0,0
322129,119.381,-545.994,0,0
322390,119.727,-545.498,0,0
322650,120.098,-545.112,0,0
322910,120.56,-544.842,0,0
323171,120.95,-544.751,0,0
323431,121.244,-544.746,0,0
323691,121.574,-544.806,0,0
323952,121.771,-544.98,0,0
324212,121.825,-545.264,0,0
324472,121.818,-545.568,0,0
324733,121.733,-545.92,0,0
324993,121.464,-546.232,0,0
325253,121.201,-546.578,0,0
325514,120.724,-546.928,0,0
325774,120.19,-547.232,0,0
326034,119.553,-547.458,0,0
326295,118.954,-547.708,0,0
326555,118.275,-547.878,0,0
326815,117.486,-548.032,0,0
327076,116.514,-548.058,0,0
327336,115.69,-548.077,0,0
327596,114.793,-548.036,0,0
327857,113.945,-547.865,0,0
328117,112.88,-547.702,0,0
328377,111.976,-547.462,0,0
328638,110.992,-547.213,0,0
328898,110.121,-546.865,0,0
329158,109.176,-546.417,0,0
329419,108.226,-545.974,0,0
329679,107.443,-545.555,0,0
329939,106.541,-545.074,0,0
330200,105.67,-544.579,0,0
330460,104.85,-544.145,0,0
330720.15,104.019,-543.681,0,0
330980.475,103.122,-543.222,0,0
331240.8,102.255,-542.686,0,0
331501.125,101.342,-542.072,0,0
331761.45,100.395,-541.605,0,0
332021.775,99.4526,-540.901,0,0
332282.1,98.5271,-540.329,0,0
332542.425,97.6092,-539.592,0,0
332802.75,96.682,-538.852,0,0
333063.075,95.7339,-538.145,0,0
333323.4,94.8537,-537.361,0,0
333583.725,93.928,-536.533,0,0
333844.05,93.0143,-535.692,0,0
334104.375,92.1868,-534.765,0,0
334364.7,91.3411,-533.878,0,0
334625.025,90.4749,-532.845,0,0
334885.35,89.65,-531.879,0,0
335145.675,88.8339,-530.864,0,0
335406.0,88.0477,-529.784,0,0
335666.325,87.295,-528.705,0,0
335926.65,86.5989,-527.519,0,0
336186.975,85.9017,-526.354,0,0
336447.3,85.3211,-525.194,0,0
336707.625,84.8265,-524.048,0,0
336967.95,84.2287,-522.832,0,0
337228.275,83.7397,-521.723,0,0
337488.6,83.2242,-520.453,0,0
337748.925,82.7566,-519.275,0,0
338009.25,82.3714,-518.081,0,0
338269.575,81.9505,-516.869,0,0
338529.9,81.5264,-515.685,0,0
338790.225,81.1995,-514.483,0,0
339050.55,80.777,-513.273,0,0
339310.875,80.4272,-511.982,0,0
339571.2,80.1862,-510.685,0,0
339831.525,79.8319,-509.342,0,0
340091.85,79.6529,-507.937,0,0
340352.175,79.5612,-506.589,0,0
340612.5,79.4078,-505.163,0,0
340872.825,79.4724,-503.794,0,0
341133.15,79.5426,-502.352,0,0
341393.475,79.7884,-501.014,0,0
341653.8,80.0748,-499.682,0,0
341914.125,80.4182,-498.402,0,0
342174.45,80.8919,-497.237,0,0
342434.775,81.3694,-496.131,0,0
342695.1,81.8792,-495.159,0,0
342955.425,82.4765,-494.21,0,0
343215.75,83.0447,-493.419,0,0
343476.075,83.5856,-492.728,0,0
343736.4,84.088,-492.1,0,0
343996.725,84.5758,-491.61,0,0
344257.05,85.0497,-491.175,0,0
344517.375,85.3764,-490.708,0,0
344777.7,85.7131,-490.34,0,0
345038.025,85.9917,-490.015,0,0
345298.35,86.1675,-489.692,0,0
345558.675,86.3582,-489.348,0,0
345819.0,86.4758,-489.046,0,0
346079.325,86.4808,-488.836,0,0
346339.65,86.5205,-488.66,0,0
346599.975,86.3829,-488.276,0,0
346860,86.1553,-487.991,0,0
347121,86.0121,-487.673,0,0
347381,85.7306,-487.227,0,0
347641,85.4463,-486.789,0,0
347902,85.1969,-486.271,0,0
348162,84.8686,-485.685,0,0
348422,84.5982,-485.02,0,0
348683,84.2695,-484.312,0,0
348943,84.0914,-483.55,0,0
349203,83.9502,-482.718,0,0
349464,83.8592,-481.851,0,0
349724,83.788,-480.947,0,0
349984,83.8704,-480.134,0,0
350245,83.9987,-479.261,0,0
350505,84.132,-478.471,0,0
350765,84.442,-477.715,0,0
351025,84.7539,-477.015,0,0
351286,85.1098,-476.407,0,0
351546,85.467,-475.91,0,0
351806,85.8176,-475.476,0,0
352067,86.093,-475.105,0,0
352327,86.3762,-474.838,0,0
352587,86.5458,-474.547,0,0
352848,86.7473,-474.32,0,0
353108,86.8309,-474.171,0,0
353368,86.9047,-474.011,0,0
353629,86.9029,-473.881,0,0
353889,86.7812,-473.692,0,0
354149,86.6705,-473.581,0,0
354410,86.4504,-473.319,0,0
354670,86.1958,-473.051,0,0
354930,85.9885,-472.743,0,0
355191,85.7189,-472.406,0,0
355451,85.4459,-472.078,0,0
355711,85.1766,-471.734,0,0
355972,84.859,-471.293,0,0
356232,84.5758,-470.909,0,0
356492,84.2534,-470.413,0,0
356753,83.8652,-469.902,0,0
357013,83.6216,-469.375,0,0
357273,83.2216,-468.795,0,0
357534,82.9694,-468.183,0,0
357794,82.6748,-467.476,0,0
358054,82.4626,-466.768,0,0
358315,82.3227,-466.027,0,0
358575,82.181,-465.33,0,0
358835,82.1152,-464.59,0,0
359096,82.0955,-463.957,0,0
359356,82.1641,-463.287,0,0
359616,82.1886,-462.623,0,0
359877,82.2132,-462.044,0,0
360137,82.2412,-461.545,0,0
360397,82.2888,-461.021,0,0
360658,82.3203,-460.495,0,0
360918,82.2769,-460.093,0,0
361178,82.2432,-459.641,0,0
361438,82.1162,-459.152,0,0
361699,81.9785,-458.712,0,0
361959,81.8374,-458.171,0,0
362219,81.7007,-457.641,0,0
362480,81.5361,-457.021,0,0
362740.1,81.414,-456.346,0,0
363000.425,81.3548,-455.63,0,0
363260.75,81.3245,-454.923,0,0
363521.075,81.4133,-454.199,0,0
363781.4,81.5584,-453.496,0,0
364041.725,81.7539,-452.803,0,0
364302.05,81.9429,-452.242,0,0
364562.375,82.1792,-451.623,0,0
364822.7,82.4351,-451.146,0,0
365083.025,82.7109,-450.72,0,0
365343.35,83.0104,-450.244,0,0
365603.675,83.3385,-449.92,0,0
365864.0,83.5786,-449.667,0,0
366124.325,83.8794,-449.448,0,0
366384.65,84.0603,-449.366,0,0
366644.975,84.211,-449.353,0,0
366905.3,84.2067,-449.321,0,0
367165.625,84.1576,-449.357,0,0
367425.95,83.9926,-449.365,0,0
367686.275,83.7053,-449.296,0,0
367946.6,83.3057,-449.235,0,0
368206.925,82.8592,-449.101,0,0
368467.25,82.3137,-448.809,0,0
368727.575,81.8058,-448.394,0,0
368987.9,81.3061,-447.873,0,0
369248.225,80.8517,-447.273,0,0
369508.55,80.4309,-446.499,0,0
369768.875,80.1274,-445.657,0,0
370029.2,79.8768,-444.794,0,0
370289.525,79.8671,-443.989,0,0
370549.85,79.9422,-443.078,0,0
370810.175,80.1438,-442.335,0,0
371070.5,80.4308,-441.605,0,0
371330.825,80.7487,-441.068,0,0
371591.15,81.0827,-440.58,0,0
371851.475,81.3835,-440.302,0,0
372111.8,81.6573,-440.107,0,0
372372.125,81.8643,-439.942,0,0
372632.45,81.9321,-439.881,0,0
372892.775,81.9489,-439.846,0,0
373153.1,81.7952,-439.8,0,0
373413.425,81.5582,-439.706,0,0
373673.75,81.246,-439.558,0,0
373934.075,80.8764,-439.307,0,0
374194.4,80.5457,-439.025,0,0
374454.725,80.129,-438.584,0,0
374715.05,79.7728,-438.159,0,0
374975.375,79.4038,-437.666,0,0
375235.7,79.0809,-437.139,0,0
375496.025,78.7365,-436.577,0,0
375756.35,78.4451,-435.934,0,0
376016.675,78.1835,-435.199,0,0
376277.0,77.9658,-434.561,0,0
376537.325,77.8384,-433.831,0,0
376797.65,77.7269,-433.104,0,0
377057.975,77.6353,-432.396,0,0
377318.3,77.5817,-431.715,0,0
377578.625,77.5816,-430.994,0,0
377838.95,77.6201,-430.254,0,0
378099.275,77.7326,-429.568,0,0
378359.6,77.8958,-428.855,0,0
378619.925,78.0857,-428.217,0,0
378880,78.3263,-427.655,0,0
379141,78.5884,-427.092,0,0
379401,78.8574,-426.639,0,0
379661,79.0996,-426.219,0,0
379922,79.3805,-425.922,0,0
380182,79.6081,-425.585,0,0
380442,79.7855,-425.313,0,0
380703,79.9723,-425.132,0,0
380963,80.031,-424.935,0,0
381223,80.0647,-424.685,0,0
381483,80.0445,-424.451,0,0
381744,80.0285,-424.248,0,0
382004,80.0056,-424.025,0,0
382264,79.9976,-423.711,0,0
382525,79.9773,-423.524,0,0
382785,79.9575,-423.271,0,0
383045,79.8871,-423.071,0,0
383306,79.7623,-422.9,0,0
383566,79.6163,-422.735,0,0
383826,79.4146,-422.565,0,0
384087,79.186,-422.315,0,0
384347,78.8809,-422.075,0,0
384607,78.5808,-421.824,0,0
384868,78.2711,-421.518,0,0
385128,77.9353,-421.137,0,0
385388,77.6658,-420.732,0,0
385649,77.3032,-420.305,0,0
385909,76.9549,-419.893,0,0
386169,76.6382,-419.437,0,0
386430,76.2705,-418.914,0,0
386690,75.9483,-418.36,0,0
386950,75.5931,-417.785,0,0
387211,75.2537,-417.142,0,0
387471,74.9419,-416.508,0,0
387731,74.6585,-415.82,0,0
387992,74.3775,-415.069,0,0
388252,74.1548,-414.306,0,0
388512,73.8673,-413.499,0,0
388773,73.6989,-412.694,0,0
389033,73.5631,-411.848,0,0
389293,73.5054,-410.95,0,0
389554,73.4046,-410.035,0,0
389814,73.447,-409.128,0,0
390074,73.5247,-408.189,0,0
390335,73.6268,-407.251,0,0
390595,73.8416,-406.361,0,0
390855,74.0873,-405.421,0,0
391116,74.4125,-404.613,0,0
391376,74.8504,-403.744,0,0
391636,75.2224,-402.994,0,0
391896,75.7299,-402.263,0,0
392157,76.2001,-401.6,0,0
392417,76.727,-400.99,0,0
392677,77.2719,-400.494,0,0
392938,77.7924,-400.007,0,0
393198,78.3227,-399.574,0,0
393458,78.8026,-399.186,0,0
393719,79.238,-398.874,0,0
393979,79.6941,-398.56,0,0
394239,80.1311,-398.208,0,0
394500,80.5553,-397.984,0,0
394760.05,80.9314,-397.692,0,0
395020.375,81.3819,-397.479,0,0
395280.7,81.8104,-397.27,0,0
395541.025,82.2159,-397.101,0,0
395801.35,82.6257,-396.967,0,0
396061.675,82.9795,-396.873,0,0
396322.0,83.3421,-396.785,0,0
396582.325,83.6648,-396.724,0,0
396842.65,83.9737,-396.714,0,0
397102.975,84.2419,-396.738,0,0
397363.3,84.5045,-396.714,0,0
397623.625,84.7374,-396.763,0,0
397883.95,84.9616,-396.833,0,0
398144.275,85.1205,-396.872,0,0
398404.6,85.301,-396.945,0,0
398664.925,85.4364,-397.046,0,0
398925.25,85.4879,-397.16,0,0
399185.575,85.5395,-397.338,0,0
399445.9,85.5731,-397.469,0,0
399706.225,85.5115,-397.619,0,0
399966.55,85.3883,-397.779,0,0
400006.6,85.3325,-397.816,0,0