File: Accelerated corrosion test data/2025-10-20_06-00-03/sample_4.csv
Frequency (Hz),Impedance (ohms),Phase (Radians),Temperature (C),Humidity (%)
10000.0,261.988,-11980.3,0,0
10260.325,259.496,-11680.6,0,0
10520.65,249.431,-11392.4,0,0
10780.975,243.406,-11119.7,0,0
11041.3,238.801,-10858.5,0,0
11301.625,232.841,-10613.4,0,0
11561.95,227.879,-10374.9,0,0
11822.275,223.192,-10148.1,0,0
12082.6,218.403,-9931.18,0,0
12342.925,213.883,-9722.4,0,0
12603.25,212.677,-9521.62,0,0
12863.575,207.34,-9332.9,0,0
13123.9,205.55,-9153.39,0,0
13384.225,198.294,-8972.25,0,0
13644.55,195.161,-8799.19,0,0
13904.875,192.901,-8631.22,0,0
14165.2,194.998,-8466.2,0,0
14425.525,199.934,-8315.28,0,0
14685.8,194.914,-8204.46,0,0
14946.175,180.833,-8046.63,0,0
15206.5,180.392,-7900.2,0,0
15466.825,197.263,-7751.87,0,0
15727.15,186.546,-7657.4,0,0
15987.5,182.908,-7539.97,0,0
16247.8,169.917,-7408.67,0,0
16508.125,196.33,-7286.79,0,0
16768.45,181.528,-7182.11,0,0
17028.775,166.308,-7089.29,0,0
17289.1,159.123,-6975.12,0,0
17549.425,157.692,-6870.68,0,0
17809.75,155.327,-6769.54,0,0
18070.075,151.164,-6669.11,0,0
18330.4,153.165,-6573.88,0,0
18590.725,151.804,-6484.57,0,0
18851.05,148.868,-6397.65,0,0
19111.375,144.549,-6308.36,0,0
19371.7,142.01,-6222.19,0,0
19632.025,141.13,-6137.25,0,0
19892.35,144.047,-6056.34,0,0
20152.675,142.621,-5979.1,0,0
20413.0,139.738,-5903.93,0,0
20673.3,140.723,-5828.35,0,0
20933.65,137.284,-5754.96,0,0
21193.975,140.106,-5679.37,0,0
21454.3,154.342,-5612.72,0,0
21714.625,146.459,-5557.38,0,0
21974.9,151.853,-5487.38,0,0
22235.275,147.376,-5440.18,0,0
22495.6,134.535,-5381.97,0,0
22755.925,127.443,-5316.85,0,0
23016.25,124.25,-5253.68,0,0
23276.6,122.052,-5193.11,0,0
23536.9,120.266,-5135.39,0,0
23797.225,117.903,-5077.8,0,0
24057.55,116.533,-5021.83,0,0
24317.875,115.58,-4966.82,0,0
24578.2,114.014,-4912.64,0,0
24838.525,113.747,-4859.93,0,0
25098.85,114.695,-4809.14,0,0
25359.175,112.272,-4761.37,0,0
25619.5,112.114,-4711.14,0,0
25879.8,109.823,-4665.99,0,0
26140.1,107.359,-4617.41,0,0
26400.5,107.026,-4569.9,0,0
26660.8,107.042,-4523.35,0,0
26921.1,105.735,-4479.4,0,0
27181.4,105.164,-4434.14,0,0
27441.8,105.597,-4388.85,0,0
27702.1,109.893,-4343.38,0,0
27962.4,116.901,-4303.74,0,0
28222.7,120.647,-4276.54,0,0
28483.1,112.892,-4240.43,0,0
28743.4,109.628,-4198.24,0,0
29003.7,111.715,-4156.83,0,0
29264,119.464,-4123.59,0,0
29524.4,113.393,-4096.89,0,0
29784.7,108.969,-4060.91,0,0
30045,107.229,-4027.3,0,0
30305.3,100.833,-3991.21,0,0
30565.7,100.233,-3954.84,0,0
30826,98.77,-3920.83,0,0
31086.3,97.6527,-3886.04,0,0
31346.6,98.8339,-3852.56,0,0
31607,98.2512,-3821.94,0,0
31867.3,97.1734,-3789.7,0,0
32127.6,100.088,-3759.18,0,0
32387.9,98.6513,-3732.63,0,0
32648.3,97.1201,-3703.27,0,0
32908.6,94.5034,-3676.03,0,0
33168.9,91.5095,-3645.88,0,0
33429.2,89.463,-3616.68,0,0
33689.6,88.5174,-3587.51,0,0
33949.9,87.1295,-3558.95,0,0
34210.2,87.4527,-3531.02,0,0
34470.5,85.3741,-3504.91,0,0
34730.9,84.426,-3477.22,0,0
34991.2,84.2556,-3450.66,0,0
35251.5,83.527,-3424.3,0,0
35511.8,82.6031,-3398.67,0,0
35772.2,82.4016,-3373.54,0,0
36032.5,81.2347,-3348.56,0,0
36292.8,80.502,-3323.36,0,0
36553.1,80.1545,-3298.8,0,0
36813.5,80.004,-3274.51,0,0
37073.8,80.3915,-3251.92,0,0
37334.1,78.9093,-3228.68,0,0
37594.4,78.5723,-3205.2,0,0
37854.8,78.4758,-3182.41,0,0
38115.1,77.5862,-3160.62,0,0
38375.4,76.9579,-3137.84,0,0
38635.7,76.6875,-3115.48,0,0
38896.1,77.2061,-3094.1,0,0
39156.4,76.5642,-3072.9,0,0
39416.7,76.2527,-3051.68,0,0
39677,76.0633,-3030.12,0,0
39937.4,76.9512,-3008.91,0,0
40197.7,78.567,-2988.47,0,0
40458,80.811,-2970.37,0,0
40718.3,78.3697,-2952.67,0,0
40978.7,78.3718,-2932.21,0,0
41239,79.9938,-2913.41,0,0
41499.3,81.7694,-2896.81,0,0
41759.6,79.2917,-2880.74,0,0
42020,77.4205,-2862.37,0,0
42280.275,76.4812,-2842.81,0,0
42540.6,78.3971,-2825.57,0,0
42800.925,76.9259,-2810.22,0,0
43061.25,75.4682,-2792.05,0,0
43321.575,75.4491,-2775.41,0,0
43581.9,73.8223,-2758.66,0,0
43842.225,73.1722,-2740.7,0,0
44102.55,73.3994,-2724.78,0,0
44362.875,72.2143,-2707.74,0,0
44623.2,72.2517,-2690.83,0,0
44883.525,71.8686,-2675.03,0,0
45143.85,70.9684,-2659.3,0,0
45404.175,70.9275,-2642.47,0,0
45664.5,71.5356,-2626.22,0,0
45924.825,72.0549,-2611.48,0,0
46185.15,70.8958,-2597.93,0,0
46445.475,70.2312,-2580.92,0,0
46705.8,71.0111,-2566.21,0,0
46966.125,71.1967,-2551.95,0,0
47226.45,71.9772,-2538.06,0,0
47486.775,70.7545,-2525.17,0,0
47747.1,69.6867,-2510.96,0,0
48007.425,69.0467,-2497.07,0,0
48267.75,68.082,-2482.65,0,0
48528.075,67.8363,-2469.02,0,0
48788.4,66.687,-2455.43,0,0
49048.725,65.583,-2441.09,0,0
49309.05,65.8869,-2427.09,0,0
49569.375,64.9774,-2414.05,0,0
49829.7,64.5799,-2399.87,0,0
50090.025,64.2261,-2386.61,0,0
50350.35,64.0575,-2373.1,0,0
50610.675,63.8123,-2360.03,0,0
50871.0,63.6143,-2346.86,0,0
51131.325,63.3539,-2333.98,0,0
51391.65,63.4418,-2320.89,0,0
51651.975,63.4771,-2308.08,0,0
51912.3,63.2927,-2295.3,0,0
52172.625,63.7624,-2282.37,0,0
52432.95,63.7607,-2270.14,0,0
52693.275,63.9738,-2257.16,0,0
52953.6,65.294,-2244.52,0,0
53213.925,66.0962,-2232.91,0,0
53474.25,66.9218,-2220.8,0,0
53734.575,68.1767,-2208.44,0,0
53994.9,70.9792,-2197,0,0
54255.225,73.3311,-2187.01,0,0
54515.55,76.0245,-2178.73,0,0
54775.875,75.8434,-2171.89,0,0
55036.2,73.5992,-2162.77,0,0
55296.525,73.2722,-2153.25,0,0
55556.85,71.0508,-2144.24,0,0
55817.175,69.3982,-2133.9,0,0
56077.5,67.6962,-2123.15,0,0
56337.825,66.4532,-2112.34,0,0
56598.15,65.3803,-2100.91,0,0
56858.475,65.1909,-2089.35,0,0
57118.8,65.4669,-2078.65,0,0
57379.125,65.4914,-2068.18,0,0
57639.45,65.6494,-2057.66,0,0
57899.775,65.6999,-2047.46,0,0
58160.1,65.9484,-2036.67,0,0
58420.4,67.0091,-2026.25,0,0
58680.7,67.5603,-2017.75,0,0
58941.1,67.011,-2007.09,0,0
59201.4,68.0716,-1996.45,0,0
59461.7,69.8224,-1986.16,0,0
59722,72.4308,-1976.76,0,0
59982.4,75.2871,-1969.68,0,0
60242.7,75.3402,-1962.04,0,0
60503,77.0471,-1953.55,0,0
60763.3,80.1284,-1947.06,0,0
61023.7,80.3991,-1943.5,0,0
61284,78.4171,-1938.94,0,0
61544.3,73.8637,-1932.95,0,0
61804.6,70.5249,-1923.02,0,0
62065,69.376,-1914.06,0,0
62325.3,68.0215,-1905.97,0,0
62585.6,65.2227,-1897.18,0,0
62845.9,63.9856,-1886.56,0,0
63106.3,63.6309,-1877.32,0,0
63366.6,63.6176,-1867.81,0,0
63626.9,63.6663,-1859.09,0,0
63887.2,63.6246,-1850.98,0,0
64147.6,62.5448,-1842,0,0
64407.9,62.8965,-1832.52,0,0
64668.2,63.7586,-1824.11,0,0
64928.5,64.1826,-1816.27,0,0
65188.9,63.8385,-1808.4,0,0
65449.2,64.0494,-1799.89,0,0
65709.5,64.3644,-1791.08,0,0
65969.8,65.7997,-1782.81,0,0
66230.2,66.8004,-1775.75,0,0
66490.5,67.5151,-1768.6,0,0
66750.8,67.8504,-1761.49,0,0
67011.1,68.0365,-1753.96,0,0
67271.5,69.1048,-1746.38,0,0
67531.8,70.2975,-1739.49,0,0
67792.1,71.5513,-1733.01,0,0
68052.4,72.5479,-1727.03,0,0
68312.8,73.53,-1721.56,0,0
68573.1,74.0074,-1716.67,0,0
68833.4,73.5506,-1712.07,0,0
69093.7,72.0833,-1707.29,0,0
69354.1,69.7241,-1701.61,0,0
69614.4,67.7407,-1694.64,0,0
69874.7,66.456,-1687.59,0,0
70135,65.2571,-1680.6,0,0
70395.4,64.0545,-1673.22,0,0
70655.7,63.939,-1664.88,0,0
70916,65.1883,-1658.76,0,0
71176.3,64.4255,-1652.91,0,0
71436.7,64.2108,-1646.69,0,0
71697,63.6511,-1641.32,0,0
71957.3,61.5186,-1635.54,0,0
72217.6,59.6931,-1628.36,0,0
72478,58.6208,-1620.75,0,0
72738.3,58.119,-1613.87,0,0
72998.6,57.0063,-1606.69,0,0
73258.9,56.4851,-1598.63,0,0
73519.3,56.8696,-1591.3,0,0
73779.6,57.1665,-1584.39,0,0
74039.9,57.5053,-1577.67,0,0
74300.225,57.471,-1570.9,0,0
74560.55,57.8649,-1564.03,0,0
74820.875,58.3551,-1557.31,0,0
75081.2,59.1387,-1550.81,0,0
75341.525,59.9133,-1544.88,0,0
75601.85,60.2268,-1539,0,0
75862.175,60.6294,-1533.06,0,0
76122.5,61.1687,-1527.07,0,0
76382.825,61.6781,-1521.57,0,0
76643.15,61.7073,-1515.96,0,0
76903.475,61.536,-1509.75,0,0
77163.8,62.7056,-1503.21,0,0
77424.125,64.1161,-1498.08,0,0
77684.45,65.1543,-1493.26,0,0
77944.775,65.7228,-1488.96,0,0
78205.1,65.7835,-1484.58,0,0
78465.425,65.6551,-1480.2,0,0
78725.75,65.0582,-1475.8,0,0
78986.075,64.1636,-1471.08,0,0
79246.4,63.275,-1465.92,0,0
79506.725,62.4814,-1460.56,0,0
79767.05,62.0033,-1455.07,0,0
80027.375,61.5463,-1449.63,0,0
80287.7,61.1397,-1444.15,0,0
80548.025,60.9179,-1438.56,0,0
80808.35,60.9573,-1433.19,0,0
81068.675,61.0315,-1428.01,0,0
81329.0,61.0141,-1422.99,0,0
81589.325,60.893,-1418.06,0,0
81849.65,60.6904,-1413.09,0,0
82109.975,60.3856,-1408.12,0,0
82370.3,60.1251,-1403.12,0,0
82630.625,59.8783,-1398.17,0,0
82890.95,59.6659,-1393.28,0,0
83151.275,59.3414,-1388.31,0,0
83411.6,58.9699,-1383.35,0,0
83671.925,58.6967,-1378.33,0,0
83932.25,58.4364,-1373.34,0,0
84192.575,58.1919,-1368.42,0,0
84452.9,58.0215,-1363.46,0,0
84713.225,57.7943,-1358.56,0,0
84973.55,57.5512,-1353.76,0,0
85233.875,57.3607,-1348.96,0,0
85494.2,57.0327,-1344.15,0,0
85754.525,56.8147,-1339.29,0,0
86014.85,56.5279,-1334.41,0,0
86275.175,56.381,-1329.51,0,0
86535.5,56.298,-1324.76,0,0
86795.825,56.1462,-1320.1,0,0
87056.15,55.8457,-1315.48,0,0
87316.475,55.6304,-1310.81,0,0
87576.8,55.386,-1306.13,0,0
87837.125,55.0439,-1301.61,0,0
88097.45,54.4716,-1297.02,0,0
88357.775,53.9776,-1292.04,0,0
88618.1,53.7594,-1286.97,0,0
88878.425,53.6298,-1282.3,0,0
89138.75,53.4658,-1277.53,0,0
89399.075,53.3266,-1272.51,0,0
89659.4,53.3951,-1267.73,0,0
89919.725,53.4561,-1263.05,0,0
90180,53.4364,-1258.54,0,0
90440.4,53.4672,-1253.87,0,0
90700.7,53.264,-1249.29,0,0
90961,53.2473,-1244.75,0,0
91221.3,53.1798,-1240.02,0,0
91481.7,53.281,-1235.3,0,0
91742,53.3865,-1230.62,0,0
92002.3,53.6284,-1226.08,0,0
92262.6,53.9569,-1221.59,0,0
92523,54.2248,-1217.16,0,0
92783.3,54.6324,-1212.9,0,0
93043.6,54.9902,-1208.86,0,0
93303.9,55.1892,-1204.91,0,0
93564.3,55.3274,-1201.03,0,0
93824.6,55.2114,-1197.31,0,0
94084.9,54.8616,-1193.53,0,0
94345.2,54.2372,-1189.44,0,0
94605.6,53.8049,-1185.18,0,0
94865.9,53.4129,-1180.71,0,0
95126.2,53.1266,-1176.3,0,0
95386.5,52.9428,-1171.81,0,0
95646.9,52.8267,-1167.28,0,0
95907.2,52.8597,-1162.77,0,0
96167.5,52.9256,-1158.3,0,0
96427.8,53.043,-1153.96,0,0
96688.2,53.1224,-1149.67,0,0
96948.5,53.1329,-1145.35,0,0
97208.8,53.2885,-1140.92,0,0
97469.1,53.443,-1136.6,0,0
97729.5,53.5582,-1132.3,0,0
97989.8,53.6927,-1127.95,0,0
98250.1,53.974,-1123.63,0,0
98510.4,54.2626,-1119.31,0,0
98770.8,54.6123,-1114.97,0,0
99031.1,55.1216,-1110.67,0,0
99291.4,55.6802,-1106.54,0,0
99551.7,56.1443,-1102.58,0,0
99812.1,56.4827,-1098.49,0,0
100072,56.982,-1094.32,0,0
100333,57.6984,-1090.13,0,0
100593,58.6831,-1086.26,0,0
100853,59.5547,-1082.91,0,0
101114,59.9279,-1079.49,0,0
101374,60.6642,-1076,0,0
101634,61.3239,-1073.13,0,0
101895,61.2103,-1070.6,0,0
102155,60.4195,-1067.67,0,0
102415,59.3766,-1064.1,0,0
102676,58.5299,-1060.06,0,0
102936,57.775,-1055.8,0,0
103196,57.2311,-1051.25,0,0
103457,56.9102,-1046.42,0,0
103717,57.0412,-1041.6,0,0
103977,57.2957,-1036.92,0,0
104238,57.5911,-1032.18,0,0
104498,58.1471,-1027.36,0,0
104758,58.9678,-1022.66,0,0
105019,60.01,-1018.05,0,0
105279,60.9825,-1013.72,0,0
105539,62.1288,-1009.39,0,0
105800,63.3447,-1005.1,0,0
106060,64.6684,-1001,0,0
106320.175,66.0336,-997.018,0,0
106580.5,67.3715,-993.206,0,0
106840.825,68.7283,-989.5,0,0
107101.15,69.9775,-985.838,0,0
107361.475,71.1987,-982.22,0,0
107621.8,72.3796,-978.492,0,0
107882.125,73.7328,-974.726,0,0
108142.45,75.2793,-970.989,0,0
108402.775,76.9106,-967.472,0,0
108663.1,78.5354,-964.061,0,0
108923.425,80.2836,-960.703,0,0
109183.75,82.1666,-957.582,0,0
109444.075,84.109,-954.733,0,0
109704.4,85.7596,-952.166,0,0
109964.725,87.2014,-949.507,0,0
110225.05,88.7909,-946.842,0,0
110485.375,90.3723,-944.419,0,0
110745.7,91.7813,-942.108,0,0
111006.025,93.0772,-939.786,0,0
111266.35,94.1511,-937.477,0,0
111526.675,95.3023,-935.038,0,0
111787.0,96.6039,-932.739,0,0
112047.325,97.8103,-930.368,0,0
112307.65,99.1118,-928.298,0,0
112567.975,100.291,-926.16,0,0
112828.3,101.471,-924.103,0,0
113088.625,102.588,-922.163,0,0
113348.95,103.554,-920.305,0,0
113609.275,104.512,-918.493,0,0
113869.6,105.329,-916.682,0,0
114129.925,106.122,-914.908,0,0
114390.25,106.883,-913.089,0,0
114650.575,107.716,-911.406,0,0
114910.9,108.407,-909.82,0,0
115171.225,108.922,-908.261,0,0
115431.55,109.23,-906.775,0,0
115691.875,109.501,-905.145,0,0
115952.2,109.707,-903.441,0,0
116212.525,109.89,-901.744,0,0
116472.85,109.992,-900.046,0,0
116733.175,110.048,-898.328,0,0
116993.5,109.971,-896.568,0,0
117253.825,109.796,-894.712,0,0
117514.15,109.55,-892.675,0,0
117774.475,109.392,-890.521,0,0
118034.8,109.337,-888.211,0,0
118295.125,109.344,-885.933,0,0
118555.45,109.38,-883.609,0,0
118815.775,109.389,-881.089,0,0
119076.1,109.847,-878.244,0,0
119336.425,110.881,-875.555,0,0
119596.75,112.313,-873.423,0,0
119857.075,113.861,-871.731,0,0
120117.4,115.638,-871.042,0,0
120377.725,116.462,-871.231,0,0
120638.05,116.363,-871.533,0,0
120898.375,115.328,-871.62,0,0
121158.7,113.749,-871.043,0,0
121419.025,112.046,-869.814,0,0
121679.35,110.385,-868.176,0,0
121939.675,108.817,-866.134,0,0
122200.0,107.485,-863.856,0,0
122460,106.26,-861.461,0,0
122721,105.284,-858.951,0,0
122981,104.395,-856.507,0,0
123241,103.492,-853.974,0,0
123502,102.752,-851.399,0,0
123762,102.075,-848.78,0,0
124022,101.483,-846.129,0,0
124283,101.008,-843.501,0,0
124543,100.576,-840.894,0,0
124803,100.149,-838.257,0,0
125064,99.9885,-835.627,0,0
125324,99.9137,-833.173,0,0
125584,99.8842,-830.922,0,0
125845,99.7855,-828.81,0,0
126105,99.6001,-826.829,0,0
126365,99.2374,-824.982,0,0
126626,98.7111,-823.089,0,0
126886,98.1016,-821.279,0,0
127146,97.3448,-819.292,0,0
127406,96.5722,-817.237,0,0
127667,95.8874,-815.334,0,0
127927,95.0355,-813.666,0,0
128187,93.7232,-811.876,0,0
128448,92.2504,-809.862,0,0
128708,90.6928,-807.719,0,0
128968,88.8959,-805.434,0,0
129229,86.9978,-802.728,0,0
129489,85.1808,-799.682,0,0
129749,83.5862,-796.463,0,0
130010,82.0804,-793.072,0,0
130270,80.7641,-789.555,0,0
130530,79.5683,-786.084,0,0
130791,78.4246,-782.483,0,0
131051,77.3069,-778.823,0,0
131311,76.3757,-775.007,0,0
131572,75.5917,-771.22,0,0
131832,74.8787,-767.457,0,0
132092,74.2223,-763.639,0,0
132353,73.686,-759.815,0,0
132613,73.227,-755.93,0,0
132873,72.8549,-752.134,0,0
133134,72.5343,-748.305,0,0
133394,72.2542,-744.499,0,0
133654,72.0312,-740.616,0,0
133915,71.906,-736.766,0,0
134175,71.8641,-732.881,0,0
134435,71.8722,-729.086,0,0
134696,71.9305,-725.319,0,0
134956,71.9957,-721.496,0,0
135216,72.1444,-717.651,0,0
135477,72.435,-713.844,0,0
135737,72.7216,-710.134,0,0
135997,73.0184,-706.444,0,0
136258,73.321,-702.729,0,0
136518,73.6811,-699.01,0,0
136778,74.1313,-695.322,0,0
137039,74.6287,-691.761,0,0
137299,75.0056,-688.327,0,0
137559,75.2851,-684.783,0,0
137819,75.5654,-681.189,0,0
138080,75.8335,-677.495,0,0
138340.125,76.2128,-673.687,0,0
138600.45,76.661,-669.948,0,0
138860.775,77.1062,-666.154,0,0
139121.1,77.6341,-662.269,0,0
139381.425,78.2736,-658.359,0,0
139641.75,79.0034,-654.565,0,0
139902.075,79.6757,-650.75,0,0
140162.4,80.4045,-646.88,0,0
140422.725,81.2417,-642.967,0,0
140683.05,82.1921,-639.064,0,0
140943.375,83.2658,-635.186,0,0
141203.7,84.3651,-631.38,0,0
141464.025,85.5358,-627.628,0,0
141724.35,86.7581,-623.939,0,0
141984.675,87.9748,-620.352,0,0
142245.0,89.1057,-616.783,0,0
142505.325,90.2697,-613.14,0,0
142765.65,91.4675,-609.463,0,0
143025.975,92.7745,-605.853,0,0
143286.3,94.0976,-602.288,0,0
143546.625,95.3682,-598.773,0,0
143806.95,96.5873,-595.216,0,0
144067.275,97.8743,-591.583,0,0
144327.6,99.23,-587.983,0,0
144587.925,100.565,-584.391,0,0
144848.25,101.911,-580.76,0,0
145108.575,103.319,-577.071,0,0
145368.9,104.753,-573.36,0,0
145629.225,106.262,-569.621,0,0
145889.55,107.821,-565.844,0,0
146149.875,109.509,-562.04,0,0
146410.2,111.315,-558.264,0,0
146670.525,113.138,-554.523,0,0
146930.85,115.002,-550.791,0,0
147191.175,116.913,-547.083,0,0
147451.5,118.876,-543.32,0,0
147711.825,120.978,-539.553,0,0
147972.15,123.156,-535.876,0,0
148232.475,125.35,-532.218,0,0
148492.8,127.61,-528.548,0,0
148753.125,129.914,-524.871,0,0
149013.45,132.32,-521.256,0,0
149273.775,134.655,-517.676,0,0
149534.1,136.967,-513.928,0,0
149794.425,139.462,-510.034,0,0
150054.75,142.206,-506.086,0,0
150315.075,145.165,-502.208,0,0
150575.4,148.276,-498.403,0,0
150835.725,151.564,-494.655,0,0
151096.05,154.98,-490.995,0,0
151356.375,158.531,-487.403,0,0
151616.7,162.287,-483.894,0,0
151877.025,166.16,-480.473,0,0
152137.35,170.29,-477.09,0,0
152397.675,174.747,-473.965,0,0
152658.0,179.341,-471.264,0,0
152918.325,183.846,-468.826,0,0
153178.65,188.465,-466.508,0,0
153438.975,193.208,-464.514,0,0
153699.3,197.956,-462.945,0,0
153959.625,202.464,-461.707,0,0
154219.95,206.794,-460.66,0,0
154480,210.98,-459.783,0,0
154741,214.959,-459.112,0,0
155001,218.441,-458.402,0,0
155261,221.908,-457.312,0,0
155522,225.654,-456.147,0,0
155782,229.762,-455.466,0,0
156042,233.369,-455.236,0,0
156303,236.53,-454.928,0,0
156563,239.592,-454.24,0,0
156823,242.92,-453.533,0,0
157084,246.268,-452.982,0,0
157344,249.4,-452.691,0,0
157604,252.175,-452.197,0,0
157864,254.942,-451.366,0,0
158125,257.969,-450.335,0,0
158385,261.388,-449.271,0,0
158645,265.234,-448.394,0,0
158906,269.073,-448.052,0,0
159166,272.888,-447.892,0,0
159426,276.686,-448.287,0,0
159687,279.789,-448.932,0,0
159947,282.758,-449.108,0,0
160207,286.066,-449.135,0,0
160468,289.745,-449.688,0,0
160728,292.909,-450.704,0,0
160988,295.744,-451.747,0,0
161249,298.352,-453.081,0,0
161509,300.657,-454.277,0,0
161769,302.752,-455.414,0,0
162030,304.43,-456.655,0,0
162290,305.948,-457.756,0,0
162550,307.183,-458.843,0,0
162811,308.066,-459.812,0,0
163071,308.572,-460.465,0,0
163331,308.664,-460.562,0,0
163592,308.833,-460.006,0,0
163852,309.253,-458.92,0,0
164112,309.906,-457.549,0,0
164373,310.783,-455.68,0,0
164633,312.334,-453.79,0,0
164893,314.093,-451.952,0,0
165154,315.797,-449.945,0,0
165414,317.854,-447.351,0,0
165674,320.718,-444.581,0,0
165935,324.383,-441.886,0,0
166195,328.515,-439.544,0,0
166455,333.261,-437.606,0,0
166716,338.36,-435.92,0,0
166976,344.157,-434.798,0,0
167236,350.266,-434.482,0,0
167497,356.327,-434.896,0,0
167757,362.381,-435.901,0,0
168017,368.412,-437.449,0,0
168277,374.17,-439.814,0,0
168538,379.655,-442.173,0,0
168798,385.472,-444.786,0,0
169058,391.461,-448.383,0,0
169319,397.157,-452.895,0,0
169579,402.413,-458.053,0,0
169839,407.331,-463.975,0,0
170100,411.604,-470.723,0,0
170360.075,414.96,-478.253,0,0
170620.4,417.224,-486.336,0,0
170880.725,418.146,-494.632,0,0
171141.05,417.817,-502.625,0,0
171401.375,416.921,-510.273,0,0
171661.7,415.268,-517.978,0,0
171922.025,412.432,-525.666,0,0
172182.35,408.462,-532.704,0,0
172442.675,403.702,-539.097,0,0
172703.0,398.013,-544.699,0,0
172963.325,391.887,-549.154,0,0
173223.65,385.586,-552.882,0,0
173483.975,378.796,-555.862,0,0
173744.3,371.834,-557.712,0,0
174004.625,365.055,-558.732,0,0
174264.95,358.387,-559.009,0,0
174525.275,351.955,-558.524,0,0
174785.6,345.949,-557.73,0,0
175045.925,339.702,-556.654,0,0
175306.25,333.358,-554.681,0,0
175566.575,327.296,-551.808,0,0
175826.9,321.864,-548.244,0,0
176087.225,316.936,-544.168,0,0
176347.55,312.664,-539.671,0,0
176607.875,309.075,-534.991,0,0
176868.2,305.989,-530.206,0,0
177128.525,303.423,-525.384,0,0
177388.85,301.248,-520.611,0,0
177649.175,299.446,-515.776,0,0
177909.5,298.018,-511.038,0,0
178169.825,296.799,-506.324,0,0
178430.15,295.896,-501.584,0,0
178690.475,295.262,-496.843,0,0
178950.8,294.93,-492.09,0,0
179211.125,295.018,-487.405,0,0
179471.45,295.431,-482.925,0,0
179731.775,296.09,-478.731,0,0
179992.1,296.814,-474.771,0,0
180252.425,297.63,-471.005,0,0
180512.75,298.45,-467.427,0,0
180773.075,299.255,-463.921,0,0
181033.4,300.082,-460.484,0,0
181293.725,300.952,-457.132,0,0
181554.05,301.802,-453.856,0,0
181814.375,302.677,-450.68,0,0
182074.7,303.489,-447.561,0,0
182335.025,304.229,-444.491,0,0
182595.35,304.832,-441.432,0,0
182855.675,305.31,-438.251,0,0
183116.0,305.707,-434.863,0,0
183376.325,306.186,-431.296,0,0
183636.65,306.709,-427.627,0,0
183896.975,307.329,-423.773,0,0
184157.3,308.064,-419.79,0,0
184417.625,308.988,-415.709,0,0
184677.95,310.04,-411.584,0,0
184938.275,311.225,-407.413,0,0
185198.6,312.54,-403.242,0,0
185458.925,313.923,-399.122,0,0
185719.25,315.319,-394.958,0,0
185979.575,316.702,-390.701,0,0
186239.9,318.127,-386.3,0,0
186500,319.685,-381.716,0,0
186761,321.333,-377.1,0,0
187021,322.996,-372.327,0,0
187281,324.871,-367.357,0,0
187542,326.891,-362.09,0,0
187802,329.225,-356.799,0,0
188062,331.739,-351.45,0,0
188322,334.486,-345.99,0,0
188583,337.339,-340.48,0,0
188843,340.524,-334.83,0,0
189103,343.894,-329.069,0,0
189364,347.466,-323.267,0,0
189624,351.32,-317.197,0,0
189884,355.571,-311.112,0,0
190145,360.057,-305.044,0,0
190405,364.917,-298.934,0,0
190665,370.025,-292.747,0,0
190926,375.51,-286.502,0,0
191186,381.387,-280.206,0,0
191446,387.687,-273.933,0,0
191707,394.422,-267.674,0,0
191967,401.629,-261.579,0,0
192227,409.202,-255.668,0,0
192488,417.17,-249.885,0,0
192748,425.519,-244.247,0,0
193008,434.236,-238.737,0,0
193269,443.301,-233.545,0,0
193529,452.652,-228.554,0,0
193789,462.532,-223.703,0,0
194050,472.759,-219.267,0,0
194310,483.074,-215.082,0,0
194570,493.687,-211.062,0,0
194831,504.603,-207.084,0,0
195091,515.936,-203.362,0,0
195351,527.656,-199.761,0,0
195612,539.749,-196.449,0,0
195872,552.43,-193.337,0,0
196132,565.47,-190.548,0,0
196393,579.07,-188.089,0,0
196653,593.136,-186,0,0
196913,607.715,-184.313,0,0
197174,622.855,-183.093,0,0
197434,638.52,-182.389,0,0
197694,654.716,-182.164,0,0
197955,671.567,-182.543,0,0
198215,688.985,-183.591,0,0
198475,707.167,-185.204,0,0
198735,726.419,-187.741,0,0
198996,746.598,-191.803,0,0
199256,767.309,-197.666,0,0
199516,788.083,-205.407,0,0
199777,808.466,-214.925,0,0
200037,828.331,-225.735,0,0
200297,848.203,-237.917,0,0
200558,867.666,-251.84,0,0
200818,886.273,-267.343,0,0
201078,903.921,-284.335,0,0
201339,920.579,-302.662,0,0
201599,935.778,-322.395,0,0
201859,949.434,-343.067,0,0
202120,961.582,-364.067,0,0
202380.025,972.882,-385.556,0,0
202640.35,982.506,-407.718,0,0
202900.675,991.191,-430.11,0,0
203161.0,999.044,-452.782,0,0
203421.325,1006.15,-476.52,0,0
203681.65,1011.54,-501.406,0,0
203941.975,1014.31,-526.631,0,0
204202.3,1015.28,-551.086,0,0
204462.625,1015.12,-574.729,0,0
204722.95,1014.41,-598.308,0,0
204983.275,1012.57,-622.028,0,0
205243.6,1009.11,-645.721,0,0
205503.925,1004.24,-668.843,0,0
205764.25,998.434,-691.306,0,0
206024.575,991.303,-713.364,0,0
206284.9,983.56,-734.764,0,0
206545.225,974.66,-756.18,0,0
206805.55,964.184,-777.332,0,0
207065.875,952.2,-797.461,0,0
207326.2,938.866,-816.252,0,0
207586.525,924.724,-833.905,0,0
207846.85,909.671,-850.219,0,0
208107.175,894.086,-865.285,0,0
208367.5,877.877,-879.354,0,0
208627.825,860.892,-892.134,0,0
208888.15,843.267,-903.141,0,0
209148.475,825.427,-912.367,0,0
209408.8,807.95,-919.814,0,0
209669.125,791.269,-925.877,0,0
209929.45,775.239,-931.035,0,0
210189.775,759.546,-935.449,0,0
210450.1,744.243,-939.316,0,0
210710.425,729.286,-941.967,0,0
210970.75,714.936,-943.829,0,0
211231.075,701.377,-944.969,0,0
211491.4,688.614,-945.863,0,0
211751.725,676.178,-946.671,0,0
212012.05,663.992,-946.95,0,0
212272.375,652.393,-946.823,0,0
212532.7,641.059,-946.391,0,0
212793.025,629.897,-945.643,0,0
213053.35,618.924,-944.136,0,0
213313.675,608.621,-941.754,0,0
213574.0,599.312,-938.959,0,0
213834.325,590.863,-935.915,0,0
214094.65,583.588,-932.662,0,0
214354.975,577.438,-929.776,0,0
214615.3,571.958,-927.699,0,0
214875.625,566.817,-926.251,0,0
215135.95,561.668,-925.314,0,0
215396.275,556.745,-924.685,0,0
215656.6,551.801,-924.643,0,0
215916.925,546.433,-924.998,0,0
216177.25,540.667,-925.335,0,0
216437.575,534.767,-925.466,0,0
216697.9,528.837,-925.317,0,0
216958.225,523.133,-925.087,0,0
217218.55,517.488,-925.018,0,0
217478.875,511.721,-924.826,0,0
217739.2,506.008,-924.591,0,0
217999.525,500.3,-924.26,0,0
218259.85,494.658,-923.746,0,0
218520,489.19,-923.225,0,0
218780,483.866,-922.72,0,0
219041,478.503,-922.364,0,0
219301,473.127,-921.927,0,0
219561,467.609,-921.418,0,0
219822,462.185,-920.92,0,0
220082,456.524,-920.207,0,0
220342,450.934,-919.344,0,0
220603,445.229,-918.186,0,0
220863,439.736,-916.659,0,0
221123,434.59,-915.023,0,0
221384,429.723,-913.344,0,0
221644,425.049,-911.595,0,0
221904,420.591,-909.92,0,0
222165,416.099,-908.287,0,0
222425,411.685,-906.515,0,0
222685,407.691,-904.564,0,0
222946,404.032,-902.82,0,0
223206,400.464,-901.17,0,0
223466,397.134,-899.54,0,0
223727,394.061,-898.303,0,0
223987,390.971,-897.438,0,0
224247,387.745,-896.875,0,0
224508,384.43,-896.32,0,0
224768,380.826,-895.927,0,0
225028,377.246,-895.501,0,0
225289,373.388,-895.152,0,0
225549,369.469,-894.736,0,0
225809,365.392,-894.292,0,0
226070,361.329,-893.887,0,0
226330,357.117,-893.424,0,0
226590,352.812,-892.917,0,0
226851,348.351,-892.379,0,0
227111,343.839,-891.769,0,0
227371,338.977,-891.018,0,0
227632,334.134,-890.019,0,0
227892,329.225,-888.957,0,0
228152,324.22,-887.642,0,0
228413,319.077,-886.057,0,0
228673,313.985,-884.197,0,0
228933,309.072,-881.939,0,0
229193,304.304,-879.585,0,0
229454,299.643,-877.021,0,0
229714,295.317,-874.382,0,0
229974,291.037,-871.678,0,0
230235,286.876,-868.958,0,0
230495,282.747,-866.223,0,0
230755,278.59,-863.27,0,0
231016,274.614,-860.044,0,0
231276,270.926,-856.693,0,0
231536,267.534,-853.321,0,0
231797,264.364,-850.049,0,0
232057,261.386,-846.88,0,0
232317,258.402,-843.825,0,0
232578,255.368,-840.786,0,0
232838,252.39,-837.668,0,0
233098,249.41,-834.539,0,0
233359,246.492,-831.252,0,0
233619,243.706,-827.708,0,0
233879,241.236,-824.146,0,0
234140,239.049,-820.722,0,0
234400,236.99,-817.488,0,0
234660.3,234.967,-814.292,0,0
234920.625,232.978,-811.142,0,0
235180.95,231.083,-808.036,0,0
235441.275,229.167,-805.115,0,0
235701.6,227.312,-802.151,0,0
235961.925,225.383,-799.137,0,0
236222.25,223.478,-796.114,0,0
236482.575,221.648,-793.051,0,0
236742.9,219.811,-789.935,0,0
237003.225,218.069,-786.719,0,0
237263.55,216.497,-783.372,0,0
237523.875,215.121,-780.1,0,0
237784.2,213.872,-776.895,0,0
238044.525,212.688,-773.739,0,0
238304.85,211.628,-770.612,0,0
238565.175,210.709,-767.52,0,0
238825.5,209.832,-764.57,0,0
239085.825,209.084,-761.554,0,0
239346.15,208.358,-758.659,0,0
239606.475,207.662,-755.823,0,0
239866.8,207.099,-753.014,0,0
240127.125,206.5,-750.267,0,0
240387.45,206.102,-747.707,0,0
240647.775,205.691,-745.127,0,0
240908.1,205.38,-742.615,0,0
241168.425,205.126,-740.246,0,0
241428.75,204.888,-738.024,0,0
241689.075,204.66,-735.887,0,0
241949.4,204.441,-733.834,0,0
242209.725,204.157,-731.866,0,0
242470.05,203.917,-729.995,0,0
242730.375,203.648,-728.2,0,0
242990.7,203.333,-726.546,0,0
243251.025,202.953,-724.999,0,0
243511.35,202.49,-723.488,0,0
243771.675,201.969,-722.032,0,0
244032.0,201.276,-720.657,0,0
244292.325,200.466,-719.28,0,0
244552.65,199.532,-717.842,0,0
244812.975,198.538,-716.315,0,0
245073.3,197.365,-714.708,0,0
245333.625,196.226,-712.999,0,0
245593.95,195.08,-711.229,0,0
245854.275,193.949,-709.393,0,0
246114.6,192.787,-707.493,0,0
246374.925,191.635,-705.437,0,0
246635.25,190.497,-703.325,0,0
246895.575,189.395,-701.064,0,0
247155.9,188.444,-698.729,0,0
247416.225,187.592,-696.387,0,0
247676.55,186.784,-694.071,0,0
247936.875,186.032,-691.726,0,0
248197.2,185.299,-689.272,0,0
248457.525,184.728,-686.82,0,0
248717.85,184.251,-684.305,0,0
248978.175,183.889,-681.84,0,0
249238.5,183.665,-679.381,0,0
249498.825,183.547,-677.06,0,0
249759.15,183.494,-674.79,0,0
250019.475,183.489,-672.683,0,0
250279.8,183.526,-670.683,0,0
250540,183.505,-668.831,0,0
250800,183.417,-667.101,0,0
251061,183.126,-665.446,0,0
251321,182.748,-663.774,0,0
251581,182.242,-661.987,0,0
251842,181.666,-660.106,0,0
252102,181.062,-658.127,0,0
252362,180.484,-656.01,0,0
252623,179.954,-653.792,0,0
252883,179.512,-651.485,0,0
253143,179.206,-649.192,0,0
253404,178.978,-646.942,0,0
253664,178.722,-644.753,0,0
253924,178.475,-642.684,0,0
254185,178.074,-640.593,0,0
254445,177.441,-638.435,0,0
254705,176.754,-636.025,0,0
254966,176.092,-633.285,0,0
255226,175.567,-630.392,0,0
255486,175.204,-627.322,0,0
255747,175.003,-624.22,0,0
256007,174.889,-620.983,0,0
256267,174.947,-617.658,0,0
256528,175.174,-614.203,0,0
256788,175.572,-610.658,0,0
257048,176.161,-607.068,0,0
257309,176.987,-603.407,0,0
257569,178.044,-599.711,0,0
257829,179.359,-596.035,0,0
258090,180.904,-592.417,0,0
258350,182.674,-588.79,0,0
258610,184.718,-585.203,0,0
258871,187.056,-581.765,0,0
259131,189.628,-578.538,0,0
259391,192.308,-575.505,0,0
259651,195.092,-572.761,0,0
259912,197.974,-569.917,0,0
260172,201.061,-567.141,0,0
260432,204.352,-564.538,0,0
260693,207.873,-562.122,0,0
260953,211.481,-559.989,0,0
261213,215.185,-557.989,0,0
261474,219.008,-556.105,0,0
261734,223.094,-554.336,0,0
261994,227.441,-552.788,0,0
262255,232.076,-551.594,0,0
262515,236.932,-550.841,0,0
262775,241.876,-550.7,0,0
263036,246.749,-551.159,0,0
263296,251.239,-552.115,0,0
263556,255.351,-553.32,0,0
263817,259.169,-554.604,0,0
264077,262.766,-555.99,0,0
264337,266.182,-557.463,0,0
264598,269.428,-558.906,0,0
264858,272.63,-560.261,0,0
265118,275.999,-561.567,0,0
265379,279.407,-563.139,0,0
265639,282.92,-564.858,0,0
265899,286.452,-566.713,0,0
266160,290.178,-568.782,0,0
266420,294.031,-571.36,0,0
266680.25,297.855,-574.443,0,0
266940.575,301.498,-578.081,0,0
267200.9,304.85,-582.199,0,0
267461.225,307.807,-586.813,0,0
267721.55,310.247,-591.824,0,0
267981.875,312.146,-597.202,0,0
268242.2,313.272,-602.806,0,0
268502.525,313.609,-608.307,0,0
268762.85,313.38,-613.564,0,0
269023.175,312.719,-618.515,0,0
269283.5,311.733,-623.348,0,0
269543.825,310.309,-627.932,0,0
269804.15,308.488,-632.171,0,0
270064.475,306.452,-635.974,0,0
270324.8,304.268,-639.286,0,0
270585.125,302.184,-642.386,0,0
270845.45,300.17,-645.203,0,0
271105.775,298.222,-647.945,0,0
271366.1,296.328,-650.794,0,0
271626.425,294.282,-653.602,0,0
271886.75,291.917,-656.414,0,0
272147.075,289.363,-658.965,0,0
272407.4,286.621,-661.158,0,0
272667.725,283.963,-663.113,0,0
272928.05,281.39,-664.803,0,0
273188.375,279.009,-666.383,0,0
273448.7,276.827,-667.996,0,0
273709.025,274.674,-669.88,0,0
273969.35,272.421,-671.923,0,0
274229.675,269.856,-674.041,0,0
274490.0,266.977,-676.228,0,0
274750.325,263.705,-678.201,0,0
275010.65,260.281,-679.895,0,0
275270.975,256.77,-681.403,0,0
275531.3,253.047,-682.749,0,0
275791.625,249.138,-683.942,0,0
276051.95,244.988,-684.869,0,0
276312.275,240.643,-685.486,0,0
276572.6,236.128,-685.624,0,0
276832.925,231.582,-685.294,0,0
277093.25,227.03,-684.477,0,0
277353.575,222.658,-683.145,0,0
277613.9,218.539,-681.348,0,0
277874.225,214.76,-679.159,0,0
278134.55,211.39,-676.677,0,0
278394.875,208.472,-673.952,0,0
278655.2,206.043,-671.124,0,0
278915.525,204.057,-668.312,0,0
279175.85,202.538,-665.55,0,0
279436.175,201.455,-663.022,0,0
279696.5,200.642,-660.837,0,0
279956.825,199.934,-658.955,0,0
280217.15,199.111,-657.467,0,0
280477.475,198.123,-656.002,0,0
280737.8,197.042,-654.463,0,0
280998.125,195.943,-652.813,0,0
281258.45,194.939,-650.978,0,0
281518.775,194.129,-649.058,0,0
281779.1,193.633,-647.034,0,0
282039.425,193.519,-645.172,0,0
282299.75,193.573,-643.552,0,0
282560,193.808,-642.117,0,0
282820,194.182,-640.985,0,0
283081,194.582,-640.196,0,0
283341,194.9,-639.683,0,0
283601,195.03,-639.422,0,0
283862,195.035,-639.295,0,0
284122,194.916,-639.342,0,0
284382,194.648,-639.534,0,0
284643,194.086,-639.886,0,0
284903,193.26,-640.192,0,0
285163,192.216,-640.605,0,0
285424,190.796,-640.831,0,0
285684,189.081,-640.935,0,0
285944,187.174,-640.725,0,0
286205,185.163,-640.188,0,0
286465,183.193,-639.308,0,0
286725,181.365,-638.209,0,0
286986,179.577,-636.986,0,0
287246,177.845,-635.595,0,0
287506,176.115,-634.002,0,0
287767,174.52,-632.167,0,0
288027,173.079,-630.123,0,0
288287,171.868,-627.873,0,0
288548,170.896,-625.499,0,0
288808,170.241,-623.028,0,0
289068,169.847,-620.581,0,0
289329,169.681,-618.15,0,0
289589,169.677,-615.741,0,0
289849,169.917,-613.353,0,0
290109,170.381,-610.944,0,0
290370,171.118,-608.549,0,0
290630,172.195,-606.289,0,0
290890,173.541,-604.212,0,0
291151,175.141,-602.345,0,0
291411,176.958,-600.728,0,0
291671,178.996,-599.418,0,0
291932,181.17,-598.453,0,0
292192,183.411,-597.855,0,0
292452,185.666,-597.652,0,0
292713,187.872,-597.763,0,0
292973,190.015,-598.174,0,0
293233,192.082,-598.884,0,0
293494,194.049,-599.929,0,0
293754,195.84,-601.307,0,0
294014,197.434,-603.013,0,0
294275,198.755,-605.047,0,0
294535,199.657,-607.361,0,0
294795,200.113,-609.779,0,0
295056,200.123,-612.224,0,0
295316,199.813,-614.641,0,0
295576,199.102,-616.958,0,0
295837,198.116,-619.151,0,0
296097,196.796,-621.142,0,0
296357,195.274,-622.94,0,0
296618,193.548,-624.522,0,0
296878,191.694,-625.811,0,0
297138,189.821,-626.889,0,0
297399,187.908,-627.764,0,0
297659,186.007,-628.433,0,0
297919,184.143,-628.968,0,0
298180,182.352,-629.429,0,0
298440,180.517,-629.804,0,0
298700.2,178.714,-630.107,0,0
298960.525,176.89,-630.356,0,0
299220.85,175.061,-630.514,0,0
299481.175,173.208,-630.601,0,0
299741.5,171.353,-630.595,0,0
300001.825,169.474,-630.506,0,0
300262.15,167.628,-630.291,0,0
300522.475,165.784,-630.001,0,0
300782.8,163.999,-629.618,0,0
301043.125,162.23,-629.157,0,0
301303.45,160.533,-628.626,0,0
301563.775,158.896,-628.065,0,0
301824.1,157.304,-627.447,0,0
302084.425,155.768,-626.813,0,0
302344.75,154.278,-626.18,0,0
302605.075,152.8,-625.55,0,0
302865.4,151.316,-624.93,0,0
303125.725,149.794,-624.26,0,0
303386.05,148.225,-623.56,0,0
303646.375,146.664,-622.759,0,0
303906.7,145.143,-621.852,0,0
304167.025,143.693,-620.86,0,0
304427.35,142.303,-619.843,0,0
304687.675,141.002,-618.813,0,0
304948.0,139.712,-617.74,0,0
305208.325,138.462,-616.659,0,0
305468.65,137.281,-615.565,0,0
305728.975,136.119,-614.416,0,0
305989.3,135.017,-613.265,0,0
306249.625,133.929,-612.064,0,0
306509.95,132.926,-610.836,0,0
306770.275,131.98,-609.568,0,0
307030.6,131.145,-608.314,0,0
307290.925,130.414,-607.048,0,0
307551.25,129.736,-605.838,0,0
307811.575,129.14,-604.689,0,0
308071.9,128.575,-603.596,0,0
308332.225,128.057,-602.592,0,0
308592.55,127.524,-601.651,0,0
308852.875,126.966,-600.776,0,0
309113.2,126.352,-599.939,0,0
309373.525,125.697,-599.114,0,0
309633.85,124.997,-598.289,0,0
309894.175,124.267,-597.418,0,0
310154.5,123.535,-596.484,0,0
310414.825,122.813,-595.524,0,0
310675.15,122.111,-594.514,0,0
310935.475,121.459,-593.503,0,0
311195.8,120.855,-592.479,0,0
311456.125,120.256,-591.468,0,0
311716.45,119.677,-590.471,0,0
311976.775,119.13,-589.454,0,0
312237.1,118.584,-588.4,0,0
312497.425,118.081,-587.363,0,0
312757.75,117.618,-586.268,0,0
313018.075,117.24,-585.205,0,0
313278.4,116.914,-584.159,0,0
313538.725,116.665,-583.178,0,0
313799.05,116.405,-582.258,0,0
314059.375,116.167,-581.386,0,0
314319.7,115.922,-580.562,0,0
314580,115.629,-579.741,0,0
314840,115.356,-579.033,0,0
315101,115.1,-578.243,0,0
315361,114.786,-577.464,0,0
315621,114.456,-576.676,0,0
315882,114.17,-575.961,0,0
316142,113.972,-575.157,0,0
316402,113.676,-574.438,0,0
316663,113.495,-573.758,0,0
316923,113.269,-573.058,0,0
317183,113.088,-572.361,0,0
317444,112.937,-571.718,0,0
317704,112.746,-571.141,0,0
317964,112.538,-570.539,0,0
318225,112.475,-570.061,0,0
318485,112.313,-569.522,0,0
318745,112.242,-569.115,0,0
319006,112.108,-568.863,0,0
319266,112.048,-568.632,0,0
319526,111.694,-568.488,0,0
319787,111.287,-568.304,0,0
320047,110.96,-568.319,0,0
320307,110.495,-568.246,0,0
320567,109.922,-568.201,0,0
320828,109.235,-568.203,0,0
321088,108.454,-568.178,0,0
321348,107.581,-568.1,0,0
321609,106.6,-567.954,0,0
321869,105.544,-567.752,0,0
322129,104.449,-567.599,0,0
322390,103.285,-567.297,0,0
322650,102.04,-566.792,0,0
322910,100.708,-566.377,0,0
323171,99.3475,-565.676,0,0
323431,98.0202,-564.848,0,0
323691,96.7252,-563.943,0,0
323952,95.5236,-562.91,0,0
324212,94.4324,-561.875,0,0
324472,93.3782,-560.696,0,0
324733,92.308,-559.586,0,0
324993,91.4352,-558.439,0,0
325253,90.4695,-557.178,0,0
325514,89.5586,-555.933,0,0
325774,88.7885,-554.647,0,0
326034,88.0355,-553.454,0,0
326295,87.339,-552.222,0,0
326555,86.7179,-550.921,0,0
326815,86.0623,-549.659,0,0
327076,85.4728,-548.427,0,0
327336,84.8332,-547.157,0,0
327596,84.2215,-545.913,0,0
327857,83.6717,-544.66,0,0
328117,83.0434,-543.364,0,0
328377,82.4798,-541.982,0,0
328638,81.9549,-540.593,0,0
328898,81.4979,-539.165,0,0
329158,81.0856,-537.697,0,0
329419,80.7967,-536.181,0,0
329679,80.656,-534.681,0,0
329939,80.4833,-533.15,0,0
330200,80.3682,-531.761,0,0
330460,80.3481,-530.321,0,0
330720.15,80.5142,-528.969,0,0
330980.475,80.68,-527.628,0,0
331240.8,80.8932,-526.335,0,0
331501.125,81.2756,-525.142,0,0
331761.45,81.5856,-524.093,0,0
332021.775,81.9881,-523.156,0,0
332282.1,82.3367,-522.397,0,0
332542.425,82.6089,-521.716,0,0
332802.75,82.8524,-521.145,0,0
333063.075,82.9237,-520.63,0,0
333323.4,82.9507,-520.057,0,0
333583.725,82.8809,-519.508,0,0
333844.05,82.7553,-518.997,0,0
334104.375,82.5873,-518.483,0,0
334364.7,82.3095,-517.872,0,0
334625.025,82.06,-517.251,0,0
334885.35,81.7509,-516.597,0,0
335145.675,81.3538,-515.961,0,0
335406.0,81.0506,-515.205,0,0
335666.325,80.6766,-514.459,0,0
335926.65,80.2849,-513.699,0,0
336186.975,79.8778,-512.905,0,0
336447.3,79.4861,-512.006,0,0
336707.625,79.1034,-511.117,0,0
336967.95,78.6728,-510.179,0,0
337228.275,78.3175,-509.192,0,0
337488.6,77.9201,-508.169,0,0
337748.925,77.5876,-507.155,0,0
338009.25,77.2305,-506.095,0,0
338269.575,76.8948,-504.955,0,0
338529.9,76.5563,-503.789,0,0
338790.225,76.3186,-502.518,0,0
339050.55,75.9912,-501.244,0,0
339310.875,75.8644,-499.896,0,0
339571.2,75.7778,-498.499,0,0
339831.525,75.7691,-497.088,0,0
340091.85,75.9022,-495.758,0,0
340352.175,76.0564,-494.395,0,0
340612.5,76.2765,-492.952,0,0
340872.825,76.5726,-491.599,0,0
341133.15,76.9639,-490.311,0,0
341393.475,77.4974,-489.048,0,0
341653.8,77.9923,-487.797,0,0
341914.125,78.64,-486.672,0,0
342174.45,79.3109,-485.559,0,0
342434.775,80.0249,-484.567,0,0
342695.1,80.8193,-483.69,0,0
342955.425,81.6631,-482.864,0,0
343215.75,82.4312,-482.149,0,0
343476.075,83.2062,-481.481,0,0
343736.4,83.9829,-480.949,0,0
343996.725,84.777,-480.527,0,0
344257.05,85.4353,-480.117,0,0
344517.375,86.1322,-479.832,0,0
344777.7,86.7397,-479.564,0,0
345038.025,87.3914,-479.341,0,0
345298.35,87.9179,-479.233,0,0
345558.675,88.3969,-479.142,0,0
345819.0,88.8219,-479.074,0,0
346079.325,89.1636,-479.05,0,0
346339.65,89.4466,-479.102,0,0
346599.975,89.6919,-479.087,0,0
346860,89.821,-479.183,0,0
347121,89.8837,-479.197,0,0
347381,89.8918,-479.206,0,0
347641,89.845,-479.17,0,0
347902,89.7145,-479.087,0,0
348162,89.6354,-479.07,0,0
348422,89.4865,-478.934,0,0
348683,89.3738,-478.835,0,0
348943,89.1607,-478.681,0,0
349203,88.9795,-478.532,0,0
349464,88.7486,-478.388,0,0
349724,88.5484,-478.256,0,0
349984,88.1836,-478.104,0,0
350245,87.8186,-477.948,0,0
350505,87.4258,-477.677,0,0
350765,86.9259,-477.421,0,0
351025,86.4251,-477.001,0,0
351286,85.9852,-476.541,0,0
351546,85.4895,-476.022,0,0
351806,85.0883,-475.425,0,0
352067,84.7638,-474.831,0,0
352327,84.4388,-474.153,0,0
352587,84.2184,-473.509,0,0
352848,84.0118,-472.812,0,0
353108,83.7466,-472.248,0,0
353368,83.6463,-471.666,0,0
353629,83.452,-471.055,0,0
353889,83.2147,-470.439,0,0
354149,83.0367,-469.913,0,0
354410,82.8673,-469.303,0,0
354670,82.6942,-468.71,0,0
354930,82.448,-468.048,0,0
355191,82.2708,-467.418,0,0
355451,82.1396,-466.734,0,0
355711,81.9304,-466.105,0,0
355972,81.8311,-465.39,0,0
356232,81.7563,-464.758,0,0
356492,81.6525,-464.036,0,0
356753,81.6061,-463.441,0,0
357013,81.619,-462.834,0,0
357273,81.5625,-462.305,0,0
357534,81.5287,-461.709,0,0
357794,81.4155,-461.16,0,0
358054,81.423,-460.623,0,0
358315,81.3174,-460.06,0,0
358575,81.2404,-459.568,0,0
358835,81.1003,-459.034,0,0
359096,80.9918,-458.545,0,0
359356,80.8076,-458.049,0,0
359616,80.5378,-457.493,0,0
359877,80.3035,-456.931,0,0
360137,80.0161,-456.24,0,0
360397,79.7411,-455.555,0,0
360658,79.5,-454.829,0,0
360918,79.3738,-453.996,0,0
361178,79.1908,-453.193,0,0
361438,79.161,-452.343,0,0
361699,79.144,-451.55,0,0
361959,79.1271,-450.83,0,0
362219,79.1202,-450.053,0,0
362480,79.0928,-449.378,0,0
362740.1,79.1005,-448.683,0,0
363000.425,79.1036,-447.948,0,0
363260.75,79.1252,-447.222,0,0
363521.075,79.0441,-446.568,0,0
363781.4,79.0679,-445.853,0,0
364041.725,79.016,-445.084,0,0
364302.05,78.995,-444.367,0,0
364562.375,78.9625,-443.592,0,0
364822.7,78.9343,-442.847,0,0
365083.025,78.8307,-442.026,0,0
365343.35,78.8018,-441.186,0,0
365603.675,78.8078,-440.316,0,0
365864.0,78.855,-439.465,0,0
366124.325,78.9368,-438.504,0,0
366384.65,79.0091,-437.595,0,0
366644.975,79.1225,-436.635,0,0
366905.3,79.25,-435.685,0,0
367165.625,79.4213,-434.703,0,0
367425.95,79.5873,-433.679,0,0
367686.275,79.8619,-432.663,0,0
367946.6,80.2366,-431.56,0,0
368206.925,80.6595,-430.524,0,0
368467.25,81.1665,-429.465,0,0
368727.575,81.7072,-428.53,0,0
368987.9,82.2735,-427.565,0,0
369248.225,82.8722,-426.609,0,0
369508.55,83.5543,-425.607,0,0
369768.875,84.2974,-424.706,0,0
370029.2,85.1333,-423.828,0,0
370289.525,86.0079,-422.926,0,0
370549.85,86.9725,-422.082,0,0
370810.175,88.0269,-421.333,0,0
371070.5,89.1997,-420.666,0,0
371330.825,90.4076,-420.14,0,0
371591.15,91.6562,-419.717,0,0
371851.475,92.9257,-419.469,0,0
372111.8,94.1996,-419.334,0,0
372372.125,95.4415,-419.334,0,0
372632.45,96.7044,-419.511,0,0
372892.775,97.769,-419.786,0,0
373153.1,98.8125,-420.208,0,0
373413.425,99.7703,-420.668,0,0
373673.75,100.557,-421.221,0,0
373934.075,101.234,-421.794,0,0
374194.4,101.903,-422.452,0,0
374454.725,102.374,-423.049,0,0
374715.05,102.815,-423.701,0,0
374975.375,103.029,-424.286,0,0
375235.7,103.256,-424.917,0,0
375496.025,103.438,-425.459,0,0
375756.35,103.443,-425.947,0,0
376016.675,103.41,-426.465,0,0
376277.0,103.367,-426.931,0,0
376537.325,103.227,-427.286,0,0
376797.65,103.02,-427.563,0,0
377057.975,102.901,-427.742,0,0
377318.3,102.767,-427.885,0,0
377578.625,102.686,-428.03,0,0
377838.95,102.643,-428.117,0,0
378099.275,102.687,-428.231,0,0
378359.6,102.676,-428.39,0,0
378619.925,102.683,-428.582,0,0
378880,102.687,-428.818,0,0
379141,102.64,-429.061,0,0
379401,102.592,-429.29,0,0
379661,102.444,-429.589,0,0
379922,102.243,-429.855,0,0
380182,101.939,-430.096,0,0
380442,101.737,-430.291,0,0
380703,101.42,-430.348,0,0
380963,101.116,-430.34,0,0
381223,100.822,-430.298,0,0
381483,100.641,-430.191,0,0
381744,100.49,-430.07,0,0
382004,100.475,-429.989,0,0
382264,100.519,-429.974,0,0
382525,100.543,-430.047,0,0
382785,100.592,-430.128,0,0
383045,100.638,-430.356,0,0
383306,100.658,-430.626,0,0
383566,100.666,-430.934,0,0
383826,100.663,-431.26,0,0
384087,100.51,-431.674,0,0
384347,100.337,-432.13,0,0
384607,100.104,-432.642,0,0
384868,99.7188,-433.211,0,0
385128,99.3196,-433.754,0,0
385388,98.7652,-434.374,0,0
385649,98.0731,-434.863,0,0
385909,97.2556,-435.324,0,0
386169,96.3483,-435.725,0,0
386430,95.298,-435.983,0,0
386690,94.2301,-436.105,0,0
386950,93.1343,-436.095,0,0
387211,91.9559,-435.913,0,0
387471,90.9336,-435.637,0,0
387731,89.8997,-435.247,0,0
387992,88.9574,-434.757,0,0
388252,88.1047,-434.095,0,0
388512,87.3662,-433.46,0,0
388773,86.735,-432.769,0,0
389033,86.2301,-432.03,0,0
389293,85.8571,-431.301,0,0
389554,85.5674,-430.652,0,0
389814,85.3901,-430.022,0,0
390074,85.2587,-429.557,0,0
390335,85.1344,-429.186,0,0
390595,85.0309,-428.925,0,0
390855,84.8604,-428.681,0,0
391116,84.7062,-428.603,0,0
391376,84.4622,-428.529,0,0
391636,84.1258,-428.481,0,0
391896,83.7107,-428.422,0,0
392157,83.2045,-428.389,0,0
392417,82.7256,-428.313,0,0
392677,82.2198,-428.255,0,0
392938,81.619,-428.164,0,0
393198,80.982,-428.116,0,0
393458,80.3076,-427.941,0,0
393719,79.5642,-427.834,0,0
393979,78.7385,-427.645,0,0
394239,77.9376,-427.343,0,0
394500,77.1249,-426.984,0,0
394760.05,76.2854,-426.645,0,0
395020.375,75.4385,-426.181,0,0
395280.7,74.6143,-425.75,0,0
395541.025,73.7506,-425.251,0,0
395801.35,72.8733,-424.639,0,0
396061.675,72.0492,-424.034,0,0
396322.0,71.2007,-423.367,0,0
396582.325,70.4168,-422.617,0,0
396842.65,69.5963,-421.823,0,0
397102.975,68.816,-420.999,0,0
397363.3,68.1245,-420.115,0,0
397623.625,67.4728,-419.219,0,0
397883.95,66.7404,-418.303,0,0
398144.275,66.1164,-417.362,0,0
398404.6,65.545,-416.374,0,0
398664.925,64.9578,-415.363,0,0
398925.25,64.4515,-414.269,0,0
399185.575,63.9458,-413.225,0,0
399445.9,63.5353,-412.066,0,0
399706.225,63.1431,-410.942,0,0
399966.55,62.7967,-409.742,0,0
400006.6,62.8014,-409.592,0,0