File: Accelerated corrosion test data/2025-10-20_06-00-03/sample_1.csv
Frequency (Hz),Impedance (ohms),Phase (Radians),Temperature (C),Humidity (%)
10000.0,242.503,-12307.8,0,0
10260.325,246.725,-11989.5,0,0
10520.65,231.63,-11708.5,0,0
10780.975,228.326,-11421,0,0
11041.3,221.35,-11160,0,0
11301.625,216.107,-10900.6,0,0
11561.95,212.758,-10655.1,0,0
11822.275,210.559,-10413.6,0,0
12082.6,236.252,-10182.4,0,0
12342.925,211.973,-10007.5,0,0
12603.25,196.12,-9791.91,0,0
12863.575,193.048,-9587.9,0,0
13123.9,203.247,-9394.24,0,0
13384.225,186.794,-9222.88,0,0
13644.55,182.477,-9039.97,0,0
13904.875,184.741,-8858.77,0,0
14165.2,192.311,-8724.58,0,0
14425.525,215.858,-8563.7,0,0
14685.8,208.156,-8391.11,0,0
14946.175,178.015,-8284.81,0,0
15206.5,191.631,-8122.29,0,0
15466.825,173.746,-8007.94,0,0
15727.15,173.092,-7873.73,0,0
15987.5,161.532,-7743.86,0,0
16247.8,157.917,-7616.56,0,0
16508.125,156.175,-7492.48,0,0
16768.45,159.123,-7373.26,0,0
17028.775,164.454,-7263.45,0,0
17289.1,155.312,-7161.24,0,0
17549.425,152.73,-7056.36,0,0
17809.75,146.582,-6950.31,0,0
18070.075,149.257,-6851.34,0,0
18330.4,143.148,-6753.79,0,0
18590.725,138.909,-6659.25,0,0
18851.05,139.222,-6559.87,0,0
19111.375,136.426,-6478.29,0,0
19371.7,133.853,-6385.5,0,0
19632.025,133.059,-6295.56,0,0
19892.35,138.109,-6207.74,0,0
20152.675,136.905,-6120.28,0,0
20413.0,158.286,-6029.82,0,0
20673.3,172.097,-5990.91,0,0
20933.65,150.427,-5922.64,0,0
21193.975,166.209,-5857.5,0,0
21454.3,142.237,-5786.29,0,0
21714.625,137.783,-5711.84,0,0
21974.9,141.357,-5629.77,0,0
22235.275,178.712,-5587.48,0,0
22495.6,142.868,-5547.11,0,0
22755.925,128.332,-5476.29,0,0
23016.25,123.051,-5408.5,0,0
23276.6,119.926,-5346.27,0,0
23536.9,116.333,-5284.62,0,0
23797.225,113.175,-5222.52,0,0
24057.55,115.014,-5161.34,0,0
24317.875,113.909,-5113.29,0,0
24578.2,111.373,-5052.91,0,0
24838.525,111.586,-5002.07,0,0
25098.85,111.094,-4947.81,0,0
25359.175,106.984,-4897.95,0,0
25619.5,105.798,-4845.91,0,0
25879.8,103.715,-4794.28,0,0
26140.1,104.068,-4744.53,0,0
26400.5,102.985,-4694.36,0,0
26660.8,105.94,-4642.9,0,0
26921.1,114.717,-4593.26,0,0
27181.4,124.83,-4562.78,0,0
27441.8,112.478,-4528.01,0,0
27702.1,105.145,-4478.74,0,0
27962.4,111.729,-4428.11,0,0
28222.7,111.879,-4389.59,0,0
28483.1,121.558,-4344.96,0,0
28743.4,134.117,-4327.18,0,0
29003.7,120.045,-4290.94,0,0
29264,121.63,-4257.59,0,0
29524.4,109.565,-4224.64,0,0
29784.7,106.98,-4180.35,0,0
30045,102.878,-4149.29,0,0
30305.3,100.755,-4109.5,0,0
30565.7,97.8691,-4070.64,0,0
30826,101.667,-4033.23,0,0
31086.3,106.712,-4007.03,0,0
31346.6,101.06,-3976.74,0,0
31607,94.8039,-3939.42,0,0
31867.3,100.046,-3906.11,0,0
32127.6,98.2479,-3876.08,0,0
32387.9,98.462,-3848.34,0,0
32648.3,94.1669,-3816.5,0,0
32908.6,96.3385,-3787.61,0,0
33168.9,91.5868,-3759.15,0,0
33429.2,89.9036,-3729.87,0,0
33689.6,86.921,-3700.18,0,0
33949.9,85.9249,-3668.69,0,0
34210.2,87.7619,-3642,0,0
34470.5,84.8067,-3615.59,0,0
34730.9,82.7259,-3586.91,0,0
34991.2,82.0562,-3559.76,0,0
35251.5,81.0843,-3533.04,0,0
35511.8,80.2384,-3506,0,0
35772.2,80.1105,-3480.49,0,0
36032.5,78.3976,-3454.37,0,0
36292.8,77.8417,-3428.96,0,0
36553.1,77.0615,-3403.91,0,0
36813.5,76.7466,-3379.07,0,0
37073.8,76.3181,-3354.91,0,0
37334.1,75.8363,-3331.64,0,0
37594.4,75.4877,-3307.78,0,0
37854.8,74.4921,-3284.79,0,0
38115.1,73.7174,-3261.69,0,0
38375.4,73.7083,-3238.75,0,0
38635.7,73.5643,-3216.89,0,0
38896.1,72.8033,-3194.55,0,0
39156.4,73.0198,-3172.39,0,0
39416.7,72.8578,-3151.71,0,0
39677,71.9985,-3130.31,0,0
39937.4,71.5872,-3109,0,0
40197.7,71.5574,-3087.9,0,0
40458,71.6678,-3067.77,0,0
40718.3,71.6173,-3046.63,0,0
40978.7,73.2547,-3027.09,0,0
41239,73.2747,-3009.37,0,0
41499.3,72.3961,-2991.17,0,0
41759.6,71.5257,-2972.16,0,0
42020,71.0815,-2952.59,0,0
42280.275,70.7792,-2934.65,0,0
42540.6,71.4062,-2916.52,0,0
42800.925,70.9142,-2899.67,0,0
43061.25,69.8553,-2881.19,0,0
43321.575,69.8515,-2864.05,0,0
43581.9,69.079,-2846.66,0,0
43842.225,68.1859,-2828.8,0,0
44102.55,68.5477,-2811.06,0,0
44362.875,69.4059,-2793.87,0,0
44623.2,69.78,-2778.67,0,0
44883.525,68.8807,-2762.57,0,0
45143.85,69.1848,-2746.72,0,0
45404.175,69.1673,-2730.93,0,0
45664.5,68.115,-2715.75,0,0
45924.825,67.2368,-2700.56,0,0
46185.15,66.5613,-2685.03,0,0
46445.475,65.382,-2669.24,0,0
46705.8,65.8721,-2653.53,0,0
46966.125,65.5071,-2639.37,0,0
47226.45,64.9662,-2624.06,0,0
47486.775,64.9954,-2609.22,0,0
47747.1,64.6704,-2595.17,0,0
48007.425,64.1396,-2580.99,0,0
48267.75,64.0154,-2566.75,0,0
48528.075,62.8156,-2553.2,0,0
48788.4,62.0964,-2538.76,0,0
49048.725,62.0491,-2524.53,0,0
49309.05,62.0497,-2510.75,0,0
49569.375,62.056,-2497.35,0,0
49829.7,61.3121,-2484.43,0,0
50090.025,60.4677,-2470.74,0,0
50350.35,60.0816,-2457.38,0,0
50610.675,59.9391,-2444.07,0,0
50871.0,59.7771,-2430.98,0,0
51131.325,59.661,-2418.17,0,0
51391.65,59.64,-2405.61,0,0
51651.975,59.0435,-2393.52,0,0
51912.3,58.649,-2380.63,0,0
52172.625,58.3831,-2368.26,0,0
52432.95,58.411,-2355.98,0,0
52693.275,58.1179,-2343.83,0,0
52953.6,58.1952,-2331.82,0,0
53213.925,58.1152,-2320.07,0,0
53474.25,57.772,-2308.6,0,0
53734.575,57.5865,-2296.8,0,0
53994.9,57.5895,-2285.61,0,0
54255.225,57.0091,-2274.44,0,0
54515.55,56.6475,-2262.88,0,0
54775.875,56.2375,-2251.6,0,0
55036.2,56.0411,-2240.32,0,0
55296.525,56.1283,-2229.15,0,0
55556.85,55.8158,-2218.38,0,0
55817.175,55.7167,-2207.8,0,0
56077.5,55.2441,-2196.92,0,0
56337.825,55.1222,-2185.96,0,0
56598.15,55.1564,-2175.32,0,0
56858.475,55.0995,-2164.83,0,0
57118.8,54.9118,-2154.59,0,0
57379.125,54.8155,-2144.15,0,0
57639.45,55.0154,-2133.94,0,0
57899.775,54.7605,-2123.93,0,0
58160.1,54.7345,-2113.8,0,0
58420.4,54.6667,-2104.13,0,0
58680.7,54.504,-2094.29,0,0
58941.1,54.3873,-2084.33,0,0
59201.4,54.7068,-2074.72,0,0
59461.7,54.5923,-2065.4,0,0
59722,54.3919,-2056.01,0,0
59982.4,54.4109,-2046.5,0,0
60242.7,54.3193,-2037.14,0,0
60503,54.4881,-2027.96,0,0
60763.3,54.6861,-2019.12,0,0
61023.7,54.2122,-2010.66,0,0
61284,53.7393,-2001.43,0,0
61544.3,53.4352,-1992.23,0,0
61804.6,53.7013,-1983.28,0,0
62065,53.3399,-1974.9,0,0
62325.3,52.9963,-1965.78,0,0
62585.6,52.7147,-1956.97,0,0
62845.9,52.7225,-1948.03,0,0
63106.3,52.8209,-1939.4,0,0
63366.6,52.7061,-1930.98,0,0
63626.9,52.7297,-1922.28,0,0
63887.2,52.6715,-1913.69,0,0
64147.6,52.7786,-1905.29,0,0
64407.9,52.8501,-1896.79,0,0
64668.2,53.2658,-1888.52,0,0
64928.5,53.6309,-1880.29,0,0
65188.9,54.3377,-1872.13,0,0
65449.2,54.971,-1864.53,0,0
65709.5,55.5423,-1857.33,0,0
65969.8,55.3967,-1850.46,0,0
66230.2,55.2527,-1843.02,0,0
66490.5,55.3049,-1835.75,0,0
66750.8,54.9205,-1828.73,0,0
67011.1,54.2497,-1821.42,0,0
67271.5,53.6762,-1813.71,0,0
67531.8,54.2033,-1805.74,0,0
67792.1,54.6828,-1798.84,0,0
68052.4,54.2372,-1792.58,0,0
68312.8,53.2317,-1785.31,0,0
68573.1,53.0724,-1777.59,0,0
68833.4,53.212,-1770.42,0,0
69093.7,53.2039,-1763.57,0,0
69354.1,52.8876,-1756.45,0,0
69614.4,52.916,-1749.72,0,0
69874.7,52.5116,-1742.97,0,0
70135,52.1423,-1736.43,0,0
70395.4,51.4614,-1729.49,0,0
70655.7,50.9669,-1722.47,0,0
70916,50.7702,-1715.34,0,0
71176.3,50.4102,-1708.39,0,0
71436.7,50.3942,-1701.63,0,0
71697,50.021,-1695.26,0,0
71957.3,49.4058,-1688.47,0,0
72217.6,48.8845,-1681.54,0,0
72478,48.7224,-1674.43,0,0
72738.3,48.5762,-1667.56,0,0
72998.6,48.5231,-1660.64,0,0
73258.9,48.6231,-1654.11,0,0
73519.3,48.4037,-1647.52,0,0
73779.6,48.2833,-1640.86,0,0
74039.9,48.2134,-1634.19,0,0
74300.225,48.3231,-1627.64,0,0
74560.55,48.2892,-1621.09,0,0
74820.875,48.4847,-1614.6,0,0
75081.2,48.6722,-1608.29,0,0
75341.525,48.6755,-1602.08,0,0
75601.85,48.6548,-1595.74,0,0
75862.175,48.7679,-1589.37,0,0
76122.5,49.0543,-1583.17,0,0
76382.825,49.3252,-1577.05,0,0
76643.15,49.4985,-1571.06,0,0
76903.475,49.6006,-1565.02,0,0
77163.8,49.9018,-1559.01,0,0
77424.125,50.111,-1553.15,0,0
77684.45,50.285,-1547.29,0,0
77944.775,50.4492,-1541.5,0,0
78205.1,50.8712,-1535.53,0,0
78465.425,51.4638,-1529.94,0,0
78725.75,51.9228,-1524.74,0,0
78986.075,52.0132,-1519.54,0,0
79246.4,52.1006,-1514.42,0,0
79506.725,51.9018,-1509.27,0,0
79767.05,51.5352,-1503.84,0,0
80027.375,51.4523,-1498.31,0,0
80287.7,51.1881,-1493.02,0,0
80548.025,50.8295,-1487.47,0,0
80808.35,50.6527,-1481.81,0,0
81068.675,50.5091,-1476.28,0,0
81329.0,50.4985,-1470.58,0,0
81589.325,50.5817,-1464.97,0,0
81849.65,50.7561,-1459.45,0,0
82109.975,50.8875,-1454.11,0,0
82370.3,51.0459,-1448.68,0,0
82630.625,51.1271,-1443.44,0,0
82890.95,51.0865,-1438.02,0,0
83151.275,51.2943,-1432.46,0,0
83411.6,51.6278,-1427.24,0,0
83671.925,51.777,-1422,0,0
83932.25,52.079,-1416.61,0,0
84192.575,52.439,-1411.39,0,0
84452.9,52.8494,-1406.3,0,0
84713.225,53.2122,-1401.24,0,0
84973.55,53.5278,-1396.2,0,0
85233.875,54.0322,-1391.2,0,0
85494.2,54.5678,-1386.53,0,0
85754.525,54.8434,-1381.89,0,0
86014.85,54.983,-1377.17,0,0
86275.175,55.1713,-1372.49,0,0
86535.5,55.3879,-1367.66,0,0
86795.825,55.5037,-1362.98,0,0
87056.15,55.5849,-1358.08,0,0
87316.475,55.9985,-1353.37,0,0
87576.8,56.1299,-1348.88,0,0
87837.125,56.0054,-1344.21,0,0
88097.45,56.07,-1339.34,0,0
88357.775,56.0889,-1334.38,0,0
88618.1,56.4209,-1329.3,0,0
88878.425,56.8691,-1324.53,0,0
89138.75,57.2518,-1319.5,0,0
89399.075,57.7102,-1314.55,0,0
89659.4,58.4115,-1309.81,0,0
89919.725,59.0691,-1305.19,0,0
90180,59.7281,-1300.59,0,0
90440.4,60.2905,-1295.89,0,0
90700.7,61.0878,-1291.05,0,0
90961,61.7968,-1286.37,0,0
91221.3,63.0936,-1281.45,0,0
91481.7,64.5819,-1277.27,0,0
91742,65.8305,-1273.22,0,0
92002.3,66.9712,-1269.27,0,0
92262.6,68.1352,-1265.13,0,0
92523,69.6498,-1261.32,0,0
92783.3,71.3377,-1257.41,0,0
93043.6,73.3805,-1254.45,0,0
93303.9,74.7089,-1251.71,0,0
93564.3,76.5685,-1248.74,0,0
93824.6,79.1842,-1247.46,0,0
94084.9,79.542,-1248.31,0,0
94345.2,77.0659,-1247.84,0,0
94605.6,74.3047,-1244.79,0,0
94865.9,73.0748,-1241.45,0,0
95126.2,71.4464,-1237.84,0,0
95386.5,70.2977,-1234.09,0,0
95646.9,69.1082,-1230.36,0,0
95907.2,67.8621,-1226.15,0,0
96167.5,67.1184,-1221.42,0,0
96427.8,67.2987,-1217.1,0,0
96688.2,67.206,-1213.74,0,0
96948.5,66.3657,-1209.94,0,0
97208.8,65.7334,-1205.77,0,0
97469.1,65.422,-1201.61,0,0
97729.5,65.1157,-1197.49,0,0
97989.8,64.9431,-1193.28,0,0
98250.1,65.0356,-1189.07,0,0
98510.4,65.2455,-1185.33,0,0
98770.8,65.0646,-1181.75,0,0
99031.1,64.6235,-1177.87,0,0
99291.4,64.4238,-1173.84,0,0
99551.7,64.2248,-1169.91,0,0
99812.1,64.0941,-1165.91,0,0
100072,63.9729,-1162.01,0,0
100333,63.7058,-1158.08,0,0
100593,63.4995,-1153.85,0,0
100853,63.4748,-1149.73,0,0
101114,63.4488,-1145.59,0,0
101374,63.4703,-1141.49,0,0
101634,63.3879,-1137.39,0,0
101895,63.2133,-1133.07,0,0
102155,63.318,-1128.41,0,0
102415,63.7155,-1123.72,0,0
102676,64.454,-1119.02,0,0
102936,65.5603,-1114.77,0,0
103196,66.4435,-1110.7,0,0
103457,67.3605,-1106.61,0,0
103717,68.2765,-1102.56,0,0
103977,69.3599,-1098.28,0,0
104238,71.106,-1094.26,0,0
104498,72.8063,-1091.08,0,0
104758,73.9494,-1088.11,0,0
105019,74.8572,-1085.07,0,0
105279,75.5945,-1081.76,0,0
105539,76.4822,-1078.15,0,0
105800,77.7975,-1074.73,0,0
106060,79.0631,-1071.5,0,0
106320.175,80.4274,-1068.49,0,0
106580.5,81.7276,-1065.61,0,0
106840.825,82.8865,-1062.94,0,0
107101.15,83.924,-1060.06,0,0
107361.475,85.2866,-1057.26,0,0
107621.8,86.6142,-1054.95,0,0
107882.125,87.5459,-1052.77,0,0
108142.45,88.3156,-1050.37,0,0
108402.775,89.0664,-1047.82,0,0
108663.1,90.0625,-1045.34,0,0
108923.425,90.9402,-1043.08,0,0
109183.75,91.8338,-1040.68,0,0
109444.075,92.9748,-1038.66,0,0
109704.4,93.8238,-1037.06,0,0
109964.725,94.1917,-1035.47,0,0
110225.05,94.3337,-1033.8,0,0
110485.375,93.7712,-1031.79,0,0
110745.7,93.7085,-1029.1,0,0
111006.025,93.9412,-1026.44,0,0
111266.35,94.1858,-1023.76,0,0
111526.675,94.9105,-1021.07,0,0
111787.0,95.7635,-1018.58,0,0
112047.325,96.5794,-1016.38,0,0
112307.65,97.3162,-1014.45,0,0
112567.975,98.0095,-1012.58,0,0
112828.3,98.7403,-1010.92,0,0
113088.625,99.2032,-1009.52,0,0
113348.95,99.5526,-1008.03,0,0
113609.275,99.6115,-1006.82,0,0
113869.6,99.2911,-1005.6,0,0
114129.925,98.8429,-1003.89,0,0
114390.25,98.5573,-1002.28,0,0
114650.575,98.1986,-1000.57,0,0
114910.9,97.8259,-999.154,0,0
115171.225,97.116,-997.567,0,0
115431.55,96.2431,-995.923,0,0
115691.875,95.2407,-994.085,0,0
115952.2,94.2132,-992.015,0,0
116212.525,93.1754,-989.871,0,0
116472.85,92.2664,-987.565,0,0
116733.175,91.3683,-985.321,0,0
116993.5,90.339,-983.082,0,0
117253.825,89.0654,-980.599,0,0
117514.15,87.9172,-977.815,0,0
117774.475,86.9968,-974.96,0,0
118034.8,85.9159,-972.028,0,0
118295.125,85.2395,-968.826,0,0
118555.45,84.7215,-965.723,0,0
118815.775,84.2205,-962.723,0,0
119076.1,83.7243,-959.644,0,0
119336.425,83.3605,-956.573,0,0
119596.75,83.0551,-953.488,0,0
119857.075,83.0186,-950.357,0,0
120117.4,83.0818,-947.443,0,0
120377.725,83.1281,-944.753,0,0
120638.05,83.0876,-942.183,0,0
120898.375,82.9314,-939.737,0,0
121158.7,82.5884,-937.295,0,0
121419.025,82.0574,-934.709,0,0
121679.35,81.5434,-932.013,0,0
121939.675,80.9463,-929.21,0,0
122200.0,80.4869,-926.225,0,0
122460,80.0964,-923.243,0,0
122721,79.6977,-920.186,0,0
122981,79.5123,-917.082,0,0
123241,79.2787,-914.073,0,0
123502,79.0963,-910.896,0,0
123762,79.1119,-907.723,0,0
124022,79.2244,-904.667,0,0
124283,79.3194,-901.781,0,0
124543,79.3229,-898.916,0,0
124803,79.2739,-895.946,0,0
125064,79.3398,-892.998,0,0
125324,79.3097,-890.028,0,0
125584,79.4401,-886.941,0,0
125845,79.6896,-883.987,0,0
126105,79.857,-881.108,0,0
126365,79.9788,-878.191,0,0
126626,80.1871,-875.253,0,0
126886,80.3742,-872.332,0,0
127146,80.5419,-869.397,0,0
127406,80.8124,-866.387,0,0
127667,81.0137,-863.477,0,0
127927,81.3982,-860.308,0,0
128187,81.8513,-857.316,0,0
128448,82.4601,-854.388,0,0
128708,83.0137,-851.553,0,0
128968,83.4336,-848.854,0,0
129229,83.7556,-845.957,0,0
129489,84.2265,-842.926,0,0
129749,84.823,-839.933,0,0
130010,85.5955,-836.848,0,0
130270,86.611,-834.013,0,0
130530,87.5467,-831.352,0,0
130791,88.4046,-828.749,0,0
131051,89.3068,-826.148,0,0
131311,90.2984,-823.598,0,0
131572,91.3273,-821.263,0,0
131832,92.1914,-819.041,0,0
132092,93.055,-816.806,0,0
132353,93.7815,-814.672,0,0
132613,94.4158,-812.466,0,0
132873,95.0905,-810.182,0,0
133134,95.8433,-807.932,0,0
133394,96.5015,-805.754,0,0
133654,97.1108,-803.567,0,0
133915,97.7324,-801.237,0,0
134175,98.5122,-798.868,0,0
134435,99.3567,-796.682,0,0
134696,100.185,-794.594,0,0
134956,100.91,-792.449,0,0
135216,101.717,-790.396,0,0
135477,102.453,-788.367,0,0
135737,103.003,-786.307,0,0
135997,103.654,-784.158,0,0
136258,104.407,-781.909,0,0
136518,105.359,-779.637,0,0
136778,106.525,-777.487,0,0
137039,107.652,-775.646,0,0
137299,108.803,-773.762,0,0
137559,110.217,-772.167,0,0
137819,111.482,-771.128,0,0
138080,112.198,-770.256,0,0
138340.125,112.589,-769.215,0,0
138600.45,112.936,-767.978,0,0
138860.775,113.253,-766.89,0,0
139121.1,113.254,-765.773,0,0
139381.425,113.142,-764.394,0,0
139641.75,112.989,-762.943,0,0
139902.075,112.852,-761.326,0,0
140162.4,112.699,-759.712,0,0
140422.725,112.534,-758.028,0,0
140683.05,112.224,-756.266,0,0
140943.375,111.971,-754.317,0,0
141203.7,111.752,-752.269,0,0
141464.025,111.606,-750.154,0,0
141724.35,111.621,-748.025,0,0
141984.675,111.457,-745.996,0,0
142245.0,111.256,-743.647,0,0
142505.325,111.386,-741.166,0,0
142765.65,111.642,-738.859,0,0
143025.975,111.793,-736.68,0,0
143286.3,111.943,-734.319,0,0
143546.625,112.215,-731.871,0,0
143806.95,112.692,-729.455,0,0
144067.275,113.263,-727.266,0,0
144327.6,113.634,-725.274,0,0
144587.925,113.857,-723.154,0,0
144848.25,114.103,-720.763,0,0
145108.575,114.562,-718.322,0,0
145368.9,115.187,-716.011,0,0
145629.225,115.797,-713.741,0,0
145889.55,116.487,-711.475,0,0
146149.875,117.44,-709.304,0,0
146410.2,118.294,-707.413,0,0
146670.525,119.02,-705.569,0,0
146930.85,119.796,-703.734,0,0
147191.175,120.516,-702.12,0,0
147451.5,121.029,-700.568,0,0
147711.825,121.389,-699.001,0,0
147972.15,121.574,-697.386,0,0
148232.475,121.637,-695.55,0,0
148492.8,121.825,-693.49,0,0
148753.125,122.057,-691.54,0,0
149013.45,122.273,-689.371,0,0
149273.775,122.781,-687.049,0,0
149534.1,123.646,-685.038,0,0
149794.425,124.365,-683.472,0,0
150054.75,124.753,-682.021,0,0
150315.075,124.987,-680.409,0,0
150575.4,125.137,-678.942,0,0
150835.725,124.956,-677.516,0,0
151096.05,124.399,-675.748,0,0
151356.375,123.91,-673.535,0,0
151616.7,123.637,-671.155,0,0
151877.025,123.449,-668.832,0,0
152137.35,123.126,-666.466,0,0
152397.675,122.677,-663.898,0,0
152658.0,122.237,-660.946,0,0
152918.325,122.126,-657.655,0,0
153178.65,122.292,-654.323,0,0
153438.975,122.739,-651.093,0,0
153699.3,123.189,-647.913,0,0
153959.625,123.694,-644.626,0,0
154219.95,124.391,-641.289,0,0
154480,125.192,-637.975,0,0
154741,126.06,-634.546,0,0
155001,127.213,-631.093,0,0
155261,128.493,-627.793,0,0
155522,129.688,-624.46,0,0
155782,131.129,-620.801,0,0
156042,133.059,-617.156,0,0
156303,135.382,-613.783,0,0
156563,137.835,-610.877,0,0
156823,140.069,-608.113,0,0
157084,142.503,-605.288,0,0
157344,145.172,-602.65,0,0
157604,147.929,-600.552,0,0
157864,150.474,-598.733,0,0
158125,152.654,-597.028,0,0
158385,154.762,-595.217,0,0
158645,156.864,-593.492,0,0
158906,158.401,-591.95,0,0
159166,159.473,-589.731,0,0
159426,161.015,-586.71,0,0
159687,163.188,-583.49,0,0
159947,166.019,-580.295,0,0
160207,169.531,-577.347,0,0
160468,173.319,-575.127,0,0
160728,177.039,-573.208,0,0
160988,180.913,-571.593,0,0
161249,185.029,-570.441,0,0
161509,188.948,-569.924,0,0
161769,192.422,-569.665,0,0
162030,195.844,-569.492,0,0
162290,199.029,-569.65,0,0
162550,201.9,-569.901,0,0
162811,204.549,-570.352,0,0
163071,206.602,-570.803,0,0
163331,208.311,-570.72,0,0
163592,210.288,-570.18,0,0
163852,212.583,-569.563,0,0
164112,215.137,-569.019,0,0
164373,217.918,-568.573,0,0
164633,220.897,-568.484,0,0
164893,223.685,-568.632,0,0
165154,226.649,-568.674,0,0
165414,229.798,-569.288,0,0
165674,232.737,-570.136,0,0
165935,235.735,-571.182,0,0
166195,238.652,-572.773,0,0
166455,241.081,-574.713,0,0
166716,243.059,-576.608,0,0
166976,244.843,-578.4,0,0
167236,246.648,-580.151,0,0
167497,248.61,-582.276,0,0
167757,250.112,-584.908,0,0
168017,251.042,-587.611,0,0
168277,251.466,-590.171,0,0
168538,251.696,-592.604,0,0
168798,251.648,-595.007,0,0
169058,251.315,-597.386,0,0
169319,250.673,-599.612,0,0
169579,249.687,-601.859,0,0
169839,248.041,-603.89,0,0
170100,246.102,-605.256,0,0
170360.075,244.056,-605.992,0,0
170620.4,242.311,-606.227,0,0
170880.725,240.731,-606.436,0,0
171141.05,239.029,-606.383,0,0
171401.375,237.411,-605.826,0,0
171661.7,236.28,-604.944,0,0
171922.025,235.538,-604.205,0,0
172182.35,234.847,-603.526,0,0
172442.675,234.415,-602.712,0,0
172703.0,234.311,-602.158,0,0
172963.325,234.154,-602.104,0,0
173223.65,233.521,-602.159,0,0
173483.975,232.604,-601.869,0,0
173744.3,231.752,-601.188,0,0
174004.625,231.364,-600.302,0,0
174264.95,231.209,-599.749,0,0
174525.275,230.838,-599.468,0,0
174785.6,230.296,-598.999,0,0
175045.925,229.865,-598.507,0,0
175306.25,229.607,-597.856,0,0
175566.575,229.527,-597.438,0,0
175826.9,229.498,-597.318,0,0
176087.225,229.117,-597.454,0,0
176347.55,228.363,-597.597,0,0
176607.875,227.41,-597.476,0,0
176868.2,226.379,-597.111,0,0
177128.525,225.398,-596.624,0,0
177388.85,224.415,-596.009,0,0
177649.175,223.577,-595.164,0,0
177909.5,223.083,-594.4,0,0
178169.825,222.617,-594.012,0,0
178430.15,221.896,-593.819,0,0
178690.475,220.87,-593.637,0,0
178950.8,219.512,-593.218,0,0
179211.125,218.196,-592.492,0,0
179471.45,217.131,-591.702,0,0
179731.775,216.073,-591.178,0,0
179992.1,214.58,-590.74,0,0
180252.425,212.684,-590.009,0,0
180512.75,210.823,-588.703,0,0
180773.075,209.269,-587.233,0,0
181033.4,207.854,-585.8,0,0
181293.725,206.335,-584.324,0,0
181554.05,204.837,-582.754,0,0
181814.375,203.395,-581.154,0,0
182074.7,201.733,-579.441,0,0
182335.025,200.03,-577.392,0,0
182595.35,198.486,-575.076,0,0
182855.675,197.199,-572.623,0,0
183116.0,196.136,-570.143,0,0
183376.325,195.213,-567.749,0,0
183636.65,194.291,-565.447,0,0
183896.975,193.24,-563.161,0,0
184157.3,192.091,-560.663,0,0
184417.625,191.011,-557.904,0,0
184677.95,190.099,-555.003,0,0
184938.275,189.329,-552.027,0,0
185198.6,188.767,-549.024,0,0
185458.925,188.324,-546.025,0,0
185719.25,187.914,-543.058,0,0
185979.575,187.523,-539.972,0,0
186239.9,187.284,-536.812,0,0
186500,187.21,-533.743,0,0
186761,187.084,-530.61,0,0
187021,187.02,-527.41,0,0
187281,187.087,-523.935,0,0
187542,187.418,-520.387,0,0
187802,188.191,-517.039,0,0
188062,189.029,-513.978,0,0
188322,189.832,-511.054,0,0
188583,190.396,-508.2,0,0
188843,191.176,-505.254,0,0
189103,191.915,-502.267,0,0
189364,192.727,-499.548,0,0
189624,193.39,-496.873,0,0
189884,193.925,-494.025,0,0
190145,194.508,-491.12,0,0
190405,195.199,-488.075,0,0
190665,195.867,-485.121,0,0
190926,196.464,-481.83,0,0
191186,197.088,-478.496,0,0
191446,198.006,-475.031,0,0
191707,198.975,-471.614,0,0
191967,200.024,-467.919,0,0
192227,201.465,-464.252,0,0
192488,202.954,-460.657,0,0
192748,204.619,-457.113,0,0
193008,206.306,-453.575,0,0
193269,208.144,-450.07,0,0
193529,210.251,-446.536,0,0
193789,212.398,-443.167,0,0
194050,214.664,-439.861,0,0
194310,216.848,-436.731,0,0
194570,219.006,-433.599,0,0
194831,221.194,-430.397,0,0
195091,223.319,-427.041,0,0
195351,225.698,-423.559,0,0
195612,228.26,-420.13,0,0
195872,231.062,-416.691,0,0
196132,233.994,-413.435,0,0
196393,237.07,-410.201,0,0
196653,240.23,-407.097,0,0
196913,243.471,-404.165,0,0
197174,246.625,-401.385,0,0
197434,249.777,-398.567,0,0
197694,253.11,-395.754,0,0
197955,256.427,-393.044,0,0
198215,259.632,-390.483,0,0
198475,262.69,-387.849,0,0
198735,265.77,-385.004,0,0
198996,269.029,-382.088,0,0
199256,272.216,-379.135,0,0
199516,275.485,-375.967,0,0
199777,278.841,-372.443,0,0
200037,282.694,-368.849,0,0
200297,286.935,-365.3,0,0
200558,291.466,-362.008,0,0
200818,295.98,-358.785,0,0
201078,300.434,-355.576,0,0
201339,304.944,-352.14,0,0
201599,309.758,-348.423,0,0
201859,315.134,-344.494,0,0
202120,321.078,-340.548,0,0
202380.025,327.493,-336.786,0,0
202640.35,334.544,-333.186,0,0
202900.675,342.064,-329.947,0,0
203161.0,349.994,-327.249,0,0
203421.325,358.171,-324.846,0,0
203681.65,366.562,-322.618,0,0
203941.975,375.502,-320.657,0,0
204202.3,385.09,-319.371,0,0
204462.625,395.085,-318.802,0,0
204722.95,405.247,-318.885,0,0
204983.275,415.52,-319.826,0,0
205243.6,425.927,-321.693,0,0
205503.925,436.066,-324.339,0,0
205764.25,446.089,-327.664,0,0
206024.575,455.64,-331.537,0,0
206284.9,465.086,-336.222,0,0
206545.225,474.19,-341.48,0,0
206805.55,482.862,-347.592,0,0
207065.875,490.73,-354.29,0,0
207326.2,497.845,-361.209,0,0
207586.525,504.304,-368.301,0,0
207846.85,510.353,-375.392,0,0
208107.175,516.067,-382.716,0,0
208367.5,521.403,-390.372,0,0
208627.825,526.127,-398.324,0,0
208888.15,530.309,-406.442,0,0
209148.475,533.924,-414.751,0,0
209408.8,536.948,-423.237,0,0
209669.125,539.266,-431.974,0,0
209929.45,540.633,-440.769,0,0
210189.775,540.955,-449.691,0,0
210450.1,539.791,-458.18,0,0
210710.425,537.615,-465.517,0,0
210970.75,534.968,-471.525,0,0
211231.075,532.325,-476.513,0,0
211491.4,529.671,-480.798,0,0
211751.725,526.814,-484.293,0,0
212012.05,524.052,-486.629,0,0
212272.375,521.684,-487.692,0,0
212532.7,520.446,-487.909,0,0
212793.025,520.351,-487.822,0,0
213053.35,521.291,-487.702,0,0
213313.675,523.2,-487.863,0,0
213574.0,525.873,-488.662,0,0
213834.325,528.964,-490.138,0,0
214094.65,532.275,-492.405,0,0
214354.975,535.409,-495.334,0,0
214615.3,538.316,-498.609,0,0
214875.625,540.71,-502.476,0,0
215135.95,542.258,-506.618,0,0
215396.275,543.842,-510.094,0,0
215656.6,545.543,-513.624,0,0
215916.925,547.019,-517.238,0,0
216177.25,548.275,-520.611,0,0
216437.575,549.731,-523.729,0,0
216697.9,551.294,-526.893,0,0
216958.225,552.865,-530.168,0,0
217218.55,554.425,-533.378,0,0
217478.875,556.104,-536.579,0,0
217739.2,557.834,-539.961,0,0
217999.525,559.411,-543.459,0,0
218259.85,560.759,-546.866,0,0
218520,562.053,-549.838,0,0
218780,563.728,-552.552,0,0
219041,565.866,-555.327,0,0
219301,568.38,-558.223,0,0
219561,571.238,-561.437,0,0
219822,574.02,-564.838,0,0
220082,577.278,-568.5,0,0
220342,580.915,-572.49,0,0
220603,584.538,-577.262,0,0
220863,587.784,-582.428,0,0
221123,591.075,-587.795,0,0
221384,594.378,-593.432,0,0
221644,597.721,-599.499,0,0
221904,601.308,-606.187,0,0
222165,604.531,-613.679,0,0
222425,607.07,-621.894,0,0
222685,609.023,-630.377,0,0
222946,610.35,-638.975,0,0
223206,611.23,-647.701,0,0
223466,611.709,-656.537,0,0
223727,611.647,-665.469,0,0
223987,611.165,-674.416,0,0
224247,610.388,-683.405,0,0
224508,609.23,-692.587,0,0
224768,607.529,-702.045,0,0
225028,604.949,-711.323,0,0
225289,602.092,-720.477,0,0
225549,598.533,-729.276,0,0
225809,594.788,-737.67,0,0
226070,590.896,-745.948,0,0
226330,586.905,-754.369,0,0
226590,582.352,-762.976,0,0
226851,577.096,-771.337,0,0
227111,571.381,-779.334,0,0
227371,565.348,-786.976,0,0
227632,558.966,-794.545,0,0
227892,552.084,-801.659,0,0
228152,544.87,-808.362,0,0
228413,537.34,-814.686,0,0
228673,529.456,-820.712,0,0
228933,521.2,-826.081,0,0
229193,512.935,-830.86,0,0
229454,504.422,-835.287,0,0
229714,495.959,-839.204,0,0
229974,487.074,-842.611,0,0
230235,478.386,-845.462,0,0
230495,469.707,-847.775,0,0
230755,461.039,-849.656,0,0
231016,452.467,-850.957,0,0
231276,444.175,-851.765,0,0
231536,436.085,-852.129,0,0
231797,428.25,-852.072,0,0
232057,420.741,-851.686,0,0
232317,413.562,-850.988,0,0
232578,406.711,-849.97,0,0
232838,400.28,-848.681,0,0
233098,394.387,-847.368,0,0
233359,388.892,-845.945,0,0
233619,383.766,-844.704,0,0
233879,378.835,-843.501,0,0
234140,374.159,-842.563,0,0
234400,369.649,-841.537,0,0
234660.3,365.431,-840.786,0,0
234920.625,361.258,-840.39,0,0
235180.95,356.781,-840.241,0,0
235441.275,352.011,-839.894,0,0
235701.6,347.32,-839.404,0,0
235961.925,342.615,-838.714,0,0
236222.25,338.052,-837.972,0,0
236482.575,333.694,-837.23,0,0
236742.9,329.339,-836.61,0,0
237003.225,324.953,-836.079,0,0
237263.55,320.481,-835.554,0,0
237523.875,315.827,-834.991,0,0
237784.2,311.036,-834.238,0,0
238044.525,306.131,-833.308,0,0
238304.85,301.287,-832.125,0,0
238565.175,296.524,-830.737,0,0
238825.5,291.708,-829.073,0,0
239085.825,287.219,-827.157,0,0
239346.15,282.92,-825.305,0,0
239606.475,278.854,-823.401,0,0
239866.8,274.799,-821.39,0,0
240127.125,270.915,-819.419,0,0
240387.45,267.116,-817.414,0,0
240647.775,263.37,-815.229,0,0
240908.1,259.817,-813.148,0,0
241168.425,256.411,-811.015,0,0
241428.75,252.978,-808.987,0,0
241689.075,249.546,-806.918,0,0
241949.4,246.177,-804.772,0,0
242209.725,242.861,-802.555,0,0
242470.05,239.614,-800.203,0,0
242730.375,236.541,-797.795,0,0
242990.7,233.655,-795.365,0,0
243251.025,230.87,-792.995,0,0
243511.35,228.238,-790.606,0,0
243771.675,225.723,-788.277,0,0
244032.0,223.412,-786.069,0,0
244292.325,221.13,-783.953,0,0
244552.65,218.799,-782.059,0,0
244812.975,216.344,-780.129,0,0
245073.3,213.868,-778.211,0,0
245333.625,211.337,-776.363,0,0
245593.95,208.72,-774.357,0,0
245854.275,206.223,-772.266,0,0
246114.6,203.751,-770.183,0,0
246374.925,201.28,-768.051,0,0
246635.25,198.716,-765.954,0,0
246895.575,196.377,-763.677,0,0
247155.9,193.904,-761.311,0,0
247416.225,191.635,-758.928,0,0
247676.55,189.41,-756.486,0,0
247936.875,187.25,-754.03,0,0
248197.2,185.175,-751.554,0,0
248457.525,183.145,-749.107,0,0
248717.85,181.202,-746.642,0,0
248978.175,179.259,-744.121,0,0
249238.5,177.452,-741.583,0,0
249498.825,175.658,-739.007,0,0
249759.15,174.027,-736.419,0,0
250019.475,172.573,-733.827,0,0
250279.8,171.076,-731.394,0,0
250540,169.639,-729.01,0,0
250800,168.197,-726.512,0,0
251061,166.8,-724.09,0,0
251321,165.524,-721.638,0,0
251581,164.299,-719.308,0,0
251842,163.042,-716.978,0,0
252102,161.784,-714.661,0,0
252362,160.538,-712.381,0,0
252623,159.253,-710.084,0,0
252883,157.986,-707.736,0,0
253143,156.676,-705.311,0,0
253404,155.439,-702.816,0,0
253664,154.313,-700.232,0,0
253924,153.28,-697.631,0,0
254185,152.346,-694.985,0,0
254445,151.545,-692.375,0,0
254705,150.853,-689.743,0,0
254966,150.283,-687.168,0,0
255226,149.73,-684.734,0,0
255486,149.234,-682.382,0,0
255747,148.792,-680.061,0,0
256007,148.296,-677.75,0,0
256267,147.784,-675.494,0,0
256528,147.315,-673.195,0,0
256788,146.893,-670.901,0,0
257048,146.514,-668.578,0,0
257309,146.159,-666.297,0,0
257569,145.837,-664.018,0,0
257829,145.512,-661.723,0,0
258090,145.234,-659.351,0,0
258350,145.018,-656.96,0,0
258610,144.895,-654.551,0,0
258871,144.898,-652.125,0,0
259131,144.988,-649.679,0,0
259391,145.2,-647.271,0,0
259651,145.483,-644.816,0,0
259912,145.972,-642.568,0,0
260172,146.566,-640.292,0,0
260432,147.315,-638.227,0,0
260693,148.052,-636.191,0,0
260953,148.78,-634.318,0,0
261213,149.609,-632.48,0,0
261474,150.452,-630.762,0,0
261734,151.303,-629.166,0,0
261994,152.165,-627.671,0,0
262255,153.04,-626.211,0,0
262515,153.887,-624.803,0,0
262775,154.736,-623.443,0,0
263036,155.618,-622.132,0,0
263296,156.526,-620.891,0,0
263556,157.474,-619.665,0,0
263817,158.446,-618.519,0,0
264077,159.462,-617.445,0,0
264337,160.57,-616.391,0,0
264598,161.749,-615.394,0,0
264858,162.905,-614.58,0,0
265118,164.189,-613.873,0,0
265379,165.473,-613.315,0,0
265639,166.808,-612.846,0,0
265899,168.198,-612.561,0,0
266160,169.46,-612.444,0,0
266420,170.814,-612.546,0,0
266680.25,172.133,-612.788,0,0
266940.575,173.443,-613.32,0,0
267200.9,174.621,-614.17,0,0
267461.225,175.617,-615.218,0,0
267721.55,176.399,-616.461,0,0
267981.875,176.873,-617.943,0,0
268242.2,177.005,-619.548,0,0
268502.525,176.801,-621.204,0,0
268762.85,176.286,-622.835,0,0
269023.175,175.377,-624.499,0,0
269283.5,174.133,-625.967,0,0
269543.825,172.555,-627.287,0,0
269804.15,170.722,-628.38,0,0
270064.475,168.713,-629.179,0,0
270324.8,166.519,-629.603,0,0
270585.125,164.294,-629.787,0,0
270845.45,161.925,-629.723,0,0
271105.775,159.615,-629.356,0,0
271366.1,157.357,-628.679,0,0
271626.425,155.143,-627.786,0,0
271886.75,153.067,-626.669,0,0
272147.075,151.135,-625.302,0,0
272407.4,149.363,-623.803,0,0
272667.725,147.814,-622.202,0,0
272928.05,146.443,-620.54,0,0
273188.375,145.149,-618.852,0,0
273448.7,144.01,-617.141,0,0
273709.025,143.009,-615.402,0,0
273969.35,142.092,-613.628,0,0
274229.675,141.289,-611.823,0,0
274490.0,140.663,-609.954,0,0
274750.325,140.129,-608.22,0,0
275010.65,139.8,-606.4,0,0
275270.975,139.531,-604.738,0,0
275531.3,139.286,-603.114,0,0
275791.625,139.129,-601.523,0,0
276051.95,139.043,-599.982,0,0
276312.275,139.025,-598.46,0,0
276572.6,139.072,-597.017,0,0
276832.925,139.183,-595.647,0,0
277093.25,139.361,-594.353,0,0
277353.575,139.529,-593.153,0,0
277613.9,139.762,-592.016,0,0
277874.225,139.992,-590.948,0,0
278134.55,140.227,-590.035,0,0
278394.875,140.377,-589.181,0,0
278655.2,140.514,-588.372,0,0
278915.525,140.565,-587.599,0,0
279175.85,140.542,-586.881,0,0
279436.175,140.462,-586.073,0,0
279696.5,140.392,-585.306,0,0
279956.825,140.279,-584.453,0,0
280217.15,140.234,-583.601,0,0
280477.475,140.162,-582.712,0,0
280737.8,140.19,-581.801,0,0
280998.125,140.276,-580.965,0,0
281258.45,140.367,-580.177,0,0
281518.775,140.517,-579.474,0,0
281779.1,140.645,-578.897,0,0
282039.425,140.689,-578.431,0,0
282299.75,140.583,-578.001,0,0
282560,140.329,-577.518,0,0
282820,139.998,-576.981,0,0
283081,139.621,-576.32,0,0
283341,139.379,-575.497,0,0
283601,139.161,-574.706,0,0
283862,138.993,-573.914,0,0
284122,138.859,-573.196,0,0
284382,138.7,-572.535,0,0
284643,138.535,-571.859,0,0
284903,138.355,-571.199,0,0
285163,138.122,-570.628,0,0
285424,137.804,-570.026,0,0
285684,137.433,-569.423,0,0
285944,137.023,-568.776,0,0
286205,136.522,-568.069,0,0
286465,135.993,-567.315,0,0
286725,135.367,-566.428,0,0
286986,134.787,-565.429,0,0
287246,134.245,-564.351,0,0
287506,133.734,-563.158,0,0
287767,133.255,-561.864,0,0
288027,132.869,-560.451,0,0
288287,132.598,-558.935,0,0
288548,132.482,-557.343,0,0
288808,132.532,-555.696,0,0
289068,132.829,-554.047,0,0
289329,133.378,-552.484,0,0
289589,134.09,-551.089,0,0
289849,134.947,-549.926,0,0
290109,135.867,-549.014,0,0
290370,136.68,-548.328,0,0
290630,137.366,-547.819,0,0
290890,137.966,-547.42,0,0
291151,138.407,-547.08,0,0
291411,138.705,-546.784,0,0
291671,138.905,-546.479,0,0
291932,139.002,-546.115,0,0
292192,139.02,-545.699,0,0
292452,139.012,-545.246,0,0
292713,138.966,-544.742,0,0
292973,138.879,-544.246,0,0
293233,138.671,-543.695,0,0
293494,138.445,-543.04,0,0
293754,138.209,-542.277,0,0
294014,137.998,-541.396,0,0
294275,137.829,-540.451,0,0
294535,137.711,-539.414,0,0
294795,137.682,-538.349,0,0
295056,137.7,-537.235,0,0
295316,137.836,-536.073,0,0
295576,138.051,-534.895,0,0
295837,138.345,-533.719,0,0
296097,138.705,-532.573,0,0
296357,139.119,-531.429,0,0
296618,139.624,-530.319,0,0
296878,140.17,-529.208,0,0
297138,140.806,-528.082,0,0
297399,141.506,-527.028,0,0
297659,142.303,-526,0,0
297919,143.147,-525.056,0,0
298180,144.023,-524.16,0,0
298440,144.941,-523.279,0,0
298700.2,145.905,-522.455,0,0
298960.525,146.966,-521.788,0,0
299220.85,148.056,-521.168,0,0
299481.175,149.081,-520.689,0,0
299741.5,150.084,-520.19,0,0
300001.825,151.102,-519.766,0,0
300262.15,152.097,-519.417,0,0
300522.475,153.117,-519.011,0,0
300782.8,154.082,-518.607,0,0
301043.125,155.155,-518.233,0,0
301303.45,156.378,-517.873,0,0
301563.775,157.529,-517.558,0,0
301824.1,158.903,-517.398,0,0
302084.425,160.33,-517.278,0,0
302344.75,161.711,-517.458,0,0
302605.075,163.125,-517.885,0,0
302865.4,164.269,-518.43,0,0
303125.725,165.365,-519.014,0,0
303386.05,166.307,-519.542,0,0
303646.375,167.135,-520.278,0,0
303906.7,167.825,-520.765,0,0
304167.025,168.591,-521.309,0,0
304427.35,169.36,-521.8,0,0
304687.675,170.065,-522.287,0,0
304948.0,170.897,-522.839,0,0
305208.325,171.652,-523.423,0,0
305468.65,172.411,-524.01,0,0
305728.975,173.21,-524.731,0,0
305989.3,173.96,-525.417,0,0
306249.625,174.754,-526.263,0,0
306509.95,175.564,-527.172,0,0
306770.275,176.338,-528.184,0,0
307030.6,176.987,-529.365,0,0
307290.925,177.585,-530.643,0,0
307551.25,178.036,-531.988,0,0
307811.575,178.38,-533.327,0,0
308071.9,178.508,-534.774,0,0
308332.225,178.55,-536.185,0,0
308592.55,178.587,-537.528,0,0
308852.875,178.43,-538.929,0,0
309113.2,178.208,-540.342,0,0
309373.525,177.859,-541.644,0,0
309633.85,177.411,-542.904,0,0
309894.175,176.911,-544.061,0,0
310154.5,176.487,-545.216,0,0
310414.825,176.019,-546.327,0,0
310675.15,175.593,-547.495,0,0
310935.475,174.981,-548.632,0,0
311195.8,174.389,-549.887,0,0
311456.125,173.671,-551.068,0,0
311716.45,172.799,-552.372,0,0
311976.775,171.862,-553.528,0,0
312237.1,170.78,-554.665,0,0
312497.425,169.598,-555.704,0,0
312757.75,168.379,-556.629,0,0
313018.075,167.136,-557.297,0,0
313278.4,165.854,-557.939,0,0
313538.725,164.696,-558.46,0,0
313799.05,163.511,-558.948,0,0
314059.375,162.393,-559.318,0,0
314319.7,161.461,-559.824,0,0
314580,160.498,-560.299,0,0
314840,159.522,-560.756,0,0
315101,158.629,-561.327,0,0
315361,157.673,-562.047,0,0
315621,156.604,-562.658,0,0
315882,155.32,-563.365,0,0
316142,154.057,-564.021,0,0
316402,152.694,-564.607,0,0
316663,151.289,-565.189,0,0
316923,149.858,-565.643,0,0
317183,148.302,-566.081,0,0
317444,146.75,-566.469,0,0
317704,145.124,-566.72,0,0
317964,143.484,-566.984,0,0
318225,141.813,-567.128,0,0
318485,140.197,-567.28,0,0
318745,138.467,-567.299,0,0
319006,136.703,-567.283,0,0
319266,134.914,-567.192,0,0
319526,133.139,-566.983,0,0
319787,131.478,-566.653,0,0
320047,129.65,-566.157,0,0
320307,127.891,-565.691,0,0
320567,126.266,-565.163,0,0
320828,124.614,-564.596,0,0
321088,122.899,-563.969,0,0
321348,121.379,-563.131,0,0
321609,119.712,-562.265,0,0
321869,118.173,-561.344,0,0
322129,116.717,-560.294,0,0
322390,115.347,-559.217,0,0
322650,114.051,-558.024,0,0
322910,112.85,-556.751,0,0
323171,111.721,-555.572,0,0
323431,110.752,-554.258,0,0
323691,109.84,-553.03,0,0
323952,109.1,-551.717,0,0
324212,108.372,-550.423,0,0
324472,107.84,-549.239,0,0
324733,107.288,-548.088,0,0
324993,106.789,-546.969,0,0
325253,106.405,-545.948,0,0
325514,106.03,-544.774,0,0
325774,105.723,-543.862,0,0
326034,105.407,-542.862,0,0
326295,105.164,-542.009,0,0
326555,104.972,-541.21,0,0
326815,104.801,-540.421,0,0
327076,104.675,-539.75,0,0
327336,104.507,-539.145,0,0
327596,104.285,-538.59,0,0
327857,104.046,-538.164,0,0
328117,103.882,-537.643,0,0
328377,103.585,-537.253,0,0
328638,103.315,-536.879,0,0
328898,103.04,-536.503,0,0
329158,102.557,-536.148,0,0
329419,102.25,-535.863,0,0
329679,101.784,-535.601,0,0
329939,101.308,-535.266,0,0
330200,100.859,-535.002,0,0
330460,100.328,-534.689,0,0
330720.15,99.7899,-534.393,0,0
330980.475,99.147,-534.083,0,0
331240.8,98.6142,-533.718,0,0
331501.125,97.9527,-533.436,0,0
331761.45,97.3142,-533.088,0,0
332021.775,96.6737,-532.688,0,0
332282.1,96.0281,-532.355,0,0
332542.425,95.3972,-532.003,0,0
332802.75,94.6886,-531.628,0,0
333063.075,93.9865,-531.287,0,0
333323.4,93.2279,-530.951,0,0
333583.725,92.4819,-530.542,0,0
333844.05,91.6366,-530.083,0,0
334104.375,90.7557,-529.643,0,0
334364.7,89.9009,-529.172,0,0
334625.025,89.0844,-528.599,0,0
334885.35,88.126,-527.976,0,0
335145.675,87.3675,-527.339,0,0
335406.0,86.569,-526.68,0,0
335666.325,85.7381,-525.986,0,0
335926.65,84.9322,-525.269,0,0
336186.975,84.2341,-524.501,0,0
336447.3,83.4509,-523.828,0,0
336707.625,82.7241,-523.012,0,0
336967.95,82.029,-522.232,0,0
337228.275,81.2655,-521.473,0,0
337488.6,80.6671,-520.672,0,0
337748.925,79.9292,-519.857,0,0
338009.25,79.3149,-519.054,0,0
338269.575,78.6815,-518.17,0,0
338529.9,78.0915,-517.327,0,0
338790.225,77.571,-516.45,0,0
339050.55,76.9844,-515.619,0,0
339310.875,76.4718,-514.799,0,0
339571.2,75.9498,-513.925,0,0
339831.525,75.4442,-513.135,0,0
340091.85,74.9481,-512.294,0,0
340352.175,74.5257,-511.48,0,0
340612.5,74.0107,-510.674,0,0
340872.825,73.5818,-509.873,0,0
341133.15,73.0999,-509.06,0,0
341393.475,72.6363,-508.247,0,0
341653.8,72.1646,-507.506,0,0
341914.125,71.7074,-506.72,0,0
342174.45,71.2781,-505.901,0,0
342434.775,70.7973,-505.106,0,0
342695.1,70.3926,-504.338,0,0
342955.425,69.9136,-503.534,0,0
343215.75,69.4158,-502.713,0,0
343476.075,69.032,-501.929,0,0
343736.4,68.5541,-501.077,0,0
343996.725,68.1535,-500.27,0,0
344257.05,67.7301,-499.468,0,0
344517.375,67.2616,-498.688,0,0
344777.7,66.9082,-497.819,0,0
345038.025,66.4707,-497.056,0,0
345298.35,66.0722,-496.228,0,0
345558.675,65.6188,-495.36,0,0
345819.0,65.2267,-494.527,0,0
346079.325,64.7936,-493.684,0,0
346339.65,64.3599,-492.809,0,0
346599.975,63.9517,-491.945,0,0
346860,63.5478,-491.039,0,0
347121,63.1905,-490.174,0,0
347381,62.7547,-489.147,0,0
347641,62.4013,-488.208,0,0
347902,62.1054,-487.247,0,0
348162,61.754,-486.324,0,0
348422,61.5722,-485.338,0,0
348683,61.3592,-484.384,0,0
348943,61.1651,-483.453,0,0
349203,60.933,-482.571,0,0
349464,60.7592,-481.694,0,0
349724,60.5511,-480.845,0,0
349984,60.376,-479.947,0,0
350245,60.2136,-479.11,0,0
350505,60.0193,-478.237,0,0
350765,59.8786,-477.371,0,0
351025,59.6334,-476.551,0,0
351286,59.4529,-475.582,0,0
351546,59.2699,-474.736,0,0
351806,59.1672,-473.865,0,0
352067,59.0482,-473.055,0,0
352327,58.9577,-472.18,0,0
352587,58.8309,-471.298,0,0
352848,58.7544,-470.467,0,0
353108,58.6661,-469.708,0,0
353368,58.5994,-468.915,0,0
353629,58.4871,-468.07,0,0
353889,58.365,-467.293,0,0
354149,58.2796,-466.484,0,0
354410,58.1668,-465.725,0,0
354670,58.0788,-464.958,0,0
354930,57.939,-464.117,0,0
355191,57.9453,-463.329,0,0
355451,57.8544,-462.554,0,0
355711,57.7884,-461.779,0,0
355972,57.6415,-461.032,0,0
356232,57.573,-460.252,0,0
356492,57.5001,-459.505,0,0
356753,57.4073,-458.76,0,0
357013,57.3446,-457.937,0,0
357273,57.2468,-457.235,0,0
357534,57.1708,-456.481,0,0
357794,57.1105,-455.704,0,0
358054,57.0192,-454.889,0,0
358315,56.9334,-454.161,0,0
358575,56.9174,-453.328,0,0
358835,56.8108,-452.545,0,0
359096,56.7399,-451.742,0,0
359356,56.7567,-450.92,0,0
359616,56.6842,-450.102,0,0
359877,56.674,-449.327,0,0
360137,56.7251,-448.517,0,0
360397,56.7478,-447.739,0,0
360658,56.7439,-446.989,0,0
360918,56.7505,-446.233,0,0
361178,56.7623,-445.48,0,0
361438,56.7258,-444.744,0,0
361699,56.7627,-444.025,0,0
361959,56.8002,-443.202,0,0
362219,56.8195,-442.47,0,0
362480,56.817,-441.725,0,0
362740.1,56.844,-440.968,0,0
363000.425,56.8472,-440.193,0,0
363260.75,56.8949,-439.43,0,0
363521.075,56.9091,-438.611,0,0
363781.4,56.9519,-437.857,0,0
364041.725,57.0082,-437.086,0,0
364302.05,57.0843,-436.317,0,0
364562.375,57.1283,-435.55,0,0
364822.7,57.2066,-434.74,0,0
365083.025,57.3116,-433.976,0,0
365343.35,57.5002,-433.24,0,0
365603.675,57.6279,-432.481,0,0
365864.0,57.692,-431.75,0,0
366124.325,57.8815,-431.02,0,0
366384.65,57.956,-430.312,0,0
366644.975,58.0611,-429.637,0,0
366905.3,58.1142,-428.925,0,0
367165.625,58.1939,-428.27,0,0
367425.95,58.2009,-427.473,0,0
367686.275,58.2605,-426.685,0,0
367946.6,58.3071,-425.915,0,0
368206.925,58.3903,-425.05,0,0
368467.25,58.4811,-424.161,0,0
368727.575,58.6389,-423.302,0,0
368987.9,58.8225,-422.373,0,0
369248.225,59.044,-421.439,0,0
369508.55,59.2962,-420.566,0,0
369768.875,59.5881,-419.647,0,0
370029.2,59.9301,-418.79,0,0
370289.525,60.2848,-417.93,0,0
370549.85,60.7414,-417.057,0,0
370810.175,61.1293,-416.188,0,0
371070.5,61.5868,-415.325,0,0
371330.825,62.1105,-414.52,0,0
371591.15,62.6627,-413.748,0,0
371851.475,63.2251,-412.944,0,0
372111.8,63.8388,-412.276,0,0
372372.125,64.5487,-411.612,0,0
372632.45,65.1815,-410.974,0,0
372892.775,65.8426,-410.456,0,0
373153.1,66.5261,-409.947,0,0
373413.425,67.1765,-409.51,0,0
373673.75,67.8134,-409.077,0,0
373934.075,68.4096,-408.651,0,0
374194.4,69.0583,-408.309,0,0
374454.725,69.6531,-407.961,0,0
374715.05,70.2317,-407.672,0,0
374975.375,70.8393,-407.393,0,0
375235.7,71.4359,-407.122,0,0
375496.025,71.947,-406.931,0,0
375756.35,72.5106,-406.72,0,0
376016.675,73.0178,-406.578,0,0
376277.0,73.5022,-406.398,0,0
376537.325,73.9223,-406.224,0,0
376797.65,74.4333,-406.062,0,0
377057.975,74.8654,-405.943,0,0
377318.3,75.3303,-405.822,0,0
377578.625,75.7467,-405.655,0,0
377838.95,76.1356,-405.601,0,0
378099.275,76.5814,-405.517,0,0
378359.6,76.9682,-405.426,0,0
378619.925,77.3482,-405.35,0,0
378880,77.6865,-405.334,0,0
379141,77.9767,-405.231,0,0
379401,78.3183,-405.165,0,0
379661,78.5681,-405.068,0,0
379922,78.9052,-404.94,0,0
380182,79.2262,-404.798,0,0
380442,79.601,-404.627,0,0
380703,80.0247,-404.478,0,0
380963,80.4786,-404.381,0,0
381223,80.9942,-404.311,0,0
381483,81.5058,-404.38,0,0
381744,82.0549,-404.505,0,0
382004,82.5226,-404.709,0,0
382264,82.9589,-404.96,0,0
382525,83.3196,-405.241,0,0
382785,83.72,-405.612,0,0
383045,84.0101,-405.963,0,0
383306,84.2487,-406.339,0,0
383566,84.4218,-406.805,0,0
383826,84.5506,-407.298,0,0
384087,84.6189,-407.721,0,0
384347,84.5822,-408.23,0,0
384607,84.5046,-408.707,0,0
384868,84.3702,-409.145,0,0
385128,84.115,-409.623,0,0
385388,83.8486,-409.98,0,0
385649,83.5504,-410.372,0,0
385909,83.1484,-410.718,0,0
386169,82.7953,-410.995,0,0
386430,82.3523,-411.231,0,0
386690,81.8348,-411.478,0,0
386950,81.3973,-411.646,0,0
387211,80.894,-411.807,0,0
387471,80.3755,-411.85,0,0
387731,79.8172,-411.938,0,0
387992,79.2406,-411.91,0,0
388252,78.6655,-411.884,0,0
388512,78.0844,-411.762,0,0
388773,77.5464,-411.596,0,0
389033,77.0439,-411.418,0,0
389293,76.4953,-411.182,0,0
389554,76.0489,-410.893,0,0
389814,75.6299,-410.618,0,0
390074,75.2281,-410.351,0,0
390335,74.8832,-410.045,0,0
390595,74.4994,-409.772,0,0
390855,74.2127,-409.508,0,0
391116,73.8586,-409.283,0,0
391376,73.5673,-409.098,0,0
391636,73.2535,-408.869,0,0
391896,72.9105,-408.762,0,0
392157,72.5302,-408.593,0,0
392417,72.0893,-408.453,0,0
392677,71.6392,-408.296,0,0
392938,71.1151,-408.118,0,0
393198,70.6288,-407.879,0,0
393458,70.0572,-407.636,0,0
393719,69.4734,-407.35,0,0
393979,68.9445,-406.961,0,0
394239,68.3652,-406.622,0,0
394500,67.836,-406.201,0,0
394760.05,67.2246,-405.764,0,0
395020.375,66.6743,-405.339,0,0
395280.7,66.1696,-404.842,0,0
395541.025,65.6416,-404.313,0,0
395801.35,65.1126,-403.736,0,0
396061.675,64.5777,-403.166,0,0
396322.0,64.0953,-402.558,0,0
396582.325,63.6477,-401.889,0,0
396842.65,63.2019,-401.202,0,0
397102.975,62.7689,-400.484,0,0
397363.3,62.4158,-399.785,0,0
397623.625,62.0514,-399.024,0,0
397883.95,61.7962,-398.304,0,0
398144.275,61.5137,-397.564,0,0
398404.6,61.2443,-396.796,0,0
398664.925,61.0228,-396.075,0,0
398925.25,60.8401,-395.347,0,0
399185.575,60.6781,-394.614,0,0
399445.9,60.5103,-393.887,0,0
399706.225,60.3599,-393.199,0,0
399966.55,60.2361,-392.502,0,0
400006.6,60.2379,-392.387,0,0