File: Accelerated corrosion test data/2025-10-18_06-00-03/sample_3.csv
Frequency (Hz),Impedance (ohms),Phase (Radians),Temperature (C),Humidity (%)
10000.0,256.72,-11923.8,0,0
10260.325,250.649,-11623.5,0,0
10520.65,244.678,-11337.2,0,0
10780.975,241.232,-11064.3,0,0
11041.3,234.27,-10810,0,0
11301.625,228.912,-10561.8,0,0
11561.95,223.963,-10325.2,0,0
11822.275,219.709,-10099,0,0
12082.6,216.641,-9883.76,0,0
12342.925,215.254,-9675.73,0,0
12603.25,207.369,-9478.9,0,0
12863.575,203.824,-9286.66,0,0
13123.9,204.489,-9101.82,0,0
13384.225,197.016,-8931.82,0,0
13644.55,193.841,-8761.1,0,0
13904.875,190.172,-8596.7,0,0
14165.2,190.069,-8438.39,0,0
14425.525,185.348,-8286.41,0,0
14685.8,183.532,-8140.16,0,0
14946.175,179.124,-7999.04,0,0
15206.5,178.003,-7856.67,0,0
15466.825,187.876,-7714.87,0,0
15727.15,196.116,-7621.9,0,0
15987.5,175.741,-7500.75,0,0
16247.8,171.669,-7370.64,0,0
16508.125,164.751,-7256.38,0,0
16768.45,170.857,-7134.74,0,0
17028.775,161.429,-7035.6,0,0
17289.1,166.617,-6920.25,0,0
17549.425,160.168,-6829.64,0,0
17809.75,160.751,-6723.53,0,0
18070.075,166.526,-6635.2,0,0
18330.4,154.837,-6539.5,0,0
18590.725,151.534,-6447.64,0,0
18851.05,148.649,-6355.85,0,0
19111.375,149.733,-6266.46,0,0
19371.7,148.727,-6181.48,0,0
19632.025,149.925,-6096.37,0,0
19892.35,151.591,-6015.04,0,0
20152.675,152.431,-5939.2,0,0
20413.0,164.036,-5860.99,0,0
20673.3,172.763,-5794.14,0,0
20933.65,166.96,-5740.03,0,0
21193.975,165.811,-5675.54,0,0
21454.3,148.529,-5613,0,0
21714.625,143.346,-5536.45,0,0
21974.9,145.979,-5471.06,0,0
22235.275,140.857,-5412.75,0,0
22495.6,138.362,-5348.41,0,0
22755.925,131.746,-5287.54,0,0
23016.25,130.458,-5227.15,0,0
23276.6,131.117,-5164.09,0,0
23536.9,132.332,-5119.01,0,0
23797.225,124.061,-5059.19,0,0
24057.55,121.884,-5001.14,0,0
24317.875,122.601,-4945.32,0,0
24578.2,119.721,-4895.61,0,0
24838.525,121.512,-4840.28,0,0
25098.85,117.969,-4793.92,0,0
25359.175,116.607,-4743.36,0,0
25619.5,115.824,-4695.38,0,0
25879.8,113.023,-4648.06,0,0
26140.1,111.225,-4599.65,0,0
26400.5,110.65,-4552.62,0,0
26660.8,110.378,-4506.96,0,0
26921.1,111.61,-4461.92,0,0
27181.4,111.336,-4421.35,0,0
27441.8,110.196,-4377.39,0,0
27702.1,110.669,-4337.55,0,0
27962.4,108.083,-4295.63,0,0
28222.7,106.34,-4252.52,0,0
28483.1,115.056,-4210.12,0,0
28743.4,117.117,-4176.44,0,0
29003.7,117.567,-4145.8,0,0
29264,110.516,-4112.02,0,0
29524.4,110.633,-4074.58,0,0
29784.7,106.546,-4038.95,0,0
30045,104.354,-4004.93,0,0
30305.3,102.614,-3966.77,0,0
30565.7,104.478,-3932.81,0,0
30826,104.299,-3900.19,0,0
31086.3,104.716,-3867.25,0,0
31346.6,101.238,-3836.62,0,0
31607,99.8308,-3802.11,0,0
31867.3,100.285,-3767.15,0,0
32127.6,104.183,-3733.25,0,0
32387.9,112.87,-3705.06,0,0
32648.3,116.302,-3688.54,0,0
32908.6,106.027,-3664.16,0,0
33168.9,103.667,-3635.05,0,0
33429.2,101.818,-3609.08,0,0
33689.6,95.5498,-3580.8,0,0
33949.9,92.8057,-3550.3,0,0
34210.2,93.1791,-3522.29,0,0
34470.5,91.5257,-3495.91,0,0
34730.9,90.0101,-3469.01,0,0
34991.2,88.4718,-3442.04,0,0
35251.5,87.3518,-3416.03,0,0
35511.8,86.4678,-3390.19,0,0
35772.2,85.6558,-3364.46,0,0
36032.5,85.1574,-3339.9,0,0
36292.8,84.4684,-3314.94,0,0
36553.1,84.0848,-3290.95,0,0
36813.5,83.0035,-3267.22,0,0
37073.8,82.4238,-3243.66,0,0
37334.1,81.7367,-3220.54,0,0
37594.4,81.6143,-3197.42,0,0
37854.8,81.1341,-3174.97,0,0
38115.1,80.4371,-3152.79,0,0
38375.4,79.6675,-3130.88,0,0
38635.7,79.6325,-3109.25,0,0
38896.1,79.2189,-3087.72,0,0
39156.4,78.6842,-3066.68,0,0
39416.7,78.5624,-3046.13,0,0
39677,77.8131,-3025.6,0,0
39937.4,77.0338,-3005.33,0,0
40197.7,76.9889,-2985.23,0,0
40458,76.5887,-2965.44,0,0
40718.3,76.2756,-2945.75,0,0
40978.7,75.9821,-2926.33,0,0
41239,75.8265,-2907.22,0,0
41499.3,75.696,-2888.54,0,0
41759.6,75.9596,-2870.04,0,0
42020,75.5397,-2852.73,0,0
42280.275,75.2231,-2834.49,0,0
42540.6,74.4769,-2816.72,0,0
42800.925,74.5443,-2799.21,0,0
43061.25,74.1677,-2781.99,0,0
43321.575,73.5899,-2764.33,0,0
43581.9,73.1317,-2747.12,0,0
43842.225,73.3275,-2729.97,0,0
44102.55,73.4022,-2713.36,0,0
44362.875,73.4245,-2697.77,0,0
44623.2,72.6686,-2681.75,0,0
44883.525,72.3458,-2665.37,0,0
45143.85,72.1601,-2649.51,0,0
45404.175,71.8023,-2634.01,0,0
45664.5,71.3779,-2617.86,0,0
45924.825,72.5284,-2602.89,0,0
46185.15,71.5027,-2588.38,0,0
46445.475,71.0166,-2572.47,0,0
46705.8,71.27,-2557.31,0,0
46966.125,71.3738,-2543.47,0,0
47226.45,71.0206,-2528.65,0,0
47486.775,70.9031,-2514.03,0,0
47747.1,71.9007,-2499.59,0,0
48007.425,71.7483,-2486.82,0,0
48267.75,71.5806,-2473.47,0,0
48528.075,71.1107,-2460,0,0
48788.4,70.5141,-2447.06,0,0
49048.725,69.7177,-2433.42,0,0
49309.05,69.277,-2419.95,0,0
49569.375,68.9454,-2406.59,0,0
49829.7,68.7543,-2393.6,0,0
50090.025,68.193,-2380.73,0,0
50350.35,67.6622,-2367.48,0,0
50610.675,67.4786,-2354.41,0,0
50871.0,67.4757,-2341.69,0,0
51131.325,67.3733,-2329.21,0,0
51391.65,67.2437,-2316.56,0,0
51651.975,67.2642,-2304.21,0,0
51912.3,67.3376,-2292.27,0,0
52172.625,66.9343,-2280.09,0,0
52432.95,66.8346,-2267.85,0,0
52693.275,67.0366,-2255.81,0,0
52953.6,67.356,-2243.83,0,0
53213.925,67.9373,-2232.15,0,0
53474.25,68.5673,-2221.13,0,0
53734.575,68.6551,-2210.07,0,0
53994.9,68.9656,-2199.03,0,0
54255.225,69.8803,-2188.01,0,0
54515.55,70.9734,-2178.74,0,0
54775.875,69.9591,-2169.47,0,0
55036.2,69.4055,-2158.96,0,0
55296.525,68.9839,-2149.36,0,0
55556.85,67.9008,-2139.72,0,0
55817.175,66.2601,-2129.28,0,0
56077.5,65.2213,-2118.74,0,0
56337.825,64.5024,-2108.13,0,0
56598.15,63.3683,-2097.34,0,0
56858.475,62.6823,-2086.71,0,0
57118.8,62.1922,-2075.68,0,0
57379.125,61.923,-2065.06,0,0
57639.45,61.9879,-2054.51,0,0
57899.775,62.0017,-2044.21,0,0
58160.1,62.0533,-2034.11,0,0
58420.4,61.9204,-2024.07,0,0
58680.7,61.8902,-2013.99,0,0
58941.1,61.9657,-2004.09,0,0
59201.4,62.1584,-1994.01,0,0
59461.7,62.4741,-1984.28,0,0
59722,62.6404,-1974.79,0,0
59982.4,62.9105,-1965.26,0,0
60242.7,63.1951,-1955.89,0,0
60503,63.4238,-1946.49,0,0
60763.3,63.73,-1937.3,0,0
61023.7,64.0585,-1927.96,0,0
61284,64.3463,-1918.9,0,0
61544.3,64.8707,-1909.56,0,0
61804.6,65.3656,-1900.81,0,0
62065,65.6534,-1891.81,0,0
62325.3,66.2025,-1883.05,0,0
62585.6,66.5493,-1873.93,0,0
62845.9,67.3958,-1864.99,0,0
63106.3,68.2681,-1856.24,0,0
63366.6,69.0952,-1847.69,0,0
63626.9,70.181,-1838.85,0,0
63887.2,71.1788,-1830.42,0,0
64147.6,72.7772,-1821.31,0,0
64407.9,75.3708,-1812.81,0,0
64668.2,77.5155,-1805.34,0,0
64928.5,80.1698,-1797.26,0,0
65188.9,84.2877,-1791.04,0,0
65449.2,86.7383,-1786.05,0,0
65709.5,89.0508,-1780.88,0,0
65969.8,93.3288,-1777.71,0,0
66230.2,93.1717,-1778.74,0,0
66490.5,87.695,-1776.98,0,0
66750.8,82.1395,-1770.52,0,0
67011.1,78.9397,-1762.22,0,0
67271.5,76.3289,-1753.69,0,0
67531.8,75.2913,-1744.87,0,0
67792.1,75.3389,-1736.3,0,0
68052.4,75.7994,-1728.63,0,0
68312.8,76.4897,-1721.62,0,0
68573.1,76.2392,-1714.95,0,0
68833.4,76.6616,-1707.82,0,0
69093.7,77.8227,-1701.19,0,0
69354.1,78.5579,-1695.78,0,0
69614.4,78.6095,-1690.73,0,0
69874.7,77.4685,-1685.26,0,0
70135,76.656,-1679.22,0,0
70395.4,76.2757,-1673.39,0,0
70655.7,74.8147,-1667.71,0,0
70916,73.7758,-1661.29,0,0
71176.3,72.9534,-1654.68,0,0
71436.7,71.9473,-1648.44,0,0
71697,70.9395,-1641.36,0,0
71957.3,71.0395,-1634.24,0,0
72217.6,71.2603,-1627.83,0,0
72478,71.5833,-1621.64,0,0
72738.3,71.7078,-1616.05,0,0
72998.6,71.4495,-1610.53,0,0
73258.9,71.0606,-1604.82,0,0
73519.3,70.7432,-1599.14,0,0
73779.6,70.4493,-1593.62,0,0
74039.9,69.8707,-1588.26,0,0
74300.225,69.0589,-1582.77,0,0
74560.55,68.3078,-1577.08,0,0
74820.875,67.4895,-1571.46,0,0
75081.2,66.7324,-1565.69,0,0
75341.525,65.9746,-1559.98,0,0
75601.85,65.1401,-1554.33,0,0
75862.175,64.3312,-1548.54,0,0
76122.5,63.5293,-1542.6,0,0
76382.825,62.8067,-1536.74,0,0
76643.15,62.1595,-1530.9,0,0
76903.475,61.5162,-1525.02,0,0
77163.8,60.9625,-1519.2,0,0
77424.125,60.4414,-1513.41,0,0
77684.45,59.8434,-1507.69,0,0
77944.775,59.2902,-1501.92,0,0
78205.1,58.7459,-1496.14,0,0
78465.425,58.2076,-1490.43,0,0
78725.75,57.702,-1484.63,0,0
78986.075,57.3055,-1478.92,0,0
79246.4,56.8603,-1473.22,0,0
79506.725,56.3615,-1467.51,0,0
79767.05,56.0519,-1461.83,0,0
80027.375,55.7406,-1456.16,0,0
80287.7,55.5329,-1450.54,0,0
80548.025,55.1701,-1444.99,0,0
80808.35,54.9152,-1439.45,0,0
81068.675,54.6995,-1433.99,0,0
81329.0,54.4764,-1428.46,0,0
81589.325,54.2531,-1422.96,0,0
81849.65,54.1276,-1417.55,0,0
82109.975,53.9954,-1412.14,0,0
82370.3,53.8415,-1406.86,0,0
82630.625,53.6999,-1401.45,0,0
82890.95,53.6369,-1396.2,0,0
83151.275,53.5109,-1391.01,0,0
83411.6,53.3271,-1385.75,0,0
83671.925,53.3104,-1380.5,0,0
83932.25,53.2397,-1375.36,0,0
84192.575,53.1548,-1370.26,0,0
84452.9,53.1318,-1365.13,0,0
84713.225,53.1311,-1360.06,0,0
84973.55,53.0523,-1355.01,0,0
85233.875,52.983,-1349.94,0,0
85494.2,52.9683,-1344.95,0,0
85754.525,52.9999,-1339.9,0,0
86014.85,52.9469,-1334.99,0,0
86275.175,53.0319,-1330.1,0,0
86535.5,52.9592,-1325.25,0,0
86795.825,53.0653,-1320.31,0,0
87056.15,53.0005,-1315.45,0,0
87316.475,53.0505,-1310.47,0,0
87576.8,53.1852,-1305.69,0,0
87837.125,53.3729,-1300.91,0,0
88097.45,53.4291,-1296.17,0,0
88357.775,53.449,-1291.4,0,0
88618.1,53.5557,-1286.49,0,0
88878.425,53.7943,-1281.64,0,0
89138.75,54.23,-1276.91,0,0
89399.075,54.6909,-1272.13,0,0
89659.4,55.1205,-1267.53,0,0
89919.725,55.6103,-1263.17,0,0
90180,56.0169,-1258.83,0,0
90440.4,56.2889,-1254.55,0,0
90700.7,56.6099,-1250.13,0,0
90961,57.0553,-1245.78,0,0
91221.3,57.5129,-1241.51,0,0
91481.7,57.8082,-1237.34,0,0
91742,58.2429,-1233.14,0,0
92002.3,58.7279,-1228.94,0,0
92262.6,59.3324,-1224.81,0,0
92523,59.9774,-1220.89,0,0
92783.3,60.5027,-1217.22,0,0
93043.6,60.8682,-1213.41,0,0
93303.9,61.4935,-1209.57,0,0
93564.3,62.1927,-1206.05,0,0
93824.6,62.9286,-1202.74,0,0
94084.9,63.4863,-1200.04,0,0
94345.2,63.3458,-1197.51,0,0
94605.6,62.8735,-1194.82,0,0
94865.9,62.0334,-1191.87,0,0
95126.2,60.8361,-1188.78,0,0
95386.5,59.3766,-1184.99,0,0
95646.9,58.4317,-1180.74,0,0
95907.2,57.7281,-1176.58,0,0
96167.5,56.9375,-1172.28,0,0
96427.8,56.559,-1167.67,0,0
96688.2,56.4759,-1163.4,0,0
96948.5,56.4482,-1159.19,0,0
97208.8,56.3642,-1155.13,0,0
97469.1,56.3111,-1151.04,0,0
97729.5,56.2457,-1147.09,0,0
97989.8,56.149,-1143.08,0,0
98250.1,56.1506,-1139.04,0,0
98510.4,56.1952,-1135.1,0,0
98770.8,56.2737,-1131.24,0,0
99031.1,56.2492,-1127.42,0,0
99291.4,56.1119,-1123.64,0,0
99551.7,56.0108,-1119.76,0,0
99812.1,55.9355,-1115.84,0,0
100072,55.8438,-1111.96,0,0
100333,55.8214,-1108.1,0,0
100593,55.7084,-1104.18,0,0
100853,55.5928,-1100.19,0,0
101114,55.6387,-1096.02,0,0
101374,55.734,-1092.01,0,0
101634,55.8401,-1087.88,0,0
101895,56.0979,-1083.73,0,0
102155,56.472,-1079.61,0,0
102415,57.007,-1075.44,0,0
102676,57.8185,-1071.38,0,0
102936,58.8038,-1067.73,0,0
103196,59.5971,-1064.38,0,0
103457,60.1396,-1061.02,0,0
103717,60.7011,-1057.54,0,0
103977,61.3922,-1053.94,0,0
104238,62.5226,-1050.63,0,0
104498,63.497,-1047.94,0,0
104758,63.9863,-1045.43,0,0
105019,64.2885,-1042.84,0,0
105279,64.2122,-1040.16,0,0
105539,64.377,-1037.09,0,0
105800,64.6088,-1034.47,0,0
106060,64.4774,-1031.88,0,0
106320.175,64.1337,-1029.17,0,0
106580.5,63.7849,-1026.18,0,0
106840.825,63.4183,-1023.25,0,0
107101.15,62.9114,-1020.11,0,0
107361.475,62.6506,-1016.92,0,0
107621.8,62.1828,-1013.77,0,0
107882.125,61.7731,-1010.41,0,0
108142.45,61.5112,-1007.1,0,0
108402.775,61.107,-1003.83,0,0
108663.1,60.5623,-1000.43,0,0
108923.425,60.0941,-996.693,0,0
109183.75,59.973,-992.846,0,0
109444.075,59.8819,-989.231,0,0
109704.4,59.8397,-985.631,0,0
109964.725,59.7742,-981.939,0,0
110225.05,59.8136,-978.187,0,0
110485.375,59.8664,-974.381,0,0
110745.7,60.3241,-970.475,0,0
111006.025,60.8386,-966.881,0,0
111266.35,61.2527,-963.503,0,0
111526.675,61.668,-960.071,0,0
111787.0,62.1273,-956.673,0,0
112047.325,62.6691,-953.384,0,0
112307.65,63.1506,-950.15,0,0
112567.975,63.4822,-947.005,0,0
112828.3,63.9117,-943.876,0,0
113088.625,64.3308,-940.759,0,0
113348.95,64.5274,-937.767,0,0
113609.275,64.6619,-934.612,0,0
113869.6,64.8989,-931.318,0,0
114129.925,65.123,-928.102,0,0
114390.25,65.2725,-924.859,0,0
114650.575,65.4147,-921.49,0,0
114910.9,65.7376,-918.033,0,0
115171.225,66.1005,-914.601,0,0
115431.55,66.5964,-911.118,0,0
115691.875,67.1178,-907.715,0,0
115952.2,67.6584,-904.311,0,0
116212.525,68.2588,-900.902,0,0
116472.85,68.9463,-897.387,0,0
116733.175,69.8412,-893.997,0,0
116993.5,70.6666,-890.776,0,0
117253.825,71.4661,-887.496,0,0
117514.15,72.247,-883.942,0,0
117774.475,73.7048,-880.171,0,0
118034.8,75.5423,-877.224,0,0
118295.125,77.0349,-874.516,0,0
118555.45,78.6121,-872.029,0,0
118815.775,79.7453,-869.733,0,0
119076.1,80.742,-866.994,0,0
119336.425,82.4147,-864.136,0,0
119596.75,84.4353,-861.907,0,0
119857.075,86.3857,-860.232,0,0
120117.4,88.199,-859.189,0,0
120377.725,89.1509,-858.751,0,0
120638.05,89.4087,-857.935,0,0
120898.375,89.45,-857.183,0,0
121158.7,88.767,-856.125,0,0
121419.025,87.8481,-854.525,0,0
121679.35,86.8671,-852.45,0,0
121939.675,86.0199,-849.82,0,0
122200.0,85.6073,-846.915,0,0
122460,85.4487,-844.02,0,0
122721,85.5228,-841.08,0,0
122981,85.8603,-838.199,0,0
123241,86.4164,-835.602,0,0
123502,86.7535,-833.238,0,0
123762,86.9883,-830.735,0,0
124022,87.3808,-828.171,0,0
124283,87.8551,-825.782,0,0
124543,88.3134,-823.394,0,0
124803,88.8196,-821.116,0,0
125064,89.2562,-818.856,0,0
125324,89.7131,-816.74,0,0
125584,90.1408,-814.665,0,0
125845,90.5418,-812.668,0,0
126105,90.8285,-810.834,0,0
126365,90.917,-808.976,0,0
126626,90.8216,-807.041,0,0
126886,90.7256,-804.951,0,0
127146,90.757,-802.861,0,0
127406,90.8253,-800.754,0,0
127667,90.8419,-798.839,0,0
127927,90.6085,-796.904,0,0
128187,90.2568,-794.848,0,0
128448,89.7841,-792.6,0,0
128708,89.4332,-790.087,0,0
128968,89.2649,-787.595,0,0
129229,89.1716,-785.132,0,0
129489,89.0773,-782.769,0,0
129749,88.8032,-780.323,0,0
130010,88.6597,-777.623,0,0
130270,88.8675,-774.945,0,0
130530,89.1669,-772.464,0,0
130791,89.5273,-770.187,0,0
131051,89.7551,-768.183,0,0
131311,89.6913,-766.194,0,0
131572,89.5185,-764.161,0,0
131832,89.1715,-761.997,0,0
132092,88.8309,-759.664,0,0
132353,88.5404,-757.235,0,0
132613,88.3788,-754.724,0,0
132873,88.2669,-752.334,0,0
133134,88.1171,-749.983,0,0
133394,87.9016,-747.661,0,0
133654,87.5639,-745.329,0,0
133915,87.2148,-742.838,0,0
134175,86.9192,-740.191,0,0
134435,86.7367,-737.619,0,0
134696,86.5399,-735.056,0,0
134956,86.2622,-732.511,0,0
135216,86.0003,-729.828,0,0
135477,85.9107,-727.168,0,0
135737,85.7607,-724.662,0,0
135997,85.3907,-722.138,0,0
136258,84.9234,-719.376,0,0
136518,84.6047,-716.423,0,0
136778,84.4246,-713.382,0,0
137039,84.3548,-710.408,0,0
137299,84.3211,-707.434,0,0
137559,84.4186,-704.34,0,0
137819,84.7003,-701.38,0,0
138080,84.9692,-698.552,0,0
138340.125,85.304,-695.783,0,0
138600.45,85.6956,-693.177,0,0
138860.775,85.9423,-690.829,0,0
139121.1,85.9223,-688.365,0,0
139381.425,85.8574,-685.834,0,0
139641.75,85.7175,-683.308,0,0
139902.075,85.446,-680.647,0,0
140162.4,85.3173,-677.723,0,0
140422.725,85.3823,-674.96,0,0
140683.05,85.3365,-672.335,0,0
140943.375,85.1092,-669.643,0,0
141203.7,84.8929,-666.871,0,0
141464.025,84.6129,-664.054,0,0
141724.35,84.2354,-661.115,0,0
141984.675,83.8916,-657.956,0,0
142245.0,83.7293,-654.763,0,0
142505.325,83.4887,-651.587,0,0
142765.65,83.2782,-648.296,0,0
143025.975,83.1738,-644.908,0,0
143286.3,83.1079,-641.466,0,0
143546.625,83.1891,-637.992,0,0
143806.95,83.2487,-634.563,0,0
144067.275,83.3136,-631.077,0,0
144327.6,83.4294,-627.485,0,0
144587.925,83.6443,-623.875,0,0
144848.25,83.9159,-620.227,0,0
145108.575,84.292,-616.622,0,0
145368.9,84.6898,-613.037,0,0
145629.225,85.0553,-609.421,0,0
145889.55,85.4001,-605.783,0,0
146149.875,85.7365,-601.964,0,0
146410.2,86.2712,-598.001,0,0
146670.525,87.0235,-594.176,0,0
146930.85,87.682,-590.394,0,0
147191.175,88.343,-586.523,0,0
147451.5,89.138,-582.537,0,0
147711.825,90.0695,-578.621,0,0
147972.15,90.9525,-574.705,0,0
148232.475,91.9163,-570.662,0,0
148492.8,93.0247,-566.571,0,0
148753.125,94.2583,-562.495,0,0
149013.45,95.5469,-558.465,0,0
149273.775,96.8689,-554.32,0,0
149534.1,98.4136,-550.068,0,0
149794.425,100.221,-545.929,0,0
150054.75,102.112,-541.864,0,0
150315.075,104.155,-537.845,0,0
150575.4,106.383,-533.976,0,0
150835.725,108.61,-530.242,0,0
151096.05,110.907,-526.604,0,0
151356.375,113.248,-523.039,0,0
151616.7,115.671,-519.505,0,0
151877.025,118.252,-516.104,0,0
152137.35,120.918,-512.982,0,0
152397.675,123.414,-510.063,0,0
152658.0,125.825,-507.167,0,0
152918.325,128.271,-504.31,0,0
153178.65,130.681,-501.68,0,0
153438.975,132.796,-499.139,0,0
153699.3,134.778,-496.387,0,0
153959.625,136.868,-493.438,0,0
154219.95,139.28,-490.68,0,0
154480,141.458,-488.429,0,0
154741,143.055,-486.016,0,0
155001,144.475,-483.116,0,0
155261,146.074,-479.817,0,0
155522,148.169,-476.45,0,0
155782,150.269,-473.298,0,0
156042,152.307,-470.148,0,0
156303,154.407,-466.885,0,0
156563,156.409,-463.482,0,0
156823,158.717,-459.596,0,0
157084,161.672,-455.806,0,0
157344,165.11,-452.162,0,0
157604,169.128,-449.206,0,0
157864,173.004,-447.126,0,0
158125,176.531,-445.835,0,0
158385,178.758,-445.254,0,0
158645,179.771,-443.88,0,0
158906,180.62,-441.74,0,0
159166,181.229,-438.905,0,0
159426,181.829,-435.577,0,0
159687,182.569,-431.464,0,0
159947,183.572,-426.609,0,0
160207,185.25,-421.043,0,0
160468,188.037,-415.223,0,0
160728,191.69,-409.944,0,0
160988,195.316,-405.432,0,0
161249,198.407,-400.57,0,0
161509,202,-394.617,0,0
161769,206.955,-388.637,0,0
162030,212.748,-383.438,0,0
162290,218.447,-378.942,0,0
162550,224.252,-374.565,0,0
162811,229.907,-370.287,0,0
163071,235.623,-365.468,0,0
163331,242.363,-360.105,0,0
163592,250.468,-355.33,0,0
163852,258.99,-351.716,0,0
164112,267.352,-348.349,0,0
164373,276.146,-344.979,0,0
164633,285.987,-341.956,0,0
164893,296.784,-339.745,0,0
165154,308.359,-339.33,0,0
165414,319.405,-340.783,0,0
165674,329.429,-343.179,0,0
165935,338.687,-345.756,0,0
166195,347.84,-348.395,0,0
166455,357.069,-351.763,0,0
166716,366.026,-355.823,0,0
166976,374.796,-360.617,0,0
167236,382.877,-366.237,0,0
167497,390.016,-372.708,0,0
167757,396.11,-379.185,0,0
168017,401.686,-385.724,0,0
168277,406.417,-392.496,0,0
168538,410.461,-398.703,0,0
168798,414.809,-404.582,0,0
169058,419.599,-411.515,0,0
169319,423.237,-419.813,0,0
169579,425.057,-428.643,0,0
169839,424.92,-437.244,0,0
170100,422.899,-444.296,0,0
170360.075,420.478,-449.174,0,0
170620.4,418.691,-452.575,0,0
170880.725,417.829,-455.712,0,0
171141.05,416.698,-458.741,0,0
171401.375,415.893,-460.622,0,0
171661.7,416.266,-462.417,0,0
171922.025,416.908,-464.993,0,0
172182.35,417.099,-467.922,0,0
172442.675,416.361,-470.227,0,0
172703.0,416.28,-471.057,0,0
172963.325,417.715,-471.811,0,0
173223.65,420.03,-473.643,0,0
173483.975,422.212,-476.51,0,0
173744.3,423.766,-480.022,0,0
174004.625,424.586,-483.291,0,0
174264.95,425.773,-486.147,0,0
174525.275,427.358,-489.79,0,0
174785.6,427.926,-494.059,0,0
175045.925,427.874,-497.766,0,0
175306.25,428.054,-500.619,0,0
175566.575,429.368,-503.585,0,0
175826.9,431.317,-508.182,0,0
176087.225,432.013,-514.179,0,0
176347.55,431.314,-520.17,0,0
176607.875,430.408,-526.053,0,0
176868.2,428.826,-533.174,0,0
177128.525,424.511,-540.814,0,0
177388.85,417.938,-546.404,0,0
177649.175,411.255,-550.041,0,0
177909.5,404.762,-552.701,0,0
178169.825,397.341,-554.629,0,0
178430.15,389.557,-554.254,0,0
178690.475,383.032,-552.005,0,0
178950.8,377.872,-549.088,0,0
179211.125,373.622,-545.853,0,0
179471.45,370.244,-542.118,0,0
179731.775,367.943,-538.083,0,0
179992.1,366.942,-534.18,0,0
180252.425,366.834,-530.941,0,0
180512.75,367.184,-528.249,0,0
180773.075,367.98,-525.907,0,0
181033.4,369.326,-524.119,0,0
181293.725,371.14,-523.24,0,0
181554.05,372.872,-523.504,0,0
181814.375,374.277,-524.571,0,0
182074.7,374.889,-526.675,0,0
182335.025,373.966,-528.919,0,0
182595.35,372.439,-530.248,0,0
182855.675,371.034,-531.328,0,0
183116.0,369.393,-532.583,0,0
183376.325,367.188,-533.832,0,0
183636.65,364.6,-534.751,0,0
183896.975,361.414,-535.446,0,0
184157.3,357.802,-535.321,0,0
184417.625,354.536,-534.441,0,0
184677.95,351.318,-533.738,0,0
184938.275,347.548,-532.364,0,0
185198.6,344.242,-530.192,0,0
185458.925,341.113,-527.973,0,0
185719.25,337.927,-525.337,0,0
185979.575,334.997,-522.202,0,0
186239.9,332.218,-518.715,0,0
186500,329.653,-514.452,0,0
186761,328.098,-509.622,0,0
187021,327.507,-505.035,0,0
187281,327.255,-500.956,0,0
187542,327.165,-496.968,0,0
187802,327.379,-493.095,0,0
188062,327.828,-489.398,0,0
188322,328.582,-486.037,0,0
188583,329.195,-483.259,0,0
188843,329.097,-480.528,0,0
189103,328.584,-477.066,0,0
189364,328.584,-472.715,0,0
189624,329.57,-468.207,0,0
189884,331.201,-464.136,0,0
190145,332.99,-460.652,0,0
190405,334.621,-457.428,0,0
190665,336.244,-454.136,0,0
190926,338.097,-450.95,0,0
191186,339.973,-448.077,0,0
191446,341.61,-445.245,0,0
191707,343.109,-442.159,0,0
191967,344.953,-438.963,0,0
192227,346.803,-436.124,0,0
192488,348.226,-433.169,0,0
192748,349.501,-429.554,0,0
193008,351.192,-425.223,0,0
193269,353.726,-420.501,0,0
193529,357.253,-415.976,0,0
193789,361.293,-412.077,0,0
194050,365.462,-408.536,0,0
194310,369.882,-405.236,0,0
194570,374.525,-402.268,0,0
194831,379.29,-399.549,0,0
195091,384.252,-396.901,0,0
195351,389.591,-394.595,0,0
195612,395.171,-392.678,0,0
195872,401.09,-391.226,0,0
196132,407.322,-390.333,0,0
196393,413.756,-390.467,0,0
196653,419.714,-391.596,0,0
196913,425.095,-393.989,0,0
197174,428.611,-396.52,0,0
197434,430.948,-397.656,0,0
197694,434.173,-398.057,0,0
197955,437.703,-399.001,0,0
198215,440.805,-400.174,0,0
198475,443.757,-401.333,0,0
198735,446.315,-402.765,0,0
198996,448.159,-403.908,0,0
199256,449.906,-404.416,0,0
199516,451.852,-404.668,0,0
199777,453.839,-405.007,0,0
200037,455.623,-405.422,0,0
200297,456.66,-405.551,0,0
200558,457.283,-404.71,0,0
200818,458.395,-402.572,0,0
201078,460.759,-399.997,0,0
201339,463.88,-397.769,0,0
201599,467.318,-395.759,0,0
201859,470.931,-393.842,0,0
202120,474.8,-391.645,0,0
202380.025,479.384,-389.239,0,0
202640.35,484.985,-387.105,0,0
202900.675,491.282,-385.793,0,0
203161.0,497.693,-385.373,0,0
203421.325,504.073,-385.503,0,0
203681.65,510.389,-386.055,0,0
203941.975,516.943,-387.018,0,0
204202.3,523.536,-388.856,0,0
204462.625,529.664,-391.334,0,0
204722.95,535.268,-394.3,0,0
204983.275,540.638,-397.579,0,0
205243.6,545.363,-401.493,0,0
205503.925,548.783,-405.611,0,0
205764.25,551.405,-409.243,0,0
206024.575,553.351,-412.287,0,0
206284.9,554.825,-414.314,0,0
206545.225,556.541,-415.353,0,0
206805.55,558.39,-415.673,0,0
207065.875,561.122,-414.999,0,0
207326.2,564.904,-414.141,0,0
207586.525,569.537,-413.756,0,0
207846.85,574.395,-413.462,0,0
208107.175,579.974,-413.042,0,0
208367.5,586.5,-412.991,0,0
208627.825,593.614,-413.774,0,0
208888.15,601.072,-415.239,0,0
209148.475,608.796,-417.562,0,0
209408.8,616.348,-420.825,0,0
209669.125,623.51,-424.659,0,0
209929.45,630.549,-428.733,0,0
210189.775,637.492,-433.289,0,0
210450.1,644.163,-438.256,0,0
210710.425,650.761,-443.53,0,0
210970.75,657.278,-449.246,0,0
211231.075,663.448,-455.422,0,0
211491.4,669.237,-462.126,0,0
211751.725,674.434,-468.967,0,0
212012.05,679.291,-475.773,0,0
212272.375,684.137,-482.387,0,0
212532.7,689.173,-489.146,0,0
212793.025,694.244,-496.312,0,0
213053.35,699.446,-504.188,0,0
213313.675,704.164,-512.809,0,0
213574.0,708.158,-521.895,0,0
213834.325,711.42,-531.146,0,0
214094.65,714.135,-540.309,0,0
214354.975,716.455,-549.581,0,0
214615.3,718.379,-558.922,0,0
214875.625,719.772,-568.354,0,0
215135.95,720.713,-577.422,0,0
215396.275,721.279,-586.386,0,0
215656.6,721.779,-595.002,0,0
215916.925,722.186,-603.598,0,0
216177.25,722.525,-612.414,0,0
216437.575,722.991,-621.431,0,0
216697.9,722.954,-630.973,0,0
216958.225,722.165,-640.78,0,0
217218.55,720.656,-650.354,0,0
217478.875,718.776,-659.643,0,0
217739.2,716.511,-668.824,0,0
217999.525,713.724,-677.825,0,0
218259.85,710.525,-686.39,0,0
218520,707.004,-694.559,0,0
218780,703.214,-702.201,0,0
219041,699.657,-709.227,0,0
219301,696.338,-716.164,0,0
219561,693.256,-722.949,0,0
219822,690.382,-730.036,0,0
220082,687.323,-737.389,0,0
220342,683.992,-744.822,0,0
220603,680.729,-752.344,0,0
220863,677.083,-760.174,0,0
221123,673.064,-767.991,0,0
221384,668.889,-776.012,0,0
221644,664.366,-784.423,0,0
221904,659.05,-793.283,0,0
222165,652.395,-802.304,0,0
222425,644.622,-810.642,0,0
222685,635.94,-818.129,0,0
222946,626.686,-824.564,0,0
223206,616.892,-829.899,0,0
223466,607.167,-834.022,0,0
223727,597.543,-837.205,0,0
223987,588.284,-839.476,0,0
224247,579.333,-841.034,0,0
224508,570.995,-841.654,0,0
224768,563.289,-841.666,0,0
225028,556.708,-841.17,0,0
225289,550.768,-840.694,0,0
225549,545.922,-840.549,0,0
225809,541.561,-840.835,0,0
226070,537.296,-841.643,0,0
226330,533.106,-842.959,0,0
226590,528.702,-844.183,0,0
226851,524.493,-845.453,0,0
227111,520.608,-847.007,0,0
227371,516.715,-849.307,0,0
227632,512.169,-851.973,0,0
227892,506.954,-854.507,0,0
228152,501.511,-856.76,0,0
228413,495.683,-858.808,0,0
228673,489.599,-860.236,0,0
228933,483.723,-861.201,0,0
229193,478.146,-861.903,0,0
229454,473.012,-862.545,0,0
229714,467.782,-863.42,0,0
229974,462.675,-864.345,0,0
230235,457.201,-865.313,0,0
230495,451.795,-866.099,0,0
230755,446.142,-866.645,0,0
231016,440.466,-867.049,0,0
231276,434.775,-867.117,0,0
231536,429.173,-866.898,0,0
231797,423.859,-866.449,0,0
232057,418.685,-866.038,0,0
232317,413.583,-865.513,0,0
232578,408.658,-864.9,0,0
232838,403.86,-864.246,0,0
233098,399.138,-863.654,0,0
233359,394.458,-863.119,0,0
233619,389.77,-862.505,0,0
233879,385.016,-861.765,0,0
234140,380.31,-860.894,0,0
234400,375.794,-859.82,0,0
234660.3,371.572,-858.789,0,0
234920.625,367.307,-857.929,0,0
235180.95,363.269,-857.235,0,0
235441.275,359.084,-856.571,0,0
235701.6,354.757,-855.984,0,0
235961.925,350.248,-855.391,0,0
236222.25,345.507,-854.67,0,0
236482.575,340.763,-853.616,0,0
236742.9,336.17,-852.389,0,0
237003.225,331.703,-851.255,0,0
237263.55,327.139,-850.195,0,0
237523.875,322.352,-849.076,0,0
237784.2,317.392,-847.739,0,0
238044.525,312.279,-846.061,0,0
238304.85,307.254,-843.986,0,0
238565.175,302.35,-841.681,0,0
238825.5,297.639,-839.041,0,0
239085.825,293.229,-836.177,0,0
239346.15,288.97,-833.225,0,0
239606.475,285.118,-830.417,0,0
239866.8,281.514,-827.559,0,0
240127.125,277.69,-824.589,0,0
240387.45,273.944,-821.824,0,0
240647.775,270.24,-818.721,0,0
240908.1,266.694,-815.534,0,0
241168.425,263.359,-812.14,0,0
241428.75,260.12,-808.729,0,0
241689.075,257.149,-805,0,0
241949.4,254.475,-801.309,0,0
242209.725,252.102,-797.684,0,0
242470.05,249.893,-794.197,0,0
242730.375,247.77,-790.732,0,0
242990.7,245.887,-787.214,0,0
243251.025,244.133,-783.787,0,0
243511.35,242.913,-780.435,0,0
243771.675,241.769,-777.5,0,0
244032.0,240.648,-774.891,0,0
244292.325,239.415,-772.525,0,0
244552.65,237.911,-770.24,0,0
244812.975,236.406,-767.899,0,0
245073.3,234.482,-765.58,0,0
245333.625,232.863,-762.959,0,0
245593.95,231.019,-760.479,0,0
245854.275,229.45,-757.654,0,0
246114.6,227.834,-754.869,0,0
246374.925,226.436,-752.007,0,0
246635.25,225.218,-749.098,0,0
246895.575,224,-746.3,0,0
247155.9,223.081,-743.584,0,0
247416.225,222.109,-740.951,0,0
247676.55,221.025,-738.308,0,0
247936.875,220.019,-735.567,0,0
248197.2,219.059,-732.744,0,0
248457.525,218.287,-729.744,0,0
248717.85,217.743,-726.821,0,0
248978.175,217.618,-723.884,0,0
249238.5,217.742,-721.233,0,0
249498.825,218.045,-718.845,0,0
249759.15,218.38,-716.814,0,0
250019.475,218.673,-715.061,0,0
250279.8,218.945,-713.643,0,0
250540,218.973,-712.534,0,0
250800,218.716,-711.491,0,0
251061,218.228,-710.522,0,0
251321,217.47,-709.587,0,0
251581,216.512,-708.55,0,0
251842,215.367,-707.424,0,0
252102,214.094,-706.201,0,0
252362,212.601,-704.84,0,0
252623,211.042,-703.187,0,0
252883,209.511,-701.335,0,0
253143,208.062,-699.324,0,0
253404,206.65,-697.23,0,0
253664,205.218,-695.002,0,0
253924,203.737,-692.561,0,0
254185,202.36,-689.877,0,0
254445,201.102,-687.01,0,0
254705,199.991,-683.952,0,0
254966,199.131,-680.852,0,0
255226,198.446,-677.528,0,0
255486,197.849,-674.013,0,0
255747,197.738,-670.308,0,0
256007,198.054,-666.553,0,0
256267,198.79,-662.982,0,0
256528,199.839,-659.578,0,0
256788,201.171,-656.446,0,0
257048,202.653,-653.658,0,0
257309,204.254,-651.164,0,0
257569,205.768,-648.881,0,0
257829,207.252,-646.724,0,0
258090,208.615,-644.733,0,0
258350,209.848,-642.652,0,0
258610,211.156,-640.376,0,0
258871,212.698,-637.907,0,0
259131,214.661,-635.375,0,0
259391,217.066,-632.952,0,0
259651,219.968,-630.877,0,0
259912,223.126,-629.398,0,0
260172,226.27,-628.248,0,0
260432,229.502,-627.454,0,0
260693,232.848,-626.884,0,0
260953,236.469,-626.735,0,0
261213,240.194,-627.209,0,0
261474,243.81,-628.356,0,0
261734,247.195,-630.119,0,0
261994,250.074,-632.455,0,0
262255,252.544,-635.185,0,0
262515,254.427,-638.225,0,0
262775,255.723,-641.494,0,0
263036,256.394,-644.675,0,0
263296,256.733,-647.812,0,0
263556,256.725,-650.899,0,0
263817,256.34,-653.994,0,0
264077,255.508,-657.018,0,0
264337,254.262,-659.932,0,0
264598,252.61,-662.584,0,0
264858,250.824,-665.059,0,0
265118,248.785,-667.266,0,0
265379,246.372,-669.389,0,0
265639,243.788,-671.196,0,0
265899,240.926,-672.718,0,0
266160,237.927,-673.938,0,0
266420,234.709,-674.875,0,0
266680.25,231.361,-675.42,0,0
266940.575,227.938,-675.563,0,0
267200.9,224.537,-675.23,0,0
267461.225,221.221,-674.539,0,0
267721.55,218.095,-673.422,0,0
267981.875,215.162,-672.069,0,0
268242.2,212.53,-670.422,0,0
268502.525,210.245,-668.646,0,0
268762.85,208.235,-666.823,0,0
269023.175,206.481,-664.988,0,0
269283.5,204.825,-663.177,0,0
269543.825,203.24,-661.506,0,0
269804.15,201.818,-659.64,0,0
270064.475,200.306,-657.737,0,0
270324.8,199.178,-655.738,0,0
270585.125,198.128,-653.682,0,0
270845.45,197.32,-651.69,0,0
271105.775,196.659,-649.772,0,0
271366.1,196.082,-647.957,0,0
271626.425,195.621,-646.227,0,0
271886.75,195.22,-644.522,0,0
272147.075,194.924,-642.968,0,0
272407.4,194.536,-641.626,0,0
272667.725,193.989,-640.291,0,0
272928.05,193.316,-638.696,0,0
273188.375,192.687,-637.085,0,0
273448.7,192.147,-635.297,0,0
273709.025,191.742,-633.407,0,0
273969.35,191.46,-631.402,0,0
274229.675,191.443,-629.433,0,0
274490.0,191.621,-627.484,0,0
274750.325,191.817,-625.664,0,0
275010.65,192.141,-623.771,0,0
275270.975,192.588,-621.942,0,0
275531.3,193.196,-620.057,0,0
275791.625,194.036,-618.293,0,0
276051.95,194.945,-616.578,0,0
276312.275,196.107,-614.917,0,0
276572.6,197.504,-613.419,0,0
276832.925,199.108,-612.179,0,0
277093.25,200.815,-611.237,0,0
277353.575,202.525,-610.642,0,0
277613.9,204.216,-610.221,0,0
277874.225,205.828,-610.001,0,0
278134.55,207.441,-609.997,0,0
278394.875,208.995,-610.193,0,0
278655.2,210.488,-610.618,0,0
278915.525,211.875,-611.257,0,0
279175.85,213.104,-612.12,0,0
279436.175,214.163,-613.101,0,0
279696.5,215.093,-614.179,0,0
279956.825,215.825,-615.55,0,0
280217.15,216.282,-616.896,0,0
280477.475,216.462,-618.364,0,0
280737.8,216.395,-619.738,0,0
280998.125,216.205,-621.085,0,0
281258.45,215.857,-622.396,0,0
281518.775,215.349,-623.68,0,0
281779.1,214.705,-624.919,0,0
282039.425,213.826,-626.113,0,0
282299.75,212.829,-627.138,0,0
282560,211.784,-627.976,0,0
282820,210.714,-628.842,0,0
283081,209.545,-629.666,0,0
283341,208.18,-630.414,0,0
283601,206.742,-630.987,0,0
283862,205.24,-631.434,0,0
284122,203.723,-631.757,0,0
284382,202.207,-631.934,0,0
284643,200.619,-632.053,0,0
284903,198.991,-632.065,0,0
285163,197.346,-631.844,0,0
285424,195.765,-631.51,0,0
285684,194.207,-631.021,0,0
285944,192.739,-630.398,0,0
286205,191.387,-629.719,0,0
286465,190.042,-628.921,0,0
286725,188.794,-628.001,0,0
286986,187.724,-626.998,0,0
287246,186.83,-625.908,0,0
287506,186.125,-624.847,0,0
287767,185.595,-623.862,0,0
288027,185.174,-622.983,0,0
288287,184.816,-622.23,0,0
288548,184.503,-621.589,0,0
288808,184.159,-621.04,0,0
289068,183.777,-620.519,0,0
289329,183.435,-620.034,0,0
289589,183.098,-619.565,0,0
289849,182.84,-619.193,0,0
290109,182.573,-618.9,0,0
290370,182.354,-618.774,0,0
290630,181.983,-618.813,0,0
290890,181.476,-618.973,0,0
291151,180.752,-619.179,0,0
291411,179.781,-619.281,0,0
291671,178.683,-619.25,0,0
291932,177.476,-619.066,0,0
292192,176.248,-618.723,0,0
292452,174.991,-618.214,0,0
292713,173.762,-617.497,0,0
292973,172.635,-616.602,0,0
293233,171.668,-615.604,0,0
293494,170.858,-614.548,0,0
293754,170.205,-613.518,0,0
294014,169.68,-612.493,0,0
294275,169.206,-611.512,0,0
294535,168.822,-610.562,0,0
294795,168.531,-609.565,0,0
295056,168.428,-608.646,0,0
295316,168.386,-607.827,0,0
295576,168.435,-607.163,0,0
295837,168.52,-606.612,0,0
296097,168.592,-606.189,0,0
296357,168.646,-605.897,0,0
296618,168.668,-605.683,0,0
296878,168.638,-605.582,0,0
297138,168.561,-605.552,0,0
297399,168.393,-605.635,0,0
297659,168.093,-605.759,0,0
297919,167.7,-605.876,0,0
298180,167.202,-605.99,0,0
298440,166.639,-606.059,0,0
298700.2,166.051,-606.086,0,0
298960.525,165.446,-606.102,0,0
299220.85,164.819,-606.119,0,0
299481.175,164.143,-606.154,0,0
299741.5,163.426,-606.194,0,0
300001.825,162.656,-606.245,0,0
300262.15,161.826,-606.287,0,0
300522.475,160.95,-606.297,0,0
300782.8,160.014,-606.264,0,0
301043.125,159.007,-606.221,0,0
301303.45,157.967,-606.106,0,0
301563.775,156.89,-605.979,0,0
301824.1,155.765,-605.782,0,0
302084.425,154.589,-605.501,0,0
302344.75,153.428,-605.138,0,0
302605.075,152.248,-604.729,0,0
302865.4,151.088,-604.241,0,0
303125.725,149.935,-603.711,0,0
303386.05,148.81,-603.122,0,0
303646.375,147.706,-602.508,0,0
303906.7,146.6,-601.861,0,0
304167.025,145.485,-601.184,0,0
304427.35,144.393,-600.434,0,0
304687.675,143.327,-599.64,0,0
304948.0,142.26,-598.773,0,0
305208.325,141.228,-597.872,0,0
305468.65,140.263,-596.872,0,0
305728.975,139.375,-595.869,0,0
305989.3,138.576,-594.837,0,0
306249.625,137.816,-593.807,0,0
306509.95,137.096,-592.762,0,0
306770.275,136.423,-591.716,0,0
307030.6,135.789,-590.655,0,0
307290.925,135.256,-589.569,0,0
307551.25,134.793,-588.526,0,0
307811.575,134.415,-587.529,0,0
308071.9,134.062,-586.582,0,0
308332.225,133.732,-585.705,0,0
308592.55,133.417,-584.879,0,0
308852.875,133.085,-584.066,0,0
309113.2,132.787,-583.29,0,0
309373.525,132.51,-582.563,0,0
309633.85,132.208,-581.854,0,0
309894.175,131.908,-581.203,0,0
310154.5,131.646,-580.599,0,0
310414.825,131.37,-580.039,0,0
310675.15,131.033,-579.589,0,0
310935.475,130.641,-579.157,0,0
311195.8,130.174,-578.724,0,0
311456.125,129.634,-578.286,0,0
311716.45,129.048,-577.859,0,0
311976.775,128.406,-577.393,0,0
312237.1,127.711,-576.89,0,0
312497.425,126.983,-576.347,0,0
312757.75,126.22,-575.757,0,0
313018.075,125.413,-575.12,0,0
313278.4,124.575,-574.423,0,0
313538.725,123.719,-573.63,0,0
313799.05,122.879,-572.782,0,0
314059.375,122.041,-571.789,0,0
314319.7,121.292,-570.758,0,0
314580,120.504,-569.602,0,0
314840,119.954,-568.456,0,0
315101,119.361,-567.137,0,0
315361,118.956,-565.905,0,0
315621,118.645,-564.626,0,0
315882,118.407,-563.412,0,0
316142,118.38,-562.232,0,0
316402,118.268,-561.146,0,0
316663,118.301,-560.178,0,0
316923,118.32,-559.038,0,0
317183,118.378,-558.149,0,0
317444,118.449,-557.256,0,0
317704,118.562,-556.56,0,0
317964,118.574,-555.844,0,0
318225,118.632,-555.152,0,0
318485,118.474,-554.48,0,0
318745,118.384,-553.8,0,0
319006,118.463,-553.121,0,0
319266,118.409,-552.369,0,0
319526,118.329,-551.693,0,0
319787,118.327,-550.969,0,0
320047,118.399,-550.362,0,0
320307,118.329,-549.641,0,0
320567,118.404,-548.965,0,0
320828,118.54,-548.27,0,0
321088,118.609,-547.658,0,0
321348,118.682,-546.952,0,0
321609,118.906,-546.339,0,0
321869,119.251,-545.857,0,0
322129,119.475,-545.301,0,0
322390,119.895,-544.908,0,0
322650,120.151,-544.635,0,0
322910,120.658,-544.41,0,0
323171,120.905,-544.265,0,0
323431,121.113,-544.294,0,0
323691,121.425,-544.376,0,0
323952,121.58,-544.487,0,0
324212,121.626,-544.757,0,0
324472,121.632,-545.078,0,0
324733,121.503,-545.436,0,0
324993,121.184,-545.81,0,0
325253,120.841,-546.091,0,0
325514,120.351,-546.456,0,0
325774,119.791,-546.685,0,0
326034,119.196,-546.86,0,0
326295,118.478,-547.097,0,0
326555,117.781,-547.167,0,0
326815,117.044,-547.277,0,0
327076,116.182,-547.289,0,0
327336,115.324,-547.304,0,0
327596,114.473,-547.19,0,0
327857,113.621,-547.107,0,0
328117,112.689,-546.908,0,0
328377,111.781,-546.685,0,0
328638,110.781,-546.328,0,0
328898,109.877,-546.089,0,0
329158,108.847,-545.663,0,0
329419,107.995,-545.18,0,0
329679,107.074,-544.768,0,0
329939,106.189,-544.286,0,0
330200,105.384,-543.796,0,0
330460,104.513,-543.276,0,0
330720.15,103.719,-542.77,0,0
330980.475,102.841,-542.357,0,0
331240.8,101.983,-541.765,0,0
331501.125,101.113,-541.199,0,0
331761.45,100.215,-540.62,0,0
332021.775,99.2547,-540.088,0,0
332282.1,98.3792,-539.427,0,0
332542.425,97.4962,-538.732,0,0
332802.75,96.5491,-538.116,0,0
333063.075,95.6057,-537.334,0,0
333323.4,94.6876,-536.575,0,0
333583.725,93.7587,-535.756,0,0
333844.05,92.8217,-534.857,0,0
334104.375,92.0241,-533.961,0,0
334364.7,90.9812,-533.068,0,0
334625.025,90.1943,-532.069,0,0
334885.35,89.3612,-531.05,0,0
335145.675,88.5414,-530.016,0,0
335406.0,87.8168,-528.93,0,0
335666.325,87.027,-527.781,0,0
335926.65,86.3564,-526.663,0,0
336186.975,85.6424,-525.486,0,0
336447.3,85.0926,-524.316,0,0
336707.625,84.4881,-523.144,0,0
336967.95,83.9378,-521.961,0,0
337228.275,83.4719,-520.723,0,0
337488.6,83.0118,-519.616,0,0
337748.925,82.5044,-518.365,0,0
338009.25,82.0772,-517.227,0,0
338269.575,81.6304,-516.03,0,0
338529.9,81.204,-514.759,0,0
338790.225,80.8319,-513.517,0,0
339050.55,80.476,-512.284,0,0
339310.875,80.1068,-510.957,0,0
339571.2,79.8163,-509.592,0,0
339831.525,79.619,-508.262,0,0
340091.85,79.4183,-506.879,0,0
340352.175,79.2309,-505.495,0,0
340612.5,79.283,-504.065,0,0
340872.825,79.3221,-502.699,0,0
341133.15,79.4518,-501.285,0,0
341393.475,79.6516,-499.96,0,0
341653.8,79.9185,-498.691,0,0
341914.125,80.315,-497.413,0,0
342174.45,80.709,-496.217,0,0
342434.775,81.1663,-495.116,0,0
342695.1,81.7032,-494.097,0,0
342955.425,82.2298,-493.189,0,0
343215.75,82.7962,-492.384,0,0
343476.075,83.3265,-491.683,0,0
343736.4,83.8853,-490.986,0,0
343996.725,84.3452,-490.48,0,0
344257.05,84.7707,-490.039,0,0
344517.375,85.1171,-489.62,0,0
344777.7,85.3983,-489.282,0,0
345038.025,85.6364,-488.859,0,0
345298.35,85.7833,-488.524,0,0
345558.675,85.8919,-488.222,0,0
345819.0,85.929,-487.782,0,0
346079.325,85.9285,-487.412,0,0
346339.65,85.957,-486.978,0,0
346599.975,85.9572,-486.576,0,0
346860,85.9174,-486.154,0,0
347121,85.8306,-485.747,0,0
347381,85.7761,-485.304,0,0
347641,85.6469,-484.769,0,0
347902,85.4809,-484.289,0,0
348162,85.3571,-483.829,0,0
348422,85.0888,-483.219,0,0
348683,84.9087,-482.601,0,0
348943,84.7649,-481.954,0,0
349203,84.5544,-481.196,0,0
349464,84.5202,-480.408,0,0
349724,84.4673,-479.652,0,0
349984,84.4811,-478.768,0,0
350245,84.6324,-477.973,0,0
350505,84.8219,-477.167,0,0
350765,85.0492,-476.383,0,0
351025,85.4481,-475.74,0,0
351286,85.8457,-475.122,0,0
351546,86.1698,-474.563,0,0
351806,86.5408,-474.219,0,0
352067,86.8677,-473.868,0,0
352327,87.2114,-473.656,0,0
352587,87.4352,-473.45,0,0
352848,87.581,-473.318,0,0
353108,87.7026,-473.192,0,0
353368,87.7361,-472.998,0,0
353629,87.7358,-472.948,0,0
353889,87.5904,-472.789,0,0
354149,87.3794,-472.604,0,0
354410,87.1785,-472.406,0,0
354670,86.9405,-472.186,0,0
354930,86.7352,-471.875,0,0
355191,86.5207,-471.544,0,0
355451,86.2086,-471.171,0,0
355711,86.0144,-470.819,0,0
355972,85.7761,-470.452,0,0
356232,85.4985,-470.104,0,0
356492,85.2415,-469.722,0,0
356753,84.9299,-469.262,0,0
357013,84.608,-468.811,0,0
357273,84.2743,-468.349,0,0
357534,83.9625,-467.74,0,0
357794,83.6096,-467.249,0,0
358054,83.3292,-466.577,0,0
358315,83.0735,-465.908,0,0
358575,82.8926,-465.237,0,0
358835,82.7378,-464.498,0,0
359096,82.6491,-463.848,0,0
359356,82.573,-463.157,0,0
359616,82.4492,-462.405,0,0
359877,82.5067,-461.815,0,0
360137,82.5873,-461.187,0,0
360397,82.6068,-460.623,0,0
360658,82.5948,-460.172,0,0
360918,82.5619,-459.611,0,0
361178,82.5237,-459.151,0,0
361438,82.4875,-458.665,0,0
361699,82.3845,-458.15,0,0
361959,82.2564,-457.665,0,0
362219,82.1504,-457.168,0,0
362480,82,-456.54,0,0
362740.1,81.8691,-455.914,0,0
363000.425,81.8239,-455.268,0,0
363260.75,81.7837,-454.549,0,0
363521.075,81.8151,-453.865,0,0
363781.4,81.946,-453.138,0,0
364041.725,82.1303,-452.524,0,0
364302.05,82.3325,-451.912,0,0
364562.375,82.5831,-451.356,0,0
364822.7,82.8541,-450.896,0,0
365083.025,83.1127,-450.509,0,0
365343.35,83.4415,-450.166,0,0
365603.675,83.6477,-449.802,0,0
365864.0,83.7768,-449.645,0,0
366124.325,84.0092,-449.485,0,0
366384.65,84.1442,-449.306,0,0
366644.975,84.1342,-449.225,0,0
366905.3,84.1104,-449.166,0,0
367165.625,83.9686,-449.099,0,0
367425.95,83.7765,-448.975,0,0
367686.275,83.5426,-448.816,0,0
367946.6,83.194,-448.72,0,0
368206.925,82.7783,-448.455,0,0
368467.25,82.3525,-448.205,0,0
368727.575,81.8556,-447.853,0,0
368987.9,81.3394,-447.349,0,0
369248.225,80.8577,-446.659,0,0
369508.55,80.4729,-445.937,0,0
369768.875,80.1253,-445.073,0,0
370029.2,80.0222,-444.265,0,0
370289.525,79.9626,-443.395,0,0
370549.85,80.0152,-442.542,0,0
370810.175,80.2263,-441.749,0,0
371070.5,80.4348,-441.073,0,0
371330.825,80.7633,-440.511,0,0
371591.15,81.1145,-439.991,0,0
371851.475,81.4324,-439.6,0,0
372111.8,81.7834,-439.365,0,0
372372.125,81.9566,-439.225,0,0
372632.45,82.0979,-439.117,0,0
372892.775,82.154,-439.092,0,0
373153.1,82.0437,-439.096,0,0
373413.425,81.8777,-439.007,0,0
373673.75,81.5962,-438.886,0,0
373934.075,81.1987,-438.716,0,0
374194.4,80.8314,-438.392,0,0
374454.725,80.4085,-438.112,0,0
374715.05,80.0129,-437.704,0,0
374975.375,79.6428,-437.241,0,0
375235.7,79.2743,-436.686,0,0
375496.025,78.8594,-436.071,0,0
375756.35,78.5543,-435.476,0,0
376016.675,78.2545,-434.768,0,0
376277.0,78.0129,-434.016,0,0
376537.325,77.8486,-433.287,0,0
376797.65,77.7626,-432.496,0,0
377057.975,77.6645,-431.774,0,0
377318.3,77.6718,-431.008,0,0
377578.625,77.6924,-430.329,0,0
377838.95,77.8003,-429.606,0,0
378099.275,77.9093,-428.914,0,0
378359.6,78.0191,-428.258,0,0
378619.925,78.2354,-427.599,0,0
378880,78.4457,-427.016,0,0
379141,78.6901,-426.419,0,0
379401,78.9717,-425.911,0,0
379661,79.2738,-425.49,0,0
379922,79.5388,-425.143,0,0
380182,79.8384,-424.794,0,0
380442,80.0986,-424.55,0,0
380703,80.3144,-424.404,0,0
380963,80.3743,-424.257,0,0
381223,80.4354,-424.044,0,0
381483,80.4212,-423.874,0,0
381744,80.3834,-423.673,0,0
382004,80.3438,-423.453,0,0
382264,80.268,-423.174,0,0
382525,80.2546,-422.947,0,0
382785,80.1736,-422.701,0,0
383045,80.1379,-422.437,0,0
383306,80.087,-422.232,0,0
383566,79.9274,-422.041,0,0
383826,79.8011,-421.82,0,0
384087,79.5931,-421.617,0,0
384347,79.3432,-421.362,0,0
384607,79.0986,-421.119,0,0
384868,78.7658,-420.786,0,0
385128,78.5172,-420.491,0,0
385388,78.1635,-420.1,0,0
385649,77.9001,-419.689,0,0
385909,77.5435,-419.218,0,0
386169,77.2339,-418.814,0,0
386430,76.9357,-418.308,0,0
386690,76.5849,-417.872,0,0
386950,76.3403,-417.281,0,0
387211,76.0015,-416.737,0,0
387471,75.6907,-416.119,0,0
387731,75.4264,-415.504,0,0
387992,75.1628,-414.851,0,0
388252,74.8835,-414.138,0,0
388512,74.6299,-413.391,0,0
388773,74.4468,-412.603,0,0
389033,74.2868,-411.816,0,0
389293,74.0899,-411.012,0,0
389554,74.0701,-410.123,0,0
389814,74.0211,-409.272,0,0
390074,74.0031,-408.376,0,0
390335,74.0855,-407.471,0,0
390595,74.2182,-406.594,0,0
390855,74.3833,-405.696,0,0
391116,74.6436,-404.872,0,0
391376,74.9105,-403.988,0,0
391636,75.262,-403.182,0,0
391896,75.6659,-402.368,0,0
392157,76.1336,-401.618,0,0
392417,76.6277,-400.909,0,0
392677,77.1978,-400.274,0,0
392938,77.7726,-399.772,0,0
393198,78.3547,-399.32,0,0
393458,78.9139,-398.887,0,0
393719,79.4261,-398.558,0,0
393979,79.9612,-398.313,0,0
394239,80.426,-398.092,0,0
394500,80.8797,-397.846,0,0
394760.05,81.2548,-397.653,0,0
395020.375,81.6837,-397.5,0,0
395280.7,82.0331,-397.337,0,0
395541.025,82.4164,-397.18,0,0
395801.35,82.7667,-397.094,0,0
396061.675,83.1376,-396.972,0,0
396322.0,83.4612,-396.888,0,0
396582.325,83.7604,-396.816,0,0
396842.65,84.0229,-396.85,0,0
397102.975,84.3419,-396.848,0,0
397363.3,84.5478,-396.916,0,0
397623.625,84.7746,-396.97,0,0
397883.95,84.9236,-397.032,0,0
398144.275,85.0267,-397.145,0,0
398404.6,85.0764,-397.225,0,0
398664.925,85.0851,-397.318,0,0
398925.25,85.0617,-397.418,0,0
399185.575,85.0263,-397.443,0,0
399445.9,84.9722,-397.472,0,0
399706.225,84.8879,-397.569,0,0
399966.55,84.7977,-397.59,0,0
400006.6,84.821,-397.565,0,0