File: Accelerated corrosion test data/2025-10-18_06-00-03/sample_2.csv
Frequency (Hz),Impedance (ohms),Phase (Radians),Temperature (C),Humidity (%)
10000.0,227.343,-11507.9,0,0
10260.325,221.521,-11217.9,0,0
10520.65,216.513,-10942.7,0,0
10780.975,211.885,-10679.8,0,0
11041.3,207.054,-10431,0,0
11301.625,202.236,-10191.3,0,0
11561.95,199.003,-9962.07,0,0
11822.275,197.814,-9752.91,0,0
12082.6,191.114,-9540.28,0,0
12342.925,186.48,-9342.59,0,0
12603.25,182.398,-9150.07,0,0
12863.575,178.98,-8964.71,0,0
13123.9,176.47,-8790.24,0,0
13384.225,173.08,-8617.99,0,0
13644.55,169.602,-8451.25,0,0
13904.875,187.486,-8303.22,0,0
14165.2,165.187,-8150.54,0,0
14425.525,161.025,-8002.02,0,0
14685.8,165.544,-7854.46,0,0
14946.175,159.569,-7723.67,0,0
15206.5,160.87,-7603.49,0,0
15466.825,159.73,-7467.74,0,0
15727.15,150.979,-7352.67,0,0
15987.5,148.12,-7230.31,0,0
16247.8,148.289,-7115.2,0,0
16508.125,142.933,-7004.41,0,0
16768.45,140.518,-6895.61,0,0
17028.775,139.092,-6791.02,0,0
17289.1,137.523,-6689.65,0,0
17549.425,134.398,-6589.88,0,0
17809.75,132.811,-6493.6,0,0
18070.075,131.076,-6399.71,0,0
18330.4,129.41,-6308.17,0,0
18590.725,128.191,-6219.2,0,0
18851.05,127.251,-6133.1,0,0
19111.375,128.737,-6050.67,0,0
19371.7,127.947,-5973.52,0,0
19632.025,122.636,-5893.83,0,0
19892.35,120.41,-5815.51,0,0
20152.675,118.732,-5739.21,0,0
20413.0,118.226,-5664.58,0,0
20673.3,117.566,-5591.23,0,0
20933.65,118.377,-5518.95,0,0
21193.975,123.698,-5451.28,0,0
21454.3,131.623,-5391.26,0,0
21714.625,127.268,-5334.56,0,0
21974.9,124.357,-5267.99,0,0
22235.275,118.657,-5213.7,0,0
22495.6,115.055,-5152.4,0,0
22755.925,112.203,-5090.8,0,0
23016.25,112.821,-5036.08,0,0
23276.6,113.067,-4981.21,0,0
23536.9,109.057,-4925.7,0,0
23797.225,107.308,-4870.54,0,0
24057.55,106.85,-4818.8,0,0
24317.875,103.508,-4767.92,0,0
24578.2,100.968,-4717.17,0,0
24838.525,100.026,-4666.07,0,0
25098.85,99.43,-4617.1,0,0
25359.175,97.9693,-4569.4,0,0
25619.5,97.633,-4522.69,0,0
25879.8,95.9889,-4476.26,0,0
26140.1,96.5898,-4430.97,0,0
26400.5,95.751,-4387.43,0,0
26660.8,96.3259,-4345.33,0,0
26921.1,95.1143,-4303.03,0,0
27181.4,93.9895,-4263.01,0,0
27441.8,92.2093,-4222.2,0,0
27702.1,90.4723,-4181.77,0,0
27962.4,90.1441,-4140.88,0,0
28222.7,90.1863,-4102.18,0,0
28483.1,89.867,-4064.4,0,0
28743.4,89.1081,-4026.15,0,0
29003.7,91.3042,-3988.75,0,0
29264,91.1876,-3951.63,0,0
29524.4,94.617,-3917.22,0,0
29784.7,97.9659,-3888.54,0,0
30045,93.7163,-3856.89,0,0
30305.3,95.0012,-3823.11,0,0
30565.7,91.117,-3795.53,0,0
30826,88.2918,-3761.91,0,0
31086.3,86.8676,-3729.83,0,0
31346.6,85.5902,-3698.38,0,0
31607,85.6387,-3668.23,0,0
31867.3,83.5652,-3637.74,0,0
32127.6,82.3603,-3606.66,0,0
32387.9,83.398,-3576.31,0,0
32648.3,84.2958,-3548.85,0,0
32908.6,83.1355,-3522.45,0,0
33168.9,82.353,-3494.99,0,0
33429.2,80.3945,-3467.51,0,0
33689.6,79.8448,-3440.51,0,0
33949.9,79.0459,-3414.64,0,0
34210.2,77.4367,-3388.47,0,0
34470.5,76.4013,-3361.94,0,0
34730.9,76.1909,-3336.14,0,0
34991.2,75.6413,-3311.08,0,0
35251.5,75.0544,-3286.32,0,0
35511.8,74.451,-3261.36,0,0
35772.2,74.1602,-3237.59,0,0
36032.5,73.3327,-3213.83,0,0
36292.8,72.7759,-3190.4,0,0
36553.1,72.3474,-3167.13,0,0
36813.5,71.872,-3144.33,0,0
37073.8,71.6501,-3121.66,0,0
37334.1,71.4082,-3099.53,0,0
37594.4,71.04,-3077.92,0,0
37854.8,70.7332,-3056.12,0,0
38115.1,70.3076,-3035.77,0,0
38375.4,69.5374,-3014.59,0,0
38635.7,69.0857,-2994.06,0,0
38896.1,68.8874,-2973.28,0,0
39156.4,68.3947,-2953.38,0,0
39416.7,67.9379,-2933.49,0,0
39677,67.585,-2913.72,0,0
39937.4,67.1886,-2894.21,0,0
40197.7,67.0384,-2874.92,0,0
40458,66.6686,-2855.85,0,0
40718.3,66.3214,-2837.22,0,0
40978.7,66.3422,-2818.83,0,0
41239,66.1377,-2800.73,0,0
41499.3,66.0108,-2782.9,0,0
41759.6,65.6429,-2765.25,0,0
42020,65.4336,-2747.61,0,0
42280.275,65.4275,-2730.75,0,0
42540.6,64.7361,-2713.68,0,0
42800.925,64.7087,-2696.67,0,0
43061.25,64.2473,-2679.96,0,0
43321.575,64.0149,-2663.41,0,0
43581.9,63.9036,-2647.18,0,0
43842.225,63.5025,-2631.29,0,0
44102.55,63.3598,-2615.17,0,0
44362.875,63.1162,-2599.36,0,0
44623.2,62.6987,-2583.89,0,0
44883.525,62.4198,-2568.53,0,0
45143.85,62.3849,-2552.99,0,0
45404.175,62.4628,-2538.1,0,0
45664.5,61.8924,-2523.1,0,0
45924.825,62.0741,-2507.99,0,0
46185.15,62.4517,-2494.19,0,0
46445.475,61.6473,-2480.22,0,0
46705.8,61.1508,-2465.56,0,0
46966.125,61.109,-2451.43,0,0
47226.45,61.2125,-2437.16,0,0
47486.775,61.2596,-2423.88,0,0
47747.1,60.8923,-2409.99,0,0
48007.425,60.7617,-2396.38,0,0
48267.75,61.5773,-2382.82,0,0
48528.075,62.3541,-2370.87,0,0
48788.4,61.5623,-2358.77,0,0
49048.725,60.778,-2346.23,0,0
49309.05,59.8886,-2333.53,0,0
49569.375,59.417,-2320.73,0,0
49829.7,59.2666,-2308.13,0,0
50090.025,58.6365,-2295.79,0,0
50350.35,58.2321,-2283.28,0,0
50610.675,58.0284,-2270.86,0,0
50871.0,57.9745,-2258.81,0,0
51131.325,57.7682,-2247.21,0,0
51391.65,57.3874,-2235.4,0,0
51651.975,57.0994,-2223.99,0,0
51912.3,56.485,-2212.21,0,0
52172.625,56.1317,-2200.51,0,0
52432.95,55.7551,-2189.01,0,0
52693.275,55.5728,-2177.49,0,0
52953.6,55.3493,-2166.08,0,0
53213.925,55.1707,-2154.97,0,0
53474.25,55.0837,-2143.85,0,0
53734.575,54.7959,-2132.93,0,0
53994.9,54.5812,-2122,0,0
54255.225,54.6148,-2111.05,0,0
54515.55,54.6099,-2100.43,0,0
54775.875,54.4362,-2089.88,0,0
55036.2,54.3636,-2079.49,0,0
55296.525,54.2119,-2069.02,0,0
55556.85,54.3151,-2058.7,0,0
55817.175,54.1941,-2048.54,0,0
56077.5,54.2272,-2038.47,0,0
56337.825,54.1936,-2028.62,0,0
56598.15,54.1254,-2018.59,0,0
56858.475,54.1946,-2008.59,0,0
57118.8,54.2192,-1998.89,0,0
57379.125,54.257,-1989.25,0,0
57639.45,54.3045,-1979.72,0,0
57899.775,54.4344,-1970.37,0,0
58160.1,54.3651,-1961.08,0,0
58420.4,54.2241,-1951.67,0,0
58680.7,54.2778,-1942.29,0,0
58941.1,54.328,-1933.04,0,0
59201.4,54.6639,-1923.86,0,0
59461.7,55.0042,-1914.83,0,0
59722,55.231,-1905.87,0,0
59982.4,55.7819,-1896.96,0,0
60242.7,56.4334,-1888.54,0,0
60503,56.4686,-1880.61,0,0
60763.3,56.2922,-1872.06,0,0
61023.7,56.553,-1863.19,0,0
61284,57.6181,-1854.78,0,0
61544.3,58.5322,-1847.05,0,0
61804.6,59.4423,-1839.84,0,0
62065,59.2364,-1833.45,0,0
62325.3,58.3875,-1826.2,0,0
62585.6,57.9509,-1818.32,0,0
62845.9,58.0324,-1811.22,0,0
63106.3,56.6633,-1804.1,0,0
63366.6,56.0706,-1795.85,0,0
63626.9,55.7833,-1788.43,0,0
63887.2,55.2837,-1780.91,0,0
64147.6,54.7626,-1773.61,0,0
64407.9,53.8278,-1766.1,0,0
64668.2,53.2401,-1758.22,0,0
64928.5,52.5959,-1750.72,0,0
65188.9,51.5614,-1742.94,0,0
65449.2,51.1365,-1734.6,0,0
65709.5,51.035,-1726.57,0,0
65969.8,51.1591,-1718.9,0,0
66230.2,50.8712,-1711.23,0,0
66490.5,51.1152,-1703.53,0,0
66750.8,51.2097,-1696.31,0,0
67011.1,51.2297,-1688.72,0,0
67271.5,51.4505,-1680.96,0,0
67531.8,52.0656,-1673.7,0,0
67792.1,52.8178,-1666.64,0,0
68052.4,53.4439,-1660.27,0,0
68312.8,53.3185,-1653.64,0,0
68573.1,53.8805,-1646.72,0,0
68833.4,54.3142,-1640.29,0,0
69093.7,54.6611,-1633.92,0,0
69354.1,55.0955,-1627.58,0,0
69614.4,55.7797,-1621.46,0,0
69874.7,56.3894,-1615.98,0,0
70135,56.4168,-1610.95,0,0
70395.4,55.6927,-1605.85,0,0
70655.7,54.6296,-1600.16,0,0
70916,53.8078,-1593.91,0,0
71176.3,53.4738,-1588.03,0,0
71436.7,52.6701,-1582.45,0,0
71697,51.6574,-1576.59,0,0
71957.3,50.3804,-1570.54,0,0
72217.6,49.2301,-1564.26,0,0
72478,48.1783,-1557.52,0,0
72738.3,47.31,-1550.98,0,0
72998.6,46.7083,-1544.03,0,0
73258.9,46.5907,-1537.56,0,0
73519.3,45.867,-1531.19,0,0
73779.6,45.3342,-1524.44,0,0
74039.9,45.2386,-1517.59,0,0
74300.225,45.3051,-1511.02,0,0
74560.55,45.3334,-1504.64,0,0
74820.875,45.3267,-1498.32,0,0
75081.2,45.4644,-1491.84,0,0
75341.525,45.6549,-1485.61,0,0
75601.85,45.9063,-1479.41,0,0
75862.175,46.195,-1473.23,0,0
76122.5,46.6668,-1467.14,0,0
76382.825,47.0907,-1461.28,0,0
76643.15,47.5613,-1455.47,0,0
76903.475,47.9367,-1449.7,0,0
77163.8,48.4183,-1443.92,0,0
77424.125,49.0304,-1438.21,0,0
77684.45,49.7778,-1432.85,0,0
77944.775,50.4709,-1427.47,0,0
78205.1,51.2908,-1422.2,0,0
78465.425,52.098,-1417.4,0,0
78725.75,52.7225,-1412.69,0,0
78986.075,53.1667,-1408.25,0,0
79246.4,53.4698,-1403.71,0,0
79506.725,53.6907,-1399.31,0,0
79767.05,53.759,-1395.32,0,0
80027.375,53.1479,-1391.28,0,0
80287.7,52.3472,-1386.75,0,0
80548.025,51.558,-1382,0,0
80808.35,50.8467,-1376.95,0,0
81068.675,50.2718,-1371.83,0,0
81329.0,49.8238,-1366.72,0,0
81589.325,49.5212,-1361.62,0,0
81849.65,49.1232,-1356.57,0,0
82109.975,48.7451,-1351.42,0,0
82370.3,48.4251,-1346.23,0,0
82630.625,48.3105,-1341.01,0,0
82890.95,48.2057,-1335.75,0,0
83151.275,48.2107,-1330.54,0,0
83411.6,48.4191,-1325.52,0,0
83671.925,48.5801,-1320.55,0,0
83932.25,48.7306,-1315.74,0,0
84192.575,48.9556,-1310.9,0,0
84452.9,49.0594,-1306.26,0,0
84713.225,49.089,-1301.48,0,0
84973.55,49.1828,-1296.76,0,0
85233.875,49.2324,-1291.98,0,0
85494.2,49.4613,-1287.16,0,0
85754.525,49.8718,-1282.56,0,0
86014.85,50.134,-1278.27,0,0
86275.175,50.1786,-1273.76,0,0
86535.5,50.2612,-1269.41,0,0
86795.825,50.3754,-1264.82,0,0
87056.15,50.5607,-1260.46,0,0
87316.475,50.7905,-1256.17,0,0
87576.8,50.9018,-1252.01,0,0
87837.125,50.9012,-1247.76,0,0
88097.45,50.874,-1243.35,0,0
88357.775,51.0848,-1238.95,0,0
88618.1,51.1757,-1235.01,0,0
88878.425,50.7437,-1230.71,0,0
89138.75,51.0072,-1226,0,0
89399.075,51.3989,-1221.85,0,0
89659.4,51.3662,-1217.63,0,0
89919.725,51.7391,-1213.4,0,0
90180,51.9718,-1209.6,0,0
90440.4,51.6295,-1205.74,0,0
90700.7,51.1904,-1201.26,0,0
90961,51.4986,-1196.46,0,0
91221.3,52.1604,-1192.25,0,0
91481.7,52.4941,-1188.44,0,0
91742,52.5396,-1184.4,0,0
92002.3,52.744,-1180.07,0,0
92262.6,53.3096,-1175.85,0,0
92523,54.112,-1171.9,0,0
92783.3,54.6894,-1168.37,0,0
93043.6,55.1064,-1164.89,0,0
93303.9,55.314,-1161.32,0,0
93564.3,55.7539,-1157.69,0,0
93824.6,56.2408,-1154.48,0,0
94084.9,56.3002,-1151.43,0,0
94345.2,55.9619,-1148.45,0,0
94605.6,55.4294,-1144.89,0,0
94865.9,55.0871,-1141.24,0,0
95126.2,54.6505,-1137.67,0,0
95386.5,53.9207,-1133.79,0,0
95646.9,53.6376,-1129.1,0,0
95907.2,54.1557,-1124.6,0,0
96167.5,55.0693,-1120.56,0,0
96427.8,55.8263,-1117.19,0,0
96688.2,56.1772,-1113.85,0,0
96948.5,56.8099,-1110.31,0,0
97208.8,57.6909,-1107.24,0,0
97469.1,58.0718,-1104.87,0,0
97729.5,57.8185,-1102.16,0,0
97989.8,57.5176,-1099.17,0,0
98250.1,57.3859,-1096.02,0,0
98510.4,57.2828,-1093.15,0,0
98770.8,57.0557,-1090.21,0,0
99031.1,56.7797,-1087.49,0,0
99291.4,56.1094,-1084.86,0,0
99551.7,54.8523,-1081.95,0,0
99812.1,53.8108,-1078.21,0,0
100072,53.2338,-1074.39,0,0
100333,53.1306,-1070.74,0,0
100593,52.9336,-1067.81,0,0
100853,52.1021,-1064.89,0,0
101114,50.977,-1061.6,0,0
101374,49.7372,-1058.04,0,0
101634,48.4991,-1053.82,0,0
101895,47.9769,-1049.43,0,0
102155,47.5411,-1045.36,0,0
102415,47.136,-1041.26,0,0
102676,46.8525,-1037.25,0,0
102936,46.3545,-1033.14,0,0
103196,46.0322,-1028.81,0,0
103457,45.9244,-1024.39,0,0
103717,46.0539,-1019.94,0,0
103977,46.383,-1015.54,0,0
104238,46.9296,-1011.27,0,0
104498,47.6179,-1007.2,0,0
104758,48.4322,-1003.24,0,0
105019,49.2244,-999.485,0,0
105279,49.9992,-995.844,0,0
105539,50.8664,-992.232,0,0
105800,51.7394,-988.671,0,0
106060,52.824,-985.234,0,0
106320.175,53.9778,-982.118,0,0
106580.5,55.0486,-979.256,0,0
106840.825,55.9516,-976.552,0,0
107101.15,56.9859,-973.974,0,0
107361.475,57.8207,-971.854,0,0
107621.8,58.1562,-969.988,0,0
107882.125,58.0227,-967.777,0,0
108142.45,57.8921,-965.432,0,0
108402.775,57.7127,-963.059,0,0
108663.1,57.3722,-960.747,0,0
108923.425,56.8483,-958.363,0,0
109183.75,56.0221,-955.676,0,0
109444.075,55.4173,-952.671,0,0
109704.4,54.8059,-949.809,0,0
109964.725,54.0679,-946.806,0,0
110225.05,53.2052,-943.489,0,0
110485.375,52.6029,-939.943,0,0
110745.7,52.203,-936.428,0,0
111006.025,51.7675,-932.801,0,0
111266.35,51.4781,-929.284,0,0
111526.675,51.3878,-925.663,0,0
111787.0,51.4287,-921.95,0,0
112047.325,51.6351,-918.478,0,0
112307.65,51.5731,-915.178,0,0
112567.975,51.5506,-911.629,0,0
112828.3,51.6257,-908.092,0,0
113088.625,51.8129,-904.597,0,0
113348.95,52.0338,-901.088,0,0
113609.275,52.2951,-897.666,0,0
113869.6,52.5239,-894.274,0,0
114129.925,52.7741,-890.813,0,0
114390.25,53.1221,-887.326,0,0
114650.575,53.5544,-883.895,0,0
114910.9,54.0227,-880.484,0,0
115171.225,54.6431,-877.125,0,0
115431.55,55.2071,-873.983,0,0
115691.875,55.6659,-870.84,0,0
115952.2,56.127,-867.584,0,0
116212.525,56.6527,-864.304,0,0
116472.85,57.2741,-861.093,0,0
116733.175,57.9818,-857.906,0,0
116993.5,58.6664,-854.759,0,0
117253.825,59.398,-851.707,0,0
117514.15,60.2008,-848.654,0,0
117774.475,61.0732,-845.714,0,0
118034.8,61.906,-842.952,0,0
118295.125,62.5869,-840.171,0,0
118555.45,63.3467,-837.364,0,0
118815.775,64.2303,-834.518,0,0
119076.1,65.2033,-831.943,0,0
119336.425,65.9925,-829.515,0,0
119596.75,66.7858,-827.014,0,0
119857.075,67.6177,-824.687,0,0
120117.4,68.3341,-822.499,0,0
120377.725,68.962,-820.34,0,0
120638.05,69.5575,-818.391,0,0
120898.375,69.7567,-816.507,0,0
121158.7,69.7813,-814.384,0,0
121419.025,69.847,-812.104,0,0
121679.35,69.8755,-809.871,0,0
121939.675,69.7768,-807.522,0,0
122200.0,69.7019,-805.122,0,0
122460,69.5612,-802.6,0,0
122721,69.523,-799.954,0,0
122981,69.5348,-797.308,0,0
123241,69.624,-794.636,0,0
123502,69.7568,-792.052,0,0
123762,69.7462,-789.53,0,0
124022,69.714,-786.828,0,0
124283,69.7296,-784.129,0,0
124543,69.7729,-781.435,0,0
124803,69.7952,-778.744,0,0
125064,69.8238,-775.961,0,0
125324,69.7806,-773.206,0,0
125584,69.8014,-770.354,0,0
125845,69.8227,-767.469,0,0
126105,69.8782,-764.518,0,0
126365,69.9289,-761.521,0,0
126626,70.0189,-758.441,0,0
126886,70.2185,-755.254,0,0
127146,70.5728,-752.164,0,0
127406,71.0707,-748.889,0,0
127667,71.6869,-745.848,0,0
127927,72.3073,-742.886,0,0
128187,72.9046,-739.963,0,0
128448,73.5629,-737.012,0,0
128708,74.2842,-734.109,0,0
128968,75.0681,-731.282,0,0
129229,75.9165,-728.554,0,0
129489,76.631,-725.923,0,0
129749,77.3421,-723.258,0,0
130010,78.06,-720.6,0,0
130270,78.9322,-717.929,0,0
130530,79.8598,-715.371,0,0
130791,80.8276,-712.984,0,0
131051,81.7283,-710.834,0,0
131311,82.4088,-708.754,0,0
131572,82.9335,-706.646,0,0
131832,83.404,-704.508,0,0
132092,83.7795,-702.371,0,0
132353,84.0128,-700.25,0,0
132613,84.1904,-697.883,0,0
132873,84.4267,-695.475,0,0
133134,84.6669,-693.059,0,0
133394,84.935,-690.607,0,0
133654,85.1862,-688.192,0,0
133915,85.482,-685.74,0,0
134175,85.6729,-683.384,0,0
134435,85.7506,-680.964,0,0
134696,85.7548,-678.417,0,0
134956,85.7357,-675.748,0,0
135216,85.814,-672.96,0,0
135477,85.9198,-670.063,0,0
135737,86.133,-667.15,0,0
135997,86.459,-664.23,0,0
136258,86.8114,-661.3,0,0
136518,87.1997,-658.477,0,0
136778,87.4734,-655.652,0,0
137039,87.744,-652.652,0,0
137299,88.1622,-649.558,0,0
137559,88.7243,-646.556,0,0
137819,89.2693,-643.619,0,0
138080,89.807,-640.744,0,0
138340.125,90.238,-637.919,0,0
138600.45,90.5806,-634.943,0,0
138860.775,90.992,-631.853,0,0
139121.1,91.4381,-628.756,0,0
139381.425,91.9028,-625.622,0,0
139641.75,92.3766,-622.443,0,0
139902.075,92.7569,-619.137,0,0
140162.4,93.3033,-615.662,0,0
140422.725,93.9235,-612.184,0,0
140683.05,94.6069,-608.553,0,0
140943.375,95.4105,-604.798,0,0
141203.7,96.4777,-600.93,0,0
141464.025,97.8672,-597.152,0,0
141724.35,99.3329,-593.558,0,0
141984.675,100.864,-589.979,0,0
142245.0,102.618,-586.428,0,0
142505.325,104.558,-583.164,0,0
142765.65,106.38,-580.154,0,0
143025.975,108.006,-577.28,0,0
143286.3,109.433,-574.298,0,0
143546.625,110.881,-571.053,0,0
143806.95,112.551,-567.761,0,0
144067.275,114.369,-564.587,0,0
144327.6,116.178,-561.5,0,0
144587.925,117.922,-558.429,0,0
144848.25,119.682,-555.221,0,0
145108.575,121.623,-552.022,0,0
145368.9,123.643,-548.84,0,0
145629.225,125.762,-545.743,0,0
145889.55,127.826,-542.769,0,0
146149.875,129.818,-539.738,0,0
146410.2,131.821,-536.567,0,0
146670.525,133.931,-533.279,0,0
146930.85,136.194,-529.912,0,0
147191.175,138.646,-526.509,0,0
147451.5,141.269,-523.096,0,0
147711.825,144.08,-519.73,0,0
147972.15,147.023,-516.45,0,0
148232.475,150.019,-513.072,0,0
148492.8,153.254,-509.607,0,0
148753.125,156.827,-506.093,0,0
149013.45,160.864,-502.61,0,0
149273.775,165.392,-499.434,0,0
149534.1,170.161,-496.67,0,0
149794.425,175.172,-494.206,0,0
150054.75,180.332,-492.182,0,0
150315.075,185.629,-490.426,0,0
150575.4,191.312,-489.105,0,0
150835.725,196.982,-488.61,0,0
151096.05,202.384,-488.53,0,0
151356.375,207.774,-488.814,0,0
151616.7,213.083,-489.711,0,0
151877.025,218.035,-491.224,0,0
152137.35,222.443,-493.2,0,0
152397.675,226.225,-495.323,0,0
152658.0,229.621,-497.454,0,0
152918.325,232.746,-499.593,0,0
153178.65,235.72,-501.844,0,0
153438.975,238.391,-504.506,0,0
153699.3,240.363,-507.36,0,0
153959.625,241.743,-510.038,0,0
154219.95,242.646,-512.483,0,0
154480,243.156,-514.47,0,0
154741,243.652,-516.158,0,0
155001,244.019,-517.628,0,0
155261,244.553,-518.87,0,0
155522,245.138,-520.145,0,0
155782,245.597,-521.576,0,0
156042,245.743,-523.083,0,0
156303,245.734,-524.339,0,0
156563,245.581,-525.621,0,0
156823,245.069,-526.942,0,0
157084,244.133,-527.936,0,0
157344,243.065,-528.218,0,0
157604,242.291,-528.098,0,0
157864,241.832,-527.902,0,0
158125,241.574,-527.829,0,0
158385,241.182,-527.776,0,0
158645,240.819,-527.672,0,0
158906,240.625,-527.792,0,0
159166,239.937,-527.831,0,0
159426,238.816,-527.75,0,0
159687,237.778,-526.912,0,0
159947,236.96,-525.765,0,0
160207,236.681,-524.555,0,0
160468,236.548,-523.583,0,0
160728,236.13,-522.574,0,0
160988,235.813,-521.04,0,0
161249,236.149,-519.355,0,0
161509,236.935,-517.798,0,0
161769,238.203,-516.445,0,0
162030,240.208,-515.457,0,0
162290,242.476,-516.019,0,0
162550,244.007,-517.607,0,0
162811,244.532,-519.624,0,0
163071,244.041,-521.916,0,0
163331,242.399,-523.808,0,0
163592,240.251,-524.723,0,0
163852,238.184,-525.291,0,0
164112,235.993,-525.738,0,0
164373,233.427,-525.857,0,0
164633,230.653,-525.59,0,0
164893,227.843,-525.051,0,0
165154,224.655,-524.184,0,0
165414,221.234,-522.694,0,0
165674,217.808,-520.336,0,0
165935,214.895,-517.475,0,0
166195,212.549,-514.334,0,0
166455,210.409,-511.307,0,0
166716,208.263,-508.183,0,0
166976,206.234,-504.584,0,0
167236,204.695,-501.014,0,0
167497,203.165,-497.335,0,0
167757,201.763,-493.53,0,0
168017,200.474,-489.517,0,0
168277,199.31,-485.258,0,0
168538,198.707,-480.786,0,0
168798,198.382,-476.475,0,0
169058,198.224,-472.312,0,0
169319,197.893,-468.227,0,0
169579,197.65,-463.783,0,0
169839,197.82,-459.215,0,0
170100,198.213,-454.647,0,0
170360.075,199.089,-450.322,0,0
170620.4,199.765,-446.248,0,0
170880.725,200.217,-442.13,0,0
171141.05,200.727,-437.67,0,0
171401.375,201.681,-432.933,0,0
171661.7,202.858,-428.375,0,0
171922.025,204.207,-423.92,0,0
172182.35,205.666,-419.531,0,0
172442.675,206.984,-414.993,0,0
172703.0,208.742,-410.225,0,0
172963.325,210.944,-405.815,0,0
173223.65,213.063,-401.722,0,0
173483.975,214.906,-397.66,0,0
173744.3,216.792,-393.303,0,0
174004.625,218.86,-388.737,0,0
174264.95,221.152,-384.09,0,0
174525.275,223.711,-379.271,0,0
174785.6,226.683,-374.544,0,0
175045.925,230.073,-369.994,0,0
175306.25,233.513,-365.615,0,0
175566.575,237.207,-361.25,0,0
175826.9,241.196,-357.06,0,0
176087.225,245.305,-353.178,0,0
176347.55,249.585,-349.422,0,0
176607.875,254.085,-345.926,0,0
176868.2,258.638,-342.663,0,0
177128.525,263.394,-339.438,0,0
177388.85,268.508,-336.665,0,0
177649.175,273.569,-334.544,0,0
177909.5,278.36,-332.693,0,0
178169.825,283.106,-331.026,0,0
178430.15,287.644,-329.579,0,0
178690.475,292.262,-328.317,0,0
178950.8,296.773,-327.525,0,0
179211.125,301.017,-327.07,0,0
179471.45,305.023,-327.22,0,0
179731.775,308.015,-327.705,0,0
179992.1,310.002,-327.927,0,0
180252.425,311.251,-327.461,0,0
180512.75,312.248,-326.023,0,0
180773.075,315.315,-324.367,0,0
181033.4,316.392,-322.584,0,0
181293.725,317.419,-320.335,0,0
181554.05,318.433,-317.176,0,0
181814.375,320.161,-313.241,0,0
182074.7,322.881,-309.146,0,0
182335.025,326.24,-305.696,0,0
182595.35,329.414,-302.752,0,0
182855.675,331.844,-299.808,0,0
183116.0,334.118,-295.999,0,0
183376.325,336.88,-291.588,0,0
183636.65,340.227,-286.784,0,0
183896.975,344.288,-281.89,0,0
184157.3,348.772,-277.084,0,0
184417.625,353.581,-272.254,0,0
184677.95,359.155,-267.436,0,0
184938.275,365.23,-262.952,0,0
185198.6,371.713,-258.874,0,0
185458.925,378.402,-255.305,0,0
185719.25,385.305,-252.133,0,0
185979.575,392.287,-249.448,0,0
186239.9,399.119,-247.102,0,0
186500,405.598,-245.115,0,0
186761,411.485,-242.985,0,0
187021,417.361,-239.827,0,0
187281,424.307,-236.164,0,0
187542,432.243,-233.233,0,0
187802,440.35,-231.122,0,0
188062,448.254,-229.428,0,0
188322,456.125,-227.94,0,0
188583,464.045,-226.652,0,0
188843,471.857,-225.813,0,0
189103,479.113,-225.253,0,0
189364,485.898,-224.154,0,0
189624,492.931,-222.403,0,0
189884,500.329,-220.225,0,0
190145,508.367,-218.1,0,0
190405,516.76,-215.981,0,0
190665,525.471,-213.877,0,0
190926,534.622,-211.583,0,0
191186,544.594,-209.176,0,0
191446,555.655,-207.037,0,0
191707,567.202,-205.918,0,0
191967,578.705,-205.169,0,0
192227,590.726,-204.379,0,0
192488,603.637,-203.999,0,0
192748,617.195,-204.425,0,0
193008,631.218,-205.525,0,0
193269,645.752,-207.234,0,0
193529,661.17,-210.297,0,0
193789,676.654,-214.813,0,0
194050,691.973,-220.609,0,0
194310,706.968,-227.712,0,0
194570,721.237,-235.814,0,0
194831,734.87,-244.519,0,0
195091,748.18,-253.922,0,0
195351,761.101,-264.305,0,0
195612,772.918,-275.47,0,0
195872,783.739,-286.878,0,0
196132,793.794,-298.187,0,0
196393,803.54,-309.282,0,0
196653,813.267,-320.443,0,0
196913,822.991,-331.901,0,0
197174,832.512,-343.62,0,0
197434,842.229,-355.642,0,0
197694,852.323,-368.395,0,0
197955,862.466,-382.473,0,0
198215,871.812,-398.01,0,0
198475,880.082,-414.639,0,0
198735,886.793,-431.777,0,0
198996,892.368,-448.938,0,0
199256,897.111,-466.502,0,0
199516,900.695,-483.96,0,0
199777,903.55,-501.067,0,0
200037,905.767,-518.389,0,0
200297,907.685,-535.513,0,0
200558,909.014,-553.29,0,0
200818,909.284,-571.345,0,0
201078,908.558,-589.856,0,0
201339,906.308,-608.465,0,0
201599,902.482,-626.363,0,0
201859,897.825,-643.371,0,0
202120,892.805,-659.682,0,0
202380.025,887.06,-675.608,0,0
202640.35,880.82,-690.975,0,0
202900.675,874.123,-706.187,0,0
203161.0,866.749,-720.902,0,0
203421.325,858.402,-735.126,0,0
203681.65,849.261,-748.35,0,0
203941.975,840.117,-760.259,0,0
204202.3,831.516,-771.652,0,0
204462.625,823.059,-782.947,0,0
204722.95,814.514,-794.199,0,0
204983.275,805.411,-805.906,0,0
205243.6,795.047,-817.798,0,0
205503.925,783.285,-828.612,0,0
205764.25,770.963,-837.968,0,0
206024.575,758.663,-845.896,0,0
206284.9,746.614,-852.995,0,0
206545.225,734.751,-859.582,0,0
206805.55,722.531,-865.328,0,0
207065.875,710.606,-870.075,0,0
207326.2,699.246,-874.048,0,0
207586.525,688.074,-877.496,0,0
207846.85,677.248,-880.269,0,0
208107.175,666.964,-882.2,0,0
208367.5,657.809,-883.744,0,0
208627.825,649.46,-885.264,0,0
208888.15,641.961,-887.21,0,0
209148.475,634.916,-889.735,0,0
209408.8,627.903,-892.946,0,0
209669.125,620.663,-896.984,0,0
209929.45,612.501,-901.56,0,0
210189.775,603.189,-905.524,0,0
210450.1,593.773,-908.774,0,0
210710.425,584.161,-911.732,0,0
210970.75,574.321,-914.535,0,0
211231.075,564.031,-916.866,0,0
211491.4,553.504,-918.57,0,0
211751.725,542.609,-919.378,0,0
212012.05,531.849,-919.2,0,0
212272.375,521.686,-918.092,0,0
212532.7,512.333,-916.622,0,0
212793.025,503.387,-915.197,0,0
213053.35,494.476,-913.628,0,0
213313.675,485.745,-911.647,0,0
213574.0,477.33,-909.281,0,0
213834.325,469.275,-906.597,0,0
214094.65,461.697,-903.665,0,0
214354.975,454.608,-900.573,0,0
214615.3,447.759,-897.542,0,0
214875.625,441.229,-894.388,0,0
215135.95,434.943,-891.203,0,0
215396.275,428.795,-888.074,0,0
215656.6,422.806,-884.661,0,0
215916.925,417.121,-880.981,0,0
216177.25,411.886,-877.258,0,0
216437.575,406.863,-873.622,0,0
216697.9,402.162,-869.829,0,0
216958.225,397.758,-865.927,0,0
217218.55,393.681,-862.232,0,0
217478.875,389.913,-858.487,0,0
217739.2,386.404,-854.88,0,0
217999.525,383.045,-851.425,0,0
218259.85,379.821,-847.978,0,0
218520,376.745,-844.572,0,0
218780,373.901,-841.043,0,0
219041,371.318,-837.672,0,0
219301,368.974,-834.322,0,0
219561,366.834,-831.175,0,0
219822,364.874,-828.235,0,0
220082,363.11,-825.418,0,0
220342,361.324,-822.776,0,0
220603,359.443,-820.138,0,0
220863,357.656,-817.435,0,0
221123,356.041,-814.727,0,0
221384,354.735,-812.176,0,0
221644,353.576,-809.749,0,0
221904,352.516,-807.363,0,0
222165,351.705,-805.112,0,0
222425,351.009,-803.15,0,0
222685,350.429,-801.502,0,0
222946,349.778,-800.036,0,0
223206,349.06,-798.83,0,0
223466,348.123,-797.786,0,0
223727,347.09,-796.774,0,0
223987,345.864,-795.671,0,0
224247,344.71,-794.467,0,0
224508,343.601,-793.366,0,0
224768,342.494,-792.271,0,0
225028,341.343,-791.133,0,0
225289,340.102,-790.005,0,0
225549,339.005,-788.549,0,0
225809,338.116,-787.106,0,0
226070,337.517,-785.741,0,0
226330,337.015,-784.535,0,0
226590,336.607,-783.418,0,0
226851,336.367,-782.333,0,0
227111,336.298,-781.538,0,0
227371,336.263,-780.853,0,0
227632,336.353,-780.299,0,0
227892,336.556,-780.007,0,0
228152,336.882,-780.033,0,0
228413,337.18,-780.427,0,0
228673,337.343,-781.123,0,0
228933,337.233,-782.172,0,0
229193,336.93,-783.373,0,0
229454,336.411,-784.754,0,0
229714,335.492,-786.317,0,0
229974,334.567,-787.836,0,0
230235,333.063,-789.381,0,0
230495,331.438,-790.987,0,0
230755,329.571,-792.384,0,0
231016,327.439,-793.797,0,0
231276,325.166,-794.854,0,0
231536,322.982,-795.787,0,0
231797,320.832,-796.746,0,0
232057,318.602,-797.771,0,0
232317,316.188,-798.876,0,0
232578,313.537,-799.817,0,0
232838,310.797,-800.641,0,0
233098,308.022,-801.317,0,0
233359,305.201,-801.946,0,0
233619,302.234,-802.416,0,0
233879,299.274,-802.88,0,0
234140,296.196,-803.11,0,0
234400,293.193,-803.225,0,0
234660.3,290.123,-803.223,0,0
234920.625,287.188,-803.169,0,0
235180.95,284.3,-803.06,0,0
235441.275,281.366,-802.889,0,0
235701.6,278.426,-802.79,0,0
235961.925,275.477,-802.619,0,0
236222.25,272.468,-802.399,0,0
236482.575,269.452,-802.136,0,0
236742.9,266.354,-801.899,0,0
237003.225,263.187,-801.538,0,0
237263.55,259.875,-801.073,0,0
237523.875,256.546,-800.458,0,0
237784.2,253.191,-799.656,0,0
238044.525,249.915,-798.604,0,0
238304.85,246.736,-797.521,0,0
238565.175,243.612,-796.38,0,0
238825.5,240.576,-795.151,0,0
239085.825,237.541,-793.823,0,0
239346.15,234.531,-792.432,0,0
239606.475,231.599,-791.01,0,0
239866.8,228.764,-789.478,0,0
240127.125,225.918,-787.948,0,0
240387.45,223.205,-786.203,0,0
240647.775,220.566,-784.478,0,0
240908.1,217.9,-782.675,0,0
241168.425,215.385,-780.84,0,0
241428.75,212.917,-778.996,0,0
241689.075,210.537,-777.081,0,0
241949.4,208.227,-775.067,0,0
242209.725,206.029,-772.989,0,0
242470.05,204.039,-770.843,0,0
242730.375,202.195,-768.725,0,0
242990.7,200.504,-766.723,0,0
243251.025,198.896,-764.763,0,0
243511.35,197.417,-762.899,0,0
243771.675,196.003,-761.122,0,0
244032.0,194.693,-759.48,0,0
244292.325,193.404,-757.915,0,0
244552.65,192.175,-756.554,0,0
244812.975,190.821,-755.31,0,0
245073.3,189.571,-754.161,0,0
245333.625,188.258,-753.175,0,0
245593.95,186.849,-752.295,0,0
245854.275,185.401,-751.568,0,0
246114.6,183.687,-751.077,0,0
246374.925,181.762,-750.697,0,0
246635.25,179.429,-750.325,0,0
246895.575,176.707,-749.762,0,0
247155.9,173.774,-748.889,0,0
247416.225,170.833,-747.745,0,0
247676.55,167.813,-746.349,0,0
247936.875,164.79,-744.688,0,0
248197.2,161.892,-742.852,0,0
248457.525,159.046,-740.855,0,0
248717.85,156.33,-738.801,0,0
248978.175,153.517,-736.639,0,0
249238.5,150.751,-734.343,0,0
249498.825,147.958,-731.926,0,0
249759.15,145.316,-729.315,0,0
250019.475,142.777,-726.558,0,0
250279.8,140.235,-723.613,0,0
250540,137.816,-720.614,0,0
250800,135.543,-717.457,0,0
251061,133.44,-714.166,0,0
251321,131.467,-710.711,0,0
251581,129.706,-707.212,0,0
251842,128.157,-703.634,0,0
252102,126.795,-700.105,0,0
252362,125.543,-696.548,0,0
252623,124.555,-693.042,0,0
252883,123.719,-689.586,0,0
253143,122.993,-686.268,0,0
253404,122.268,-682.978,0,0
253664,121.638,-679.714,0,0
253924,121.047,-676.489,0,0
254185,120.566,-673.284,0,0
254445,120.095,-670.125,0,0
254705,119.71,-666.94,0,0
254966,119.368,-663.776,0,0
255226,119.084,-660.506,0,0
255486,118.896,-657.25,0,0
255747,118.805,-654.011,0,0
256007,118.88,-650.741,0,0
256267,119.077,-647.487,0,0
256528,119.411,-644.267,0,0
256788,119.846,-641.087,0,0
257048,120.451,-638.011,0,0
257309,121.162,-635.069,0,0
257569,121.907,-632.222,0,0
257829,122.689,-629.466,0,0
258090,123.468,-626.747,0,0
258350,124.333,-624.043,0,0
258610,125.253,-621.408,0,0
258871,126.241,-618.777,0,0
259131,127.256,-616.217,0,0
259391,128.429,-613.689,0,0
259651,129.68,-611.195,0,0
259912,131.009,-608.853,0,0
260172,132.439,-606.571,0,0
260432,133.92,-604.413,0,0
260693,135.434,-602.344,0,0
260953,136.985,-600.39,0,0
261213,138.588,-598.499,0,0
261474,140.21,-596.719,0,0
261734,141.903,-595.005,0,0
261994,143.625,-593.449,0,0
262255,145.406,-591.999,0,0
262515,147.158,-590.661,0,0
262775,148.882,-589.434,0,0
263036,150.604,-588.32,0,0
263296,152.296,-587.317,0,0
263556,153.964,-586.378,0,0
263817,155.63,-585.541,0,0
264077,157.241,-584.761,0,0
264337,158.848,-584.042,0,0
264598,160.448,-583.372,0,0
264858,161.958,-582.805,0,0
265118,163.515,-582.346,0,0
265379,165.084,-581.982,0,0
265639,166.525,-581.702,0,0
265899,167.909,-581.484,0,0
266160,169.226,-581.188,0,0
266420,170.562,-581.005,0,0
266680.25,171.865,-580.847,0,0
266940.575,173.153,-580.759,0,0
267200.9,174.432,-580.702,0,0
267461.225,175.704,-580.759,0,0
267721.55,176.947,-580.9,0,0
267981.875,178.1,-581.163,0,0
268242.2,179.206,-581.49,0,0
268502.525,180.175,-581.89,0,0
268762.85,181.058,-582.359,0,0
269023.175,181.799,-582.906,0,0
269283.5,182.377,-583.424,0,0
269543.825,182.75,-583.941,0,0
269804.15,183.025,-584.358,0,0
270064.475,183.134,-584.682,0,0
270324.8,183.277,-584.834,0,0
270585.125,183.379,-584.89,0,0
270845.45,183.49,-584.825,0,0
271105.775,183.645,-584.67,0,0
271366.1,183.822,-584.453,0,0
271626.425,184.054,-584.193,0,0
271886.75,184.284,-583.85,0,0
272147.075,184.564,-583.416,0,0
272407.4,184.994,-582.839,0,0
272667.725,185.495,-582.253,0,0
272928.05,186.175,-581.636,0,0
273188.375,186.959,-581.009,0,0
273448.7,187.95,-580.355,0,0
273709.025,189.117,-579.75,0,0
273969.35,190.447,-579.202,0,0
274229.675,192.023,-578.68,0,0
274490.0,193.871,-578.354,0,0
274750.325,195.971,-578.314,0,0
275010.65,198.273,-578.583,0,0
275270.975,200.554,-579.226,0,0
275531.3,202.959,-580.216,0,0
275791.625,205.375,-581.696,0,0
276051.95,207.586,-583.591,0,0
276312.275,209.589,-585.954,0,0
276572.6,211.232,-588.667,0,0
276832.925,212.474,-591.654,0,0
277093.25,213.226,-594.797,0,0
277353.575,213.526,-597.965,0,0
277613.9,213.438,-601.056,0,0
277874.225,213.089,-604.09,0,0
278134.55,212.465,-607.017,0,0
278394.875,211.623,-609.852,0,0
278655.2,210.527,-612.68,0,0
278915.525,209.127,-615.371,0,0
279175.85,207.492,-617.922,0,0
279436.175,205.684,-620.309,0,0
279696.5,203.674,-622.502,0,0
279956.825,201.464,-624.553,0,0
280217.15,199.082,-626.343,0,0
280477.475,196.629,-627.895,0,0
280737.8,194.191,-629.17,0,0
280998.125,191.837,-630.29,0,0
281258.45,189.497,-631.4,0,0
281518.775,187.158,-632.452,0,0
281779.1,184.684,-633.524,0,0
282039.425,182.057,-634.52,0,0
282299.75,179.237,-635.389,0,0
282560,176.227,-636.033,0,0
282820,173.053,-636.406,0,0
283081,169.857,-636.414,0,0
283341,166.683,-636.032,0,0
283601,163.707,-635.289,0,0
283862,161.048,-634.337,0,0
284122,158.779,-633.321,0,0
284382,156.756,-632.468,0,0
284643,154.887,-631.82,0,0
284903,152.836,-631.421,0,0
285163,150.609,-631.137,0,0
285424,148.095,-630.769,0,0
285684,145.355,-630.255,0,0
285944,142.447,-629.469,0,0
286205,139.431,-628.405,0,0
286465,136.322,-627.011,0,0
286725,133.214,-625.219,0,0
286986,130.256,-623.044,0,0
287246,127.484,-620.539,0,0
287506,124.964,-617.741,0,0
287767,122.711,-614.715,0,0
288027,120.741,-611.505,0,0
288287,119.027,-608.14,0,0
288548,117.592,-604.563,0,0
288808,116.529,-600.767,0,0
289068,115.943,-596.869,0,0
289329,115.809,-592.981,0,0
289589,116.116,-589.189,0,0
289849,116.849,-585.523,0,0
290109,117.943,-582.094,0,0
290370,119.295,-578.823,0,0
290630,120.981,-575.735,0,0
290890,123.004,-572.891,0,0
291151,125.405,-570.328,0,0
291411,128.096,-568.205,0,0
291671,131.041,-566.55,0,0
291932,134.091,-565.436,0,0
292192,137.174,-564.847,0,0
292452,140.232,-564.826,0,0
292713,143.09,-565.407,0,0
292973,145.588,-566.526,0,0
293233,147.572,-568.01,0,0
293494,148.992,-569.684,0,0
293754,149.895,-571.4,0,0
294014,150.347,-573.006,0,0
294275,150.405,-574.433,0,0
294535,150.133,-575.541,0,0
294795,149.701,-576.267,0,0
295056,149.317,-576.615,0,0
295316,149.077,-576.641,0,0
295576,149.165,-576.399,0,0
295837,149.695,-576.137,0,0
296097,150.679,-576.016,0,0
296357,152.124,-576.319,0,0
296618,153.728,-577.303,0,0
296878,155.18,-579.008,0,0
297138,156.159,-581.316,0,0
297399,156.494,-583.949,0,0
297659,156.155,-586.656,0,0
297919,155.233,-589.234,0,0
298180,153.816,-591.563,0,0
298440,152.087,-593.53,0,0
298700.2,150.112,-595.127,0,0
298960.525,148.055,-596.441,0,0
299220.85,145.973,-597.458,0,0
299481.175,143.85,-598.25,0,0
299741.5,141.72,-598.856,0,0
300001.825,139.573,-599.239,0,0
300262.15,137.422,-599.446,0,0
300522.475,135.308,-599.42,0,0
300782.8,133.253,-599.198,0,0
301043.125,131.3,-598.733,0,0
301303.45,129.544,-598.1,0,0
301563.775,128.026,-597.374,0,0
301824.1,126.743,-596.64,0,0
302084.425,125.64,-595.973,0,0
302344.75,124.69,-595.421,0,0
302605.075,123.822,-595.001,0,0
302865.4,122.951,-594.715,0,0
303125.725,122.079,-594.544,0,0
303386.05,121.142,-594.471,0,0
303646.375,120.14,-594.437,0,0
303906.7,119.052,-594.446,0,0
304167.025,117.89,-594.442,0,0
304427.35,116.688,-594.479,0,0
304687.675,115.407,-594.514,0,0
304948.0,114.02,-594.569,0,0
305208.325,112.532,-594.573,0,0
305468.65,110.933,-594.514,0,0
305728.975,109.225,-594.34,0,0
305989.3,107.501,-594.081,0,0
306249.625,105.74,-593.682,0,0
306509.95,103.978,-593.167,0,0
306770.275,102.211,-592.552,0,0
307030.6,100.483,-591.838,0,0
307290.925,98.7952,-591.01,0,0
307551.25,97.1732,-590.111,0,0
307811.575,95.6004,-589.162,0,0
308071.9,94.1212,-588.151,0,0
308332.225,92.697,-587.129,0,0
308592.55,91.3042,-586.091,0,0
308852.875,89.9462,-585.043,0,0
309113.2,88.6404,-583.943,0,0
309373.525,87.3673,-582.831,0,0
309633.85,86.1547,-581.704,0,0
309894.175,84.9702,-580.634,0,0
310154.5,83.8134,-579.524,0,0
310414.825,82.6216,-578.398,0,0
310675.15,81.4614,-577.269,0,0
310935.475,80.3099,-576.073,0,0
311195.8,79.1861,-574.854,0,0
311456.125,78.1115,-573.618,0,0
311716.45,77.0787,-572.347,0,0
311976.775,76.0735,-571.076,0,0
312237.1,75.1005,-569.807,0,0
312497.425,74.164,-568.504,0,0
312757.75,73.2598,-567.206,0,0
313018.075,72.4177,-565.876,0,0
313278.4,71.6063,-564.586,0,0
313538.725,70.8173,-563.282,0,0
313799.05,70.0357,-562.016,0,0
314059.375,69.2687,-560.724,0,0
314319.7,68.5272,-559.438,0,0
314580,67.7943,-558.15,0,0
314840,67.0609,-556.81,0,0
315101,66.3525,-555.574,0,0
315361,65.7551,-554.218,0,0
315621,65.123,-552.845,0,0
315882,64.4932,-551.585,0,0
316142,63.8028,-550.313,0,0
316402,63.2491,-548.919,0,0
316663,62.7244,-547.543,0,0
316923,62.1177,-546.201,0,0
317183,61.6182,-544.826,0,0
317444,61.1849,-543.473,0,0
317704,60.7771,-542.119,0,0
317964,60.3455,-540.766,0,0
318225,59.9779,-539.371,0,0
318485,59.6361,-538.057,0,0
318745,59.339,-536.796,0,0
319006,59.0272,-535.534,0,0
319266,58.7138,-534.206,0,0
319526,58.448,-532.971,0,0
319787,58.1492,-531.753,0,0
320047,57.8756,-530.515,0,0
320307,57.6013,-529.28,0,0
320567,57.3205,-528.009,0,0
320828,57.0658,-526.745,0,0
321088,56.7931,-525.455,0,0
321348,56.5401,-524.211,0,0
321609,56.2958,-522.935,0,0
321869,56.1126,-521.592,0,0
322129,55.9197,-520.327,0,0
322390,55.7873,-519.057,0,0
322650,55.671,-517.761,0,0
322910,55.5681,-516.429,0,0
323171,55.4079,-515.099,0,0
323431,55.3464,-513.809,0,0
323691,55.292,-512.493,0,0
323952,55.3096,-511.161,0,0
324212,55.3093,-509.784,0,0
324472,55.3672,-508.362,0,0
324733,55.4131,-507.016,0,0
324993,55.6435,-505.585,0,0
325253,55.8834,-504.125,0,0
325514,56.2697,-502.763,0,0
325774,56.7122,-501.385,0,0
326034,57.2372,-500.1,0,0
326295,57.8328,-498.925,0,0
326555,58.4911,-497.742,0,0
326815,59.2061,-496.744,0,0
327076,59.9564,-495.787,0,0
327336,60.7005,-495.051,0,0
327596,61.3322,-494.346,0,0
327857,61.9927,-493.727,0,0
328117,62.518,-493.163,0,0
328377,63.0648,-492.633,0,0
328638,63.5419,-492.107,0,0
328898,64.0292,-491.606,0,0
329158,64.4804,-491.088,0,0
329419,64.9497,-490.682,0,0
329679,65.4109,-490.217,0,0
329939,65.8187,-489.833,0,0
330200,66.3081,-489.535,0,0
330460,66.7776,-489.201,0,0
330720.15,67.1981,-489.04,0,0
330980.475,67.5437,-488.903,0,0
331240.8,67.8849,-488.836,0,0
331501.125,68.1648,-488.799,0,0
331761.45,68.3463,-488.792,0,0
332021.775,68.4767,-488.851,0,0
332282.1,68.5069,-488.97,0,0
332542.425,68.4355,-489.036,0,0
332802.75,68.2335,-489.167,0,0
333063.075,67.9445,-489.233,0,0
333323.4,67.5877,-489.194,0,0
333583.725,67.1286,-489.145,0,0
333844.05,66.6718,-489.07,0,0
334104.375,66.116,-488.856,0,0
334364.7,65.5551,-488.571,0,0
334625.025,64.9742,-488.223,0,0
334885.35,64.4477,-487.792,0,0
335145.675,63.9492,-487.342,0,0
335406.0,63.396,-486.829,0,0
335666.325,62.9194,-486.267,0,0
335926.65,62.4421,-485.734,0,0
336186.975,61.9955,-485.05,0,0
336447.3,61.4944,-484.442,0,0
336707.625,61.057,-483.792,0,0
336967.95,60.6935,-483.111,0,0
337228.275,60.2435,-482.452,0,0
337488.6,59.8772,-481.724,0,0
337748.925,59.5615,-480.948,0,0
338009.25,59.1776,-480.225,0,0
338269.575,58.8558,-479.51,0,0
338529.9,58.5667,-478.789,0,0
338790.225,58.2753,-478.062,0,0
339050.55,57.9963,-477.303,0,0
339310.875,57.6904,-476.572,0,0
339571.2,57.3886,-475.873,0,0
339831.525,57.1146,-475.099,0,0
340091.85,56.8268,-474.355,0,0
340352.175,56.5129,-473.557,0,0
340612.5,56.2778,-472.731,0,0
340872.825,55.9366,-471.94,0,0
341133.15,55.714,-471.144,0,0
341393.475,55.4904,-470.284,0,0
341653.8,55.2321,-469.427,0,0
341914.125,55.0731,-468.611,0,0
342174.45,54.828,-467.743,0,0
342434.775,54.6885,-466.906,0,0
342695.1,54.4884,-466.035,0,0
342955.425,54.2683,-465.092,0,0
343215.75,54.1388,-464.18,0,0
343476.075,54.0327,-463.266,0,0
343736.4,53.8482,-462.311,0,0
343996.725,53.834,-461.413,0,0
344257.05,53.7593,-460.38,0,0
344517.375,53.7865,-459.463,0,0
344777.7,53.7665,-458.47,0,0
345038.025,53.8511,-457.556,0,0
345298.35,53.8817,-456.629,0,0
345558.675,53.9935,-455.698,0,0
345819.0,54.1089,-454.773,0,0
346079.325,54.2052,-453.86,0,0
346339.65,54.3543,-453.025,0,0
346599.975,54.5178,-452.134,0,0
346860,54.7401,-451.259,0,0
347121,54.8732,-450.421,0,0
347381,55.0789,-449.557,0,0
347641,55.3174,-448.717,0,0
347902,55.5485,-447.912,0,0
348162,55.8471,-447.125,0,0
348422,56.0867,-446.333,0,0
348683,56.3582,-445.552,0,0
348943,56.7321,-444.786,0,0
349203,57.0702,-444.072,0,0
349464,57.3401,-443.387,0,0
349724,57.6977,-442.692,0,0
349984,58.048,-442.001,0,0
350245,58.4191,-441.403,0,0
350505,58.7566,-440.818,0,0
350765,59.0779,-440.212,0,0
351025,59.4495,-439.691,0,0
351286,59.794,-439.13,0,0
351546,60.1601,-438.637,0,0
351806,60.455,-438.172,0,0
352067,60.7907,-437.685,0,0
352327,61.0418,-437.218,0,0
352587,61.2921,-436.809,0,0
352848,61.5102,-436.388,0,0
353108,61.7395,-435.914,0,0
353368,61.9235,-435.394,0,0
353629,62.1442,-434.935,0,0
353889,62.3561,-434.393,0,0
354149,62.5786,-433.861,0,0
354410,62.8347,-433.39,0,0
354670,63.0881,-432.852,0,0
354930,63.3862,-432.347,0,0
355191,63.6622,-431.849,0,0
355451,63.9586,-431.349,0,0
355711,64.2501,-430.873,0,0
355972,64.6024,-430.441,0,0
356232,64.906,-429.981,0,0
356492,65.2076,-429.479,0,0
356753,65.5853,-429.071,0,0
357013,65.9335,-428.626,0,0
357273,66.2822,-428.234,0,0
357534,66.6958,-427.835,0,0
357794,67.1042,-427.457,0,0
358054,67.5108,-427.15,0,0
358315,67.9707,-426.845,0,0
358575,68.381,-426.64,0,0
358835,68.7631,-426.381,0,0
359096,69.1853,-426.172,0,0
359356,69.5279,-426.037,0,0
359616,69.9199,-425.89,0,0
359877,70.2618,-425.765,0,0
360137,70.5587,-425.681,0,0
360397,70.8955,-425.624,0,0
360658,71.176,-425.556,0,0
360918,71.4474,-425.588,0,0
361178,71.6839,-425.559,0,0
361438,71.8652,-425.584,0,0
361699,72.0127,-425.583,0,0
361959,72.153,-425.625,0,0
362219,72.2419,-425.636,0,0
362480,72.2853,-425.665,0,0
362740.1,72.3372,-425.638,0,0
363000.425,72.3433,-425.632,0,0
363260.75,72.3277,-425.596,0,0
363521.075,72.293,-425.576,0,0
363781.4,72.2283,-425.47,0,0
364041.725,72.141,-425.405,0,0
364302.05,72.086,-425.302,0,0
364562.375,72.0583,-425.182,0,0
364822.7,71.9463,-425.048,0,0
365083.025,71.8983,-424.893,0,0
365343.35,71.8409,-424.765,0,0
365603.675,71.7366,-424.616,0,0
365864.0,71.6279,-424.404,0,0
366124.325,71.4815,-424.239,0,0
366384.65,71.4363,-424.048,0,0
366644.975,71.3827,-423.805,0,0
366905.3,71.3266,-423.56,0,0
367165.625,71.3174,-423.302,0,0
367425.95,71.3272,-423.044,0,0
367686.275,71.3199,-422.739,0,0
367946.6,71.329,-422.547,0,0
368206.925,71.407,-422.265,0,0
368467.25,71.5551,-422.041,0,0
368727.575,71.729,-421.885,0,0
368987.9,71.8269,-421.777,0,0
369248.225,72.0514,-421.726,0,0
369508.55,72.1239,-421.779,0,0
369768.875,72.1772,-421.89,0,0
370029.2,72.1985,-421.967,0,0
370289.525,72.0854,-422.109,0,0
370549.85,71.9459,-422.219,0,0
370810.175,71.7308,-422.276,0,0
371070.5,71.5424,-422.308,0,0
371330.825,71.2621,-422.254,0,0
371591.15,71.0062,-422.194,0,0
371851.475,70.7379,-422.063,0,0
372111.8,70.526,-421.955,0,0
372372.125,70.309,-421.785,0,0
372632.45,70.1221,-421.7,0,0
372892.775,69.9333,-421.549,0,0
373153.1,69.8176,-421.472,0,0
373413.425,69.6009,-421.346,0,0
373673.75,69.3769,-421.248,0,0
373934.075,69.1818,-421.124,0,0
374194.4,69.0149,-421.086,0,0
374454.725,68.794,-420.993,0,0
374715.05,68.6197,-420.959,0,0
374975.375,68.3785,-420.954,0,0
375235.7,68.0413,-420.937,0,0
375496.025,67.6912,-420.872,0,0
375756.35,67.3454,-420.815,0,0
376016.675,66.9437,-420.718,0,0
376277.0,66.5139,-420.533,0,0
376537.325,66.1971,-420.405,0,0
376797.65,65.7959,-420.223,0,0
377057.975,65.4178,-420.01,0,0
377318.3,65.0621,-419.853,0,0
377578.625,64.743,-419.66,0,0
377838.95,64.3908,-419.489,0,0
378099.275,64.0425,-419.371,0,0
378359.6,63.6331,-419.297,0,0
378619.925,63.18,-419.205,0,0
378880,62.6325,-419.132,0,0
379141,62.0494,-418.939,0,0
379401,61.394,-418.726,0,0
379661,60.5972,-418.449,0,0
379922,59.8456,-417.976,0,0
380182,59.128,-417.423,0,0
380442,58.5112,-416.729,0,0
380703,57.9689,-415.97,0,0
380963,57.5913,-415.108,0,0
381223,57.3832,-414.257,0,0
381483,57.3078,-413.541,0,0
381744,57.3463,-412.894,0,0
382004,57.4289,-412.415,0,0
382264,57.4984,-412.059,0,0
382525,57.4763,-411.774,0,0
382785,57.4229,-411.64,0,0
383045,57.204,-411.469,0,0
383306,56.9872,-411.329,0,0
383566,56.6824,-411.23,0,0
383826,56.2948,-411.063,0,0
384087,55.8165,-410.876,0,0
384347,55.3285,-410.657,0,0
384607,54.8266,-410.36,0,0
384868,54.2735,-409.986,0,0
385128,53.693,-409.573,0,0
385388,53.1393,-409.122,0,0
385649,52.6007,-408.629,0,0
385909,52.0872,-408.052,0,0
386169,51.5861,-407.467,0,0
386430,51.11,-406.853,0,0
386690,50.6608,-406.211,0,0
386950,50.2399,-405.558,0,0
387211,49.8735,-404.83,0,0
387471,49.5478,-404.205,0,0
387731,49.2227,-403.498,0,0
387992,48.9175,-402.851,0,0
388252,48.6658,-402.175,0,0
388512,48.3425,-401.451,0,0
388773,48.0821,-400.74,0,0
389033,47.8842,-400.028,0,0
389293,47.6316,-399.322,0,0
389554,47.4454,-398.594,0,0
389814,47.3296,-397.934,0,0
390074,47.2307,-397.228,0,0
390335,47.1568,-396.497,0,0
390595,47.1335,-395.905,0,0
390855,47.0804,-395.274,0,0
391116,47.0997,-394.692,0,0
391376,47.0551,-394.147,0,0
391636,47.0717,-393.666,0,0
391896,46.9917,-393.279,0,0
392157,46.9465,-392.841,0,0
392417,46.8326,-392.512,0,0
392677,46.6059,-392.153,0,0
392938,46.3474,-391.779,0,0
393198,46.0012,-391.427,0,0
393458,45.6341,-390.949,0,0
393719,45.2872,-390.497,0,0
393979,44.8599,-389.93,0,0
394239,44.4333,-389.368,0,0
394500,44.0426,-388.695,0,0
394760.05,43.6579,-388.013,0,0
395020.375,43.2697,-387.253,0,0
395280.7,42.8908,-386.449,0,0
395541.025,42.6012,-385.632,0,0
395801.35,42.3393,-384.813,0,0
396061.675,42.0853,-383.942,0,0
396322.0,41.9355,-383.05,0,0
396582.325,41.769,-382.174,0,0
396842.65,41.6261,-381.256,0,0
397102.975,41.5742,-380.416,0,0
397363.3,41.4916,-379.515,0,0
397623.625,41.4902,-378.622,0,0
397883.95,41.5293,-377.752,0,0
398144.275,41.5533,-376.904,0,0
398404.6,41.6237,-376.055,0,0
398664.925,41.728,-375.274,0,0
398925.25,41.8301,-374.439,0,0
399185.575,41.9493,-373.67,0,0
399445.9,42.0815,-372.861,0,0
399706.225,42.2598,-372.107,0,0
399966.55,42.396,-371.404,0,0
400006.6,42.4742,-371.262,0,0