File: Accelerated corrosion test data/2025-10-18_06-00-03/sample_1.csv
Frequency (Hz),Impedance (ohms),Phase (Radians),Temperature (C),Humidity (%)
10000.0,248.233,-12276.5,0,0
10260.325,250.476,-11959.4,0,0
10520.65,236.717,-11678.7,0,0
10780.975,232.549,-11393.4,0,0
11041.3,225.947,-11132.3,0,0
11301.625,220.062,-10874.1,0,0
11561.95,216.797,-10628.7,0,0
11822.275,214.012,-10388.3,0,0
12082.6,236.383,-10156.2,0,0
12342.925,216.288,-9981.99,0,0
12603.25,200.2,-9767.73,0,0
12863.575,196.68,-9564.35,0,0
13123.9,209.692,-9371.24,0,0
13384.225,189.682,-9199.57,0,0
13644.55,185.203,-9017.37,0,0
13904.875,187.326,-8837.83,0,0
14165.2,192.926,-8701.17,0,0
14425.525,216.664,-8534.67,0,0
14685.8,211.857,-8365.66,0,0
14946.175,182.356,-8267.23,0,0
15206.5,191.645,-8100.77,0,0
15466.825,177.829,-7988.13,0,0
15727.15,176.681,-7854.32,0,0
15987.5,163.943,-7725.47,0,0
16247.8,160.735,-7597.71,0,0
16508.125,158.893,-7473.93,0,0
16768.45,162.325,-7355.22,0,0
17028.775,167.4,-7246.43,0,0
17289.1,158.015,-7143.51,0,0
17549.425,156.066,-7040.05,0,0
17809.75,149.594,-6933.97,0,0
18070.075,151.676,-6833.61,0,0
18330.4,145.836,-6737.61,0,0
18590.725,141.271,-6643.61,0,0
18851.05,142.295,-6543.94,0,0
19111.375,138.477,-6463.15,0,0
19371.7,136.016,-6370.21,0,0
19632.025,135.192,-6280.87,0,0
19892.35,140.206,-6194.4,0,0
20152.675,138.871,-6106.38,0,0
20413.0,159.7,-6016.29,0,0
20673.3,172.477,-5976.75,0,0
20933.65,152.009,-5907.1,0,0
21193.975,167.896,-5843.81,0,0
21454.3,144.269,-5773.57,0,0
21714.625,138.142,-5698.23,0,0
21974.9,143.941,-5616.26,0,0
22235.275,179.26,-5574.1,0,0
22495.6,145.878,-5533.63,0,0
22755.925,130.708,-5462.9,0,0
23016.25,124.792,-5395.8,0,0
23276.6,122.018,-5333.9,0,0
23536.9,118.654,-5272.27,0,0
23797.225,115.515,-5210.65,0,0
24057.55,118.142,-5149.72,0,0
24317.875,115.599,-5101.07,0,0
24578.2,113.966,-5040.96,0,0
24838.525,113.584,-4990.47,0,0
25098.85,113.874,-4935.82,0,0
25359.175,108.761,-4886.51,0,0
25619.5,107.559,-4835.21,0,0
25879.8,106.055,-4782.83,0,0
26140.1,106.341,-4733.17,0,0
26400.5,104.907,-4683.26,0,0
26660.8,107.643,-4632.49,0,0
26921.1,116.71,-4583.5,0,0
27181.4,125.954,-4552.79,0,0
27441.8,113.394,-4517.83,0,0
27702.1,106.281,-4468.3,0,0
27962.4,113.962,-4417.69,0,0
28222.7,113.177,-4380.03,0,0
28483.1,123.605,-4335.9,0,0
28743.4,135.222,-4316.92,0,0
29003.7,120.338,-4280.4,0,0
29264,122.526,-4247.21,0,0
29524.4,110.98,-4213.91,0,0
29784.7,108.733,-4170.65,0,0
30045,104.451,-4139.58,0,0
30305.3,102.432,-4100.48,0,0
30565.7,99.2495,-4061.29,0,0
30826,102.949,-4024.05,0,0
31086.3,107.071,-3997.18,0,0
31346.6,102.198,-3967.36,0,0
31607,96.1097,-3929.99,0,0
31867.3,101.348,-3896.87,0,0
32127.6,99.9207,-3866.84,0,0
32387.9,100.11,-3839.06,0,0
32648.3,95.7462,-3807.19,0,0
32908.6,98.2005,-3779.03,0,0
33168.9,93.1779,-3751.08,0,0
33429.2,90.3066,-3721.64,0,0
33689.6,88.1633,-3691.46,0,0
33949.9,87.5382,-3660.06,0,0
34210.2,88.7249,-3633.92,0,0
34470.5,85.7077,-3607.35,0,0
34730.9,84.2059,-3578.78,0,0
34991.2,83.3959,-3551.52,0,0
35251.5,82.1646,-3524.63,0,0
35511.8,81.3476,-3498.1,0,0
35772.2,80.9266,-3472.51,0,0
36032.5,79.5669,-3446.76,0,0
36292.8,79.008,-3421.32,0,0
36553.1,78.3732,-3396.44,0,0
36813.5,77.9774,-3371.45,0,0
37073.8,77.6463,-3347.48,0,0
37334.1,76.8884,-3323.86,0,0
37594.4,76.6169,-3300.2,0,0
37854.8,75.821,-3277.31,0,0
38115.1,74.9958,-3254.06,0,0
38375.4,74.9015,-3231.36,0,0
38635.7,74.5332,-3209.47,0,0
38896.1,73.7855,-3187.15,0,0
39156.4,74.0348,-3164.91,0,0
39416.7,73.7494,-3144.85,0,0
39677,72.7837,-3123.42,0,0
39937.4,72.6323,-3102.1,0,0
40197.7,72.8122,-3081.17,0,0
40458,72.4129,-3061.08,0,0
40718.3,72.4976,-3040.12,0,0
40978.7,74.1762,-3020.57,0,0
41239,74.0855,-3002.59,0,0
41499.3,73.3452,-2984.55,0,0
41759.6,72.5341,-2965.69,0,0
42020,72.0576,-2946.15,0,0
42280.275,71.7567,-2927.55,0,0
42540.6,72.7196,-2909.84,0,0
42800.925,71.8357,-2893.1,0,0
43061.25,70.8907,-2874.76,0,0
43321.575,70.4344,-2857.53,0,0
43581.9,70.0259,-2840.14,0,0
43842.225,69.3515,-2822.34,0,0
44102.55,69.3901,-2804.44,0,0
44362.875,70.0843,-2787.69,0,0
44623.2,70.7492,-2772.16,0,0
44883.525,69.7545,-2756.62,0,0
45143.85,69.8439,-2740.56,0,0
45404.175,70.316,-2724.88,0,0
45664.5,68.9636,-2709.69,0,0
45924.825,68.0808,-2694.4,0,0
46185.15,67.4672,-2679,0,0
46445.475,66.5295,-2663.09,0,0
46705.8,66.9017,-2647.83,0,0
46966.125,66.5675,-2633.42,0,0
47226.45,65.8235,-2617.97,0,0
47486.775,65.7897,-2603.63,0,0
47747.1,65.6593,-2589.25,0,0
48007.425,64.9903,-2575.13,0,0
48267.75,64.975,-2560.97,0,0
48528.075,63.791,-2547.47,0,0
48788.4,62.9741,-2533.01,0,0
49048.725,62.977,-2518.73,0,0
49309.05,62.8182,-2504.93,0,0
49569.375,62.6244,-2491.77,0,0
49829.7,62.2563,-2478.73,0,0
50090.025,61.3204,-2465.27,0,0
50350.35,60.7604,-2451.83,0,0
50610.675,60.531,-2438.47,0,0
50871.0,60.6091,-2425.6,0,0
51131.325,60.3595,-2412.76,0,0
51391.65,60.3528,-2400.32,0,0
51651.975,59.7474,-2388.14,0,0
51912.3,59.505,-2375.36,0,0
52172.625,59.2346,-2362.94,0,0
52432.95,59.2412,-2350.68,0,0
52693.275,58.9454,-2338.73,0,0
52953.6,58.8067,-2326.7,0,0
53213.925,58.7127,-2315,0,0
53474.25,58.5712,-2303.27,0,0
53734.575,58.4941,-2291.68,0,0
53994.9,58.3552,-2280.58,0,0
54255.225,57.7963,-2269.3,0,0
54515.55,57.3263,-2257.98,0,0
54775.875,57.0585,-2246.51,0,0
55036.2,56.8681,-2235.32,0,0
55296.525,56.8781,-2224.27,0,0
55556.85,56.798,-2213.56,0,0
55817.175,56.4996,-2202.8,0,0
56077.5,56.0367,-2192,0,0
56337.825,56.0142,-2181.04,0,0
56598.15,55.9507,-2170.44,0,0
56858.475,55.8298,-2159.99,0,0
57118.8,55.7842,-2149.75,0,0
57379.125,55.6989,-2139.32,0,0
57639.45,55.7167,-2129.27,0,0
57899.775,55.5665,-2119.21,0,0
58160.1,55.5067,-2109.17,0,0
58420.4,55.4177,-2099.44,0,0
58680.7,55.2543,-2089.65,0,0
58941.1,55.1893,-2079.77,0,0
59201.4,55.4328,-2070.03,0,0
59461.7,55.2788,-2061,0,0
59722,55.1063,-2051.33,0,0
59982.4,55.1172,-2041.97,0,0
60242.7,55.0138,-2032.59,0,0
60503,55.0874,-2023.34,0,0
60763.3,55.4504,-2014.62,0,0
61023.7,55.037,-2006.1,0,0
61284,54.3915,-1996.96,0,0
61544.3,54.201,-1987.82,0,0
61804.6,54.3713,-1978.9,0,0
62065,53.9368,-1970.41,0,0
62325.3,53.6832,-1961.46,0,0
62585.6,53.5758,-1952.71,0,0
62845.9,53.316,-1943.8,0,0
63106.3,53.4194,-1935.17,0,0
63366.6,53.3761,-1926.67,0,0
63626.9,53.3632,-1918.18,0,0
63887.2,53.3379,-1909.59,0,0
64147.6,53.5212,-1901.1,0,0
64407.9,53.5209,-1892.56,0,0
64668.2,53.7799,-1884.39,0,0
64928.5,54.3113,-1876.08,0,0
65188.9,54.8788,-1867.93,0,0
65449.2,55.625,-1860.37,0,0
65709.5,56.2689,-1853.24,0,0
65969.8,56.1275,-1846.39,0,0
66230.2,55.7991,-1839.12,0,0
66490.5,55.7174,-1831.55,0,0
66750.8,55.6953,-1824.39,0,0
67011.1,54.9759,-1817.35,0,0
67271.5,54.3844,-1809.39,0,0
67531.8,55.0419,-1801.67,0,0
67792.1,55.4723,-1794.89,0,0
68052.4,55.1534,-1788.75,0,0
68312.8,53.8825,-1781.37,0,0
68573.1,53.6414,-1773.73,0,0
68833.4,53.9255,-1766.33,0,0
69093.7,53.8138,-1759.73,0,0
69354.1,53.5998,-1752.57,0,0
69614.4,53.5579,-1745.96,0,0
69874.7,53.1136,-1739.14,0,0
70135,52.6807,-1732.59,0,0
70395.4,52.089,-1725.75,0,0
70655.7,51.5816,-1718.63,0,0
70916,51.1973,-1711.59,0,0
71176.3,51.1208,-1704.7,0,0
71436.7,51.0938,-1697.98,0,0
71697,50.5209,-1691.46,0,0
71957.3,50.0298,-1684.71,0,0
72217.6,49.5169,-1677.74,0,0
72478,49.2914,-1670.75,0,0
72738.3,49.1648,-1663.84,0,0
72998.6,49.1326,-1656.98,0,0
73258.9,49.1879,-1650.46,0,0
73519.3,48.897,-1643.87,0,0
73779.6,48.9049,-1637.24,0,0
74039.9,48.7751,-1630.52,0,0
74300.225,48.8978,-1624.08,0,0
74560.55,48.8659,-1617.52,0,0
74820.875,49.0202,-1611.04,0,0
75081.2,49.1937,-1604.84,0,0
75341.525,49.2106,-1598.52,0,0
75601.85,49.181,-1592.24,0,0
75862.175,49.3546,-1585.81,0,0
76122.5,49.6872,-1579.63,0,0
76382.825,49.8858,-1573.6,0,0
76643.15,50.0862,-1567.62,0,0
76903.475,50.2049,-1561.58,0,0
77163.8,50.4195,-1555.61,0,0
77424.125,50.6785,-1549.8,0,0
77684.45,50.8642,-1543.98,0,0
77944.775,51.0339,-1538.02,0,0
78205.1,51.4081,-1532.11,0,0
78465.425,52.0843,-1526.51,0,0
78725.75,52.4167,-1521.3,0,0
78986.075,52.5667,-1516.1,0,0
79246.4,52.6381,-1510.96,0,0
79506.725,52.6448,-1505.82,0,0
79767.05,52.2027,-1500.51,0,0
80027.375,52.0262,-1495.03,0,0
80287.7,51.8066,-1489.77,0,0
80548.025,51.4552,-1484.2,0,0
80808.35,51.3341,-1478.56,0,0
81068.675,51.189,-1472.97,0,0
81329.0,51.0945,-1467.35,0,0
81589.325,51.1351,-1461.76,0,0
81849.65,51.3397,-1456.22,0,0
82109.975,51.4521,-1450.83,0,0
82370.3,51.6352,-1445.5,0,0
82630.625,51.6505,-1440.26,0,0
82890.95,51.6653,-1434.74,0,0
83151.275,51.9356,-1429.36,0,0
83411.6,52.1454,-1424.16,0,0
83671.925,52.3651,-1418.82,0,0
83932.25,52.6509,-1413.59,0,0
84192.575,53.017,-1408.27,0,0
84452.9,53.438,-1403.2,0,0
84713.225,53.8149,-1398.14,0,0
84973.55,54.1151,-1393.12,0,0
85233.875,54.6687,-1388.24,0,0
85494.2,55.1946,-1383.49,0,0
85754.525,55.4202,-1378.9,0,0
86014.85,55.6496,-1374.15,0,0
86275.175,55.7023,-1369.41,0,0
86535.5,55.9669,-1364.7,0,0
86795.825,56.0789,-1360.06,0,0
87056.15,56.123,-1355.03,0,0
87316.475,56.576,-1350.39,0,0
87576.8,56.6175,-1345.93,0,0
87837.125,56.5687,-1341.2,0,0
88097.45,56.6148,-1336.44,0,0
88357.775,56.589,-1331.43,0,0
88618.1,56.9306,-1326.34,0,0
88878.425,57.3194,-1321.53,0,0
89138.75,57.6992,-1316.56,0,0
89399.075,58.3057,-1311.65,0,0
89659.4,58.9753,-1306.96,0,0
89919.725,59.639,-1302.3,0,0
90180,60.2924,-1297.67,0,0
90440.4,60.8704,-1292.98,0,0
90700.7,61.6576,-1288.26,0,0
90961,62.4898,-1283.52,0,0
91221.3,63.6622,-1278.74,0,0
91481.7,65.1818,-1274.58,0,0
91742,66.2725,-1270.54,0,0
92002.3,67.4015,-1266.45,0,0
92262.6,68.7326,-1262.4,0,0
92523,70.088,-1258.5,0,0
92783.3,71.9556,-1254.56,0,0
93043.6,73.8842,-1251.67,0,0
93303.9,75.3607,-1248.85,0,0
93564.3,77.238,-1246.11,0,0
93824.6,79.6788,-1244.84,0,0
94084.9,79.9566,-1245.35,0,0
94345.2,77.9765,-1244.87,0,0
94605.6,75.3428,-1242.12,0,0
94865.9,73.9446,-1239.13,0,0
95126.2,71.9577,-1235.55,0,0
95386.5,70.8371,-1231.76,0,0
95646.9,69.63,-1227.98,0,0
95907.2,68.2004,-1223.82,0,0
96167.5,67.4323,-1218.94,0,0
96427.8,67.6353,-1214.52,0,0
96688.2,67.6675,-1211.22,0,0
96948.5,66.7514,-1207.53,0,0
97208.8,66.1516,-1203.25,0,0
97469.1,65.7407,-1199.13,0,0
97729.5,65.5275,-1194.92,0,0
97989.8,65.2826,-1190.75,0,0
98250.1,65.4268,-1186.58,0,0
98510.4,65.5727,-1182.88,0,0
98770.8,65.2881,-1179.26,0,0
99031.1,64.9786,-1175.3,0,0
99291.4,64.8009,-1171.32,0,0
99551.7,64.5784,-1167.41,0,0
99812.1,64.5028,-1163.37,0,0
100072,64.4177,-1159.53,0,0
100333,64.0993,-1155.57,0,0
100593,63.8845,-1151.39,0,0
100853,63.888,-1147.22,0,0
101114,63.9246,-1143.12,0,0
101374,63.9712,-1139.1,0,0
101634,63.8012,-1135.04,0,0
101895,63.6011,-1130.67,0,0
102155,63.6409,-1126,0,0
102415,64.0526,-1121.21,0,0
102676,64.8457,-1116.57,0,0
102936,65.93,-1112.28,0,0
103196,66.8493,-1108.27,0,0
103457,67.7599,-1104.2,0,0
103717,68.6822,-1100.18,0,0
103977,69.7616,-1095.96,0,0
104238,71.4346,-1091.96,0,0
104498,73.0668,-1088.65,0,0
104758,74.2589,-1085.52,0,0
105019,75.3014,-1082.56,0,0
105279,76.053,-1079.25,0,0
105539,77.0134,-1075.64,0,0
105800,78.2351,-1072.26,0,0
106060,79.5482,-1068.95,0,0
106320.175,81.0589,-1065.86,0,0
106580.5,82.5766,-1063.06,0,0
106840.825,83.7666,-1060.57,0,0
107101.15,84.7739,-1057.84,0,0
107361.475,86.1522,-1055.15,0,0
107621.8,87.3479,-1053.01,0,0
107882.125,88.1038,-1050.68,0,0
108142.45,88.9403,-1048.24,0,0
108402.775,89.7095,-1045.86,0,0
108663.1,90.5548,-1043.4,0,0
108923.425,91.4808,-1041.05,0,0
109183.75,92.3707,-1038.8,0,0
109444.075,93.4873,-1036.75,0,0
109704.4,94.355,-1035.17,0,0
109964.725,94.6677,-1033.54,0,0
110225.05,94.5788,-1031.99,0,0
110485.375,94.1474,-1030.06,0,0
110745.7,93.9194,-1027.23,0,0
111006.025,94.2557,-1024.45,0,0
111266.35,94.6825,-1021.77,0,0
111526.675,95.2698,-1019.14,0,0
111787.0,96.0601,-1016.8,0,0
112047.325,96.953,-1014.65,0,0
112307.65,97.6563,-1012.93,0,0
112567.975,98.2387,-1011.02,0,0
112828.3,98.6918,-1009.28,0,0
113088.625,99.205,-1007.75,0,0
113348.95,99.4859,-1006.42,0,0
113609.275,99.4011,-1005.11,0,0
113869.6,99.0666,-1003.68,0,0
114129.925,98.7335,-1002.07,0,0
114390.25,98.3661,-1000.4,0,0
114650.575,97.9652,-998.717,0,0
114910.9,97.4433,-997.168,0,0
115171.225,96.7577,-995.549,0,0
115431.55,95.9452,-993.799,0,0
115691.875,94.9382,-991.973,0,0
115952.2,93.8869,-989.828,0,0
116212.525,92.9538,-987.592,0,0
116472.85,92.0256,-985.314,0,0
116733.175,91.1319,-982.985,0,0
116993.5,90.0977,-980.69,0,0
117253.825,88.9134,-978.122,0,0
117514.15,87.8569,-975.351,0,0
117774.475,86.9332,-972.505,0,0
118034.8,86.0011,-969.528,0,0
118295.125,85.3424,-966.393,0,0
118555.45,84.8392,-963.353,0,0
118815.775,84.2934,-960.388,0,0
119076.1,83.8302,-957.281,0,0
119336.425,83.4942,-954.197,0,0
119596.75,83.3102,-951.134,0,0
119857.075,83.1568,-948.167,0,0
120117.4,83.1601,-945.228,0,0
120377.725,83.1335,-942.506,0,0
120638.05,83.0584,-939.782,0,0
120898.375,82.9759,-937.22,0,0
121158.7,82.795,-934.799,0,0
121419.025,82.3349,-932.246,0,0
121679.35,81.8621,-929.644,0,0
121939.675,81.3161,-926.904,0,0
122200.0,80.8293,-923.968,0,0
122460,80.4295,-921.059,0,0
122721,80.0523,-917.99,0,0
122981,79.8193,-914.969,0,0
123241,79.4937,-911.896,0,0
123502,79.3144,-908.759,0,0
123762,79.2793,-905.595,0,0
124022,79.3308,-902.514,0,0
124283,79.4465,-899.526,0,0
124543,79.486,-896.608,0,0
124803,79.5284,-893.625,0,0
125064,79.618,-890.698,0,0
125324,79.6188,-887.722,0,0
125584,79.7909,-884.618,0,0
125845,80.0487,-881.637,0,0
126105,80.2781,-878.84,0,0
126365,80.4625,-875.981,0,0
126626,80.6321,-873.05,0,0
126886,80.8465,-870.112,0,0
127146,80.9687,-867.244,0,0
127406,81.3777,-864.326,0,0
127667,81.5855,-861.32,0,0
127927,82.0087,-858.287,0,0
128187,82.4147,-855.361,0,0
128448,82.954,-852.438,0,0
128708,83.4561,-849.637,0,0
128968,83.8764,-846.898,0,0
129229,84.1804,-844.049,0,0
129489,84.6414,-841.06,0,0
129749,85.2063,-838.074,0,0
130010,85.921,-834.992,0,0
130270,86.8889,-832.106,0,0
130530,87.8991,-829.396,0,0
130791,88.8011,-826.811,0,0
131051,89.6706,-824.21,0,0
131311,90.7562,-821.693,0,0
131572,91.7639,-819.406,0,0
131832,92.6671,-817.212,0,0
132092,93.4594,-815.036,0,0
132353,94.2159,-812.929,0,0
132613,94.8208,-810.745,0,0
132873,95.4751,-808.484,0,0
133134,96.1661,-806.281,0,0
133394,96.8071,-804.088,0,0
133654,97.3921,-801.888,0,0
133915,97.9898,-799.607,0,0
134175,98.7193,-797.249,0,0
134435,99.5889,-795.043,0,0
134696,100.362,-792.921,0,0
134956,101.098,-790.856,0,0
135216,101.851,-788.703,0,0
135477,102.546,-786.738,0,0
135737,103.182,-784.663,0,0
135997,103.799,-782.516,0,0
136258,104.474,-780.365,0,0
136518,105.27,-778.004,0,0
136778,106.421,-775.727,0,0
137039,107.61,-773.856,0,0
137299,108.779,-772.027,0,0
137559,110.162,-770.361,0,0
137819,111.388,-769.224,0,0
138080,112.172,-768.344,0,0
138340.125,112.58,-767.32,0,0
138600.45,112.948,-766.062,0,0
138860.775,113.308,-764.992,0,0
139121.1,113.364,-763.872,0,0
139381.425,113.237,-762.617,0,0
139641.75,113.018,-761.221,0,0
139902.075,112.8,-759.648,0,0
140162.4,112.494,-757.935,0,0
140422.725,112.296,-756.165,0,0
140683.05,112.042,-754.347,0,0
140943.375,111.729,-752.351,0,0
141203.7,111.506,-750.217,0,0
141464.025,111.482,-748.001,0,0
141724.35,111.543,-745.869,0,0
141984.675,111.4,-743.795,0,0
142245.0,111.28,-741.414,0,0
142505.325,111.447,-738.973,0,0
142765.65,111.791,-736.707,0,0
143025.975,111.947,-734.564,0,0
143286.3,112.038,-732.287,0,0
143546.625,112.291,-729.894,0,0
143806.95,112.617,-727.485,0,0
144067.275,113.119,-725.172,0,0
144327.6,113.537,-723.005,0,0
144587.925,113.87,-720.743,0,0
144848.25,114.281,-718.385,0,0
145108.575,114.808,-716.075,0,0
145368.9,115.465,-713.752,0,0
145629.225,116.093,-711.513,0,0
145889.55,116.797,-709.26,0,0
146149.875,117.68,-707.146,0,0
146410.2,118.494,-705.23,0,0
146670.525,119.163,-703.347,0,0
146930.85,119.961,-701.391,0,0
147191.175,120.816,-699.723,0,0
147451.5,121.454,-698.18,0,0
147711.825,121.935,-696.746,0,0
147972.15,122.061,-695.293,0,0
148232.475,122.012,-693.474,0,0
148492.8,122.11,-691.415,0,0
148753.125,122.317,-689.39,0,0
149013.45,122.505,-687.163,0,0
149273.775,123.008,-684.795,0,0
149534.1,123.845,-682.688,0,0
149794.425,124.653,-681.028,0,0
150054.75,125.147,-679.381,0,0
150315.075,125.597,-677.807,0,0
150575.4,125.876,-676.412,0,0
150835.725,125.812,-675.042,0,0
151096.05,125.357,-673.414,0,0
151356.375,124.843,-671.396,0,0
151616.7,124.474,-669.095,0,0
151877.025,124.25,-666.782,0,0
152137.35,123.848,-664.452,0,0
152397.675,123.357,-661.822,0,0
152658.0,122.972,-658.861,0,0
152918.325,122.813,-655.641,0,0
153178.65,122.956,-652.261,0,0
153438.975,123.38,-649.008,0,0
153699.3,123.857,-645.777,0,0
153959.625,124.374,-642.446,0,0
154219.95,125.092,-639.088,0,0
154480,125.932,-635.699,0,0
154741,126.933,-632.214,0,0
155001,128.275,-628.737,0,0
155261,129.659,-625.605,0,0
155522,130.89,-622.38,0,0
155782,132.295,-618.77,0,0
156042,134.255,-615.178,0,0
156303,136.577,-611.91,0,0
156563,138.939,-609.062,0,0
156823,141.088,-606.299,0,0
157084,143.402,-603.394,0,0
157344,146.141,-600.668,0,0
157604,148.988,-598.466,0,0
157864,151.597,-596.606,0,0
158125,153.912,-594.852,0,0
158385,156.198,-592.988,0,0
158645,158.422,-591.406,0,0
158906,160.138,-589.858,0,0
159166,161.511,-587.811,0,0
159426,163.136,-585.135,0,0
159687,165.294,-582.211,0,0
159947,167.964,-579.166,0,0
160207,171.311,-576.399,0,0
160468,174.877,-574.263,0,0
160728,178.512,-572.27,0,0
160988,182.338,-570.644,0,0
161249,186.378,-569.365,0,0
161509,190.274,-568.732,0,0
161769,193.895,-568.316,0,0
162030,197.51,-568.105,0,0
162290,200.911,-568.301,0,0
162550,204.015,-568.661,0,0
162811,206.902,-569.249,0,0
163071,209.218,-569.894,0,0
163331,211.172,-570.292,0,0
163592,213.056,-570.264,0,0
163852,215.251,-570.049,0,0
164112,217.614,-569.945,0,0
164373,220.026,-569.923,0,0
164633,222.521,-570.06,0,0
164893,224.828,-570.204,0,0
165154,227.441,-570.289,0,0
165414,230.184,-570.734,0,0
165674,232.997,-571.318,0,0
165935,235.944,-572.327,0,0
166195,238.703,-573.859,0,0
166455,241.036,-575.699,0,0
166716,242.946,-577.614,0,0
166976,244.595,-579.448,0,0
167236,246.223,-581.208,0,0
167497,247.938,-583.256,0,0
167757,249.263,-585.731,0,0
168017,250.03,-588.261,0,0
168277,250.475,-590.606,0,0
168538,250.772,-592.943,0,0
168798,250.824,-595.326,0,0
169058,250.422,-597.804,0,0
169319,249.547,-600.097,0,0
169579,248.385,-602.168,0,0
169839,246.766,-603.919,0,0
170100,244.94,-605.282,0,0
170360.075,242.925,-606.156,0,0
170620.4,241.063,-606.433,0,0
170880.725,239.372,-606.657,0,0
171141.05,237.503,-606.685,0,0
171401.375,235.678,-606.154,0,0
171661.7,234.248,-605.239,0,0
171922.025,233.227,-604.319,0,0
172182.35,232.344,-603.4,0,0
172442.675,231.713,-602.357,0,0
172703.0,231.481,-601.432,0,0
172963.325,231.375,-600.981,0,0
173223.65,230.982,-600.818,0,0
173483.975,230.157,-600.54,0,0
173744.3,229.196,-599.899,0,0
174004.625,228.503,-598.859,0,0
174264.95,228.239,-597.846,0,0
174525.275,228.039,-597.115,0,0
174785.6,227.847,-596.495,0,0
175045.925,227.7,-595.854,0,0
175306.25,227.41,-595.367,0,0
175566.575,227.168,-594.782,0,0
175826.9,227.117,-594.261,0,0
176087.225,227.025,-594.125,0,0
176347.55,226.552,-594.066,0,0
176607.875,225.854,-593.841,0,0
176868.2,225.089,-593.463,0,0
177128.525,224.352,-592.898,0,0
177388.85,223.736,-592.253,0,0
177649.175,223.183,-591.695,0,0
177909.5,222.707,-591.216,0,0
178169.825,222.107,-590.902,0,0
178430.15,221.311,-590.661,0,0
178690.475,220.284,-590.343,0,0
178950.8,219.113,-589.814,0,0
179211.125,217.842,-589.037,0,0
179471.45,216.95,-588.078,0,0
179731.775,216.251,-587.486,0,0
179992.1,215.13,-587.177,0,0
180252.425,213.501,-586.721,0,0
180512.75,211.759,-585.717,0,0
180773.075,210.124,-584.521,0,0
181033.4,208.578,-583.244,0,0
181293.725,206.992,-581.852,0,0
181554.05,205.454,-580.204,0,0
181814.375,204.121,-578.549,0,0
182074.7,202.769,-576.949,0,0
182335.025,201.241,-575.362,0,0
182595.35,199.545,-573.519,0,0
182855.675,197.907,-571.298,0,0
183116.0,196.504,-568.956,0,0
183376.325,195.187,-566.574,0,0
183636.65,193.931,-564.144,0,0
183896.975,192.649,-561.675,0,0
184157.3,191.293,-558.969,0,0
184417.625,190.049,-555.92,0,0
184677.95,189.114,-552.798,0,0
184938.275,188.263,-549.558,0,0
185198.6,187.67,-546.115,0,0
185458.925,187.427,-542.717,0,0
185719.25,187.438,-539.546,0,0
185979.575,187.398,-536.487,0,0
186239.9,187.388,-533.369,0,0
186500,187.491,-530.331,0,0
186761,187.491,-527.412,0,0
187021,187.48,-524.289,0,0
187281,187.455,-520.906,0,0
187542,187.822,-517.344,0,0
187802,188.694,-513.958,0,0
188062,189.63,-510.891,0,0
188322,190.357,-508.042,0,0
188583,191.091,-505.081,0,0
188843,191.794,-502.3,0,0
189103,192.524,-499.29,0,0
189364,193.29,-496.408,0,0
189624,194.141,-493.558,0,0
189884,194.889,-490.79,0,0
190145,195.547,-487.792,0,0
190405,196.327,-484.754,0,0
190665,197.118,-481.727,0,0
190926,198.006,-478.53,0,0
191186,198.944,-475.284,0,0
191446,200.049,-472.093,0,0
191707,201.088,-468.937,0,0
191967,202.145,-465.546,0,0
192227,203.35,-462.039,0,0
192488,204.855,-458.505,0,0
192748,206.428,-455.123,0,0
193008,208.139,-451.783,0,0
193269,209.861,-448.356,0,0
193529,211.677,-445.006,0,0
193789,213.637,-441.631,0,0
194050,215.599,-438.322,0,0
194310,217.638,-435.008,0,0
194570,219.771,-431.696,0,0
194831,221.957,-428.342,0,0
195091,224.2,-424.995,0,0
195351,226.457,-421.52,0,0
195612,228.968,-418.03,0,0
195872,231.731,-414.546,0,0
196132,234.587,-411.13,0,0
196393,237.661,-407.787,0,0
196653,240.801,-404.625,0,0
196913,244.086,-401.584,0,0
197174,247.119,-398.682,0,0
197434,250.192,-395.593,0,0
197694,253.392,-392.464,0,0
197955,257.022,-389.286,0,0
198215,260.586,-386.467,0,0
198475,263.989,-383.697,0,0
198735,267.427,-380.832,0,0
198996,270.942,-377.904,0,0
199256,274.433,-374.952,0,0
199516,277.991,-371.863,0,0
199777,281.696,-368.605,0,0
200037,285.638,-365.17,0,0
200297,290.058,-361.684,0,0
200558,294.582,-358.34,0,0
200818,299.331,-355.143,0,0
201078,304.278,-352.007,0,0
201339,309.178,-348.79,0,0
201599,314.257,-345.486,0,0
201859,319.656,-341.91,0,0
202120,325.631,-338.252,0,0
202380.025,332.235,-334.711,0,0
202640.35,339.455,-331.442,0,0
202900.675,346.933,-328.747,0,0
203161.0,354.727,-326.386,0,0
203421.325,362.515,-324.397,0,0
203681.65,370.517,-322.302,0,0
203941.975,379.119,-320.237,0,0
204202.3,388.411,-318.769,0,0
204462.625,398.211,-317.816,0,0
204722.95,408.6,-317.797,0,0
204983.275,419.139,-318.568,0,0
205243.6,429.766,-320.433,0,0
205503.925,440.173,-323.149,0,0
205764.25,450.337,-326.626,0,0
206024.575,460.097,-330.974,0,0
206284.9,469.51,-335.748,0,0
206545.225,478.547,-341.178,0,0
206805.55,487.275,-347.418,0,0
207065.875,495.337,-354.262,0,0
207326.2,502.511,-361.577,0,0
207586.525,508.846,-368.971,0,0
207846.85,514.691,-376.286,0,0
208107.175,520.282,-383.723,0,0
208367.5,525.47,-391.48,0,0
208627.825,530.118,-399.587,0,0
208888.15,534.192,-407.976,0,0
209148.475,537.414,-416.449,0,0
209408.8,539.977,-424.931,0,0
209669.125,542.079,-433.34,0,0
209929.45,543.518,-442.044,0,0
210189.775,543.756,-450.688,0,0
210450.1,542.801,-458.861,0,0
210710.425,540.925,-466.12,0,0
210970.75,538.632,-472.303,0,0
211231.075,536.197,-477.516,0,0
211491.4,533.818,-481.95,0,0
211751.725,531.399,-485.779,0,0
212012.05,528.831,-488.691,0,0
212272.375,526.581,-490.619,0,0
212532.7,524.953,-491.71,0,0
212793.025,524.121,-492.158,0,0
213053.35,524.327,-492.368,0,0
213313.675,525.342,-492.688,0,0
213574.0,527.066,-493.269,0,0
213834.325,529.418,-494.167,0,0
214094.65,532.339,-495.676,0,0
214354.975,535.373,-497.859,0,0
214615.3,538.435,-500.555,0,0
214875.625,541.451,-503.71,0,0
215135.95,544.056,-507.507,0,0
215396.275,546.365,-511.356,0,0
215656.6,548.373,-515.361,0,0
215916.925,549.918,-519.465,0,0
216177.25,551.017,-523.323,0,0
216437.575,552.145,-526.583,0,0
216697.9,553.623,-529.819,0,0
216958.225,555.099,-533.168,0,0
217218.55,556.709,-536.365,0,0
217478.875,558.436,-539.823,0,0
217739.2,560.085,-543.457,0,0
217999.525,561.628,-547.276,0,0
218259.85,562.839,-551.018,0,0
218520,563.848,-554.331,0,0
218780,565.129,-557.247,0,0
219041,566.92,-559.917,0,0
219301,569.257,-562.938,0,0
219561,571.726,-566.419,0,0
219822,574.163,-569.986,0,0
220082,576.659,-573.477,0,0
220342,580.019,-577.225,0,0
220603,583.39,-581.639,0,0
220863,586.736,-586.519,0,0
221123,590.014,-591.842,0,0
221384,593.294,-597.488,0,0
221644,596.649,-603.503,0,0
221904,600.058,-610.243,0,0
222165,603.323,-617.811,0,0
222425,605.831,-626.171,0,0
222685,607.465,-634.834,0,0
222946,608.406,-643.669,0,0
223206,608.735,-652.495,0,0
223466,608.688,-661.284,0,0
223727,608.08,-669.912,0,0
223987,607.139,-678.405,0,0
224247,605.979,-686.804,0,0
224508,604.857,-695.376,0,0
224768,603.064,-704.232,0,0
225028,601.039,-713.221,0,0
225289,598.047,-722.275,0,0
225549,594.421,-730.962,0,0
225809,590.438,-739.191,0,0
226070,586.555,-746.903,0,0
226330,582.642,-754.763,0,0
226590,578.464,-762.838,0,0
226851,573.826,-770.942,0,0
227111,568.712,-778.91,0,0
227371,563.191,-786.781,0,0
227632,557.11,-794.676,0,0
227892,550.319,-802.313,0,0
228152,542.951,-809.45,0,0
228413,535.046,-816.035,0,0
228673,526.837,-822.089,0,0
228933,518.284,-827.444,0,0
229193,509.812,-832.215,0,0
229454,501.184,-836.453,0,0
229714,492.364,-840.286,0,0
229974,483.548,-843.448,0,0
230235,474.649,-846.125,0,0
230495,465.827,-847.98,0,0
230755,457.21,-849.584,0,0
231016,448.76,-850.579,0,0
231276,440.642,-851.194,0,0
231536,432.789,-851.446,0,0
231797,425.165,-851.347,0,0
232057,417.768,-851.035,0,0
232317,410.573,-850.365,0,0
232578,403.758,-849.374,0,0
232838,397.35,-848.084,0,0
233098,391.386,-846.657,0,0
233359,385.918,-845.209,0,0
233619,380.797,-843.945,0,0
233879,375.863,-842.824,0,0
234140,371.043,-841.672,0,0
234400,366.398,-840.64,0,0
234660.3,362.256,-839.616,0,0
234920.625,357.853,-839.13,0,0
235180.95,353.475,-838.708,0,0
235441.275,349.13,-838.101,0,0
235701.6,344.548,-837.68,0,0
235961.925,339.869,-836.91,0,0
236222.25,335.356,-836.17,0,0
236482.575,330.855,-835.354,0,0
236742.9,326.479,-834.537,0,0
237003.225,322.301,-833.629,0,0
237263.55,318.003,-832.917,0,0
237523.875,313.58,-832.277,0,0
237784.2,309.099,-831.459,0,0
238044.525,304.539,-830.479,0,0
238304.85,299.844,-829.344,0,0
238565.175,295.305,-828.04,0,0
238825.5,290.659,-826.586,0,0
239085.825,286.303,-824.865,0,0
239346.15,282.069,-823.019,0,0
239606.475,278.056,-821.273,0,0
239866.8,274.081,-819.43,0,0
240127.125,270.105,-817.527,0,0
240387.45,266.408,-815.496,0,0
240647.775,262.693,-813.482,0,0
240908.1,259.274,-811.381,0,0
241168.425,255.811,-809.496,0,0
241428.75,252.399,-807.546,0,0
241689.075,248.949,-805.547,0,0
241949.4,245.55,-803.5,0,0
242209.725,242.138,-801.374,0,0
242470.05,238.905,-799.12,0,0
242730.375,235.708,-796.823,0,0
242990.7,232.671,-794.403,0,0
243251.025,229.802,-791.973,0,0
243511.35,227.09,-789.587,0,0
243771.675,224.506,-787.217,0,0
244032.0,221.928,-784.924,0,0
244292.325,219.616,-782.611,0,0
244552.65,217.399,-780.478,0,0
244812.975,215.014,-778.449,0,0
245073.3,212.728,-776.482,0,0
245333.625,210.251,-774.591,0,0
245593.95,207.788,-772.616,0,0
245854.275,205.379,-770.566,0,0
246114.6,202.956,-768.514,0,0
246374.925,200.523,-766.471,0,0
246635.25,198.057,-764.354,0,0
246895.575,195.586,-762.105,0,0
247155.9,193.203,-759.741,0,0
247416.225,190.896,-757.449,0,0
247676.55,188.693,-755.022,0,0
247936.875,186.515,-752.61,0,0
248197.2,184.442,-750.094,0,0
248457.525,182.405,-747.587,0,0
248717.85,180.485,-745.2,0,0
248978.175,178.696,-742.633,0,0
249238.5,176.847,-740.08,0,0
249498.825,175.197,-737.648,0,0
249759.15,173.571,-735.14,0,0
250019.475,172.03,-732.617,0,0
250279.8,170.581,-730.258,0,0
250540,169.105,-727.926,0,0
250800,167.536,-725.574,0,0
251061,166.085,-723.085,0,0
251321,164.72,-720.598,0,0
251581,163.42,-718.2,0,0
251842,162.142,-715.803,0,0
252102,160.903,-713.428,0,0
252362,159.628,-711.11,0,0
252623,158.408,-708.763,0,0
252883,157.172,-706.475,0,0
253143,155.896,-704.031,0,0
253404,154.655,-701.546,0,0
253664,153.479,-699.029,0,0
253924,152.408,-696.441,0,0
254185,151.468,-693.754,0,0
254445,150.595,-691.14,0,0
254705,149.777,-688.61,0,0
254966,149.123,-685.936,0,0
255226,148.6,-683.369,0,0
255486,148.137,-680.865,0,0
255747,147.699,-678.425,0,0
256007,147.304,-676.101,0,0
256267,146.912,-673.801,0,0
256528,146.479,-671.502,0,0
256788,146.087,-669.197,0,0
257048,145.777,-666.887,0,0
257309,145.458,-664.627,0,0
257569,145.17,-662.364,0,0
257829,144.867,-660.079,0,0
258090,144.62,-657.783,0,0
258350,144.39,-655.42,0,0
258610,144.235,-653.044,0,0
258871,144.192,-650.634,0,0
259131,144.187,-648.155,0,0
259391,144.359,-645.72,0,0
259651,144.739,-643.256,0,0
259912,145.193,-640.931,0,0
260172,145.827,-638.611,0,0
260432,146.499,-636.461,0,0
260693,147.257,-634.398,0,0
260953,148.091,-632.466,0,0
261213,148.955,-630.617,0,0
261474,149.873,-628.916,0,0
261734,150.752,-627.296,0,0
261994,151.661,-625.795,0,0
262255,152.558,-624.323,0,0
262515,153.448,-622.875,0,0
262775,154.385,-621.556,0,0
263036,155.33,-620.268,0,0
263296,156.317,-619.066,0,0
263556,157.296,-617.932,0,0
263817,158.323,-616.84,0,0
264077,159.332,-615.832,0,0
264337,160.362,-614.873,0,0
264598,161.392,-613.98,0,0
264858,162.542,-613.142,0,0
265118,163.717,-612.367,0,0
265379,164.928,-611.782,0,0
265639,166.213,-611.24,0,0
265899,167.59,-610.954,0,0
266160,168.906,-610.769,0,0
266420,170.351,-610.809,0,0
266680.25,171.674,-611.056,0,0
266940.575,172.986,-611.556,0,0
267200.9,174.176,-612.342,0,0
267461.225,175.189,-613.327,0,0
267721.55,175.96,-614.569,0,0
267981.875,176.461,-615.978,0,0
268242.2,176.619,-617.51,0,0
268502.525,176.537,-619.063,0,0
268762.85,176.133,-620.711,0,0
269023.175,175.424,-622.309,0,0
269283.5,174.263,-623.961,0,0
269543.825,172.826,-625.411,0,0
269804.15,170.956,-626.565,0,0
270064.475,168.821,-627.485,0,0
270324.8,166.639,-627.975,0,0
270585.125,164.229,-628.216,0,0
270845.45,161.873,-628.056,0,0
271105.775,159.555,-627.592,0,0
271366.1,157.342,-626.877,0,0
271626.425,155.238,-625.95,0,0
271886.75,153.224,-624.881,0,0
272147.075,151.324,-623.587,0,0
272407.4,149.544,-622.178,0,0
272667.725,147.936,-620.6,0,0
272928.05,146.502,-618.91,0,0
273188.375,145.23,-617.196,0,0
273448.7,144.108,-615.444,0,0
273709.025,143.166,-613.686,0,0
273969.35,142.282,-611.893,0,0
274229.675,141.57,-610.167,0,0
274490.0,140.961,-608.333,0,0
274750.325,140.46,-606.649,0,0
275010.65,140.082,-604.855,0,0
275270.975,139.736,-603.285,0,0
275531.3,139.457,-601.712,0,0
275791.625,139.188,-600.153,0,0
276051.95,138.912,-598.593,0,0
276312.275,138.789,-596.984,0,0
276572.6,138.757,-595.368,0,0
276832.925,138.853,-593.837,0,0
277093.25,138.995,-592.395,0,0
277353.575,139.229,-590.985,0,0
277613.9,139.508,-589.681,0,0
277874.225,139.818,-588.443,0,0
278134.55,140.195,-587.308,0,0
278394.875,140.571,-586.282,0,0
278655.2,140.949,-585.318,0,0
278915.525,141.343,-584.451,0,0
279175.85,141.729,-583.675,0,0
279436.175,142.073,-582.999,0,0
279696.5,142.378,-582.353,0,0
279956.825,142.638,-581.823,0,0
280217.15,142.834,-581.327,0,0
280477.475,142.993,-580.902,0,0
280737.8,143.045,-580.422,0,0
280998.125,143.093,-580.026,0,0
281258.45,143.08,-579.63,0,0
281518.775,143.029,-579.242,0,0
281779.1,142.901,-578.931,0,0
282039.425,142.649,-578.622,0,0
282299.75,142.299,-578.292,0,0
282560,141.875,-577.869,0,0
282820,141.408,-577.387,0,0
283081,140.876,-576.822,0,0
283341,140.331,-576.15,0,0
283601,139.813,-575.358,0,0
283862,139.394,-574.492,0,0
284122,139.042,-573.593,0,0
284382,138.776,-572.774,0,0
284643,138.498,-571.969,0,0
284903,138.263,-571.192,0,0
285163,137.963,-570.393,0,0
285424,137.727,-569.662,0,0
285684,137.418,-568.975,0,0
285944,137.066,-568.264,0,0
286205,136.672,-567.555,0,0
286465,136.207,-566.853,0,0
286725,135.66,-566.069,0,0
286986,135.014,-565.202,0,0
287246,134.321,-564.177,0,0
287506,133.651,-562.985,0,0
287767,133.027,-561.637,0,0
288027,132.491,-560.094,0,0
288287,132.137,-558.391,0,0
288548,132.047,-556.636,0,0
288808,132.177,-554.861,0,0
289068,132.512,-553.107,0,0
289329,133.086,-551.477,0,0
289589,133.881,-549.975,0,0
289849,134.755,-548.714,0,0
290109,135.79,-547.69,0,0
290370,136.755,-546.926,0,0
290630,137.614,-546.418,0,0
290890,138.384,-546.007,0,0
291151,138.959,-545.676,0,0
291411,139.454,-545.384,0,0
291671,139.861,-545.165,0,0
291932,140.06,-544.889,0,0
292192,140.29,-544.743,0,0
292452,140.371,-544.622,0,0
292713,140.272,-544.429,0,0
292973,140.064,-544.153,0,0
293233,139.758,-543.787,0,0
293494,139.405,-543.261,0,0
293754,138.989,-542.626,0,0
294014,138.594,-541.849,0,0
294275,138.238,-540.951,0,0
294535,137.944,-539.949,0,0
294795,137.695,-538.853,0,0
295056,137.542,-537.7,0,0
295316,137.408,-536.438,0,0
295576,137.46,-535.075,0,0
295837,137.641,-533.694,0,0
296097,137.989,-532.326,0,0
296357,138.47,-530.945,0,0
296618,139.1,-529.635,0,0
296878,139.837,-528.437,0,0
297138,140.647,-527.344,0,0
297399,141.47,-526.341,0,0
297659,142.333,-525.423,0,0
297919,143.208,-524.597,0,0
298180,144.044,-523.794,0,0
298440,144.904,-523.045,0,0
298700.2,145.778,-522.278,0,0
298960.525,146.73,-521.514,0,0
299220.85,147.676,-520.87,0,0
299481.175,148.7,-520.216,0,0
299741.5,149.669,-519.678,0,0
300001.825,150.641,-519.215,0,0
300262.15,151.683,-518.833,0,0
300522.475,152.663,-518.22,0,0
300782.8,153.829,-517.832,0,0
301043.125,154.943,-517.402,0,0
301303.45,156.152,-517.09,0,0
301563.775,157.423,-516.799,0,0
301824.1,158.775,-516.593,0,0
302084.425,160.129,-516.634,0,0
302344.75,161.455,-516.816,0,0
302605.075,162.795,-517.031,0,0
302865.4,164.105,-517.451,0,0
303125.725,165.164,-517.96,0,0
303386.05,166.337,-518.605,0,0
303646.375,167.352,-519.22,0,0
303906.7,168.123,-519.836,0,0
304167.025,168.969,-520.534,0,0
304427.35,169.744,-521.055,0,0
304687.675,170.573,-521.67,0,0
304948.0,171.342,-522.449,0,0
305208.325,172.059,-523.184,0,0
305468.65,172.749,-523.912,0,0
305728.975,173.411,-524.66,0,0
305989.3,174.071,-525.393,0,0
306249.625,174.809,-526.25,0,0
306509.95,175.574,-527.141,0,0
306770.275,176.156,-528.169,0,0
307030.6,176.87,-529.338,0,0
307290.925,177.395,-530.625,0,0
307551.25,177.746,-532.019,0,0
307811.575,177.975,-533.387,0,0
308071.9,178.083,-534.791,0,0
308332.225,177.985,-536.126,0,0
308592.55,177.81,-537.387,0,0
308852.875,177.549,-538.683,0,0
309113.2,177.227,-539.8,0,0
309373.525,176.981,-540.869,0,0
309633.85,176.673,-541.979,0,0
309894.175,176.342,-543.031,0,0
310154.5,176.051,-544.118,0,0
310414.825,175.756,-545.23,0,0
310675.15,175.391,-546.525,0,0
310935.475,174.932,-547.682,0,0
311195.8,174.428,-548.858,0,0
311456.125,173.837,-550.149,0,0
311716.45,173.253,-551.568,0,0
311976.775,172.466,-552.849,0,0
312237.1,171.484,-554.204,0,0
312497.425,170.282,-555.445,0,0
312757.75,169.05,-556.606,0,0
313018.075,167.711,-557.586,0,0
313278.4,166.4,-558.47,0,0
313538.725,164.935,-559.288,0,0
313799.05,163.565,-559.915,0,0
314059.375,162.103,-560.512,0,0
314319.7,160.694,-561.067,0,0
314580,159.412,-561.315,0,0
314840,158.052,-561.741,0,0
315101,156.859,-562.005,0,0
315361,155.679,-562.333,0,0
315621,154.663,-562.776,0,0
315882,153.373,-563.205,0,0
316142,152.114,-563.717,0,0
316402,150.731,-564.141,0,0
316663,149.475,-564.511,0,0
316923,147.931,-564.879,0,0
317183,146.501,-565.154,0,0
317444,144.954,-565.457,0,0
317704,143.379,-565.595,0,0
317964,141.811,-565.74,0,0
318225,140.188,-565.765,0,0
318485,138.548,-565.724,0,0
318745,136.983,-565.707,0,0
319006,135.339,-565.556,0,0
319266,133.731,-565.274,0,0
319526,132.108,-565.032,0,0
319787,130.445,-564.782,0,0
320047,128.805,-564.234,0,0
320307,127.192,-563.845,0,0
320567,125.622,-563.304,0,0
320828,124.1,-562.682,0,0
321088,122.5,-562.051,0,0
321348,121.006,-561.323,0,0
321609,119.478,-560.581,0,0
321869,118.019,-559.606,0,0
322129,116.67,-558.684,0,0
322390,115.306,-557.714,0,0
322650,113.996,-556.609,0,0
322910,112.883,-555.523,0,0
323171,111.757,-554.256,0,0
323431,110.655,-553.042,0,0
323691,109.767,-551.778,0,0
323952,108.912,-550.506,0,0
324212,108.242,-549.366,0,0
324472,107.6,-548.109,0,0
324733,107.092,-547.071,0,0
324993,106.597,-545.948,0,0
325253,106.073,-544.888,0,0
325514,105.666,-543.835,0,0
325774,105.356,-542.833,0,0
326034,105.034,-541.909,0,0
326295,104.769,-541.011,0,0
326555,104.481,-540.147,0,0
326815,104.336,-539.328,0,0
327076,104.211,-538.652,0,0
327336,103.994,-537.986,0,0
327596,103.828,-537.376,0,0
327857,103.613,-536.906,0,0
328117,103.395,-536.423,0,0
328377,103.167,-535.927,0,0
328638,102.91,-535.464,0,0
328898,102.595,-535.143,0,0
329158,102.281,-534.803,0,0
329419,101.977,-534.504,0,0
329679,101.456,-534.236,0,0
329939,101.141,-533.919,0,0
330200,100.574,-533.615,0,0
330460,100.091,-533.318,0,0
330720.15,99.5213,-533.038,0,0
330980.475,98.9342,-532.71,0,0
331240.8,98.3029,-532.368,0,0
331501.125,97.7696,-532.019,0,0
331761.45,97.1049,-531.655,0,0
332021.775,96.5152,-531.264,0,0
332282.1,95.8262,-530.933,0,0
332542.425,95.1894,-530.52,0,0
332802.75,94.5797,-530.189,0,0
333063.075,93.8899,-529.733,0,0
333323.4,93.1537,-529.339,0,0
333583.725,92.4304,-528.983,0,0
333844.05,91.7136,-528.535,0,0
334104.375,90.9871,-528.141,0,0
334364.7,90.128,-527.653,0,0
334625.025,89.3817,-527.116,0,0
334885.35,88.5076,-526.62,0,0
335145.675,87.6567,-526.004,0,0
335406.0,86.868,-525.383,0,0
335666.325,85.9697,-524.719,0,0
335926.65,85.2368,-524.039,0,0
336186.975,84.539,-523.325,0,0
336447.3,83.7842,-522.613,0,0
336707.625,83.031,-521.914,0,0
336967.95,82.3895,-521.08,0,0
337228.275,81.649,-520.366,0,0
337488.6,80.9585,-519.638,0,0
337748.925,80.3078,-518.874,0,0
338009.25,79.6261,-518.04,0,0
338269.575,78.9896,-517.231,0,0
338529.9,78.3679,-516.36,0,0
338790.225,77.726,-515.578,0,0
339050.55,77.1222,-514.712,0,0
339310.875,76.488,-513.941,0,0
339571.2,75.9775,-513.025,0,0
339831.525,75.5077,-512.182,0,0
340091.85,74.9408,-511.379,0,0
340352.175,74.4561,-510.522,0,0
340612.5,73.9819,-509.671,0,0
340872.825,73.4749,-508.794,0,0
341133.15,73.0659,-508.03,0,0
341393.475,72.6581,-507.149,0,0
341653.8,72.1861,-506.354,0,0
341914.125,71.7784,-505.52,0,0
342174.45,71.2986,-504.735,0,0
342434.775,70.8875,-503.996,0,0
342695.1,70.4447,-503.166,0,0
342955.425,70.0584,-502.43,0,0
343215.75,69.6066,-501.556,0,0
343476.075,69.1458,-500.834,0,0
343736.4,68.7607,-500.016,0,0
343996.725,68.2636,-499.155,0,0
344257.05,67.904,-498.392,0,0
344517.375,67.4306,-497.556,0,0
344777.7,67.0552,-496.792,0,0
345038.025,66.6063,-495.922,0,0
345298.35,66.2104,-495.043,0,0
345558.675,65.7973,-494.217,0,0
345819.0,65.3939,-493.398,0,0
346079.325,64.9938,-492.576,0,0
346339.65,64.5917,-491.717,0,0
346599.975,64.1617,-490.806,0,0
346860,63.7935,-489.972,0,0
347121,63.4167,-489.106,0,0
347381,63.0476,-488.217,0,0
347641,62.6704,-487.233,0,0
347902,62.3049,-486.303,0,0
348162,62.0216,-485.336,0,0
348422,61.7321,-484.362,0,0
348683,61.4511,-483.401,0,0
348943,61.3039,-482.463,0,0
349203,61.1016,-481.531,0,0
349464,60.9715,-480.63,0,0
349724,60.773,-479.73,0,0
349984,60.5807,-478.891,0,0
350245,60.4154,-478.037,0,0
350505,60.273,-477.175,0,0
350765,60.1142,-476.301,0,0
351025,59.9316,-475.48,0,0
351286,59.7291,-474.665,0,0
351546,59.5747,-473.714,0,0
351806,59.4569,-472.925,0,0
352067,59.3277,-472.051,0,0
352327,59.2139,-471.252,0,0
352587,59.134,-470.396,0,0
352848,59.0404,-469.575,0,0
353108,58.9435,-468.744,0,0
353368,58.8379,-467.988,0,0
353629,58.8066,-467.217,0,0
353889,58.6808,-466.395,0,0
354149,58.5825,-465.65,0,0
354410,58.4254,-464.867,0,0
354670,58.2744,-464.05,0,0
354930,58.256,-463.311,0,0
355191,58.1217,-462.466,0,0
355451,58.056,-461.689,0,0
355711,57.9701,-460.857,0,0
355972,57.8738,-460.111,0,0
356232,57.8327,-459.326,0,0
356492,57.7449,-458.6,0,0
356753,57.6519,-457.813,0,0
357013,57.6259,-457.072,0,0
357273,57.5093,-456.315,0,0
357534,57.3881,-455.574,0,0
357794,57.3224,-454.799,0,0
358054,57.2355,-453.985,0,0
358315,57.1388,-453.18,0,0
358575,57.1108,-452.4,0,0
358835,57.0696,-451.625,0,0
359096,57.0611,-450.811,0,0
359356,56.9354,-449.967,0,0
359616,56.9433,-449.201,0,0
359877,56.9136,-448.325,0,0
360137,56.9752,-447.575,0,0
360397,56.9751,-446.784,0,0
360658,56.9911,-445.978,0,0
360918,57.0507,-445.259,0,0
361178,57.0715,-444.438,0,0
361438,57.1017,-443.713,0,0
361699,57.1537,-442.956,0,0
361959,57.1595,-442.213,0,0
362219,57.2402,-441.479,0,0
362480,57.2303,-440.726,0,0
362740.1,57.2865,-439.963,0,0
363000.425,57.3392,-439.262,0,0
363260.75,57.3367,-438.484,0,0
363521.075,57.4151,-437.772,0,0
363781.4,57.4111,-436.983,0,0
364041.725,57.5138,-436.211,0,0
364302.05,57.523,-435.449,0,0
364562.375,57.6126,-434.709,0,0
364822.7,57.7231,-433.95,0,0
365083.025,57.8349,-433.199,0,0
365343.35,57.941,-432.42,0,0
365603.675,58.0714,-431.679,0,0
365864.0,58.1803,-430.918,0,0
366124.325,58.2902,-430.242,0,0
366384.65,58.4043,-429.529,0,0
366644.975,58.5311,-428.831,0,0
366905.3,58.6303,-428.15,0,0
367165.625,58.7046,-427.484,0,0
367425.95,58.7538,-426.753,0,0
367686.275,58.7538,-426.057,0,0
367946.6,58.8483,-425.186,0,0
368206.925,58.8764,-424.436,0,0
368467.25,58.9853,-423.547,0,0
368727.575,59.0933,-422.664,0,0
368987.9,59.2218,-421.778,0,0
369248.225,59.4335,-420.822,0,0
369508.55,59.6411,-419.96,0,0
369768.875,59.9202,-419.035,0,0
370029.2,60.3222,-418.211,0,0
370289.525,60.6598,-417.282,0,0
370549.85,61.0673,-416.407,0,0
370810.175,61.4892,-415.498,0,0
371070.5,61.9874,-414.66,0,0
371330.825,62.4887,-413.832,0,0
371591.15,63.014,-413.061,0,0
371851.475,63.6289,-412.283,0,0
372111.8,64.2877,-411.527,0,0
372372.125,64.9469,-410.848,0,0
372632.45,65.6117,-410.242,0,0
372892.775,66.3506,-409.667,0,0
373153.1,67.0593,-409.156,0,0
373413.425,67.7784,-408.711,0,0
373673.75,68.4655,-408.322,0,0
373934.075,69.1125,-407.982,0,0
374194.4,69.7811,-407.647,0,0
374454.725,70.3885,-407.411,0,0
374715.05,71.0114,-407.165,0,0
374975.375,71.5506,-406.976,0,0
375235.7,72.1318,-406.72,0,0
375496.025,72.6687,-406.609,0,0
375756.35,73.1567,-406.386,0,0
376016.675,73.6072,-406.249,0,0
376277.0,74.1113,-406.115,0,0
376537.325,74.5527,-405.884,0,0
376797.65,74.9713,-405.777,0,0
377057.975,75.4045,-405.614,0,0
377318.3,75.8072,-405.512,0,0
377578.625,76.2543,-405.356,0,0
377838.95,76.703,-405.262,0,0
378099.275,77.1256,-405.172,0,0
378359.6,77.4952,-405.069,0,0
378619.925,77.9048,-405.063,0,0
378880,78.2601,-404.996,0,0
379141,78.6559,-404.955,0,0
379401,78.9998,-404.956,0,0
379661,79.3475,-404.933,0,0
379922,79.6357,-404.897,0,0
380182,79.8734,-404.85,0,0
380442,80.2248,-404.747,0,0
380703,80.5259,-404.667,0,0
380963,80.9804,-404.596,0,0
381223,81.4125,-404.6,0,0
381483,81.8877,-404.622,0,0
381744,82.3185,-404.746,0,0
382004,82.7879,-404.957,0,0
382264,83.2346,-405.254,0,0
382525,83.5645,-405.564,0,0
382785,83.8762,-405.948,0,0
383045,84.1036,-406.296,0,0
383306,84.2913,-406.727,0,0
383566,84.414,-407.165,0,0
383826,84.451,-407.602,0,0
384087,84.4547,-408.075,0,0
384347,84.4264,-408.534,0,0
384607,84.3015,-408.986,0,0
384868,84.1169,-409.412,0,0
385128,83.8494,-409.873,0,0
385388,83.5797,-410.213,0,0
385649,83.1927,-410.599,0,0
385909,82.7962,-410.934,0,0
386169,82.3029,-411.235,0,0
386430,81.8303,-411.454,0,0
386690,81.275,-411.643,0,0
386950,80.7108,-411.797,0,0
387211,80.1069,-411.813,0,0
387471,79.5684,-411.85,0,0
387731,78.9741,-411.801,0,0
387992,78.4371,-411.662,0,0
388252,77.8374,-411.516,0,0
388512,77.3542,-411.372,0,0
388773,76.8752,-411.152,0,0
389033,76.3653,-410.949,0,0
389293,75.8947,-410.725,0,0
389554,75.4346,-410.463,0,0
389814,74.98,-410.161,0,0
390074,74.6007,-409.871,0,0
390335,74.1992,-409.611,0,0
390595,73.8374,-409.286,0,0
390855,73.4967,-408.964,0,0
391116,73.1903,-408.671,0,0
391376,72.8608,-408.414,0,0
391636,72.5507,-408.182,0,0
391896,72.2255,-407.917,0,0
392157,71.8918,-407.72,0,0
392417,71.5501,-407.54,0,0
392677,71.1408,-407.354,0,0
392938,70.7058,-407.224,0,0
393198,70.2652,-406.997,0,0
393458,69.71,-406.778,0,0
393719,69.199,-406.477,0,0
393979,68.6685,-406.187,0,0
394239,68.1027,-405.845,0,0
394500,67.5053,-405.455,0,0
394760.05,66.9273,-405.011,0,0
395020.375,66.3835,-404.521,0,0
395280.7,65.8533,-404.011,0,0
395541.025,65.3273,-403.484,0,0
395801.35,64.8498,-402.898,0,0
396061.675,64.3319,-402.296,0,0
396322.0,63.8652,-401.641,0,0
396582.325,63.4053,-401.036,0,0
396842.65,63.0305,-400.323,0,0
397102.975,62.6001,-399.632,0,0
397363.3,62.3025,-398.945,0,0
397623.625,61.92,-398.217,0,0
397883.95,61.6584,-397.522,0,0
398144.275,61.377,-396.82,0,0
398404.6,61.1127,-396.104,0,0
398664.925,60.8579,-395.384,0,0
398925.25,60.6531,-394.678,0,0
399185.575,60.4555,-393.946,0,0
399445.9,60.2515,-393.237,0,0
399706.225,60.0802,-392.531,0,0
399966.55,59.9679,-391.787,0,0
400006.6,59.8958,-391.724,0,0