File: Accelerated corrosion test data/2025-10-18_06-00-03/sample_4.csv
Frequency (Hz),Impedance (ohms),Phase (Radians),Temperature (C),Humidity (%)
10000.0,266.592,-11960.3,0,0
10260.325,263.277,-11661.1,0,0
10520.65,253.611,-11373.7,0,0
10780.975,247.913,-11100.9,0,0
11041.3,242.909,-10840.4,0,0
11301.625,237.442,-10596,0,0
11561.95,231.773,-10358,0,0
11822.275,226.94,-10131.7,0,0
12082.6,222.374,-9914.76,0,0
12342.925,218.083,-9706.34,0,0
12603.25,216.055,-9506.09,0,0
12863.575,210.755,-9318.03,0,0
13123.9,208.945,-9139.01,0,0
13384.225,202.006,-8957.67,0,0
13644.55,198.27,-8785.74,0,0
13904.875,196.177,-8617.38,0,0
14165.2,198.043,-8453.88,0,0
14425.525,201.196,-8302.64,0,0
14685.8,198.285,-8192.93,0,0
14946.175,183.963,-8034.85,0,0
15206.5,182.565,-7888.21,0,0
15466.825,196.286,-7741.57,0,0
15727.15,191.088,-7643.99,0,0
15987.5,186.748,-7528.16,0,0
16247.8,173.019,-7397.15,0,0
16508.125,196.215,-7271.89,0,0
16768.45,183.451,-7169.61,0,0
17028.775,170.496,-7079.75,0,0
17289.1,162.3,-6964.79,0,0
17549.425,160.851,-6860.63,0,0
17809.75,157.802,-6759.68,0,0
18070.075,154.297,-6659.58,0,0
18330.4,156.898,-6563.82,0,0
18590.725,153.662,-6474.66,0,0
18851.05,151.286,-6388.97,0,0
19111.375,147.202,-6298.82,0,0
19371.7,144.473,-6212.71,0,0
19632.025,143.738,-6128.12,0,0
19892.35,146.147,-6047.36,0,0
20152.675,145.504,-5970.06,0,0
20413.0,142.299,-5895.27,0,0
20673.3,143.126,-5819.63,0,0
20933.65,139.047,-5746.35,0,0
21193.975,142.192,-5670.78,0,0
21454.3,154.376,-5604.52,0,0
21714.625,148.088,-5547.64,0,0
21974.9,153.625,-5478.99,0,0
22235.275,151.649,-5429.27,0,0
22495.6,137.359,-5374.35,0,0
22755.925,129.629,-5308.88,0,0
23016.25,126.696,-5246.12,0,0
23276.6,124.325,-5185.63,0,0
23536.9,122.762,-5128.04,0,0
23797.225,120.167,-5070.32,0,0
24057.55,118.692,-5014.34,0,0
24317.875,117.683,-4959.78,0,0
24578.2,116.269,-4905.53,0,0
24838.525,115.602,-4852.81,0,0
25098.85,116.022,-4802.19,0,0
25359.175,114.031,-4754.18,0,0
25619.5,113.382,-4704.7,0,0
25879.8,112.045,-4659.61,0,0
26140.1,109.377,-4610.92,0,0
26400.5,108.306,-4563.55,0,0
26660.8,108.019,-4516.81,0,0
26921.1,107.752,-4473.36,0,0
27181.4,106.787,-4427.72,0,0
27441.8,107.58,-4382.74,0,0
27702.1,111.481,-4337.35,0,0
27962.4,117.884,-4297.86,0,0
28222.7,122.638,-4269.16,0,0
28483.1,114.075,-4235.85,0,0
28743.4,112.074,-4192.34,0,0
29003.7,112.752,-4151.58,0,0
29264,117.966,-4116.61,0,0
29524.4,116.582,-4089.44,0,0
29784.7,109.719,-4056.82,0,0
30045,108.674,-4020.47,0,0
30305.3,102.767,-3985.89,0,0
30565.7,101.725,-3949.39,0,0
30826,100.128,-3915.42,0,0
31086.3,99.4865,-3881.01,0,0
31346.6,101.074,-3847.43,0,0
31607,99.5122,-3816.45,0,0
31867.3,98.3077,-3784.26,0,0
32127.6,102.271,-3753.6,0,0
32387.9,99.4121,-3727.72,0,0
32648.3,98.631,-3697.57,0,0
32908.6,95.8325,-3670.92,0,0
33168.9,93.0077,-3640.8,0,0
33429.2,91.328,-3611.9,0,0
33689.6,89.8535,-3582.83,0,0
33949.9,88.6192,-3554.3,0,0
34210.2,89.1182,-3526.11,0,0
34470.5,86.7794,-3500.18,0,0
34730.9,85.8682,-3472.4,0,0
34991.2,85.5677,-3445.84,0,0
35251.5,85.1579,-3419.72,0,0
35511.8,84.1117,-3394.17,0,0
35772.2,83.4437,-3368.86,0,0
36032.5,82.7075,-3344.11,0,0
36292.8,81.7533,-3319,0,0
36553.1,81.5429,-3294.19,0,0
36813.5,81.5585,-3269.99,0,0
37073.8,81.7744,-3247.62,0,0
37334.1,80.2516,-3224.6,0,0
37594.4,79.9134,-3200.85,0,0
37854.8,79.5932,-3178.47,0,0
38115.1,78.7685,-3156.51,0,0
38375.4,78.2735,-3133.59,0,0
38635.7,78.0191,-3111.48,0,0
38896.1,78.2862,-3089.89,0,0
39156.4,77.8188,-3068.62,0,0
39416.7,77.4839,-3047.52,0,0
39677,77.4348,-3025.9,0,0
39937.4,78.0132,-3005.11,0,0
40197.7,79.6773,-2984.35,0,0
40458,82.0025,-2967.08,0,0
40718.3,78.8832,-2948.37,0,0
40978.7,80.0214,-2927.78,0,0
41239,81.4377,-2909.15,0,0
41499.3,83.0589,-2893,0,0
41759.6,80.1545,-2876.86,0,0
42020,78.4283,-2858.45,0,0
42280.275,78.0773,-2838.65,0,0
42540.6,79.9536,-2821.83,0,0
42800.925,78.1389,-2806.87,0,0
43061.25,76.8969,-2787.97,0,0
43321.575,77.0813,-2771.98,0,0
43581.9,75.0665,-2755.15,0,0
43842.225,74.3425,-2737.37,0,0
44102.55,74.3202,-2721.39,0,0
44362.875,73.2329,-2704.15,0,0
44623.2,73.2431,-2687.62,0,0
44883.525,72.8153,-2671.86,0,0
45143.85,71.7834,-2655.42,0,0
45404.175,71.6097,-2638.83,0,0
45664.5,72.4567,-2622.58,0,0
45924.825,72.8712,-2607.98,0,0
46185.15,72.1868,-2594.07,0,0
46445.475,71.658,-2577.74,0,0
46705.8,72.2877,-2563.1,0,0
46966.125,72.1732,-2548.44,0,0
47226.45,73.0432,-2534.71,0,0
47486.775,71.861,-2522.33,0,0
47747.1,70.4644,-2507.8,0,0
48007.425,69.9726,-2493.31,0,0
48267.75,69.2937,-2479.4,0,0
48528.075,68.8479,-2465.98,0,0
48788.4,67.6339,-2452.18,0,0
49048.725,66.58,-2437.79,0,0
49309.05,67.0759,-2423.95,0,0
49569.375,66.0995,-2410.85,0,0
49829.7,65.614,-2396.75,0,0
50090.025,65.3672,-2383.63,0,0
50350.35,64.9768,-2370.15,0,0
50610.675,64.9444,-2357.09,0,0
50871.0,64.6614,-2343.91,0,0
51131.325,64.4696,-2330.77,0,0
51391.65,64.4373,-2317.81,0,0
51651.975,64.7092,-2305.26,0,0
51912.3,64.2448,-2292.42,0,0
52172.625,64.5606,-2279.6,0,0
52432.95,64.7185,-2267.2,0,0
52693.275,65.0552,-2254.18,0,0
52953.6,66.221,-2241.6,0,0
53213.925,67.0832,-2229.94,0,0
53474.25,67.9964,-2218.02,0,0
53734.575,68.9894,-2205.64,0,0
53994.9,71.9405,-2194.29,0,0
54255.225,74.077,-2184.27,0,0
54515.55,76.8462,-2175.88,0,0
54775.875,76.6065,-2169.06,0,0
55036.2,74.5546,-2159.66,0,0
55296.525,74.4988,-2150.68,0,0
55556.85,72.0677,-2141.46,0,0
55817.175,70.577,-2131.19,0,0
56077.5,68.7181,-2120.59,0,0
56337.825,67.4928,-2109.89,0,0
56598.15,66.1919,-2098.42,0,0
56858.475,66.1043,-2086.74,0,0
57118.8,66.4312,-2076.01,0,0
57379.125,66.3701,-2065.69,0,0
57639.45,66.5905,-2055.03,0,0
57899.775,66.6351,-2045.04,0,0
58160.1,66.7198,-2034.28,0,0
58420.4,67.9897,-2023.78,0,0
58680.7,68.3401,-2015.16,0,0
58941.1,68.037,-2004.62,0,0
59201.4,69.0029,-1994.15,0,0
59461.7,70.5219,-1983.65,0,0
59722,73.106,-1974.51,0,0
59982.4,75.6239,-1966.72,0,0
60242.7,76.5181,-1959.28,0,0
60503,77.8281,-1951.27,0,0
60763.3,80.8003,-1944.63,0,0
61023.7,81.0263,-1941.04,0,0
61284,78.9369,-1936.18,0,0
61544.3,74.7917,-1930.15,0,0
61804.6,71.6136,-1920.45,0,0
62065,70.2779,-1911.53,0,0
62325.3,69.051,-1903.56,0,0
62585.6,66.2283,-1894.72,0,0
62845.9,65.0215,-1884.47,0,0
63106.3,64.3557,-1874.83,0,0
63366.6,64.5625,-1865.58,0,0
63626.9,64.5468,-1856.9,0,0
63887.2,64.3863,-1848.58,0,0
64147.6,63.3411,-1839.76,0,0
64407.9,63.8027,-1830.27,0,0
64668.2,64.6996,-1822.07,0,0
64928.5,65.0157,-1814.23,0,0
65188.9,64.6528,-1806.08,0,0
65449.2,65.0039,-1797.68,0,0
65709.5,65.1409,-1789.15,0,0
65969.8,66.5388,-1780.84,0,0
66230.2,67.4804,-1773.68,0,0
66490.5,68.2443,-1766.56,0,0
66750.8,68.5156,-1759.44,0,0
67011.1,68.6022,-1751.73,0,0
67271.5,69.6099,-1744.1,0,0
67531.8,70.9303,-1737.34,0,0
67792.1,72.0991,-1730.85,0,0
68052.4,73.2038,-1724.66,0,0
68312.8,74.2488,-1719.38,0,0
68573.1,74.557,-1714.5,0,0
68833.4,74.1539,-1709.87,0,0
69093.7,72.8055,-1705,0,0
69354.1,70.5737,-1699.35,0,0
69614.4,68.6652,-1692.46,0,0
69874.7,67.2144,-1685.73,0,0
70135,65.8394,-1678.61,0,0
70395.4,64.6713,-1671.25,0,0
70655.7,64.5214,-1662.84,0,0
70916,65.6061,-1656.53,0,0
71176.3,65.0401,-1650.45,0,0
71436.7,65.1914,-1644.19,0,0
71697,64.7214,-1639.2,0,0
71957.3,62.5536,-1633.54,0,0
72217.6,60.7944,-1626.55,0,0
72478,59.522,-1619.01,0,0
72738.3,58.9819,-1611.88,0,0
72998.6,57.8611,-1604.79,0,0
73258.9,57.3548,-1596.98,0,0
73519.3,57.5426,-1589.6,0,0
73779.6,57.9223,-1582.41,0,0
74039.9,58.1593,-1575.9,0,0
74300.225,58.1664,-1568.99,0,0
74560.55,58.5887,-1562.25,0,0
74820.875,58.996,-1555.59,0,0
75081.2,59.7788,-1548.93,0,0
75341.525,60.5937,-1543.08,0,0
75601.85,60.9412,-1537.13,0,0
75862.175,61.3528,-1531.23,0,0
76122.5,61.8611,-1525.34,0,0
76382.825,62.3643,-1519.84,0,0
76643.15,62.4361,-1514.23,0,0
76903.475,62.2389,-1508.16,0,0
77163.8,63.1325,-1501.62,0,0
77424.125,64.5804,-1496.23,0,0
77684.45,65.6903,-1491.43,0,0
77944.775,66.3915,-1487.12,0,0
78205.1,66.4444,-1482.81,0,0
78465.425,66.2561,-1478.4,0,0
78725.75,65.7259,-1474.04,0,0
78986.075,64.8289,-1469.31,0,0
79246.4,63.9769,-1464.23,0,0
79506.725,63.1571,-1458.86,0,0
79767.05,62.6495,-1453.4,0,0
80027.375,62.1549,-1448.04,0,0
80287.7,61.7668,-1442.47,0,0
80548.025,61.5668,-1436.92,0,0
80808.35,61.5272,-1431.55,0,0
81068.675,61.5945,-1426.37,0,0
81329.0,61.5856,-1421.35,0,0
81589.325,61.4744,-1416.31,0,0
81849.65,61.2395,-1411.41,0,0
82109.975,60.9026,-1406.43,0,0
82370.3,60.7544,-1401.43,0,0
82630.625,60.4761,-1396.49,0,0
82890.95,60.2286,-1391.61,0,0
83151.275,59.8952,-1386.59,0,0
83411.6,59.6114,-1381.66,0,0
83671.925,59.2905,-1376.68,0,0
83932.25,59.0523,-1371.69,0,0
84192.575,58.78,-1366.76,0,0
84452.9,58.5814,-1361.9,0,0
84713.225,58.3299,-1356.93,0,0
84973.55,58.0943,-1352.09,0,0
85233.875,57.9306,-1347.2,0,0
85494.2,57.6862,-1342.46,0,0
85754.525,57.3599,-1337.67,0,0
86014.85,57.1107,-1332.77,0,0
86275.175,57.0189,-1327.89,0,0
86535.5,56.8492,-1323.12,0,0
86795.825,56.7136,-1318.52,0,0
87056.15,56.4856,-1313.9,0,0
87316.475,56.1919,-1309.19,0,0
87576.8,55.9515,-1304.65,0,0
87837.125,55.641,-1300.09,0,0
88097.45,55.1079,-1295.53,0,0
88357.775,54.58,-1290.54,0,0
88618.1,54.3778,-1285.56,0,0
88878.425,54.1831,-1280.8,0,0
89138.75,53.9431,-1276,0,0
89399.075,53.9195,-1271.04,0,0
89659.4,53.9991,-1266.19,0,0
89919.725,53.9795,-1261.62,0,0
90180,53.9584,-1256.98,0,0
90440.4,53.9003,-1252.42,0,0
90700.7,53.843,-1247.8,0,0
90961,53.8307,-1243.25,0,0
91221.3,53.7501,-1238.56,0,0
91481.7,53.7349,-1233.85,0,0
91742,53.9093,-1229.2,0,0
92002.3,54.0915,-1224.57,0,0
92262.6,54.4195,-1220.06,0,0
92523,54.8274,-1215.74,0,0
92783.3,55.1156,-1211.46,0,0
93043.6,55.4571,-1207.32,0,0
93303.9,55.7803,-1203.45,0,0
93564.3,55.8462,-1199.63,0,0
93824.6,55.6845,-1195.92,0,0
94084.9,55.3368,-1192.04,0,0
94345.2,54.7845,-1188,0,0
94605.6,54.2817,-1183.71,0,0
94865.9,53.8958,-1179.25,0,0
95126.2,53.7078,-1174.76,0,0
95386.5,53.4992,-1170.32,0,0
95646.9,53.4653,-1165.9,0,0
95907.2,53.3529,-1161.37,0,0
96167.5,53.4261,-1156.89,0,0
96427.8,53.5467,-1152.52,0,0
96688.2,53.6559,-1148.26,0,0
96948.5,53.6554,-1143.93,0,0
97208.8,53.7982,-1139.55,0,0
97469.1,54.002,-1135.22,0,0
97729.5,54.0098,-1130.94,0,0
97989.8,54.1964,-1126.58,0,0
98250.1,54.4485,-1122.21,0,0
98510.4,54.7465,-1117.89,0,0
98770.8,55.114,-1113.55,0,0
99031.1,55.6708,-1109.24,0,0
99291.4,56.208,-1105.16,0,0
99551.7,56.675,-1101.23,0,0
99812.1,56.916,-1097.16,0,0
100072,57.3632,-1092.93,0,0
100333,58.0873,-1088.71,0,0
100593,59.1044,-1084.79,0,0
100853,59.9937,-1081.32,0,0
101114,60.5856,-1077.93,0,0
101374,61.3346,-1074.56,0,0
101634,61.9348,-1071.76,0,0
101895,61.7977,-1069.17,0,0
102155,61.0427,-1066.14,0,0
102415,60.1908,-1062.65,0,0
102676,59.3962,-1058.74,0,0
102936,58.5531,-1054.62,0,0
103196,57.8972,-1050.06,0,0
103457,57.58,-1045.3,0,0
103717,57.6152,-1040.42,0,0
103977,57.9203,-1035.71,0,0
104238,58.1868,-1031.03,0,0
104498,58.7116,-1026.2,0,0
104758,59.568,-1021.44,0,0
105019,60.549,-1016.94,0,0
105279,61.5654,-1012.5,0,0
105539,62.7365,-1008.16,0,0
105800,64.0029,-1003.93,0,0
106060,65.2567,-999.859,0,0
106320.175,66.6189,-995.897,0,0
106580.5,67.9357,-992.091,0,0
106840.825,69.265,-988.348,0,0
107101.15,70.5232,-984.684,0,0
107361.475,71.7572,-981.073,0,0
107621.8,72.9348,-977.396,0,0
107882.125,74.279,-973.616,0,0
108142.45,75.7497,-969.901,0,0
108402.775,77.4596,-966.281,0,0
108663.1,79.174,-962.911,0,0
108923.425,80.9079,-959.672,0,0
109183.75,82.7566,-956.533,0,0
109444.075,84.6617,-953.717,0,0
109704.4,86.3639,-951.134,0,0
109964.725,87.7708,-948.548,0,0
110225.05,89.3459,-945.957,0,0
110485.375,90.901,-943.485,0,0
110745.7,92.2784,-941.162,0,0
111006.025,93.476,-938.974,0,0
111266.35,94.6523,-936.616,0,0
111526.675,95.7982,-934.289,0,0
111787.0,96.9653,-931.845,0,0
112047.325,98.2072,-929.526,0,0
112307.65,99.4009,-927.409,0,0
112567.975,100.579,-925.312,0,0
112828.3,101.696,-923.271,0,0
113088.625,102.82,-921.286,0,0
113348.95,103.776,-919.465,0,0
113609.275,104.689,-917.658,0,0
113869.6,105.508,-915.79,0,0
114129.925,106.231,-914.027,0,0
114390.25,106.968,-912.187,0,0
114650.575,107.66,-910.432,0,0
114910.9,108.419,-908.717,0,0
115171.225,108.872,-907.275,0,0
115431.55,109.266,-905.709,0,0
115691.875,109.485,-904.024,0,0
115952.2,109.705,-902.322,0,0
116212.525,109.888,-900.595,0,0
116472.85,109.995,-898.907,0,0
116733.175,109.965,-897.187,0,0
116993.5,109.898,-895.364,0,0
117253.825,109.674,-893.475,0,0
117514.15,109.471,-891.335,0,0
117774.475,109.37,-889.15,0,0
118034.8,109.324,-886.816,0,0
118295.125,109.349,-884.599,0,0
118555.45,109.36,-882.195,0,0
118815.775,109.371,-879.677,0,0
119076.1,109.784,-876.792,0,0
119336.425,110.865,-874.059,0,0
119596.75,112.165,-871.832,0,0
119857.075,113.763,-869.874,0,0
120117.4,115.833,-869.033,0,0
120377.725,116.917,-869.373,0,0
120638.05,116.83,-869.78,0,0
120898.375,115.83,-869.956,0,0
121158.7,114.277,-869.403,0,0
121419.025,112.588,-868.191,0,0
121679.35,110.982,-866.608,0,0
121939.675,109.444,-864.639,0,0
122200.0,108.043,-862.432,0,0
122460,106.822,-860.037,0,0
122721,105.818,-857.582,0,0
122981,104.908,-855.101,0,0
123241,104.072,-852.538,0,0
123502,103.365,-849.936,0,0
123762,102.754,-847.369,0,0
124022,102.161,-844.813,0,0
124283,101.632,-842.25,0,0
124543,101.143,-839.675,0,0
124803,100.706,-837.032,0,0
125064,100.48,-834.401,0,0
125324,100.384,-831.934,0,0
125584,100.314,-829.641,0,0
125845,100.236,-827.497,0,0
126105,100.042,-825.524,0,0
126365,99.7563,-823.668,0,0
126626,99.2342,-821.885,0,0
126886,98.5353,-820.034,0,0
127146,97.667,-818.128,0,0
127406,96.8499,-815.838,0,0
127667,96.211,-813.901,0,0
127927,95.3662,-812.06,0,0
128187,94.2129,-810.178,0,0
128448,92.8969,-808.177,0,0
128708,91.4809,-806.092,0,0
128968,89.8688,-803.892,0,0
129229,88.0069,-801.4,0,0
129489,86.1337,-798.494,0,0
129749,84.3998,-795.323,0,0
130010,82.8065,-791.941,0,0
130270,81.4889,-788.456,0,0
130530,80.2521,-784.947,0,0
130791,79.0385,-781.369,0,0
131051,77.9341,-777.652,0,0
131311,76.9873,-773.862,0,0
131572,76.195,-770.062,0,0
131832,75.5033,-766.319,0,0
132092,74.8431,-762.481,0,0
132353,74.239,-758.629,0,0
132613,73.7707,-754.754,0,0
132873,73.4465,-750.913,0,0
133134,73.1426,-747.059,0,0
133394,72.8684,-743.273,0,0
133654,72.6357,-739.395,0,0
133915,72.5482,-735.538,0,0
134175,72.5051,-731.702,0,0
134435,72.4709,-727.883,0,0
134696,72.4565,-724.055,0,0
134956,72.569,-720.156,0,0
135216,72.7957,-716.292,0,0
135477,73.0621,-712.515,0,0
135737,73.3903,-708.769,0,0
135997,73.7281,-705.041,0,0
136258,74.0436,-701.327,0,0
136518,74.492,-697.598,0,0
136778,74.9708,-693.935,0,0
137039,75.524,-690.362,0,0
137299,76.0238,-686.944,0,0
137559,76.3573,-683.484,0,0
137819,76.6391,-679.967,0,0
138080,76.8931,-676.342,0,0
138340.125,77.2287,-672.595,0,0
138600.45,77.6532,-668.846,0,0
138860.775,78.0795,-665.098,0,0
139121.1,78.5648,-661.232,0,0
139381.425,79.2039,-657.348,0,0
139641.75,79.8847,-653.524,0,0
139902.075,80.5467,-649.707,0,0
140162.4,81.2974,-645.785,0,0
140422.725,82.15,-641.865,0,0
140683.05,83.121,-637.967,0,0
140943.375,84.1617,-634.098,0,0
141203.7,85.2873,-630.291,0,0
141464.025,86.4298,-626.531,0,0
141724.35,87.6556,-622.833,0,0
141984.675,88.8984,-619.177,0,0
142245.0,90.1224,-615.579,0,0
142505.325,91.3461,-612.01,0,0
142765.65,92.5818,-608.394,0,0
143025.975,93.8584,-604.807,0,0
143286.3,95.1692,-601.218,0,0
143546.625,96.4802,-597.673,0,0
143806.95,97.7867,-594.154,0,0
144067.275,99.0948,-590.589,0,0
144327.6,100.455,-587.048,0,0
144587.925,101.776,-583.504,0,0
144848.25,103.133,-579.886,0,0
145108.575,104.52,-576.267,0,0
145368.9,105.849,-572.538,0,0
145629.225,107.337,-568.759,0,0
145889.55,108.913,-564.986,0,0
146149.875,110.614,-561.191,0,0
146410.2,112.347,-557.395,0,0
146670.525,114.199,-553.591,0,0
146930.85,116.149,-549.84,0,0
147191.175,118.12,-546.132,0,0
147451.5,120.118,-542.426,0,0
147711.825,122.234,-538.727,0,0
147972.15,124.355,-535.067,0,0
148232.475,126.51,-531.343,0,0
148492.8,128.843,-527.612,0,0
148753.125,131.214,-523.923,0,0
149013.45,133.689,-520.267,0,0
149273.775,136.236,-516.687,0,0
149534.1,138.731,-513.134,0,0
149794.425,141.2,-509.489,0,0
150054.75,143.846,-505.674,0,0
150315.075,146.676,-501.84,0,0
150575.4,149.75,-497.999,0,0
150835.725,153.091,-494.249,0,0
151096.05,156.558,-490.674,0,0
151356.375,160.084,-487.18,0,0
151616.7,163.732,-483.745,0,0
151877.025,167.534,-480.355,0,0
152137.35,171.606,-476.934,0,0
152397.675,176.081,-473.799,0,0
152658.0,180.691,-471.129,0,0
152918.325,185.207,-468.743,0,0
153178.65,189.758,-466.52,0,0
153438.975,194.384,-464.5,0,0
153699.3,199.13,-462.837,0,0
153959.625,203.704,-461.57,0,0
154219.95,208.06,-460.559,0,0
154480,212.254,-459.8,0,0
154741,216.033,-459.155,0,0
155001,219.426,-458.316,0,0
155261,222.981,-457.154,0,0
155522,226.844,-455.866,0,0
155782,231.101,-455.133,0,0
156042,234.958,-454.924,0,0
156303,238.405,-454.938,0,0
156563,241.475,-454.761,0,0
156823,244.359,-454.277,0,0
157084,247.472,-453.679,0,0
157344,250.497,-453.313,0,0
157604,253.273,-452.89,0,0
157864,256.006,-452.167,0,0
158125,258.824,-451.162,0,0
158385,262.036,-450.047,0,0
158645,265.582,-449.118,0,0
158906,269.252,-448.524,0,0
159166,272.996,-448.148,0,0
159426,276.787,-448.051,0,0
159687,280.384,-448.193,0,0
159947,283.943,-448.396,0,0
160207,287.633,-448.914,0,0
160468,291.232,-449.634,0,0
160728,294.621,-450.946,0,0
160988,297.477,-452.609,0,0
161249,299.699,-454.126,0,0
161509,301.583,-455.305,0,0
161769,303.499,-456.358,0,0
162030,305.233,-457.324,0,0
162290,306.88,-458.353,0,0
162550,308.204,-459.473,0,0
162811,309.074,-460.541,0,0
163071,309.438,-461.104,0,0
163331,309.75,-461.123,0,0
163592,310.174,-460.635,0,0
163852,310.68,-459.798,0,0
164112,311.419,-458.741,0,0
164373,312.24,-457.161,0,0
164633,313.797,-455.463,0,0
164893,315.484,-453.937,0,0
165154,316.977,-452.272,0,0
165414,318.74,-450.001,0,0
165674,321.251,-447.281,0,0
165935,324.603,-444.756,0,0
166195,328.487,-442.501,0,0
166455,332.872,-440.523,0,0
166716,337.591,-438.949,0,0
166976,342.883,-437.679,0,0
167236,348.621,-437.204,0,0
167497,354.537,-437.227,0,0
167757,360.486,-437.897,0,0
168017,366.568,-439.473,0,0
168277,372.345,-441.735,0,0
168538,377.622,-444.247,0,0
168798,382.9,-446.906,0,0
169058,388.562,-450.104,0,0
169319,394.205,-454.325,0,0
169579,399.172,-459.418,0,0
169839,403.635,-464.867,0,0
170100,407.944,-470.902,0,0
170360.075,411.54,-478.04,0,0
170620.4,414.011,-485.828,0,0
170880.725,415.14,-494.006,0,0
171141.05,414.98,-502,0,0
171401.375,413.845,-509.61,0,0
171661.7,412.101,-516.99,0,0
171922.025,409.408,-524.288,0,0
172182.35,405.64,-531.11,0,0
172442.675,401.113,-537.238,0,0
172703.0,395.804,-542.806,0,0
172963.325,389.689,-547.421,0,0
173223.65,383.352,-550.979,0,0
173483.975,376.739,-553.766,0,0
173744.3,369.905,-555.636,0,0
174004.625,363.147,-556.533,0,0
174264.95,356.494,-556.632,0,0
174525.275,350.219,-555.953,0,0
174785.6,344.413,-554.95,0,0
175045.925,338.525,-553.745,0,0
175306.25,332.525,-551.894,0,0
175566.575,326.633,-549.198,0,0
175826.9,321.243,-545.747,0,0
176087.225,316.425,-541.778,0,0
176347.55,312.145,-537.322,0,0
176607.875,308.543,-532.603,0,0
176868.2,305.571,-527.773,0,0
177128.525,303.135,-522.988,0,0
177388.85,301.03,-518.168,0,0
177649.175,299.364,-513.309,0,0
177909.5,298.143,-508.588,0,0
178169.825,297.111,-504.021,0,0
178430.15,296.242,-499.484,0,0
178690.475,295.573,-494.898,0,0
178950.8,295.156,-490.27,0,0
179211.125,295.127,-485.62,0,0
179471.45,295.429,-481.095,0,0
179731.775,296.068,-476.819,0,0
179992.1,296.78,-472.787,0,0
180252.425,297.591,-468.931,0,0
180512.75,298.498,-465.19,0,0
180773.075,299.444,-461.628,0,0
181033.4,300.39,-458.268,0,0
181293.725,301.326,-454.935,0,0
181554.05,302.228,-451.667,0,0
181814.375,303.132,-448.477,0,0
182074.7,303.97,-445.375,0,0
182335.025,304.727,-442.256,0,0
182595.35,305.414,-439.108,0,0
182855.675,306.036,-435.903,0,0
183116.0,306.599,-432.521,0,0
183376.325,307.214,-429.012,0,0
183636.65,307.899,-425.426,0,0
183896.975,308.595,-421.737,0,0
184157.3,309.351,-417.917,0,0
184417.625,310.207,-413.967,0,0
184677.95,311.156,-409.938,0,0
184938.275,312.177,-405.763,0,0
185198.6,313.37,-401.499,0,0
185458.925,314.727,-397.152,0,0
185719.25,316.215,-392.797,0,0
185979.575,317.771,-388.433,0,0
186239.9,319.359,-383.978,0,0
186500,321.049,-379.384,0,0
186761,322.884,-374.743,0,0
187021,324.748,-370.065,0,0
187281,326.804,-365.124,0,0
187542,328.912,-360.104,0,0
187802,331.232,-354.882,0,0
188062,333.783,-349.612,0,0
188322,336.56,-344.115,0,0
188583,339.523,-338.621,0,0
188843,342.778,-333.011,0,0
189103,346.222,-327.309,0,0
189364,349.968,-321.469,0,0
189624,353.908,-315.53,0,0
189884,358.177,-309.566,0,0
190145,362.805,-303.457,0,0
190405,367.796,-297.342,0,0
190665,373.227,-291.313,0,0
190926,378.797,-285.3,0,0
191186,384.717,-279.274,0,0
191446,391.098,-273.186,0,0
191707,397.812,-267.092,0,0
191967,405.033,-261.178,0,0
192227,412.649,-255.277,0,0
192488,420.618,-249.678,0,0
192748,428.972,-244.181,0,0
193008,437.748,-238.946,0,0
193269,446.766,-233.83,0,0
193529,456.098,-229.032,0,0
193789,465.952,-224.265,0,0
194050,476.033,-219.878,0,0
194310,486.48,-215.797,0,0
194570,497.077,-211.861,0,0
194831,508.073,-208.257,0,0
195091,519.311,-204.77,0,0
195351,530.779,-201.494,0,0
195612,542.783,-198.09,0,0
195872,555.197,-195.065,0,0
196132,568.201,-192.328,0,0
196393,581.711,-189.884,0,0
196653,595.748,-187.83,0,0
196913,610.35,-186.167,0,0
197174,625.518,-185.018,0,0
197434,641.192,-184.404,0,0
197694,657.432,-184.312,0,0
197955,674.354,-184.842,0,0
198215,691.813,-186.196,0,0
198475,709.892,-188.236,0,0
198735,728.789,-191.113,0,0
198996,748.55,-195.181,0,0
199256,768.94,-200.982,0,0
199516,789.607,-208.559,0,0
199777,810.12,-217.926,0,0
200037,830.232,-228.778,0,0
200297,850.09,-241.216,0,0
200558,869.519,-255.284,0,0
200818,888.069,-271.207,0,0
201078,905.446,-288.506,0,0
201339,921.729,-306.954,0,0
201599,936.926,-326.677,0,0
201859,950.593,-347.628,0,0
202120,962.662,-369.183,0,0
202380.025,973.486,-391.21,0,0
202640.35,982.447,-413.847,0,0
202900.675,989.94,-436.191,0,0
203161.0,996.945,-458.286,0,0
203421.325,1003.77,-481.137,0,0
203681.65,1009.48,-505.434,0,0
203941.975,1012.98,-530.977,0,0
204202.3,1013.68,-556.329,0,0
204462.625,1012.69,-580.834,0,0
204722.95,1010.47,-604.19,0,0
204983.275,1007.53,-627.127,0,0
205243.6,1003.38,-649.752,0,0
205503.925,998.43,-671.952,0,0
205764.25,992.31,-693.918,0,0
206024.575,985.045,-714.973,0,0
206284.9,977.24,-735.289,0,0
206545.225,969.011,-755.759,0,0
206805.55,959.431,-776.04,0,0
207065.875,948.325,-795.982,0,0
207326.2,935.895,-815.145,0,0
207586.525,922.205,-833.325,0,0
207846.85,907.178,-850.14,0,0
208107.175,891.338,-865.416,0,0
208367.5,875.044,-879.287,0,0
208627.825,858.008,-891.982,0,0
208888.15,840.569,-902.945,0,0
209148.475,822.996,-912.161,0,0
209408.8,805.515,-919.953,0,0
209669.125,788.404,-926.065,0,0
209929.45,772.062,-931.128,0,0
210189.775,756.138,-935.15,0,0
210450.1,740.955,-938.549,0,0
210710.425,726.24,-941.344,0,0
210970.75,711.723,-943.24,0,0
211231.075,697.851,-944.27,0,0
211491.4,684.835,-944.682,0,0
211751.725,672.479,-944.788,0,0
212012.05,660.744,-944.724,0,0
212272.375,649.284,-944.195,0,0
212532.7,638.367,-943.253,0,0
212793.025,628.147,-942.343,0,0
213053.35,617.908,-941.148,0,0
213313.675,608.022,-939.366,0,0
213574.0,598.775,-937.141,0,0
213834.325,590.159,-934.39,0,0
214094.65,582.571,-931.354,0,0
214354.975,576.107,-928.444,0,0
214615.3,570.564,-925.975,0,0
214875.625,565.514,-924.332,0,0
215135.95,560.814,-923.081,0,0
215396.275,556.283,-922.747,0,0
215656.6,551.386,-922.894,0,0
215916.925,546.353,-923.404,0,0
216177.25,540.821,-924.132,0,0
216437.575,534.823,-924.811,0,0
216697.9,528.502,-925.056,0,0
216958.225,522.275,-924.907,0,0
217218.55,516.281,-924.545,0,0
217478.875,510.461,-924.116,0,0
217739.2,504.713,-923.713,0,0
217999.525,499.059,-923.251,0,0
218259.85,493.381,-922.777,0,0
218520,487.731,-922.161,0,0
218780,482.318,-921.388,0,0
219041,477.075,-920.674,0,0
219301,471.876,-920.03,0,0
219561,466.735,-919.518,0,0
219822,461.316,-918.91,0,0
220082,456.084,-918.179,0,0
220342,450.738,-917.371,0,0
220603,445.218,-916.442,0,0
220863,439.918,-915.2,0,0
221123,434.757,-913.756,0,0
221384,429.804,-912.244,0,0
221644,424.97,-910.633,0,0
221904,420.469,-908.911,0,0
222165,416.051,-907.308,0,0
222425,411.773,-905.644,0,0
222685,407.602,-903.993,0,0
222946,403.75,-902.276,0,0
223206,399.954,-900.596,0,0
223466,396.426,-899.016,0,0
223727,393.049,-897.583,0,0
223987,390.052,-896.285,0,0
224247,387.027,-895.501,0,0
224508,383.771,-894.977,0,0
224768,380.385,-894.638,0,0
225028,376.839,-894.026,0,0
225289,373.079,-893.774,0,0
225549,369.152,-893.505,0,0
225809,365.263,-893.179,0,0
226070,361.203,-892.816,0,0
226330,356.908,-892.492,0,0
226590,352.534,-892.008,0,0
226851,348.095,-891.455,0,0
227111,343.489,-890.921,0,0
227371,338.703,-890.177,0,0
227632,333.81,-889.352,0,0
227892,328.758,-888.289,0,0
228152,323.521,-886.853,0,0
228413,318.411,-885.217,0,0
228673,313.346,-883.234,0,0
228933,308.353,-880.99,0,0
229193,303.541,-878.557,0,0
229454,298.967,-875.975,0,0
229714,294.486,-873.259,0,0
229974,290.178,-870.38,0,0
230235,285.956,-867.445,0,0
230495,282.07,-864.509,0,0
230755,278.205,-861.55,0,0
231016,274.431,-858.477,0,0
231276,270.76,-855.219,0,0
231536,267.268,-851.963,0,0
231797,263.981,-848.617,0,0
232057,260.887,-845.261,0,0
232317,257.983,-842.039,0,0
232578,255.201,-838.783,0,0
232838,252.491,-835.612,0,0
233098,249.88,-832.529,0,0
233359,247.218,-829.501,0,0
233619,244.555,-826.384,0,0
233879,242.015,-823.07,0,0
234140,239.616,-819.783,0,0
234400,237.442,-816.442,0,0
234660.3,235.479,-813.419,0,0
234920.625,233.46,-810.358,0,0
235180.95,231.44,-807.391,0,0
235441.275,229.421,-804.433,0,0
235701.6,227.405,-801.397,0,0
235961.925,225.435,-798.385,0,0
236222.25,223.481,-795.34,0,0
236482.575,221.617,-792.197,0,0
236742.9,219.765,-789.072,0,0
237003.225,217.976,-785.893,0,0
237263.55,216.309,-782.543,0,0
237523.875,214.831,-779.147,0,0
237784.2,213.552,-775.765,0,0
238044.525,212.481,-772.451,0,0
238304.85,211.508,-769.264,0,0
238565.175,210.638,-766.175,0,0
238825.5,209.867,-763.084,0,0
239085.825,209.159,-760.144,0,0
239346.15,208.554,-757.309,0,0
239606.475,207.959,-754.515,0,0
239866.8,207.434,-751.738,0,0
240127.125,207.036,-749.122,0,0
240387.45,206.622,-746.485,0,0
240647.775,206.24,-744.136,0,0
240908.1,205.912,-741.716,0,0
241168.425,205.605,-739.388,0,0
241428.75,205.284,-737.173,0,0
241689.075,205.05,-735.07,0,0
241949.4,204.741,-733.031,0,0
242209.725,204.464,-731.089,0,0
242470.05,204.129,-729.211,0,0
242730.375,203.849,-727.384,0,0
242990.7,203.521,-725.692,0,0
243251.025,203.141,-724.074,0,0
243511.35,202.691,-722.561,0,0
243771.675,202.141,-721.105,0,0
244032.0,201.438,-719.709,0,0
244292.325,200.663,-718.329,0,0
244552.65,199.735,-716.842,0,0
244812.975,198.701,-715.339,0,0
245073.3,197.603,-713.698,0,0
245333.625,196.454,-711.972,0,0
245593.95,195.433,-710.106,0,0
245854.275,194.326,-708.275,0,0
246114.6,193.228,-706.355,0,0
246374.925,192.131,-704.347,0,0
246635.25,191.03,-702.265,0,0
246895.575,189.943,-700.01,0,0
247155.9,189.031,-697.7,0,0
247416.225,188.262,-695.345,0,0
247676.55,187.531,-693.087,0,0
247936.875,186.801,-690.773,0,0
248197.2,186.142,-688.437,0,0
248457.525,185.546,-686.042,0,0
248717.85,185.036,-683.692,0,0
248978.175,184.583,-681.323,0,0
249238.5,184.253,-678.893,0,0
249498.825,184.051,-676.564,0,0
249759.15,183.942,-674.243,0,0
250019.475,183.883,-671.987,0,0
250279.8,183.922,-669.899,0,0
250540,184.007,-667.88,0,0
250800,184.012,-666.093,0,0
251061,183.96,-664.393,0,0
251321,183.746,-662.78,0,0
251581,183.433,-661.176,0,0
251842,182.949,-659.544,0,0
252102,182.38,-657.839,0,0
252362,181.672,-656.011,0,0
252623,180.913,-654.012,0,0
252883,180.204,-651.831,0,0
253143,179.596,-649.522,0,0
253404,179.053,-647.179,0,0
253664,178.623,-644.768,0,0
253924,178.267,-642.375,0,0
254185,177.906,-639.974,0,0
254445,177.531,-637.643,0,0
254705,177.161,-635.188,0,0
254966,176.621,-632.625,0,0
255226,176.097,-629.789,0,0
255486,175.771,-626.866,0,0
255747,175.529,-623.718,0,0
256007,175.44,-620.486,0,0
256267,175.559,-617.147,0,0
256528,175.793,-613.785,0,0
256788,176.199,-610.276,0,0
257048,176.792,-606.729,0,0
257309,177.619,-603.11,0,0
257569,178.708,-599.502,0,0
257829,180.01,-595.902,0,0
258090,181.5,-592.351,0,0
258350,183.188,-588.803,0,0
258610,185.085,-585.219,0,0
258871,187.376,-581.731,0,0
259131,189.894,-578.452,0,0
259391,192.583,-575.373,0,0
259651,195.416,-572.466,0,0
259912,198.21,-569.699,0,0
260172,201.276,-566.872,0,0
260432,204.565,-564.202,0,0
260693,208.126,-561.723,0,0
260953,211.894,-559.477,0,0
261213,215.84,-557.553,0,0
261474,219.862,-555.932,0,0
261734,223.886,-554.549,0,0
261994,227.931,-553.303,0,0
262255,232.102,-552.166,0,0
262515,236.542,-551.233,0,0
262775,241.21,-550.677,0,0
263036,246.002,-550.613,0,0
263296,250.732,-551.072,0,0
263556,255.249,-551.948,0,0
263817,259.541,-553.124,0,0
264077,263.58,-554.531,0,0
264337,267.443,-556.089,0,0
264598,271.146,-557.763,0,0
264858,274.771,-559.582,0,0
265118,278.342,-561.514,0,0
265379,281.793,-563.601,0,0
265639,285.208,-566.035,0,0
265899,288.339,-568.62,0,0
266160,291.328,-571.246,0,0
266420,294.253,-573.879,0,0
266680.25,297.314,-576.665,0,0
266940.575,300.408,-579.78,0,0
267200.9,303.509,-583.308,0,0
267461.225,306.484,-587.326,0,0
267721.55,309.188,-591.913,0,0
267981.875,311.423,-596.995,0,0
268242.2,312.975,-602.571,0,0
268502.525,313.617,-608.304,0,0
268762.85,313.475,-613.937,0,0
269023.175,312.681,-619.266,0,0
269283.5,311.267,-624.256,0,0
269543.825,309.371,-628.745,0,0
269804.15,307.324,-632.678,0,0
270064.475,305.125,-636.251,0,0
270324.8,302.994,-639.353,0,0
270585.125,300.878,-642.11,0,0
270845.45,298.941,-644.675,0,0
271105.775,297.124,-647.289,0,0
271366.1,295.296,-649.875,0,0
271626.425,293.424,-652.536,0,0
271886.75,291.374,-655.045,0,0
272147.075,289.234,-657.503,0,0
272407.4,287.016,-659.882,0,0
272667.725,284.676,-662.232,0,0
272928.05,282.211,-664.405,0,0
273188.375,279.685,-666.381,0,0
273448.7,277.274,-668.301,0,0
273709.025,274.852,-670.22,0,0
273969.35,272.38,-672.268,0,0
274229.675,269.634,-674.405,0,0
274490.0,266.68,-676.411,0,0
274750.325,263.354,-678.371,0,0
275010.65,259.852,-680.088,0,0
275270.975,256.148,-681.463,0,0
275531.3,252.277,-682.671,0,0
275791.625,248.47,-683.525,0,0
276051.95,244.533,-684.237,0,0
276312.275,240.599,-684.802,0,0
276572.6,236.406,-685.16,0,0
276832.925,232.036,-685.145,0,0
277093.25,227.559,-684.752,0,0
277353.575,223.042,-683.832,0,0
277613.9,218.603,-682.403,0,0
277874.225,214.375,-680.433,0,0
278134.55,210.525,-677.972,0,0
278394.875,207.123,-675.1,0,0
278655.2,204.359,-672.044,0,0
278915.525,202.118,-668.905,0,0
279175.85,200.351,-665.811,0,0
279436.175,199.036,-662.83,0,0
279696.5,198.147,-660.033,0,0
279956.825,197.627,-657.602,0,0
280217.15,197.311,-655.586,0,0
280477.475,196.868,-653.967,0,0
280737.8,196.259,-652.58,0,0
280998.125,195.498,-651.168,0,0
281258.45,194.668,-649.67,0,0
281518.775,193.792,-648.035,0,0
281779.1,193.073,-646.172,0,0
282039.425,192.718,-644.215,0,0
282299.75,192.742,-642.387,0,0
282560,193.075,-640.897,0,0
282820,193.432,-639.729,0,0
283081,193.842,-638.815,0,0
283341,194.254,-638.224,0,0
283601,194.505,-637.923,0,0
283862,194.521,-637.822,0,0
284122,194.327,-637.783,0,0
284382,194.022,-637.776,0,0
284643,193.585,-637.862,0,0
284903,192.986,-638.025,0,0
285163,192.147,-638.252,0,0
285424,191.062,-638.452,0,0
285684,189.794,-638.534,0,0
285944,188.277,-638.458,0,0
286205,186.669,-638.195,0,0
286465,184.953,-637.704,0,0
286725,183.241,-637.059,0,0
286986,181.484,-636.271,0,0
287246,179.666,-635.288,0,0
287506,177.793,-634.051,0,0
287767,176.018,-632.55,0,0
288027,174.239,-630.846,0,0
288287,172.567,-628.832,0,0
288548,171.063,-626.471,0,0
288808,169.909,-623.824,0,0
289068,169.185,-621.013,0,0
289329,168.876,-618.169,0,0
289589,168.941,-615.446,0,0
289849,169.332,-612.774,0,0
290109,169.957,-610.262,0,0
290370,170.852,-607.868,0,0
290630,172.033,-605.635,0,0
290890,173.403,-603.62,0,0
291151,174.978,-601.782,0,0
291411,176.752,-600.161,0,0
291671,178.737,-598.793,0,0
291932,180.898,-597.74,0,0
292192,183.212,-597.017,0,0
292452,185.59,-596.685,0,0
292713,187.99,-596.811,0,0
292973,190.287,-597.347,0,0
293233,192.368,-598.237,0,0
293494,194.287,-599.422,0,0
293754,195.973,-600.853,0,0
294014,197.485,-602.519,0,0
294275,198.754,-604.445,0,0
294535,199.744,-606.648,0,0
294795,200.286,-609.071,0,0
295056,200.402,-611.575,0,0
295316,200.142,-614.055,0,0
295576,199.48,-616.475,0,0
295837,198.455,-618.784,0,0
296097,197.127,-620.905,0,0
296357,195.508,-622.826,0,0
296618,193.681,-624.455,0,0
296878,191.716,-625.794,0,0
297138,189.696,-626.86,0,0
297399,187.706,-627.704,0,0
297659,185.704,-628.378,0,0
297919,183.679,-628.908,0,0
298180,181.696,-629.212,0,0
298440,179.799,-629.386,0,0
298700.2,177.985,-629.465,0,0
298960.525,176.255,-629.529,0,0
299220.85,174.566,-629.601,0,0
299481.175,172.859,-629.64,0,0
299741.5,171.099,-629.67,0,0
300001.825,169.309,-629.566,0,0
300262.15,167.496,-629.392,0,0
300522.475,165.731,-629.122,0,0
300782.8,163.965,-628.786,0,0
301043.125,162.219,-628.389,0,0
301303.45,160.476,-627.904,0,0
301563.775,158.814,-627.334,0,0
301824.1,157.183,-626.726,0,0
302084.425,155.591,-626.059,0,0
302344.75,154.088,-625.37,0,0
302605.075,152.61,-624.668,0,0
302865.4,151.156,-623.97,0,0
303125.725,149.694,-623.261,0,0
303386.05,148.225,-622.525,0,0
303646.375,146.744,-621.698,0,0
303906.7,145.294,-620.815,0,0
304167.025,143.907,-619.869,0,0
304427.35,142.554,-618.886,0,0
304687.675,141.258,-617.901,0,0
304948.0,140.001,-616.868,0,0
305208.325,138.77,-615.836,0,0
305468.65,137.608,-614.754,0,0
305728.975,136.452,-613.669,0,0
305989.3,135.315,-612.563,0,0
306249.625,134.212,-611.384,0,0
306509.95,133.173,-610.153,0,0
306770.275,132.215,-608.876,0,0
307030.6,131.364,-607.611,0,0
307290.925,130.64,-606.347,0,0
307551.25,129.955,-605.15,0,0
307811.575,129.337,-603.982,0,0
308071.9,128.769,-602.875,0,0
308332.225,128.248,-601.819,0,0
308592.55,127.763,-600.839,0,0
308852.875,127.279,-599.936,0,0
309113.2,126.756,-599.1,0,0
309373.525,126.21,-598.302,0,0
309633.85,125.577,-597.535,0,0
309894.175,124.897,-596.78,0,0
310154.5,124.19,-595.987,0,0
310414.825,123.423,-595.171,0,0
310675.15,122.654,-594.264,0,0
310935.475,121.909,-593.319,0,0
311195.8,121.181,-592.343,0,0
311456.125,120.504,-591.317,0,0
311716.45,119.848,-590.289,0,0
311976.775,119.251,-589.254,0,0
312237.1,118.691,-588.208,0,0
312497.425,118.142,-587.158,0,0
312757.75,117.608,-586.111,0,0
313018.075,117.129,-585.043,0,0
313278.4,116.703,-583.951,0,0
313538.725,116.319,-582.867,0,0
313799.05,116.015,-581.827,0,0
314059.375,115.75,-580.817,0,0
314319.7,115.542,-579.847,0,0
314580,115.297,-578.953,0,0
314840,115.161,-578.068,0,0
315101,114.932,-577.314,0,0
315361,114.701,-576.548,0,0
315621,114.476,-575.744,0,0
315882,114.307,-574.952,0,0
316142,114.123,-574.197,0,0
316402,113.916,-573.48,0,0
316663,113.834,-572.688,0,0
316923,113.682,-572.073,0,0
317183,113.534,-571.539,0,0
317444,113.395,-571.002,0,0
317704,113.219,-570.473,0,0
317964,113.121,-569.874,0,0
318225,112.95,-569.376,0,0
318485,112.819,-568.988,0,0
318745,112.642,-568.582,0,0
319006,112.462,-568.272,0,0
319266,112.347,-568.118,0,0
319526,112.043,-567.872,0,0
319787,111.752,-567.841,0,0
320047,111.427,-567.718,0,0
320307,110.913,-567.653,0,0
320567,110.436,-567.817,0,0
320828,109.733,-567.75,0,0
321088,108.96,-567.842,0,0
321348,108.044,-567.77,0,0
321609,107.082,-567.763,0,0
321869,105.952,-567.581,0,0
322129,104.715,-567.517,0,0
322390,103.382,-567.141,0,0
322650,102.127,-566.761,0,0
322910,100.664,-566.16,0,0
323171,99.2652,-565.472,0,0
323431,97.9554,-564.482,0,0
323691,96.5756,-563.595,0,0
323952,95.4465,-562.446,0,0
324212,94.2134,-561.343,0,0
324472,93.2021,-560.096,0,0
324733,92.3256,-558.891,0,0
324993,91.4204,-557.72,0,0
325253,90.5927,-556.439,0,0
325514,89.7952,-555.261,0,0
325774,89.0192,-554.082,0,0
326034,88.3072,-552.82,0,0
326295,87.6259,-551.6,0,0
326555,86.9009,-550.403,0,0
326815,86.2517,-549.15,0,0
327076,85.6347,-547.876,0,0
327336,85.0244,-546.588,0,0
327596,84.3957,-545.369,0,0
327857,83.8386,-544.048,0,0
328117,83.359,-542.702,0,0
328377,82.7577,-541.422,0,0
328638,82.2891,-540.015,0,0
328898,81.8325,-538.708,0,0
329158,81.4331,-537.125,0,0
329419,81.2236,-535.67,0,0
329679,80.9321,-534.16,0,0
329939,80.7813,-532.661,0,0
330200,80.7672,-531.328,0,0
330460,80.8504,-529.936,0,0
330720.15,80.9478,-528.55,0,0
330980.475,81.0134,-527.317,0,0
331240.8,81.242,-526.121,0,0
331501.125,81.4426,-524.98,0,0
331761.45,81.7226,-523.928,0,0
332021.775,82.0515,-522.979,0,0
332282.1,82.3436,-522.107,0,0
332542.425,82.6614,-521.384,0,0
332802.75,82.8456,-520.696,0,0
333063.075,83.0115,-520.079,0,0
333323.4,83.1237,-519.591,0,0
333583.725,83.0459,-519.037,0,0
333844.05,82.9156,-518.547,0,0
334104.375,82.6753,-517.993,0,0
334364.7,82.5249,-517.375,0,0
334625.025,82.1949,-516.784,0,0
334885.35,81.8783,-516.178,0,0
335145.675,81.5269,-515.453,0,0
335406.0,81.1602,-514.765,0,0
335666.325,80.785,-513.999,0,0
335926.65,80.3477,-513.228,0,0
336186.975,79.9214,-512.452,0,0
336447.3,79.5622,-511.523,0,0
336707.625,79.0986,-510.633,0,0
336967.95,78.7137,-509.621,0,0
337228.275,78.3038,-508.514,0,0
337488.6,78.007,-507.514,0,0
337748.925,77.6897,-506.407,0,0
338009.25,77.3912,-505.33,0,0
338269.575,77.1054,-504.214,0,0
338529.9,76.8472,-503.094,0,0
338790.225,76.6175,-501.815,0,0
339050.55,76.47,-500.603,0,0
339310.875,76.2545,-499.371,0,0
339571.2,76.2582,-498.038,0,0
339831.525,76.1985,-496.781,0,0
340091.85,76.2501,-495.429,0,0
340352.175,76.3606,-494.13,0,0
340612.5,76.4529,-492.715,0,0
340872.825,76.7432,-491.385,0,0
341133.15,77.0819,-490.039,0,0
341393.475,77.491,-488.697,0,0
341653.8,78.0381,-487.427,0,0
341914.125,78.6217,-486.21,0,0
342174.45,79.284,-485.059,0,0
342434.775,80.0011,-483.97,0,0
342695.1,80.8257,-483.025,0,0
342955.425,81.6864,-482.214,0,0
343215.75,82.5431,-481.466,0,0
343476.075,83.3424,-480.862,0,0
343736.4,84.1383,-480.3,0,0
343996.725,84.9492,-479.872,0,0
344257.05,85.7186,-479.487,0,0
344517.375,86.4336,-479.172,0,0
344777.7,87.0292,-478.945,0,0
345038.025,87.6553,-478.758,0,0
345298.35,88.2271,-478.716,0,0
345558.675,88.7118,-478.567,0,0
345819.0,89.1364,-478.524,0,0
346079.325,89.4974,-478.531,0,0
346339.65,89.8437,-478.57,0,0
346599.975,90.024,-478.57,0,0
346860,90.1677,-478.679,0,0
347121,90.2663,-478.729,0,0
347381,90.3173,-478.764,0,0
347641,90.2522,-478.808,0,0
347902,90.1665,-478.79,0,0
348162,89.9659,-478.78,0,0
348422,89.706,-478.724,0,0
348683,89.5672,-478.609,0,0
348943,89.3252,-478.481,0,0
349203,89.0781,-478.249,0,0
349464,88.8112,-478.007,0,0
349724,88.4923,-477.845,0,0
349984,88.1434,-477.559,0,0
350245,87.8565,-477.32,0,0
350505,87.5457,-477.018,0,0
350765,87.1304,-476.687,0,0
351025,86.7354,-476.343,0,0
351286,86.3387,-476.031,0,0
351546,85.9075,-475.531,0,0
351806,85.4471,-475.051,0,0
352067,84.9855,-474.505,0,0
352327,84.5731,-473.793,0,0
352587,84.2679,-473.136,0,0
352848,83.9881,-472.387,0,0
353108,83.7766,-471.685,0,0
353368,83.5621,-470.943,0,0
353629,83.4533,-470.26,0,0
353889,83.353,-469.63,0,0
354149,83.2123,-469.039,0,0
354410,83.1826,-468.391,0,0
354670,83.063,-467.853,0,0
354930,82.9185,-467.227,0,0
355191,82.8297,-466.609,0,0
355451,82.7246,-466.045,0,0
355711,82.6449,-465.408,0,0
355972,82.5451,-464.819,0,0
356232,82.4913,-464.276,0,0
356492,82.4043,-463.748,0,0
356753,82.324,-463.184,0,0
357013,82.2716,-462.651,0,0
357273,82.1355,-462.157,0,0
357534,81.9957,-461.595,0,0
357794,81.8496,-461.101,0,0
358054,81.7208,-460.631,0,0
358315,81.5184,-460.098,0,0
358575,81.2919,-459.579,0,0
358835,81.0784,-458.947,0,0
359096,80.8732,-458.346,0,0
359356,80.6292,-457.746,0,0
359616,80.4584,-457.115,0,0
359877,80.1698,-456.442,0,0
360137,79.9089,-455.752,0,0
360397,79.7088,-454.939,0,0
360658,79.4601,-454.159,0,0
360918,79.3278,-453.27,0,0
361178,79.208,-452.474,0,0
361438,79.2186,-451.567,0,0
361699,79.278,-450.663,0,0
361959,79.3631,-449.933,0,0
362219,79.4318,-449.148,0,0
362480,79.5083,-448.394,0,0
362740.1,79.6222,-447.738,0,0
363000.425,79.7226,-447.103,0,0
363260.75,79.7473,-446.479,0,0
363521.075,79.7035,-445.815,0,0
363781.4,79.7149,-445.162,0,0
364041.725,79.7066,-444.446,0,0
364302.05,79.6742,-443.784,0,0
364562.375,79.6795,-443.076,0,0
364822.7,79.647,-442.324,0,0
365083.025,79.6151,-441.564,0,0
365343.35,79.5836,-440.835,0,0
365603.675,79.5249,-439.979,0,0
365864.0,79.5059,-439.122,0,0
366124.325,79.5941,-438.213,0,0
366384.65,79.6483,-437.304,0,0
366644.975,79.829,-436.351,0,0
366905.3,79.9519,-435.4,0,0
367165.625,80.1672,-434.485,0,0
367425.95,80.3655,-433.497,0,0
367686.275,80.5796,-432.515,0,0
367946.6,80.8939,-431.501,0,0
368206.925,81.2363,-430.505,0,0
368467.25,81.6681,-429.5,0,0
368727.575,82.17,-428.484,0,0
368987.9,82.7344,-427.46,0,0
369248.225,83.4076,-426.562,0,0
369508.55,84.0983,-425.593,0,0
369768.875,84.7863,-424.73,0,0
370029.2,85.5352,-423.875,0,0
370289.525,86.3775,-423.017,0,0
370549.85,87.2985,-422.173,0,0
370810.175,88.2867,-421.428,0,0
371070.5,89.33,-420.735,0,0
371330.825,90.5248,-420.177,0,0
371591.15,91.6947,-419.744,0,0
371851.475,92.9209,-419.426,0,0
372111.8,94.1722,-419.206,0,0
372372.125,95.416,-419.117,0,0
372632.45,96.6872,-419.165,0,0
372892.775,97.8529,-419.364,0,0
373153.1,98.9927,-419.749,0,0
373413.425,99.986,-420.235,0,0
373673.75,100.876,-420.848,0,0
373934.075,101.648,-421.514,0,0
374194.4,102.205,-422.161,0,0
374454.725,102.658,-422.855,0,0
374715.05,102.962,-423.51,0,0
374975.375,103.167,-424.152,0,0
375235.7,103.315,-424.698,0,0
375496.025,103.42,-425.149,0,0
375756.35,103.488,-425.598,0,0
376016.675,103.571,-425.974,0,0
376277.0,103.564,-426.319,0,0
376537.325,103.594,-426.701,0,0
376797.65,103.517,-427.05,0,0
377057.975,103.409,-427.351,0,0
377318.3,103.319,-427.595,0,0
377578.625,103.188,-427.776,0,0
377838.95,103.139,-427.969,0,0
378099.275,103.044,-428.138,0,0
378359.6,102.993,-428.325,0,0
378619.925,102.949,-428.513,0,0
378880,102.824,-428.725,0,0
379141,102.784,-428.879,0,0
379401,102.619,-429.08,0,0
379661,102.522,-429.323,0,0
379922,102.328,-429.47,0,0
380182,102.145,-429.683,0,0
380442,101.865,-429.886,0,0
380703,101.569,-430.002,0,0
380963,101.198,-430.046,0,0
381223,100.924,-430,0,0
381483,100.655,-429.812,0,0
381744,100.444,-429.549,0,0
382004,100.418,-429.317,0,0
382264,100.594,-429.153,0,0
382525,100.754,-429.088,0,0
382785,101.09,-429.124,0,0
383045,101.347,-429.374,0,0
383306,101.598,-429.702,0,0
383566,101.78,-430.2,0,0
383826,101.781,-430.786,0,0
384087,101.699,-431.525,0,0
384347,101.441,-432.169,0,0
384607,101.066,-432.831,0,0
384868,100.634,-433.514,0,0
385128,100.019,-434.194,0,0
385388,99.2884,-434.76,0,0
385649,98.4447,-435.276,0,0
385909,97.5381,-435.776,0,0
386169,96.5609,-436.147,0,0
386430,95.4442,-436.344,0,0
386690,94.244,-436.424,0,0
386950,93.0337,-436.384,0,0
387211,91.8869,-436.109,0,0
387471,90.7609,-435.735,0,0
387731,89.702,-435.235,0,0
387992,88.7873,-434.606,0,0
388252,87.9033,-433.961,0,0
388512,87.1814,-433.236,0,0
388773,86.5624,-432.48,0,0
389033,86.0121,-431.703,0,0
389293,85.5982,-430.928,0,0
389554,85.3266,-430.179,0,0
389814,85.1551,-429.486,0,0
390074,85.038,-428.86,0,0
390335,85.0163,-428.356,0,0
390595,85.0429,-427.951,0,0
390855,85.1585,-427.673,0,0
391116,85.1931,-427.548,0,0
391376,85.1777,-427.561,0,0
391636,85.0272,-427.702,0,0
391896,84.7561,-427.931,0,0
392157,84.3192,-428.117,0,0
392417,83.7467,-428.291,0,0
392677,83.0633,-428.379,0,0
392938,82.3439,-428.376,0,0
393198,81.4993,-428.37,0,0
393458,80.711,-428.286,0,0
393719,79.7908,-428.11,0,0
393979,78.9046,-427.88,0,0
394239,78.0261,-427.55,0,0
394500,77.0462,-427.167,0,0
394760.05,76.1498,-426.666,0,0
395020.375,75.2478,-426.156,0,0
395280.7,74.3867,-425.561,0,0
395541.025,73.5464,-424.944,0,0
395801.35,72.7324,-424.246,0,0
396061.675,71.9403,-423.565,0,0
396322.0,71.1989,-422.826,0,0
396582.325,70.4324,-422.011,0,0
396842.65,69.7234,-421.26,0,0
397102.975,69.0249,-420.403,0,0
397363.3,68.3581,-419.54,0,0
397623.625,67.7335,-418.648,0,0
397883.95,67.1498,-417.751,0,0
398144.275,66.5377,-416.798,0,0
398404.6,65.9814,-415.852,0,0
398664.925,65.4698,-414.866,0,0
398925.25,64.9851,-413.828,0,0
399185.575,64.577,-412.815,0,0
399445.9,64.1273,-411.801,0,0
399706.225,63.6645,-410.727,0,0
399966.55,63.3436,-409.625,0,0
400006.6,63.2808,-409.446,0,0