File: Accelerated corrosion test data/2025-10-18_06-00-03/sample_8.csv
Frequency (Hz),Impedance (ohms),Phase (Radians),Temperature (C),Humidity (%)
10000.0,309.569,-11033.9,0,0
10260.325,301.875,-10756.9,0,0
10520.65,294.375,-10494,0,0
10780.975,287.599,-10243.8,0,0
11041.3,281.227,-10004.9,0,0
11301.625,274.691,-9778.02,0,0
11561.95,268.998,-9559.62,0,0
11822.275,262.997,-9351.36,0,0
12082.6,260.515,-9150.43,0,0
12342.925,257.478,-8962.67,0,0
12603.25,252.948,-8780.86,0,0
12863.575,249.418,-8608.88,0,0
13123.9,241.409,-8443.29,0,0
13384.225,236.124,-8280.74,0,0
13644.55,233.325,-8124.95,0,0
13904.875,224.799,-7975.72,0,0
14165.2,219.195,-7829.62,0,0
14425.525,214.696,-7689.38,0,0
14685.8,211.041,-7554.48,0,0
14946.175,207.751,-7423.86,0,0
15206.5,204.712,-7297.81,0,0
15466.825,201.009,-7176.99,0,0
15727.15,197.773,-7059.14,0,0
15987.5,194.777,-6945.44,0,0
16247.8,191.702,-6835.23,0,0
16508.125,188.495,-6728,0,0
16768.45,185.239,-6624.74,0,0
17028.775,182.458,-6524.1,0,0
17289.1,179.846,-6426.53,0,0
17549.425,177.179,-6331.34,0,0
17809.75,175.19,-6239.14,0,0
18070.075,172.737,-6150.88,0,0
18330.4,170.102,-6062.74,0,0
18590.725,168.321,-5976.99,0,0
18851.05,168.635,-5893.29,0,0
19111.375,167.488,-5813.72,0,0
19371.7,169.707,-5737.68,0,0
19632.025,166.947,-5665.1,0,0
19892.35,163.87,-5593.98,0,0
20152.675,160.75,-5520.93,0,0
20413.0,160.519,-5450.39,0,0
20673.3,160.894,-5382.83,0,0
20933.65,157.792,-5320.45,0,0
21193.975,153.736,-5256.43,0,0
21454.3,151.414,-5191.61,0,0
21714.625,149.405,-5128.85,0,0
21974.9,148.998,-5068.67,0,0
22235.275,149.151,-5009.56,0,0
22495.6,147.911,-4953.24,0,0
22755.925,146.404,-4898.44,0,0
23016.25,144.22,-4843.43,0,0
23276.6,140.177,-4792.12,0,0
23536.9,137.527,-4738.32,0,0
23797.225,135.388,-4686.22,0,0
24057.55,133.539,-4635.45,0,0
24317.875,132.54,-4585.77,0,0
24578.2,130.859,-4537.62,0,0
24838.525,129.33,-4489.2,0,0
25098.85,128.021,-4442.46,0,0
25359.175,126.383,-4396.36,0,0
25619.5,125.074,-4351.25,0,0
25879.8,124.203,-4307.14,0,0
26140.1,123.575,-4264.45,0,0
26400.5,122.146,-4222.9,0,0
26660.8,120.876,-4181.25,0,0
26921.1,120.272,-4139.53,0,0
27181.4,120.962,-4100.24,0,0
27441.8,119.266,-4061.16,0,0
27702.1,118.92,-4023.72,0,0
27962.4,116.888,-3986.33,0,0
28222.7,117.814,-3948.49,0,0
28483.1,116.253,-3912.41,0,0
28743.4,115.906,-3876.94,0,0
29003.7,115.108,-3842.97,0,0
29264,115.474,-3808.33,0,0
29524.4,113.931,-3774.9,0,0
29784.7,113.744,-3741.47,0,0
30045,113.413,-3709.77,0,0
30305.3,112.829,-3678.63,0,0
30565.7,111.357,-3647.76,0,0
30826,109.648,-3616.72,0,0
31086.3,108.542,-3586.25,0,0
31346.6,107.486,-3555.56,0,0
31607,107.094,-3525.84,0,0
31867.3,106.521,-3496.56,0,0
32127.6,105.979,-3467.55,0,0
32387.9,105.285,-3438.99,0,0
32648.3,105.468,-3411.13,0,0
32908.6,105.774,-3383.47,0,0
33168.9,105.029,-3356.76,0,0
33429.2,105.493,-3329.91,0,0
33689.6,105.999,-3304.07,0,0
33949.9,105.83,-3278.88,0,0
34210.2,106.168,-3253.89,0,0
34470.5,106.283,-3229.09,0,0
34730.9,106.582,-3204.62,0,0
34991.2,107.724,-3181.1,0,0
35251.5,108.629,-3157.83,0,0
35511.8,109.101,-3135.95,0,0
35772.2,109.538,-3114.22,0,0
36032.5,109.888,-3093.3,0,0
36292.8,109.423,-3072.26,0,0
36553.1,109.373,-3052.62,0,0
36813.5,108.405,-3032.65,0,0
37073.8,107.999,-3012.39,0,0
37334.1,106.566,-2993.4,0,0
37594.4,104.623,-2974.19,0,0
37854.8,102.739,-2954.64,0,0
38115.1,100.878,-2935.5,0,0
38375.4,98.5057,-2915.88,0,0
38635.7,96.5353,-2896.18,0,0
38896.1,94.4479,-2876.9,0,0
39156.4,92.56,-2857.14,0,0
39416.7,91.2907,-2837.4,0,0
39677,89.9948,-2818.28,0,0
39937.4,88.3547,-2798.89,0,0
40197.7,87.7694,-2779.52,0,0
40458,87.8449,-2760.82,0,0
40718.3,87.451,-2743.19,0,0
40978.7,86.4964,-2725.65,0,0
41239,85.9781,-2707.95,0,0
41499.3,85.0725,-2690.43,0,0
41759.6,84.7738,-2673.4,0,0
42020,83.4742,-2656.64,0,0
42280.275,83.0031,-2639.43,0,0
42540.6,82.6829,-2622.56,0,0
42800.925,82.3517,-2605.94,0,0
43061.25,82.4713,-2589.64,0,0
43321.575,82.6222,-2574.1,0,0
43581.9,82.7889,-2559.16,0,0
43842.225,82.0937,-2544.44,0,0
44102.55,80.7885,-2529.67,0,0
44362.875,79.8152,-2514.28,0,0
44623.2,79.1198,-2499.49,0,0
44883.525,78.2155,-2484.32,0,0
45143.85,77.8251,-2469.82,0,0
45404.175,76.8617,-2455.08,0,0
45664.5,76.6756,-2440.67,0,0
45924.825,75.7569,-2426.59,0,0
46185.15,75.2652,-2412.16,0,0
46445.475,74.6956,-2398.26,0,0
46705.8,74.2823,-2384.35,0,0
46966.125,73.8902,-2370.54,0,0
47226.45,73.5294,-2357.06,0,0
47486.775,73.1785,-2343.64,0,0
47747.1,72.7802,-2330.36,0,0
48007.425,72.3678,-2317.26,0,0
48267.75,72.0585,-2304.33,0,0
48528.075,71.8395,-2291.71,0,0
48788.4,71.4058,-2279.25,0,0
49048.725,70.8349,-2266.66,0,0
49309.05,70.3265,-2254.16,0,0
49569.375,69.8122,-2241.77,0,0
49829.7,69.4648,-2229.52,0,0
50090.025,69.1343,-2217.17,0,0
50350.35,68.8031,-2205.3,0,0
50610.675,68.3935,-2193.31,0,0
50871.0,68.1673,-2181.64,0,0
51131.325,68.0773,-2169.81,0,0
51391.65,67.7873,-2158.3,0,0
51651.975,67.723,-2146.86,0,0
51912.3,67.592,-2135.66,0,0
52172.625,67.5893,-2124.42,0,0
52432.95,67.2272,-2113.44,0,0
52693.275,67.1135,-2102.46,0,0
52953.6,67.345,-2091.76,0,0
53213.925,67.492,-2081.12,0,0
53474.25,67.4465,-2070.79,0,0
53734.575,67.6034,-2060.8,0,0
53994.9,67.3382,-2051.43,0,0
54255.225,66.4741,-2041.5,0,0
54515.55,65.7895,-2031.39,0,0
54775.875,65.3507,-2021.35,0,0
55036.2,64.9242,-2011.62,0,0
55296.525,64.0928,-2001.82,0,0
55556.85,63.3814,-1991.81,0,0
55817.175,62.9949,-1981.91,0,0
56077.5,62.4073,-1972.09,0,0
56337.825,61.8097,-1962.18,0,0
56598.15,61.5192,-1952.45,0,0
56858.475,61.2401,-1942.81,0,0
57118.8,61.0362,-1933.28,0,0
57379.125,60.7862,-1923.8,0,0
57639.45,60.6375,-1914.4,0,0
57899.775,60.4016,-1905.21,0,0
58160.1,60.2135,-1895.96,0,0
58420.4,60.0706,-1886.89,0,0
58680.7,59.9348,-1877.92,0,0
58941.1,59.9524,-1869,0,0
59201.4,59.8656,-1860.37,0,0
59461.7,59.5545,-1851.87,0,0
59722,59.2596,-1843.27,0,0
59982.4,58.8841,-1834.68,0,0
60242.7,58.6143,-1826.11,0,0
60503,58.344,-1817.47,0,0
60763.3,58.2556,-1808.98,0,0
61023.7,58.0904,-1800.4,0,0
61284,58.0591,-1792.07,0,0
61544.3,58.0879,-1783.88,0,0
61804.6,58.1204,-1775.83,0,0
62065,57.8807,-1767.79,0,0
62325.3,57.6817,-1759.68,0,0
62585.6,57.6442,-1751.61,0,0
62845.9,57.6863,-1743.57,0,0
63106.3,57.8612,-1735.71,0,0
63366.6,58.1331,-1728.02,0,0
63626.9,58.1889,-1720.58,0,0
63887.2,58.1987,-1713.04,0,0
64147.6,58.336,-1705.54,0,0
64407.9,58.5782,-1698.49,0,0
64668.2,58.4433,-1691.41,0,0
64928.5,58.3082,-1684.31,0,0
65188.9,58.2444,-1677.25,0,0
65449.2,57.9778,-1670.34,0,0
65709.5,57.5933,-1663.07,0,0
65969.8,57.6521,-1656.12,0,0
66230.2,57.4326,-1649.51,0,0
66490.5,56.9259,-1642.82,0,0
66750.8,56.3438,-1635.76,0,0
67011.1,56.0201,-1628.6,0,0
67271.5,55.7896,-1621.59,0,0
67531.8,55.591,-1614.63,0,0
67792.1,55.4373,-1607.79,0,0
68052.4,55.284,-1601.12,0,0
68312.8,54.9651,-1594.2,0,0
68573.1,54.8781,-1587.48,0,0
68833.4,54.5469,-1580.81,0,0
69093.7,54.5267,-1574.04,0,0
69354.1,54.3392,-1567.34,0,0
69614.4,54.3273,-1560.73,0,0
69874.7,54.2958,-1554.21,0,0
70135,54.377,-1547.8,0,0
70395.4,54.3851,-1541.36,0,0
70655.7,54.3315,-1534.98,0,0
70916,54.3087,-1528.76,0,0
71176.3,54.374,-1522.55,0,0
71436.7,54.299,-1516.33,0,0
71697,54.5329,-1510.13,0,0
71957.3,54.6029,-1504.29,0,0
72217.6,54.4508,-1498.38,0,0
72478,54.4351,-1492.47,0,0
72738.3,54.3156,-1486.66,0,0
72998.6,54.0904,-1480.84,0,0
73258.9,53.7765,-1475.04,0,0
73519.3,53.7385,-1468.97,0,0
73779.6,53.7235,-1463.23,0,0
74039.9,53.5407,-1457.51,0,0
74300.225,53.4494,-1451.79,0,0
74560.55,53.2153,-1446.16,0,0
74820.875,52.9462,-1440.35,0,0
75081.2,52.8085,-1434.59,0,0
75341.525,52.7654,-1428.92,0,0
75601.85,52.5791,-1423.34,0,0
75862.175,52.5022,-1417.63,0,0
76122.5,52.45,-1412,0,0
76382.825,52.4386,-1406.45,0,0
76643.15,52.4866,-1400.94,0,0
76903.475,52.4298,-1395.61,0,0
77163.8,52.3758,-1390.27,0,0
77424.125,52.2379,-1384.9,0,0
77684.45,52.1152,-1379.55,0,0
77944.775,52.016,-1374.2,0,0
78205.1,51.9609,-1368.89,0,0
78465.425,51.827,-1363.73,0,0
78725.75,51.6134,-1358.42,0,0
78986.075,51.5145,-1353.1,0,0
79246.4,51.3704,-1347.85,0,0
79506.725,51.1493,-1342.64,0,0
79767.05,51.0542,-1337.33,0,0
80027.375,50.9646,-1332.04,0,0
80287.7,51.0096,-1326.88,0,0
80548.025,50.8924,-1321.6,0,0
80808.35,50.8543,-1316.43,0,0
81068.675,50.8571,-1311.27,0,0
81329.0,50.8992,-1306.05,0,0
81589.325,50.9562,-1300.87,0,0
81849.65,51.0968,-1295.81,0,0
82109.975,51.2505,-1290.69,0,0
82370.3,51.4346,-1285.78,0,0
82630.625,51.6045,-1280.87,0,0
82890.95,51.7334,-1275.87,0,0
83151.275,51.9129,-1271.03,0,0
83411.6,52.0552,-1266.17,0,0
83671.925,52.3092,-1261.24,0,0
83932.25,52.6569,-1256.51,0,0
84192.575,52.9187,-1251.9,0,0
84452.9,53.0901,-1247.28,0,0
84713.225,53.436,-1242.66,0,0
84973.55,53.8364,-1238.28,0,0
85233.875,53.9645,-1234.21,0,0
85494.2,53.6561,-1229.94,0,0
85754.525,53.4569,-1225.45,0,0
86014.85,53.2765,-1220.85,0,0
86275.175,53.1673,-1216.17,0,0
86535.5,52.9904,-1211.41,0,0
86795.825,53.0732,-1206.73,0,0
87056.15,53.1812,-1202.06,0,0
87316.475,53.4639,-1197.47,0,0
87576.8,53.572,-1193.06,0,0
87837.125,53.7062,-1188.52,0,0
88097.45,53.7864,-1184.02,0,0
88357.775,53.9252,-1179.49,0,0
88618.1,54.1107,-1174.99,0,0
88878.425,54.2453,-1170.6,0,0
89138.75,54.2603,-1166.15,0,0
89399.075,54.4015,-1161.53,0,0
89659.4,54.5662,-1156.92,0,0
89919.725,54.8773,-1152.25,0,0
90180,55.2926,-1147.73,0,0
90440.4,55.6213,-1143.25,0,0
90700.7,56.056,-1138.65,0,0
90961,56.6792,-1134.02,0,0
91221.3,57.4228,-1129.59,0,0
91481.7,58.4258,-1125.11,0,0
91742,59.3765,-1121.11,0,0
92002.3,60.191,-1117.31,0,0
92262.6,60.8327,-1113.47,0,0
92523,61.5785,-1109.67,0,0
92783.3,62.2517,-1105.94,0,0
93043.6,62.9004,-1102.21,0,0
93303.9,63.5266,-1098.92,0,0
93564.3,63.7678,-1095.52,0,0
93824.6,63.8582,-1092.03,0,0
94084.9,63.7855,-1088.28,0,0
94345.2,63.9727,-1084.32,0,0
94605.6,64.1132,-1080.57,0,0
94865.9,64.367,-1076.45,0,0
95126.2,64.8055,-1072.63,0,0
95386.5,64.9803,-1068.7,0,0
95646.9,65.3897,-1064.61,0,0
95907.2,65.7163,-1060.65,0,0
96167.5,66.4048,-1056.68,0,0
96427.8,66.8203,-1052.71,0,0
96688.2,67.5926,-1048.56,0,0
96948.5,68.4835,-1044.74,0,0
97208.8,69.262,-1041.02,0,0
97469.1,70.0868,-1037.24,0,0
97729.5,71.0245,-1033.47,0,0
97989.8,72.0115,-1029.78,0,0
98250.1,73.0915,-1026.2,0,0
98510.4,74.2148,-1022.7,0,0
98770.8,75.3884,-1019.3,0,0
99031.1,76.7571,-1016.18,0,0
99291.4,77.8999,-1013.3,0,0
99551.7,78.7737,-1010.49,0,0
99812.1,79.5058,-1007.49,0,0
100072,80.4676,-1004.46,0,0
100333,81.5275,-1001.49,0,0
100593,82.5617,-998.732,0,0
100853,83.5989,-996.112,0,0
101114,84.6457,-993.593,0,0
101374,85.4696,-991.237,0,0
101634,86.2804,-988.88,0,0
101895,87.041,-986.713,0,0
102155,87.5858,-984.589,0,0
102415,88.0273,-982.498,0,0
102676,88.4225,-980.46,0,0
102936,88.5852,-978.517,0,0
103196,88.5184,-976.578,0,0
103457,88.1752,-974.393,0,0
103717,87.8318,-971.959,0,0
103977,87.5732,-969.306,0,0
104238,87.5348,-966.698,0,0
104498,87.5156,-964.201,0,0
104758,87.3384,-961.866,0,0
105019,86.9468,-959.453,0,0
105279,86.446,-956.646,0,0
105539,86.1512,-953.761,0,0
105800,85.8848,-950.949,0,0
106060,85.6911,-947.977,0,0
106320.175,85.6346,-945.027,0,0
106580.5,85.6085,-942.091,0,0
106840.825,85.6861,-939.173,0,0
107101.15,85.8658,-936.37,0,0
107361.475,86.0282,-933.782,0,0
107621.8,85.9234,-931.285,0,0
107882.125,85.5842,-928.628,0,0
108142.45,85.2396,-925.695,0,0
108402.775,85.1018,-922.577,0,0
108663.1,85.1618,-919.472,0,0
108923.425,85.2866,-916.545,0,0
109183.75,85.447,-913.478,0,0
109444.075,85.8326,-910.494,0,0
109704.4,86.235,-907.753,0,0
109964.725,86.5151,-904.958,0,0
110225.05,86.9028,-902.347,0,0
110485.375,87.1195,-899.81,0,0
110745.7,87.4227,-897.229,0,0
111006.025,87.64,-894.823,0,0
111266.35,87.6111,-892.369,0,0
111526.675,87.7255,-889.466,0,0
111787.0,88.0932,-886.89,0,0
112047.325,88.4144,-884.44,0,0
112307.65,88.6268,-882.12,0,0
112567.975,88.7465,-879.771,0,0
112828.3,88.7793,-877.377,0,0
113088.625,88.8832,-874.927,0,0
113348.95,89.0026,-872.551,0,0
113609.275,89.0236,-870.155,0,0
113869.6,89.0887,-867.79,0,0
114129.925,89.0351,-865.422,0,0
114390.25,88.9318,-862.973,0,0
114650.575,88.9604,-860.449,0,0
114910.9,89.0248,-858,0,0
115171.225,89.1787,-855.622,0,0
115431.55,89.325,-853.399,0,0
115691.875,89.2527,-851.317,0,0
115952.2,88.9824,-849.244,0,0
116212.525,88.5653,-846.857,0,0
116472.85,88.2074,-844.338,0,0
116733.175,87.9299,-841.767,0,0
116993.5,87.6775,-839.105,0,0
117253.825,87.5294,-836.316,0,0
117514.15,87.7009,-833.631,0,0
117774.475,87.8587,-831.131,0,0
118034.8,87.9498,-828.817,0,0
118295.125,87.8779,-826.44,0,0
118555.45,87.8173,-824.064,0,0
118815.775,87.7009,-821.639,0,0
119076.1,87.6404,-819.156,0,0
119336.425,87.7003,-816.812,0,0
119596.75,87.5274,-814.59,0,0
119857.075,87.3307,-812.202,0,0
120117.4,87.1353,-809.822,0,0
120377.725,86.9184,-807.35,0,0
120638.05,86.7044,-804.912,0,0
120898.375,86.5072,-802.403,0,0
121158.7,86.3918,-799.843,0,0
121419.025,86.3303,-797.421,0,0
121679.35,86.1613,-795.018,0,0
121939.675,86.0193,-792.562,0,0
122200.0,85.7825,-790.071,0,0
122460,85.6863,-787.544,0,0
122721,85.572,-785.141,0,0
122981,85.3719,-782.747,0,0
123241,85.1184,-780.262,0,0
123502,84.8913,-777.746,0,0
123762,84.6531,-775.256,0,0
124022,84.4162,-772.703,0,0
124283,84.2109,-770.131,0,0
124543,84.0364,-767.591,0,0
124803,83.8037,-765.04,0,0
125064,83.553,-762.486,0,0
125324,83.3355,-759.907,0,0
125584,83.084,-757.304,0,0
125845,82.8456,-754.677,0,0
126105,82.5604,-752.006,0,0
126365,82.2997,-749.28,0,0
126626,82.0853,-746.507,0,0
126886,81.951,-743.715,0,0
127146,81.802,-740.945,0,0
127406,81.6917,-738.094,0,0
127667,81.4833,-735.268,0,0
127927,81.4316,-732.351,0,0
128187,81.4841,-729.496,0,0
128448,81.5816,-726.637,0,0
128708,81.6853,-723.848,0,0
128968,81.743,-721.11,0,0
129229,81.8027,-718.346,0,0
129489,81.9062,-715.61,0,0
129749,81.9106,-712.905,0,0
130010,81.8628,-710.127,0,0
130270,81.8469,-707.178,0,0
130530,82.006,-704.124,0,0
130791,82.3713,-701.077,0,0
131051,82.8483,-698.266,0,0
131311,83.3119,-695.553,0,0
131572,83.7951,-693.015,0,0
131832,84.0709,-690.582,0,0
132092,84.1992,-688.05,0,0
132353,84.4247,-685.434,0,0
132613,84.6186,-682.854,0,0
132873,84.7864,-680.338,0,0
133134,84.9396,-677.805,0,0
133394,84.9376,-675.22,0,0
133654,84.9622,-672.531,0,0
133915,84.9782,-669.789,0,0
134175,85.0686,-666.984,0,0
134435,85.1873,-664.155,0,0
134696,85.2921,-661.27,0,0
134956,85.4871,-658.256,0,0
135216,85.9244,-655.239,0,0
135477,86.4557,-652.4,0,0
135737,86.9404,-649.604,0,0
135997,87.5513,-646.82,0,0
136258,88.2861,-644.348,0,0
136518,88.7644,-642.038,0,0
136778,89.1933,-639.707,0,0
137039,89.3838,-637.597,0,0
137299,89.2969,-635.342,0,0
137559,89.0791,-632.925,0,0
137819,88.7297,-630.343,0,0
138080,88.3429,-627.513,0,0
138340.125,87.9791,-624.468,0,0
138600.45,87.7929,-621.14,0,0
138860.775,87.8547,-617.76,0,0
139121.1,88.0875,-614.357,0,0
139381.425,88.4697,-611.131,0,0
139641.75,88.7901,-607.943,0,0
139902.075,89.1572,-604.634,0,0
140162.4,89.6938,-601.319,0,0
140422.725,90.3013,-598.164,0,0
140683.05,90.8239,-595.132,0,0
140943.375,91.1952,-591.954,0,0
141203.7,91.7585,-588.662,0,0
141464.025,92.3887,-585.505,0,0
141724.35,92.9291,-582.423,0,0
141984.675,93.3316,-579.257,0,0
142245.0,93.7416,-575.907,0,0
142505.325,94.2769,-572.446,0,0
142765.65,94.9331,-568.954,0,0
143025.975,95.6442,-565.485,0,0
143286.3,96.3457,-561.894,0,0
143546.625,97.2396,-558.213,0,0
143806.95,98.2943,-554.688,0,0
144067.275,99.2615,-551.186,0,0
144327.6,100.27,-547.612,0,0
144587.925,101.339,-543.98,0,0
144848.25,102.489,-540.274,0,0
145108.575,103.845,-536.51,0,0
145368.9,105.311,-532.797,0,0
145629.225,106.873,-529.15,0,0
145889.55,108.556,-525.557,0,0
146149.875,110.259,-522.059,0,0
146410.2,111.925,-518.511,0,0
146670.525,113.779,-514.901,0,0
146930.85,115.778,-511.339,0,0
147191.175,117.946,-507.935,0,0
147451.5,120.155,-504.826,0,0
147711.825,122.092,-501.903,0,0
147972.15,123.715,-498.869,0,0
148232.475,125.212,-495.48,0,0
148492.8,126.865,-491.661,0,0
148753.125,128.852,-487.636,0,0
149013.45,131.205,-483.519,0,0
149273.775,133.931,-479.44,0,0
149534.1,136.909,-475.494,0,0
149794.425,140.08,-471.563,0,0
150054.75,143.537,-467.581,0,0
150315.075,147.386,-463.642,0,0
150575.4,151.654,-459.974,0,0
150835.725,156.463,-456.635,0,0
151096.05,161.585,-453.655,0,0
151356.375,167.159,-451.205,0,0
151616.7,172.887,-449.819,0,0
151877.025,178.193,-449.142,0,0
152137.35,183.2,-448.773,0,0
152397.675,188.142,-448.869,0,0
152658.0,192.493,-449.867,0,0
152918.325,195.942,-450.522,0,0
153178.65,199.6,-451.07,0,0
153438.975,203.028,-452.185,0,0
153699.3,205.91,-453.564,0,0
153959.625,207.902,-454.958,0,0
154219.95,209.526,-455.915,0,0
154480,210.76,-456.76,0,0
154741,211.378,-456.96,0,0
155001,212.255,-455.81,0,0
155261,214.588,-454.392,0,0
155522,217.387,-453.729,0,0
155782,220.695,-453.261,0,0
156042,224.695,-454.026,0,0
156303,227.989,-456.272,0,0
156563,230.431,-459.348,0,0
156823,231.427,-463.16,0,0
157084,230.38,-466.682,0,0
157344,228.001,-468.788,0,0
157604,225.017,-469.386,0,0
157864,222.165,-468.451,0,0
158125,220.127,-466.24,0,0
158385,219.283,-463.331,0,0
158645,219.442,-460.416,0,0
158906,220.574,-457.821,0,0
159166,222.194,-455.644,0,0
159426,224.434,-454.197,0,0
159687,226.81,-454.073,0,0
159947,228.073,-455.039,0,0
160207,228.282,-455.845,0,0
160468,227.576,-456.385,0,0
160728,225.994,-456.333,0,0
160988,223.975,-455.084,0,0
161249,222.414,-452.753,0,0
161509,221.429,-449.714,0,0
161769,221.28,-446.218,0,0
162030,222.049,-442.788,0,0
162290,223.478,-439.746,0,0
162550,225.312,-437.129,0,0
162811,227.349,-435.101,0,0
163071,229.183,-433.3,0,0
163331,231.059,-431.862,0,0
163592,232.888,-430.894,0,0
163852,234.25,-430.122,0,0
164112,235.329,-429.149,0,0
164373,236.448,-427.915,0,0
164633,238.05,-426.753,0,0
164893,239.778,-426.153,0,0
165154,241.139,-425.937,0,0
165414,242.48,-425.933,0,0
165674,243.766,-426.376,0,0
165935,244.052,-427.631,0,0
166195,243.138,-428.538,0,0
166455,241.822,-428.725,0,0
166716,240.296,-428.685,0,0
166976,238.125,-428.343,0,0
167236,235.568,-427.081,0,0
167497,233.125,-424.902,0,0
167757,231.313,-422.278,0,0
168017,229.713,-419.693,0,0
168277,228.04,-417.063,0,0
168538,226.388,-414.138,0,0
168798,224.558,-410.945,0,0
169058,222.731,-407.167,0,0
169319,221.109,-402.689,0,0
169579,220.247,-397.932,0,0
169839,219.712,-393.366,0,0
170100,219.18,-388.8,0,0
170360.075,218.778,-383.914,0,0
170620.4,218.808,-378.837,0,0
170880.725,219.063,-373.793,0,0
171141.05,219.339,-368.901,0,0
171401.375,219.432,-363.844,0,0
171661.7,219.349,-358.093,0,0
171922.025,219.978,-351.589,0,0
172182.35,221.636,-344.932,0,0
172442.675,224.015,-338.492,0,0
172703.0,226.724,-332.606,0,0
172963.325,229.482,-327.014,0,0
173223.65,232.498,-321.161,0,0
173483.975,236.073,-315.673,0,0
173744.3,239.793,-310.46,0,0
174004.625,243.611,-305.64,0,0
174264.95,247.542,-301.094,0,0
174525.275,251.452,-297.043,0,0
174785.6,254.712,-293.342,0,0
175045.925,257.531,-289.237,0,0
175306.25,260.291,-284.768,0,0
175566.575,263.138,-279.896,0,0
175826.9,266.113,-274.608,0,0
176087.225,269.465,-269.062,0,0
176347.55,273.145,-263.241,0,0
176607.875,277.414,-257.127,0,0
176868.2,282.605,-251.19,0,0
177128.525,288.147,-245.875,0,0
177388.85,293.503,-241.099,0,0
177649.175,298.862,-236.711,0,0
177909.5,303.689,-231.438,0,0
178169.825,309.154,-225.677,0,0
178430.15,315.349,-219.711,0,0
178690.475,322.362,-213.894,0,0
178950.8,330.006,-208.545,0,0
179211.125,338.061,-203.687,0,0
179471.45,346.51,-199.664,0,0
179731.775,354.186,-196.191,0,0
179992.1,361.853,-192.103,0,0
180252.425,370.434,-187.843,0,0
180512.75,379.527,-184.392,0,0
180773.075,388.463,-181.302,0,0
181033.4,397.626,-178.187,0,0
181293.725,407.061,-175.241,0,0
181554.05,416.861,-172.339,0,0
181814.375,427.707,-169.594,0,0
182074.7,439.469,-167.963,0,0
182335.025,451.531,-167.9,0,0
182595.35,462.936,-169.102,0,0
182855.675,473.62,-170.793,0,0
183116.0,484.047,-172.788,0,0
183376.325,494.288,-175.397,0,0
183636.65,503.862,-178.796,0,0
183896.975,512.565,-182.742,0,0
184157.3,520.016,-186.475,0,0
184417.625,527.209,-189.113,0,0
184677.95,534.563,-191.595,0,0
184938.275,542.029,-193.896,0,0
185198.6,549.798,-195.924,0,0
185458.925,558.33,-198.071,0,0
185719.25,567.33,-201.348,0,0
185979.575,575.769,-205.524,0,0
186239.9,583.679,-209.801,0,0
186500,591.698,-214.618,0,0
186761,598.696,-220.216,0,0
187021,604.734,-225.577,0,0
187281,610.125,-230.703,0,0
187542,614.996,-235.237,0,0
187802,619.794,-238.992,0,0
188062,625.005,-242.187,0,0
188322,631.041,-245.631,0,0
188583,637.287,-249.482,0,0
188843,643.294,-253.78,0,0
189103,648.961,-258.571,0,0
189364,653.7,-263.655,0,0
189624,657.77,-267.999,0,0
189884,661.838,-271.873,0,0
190145,665.567,-275.736,0,0
190405,668.751,-278.822,0,0
190665,671.884,-280.626,0,0
190926,675.935,-281.072,0,0
191186,681.887,-281.106,0,0
191446,689.235,-281.993,0,0
191707,697.248,-284.078,0,0
191967,705.091,-287.399,0,0
192227,712.25,-291.531,0,0
192488,718.317,-295.76,0,0
192748,722.959,-299.376,0,0
193008,727.11,-300.516,0,0
193269,733.088,-299.185,0,0
193529,742.073,-297.206,0,0
193789,753.94,-296.045,0,0
194050,768.225,-296.718,0,0
194310,783.558,-299.94,0,0
194570,799.54,-305.196,0,0
194831,815.879,-313.021,0,0
195091,830.936,-323.018,0,0
195351,844.814,-333.909,0,0
195612,858.185,-345.288,0,0
195872,871.711,-357.276,0,0
196132,885.782,-371.095,0,0
196393,899.112,-386.982,0,0
196653,910.995,-404.84,0,0
196913,921.019,-423.415,0,0
197174,930.245,-442.73,0,0
197434,938.194,-462.979,0,0
197694,944.861,-484.2,0,0
197955,949.971,-506.596,0,0
198215,952.843,-529.538,0,0
198475,953.634,-552.892,0,0
198735,952.525,-575.998,0,0
198996,949.256,-598.475,0,0
199256,944.516,-620.183,0,0
199516,938.446,-640.979,0,0
199777,931.365,-661.278,0,0
200037,922.855,-681.129,0,0
200297,912.677,-699.853,0,0
200558,901.19,-716.952,0,0
200818,889.362,-732.265,0,0
201078,877.449,-746.301,0,0
201339,866.026,-759.501,0,0
201599,854.814,-772.745,0,0
201859,842.914,-786.543,0,0
202120,829.345,-800.254,0,0
202380.025,813.856,-813.66,0,0
202640.35,795.354,-824.711,0,0
202900.675,776.354,-831.534,0,0
203161.0,758.316,-835.554,0,0
203421.325,741.798,-838.068,0,0
203681.65,726.606,-839.297,0,0
203941.975,712.366,-839.581,0,0
204202.3,699.295,-839.126,0,0
204462.625,687.523,-838.126,0,0
204722.95,676.957,-837.013,0,0
204983.275,666.693,-836.31,0,0
205243.6,656.948,-835.602,0,0
205503.925,647.219,-834.778,0,0
205764.25,637.383,-833.61,0,0
206024.575,627.563,-832.2,0,0
206284.9,617.481,-829.446,0,0
206545.225,608.098,-825.365,0,0
206805.55,600.14,-820.14,0,0
207065.875,593.711,-814.478,0,0
207326.2,588.934,-808.906,0,0
207586.525,585.378,-803.781,0,0
207846.85,582.863,-799.163,0,0
208107.175,581.438,-795.396,0,0
208367.5,580.547,-792.816,0,0
208627.825,579.519,-791.209,0,0
208888.15,578.216,-790.018,0,0
209148.475,576.694,-789.285,0,0
209408.8,574.918,-788.553,0,0
209669.125,573.089,-787.631,0,0
209929.45,571.796,-786.32,0,0
210189.775,570.784,-785.295,0,0
210450.1,570.323,-784.647,0,0
210710.425,569.969,-784.29,0,0
210970.75,570.142,-784.195,0,0
211231.075,570.466,-784.672,0,0
211491.4,570.934,-785.698,0,0
211751.725,571.512,-787.378,0,0
212012.05,571.762,-789.599,0,0
212272.375,571.671,-792.407,0,0
212532.7,571.256,-795.397,0,0
212793.025,570.629,-798.74,0,0
213053.35,569.565,-802.476,0,0
213313.675,567.871,-806.344,0,0
213574.0,565.699,-810.159,0,0
213834.325,563.07,-813.708,0,0
214094.65,560.105,-817.086,0,0
214354.975,557.026,-820.032,0,0
214615.3,553.991,-822.59,0,0
214875.625,551.365,-825.008,0,0
215135.95,548.853,-827.499,0,0
215396.275,546.492,-830.424,0,0
215656.6,544.046,-833.701,0,0
215916.925,541.168,-837.055,0,0
216177.25,537.999,-840.348,0,0
216437.575,534.789,-843.709,0,0
216697.9,531.24,-847.027,0,0
216958.225,527.501,-850.322,0,0
217218.55,523.499,-853.493,0,0
217478.875,519.415,-856.319,0,0
217739.2,515.374,-859.066,0,0
217999.525,511.5,-861.923,0,0
218259.85,507.579,-864.979,0,0
218520,503.425,-868.274,0,0
218780,498.635,-871.788,0,0
219041,493.345,-875.035,0,0
219301,487.912,-877.943,0,0
219561,482.101,-880.797,0,0
219822,476.28,-883.417,0,0
220082,469.936,-885.848,0,0
220342,463.218,-887.927,0,0
220603,456.004,-889.521,0,0
220863,448.686,-890.425,0,0
221123,441.271,-890.746,0,0
221384,434.011,-890.27,0,0
221644,427.018,-889.226,0,0
221904,420.498,-887.591,0,0
222165,414.596,-885.788,0,0
222425,408.942,-883.758,0,0
222685,403.699,-881.55,0,0
222946,398.594,-879.357,0,0
223206,393.916,-876.859,0,0
223466,389.658,-874.175,0,0
223727,385.866,-871.379,0,0
223987,382.477,-868.657,0,0
224247,379.557,-866.018,0,0
224508,376.983,-863.455,0,0
224768,374.861,-861.284,0,0
225028,373.035,-859.297,0,0
225289,371.693,-857.666,0,0
225549,370.412,-856.494,0,0
225809,369.253,-855.927,0,0
226070,367.913,-855.825,0,0
226330,366.401,-856.083,0,0
226590,364.531,-856.657,0,0
226851,362.411,-857.318,0,0
227111,359.862,-858.162,0,0
227371,357.212,-858.931,0,0
227632,354.269,-859.658,0,0
227892,350.987,-860.33,0,0
228152,347.669,-860.846,0,0
228413,344.303,-861.122,0,0
228673,340.99,-861.264,0,0
228933,337.874,-861.489,0,0
229193,334.749,-861.831,0,0
229454,331.622,-862.403,0,0
229714,328.237,-863.008,0,0
229974,324.558,-863.821,0,0
230235,320.836,-864.574,0,0
230495,316.725,-865.581,0,0
230755,312.065,-866.435,0,0
231016,307.031,-866.902,0,0
231276,301.842,-867.032,0,0
231536,296.559,-866.747,0,0
231797,291.172,-866.106,0,0
232057,285.892,-865.098,0,0
232317,280.765,-863.853,0,0
232578,275.775,-862.482,0,0
232838,270.791,-861.078,0,0
233098,265.834,-859.559,0,0
233359,260.774,-857.931,0,0
233619,255.55,-856.078,0,0
233879,250.215,-853.811,0,0
234140,245.057,-851.259,0,0
234400,239.992,-848.352,0,0
234660.3,235.076,-845.122,0,0
234920.625,230.339,-841.6,0,0
235180.95,225.899,-837.743,0,0
235441.275,221.771,-833.699,0,0
235701.6,218.009,-829.48,0,0
235961.925,214.622,-825.286,0,0
236222.25,211.538,-821.109,0,0
236482.575,208.655,-816.89,0,0
236742.9,206.077,-812.666,0,0
237003.225,203.705,-808.503,0,0
237263.55,201.494,-804.401,0,0
237523.875,199.456,-800.314,0,0
237784.2,197.657,-796.257,0,0
238044.525,195.945,-792.213,0,0
238304.85,194.421,-788.187,0,0
238565.175,193.097,-784.135,0,0
238825.5,192.058,-780.023,0,0
239085.825,191.463,-776.014,0,0
239346.15,191.235,-772.232,0,0
239606.475,191.241,-768.886,0,0
239866.8,191.34,-765.966,0,0
240127.125,191.358,-763.12,0,0
240387.45,191.376,-760.701,0,0
240647.775,191.299,-758.348,0,0
240908.1,191.35,-756.164,0,0
241168.425,191.356,-754.258,0,0
241428.75,191.296,-752.722,0,0
241689.075,191.018,-751.304,0,0
241949.4,190.354,-750.181,0,0
242209.725,189.381,-748.996,0,0
242470.05,188.183,-747.665,0,0
242730.375,186.827,-746.235,0,0
242990.7,185.255,-744.483,0,0
243251.025,183.809,-742.526,0,0
243511.35,182.447,-740.459,0,0
243771.675,181.119,-738.324,0,0
244032.0,179.856,-735.994,0,0
244292.325,178.789,-733.641,0,0
244552.65,177.752,-731.237,0,0
244812.975,177.037,-728.878,0,0
245073.3,176.296,-726.592,0,0
245333.625,175.622,-724.372,0,0
245593.95,174.897,-722.157,0,0
245854.275,174.259,-719.831,0,0
246114.6,173.747,-717.583,0,0
246374.925,173.302,-715.343,0,0
246635.25,173.02,-713.226,0,0
246895.575,172.852,-711.198,0,0
247155.9,172.696,-709.445,0,0
247416.225,172.444,-707.749,0,0
247676.55,172.008,-706.249,0,0
247936.875,171.392,-704.688,0,0
248197.2,170.709,-703.002,0,0
248457.525,170.035,-701.199,0,0
248717.85,169.345,-699.332,0,0
248978.175,168.742,-697.422,0,0
249238.5,168.211,-695.471,0,0
249498.825,167.75,-693.467,0,0
249759.15,167.208,-691.533,0,0
250019.475,166.834,-689.552,0,0
250279.8,166.351,-687.551,0,0
250540,166.046,-685.448,0,0
250800,165.785,-683.298,0,0
251061,165.687,-681.11,0,0
251321,165.745,-678.947,0,0
251581,165.988,-676.865,0,0
251842,166.369,-674.882,0,0
252102,166.818,-673.104,0,0
252362,167.309,-671.466,0,0
252623,167.837,-669.975,0,0
252883,168.407,-668.618,0,0
253143,168.93,-667.51,0,0
253404,169.366,-666.58,0,0
253664,169.649,-665.725,0,0
253924,169.782,-664.997,0,0
254185,169.699,-664.301,0,0
254445,169.46,-663.549,0,0
254705,169.222,-662.709,0,0
254966,168.867,-661.858,0,0
255226,168.446,-661.045,0,0
255486,167.957,-660.205,0,0
255747,167.342,-659.308,0,0
256007,166.62,-658.3,0,0
256267,165.834,-657.185,0,0
256528,165.002,-656.003,0,0
256788,164.043,-654.693,0,0
257048,163.011,-653.154,0,0
257309,162.053,-651.373,0,0
257569,161.209,-649.407,0,0
257829,160.511,-647.296,0,0
258090,159.989,-645.05,0,0
258350,159.653,-642.721,0,0
258610,159.495,-640.404,0,0
258871,159.459,-638.032,0,0
259131,159.67,-635.667,0,0
259391,159.995,-633.296,0,0
259651,160.615,-631.029,0,0
259912,161.408,-628.915,0,0
260172,162.276,-627.001,0,0
260432,163.199,-625.291,0,0
260693,163.998,-623.706,0,0
260953,164.711,-622.003,0,0
261213,165.552,-620.393,0,0
261474,166.436,-618.829,0,0
261734,167.329,-617.288,0,0
261994,168.325,-615.833,0,0
262255,169.39,-614.523,0,0
262515,170.339,-613.399,0,0
262775,171.138,-612.282,0,0
263036,171.858,-611.065,0,0
263296,172.629,-609.721,0,0
263556,173.547,-608.412,0,0
263817,174.436,-607.219,0,0
264077,175.253,-606.048,0,0
264337,175.973,-604.806,0,0
264598,176.774,-603.423,0,0
264858,177.496,-601.914,0,0
265118,178.43,-600.273,0,0
265379,179.486,-598.545,0,0
265639,180.692,-596.714,0,0
265899,182.062,-594.751,0,0
266160,183.749,-592.711,0,0
266420,185.753,-590.645,0,0
266680.25,188.176,-588.68,0,0
266940.575,190.914,-586.882,0,0
267200.9,193.939,-585.275,0,0
267461.225,197.235,-583.892,0,0
267721.55,200.863,-582.76,0,0
267981.875,204.829,-582,0,0
268242.2,209.069,-581.658,0,0
268502.525,213.519,-581.977,0,0
268762.85,217.878,-582.815,0,0
269023.175,222.152,-584.195,0,0
269283.5,226.303,-585.98,0,0
269543.825,230.228,-588.176,0,0
269804.15,234.044,-590.703,0,0
270064.475,237.668,-593.555,0,0
270324.8,241.165,-596.757,0,0
270585.125,244.487,-600.354,0,0
270845.45,247.605,-604.506,0,0
271105.775,250.332,-608.98,0,0
271366.1,252.63,-613.902,0,0
271626.425,254.504,-619.081,0,0
271886.75,255.96,-624.544,0,0
272147.075,256.815,-630.195,0,0
272407.4,257.22,-636.05,0,0
272667.725,257.124,-642.069,0,0
272928.05,256.472,-648.289,0,0
273188.375,255.075,-654.696,0,0
273448.7,252.874,-661.114,0,0
273709.025,249.836,-667.297,0,0
273969.35,246.05,-673.204,0,0
274229.675,241.454,-678.647,0,0
274490.0,236.104,-683.379,0,0
274750.325,230.363,-687.343,0,0
275010.65,224.257,-690.425,0,0
275270.975,218.198,-692.717,0,0
275531.3,212.164,-694.246,0,0
275791.625,206.335,-695.153,0,0
276051.95,200.797,-695.567,0,0
276312.275,195.513,-695.561,0,0
276572.6,190.538,-695.294,0,0
276832.925,185.731,-694.819,0,0
277093.25,181.109,-694.089,0,0
277353.575,176.607,-693.135,0,0
277613.9,172.283,-691.94,0,0
277874.225,168.186,-690.545,0,0
278134.55,164.327,-689.014,0,0
278394.875,160.593,-687.353,0,0
278655.2,157.021,-685.559,0,0
278915.525,153.539,-683.628,0,0
279175.85,150.234,-681.456,0,0
279436.175,147.151,-679.059,0,0
279696.5,144.369,-676.526,0,0
279956.825,141.822,-673.87,0,0
280217.15,139.598,-671.129,0,0
280477.475,137.7,-668.464,0,0
280737.8,136.097,-665.781,0,0
280998.125,134.743,-663.2,0,0
281258.45,133.604,-660.766,0,0
281518.775,132.631,-658.443,0,0
281779.1,131.822,-656.272,0,0
282039.425,131.061,-654.247,0,0
282299.75,130.423,-652.324,0,0
282560,129.841,-650.517,0,0
282820,129.357,-648.865,0,0
283081,128.849,-647.357,0,0
283341,128.249,-645.982,0,0
283601,127.626,-644.621,0,0
283862,126.937,-643.247,0,0
284122,126.238,-641.834,0,0
284382,125.576,-640.35,0,0
284643,124.966,-638.804,0,0
284903,124.429,-637.172,0,0
285163,124.126,-635.491,0,0
285424,123.948,-633.824,0,0
285684,123.966,-632.184,0,0
285944,124.252,-630.647,0,0
286205,124.71,-629.294,0,0
286465,125.356,-628.154,0,0
286725,126.101,-627.234,0,0
286986,126.977,-626.596,0,0
287246,127.935,-626.288,0,0
287506,128.875,-626.363,0,0
287767,129.69,-626.852,0,0
288027,130.258,-627.706,0,0
288287,130.495,-628.867,0,0
288548,130.307,-630.206,0,0
288808,129.684,-631.608,0,0
289068,128.685,-632.934,0,0
289329,127.392,-634.165,0,0
289589,125.821,-635.335,0,0
289849,123.911,-636.318,0,0
290109,121.738,-637.106,0,0
290370,119.403,-637.578,0,0
290630,116.915,-637.712,0,0
290890,114.466,-637.531,0,0
291151,112.112,-637.101,0,0
291411,109.82,-636.559,0,0
291671,107.601,-635.894,0,0
291932,105.425,-635.12,0,0
292192,103.252,-634.258,0,0
292452,101.113,-633.27,0,0
292713,99.0217,-632.16,0,0
292973,97.0148,-630.934,0,0
293233,95.09,-629.634,0,0
293494,93.2312,-628.281,0,0
293754,91.4275,-626.878,0,0
294014,89.6873,-625.42,0,0
294275,87.978,-623.913,0,0
294535,86.3129,-622.337,0,0
294795,84.6905,-620.674,0,0
295056,83.1609,-618.947,0,0
295316,81.7292,-617.157,0,0
295576,80.3637,-615.334,0,0
295837,79.1296,-613.466,0,0
296097,77.9885,-611.602,0,0
296357,76.929,-609.734,0,0
296618,75.9552,-607.894,0,0
296878,75.0426,-606.081,0,0
297138,74.1805,-604.293,0,0
297399,73.3321,-602.522,0,0
297659,72.518,-600.763,0,0
297919,71.7145,-598.992,0,0
298180,70.9341,-597.203,0,0
298440,70.2225,-595.38,0,0
298700.2,69.5338,-593.537,0,0
298960.525,68.9198,-591.677,0,0
299220.85,68.367,-589.835,0,0
299481.175,67.8852,-587.965,0,0
299741.5,67.4433,-586.11,0,0
300001.825,67.0603,-584.246,0,0
300262.15,66.7436,-582.398,0,0
300522.475,66.5026,-580.558,0,0
300782.8,66.3235,-578.733,0,0
301043.125,66.1899,-576.922,0,0
301303.45,66.1321,-575.127,0,0
301563.775,66.1382,-573.358,0,0
301824.1,66.2342,-571.613,0,0
302084.425,66.3917,-569.932,0,0
302344.75,66.5989,-568.301,0,0
302605.075,66.8712,-566.72,0,0
302865.4,67.1962,-565.24,0,0
303125.725,67.544,-563.809,0,0
303386.05,67.9383,-562.456,0,0
303646.375,68.3329,-561.188,0,0
303906.7,68.7318,-559.988,0,0
304167.025,69.1339,-558.843,0,0
304427.35,69.51,-557.746,0,0
304687.675,69.8868,-556.706,0,0
304948.0,70.2534,-555.685,0,0
305208.325,70.6536,-554.75,0,0
305468.65,71.033,-553.834,0,0
305728.975,71.4201,-552.95,0,0
305989.3,71.82,-552.137,0,0
306249.625,72.2017,-551.388,0,0
306509.95,72.5584,-550.704,0,0
306770.275,72.8766,-550.079,0,0
307030.6,73.1429,-549.48,0,0
307290.925,73.3509,-548.904,0,0
307551.25,73.5243,-548.311,0,0
307811.575,73.7185,-547.697,0,0
308071.9,73.9234,-547.115,0,0
308332.225,74.1741,-546.582,0,0
308592.55,74.4075,-546.116,0,0
308852.875,74.6197,-545.773,0,0
309113.2,74.738,-545.508,0,0
309373.525,74.7396,-545.281,0,0
309633.85,74.6186,-545.037,0,0
309894.175,74.3909,-544.737,0,0
310154.5,74.1306,-544.366,0,0
310414.825,73.8571,-543.94,0,0
310675.15,73.578,-543.437,0,0
310935.475,73.3213,-542.919,0,0
311195.8,73.0748,-542.365,0,0
311456.125,72.8338,-541.802,0,0
311716.45,72.6403,-541.236,0,0
311976.775,72.4591,-540.669,0,0
312237.1,72.2893,-540.134,0,0
312497.425,72.123,-539.632,0,0
312757.75,71.9344,-539.154,0,0
313018.075,71.7356,-538.706,0,0
313278.4,71.4963,-538.267,0,0
313538.725,71.2188,-537.842,0,0
313799.05,70.8759,-537.417,0,0
314059.375,70.5186,-536.957,0,0
314319.7,70.1191,-536.456,0,0
314580,69.7359,-535.928,0,0
314840,69.2503,-535.413,0,0
315101,68.8519,-534.788,0,0
315361,68.4463,-534.194,0,0
315621,67.9228,-533.519,0,0
315882,67.5899,-532.82,0,0
316142,67.1152,-532.106,0,0
316402,66.7263,-531.374,0,0
316663,66.4085,-530.511,0,0
316923,66.1296,-529.747,0,0
317183,65.925,-529.035,0,0
317444,65.6564,-528.281,0,0
317704,65.4762,-527.533,0,0
317964,65.2487,-526.869,0,0
318225,65.0386,-526.208,0,0
318485,64.8002,-525.482,0,0
318745,64.5582,-524.749,0,0
319006,64.3648,-523.974,0,0
319266,64.1867,-523.276,0,0
319526,64.077,-522.532,0,0
319787,63.9356,-521.835,0,0
320047,63.8653,-521.106,0,0
320307,63.868,-520.492,0,0
320567,63.8114,-519.877,0,0
320828,63.8126,-519.39,0,0
321088,63.7653,-518.876,0,0
321348,63.5947,-518.499,0,0
321609,63.4881,-518.095,0,0
321869,63.2811,-517.701,0,0
322129,63.0724,-517.275,0,0
322390,62.8247,-516.851,0,0
322650,62.5662,-516.451,0,0
322910,62.2617,-516.075,0,0
323171,61.9233,-515.699,0,0
323431,61.5868,-515.267,0,0
323691,61.2603,-514.837,0,0
323952,60.8686,-514.46,0,0
324212,60.3798,-514.03,0,0
324472,59.9709,-513.54,0,0
324733,59.4442,-513.115,0,0
324993,58.8944,-512.585,0,0
325253,58.3953,-512.089,0,0
325514,57.7875,-511.515,0,0
325774,57.192,-510.863,0,0
326034,56.6837,-510.141,0,0
326295,56.1538,-509.484,0,0
326555,55.6616,-508.751,0,0
326815,55.2156,-507.958,0,0
327076,54.6781,-507.27,0,0
327336,54.2768,-506.459,0,0
327596,53.8258,-505.745,0,0
327857,53.4017,-504.925,0,0
328117,53.0383,-504.223,0,0
328377,52.6333,-503.444,0,0
328638,52.2123,-502.549,0,0
328898,51.7946,-501.861,0,0
329158,51.3969,-501.039,0,0
329419,50.9815,-500.231,0,0
329679,50.5578,-499.288,0,0
329939,50.2397,-498.471,0,0
330200,49.8812,-497.626,0,0
330460,49.5342,-496.783,0,0
330720.15,49.2095,-495.866,0,0
330980.475,48.9271,-494.978,0,0
331240.8,48.6171,-494.154,0,0
331501.125,48.2859,-493.221,0,0
331761.45,48.0387,-492.344,0,0
332021.775,47.786,-491.42,0,0
332282.1,47.5434,-490.511,0,0
332542.425,47.3144,-489.552,0,0
332802.75,47.0864,-488.626,0,0
333063.075,46.9331,-487.692,0,0
333323.4,46.7479,-486.698,0,0
333583.725,46.6443,-485.819,0,0
333844.05,46.5306,-484.823,0,0
334104.375,46.4968,-483.91,0,0
334364.7,46.4044,-482.977,0,0
334625.025,46.4396,-482.042,0,0
334885.35,46.4936,-481.192,0,0
335145.675,46.5491,-480.3,0,0
335406.0,46.5869,-479.51,0,0
335666.325,46.733,-478.709,0,0
335926.65,46.8203,-478.013,0,0
336186.975,46.8851,-477.293,0,0
336447.3,46.9661,-476.64,0,0
336707.625,46.9643,-476.048,0,0
336967.95,47.0065,-475.393,0,0
337228.275,47.0329,-474.804,0,0
337488.6,47.0427,-474.223,0,0
337748.925,47.0056,-473.614,0,0
338009.25,46.996,-473.043,0,0
338269.575,46.9123,-472.532,0,0
338529.9,46.8327,-471.927,0,0
338790.225,46.7114,-471.426,0,0
339050.55,46.5505,-470.822,0,0
339310.875,46.4636,-470.247,0,0
339571.2,46.3168,-469.681,0,0
339831.525,46.126,-469.066,0,0
340091.85,46.0164,-468.452,0,0
340352.175,45.7951,-467.894,0,0
340612.5,45.6041,-467.261,0,0
340872.825,45.402,-466.654,0,0
341133.15,45.1694,-466.01,0,0
341393.475,44.9877,-465.384,0,0
341653.8,44.7382,-464.718,0,0
341914.125,44.4957,-464.045,0,0
342174.45,44.2804,-463.321,0,0
342434.775,44.0271,-462.59,0,0
342695.1,43.8566,-461.82,0,0
342955.425,43.695,-461.031,0,0
343215.75,43.4599,-460.29,0,0
343476.075,43.3416,-459.503,0,0
343736.4,43.1493,-458.759,0,0
343996.725,43.0411,-457.918,0,0
344257.05,42.8318,-457.122,0,0
344517.375,42.8001,-456.272,0,0
344777.7,42.6234,-455.509,0,0
345038.025,42.5162,-454.681,0,0
345298.35,42.4599,-453.848,0,0
345558.675,42.3481,-453.043,0,0
345819.0,42.3105,-452.214,0,0
346079.325,42.2519,-451.375,0,0
346339.65,42.273,-450.549,0,0
346599.975,42.2528,-449.744,0,0
346860,42.2233,-448.877,0,0
347121,42.2304,-448.049,0,0
347381,42.283,-447.246,0,0
347641,42.3432,-446.415,0,0
347902,42.391,-445.584,0,0
348162,42.4591,-444.799,0,0
348422,42.5739,-443.983,0,0
348683,42.6625,-443.237,0,0
348943,42.7497,-442.459,0,0
349203,42.8708,-441.669,0,0
349464,42.9619,-440.854,0,0
349724,43.1381,-440.096,0,0
349984,43.2683,-439.318,0,0
350245,43.4082,-438.568,0,0
350505,43.5801,-437.854,0,0
350765,43.7727,-437.038,0,0
351025,43.9985,-436.327,0,0
351286,44.2723,-435.664,0,0
351546,44.4975,-434.912,0,0
351806,44.7629,-434.264,0,0
352067,45.0039,-433.606,0,0
352327,45.2727,-432.992,0,0
352587,45.5366,-432.394,0,0
352848,45.8304,-431.788,0,0
353108,46.0531,-431.262,0,0
353368,46.3617,-430.722,0,0
353629,46.6126,-430.2,0,0
353889,46.8173,-429.719,0,0
354149,47.0747,-429.193,0,0
354410,47.2894,-428.721,0,0
354670,47.467,-428.253,0,0
354930,47.6913,-427.804,0,0
355191,47.8503,-427.357,0,0
355451,48.0816,-426.881,0,0
355711,48.2287,-426.441,0,0
355972,48.4264,-425.979,0,0
356232,48.5966,-425.594,0,0
356492,48.7748,-425.195,0,0
356753,48.8875,-424.748,0,0
357013,49.06,-424.386,0,0
357273,49.1664,-423.984,0,0
357534,49.2917,-423.567,0,0
357794,49.3809,-423.134,0,0
358054,49.4905,-422.734,0,0
358315,49.5869,-422.322,0,0
358575,49.6588,-421.893,0,0
358835,49.7187,-421.494,0,0
359096,49.8157,-421.025,0,0
359356,49.914,-420.637,0,0
359616,50.0307,-420.216,0,0
359877,50.0913,-419.81,0,0
360137,50.1819,-419.428,0,0
360397,50.2643,-418.954,0,0
360658,50.3487,-418.569,0,0
360918,50.4474,-418.181,0,0
361178,50.5153,-417.757,0,0
361438,50.6121,-417.355,0,0
361699,50.6996,-416.973,0,0
361959,50.7852,-416.545,0,0
362219,50.8898,-416.161,0,0
362480,50.911,-415.794,0,0
362740.1,50.9931,-415.376,0,0
363000.425,51.0254,-414.997,0,0
363260.75,51.075,-414.627,0,0
363521.075,51.1675,-414.232,0,0
363781.4,51.223,-413.867,0,0
364041.725,51.2458,-413.499,0,0
364302.05,51.3377,-413.116,0,0
364562.375,51.3461,-412.717,0,0
364822.7,51.3526,-412.314,0,0
365083.025,51.3966,-411.964,0,0
365343.35,51.4717,-411.591,0,0
365603.675,51.5108,-411.194,0,0
365864.0,51.5018,-410.8,0,0
366124.325,51.5395,-410.395,0,0
366384.65,51.5864,-410.033,0,0
366644.975,51.5781,-409.654,0,0
366905.3,51.6497,-409.25,0,0
367165.625,51.6223,-408.829,0,0
367425.95,51.6555,-408.438,0,0
367686.275,51.6405,-408.086,0,0
367946.6,51.6812,-407.655,0,0
368206.925,51.7327,-407.24,0,0
368467.25,51.7433,-406.794,0,0
368727.575,51.776,-406.308,0,0
368987.9,51.8321,-405.867,0,0
369248.225,51.8545,-405.406,0,0
369508.55,51.9724,-404.977,0,0
369768.875,52.0848,-404.476,0,0
370029.2,52.2342,-404.041,0,0
370289.525,52.4138,-403.58,0,0
370549.85,52.6403,-403.221,0,0
370810.175,52.8298,-402.858,0,0
371070.5,53.0547,-402.547,0,0
371330.825,53.2689,-402.276,0,0
371591.15,53.4721,-402.044,0,0
371851.475,53.6169,-401.839,0,0
372111.8,53.7299,-401.656,0,0
372372.125,53.8577,-401.488,0,0
372632.45,53.9389,-401.356,0,0
372892.775,54.0257,-401.207,0,0
373153.1,54.0491,-401.029,0,0
373413.425,54.0085,-400.909,0,0
373673.75,53.9971,-400.782,0,0
373934.075,53.9446,-400.645,0,0
374194.4,53.8723,-400.502,0,0
374454.725,53.7176,-400.348,0,0
374715.05,53.5839,-400.164,0,0
374975.375,53.428,-399.967,0,0
375235.7,53.229,-399.727,0,0
375496.025,53.0602,-399.492,0,0
375756.35,52.842,-399.201,0,0
376016.675,52.6307,-398.835,0,0
376277.0,52.4443,-398.476,0,0
376537.325,52.2945,-398.108,0,0
376797.65,52.1448,-397.728,0,0
377057.975,52.0718,-397.305,0,0
377318.3,52.0086,-396.949,0,0
377578.625,51.9765,-396.593,0,0
377838.95,51.8916,-396.27,0,0
378099.275,51.8704,-395.994,0,0
378359.6,51.7031,-395.74,0,0
378619.925,51.5795,-395.476,0,0
378880,51.4293,-395.175,0,0
379141,51.1874,-394.869,0,0
379401,50.9675,-394.504,0,0
379661,50.7227,-394.106,0,0
379922,50.5634,-393.585,0,0
380182,50.3858,-393.061,0,0
380442,50.3328,-392.523,0,0
380703,50.3296,-392.009,0,0
380963,50.4172,-391.522,0,0
381223,50.4711,-391.076,0,0
381483,50.6082,-390.755,0,0
381744,50.7305,-390.504,0,0
382004,50.7889,-390.298,0,0
382264,50.7934,-390.154,0,0
382525,50.7426,-390.035,0,0
382785,50.6703,-389.891,0,0
383045,50.4679,-389.762,0,0
383306,50.2631,-389.569,0,0
383566,50.071,-389.343,0,0
383826,49.7721,-389.132,0,0
384087,49.4615,-388.873,0,0
384347,49.164,-388.608,0,0
384607,48.8341,-388.301,0,0
384868,48.5135,-387.948,0,0
385128,48.207,-387.611,0,0
385388,47.8753,-387.246,0,0
385649,47.548,-386.812,0,0
385909,47.2073,-386.37,0,0
386169,46.8722,-385.877,0,0
386430,46.5743,-385.394,0,0
386690,46.2517,-384.914,0,0
386950,45.9552,-384.376,0,0
387211,45.6823,-383.786,0,0
387471,45.4374,-383.257,0,0
387731,45.1625,-382.659,0,0
387992,44.9078,-382.063,0,0
388252,44.7054,-381.486,0,0
388512,44.4889,-380.825,0,0
388773,44.3239,-380.209,0,0
389033,44.1843,-379.519,0,0
389293,44.0435,-378.912,0,0
389554,43.9549,-378.314,0,0
389814,43.857,-377.692,0,0
390074,43.7802,-377.075,0,0
390335,43.7511,-376.458,0,0
390595,43.7223,-375.889,0,0
390855,43.6596,-375.304,0,0
391116,43.573,-374.743,0,0
391376,43.5685,-374.199,0,0
391636,43.4641,-373.655,0,0
391896,43.4194,-373.105,0,0
392157,43.3418,-372.577,0,0
392417,43.2725,-372.036,0,0
392677,43.1865,-371.467,0,0
392938,43.152,-370.931,0,0
393198,43.0601,-370.364,0,0
393458,42.9842,-369.806,0,0
393719,42.9378,-369.247,0,0
393979,42.8366,-368.668,0,0
394239,42.8066,-368.065,0,0
394500,42.7622,-367.456,0,0
394760.05,42.7004,-366.874,0,0
395020.375,42.6564,-366.257,0,0
395280.7,42.6813,-365.663,0,0
395541.025,42.654,-365.033,0,0
395801.35,42.6639,-364.445,0,0
396061.675,42.6949,-363.837,0,0
396322.0,42.7327,-363.243,0,0
396582.325,42.8136,-362.673,0,0
396842.65,42.8145,-362.089,0,0
397102.975,42.8959,-361.533,0,0
397363.3,42.9644,-361.007,0,0
397623.625,43.0169,-360.474,0,0
397883.95,43.055,-359.946,0,0
398144.275,43.0466,-359.409,0,0
398404.6,43.0955,-358.903,0,0
398664.925,43.1272,-358.316,0,0
398925.25,43.1932,-357.87,0,0
399185.575,43.2197,-357.336,0,0
399445.9,43.2352,-356.791,0,0
399706.225,43.2681,-356.284,0,0
399966.55,43.2531,-355.772,0,0
400006.6,43.2875,-355.681,0,0