File: Accelerated corrosion test data/2025-10-18_06-00-03/sample_7.csv
Frequency (Hz),Impedance (ohms),Phase (Radians),Temperature (C),Humidity (%)
10000.0,277.76,-12143.6,0,0
10260.325,277.061,-11851.7,0,0
10520.65,261.232,-11549.9,0,0
10780.975,255.307,-11267.5,0,0
11041.3,253.157,-10998.3,0,0
11301.625,250.328,-10741.2,0,0
11561.95,254.613,-10491.3,0,0
11822.275,258.646,-10262.3,0,0
12082.6,271.828,-10027.3,0,0
12342.925,330.644,-9869.3,0,0
12603.25,264.302,-9687.97,0,0
12863.575,269.924,-9505.34,0,0
13123.9,240.122,-9311.96,0,0
13384.225,232.03,-9141.03,0,0
13644.55,229.04,-8958.54,0,0
13904.875,211.974,-8790.15,0,0
14165.2,211.179,-8614.89,0,0
14425.525,205.042,-8475.32,0,0
14685.8,204.936,-8326.13,0,0
14946.175,201.573,-8178.36,0,0
15206.5,198.955,-8048.03,0,0
15466.825,188.353,-7904.68,0,0
15727.15,186.434,-7777.58,0,0
15987.5,181.358,-7647.69,0,0
16247.8,179.587,-7527.12,0,0
16508.125,173.158,-7404.59,0,0
16768.45,173.049,-7285.3,0,0
17028.775,172.555,-7175.6,0,0
17289.1,167.589,-7065.36,0,0
17549.425,166.385,-6957.13,0,0
17809.75,170.541,-6847.35,0,0
18070.075,169.655,-6748.52,0,0
18330.4,180.995,-6640.94,0,0
18590.725,201.042,-6555.61,0,0
18851.05,193.913,-6489.81,0,0
19111.375,182.367,-6394.75,0,0
19371.7,211.515,-6337.92,0,0
19632.025,170.651,-6262.02,0,0
19892.35,159.933,-6158.77,0,0
20152.675,176.051,-6078.18,0,0
20413.0,170.067,-6014.28,0,0
20673.3,172.084,-5927.83,0,0
20933.65,185.55,-5870.05,0,0
21193.975,164.45,-5808.04,0,0
21454.3,157.748,-5731.12,0,0
21714.625,158.302,-5670.12,0,0
21974.9,146.808,-5602.85,0,0
22235.275,142.717,-5533.77,0,0
22495.6,139.193,-5470.37,0,0
22755.925,134.418,-5405.37,0,0
23016.25,131.3,-5341.2,0,0
23276.6,129.376,-5278.22,0,0
23536.9,130.065,-5217.99,0,0
23797.225,128.556,-5162.07,0,0
24057.55,125.295,-5104.58,0,0
24317.875,123.837,-5046.47,0,0
24578.2,125.007,-4992.51,0,0
24838.525,123.561,-4939.05,0,0
25098.85,121.076,-4886.4,0,0
25359.175,120.113,-4833.89,0,0
25619.5,119.483,-4781.19,0,0
25879.8,120.751,-4731.21,0,0
26140.1,120.523,-4678.8,0,0
26400.5,124.195,-4634.34,0,0
26660.8,120.642,-4586.04,0,0
26921.1,121.984,-4534.53,0,0
27181.4,128.178,-4486.88,0,0
27441.8,130.677,-4438.85,0,0
27702.1,141.248,-4390.83,0,0
27962.4,156.161,-4343.81,0,0
28222.7,182.658,-4312.18,0,0
28483.1,198.72,-4298.16,0,0
28743.4,196.627,-4288.43,0,0
29003.7,176.403,-4273.5,0,0
29264,154.669,-4237.1,0,0
29524.4,142.761,-4197.79,0,0
29784.7,132.897,-4158.92,0,0
30045,128.55,-4113.89,0,0
30305.3,130.292,-4075.3,0,0
30565.7,131.355,-4039.15,0,0
30826,131.513,-4006.1,0,0
31086.3,134.558,-3976.18,0,0
31346.6,133.774,-3946.13,0,0
31607,131.371,-3924.09,0,0
31867.3,121.939,-3890.42,0,0
32127.6,120.26,-3859.2,0,0
32387.9,116.3,-3829.33,0,0
32648.3,112.354,-3798.92,0,0
32908.6,108.837,-3768.33,0,0
33168.9,105.438,-3737.96,0,0
33429.2,102.539,-3708.14,0,0
33689.6,100.007,-3677.88,0,0
33949.9,97.9157,-3648.59,0,0
34210.2,96.248,-3619.5,0,0
34470.5,94.5194,-3590.85,0,0
34730.9,93.2504,-3562.39,0,0
34991.2,92.2546,-3534.71,0,0
35251.5,90.707,-3507.17,0,0
35511.8,89.8677,-3480.44,0,0
35772.2,89.5158,-3453.61,0,0
36032.5,89.1763,-3427.99,0,0
36292.8,88.6607,-3402.79,0,0
36553.1,87.1533,-3377.49,0,0
36813.5,86.9906,-3352.16,0,0
37073.8,87.1824,-3327.63,0,0
37334.1,86.7915,-3303.22,0,0
37594.4,86.7908,-3279.88,0,0
37854.8,85.7621,-3256.15,0,0
38115.1,85.9659,-3232,0,0
38375.4,86.5266,-3208.82,0,0
38635.7,87.3767,-3185.37,0,0
38896.1,89.4667,-3162.69,0,0
39156.4,90.9473,-3140.56,0,0
39416.7,95.0723,-3119.05,0,0
39677,99.255,-3101.53,0,0
39937.4,100.355,-3085.78,0,0
40197.7,101.063,-3070.26,0,0
40458,97.8826,-3054.89,0,0
40718.3,94.0477,-3037.53,0,0
40978.7,91.0957,-3018.59,0,0
41239,87.8966,-2999.65,0,0
41499.3,85.8805,-2979.72,0,0
41759.6,84.703,-2960.31,0,0
42020,82.7463,-2941.59,0,0
42280.275,81.1928,-2922.09,0,0
42540.6,80.5627,-2902.34,0,0
42800.925,80.6156,-2884.22,0,0
43061.25,80.7589,-2865.45,0,0
43321.575,80.9116,-2848.92,0,0
43581.9,78.9859,-2831.11,0,0
43842.225,79.247,-2811.95,0,0
44102.55,81.1433,-2794.6,0,0
44362.875,82.7493,-2778.81,0,0
44623.2,83.6847,-2764.09,0,0
44883.525,82.305,-2750.75,0,0
45143.85,80.9947,-2734.1,0,0
45404.175,79.8136,-2718.97,0,0
45664.5,79.9913,-2702.03,0,0
45924.825,81.9741,-2687.8,0,0
46185.15,80.9247,-2676.47,0,0
46445.475,77.9173,-2662.49,0,0
46705.8,74.8704,-2647.38,0,0
46966.125,72.7209,-2631.37,0,0
47226.45,71.8171,-2615.41,0,0
47486.775,71.572,-2600.12,0,0
47747.1,71.0328,-2585.25,0,0
48007.425,70.5605,-2570.81,0,0
48267.75,70.3201,-2556.59,0,0
48528.075,69.5759,-2542.62,0,0
48788.4,69.0538,-2528.52,0,0
49048.725,68.4773,-2514.63,0,0
49309.05,68.1,-2500.98,0,0
49569.375,67.4221,-2487.28,0,0
49829.7,66.9317,-2473.67,0,0
50090.025,66.8252,-2460.39,0,0
50350.35,66.5584,-2447.17,0,0
50610.675,66.4474,-2434.2,0,0
50871.0,65.8902,-2421.36,0,0
51131.325,65.5107,-2408.64,0,0
51391.65,65.077,-2395.81,0,0
51651.975,64.9469,-2383.32,0,0
51912.3,64.5887,-2370.85,0,0
52172.625,64.5785,-2358.49,0,0
52432.95,64.2603,-2346.62,0,0
52693.275,64.1022,-2334.38,0,0
52953.6,64.2089,-2322.49,0,0
53213.925,64.1892,-2311.08,0,0
53474.25,63.8453,-2299.79,0,0
53734.575,63.4356,-2288.44,0,0
53994.9,62.9887,-2277.16,0,0
54255.225,62.6,-2265.65,0,0
54515.55,62.2739,-2254.48,0,0
54775.875,62.1089,-2243.44,0,0
55036.2,61.794,-2232.47,0,0
55296.525,61.4492,-2221.49,0,0
55556.85,61.265,-2210.73,0,0
55817.175,60.9054,-2200.01,0,0
56077.5,60.6733,-2189.12,0,0
56337.825,60.7625,-2178.53,0,0
56598.15,60.6607,-2168.28,0,0
56858.475,60.4202,-2157.93,0,0
57118.8,60.3651,-2147.84,0,0
57379.125,60.0737,-2137.8,0,0
57639.45,59.809,-2127.7,0,0
57899.775,59.4999,-2117.52,0,0
58160.1,59.6967,-2107.27,0,0
58420.4,59.9541,-2097.74,0,0
58680.7,59.8965,-2088.37,0,0
58941.1,59.6848,-2078.96,0,0
59201.4,59.5302,-2069.43,0,0
59461.7,59.547,-2059.82,0,0
59722,59.7493,-2050.75,0,0
59982.4,59.6804,-2041.65,0,0
60242.7,59.9494,-2032.72,0,0
60503,59.7639,-2024.45,0,0
60763.3,59.0629,-2015.7,0,0
61023.7,58.4915,-2006.93,0,0
61284,58.357,-1998.09,0,0
61544.3,58.0848,-1989.38,0,0
61804.6,57.6419,-1980.79,0,0
62065,57.1106,-1972.11,0,0
62325.3,56.7569,-1963.43,0,0
62585.6,56.4974,-1954.82,0,0
62845.9,56.2235,-1946.21,0,0
63106.3,55.9693,-1937.66,0,0
63366.6,55.7666,-1929.2,0,0
63626.9,55.745,-1920.82,0,0
63887.2,55.5877,-1912.66,0,0
64147.6,55.4574,-1904.43,0,0
64407.9,55.4403,-1896.38,0,0
64668.2,55.1972,-1888.38,0,0
64928.5,55.145,-1880.26,0,0
65188.9,55.2088,-1872.37,0,0
65449.2,55.3089,-1864.61,0,0
65709.5,55.3626,-1857.1,0,0
65969.8,55.0449,-1849.64,0,0
66230.2,54.9676,-1842.2,0,0
66490.5,54.6928,-1834.93,0,0
66750.8,54.2162,-1827.67,0,0
67011.1,53.9004,-1820.27,0,0
67271.5,53.3808,-1812.8,0,0
67531.8,53.0443,-1805.23,0,0
67792.1,52.8843,-1797.86,0,0
68052.4,52.6667,-1790.52,0,0
68312.8,52.4151,-1783.14,0,0
68573.1,52.2192,-1775.94,0,0
68833.4,52.1259,-1768.74,0,0
69093.7,51.8362,-1761.58,0,0
69354.1,51.7906,-1754.38,0,0
69614.4,51.6972,-1747.45,0,0
69874.7,51.6372,-1740.6,0,0
70135,51.4487,-1733.59,0,0
70395.4,51.3717,-1726.67,0,0
70655.7,51.3021,-1719.77,0,0
70916,51.3425,-1713.05,0,0
71176.3,51.4387,-1706.57,0,0
71436.7,51.2522,-1700.1,0,0
71697,50.9856,-1693.52,0,0
71957.3,50.8377,-1687.08,0,0
72217.6,50.6033,-1680.63,0,0
72478,50.5334,-1674.15,0,0
72738.3,50.125,-1667.79,0,0
72998.6,50.0065,-1661.33,0,0
73258.9,49.8436,-1654.96,0,0
73519.3,49.6047,-1648.58,0,0
73779.6,49.502,-1642.33,0,0
74039.9,49.3145,-1635.98,0,0
74300.225,49.2154,-1629.8,0,0
74560.55,49.1577,-1623.57,0,0
74820.875,49.0743,-1617.45,0,0
75081.2,48.9814,-1611.36,0,0
75341.525,48.8637,-1605.37,0,0
75601.85,48.7648,-1599.35,0,0
75862.175,48.5998,-1593.38,0,0
76122.5,48.4658,-1587.38,0,0
76382.825,48.3864,-1581.51,0,0
76643.15,48.2582,-1575.55,0,0
76903.475,48.2656,-1569.72,0,0
77163.8,48.1982,-1563.95,0,0
77424.125,48.1228,-1558.21,0,0
77684.45,48.1169,-1552.47,0,0
77944.775,48.0094,-1546.8,0,0
78205.1,47.9578,-1541.24,0,0
78465.425,47.9166,-1535.58,0,0
78725.75,47.8686,-1530,0,0
78986.075,47.7834,-1524.42,0,0
79246.4,47.7182,-1518.95,0,0
79506.725,47.7321,-1513.41,0,0
79767.05,47.7543,-1508.05,0,0
80027.375,47.6603,-1502.6,0,0
80287.7,47.6518,-1497.32,0,0
80548.025,47.546,-1492.03,0,0
80808.35,47.4494,-1486.73,0,0
81068.675,47.3153,-1481.46,0,0
81329.0,47.269,-1476.23,0,0
81589.325,47.2457,-1470.97,0,0
81849.65,47.1206,-1465.76,0,0
82109.975,47.0814,-1460.54,0,0
82370.3,46.9773,-1455.42,0,0
82630.625,46.9839,-1450.33,0,0
82890.95,46.8769,-1445.22,0,0
83151.275,46.8118,-1440.12,0,0
83411.6,46.7622,-1434.99,0,0
83671.925,46.7892,-1429.91,0,0
83932.25,46.8074,-1424.91,0,0
84192.575,46.8287,-1419.92,0,0
84452.9,46.8662,-1414.95,0,0
84713.225,46.946,-1410.06,0,0
84973.55,47.0979,-1405.19,0,0
85233.875,47.2369,-1400.46,0,0
85494.2,47.1587,-1395.74,0,0
85754.525,47.155,-1391.01,0,0
86014.85,47.0539,-1386.27,0,0
86275.175,47.2441,-1381.44,0,0
86535.5,47.2749,-1376.88,0,0
86795.825,47.2325,-1372.29,0,0
87056.15,47.1286,-1367.59,0,0
87316.475,47.2698,-1362.88,0,0
87576.8,47.313,-1358.45,0,0
87837.125,47.4142,-1354.05,0,0
88097.45,47.3264,-1349.67,0,0
88357.775,47.2901,-1345.21,0,0
88618.1,47.19,-1340.78,0,0
88878.425,47.054,-1336.3,0,0
89138.75,46.919,-1331.84,0,0
89399.075,46.7677,-1327.32,0,0
89659.4,46.7066,-1322.77,0,0
89919.725,46.7253,-1318.26,0,0
90180,46.649,-1313.67,0,0
90440.4,46.8156,-1309.28,0,0
90700.7,46.8935,-1304.91,0,0
90961,46.8274,-1300.57,0,0
91221.3,46.7958,-1296.14,0,0
91481.7,46.8005,-1291.76,0,0
91742,46.9483,-1287.35,0,0
92002.3,47.0736,-1283.02,0,0
92262.6,47.2379,-1278.75,0,0
92523,47.3968,-1274.6,0,0
92783.3,47.312,-1270.46,0,0
93043.6,47.3189,-1266.06,0,0
93303.9,47.5094,-1261.41,0,0
93564.3,47.9392,-1256.98,0,0
93824.6,48.3972,-1252.7,0,0
94084.9,49.1872,-1248.68,0,0
94345.2,49.7544,-1244.92,0,0
94605.6,50.218,-1241.22,0,0
94865.9,50.6941,-1237.62,0,0
95126.2,51.2674,-1234.36,0,0
95386.5,51.0464,-1231.51,0,0
95646.9,50.3283,-1228.06,0,0
95907.2,49.8136,-1224.16,0,0
96167.5,49.634,-1220.14,0,0
96427.8,49.3536,-1216.35,0,0
96688.2,49.0658,-1212.27,0,0
96948.5,48.9708,-1208.04,0,0
97208.8,49.0072,-1204.01,0,0
97469.1,49.1628,-1200.03,0,0
97729.5,49.3324,-1196.02,0,0
97989.8,49.5501,-1192.11,0,0
98250.1,49.876,-1188.38,0,0
98510.4,50.0014,-1184.83,0,0
98770.8,50.0227,-1181.11,0,0
99031.1,50.0634,-1177.41,0,0
99291.4,50.0835,-1173.72,0,0
99551.7,50.1252,-1170.04,0,0
99812.1,50.0492,-1166.36,0,0
100072,49.7851,-1162.51,0,0
100333,49.858,-1158.34,0,0
100593,50.2385,-1154.39,0,0
100853,50.6183,-1150.63,0,0
101114,51.0266,-1146.9,0,0
101374,51.2753,-1143.47,0,0
101634,51.3439,-1139.62,0,0
101895,51.793,-1135.77,0,0
102155,52.3079,-1132.17,0,0
102415,52.7283,-1128.72,0,0
102676,53.1055,-1125.21,0,0
102936,53.5204,-1121.7,0,0
103196,53.9979,-1118.26,0,0
103457,54.582,-1114.78,0,0
103717,55.3948,-1111.67,0,0
103977,55.6718,-1108.91,0,0
104238,55.7029,-1105.75,0,0
104498,56.0493,-1102.48,0,0
104758,56.4403,-1099.53,0,0
105019,56.5269,-1096.68,0,0
105279,56.546,-1093.62,0,0
105539,56.4431,-1090.57,0,0
105800,56.325,-1087.41,0,0
106060,56.3025,-1084.15,0,0
106320.175,56.1109,-1080.96,0,0
106580.5,55.8804,-1077.45,0,0
106840.825,56.1044,-1073.76,0,0
107101.15,56.5108,-1070.51,0,0
107361.475,56.5938,-1067.3,0,0
107621.8,56.8563,-1064.04,0,0
107882.125,56.8545,-1060.81,0,0
108142.45,57.0916,-1057.38,0,0
108402.775,57.2945,-1054.1,0,0
108663.1,57.6063,-1050.83,0,0
108923.425,57.8477,-1047.63,0,0
109183.75,58.0496,-1044.44,0,0
109444.075,58.1281,-1041.29,0,0
109704.4,58.0739,-1037.87,0,0
109964.725,58.1806,-1034.23,0,0
110225.05,58.5892,-1030.62,0,0
110485.375,59.0589,-1027.11,0,0
110745.7,59.7076,-1023.57,0,0
111006.025,60.421,-1020.12,0,0
111266.35,61.0175,-1017.11,0,0
111526.675,61.4212,-1013.66,0,0
111787.0,62.1104,-1010.22,0,0
112047.325,63.1087,-1006.76,0,0
112307.65,63.9283,-1003.5,0,0
112567.975,64.9566,-1000.27,0,0
112828.3,66.0997,-997.17,0,0
113088.625,67.1661,-994.106,0,0
113348.95,68.4591,-991.253,0,0
113609.275,69.4408,-988.598,0,0
113869.6,70.4114,-985.752,0,0
114129.925,71.4616,-982.881,0,0
114390.25,72.7758,-979.957,0,0
114650.575,74.2143,-977.407,0,0
114910.9,75.3203,-975.007,0,0
115171.225,76.5134,-972.24,0,0
115431.55,78.0086,-969.563,0,0
115691.875,79.8717,-967.237,0,0
115952.2,81.6407,-965.184,0,0
116212.525,83.4982,-963.338,0,0
116472.85,85.2859,-961.862,0,0
116733.175,86.8683,-960.768,0,0
116993.5,88.2234,-959.757,0,0
117253.825,89.243,-958.815,0,0
117514.15,90.2908,-957.811,0,0
117774.475,91.1228,-957.03,0,0
118034.8,91.7423,-956.064,0,0
118295.125,92.6528,-955.043,0,0
118555.45,93.6703,-954.397,0,0
118815.775,94.5333,-954.039,0,0
119076.1,95.2297,-954.105,0,0
119336.425,95.5576,-954.39,0,0
119596.75,95.5562,-955.084,0,0
119857.075,94.5888,-956.039,0,0
120117.4,92.8862,-956.274,0,0
120377.725,91.2037,-956.363,0,0
120638.05,88.8471,-956.294,0,0
120898.375,86.0447,-955.604,0,0
121158.7,83.0225,-953.957,0,0
121419.025,80.5418,-951.672,0,0
121679.35,78.4791,-949.258,0,0
121939.675,76.7283,-946.854,0,0
122200.0,74.873,-944.439,0,0
122460,73.2239,-941.728,0,0
122721,71.8297,-939.085,0,0
122981,70.4351,-936.582,0,0
123241,68.8296,-933.905,0,0
123502,67.36,-930.925,0,0
123762,66.0911,-927.745,0,0
124022,65.3542,-924.536,0,0
124283,64.7524,-921.816,0,0
124543,63.8627,-919.212,0,0
124803,62.9672,-916.467,0,0
125064,62.0299,-913.737,0,0
125324,61.0503,-910.912,0,0
125584,60.1824,-907.901,0,0
125845,59.5054,-904.945,0,0
126105,58.9119,-902.061,0,0
126365,58.2018,-899.401,0,0
126626,57.3381,-896.544,0,0
126886,56.6311,-893.6,0,0
127146,55.8287,-890.681,0,0
127406,55.0385,-887.384,0,0
127667,54.6906,-884.118,0,0
127927,54.3527,-881.043,0,0
128187,54.1608,-878.135,0,0
128448,53.79,-875.348,0,0
128708,53.2872,-872.5,0,0
128968,52.7944,-869.45,0,0
129229,52.5343,-866.404,0,0
129489,52.3275,-863.515,0,0
129749,51.9519,-860.609,0,0
130010,51.648,-857.52,0,0
130270,51.5642,-854.506,0,0
130530,51.511,-851.779,0,0
130791,51.2019,-849.159,0,0
131051,50.7076,-846.312,0,0
131311,50.2417,-843.27,0,0
131572,49.9596,-840.127,0,0
131832,49.7402,-836.986,0,0
132092,49.6654,-833.841,0,0
132353,49.6273,-830.74,0,0
132613,49.6086,-827.657,0,0
132873,49.6685,-824.59,0,0
133134,49.6272,-821.532,0,0
133394,49.729,-818.355,0,0
133654,49.8875,-815.171,0,0
133915,50.12,-811.955,0,0
134175,50.5635,-808.69,0,0
134435,51.2766,-805.554,0,0
134696,52.0254,-802.762,0,0
134956,52.5942,-800.066,0,0
135216,53.2306,-797.263,0,0
135477,54.0515,-794.558,0,0
135737,54.8946,-792.139,0,0
135997,55.6048,-789.938,0,0
136258,56.2981,-787.529,0,0
136518,57.273,-785.37,0,0
136778,58.1963,-783.917,0,0
137039,58.2618,-782.798,0,0
137299,57.7907,-781.134,0,0
137559,57.4051,-779.197,0,0
137819,56.963,-777.143,0,0
138080,56.4009,-774.984,0,0
138340.125,55.7266,-772.665,0,0
138600.45,55.0322,-770.024,0,0
138860.775,54.5348,-767.079,0,0
139121.1,54.4296,-764.092,0,0
139381.425,54.3541,-761.397,0,0
139641.75,54.1258,-758.574,0,0
139902.075,54.1274,-755.616,0,0
140162.4,54.3384,-752.783,0,0
140422.725,54.4267,-750.137,0,0
140683.05,54.4265,-747.539,0,0
140943.375,54.3713,-744.818,0,0
141203.7,54.3409,-742.009,0,0
141464.025,54.2921,-739.167,0,0
141724.35,54.3148,-736.141,0,0
141984.675,54.5918,-733.18,0,0
142245.0,54.8294,-730.379,0,0
142505.325,54.9861,-727.461,0,0
142765.65,55.2438,-724.446,0,0
143025.975,55.637,-721.447,0,0
143286.3,56.2453,-718.505,0,0
143546.625,56.8648,-715.726,0,0
143806.95,57.4771,-713.035,0,0
144067.275,58.106,-710.412,0,0
144327.6,58.6936,-707.882,0,0
144587.925,59.2592,-705.415,0,0
144848.25,59.7796,-702.999,0,0
145108.575,60.2649,-700.732,0,0
145368.9,60.5092,-698.566,0,0
145629.225,60.5099,-696.149,0,0
145889.55,60.5831,-693.462,0,0
146149.875,60.8606,-690.716,0,0
146410.2,61.2318,-688.106,0,0
146670.525,61.5194,-685.577,0,0
146930.85,61.7704,-682.911,0,0
147191.175,62.1161,-680.331,0,0
147451.5,62.3187,-677.748,0,0
147711.825,62.5895,-674.991,0,0
147972.15,63.0839,-672.33,0,0
148232.475,63.5153,-669.931,0,0
148492.8,63.71,-667.601,0,0
148753.125,63.7116,-665.182,0,0
149013.45,63.5728,-662.627,0,0
149273.775,63.3545,-659.776,0,0
149534.1,63.339,-656.821,0,0
149794.425,63.3513,-653.85,0,0
150054.75,63.3285,-650.809,0,0
150315.075,63.3266,-647.69,0,0
150575.4,63.3615,-644.445,0,0
150835.725,63.4339,-641.083,0,0
151096.05,63.6415,-637.594,0,0
151356.375,63.9883,-634.084,0,0
151616.7,64.4095,-630.578,0,0
151877.025,64.8568,-627.005,0,0
152137.35,65.4183,-623.414,0,0
152397.675,66.0574,-619.786,0,0
152658.0,66.7961,-616.159,0,0
152918.325,67.5642,-612.475,0,0
153178.65,68.4865,-608.788,0,0
153438.975,69.5063,-605.145,0,0
153699.3,70.5075,-601.517,0,0
153959.625,71.5523,-597.823,0,0
154219.95,72.6832,-594.073,0,0
154480,73.9004,-590.275,0,0
154741,75.2456,-586.484,0,0
155001,76.6967,-582.647,0,0
155261,78.3053,-578.818,0,0
155522,80.0633,-574.995,0,0
155782,81.9372,-571.303,0,0
156042,83.8586,-567.634,0,0
156303,85.8397,-563.992,0,0
156563,87.9632,-560.333,0,0
156823,90.2189,-556.741,0,0
157084,92.5722,-553.194,0,0
157344,95.094,-549.653,0,0
157604,97.9089,-546.286,0,0
157864,100.834,-543.271,0,0
158125,103.654,-540.508,0,0
158385,106.398,-537.791,0,0
158645,109.311,-535.234,0,0
158906,112.253,-533.023,0,0
159166,114.985,-531.297,0,0
159426,117.209,-529.8,0,0
159687,118.959,-528.195,0,0
159947,120.35,-526.563,0,0
160207,121.252,-524.467,0,0
160468,122.056,-521.931,0,0
160728,122.994,-519.132,0,0
160988,123.734,-516.11,0,0
161249,124.372,-512.583,0,0
161509,125.192,-508.347,0,0
161769,126.545,-503.717,0,0
162030,128.295,-498.923,0,0
162290,130.642,-493.897,0,0
162550,133.463,-489.22,0,0
162811,136.087,-484.6,0,0
163071,139.027,-479.434,0,0
163331,142.658,-474.184,0,0
163592,146.877,-469.154,0,0
163852,151.38,-464.578,0,0
164112,155.965,-460.075,0,0
164373,160.911,-455.619,0,0
164633,166.19,-451.469,0,0
164893,171.514,-447.93,0,0
165154,176.288,-444.504,0,0
165414,181.058,-440.414,0,0
165674,186.067,-436.033,0,0
165935,191.444,-431.29,0,0
166195,197.591,-426.136,0,0
166455,204.839,-420.934,0,0
166716,212.937,-416.162,0,0
166976,221.687,-411.928,0,0
167236,231.038,-408.093,0,0
167497,241.187,-404.773,0,0
167757,251.761,-402.297,0,0
168017,262.763,-400.399,0,0
168277,274.435,-399.127,0,0
168538,286.739,-398.784,0,0
168798,299.593,-399.795,0,0
169058,312.464,-402.131,0,0
169319,325.009,-405.956,0,0
169579,337.14,-410.672,0,0
169839,348.987,-415.94,0,0
170100,360.816,-422.424,0,0
170360.075,372.576,-429.998,0,0
170620.4,383.692,-439.574,0,0
170880.725,393.123,-450.202,0,0
171141.05,401.361,-461.175,0,0
171401.375,408.728,-472.622,0,0
171661.7,414.983,-484.552,0,0
171922.025,420.14,-496.591,0,0
172182.35,424.97,-508.533,0,0
172442.675,429.547,-521.698,0,0
172703.0,432.775,-536.008,0,0
172963.325,434.043,-551.214,0,0
173223.65,433.221,-566.351,0,0
173483.975,430.79,-581.672,0,0
173744.3,425.465,-597.144,0,0
174004.625,416.874,-610.694,0,0
174264.95,406.873,-620.939,0,0
174525.275,397.268,-628.785,0,0
174785.6,387.612,-635.855,0,0
175045.925,376.952,-640.826,0,0
175306.25,367.299,-643.607,0,0
175566.575,357.673,-645.852,0,0
175826.9,347.956,-645.177,0,0
176087.225,341.08,-642.281,0,0
176347.55,336.463,-639.939,0,0
176607.875,332.467,-637.67,0,0
176868.2,329.734,-634.79,0,0
177128.525,328.942,-632.015,0,0
177388.85,329.67,-630.618,0,0
177649.175,330.509,-630.088,0,0
177909.5,332.687,-629.907,0,0
178169.825,335.96,-631.513,0,0
178430.15,339.704,-635.304,0,0
178690.475,342.651,-641.725,0,0
178950.8,343.642,-650.044,0,0
179211.125,342.193,-659.273,0,0
179471.45,338.237,-668.456,0,0
179731.775,331.585,-676.652,0,0
179992.1,323.627,-682.108,0,0
180252.425,316.47,-685.509,0,0
180512.75,310.12,-688.443,0,0
180773.075,304.672,-691.595,0,0
181033.4,298.967,-695.575,0,0
181293.725,291.727,-699.944,0,0
181554.05,283.127,-702.982,0,0
181814.375,274.664,-704.621,0,0
182074.7,266.453,-706.039,0,0
182335.025,257.625,-707.224,0,0
182595.35,247.812,-707.138,0,0
182855.675,238.068,-705.331,0,0
183116.0,229.298,-702.058,0,0
183376.325,221.897,-698.388,0,0
183636.65,214.947,-694.949,0,0
183896.975,208.068,-691.164,0,0
184157.3,201.598,-686.802,0,0
184417.625,195.622,-681.946,0,0
184677.95,190.754,-676.791,0,0
184938.275,186.7,-672.2,0,0
185198.6,182.569,-668.253,0,0
185458.925,178.043,-664.349,0,0
185719.25,173.152,-659.987,0,0
185979.575,168.545,-654.757,0,0
186239.9,164.718,-649.127,0,0
186500,161.517,-643.601,0,0
186761,158.579,-638.206,0,0
187021,155.798,-632.689,0,0
187281,153.495,-626.879,0,0
187542,151.936,-621.156,0,0
187802,150.875,-615.827,0,0
188062,150.119,-610.954,0,0
188322,149.369,-606.504,0,0
188583,148.551,-602.391,0,0
188843,147.522,-598.39,0,0
189103,146.489,-594.363,0,0
189364,145.462,-590.496,0,0
189624,144.247,-586.75,0,0
189884,142.734,-582.828,0,0
190145,141.322,-578.515,0,0
190405,140.064,-574.244,0,0
190665,138.616,-569.906,0,0
190926,137.154,-564.975,0,0
191186,136.277,-559.624,0,0
191446,136.073,-554.411,0,0
191707,136.182,-549.721,0,0
191967,135.983,-545.415,0,0
192227,135.494,-540.856,0,0
192488,135.142,-536.038,0,0
192748,134.917,-531,0,0
193008,135.016,-525.719,0,0
193269,135.615,-520.48,0,0
193529,136.389,-515.529,0,0
193789,137.244,-510.638,0,0
194050,138.174,-505.83,0,0
194310,139.148,-500.937,0,0
194570,140.379,-495.913,0,0
194831,141.921,-490.989,0,0
195091,143.733,-486.211,0,0
195351,145.726,-481.587,0,0
195612,147.829,-477.172,0,0
195872,150.055,-472.858,0,0
196132,152.496,-468.775,0,0
196393,154.803,-465.053,0,0
196653,157.071,-461.354,0,0
196913,159.456,-457.634,0,0
197174,161.865,-454.098,0,0
197434,164.492,-450.909,0,0
197694,166.779,-447.988,0,0
197955,168.747,-445.056,0,0
198215,170.703,-442.095,0,0
198475,172.502,-439.049,0,0
198735,174.146,-436.043,0,0
198996,175.751,-432.973,0,0
199256,177.078,-429.765,0,0
199516,178.281,-426.183,0,0
199777,179.457,-422.138,0,0
200037,181.049,-417.76,0,0
200297,182.897,-413.196,0,0
200558,185.127,-408.526,0,0
200818,187.613,-403.971,0,0
201078,190.169,-399.51,0,0
201339,192.718,-394.934,0,0
201599,195.524,-390.022,0,0
201859,198.59,-384.935,0,0
202120,202.288,-379.736,0,0
202380.025,206.278,-374.737,0,0
202640.35,210.545,-369.935,0,0
202900.675,215.079,-365.035,0,0
203161.0,220.029,-360.302,0,0
203421.325,225.216,-355.892,0,0
203681.65,230.584,-351.612,0,0
203941.975,236.112,-347.462,0,0
204202.3,241.811,-343.411,0,0
204462.625,247.789,-339.517,0,0
204722.95,253.783,-335.812,0,0
204983.275,259.868,-331.896,0,0
205243.6,266.495,-327.597,0,0
205503.925,274.236,-323.533,0,0
205764.25,282.68,-320.247,0,0
206024.575,291.457,-317.87,0,0
206284.9,300.264,-316.232,0,0
206545.225,309.093,-315.463,0,0
206805.55,317.626,-315.482,0,0
207065.875,325.511,-316.013,0,0
207326.2,332.824,-316.749,0,0
207586.525,339.561,-317.528,0,0
207846.85,345.737,-318.105,0,0
208107.175,351.635,-317.872,0,0
208367.5,357.964,-316.915,0,0
208627.825,364.875,-315.768,0,0
208888.15,372.332,-314.354,0,0
209148.475,380.77,-312.636,0,0
209408.8,390.498,-311.28,0,0
209669.125,401.474,-310.859,0,0
209929.45,413.099,-311.501,0,0
210189.775,425.338,-313.69,0,0
210450.1,437.692,-317.306,0,0
210710.425,449.927,-322.717,0,0
210970.75,461.077,-329.67,0,0
211231.075,471.195,-337.404,0,0
211491.4,480.205,-345.802,0,0
211751.725,488.264,-354.241,0,0
212012.05,496.189,-362.856,0,0
212272.375,503.579,-372.562,0,0
212532.7,509.476,-382.887,0,0
212793.025,513.994,-392.969,0,0
213053.35,517.689,-402.512,0,0
213313.675,520.84,-411.572,0,0
213574.0,523.816,-420.026,0,0
213834.325,527.1,-428.345,0,0
214094.65,530.479,-437.077,0,0
214354.975,533.456,-446.513,0,0
214615.3,535.387,-456.298,0,0
214875.625,536.393,-465.705,0,0
215135.95,536.954,-474.486,0,0
215396.275,537.49,-482.983,0,0
215656.6,538.008,-491.434,0,0
215916.925,538.473,-499.825,0,0
216177.25,538.921,-508.464,0,0
216437.575,539.179,-517.63,0,0
216697.9,538.996,-527.307,0,0
216958.225,537.859,-537.625,0,0
217218.55,535.245,-547.91,0,0
217478.875,531.569,-557.523,0,0
217739.2,527.264,-566.367,0,0
217999.525,522.733,-574.433,0,0
218259.85,518.328,-582.264,0,0
218520,513.658,-590.538,0,0
218780,507.643,-598.971,0,0
219041,500.256,-606.662,0,0
219301,491.938,-613.141,0,0
219561,483.007,-618.317,0,0
219822,473.778,-622.071,0,0
220082,464.646,-624.138,0,0
220342,456.164,-624.793,0,0
220603,448.559,-624.521,0,0
220863,441.961,-623.827,0,0
221123,435.826,-622.755,0,0
221384,430.338,-621.256,0,0
221644,425.439,-619.421,0,0
221904,421.303,-617.288,0,0
222165,417.873,-615.195,0,0
222425,414.974,-613.075,0,0
222685,412.644,-610.856,0,0
222946,411.007,-609.056,0,0
223206,409.675,-607.556,0,0
223466,408.388,-606.323,0,0
223727,407.424,-605.125,0,0
223987,406.705,-604.156,0,0
224247,406.132,-603.631,0,0
224508,405.325,-603.399,0,0
224768,404.246,-603.05,0,0
225028,403.001,-602.379,0,0
225289,401.919,-601.175,0,0
225549,401.366,-599.562,0,0
225809,401.658,-597.851,0,0
226070,402.592,-596.421,0,0
226330,404.12,-595.379,0,0
226590,405.97,-594.983,0,0
226851,407.915,-595.122,0,0
227111,409.93,-595.625,0,0
227371,412.013,-596.59,0,0
227632,414.043,-597.879,0,0
227892,416.129,-599.524,0,0
228152,418.12,-601.683,0,0
228413,419.885,-604.09,0,0
228673,421.428,-606.691,0,0
228933,423.2,-609.425,0,0
229193,425.1,-612.748,0,0
229454,426.526,-616.875,0,0
229714,427.168,-621.131,0,0
229974,427.497,-624.964,0,0
230235,428.287,-628.829,0,0
230495,429.21,-633.431,0,0
230755,429.429,-638.966,0,0
231016,428.693,-644.589,0,0
231276,427.366,-649.897,0,0
231536,425.713,-654.972,0,0
231797,423.864,-659.778,0,0
232057,422.175,-664.449,0,0
232317,420.717,-669.453,0,0
232578,419.108,-675.395,0,0
232838,416.53,-682.086,0,0
233098,412.475,-688.762,0,0
233359,407.688,-694.745,0,0
233619,402.582,-700.501,0,0
233879,396.704,-706.324,0,0
234140,389.674,-711.677,0,0
234400,381.751,-716.091,0,0
234660.3,373.405,-719.385,0,0
234920.625,364.914,-721.759,0,0
235180.95,356.204,-723.156,0,0
235441.275,347.419,-723.38,0,0
235701.6,338.999,-722.286,0,0
235961.925,331.554,-720.341,0,0
236222.25,324.916,-717.975,0,0
236482.575,318.995,-715.305,0,0
236742.9,314.041,-712.454,0,0
237003.225,309.974,-710.069,0,0
237263.55,306.008,-708.428,0,0
237523.875,301.838,-707.029,0,0
237784.2,297.543,-705.977,0,0
238044.525,292.475,-704.796,0,0
238304.85,286.801,-702.852,0,0
238565.175,281.283,-699.736,0,0
238825.5,276.474,-695.875,0,0
239085.825,272.453,-691.558,0,0
239346.15,269.227,-687.06,0,0
239606.475,266.909,-682.465,0,0
239866.8,265.501,-678.34,0,0
240127.125,264.682,-674.641,0,0
240387.45,264.452,-671.608,0,0
240647.775,264.517,-669.534,0,0
240908.1,264.31,-668.456,0,0
241168.425,263.293,-667.982,0,0
241428.75,261.607,-667.598,0,0
241689.075,259.424,-666.897,0,0
241949.4,256.995,-666.267,0,0
242209.725,253.952,-665.618,0,0
242470.05,250.18,-664.289,0,0
242730.375,246.407,-661.792,0,0
242990.7,243.266,-658.584,0,0
243251.025,240.774,-655.306,0,0
243511.35,238.428,-652.04,0,0
243771.675,236.182,-648.456,0,0
244032.0,234.368,-644.325,0,0
244292.325,233.405,-639.967,0,0
244552.65,233.281,-635.773,0,0
244812.975,234.003,-632.055,0,0
245073.3,235.15,-629.283,0,0
245333.625,236.145,-627.41,0,0
245593.95,236.753,-625.994,0,0
245854.275,237.069,-624.797,0,0
246114.6,237.044,-623.837,0,0
246374.925,236.648,-622.917,0,0
246635.25,236.025,-621.886,0,0
246895.575,235.238,-620.855,0,0
247155.9,234.126,-619.82,0,0
247416.225,232.738,-618.475,0,0
247676.55,231.228,-616.698,0,0
247936.875,229.852,-614.525,0,0
248197.2,228.693,-612.115,0,0
248457.525,227.782,-609.561,0,0
248717.85,227.126,-607.005,0,0
248978.175,226.534,-604.474,0,0
249238.5,226.109,-601.767,0,0
249498.825,225.829,-599.044,0,0
249759.15,225.714,-596.294,0,0
250019.475,225.55,-593.455,0,0
250279.8,225.793,-590.38,0,0
250540,226.311,-587.299,0,0
250800,227.16,-584.247,0,0
251061,228.294,-581.257,0,0
251321,229.709,-578.434,0,0
251581,231.387,-575.759,0,0
251842,233.235,-573.23,0,0
252102,235.348,-570.813,0,0
252362,237.762,-568.601,0,0
252623,240.455,-566.64,0,0
252883,243.42,-564.953,0,0
253143,246.683,-563.719,0,0
253404,250.118,-563.073,0,0
253664,253.482,-562.974,0,0
253924,256.756,-563.426,0,0
254185,259.767,-564.34,0,0
254445,262.47,-565.663,0,0
254705,264.716,-567.308,0,0
254966,266.677,-569.147,0,0
255226,268.255,-571.196,0,0
255486,269.377,-573.3,0,0
255747,270.113,-575.488,0,0
256007,270.459,-577.519,0,0
256267,270.502,-579.443,0,0
256528,270.415,-581.19,0,0
256788,270.139,-582.902,0,0
257048,269.578,-584.585,0,0
257309,268.665,-586.053,0,0
257569,267.591,-587.182,0,0
257829,266.391,-587.952,0,0
258090,265.268,-588.475,0,0
258350,264.243,-588.64,0,0
258610,263.531,-588.65,0,0
258871,263.1,-588.748,0,0
259131,262.733,-588.999,0,0
259391,262.311,-589.403,0,0
259651,261.756,-589.929,0,0
259912,260.927,-590.355,0,0
260172,260.095,-590.644,0,0
260432,259.124,-590.83,0,0
260693,258.164,-590.869,0,0
260953,257.161,-590.731,0,0
261213,256.126,-590.405,0,0
261474,255.166,-589.86,0,0
261734,254.299,-589.128,0,0
261994,253.563,-588.117,0,0
262255,253.168,-586.851,0,0
262515,253.2,-585.482,0,0
262775,253.649,-584.109,0,0
263036,254.652,-582.877,0,0
263296,256.092,-582.14,0,0
263556,257.68,-581.92,0,0
263817,259.253,-582.167,0,0
264077,260.854,-582.882,0,0
264337,262.173,-584.14,0,0
264598,263.019,-585.747,0,0
264858,263.327,-587.432,0,0
265118,263.174,-588.989,0,0
265379,262.806,-590.334,0,0
265639,262.253,-591.392,0,0
265899,261.694,-592.243,0,0
266160,261.149,-592.85,0,0
266420,260.864,-593.274,0,0
266680.25,260.818,-593.758,0,0
266940.575,260.995,-594.412,0,0
267200.9,261.251,-595.378,0,0
267461.225,261.372,-596.71,0,0
267721.55,261.204,-598.304,0,0
267981.875,260.626,-600.018,0,0
268242.2,259.649,-601.632,0,0
268502.525,258.31,-603.057,0,0
268762.85,256.633,-603.999,0,0
269023.175,254.957,-604.444,0,0
269283.5,253.593,-604.494,0,0
269543.825,252.591,-604.307,0,0
269804.15,251.819,-604.236,0,0
270064.475,251.187,-604.143,0,0
270324.8,250.588,-603.829,0,0
270585.125,250.363,-603.395,0,0
270845.45,250.635,-602.924,0,0
271105.775,251.398,-602.58,0,0
271366.1,252.665,-602.589,0,0
271626.425,254.325,-603.144,0,0
271886.75,256.274,-604.264,0,0
272147.075,258.641,-606.208,0,0
272407.4,260.821,-609.213,0,0
272667.725,262.534,-613.229,0,0
272928.05,263.469,-618.027,0,0
273188.375,263.56,-623.412,0,0
273448.7,262.549,-629.287,0,0
273709.025,260.262,-635.231,0,0
273969.35,256.907,-640.765,0,0
274229.675,252.806,-645.755,0,0
274490.0,248.058,-650.23,0,0
274750.325,242.829,-654.335,0,0
275010.65,237.125,-658.019,0,0
275270.975,230.677,-661.259,0,0
275531.3,223.446,-663.703,0,0
275791.625,215.984,-665.016,0,0
276051.95,208.477,-665.391,0,0
276312.275,201.107,-664.929,0,0
276572.6,193.898,-663.756,0,0
276832.925,186.905,-661.873,0,0
277093.25,180.167,-659.354,0,0
277353.575,173.8,-656.177,0,0
277613.9,167.851,-652.392,0,0
277874.225,162.522,-648.027,0,0
278134.55,157.894,-643.338,0,0
278394.875,153.963,-638.423,0,0
278655.2,150.703,-633.475,0,0
278915.525,148.015,-628.675,0,0
279175.85,145.689,-624.008,0,0
279436.175,143.69,-619.464,0,0
279696.5,142,-614.85,0,0
279956.825,140.684,-610.363,0,0
280217.15,139.83,-606.002,0,0
280477.475,139.297,-601.86,0,0
280737.8,139.058,-598.059,0,0
280998.125,139.01,-594.565,0,0
281258.45,139.053,-591.432,0,0
281518.775,139.058,-588.663,0,0
281779.1,138.87,-586.144,0,0
282039.425,138.486,-583.758,0,0
282299.75,137.862,-581.364,0,0
282560,137,-578.857,0,0
282820,136.038,-576.032,0,0
283081,135.167,-572.904,0,0
283341,134.544,-569.538,0,0
283601,134.181,-565.995,0,0
283862,134.165,-562.363,0,0
284122,134.498,-558.771,0,0
284382,135.173,-555.326,0,0
284643,136.029,-552.039,0,0
284903,137.07,-548.848,0,0
285163,138.417,-545.826,0,0
285424,139.926,-543.008,0,0
285684,141.616,-540.465,0,0
285944,143.406,-538.204,0,0
286205,145.281,-536.224,0,0
286465,147.237,-534.529,0,0
286725,149.147,-533.228,0,0
286986,150.916,-532.268,0,0
287246,152.429,-531.542,0,0
287506,153.653,-531.016,0,0
287767,154.614,-530.537,0,0
288027,155.301,-530.041,0,0
288287,155.76,-529.48,0,0
288548,156.05,-528.806,0,0
288808,156.194,-527.955,0,0
289068,156.273,-526.9,0,0
289329,156.398,-525.704,0,0
289589,156.586,-524.405,0,0
289849,156.772,-523.056,0,0
290109,156.944,-521.609,0,0
290370,157.155,-519.964,0,0
290630,157.499,-518.203,0,0
290890,158.023,-516.309,0,0
291151,158.775,-514.419,0,0
291411,159.741,-512.577,0,0
291671,160.834,-510.908,0,0
291932,161.926,-509.375,0,0
292192,162.954,-507.874,0,0
292452,164.01,-506.282,0,0
292713,165.182,-504.652,0,0
292973,166.483,-503.065,0,0
293233,167.877,-501.514,0,0
293494,169.35,-500.007,0,0
293754,170.935,-498.56,0,0
294014,172.591,-497.222,0,0
294275,174.258,-495.952,0,0
294535,175.928,-494.707,0,0
294795,177.636,-493.435,0,0
295056,179.512,-492.135,0,0
295316,181.541,-490.917,0,0
295576,183.675,-489.809,0,0
295837,185.864,-488.824,0,0
296097,188.1,-487.889,0,0
296357,190.429,-487.002,0,0
296618,192.883,-486.203,0,0
296878,195.469,-485.488,0,0
297138,198.16,-484.917,0,0
297399,200.957,-484.482,0,0
297659,203.86,-484.21,0,0
297919,206.847,-484.114,0,0
298180,209.915,-484.224,0,0
298440,213.02,-484.537,0,0
298700.2,216.095,-485.048,0,0
298960.525,219.11,-485.864,0,0
299220.85,222.166,-486.697,0,0
299481.175,225.189,-487.551,0,0
299741.5,228.227,-488.648,0,0
300001.825,231.448,-489.82,0,0
300262.15,234.771,-491.199,0,0
300522.475,238.112,-492.826,0,0
300782.8,241.633,-494.807,0,0
301043.125,244.993,-496.963,0,0
301303.45,248.438,-499.524,0,0
301563.775,252.039,-502.278,0,0
301824.1,255.671,-505.536,0,0
302084.425,259.356,-509.395,0,0
302344.75,262.9,-513.886,0,0
302605.075,266.159,-519.117,0,0
302865.4,268.931,-525.114,0,0
303125.725,270.923,-531.706,0,0
303386.05,271.891,-538.781,0,0
303646.375,271.746,-545.943,0,0
303906.7,270.572,-552.885,0,0
304167.025,268.571,-559.365,0,0
304427.35,265.949,-565.295,0,0
304687.675,262.943,-570.639,0,0
304948.0,259.708,-575.458,0,0
305208.325,256.334,-579.891,0,0
305468.65,252.895,-584.04,0,0
305728.975,249.241,-587.979,0,0
305989.3,245.361,-591.666,0,0
306249.625,241.225,-595.025,0,0
306509.95,236.904,-597.976,0,0
306770.275,232.5,-600.514,0,0
307030.6,228.107,-602.711,0,0
307290.925,223.721,-604.61,0,0
307551.25,219.323,-606.252,0,0
307811.575,214.899,-607.653,0,0
308071.9,210.447,-608.773,0,0
308332.225,205.995,-609.583,0,0
308592.55,201.585,-610.117,0,0
308852.875,197.21,-610.36,0,0
309113.2,192.921,-610.311,0,0
309373.525,188.775,-609.974,0,0
309633.85,184.802,-609.373,0,0
309894.175,181.019,-608.604,0,0
310154.5,177.475,-607.607,0,0
310414.825,174.148,-606.545,0,0
310675.15,171.023,-605.443,0,0
310935.475,168.033,-604.286,0,0
311195.8,165.184,-603.084,0,0
311456.125,162.492,-601.851,0,0
311716.45,159.914,-600.614,0,0
311976.775,157.468,-599.407,0,0
312237.1,155.089,-598.215,0,0
312497.425,152.744,-597.052,0,0
312757.75,150.437,-595.896,0,0
313018.075,148.106,-594.698,0,0
313278.4,145.819,-593.464,0,0
313538.725,143.488,-592.168,0,0
313799.05,141.184,-590.779,0,0
314059.375,138.92,-589.269,0,0
314319.7,136.699,-587.614,0,0
314580,134.609,-585.839,0,0
314840,132.673,-583.972,0,0
315101,130.884,-582.024,0,0
315361,129.264,-580.054,0,0
315621,127.794,-578.069,0,0
315882,126.512,-576.114,0,0
316142,125.342,-574.198,0,0
316402,124.292,-572.346,0,0
316663,123.327,-570.559,0,0
316923,122.424,-568.848,0,0
317183,121.567,-567.166,0,0
317444,120.759,-565.537,0,0
317704,120.013,-563.921,0,0
317964,119.315,-562.361,0,0
318225,118.645,-560.845,0,0
318485,118.01,-559.33,0,0
318745,117.409,-557.839,0,0
319006,116.843,-556.351,0,0
319266,116.371,-554.875,0,0
319526,116.026,-553.457,0,0
319787,115.68,-552.11,0,0
320047,115.408,-550.854,0,0
320307,115.174,-549.693,0,0
320567,114.886,-548.611,0,0
320828,114.598,-547.552,0,0
321088,114.311,-546.54,0,0
321348,114.005,-545.587,0,0
321609,113.672,-544.647,0,0
321869,113.32,-543.724,0,0
322129,112.96,-542.81,0,0
322390,112.59,-541.891,0,0
322650,112.244,-540.989,0,0
322910,111.914,-540.085,0,0
323171,111.583,-539.212,0,0
323431,111.27,-538.359,0,0
323691,110.965,-537.552,0,0
323952,110.654,-536.742,0,0
324212,110.32,-535.966,0,0
324472,109.968,-535.183,0,0
324733,109.631,-534.388,0,0
324993,109.326,-533.602,0,0
325253,109.003,-532.776,0,0
325514,108.723,-531.99,0,0
325774,108.505,-531.203,0,0
326034,108.33,-530.446,0,0
326295,108.173,-529.752,0,0
326555,108.043,-529.107,0,0
326815,107.927,-528.531,0,0
327076,107.825,-528.031,0,0
327336,107.709,-527.616,0,0
327596,107.534,-527.284,0,0
327857,107.281,-527.002,0,0
328117,106.944,-526.755,0,0
328377,106.535,-526.518,0,0
328638,106.095,-526.254,0,0
328898,105.606,-525.972,0,0
329158,105.092,-525.689,0,0
329419,104.553,-525.406,0,0
329679,103.984,-525.12,0,0
329939,103.392,-524.852,0,0
330200,102.753,-524.553,0,0
330460,102.087,-524.265,0,0
330720.15,101.455,-523.974,0,0
330980.475,100.751,-523.632,0,0
331240.8,99.9524,-523.449,0,0
331501.125,99.1117,-523.179,0,0
331761.45,98.2553,-522.932,0,0
332021.775,97.2791,-522.615,0,0
332282.1,96.312,-522.227,0,0
332542.425,95.2727,-521.778,0,0
332802.75,94.2452,-521.336,0,0
333063.075,93.1991,-520.859,0,0
333323.4,92.0304,-520.252,0,0
333583.725,90.8779,-519.643,0,0
333844.05,89.7723,-518.941,0,0
334104.375,88.6065,-518.131,0,0
334364.7,87.5452,-517.338,0,0
334625.025,86.4141,-516.545,0,0
334885.35,85.2962,-515.567,0,0
335145.675,84.3375,-514.625,0,0
335406.0,83.3285,-513.688,0,0
335666.325,82.276,-512.67,0,0
335926.65,81.3496,-511.621,0,0
336186.975,80.3897,-510.602,0,0
336447.3,79.3782,-509.445,0,0
336707.625,78.416,-508.327,0,0
336967.95,77.4934,-507.22,0,0
337228.275,76.5828,-505.977,0,0
337488.6,75.7536,-504.71,0,0
337748.925,74.9401,-503.379,0,0
338009.25,74.1733,-502.046,0,0
338269.575,73.4262,-500.792,0,0
338529.9,72.7913,-499.443,0,0
338790.225,72.177,-498.113,0,0
339050.55,71.5342,-496.808,0,0
339310.875,70.9583,-495.561,0,0
339571.2,70.4257,-494.241,0,0
339831.525,69.8769,-492.899,0,0
340091.85,69.298,-491.545,0,0
340352.175,68.7844,-490.288,0,0
340612.5,68.3162,-488.922,0,0
340872.825,67.8235,-487.571,0,0
341133.15,67.3855,-486.146,0,0
341393.475,66.9816,-484.746,0,0
341653.8,66.5829,-483.362,0,0
341914.125,66.2385,-481.909,0,0
342174.45,65.9489,-480.501,0,0
342434.775,65.7505,-479.032,0,0
342695.1,65.5696,-477.628,0,0
342955.425,65.4139,-476.172,0,0
343215.75,65.2999,-474.792,0,0
343476.075,65.1948,-473.37,0,0
343736.4,65.204,-471.946,0,0
343996.725,65.2699,-470.621,0,0
344257.05,65.3655,-469.271,0,0
344517.375,65.5286,-468.003,0,0
344777.7,65.7435,-466.809,0,0
345038.025,65.9338,-465.618,0,0
345298.35,66.1331,-464.543,0,0
345558.675,66.3129,-463.509,0,0
345819.0,66.5707,-462.529,0,0
346079.325,66.7725,-461.614,0,0
346339.65,66.978,-460.736,0,0
346599.975,67.147,-459.942,0,0
346860,67.1443,-459.189,0,0
347121,67.2232,-458.495,0,0
347381,67.175,-457.766,0,0
347641,67.1089,-457.044,0,0
347902,66.9741,-456.327,0,0
348162,66.7652,-455.505,0,0
348422,66.5063,-454.738,0,0
348683,66.1995,-453.873,0,0
348943,65.8973,-452.946,0,0
349203,65.6276,-451.929,0,0
349464,65.3324,-450.919,0,0
349724,65.1162,-449.911,0,0
349984,64.872,-448.747,0,0
350245,64.6945,-447.613,0,0
350505,64.5019,-446.482,0,0
350765,64.3279,-445.266,0,0
351025,64.1896,-444.06,0,0
351286,64.055,-442.768,0,0
351546,64.0041,-441.445,0,0
351806,64.0283,-440.196,0,0
352067,64.1469,-438.83,0,0
352327,64.2769,-437.485,0,0
352587,64.4884,-436.126,0,0
352848,64.7858,-434.864,0,0
353108,65.1297,-433.616,0,0
353368,65.5063,-432.394,0,0
353629,65.9875,-431.233,0,0
353889,66.5322,-430.166,0,0
354149,67.0626,-429.114,0,0
354410,67.631,-428.142,0,0
354670,68.1776,-427.325,0,0
354930,68.7042,-426.471,0,0
355191,69.2604,-425.758,0,0
355451,69.7986,-425.041,0,0
355711,70.2844,-424.457,0,0
355972,70.7408,-423.883,0,0
356232,71.1341,-423.402,0,0
356492,71.4621,-422.992,0,0
356753,71.6513,-422.551,0,0
357013,71.7687,-422.153,0,0
357273,71.8743,-421.716,0,0
357534,71.8235,-421.263,0,0
357794,71.7707,-420.789,0,0
358054,71.603,-420.24,0,0
358315,71.4033,-419.579,0,0
358575,71.1255,-418.885,0,0
358835,70.8744,-418.095,0,0
359096,70.648,-417.17,0,0
359356,70.4773,-416.155,0,0
359616,70.3498,-415.1,0,0
359877,70.2645,-414.009,0,0
360137,70.2285,-412.854,0,0
360397,70.2763,-411.688,0,0
360658,70.3666,-410.522,0,0
360918,70.5613,-409.36,0,0
361178,70.7555,-408.149,0,0
361438,71.0512,-407.002,0,0
361699,71.3535,-405.814,0,0
361959,71.7009,-404.682,0,0
362219,72.1361,-403.491,0,0
362480,72.5919,-402.365,0,0
362740.1,73.119,-401.273,0,0
363000.425,73.6839,-400.205,0,0
363260.75,74.2708,-399.158,0,0
363521.075,74.9003,-398.174,0,0
363781.4,75.6039,-397.2,0,0
364041.725,76.2658,-396.323,0,0
364302.05,76.9402,-395.431,0,0
364562.375,77.6322,-394.6,0,0
364822.7,78.395,-393.802,0,0
365083.025,79.1289,-393.065,0,0
365343.35,79.9156,-392.376,0,0
365603.675,80.743,-391.696,0,0
365864.0,81.4911,-391.199,0,0
366124.325,82.228,-390.703,0,0
366384.65,82.9379,-390.211,0,0
366644.975,83.5309,-389.756,0,0
366905.3,84.1588,-389.334,0,0
367165.625,84.7371,-388.929,0,0
367425.95,85.2989,-388.423,0,0
367686.275,85.9267,-388.004,0,0
367946.6,86.5465,-387.561,0,0
368206.925,87.194,-387.164,0,0
368467.25,87.7894,-386.772,0,0
368727.575,88.3842,-386.461,0,0
368987.9,88.9877,-386.191,0,0
369248.225,89.577,-385.952,0,0
369508.55,90.1554,-385.688,0,0
369768.875,90.7084,-385.537,0,0
370029.2,91.2289,-385.407,0,0
370289.525,91.7126,-385.348,0,0
370549.85,92.1008,-385.371,0,0
370810.175,92.4042,-385.368,0,0
371070.5,92.6009,-385.4,0,0
371330.825,92.698,-385.381,0,0
371591.15,92.7067,-385.326,0,0
371851.475,92.6328,-385.187,0,0
372111.8,92.4971,-384.973,0,0
372372.125,92.3388,-384.625,0,0
372632.45,92.1631,-384.173,0,0
372892.775,92.0094,-383.67,0,0
373153.1,91.9405,-383.047,0,0
373413.425,91.9212,-382.376,0,0
373673.75,91.9777,-381.682,0,0
373934.075,92.0851,-380.938,0,0
374194.4,92.2642,-380.202,0,0
374454.725,92.5374,-379.511,0,0
374715.05,92.8281,-378.869,0,0
374975.375,93.123,-378.184,0,0
375235.7,93.4577,-377.595,0,0
375496.025,93.7917,-376.992,0,0
375756.35,94.1451,-376.407,0,0
376016.675,94.5263,-375.859,0,0
376277.0,94.877,-375.351,0,0
376537.325,95.2074,-374.866,0,0
376797.65,95.499,-374.41,0,0
377057.975,95.7458,-373.942,0,0
377318.3,95.9649,-373.446,0,0
377578.625,96.2125,-372.934,0,0
377838.95,96.4193,-372.369,0,0
378099.275,96.6011,-371.758,0,0
378359.6,96.8267,-371.112,0,0
378619.925,97.1271,-370.421,0,0
378880,97.3886,-369.74,0,0
379141,97.7374,-369.019,0,0
379401,98.0936,-368.284,0,0
379661,98.5989,-367.607,0,0
379922,99.0443,-366.962,0,0
380182,99.5531,-366.335,0,0
380442,100.06,-365.681,0,0
380703,100.561,-365.066,0,0
380963,101.073,-364.522,0,0
381223,101.602,-363.961,0,0
381483,102.126,-363.404,0,0
381744,102.683,-362.895,0,0
382004,103.182,-362.371,0,0
382264,103.741,-361.835,0,0
382525,104.269,-361.306,0,0
382785,104.812,-360.837,0,0
383045,105.369,-360.327,0,0
383306,105.98,-359.863,0,0
383566,106.507,-359.462,0,0
383826,107.034,-359.008,0,0
384087,107.552,-358.552,0,0
384347,108.117,-358.093,0,0
384607,108.688,-357.604,0,0
384868,109.318,-357.2,0,0
385128,109.904,-356.774,0,0
385388,110.46,-356.432,0,0
385649,110.951,-356.121,0,0
385909,111.483,-355.752,0,0
386169,111.924,-355.383,0,0
386430,112.446,-354.947,0,0
386690,112.896,-354.516,0,0
386950,113.429,-354.099,0,0
387211,113.928,-353.687,0,0
387471,114.387,-353.28,0,0
387731,114.824,-352.819,0,0
387992,115.318,-352.295,0,0
388252,115.749,-351.716,0,0
388512,116.227,-351.105,0,0
388773,116.781,-350.427,0,0
389033,117.408,-349.702,0,0
389293,118.126,-348.961,0,0
389554,118.961,-348.247,0,0
389814,119.87,-347.556,0,0
390074,120.844,-346.981,0,0
390335,121.908,-346.44,0,0
390595,122.99,-346.023,0,0
390855,124.034,-345.642,0,0
391116,125.07,-345.338,0,0
391376,126.062,-345.117,0,0
391636,127.015,-344.882,0,0
391896,127.978,-344.678,0,0
392157,128.963,-344.451,0,0
392417,129.904,-344.201,0,0
392677,130.85,-344.09,0,0
392938,131.785,-343.93,0,0
393198,132.726,-343.76,0,0
393458,133.607,-343.641,0,0
393719,134.501,-343.485,0,0
393979,135.379,-343.332,0,0
394239,136.235,-343.117,0,0
394500,137.078,-342.911,0,0
394760.05,137.976,-342.662,0,0
395020.375,138.915,-342.317,0,0
395280.7,139.922,-341.977,0,0
395541.025,140.98,-341.586,0,0
395801.35,142.099,-341.212,0,0
396061.675,143.349,-340.836,0,0
396322.0,144.644,-340.423,0,0
396582.325,146.074,-340.077,0,0
396842.65,147.6,-339.709,0,0
397102.975,149.254,-339.401,0,0
397363.3,151.064,-339.143,0,0
397623.625,152.993,-338.983,0,0
397883.95,155.12,-338.967,0,0
398144.275,157.26,-339.11,0,0
398404.6,159.574,-339.425,0,0
398664.925,161.931,-339.952,0,0
398925.25,164.383,-340.716,0,0
399185.575,166.917,-341.661,0,0
399445.9,169.471,-342.966,0,0
399706.225,172.007,-344.49,0,0
399966.55,174.424,-346.431,0,0
400006.6,174.782,-346.779,0,0