File: Accelerated corrosion test data/2025-10-11_06-00-04/sample_7.csv
Frequency (Hz),Impedance (ohms),Phase (Radians),Temperature (C),Humidity (%)
10000.0,273.564,-12090.6,0,0
10260.325,268.811,-11799.6,0,0
10520.65,257.584,-11501.5,0,0
10780.975,252.854,-11219.3,0,0
11041.3,249.771,-10952.8,0,0
11301.625,246.928,-10696.6,0,0
11561.95,250.619,-10447.6,0,0
11822.275,260.232,-10216.5,0,0
12082.6,271.171,-9988.77,0,0
12342.925,314.314,-9845.88,0,0
12603.25,257.681,-9639.92,0,0
12863.575,264.407,-9466.24,0,0
13123.9,236.134,-9273.69,0,0
13384.225,226.65,-9099.61,0,0
13644.55,224.898,-8923.93,0,0
13904.875,210.475,-8749.8,0,0
14165.2,213.937,-8577.64,0,0
14425.525,205.461,-8438.21,0,0
14685.8,202.526,-8290.12,0,0
14946.175,199.063,-8143.94,0,0
15206.5,194.357,-8014.42,0,0
15466.825,187.416,-7871.86,0,0
15727.15,181.982,-7743.38,0,0
15987.5,179.964,-7613.02,0,0
16247.8,177.156,-7495.55,0,0
16508.125,171.498,-7373.14,0,0
16768.45,171.802,-7254.48,0,0
17028.775,170.635,-7144.62,0,0
17289.1,166.037,-7035.48,0,0
17549.425,165.674,-6926.43,0,0
17809.75,171.437,-6817.8,0,0
18070.075,169.523,-6720.02,0,0
18330.4,182.243,-6615.09,0,0
18590.725,201.975,-6535.06,0,0
18851.05,193.253,-6459.27,0,0
19111.375,180.826,-6373.85,0,0
19371.7,201.287,-6313.02,0,0
19632.025,166.848,-6233.71,0,0
19892.35,158.839,-6133.31,0,0
20152.675,168.991,-6055.58,0,0
20413.0,168.13,-5983.65,0,0
20673.3,170.963,-5902.32,0,0
20933.65,178.718,-5846.23,0,0
21193.975,160.944,-5780.35,0,0
21454.3,152.751,-5705.5,0,0
21714.625,155.688,-5641.25,0,0
21974.9,145.974,-5576.32,0,0
22235.275,141.811,-5507.74,0,0
22495.6,139.292,-5445.58,0,0
22755.925,134.129,-5381.43,0,0
23016.25,130.377,-5317.47,0,0
23276.6,128.871,-5254.71,0,0
23536.9,129.996,-5195.07,0,0
23797.225,127.885,-5139.83,0,0
24057.55,124.445,-5082.06,0,0
24317.875,123.09,-5024.77,0,0
24578.2,124.072,-4970.6,0,0
24838.525,122.644,-4916.64,0,0
25098.85,121.194,-4865.06,0,0
25359.175,119.885,-4812.94,0,0
25619.5,119.276,-4760.56,0,0
25879.8,118.945,-4710.94,0,0
26140.1,120.225,-4659.39,0,0
26400.5,124.612,-4613.04,0,0
26660.8,121.771,-4565.77,0,0
26921.1,123.999,-4515.4,0,0
27181.4,129.597,-4468.97,0,0
27441.8,132.89,-4421.61,0,0
27702.1,145.278,-4375.64,0,0
27962.4,161.527,-4334.1,0,0
28222.7,181.07,-4313.44,0,0
28483.1,180.875,-4291.98,0,0
28743.4,174.576,-4276.03,0,0
29003.7,160.084,-4247.45,0,0
29264,143.961,-4209.87,0,0
29524.4,137.032,-4169.19,0,0
29784.7,130.027,-4131.43,0,0
30045,129.823,-4087.57,0,0
30305.3,132.609,-4052.53,0,0
30565.7,132.545,-4019.24,0,0
30826,133.967,-3987.02,0,0
31086.3,136.15,-3958.55,0,0
31346.6,133.007,-3929.97,0,0
31607,129.858,-3905.27,0,0
31867.3,121.499,-3873.28,0,0
32127.6,117.867,-3841.93,0,0
32387.9,114.303,-3811.13,0,0
32648.3,111.075,-3780.63,0,0
32908.6,108.068,-3750.44,0,0
33168.9,104.576,-3720.44,0,0
33429.2,101.934,-3690.73,0,0
33689.6,99.4815,-3660.66,0,0
33949.9,97.7549,-3632.04,0,0
34210.2,95.6274,-3602.45,0,0
34470.5,93.5989,-3574.06,0,0
34730.9,92.8253,-3545.89,0,0
34991.2,91.9672,-3518.29,0,0
35251.5,90.3578,-3491.38,0,0
35511.8,89.5221,-3464.48,0,0
35772.2,89.2689,-3437.95,0,0
36032.5,88.8929,-3412.01,0,0
36292.8,88.348,-3387.67,0,0
36553.1,87.2711,-3362.15,0,0
36813.5,86.9766,-3337.13,0,0
37073.8,86.6663,-3312.8,0,0
37334.1,86.519,-3288.76,0,0
37594.4,86.2199,-3265.08,0,0
37854.8,85.3163,-3241.57,0,0
38115.1,85.6881,-3217.56,0,0
38375.4,85.9735,-3194.56,0,0
38635.7,86.8704,-3171.58,0,0
38896.1,88.4069,-3149.01,0,0
39156.4,90.1532,-3127.65,0,0
39416.7,92.8002,-3106.31,0,0
39677,96.4636,-3088.32,0,0
39937.4,97.6018,-3071.3,0,0
40197.7,97.8972,-3055.69,0,0
40458,95.0353,-3039.49,0,0
40718.3,92.3712,-3021.57,0,0
40978.7,89.4298,-3003.09,0,0
41239,86.8324,-2983.76,0,0
41499.3,85.1714,-2964.24,0,0
41759.6,84.0554,-2945.48,0,0
42020,82.3025,-2926.93,0,0
42280.275,80.8662,-2907.27,0,0
42540.6,80.405,-2887.68,0,0
42800.925,80.6708,-2870.01,0,0
43061.25,80.6228,-2851.55,0,0
43321.575,81.0332,-2835.1,0,0
43581.9,79.5697,-2817.45,0,0
43842.225,79.5246,-2798.97,0,0
44102.55,80.7701,-2781.83,0,0
44362.875,82.3486,-2766.62,0,0
44623.2,82.5155,-2751.51,0,0
44883.525,81.4723,-2736.84,0,0
45143.85,80.6322,-2721.32,0,0
45404.175,79.3286,-2705.7,0,0
45664.5,80.1497,-2689.01,0,0
45924.825,81.2641,-2675.87,0,0
46185.15,79.9843,-2662.92,0,0
46445.475,77.5361,-2649.38,0,0
46705.8,74.7715,-2634.21,0,0
46966.125,73.1045,-2618.65,0,0
47226.45,71.8901,-2602.88,0,0
47486.775,71.5118,-2587.61,0,0
47747.1,71.177,-2572.83,0,0
48007.425,70.9184,-2558.67,0,0
48267.75,70.3599,-2544.6,0,0
48528.075,69.4172,-2530.64,0,0
48788.4,68.7858,-2516.49,0,0
49048.725,68.4084,-2502.57,0,0
49309.05,67.9202,-2488.96,0,0
49569.375,67.3935,-2475.43,0,0
49829.7,67.1247,-2462.01,0,0
50090.025,66.666,-2448.68,0,0
50350.35,66.3284,-2435.52,0,0
50610.675,65.9518,-2422.63,0,0
50871.0,65.7119,-2409.86,0,0
51131.325,65.2193,-2397.12,0,0
51391.65,65.026,-2384.38,0,0
51651.975,64.7043,-2371.93,0,0
51912.3,64.4425,-2359.46,0,0
52172.625,64.3376,-2347.11,0,0
52432.95,63.9586,-2335.27,0,0
52693.275,63.8785,-2323.12,0,0
52953.6,63.8056,-2311.33,0,0
53213.925,63.963,-2299.83,0,0
53474.25,63.5692,-2288.69,0,0
53734.575,63.112,-2277.12,0,0
53994.9,62.7445,-2265.65,0,0
54255.225,62.5626,-2254.55,0,0
54515.55,62.2613,-2243.36,0,0
54775.875,62.0294,-2232.4,0,0
55036.2,61.8428,-2221.26,0,0
55296.525,61.6117,-2210.5,0,0
55556.85,61.4905,-2199.76,0,0
55817.175,61.0993,-2188.98,0,0
56077.5,60.9856,-2178.23,0,0
56337.825,60.9377,-2167.85,0,0
56598.15,60.7297,-2157.75,0,0
56858.475,60.5789,-2147.42,0,0
57118.8,60.4715,-2137.34,0,0
57379.125,60.0799,-2127.21,0,0
57639.45,59.8682,-2117.17,0,0
57899.775,59.6913,-2106.89,0,0
58160.1,59.8994,-2096.95,0,0
58420.4,60.136,-2087.23,0,0
58680.7,60.2759,-2077.94,0,0
58941.1,59.9916,-2068.7,0,0
59201.4,59.8839,-2059.09,0,0
59461.7,60.2604,-2049.56,0,0
59722,60.2037,-2040.82,0,0
59982.4,60.1886,-2031.79,0,0
60242.7,60.2836,-2022.97,0,0
60503,59.9289,-2014.47,0,0
60763.3,59.4507,-2005.79,0,0
61023.7,59.1362,-1997.07,0,0
61284,58.8154,-1988.32,0,0
61544.3,58.3427,-1979.76,0,0
61804.6,57.7814,-1971.17,0,0
62065,57.3592,-1962.5,0,0
62325.3,57.0694,-1953.78,0,0
62585.6,56.8165,-1945.12,0,0
62845.9,56.5206,-1936.71,0,0
63106.3,56.2486,-1928.21,0,0
63366.6,56.2522,-1919.57,0,0
63626.9,56.3457,-1911.52,0,0
63887.2,56.0344,-1903.57,0,0
64147.6,55.754,-1895.33,0,0
64407.9,55.4361,-1887.2,0,0
64668.2,55.4148,-1879.06,0,0
64928.5,55.3806,-1871.07,0,0
65188.9,55.4302,-1863.15,0,0
65449.2,55.5626,-1855.56,0,0
65709.5,55.4977,-1847.87,0,0
65969.8,55.3456,-1840.48,0,0
66230.2,55.2169,-1833.2,0,0
66490.5,54.9719,-1825.83,0,0
66750.8,54.5977,-1818.62,0,0
67011.1,54.0994,-1811.16,0,0
67271.5,53.6915,-1803.64,0,0
67531.8,53.3889,-1796.26,0,0
67792.1,53.1877,-1788.97,0,0
68052.4,52.8457,-1781.6,0,0
68312.8,52.6948,-1774.23,0,0
68573.1,52.5786,-1766.94,0,0
68833.4,52.4363,-1759.82,0,0
69093.7,52.2868,-1752.61,0,0
69354.1,52.1887,-1745.49,0,0
69614.4,52.1993,-1738.6,0,0
69874.7,52.1194,-1731.61,0,0
70135,51.97,-1724.8,0,0
70395.4,51.9607,-1718.02,0,0
70655.7,51.8772,-1711.12,0,0
70916,51.9825,-1704.67,0,0
71176.3,51.8731,-1698.15,0,0
71436.7,51.7029,-1691.78,0,0
71697,51.3145,-1685.31,0,0
71957.3,51.2296,-1678.86,0,0
72217.6,50.8781,-1672.35,0,0
72478,50.6383,-1665.9,0,0
72738.3,50.4247,-1659.39,0,0
72998.6,50.2795,-1652.99,0,0
73258.9,50.2126,-1646.61,0,0
73519.3,49.9841,-1640.27,0,0
73779.6,49.8896,-1634.03,0,0
74039.9,49.7133,-1627.75,0,0
74300.225,49.6338,-1621.54,0,0
74560.55,49.5934,-1615.31,0,0
74820.875,49.4572,-1609.29,0,0
75081.2,49.3892,-1603.2,0,0
75341.525,49.2474,-1597.21,0,0
75601.85,49.1308,-1591.21,0,0
75862.175,49.0306,-1585.26,0,0
76122.5,48.8624,-1579.3,0,0
76382.825,48.7738,-1573.37,0,0
76643.15,48.7122,-1567.54,0,0
76903.475,48.7358,-1561.72,0,0
77163.8,48.6399,-1556,0,0
77424.125,48.6173,-1550.24,0,0
77684.45,48.5697,-1544.6,0,0
77944.775,48.4748,-1538.93,0,0
78205.1,48.3678,-1533.26,0,0
78465.425,48.3153,-1527.63,0,0
78725.75,48.2747,-1522.12,0,0
78986.075,48.1786,-1516.61,0,0
79246.4,48.159,-1511.11,0,0
79506.725,48.1104,-1505.64,0,0
79767.05,48.0865,-1500.19,0,0
80027.375,48.0908,-1494.84,0,0
80287.7,48.1037,-1489.47,0,0
80548.025,47.9907,-1484.23,0,0
80808.35,47.8679,-1478.97,0,0
81068.675,47.7922,-1473.61,0,0
81329.0,47.7173,-1468.38,0,0
81589.325,47.7408,-1463.11,0,0
81849.65,47.6677,-1457.98,0,0
82109.975,47.6494,-1452.82,0,0
82370.3,47.6135,-1447.64,0,0
82630.625,47.6299,-1442.56,0,0
82890.95,47.5609,-1437.52,0,0
83151.275,47.4508,-1432.41,0,0
83411.6,47.4039,-1427.41,0,0
83671.925,47.4782,-1422.36,0,0
83932.25,47.4908,-1417.31,0,0
84192.575,47.5762,-1412.38,0,0
84452.9,47.6177,-1407.55,0,0
84713.225,47.6419,-1402.67,0,0
84973.55,47.6532,-1397.81,0,0
85233.875,47.7242,-1392.98,0,0
85494.2,47.8205,-1388.3,0,0
85754.525,47.6384,-1383.55,0,0
86014.85,47.6935,-1378.81,0,0
86275.175,47.7646,-1374.12,0,0
86535.5,47.8241,-1369.54,0,0
86795.825,47.7482,-1364.86,0,0
87056.15,47.8165,-1360.19,0,0
87316.475,47.9508,-1355.58,0,0
87576.8,47.959,-1351.14,0,0
87837.125,47.8782,-1346.62,0,0
88097.45,47.9443,-1342.18,0,0
88357.775,47.908,-1337.67,0,0
88618.1,47.8438,-1333.21,0,0
88878.425,47.8235,-1328.73,0,0
89138.75,47.7024,-1324.28,0,0
89399.075,47.7062,-1319.79,0,0
89659.4,47.6925,-1315.3,0,0
89919.725,47.7036,-1310.92,0,0
90180,47.6325,-1306.41,0,0
90440.4,47.8542,-1301.92,0,0
90700.7,47.9414,-1297.63,0,0
90961,48.0286,-1293.35,0,0
91221.3,48.0575,-1288.93,0,0
91481.7,48.1681,-1284.63,0,0
91742,48.2578,-1280.38,0,0
92002.3,48.4393,-1276.06,0,0
92262.6,48.648,-1271.93,0,0
92523,48.7776,-1267.87,0,0
92783.3,48.7177,-1263.69,0,0
93043.6,48.8546,-1259.43,0,0
93303.9,49.0008,-1255.26,0,0
93564.3,49.2224,-1251.01,0,0
93824.6,49.6183,-1246.74,0,0
94084.9,50.131,-1242.94,0,0
94345.2,50.3448,-1239.18,0,0
94605.6,50.5083,-1235.42,0,0
94865.9,50.7877,-1231.49,0,0
95126.2,51.2061,-1228,0,0
95386.5,51.0774,-1224.64,0,0
95646.9,50.812,-1221.01,0,0
95907.2,50.5579,-1217.1,0,0
96167.5,50.4345,-1213.24,0,0
96427.8,50.2394,-1209.4,0,0
96688.2,50.2135,-1205.49,0,0
96948.5,50.15,-1201.61,0,0
97208.8,50.0164,-1197.68,0,0
97469.1,49.974,-1193.58,0,0
97729.5,50.1492,-1189.57,0,0
97989.8,50.4171,-1185.73,0,0
98250.1,50.6157,-1181.89,0,0
98510.4,50.9668,-1178.31,0,0
98770.8,50.9854,-1174.81,0,0
99031.1,50.8545,-1171.22,0,0
99291.4,50.6679,-1167.52,0,0
99551.7,50.5197,-1163.54,0,0
99812.1,50.5496,-1159.49,0,0
100072,50.7737,-1155.45,0,0
100333,51.2601,-1151.65,0,0
100593,51.4677,-1148.11,0,0
100853,51.6368,-1144.27,0,0
101114,52.0993,-1140.6,0,0
101374,52.371,-1137.07,0,0
101634,52.5639,-1133.42,0,0
101895,52.8288,-1129.74,0,0
102155,53.1881,-1126.06,0,0
102415,53.6702,-1122.46,0,0
102676,54.0859,-1118.93,0,0
102936,54.6255,-1115.35,0,0
103196,55.3176,-1112.05,0,0
103457,55.8418,-1108.85,0,0
103717,56.4512,-1105.87,0,0
103977,56.6343,-1103.1,0,0
104238,56.6173,-1099.9,0,0
104498,56.8953,-1096.57,0,0
104758,57.2875,-1093.58,0,0
105019,57.3082,-1090.7,0,0
105279,57.2771,-1087.69,0,0
105539,57.154,-1084.49,0,0
105800,57.1652,-1081.24,0,0
106060,56.9726,-1077.99,0,0
106320.175,57.0239,-1074.43,0,0
106580.5,57.2395,-1070.96,0,0
106840.825,57.6309,-1067.63,0,0
107101.15,58.0103,-1064.56,0,0
107361.475,58.0785,-1061.54,0,0
107621.8,58.0794,-1058.29,0,0
107882.125,58.3336,-1054.94,0,0
108142.45,58.5333,-1051.77,0,0
108402.775,58.7058,-1048.52,0,0
108663.1,58.9476,-1045.37,0,0
108923.425,59.0837,-1042.18,0,0
109183.75,59.2877,-1039.08,0,0
109444.075,59.3035,-1035.98,0,0
109704.4,59.2875,-1032.6,0,0
109964.725,59.3555,-1029.22,0,0
110225.05,59.518,-1025.55,0,0
110485.375,59.9741,-1021.79,0,0
110745.7,60.6818,-1018.2,0,0
111006.025,61.5218,-1014.95,0,0
111266.35,62.2682,-1011.99,0,0
111526.675,62.5613,-1008.67,0,0
111787.0,63.2754,-1005.37,0,0
112047.325,64.1404,-1002.12,0,0
112307.65,64.9528,-998.886,0,0
112567.975,65.8693,-995.716,0,0
112828.3,66.8973,-992.687,0,0
113088.625,67.9746,-989.801,0,0
113348.95,69.024,-987.087,0,0
113609.275,69.8039,-984.26,0,0
113869.6,70.8251,-981.528,0,0
114129.925,71.8367,-978.745,0,0
114390.25,72.9638,-976.225,0,0
114650.575,73.9044,-973.614,0,0
114910.9,75.0292,-970.839,0,0
115171.225,76.2656,-968.251,0,0
115431.55,77.5287,-965.726,0,0
115691.875,79.1669,-963.304,0,0
115952.2,80.765,-961.308,0,0
116212.525,82.3746,-959.457,0,0
116472.85,84.0834,-958.022,0,0
116733.175,85.3186,-956.992,0,0
116993.5,86.0371,-955.877,0,0
117253.825,86.9798,-954.572,0,0
117514.15,87.8537,-953.482,0,0
117774.475,88.2775,-952.475,0,0
118034.8,88.7352,-951.088,0,0
118295.125,89.657,-949.759,0,0
118555.45,90.6071,-948.971,0,0
118815.775,91.2763,-948.56,0,0
119076.1,91.5308,-948.365,0,0
119336.425,91.5027,-948.142,0,0
119596.75,91.2466,-948.085,0,0
119857.075,90.5176,-948.229,0,0
120117.4,89.2468,-948.082,0,0
120377.725,87.659,-947.954,0,0
120638.05,85.3449,-947.202,0,0
120898.375,83.164,-945.904,0,0
121158.7,80.6514,-944.196,0,0
121419.025,78.6186,-941.625,0,0
121679.35,77.261,-939.181,0,0
121939.675,75.8125,-936.975,0,0
122200.0,74.3567,-934.66,0,0
122460,72.9071,-932.249,0,0
122721,71.4134,-929.768,0,0
122981,69.9734,-927.083,0,0
123241,68.5702,-924.208,0,0
123502,67.4157,-921.154,0,0
123762,66.5569,-918.058,0,0
124022,65.8482,-915.145,0,0
124283,65.1553,-912.327,0,0
124543,64.5574,-909.533,0,0
124803,64.0119,-906.968,0,0
125064,63.1923,-904.486,0,0
125324,62.1931,-901.851,0,0
125584,61.2802,-898.881,0,0
125845,60.5948,-895.936,0,0
126105,59.8638,-893.095,0,0
126365,59.0986,-890.113,0,0
126626,58.4772,-887.048,0,0
126886,57.9828,-884.012,0,0
127146,57.4119,-880.957,0,0
127406,57.028,-877.851,0,0
127667,56.8265,-874.796,0,0
127927,56.5924,-871.949,0,0
128187,56.2945,-869.14,0,0
128448,55.8949,-866.291,0,0
128708,55.5337,-863.403,0,0
128968,55.2031,-860.407,0,0
129229,55.0084,-857.454,0,0
129489,54.8087,-854.636,0,0
129749,54.5318,-851.769,0,0
130010,54.2574,-848.778,0,0
130270,54.1372,-845.831,0,0
130530,53.993,-843.064,0,0
130791,53.6907,-840.275,0,0
131051,53.3853,-837.339,0,0
131311,53.0703,-834.277,0,0
131572,52.9448,-831.106,0,0
131832,52.9824,-828.078,0,0
132092,52.9165,-825.142,0,0
132353,52.8004,-822.047,0,0
132613,52.8484,-818.948,0,0
132873,52.9467,-815.858,0,0
133134,53.0299,-812.773,0,0
133394,53.1705,-809.669,0,0
133654,53.3573,-806.477,0,0
133915,53.7139,-803.219,0,0
134175,54.2976,-799.988,0,0
134435,55.0415,-797.033,0,0
134696,55.7122,-794.314,0,0
134956,56.1449,-791.46,0,0
135216,56.7911,-788.495,0,0
135477,57.677,-785.545,0,0
135737,58.7927,-782.719,0,0
135997,60.2782,-780.437,0,0
136258,61.379,-778.57,0,0
136518,62.335,-776.878,0,0
136778,63.071,-775.479,0,0
137039,63.1549,-774.322,0,0
137299,62.7514,-772.764,0,0
137559,62.2835,-770.759,0,0
137819,61.9997,-768.476,0,0
138080,61.7756,-766.357,0,0
138340.125,61.3178,-764.143,0,0
138600.45,60.8253,-761.621,0,0
138860.775,60.4203,-758.881,0,0
139121.1,60.311,-755.986,0,0
139381.425,60.4407,-753.155,0,0
139641.75,60.6177,-750.553,0,0
139902.075,60.7976,-747.957,0,0
140162.4,60.9228,-745.453,0,0
140422.725,60.9397,-742.999,0,0
140683.05,60.8558,-740.404,0,0
140943.375,60.8854,-737.704,0,0
141203.7,60.9531,-735.031,0,0
141464.025,60.9638,-732.314,0,0
141724.35,61.0655,-729.477,0,0
141984.675,61.292,-726.632,0,0
142245.0,61.5709,-723.805,0,0
142505.325,61.8873,-721.042,0,0
142765.65,62.2504,-718.292,0,0
143025.975,62.6634,-715.494,0,0
143286.3,63.2101,-712.755,0,0
143546.625,63.8072,-710.2,0,0
143806.95,64.3536,-707.738,0,0
144067.275,64.8028,-705.418,0,0
144327.6,65.0765,-703.041,0,0
144587.925,65.2699,-700.617,0,0
144848.25,65.4465,-698.008,0,0
145108.575,65.8607,-695.431,0,0
145368.9,66.2491,-692.99,0,0
145629.225,66.4597,-690.608,0,0
145889.55,66.4879,-688.1,0,0
146149.875,66.5915,-685.34,0,0
146410.2,66.9125,-682.554,0,0
146670.525,67.2756,-679.868,0,0
146930.85,67.6023,-677.208,0,0
147191.175,68.0055,-674.556,0,0
147451.5,68.3146,-671.964,0,0
147711.825,68.6256,-669.236,0,0
147972.15,69.12,-666.617,0,0
148232.475,69.4638,-664.138,0,0
148492.8,69.6703,-661.681,0,0
148753.125,69.724,-659.134,0,0
149013.45,69.6449,-656.465,0,0
149273.775,69.5467,-653.559,0,0
149534.1,69.5961,-650.449,0,0
149794.425,69.7451,-647.32,0,0
150054.75,69.9304,-644.159,0,0
150315.075,70.1822,-640.939,0,0
150575.4,70.4383,-637.628,0,0
150835.725,70.7986,-634.284,0,0
151096.05,71.2075,-630.839,0,0
151356.375,71.7372,-627.339,0,0
151616.7,72.3562,-623.808,0,0
151877.025,73.0965,-620.254,0,0
152137.35,73.8942,-616.696,0,0
152397.675,74.7824,-613.079,0,0
152658.0,75.8313,-609.497,0,0
152918.325,76.9308,-605.961,0,0
153178.65,78.0921,-602.436,0,0
153438.975,79.2937,-598.948,0,0
153699.3,80.4656,-595.376,0,0
153959.625,81.7777,-591.722,0,0
154219.95,83.2892,-588.033,0,0
154480,84.9521,-584.443,0,0
154741,86.6847,-580.891,0,0
155001,88.4587,-577.437,0,0
155261,90.3073,-573.937,0,0
155522,92.2706,-570.471,0,0
155782,94.345,-567.035,0,0
156042,96.6014,-563.666,0,0
156303,98.9677,-560.437,0,0
156563,101.365,-557.349,0,0
156823,103.771,-554.343,0,0
157084,106.274,-551.345,0,0
157344,108.977,-548.522,0,0
157604,111.679,-545.971,0,0
157864,114.29,-543.588,0,0
158125,116.89,-541.265,0,0
158385,119.605,-539.207,0,0
158645,122.124,-537.593,0,0
158906,124.121,-536.159,0,0
159166,125.749,-534.581,0,0
159426,127.086,-532.862,0,0
159687,128.239,-531.051,0,0
159947,128.985,-529.008,0,0
160207,129.536,-526.446,0,0
160468,130.1,-523.413,0,0
160728,130.727,-520.027,0,0
160988,131.371,-516.229,0,0
161249,132.336,-511.721,0,0
161509,133.858,-506.953,0,0
161769,135.965,-501.984,0,0
162030,138.566,-497.02,0,0
162290,141.697,-492.17,0,0
162550,144.999,-487.674,0,0
162811,148.347,-483.038,0,0
163071,152.081,-478.24,0,0
163331,156.311,-473.391,0,0
163592,161.208,-468.818,0,0
163852,166.327,-464.741,0,0
164112,171.51,-461.073,0,0
164373,176.71,-457.426,0,0
164633,182.116,-453.964,0,0
164893,187.537,-450.819,0,0
165154,192.864,-447.7,0,0
165414,198.017,-444.275,0,0
165674,203.531,-440.334,0,0
165935,209.802,-436.132,0,0
166195,217.006,-431.948,0,0
166455,225.149,-428.171,0,0
166716,233.866,-425.215,0,0
166976,242.822,-422.743,0,0
167236,252.442,-420.679,0,0
167497,262.415,-419.521,0,0
167757,272.47,-419.032,0,0
168017,283.045,-418.802,0,0
168277,294.467,-419.619,0,0
168538,306.271,-422.049,0,0
168798,317.501,-425.749,0,0
169058,328.345,-430.662,0,0
169319,338.467,-436.757,0,0
169579,347.399,-443.256,0,0
169839,355.825,-449.44,0,0
170100,364.754,-456.171,0,0
170360.075,373.628,-464.315,0,0
170620.4,381.42,-473.992,0,0
170880.725,387.465,-484.025,0,0
171141.05,392.702,-493.592,0,0
171401.375,397.856,-503.385,0,0
171661.7,402.497,-513.805,0,0
171922.025,406.687,-524.698,0,0
172182.35,410.465,-536.901,0,0
172442.675,412.164,-550.723,0,0
172703.0,411.212,-564.162,0,0
172963.325,408.915,-576.911,0,0
173223.65,405.102,-589.229,0,0
173483.975,399.49,-601.02,0,0
173744.3,392.047,-611.209,0,0
174004.625,383.879,-619.41,0,0
174264.95,375.247,-626.194,0,0
174525.275,366.083,-631.428,0,0
174785.6,356.39,-634.499,0,0
175045.925,347.926,-634.896,0,0
175306.25,341.669,-634.859,0,0
175566.575,335.31,-635.049,0,0
175826.9,329.18,-633.395,0,0
176087.225,324.933,-630.511,0,0
176347.55,322.417,-627.704,0,0
176607.875,321.302,-624.902,0,0
176868.2,321.844,-622.589,0,0
177128.525,323.759,-621.48,0,0
177388.85,326.331,-621.978,0,0
177649.175,328.95,-623.659,0,0
177909.5,331.948,-626.513,0,0
178169.825,335.128,-631.134,0,0
178430.15,337.567,-638.149,0,0
178690.475,337.653,-646.94,0,0
178950.8,334.954,-655.935,0,0
179211.125,329.954,-663.805,0,0
179471.45,323.997,-670.026,0,0
179731.775,317.648,-675.278,0,0
179992.1,310.804,-679.295,0,0
180252.425,304.822,-682.119,0,0
180512.75,299.613,-685.457,0,0
180773.075,294.034,-689.569,0,0
181033.4,287.254,-694.287,0,0
181293.725,278.314,-698.455,0,0
181554.05,268.3,-700.243,0,0
181814.375,259.08,-700.461,0,0
182074.7,250.149,-700.218,0,0
182335.025,241.015,-699.163,0,0
182595.35,232.026,-696.968,0,0
182855.675,223.725,-693.557,0,0
183116.0,216.45,-689.407,0,0
183376.325,210.24,-685.372,0,0
183636.65,204.16,-681.68,0,0
183896.975,197.922,-677.522,0,0
184157.3,192.149,-672.635,0,0
184417.625,187.179,-667.279,0,0
184677.95,183.207,-662.026,0,0
184938.275,179.776,-657.439,0,0
185198.6,176.144,-653.188,0,0
185458.925,172.351,-648.865,0,0
185719.25,168.489,-644.259,0,0
185979.575,164.754,-639.146,0,0
186239.9,161.511,-633.633,0,0
186500,158.883,-628.006,0,0
186761,156.774,-622.553,0,0
187021,154.806,-617.152,0,0
187281,153.266,-611.588,0,0
187542,152.322,-606.136,0,0
187802,151.9,-601.039,0,0
188062,151.798,-596.472,0,0
188322,151.851,-592.49,0,0
188583,151.688,-589.27,0,0
188843,150.74,-586.339,0,0
189103,149.239,-583.101,0,0
189364,147.578,-579.363,0,0
189624,146.093,-575.345,0,0
189884,144.606,-571.214,0,0
190145,143.361,-566.725,0,0
190405,142.33,-562.383,0,0
190665,141.061,-558.028,0,0
190926,139.796,-553.08,0,0
191186,139.078,-547.776,0,0
191446,138.975,-542.602,0,0
191707,139.032,-537.812,0,0
191967,138.974,-533.144,0,0
192227,138.9,-528.318,0,0
192488,138.969,-523.34,0,0
192748,139.28,-518.206,0,0
193008,139.858,-513.147,0,0
193269,140.673,-508.108,0,0
193529,141.676,-503.208,0,0
193789,142.719,-498.425,0,0
194050,143.78,-493.589,0,0
194310,144.999,-488.637,0,0
194570,146.483,-483.594,0,0
194831,148.372,-478.566,0,0
195091,150.586,-473.838,0,0
195351,152.84,-469.405,0,0
195612,155.094,-465.081,0,0
195872,157.572,-460.863,0,0
196132,159.937,-456.819,0,0
196393,162.293,-452.908,0,0
196653,164.73,-448.944,0,0
196913,167.43,-445.078,0,0
197174,170.098,-441.472,0,0
197434,172.787,-438.039,0,0
197694,175.266,-434.771,0,0
197955,177.456,-431.534,0,0
198215,179.592,-427.885,0,0
198475,181.941,-424.114,0,0
198735,184.474,-420.355,0,0
198996,186.968,-416.602,0,0
199256,189.439,-412.962,0,0
199516,191.9,-408.95,0,0
199777,194.661,-404.751,0,0
200037,197.689,-400.463,0,0
200297,200.952,-396.135,0,0
200558,204.575,-391.907,0,0
200818,208.261,-387.922,0,0
201078,211.88,-383.897,0,0
201339,215.683,-379.581,0,0
201599,219.979,-375.171,0,0
201859,224.612,-370.876,0,0
202120,229.628,-366.669,0,0
202380.025,234.999,-362.652,0,0
202640.35,240.655,-359.086,0,0
202900.675,246.25,-355.647,0,0
203161.0,252.045,-352.299,0,0
203421.325,258.11,-348.992,0,0
203681.65,264.502,-345.881,0,0
203941.975,271.133,-343.08,0,0
204202.3,277.979,-340.523,0,0
204462.625,285.064,-338.326,0,0
204722.95,292.196,-336.445,0,0
204983.275,299.485,-334.598,0,0
205243.6,307.261,-332.932,0,0
205503.925,315.707,-331.82,0,0
205764.25,324.239,-331.832,0,0
206024.575,332.518,-332.632,0,0
206284.9,340.327,-334.019,0,0
206545.225,347.842,-335.852,0,0
206805.55,354.828,-338.127,0,0
207065.875,361.057,-340.753,0,0
207326.2,366.51,-343.17,0,0
207586.525,371.306,-345.079,0,0
207846.85,375.996,-346.178,0,0
208107.175,381.015,-346.521,0,0
208367.5,386.529,-346.466,0,0
208627.825,392.746,-345.927,0,0
208888.15,400.258,-345.29,0,0
209148.475,409.106,-345.36,0,0
209408.8,418.441,-346.589,0,0
209669.125,428.178,-348.53,0,0
209929.45,438.456,-351.389,0,0
210189.775,449.379,-355.516,0,0
210450.1,460.62,-361.705,0,0
210710.425,470.638,-370.221,0,0
210970.75,478.618,-379.565,0,0
211231.075,485.378,-388.882,0,0
211491.4,491.368,-398.33,0,0
211751.725,496.582,-408.079,0,0
212012.05,500.83,-418.114,0,0
212272.375,503.962,-428.04,0,0
212532.7,506.62,-437.492,0,0
212793.025,508.99,-447.24,0,0
213053.35,510.128,-457.474,0,0
213313.675,509.769,-466.838,0,0
213574.0,509.337,-475.023,0,0
213834.325,509.243,-482.965,0,0
214094.65,508.99,-491.2,0,0
214354.975,508.011,-499.608,0,0
214615.3,506.186,-507.57,0,0
214875.625,503.958,-514.954,0,0
215135.95,501.262,-521.767,0,0
215396.275,498.57,-527.615,0,0
215656.6,496.345,-532.961,0,0
215916.925,494.661,-538.124,0,0
216177.25,493.521,-543.674,0,0
216437.575,492.443,-550.086,0,0
216697.9,490.691,-557.395,0,0
216958.225,487.577,-565.08,0,0
217218.55,482.981,-572.131,0,0
217478.875,477.784,-577.825,0,0
217739.2,472.872,-582.693,0,0
217999.525,468.103,-587.413,0,0
218259.85,463.043,-591.988,0,0
218520,457.688,-596.274,0,0
218780,451.965,-600.282,0,0
219041,445.55,-603.862,0,0
219301,438.66,-606.377,0,0
219561,431.785,-607.797,0,0
219822,425.28,-608.47,0,0
220082,418.953,-608.439,0,0
220342,412.951,-607.622,0,0
220603,407.479,-606.145,0,0
220863,402.607,-604.243,0,0
221123,398.313,-601.962,0,0
221384,394.56,-599.382,0,0
221644,391.373,-596.583,0,0
221904,388.833,-593.567,0,0
222165,386.93,-590.493,0,0
222425,385.774,-587.55,0,0
222685,385.08,-585.064,0,0
222946,384.546,-582.72,0,0
223206,384.283,-580.468,0,0
223466,384.362,-578.335,0,0
223727,384.744,-576.462,0,0
223987,385.298,-574.912,0,0
224247,385.806,-573.617,0,0
224508,386.136,-572.218,0,0
224768,386.464,-570.516,0,0
225028,387.325,-568.375,0,0
225289,388.887,-566.111,0,0
225549,391.259,-564.054,0,0
225809,394.29,-562.504,0,0
226070,397.866,-561.584,0,0
226330,401.746,-561.491,0,0
226590,405.552,-562.238,0,0
226851,408.952,-563.444,0,0
227111,412.259,-564.708,0,0
227371,415.717,-566.115,0,0
227632,419.523,-567.943,0,0
227892,423.564,-570.481,0,0
228152,427.483,-573.851,0,0
228413,431.008,-577.855,0,0
228673,434.199,-582.333,0,0
228933,436.955,-587.384,0,0
229193,439.002,-592.822,0,0
229454,440.392,-598.141,0,0
229714,441.708,-603.253,0,0
229974,443.145,-608.582,0,0
230235,444.547,-614.719,0,0
230495,445.322,-621.577,0,0
230755,445.107,-628.702,0,0
231016,443.92,-635.966,0,0
231276,441.865,-642.801,0,0
231536,439.338,-649.04,0,0
231797,436.824,-654.863,0,0
232057,434.492,-660.743,0,0
232317,431.983,-667.045,0,0
232578,428.791,-673.81,0,0
232838,424.593,-680.554,0,0
233098,419.866,-686.867,0,0
233359,414.654,-693.072,0,0
233619,408.648,-699.33,0,0
233879,401.481,-705.033,0,0
234140,393.608,-709.742,0,0
234400,385.401,-713.677,0,0
234660.3,376.76,-716.882,0,0
234920.625,367.557,-718.908,0,0
235180.95,358.47,-719.615,0,0
235441.275,349.71,-719.022,0,0
235701.6,341.763,-717.427,0,0
235961.925,334.781,-715.387,0,0
236222.25,328.689,-713.104,0,0
236482.575,323.398,-710.969,0,0
236742.9,318.519,-709.358,0,0
237003.225,313.508,-708.129,0,0
237263.55,308.062,-706.826,0,0
237523.875,302.467,-705.08,0,0
237784.2,296.887,-703.002,0,0
238044.525,291.209,-700.455,0,0
238304.85,285.526,-697.282,0,0
238565.175,280.148,-693.164,0,0
238825.5,275.592,-688.084,0,0
239085.825,272.102,-682.711,0,0
239346.15,270.01,-677.292,0,0
239606.475,269.002,-672.381,0,0
239866.8,268.821,-668.295,0,0
240127.125,268.977,-665.166,0,0
240387.45,269.159,-663.052,0,0
240647.775,269.072,-661.672,0,0
240908.1,268.358,-660.833,0,0
241168.425,267.066,-660.122,0,0
241428.75,265.358,-659.332,0,0
241689.075,263.23,-658.39,0,0
241949.4,260.821,-657.321,0,0
242209.725,257.938,-655.985,0,0
242470.05,254.811,-653.961,0,0
242730.375,251.836,-651.248,0,0
242990.7,249.426,-648.048,0,0
243251.025,247.423,-644.857,0,0
243511.35,245.465,-641.576,0,0
243771.675,243.583,-637.796,0,0
244032.0,242.351,-633.485,0,0
244292.325,242.067,-629.037,0,0
244552.65,242.541,-624.835,0,0
244812.975,243.793,-621.247,0,0
245073.3,245.315,-618.44,0,0
245333.625,246.768,-616.219,0,0
245593.95,248.192,-614.417,0,0
245854.275,249.523,-613.033,0,0
246114.6,250.616,-612.104,0,0
246374.925,251.303,-611.256,0,0
246635.25,251.767,-610.45,0,0
246895.575,252.111,-609.621,0,0
247155.9,252.278,-608.754,0,0
247416.225,252.356,-607.769,0,0
247676.55,252.451,-606.645,0,0
247936.875,252.635,-605.47,0,0
248197.2,252.907,-604.353,0,0
248457.525,253.218,-603.234,0,0
248717.85,253.54,-602.056,0,0
248978.175,254.067,-600.856,0,0
249238.5,254.706,-599.766,0,0
249498.825,255.45,-598.879,0,0
249759.15,256.202,-598.104,0,0
250019.475,257.006,-597.414,0,0
250279.8,257.804,-596.863,0,0
250540,258.563,-596.408,0,0
250800,259.364,-595.986,0,0
251061,260.145,-595.678,0,0
251321,260.967,-595.429,0,0
251581,261.861,-595.246,0,0
251842,262.842,-595.221,0,0
252102,263.977,-595.484,0,0
252362,264.984,-596.058,0,0
252623,265.741,-596.912,0,0
252883,266.334,-597.808,0,0
253143,266.828,-598.876,0,0
253404,267.108,-600.106,0,0
253664,267.184,-601.488,0,0
253924,266.938,-602.986,0,0
254185,266.341,-604.541,0,0
254445,265.395,-605.854,0,0
254705,264.214,-607.058,0,0
254966,262.905,-608.144,0,0
255226,261.479,-608.994,0,0
255486,259.894,-609.726,0,0
255747,258.135,-610.306,0,0
256007,256.352,-610.662,0,0
256267,254.486,-610.823,0,0
256528,252.614,-610.822,0,0
256788,250.712,-610.675,0,0
257048,248.752,-610.372,0,0
257309,246.704,-609.809,0,0
257569,244.712,-608.957,0,0
257829,242.831,-607.848,0,0
258090,241.129,-606.508,0,0
258350,239.634,-605.001,0,0
258610,238.422,-603.425,0,0
258871,237.471,-601.872,0,0
259131,236.617,-600.434,0,0
259391,235.839,-599.112,0,0
259651,234.93,-597.76,0,0
259912,233.914,-596.293,0,0
260172,232.93,-594.566,0,0
260432,232.135,-592.597,0,0
260693,231.605,-590.483,0,0
260953,231.288,-588.211,0,0
261213,231.27,-585.914,0,0
261474,231.519,-583.539,0,0
261734,232.117,-581.185,0,0
261994,233.067,-578.857,0,0
262255,234.406,-576.659,0,0
262515,236.126,-574.684,0,0
262775,238.169,-573.061,0,0
263036,240.498,-571.865,0,0
263296,242.915,-571.143,0,0
263556,245.317,-570.875,0,0
263817,247.634,-571.043,0,0
264077,249.747,-571.593,0,0
264337,251.626,-572.471,0,0
264598,253.18,-573.534,0,0
264858,254.426,-574.751,0,0
265118,255.346,-576.02,0,0
265379,255.861,-577.132,0,0
265639,256.289,-577.954,0,0
265899,256.781,-578.603,0,0
266160,257.436,-579.207,0,0
266420,258.221,-579.836,0,0
266680.25,259.18,-580.635,0,0
266940.575,260.221,-581.649,0,0
267200.9,261.082,-582.956,0,0
267461.225,261.78,-584.434,0,0
267721.55,262.314,-586.053,0,0
267981.875,262.591,-587.732,0,0
268242.2,262.627,-589.398,0,0
268502.525,262.456,-590.94,0,0
268762.85,262.108,-592.38,0,0
269023.175,261.724,-593.502,0,0
269283.5,261.438,-594.423,0,0
269543.825,261.29,-595.259,0,0
269804.15,261.386,-596.084,0,0
270064.475,261.685,-596.907,0,0
270324.8,262.187,-597.922,0,0
270585.125,262.883,-599.099,0,0
270845.45,263.67,-600.515,0,0
271105.775,264.545,-602.126,0,0
271366.1,265.647,-604.009,0,0
271626.425,266.947,-606.278,0,0
271886.75,268.42,-609.225,0,0
272147.075,269.779,-612.99,0,0
272407.4,270.748,-617.645,0,0
272667.725,270.914,-623.044,0,0
272928.05,270.064,-628.875,0,0
273188.375,268.309,-634.93,0,0
273448.7,265.574,-641.005,0,0
273709.025,261.721,-646.96,0,0
273969.35,256.882,-652.499,0,0
274229.675,251.181,-657.365,0,0
274490.0,244.923,-661.516,0,0
274750.325,238.189,-665.003,0,0
275010.65,230.913,-667.851,0,0
275270.975,223.137,-669.838,0,0
275531.3,215.058,-670.752,0,0
275791.625,207.086,-670.57,0,0
276051.95,199.459,-669.496,0,0
276312.275,192.156,-667.812,0,0
276572.6,185.164,-665.531,0,0
276832.925,178.461,-662.704,0,0
277093.25,172.092,-659.274,0,0
277353.575,166.232,-655.249,0,0
277613.9,160.923,-650.704,0,0
277874.225,156.37,-645.85,0,0
278134.55,152.448,-640.864,0,0
278394.875,149.167,-635.812,0,0
278655.2,146.455,-630.828,0,0
278915.525,144.28,-625.994,0,0
279175.85,142.405,-621.351,0,0
279436.175,140.859,-616.875,0,0
279696.5,139.541,-612.493,0,0
279956.825,138.553,-608.151,0,0
280217.15,137.938,-603.948,0,0
280477.475,137.596,-600.011,0,0
280737.8,137.554,-596.371,0,0
280998.125,137.715,-593.088,0,0
281258.45,137.867,-590.243,0,0
281518.775,137.866,-587.724,0,0
281779.1,137.654,-585.377,0,0
282039.425,137.237,-583.079,0,0
282299.75,136.602,-580.772,0,0
282560,135.805,-578.31,0,0
282820,134.954,-575.605,0,0
283081,134.201,-572.646,0,0
283341,133.632,-569.504,0,0
283601,133.294,-566.277,0,0
283862,133.207,-562.986,0,0
284122,133.379,-559.713,0,0
284382,133.763,-556.505,0,0
284643,134.401,-553.408,0,0
284903,135.175,-550.447,0,0
285163,136.134,-547.612,0,0
285424,137.204,-544.977,0,0
285684,138.4,-542.487,0,0
285944,139.646,-540.2,0,0
286205,140.963,-538.098,0,0
286465,142.32,-536.199,0,0
286725,143.609,-534.523,0,0
286986,144.817,-533.037,0,0
287246,145.873,-531.666,0,0
287506,146.785,-530.344,0,0
287767,147.568,-529.054,0,0
288027,148.218,-527.726,0,0
288287,148.774,-526.292,0,0
288548,149.31,-524.759,0,0
288808,149.87,-523.098,0,0
289068,150.502,-521.354,0,0
289329,151.241,-519.562,0,0
289589,152.095,-517.77,0,0
289849,152.989,-515.994,0,0
290109,153.945,-514.18,0,0
290370,155.028,-512.301,0,0
290630,156.313,-510.429,0,0
290890,157.782,-508.682,0,0
291151,159.355,-507.07,0,0
291411,160.991,-505.64,0,0
291671,162.611,-504.368,0,0
291932,164.187,-503.201,0,0
292192,165.708,-502.06,0,0
292452,167.228,-500.901,0,0
292713,168.817,-499.787,0,0
292973,170.435,-498.751,0,0
293233,172.037,-497.777,0,0
293494,173.63,-496.828,0,0
293754,175.25,-495.892,0,0
294014,176.875,-494.994,0,0
294275,178.518,-494.097,0,0
294535,180.193,-493.139,0,0
294795,181.968,-492.155,0,0
295056,183.881,-491.189,0,0
295316,185.917,-490.315,0,0
295576,188.036,-489.549,0,0
295837,190.222,-488.842,0,0
296097,192.466,-488.208,0,0
296357,194.847,-487.629,0,0
296618,197.363,-487.14,0,0
296878,199.999,-486.794,0,0
297138,202.781,-486.66,0,0
297399,205.598,-486.734,0,0
297659,208.454,-487.024,0,0
297919,211.293,-487.547,0,0
298180,214.038,-488.241,0,0
298440,216.728,-489.051,0,0
298700.2,219.391,-489.936,0,0
298960.525,222.046,-490.978,0,0
299220.85,224.79,-492.087,0,0
299481.175,227.511,-493.321,0,0
299741.5,230.249,-494.663,0,0
300001.825,233.034,-496.215,0,0
300262.15,235.804,-497.907,0,0
300522.475,238.692,-499.871,0,0
300782.8,241.577,-501.948,0,0
301043.125,244.606,-504.389,0,0
301303.45,247.556,-507.036,0,0
301563.775,250.629,-510.197,0,0
301824.1,253.711,-513.624,0,0
302084.425,256.657,-517.705,0,0
302344.75,259.424,-522.472,0,0
302605.075,261.638,-527.929,0,0
302865.4,263.141,-533.782,0,0
303125.725,263.832,-539.951,0,0
303386.05,263.692,-546.186,0,0
303646.375,262.738,-552.295,0,0
303906.7,261.113,-558.087,0,0
304167.025,258.986,-563.523,0,0
304427.35,256.431,-568.591,0,0
304687.675,253.538,-573.314,0,0
304948.0,250.408,-577.657,0,0
305208.325,247.057,-581.637,0,0
305468.65,243.559,-585.412,0,0
305728.975,239.837,-588.922,0,0
305989.3,235.856,-592.131,0,0
306249.625,231.664,-594.987,0,0
306509.95,227.34,-597.422,0,0
306770.275,222.947,-599.483,0,0
307030.6,218.554,-601.148,0,0
307290.925,214.18,-602.49,0,0
307551.25,209.889,-603.532,0,0
307811.575,205.668,-604.308,0,0
308071.9,201.504,-604.867,0,0
308332.225,197.397,-605.217,0,0
308592.55,193.339,-605.312,0,0
308852.875,189.349,-605.169,0,0
309113.2,185.493,-604.772,0,0
309373.525,181.752,-604.159,0,0
309633.85,178.185,-603.33,0,0
309894.175,174.806,-602.329,0,0
310154.5,171.653,-601.222,0,0
310414.825,168.681,-600.035,0,0
310675.15,165.914,-598.813,0,0
310935.475,163.294,-597.551,0,0
311195.8,160.787,-596.304,0,0
311456.125,158.408,-595.069,0,0
311716.45,156.111,-593.833,0,0
311976.775,153.869,-592.568,0,0
312237.1,151.706,-591.317,0,0
312497.425,149.578,-590.028,0,0
312757.75,147.529,-588.717,0,0
313018.075,145.544,-587.384,0,0
313278.4,143.578,-586.037,0,0
313538.725,141.653,-584.648,0,0
313799.05,139.775,-583.184,0,0
314059.375,137.938,-581.687,0,0
314319.7,136.181,-580.09,0,0
314580,134.514,-578.443,0,0
314840,132.961,-576.719,0,0
315101,131.548,-574.949,0,0
315361,130.283,-573.171,0,0
315621,129.155,-571.409,0,0
315882,128.145,-569.718,0,0
316142,127.244,-568.062,0,0
316402,126.465,-566.477,0,0
316663,125.732,-564.987,0,0
316923,125.034,-563.561,0,0
317183,124.34,-562.206,0,0
317444,123.659,-560.907,0,0
317704,122.988,-559.637,0,0
317964,122.355,-558.366,0,0
318225,121.689,-557.134,0,0
318485,121.064,-555.885,0,0
318745,120.468,-554.641,0,0
319006,119.934,-553.397,0,0
319266,119.443,-552.137,0,0
319526,119.045,-550.959,0,0
319787,118.701,-549.831,0,0
320047,118.375,-548.754,0,0
320307,118.069,-547.739,0,0
320567,117.765,-546.803,0,0
320828,117.479,-545.924,0,0
321088,117.19,-545.048,0,0
321348,116.896,-544.279,0,0
321609,116.579,-543.53,0,0
321869,116.242,-542.835,0,0
322129,115.881,-542.179,0,0
322390,115.492,-541.523,0,0
322650,115.067,-540.927,0,0
322910,114.6,-540.356,0,0
323171,114.088,-539.784,0,0
323431,113.514,-539.191,0,0
323691,112.924,-538.586,0,0
323952,112.31,-537.933,0,0
324212,111.675,-537.219,0,0
324472,111.088,-536.473,0,0
324733,110.495,-535.708,0,0
324993,109.953,-534.911,0,0
325253,109.491,-534.117,0,0
325514,109.054,-533.374,0,0
325774,108.674,-532.673,0,0
326034,108.289,-532.015,0,0
326295,107.875,-531.391,0,0
326555,107.452,-530.805,0,0
326815,107.034,-530.24,0,0
327076,106.576,-529.723,0,0
327336,106.078,-529.212,0,0
327596,105.558,-528.711,0,0
327857,105.008,-528.213,0,0
328117,104.44,-527.711,0,0
328377,103.834,-527.197,0,0
328638,103.216,-526.649,0,0
328898,102.589,-526.115,0,0
329158,101.964,-525.549,0,0
329419,101.342,-524.997,0,0
329679,100.723,-524.413,0,0
329939,100.088,-523.888,0,0
330200,99.4492,-523.329,0,0
330460,98.7865,-522.757,0,0
330720.15,98.1303,-522.161,0,0
330980.475,97.4541,-521.65,0,0
331240.8,96.8397,-521.129,0,0
331501.125,96.0627,-520.643,0,0
331761.45,95.3612,-520.096,0,0
332021.775,94.6022,-519.596,0,0
332282.1,93.7718,-519.06,0,0
332542.425,92.9583,-518.528,0,0
332802.75,92.0124,-517.959,0,0
333063.075,91.1043,-517.306,0,0
333323.4,90.0957,-516.66,0,0
333583.725,89.1487,-515.979,0,0
333844.05,88.1768,-515.224,0,0
334104.375,87.1184,-514.389,0,0
334364.7,86.1809,-513.476,0,0
334625.025,85.2065,-512.555,0,0
334885.35,84.3392,-511.589,0,0
335145.675,83.3684,-510.637,0,0
335406.0,82.4905,-509.679,0,0
335666.325,81.6028,-508.662,0,0
335926.65,80.6718,-507.556,0,0
336186.975,79.7716,-506.433,0,0
336447.3,78.926,-505.359,0,0
336707.625,78.1174,-504.084,0,0
336967.95,77.2896,-502.84,0,0
337228.275,76.5588,-501.603,0,0
337488.6,75.9057,-500.292,0,0
337748.925,75.2552,-499.002,0,0
338009.25,74.6459,-497.735,0,0
338269.575,74.0438,-496.388,0,0
338529.9,73.4739,-495.091,0,0
338790.225,72.9936,-493.832,0,0
339050.55,72.4706,-492.449,0,0
339310.875,72.0266,-491.182,0,0
339571.2,71.606,-489.83,0,0
339831.525,71.1995,-488.576,0,0
340091.85,70.7842,-487.203,0,0
340352.175,70.4542,-485.898,0,0
340612.5,70.1033,-484.595,0,0
340872.825,69.8067,-483.316,0,0
341133.15,69.5339,-481.964,0,0
341393.475,69.2566,-480.601,0,0
341653.8,69.0251,-479.302,0,0
341914.125,68.8131,-477.964,0,0
342174.45,68.7038,-476.624,0,0
342434.775,68.5865,-475.313,0,0
342695.1,68.4629,-474.006,0,0
342955.425,68.3725,-472.705,0,0
343215.75,68.4082,-471.419,0,0
343476.075,68.4356,-470.164,0,0
343736.4,68.4721,-468.901,0,0
343996.725,68.5566,-467.752,0,0
344257.05,68.7303,-466.545,0,0
344517.375,68.8553,-465.409,0,0
344777.7,68.9957,-464.332,0,0
345038.025,69.1504,-463.278,0,0
345298.35,69.2858,-462.255,0,0
345558.675,69.4793,-461.262,0,0
345819.0,69.604,-460.274,0,0
346079.325,69.7377,-459.391,0,0
346339.65,69.9638,-458.514,0,0
346599.975,70.1042,-457.596,0,0
346860,70.2262,-456.829,0,0
347121,70.2503,-456.005,0,0
347381,70.2906,-455.21,0,0
347641,70.3399,-454.451,0,0
347902,70.3575,-453.655,0,0
348162,70.3256,-452.881,0,0
348422,70.2442,-452.102,0,0
348683,70.0432,-451.248,0,0
348943,69.9824,-450.387,0,0
349203,69.8569,-449.468,0,0
349464,69.7359,-448.511,0,0
349724,69.6665,-447.547,0,0
349984,69.5977,-446.607,0,0
350245,69.5016,-445.607,0,0
350505,69.4317,-444.675,0,0
350765,69.347,-443.616,0,0
351025,69.2754,-442.546,0,0
351286,69.3082,-441.378,0,0
351546,69.3748,-440.216,0,0
351806,69.5219,-439.109,0,0
352067,69.7331,-437.964,0,0
352327,69.9677,-436.833,0,0
352587,70.2108,-435.828,0,0
352848,70.5209,-434.759,0,0
353108,70.8844,-433.808,0,0
353368,71.2456,-432.817,0,0
353629,71.6284,-431.852,0,0
353889,72.0143,-431.041,0,0
354149,72.4078,-430.153,0,0
354410,72.8632,-429.369,0,0
354670,73.2612,-428.576,0,0
354930,73.6595,-427.813,0,0
355191,74.0855,-427.149,0,0
355451,74.5611,-426.539,0,0
355711,75.0182,-426.032,0,0
355972,75.3535,-425.593,0,0
356232,75.6444,-425.131,0,0
356492,75.8086,-424.753,0,0
356753,75.9141,-424.324,0,0
357013,75.9584,-423.916,0,0
357273,75.9403,-423.48,0,0
357534,75.8595,-422.901,0,0
357794,75.7885,-422.356,0,0
358054,75.6715,-421.757,0,0
358315,75.5178,-421.074,0,0
358575,75.3678,-420.31,0,0
358835,75.206,-419.508,0,0
359096,75.1121,-418.608,0,0
359356,75.041,-417.665,0,0
359616,75.0221,-416.718,0,0
359877,75.0791,-415.719,0,0
360137,75.1628,-414.721,0,0
360397,75.2994,-413.715,0,0
360658,75.4721,-412.656,0,0
360918,75.716,-411.599,0,0
361178,76.0445,-410.651,0,0
361438,76.3289,-409.629,0,0
361699,76.7532,-408.67,0,0
361959,77.1885,-407.738,0,0
362219,77.6161,-406.842,0,0
362480,78.1307,-406.03,0,0
362740.1,78.595,-405.219,0,0
363000.425,79.0806,-404.41,0,0
363260.75,79.5516,-403.657,0,0
363521.075,80.0146,-402.906,0,0
363781.4,80.5361,-402.157,0,0
364041.725,81.0349,-401.435,0,0
364302.05,81.5372,-400.726,0,0
364562.375,82.1056,-400.001,0,0
364822.7,82.6977,-399.418,0,0
365083.025,83.3058,-398.752,0,0
365343.35,83.9354,-398.185,0,0
365603.675,84.5601,-397.71,0,0
365864.0,85.1768,-397.27,0,0
366124.325,85.6875,-396.901,0,0
366384.65,86.1991,-396.54,0,0
366644.975,86.6758,-396.172,0,0
366905.3,87.1134,-395.827,0,0
367165.625,87.5623,-395.457,0,0
367425.95,88.0128,-395.103,0,0
367686.275,88.4341,-394.771,0,0
367946.6,88.8749,-394.432,0,0
368206.925,89.2738,-394.107,0,0
368467.25,89.7186,-393.818,0,0
368727.575,90.0985,-393.521,0,0
368987.9,90.5223,-393.301,0,0
369248.225,90.9391,-393.126,0,0
369508.55,91.3023,-393.002,0,0
369768.875,91.6201,-392.934,0,0
370029.2,91.8571,-392.892,0,0
370289.525,91.9816,-392.902,0,0
370549.85,92.0561,-392.9,0,0
370810.175,91.9512,-392.86,0,0
371070.5,91.7754,-392.761,0,0
371330.825,91.5714,-392.556,0,0
371591.15,91.2834,-392.246,0,0
371851.475,90.9827,-391.804,0,0
372111.8,90.6919,-391.281,0,0
372372.125,90.4603,-390.664,0,0
372632.45,90.31,-389.967,0,0
372892.775,90.1743,-389.231,0,0
373153.1,90.1434,-388.467,0,0
373413.425,90.1845,-387.675,0,0
373673.75,90.1979,-386.886,0,0
373934.075,90.3115,-386.095,0,0
374194.4,90.4766,-385.325,0,0
374454.725,90.6727,-384.544,0,0
374715.05,90.8375,-383.825,0,0
374975.375,91.0955,-383.059,0,0
375235.7,91.3632,-382.296,0,0
375496.025,91.6871,-381.6,0,0
375756.35,91.995,-380.876,0,0
376016.675,92.3388,-380.2,0,0
376277.0,92.6527,-379.627,0,0
376537.325,92.9734,-379.048,0,0
376797.65,93.2553,-378.404,0,0
377057.975,93.5033,-377.784,0,0
377318.3,93.7478,-377.112,0,0
377578.625,94.0069,-376.391,0,0
377838.95,94.3283,-375.665,0,0
378099.275,94.6367,-374.929,0,0
378359.6,95.0504,-374.205,0,0
378619.925,95.4829,-373.441,0,0
378880,95.9454,-372.709,0,0
379141,96.4325,-372.024,0,0
379401,96.9626,-371.376,0,0
379661,97.5229,-370.726,0,0
379922,98.0489,-370.163,0,0
380182,98.6013,-369.611,0,0
380442,99.1003,-369.05,0,0
380703,99.658,-368.53,0,0
380963,100.17,-368.017,0,0
381223,100.637,-367.492,0,0
381483,101.128,-366.976,0,0
381744,101.618,-366.46,0,0
382004,102.086,-365.862,0,0
382264,102.633,-365.275,0,0
382525,103.206,-364.711,0,0
382785,103.799,-364.139,0,0
383045,104.44,-363.659,0,0
383306,105.093,-363.124,0,0
383566,105.695,-362.699,0,0
383826,106.298,-362.259,0,0
384087,106.953,-361.853,0,0
384347,107.577,-361.434,0,0
384607,108.227,-361.031,0,0
384868,108.871,-360.657,0,0
385128,109.451,-360.338,0,0
385388,110.081,-360.007,0,0
385649,110.637,-359.696,0,0
385909,111.14,-359.341,0,0
386169,111.67,-358.943,0,0
386430,112.24,-358.571,0,0
386690,112.833,-358.155,0,0
386950,113.464,-357.78,0,0
387211,114,-357.419,0,0
387471,114.548,-357.054,0,0
387731,115.136,-356.617,0,0
387992,115.659,-356.213,0,0
388252,116.261,-355.722,0,0
388512,116.894,-355.193,0,0
388773,117.587,-354.644,0,0
389033,118.346,-354.09,0,0
389293,119.271,-353.592,0,0
389554,120.211,-353.125,0,0
389814,121.22,-352.781,0,0
390074,122.164,-352.547,0,0
390335,123.203,-352.317,0,0
390595,124.126,-352.162,0,0
390855,125.068,-352.054,0,0
391116,125.957,-351.989,0,0
391376,126.79,-351.905,0,0
391636,127.581,-351.835,0,0
391896,128.41,-351.762,0,0
392157,129.241,-351.646,0,0
392417,130.116,-351.566,0,0
392677,130.978,-351.481,0,0
392938,131.784,-351.388,0,0
393198,132.652,-351.309,0,0
393458,133.496,-351.267,0,0
393719,134.351,-351.178,0,0
393979,135.262,-351.093,0,0
394239,136.128,-350.971,0,0
394500,137.082,-350.857,0,0
394760.05,138.096,-350.791,0,0
395020.375,139.157,-350.651,0,0
395280.7,140.292,-350.578,0,0
395541.025,141.493,-350.519,0,0
395801.35,142.762,-350.533,0,0
396061.675,144.07,-350.599,0,0
396322.0,145.474,-350.753,0,0
396582.325,146.955,-351.009,0,0
396842.65,148.464,-351.37,0,0
397102.975,150.009,-351.874,0,0
397363.3,151.562,-352.472,0,0
397623.625,153.051,-353.278,0,0
397883.95,154.613,-354.155,0,0
398144.275,156.117,-355.237,0,0
398404.6,157.496,-356.411,0,0
398664.925,158.907,-357.747,0,0
398925.25,160.157,-359.178,0,0
399185.575,161.352,-360.771,0,0
399445.9,162.437,-362.485,0,0
399706.225,163.316,-364.334,0,0
399966.55,164.018,-366.266,0,0
400006.6,164.144,-366.598,0,0