File: Accelerated corrosion test data/2025-10-11_06-00-04/sample_4.csv
Frequency (Hz),Impedance (ohms),Phase (Radians),Temperature (C),Humidity (%)
10000.0,262.273,-11866.6,0,0
10260.325,258.676,-11568.4,0,0
10520.65,249.566,-11284.8,0,0
10780.975,243.363,-11014.9,0,0
11041.3,238.908,-10755.8,0,0
11301.625,233.244,-10513.1,0,0
11561.95,227.76,-10277,0,0
11822.275,222.783,-10052.4,0,0
12082.6,218.926,-9837.54,0,0
12342.925,214.109,-9630.81,0,0
12603.25,211.906,-9431.06,0,0
12863.575,207.533,-9244.81,0,0
13123.9,206.686,-9065.65,0,0
13384.225,198.819,-8887.92,0,0
13644.55,195.311,-8717.43,0,0
13904.875,191.988,-8552.17,0,0
14165.2,192.399,-8390.04,0,0
14425.525,197.123,-8244.45,0,0
14685.8,202.026,-8128.46,0,0
14946.175,180.476,-7971.91,0,0
15206.5,180.919,-7827.31,0,0
15466.825,185.847,-7685.68,0,0
15727.15,188.78,-7583.92,0,0
15987.5,187.959,-7468.78,0,0
16247.8,170.356,-7339.98,0,0
16508.125,183.136,-7212.69,0,0
16768.45,177.085,-7112.29,0,0
17028.775,172.1,-7024.94,0,0
17289.1,160.199,-6910.91,0,0
17549.425,158.251,-6806.62,0,0
17809.75,155.878,-6706.52,0,0
18070.075,151.916,-6606.96,0,0
18330.4,153.2,-6511.06,0,0
18590.725,152.662,-6422.16,0,0
18851.05,149.583,-6338.75,0,0
19111.375,144.632,-6249.42,0,0
19371.7,142.235,-6164.11,0,0
19632.025,141.138,-6080.02,0,0
19892.35,143.514,-5999.07,0,0
20152.675,143.154,-5922.28,0,0
20413.0,140.243,-5849.17,0,0
20673.3,140.007,-5774.43,0,0
20933.65,136.535,-5700.98,0,0
21193.975,139.56,-5626.12,0,0
21454.3,151.194,-5560.14,0,0
21714.625,144.92,-5504.5,0,0
21974.9,147.656,-5432.3,0,0
22235.275,148.389,-5387.07,0,0
22495.6,135.782,-5331.67,0,0
22755.925,128.264,-5266.3,0,0
23016.25,124.844,-5204.43,0,0
23276.6,122.056,-5144.22,0,0
23536.9,120.49,-5087.02,0,0
23797.225,118.435,-5030.05,0,0
24057.55,116.959,-4974.49,0,0
24317.875,115.751,-4919.92,0,0
24578.2,113.972,-4866.73,0,0
24838.525,113.396,-4813.9,0,0
25098.85,114.578,-4764.1,0,0
25359.175,112.666,-4716.08,0,0
25619.5,111.834,-4666.77,0,0
25879.8,110.074,-4622.61,0,0
26140.1,107.721,-4574.4,0,0
26400.5,107.102,-4527.38,0,0
26660.8,106.049,-4481.32,0,0
26921.1,106.571,-4437.46,0,0
27181.4,105.087,-4392.93,0,0
27441.8,105.48,-4348.42,0,0
27702.1,108.273,-4304.17,0,0
27962.4,114.458,-4262.03,0,0
28222.7,120.707,-4233.69,0,0
28483.1,113.025,-4200.1,0,0
28743.4,109.755,-4158.86,0,0
29003.7,112.5,-4117.21,0,0
29264,116,-4087.14,0,0
29524.4,111.647,-4054.88,0,0
29784.7,108.713,-4024.91,0,0
30045,106.044,-3986.45,0,0
30305.3,101.672,-3953.67,0,0
30565.7,98.9642,-3918.35,0,0
30826,97.989,-3883.45,0,0
31086.3,97.7784,-3849.53,0,0
31346.6,98.6199,-3816.09,0,0
31607,97.0269,-3785.92,0,0
31867.3,96.9063,-3753.59,0,0
32127.6,99.1754,-3723.47,0,0
32387.9,97.9225,-3696.87,0,0
32648.3,96.372,-3666.96,0,0
32908.6,94.6056,-3639.96,0,0
33168.9,92.3249,-3611.36,0,0
33429.2,89.6275,-3582.75,0,0
33689.6,88.0501,-3553.33,0,0
33949.9,86.9954,-3525.01,0,0
34210.2,87.1871,-3497.28,0,0
34470.5,85.9366,-3471.25,0,0
34730.9,84.6623,-3444.25,0,0
34991.2,84.2176,-3417.84,0,0
35251.5,83.7664,-3391.81,0,0
35511.8,82.8646,-3366.66,0,0
35772.2,82.4549,-3341.62,0,0
36032.5,81.4597,-3316.86,0,0
36292.8,80.8906,-3292.33,0,0
36553.1,80.3956,-3267.6,0,0
36813.5,80.104,-3243.86,0,0
37073.8,80.0498,-3220.85,0,0
37334.1,79.7325,-3198.1,0,0
37594.4,79.0305,-3175.08,0,0
37854.8,78.6589,-3152.83,0,0
38115.1,77.7305,-3131.13,0,0
38375.4,77.0735,-3108.59,0,0
38635.7,76.8382,-3086.51,0,0
38896.1,76.8389,-3064.81,0,0
39156.4,76.5999,-3044.24,0,0
39416.7,75.892,-3022.92,0,0
39677,75.9792,-3001.89,0,0
39937.4,76.8222,-2980.61,0,0
40197.7,78.3065,-2960.3,0,0
40458,79.6233,-2941.65,0,0
40718.3,79.4165,-2924.12,0,0
40978.7,78.8927,-2904.49,0,0
41239,79.7367,-2886.76,0,0
41499.3,81.7938,-2869.33,0,0
41759.6,78.606,-2853.53,0,0
42020,77.592,-2835,0,0
42280.275,76.4327,-2816.09,0,0
42540.6,78.5933,-2798.43,0,0
42800.925,78.0458,-2783.8,0,0
43061.25,75.294,-2766.05,0,0
43321.575,75.4799,-2748.88,0,0
43581.9,74.404,-2732.43,0,0
43842.225,73.3308,-2714.93,0,0
44102.55,73.7276,-2698.93,0,0
44362.875,72.0875,-2682.38,0,0
44623.2,72.0256,-2665.64,0,0
44883.525,71.9797,-2650.08,0,0
45143.85,71.1936,-2633.99,0,0
45404.175,70.1684,-2617.4,0,0
45664.5,71.0963,-2600.99,0,0
45924.825,72.4926,-2586.65,0,0
46185.15,71.1373,-2573.16,0,0
46445.475,69.9554,-2556.87,0,0
46705.8,71.1453,-2541.88,0,0
46966.125,71.1532,-2528.31,0,0
47226.45,71.0272,-2513.44,0,0
47486.775,71.4422,-2500.49,0,0
47747.1,69.8535,-2487.26,0,0
48007.425,69.1184,-2472.92,0,0
48267.75,68.5094,-2459.58,0,0
48528.075,67.5242,-2445.51,0,0
48788.4,66.9847,-2431.83,0,0
49048.725,65.9908,-2418.08,0,0
49309.05,65.9043,-2403.82,0,0
49569.375,65.407,-2390.98,0,0
49829.7,64.7889,-2377.21,0,0
50090.025,64.4743,-2363.95,0,0
50350.35,64.3585,-2350.58,0,0
50610.675,64.3224,-2337.74,0,0
50871.0,63.9474,-2324.73,0,0
51131.325,63.6498,-2311.7,0,0
51391.65,63.5206,-2298.94,0,0
51651.975,63.6108,-2285.9,0,0
51912.3,63.6222,-2273.51,0,0
52172.625,63.8033,-2260.8,0,0
52432.95,64.0197,-2248.64,0,0
52693.275,64.2185,-2235.68,0,0
52953.6,65.3005,-2223.18,0,0
53213.925,66.2634,-2211.42,0,0
53474.25,67.5188,-2199.32,0,0
53734.575,68.8556,-2187.81,0,0
53994.9,71.257,-2176.4,0,0
54255.225,73.4851,-2166.75,0,0
54515.55,75.695,-2158.03,0,0
54775.875,75.7356,-2150.75,0,0
55036.2,74.211,-2142.2,0,0
55296.525,73.4468,-2132.43,0,0
55556.85,71.9264,-2123.75,0,0
55817.175,69.8266,-2113.32,0,0
56077.5,68.4512,-2103.23,0,0
56337.825,67.0323,-2092.4,0,0
56598.15,65.7801,-2081.04,0,0
56858.475,65.5601,-2069.84,0,0
57118.8,65.4473,-2059,0,0
57379.125,65.9254,-2048.28,0,0
57639.45,66.1604,-2038.07,0,0
57899.775,66.2462,-2028.02,0,0
58160.1,66.3686,-2017.53,0,0
58420.4,67.4882,-2007.33,0,0
58680.7,68.1308,-1998.6,0,0
58941.1,67.3832,-1988.12,0,0
59201.4,68.5593,-1977.4,0,0
59461.7,70.6174,-1967.25,0,0
59722,73.0124,-1958.42,0,0
59982.4,75.3638,-1950.55,0,0
60242.7,76.7723,-1943.58,0,0
60503,77.3772,-1936.39,0,0
60763.3,79.4211,-1929.03,0,0
61023.7,80.4201,-1925.12,0,0
61284,78.2548,-1920.07,0,0
61544.3,74.6111,-1914.21,0,0
61804.6,70.9509,-1904.97,0,0
62065,69.7784,-1895.81,0,0
62325.3,68.5605,-1887.75,0,0
62585.6,66.0165,-1879.08,0,0
62845.9,64.9958,-1868.65,0,0
63106.3,64.6689,-1859.94,0,0
63366.6,64.1029,-1850.63,0,0
63626.9,64.1991,-1841.4,0,0
63887.2,64.5624,-1833.56,0,0
64147.6,63.3837,-1824.86,0,0
64407.9,63.813,-1815.49,0,0
64668.2,64.5011,-1807.35,0,0
64928.5,64.8293,-1799.31,0,0
65188.9,64.9131,-1791.38,0,0
65449.2,65.2259,-1783.38,0,0
65709.5,65.2386,-1775.22,0,0
65969.8,66.4139,-1766.72,0,0
66230.2,67.3361,-1759.55,0,0
66490.5,67.8491,-1752.34,0,0
66750.8,68.3933,-1745.19,0,0
67011.1,69.0784,-1737.76,0,0
67271.5,70.2761,-1730.58,0,0
67531.8,71.353,-1724.18,0,0
67792.1,72.2616,-1717.97,0,0
68052.4,72.9735,-1712.36,0,0
68312.8,73.3925,-1706.86,0,0
68573.1,73.5632,-1701.73,0,0
68833.4,72.9404,-1697.16,0,0
69093.7,71.1809,-1691.89,0,0
69354.1,69.2425,-1685.99,0,0
69614.4,67.1932,-1679.12,0,0
69874.7,66.1201,-1671.63,0,0
70135,65.2952,-1664.88,0,0
70395.4,64.0562,-1657.8,0,0
70655.7,63.735,-1649.66,0,0
70916,64.7703,-1643.08,0,0
71176.3,64.5336,-1637.39,0,0
71436.7,64.0684,-1631.35,0,0
71697,63.4767,-1625.55,0,0
71957.3,62.2359,-1619.76,0,0
72217.6,60.4857,-1613.34,0,0
72478,59.0432,-1606.09,0,0
72738.3,58.2228,-1598.85,0,0
72998.6,57.511,-1591.49,0,0
73258.9,57.1242,-1584.04,0,0
73519.3,57.2918,-1576.57,0,0
73779.6,57.6907,-1569.64,0,0
74039.9,58.1238,-1562.86,0,0
74300.225,58.3626,-1556.59,0,0
74560.55,58.5054,-1549.85,0,0
74820.875,59.0247,-1543.34,0,0
75081.2,59.6259,-1536.88,0,0
75341.525,60.4741,-1530.93,0,0
75601.85,60.8749,-1525.25,0,0
75862.175,61.1292,-1519.42,0,0
76122.5,61.5575,-1513.59,0,0
76382.825,62.1213,-1508.02,0,0
76643.15,62.2369,-1502.74,0,0
76903.475,62.0111,-1496.83,0,0
77163.8,62.816,-1490.49,0,0
77424.125,63.9838,-1485.18,0,0
77684.45,64.8318,-1480.42,0,0
77944.775,65.3696,-1476.03,0,0
78205.1,65.3184,-1471.69,0,0
78465.425,65.0351,-1467.15,0,0
78725.75,64.5068,-1462.69,0,0
78986.075,63.7525,-1457.94,0,0
79246.4,62.8119,-1452.89,0,0
79506.725,62.0337,-1447.59,0,0
79767.05,61.4346,-1442.02,0,0
80027.375,60.957,-1436.58,0,0
80287.7,60.6803,-1431.06,0,0
80548.025,60.4994,-1425.66,0,0
80808.35,60.3465,-1420.32,0,0
81068.675,60.3248,-1415.15,0,0
81329.0,60.278,-1410.02,0,0
81589.325,60.1191,-1405.07,0,0
81849.65,59.8515,-1400.1,0,0
82109.975,59.5797,-1395.09,0,0
82370.3,59.324,-1390.07,0,0
82630.625,59.0901,-1385.05,0,0
82890.95,58.8683,-1380.06,0,0
83151.275,58.6161,-1375.08,0,0
83411.6,58.354,-1370.14,0,0
83671.925,58.0936,-1365.09,0,0
83932.25,57.8566,-1360.17,0,0
84192.575,57.6772,-1355.18,0,0
84452.9,57.5014,-1350.3,0,0
84713.225,57.2846,-1345.39,0,0
84973.55,57.1925,-1340.42,0,0
85233.875,57.0839,-1335.68,0,0
85494.2,56.9291,-1330.87,0,0
85754.525,56.7536,-1326.13,0,0
86014.85,56.5072,-1321.38,0,0
86275.175,56.464,-1316.62,0,0
86535.5,56.4001,-1311.93,0,0
86795.825,56.166,-1307.34,0,0
87056.15,56.0438,-1302.76,0,0
87316.475,55.9059,-1298.14,0,0
87576.8,55.6979,-1293.65,0,0
87837.125,55.3381,-1289.27,0,0
88097.45,54.8666,-1284.83,0,0
88357.775,54.2274,-1280,0,0
88618.1,53.8249,-1275.08,0,0
88878.425,53.7013,-1270.18,0,0
89138.75,53.5619,-1265.36,0,0
89399.075,53.3974,-1260.56,0,0
89659.4,53.3179,-1255.88,0,0
89919.725,53.3892,-1251.23,0,0
90180,53.2968,-1246.63,0,0
90440.4,53.2524,-1242.08,0,0
90700.7,53.1596,-1237.44,0,0
90961,53.1718,-1232.96,0,0
91221.3,53.0434,-1228.31,0,0
91481.7,53.1737,-1223.58,0,0
91742,53.2532,-1219.01,0,0
92002.3,53.5351,-1214.36,0,0
92262.6,53.8693,-1209.85,0,0
92523,54.2244,-1205.66,0,0
92783.3,54.5439,-1201.51,0,0
93043.6,54.6742,-1197.51,0,0
93303.9,54.7889,-1193.6,0,0
93564.3,54.6444,-1189.6,0,0
93824.6,54.477,-1185.62,0,0
94084.9,54.2466,-1181.61,0,0
94345.2,53.8749,-1177.54,0,0
94605.6,53.4436,-1173.27,0,0
94865.9,53.0323,-1168.76,0,0
95126.2,52.8838,-1164.24,0,0
95386.5,52.8089,-1159.78,0,0
95646.9,52.735,-1155.22,0,0
95907.2,52.8297,-1150.76,0,0
96167.5,52.9775,-1146.35,0,0
96427.8,53.1646,-1141.94,0,0
96688.2,53.3465,-1137.61,0,0
96948.5,53.5225,-1133.33,0,0
97208.8,53.6915,-1129.06,0,0
97469.1,53.9264,-1124.81,0,0
97729.5,54.0623,-1120.56,0,0
97989.8,54.2354,-1116.19,0,0
98250.1,54.6217,-1111.83,0,0
98510.4,55.0514,-1107.6,0,0
98770.8,55.3461,-1103.34,0,0
99031.1,55.7957,-1099.05,0,0
99291.4,56.4387,-1094.85,0,0
99551.7,57.1153,-1090.87,0,0
99812.1,57.582,-1086.92,0,0
100072,58.059,-1082.76,0,0
100333,58.9283,-1078.55,0,0
100593,60.1646,-1074.72,0,0
100853,61.2363,-1071.51,0,0
101114,61.8006,-1068.38,0,0
101374,62.4996,-1065.13,0,0
101634,63.1191,-1062.46,0,0
101895,63.067,-1060.03,0,0
102155,62.2758,-1057.33,0,0
102415,61.1654,-1054.04,0,0
102676,60.0384,-1050.15,0,0
102936,59.163,-1045.82,0,0
103196,58.5377,-1041.23,0,0
103457,58.0971,-1036.38,0,0
103717,58.1088,-1031.39,0,0
103977,58.5035,-1026.46,0,0
104238,59.053,-1021.68,0,0
104498,59.8124,-1016.97,0,0
104758,60.8096,-1012.3,0,0
105019,61.89,-1007.76,0,0
105279,63.0862,-1003.54,0,0
105539,64.3265,-999.321,0,0
105800,65.6279,-995.256,0,0
106060,66.9488,-991.247,0,0
106320.175,68.3936,-987.415,0,0
106580.5,69.8157,-983.62,0,0
106840.825,71.2658,-980.036,0,0
107101.15,72.6178,-976.577,0,0
107361.475,73.9302,-973.08,0,0
107621.8,75.177,-969.554,0,0
107882.125,76.6311,-965.951,0,0
108142.45,78.1977,-962.477,0,0
108402.775,79.8546,-959.088,0,0
108663.1,81.6796,-955.86,0,0
108923.425,83.4763,-952.854,0,0
109183.75,85.2649,-950.062,0,0
109444.075,87.0594,-947.409,0,0
109704.4,88.7402,-944.993,0,0
109964.725,90.2102,-942.633,0,0
110225.05,91.648,-940.263,0,0
110485.375,93.0692,-938.005,0,0
110745.7,94.3326,-935.863,0,0
111006.025,95.5015,-933.689,0,0
111266.35,96.8265,-931.638,0,0
111526.675,97.7029,-929.526,0,0
111787.0,98.7764,-927.376,0,0
112047.325,99.9174,-925.283,0,0
112307.65,100.965,-923.347,0,0
112567.975,101.97,-921.447,0,0
112828.3,102.871,-919.615,0,0
113088.625,103.699,-917.764,0,0
113348.95,104.43,-916.174,0,0
113609.275,105.129,-914.412,0,0
113869.6,105.754,-912.676,0,0
114129.925,106.277,-910.971,0,0
114390.25,106.753,-909.289,0,0
114650.575,107.17,-907.586,0,0
114910.9,107.565,-905.887,0,0
115171.225,107.922,-904.325,0,0
115431.55,108.106,-902.778,0,0
115691.875,108.137,-901.23,0,0
115952.2,108.083,-899.493,0,0
116212.525,108.08,-897.801,0,0
116472.85,107.954,-896.179,0,0
116733.175,107.65,-894.43,0,0
116993.5,107.273,-892.592,0,0
117253.825,106.808,-890.647,0,0
117514.15,106.299,-888.504,0,0
117774.475,105.802,-886.172,0,0
118034.8,105.407,-883.644,0,0
118295.125,105.224,-880.958,0,0
118555.45,105.201,-878.376,0,0
118815.775,105.194,-875.645,0,0
119076.1,105.508,-872.646,0,0
119336.425,106.372,-869.661,0,0
119596.75,108.03,-867.219,0,0
119857.075,109.614,-865.787,0,0
120117.4,110.903,-864.908,0,0
120377.725,111.455,-864.622,0,0
120638.05,111.494,-864.467,0,0
120898.375,110.58,-864.285,0,0
121158.7,109.119,-863.483,0,0
121419.025,107.534,-862.068,0,0
121679.35,106.075,-860.229,0,0
121939.675,104.698,-858.174,0,0
122200.0,103.46,-855.885,0,0
122460,102.339,-853.46,0,0
122721,101.368,-850.873,0,0
122981,100.645,-848.339,0,0
123241,99.9438,-845.889,0,0
123502,99.2319,-843.398,0,0
123762,98.5914,-840.887,0,0
124022,97.9795,-838.37,0,0
124283,97.3923,-835.88,0,0
124543,96.821,-833.347,0,0
124803,96.273,-830.783,0,0
125064,95.8457,-828.209,0,0
125324,95.5287,-825.778,0,0
125584,95.1057,-823.404,0,0
125845,94.7017,-821.042,0,0
126105,94.3033,-818.774,0,0
126365,93.8196,-816.693,0,0
126626,93.1111,-814.615,0,0
126886,92.2279,-812.403,0,0
127146,91.3408,-809.958,0,0
127406,90.5579,-807.554,0,0
127667,89.8287,-805.128,0,0
127927,89.0082,-802.888,0,0
128187,87.9613,-800.665,0,0
128448,86.5855,-798.231,0,0
128708,85.3029,-795.524,0,0
128968,84.0475,-792.748,0,0
129229,82.738,-789.836,0,0
129489,81.4684,-786.736,0,0
129749,80.216,-783.542,0,0
130010,78.9862,-780.175,0,0
130270,77.9208,-776.621,0,0
130530,77.0462,-773.036,0,0
130791,76.2013,-769.479,0,0
131051,75.4038,-765.883,0,0
131311,74.7088,-762.151,0,0
131572,74.1176,-758.369,0,0
131832,73.7034,-754.634,0,0
132092,73.2468,-750.973,0,0
132353,72.8043,-747.223,0,0
132613,72.5253,-743.375,0,0
132873,72.3385,-739.57,0,0
133134,72.2036,-735.79,0,0
133394,72.1068,-732.028,0,0
133654,72.0136,-728.269,0,0
133915,72.0732,-724.481,0,0
134175,72.1706,-720.668,0,0
134435,72.307,-716.924,0,0
134696,72.4901,-713.155,0,0
134956,72.6991,-709.39,0,0
135216,73.0076,-705.658,0,0
135477,73.4119,-701.864,0,0
135737,73.8716,-698.202,0,0
135997,74.3595,-694.566,0,0
136258,74.8035,-690.984,0,0
136518,75.3593,-687.365,0,0
136778,75.9994,-683.819,0,0
137039,76.6129,-680.4,0,0
137299,77.1528,-677.078,0,0
137559,77.5931,-673.728,0,0
137819,77.992,-670.357,0,0
138080,78.3007,-666.884,0,0
138340.125,78.6287,-663.31,0,0
138600.45,79.023,-659.66,0,0
138860.775,79.4751,-656,0,0
139121.1,79.9584,-652.204,0,0
139381.425,80.531,-648.357,0,0
139641.75,81.256,-644.576,0,0
139902.075,81.9727,-640.801,0,0
140162.4,82.7629,-636.987,0,0
140422.725,83.6233,-633.177,0,0
140683.05,84.5275,-629.371,0,0
140943.375,85.5357,-625.579,0,0
141203.7,86.6263,-621.78,0,0
141464.025,87.7618,-618.052,0,0
141724.35,88.9112,-614.38,0,0
141984.675,90.0715,-610.747,0,0
142245.0,91.247,-607.081,0,0
142505.325,92.4604,-603.397,0,0
142765.65,93.7069,-599.778,0,0
143025.975,94.9159,-596.078,0,0
143286.3,96.2852,-592.382,0,0
143546.625,97.6677,-588.782,0,0
143806.95,99.0146,-585.148,0,0
144067.275,100.407,-581.475,0,0
144327.6,101.815,-577.785,0,0
144587.925,103.336,-574.083,0,0
144848.25,104.871,-570.382,0,0
145108.575,106.461,-566.648,0,0
145368.9,108.135,-562.903,0,0
145629.225,109.87,-559.183,0,0
145889.55,111.681,-555.451,0,0
146149.875,113.532,-551.74,0,0
146410.2,115.436,-547.984,0,0
146670.525,117.485,-544.25,0,0
146930.85,119.612,-540.625,0,0
147191.175,121.722,-537.014,0,0
147451.5,123.903,-533.403,0,0
147711.825,126.126,-529.813,0,0
147972.15,128.393,-526.253,0,0
148232.475,130.656,-522.62,0,0
148492.8,133.071,-518.935,0,0
148753.125,135.591,-515.293,0,0
149013.45,138.257,-511.678,0,0
149273.775,140.966,-508.13,0,0
149534.1,143.695,-504.607,0,0
149794.425,146.515,-500.977,0,0
150054.75,149.57,-497.381,0,0
150315.075,152.701,-493.903,0,0
150575.4,155.92,-490.468,0,0
150835.725,159.225,-487.042,0,0
151096.05,162.715,-483.532,0,0
151356.375,166.57,-480.114,0,0
151616.7,170.59,-477.038,0,0
151877.025,174.622,-474.205,0,0
152137.35,178.589,-471.344,0,0
152397.675,182.869,-468.454,0,0
152658.0,187.534,-465.958,0,0
152918.325,192.162,-463.944,0,0
153178.65,196.641,-462.147,0,0
153438.975,201.18,-460.502,0,0
153699.3,205.751,-459.216,0,0
153959.625,210.136,-458.285,0,0
154219.95,214.259,-457.546,0,0
154480,218.251,-456.954,0,0
154741,221.842,-456.668,0,0
155001,224.899,-456.187,0,0
155261,227.94,-455.167,0,0
155522,231.298,-454.032,0,0
155782,235.052,-453.116,0,0
156042,238.783,-452.623,0,0
156303,242.135,-452.289,0,0
156563,245.276,-452.126,0,0
156823,248.045,-451.956,0,0
157084,250.561,-451.292,0,0
157344,253.112,-450.342,0,0
157604,256.011,-449.425,0,0
157864,258.781,-448.276,0,0
158125,261.868,-446.877,0,0
158385,265.471,-445.676,0,0
158645,269.158,-444.787,0,0
158906,272.793,-443.805,0,0
159166,277.121,-442.884,0,0
159426,281.682,-442.706,0,0
159687,286.062,-443.055,0,0
159947,290.369,-443.777,0,0
160207,294.356,-444.96,0,0
160468,298.099,-446.596,0,0
160728,301.418,-448.5,0,0
160988,304.144,-450.778,0,0
161249,305.996,-452.93,0,0
161509,307.128,-454.592,0,0
161769,308.132,-455.598,0,0
162030,309.296,-456.34,0,0
162290,310.413,-456.925,0,0
162550,311.473,-457.299,0,0
162811,312.385,-457.559,0,0
163071,313.213,-457.344,0,0
163331,314.207,-456.895,0,0
163592,315.351,-456.196,0,0
163852,316.613,-455.122,0,0
164112,318.226,-454.03,0,0
164373,320.069,-452.696,0,0
164633,322.37,-451.359,0,0
164893,325.016,-450.204,0,0
165154,327.464,-449.268,0,0
165414,330.068,-448.102,0,0
165674,332.876,-446.882,0,0
165935,336.079,-445.395,0,0
166195,339.801,-443.976,0,0
166455,344.032,-442.834,0,0
166716,348.741,-441.922,0,0
166976,354.051,-441.403,0,0
167236,359.797,-441.664,0,0
167497,365.701,-442.644,0,0
167757,371.681,-444.313,0,0
168017,377.607,-446.904,0,0
168277,383.284,-450.415,0,0
168538,388.368,-454.595,0,0
168798,392.881,-458.993,0,0
169058,397.253,-463.787,0,0
169319,401.226,-469.351,0,0
169579,404.267,-475.423,0,0
169839,406.666,-481.29,0,0
170100,409.13,-487.451,0,0
170360.075,411.177,-494.582,0,0
170620.4,411.995,-502.49,0,0
170880.725,411.344,-510.583,0,0
171141.05,409.282,-518.39,0,0
171401.375,406.034,-525.43,0,0
171661.7,402.209,-531.648,0,0
171922.025,397.909,-537.431,0,0
172182.35,392.826,-542.664,0,0
172442.675,387.162,-547.06,0,0
172703.0,381.185,-550.688,0,0
172963.325,374.792,-553.683,0,0
173223.65,368.036,-555.669,0,0
173483.975,361.284,-556.756,0,0
173744.3,354.52,-556.999,0,0
174004.625,348.028,-556.269,0,0
174264.95,341.907,-555.015,0,0
174525.275,335.994,-553.185,0,0
174785.6,330.444,-550.659,0,0
175045.925,325.409,-547.884,0,0
175306.25,320.537,-544.805,0,0
175566.575,315.913,-541.158,0,0
175826.9,311.768,-536.972,0,0
176087.225,308.268,-532.515,0,0
176347.55,305.259,-527.954,0,0
176607.875,302.731,-523.222,0,0
176868.2,300.648,-518.492,0,0
177128.525,298.972,-513.726,0,0
177388.85,297.683,-508.992,0,0
177649.175,296.752,-504.295,0,0
177909.5,296.239,-499.728,0,0
178169.825,295.962,-495.437,0,0
178430.15,295.743,-491.337,0,0
178690.475,295.569,-487.221,0,0
178950.8,295.524,-483.077,0,0
179211.125,295.723,-478.916,0,0
179471.45,296.112,-474.827,0,0
179731.775,296.77,-470.826,0,0
179992.1,297.565,-467.063,0,0
180252.425,298.394,-463.483,0,0
180512.75,299.211,-460.019,0,0
180773.075,299.999,-456.595,0,0
181033.4,300.832,-453.183,0,0
181293.725,301.687,-449.831,0,0
181554.05,302.587,-446.539,0,0
181814.375,303.416,-443.323,0,0
182074.7,304.163,-440.108,0,0
182335.025,304.798,-436.84,0,0
182595.35,305.386,-433.417,0,0
182855.675,305.979,-429.862,0,0
183116.0,306.605,-426.164,0,0
183376.325,307.285,-422.29,0,0
183636.65,308.056,-418.272,0,0
183896.975,308.925,-414.112,0,0
184157.3,309.928,-409.794,0,0
184417.625,311.093,-405.359,0,0
184677.95,312.444,-400.827,0,0
184938.275,313.927,-396.206,0,0
185198.6,315.56,-391.51,0,0
185458.925,317.388,-386.663,0,0
185719.25,319.406,-381.75,0,0
185979.575,321.62,-376.789,0,0
186239.9,324.058,-371.773,0,0
186500,326.674,-366.605,0,0
186761,329.495,-361.5,0,0
187021,332.52,-356.374,0,0
187281,335.733,-351.135,0,0
187542,339.227,-345.863,0,0
187802,342.903,-340.621,0,0
188062,346.788,-335.267,0,0
188322,350.993,-329.832,0,0
188583,355.428,-324.383,0,0
188843,360.198,-318.95,0,0
189103,365.181,-313.518,0,0
189364,370.554,-308.053,0,0
189624,376.216,-302.657,0,0
189884,382.305,-297.204,0,0
190145,388.693,-291.91,0,0
190405,395.55,-286.633,0,0
190665,402.739,-281.616,0,0
190926,410.308,-276.79,0,0
191186,418.186,-272.16,0,0
191446,426.323,-267.686,0,0
191707,434.903,-263.375,0,0
191967,443.816,-259.42,0,0
192227,453.091,-255.668,0,0
192488,462.679,-252.362,0,0
192748,472.449,-249.363,0,0
193008,482.578,-246.727,0,0
193269,492.969,-244.462,0,0
193529,503.475,-242.573,0,0
193789,514.193,-240.987,0,0
194050,525.054,-239.897,0,0
194310,536.161,-239.182,0,0
194570,547.28,-238.754,0,0
194831,558.528,-238.73,0,0
195091,569.899,-239.004,0,0
195351,581.326,-239.621,0,0
195612,592.858,-240.461,0,0
195872,604.68,-241.532,0,0
196132,616.749,-242.93,0,0
196393,629.149,-244.726,0,0
196653,641.808,-246.991,0,0
196913,654.637,-249.692,0,0
197174,667.875,-252.82,0,0
197434,681.527,-256.593,0,0
197694,695.467,-261.211,0,0
197955,709.528,-266.632,0,0
198215,723.696,-272.883,0,0
198475,737.991,-279.949,0,0
198735,752.403,-288.011,0,0
198996,766.812,-297.201,0,0
199256,781.033,-307.632,0,0
199516,794.76,-319.287,0,0
199777,807.809,-332.07,0,0
200037,820.036,-345.802,0,0
200297,831.431,-360.418,0,0
200558,841.984,-375.831,0,0
200818,851.559,-392.057,0,0
201078,860.044,-409.046,0,0
201339,867.026,-426.42,0,0
201599,872.946,-443.997,0,0
201859,877.551,-461.841,0,0
202120,880.971,-479.446,0,0
202380.025,883.486,-496.797,0,0
202640.35,884.981,-514.083,0,0
202900.675,885.222,-530.965,0,0
203161.0,884.807,-547.014,0,0
203421.325,884.326,-562.649,0,0
203681.65,883.602,-578.575,0,0
203941.975,882.077,-594.625,0,0
204202.3,879.496,-610.504,0,0
204462.625,875.967,-625.813,0,0
204722.95,871.812,-640.457,0,0
204983.275,867.637,-654.671,0,0
205243.6,862.924,-668.891,0,0
205503.925,857.392,-682.613,0,0
205764.25,851.286,-695.355,0,0
206024.575,845.279,-707.601,0,0
206284.9,839.158,-719.463,0,0
206545.225,833.128,-731.071,0,0
206805.55,827.126,-742.746,0,0
207065.875,821.08,-754.672,0,0
207326.2,814.495,-767.17,0,0
207586.525,806.58,-779.98,0,0
207846.85,797.301,-792.408,0,0
208107.175,786.802,-803.899,0,0
208367.5,775.556,-814.327,0,0
208627.825,763.816,-823.57,0,0
208888.15,751.73,-831.731,0,0
209148.475,739.387,-838.753,0,0
209408.8,727.174,-844.472,0,0
209669.125,715.271,-849.281,0,0
209929.45,703.823,-853.347,0,0
210189.775,692.533,-856.772,0,0
210450.1,681.637,-859.782,0,0
210710.425,671.105,-861.992,0,0
210970.75,660.738,-863.698,0,0
211231.075,650.773,-864.817,0,0
211491.4,641.246,-865.534,0,0
211751.725,632.142,-865.809,0,0
212012.05,623.37,-865.612,0,0
212272.375,615.244,-865.034,0,0
212532.7,607.612,-864.135,0,0
212793.025,600.935,-863.216,0,0
213053.35,594.476,-862.565,0,0
213313.675,588.131,-861.854,0,0
213574.0,582.15,-860.784,0,0
213834.325,576.56,-859.598,0,0
214094.65,571.387,-858.247,0,0
214354.975,567.047,-856.767,0,0
214615.3,563.314,-855.56,0,0
214875.625,560.247,-854.805,0,0
215135.95,557.55,-854.731,0,0
215396.275,554.915,-855.297,0,0
215656.6,552.273,-856.421,0,0
215916.925,549.162,-857.999,0,0
216177.25,545.825,-859.914,0,0
216437.575,541.947,-862.027,0,0
216697.9,537.588,-864.045,0,0
216958.225,532.81,-865.66,0,0
217218.55,528.062,-866.793,0,0
217478.875,523.578,-867.696,0,0
217739.2,519.248,-868.628,0,0
217999.525,514.991,-869.617,0,0
218259.85,510.785,-870.517,0,0
218520,506.576,-871.546,0,0
218780,502.342,-872.511,0,0
219041,498.077,-873.402,0,0
219301,494.075,-874.368,0,0
219561,490.058,-875.394,0,0
219822,485.902,-876.61,0,0
220082,481.615,-877.911,0,0
220342,477.102,-879.183,0,0
220603,472.469,-880.298,0,0
220863,467.641,-881.309,0,0
221123,462.825,-882.097,0,0
221384,458.074,-882.694,0,0
221644,453.393,-883.339,0,0
221904,448.622,-883.91,0,0
222165,443.785,-884.454,0,0
222425,438.923,-884.704,0,0
222685,434.093,-884.738,0,0
222946,429.573,-884.811,0,0
223206,425.054,-884.983,0,0
223466,420.497,-885.129,0,0
223727,415.972,-885.179,0,0
223987,411.431,-885.254,0,0
224247,406.95,-885.207,0,0
224508,402.622,-885.483,0,0
224768,398.057,-885.75,0,0
225028,393.402,-886.105,0,0
225289,388.476,-886.494,0,0
225549,383.479,-886.679,0,0
225809,378.167,-886.845,0,0
226070,372.701,-886.748,0,0
226330,367.089,-886.519,0,0
226590,361.357,-885.933,0,0
226851,355.717,-885.111,0,0
227111,350.025,-884.082,0,0
227371,344.393,-882.763,0,0
227632,338.73,-881.378,0,0
227892,333.115,-879.777,0,0
228152,327.317,-877.897,0,0
228413,321.63,-875.673,0,0
228673,316.078,-873.124,0,0
228933,310.755,-870.288,0,0
229193,305.611,-867.157,0,0
229454,300.785,-863.895,0,0
229714,296.22,-860.531,0,0
229974,291.798,-856.982,0,0
230235,287.783,-853.462,0,0
230495,283.934,-849.928,0,0
230755,280.194,-846.297,0,0
231016,276.77,-842.58,0,0
231276,273.521,-838.94,0,0
231536,270.452,-835.308,0,0
231797,267.526,-831.7,0,0
232057,264.78,-828.17,0,0
232317,262.141,-824.639,0,0
232578,259.622,-821.199,0,0
232838,257.167,-817.683,0,0
233098,254.863,-814.206,0,0
233359,252.721,-810.688,0,0
233619,250.761,-807.27,0,0
233879,248.908,-803.873,0,0
234140,247.207,-800.619,0,0
234400,245.457,-797.395,0,0
234660.3,243.842,-794.148,0,0
234920.625,242.24,-790.928,0,0
235180.95,240.963,-787.782,0,0
235441.275,239.719,-784.715,0,0
235701.6,238.645,-781.843,0,0
235961.925,237.459,-779.077,0,0
236222.25,236.185,-776.419,0,0
236482.575,234.899,-773.642,0,0
236742.9,233.649,-770.832,0,0
237003.225,232.461,-768.018,0,0
237263.55,231.363,-765.117,0,0
237523.875,230.392,-762.186,0,0
237784.2,229.578,-759.243,0,0
238044.525,228.971,-756.36,0,0
238304.85,228.544,-753.544,0,0
238565.175,228.254,-750.96,0,0
238825.5,228.122,-748.484,0,0
239085.825,227.838,-746.175,0,0
239346.15,227.611,-744.071,0,0
239606.475,227.51,-742.047,0,0
239866.8,227.344,-740.03,0,0
240127.125,227.113,-738.301,0,0
240387.45,226.872,-736.556,0,0
240647.775,226.602,-734.942,0,0
240908.1,226.315,-733.437,0,0
241168.425,225.991,-731.933,0,0
241428.75,225.612,-730.567,0,0
241689.075,225.263,-729.117,0,0
241949.4,224.698,-727.881,0,0
242209.725,224.232,-726.724,0,0
242470.05,223.613,-725.586,0,0
242730.375,222.918,-724.421,0,0
242990.7,222.112,-723.314,0,0
243251.025,221.199,-722.162,0,0
243511.35,220.315,-720.978,0,0
243771.675,219.366,-719.87,0,0
244032.0,218.254,-718.659,0,0
244292.325,217.04,-717.526,0,0
244552.65,215.709,-716.274,0,0
244812.975,214.347,-714.87,0,0
245073.3,213.066,-713.264,0,0
245333.625,211.702,-711.562,0,0
245593.95,210.329,-709.82,0,0
245854.275,209.154,-707.954,0,0
246114.6,207.981,-705.963,0,0
246374.925,206.925,-703.989,0,0
246635.25,205.867,-701.986,0,0
246895.575,204.9,-699.913,0,0
247155.9,204.028,-697.689,0,0
247416.225,203.401,-695.458,0,0
247676.55,202.953,-693.347,0,0
247936.875,202.618,-691.391,0,0
248197.2,202.261,-689.564,0,0
248457.525,201.852,-687.894,0,0
248717.85,201.365,-686.268,0,0
248978.175,200.852,-684.582,0,0
249238.5,200.296,-682.934,0,0
249498.825,199.795,-681.314,0,0
249759.15,199.25,-679.716,0,0
250019.475,198.686,-678.057,0,0
250279.8,198.172,-676.438,0,0
250540,197.631,-674.834,0,0
250800,197.065,-673.263,0,0
251061,196.446,-671.763,0,0
251321,195.768,-670.242,0,0
251581,195.067,-668.694,0,0
251842,194.272,-667.207,0,0
252102,193.357,-665.7,0,0
252362,192.316,-664.12,0,0
252623,191.16,-662.485,0,0
252883,189.896,-660.586,0,0
253143,188.592,-658.506,0,0
253404,187.299,-656.191,0,0
253664,186.062,-653.648,0,0
253924,185.027,-650.909,0,0
254185,184.144,-648.117,0,0
254445,183.413,-645.212,0,0
254705,182.801,-642.24,0,0
254966,182.261,-639.244,0,0
255226,181.846,-636.164,0,0
255486,181.433,-633.068,0,0
255747,181.072,-629.731,0,0
256007,180.897,-626.196,0,0
256267,181.019,-622.465,0,0
256528,181.463,-618.748,0,0
256788,182.187,-615.069,0,0
257048,183.038,-611.475,0,0
257309,184.071,-607.836,0,0
257569,185.308,-604.154,0,0
257829,186.841,-600.441,0,0
258090,188.644,-596.864,0,0
258350,190.711,-593.394,0,0
258610,192.903,-590.106,0,0
258871,195.276,-586.841,0,0
259131,197.911,-583.63,0,0
259391,200.859,-580.572,0,0
259651,204.033,-577.707,0,0
259912,207.445,-575.131,0,0
260172,210.971,-572.775,0,0
260432,214.626,-570.659,0,0
260693,218.485,-568.734,0,0
260953,222.531,-567.1,0,0
261213,226.703,-565.802,0,0
261474,230.899,-564.898,0,0
261734,235.039,-564.356,0,0
261994,239.108,-564.082,0,0
262255,243.05,-563.966,0,0
262515,246.97,-563.965,0,0
262775,250.981,-564.133,0,0
263036,255.085,-564.501,0,0
263296,259.242,-565.172,0,0
263556,263.477,-566.121,0,0
263817,267.659,-567.54,0,0
264077,271.733,-569.253,0,0
264337,275.722,-571.279,0,0
264598,279.619,-573.673,0,0
264858,283.195,-576.871,0,0
265118,286.182,-579.974,0,0
265379,289.029,-583.104,0,0
265639,291.729,-586.362,0,0
265899,294.3,-589.822,0,0
266160,296.669,-593.555,0,0
266420,298.678,-597.602,0,0
266680.25,300.373,-601.824,0,0
266940.575,301.486,-606.173,0,0
267200.9,302.313,-610.417,0,0
267461.225,302.867,-614.735,0,0
267721.55,303.071,-619.087,0,0
267981.875,302.868,-623.37,0,0
268242.2,302.41,-627.461,0,0
268502.525,301.85,-631.567,0,0
268762.85,301.006,-635.765,0,0
269023.175,299.755,-639.982,0,0
269283.5,298.015,-644.217,0,0
269543.825,295.635,-648.273,0,0
269804.15,292.785,-651.761,0,0
270064.475,289.618,-654.647,0,0
270324.8,286.566,-656.937,0,0
270585.125,283.479,-658.769,0,0
270845.45,280.738,-660.31,0,0
271105.775,278.242,-661.456,0,0
271366.1,276.085,-662.504,0,0
271626.425,274.159,-663.622,0,0
271886.75,272.357,-665,0,0
272147.075,270.633,-666.387,0,0
272407.4,268.849,-667.974,0,0
272667.725,266.923,-669.599,0,0
272928.05,264.914,-671.234,0,0
273188.375,262.798,-672.859,0,0
273448.7,260.601,-674.532,0,0
273709.025,258.331,-676.276,0,0
273969.35,255.876,-678.092,0,0
274229.675,253.075,-679.838,0,0
274490.0,250.1,-681.539,0,0
274750.325,246.887,-683.119,0,0
275010.65,243.398,-684.542,0,0
275270.975,239.622,-685.845,0,0
275531.3,235.596,-686.79,0,0
275791.625,231.425,-687.369,0,0
276051.95,227.121,-687.548,0,0
276312.275,222.817,-687.384,0,0
276572.6,218.59,-686.841,0,0
276832.925,214.353,-685.95,0,0
277093.25,210.126,-684.734,0,0
277353.575,206.051,-683.065,0,0
277613.9,202.182,-681.008,0,0
277874.225,198.634,-678.67,0,0
278134.55,195.383,-676.116,0,0
278394.875,192.411,-673.342,0,0
278655.2,189.74,-670.309,0,0
278915.525,187.477,-667.078,0,0
279175.85,185.719,-663.735,0,0
279436.175,184.476,-660.459,0,0
279696.5,183.675,-657.366,0,0
279956.825,183.277,-654.547,0,0
280217.15,183.091,-652.045,0,0
280477.475,183.032,-649.967,0,0
280737.8,182.948,-648.194,0,0
280998.125,182.746,-646.503,0,0
281258.45,182.537,-644.985,0,0
281518.775,182.339,-643.589,0,0
281779.1,182.055,-642.334,0,0
282039.425,181.599,-641.138,0,0
282299.75,181.05,-639.806,0,0
282560,180.514,-638.278,0,0
282820,180.226,-636.611,0,0
283081,180.211,-635.054,0,0
283341,180.432,-633.68,0,0
283601,180.728,-632.593,0,0
283862,181.04,-631.752,0,0
284122,181.257,-631.179,0,0
284382,181.293,-630.777,0,0
284643,181.152,-630.455,0,0
284903,180.846,-630.168,0,0
285163,180.412,-629.916,0,0
285424,179.808,-629.656,0,0
285684,179.08,-629.385,0,0
285944,178.245,-629.112,0,0
286205,177.223,-628.828,0,0
286465,175.943,-628.429,0,0
286725,174.445,-627.756,0,0
286986,172.855,-626.753,0,0
287246,171.339,-625.395,0,0
287506,169.996,-623.89,0,0
287767,168.724,-622.22,0,0
288027,167.527,-620.341,0,0
288287,166.457,-618.291,0,0
288548,165.536,-615.943,0,0
288808,164.896,-613.36,0,0
289068,164.603,-610.589,0,0
289329,164.78,-607.693,0,0
289589,165.414,-604.845,0,0
289849,166.452,-602.14,0,0
290109,167.898,-599.642,0,0
290370,169.635,-597.448,0,0
290630,171.67,-595.549,0,0
290890,173.919,-593.96,0,0
291151,176.347,-592.762,0,0
291411,178.881,-591.963,0,0
291671,181.454,-591.559,0,0
291932,184.027,-591.568,0,0
292192,186.494,-591.938,0,0
292452,188.9,-592.661,0,0
292713,191.177,-593.723,0,0
292973,193.294,-595.171,0,0
293233,195.158,-596.97,0,0
293494,196.678,-599.047,0,0
293754,197.853,-601.312,0,0
294014,198.67,-603.766,0,0
294275,199.16,-606.28,0,0
294535,199.3,-608.875,0,0
294795,199.072,-611.549,0,0
295056,198.435,-614.192,0,0
295316,197.43,-616.721,0,0
295576,196.051,-619.092,0,0
295837,194.414,-621.256,0,0
296097,192.508,-623.215,0,0
296357,190.376,-624.887,0,0
296618,188.09,-626.305,0,0
296878,185.657,-627.371,0,0
297138,183.217,-628.111,0,0
297399,180.865,-628.573,0,0
297659,178.577,-628.857,0,0
297919,176.372,-628.958,0,0
298180,174.267,-628.937,0,0
298440,172.258,-628.789,0,0
298700.2,170.342,-628.566,0,0
298960.525,168.517,-628.3,0,0
299220.85,166.721,-628.02,0,0
299481.175,164.976,-627.665,0,0
299741.5,163.287,-627.303,0,0
300001.825,161.619,-626.888,0,0
300262.15,159.965,-626.484,0,0
300522.475,158.311,-626.028,0,0
300782.8,156.68,-625.543,0,0
301043.125,155.037,-625.012,0,0
301303.45,153.383,-624.425,0,0
301563.775,151.732,-623.769,0,0
301824.1,150.075,-623.022,0,0
302084.425,148.514,-622.151,0,0
302344.75,147.018,-621.214,0,0
302605.075,145.649,-620.275,0,0
302865.4,144.355,-619.343,0,0
303125.725,143.088,-618.447,0,0
303386.05,141.81,-617.585,0,0
303646.375,140.5,-616.675,0,0
303906.7,139.21,-615.715,0,0
304167.025,137.951,-614.709,0,0
304427.35,136.711,-613.684,0,0
304687.675,135.497,-612.582,0,0
304948.0,134.352,-611.424,0,0
305208.325,133.26,-610.232,0,0
305468.65,132.26,-609.016,0,0
305728.975,131.306,-607.798,0,0
305989.3,130.41,-606.582,0,0
306249.625,129.55,-605.344,0,0
306509.95,128.784,-604.065,0,0
306770.275,128.087,-602.783,0,0
307030.6,127.51,-601.526,0,0
307290.925,126.987,-600.313,0,0
307551.25,126.567,-599.149,0,0
307811.575,126.187,-598.071,0,0
308071.9,125.846,-597.057,0,0
308332.225,125.507,-596.108,0,0
308592.55,125.207,-595.221,0,0
308852.875,124.928,-594.455,0,0
309113.2,124.615,-593.756,0,0
309373.525,124.213,-593.122,0,0
309633.85,123.782,-592.505,0,0
309894.175,123.276,-591.931,0,0
310154.5,122.776,-591.359,0,0
310414.825,122.175,-590.776,0,0
310675.15,121.517,-590.226,0,0
310935.475,120.803,-589.607,0,0
311195.8,120.052,-588.924,0,0
311456.125,119.294,-588.156,0,0
311716.45,118.536,-587.388,0,0
311976.775,117.876,-586.508,0,0
312237.1,117.231,-585.656,0,0
312497.425,116.584,-584.79,0,0
312757.75,115.956,-583.919,0,0
313018.075,115.337,-583.034,0,0
313278.4,114.748,-582.093,0,0
313538.725,114.18,-581.122,0,0
313799.05,113.687,-580.139,0,0
314059.375,113.279,-579.132,0,0
314319.7,112.911,-578.177,0,0
314580,112.582,-577.251,0,0
314840,112.364,-576.401,0,0
315101,112.076,-575.617,0,0
315361,111.835,-574.755,0,0
315621,111.644,-574.039,0,0
315882,111.383,-573.332,0,0
316142,111.137,-572.692,0,0
316402,110.955,-571.949,0,0
316663,110.712,-571.409,0,0
316923,110.569,-570.855,0,0
317183,110.388,-570.318,0,0
317444,110.116,-569.861,0,0
317704,109.901,-569.484,0,0
317964,109.643,-569.054,0,0
318225,109.285,-568.739,0,0
318485,108.892,-568.416,0,0
318745,108.554,-568.074,0,0
319006,108.166,-567.865,0,0
319266,107.77,-567.719,0,0
319526,107.381,-567.502,0,0
319787,106.713,-567.329,0,0
320047,106.072,-567.237,0,0
320307,105.291,-567.064,0,0
320567,104.555,-566.935,0,0
320828,103.597,-566.826,0,0
321088,102.695,-566.662,0,0
321348,101.599,-566.467,0,0
321609,100.425,-566.155,0,0
321869,99.2524,-565.83,0,0
322129,97.9605,-565.391,0,0
322390,96.4868,-564.881,0,0
322650,94.9577,-564.255,0,0
322910,93.5369,-563.435,0,0
323171,92.104,-562.321,0,0
323431,90.7469,-561.224,0,0
323691,89.3947,-559.935,0,0
323952,88.2209,-558.576,0,0
324212,87.1363,-557.092,0,0
324472,86.2257,-555.607,0,0
324733,85.399,-554.125,0,0
324993,84.6964,-552.633,0,0
325253,84.0432,-551.217,0,0
325514,83.494,-549.882,0,0
325774,83.0127,-548.538,0,0
326034,82.4565,-547.255,0,0
326295,81.9733,-545.95,0,0
326555,81.4501,-544.577,0,0
326815,80.8948,-543.419,0,0
327076,80.4457,-542.096,0,0
327336,79.8817,-540.796,0,0
327596,79.4579,-539.47,0,0
327857,78.9651,-538.138,0,0
328117,78.5446,-536.682,0,0
328377,78.2282,-535.299,0,0
328638,77.8596,-533.826,0,0
328898,77.5711,-532.337,0,0
329158,77.3863,-530.885,0,0
329419,77.299,-529.386,0,0
329679,77.2432,-527.956,0,0
329939,77.3044,-526.571,0,0
330200,77.445,-525.206,0,0
330460,77.6026,-523.887,0,0
330720.15,77.8997,-522.661,0,0
330980.475,78.1499,-521.429,0,0
331240.8,78.4199,-520.397,0,0
331501.125,78.7162,-519.44,0,0
331761.45,79.0579,-518.487,0,0
332021.775,79.3622,-517.601,0,0
332282.1,79.5765,-516.87,0,0
332542.425,79.8411,-516.075,0,0
332802.75,79.9752,-515.419,0,0
333063.075,80.0558,-514.776,0,0
333323.4,80.1946,-514.19,0,0
333583.725,80.194,-513.606,0,0
333844.05,80.1621,-513.136,0,0
334104.375,80.0587,-512.537,0,0
334364.7,79.9419,-511.993,0,0
334625.025,79.7033,-511.419,0,0
334885.35,79.4525,-510.805,0,0
335145.675,79.208,-510.102,0,0
335406.0,78.8962,-509.424,0,0
335666.325,78.553,-508.753,0,0
335926.65,78.173,-508.01,0,0
336186.975,77.8133,-507.29,0,0
336447.3,77.3313,-506.356,0,0
336707.625,76.8614,-505.437,0,0
336967.95,76.4744,-504.36,0,0
337228.275,76.0352,-503.308,0,0
337488.6,75.6901,-502.17,0,0
337748.925,75.4302,-500.945,0,0
338009.25,75.2823,-499.732,0,0
338269.575,75.1365,-498.523,0,0
338529.9,75.0675,-497.274,0,0
338790.225,75.011,-495.978,0,0
339050.55,74.9921,-494.769,0,0
339310.875,75.0023,-493.477,0,0
339571.2,75.1397,-492.225,0,0
339831.525,75.323,-490.938,0,0
340091.85,75.5902,-489.668,0,0
340352.175,75.9409,-488.398,0,0
340612.5,76.3151,-487.143,0,0
340872.825,76.6972,-485.884,0,0
341133.15,77.177,-484.691,0,0
341393.475,77.801,-483.542,0,0
341653.8,78.5168,-482.416,0,0
341914.125,79.2697,-481.405,0,0
342174.45,80.082,-480.446,0,0
342434.775,80.9489,-479.582,0,0
342695.1,81.849,-478.834,0,0
342955.425,82.7588,-478.285,0,0
343215.75,83.6439,-477.868,0,0
343476.075,84.5928,-477.453,0,0
343736.4,85.4098,-477.223,0,0
343996.725,86.1104,-477.108,0,0
344257.05,86.7771,-477.065,0,0
344517.375,87.3644,-476.975,0,0
344777.7,87.9071,-477.049,0,0
345038.025,88.3024,-477.091,0,0
345298.35,88.6791,-477.228,0,0
345558.675,88.9795,-477.265,0,0
345819.0,89.1344,-477.424,0,0
346079.325,89.2703,-477.542,0,0
346339.65,89.3343,-477.682,0,0
346599.975,89.3468,-477.696,0,0
346860,89.2421,-477.851,0,0
347121,89.1384,-477.871,0,0
347381,88.948,-477.872,0,0
347641,88.6705,-477.777,0,0
347902,88.4357,-477.762,0,0
348162,88.2236,-477.665,0,0
348422,87.8547,-477.511,0,0
348683,87.5166,-477.389,0,0
348943,87.1517,-477.183,0,0
349203,86.7379,-476.962,0,0
349464,86.3601,-476.701,0,0
349724,85.9452,-476.366,0,0
349984,85.512,-475.966,0,0
350245,85.0613,-475.596,0,0
350505,84.6315,-475.132,0,0
350765,84.2278,-474.597,0,0
351025,83.8552,-474.073,0,0
351286,83.4983,-473.543,0,0
351546,83.092,-472.988,0,0
351806,82.7004,-472.377,0,0
352067,82.3612,-471.761,0,0
352327,82.0185,-471.1,0,0
352587,81.6672,-470.378,0,0
352848,81.3669,-469.655,0,0
353108,81.2049,-468.858,0,0
353368,81.0047,-468.058,0,0
353629,80.8391,-467.291,0,0
353889,80.7451,-466.476,0,0
354149,80.7818,-465.681,0,0
354410,80.833,-464.932,0,0
354670,80.9028,-464.258,0,0
354930,81.0253,-463.616,0,0
355191,81.0992,-463.058,0,0
355451,81.2019,-462.551,0,0
355711,81.2843,-462.083,0,0
355972,81.3065,-461.642,0,0
356232,81.2999,-461.25,0,0
356492,81.2886,-460.765,0,0
356753,81.1757,-460.391,0,0
357013,81.0549,-459.994,0,0
357273,80.9208,-459.561,0,0
357534,80.7723,-459.183,0,0
357794,80.5067,-458.727,0,0
358054,80.2691,-458.277,0,0
358315,79.9507,-457.784,0,0
358575,79.6265,-457.244,0,0
358835,79.269,-456.666,0,0
359096,79.0043,-455.962,0,0
359356,78.6603,-455.271,0,0
359616,78.4381,-454.448,0,0
359877,78.2098,-453.636,0,0
360137,78.0323,-452.832,0,0
360397,77.8579,-451.956,0,0
360658,77.7925,-451.108,0,0
360918,77.8034,-450.268,0,0
361178,77.7716,-449.409,0,0
361438,77.7834,-448.515,0,0
361699,77.7741,-447.682,0,0
361959,77.9251,-446.844,0,0
362219,78.0558,-446.079,0,0
362480,78.26,-445.24,0,0
362740.1,78.4898,-444.483,0,0
363000.425,78.6477,-443.844,0,0
363260.75,78.9069,-443.17,0,0
363521.075,79.1208,-442.554,0,0
363781.4,79.276,-441.977,0,0
364041.725,79.4144,-441.365,0,0
364302.05,79.5668,-440.785,0,0
364562.375,79.6254,-440.245,0,0
364822.7,79.6824,-439.665,0,0
365083.025,79.7498,-439.051,0,0
365343.35,79.7199,-438.404,0,0
365603.675,79.7157,-437.758,0,0
365864.0,79.733,-437.011,0,0
366124.325,79.7657,-436.27,0,0
366384.65,79.7236,-435.463,0,0
366644.975,79.8172,-434.558,0,0
366905.3,79.9535,-433.641,0,0
367165.625,80.1831,-432.708,0,0
367425.95,80.394,-431.749,0,0
367686.275,80.7576,-430.795,0,0
367946.6,81.1366,-429.832,0,0
368206.925,81.5933,-428.879,0,0
368467.25,82.0991,-427.926,0,0
368727.575,82.6735,-427.065,0,0
368987.9,83.3478,-426.158,0,0
369248.225,84.0614,-425.324,0,0
369508.55,84.8896,-424.482,0,0
369768.875,85.7838,-423.797,0,0
370029.2,86.6887,-423.11,0,0
370289.525,87.6393,-422.551,0,0
370549.85,88.6101,-422.099,0,0
370810.175,89.6028,-421.687,0,0
371070.5,90.6625,-421.341,0,0
371330.825,91.7497,-421.096,0,0
371591.15,92.8029,-420.987,0,0
371851.475,93.8497,-420.983,0,0
372111.8,94.9019,-421.042,0,0
372372.125,95.9132,-421.246,0,0
372632.45,96.9254,-421.586,0,0
372892.775,97.7727,-422.02,0,0
373153.1,98.5746,-422.488,0,0
373413.425,99.322,-423.083,0,0
373673.75,99.939,-423.751,0,0
373934.075,100.362,-424.451,0,0
374194.4,100.683,-425.128,0,0
374454.725,100.909,-425.891,0,0
374715.05,100.967,-426.523,0,0
374975.375,100.996,-427.189,0,0
375235.7,100.851,-427.752,0,0
375496.025,100.683,-428.247,0,0
375756.35,100.542,-428.682,0,0
376016.675,100.325,-429.017,0,0
376277.0,100.081,-429.366,0,0
376537.325,99.7966,-429.552,0,0
376797.65,99.5543,-429.791,0,0
377057.975,99.3575,-429.933,0,0
377318.3,99.1479,-430.05,0,0
377578.625,98.9889,-430.181,0,0
377838.95,98.8146,-430.279,0,0
378099.275,98.6673,-430.433,0,0
378359.6,98.4972,-430.578,0,0
378619.925,98.2983,-430.765,0,0
378880,98.066,-430.969,0,0
379141,97.7925,-431.163,0,0
379401,97.4866,-431.238,0,0
379661,97.1363,-431.399,0,0
379922,96.7166,-431.441,0,0
380182,96.3224,-431.394,0,0
380442,96.0335,-431.361,0,0
380703,95.7074,-431.277,0,0
380963,95.4112,-431.253,0,0
381223,95.088,-431.151,0,0
381483,94.7885,-431.003,0,0
381744,94.4996,-430.843,0,0
382004,94.3003,-430.637,0,0
382264,94.1591,-430.339,0,0
382525,94.1447,-430.144,0,0
382785,94.2077,-429.958,0,0
383045,94.3799,-429.972,0,0
383306,94.4867,-430.106,0,0
383566,94.6525,-430.386,0,0
383826,94.7601,-430.817,0,0
384087,94.6594,-431.389,0,0
384347,94.4642,-431.986,0,0
384607,94.0177,-432.605,0,0
384868,93.4775,-433.236,0,0
385128,92.7696,-433.792,0,0
385388,91.9559,-434.246,0,0
385649,91.0175,-434.687,0,0
385909,90.0136,-435.018,0,0
386169,88.8354,-435.149,0,0
386430,87.6042,-435.209,0,0
386690,86.339,-435.092,0,0
386950,85.11,-434.809,0,0
387211,83.9606,-434.355,0,0
387471,82.8235,-433.808,0,0
387731,81.7259,-433.139,0,0
387992,80.7755,-432.311,0,0
388252,79.915,-431.428,0,0
388512,79.1855,-430.457,0,0
388773,78.5941,-429.506,0,0
389033,78.0792,-428.492,0,0
389293,77.7088,-427.514,0,0
389554,77.572,-426.532,0,0
389814,77.4634,-425.612,0,0
390074,77.5515,-424.784,0,0
390335,77.6973,-424.049,0,0
390595,77.8603,-423.548,0,0
390855,78.0734,-423.141,0,0
391116,78.2335,-422.833,0,0
391376,78.3697,-422.688,0,0
391636,78.4864,-422.635,0,0
391896,78.4956,-422.684,0,0
392157,78.3822,-422.883,0,0
392417,78.0514,-423.109,0,0
392677,77.6326,-423.371,0,0
392938,77.0326,-423.495,0,0
393198,76.2805,-423.655,0,0
393458,75.4423,-423.673,0,0
393719,74.5564,-423.608,0,0
393979,73.5643,-423.357,0,0
394239,72.6181,-423.078,0,0
394500,71.652,-422.615,0,0
394760.05,70.6869,-422.107,0,0
395020.375,69.7473,-421.455,0,0
395280.7,68.8558,-420.807,0,0
395541.025,67.9927,-420.009,0,0
395801.35,67.2248,-419.157,0,0
396061.675,66.4837,-418.317,0,0
396322.0,65.7892,-417.41,0,0
396582.325,65.1995,-416.469,0,0
396842.65,64.6639,-415.483,0,0
397102.975,64.1273,-414.548,0,0
397363.3,63.662,-413.588,0,0
397623.625,63.2509,-412.648,0,0
397883.95,62.8151,-411.713,0,0
398144.275,62.4647,-410.728,0,0
398404.6,62.0636,-409.792,0,0
398664.925,61.7851,-408.858,0,0
398925.25,61.4483,-407.9,0,0
399185.575,61.1282,-406.889,0,0
399445.9,60.8739,-405.934,0,0
399706.225,60.6485,-404.94,0,0
399966.55,60.4271,-403.964,0,0
400006.6,60.4387,-403.764,0,0