File: Accelerated corrosion test data/2025-10-11_06-00-04/sample_1.csv
Frequency (Hz),Impedance (ohms),Phase (Radians),Temperature (C),Humidity (%)
10000.0,238.847,-12188,0,0
10260.325,237.371,-11875.1,0,0
10520.65,228.766,-11595.5,0,0
10780.975,224.097,-11311.6,0,0
11041.3,218.108,-11051.6,0,0
11301.625,213.066,-10795.8,0,0
11561.95,209.548,-10552.3,0,0
11822.275,206.12,-10313.6,0,0
12082.6,223.496,-10084,0,0
12342.925,210.459,-9908.71,0,0
12603.25,194.25,-9697.15,0,0
12863.575,189.509,-9495.6,0,0
13123.9,198.355,-9302.57,0,0
13384.225,184.238,-9133.31,0,0
13644.55,180.048,-8952.34,0,0
13904.875,180.454,-8775.1,0,0
14165.2,192.255,-8639.82,0,0
14425.525,208.499,-8466.73,0,0
14685.8,200.021,-8306.64,0,0
14946.175,177.866,-8208.4,0,0
15206.5,182.027,-8042.55,0,0
15466.825,173.311,-7928.47,0,0
15727.15,172.454,-7795.59,0,0
15987.5,159.566,-7668.12,0,0
16247.8,156.224,-7541.75,0,0
16508.125,154.596,-7418.64,0,0
16768.45,158.31,-7301.55,0,0
17028.775,162.139,-7194.07,0,0
17289.1,153.28,-7091.16,0,0
17549.425,152.783,-6987.77,0,0
17809.75,145.83,-6884.74,0,0
18070.075,145.992,-6784.13,0,0
18330.4,140.956,-6689.14,0,0
18590.725,137.268,-6594.5,0,0
18851.05,137.585,-6496.48,0,0
19111.375,135.129,-6415.85,0,0
19371.7,132.369,-6323.75,0,0
19632.025,131.285,-6235.31,0,0
19892.35,135.498,-6149.28,0,0
20152.675,134.725,-6062.66,0,0
20413.0,154.21,-5973.93,0,0
20673.3,166.919,-5932.66,0,0
20933.65,149.912,-5863.25,0,0
21193.975,159.702,-5800.62,0,0
21454.3,141.373,-5727.29,0,0
21714.625,136.947,-5657.84,0,0
21974.9,137.235,-5575.72,0,0
22235.275,172.428,-5530,0,0
22495.6,139.56,-5491.63,0,0
22755.925,126.859,-5420.72,0,0
23016.25,121.962,-5354.21,0,0
23276.6,118.713,-5293.17,0,0
23536.9,114.748,-5232.61,0,0
23797.225,111.997,-5171.65,0,0
24057.55,114.289,-5111.2,0,0
24317.875,111.937,-5062.58,0,0
24578.2,110.37,-5002.93,0,0
24838.525,110.17,-4952.81,0,0
25098.85,110.916,-4898.84,0,0
25359.175,106.086,-4849.95,0,0
25619.5,103.948,-4799.01,0,0
25879.8,102.571,-4747.82,0,0
26140.1,103.165,-4697.57,0,0
26400.5,102.259,-4648.73,0,0
26660.8,104.359,-4597.82,0,0
26921.1,113.692,-4550.53,0,0
27181.4,119.949,-4517.68,0,0
27441.8,110.921,-4483.14,0,0
27702.1,103.508,-4434.65,0,0
27962.4,110.104,-4384.94,0,0
28222.7,109.776,-4347.33,0,0
28483.1,120.087,-4304,0,0
28743.4,129.454,-4284.55,0,0
29003.7,117.271,-4248.8,0,0
29264,117.801,-4213.3,0,0
29524.4,106.641,-4180.47,0,0
29784.7,105.063,-4138.61,0,0
30045,101.106,-4106.48,0,0
30305.3,99.3186,-4067.78,0,0
30565.7,96.5758,-4029.18,0,0
30826,100.46,-3994,0,0
31086.3,102.926,-3965.57,0,0
31346.6,99.602,-3936.87,0,0
31607,93.6514,-3899.83,0,0
31867.3,97.0303,-3866.18,0,0
32127.6,97.7064,-3835.55,0,0
32387.9,98.0286,-3809.57,0,0
32648.3,93.2141,-3778.16,0,0
32908.6,95.4838,-3749.21,0,0
33168.9,90.9698,-3721.65,0,0
33429.2,88.3777,-3693.01,0,0
33689.6,85.6302,-3663.12,0,0
33949.9,84.8011,-3632.22,0,0
34210.2,86.0261,-3606.37,0,0
34470.5,83.4018,-3579.07,0,0
34730.9,81.5841,-3550.81,0,0
34991.2,80.8455,-3523.85,0,0
35251.5,80.1244,-3497.21,0,0
35511.8,79.2488,-3470.74,0,0
35772.2,78.6392,-3445.32,0,0
36032.5,77.4669,-3420.05,0,0
36292.8,76.8347,-3394.86,0,0
36553.1,76.4745,-3370.21,0,0
36813.5,75.7183,-3345.29,0,0
37073.8,75.5483,-3321.34,0,0
37334.1,74.9888,-3297.93,0,0
37594.4,74.5454,-3274.5,0,0
37854.8,73.9783,-3252.14,0,0
38115.1,73.446,-3228.8,0,0
38375.4,73.0998,-3206.46,0,0
38635.7,72.5644,-3184.43,0,0
38896.1,72.1305,-3162.48,0,0
39156.4,72.1941,-3140.17,0,0
39416.7,71.9537,-3120.28,0,0
39677,71.0545,-3099.31,0,0
39937.4,70.6407,-3078.01,0,0
40197.7,70.7341,-3057.29,0,0
40458,70.7652,-3037.32,0,0
40718.3,70.6197,-3016.53,0,0
40978.7,71.701,-2997.12,0,0
41239,71.9655,-2979.17,0,0
41499.3,71.3968,-2960.68,0,0
41759.6,70.8034,-2942.44,0,0
42020,69.9504,-2923.47,0,0
42280.275,69.8936,-2904.76,0,0
42540.6,70.3279,-2887.02,0,0
42800.925,70.0165,-2869.73,0,0
43061.25,69.0994,-2851.96,0,0
43321.575,68.9501,-2834.92,0,0
43581.9,68.4913,-2817.84,0,0
43842.225,67.5382,-2800.34,0,0
44102.55,67.9616,-2783.03,0,0
44362.875,68.3223,-2766.04,0,0
44623.2,68.8349,-2750.65,0,0
44883.525,68.2994,-2734.6,0,0
45143.85,68.3076,-2718.96,0,0
45404.175,68.5698,-2703.3,0,0
45664.5,67.526,-2688.48,0,0
45924.825,66.5027,-2673.04,0,0
46185.15,66.6085,-2657.53,0,0
46445.475,65.1867,-2642.72,0,0
46705.8,64.9801,-2627.26,0,0
46966.125,64.8185,-2612.47,0,0
47226.45,64.1647,-2597.66,0,0
47486.775,64.2259,-2583.27,0,0
47747.1,63.6813,-2568.72,0,0
48007.425,63.3254,-2554.51,0,0
48267.75,63.1475,-2540.46,0,0
48528.075,62.5023,-2527.5,0,0
48788.4,61.4592,-2512.89,0,0
49048.725,61.3357,-2498.85,0,0
49309.05,61.2273,-2485.25,0,0
49569.375,61.1162,-2471.97,0,0
49829.7,60.7111,-2459,0,0
50090.025,59.9924,-2445.88,0,0
50350.35,59.3741,-2432.56,0,0
50610.675,59.1574,-2419.33,0,0
50871.0,59.2071,-2406.4,0,0
51131.325,59.1444,-2393.54,0,0
51391.65,59.1539,-2381.35,0,0
51651.975,58.5705,-2368.85,0,0
51912.3,58.1838,-2356.48,0,0
52172.625,58.0105,-2344.2,0,0
52432.95,57.8781,-2332.08,0,0
52693.275,57.6711,-2320.15,0,0
52953.6,57.6203,-2308.31,0,0
53213.925,57.5156,-2296.43,0,0
53474.25,57.4717,-2284.88,0,0
53734.575,57.3107,-2273.43,0,0
53994.9,57.1797,-2262.42,0,0
54255.225,56.5913,-2251.19,0,0
54515.55,56.1517,-2239.98,0,0
54775.875,55.8887,-2228.73,0,0
55036.2,55.7493,-2217.4,0,0
55296.525,55.8693,-2206.44,0,0
55556.85,55.8366,-2195.75,0,0
55817.175,55.4808,-2185.47,0,0
56077.5,54.9512,-2174.62,0,0
56337.825,54.882,-2163.87,0,0
56598.15,54.8574,-2153.21,0,0
56858.475,54.8595,-2142.91,0,0
57118.8,54.5724,-2132.69,0,0
57379.125,54.3913,-2122.37,0,0
57639.45,54.5881,-2112.26,0,0
57899.775,54.4892,-2102.21,0,0
58160.1,54.5139,-2092.34,0,0
58420.4,54.4021,-2082.77,0,0
58680.7,54.1864,-2072.96,0,0
58941.1,54.0966,-2063.1,0,0
59201.4,54.4252,-2053.61,0,0
59461.7,54.3331,-2044.46,0,0
59722,54.1144,-2035.04,0,0
59982.4,54.0934,-2025.63,0,0
60242.7,54.0893,-2016.47,0,0
60503,54.1515,-2007.27,0,0
60763.3,54.4165,-1998.58,0,0
61023.7,54.1326,-1990.01,0,0
61284,53.6329,-1981,0,0
61544.3,53.3005,-1972.02,0,0
61804.6,53.3957,-1963.22,0,0
62065,53.055,-1954.76,0,0
62325.3,52.7047,-1945.95,0,0
62585.6,52.5035,-1937.02,0,0
62845.9,52.4178,-1928.36,0,0
63106.3,52.4826,-1919.84,0,0
63366.6,52.2993,-1911.27,0,0
63626.9,52.3357,-1902.72,0,0
63887.2,52.5145,-1894.3,0,0
64147.6,52.626,-1885.93,0,0
64407.9,52.6052,-1877.56,0,0
64668.2,52.9067,-1869.28,0,0
64928.5,53.4301,-1860.98,0,0
65188.9,53.9317,-1853.32,0,0
65449.2,54.6597,-1845.6,0,0
65709.5,55.1288,-1838.4,0,0
65969.8,55.1045,-1831.49,0,0
66230.2,54.9205,-1824.25,0,0
66490.5,54.9225,-1816.97,0,0
66750.8,54.6645,-1809.73,0,0
67011.1,54.312,-1802.67,0,0
67271.5,53.6346,-1794.95,0,0
67531.8,54.0722,-1787.2,0,0
67792.1,54.2813,-1780.45,0,0
68052.4,54.2294,-1773.92,0,0
68312.8,53.5919,-1766.77,0,0
68573.1,53.2056,-1759.53,0,0
68833.4,53.4649,-1752.38,0,0
69093.7,53.3319,-1745.8,0,0
69354.1,52.873,-1738.96,0,0
69614.4,52.8428,-1732.27,0,0
69874.7,52.1097,-1725.63,0,0
70135,51.6179,-1718.82,0,0
70395.4,51.0144,-1711.74,0,0
70655.7,50.7338,-1704.69,0,0
70916,50.5434,-1697.77,0,0
71176.3,50.3381,-1691.06,0,0
71436.7,50.2096,-1684.41,0,0
71697,49.8888,-1677.92,0,0
71957.3,49.3204,-1671.06,0,0
72217.6,48.8244,-1664.42,0,0
72478,48.4402,-1657.39,0,0
72738.3,48.3093,-1650.53,0,0
72998.6,48.2411,-1643.63,0,0
73258.9,48.3535,-1637.03,0,0
73519.3,48.2155,-1630.52,0,0
73779.6,48.0893,-1624.05,0,0
74039.9,48.1549,-1617.41,0,0
74300.225,48.1931,-1610.93,0,0
74560.55,48.1911,-1604.47,0,0
74820.875,48.3518,-1598.01,0,0
75081.2,48.4968,-1591.8,0,0
75341.525,48.5389,-1585.61,0,0
75601.85,48.4982,-1579.39,0,0
75862.175,48.6182,-1572.95,0,0
76122.5,48.9053,-1566.8,0,0
76382.825,49.2421,-1560.72,0,0
76643.15,49.4231,-1554.9,0,0
76903.475,49.5872,-1548.96,0,0
77163.8,49.8294,-1542.94,0,0
77424.125,50.0653,-1537.3,0,0
77684.45,50.1967,-1531.51,0,0
77944.775,50.3668,-1525.59,0,0
78205.1,50.6998,-1519.79,0,0
78465.425,51.2849,-1514.13,0,0
78725.75,51.7623,-1509,0,0
78986.075,51.7995,-1503.88,0,0
79246.4,51.8416,-1498.66,0,0
79506.725,51.7277,-1493.49,0,0
79767.05,51.4415,-1488.16,0,0
80027.375,51.3341,-1482.8,0,0
80287.7,51.1781,-1477.6,0,0
80548.025,50.736,-1472.05,0,0
80808.35,50.502,-1466.44,0,0
81068.675,50.4097,-1460.83,0,0
81329.0,50.5223,-1455.09,0,0
81589.325,50.6537,-1449.65,0,0
81849.65,50.8092,-1444.21,0,0
82109.975,51.0356,-1438.87,0,0
82370.3,51.1352,-1433.51,0,0
82630.625,51.1824,-1428.27,0,0
82890.95,51.2326,-1422.85,0,0
83151.275,51.5631,-1417.42,0,0
83411.6,51.9011,-1412.25,0,0
83671.925,52.1435,-1407.12,0,0
83932.25,52.4285,-1401.93,0,0
84192.575,52.789,-1396.77,0,0
84452.9,53.055,-1391.65,0,0
84713.225,53.4447,-1386.66,0,0
84973.55,53.8904,-1381.52,0,0
85233.875,54.5489,-1376.69,0,0
85494.2,55.0821,-1372.09,0,0
85754.525,55.2874,-1367.52,0,0
86014.85,55.5608,-1362.91,0,0
86275.175,55.7046,-1358.23,0,0
86535.5,55.9273,-1353.63,0,0
86795.825,56.1002,-1349.14,0,0
87056.15,56.1378,-1344.36,0,0
87316.475,56.443,-1339.7,0,0
87576.8,56.6147,-1335.24,0,0
87837.125,56.4964,-1330.66,0,0
88097.45,56.2884,-1325.92,0,0
88357.775,56.2854,-1320.85,0,0
88618.1,56.6574,-1315.72,0,0
88878.425,57.1705,-1310.98,0,0
89138.75,57.6071,-1306.05,0,0
89399.075,58.1168,-1301.24,0,0
89659.4,58.6759,-1296.38,0,0
89919.725,59.486,-1291.6,0,0
90180,60.2398,-1287.18,0,0
90440.4,60.9319,-1282.78,0,0
90700.7,61.5616,-1277.98,0,0
90961,62.5624,-1273.18,0,0
91221.3,63.912,-1268.63,0,0
91481.7,65.3525,-1264.58,0,0
91742,66.7553,-1260.66,0,0
92002.3,67.9772,-1257.01,0,0
92262.6,68.959,-1253.21,0,0
92523,70.248,-1249.38,0,0
92783.3,72.0198,-1245.75,0,0
93043.6,73.7453,-1243.02,0,0
93303.9,74.9086,-1240.3,0,0
93564.3,76.5934,-1237.65,0,0
93824.6,78.618,-1236.36,0,0
94084.9,78.8063,-1236.75,0,0
94345.2,76.3085,-1236.32,0,0
94605.6,73.4816,-1233.05,0,0
94865.9,72.4062,-1229.47,0,0
95126.2,70.863,-1226.23,0,0
95386.5,69.5735,-1222.46,0,0
95646.9,68.1799,-1218.78,0,0
95907.2,66.906,-1214.42,0,0
96167.5,66.1112,-1209.69,0,0
96427.8,66.2219,-1205.28,0,0
96688.2,66.0545,-1201.81,0,0
96948.5,65.2796,-1198.01,0,0
97208.8,64.5874,-1193.87,0,0
97469.1,64.2616,-1189.51,0,0
97729.5,63.9568,-1185.17,0,0
97989.8,63.9846,-1181.02,0,0
98250.1,64.109,-1176.91,0,0
98510.4,64.2755,-1173.17,0,0
98770.8,64.0786,-1169.54,0,0
99031.1,63.6726,-1165.61,0,0
99291.4,63.5197,-1161.54,0,0
99551.7,63.3717,-1157.56,0,0
99812.1,63.1538,-1153.46,0,0
100072,63.306,-1149.31,0,0
100333,63.3413,-1145.43,0,0
100593,63.3712,-1141.42,0,0
100853,63.4066,-1137.49,0,0
101114,63.4388,-1133.46,0,0
101374,63.4275,-1129.59,0,0
101634,63.3223,-1125.51,0,0
101895,63.1988,-1121.35,0,0
102155,63.0029,-1116.86,0,0
102415,63.2012,-1112.08,0,0
102676,63.9515,-1107.15,0,0
102936,65.1728,-1102.76,0,0
103196,66.2719,-1098.73,0,0
103457,67.2746,-1094.69,0,0
103717,68.2828,-1090.71,0,0
103977,69.4377,-1086.61,0,0
104238,71.0455,-1082.61,0,0
104498,72.8251,-1079.31,0,0
104758,74.1435,-1076.3,0,0
105019,75.1168,-1073.35,0,0
105279,75.8749,-1069.95,0,0
105539,77.0978,-1066.43,0,0
105800,78.4792,-1063.15,0,0
106060,79.9727,-1059.96,0,0
106320.175,81.5187,-1057.14,0,0
106580.5,82.9328,-1054.47,0,0
106840.825,84.2262,-1052,0,0
107101.15,85.3472,-1049.43,0,0
107361.475,86.719,-1046.91,0,0
107621.8,87.9948,-1044.8,0,0
107882.125,88.9441,-1042.79,0,0
108142.45,89.7153,-1040.58,0,0
108402.775,90.5866,-1038.28,0,0
108663.1,91.6335,-1036.14,0,0
108923.425,92.5095,-1034.28,0,0
109183.75,93.2628,-1032.46,0,0
109444.075,94.0229,-1030.91,0,0
109704.4,94.371,-1029.48,0,0
109964.725,94.3504,-1028.07,0,0
110225.05,94.0484,-1026.19,0,0
110485.375,93.4111,-1024.13,0,0
110745.7,93.2052,-1021.44,0,0
111006.025,93.1854,-1018.75,0,0
111266.35,93.2905,-1016.23,0,0
111526.675,93.9957,-1013.71,0,0
111787.0,94.7465,-1011.59,0,0
112047.325,94.951,-1009.69,0,0
112307.65,95.2355,-1007.68,0,0
112567.975,95.6639,-1005.75,0,0
112828.3,95.8277,-1004.09,0,0
113088.625,95.9609,-1002.4,0,0
113348.95,95.9479,-1000.8,0,0
113609.275,95.8686,-999.245,0,0
113869.6,95.4914,-997.81,0,0
114129.925,94.8256,-996.18,0,0
114390.25,93.9815,-994.422,0,0
114650.575,93.3488,-992.214,0,0
114910.9,92.7516,-990.427,0,0
115171.225,91.9335,-988.525,0,0
115431.55,91.0145,-986.441,0,0
115691.875,89.9881,-984.382,0,0
115952.2,88.7638,-981.916,0,0
116212.525,87.7879,-979.222,0,0
116472.85,86.9509,-976.529,0,0
116733.175,86.1797,-973.861,0,0
116993.5,85.3891,-971.23,0,0
117253.825,84.4578,-968.478,0,0
117514.15,83.5817,-965.494,0,0
117774.475,82.8488,-962.408,0,0
118034.8,82.2677,-959.174,0,0
118295.125,81.9373,-956.075,0,0
118555.45,81.5437,-953.056,0,0
118815.775,81.1517,-949.916,0,0
119076.1,80.9249,-946.717,0,0
119336.425,80.8739,-943.576,0,0
119596.75,80.9082,-940.508,0,0
119857.075,80.9659,-937.536,0,0
120117.4,81.267,-934.648,0,0
120377.725,81.4157,-932.051,0,0
120638.05,81.5348,-929.446,0,0
120898.375,81.5946,-926.999,0,0
121158.7,81.392,-924.626,0,0
121419.025,81.1004,-922.044,0,0
121679.35,80.8596,-919.489,0,0
121939.675,80.4953,-916.84,0,0
122200.0,80.1111,-914.063,0,0
122460,79.7512,-911.237,0,0
122721,79.6092,-908.355,0,0
122981,79.4048,-905.539,0,0
123241,79.0931,-902.632,0,0
123502,78.928,-899.625,0,0
123762,78.7824,-896.639,0,0
124022,78.7222,-893.576,0,0
124283,78.7386,-890.561,0,0
124543,78.8566,-887.522,0,0
124803,79.0214,-884.585,0,0
125064,79.1393,-881.703,0,0
125324,79.2247,-878.773,0,0
125584,79.422,-875.76,0,0
125845,79.7129,-872.883,0,0
126105,79.9108,-870.014,0,0
126365,80.189,-867.086,0,0
126626,80.5319,-864.247,0,0
126886,80.8118,-861.434,0,0
127146,81.0946,-858.594,0,0
127406,81.4236,-855.813,0,0
127667,81.6946,-852.908,0,0
127927,82.0339,-850.044,0,0
128187,82.5769,-847.154,0,0
128448,83.0949,-844.278,0,0
128708,83.6397,-841.556,0,0
128968,84.067,-838.859,0,0
129229,84.4391,-836.058,0,0
129489,84.9418,-833.176,0,0
129749,85.5705,-830.209,0,0
130010,86.3829,-827.201,0,0
130270,87.415,-824.398,0,0
130530,88.5073,-821.77,0,0
130791,89.5839,-819.356,0,0
131051,90.5774,-817.092,0,0
131311,91.5619,-814.829,0,0
131572,92.5027,-812.756,0,0
131832,93.3091,-810.723,0,0
132092,94.0544,-808.77,0,0
132353,94.6779,-806.787,0,0
132613,95.1572,-804.798,0,0
132873,95.6494,-802.609,0,0
133134,96.2698,-800.484,0,0
133394,96.836,-798.399,0,0
133654,97.3691,-796.34,0,0
133915,97.9189,-794.213,0,0
134175,98.4647,-792.129,0,0
134435,98.9894,-790.159,0,0
134696,99.3582,-788.127,0,0
134956,99.7287,-785.953,0,0
135216,100.206,-783.702,0,0
135477,100.768,-781.498,0,0
135737,101.304,-779.357,0,0
135997,101.919,-777.058,0,0
136258,102.577,-774.784,0,0
136518,103.428,-772.497,0,0
136778,104.43,-770.416,0,0
137039,105.45,-768.53,0,0
137299,106.364,-766.732,0,0
137559,107.408,-765.061,0,0
137819,108.441,-763.759,0,0
138080,109.054,-762.687,0,0
138340.125,109.328,-761.502,0,0
138600.45,109.506,-760.181,0,0
138860.775,109.529,-758.836,0,0
139121.1,109.361,-757.227,0,0
139381.425,109.326,-755.384,0,0
139641.75,109.463,-753.584,0,0
139902.075,109.543,-751.93,0,0
140162.4,109.452,-750.2,0,0
140422.725,109.329,-748.295,0,0
140683.05,109.26,-746.305,0,0
140943.375,109.18,-744.281,0,0
141203.7,109.148,-742.127,0,0
141464.025,109.27,-739.98,0,0
141724.35,109.395,-737.931,0,0
141984.675,109.297,-735.783,0,0
142245.0,109.433,-733.35,0,0
142505.325,109.844,-731.125,0,0
142765.65,110.149,-729.107,0,0
143025.975,110.304,-727.006,0,0
143286.3,110.526,-724.793,0,0
143546.625,110.592,-722.513,0,0
143806.95,110.875,-720.141,0,0
144067.275,111.317,-717.791,0,0
144327.6,111.787,-715.593,0,0
144587.925,112.14,-713.343,0,0
144848.25,112.686,-710.951,0,0
145108.575,113.315,-708.803,0,0
145368.9,113.935,-706.653,0,0
145629.225,114.571,-704.624,0,0
145889.55,115.154,-702.648,0,0
146149.875,115.681,-700.722,0,0
146410.2,116.057,-698.718,0,0
146670.525,116.532,-696.482,0,0
146930.85,117.31,-694.411,0,0
147191.175,118.098,-692.686,0,0
147451.5,118.5,-691.098,0,0
147711.825,118.692,-689.329,0,0
147972.15,118.885,-687.339,0,0
148232.475,119.047,-685.174,0,0
148492.8,119.51,-682.909,0,0
148753.125,120.091,-680.803,0,0
149013.45,120.645,-678.716,0,0
149273.775,121.345,-676.717,0,0
149534.1,122.097,-674.903,0,0
149794.425,122.744,-673.357,0,0
150054.75,123.054,-672.026,0,0
150315.075,122.977,-670.511,0,0
150575.4,122.769,-668.785,0,0
150835.725,122.465,-666.909,0,0
151096.05,121.987,-664.722,0,0
151356.375,121.653,-662.169,0,0
151616.7,121.636,-659.534,0,0
151877.025,121.677,-656.938,0,0
152137.35,121.713,-654.422,0,0
152397.675,121.593,-651.796,0,0
152658.0,121.435,-648.89,0,0
152918.325,121.427,-645.63,0,0
153178.65,121.804,-642.233,0,0
153438.975,122.444,-638.898,0,0
153699.3,123.18,-635.648,0,0
153959.625,123.921,-632.413,0,0
154219.95,124.813,-629,0,0
154480,125.936,-625.583,0,0
154741,127.212,-622.198,0,0
155001,128.711,-618.882,0,0
155261,130.266,-615.735,0,0
155522,131.794,-612.458,0,0
155782,133.655,-609.048,0,0
156042,135.811,-605.827,0,0
156303,138.136,-602.866,0,0
156563,140.396,-600.083,0,0
156823,142.722,-597.243,0,0
157084,145.376,-594.417,0,0
157344,148.335,-591.979,0,0
157604,151.302,-590.078,0,0
157864,153.856,-588.536,0,0
158125,156.073,-586.854,0,0
158385,158.313,-585.028,0,0
158645,160.565,-583.371,0,0
158906,162.469,-581.768,0,0
159166,164.192,-579.644,0,0
159426,166.18,-577.213,0,0
159687,168.513,-574.45,0,0
159947,171.474,-571.699,0,0
160207,174.984,-569.328,0,0
160468,178.643,-567.341,0,0
160728,182.445,-565.606,0,0
160988,186.513,-564.308,0,0
161249,190.72,-563.437,0,0
161509,194.833,-563.138,0,0
161769,198.766,-563.372,0,0
162030,202.24,-564.035,0,0
162290,205.161,-564.864,0,0
162550,207.616,-565.544,0,0
162811,209.9,-565.923,0,0
163071,212.25,-566.205,0,0
163331,214.579,-566.556,0,0
163592,216.916,-566.74,0,0
163852,219.443,-567.13,0,0
164112,221.779,-567.74,0,0
164373,224.059,-568.31,0,0
164633,226.262,-568.978,0,0
164893,228.46,-569.563,0,0
165154,230.875,-570.173,0,0
165414,233.317,-571.138,0,0
165674,235.817,-572.23,0,0
165935,238.444,-573.764,0,0
166195,240.81,-575.894,0,0
166455,242.616,-578.453,0,0
166716,243.743,-580.989,0,0
166976,244.511,-583.198,0,0
167236,245.376,-585.341,0,0
167497,245.965,-587.776,0,0
167757,246.121,-590.134,0,0
168017,246.131,-592.435,0,0
168277,245.743,-594.846,0,0
168538,244.897,-597.093,0,0
168798,243.755,-599.113,0,0
169058,242.334,-600.884,0,0
169319,240.718,-602.362,0,0
169579,238.775,-603.647,0,0
169839,236.556,-604.371,0,0
170100,234.366,-604.627,0,0
170360.075,232.375,-604.398,0,0
170620.4,230.616,-603.877,0,0
170880.725,229.176,-603.231,0,0
171141.05,227.851,-602.529,0,0
171401.375,226.73,-601.779,0,0
171661.7,225.713,-601.08,0,0
171922.025,224.626,-600.438,0,0
172182.35,223.462,-599.606,0,0
172442.675,222.461,-598.57,0,0
172703.0,221.609,-597.525,0,0
172963.325,220.825,-596.482,0,0
173223.65,220.102,-595.399,0,0
173483.975,219.423,-594.291,0,0
173744.3,218.803,-593.122,0,0
174004.625,218.167,-591.822,0,0
174264.95,217.822,-590.432,0,0
174525.275,217.683,-589.196,0,0
174785.6,217.537,-588.032,0,0
175045.925,217.388,-587.015,0,0
175306.25,217.111,-585.863,0,0
175566.575,217.209,-584.52,0,0
175826.9,217.62,-583.483,0,0
176087.225,217.991,-582.954,0,0
176347.55,218.023,-582.561,0,0
176607.875,217.885,-582.09,0,0
176868.2,217.664,-581.685,0,0
177128.525,217.236,-581.176,0,0
177388.85,216.833,-580.456,0,0
177649.175,216.681,-579.728,0,0
177909.5,216.633,-579.327,0,0
178169.825,216.277,-579.217,0,0
178430.15,215.539,-579.099,0,0
178690.475,214.553,-578.745,0,0
178950.8,213.542,-578.216,0,0
179211.125,212.421,-577.518,0,0
179471.45,211.418,-576.663,0,0
179731.775,210.479,-575.859,0,0
179992.1,209.468,-575.2,0,0
180252.425,208.114,-574.576,0,0
180512.75,206.477,-573.572,0,0
180773.075,204.927,-572.262,0,0
181033.4,203.441,-570.888,0,0
181293.725,201.891,-569.276,0,0
181554.05,200.444,-567.495,0,0
181814.375,199.148,-565.585,0,0
182074.7,197.923,-563.608,0,0
182335.025,196.828,-561.651,0,0
182595.35,195.621,-559.776,0,0
182855.675,194.294,-557.762,0,0
183116.0,192.966,-555.562,0,0
183376.325,191.562,-553.243,0,0
183636.65,190.192,-550.585,0,0
183896.975,188.933,-547.735,0,0
184157.3,187.85,-544.656,0,0
184417.625,187.027,-541.49,0,0
184677.95,186.302,-538.313,0,0
184938.275,185.659,-534.897,0,0
185198.6,185.374,-531.319,0,0
185458.925,185.479,-527.816,0,0
185719.25,185.754,-524.571,0,0
185979.575,185.924,-521.39,0,0
186239.9,186.247,-518.141,0,0
186500,186.693,-514.938,0,0
186761,187.295,-511.91,0,0
187021,187.888,-508.845,0,0
187281,188.421,-505.845,0,0
187542,189.212,-502.733,0,0
187802,190.089,-499.847,0,0
188062,190.87,-497.165,0,0
188322,191.566,-494.377,0,0
188583,192.319,-491.642,0,0
188843,192.941,-488.784,0,0
189103,193.646,-485.995,0,0
189364,194.301,-483.032,0,0
189624,195.02,-480.028,0,0
189884,195.871,-476.974,0,0
190145,196.701,-473.923,0,0
190405,197.708,-470.691,0,0
190665,198.851,-467.539,0,0
190926,200.003,-464.541,0,0
191186,201.063,-461.44,0,0
191446,202.17,-458.304,0,0
191707,203.212,-454.95,0,0
191967,204.536,-451.526,0,0
192227,206.047,-448.049,0,0
192488,207.794,-444.696,0,0
192748,209.424,-441.42,0,0
193008,211.202,-438.025,0,0
193269,213.076,-434.613,0,0
193529,215.096,-431.41,0,0
193789,217.151,-428.188,0,0
194050,219.059,-424.998,0,0
194310,221.094,-421.701,0,0
194570,223.063,-418.266,0,0
194831,225.307,-414.763,0,0
195091,227.674,-411.241,0,0
195351,230.153,-407.605,0,0
195612,232.796,-404.107,0,0
195872,235.558,-400.678,0,0
196132,238.31,-397.296,0,0
196393,241.114,-393.639,0,0
196653,244.146,-389.912,0,0
196913,247.57,-386.171,0,0
197174,251.16,-382.64,0,0
197434,254.835,-379.255,0,0
197694,258.531,-375.791,0,0
197955,262.643,-372.21,0,0
198215,266.91,-368.911,0,0
198475,271.304,-365.868,0,0
198735,275.814,-362.924,0,0
198996,280.295,-360.18,0,0
199256,284.689,-357.62,0,0
199516,288.953,-355,0,0
199777,293.151,-352.266,0,0
200037,297.462,-349.254,0,0
200297,301.982,-346.061,0,0
200558,306.822,-342.754,0,0
200818,311.946,-339.325,0,0
201078,317.524,-335.967,0,0
201339,323.383,-332.614,0,0
201599,329.696,-329.35,0,0
201859,336.303,-326.161,0,0
202120,343.494,-323.031,0,0
202380.025,351.273,-320.303,0,0
202640.35,359.545,-318.028,0,0
202900.675,368.045,-316.589,0,0
203161.0,376.465,-315.553,0,0
203421.325,384.761,-314.641,0,0
203681.65,393.361,-313.815,0,0
203941.975,402.524,-313.12,0,0
204202.3,412.352,-312.9,0,0
204462.625,422.613,-313.531,0,0
204722.95,433.275,-315.175,0,0
204983.275,444.056,-317.852,0,0
205243.6,454.522,-321.747,0,0
205503.925,464.439,-326.775,0,0
205764.25,473.567,-332.196,0,0
206024.575,482.182,-338.155,0,0
206284.9,490.141,-344.61,0,0
206545.225,497.621,-351.202,0,0
206805.55,504.893,-358.22,0,0
207065.875,511.595,-365.949,0,0
207326.2,517.394,-374.164,0,0
207586.525,522.235,-382.533,0,0
207846.85,526.22,-390.754,0,0
208107.175,529.623,-398.776,0,0
208367.5,532.524,-406.683,0,0
208627.825,535.008,-414.437,0,0
208888.15,537.095,-422.176,0,0
209148.475,538.487,-429.969,0,0
209408.8,539.224,-437.446,0,0
209669.125,539.525,-444.627,0,0
209929.45,539.347,-451.776,0,0
210189.775,538.326,-458.494,0,0
210450.1,536.535,-464.49,0,0
210710.425,534.488,-469.55,0,0
210970.75,532.445,-473.748,0,0
211231.075,530.63,-477.29,0,0
211491.4,528.828,-480.252,0,0
211751.725,527.282,-482.704,0,0
212012.05,525.898,-484.746,0,0
212272.375,524.598,-486.114,0,0
212532.7,523.856,-486.657,0,0
212793.025,524.129,-486.635,0,0
213053.35,525.565,-486.738,0,0
213313.675,527.742,-487.448,0,0
213574.0,530.316,-488.832,0,0
213834.325,532.966,-490.734,0,0
214094.65,535.399,-493.126,0,0
214354.975,537.64,-495.559,0,0
214615.3,539.868,-497.98,0,0
214875.625,542.378,-500.689,0,0
215135.95,544.569,-503.614,0,0
215396.275,546.709,-506.394,0,0
215656.6,549.12,-509.333,0,0
215916.925,551.572,-512.767,0,0
216177.25,553.469,-516.446,0,0
216437.575,554.839,-519.969,0,0
216697.9,556.077,-522.905,0,0
216958.225,557.381,-525.415,0,0
217218.55,559.102,-527.439,0,0
217478.875,561.628,-529.294,0,0
217739.2,564.882,-531.596,0,0
217999.525,568.38,-534.61,0,0
218259.85,571.851,-538.172,0,0
218520,575.009,-542.043,0,0
218780,577.982,-545.939,0,0
219041,580.953,-549.781,0,0
219301,584.254,-553.689,0,0
219561,587.742,-557.787,0,0
219822,591.472,-562.293,0,0
220082,595.265,-567.305,0,0
220342,598.914,-572.7,0,0
220603,602.538,-578.35,0,0
220863,606.212,-584.142,0,0
221123,610.09,-590.449,0,0
221384,614.006,-597.356,0,0
221644,617.778,-604.978,0,0
221904,621.224,-613.225,0,0
222165,624.232,-622.229,0,0
222425,626.66,-631.748,0,0
222685,628.408,-641.726,0,0
222946,629.359,-652.019,0,0
223206,629.367,-662.43,0,0
223466,628.685,-672.727,0,0
223727,627.469,-682.888,0,0
223987,625.737,-692.856,0,0
224247,623.491,-702.587,0,0
224508,620.908,-712.191,0,0
224768,618.143,-721.745,0,0
225028,614.934,-731.324,0,0
225289,611.122,-740.932,0,0
225549,606.781,-750.243,0,0
225809,602.262,-759.371,0,0
226070,597.414,-768.254,0,0
226330,592.162,-777.365,0,0
226590,586.427,-786.286,0,0
226851,580.057,-795.134,0,0
227111,572.979,-803.752,0,0
227371,565.378,-811.907,0,0
227632,557.06,-819.537,0,0
227892,548.451,-826.558,0,0
228152,539.411,-833.032,0,0
228413,530.033,-838.865,0,0
228673,520.428,-844.06,0,0
228933,510.638,-848.427,0,0
229193,500.924,-852.042,0,0
229454,491.252,-854.932,0,0
229714,481.8,-857.275,0,0
229974,472.459,-859.184,0,0
230235,463.524,-860.848,0,0
230495,454.586,-861.965,0,0
230755,445.938,-862.454,0,0
231016,437.504,-862.623,0,0
231276,429.35,-862.42,0,0
231536,421.571,-861.955,0,0
231797,414.052,-861.105,0,0
232057,407.05,-860.15,0,0
232317,400.34,-858.961,0,0
232578,394.024,-857.77,0,0
232838,388.082,-856.514,0,0
233098,382.338,-855.315,0,0
233359,376.897,-854.224,0,0
233619,371.607,-853.227,0,0
233879,366.379,-852.334,0,0
234140,361.205,-851.473,0,0
234400,356.038,-850.596,0,0
234660.3,350.931,-849.599,0,0
234920.625,345.797,-848.667,0,0
235180.95,340.838,-847.719,0,0
235441.275,335.822,-846.749,0,0
235701.6,330.812,-845.653,0,0
235961.925,325.808,-844.38,0,0
236222.25,321.067,-843.181,0,0
236482.575,316.257,-841.917,0,0
236742.9,311.47,-840.551,0,0
237003.225,306.703,-839.045,0,0
237263.55,302.054,-837.457,0,0
237523.875,297.414,-835.698,0,0
237784.2,292.911,-833.776,0,0
238044.525,288.782,-831.893,0,0
238304.85,284.667,-830.116,0,0
238565.175,280.631,-828.348,0,0
238825.5,276.435,-826.639,0,0
239085.825,272.429,-824.802,0,0
239346.15,268.304,-822.822,0,0
239606.475,264.173,-820.681,0,0
239866.8,260.449,-818.442,0,0
240127.125,256.593,-816.128,0,0
240387.45,253.009,-813.723,0,0
240647.775,249.601,-811.39,0,0
240908.1,246.217,-809.243,0,0
241168.425,242.968,-807.036,0,0
241428.75,239.531,-804.778,0,0
241689.075,236.24,-802.315,0,0
241949.4,233.111,-799.89,0,0
242209.725,230.062,-797.264,0,0
242470.05,227.261,-794.761,0,0
242730.375,224.596,-792.366,0,0
242990.7,221.953,-790.025,0,0
243251.025,219.324,-787.658,0,0
243511.35,216.772,-785.318,0,0
243771.675,214.277,-782.998,0,0
244032.0,211.891,-780.708,0,0
244292.325,209.465,-778.519,0,0
244552.65,207.111,-776.372,0,0
244812.975,204.722,-774.238,0,0
245073.3,202.245,-771.851,0,0
245333.625,199.885,-769.693,0,0
245593.95,197.595,-767.51,0,0
245854.275,195.222,-765.173,0,0
246114.6,192.995,-762.933,0,0
246374.925,190.697,-760.606,0,0
246635.25,188.354,-758.233,0,0
246895.575,186.199,-755.858,0,0
247155.9,184.03,-753.334,0,0
247416.225,181.952,-750.81,0,0
247676.55,179.965,-748.266,0,0
247936.875,178.085,-745.739,0,0
248197.2,176.26,-743.152,0,0
248457.525,174.47,-740.636,0,0
248717.85,172.834,-738.074,0,0
248978.175,171.251,-735.579,0,0
249238.5,169.575,-733.077,0,0
249498.825,168.055,-730.572,0,0
249759.15,166.626,-728.135,0,0
250019.475,165.215,-725.617,0,0
250279.8,163.863,-723.199,0,0
250540,162.51,-720.799,0,0
250800,161.171,-718.428,0,0
251061,159.795,-716.017,0,0
251321,158.537,-713.589,0,0
251581,157.295,-711.212,0,0
251842,156.117,-708.798,0,0
252102,154.879,-706.384,0,0
252362,153.692,-703.938,0,0
252623,152.514,-701.481,0,0
252883,151.432,-698.965,0,0
253143,150.366,-696.437,0,0
253404,149.418,-693.924,0,0
253664,148.469,-691.369,0,0
253924,147.577,-688.823,0,0
254185,146.712,-686.234,0,0
254445,146.038,-683.606,0,0
254705,145.358,-680.928,0,0
254966,144.874,-678.355,0,0
255226,144.498,-675.829,0,0
255486,144.165,-673.424,0,0
255747,143.787,-671.037,0,0
256007,143.492,-668.775,0,0
256267,143.173,-666.453,0,0
256528,142.83,-664.141,0,0
256788,142.559,-661.83,0,0
257048,142.352,-659.497,0,0
257309,142.164,-657.203,0,0
257569,141.99,-654.948,0,0
257829,141.838,-652.673,0,0
258090,141.722,-650.351,0,0
258350,141.679,-648.002,0,0
258610,141.633,-645.62,0,0
258871,141.774,-643.203,0,0
259131,142.062,-640.77,0,0
259391,142.411,-638.35,0,0
259651,142.972,-636.052,0,0
259912,143.619,-633.835,0,0
260172,144.385,-631.661,0,0
260432,145.14,-629.655,0,0
260693,146.029,-627.713,0,0
260953,146.936,-625.897,0,0
261213,147.902,-624.176,0,0
261474,148.886,-622.532,0,0
261734,149.914,-620.984,0,0
261994,150.956,-619.544,0,0
262255,152.008,-618.195,0,0
262515,153.071,-616.937,0,0
262775,154.167,-615.748,0,0
263036,155.216,-614.656,0,0
263296,156.295,-613.622,0,0
263556,157.411,-612.666,0,0
263817,158.573,-611.793,0,0
264077,159.659,-611.019,0,0
264337,160.884,-610.388,0,0
264598,161.969,-609.689,0,0
264858,163.179,-609.154,0,0
265118,164.438,-608.69,0,0
265379,165.817,-608.454,0,0
265639,167.165,-608.364,0,0
265899,168.512,-608.525,0,0
266160,169.834,-608.979,0,0
266420,171.017,-609.682,0,0
266680.25,172.061,-610.61,0,0
266940.575,172.793,-611.804,0,0
267200.9,173.247,-613.106,0,0
267461.225,173.385,-614.556,0,0
267721.55,173.217,-615.975,0,0
267981.875,172.762,-617.412,0,0
268242.2,172.011,-618.799,0,0
268502.525,170.974,-620.087,0,0
268762.85,169.581,-621.272,0,0
269023.175,167.946,-622.199,0,0
269283.5,166.126,-622.911,0,0
269543.825,164.181,-623.265,0,0
269804.15,162.166,-623.465,0,0
270064.475,160.102,-623.341,0,0
270324.8,157.994,-622.988,0,0
270585.125,155.914,-622.373,0,0
270845.45,153.88,-621.522,0,0
271105.775,151.962,-620.514,0,0
271366.1,150.141,-619.264,0,0
271626.425,148.441,-617.859,0,0
271886.75,146.863,-616.331,0,0
272147.075,145.498,-614.681,0,0
272407.4,144.23,-612.981,0,0
272667.725,143.145,-611.193,0,0
272928.05,142.184,-609.312,0,0
273188.375,141.415,-607.438,0,0
273448.7,140.813,-605.525,0,0
273709.025,140.395,-603.642,0,0
273969.35,140.14,-601.831,0,0
274229.675,139.968,-600.159,0,0
274490.0,139.906,-598.593,0,0
274750.325,139.821,-597.033,0,0
275010.65,139.768,-595.526,0,0
275270.975,139.856,-594.12,0,0
275531.3,139.908,-592.75,0,0
275791.625,140.025,-591.41,0,0
276051.95,140.122,-590.079,0,0
276312.275,140.284,-588.806,0,0
276572.6,140.501,-587.502,0,0
276832.925,140.775,-586.259,0,0
277093.25,141.176,-585.038,0,0
277353.575,141.646,-583.944,0,0
277613.9,142.182,-582.983,0,0
277874.225,142.732,-582.177,0,0
278134.55,143.222,-581.471,0,0
278394.875,143.646,-580.872,0,0
278655.2,144.006,-580.29,0,0
278915.525,144.373,-579.756,0,0
279175.85,144.72,-579.295,0,0
279436.175,145.034,-578.872,0,0
279696.5,145.303,-578.557,0,0
279956.825,145.497,-578.275,0,0
280217.15,145.605,-578.073,0,0
280477.475,145.67,-577.846,0,0
280737.8,145.712,-577.683,0,0
280998.125,145.663,-577.521,0,0
281258.45,145.563,-577.398,0,0
281518.775,145.408,-577.297,0,0
281779.1,145.17,-577.283,0,0
282039.425,144.757,-577.242,0,0
282299.75,144.217,-577.139,0,0
282560,143.593,-576.917,0,0
282820,142.936,-576.588,0,0
283081,142.293,-576.227,0,0
283341,141.594,-575.856,0,0
283601,140.836,-575.376,0,0
283862,140.076,-574.826,0,0
284122,139.298,-574.171,0,0
284382,138.544,-573.449,0,0
284643,137.831,-572.659,0,0
284903,137.16,-571.802,0,0
285163,136.565,-570.926,0,0
285424,135.969,-570.085,0,0
285684,135.395,-569.228,0,0
285944,134.796,-568.386,0,0
286205,134.162,-567.506,0,0
286465,133.426,-566.62,0,0
286725,132.659,-565.598,0,0
286986,131.902,-564.405,0,0
287246,131.232,-563.104,0,0
287506,130.588,-561.723,0,0
287767,130.06,-560.27,0,0
288027,129.591,-558.678,0,0
288287,129.296,-556.989,0,0
288548,129.177,-555.268,0,0
288808,129.248,-553.497,0,0
289068,129.572,-551.812,0,0
289329,130.07,-550.293,0,0
289589,130.649,-548.946,0,0
289849,131.254,-547.738,0,0
290109,131.841,-546.705,0,0
290370,132.473,-545.738,0,0
290630,133.104,-544.926,0,0
290890,133.672,-544.234,0,0
291151,134.129,-543.625,0,0
291411,134.525,-543.03,0,0
291671,134.878,-542.479,0,0
291932,135.162,-541.955,0,0
292192,135.426,-541.497,0,0
292452,135.57,-541.086,0,0
292713,135.598,-540.68,0,0
292973,135.49,-540.28,0,0
293233,135.264,-539.774,0,0
293494,134.966,-539.164,0,0
293754,134.567,-538.43,0,0
294014,134.144,-537.507,0,0
294275,133.737,-536.387,0,0
294535,133.418,-535.098,0,0
294795,133.233,-533.649,0,0
295056,133.206,-532.077,0,0
295316,133.43,-530.458,0,0
295576,133.855,-528.847,0,0
295837,134.452,-527.306,0,0
296097,135.223,-525.818,0,0
296357,136.124,-524.463,0,0
296618,137.128,-523.262,0,0
296878,138.174,-522.217,0,0
297138,139.211,-521.292,0,0
297399,140.219,-520.466,0,0
297659,141.197,-519.688,0,0
297919,142.2,-518.93,0,0
298180,143.205,-518.212,0,0
298440,144.218,-517.54,0,0
298700.2,145.271,-516.939,0,0
298960.525,146.342,-516.369,0,0
299220.85,147.432,-515.876,0,0
299481.175,148.498,-515.429,0,0
299741.5,149.545,-515.014,0,0
300001.825,150.624,-514.714,0,0
300262.15,151.689,-514.37,0,0
300522.475,152.66,-514.098,0,0
300782.8,153.731,-513.76,0,0
301043.125,154.733,-513.448,0,0
301303.45,155.962,-513.062,0,0
301563.775,157.264,-512.914,0,0
301824.1,158.706,-512.76,0,0
302084.425,160.074,-512.766,0,0
302344.75,161.459,-512.847,0,0
302605.075,162.929,-513.153,0,0
302865.4,164.312,-513.6,0,0
303125.725,165.611,-514.171,0,0
303386.05,166.856,-514.781,0,0
303646.375,167.915,-515.642,0,0
303906.7,169.019,-516.488,0,0
304167.025,169.909,-517.292,0,0
304427.35,170.819,-518.125,0,0
304687.675,171.64,-519.054,0,0
304948.0,172.418,-519.879,0,0
305208.325,173.151,-520.838,0,0
305468.65,173.876,-521.858,0,0
305728.975,174.521,-522.77,0,0
305989.3,175.158,-523.791,0,0
306249.625,175.806,-524.857,0,0
306509.95,176.468,-526.048,0,0
306770.275,176.971,-527.264,0,0
307030.6,177.543,-528.615,0,0
307290.925,177.844,-530.097,0,0
307551.25,178.05,-531.585,0,0
307811.575,178.074,-533.039,0,0
308071.9,178.17,-534.563,0,0
308332.225,177.962,-536.01,0,0
308592.55,177.664,-537.551,0,0
308852.875,177.267,-538.919,0,0
309113.2,176.748,-540.248,0,0
309373.525,176.254,-541.564,0,0
309633.85,175.521,-542.652,0,0
309894.175,175.145,-543.665,0,0
310154.5,174.617,-544.792,0,0
310414.825,174.219,-545.92,0,0
310675.15,173.673,-547.19,0,0
310935.475,173.133,-548.466,0,0
311195.8,172.499,-549.711,0,0
311456.125,171.674,-551.102,0,0
311716.45,170.891,-552.48,0,0
311976.775,169.845,-553.812,0,0
312237.1,168.677,-555.098,0,0
312497.425,167.416,-556.436,0,0
312757.75,166.036,-557.645,0,0
313018.075,164.544,-558.682,0,0
313278.4,162.936,-559.634,0,0
313538.725,161.32,-560.398,0,0
313799.05,159.643,-561.098,0,0
314059.375,157.867,-561.707,0,0
314319.7,156.328,-562.114,0,0
314580,154.606,-562.518,0,0
314840,153.032,-562.812,0,0
315101,151.511,-563.121,0,0
315361,150.007,-563.241,0,0
315621,148.456,-563.438,0,0
315882,146.976,-563.613,0,0
316142,145.438,-563.722,0,0
316402,143.924,-563.85,0,0
316663,142.295,-563.865,0,0
316923,140.777,-563.985,0,0
317183,139.193,-563.931,0,0
317444,137.639,-563.777,0,0
317704,135.991,-563.725,0,0
317964,134.429,-563.473,0,0
318225,132.877,-563.246,0,0
318485,131.303,-562.948,0,0
318745,129.705,-562.555,0,0
319006,128.151,-562.11,0,0
319266,126.595,-561.642,0,0
319526,125.104,-561.155,0,0
319787,123.582,-560.563,0,0
320047,122.051,-559.932,0,0
320307,120.65,-559.232,0,0
320567,119.24,-558.477,0,0
320828,117.836,-557.68,0,0
321088,116.506,-556.767,0,0
321348,115.238,-555.89,0,0
321609,114.041,-554.997,0,0
321869,112.899,-554.059,0,0
322129,111.75,-553.028,0,0
322390,110.592,-552.095,0,0
322650,109.561,-551.1,0,0
322910,108.541,-550.144,0,0
323171,107.564,-548.899,0,0
323431,106.694,-547.854,0,0
323691,105.903,-546.7,0,0
323952,105.1,-545.549,0,0
324212,104.455,-544.381,0,0
324472,103.873,-543.262,0,0
324733,103.331,-542.211,0,0
324993,102.913,-541.155,0,0
325253,102.49,-540.169,0,0
325514,102.095,-539.242,0,0
325774,101.776,-538.28,0,0
326034,101.401,-537.521,0,0
326295,101.042,-536.647,0,0
326555,100.739,-535.854,0,0
326815,100.396,-535.105,0,0
327076,100.107,-534.308,0,0
327336,99.7951,-533.572,0,0
327596,99.5578,-532.869,0,0
327857,99.3653,-532.243,0,0
328117,99.1026,-531.647,0,0
328377,98.846,-530.99,0,0
328638,98.6599,-530.453,0,0
328898,98.3813,-530.031,0,0
329158,98.0821,-529.507,0,0
329419,97.8169,-529.124,0,0
329679,97.5704,-528.683,0,0
329939,97.2353,-528.422,0,0
330200,96.9369,-528.05,0,0
330460,96.5369,-527.79,0,0
330720.15,96.113,-527.515,0,0
330980.475,95.6041,-527.163,0,0
331240.8,95.1166,-526.947,0,0
331501.125,94.5855,-526.637,0,0
331761.45,93.9299,-526.354,0,0
332021.775,93.3105,-525.997,0,0
332282.1,92.6463,-525.609,0,0
332542.425,91.9993,-525.304,0,0
332802.75,91.349,-524.856,0,0
333063.075,90.6983,-524.413,0,0
333323.4,89.9963,-523.99,0,0
333583.725,89.3635,-523.588,0,0
333844.05,88.6164,-523.081,0,0
334104.375,87.8831,-522.586,0,0
334364.7,87.1421,-522.174,0,0
334625.025,86.4461,-521.753,0,0
334885.35,85.6447,-521.119,0,0
335145.675,84.9095,-520.553,0,0
335406.0,84.1328,-519.918,0,0
335666.325,83.4066,-519.375,0,0
335926.65,82.6463,-518.679,0,0
336186.975,81.9015,-518.063,0,0
336447.3,81.1555,-517.312,0,0
336707.625,80.4513,-516.599,0,0
336967.95,79.7057,-515.88,0,0
337228.275,79.0316,-515.102,0,0
337488.6,78.3329,-514.373,0,0
337748.925,77.743,-513.58,0,0
338009.25,77.1282,-512.758,0,0
338269.575,76.5195,-512.05,0,0
338529.9,75.9191,-511.168,0,0
338790.225,75.3042,-510.441,0,0
339050.55,74.71,-509.628,0,0
339310.875,74.0941,-508.801,0,0
339571.2,73.5851,-507.95,0,0
339831.525,73.0479,-507.126,0,0
340091.85,72.5399,-506.312,0,0
340352.175,71.9923,-505.448,0,0
340612.5,71.5074,-504.586,0,0
340872.825,71.0528,-503.73,0,0
341133.15,70.5858,-502.89,0,0
341393.475,70.1427,-502.093,0,0
341653.8,69.6789,-501.215,0,0
341914.125,69.2564,-500.46,0,0
342174.45,68.8265,-499.653,0,0
342434.775,68.3829,-498.805,0,0
342695.1,67.9853,-498.021,0,0
342955.425,67.5323,-497.144,0,0
343215.75,67.106,-496.369,0,0
343476.075,66.667,-495.532,0,0
343736.4,66.2472,-494.747,0,0
343996.725,65.8416,-493.949,0,0
344257.05,65.4161,-493.079,0,0
344517.375,65.0391,-492.266,0,0
344777.7,64.6086,-491.398,0,0
345038.025,64.2176,-490.595,0,0
345298.35,63.7263,-489.697,0,0
345558.675,63.3365,-488.843,0,0
345819.0,62.9564,-488.03,0,0
346079.325,62.6385,-487.1,0,0
346339.65,62.2309,-486.18,0,0
346599.975,61.877,-485.312,0,0
346860,61.445,-484.4,0,0
347121,61.184,-483.485,0,0
347381,60.8558,-482.576,0,0
347641,60.5369,-481.626,0,0
347902,60.2074,-480.711,0,0
348162,59.9609,-479.699,0,0
348422,59.6943,-478.724,0,0
348683,59.4748,-477.848,0,0
348943,59.2788,-476.889,0,0
349203,59.1038,-475.943,0,0
349464,58.8992,-474.951,0,0
349724,58.7528,-474.087,0,0
349984,58.5789,-473.186,0,0
350245,58.4344,-472.261,0,0
350505,58.2536,-471.378,0,0
350765,58.151,-470.481,0,0
351025,58.0745,-469.537,0,0
351286,57.9963,-468.676,0,0
351546,57.9071,-467.791,0,0
351806,57.9009,-466.959,0,0
352067,57.8121,-466.138,0,0
352327,57.7127,-465.266,0,0
352587,57.6359,-464.481,0,0
352848,57.5455,-463.664,0,0
353108,57.4868,-462.784,0,0
353368,57.4157,-462.011,0,0
353629,57.3561,-461.211,0,0
353889,57.2955,-460.438,0,0
354149,57.2657,-459.617,0,0
354410,57.2286,-458.851,0,0
354670,57.1053,-458.036,0,0
354930,57.0752,-457.232,0,0
355191,57.015,-456.417,0,0
355451,56.95,-455.638,0,0
355711,56.8882,-454.821,0,0
355972,56.8751,-453.973,0,0
356232,56.8731,-453.169,0,0
356492,56.8623,-452.376,0,0
356753,56.9183,-451.557,0,0
357013,56.9139,-450.787,0,0
357273,56.9894,-449.954,0,0
357534,56.973,-449.253,0,0
357794,57.0356,-448.459,0,0
358054,57.1023,-447.768,0,0
358315,57.1341,-447.033,0,0
358575,57.1395,-446.317,0,0
358835,57.2035,-445.572,0,0
359096,57.2238,-444.83,0,0
359356,57.2511,-444.093,0,0
359616,57.2979,-443.365,0,0
359877,57.3135,-442.65,0,0
360137,57.3446,-441.924,0,0
360397,57.4388,-441.194,0,0
360658,57.4767,-440.486,0,0
360918,57.5579,-439.769,0,0
361178,57.6164,-439.066,0,0
361438,57.7137,-438.392,0,0
361699,57.7967,-437.779,0,0
361959,57.8685,-437.098,0,0
362219,57.9088,-436.437,0,0
362480,57.9377,-435.728,0,0
362740.1,57.9305,-435.062,0,0
363000.425,57.9862,-434.307,0,0
363260.75,58.071,-433.589,0,0
363521.075,58.1648,-432.883,0,0
363781.4,58.2722,-432.171,0,0
364041.725,58.3257,-431.52,0,0
364302.05,58.4309,-430.837,0,0
364562.375,58.5354,-430.147,0,0
364822.7,58.6402,-429.48,0,0
365083.025,58.7873,-428.805,0,0
365343.35,58.8714,-428.168,0,0
365603.675,58.918,-427.512,0,0
365864.0,59.0076,-426.876,0,0
366124.325,59.0842,-426.181,0,0
366384.65,59.1271,-425.502,0,0
366644.975,59.2098,-424.843,0,0
366905.3,59.3268,-424.173,0,0
367165.625,59.3627,-423.456,0,0
367425.95,59.4144,-422.776,0,0
367686.275,59.4442,-422.078,0,0
367946.6,59.4983,-421.286,0,0
368206.925,59.5625,-420.508,0,0
368467.25,59.5905,-419.7,0,0
368727.575,59.725,-418.859,0,0
368987.9,59.8063,-417.948,0,0
369248.225,60.001,-416.96,0,0
369508.55,60.2559,-416.032,0,0
369768.875,60.5484,-415.117,0,0
370029.2,60.9516,-414.107,0,0
370289.525,61.3827,-413.196,0,0
370549.85,61.8991,-412.316,0,0
370810.175,62.4707,-411.431,0,0
371070.5,63.049,-410.621,0,0
371330.825,63.6967,-409.912,0,0
371591.15,64.3688,-409.167,0,0
371851.475,65.0089,-408.559,0,0
372111.8,65.7058,-407.941,0,0
372372.125,66.4333,-407.384,0,0
372632.45,67.1646,-406.935,0,0
372892.775,67.8476,-406.456,0,0
373153.1,68.5394,-406.106,0,0
373413.425,69.2257,-405.722,0,0
373673.75,69.9085,-405.417,0,0
373934.075,70.6386,-405.129,0,0
374194.4,71.3091,-404.918,0,0
374454.725,71.9576,-404.704,0,0
374715.05,72.5904,-404.607,0,0
374975.375,73.1487,-404.522,0,0
375235.7,73.7325,-404.462,0,0
375496.025,74.248,-404.408,0,0
375756.35,74.7225,-404.408,0,0
376016.675,75.1497,-404.362,0,0
376277.0,75.5366,-404.384,0,0
376537.325,75.9357,-404.345,0,0
376797.65,76.2997,-404.36,0,0
377057.975,76.6645,-404.232,0,0
377318.3,77.0172,-404.229,0,0
377578.625,77.3902,-404.228,0,0
377838.95,77.7548,-404.189,0,0
378099.275,78.098,-404.201,0,0
378359.6,78.3969,-404.247,0,0
378619.925,78.7073,-404.28,0,0
378880,78.9633,-404.395,0,0
379141,79.2315,-404.361,0,0
379401,79.4624,-404.4,0,0
379661,79.6522,-404.425,0,0
379922,79.9351,-404.412,0,0
380182,80.1605,-404.385,0,0
380442,80.4642,-404.375,0,0
380703,80.7701,-404.415,0,0
380963,81.1737,-404.433,0,0
381223,81.5078,-404.6,0,0
381483,81.9586,-404.814,0,0
381744,82.2692,-405.121,0,0
382004,82.6093,-405.533,0,0
382264,82.7852,-405.993,0,0
382525,82.8996,-406.493,0,0
382785,82.8891,-406.994,0,0
383045,82.8324,-407.466,0,0
383306,82.7452,-407.929,0,0
383566,82.5161,-408.394,0,0
383826,82.2311,-408.823,0,0
384087,81.9194,-409.258,0,0
384347,81.5219,-409.624,0,0
384607,81.1107,-409.962,0,0
384868,80.5684,-410.223,0,0
385128,80.0786,-410.434,0,0
385388,79.5534,-410.598,0,0
385649,78.9758,-410.717,0,0
385909,78.4413,-410.836,0,0
386169,77.8542,-410.853,0,0
386430,77.2053,-410.883,0,0
386690,76.6348,-410.828,0,0
386950,75.9691,-410.764,0,0
387211,75.3161,-410.632,0,0
387471,74.7059,-410.376,0,0
387731,74.0886,-410.09,0,0
387992,73.4633,-409.753,0,0
388252,72.9254,-409.384,0,0
388512,72.4273,-408.98,0,0
388773,71.9309,-408.538,0,0
389033,71.4911,-408.09,0,0
389293,71.1187,-407.646,0,0
389554,70.8341,-407.259,0,0
389814,70.5002,-406.822,0,0
390074,70.1823,-406.409,0,0
390335,69.9227,-405.996,0,0
390595,69.6784,-405.657,0,0
390855,69.4123,-405.275,0,0
391116,69.1438,-404.957,0,0
391376,68.8925,-404.626,0,0
391636,68.595,-404.36,0,0
391896,68.3382,-404.056,0,0
392157,68.0182,-403.769,0,0
392417,67.7049,-403.45,0,0
392677,67.3416,-403.177,0,0
392938,67.0043,-402.882,0,0
393198,66.643,-402.611,0,0
393458,66.23,-402.271,0,0
393719,65.7925,-401.922,0,0
393979,65.3491,-401.616,0,0
394239,64.8701,-401.215,0,0
394500,64.3568,-400.81,0,0
394760.05,63.9466,-400.329,0,0
395020.375,63.4501,-399.826,0,0
395280.7,62.9998,-399.338,0,0
395541.025,62.5382,-398.771,0,0
395801.35,62.1102,-398.191,0,0
396061.675,61.718,-397.566,0,0
396322.0,61.3204,-396.911,0,0
396582.325,60.9321,-396.27,0,0
396842.65,60.6343,-395.635,0,0
397102.975,60.3334,-394.933,0,0
397363.3,60.0266,-394.235,0,0
397623.625,59.7605,-393.617,0,0
397883.95,59.5347,-392.925,0,0
398144.275,59.2898,-392.256,0,0
398404.6,59.1145,-391.565,0,0
398664.925,58.8602,-390.906,0,0
398925.25,58.6498,-390.241,0,0
399185.575,58.4599,-389.561,0,0
399445.9,58.3043,-388.928,0,0
399706.225,58.09,-388.228,0,0
399966.55,57.8998,-387.51,0,0
400006.6,57.8602,-387.382,0,0