File: Accelerated corrosion test data/2025-10-11_06-00-04/sample_3.csv
Frequency (Hz),Impedance (ohms),Phase (Radians),Temperature (C),Humidity (%)
10000.0,249.132,-11794,0,0
10260.325,243.107,-11496.7,0,0
10520.65,237.893,-11213.9,0,0
10780.975,233.449,-10944.2,0,0
11041.3,227.366,-10692,0,0
11301.625,222.239,-10446.7,0,0
11561.95,217.336,-10212.7,0,0
11822.275,213.103,-9989.28,0,0
12082.6,210.442,-9775.4,0,0
12342.925,208.089,-9569.48,0,0
12603.25,201.24,-9375.51,0,0
12863.575,197.641,-9185.62,0,0
13123.9,197.245,-9002.36,0,0
13384.225,191.193,-8833.98,0,0
13644.55,189.319,-8666.25,0,0
13904.875,184.581,-8502.55,0,0
14165.2,184.094,-8345.57,0,0
14425.525,178.674,-8195.81,0,0
14685.8,175.944,-8051.07,0,0
14946.175,174.891,-7912.26,0,0
15206.5,171.244,-7771.81,0,0
15466.825,177.608,-7632.67,0,0
15727.15,193.337,-7530.13,0,0
15987.5,172.342,-7417.87,0,0
16247.8,165.848,-7289.25,0,0
16508.125,160.631,-7177.16,0,0
16768.45,165.163,-7056.55,0,0
17028.775,156.171,-6958.51,0,0
17289.1,159.014,-6844.96,0,0
17549.425,155.998,-6753.44,0,0
17809.75,154.913,-6648.13,0,0
18070.075,160.848,-6562.03,0,0
18330.4,149.547,-6467.96,0,0
18590.725,147.528,-6376.46,0,0
18851.05,143.927,-6286.13,0,0
19111.375,144.968,-6196.59,0,0
19371.7,144.253,-6113.54,0,0
19632.025,145.138,-6030.11,0,0
19892.35,145.13,-5949.83,0,0
20152.675,148.864,-5873.69,0,0
20413.0,158.174,-5797,0,0
20673.3,161.504,-5727.73,0,0
20933.65,161.669,-5677.12,0,0
21193.975,159.67,-5608.96,0,0
21454.3,144.989,-5550.31,0,0
21714.625,137.601,-5475.33,0,0
21974.9,140.862,-5409.65,0,0
22235.275,138.398,-5350.82,0,0
22495.6,135.771,-5288.59,0,0
22755.925,128.098,-5228.63,0,0
23016.25,127.353,-5169.18,0,0
23276.6,127.017,-5107.34,0,0
23536.9,128.304,-5061.14,0,0
23797.225,120.622,-5002.59,0,0
24057.55,118.227,-4945.67,0,0
24317.875,118.258,-4889.75,0,0
24578.2,116.04,-4840.42,0,0
24838.525,116.605,-4786.94,0,0
25098.85,115.444,-4740.15,0,0
25359.175,112.556,-4690.62,0,0
25619.5,112.781,-4642.74,0,0
25879.8,109.972,-4596.26,0,0
26140.1,107.836,-4548.57,0,0
26400.5,106.808,-4502.05,0,0
26660.8,106.535,-4456.57,0,0
26921.1,107.027,-4412.01,0,0
27181.4,107.61,-4371.43,0,0
27441.8,106.669,-4328.2,0,0
27702.1,107.147,-4288.44,0,0
27962.4,105.18,-4248.51,0,0
28222.7,102.6,-4205.19,0,0
28483.1,109.763,-4162.91,0,0
28743.4,112.293,-4128.38,0,0
29003.7,114.711,-4097.87,0,0
29264,107.665,-4064.85,0,0
29524.4,107.935,-4028.18,0,0
29784.7,103.609,-3993.7,0,0
30045,101.184,-3959.71,0,0
30305.3,99.9053,-3922.07,0,0
30565.7,101.067,-3888.25,0,0
30826,100.809,-3856.29,0,0
31086.3,101.637,-3823.26,0,0
31346.6,98.1431,-3793.21,0,0
31607,97.0774,-3759.2,0,0
31867.3,97.2799,-3724.95,0,0
32127.6,100.484,-3691.75,0,0
32387.9,108.854,-3663.21,0,0
32648.3,111.001,-3645.6,0,0
32908.6,103.832,-3621.23,0,0
33168.9,100.176,-3594.21,0,0
33429.2,99.0884,-3566.66,0,0
33689.6,93.1014,-3539.66,0,0
33949.9,90.1388,-3509.87,0,0
34210.2,90.0526,-3481.77,0,0
34470.5,89.4408,-3455.62,0,0
34730.9,87.2774,-3429.15,0,0
34991.2,85.967,-3402.85,0,0
35251.5,84.8083,-3376.74,0,0
35511.8,84.2401,-3351.49,0,0
35772.2,83.5798,-3326.01,0,0
36032.5,82.7242,-3301.42,0,0
36292.8,82.1972,-3277.04,0,0
36553.1,81.8358,-3253.08,0,0
36813.5,80.9401,-3229.81,0,0
37073.8,80.3904,-3206.55,0,0
37334.1,79.7406,-3183.53,0,0
37594.4,79.3791,-3160.93,0,0
37854.8,78.6117,-3138.68,0,0
38115.1,78.2589,-3116.61,0,0
38375.4,77.7431,-3094.81,0,0
38635.7,77.4931,-3073.63,0,0
38896.1,76.934,-3052.61,0,0
39156.4,76.8122,-3031.69,0,0
39416.7,76.3436,-3011.49,0,0
39677,75.9137,-2991.22,0,0
39937.4,74.9886,-2971.06,0,0
40197.7,74.9018,-2951.29,0,0
40458,74.679,-2931.88,0,0
40718.3,74.0501,-2912.41,0,0
40978.7,73.9251,-2893.11,0,0
41239,73.816,-2873.97,0,0
41499.3,73.7899,-2855.87,0,0
41759.6,73.75,-2837.21,0,0
42020,73.2711,-2819.86,0,0
42280.275,73.1507,-2801.93,0,0
42540.6,72.6238,-2784.4,0,0
42800.925,72.5406,-2767.07,0,0
43061.25,72.1841,-2750.21,0,0
43321.575,71.47,-2732.8,0,0
43581.9,71.1092,-2715.65,0,0
43842.225,71.1807,-2698.72,0,0
44102.55,71.5114,-2682.59,0,0
44362.875,71.6014,-2666.67,0,0
44623.2,70.8675,-2651.03,0,0
44883.525,70.7184,-2634.67,0,0
45143.85,70.4821,-2619.3,0,0
45404.175,69.891,-2603.82,0,0
45664.5,69.7333,-2587.87,0,0
45924.825,70.3889,-2572.83,0,0
46185.15,69.9373,-2558.71,0,0
46445.475,69.41,-2543.56,0,0
46705.8,69.3527,-2528.23,0,0
46966.125,69.0051,-2514.18,0,0
47226.45,69.1598,-2499.7,0,0
47486.775,68.9882,-2485.24,0,0
47747.1,69.6326,-2470.91,0,0
48007.425,69.894,-2458.01,0,0
48267.75,69.9337,-2444.81,0,0
48528.075,69.1494,-2431.57,0,0
48788.4,68.8329,-2418.52,0,0
49048.725,68.0638,-2405.38,0,0
49309.05,67.407,-2392.05,0,0
49569.375,67.4198,-2378.54,0,0
49829.7,67.2452,-2365.94,0,0
50090.025,66.6453,-2353.19,0,0
50350.35,66.1078,-2340.25,0,0
50610.675,65.9302,-2327.33,0,0
50871.0,65.9114,-2314.83,0,0
51131.325,65.7722,-2302.23,0,0
51391.65,65.6157,-2289.83,0,0
51651.975,65.6568,-2277.46,0,0
51912.3,65.6161,-2265.63,0,0
52172.625,65.4496,-2253.57,0,0
52432.95,65.4501,-2241.47,0,0
52693.275,65.7435,-2229.53,0,0
52953.6,66.0715,-2217.85,0,0
53213.925,66.6777,-2206.12,0,0
53474.25,67.5497,-2195.3,0,0
53734.575,67.6659,-2184.55,0,0
53994.9,67.9264,-2173.65,0,0
54255.225,68.9404,-2162.99,0,0
54515.55,69.7607,-2153.6,0,0
54775.875,69.087,-2144.41,0,0
55036.2,68.4224,-2134.78,0,0
55296.525,67.6779,-2125.18,0,0
55556.85,66.3039,-2115.46,0,0
55817.175,64.6454,-2104.98,0,0
56077.5,63.8039,-2094.38,0,0
56337.825,63.1254,-2083.88,0,0
56598.15,62.0328,-2073.3,0,0
56858.475,61.2894,-2062.69,0,0
57118.8,61.0088,-2051.84,0,0
57379.125,60.7094,-2041.29,0,0
57639.45,60.6211,-2030.82,0,0
57899.775,60.8543,-2020.64,0,0
58160.1,60.776,-2010.7,0,0
58420.4,60.5669,-2000.79,0,0
58680.7,60.7208,-1990.58,0,0
58941.1,60.7889,-1980.91,0,0
59201.4,60.9331,-1971.06,0,0
59461.7,61.2122,-1961.44,0,0
59722,61.577,-1951.92,0,0
59982.4,61.7712,-1942.64,0,0
60242.7,62.0675,-1933.33,0,0
60503,62.2633,-1924.17,0,0
60763.3,62.5798,-1914.79,0,0
61023.7,62.9727,-1905.65,0,0
61284,63.3682,-1896.68,0,0
61544.3,63.8804,-1887.53,0,0
61804.6,64.576,-1879.02,0,0
62065,64.6615,-1870.04,0,0
62325.3,65.2955,-1861.32,0,0
62585.6,65.7511,-1852.71,0,0
62845.9,66.323,-1843.52,0,0
63106.3,67.4006,-1834.79,0,0
63366.6,68.2897,-1826.48,0,0
63626.9,69.3974,-1817.55,0,0
63887.2,70.8992,-1809.26,0,0
64147.6,72.2756,-1800.63,0,0
64407.9,74.6067,-1792.52,0,0
64668.2,77.1257,-1784.68,0,0
64928.5,79.9114,-1777.2,0,0
65188.9,83.7336,-1771.11,0,0
65449.2,86.6657,-1766.74,0,0
65709.5,88.3893,-1762.26,0,0
65969.8,91.5377,-1759.11,0,0
66230.2,91.0783,-1759.66,0,0
66490.5,85.2623,-1757.3,0,0
66750.8,80.3718,-1750.4,0,0
67011.1,77.6093,-1741.71,0,0
67271.5,75.5458,-1733.94,0,0
67531.8,74.525,-1725.31,0,0
67792.1,74.6865,-1717.32,0,0
68052.4,74.6171,-1709.87,0,0
68312.8,75.4645,-1702.65,0,0
68573.1,75.7395,-1696.29,0,0
68833.4,75.8823,-1690.04,0,0
69093.7,76.4655,-1683.42,0,0
69354.1,76.7528,-1678.19,0,0
69614.4,76.4898,-1672.74,0,0
69874.7,75.4239,-1667.22,0,0
70135,74.7081,-1661.39,0,0
70395.4,73.8328,-1655.57,0,0
70655.7,72.543,-1649.52,0,0
70916,71.4189,-1643.21,0,0
71176.3,70.3917,-1636.71,0,0
71436.7,69.7225,-1630.04,0,0
71697,68.7868,-1623.28,0,0
71957.3,68.9114,-1616.35,0,0
72217.6,68.9424,-1610.14,0,0
72478,68.9656,-1603.99,0,0
72738.3,69.102,-1598.26,0,0
72998.6,68.8883,-1592.69,0,0
73258.9,68.267,-1587.16,0,0
73519.3,67.8448,-1581.3,0,0
73779.6,67.4822,-1575.64,0,0
74039.9,66.8781,-1570.19,0,0
74300.225,66.1374,-1564.6,0,0
74560.55,65.3109,-1558.88,0,0
74820.875,64.6444,-1553.12,0,0
75081.2,63.8676,-1547.41,0,0
75341.525,63.0875,-1541.66,0,0
75601.85,62.3647,-1535.82,0,0
75862.175,61.6355,-1529.97,0,0
76122.5,60.9419,-1524.09,0,0
76382.825,60.3261,-1518.23,0,0
76643.15,59.7604,-1512.35,0,0
76903.475,59.2564,-1506.51,0,0
77163.8,58.8359,-1500.65,0,0
77424.125,58.3372,-1495.04,0,0
77684.45,57.8701,-1489.28,0,0
77944.775,57.3398,-1483.64,0,0
78205.1,56.8236,-1477.91,0,0
78465.425,56.3416,-1472.2,0,0
78725.75,55.9724,-1466.49,0,0
78986.075,55.5847,-1460.78,0,0
79246.4,55.234,-1455.14,0,0
79506.725,54.8715,-1449.46,0,0
79767.05,54.6188,-1443.91,0,0
80027.375,54.279,-1438.29,0,0
80287.7,54.0532,-1432.77,0,0
80548.025,53.9038,-1427.35,0,0
80808.35,53.6649,-1421.88,0,0
81068.675,53.4907,-1416.41,0,0
81329.0,53.2466,-1411,0,0
81589.325,53.0915,-1405.57,0,0
81849.65,52.9196,-1400.24,0,0
82109.975,52.7644,-1394.98,0,0
82370.3,52.6961,-1389.64,0,0
82630.625,52.6236,-1384.35,0,0
82890.95,52.5727,-1379.14,0,0
83151.275,52.4649,-1373.93,0,0
83411.6,52.3938,-1368.82,0,0
83671.925,52.3117,-1363.65,0,0
83932.25,52.2672,-1358.54,0,0
84192.575,52.2632,-1353.55,0,0
84452.9,52.1221,-1348.49,0,0
84713.225,52.1113,-1343.41,0,0
84973.55,52.1147,-1338.37,0,0
85233.875,52.1901,-1333.39,0,0
85494.2,52.1573,-1328.52,0,0
85754.525,52.17,-1323.49,0,0
86014.85,52.3098,-1318.73,0,0
86275.175,52.295,-1313.86,0,0
86535.5,52.2825,-1309.04,0,0
86795.825,52.2693,-1304.12,0,0
87056.15,52.3468,-1299.37,0,0
87316.475,52.4513,-1294.47,0,0
87576.8,52.5709,-1289.72,0,0
87837.125,52.6891,-1284.99,0,0
88097.45,52.9443,-1280.23,0,0
88357.775,52.9657,-1275.56,0,0
88618.1,53.1773,-1270.81,0,0
88878.425,53.4025,-1266.03,0,0
89138.75,53.6777,-1261.21,0,0
89399.075,54.1846,-1256.51,0,0
89659.4,54.6449,-1252,0,0
89919.725,55.2647,-1247.57,0,0
90180,55.7324,-1243.24,0,0
90440.4,56.1629,-1239.01,0,0
90700.7,56.4809,-1234.8,0,0
90961,56.8457,-1230.5,0,0
91221.3,57.3674,-1226.28,0,0
91481.7,57.9292,-1222.13,0,0
91742,58.4787,-1218.08,0,0
92002.3,58.9567,-1214.11,0,0
92262.6,59.5003,-1209.97,0,0
92523,60.1525,-1206.15,0,0
92783.3,60.802,-1202.59,0,0
93043.6,61.199,-1198.89,0,0
93303.9,61.9139,-1195.3,0,0
93564.3,62.5864,-1191.97,0,0
93824.6,63.1385,-1188.97,0,0
94084.9,63.4938,-1186.3,0,0
94345.2,63.1215,-1183.65,0,0
94605.6,62.7931,-1180.67,0,0
94865.9,62.2949,-1178.05,0,0
95126.2,61.0718,-1175.28,0,0
95386.5,59.3098,-1171.57,0,0
95646.9,58.2633,-1167.24,0,0
95907.2,57.6928,-1163.04,0,0
96167.5,56.9341,-1158.85,0,0
96427.8,56.5126,-1154.33,0,0
96688.2,56.4465,-1150.06,0,0
96948.5,56.4195,-1145.96,0,0
97208.8,56.2801,-1141.92,0,0
97469.1,56.2758,-1137.95,0,0
97729.5,56.236,-1134.05,0,0
97989.8,56.1986,-1130.16,0,0
98250.1,56.125,-1126.25,0,0
98510.4,56.0835,-1122.43,0,0
98770.8,56.1564,-1118.58,0,0
99031.1,56.0811,-1114.95,0,0
99291.4,55.9383,-1111.21,0,0
99551.7,55.6752,-1107.43,0,0
99812.1,55.5209,-1103.49,0,0
100072,55.4292,-1099.65,0,0
100333,55.3541,-1095.8,0,0
100593,55.1816,-1091.91,0,0
100853,55.0082,-1087.89,0,0
101114,55.0943,-1083.77,0,0
101374,55.1243,-1079.78,0,0
101634,55.2662,-1075.7,0,0
101895,55.5393,-1071.64,0,0
102155,55.8652,-1067.52,0,0
102415,56.3017,-1063.36,0,0
102676,57.1516,-1059.31,0,0
102936,58.1812,-1055.65,0,0
103196,58.9874,-1052.37,0,0
103457,59.5738,-1048.99,0,0
103717,60.2342,-1045.61,0,0
103977,60.9185,-1042.25,0,0
104238,61.9101,-1038.98,0,0
104498,62.9083,-1036.32,0,0
104758,63.4574,-1033.99,0,0
105019,63.4989,-1031.55,0,0
105279,63.4755,-1028.77,0,0
105539,63.4855,-1025.94,0,0
105800,63.4894,-1023.31,0,0
106060,63.2848,-1020.66,0,0
106320.175,62.9137,-1017.88,0,0
106580.5,62.4392,-1014.95,0,0
106840.825,62.0609,-1012.02,0,0
107101.15,61.4437,-1008.96,0,0
107361.475,60.8789,-1005.66,0,0
107621.8,60.4231,-1002.3,0,0
107882.125,60.001,-998.848,0,0
108142.45,59.6533,-995.421,0,0
108402.775,59.2652,-991.911,0,0
108663.1,58.939,-988.358,0,0
108923.425,58.6417,-984.653,0,0
109183.75,58.4364,-980.863,0,0
109444.075,58.4911,-977.028,0,0
109704.4,58.6096,-973.439,0,0
109964.725,58.6528,-969.858,0,0
110225.05,58.7165,-966.064,0,0
110485.375,58.9025,-962.287,0,0
110745.7,59.261,-958.478,0,0
111006.025,60.0537,-954.874,0,0
111266.35,60.659,-951.629,0,0
111526.675,60.9684,-948.234,0,0
111787.0,61.4184,-944.873,0,0
112047.325,61.9677,-941.603,0,0
112307.65,62.4187,-938.395,0,0
112567.975,62.8916,-935.368,0,0
112828.3,63.2056,-932.226,0,0
113088.625,63.5179,-929.047,0,0
113348.95,63.8235,-925.882,0,0
113609.275,64.1102,-922.77,0,0
113869.6,64.432,-919.553,0,0
114129.925,64.7457,-916.33,0,0
114390.25,65.0302,-913.145,0,0
114650.575,65.2278,-909.788,0,0
114910.9,65.6509,-906.287,0,0
115171.225,66.1343,-902.876,0,0
115431.55,66.7973,-899.441,0,0
115691.875,67.4672,-896.194,0,0
115952.2,68.1003,-892.999,0,0
116212.525,68.6884,-889.604,0,0
116472.85,69.4864,-886.155,0,0
116733.175,70.5597,-882.877,0,0
116993.5,71.599,-879.776,0,0
117253.825,72.5195,-876.778,0,0
117514.15,73.3528,-873.59,0,0
117774.475,74.6219,-870.131,0,0
118034.8,76.3809,-867.103,0,0
118295.125,78.1044,-864.591,0,0
118555.45,79.6114,-862.424,0,0
118815.775,80.6811,-860.356,0,0
119076.1,81.6458,-857.952,0,0
119336.425,82.9141,-855.368,0,0
119596.75,84.7057,-853.139,0,0
119857.075,86.3981,-851.597,0,0
120117.4,87.814,-850.551,0,0
120377.725,88.6161,-849.764,0,0
120638.05,88.7788,-848.84,0,0
120898.375,88.7814,-847.714,0,0
121158.7,88.5043,-846.415,0,0
121419.025,87.9047,-844.997,0,0
121679.35,87.0084,-843.091,0,0
121939.675,86.201,-840.591,0,0
122200.0,85.8881,-837.778,0,0
122460,85.8903,-835.069,0,0
122721,85.9887,-832.509,0,0
122981,86.1068,-829.861,0,0
123241,86.5559,-827.292,0,0
123502,86.9231,-824.993,0,0
123762,87.1748,-822.738,0,0
124022,87.4681,-820.395,0,0
124283,87.7907,-818.163,0,0
124543,88.0484,-815.975,0,0
124803,88.3751,-813.767,0,0
125064,88.672,-811.623,0,0
125324,88.9449,-809.62,0,0
125584,89.1341,-807.596,0,0
125845,89.3683,-805.621,0,0
126105,89.4622,-803.765,0,0
126365,89.4247,-801.921,0,0
126626,89.2477,-800.029,0,0
126886,89.014,-797.963,0,0
127146,88.7854,-795.948,0,0
127406,88.468,-793.838,0,0
127667,88.2073,-791.681,0,0
127927,87.8984,-789.482,0,0
128187,87.5457,-787.35,0,0
128448,87.0867,-785.089,0,0
128708,86.5297,-782.63,0,0
128968,86.135,-779.965,0,0
129229,85.8831,-777.299,0,0
129489,85.7318,-774.705,0,0
129749,85.4975,-772.071,0,0
130010,85.325,-769.288,0,0
130270,85.4441,-766.381,0,0
130530,85.7734,-763.639,0,0
130791,86.2112,-761.283,0,0
131051,86.4854,-759.031,0,0
131311,86.5913,-756.893,0,0
131572,86.6042,-754.769,0,0
131832,86.4843,-752.6,0,0
132092,86.2945,-750.341,0,0
132353,86.0318,-748.019,0,0
132613,85.8468,-745.509,0,0
132873,85.7677,-743.026,0,0
133134,85.7078,-740.709,0,0
133394,85.5898,-738.377,0,0
133654,85.3949,-736.118,0,0
133915,85.0492,-733.783,0,0
134175,84.6627,-731.234,0,0
134435,84.4221,-728.687,0,0
134696,84.1982,-726.16,0,0
134956,83.827,-723.624,0,0
135216,83.48,-720.879,0,0
135477,83.259,-718.17,0,0
135737,83.1056,-715.529,0,0
135997,82.8385,-712.89,0,0
136258,82.4643,-710.174,0,0
136518,82.0377,-707.191,0,0
136778,81.867,-704.051,0,0
137039,81.8851,-700.93,0,0
137299,82.0738,-697.894,0,0
137559,82.2981,-694.984,0,0
137819,82.533,-692.213,0,0
138080,82.6659,-689.405,0,0
138340.125,82.9267,-686.559,0,0
138600.45,83.3309,-683.89,0,0
138860.775,83.5533,-681.536,0,0
139121.1,83.5227,-679.113,0,0
139381.425,83.3733,-676.594,0,0
139641.75,83.086,-673.947,0,0
139902.075,82.8263,-671.084,0,0
140162.4,82.6474,-668.12,0,0
140422.725,82.6962,-665.066,0,0
140683.05,82.8187,-662.231,0,0
140943.375,82.8002,-659.517,0,0
141203.7,82.6597,-656.706,0,0
141464.025,82.4535,-653.844,0,0
141724.35,82.1873,-650.849,0,0
141984.675,81.9462,-647.663,0,0
142245.0,81.8832,-644.402,0,0
142505.325,81.8448,-641.207,0,0
142765.65,81.7701,-637.966,0,0
143025.975,81.7411,-634.627,0,0
143286.3,81.7408,-631.26,0,0
143546.625,81.8385,-627.812,0,0
143806.95,81.9374,-624.344,0,0
144067.275,82.1021,-620.86,0,0
144327.6,82.2799,-617.305,0,0
144587.925,82.5157,-613.691,0,0
144848.25,82.8538,-610.063,0,0
145108.575,83.2803,-606.432,0,0
145368.9,83.735,-602.837,0,0
145629.225,84.1346,-599.196,0,0
145889.55,84.5665,-595.515,0,0
146149.875,85.0371,-591.69,0,0
146410.2,85.7308,-587.834,0,0
146670.525,86.4297,-584.081,0,0
146930.85,87.0829,-580.253,0,0
147191.175,87.8558,-576.309,0,0
147451.5,88.6755,-572.395,0,0
147711.825,89.5509,-568.31,0,0
147972.15,90.6862,-564.194,0,0
148232.475,91.9382,-560.191,0,0
148492.8,93.2015,-556.271,0,0
148753.125,94.4589,-552.308,0,0
149013.45,95.7837,-548.224,0,0
149273.775,97.2361,-544.074,0,0
149534.1,98.8704,-539.807,0,0
149794.425,100.788,-535.551,0,0
150054.75,102.958,-531.491,0,0
150315.075,105.203,-527.543,0,0
150575.4,107.606,-523.703,0,0
150835.725,110.128,-520.054,0,0
151096.05,112.701,-516.623,0,0
151356.375,115.227,-513.327,0,0
151616.7,117.764,-510.111,0,0
151877.025,120.277,-507.016,0,0
152137.35,122.832,-503.968,0,0
152397.675,125.449,-501.07,0,0
152658.0,127.991,-498.336,0,0
152918.325,130.522,-495.677,0,0
153178.65,133.028,-493.242,0,0
153438.975,135.208,-490.977,0,0
153699.3,137.192,-488.558,0,0
153959.625,139.211,-486.016,0,0
154219.95,141.248,-483.571,0,0
154480,143.099,-481.309,0,0
154741,144.471,-479.029,0,0
155001,145.527,-476.197,0,0
155261,146.721,-472.67,0,0
155522,148.672,-468.773,0,0
155782,151.066,-465.275,0,0
156042,153.435,-462.197,0,0
156303,155.526,-459.033,0,0
156563,157.509,-455.646,0,0
156823,159.685,-451.769,0,0
157084,162.767,-447.799,0,0
157344,166.32,-444.24,0,0
157604,170.175,-441.536,0,0
157864,173.521,-439.439,0,0
158125,176.586,-437.396,0,0
158385,179.585,-435.984,0,0
158645,181.225,-434.821,0,0
158906,182.088,-432.829,0,0
159166,182.586,-429.893,0,0
159426,183.483,-426.184,0,0
159687,184.205,-422.139,0,0
159947,185.039,-416.808,0,0
160207,187.27,-410.508,0,0
160468,190.6,-404.666,0,0
160728,194.539,-398.709,0,0
160988,199.529,-393.443,0,0
161249,203.981,-389.229,0,0
161509,208,-384.227,0,0
161769,212.967,-378.33,0,0
162030,219.227,-373.054,0,0
162290,225.713,-368.678,0,0
162550,232.28,-364.393,0,0
162811,238.996,-360.474,0,0
163071,245.745,-356.392,0,0
163331,253.182,-352.193,0,0
163592,261.36,-348.329,0,0
163852,270.105,-344.989,0,0
164112,279.38,-342.36,0,0
164373,288.722,-340.387,0,0
164633,298.287,-338.407,0,0
164893,309.13,-336.845,0,0
165154,321.255,-337.079,0,0
165414,332.655,-339.883,0,0
165674,342.137,-343.175,0,0
165935,351.465,-346.025,0,0
166195,361.524,-349.595,0,0
166455,371.337,-354.492,0,0
166716,380.424,-360.785,0,0
166976,388.188,-367.907,0,0
167236,394.736,-375.255,0,0
167497,400.104,-382.648,0,0
167757,404.738,-389.284,0,0
168017,409.457,-395.758,0,0
168277,414.275,-402.82,0,0
168538,418.125,-410.488,0,0
168798,421.297,-418.136,0,0
169058,424.03,-425.781,0,0
169319,426.37,-434.24,0,0
169579,427.09,-443.656,0,0
169839,425.327,-452.691,0,0
170100,421.927,-459.674,0,0
170360.075,418.498,-464.703,0,0
170620.4,415.453,-468.74,0,0
170880.725,412.572,-472.214,0,0
171141.05,409.692,-475.055,0,0
171401.375,406.724,-476.889,0,0
171661.7,404.552,-477.576,0,0
171922.025,403.616,-478.368,0,0
172182.35,402.605,-479.473,0,0
172442.675,401.619,-480.092,0,0
172703.0,400.857,-479.972,0,0
172963.325,401.704,-478.894,0,0
173223.65,404.548,-479.084,0,0
173483.975,407.383,-481.411,0,0
173744.3,408.973,-484.562,0,0
174004.625,409.465,-487.28,0,0
174264.95,410.698,-489.231,0,0
174525.275,412.837,-492.332,0,0
174785.6,414.051,-496.842,0,0
175045.925,414.074,-501.244,0,0
175306.25,413.395,-505.495,0,0
175566.575,412.318,-509.085,0,0
175826.9,411.496,-512.603,0,0
176087.225,410.429,-516.421,0,0
176347.55,408.814,-520.199,0,0
176607.875,407.101,-523.663,0,0
176868.2,405.323,-527.988,0,0
177128.525,401.998,-532.878,0,0
177388.85,397.017,-536.523,0,0
177649.175,391.85,-538.577,0,0
177909.5,386.973,-540.066,0,0
178169.825,381.538,-541.04,0,0
178430.15,375.818,-540.52,0,0
178690.475,370.908,-538.667,0,0
178950.8,367.017,-536.174,0,0
179211.125,364.062,-533.484,0,0
179471.45,361.601,-530.954,0,0
179731.775,359.389,-528.016,0,0
179992.1,358.349,-524.583,0,0
180252.425,358.459,-521.834,0,0
180512.75,358.736,-519.968,0,0
180773.075,359.018,-518.276,0,0
181033.4,359.496,-516.799,0,0
181293.725,360.441,-515.566,0,0
181554.05,361.707,-515.112,0,0
181814.375,363.188,-515.553,0,0
182074.7,364.049,-517.484,0,0
182335.025,363.247,-519.694,0,0
182595.35,361.254,-521.405,0,0
182855.675,358.941,-522.222,0,0
183116.0,356.677,-522.545,0,0
183376.325,354.463,-522.88,0,0
183636.65,351.776,-523.225,0,0
183896.975,348.393,-523.175,0,0
184157.3,344.606,-522.075,0,0
184417.625,341.371,-520.008,0,0
184677.95,338.697,-517.926,0,0
184938.275,335.905,-515.795,0,0
185198.6,333.104,-513.173,0,0
185458.925,330.488,-510.182,0,0
185719.25,328.042,-506.812,0,0
185979.575,325.726,-502.981,0,0
186239.9,323.848,-498.651,0,0
186500,322.576,-493.811,0,0
186761,322.153,-488.764,0,0
187021,322.585,-483.974,0,0
187281,323.366,-479.672,0,0
187542,324.268,-475.558,0,0
187802,325.584,-471.476,0,0
188062,327.324,-467.845,0,0
188322,329.179,-464.668,0,0
188583,331.072,-462.01,0,0
188843,332.476,-459.89,0,0
189103,333.137,-457.505,0,0
189364,333.776,-454.355,0,0
189624,334.982,-450.807,0,0
189884,336.772,-447.362,0,0
190145,338.906,-444.36,0,0
190405,340.904,-441.732,0,0
190665,342.8,-439.167,0,0
190926,344.691,-436.626,0,0
191186,346.537,-434.147,0,0
191446,348.335,-431.674,0,0
191707,349.971,-429.069,0,0
191967,351.758,-426.209,0,0
192227,353.779,-423.452,0,0
192488,355.544,-420.774,0,0
192748,357.105,-417.691,0,0
193008,358.865,-413.909,0,0
193269,361.362,-409.705,0,0
193529,364.569,-405.54,0,0
193789,368.336,-401.624,0,0
194050,372.387,-397.919,0,0
194310,376.848,-394.193,0,0
194570,381.908,-390.655,0,0
194831,387.578,-387.351,0,0
195091,393.969,-384.679,0,0
195351,400.762,-382.893,0,0
195612,407.764,-382.048,0,0
195872,414.492,-382.186,0,0
196132,420.96,-382.912,0,0
196393,427.516,-384.464,0,0
196653,433.291,-386.949,0,0
196913,437.858,-390.232,0,0
197174,440.919,-393.394,0,0
197434,442.932,-395.695,0,0
197694,444.776,-396.888,0,0
197955,447.231,-397.442,0,0
198215,450.173,-398.198,0,0
198475,453.168,-399.291,0,0
198735,455.792,-400.828,0,0
198996,457.513,-402.15,0,0
199256,459.098,-402.394,0,0
199516,461.681,-402.22,0,0
199777,464.934,-402.989,0,0
200037,467.445,-404.66,0,0
200297,468.672,-406.301,0,0
200558,468.998,-406.882,0,0
200818,469.424,-406.034,0,0
201078,470.583,-404.308,0,0
201339,472.646,-402.27,0,0
201599,475.399,-400.245,0,0
201859,478.631,-398.414,0,0
202120,482.151,-396.623,0,0
202380.025,486.056,-394.697,0,0
202640.35,490.731,-392.877,0,0
202900.675,496.035,-391.45,0,0
203161.0,501.76,-390.548,0,0
203421.325,507.762,-390.143,0,0
203681.65,513.98,-390.346,0,0
203941.975,520.236,-391.19,0,0
204202.3,526.44,-392.462,0,0
204462.625,532.702,-394.431,0,0
204722.95,538.529,-397.061,0,0
204983.275,543.857,-399.918,0,0
205243.6,549.073,-403.081,0,0
205503.925,553.725,-406.749,0,0
205764.25,557.813,-410.902,0,0
206024.575,560.68,-415.023,0,0
206284.9,562.379,-418.55,0,0
206545.225,563.652,-420.636,0,0
206805.55,565.335,-421.765,0,0
207065.875,567.401,-421.981,0,0
207326.2,570.519,-421.349,0,0
207586.525,575.058,-420.78,0,0
207846.85,580.508,-420.95,0,0
208107.175,586.212,-421.722,0,0
208367.5,592.267,-422.768,0,0
208627.825,598.737,-424.473,0,0
208888.15,605.261,-426.774,0,0
209148.475,611.853,-429.529,0,0
209408.8,618.524,-432.745,0,0
209669.125,625.215,-436.485,0,0
209929.45,631.867,-440.717,0,0
210189.775,638.366,-445.551,0,0
210450.1,644.573,-450.83,0,0
210710.425,650.616,-456.46,0,0
210970.75,656.424,-462.474,0,0
211231.075,661.92,-468.93,0,0
211491.4,666.997,-475.687,0,0
211751.725,671.584,-482.589,0,0
212012.05,675.875,-489.442,0,0
212272.375,680.051,-496.324,0,0
212532.7,684.072,-503.362,0,0
212793.025,688.095,-510.504,0,0
213053.35,692.152,-517.888,0,0
213313.675,695.983,-525.756,0,0
213574.0,699.381,-534.189,0,0
213834.325,702.163,-542.757,0,0
214094.65,704.383,-551.241,0,0
214354.975,706.475,-559.475,0,0
214615.3,708.541,-567.665,0,0
214875.625,710.692,-576.132,0,0
215135.95,712.735,-585.142,0,0
215396.275,714.285,-594.723,0,0
215656.6,715.072,-604.654,0,0
215916.925,715.009,-614.374,0,0
216177.25,714.516,-623.815,0,0
216437.575,713.986,-633.151,0,0
216697.9,713.095,-642.654,0,0
216958.225,711.48,-652.462,0,0
217218.55,708.984,-661.956,0,0
217478.875,706.066,-670.705,0,0
217739.2,703.157,-678.967,0,0
217999.525,700.379,-686.96,0,0
218259.85,697.549,-695.246,0,0
218520,694.249,-703.622,0,0
218780,690.211,-711.629,0,0
219041,685.951,-718.819,0,0
219301,682.011,-725.534,0,0
219561,678.511,-732.047,0,0
219822,675.407,-738.915,0,0
220082,672.312,-746.225,0,0
220342,668.825,-754.209,0,0
220603,664.417,-762.404,0,0
220863,659.212,-770.175,0,0
221123,653.86,-777.749,0,0
221384,648.083,-785.09,0,0
221644,642.151,-792.237,0,0
221904,635.915,-799.605,0,0
222165,628.584,-806.903,0,0
222425,620.603,-813.317,0,0
222685,612.412,-819.166,0,0
222946,603.894,-824.489,0,0
223206,594.711,-829.428,0,0
223466,584.678,-833.108,0,0
223727,574.983,-835.368,0,0
223987,565.666,-836.556,0,0
224247,557.185,-836.927,0,0
224508,549.142,-836.655,0,0
224768,542.05,-835.708,0,0
225028,535.773,-834.524,0,0
225289,530.604,-833.173,0,0
225549,526.286,-832.1,0,0
225809,522.927,-831.383,0,0
226070,520.038,-831.375,0,0
226330,517.375,-832.446,0,0
226590,514.26,-833.98,0,0
226851,511.045,-835.812,0,0
227111,507.753,-837.882,0,0
227371,504.18,-840.402,0,0
227632,500.134,-843.319,0,0
227892,495.618,-846.159,0,0
228152,490.534,-848.679,0,0
228413,485.36,-851.237,0,0
228673,479.687,-853.398,0,0
228933,473.852,-855.227,0,0
229193,467.966,-856.636,0,0
229454,462.307,-857.79,0,0
229714,456.536,-858.812,0,0
229974,450.886,-859.592,0,0
230235,445.245,-860.211,0,0
230495,439.812,-860.687,0,0
230755,434.215,-861.262,0,0
231016,428.481,-861.545,0,0
231276,422.951,-861.445,0,0
231536,417.566,-861.203,0,0
231797,412.258,-860.976,0,0
232057,407.136,-860.559,0,0
232317,402.106,-860.107,0,0
232578,397.111,-859.63,0,0
232838,392.23,-859.212,0,0
233098,387.346,-858.75,0,0
233359,382.397,-858.071,0,0
233619,377.61,-857.302,0,0
233879,372.902,-856.575,0,0
234140,368.228,-855.861,0,0
234400,363.508,-855.015,0,0
234660.3,358.733,-854.18,0,0
234920.625,354.28,-853.052,0,0
235180.95,349.781,-852.245,0,0
235441.275,345.259,-851.396,0,0
235701.6,340.603,-850.538,0,0
235961.925,335.87,-849.648,0,0
236222.25,330.948,-848.646,0,0
236482.575,326.04,-847.266,0,0
236742.9,321.082,-845.73,0,0
237003.225,316.25,-844.107,0,0
237263.55,311.599,-842.449,0,0
237523.875,306.804,-840.73,0,0
237784.2,301.814,-838.944,0,0
238044.525,296.8,-836.763,0,0
238304.85,291.84,-834.285,0,0
238565.175,286.983,-831.545,0,0
238825.5,282.281,-828.514,0,0
239085.825,277.826,-825.112,0,0
239346.15,273.654,-821.55,0,0
239606.475,269.993,-817.861,0,0
239866.8,266.469,-814.212,0,0
240127.125,263.314,-810.629,0,0
240387.45,260.264,-807.099,0,0
240647.775,257.375,-803.631,0,0
240908.1,254.493,-800.166,0,0
241168.425,251.823,-796.726,0,0
241428.75,249.166,-793.208,0,0
241689.075,246.585,-789.581,0,0
241949.4,244.295,-785.692,0,0
242209.725,242.399,-781.783,0,0
242470.05,240.87,-778.172,0,0
242730.375,239.475,-774.7,0,0
242990.7,238.119,-771.438,0,0
243251.025,236.914,-768.266,0,0
243511.35,235.795,-765.122,0,0
243771.675,234.844,-762.096,0,0
244032.0,233.941,-759.302,0,0
244292.325,233.018,-756.618,0,0
244552.65,232.182,-754.052,0,0
244812.975,231.239,-751.539,0,0
245073.3,230.268,-749.133,0,0
245333.625,229.373,-746.943,0,0
245593.95,228.329,-744.814,0,0
245854.275,227.264,-742.633,0,0
246114.6,226.224,-740.309,0,0
246374.925,225.141,-737.984,0,0
246635.25,224.12,-735.666,0,0
246895.575,223.154,-733.351,0,0
247155.9,222.287,-731.041,0,0
247416.225,221.437,-728.798,0,0
247676.55,220.566,-726.435,0,0
247936.875,219.741,-724.163,0,0
248197.2,218.871,-721.728,0,0
248457.525,218.358,-719.222,0,0
248717.85,218.025,-716.751,0,0
248978.175,217.932,-714.496,0,0
249238.5,217.946,-712.461,0,0
249498.825,217.98,-710.714,0,0
249759.15,217.97,-709.21,0,0
250019.475,217.821,-707.896,0,0
250279.8,217.585,-706.648,0,0
250540,217.16,-705.594,0,0
250800,216.561,-704.702,0,0
251061,215.597,-703.779,0,0
251321,214.503,-702.671,0,0
251581,213.326,-701.548,0,0
251842,211.955,-700.258,0,0
252102,210.509,-698.897,0,0
252362,208.896,-697.413,0,0
252623,207.17,-695.683,0,0
252883,205.389,-693.639,0,0
253143,203.709,-691.335,0,0
253404,202.154,-688.729,0,0
253664,200.763,-685.945,0,0
253924,199.527,-683.069,0,0
254185,198.504,-680.057,0,0
254445,197.713,-676.805,0,0
254705,197.125,-673.642,0,0
254966,196.678,-670.428,0,0
255226,196.516,-667.098,0,0
255486,196.577,-663.721,0,0
255747,196.857,-660.288,0,0
256007,197.423,-656.817,0,0
256267,198.421,-653.43,0,0
256528,199.79,-650.195,0,0
256788,201.445,-647.297,0,0
257048,203.248,-644.71,0,0
257309,205.196,-642.45,0,0
257569,207.096,-640.528,0,0
257829,208.886,-638.817,0,0
258090,210.701,-637.198,0,0
258350,212.352,-635.734,0,0
258610,213.9,-634.227,0,0
258871,215.526,-632.622,0,0
259131,217.245,-630.953,0,0
259391,219.364,-629.263,0,0
259651,221.871,-627.662,0,0
259912,224.696,-626.521,0,0
260172,227.697,-625.811,0,0
260432,230.734,-625.523,0,0
260693,233.758,-625.641,0,0
260953,236.822,-626.141,0,0
261213,239.897,-627.148,0,0
261474,242.796,-628.725,0,0
261734,245.325,-630.859,0,0
261994,247.346,-633.305,0,0
262255,248.972,-635.984,0,0
262515,250.089,-638.908,0,0
262775,250.672,-641.937,0,0
263036,250.779,-644.873,0,0
263296,250.457,-647.663,0,0
263556,249.91,-650.382,0,0
263817,249.002,-653.147,0,0
264077,247.762,-655.712,0,0
264337,246.12,-658.298,0,0
264598,244.027,-660.611,0,0
264858,241.603,-662.577,0,0
265118,239.043,-664.148,0,0
265379,236.349,-665.466,0,0
265639,233.461,-666.409,0,0
265899,230.546,-667.053,0,0
266160,227.592,-667.412,0,0
266420,224.594,-667.439,0,0
266680.25,221.587,-667.17,0,0
266940.575,218.651,-666.514,0,0
267200.9,215.893,-665.62,0,0
267461.225,213.253,-664.539,0,0
267721.55,210.771,-663.165,0,0
267981.875,208.439,-661.676,0,0
268242.2,206.356,-659.937,0,0
268502.525,204.462,-658.087,0,0
268762.85,202.796,-656.145,0,0
269023.175,201.455,-654.207,0,0
269283.5,200.328,-652.369,0,0
269543.825,199.274,-650.605,0,0
269804.15,198.248,-648.908,0,0
270064.475,197.182,-647.193,0,0
270324.8,196.238,-645.308,0,0
270585.125,195.391,-643.354,0,0
270845.45,194.834,-641.321,0,0
271105.775,194.449,-639.366,0,0
271366.1,194.269,-637.484,0,0
271626.425,194.233,-635.798,0,0
271886.75,194.172,-634.177,0,0
272147.075,194.225,-632.674,0,0
272407.4,194.409,-631.31,0,0
272667.725,194.424,-630.143,0,0
272928.05,194.364,-629.103,0,0
273188.375,194.1,-627.915,0,0
273448.7,193.717,-626.565,0,0
273709.025,193.519,-625.048,0,0
273969.35,193.342,-623.454,0,0
274229.675,193.39,-621.656,0,0
274490.0,193.663,-619.856,0,0
274750.325,194.136,-618.144,0,0
275010.65,194.812,-616.464,0,0
275270.975,195.622,-614.829,0,0
275531.3,196.695,-613.358,0,0
275791.625,197.927,-611.945,0,0
276051.95,199.388,-610.808,0,0
276312.275,200.919,-609.943,0,0
276572.6,202.549,-609.248,0,0
276832.925,204.231,-608.804,0,0
277093.25,206.006,-608.713,0,0
277353.575,207.675,-608.941,0,0
277613.9,209.214,-609.426,0,0
277874.225,210.551,-610.08,0,0
278134.55,211.833,-610.89,0,0
278394.875,212.97,-611.909,0,0
278655.2,213.933,-613.125,0,0
278915.525,214.719,-614.519,0,0
279175.85,215.203,-616.016,0,0
279436.175,215.44,-617.638,0,0
279696.5,215.453,-619.26,0,0
279956.825,215.27,-620.874,0,0
280217.15,214.753,-622.539,0,0
280477.475,213.999,-624.141,0,0
280737.8,212.989,-625.588,0,0
280998.125,211.819,-626.813,0,0
281258.45,210.605,-627.914,0,0
281518.775,209.322,-628.941,0,0
281779.1,207.91,-629.88,0,0
282039.425,206.334,-630.732,0,0
282299.75,204.675,-631.405,0,0
282560,202.945,-631.901,0,0
282820,201.193,-632.258,0,0
283081,199.435,-632.498,0,0
283341,197.652,-632.573,0,0
283601,195.83,-632.581,0,0
283862,194.021,-632.449,0,0
284122,192.263,-632.182,0,0
284382,190.422,-631.83,0,0
284643,188.64,-631.306,0,0
284903,186.887,-630.647,0,0
285163,185.202,-629.88,0,0
285424,183.534,-629.012,0,0
285684,181.961,-628.032,0,0
285944,180.473,-626.913,0,0
286205,179.085,-625.657,0,0
286465,177.836,-624.367,0,0
286725,176.676,-622.992,0,0
286986,175.671,-621.536,0,0
287246,174.835,-620.038,0,0
287506,174.164,-618.496,0,0
287767,173.74,-616.937,0,0
288027,173.54,-615.535,0,0
288287,173.464,-614.299,0,0
288548,173.423,-613.225,0,0
288808,173.429,-612.265,0,0
289068,173.434,-611.485,0,0
289329,173.452,-610.812,0,0
289589,173.415,-610.282,0,0
289849,173.235,-609.819,0,0
290109,172.96,-609.352,0,0
290370,172.678,-608.848,0,0
290630,172.399,-608.376,0,0
290890,172.103,-607.938,0,0
291151,171.738,-607.543,0,0
291411,171.28,-607.161,0,0
291671,170.747,-606.758,0,0
291932,170.115,-606.259,0,0
292192,169.437,-605.66,0,0
292452,168.76,-604.933,0,0
292713,168.13,-604.069,0,0
292973,167.633,-603.093,0,0
293233,167.226,-601.999,0,0
293494,167.018,-600.874,0,0
293754,166.983,-599.737,0,0
294014,167.161,-598.702,0,0
294275,167.452,-597.756,0,0
294535,167.848,-596.964,0,0
294795,168.327,-596.31,0,0
295056,168.875,-595.778,0,0
295316,169.49,-595.456,0,0
295576,170.124,-595.284,0,0
295837,170.689,-595.324,0,0
296097,171.199,-595.545,0,0
296357,171.58,-595.896,0,0
296618,171.84,-596.364,0,0
296878,171.975,-596.912,0,0
297138,171.974,-597.53,0,0
297399,171.84,-598.202,0,0
297659,171.562,-598.91,0,0
297919,171.142,-599.638,0,0
298180,170.548,-600.328,0,0
298440,169.841,-600.978,0,0
298700.2,169.015,-601.55,0,0
298960.525,168.12,-602.035,0,0
299220.85,167.159,-602.483,0,0
299481.175,166.131,-602.854,0,0
299741.5,165.062,-603.168,0,0
300001.825,163.938,-603.426,0,0
300262.15,162.771,-603.639,0,0
300522.475,161.591,-603.787,0,0
300782.8,160.33,-603.868,0,0
301043.125,159.066,-603.873,0,0
301303.45,157.766,-603.833,0,0
301563.775,156.437,-603.728,0,0
301824.1,155.071,-603.546,0,0
302084.425,153.699,-603.271,0,0
302344.75,152.337,-602.922,0,0
302605.075,150.999,-602.459,0,0
302865.4,149.7,-601.94,0,0
303125.725,148.451,-601.381,0,0
303386.05,147.221,-600.826,0,0
303646.375,146.002,-600.213,0,0
303906.7,144.787,-599.561,0,0
304167.025,143.564,-598.864,0,0
304427.35,142.378,-598.105,0,0
304687.675,141.212,-597.266,0,0
304948.0,140.097,-596.4,0,0
305208.325,139.019,-595.452,0,0
305468.65,137.99,-594.488,0,0
305728.975,137.046,-593.504,0,0
305989.3,136.15,-592.469,0,0
306249.625,135.28,-591.4,0,0
306509.95,134.54,-590.315,0,0
306770.275,133.883,-589.232,0,0
307030.6,133.293,-588.173,0,0
307290.925,132.778,-587.121,0,0
307551.25,132.336,-586.156,0,0
307811.575,131.936,-585.243,0,0
308071.9,131.588,-584.38,0,0
308332.225,131.254,-583.606,0,0
308592.55,130.899,-582.917,0,0
308852.875,130.534,-582.279,0,0
309113.2,130.131,-581.671,0,0
309373.525,129.715,-581.125,0,0
309633.85,129.246,-580.619,0,0
309894.175,128.749,-580.144,0,0
310154.5,128.158,-579.646,0,0
310414.825,127.549,-579.172,0,0
310675.15,126.88,-578.684,0,0
310935.475,126.175,-578.187,0,0
311195.8,125.417,-577.655,0,0
311456.125,124.641,-577.074,0,0
311716.45,123.805,-576.506,0,0
311976.775,122.933,-575.875,0,0
312237.1,122.022,-575.19,0,0
312497.425,121.063,-574.412,0,0
312757.75,120.108,-573.538,0,0
313018.075,119.182,-572.587,0,0
313278.4,118.294,-571.522,0,0
313538.725,117.458,-570.394,0,0
313799.05,116.697,-569.23,0,0
314059.375,116.015,-568.02,0,0
314319.7,115.351,-566.774,0,0
314580,114.754,-565.45,0,0
314840,114.266,-564.116,0,0
315101,113.9,-562.773,0,0
315361,113.592,-561.402,0,0
315621,113.472,-560.023,0,0
315882,113.403,-558.666,0,0
316142,113.481,-557.501,0,0
316402,113.646,-556.286,0,0
316663,113.883,-555.22,0,0
316923,114.106,-554.26,0,0
317183,114.245,-553.329,0,0
317444,114.486,-552.685,0,0
317704,114.649,-552.031,0,0
317964,114.904,-551.367,0,0
318225,115.008,-550.82,0,0
318485,115.017,-550.231,0,0
318745,115.062,-549.72,0,0
319006,115.027,-549.13,0,0
319266,114.992,-548.613,0,0
319526,114.993,-547.992,0,0
319787,114.873,-547.431,0,0
320047,114.869,-546.829,0,0
320307,114.847,-546.345,0,0
320567,114.848,-545.73,0,0
320828,114.877,-545.211,0,0
321088,114.954,-544.587,0,0
321348,115.071,-544.035,0,0
321609,115.239,-543.502,0,0
321869,115.357,-543.064,0,0
322129,115.673,-542.678,0,0
322390,115.926,-542.452,0,0
322650,116.121,-542.294,0,0
322910,116.308,-542.219,0,0
323171,116.482,-542.23,0,0
323431,116.543,-542.265,0,0
323691,116.527,-542.435,0,0
323952,116.42,-542.545,0,0
324212,116.162,-542.768,0,0
324472,115.937,-542.983,0,0
324733,115.555,-543.094,0,0
324993,115.133,-543.269,0,0
325253,114.677,-543.456,0,0
325514,114.109,-543.713,0,0
325774,113.459,-543.755,0,0
326034,112.741,-543.8,0,0
326295,112.071,-543.822,0,0
326555,111.158,-543.801,0,0
326815,110.388,-543.731,0,0
327076,109.5,-543.652,0,0
327336,108.674,-543.39,0,0
327596,107.767,-543.177,0,0
327857,106.787,-542.865,0,0
328117,105.925,-542.509,0,0
328377,105.035,-542.205,0,0
328638,104.181,-541.707,0,0
328898,103.323,-541.233,0,0
329158,102.43,-540.795,0,0
329419,101.595,-540.29,0,0
329679,100.758,-539.8,0,0
329939,99.9121,-539.214,0,0
330200,99.1538,-538.652,0,0
330460,98.3414,-538.073,0,0
330720.15,97.5536,-537.548,0,0
330980.475,96.7231,-537.055,0,0
331240.8,95.8361,-536.334,0,0
331501.125,94.9926,-535.76,0,0
331761.45,94.1325,-535.088,0,0
332021.775,93.2608,-534.389,0,0
332282.1,92.4334,-533.691,0,0
332542.425,91.4678,-532.934,0,0
332802.75,90.6229,-532.216,0,0
333063.075,89.7634,-531.411,0,0
333323.4,88.9312,-530.557,0,0
333583.725,87.9881,-529.726,0,0
333844.05,87.1355,-528.766,0,0
334104.375,86.2838,-527.749,0,0
334364.7,85.4193,-526.818,0,0
334625.025,84.6698,-525.662,0,0
334885.35,83.9107,-524.63,0,0
335145.675,83.1395,-523.437,0,0
335406.0,82.5116,-522.232,0,0
335666.325,81.8468,-521.1,0,0
335926.65,81.3261,-519.928,0,0
336186.975,80.7627,-518.667,0,0
336447.3,80.2751,-517.458,0,0
336707.625,79.7991,-516.221,0,0
336967.95,79.3552,-515.058,0,0
337228.275,78.9548,-513.849,0,0
337488.6,78.5222,-512.689,0,0
337748.925,78.1668,-511.426,0,0
338009.25,77.8182,-510.214,0,0
338269.575,77.5055,-508.925,0,0
338529.9,77.2296,-507.648,0,0
338790.225,76.9049,-506.443,0,0
339050.55,76.7289,-505.106,0,0
339310.875,76.5441,-503.749,0,0
339571.2,76.4477,-502.364,0,0
339831.525,76.4454,-501.027,0,0
340091.85,76.407,-499.672,0,0
340352.175,76.4794,-498.317,0,0
340612.5,76.7166,-496.994,0,0
340872.825,76.9713,-495.674,0,0
341133.15,77.3101,-494.453,0,0
341393.475,77.6969,-493.302,0,0
341653.8,78.1351,-492.2,0,0
341914.125,78.605,-491.162,0,0
342174.45,79.1709,-490.235,0,0
342434.775,79.709,-489.418,0,0
342695.1,80.2105,-488.617,0,0
342955.425,80.7536,-487.986,0,0
343215.75,81.1509,-487.406,0,0
343476.075,81.6624,-486.892,0,0
343736.4,82.0682,-486.365,0,0
343996.725,82.4089,-486.009,0,0
344257.05,82.7753,-485.63,0,0
344517.375,83.0112,-485.318,0,0
344777.7,83.2033,-485.003,0,0
345038.025,83.2707,-484.693,0,0
345298.35,83.342,-484.425,0,0
345558.675,83.3331,-484.102,0,0
345819.0,83.3073,-483.723,0,0
346079.325,83.2042,-483.339,0,0
346339.65,83.1324,-482.934,0,0
346599.975,83.0043,-482.45,0,0
346860,82.921,-481.989,0,0
347121,82.8486,-481.469,0,0
347381,82.7443,-480.977,0,0
347641,82.61,-480.491,0,0
347902,82.4632,-479.98,0,0
348162,82.2751,-479.431,0,0
348422,82.1888,-478.812,0,0
348683,82.0735,-478.25,0,0
348943,81.9193,-477.559,0,0
349203,81.7818,-476.882,0,0
349464,81.6967,-476.146,0,0
349724,81.7455,-475.359,0,0
349984,81.7907,-474.688,0,0
350245,81.8968,-473.967,0,0
350505,82.0464,-473.253,0,0
350765,82.2613,-472.616,0,0
351025,82.506,-471.938,0,0
351286,82.8261,-471.391,0,0
351546,83.1977,-470.848,0,0
351806,83.5354,-470.487,0,0
352067,83.8565,-470.179,0,0
352327,84.2025,-470,0,0
352587,84.4425,-469.856,0,0
352848,84.5824,-469.817,0,0
353108,84.6865,-469.755,0,0
353368,84.6305,-469.7,0,0
353629,84.4281,-469.663,0,0
353889,84.2193,-469.579,0,0
354149,83.9554,-469.467,0,0
354410,83.6567,-469.244,0,0
354670,83.3089,-469.051,0,0
354930,82.9157,-468.75,0,0
355191,82.504,-468.388,0,0
355451,82.1934,-467.981,0,0
355711,81.8726,-467.557,0,0
355972,81.4663,-467.077,0,0
356232,81.1651,-466.639,0,0
356492,80.869,-466.098,0,0
356753,80.5442,-465.639,0,0
357013,80.1642,-465.083,0,0
357273,79.8492,-464.532,0,0
357534,79.5209,-463.929,0,0
357794,79.2483,-463.248,0,0
358054,78.9171,-462.596,0,0
358315,78.6921,-461.927,0,0
358575,78.5293,-461.126,0,0
358835,78.3756,-460.429,0,0
359096,78.2396,-459.67,0,0
359356,78.1848,-458.963,0,0
359616,78.1154,-458.283,0,0
359877,78.1304,-457.591,0,0
360137,78.161,-456.95,0,0
360397,78.15,-456.336,0,0
360658,78.1786,-455.755,0,0
360918,78.1869,-455.188,0,0
361178,78.1663,-454.648,0,0
361438,78.1474,-454.069,0,0
361699,78.1634,-453.541,0,0
361959,78.0913,-452.939,0,0
362219,78.0709,-452.388,0,0
362480,78.0264,-451.754,0,0
362740.1,78.0068,-451.181,0,0
363000.425,78.0243,-450.559,0,0
363260.75,78.0844,-449.862,0,0
363521.075,78.1601,-449.19,0,0
363781.4,78.3263,-448.554,0,0
364041.725,78.4852,-447.928,0,0
364302.05,78.7782,-447.38,0,0
364562.375,79.126,-446.861,0,0
364822.7,79.4212,-446.484,0,0
365083.025,79.8568,-446.13,0,0
365343.35,80.1638,-445.946,0,0
365603.675,80.4165,-445.86,0,0
365864.0,80.5882,-445.838,0,0
366124.325,80.6118,-445.793,0,0
366384.65,80.5856,-445.798,0,0
366644.975,80.4952,-445.826,0,0
366905.3,80.2657,-445.726,0,0
367165.625,79.9741,-445.748,0,0
367425.95,79.5969,-445.579,0,0
367686.275,79.1491,-445.423,0,0
367946.6,78.6211,-445.135,0,0
368206.925,78.172,-444.784,0,0
368467.25,77.649,-444.307,0,0
368727.575,77.1384,-443.742,0,0
368987.9,76.608,-443.17,0,0
369248.225,76.1474,-442.322,0,0
369508.55,75.8214,-441.462,0,0
369768.875,75.625,-440.536,0,0
370029.2,75.5531,-439.62,0,0
370289.525,75.6343,-438.698,0,0
370549.85,75.8245,-437.879,0,0
370810.175,76.0562,-437.083,0,0
371070.5,76.4066,-436.403,0,0
371330.825,76.8125,-435.834,0,0
371591.15,77.2035,-435.465,0,0
371851.475,77.6106,-435.151,0,0
372111.8,77.8678,-435.006,0,0
372372.125,78.0846,-434.931,0,0
372632.45,78.1654,-434.919,0,0
372892.775,78.1636,-434.966,0,0
373153.1,77.9701,-434.896,0,0
373413.425,77.7518,-434.839,0,0
373673.75,77.381,-434.71,0,0
373934.075,76.9738,-434.49,0,0
374194.4,76.6376,-434.148,0,0
374454.725,76.2128,-433.792,0,0
374715.05,75.8412,-433.311,0,0
374975.375,75.4265,-432.865,0,0
375235.7,75.0833,-432.333,0,0
375496.025,74.6961,-431.749,0,0
375756.35,74.3347,-431.118,0,0
376016.675,74.0471,-430.396,0,0
376277.0,73.7987,-429.65,0,0
376537.325,73.6121,-428.851,0,0
376797.65,73.5117,-428.092,0,0
377057.975,73.4885,-427.355,0,0
377318.3,73.4674,-426.618,0,0
377578.625,73.4946,-425.875,0,0
377838.95,73.5682,-425.174,0,0
378099.275,73.7076,-424.49,0,0
378359.6,73.8155,-423.836,0,0
378619.925,74.0211,-423.219,0,0
378880,74.207,-422.665,0,0
379141,74.3569,-422.117,0,0
379401,74.5873,-421.63,0,0
379661,74.8236,-421.19,0,0
379922,75.0521,-420.761,0,0
380182,75.2437,-420.404,0,0
380442,75.4011,-420.102,0,0
380703,75.5506,-419.761,0,0
380963,75.6396,-419.532,0,0
381223,75.7256,-419.247,0,0
381483,75.7606,-418.978,0,0
381744,75.7867,-418.682,0,0
382004,75.7906,-418.422,0,0
382264,75.8129,-418.08,0,0
382525,75.8612,-417.815,0,0
382785,75.7956,-417.552,0,0
383045,75.7654,-417.327,0,0
383306,75.798,-417.066,0,0
383566,75.6117,-416.844,0,0
383826,75.5203,-416.584,0,0
384087,75.3708,-416.367,0,0
384347,75.2276,-416.108,0,0
384607,75.0058,-415.835,0,0
384868,74.7763,-415.487,0,0
385128,74.4966,-415.164,0,0
385388,74.2389,-414.775,0,0
385649,74.0152,-414.388,0,0
385909,73.7362,-413.96,0,0
386169,73.4688,-413.492,0,0
386430,73.2185,-413.016,0,0
386690,72.9954,-412.52,0,0
386950,72.7653,-412.002,0,0
387211,72.5077,-411.489,0,0
387471,72.2994,-410.931,0,0
387731,72.0399,-410.37,0,0
387992,71.8054,-409.727,0,0
388252,71.5853,-409.105,0,0
388512,71.4149,-408.427,0,0
388773,71.2286,-407.759,0,0
389033,71.0247,-407.036,0,0
389293,70.9324,-406.315,0,0
389554,70.8056,-405.492,0,0
389814,70.7187,-404.724,0,0
390074,70.7378,-403.877,0,0
390335,70.8046,-403.047,0,0
390595,70.8532,-402.271,0,0
390855,70.9766,-401.469,0,0
391116,71.1588,-400.616,0,0
391376,71.3143,-399.869,0,0
391636,71.6292,-399.072,0,0
391896,71.9014,-398.27,0,0
392157,72.259,-397.549,0,0
392417,72.6623,-396.831,0,0
392677,73.0749,-396.156,0,0
392938,73.5615,-395.584,0,0
393198,74.0544,-394.999,0,0
393458,74.548,-394.539,0,0
393719,75.0769,-394.056,0,0
393979,75.5725,-393.69,0,0
394239,76.0756,-393.348,0,0
394500,76.5723,-393.062,0,0
394760.05,77.0516,-392.771,0,0
395020.375,77.5189,-392.589,0,0
395280.7,78.0039,-392.383,0,0
395541.025,78.4423,-392.269,0,0
395801.35,78.8205,-392.18,0,0
396061.675,79.233,-392.114,0,0
396322.0,79.5967,-392.111,0,0
396582.325,79.8987,-392.051,0,0
396842.65,80.2082,-392.094,0,0
397102.975,80.4823,-392.143,0,0
397363.3,80.6936,-392.237,0,0
397623.625,80.8621,-392.367,0,0
397883.95,81.0144,-392.497,0,0
398144.275,81.0836,-392.615,0,0
398404.6,81.0489,-392.725,0,0
398664.925,81.063,-392.874,0,0
398925.25,80.9426,-392.992,0,0
399185.575,80.7689,-393.1,0,0
399445.9,80.6077,-393.091,0,0
399706.225,80.4555,-393.09,0,0
399966.55,80.256,-393.102,0,0
400006.6,80.2388,-393.089,0,0