File: Accelerated corrosion test data/2025-10-11_06-00-04/sample_2.csv
Frequency (Hz),Impedance (ohms),Phase (Radians),Temperature (C),Humidity (%)
10000.0,232.259,-11399.3,0,0
10260.325,225.917,-11112.7,0,0
10520.65,220.95,-10840.1,0,0
10780.975,216.008,-10579.8,0,0
11041.3,210.717,-10332.9,0,0
11301.625,205.909,-10096.5,0,0
11561.95,202.632,-9869.55,0,0
11822.275,200.779,-9660.69,0,0
12082.6,195.886,-9450.8,0,0
12342.925,190.085,-9255.14,0,0
12603.25,185.512,-9064.3,0,0
12863.575,182.182,-8880.94,0,0
13123.9,179.692,-8708.13,0,0
13384.225,174.991,-8537.76,0,0
13644.55,172.932,-8372.93,0,0
13904.875,186.985,-8221,0,0
14165.2,166.894,-8075.63,0,0
14425.525,163.085,-7928.04,0,0
14685.8,165.569,-7781.35,0,0
14946.175,161.76,-7653.17,0,0
15206.5,165.73,-7531.32,0,0
15466.825,162.242,-7395.33,0,0
15727.15,152.931,-7284.51,0,0
15987.5,150.004,-7163.23,0,0
16247.8,150.171,-7048.64,0,0
16508.125,144.632,-6939.06,0,0
16768.45,142.256,-6831.54,0,0
17028.775,140.627,-6727.46,0,0
17289.1,139.524,-6627.34,0,0
17549.425,136.088,-6528.53,0,0
17809.75,133.529,-6433.11,0,0
18070.075,132.665,-6340.88,0,0
18330.4,131.344,-6249.98,0,0
18590.725,129.523,-6161.86,0,0
18851.05,128.22,-6076.4,0,0
19111.375,129.431,-5994.57,0,0
19371.7,129.592,-5916.98,0,0
19632.025,124.283,-5839.68,0,0
19892.35,121.77,-5762.06,0,0
20152.675,120.004,-5686.43,0,0
20413.0,119.333,-5612.72,0,0
20673.3,118.465,-5540.19,0,0
20933.65,118.903,-5468.91,0,0
21193.975,123.697,-5402,0,0
21454.3,130.806,-5339.68,0,0
21714.625,128.066,-5284.11,0,0
21974.9,122.171,-5219.19,0,0
22235.275,119.586,-5165.11,0,0
22495.6,115.75,-5105.04,0,0
22755.925,112.435,-5043.97,0,0
23016.25,113.005,-4988.76,0,0
23276.6,113.247,-4933.84,0,0
23536.9,109.62,-4879.97,0,0
23797.225,107.633,-4824.96,0,0
24057.55,107.685,-4774.13,0,0
24317.875,103.842,-4723.88,0,0
24578.2,101.732,-4672.63,0,0
24838.525,100.896,-4623.46,0,0
25098.85,100.205,-4574.47,0,0
25359.175,98.9234,-4527.09,0,0
25619.5,98.5964,-4480.85,0,0
25879.8,96.7837,-4434.51,0,0
26140.1,96.9153,-4390.23,0,0
26400.5,96.4231,-4347.25,0,0
26660.8,96.3322,-4305.33,0,0
26921.1,95.7704,-4263.15,0,0
27181.4,94.8927,-4223.57,0,0
27441.8,92.606,-4183.07,0,0
27702.1,91.2433,-4142.97,0,0
27962.4,90.3151,-4102.76,0,0
28222.7,91.063,-4064.52,0,0
28483.1,90.0333,-4026.83,0,0
28743.4,89.4758,-3989.75,0,0
29003.7,90.5859,-3952.75,0,0
29264,90.6673,-3916.58,0,0
29524.4,93.5561,-3881.36,0,0
29784.7,96.6469,-3851.83,0,0
30045,93.2457,-3820.23,0,0
30305.3,94.3614,-3787.2,0,0
30565.7,91.293,-3759.45,0,0
30826,88.2523,-3727.29,0,0
31086.3,86.9798,-3695.27,0,0
31346.6,85.3943,-3663.87,0,0
31607,85.4436,-3633.32,0,0
31867.3,83.5388,-3604.17,0,0
32127.6,82.4488,-3573.53,0,0
32387.9,82.4772,-3543.43,0,0
32648.3,83.67,-3515.2,0,0
32908.6,83.5047,-3489.23,0,0
33168.9,82.1123,-3462.87,0,0
33429.2,80.3009,-3435.52,0,0
33689.6,79.994,-3408.21,0,0
33949.9,79.2417,-3382.68,0,0
34210.2,77.4954,-3356.74,0,0
34470.5,76.6594,-3330.38,0,0
34730.9,76.1656,-3305.04,0,0
34991.2,75.6454,-3279.96,0,0
35251.5,75.0939,-3255.52,0,0
35511.8,74.6747,-3231.13,0,0
35772.2,74.1775,-3207.27,0,0
36032.5,73.61,-3184.02,0,0
36292.8,73.021,-3160.66,0,0
36553.1,72.4883,-3137.65,0,0
36813.5,72.1602,-3115.04,0,0
37073.8,71.6147,-3092.74,0,0
37334.1,71.2974,-3070.88,0,0
37594.4,71.1783,-3049.52,0,0
37854.8,70.7758,-3027.95,0,0
38115.1,70.2725,-3007.43,0,0
38375.4,69.6374,-2986.66,0,0
38635.7,69.048,-2965.89,0,0
38896.1,68.9377,-2945.75,0,0
39156.4,68.638,-2925.6,0,0
39416.7,67.8973,-2906.05,0,0
39677,67.7156,-2886.47,0,0
39937.4,67.468,-2867.39,0,0
40197.7,66.9572,-2848.42,0,0
40458,66.6996,-2829.57,0,0
40718.3,66.5082,-2810.79,0,0
40978.7,66.2254,-2792.96,0,0
41239,65.8301,-2774.67,0,0
41499.3,65.9812,-2756.91,0,0
41759.6,65.4894,-2739.84,0,0
42020,65.4704,-2722.09,0,0
42280.275,65.5123,-2705.08,0,0
42540.6,64.8345,-2688.47,0,0
42800.925,64.4816,-2671.76,0,0
43061.25,63.8562,-2654.92,0,0
43321.575,64.0176,-2638.56,0,0
43581.9,63.7318,-2622.55,0,0
43842.225,63.3994,-2606.63,0,0
44102.55,63.2746,-2590.85,0,0
44362.875,62.8813,-2575.22,0,0
44623.2,62.7141,-2559.92,0,0
44883.525,61.9459,-2544.2,0,0
45143.85,62.0794,-2529.03,0,0
45404.175,62.275,-2514.24,0,0
45664.5,62.1338,-2499.86,0,0
45924.825,61.8027,-2484.85,0,0
46185.15,62.1304,-2470.81,0,0
46445.475,61.5634,-2456.91,0,0
46705.8,61.1369,-2442.42,0,0
46966.125,60.9477,-2428.38,0,0
47226.45,61.0316,-2414.32,0,0
47486.775,61.3061,-2401.05,0,0
47747.1,60.9864,-2387.65,0,0
48007.425,60.5887,-2374.2,0,0
48267.75,61.1368,-2360.57,0,0
48528.075,61.8717,-2348.45,0,0
48788.4,61.3338,-2336.1,0,0
49048.725,60.8689,-2323.76,0,0
49309.05,60.2839,-2311.71,0,0
49569.375,59.4842,-2299.11,0,0
49829.7,59.1014,-2286.6,0,0
50090.025,58.7739,-2274.34,0,0
50350.35,58.1319,-2262.06,0,0
50610.675,57.9659,-2249.56,0,0
50871.0,57.9751,-2237.61,0,0
51131.325,57.8507,-2226.1,0,0
51391.65,57.3778,-2214.53,0,0
51651.975,56.8509,-2202.89,0,0
51912.3,56.5263,-2191.46,0,0
52172.625,56.0936,-2179.83,0,0
52432.95,55.9345,-2168.36,0,0
52693.275,55.4908,-2157.15,0,0
52953.6,55.3466,-2145.89,0,0
53213.925,55.2167,-2134.7,0,0
53474.25,55.0784,-2123.75,0,0
53734.575,54.9796,-2112.97,0,0
53994.9,54.6249,-2102.05,0,0
54255.225,54.6008,-2091.29,0,0
54515.55,54.4994,-2080.68,0,0
54775.875,54.4827,-2070.3,0,0
55036.2,54.3062,-2060.05,0,0
55296.525,54.122,-2049.68,0,0
55556.85,54.1919,-2039.5,0,0
55817.175,54.2045,-2029.29,0,0
56077.5,54.1242,-2019.31,0,0
56337.825,54.0937,-2009.49,0,0
56598.15,54.0699,-1999.61,0,0
56858.475,54.0031,-1989.9,0,0
57118.8,54.0758,-1980.19,0,0
57379.125,54.1327,-1970.68,0,0
57639.45,54.0341,-1961.17,0,0
57899.775,54.2841,-1951.71,0,0
58160.1,54.3465,-1942.6,0,0
58420.4,54.2154,-1933.45,0,0
58680.7,54.2349,-1924.05,0,0
58941.1,54.3178,-1914.85,0,0
59201.4,54.5567,-1905.89,0,0
59461.7,54.7143,-1896.73,0,0
59722,55.0399,-1887.85,0,0
59982.4,55.634,-1878.96,0,0
60242.7,56.3938,-1870.73,0,0
60503,56.479,-1862.81,0,0
60763.3,56.3674,-1854.41,0,0
61023.7,56.8964,-1845.66,0,0
61284,57.6697,-1837.69,0,0
61544.3,58.1316,-1829.9,0,0
61804.6,58.9636,-1822.49,0,0
62065,59.0297,-1816.05,0,0
62325.3,58.2377,-1808.87,0,0
62585.6,57.9871,-1801.3,0,0
62845.9,57.6917,-1794.22,0,0
63106.3,57.0207,-1787.24,0,0
63366.6,55.8757,-1779.49,0,0
63626.9,55.1348,-1771.88,0,0
63887.2,54.6523,-1764.08,0,0
64147.6,54.0498,-1756.42,0,0
64407.9,53.3988,-1749,0,0
64668.2,53.2852,-1741.29,0,0
64928.5,52.5706,-1734.24,0,0
65188.9,51.3826,-1726.52,0,0
65449.2,50.7157,-1718.27,0,0
65709.5,50.6093,-1709.98,0,0
65969.8,50.8498,-1702.23,0,0
66230.2,50.921,-1694.73,0,0
66490.5,51.2246,-1687.22,0,0
66750.8,51.3711,-1680.05,0,0
67011.1,51.0981,-1672.6,0,0
67271.5,51.4796,-1665.08,0,0
67531.8,52.0378,-1657.8,0,0
67792.1,52.5137,-1650.88,0,0
68052.4,53.3445,-1644.11,0,0
68312.8,53.6301,-1637.84,0,0
68573.1,53.6433,-1631.18,0,0
68833.4,54.0411,-1624.35,0,0
69093.7,54.9041,-1618.21,0,0
69354.1,55.2613,-1612.44,0,0
69614.4,55.5126,-1606.37,0,0
69874.7,56.1623,-1600.94,0,0
70135,55.9408,-1595.77,0,0
70395.4,55.4659,-1590.41,0,0
70655.7,54.3824,-1585.13,0,0
70916,53.3678,-1579.02,0,0
71176.3,52.6758,-1572.86,0,0
71436.7,52.0434,-1566.85,0,0
71697,51.4949,-1561.05,0,0
71957.3,50.4316,-1555.33,0,0
72217.6,49.1505,-1549.1,0,0
72478,48.0488,-1542.44,0,0
72738.3,47.3421,-1535.86,0,0
72998.6,46.6941,-1529.07,0,0
73258.9,46.456,-1522.56,0,0
73519.3,46.0527,-1516.29,0,0
73779.6,45.554,-1509.82,0,0
74039.9,45.2456,-1503.01,0,0
74300.225,45.2374,-1496.48,0,0
74560.55,45.2445,-1490.08,0,0
74820.875,45.2785,-1483.79,0,0
75081.2,45.4311,-1477.44,0,0
75341.525,45.6126,-1471.21,0,0
75601.85,45.9135,-1465.09,0,0
75862.175,46.2291,-1458.96,0,0
76122.5,46.6368,-1452.99,0,0
76382.825,47.026,-1447.11,0,0
76643.15,47.5555,-1441.34,0,0
76903.475,47.9438,-1435.58,0,0
77163.8,48.4681,-1429.95,0,0
77424.125,49.1047,-1424.29,0,0
77684.45,49.835,-1418.92,0,0
77944.775,50.6487,-1413.54,0,0
78205.1,51.3662,-1408.45,0,0
78465.425,52.1611,-1403.66,0,0
78725.75,52.733,-1399.13,0,0
78986.075,53.1915,-1394.61,0,0
79246.4,53.4692,-1390.33,0,0
79506.725,53.5812,-1386.04,0,0
79767.05,53.3778,-1381.94,0,0
80027.375,52.8759,-1377.84,0,0
80287.7,51.9544,-1373.25,0,0
80548.025,51.2698,-1368.36,0,0
80808.35,50.6058,-1363.39,0,0
81068.675,50.2164,-1358.28,0,0
81329.0,49.7864,-1353.24,0,0
81589.325,49.4456,-1348.26,0,0
81849.65,49.0288,-1343.18,0,0
82109.975,48.7932,-1338.02,0,0
82370.3,48.5424,-1332.88,0,0
82630.625,48.3664,-1327.76,0,0
82890.95,48.2906,-1322.63,0,0
83151.275,48.3294,-1317.46,0,0
83411.6,48.5139,-1312.45,0,0
83671.925,48.6232,-1307.5,0,0
83932.25,48.8241,-1302.58,0,0
84192.575,48.9973,-1297.83,0,0
84452.9,49.2291,-1293.14,0,0
84713.225,49.3627,-1288.46,0,0
84973.55,49.3743,-1283.79,0,0
85233.875,49.5319,-1279.1,0,0
85494.2,49.8059,-1274.35,0,0
85754.525,50.1622,-1269.74,0,0
86014.85,50.4341,-1265.37,0,0
86275.175,50.7645,-1261.03,0,0
86535.5,50.9434,-1256.82,0,0
86795.825,50.8768,-1252.5,0,0
87056.15,51.0065,-1248.06,0,0
87316.475,51.2206,-1243.67,0,0
87576.8,51.573,-1239.64,0,0
87837.125,51.5099,-1235.61,0,0
88097.45,51.4424,-1231.37,0,0
88357.775,51.4478,-1226.98,0,0
88618.1,51.7055,-1223.09,0,0
88878.425,51.1425,-1219.03,0,0
89138.75,51.0641,-1214.27,0,0
89399.075,51.5203,-1209.75,0,0
89659.4,51.7296,-1205.53,0,0
89919.725,52.1534,-1201.49,0,0
90180,52.3336,-1197.74,0,0
90440.4,52.1259,-1193.99,0,0
90700.7,51.7786,-1189.75,0,0
90961,51.723,-1185.1,0,0
91221.3,52.3428,-1180.62,0,0
91481.7,52.7221,-1176.85,0,0
91742,52.9178,-1172.82,0,0
92002.3,53.0811,-1168.65,0,0
92262.6,53.4536,-1164.46,0,0
92523,54.1994,-1160.6,0,0
92783.3,54.6036,-1156.97,0,0
93043.6,55.0821,-1153.23,0,0
93303.9,55.5626,-1149.75,0,0
93564.3,55.8027,-1146.34,0,0
93824.6,56.1588,-1142.84,0,0
94084.9,56.3775,-1139.89,0,0
94345.2,56.0322,-1136.69,0,0
94605.6,55.6847,-1132.97,0,0
94865.9,55.7772,-1129.27,0,0
95126.2,55.7403,-1125.99,0,0
95386.5,55.0851,-1122.48,0,0
95646.9,54.5468,-1118.35,0,0
95907.2,54.7329,-1113.74,0,0
96167.5,55.5782,-1109.6,0,0
96427.8,56.5702,-1106.16,0,0
96688.2,57.0745,-1103.01,0,0
96948.5,57.5082,-1099.68,0,0
97208.8,58.2236,-1096.59,0,0
97469.1,58.781,-1094.02,0,0
97729.5,58.7064,-1091.53,0,0
97989.8,58.5064,-1088.76,0,0
98250.1,58.1772,-1085.96,0,0
98510.4,57.9476,-1082.96,0,0
98770.8,57.9045,-1080.26,0,0
99031.1,57.4039,-1077.81,0,0
99291.4,56.4913,-1075.3,0,0
99551.7,55.0811,-1072.39,0,0
99812.1,53.7324,-1068.8,0,0
100072,52.8285,-1064.85,0,0
100333,52.4015,-1060.93,0,0
100593,52.1602,-1057.52,0,0
100853,51.5704,-1054.28,0,0
101114,50.7501,-1050.93,0,0
101374,49.7795,-1047.38,0,0
101634,48.682,-1043.51,0,0
101895,47.8959,-1039.2,0,0
102155,47.4511,-1034.95,0,0
102415,47.2397,-1030.83,0,0
102676,47.0023,-1026.85,0,0
102936,46.6149,-1022.81,0,0
103196,46.3571,-1018.51,0,0
103457,46.3625,-1014.31,0,0
103717,46.2864,-1009.98,0,0
103977,46.5783,-1005.6,0,0
104238,47.0795,-1001.28,0,0
104498,47.7923,-997.097,0,0
104758,48.7061,-993.134,0,0
105019,49.5641,-989.464,0,0
105279,50.3962,-985.945,0,0
105539,51.1595,-982.326,0,0
105800,52.171,-978.729,0,0
106060,53.3772,-975.501,0,0
106320.175,54.5467,-972.641,0,0
106580.5,55.5356,-969.848,0,0
106840.825,56.4948,-967.398,0,0
107101.15,57.073,-965.131,0,0
107361.475,57.4977,-962.806,0,0
107621.8,57.6926,-960.555,0,0
107882.125,57.844,-958.272,0,0
108142.45,57.7001,-956.119,0,0
108402.775,57.1799,-953.754,0,0
108663.1,56.7071,-951.028,0,0
108923.425,56.3348,-948.397,0,0
109183.75,55.7166,-945.725,0,0
109444.075,55.0009,-942.76,0,0
109704.4,54.4474,-939.672,0,0
109964.725,53.8719,-936.567,0,0
110225.05,53.2475,-933.241,0,0
110485.375,52.755,-929.775,0,0
110745.7,52.3643,-926.095,0,0
111006.025,52.2066,-922.611,0,0
111266.35,52.0182,-919.083,0,0
111526.675,52.0783,-915.473,0,0
111787.0,51.975,-911.953,0,0
112047.325,52.1884,-908.358,0,0
112307.65,52.3033,-904.963,0,0
112567.975,52.3908,-901.582,0,0
112828.3,52.5902,-898.078,0,0
113088.625,52.8048,-894.607,0,0
113348.95,53.1078,-891.102,0,0
113609.275,53.5966,-887.638,0,0
113869.6,53.9435,-884.371,0,0
114129.925,54.3524,-881.001,0,0
114390.25,54.8265,-877.665,0,0
114650.575,55.3024,-874.365,0,0
114910.9,55.8539,-871.098,0,0
115171.225,56.4332,-867.828,0,0
115431.55,57.1121,-864.666,0,0
115691.875,57.7836,-861.602,0,0
115952.2,58.445,-858.518,0,0
116212.525,59.0963,-855.412,0,0
116472.85,59.8567,-852.406,0,0
116733.175,60.674,-849.47,0,0
116993.5,61.4724,-846.64,0,0
117253.825,62.1973,-843.872,0,0
117514.15,62.9569,-841.079,0,0
117774.475,63.7859,-838.311,0,0
118034.8,64.6968,-835.696,0,0
118295.125,65.5188,-833.306,0,0
118555.45,66.1359,-830.936,0,0
118815.775,66.7933,-828.415,0,0
119076.1,67.6154,-826.106,0,0
119336.425,68.1987,-824.054,0,0
119596.75,68.6695,-821.754,0,0
119857.075,69.2841,-819.603,0,0
120117.4,69.6805,-817.591,0,0
120377.725,69.9666,-815.628,0,0
120638.05,70.1532,-813.65,0,0
120898.375,70.0343,-811.665,0,0
121158.7,69.7733,-809.538,0,0
121419.025,69.5717,-807.213,0,0
121679.35,69.4153,-804.814,0,0
121939.675,69.2661,-802.434,0,0
122200.0,69.0098,-800.023,0,0
122460,68.7215,-797.457,0,0
122721,68.4896,-794.763,0,0
122981,68.3612,-792.085,0,0
123241,68.2133,-789.41,0,0
123502,68.0815,-786.68,0,0
123762,67.9403,-783.953,0,0
124022,67.7644,-781.164,0,0
124283,67.6321,-778.288,0,0
124543,67.5542,-775.399,0,0
124803,67.4943,-772.414,0,0
125064,67.4803,-769.449,0,0
125324,67.5422,-766.436,0,0
125584,67.6587,-763.386,0,0
125845,67.8308,-760.327,0,0
126105,68.0952,-757.276,0,0
126365,68.352,-754.256,0,0
126626,68.704,-751.235,0,0
126886,69.0727,-748.166,0,0
127146,69.5408,-745.178,0,0
127406,69.8994,-742.245,0,0
127667,70.5825,-739.32,0,0
127927,71.2176,-736.47,0,0
128187,71.7554,-733.751,0,0
128448,72.2999,-730.989,0,0
128708,72.9011,-728.267,0,0
128968,73.4858,-725.602,0,0
129229,74.0688,-723.025,0,0
129489,74.5522,-720.497,0,0
129749,74.9543,-717.923,0,0
130010,75.3883,-715.3,0,0
130270,75.881,-712.646,0,0
130530,76.3322,-710.091,0,0
130791,76.7894,-707.495,0,0
131051,77.2603,-704.944,0,0
131311,77.6999,-702.463,0,0
131572,78.0282,-699.956,0,0
131832,78.3776,-697.437,0,0
132092,78.6623,-694.953,0,0
132353,78.8629,-692.435,0,0
132613,78.9824,-689.798,0,0
132873,79.1174,-687.03,0,0
133134,79.3676,-684.16,0,0
133394,79.6519,-681.311,0,0
133654,80.0529,-678.501,0,0
133915,80.4263,-675.677,0,0
134175,80.792,-672.896,0,0
134435,81.0617,-670.121,0,0
134696,81.3706,-667.205,0,0
134956,81.6959,-664.218,0,0
135216,82.0976,-661.197,0,0
135477,82.5016,-658.165,0,0
135737,83.0548,-655.077,0,0
135997,83.6214,-652.078,0,0
136258,84.236,-649.011,0,0
136518,84.9138,-646.017,0,0
136778,85.5442,-643.102,0,0
137039,86.1055,-640.127,0,0
137299,86.7366,-637.008,0,0
137559,87.4808,-633.915,0,0
137819,88.287,-630.872,0,0
138080,89.1034,-627.936,0,0
138340.125,89.7849,-625.033,0,0
138600.45,90.4364,-622.005,0,0
138860.775,91.1255,-618.908,0,0
139121.1,91.8597,-615.785,0,0
139381.425,92.6365,-612.618,0,0
139641.75,93.3907,-609.464,0,0
139902.075,94.1271,-606.262,0,0
140162.4,94.7779,-602.894,0,0
140422.725,95.5645,-599.335,0,0
140683.05,96.5629,-595.635,0,0
140943.375,97.7236,-591.95,0,0
141203.7,99.0033,-588.239,0,0
141464.025,100.485,-584.476,0,0
141724.35,102.156,-580.791,0,0
141984.675,103.949,-577.148,0,0
142245.0,105.944,-573.601,0,0
142505.325,107.955,-570.173,0,0
142765.65,110.114,-566.749,0,0
143025.975,112.498,-563.484,0,0
143286.3,114.882,-560.558,0,0
143546.625,117.074,-557.654,0,0
143806.95,119.293,-554.73,0,0
144067.275,121.554,-551.871,0,0
144327.6,123.842,-549.032,0,0
144587.925,126.083,-546.28,0,0
144848.25,128.286,-543.414,0,0
145108.575,130.668,-540.473,0,0
145368.9,133.202,-537.651,0,0
145629.225,135.748,-534.897,0,0
145889.55,138.366,-532.234,0,0
146149.875,140.916,-529.599,0,0
146410.2,143.521,-526.865,0,0
146670.525,146.276,-524.101,0,0
146930.85,149.179,-521.38,0,0
147191.175,152.182,-518.677,0,0
147451.5,155.42,-515.967,0,0
147711.825,158.861,-513.489,0,0
147972.15,162.328,-511.19,0,0
148232.475,165.776,-508.893,0,0
148492.8,169.431,-506.537,0,0
148753.125,173.348,-504.259,0,0
149013.45,177.534,-502.046,0,0
149273.775,182.173,-500.014,0,0
149534.1,187.209,-498.451,0,0
149794.425,192.509,-497.447,0,0
150054.75,197.822,-497.155,0,0
150315.075,202.969,-497.247,0,0
150575.4,208.262,-497.786,0,0
150835.725,213.575,-499.174,0,0
151096.05,218.264,-501.464,0,0
151356.375,222.169,-504.037,0,0
151616.7,225.715,-506.692,0,0
151877.025,228.885,-509.888,0,0
152137.35,231.078,-513.456,0,0
152397.675,232.388,-516.71,0,0
152658.0,233.224,-519.555,0,0
152918.325,233.805,-522.099,0,0
153178.65,234.213,-524.44,0,0
153438.975,234.485,-526.73,0,0
153699.3,234.4,-529.134,0,0
153959.625,233.654,-531.377,0,0
154219.95,232.396,-533.053,0,0
154480,231.123,-534.036,0,0
154741,229.979,-534.674,0,0
155001,228.863,-535.175,0,0
155261,227.76,-535.386,0,0
155522,226.702,-535.509,0,0
155782,225.825,-535.545,0,0
156042,224.808,-535.554,0,0
156303,223.568,-535.4,0,0
156563,222.147,-534.739,0,0
156823,221.152,-534.014,0,0
157084,220.097,-533.296,0,0
157344,218.675,-532.282,0,0
157604,217.426,-530.644,0,0
157864,216.563,-528.746,0,0
158125,216.249,-526.634,0,0
158385,216.202,-524.745,0,0
158645,216.383,-522.937,0,0
158906,216.575,-521.453,0,0
159166,216.961,-519.937,0,0
159426,217.352,-518.561,0,0
159687,217.809,-517.126,0,0
159947,218.411,-516.087,0,0
160207,218.849,-515.218,0,0
160468,218.846,-514.234,0,0
160728,218.88,-513.073,0,0
160988,218.985,-511.79,0,0
161249,219.293,-510.083,0,0
161509,220.28,-508.412,0,0
161769,221.537,-507.471,0,0
162030,222.757,-506.879,0,0
162290,224.128,-506.815,0,0
162550,225.035,-507.373,0,0
162811,225.348,-508.191,0,0
163071,225.055,-509.44,0,0
163331,223.823,-510.56,0,0
163592,221.996,-511.07,0,0
163852,220.037,-511.091,0,0
164112,217.756,-511.068,0,0
164373,215.023,-510.373,0,0
164633,212.244,-509.069,0,0
164893,209.695,-507.247,0,0
165154,207.32,-505.155,0,0
165414,205.101,-502.954,0,0
165674,202.618,-500.606,0,0
165935,200.098,-497.648,0,0
166195,197.898,-494.252,0,0
166455,195.868,-490.833,0,0
166716,194.002,-486.887,0,0
166976,192.536,-482.657,0,0
167236,191.428,-478.363,0,0
167497,190.665,-474.1,0,0
167757,189.839,-469.842,0,0
168017,189.234,-465.279,0,0
168277,188.975,-460.7,0,0
168538,189.035,-455.933,0,0
168798,189.5,-451.324,0,0
169058,190.16,-446.932,0,0
169319,190.791,-442.739,0,0
169579,191.379,-438.604,0,0
169839,191.982,-434.26,0,0
170100,192.885,-429.904,0,0
170360.075,193.906,-425.699,0,0
170620.4,194.811,-421.724,0,0
170880.725,195.332,-417.532,0,0
171141.05,195.942,-412.847,0,0
171401.375,196.963,-407.753,0,0
171661.7,198.5,-402.687,0,0
171922.025,200.343,-397.821,0,0
172182.35,202.259,-393.062,0,0
172442.675,204.191,-388.409,0,0
172703.0,206.167,-383.542,0,0
172963.325,208.38,-378.622,0,0
173223.65,210.821,-373.655,0,0
173483.975,213.499,-368.631,0,0
173744.3,216.334,-363.588,0,0
174004.625,219.525,-358.517,0,0
174264.95,222.896,-353.492,0,0
174525.275,226.646,-348.403,0,0
174785.6,230.896,-343.384,0,0
175045.925,235.535,-338.635,0,0
175306.25,240.572,-334.183,0,0
175566.575,245.979,-330.212,0,0
175826.9,251.544,-326.734,0,0
176087.225,257.038,-323.721,0,0
176347.55,262.525,-321.251,0,0
176607.875,267.652,-319.162,0,0
176868.2,272.316,-317.042,0,0
177128.525,277.106,-314.561,0,0
177388.85,282.289,-312.129,0,0
177649.175,288.024,-310.004,0,0
177909.5,294.067,-308.778,0,0
178169.825,299.659,-308.522,0,0
178430.15,304.585,-308.699,0,0
178690.475,309.112,-308.948,0,0
178950.8,313.001,-309.678,0,0
179211.125,316.153,-310.284,0,0
179471.45,318.758,-310.852,0,0
179731.775,321.435,-309.934,0,0
179992.1,323.172,-310.21,0,0
180252.425,324.148,-309.571,0,0
180512.75,325.148,-308.188,0,0
180773.075,326.333,-306.493,0,0
181033.4,326.977,-304.383,0,0
181293.725,327.645,-301.224,0,0
181554.05,328.82,-297.077,0,0
181814.375,330.684,-292.341,0,0
182074.7,333.557,-287.301,0,0
182335.025,337.397,-282.572,0,0
182595.35,341.425,-278.448,0,0
182855.675,345.255,-274.461,0,0
183116.0,349.04,-270.029,0,0
183376.325,353.358,-265.296,0,0
183636.65,358.353,-260.429,0,0
183896.975,363.829,-255.855,0,0
184157.3,369.423,-251.552,0,0
184417.625,375.266,-246.926,0,0
184677.95,381.642,-242.304,0,0
184938.275,388.857,-237.728,0,0
185198.6,396.638,-233.808,0,0
185458.925,404.685,-230.505,0,0
185719.25,412.862,-227.468,0,0
185979.575,421.286,-225.06,0,0
186239.9,429.512,-223.035,0,0
186500,437.981,-221.399,0,0
186761,446.104,-220.453,0,0
187021,453.52,-219.354,0,0
187281,461.064,-217.61,0,0
187542,469.298,-215.542,0,0
187802,478.254,-213.971,0,0
188062,487.453,-213.109,0,0
188322,496.472,-212.777,0,0
188583,505.462,-212.64,0,0
188843,514.371,-213.061,0,0
189103,522.739,-213.761,0,0
189364,530.92,-214.136,0,0
189624,538.901,-214.297,0,0
189884,546.899,-214.103,0,0
190145,555.489,-213.254,0,0
190405,565.045,-212.588,0,0
190665,574.881,-212.485,0,0
190926,584.685,-212.533,0,0
191186,594.897,-212.229,0,0
191446,606.121,-211.965,0,0
191707,618.116,-212.412,0,0
191967,630.512,-213.492,0,0
192227,643.389,-215.06,0,0
192488,656.797,-217.297,0,0
192748,670.715,-220.336,0,0
193008,684.973,-224.243,0,0
193269,699.825,-229.144,0,0
193529,714.915,-235.544,0,0
193789,729.696,-243.505,0,0
194050,743.806,-252.765,0,0
194310,756.929,-262.894,0,0
194570,769.337,-273.444,0,0
194831,781.298,-284.563,0,0
195091,792.757,-296.343,0,0
195351,803.598,-308.751,0,0
195612,813.687,-321.702,0,0
195872,823.095,-334.979,0,0
196132,831.703,-348.739,0,0
196393,839.511,-362.551,0,0
196653,846.627,-376.332,0,0
196913,853.362,-390.052,0,0
197174,859.965,-403.708,0,0
197434,866.312,-417.583,0,0
197694,872.612,-431.748,0,0
197955,878.93,-446.452,0,0
198215,885.142,-462.179,0,0
198475,890.527,-479.295,0,0
198735,894.246,-497.24,0,0
198996,896.21,-515.009,0,0
199256,896.94,-532.136,0,0
199516,897.108,-548.632,0,0
199777,897.129,-564.611,0,0
200037,897.342,-580.585,0,0
200297,897.448,-597.423,0,0
200558,896.645,-614.98,0,0
200818,894.261,-632.889,0,0
201078,890.812,-650.771,0,0
201339,886.175,-668.543,0,0
201599,880.312,-685.962,0,0
201859,872.983,-702.885,0,0
202120,864.766,-718.64,0,0
202380.025,856.21,-733.454,0,0
202640.35,847.223,-747.928,0,0
202900.675,837.401,-762.127,0,0
203161.0,826.554,-775.568,0,0
203421.325,814.668,-787.761,0,0
203681.65,802.478,-798.262,0,0
203941.975,790.628,-807.475,0,0
204202.3,779.342,-816.078,0,0
204462.625,768.171,-824.294,0,0
204722.95,757.061,-831.887,0,0
204983.275,746.536,-839.53,0,0
205243.6,735.313,-847.294,0,0
205503.925,723.276,-854.853,0,0
205764.25,710.082,-861.162,0,0
206024.575,696.991,-865.613,0,0
206284.9,684.682,-868.917,0,0
206545.225,672.964,-871.743,0,0
206805.55,661.401,-873.93,0,0
207065.875,650.43,-875.326,0,0
207326.2,640.012,-876.332,0,0
207586.525,630.29,-876.775,0,0
207846.85,621.37,-876.922,0,0
208107.175,613.37,-877.097,0,0
208367.5,605.864,-877.651,0,0
208627.825,598.599,-878.384,0,0
208888.15,591.625,-879.217,0,0
209148.475,585.087,-880.535,0,0
209408.8,578.579,-882.399,0,0
209669.125,571.593,-884.93,0,0
209929.45,563.887,-887.535,0,0
210189.775,555.266,-889.701,0,0
210450.1,546.496,-891.18,0,0
210710.425,537.74,-892.245,0,0
210970.75,528.885,-893.01,0,0
211231.075,519.695,-893.364,0,0
211491.4,510.407,-892.905,0,0
211751.725,501.284,-891.619,0,0
212012.05,492.71,-889.455,0,0
212272.375,484.966,-886.97,0,0
212532.7,477.857,-884.583,0,0
212793.025,471.013,-882.289,0,0
213053.35,464.32,-879.979,0,0
213313.675,457.823,-877.518,0,0
213574.0,451.387,-874.95,0,0
213834.325,445.249,-872.02,0,0
214094.65,439.494,-868.984,0,0
214354.975,433.955,-865.879,0,0
214615.3,428.85,-862.687,0,0
214875.625,424.074,-859.519,0,0
215135.95,419.606,-856.477,0,0
215396.275,415.148,-853.604,0,0
215656.6,410.739,-850.522,0,0
215916.925,406.502,-847.34,0,0
216177.25,402.594,-844.027,0,0
216437.575,399.026,-840.826,0,0
216697.9,395.557,-837.703,0,0
216958.225,392.249,-834.562,0,0
217218.55,389.091,-831.348,0,0
217478.875,386.226,-828.083,0,0
217739.2,383.644,-824.9,0,0
217999.525,381.312,-821.893,0,0
218259.85,379.089,-818.964,0,0
218520,376.952,-816.103,0,0
218780,375.022,-813.219,0,0
219041,373.274,-810.462,0,0
219301,371.713,-807.745,0,0
219561,370.375,-805.235,0,0
219822,369.045,-802.853,0,0
220082,368.005,-800.569,0,0
220342,366.937,-798.52,0,0
220603,365.773,-796.56,0,0
220863,364.691,-794.615,0,0
221123,363.706,-792.606,0,0
221384,362.948,-790.663,0,0
221644,362.289,-788.751,0,0
221904,361.806,-787.044,0,0
222165,361.624,-785.388,0,0
222425,361.569,-784.062,0,0
222685,361.514,-783.037,0,0
222946,361.54,-782.364,0,0
223206,361.489,-781.827,0,0
223466,361.342,-781.59,0,0
223727,360.962,-781.58,0,0
223987,360.378,-781.473,0,0
224247,359.827,-781.349,0,0
224508,359.187,-781.456,0,0
224768,358.458,-781.656,0,0
225028,357.461,-781.943,0,0
225289,356.275,-782.002,0,0
225549,355.15,-781.906,0,0
225809,354.129,-781.606,0,0
226070,353.366,-781.334,0,0
226330,352.563,-781.242,0,0
226590,352.019,-781.065,0,0
226851,351.455,-781.14,0,0
227111,351.16,-781.288,0,0
227371,350.854,-781.667,0,0
227632,350.551,-782.29,0,0
227892,350.248,-783.169,0,0
228152,349.932,-784.274,0,0
228413,349.506,-785.637,0,0
228673,348.839,-787.322,0,0
228933,348.022,-789.157,0,0
229193,346.811,-791.302,0,0
229454,345.276,-793.406,0,0
229714,343.466,-795.64,0,0
229974,341.246,-797.846,0,0
230235,338.767,-799.861,0,0
230495,336.065,-801.696,0,0
230755,333.126,-803.474,0,0
231016,330.012,-805.073,0,0
231276,326.696,-806.456,0,0
231536,323.296,-807.608,0,0
231797,319.873,-808.515,0,0
232057,316.511,-809.34,0,0
232317,313.044,-810.091,0,0
232578,309.434,-810.709,0,0
232838,305.826,-811.233,0,0
233098,302.202,-811.494,0,0
233359,298.615,-811.629,0,0
233619,295.005,-811.659,0,0
233879,291.37,-811.594,0,0
234140,287.828,-811.353,0,0
234400,284.316,-811.071,0,0
234660.3,280.786,-810.624,0,0
234920.625,277.239,-810.139,0,0
235180.95,273.893,-809.572,0,0
235441.275,270.447,-808.939,0,0
235701.6,267.078,-808.313,0,0
235961.925,263.636,-807.552,0,0
236222.25,260.286,-806.728,0,0
236482.575,256.952,-805.861,0,0
236742.9,253.604,-804.996,0,0
237003.225,250.217,-804.04,0,0
237263.55,246.79,-802.94,0,0
237523.875,243.393,-801.715,0,0
237784.2,240.037,-800.359,0,0
238044.525,236.779,-798.924,0,0
238304.85,233.534,-797.388,0,0
238565.175,230.36,-795.8,0,0
238825.5,227.27,-794.055,0,0
239085.825,224.265,-792.33,0,0
239346.15,221.317,-790.528,0,0
239606.475,218.463,-788.68,0,0
239866.8,215.65,-786.72,0,0
240127.125,212.98,-784.743,0,0
240387.45,210.354,-782.707,0,0
240647.775,207.9,-780.621,0,0
240908.1,205.433,-778.442,0,0
241168.425,203.253,-776.454,0,0
241428.75,200.921,-774.524,0,0
241689.075,198.767,-772.447,0,0
241949.4,196.621,-770.475,0,0
242209.725,194.465,-768.426,0,0
242470.05,192.481,-766.225,0,0
242730.375,190.581,-764.125,0,0
242990.7,188.889,-762.193,0,0
243251.025,187.206,-760.198,0,0
243511.35,185.592,-758.43,0,0
243771.675,183.823,-756.745,0,0
244032.0,182.071,-755.08,0,0
244292.325,180.261,-753.446,0,0
244552.65,178.431,-751.789,0,0
244812.975,176.677,-750.078,0,0
245073.3,174.904,-748.493,0,0
245333.625,173.125,-746.959,0,0
245593.95,171.23,-745.417,0,0
245854.275,169.295,-743.851,0,0
246114.6,167.259,-742.47,0,0
246374.925,165.144,-741.02,0,0
246635.25,162.892,-739.467,0,0
246895.575,160.433,-737.836,0,0
247155.9,157.84,-735.971,0,0
247416.225,155.325,-733.931,0,0
247676.55,152.888,-731.671,0,0
247936.875,150.346,-729.206,0,0
248197.2,148.092,-726.645,0,0
248457.525,145.902,-724.028,0,0
248717.85,143.853,-721.413,0,0
248978.175,141.708,-718.662,0,0
249238.5,139.728,-715.865,0,0
249498.825,137.906,-712.886,0,0
249759.15,136.113,-709.929,0,0
250019.475,134.447,-706.952,0,0
250279.8,132.777,-703.925,0,0
250540,131.214,-700.796,0,0
250800,129.701,-697.6,0,0
251061,128.356,-694.334,0,0
251321,127.146,-690.955,0,0
251581,126.081,-687.57,0,0
251842,125.166,-684.192,0,0
252102,124.419,-680.825,0,0
252362,123.85,-677.492,0,0
252623,123.379,-674.223,0,0
252883,122.978,-671.016,0,0
253143,122.652,-667.909,0,0
253404,122.377,-664.844,0,0
253664,122.135,-661.804,0,0
253924,121.877,-658.741,0,0
254185,121.763,-655.684,0,0
254445,121.667,-652.632,0,0
254705,121.671,-649.624,0,0
254966,121.647,-646.577,0,0
255226,121.77,-643.457,0,0
255486,121.988,-640.406,0,0
255747,122.307,-637.227,0,0
256007,122.777,-634.083,0,0
256267,123.463,-630.962,0,0
256528,124.321,-627.957,0,0
256788,125.278,-625.089,0,0
257048,126.305,-622.358,0,0
257309,127.365,-619.738,0,0
257569,128.504,-617.217,0,0
257829,129.631,-614.722,0,0
258090,130.789,-612.323,0,0
258350,132.022,-609.958,0,0
258610,133.298,-607.677,0,0
258871,134.617,-605.457,0,0
259131,135.965,-603.282,0,0
259391,137.399,-601.129,0,0
259651,138.938,-599.032,0,0
259912,140.59,-597.022,0,0
260172,142.336,-595.156,0,0
260432,144.08,-593.403,0,0
260693,145.877,-591.804,0,0
260953,147.728,-590.29,0,0
261213,149.596,-588.87,0,0
261474,151.509,-587.63,0,0
261734,153.456,-586.488,0,0
261994,155.335,-585.522,0,0
262255,157.23,-584.657,0,0
262515,159.097,-583.915,0,0
262775,160.919,-583.286,0,0
263036,162.696,-582.746,0,0
263296,164.456,-582.286,0,0
263556,166.2,-581.947,0,0
263817,167.934,-581.691,0,0
264077,169.597,-581.622,0,0
264337,171.202,-581.631,0,0
264598,172.733,-581.802,0,0
264858,174.133,-582.058,0,0
265118,175.39,-582.475,0,0
265379,176.505,-582.914,0,0
265639,177.386,-583.311,0,0
265899,178.171,-583.712,0,0
266160,178.813,-584.115,0,0
266420,179.379,-584.357,0,0
266680.25,179.964,-584.529,0,0
266940.575,180.526,-584.677,0,0
267200.9,181.11,-584.848,0,0
267461.225,181.64,-585.052,0,0
267721.55,182.156,-585.287,0,0
267981.875,182.564,-585.553,0,0
268242.2,182.89,-585.814,0,0
268502.525,183.109,-586.064,0,0
268762.85,183.215,-586.239,0,0
269023.175,183.234,-586.292,0,0
269283.5,183.177,-586.214,0,0
269543.825,183.139,-585.997,0,0
269804.15,183.162,-585.567,0,0
270064.475,183.266,-585.074,0,0
270324.8,183.477,-584.53,0,0
270585.125,183.731,-583.905,0,0
270845.45,184.166,-583.158,0,0
271105.775,184.782,-582.372,0,0
271366.1,185.565,-581.6,0,0
271626.425,186.548,-580.889,0,0
271886.75,187.652,-580.299,0,0
272147.075,188.842,-579.837,0,0
272407.4,190.096,-579.396,0,0
272667.725,191.468,-578.994,0,0
272928.05,193.009,-578.688,0,0
273188.375,194.709,-578.53,0,0
273448.7,196.582,-578.483,0,0
273709.025,198.577,-578.651,0,0
273969.35,200.72,-579.044,0,0
274229.675,202.999,-579.732,0,0
274490.0,205.368,-580.758,0,0
274750.325,207.797,-582.215,0,0
275010.65,210.141,-584.106,0,0
275270.975,212.391,-586.397,0,0
275531.3,214.354,-589.152,0,0
275791.625,216.004,-592.361,0,0
276051.95,217.213,-595.912,0,0
276312.275,217.884,-599.737,0,0
276572.6,217.946,-603.712,0,0
276832.925,217.363,-607.659,0,0
277093.25,216.248,-611.397,0,0
277353.575,214.637,-614.877,0,0
277613.9,212.745,-618.018,0,0
277874.225,210.554,-620.848,0,0
278134.55,208.24,-623.336,0,0
278394.875,205.78,-625.497,0,0
278655.2,203.289,-627.433,0,0
278915.525,200.795,-629.132,0,0
279175.85,198.281,-630.723,0,0
279436.175,195.709,-632.152,0,0
279696.5,193.053,-633.416,0,0
279956.825,190.359,-634.513,0,0
280217.15,187.553,-635.481,0,0
280477.475,184.746,-636.223,0,0
280737.8,181.966,-636.709,0,0
280998.125,179.289,-637.061,0,0
281258.45,176.71,-637.323,0,0
281518.775,174.175,-637.602,0,0
281779.1,171.594,-637.873,0,0
282039.425,168.892,-638.072,0,0
282299.75,166.073,-638.176,0,0
282560,163.133,-638.139,0,0
282820,160.062,-637.83,0,0
283081,156.998,-637.198,0,0
283341,154.022,-636.207,0,0
283601,151.272,-634.942,0,0
283862,148.826,-633.497,0,0
284122,146.751,-632.046,0,0
284382,144.949,-630.801,0,0
284643,143.214,-629.809,0,0
284903,141.324,-629.058,0,0
285163,139.163,-628.389,0,0
285424,136.754,-627.591,0,0
285684,134.094,-626.557,0,0
285944,131.373,-625.239,0,0
286205,128.587,-623.605,0,0
286465,125.831,-621.66,0,0
286725,123.166,-619.343,0,0
286986,120.686,-616.674,0,0
287246,118.473,-613.739,0,0
287506,116.563,-610.581,0,0
287767,114.958,-607.292,0,0
288027,113.664,-603.9,0,0
288287,112.67,-600.404,0,0
288548,111.904,-596.85,0,0
288808,111.44,-593.197,0,0
289068,111.346,-589.363,0,0
289329,111.722,-585.485,0,0
289589,112.651,-581.677,0,0
289849,114.105,-578.097,0,0
290109,115.995,-574.846,0,0
290370,118.193,-571.983,0,0
290630,120.689,-569.485,0,0
290890,123.389,-567.413,0,0
291151,126.29,-565.816,0,0
291411,129.302,-564.706,0,0
291671,132.34,-564.099,0,0
291932,135.336,-564.001,0,0
292192,138.2,-564.41,0,0
292452,140.856,-565.337,0,0
292713,143.167,-566.762,0,0
292973,144.969,-568.621,0,0
293233,146.138,-570.705,0,0
293494,146.693,-572.827,0,0
293754,146.636,-574.759,0,0
294014,146.135,-576.346,0,0
294275,145.348,-577.563,0,0
294535,144.455,-578.284,0,0
294795,143.623,-578.602,0,0
295056,142.963,-578.558,0,0
295316,142.644,-578.323,0,0
295576,142.727,-577.999,0,0
295837,143.206,-577.824,0,0
296097,144.035,-577.927,0,0
296357,145.095,-578.589,0,0
296618,146.091,-579.854,0,0
296878,146.708,-581.693,0,0
297138,146.733,-583.858,0,0
297399,146.145,-586.069,0,0
297659,145.001,-588.105,0,0
297919,143.469,-589.836,0,0
298180,141.69,-591.241,0,0
298440,139.781,-592.298,0,0
298700.2,137.826,-593.074,0,0
298960.525,135.908,-593.59,0,0
299220.85,134.04,-593.914,0,0
299481.175,132.252,-594.135,0,0
299741.5,130.48,-594.275,0,0
300001.825,128.692,-594.351,0,0
300262.15,126.854,-594.285,0,0
300522.475,124.99,-594.087,0,0
300782.8,123.141,-593.7,0,0
301043.125,121.364,-593.091,0,0
301303.45,119.734,-592.297,0,0
301563.775,118.305,-591.384,0,0
301824.1,117.126,-590.412,0,0
302084.425,116.156,-589.479,0,0
302344.75,115.413,-588.65,0,0
302605.075,114.784,-587.969,0,0
302865.4,114.25,-587.485,0,0
303125.725,113.693,-587.175,0,0
303386.05,113.102,-587.033,0,0
303646.375,112.425,-587.013,0,0
303906.7,111.601,-587.114,0,0
304167.025,110.665,-587.279,0,0
304427.35,109.558,-587.478,0,0
304687.675,108.277,-587.676,0,0
304948.0,106.836,-587.802,0,0
305208.325,105.262,-587.816,0,0
305468.65,103.565,-587.709,0,0
305728.975,101.814,-587.453,0,0
305989.3,100.032,-587.056,0,0
306249.625,98.2479,-586.525,0,0
306509.95,96.4801,-585.883,0,0
306770.275,94.724,-585.128,0,0
307030.6,92.9871,-584.237,0,0
307290.925,91.3228,-583.249,0,0
307551.25,89.7295,-582.157,0,0
307811.575,88.2078,-580.998,0,0
308071.9,86.7855,-579.787,0,0
308332.225,85.4353,-578.552,0,0
308592.55,84.1582,-577.271,0,0
308852.875,82.9586,-575.961,0,0
309113.2,81.8145,-574.667,0,0
309373.525,80.7791,-573.357,0,0
309633.85,79.7969,-572.081,0,0
309894.175,78.8228,-570.848,0,0
310154.5,77.8945,-569.626,0,0
310414.825,76.9687,-568.396,0,0
310675.15,76.0399,-567.167,0,0
310935.475,75.1281,-565.935,0,0
311195.8,74.2311,-564.673,0,0
311456.125,73.358,-563.403,0,0
311716.45,72.5136,-562.111,0,0
311976.775,71.7071,-560.79,0,0
312237.1,70.9382,-559.461,0,0
312497.425,70.1999,-558.114,0,0
312757.75,69.5143,-556.758,0,0
313018.075,68.8874,-555.406,0,0
313278.4,68.3112,-554.07,0,0
313538.725,67.7682,-552.757,0,0
313799.05,67.2621,-551.486,0,0
314059.375,66.7716,-550.248,0,0
314319.7,66.2694,-549.029,0,0
314580,65.7699,-547.868,0,0
314840,65.2693,-546.67,0,0
315101,64.7662,-545.413,0,0
315361,64.249,-544.202,0,0
315621,63.7889,-542.925,0,0
315882,63.3494,-541.728,0,0
316142,62.8335,-540.501,0,0
316402,62.45,-539.165,0,0
316663,62.0411,-537.894,0,0
316923,61.6404,-536.648,0,0
317183,61.3874,-535.305,0,0
317444,61.0967,-534.135,0,0
317704,60.8914,-532.881,0,0
317964,60.6772,-531.612,0,0
318225,60.5026,-530.436,0,0
318485,60.2487,-529.245,0,0
318745,60.1222,-528.119,0,0
319006,59.9204,-527.017,0,0
319266,59.7889,-525.881,0,0
319526,59.6695,-524.842,0,0
319787,59.4537,-523.818,0,0
320047,59.2678,-522.791,0,0
320307,59.1156,-521.735,0,0
320567,58.8429,-520.672,0,0
320828,58.7242,-519.59,0,0
321088,58.4581,-518.547,0,0
321348,58.2669,-517.474,0,0
321609,58.0799,-516.434,0,0
321869,57.9555,-515.341,0,0
322129,57.7162,-514.304,0,0
322390,57.5384,-513.227,0,0
322650,57.3137,-512.121,0,0
322910,57.2057,-511.004,0,0
323171,57.0218,-509.939,0,0
323431,56.8594,-508.755,0,0
323691,56.6819,-507.624,0,0
323952,56.5435,-506.337,0,0
324212,56.4898,-505.117,0,0
324472,56.4209,-503.813,0,0
324733,56.4727,-502.473,0,0
324993,56.5605,-501.135,0,0
325253,56.8468,-499.759,0,0
325514,57.0728,-498.42,0,0
325774,57.5287,-497.116,0,0
326034,58.0228,-495.882,0,0
326295,58.6255,-494.762,0,0
326555,59.256,-493.652,0,0
326815,59.9456,-492.851,0,0
327076,60.6453,-492.084,0,0
327336,61.3349,-491.453,0,0
327596,61.97,-490.86,0,0
327857,62.4683,-490.396,0,0
328117,62.9635,-489.897,0,0
328377,63.3397,-489.501,0,0
328638,63.7453,-489.112,0,0
328898,64.0309,-488.735,0,0
329158,64.4034,-488.362,0,0
329419,64.7347,-487.966,0,0
329679,65.0277,-487.586,0,0
329939,65.3143,-487.308,0,0
330200,65.5883,-487.026,0,0
330460,65.8302,-486.799,0,0
330720.15,66.0279,-486.59,0,0
330980.475,66.1453,-486.482,0,0
331240.8,66.347,-486.358,0,0
331501.125,66.3057,-486.292,0,0
331761.45,66.3034,-486.215,0,0
332021.775,66.2779,-486.164,0,0
332282.1,66.0641,-486.126,0,0
332542.425,65.8427,-486.084,0,0
332802.75,65.5788,-485.992,0,0
333063.075,65.1959,-485.875,0,0
333323.4,64.7071,-485.729,0,0
333583.725,64.2632,-485.455,0,0
333844.05,63.6987,-485.137,0,0
334104.375,63.127,-484.767,0,0
334364.7,62.6131,-484.261,0,0
334625.025,62.0196,-483.736,0,0
334885.35,61.5654,-483.136,0,0
335145.675,61.0749,-482.513,0,0
335406.0,60.7055,-481.91,0,0
335666.325,60.2914,-481.235,0,0
335926.65,59.8827,-480.57,0,0
336186.975,59.4705,-479.921,0,0
336447.3,59.0615,-479.183,0,0
336707.625,58.6756,-478.469,0,0
336967.95,58.3325,-477.759,0,0
337228.275,58.0116,-476.99,0,0
337488.6,57.6711,-476.221,0,0
337748.925,57.4304,-475.46,0,0
338009.25,57.0794,-474.674,0,0
338269.575,56.8324,-473.904,0,0
338529.9,56.5664,-473.098,0,0
338790.225,56.2925,-472.233,0,0
339050.55,56.0405,-471.478,0,0
339310.875,55.8241,-470.615,0,0
339571.2,55.6006,-469.75,0,0
339831.525,55.3865,-468.915,0,0
340091.85,55.2426,-468.032,0,0
340352.175,55.0655,-467.15,0,0
340612.5,54.9316,-466.284,0,0
340872.825,54.856,-465.434,0,0
341133.15,54.7505,-464.543,0,0
341393.475,54.7034,-463.703,0,0
341653.8,54.6333,-462.868,0,0
341914.125,54.6117,-461.996,0,0
342174.45,54.5969,-461.173,0,0
342434.775,54.5243,-460.305,0,0
342695.1,54.5134,-459.454,0,0
342955.425,54.5441,-458.634,0,0
343215.75,54.5513,-457.781,0,0
343476.075,54.5685,-456.912,0,0
343736.4,54.6081,-456.056,0,0
343996.725,54.6043,-455.261,0,0
344257.05,54.7351,-454.409,0,0
344517.375,54.8548,-453.516,0,0
344777.7,54.9641,-452.677,0,0
345038.025,55.1509,-451.875,0,0
345298.35,55.2963,-451.056,0,0
345558.675,55.5034,-450.224,0,0
345819.0,55.6534,-449.466,0,0
346079.325,55.8861,-448.631,0,0
346339.65,56.1011,-447.892,0,0
346599.975,56.4134,-447.152,0,0
346860,56.5771,-446.396,0,0
347121,56.8421,-445.711,0,0
347381,57.1143,-445.042,0,0
347641,57.353,-444.34,0,0
347902,57.6506,-443.715,0,0
348162,57.9328,-443.008,0,0
348422,58.1712,-442.316,0,0
348683,58.5289,-441.73,0,0
348943,58.8282,-441.111,0,0
349203,59.1599,-440.543,0,0
349464,59.5057,-439.962,0,0
349724,59.8042,-439.405,0,0
349984,60.1687,-438.885,0,0
350245,60.4903,-438.374,0,0
350505,60.8323,-437.926,0,0
350765,61.1889,-437.455,0,0
351025,61.4713,-437.015,0,0
351286,61.7475,-436.627,0,0
351546,62.0473,-436.264,0,0
351806,62.327,-435.826,0,0
352067,62.5464,-435.462,0,0
352327,62.7773,-435.111,0,0
352587,62.9773,-434.735,0,0
352848,63.17,-434.309,0,0
353108,63.3873,-433.896,0,0
353368,63.5544,-433.545,0,0
353629,63.7814,-433.125,0,0
353889,64.0224,-432.718,0,0
354149,64.2307,-432.339,0,0
354410,64.4677,-431.944,0,0
354670,64.7071,-431.537,0,0
354930,64.9254,-431.157,0,0
355191,65.1748,-430.792,0,0
355451,65.4135,-430.442,0,0
355711,65.6307,-430.067,0,0
355972,65.9013,-429.699,0,0
356232,66.1216,-429.308,0,0
356492,66.4246,-428.97,0,0
356753,66.6589,-428.638,0,0
357013,67.0017,-428.299,0,0
357273,67.2781,-428.009,0,0
357534,67.6109,-427.713,0,0
357794,67.9362,-427.435,0,0
358054,68.2766,-427.18,0,0
358315,68.648,-427.011,0,0
358575,68.9565,-426.846,0,0
358835,69.3152,-426.746,0,0
359096,69.6283,-426.66,0,0
359356,69.9299,-426.605,0,0
359616,70.1732,-426.601,0,0
359877,70.4236,-426.585,0,0
360137,70.6027,-426.66,0,0
360397,70.7452,-426.71,0,0
360658,70.8759,-426.775,0,0
360918,70.9034,-426.823,0,0
361178,71.0043,-426.849,0,0
361438,71.0208,-426.901,0,0
361699,71.0079,-426.975,0,0
361959,71.0061,-427.013,0,0
362219,70.8932,-427.079,0,0
362480,70.8382,-427.102,0,0
362740.1,70.745,-427.126,0,0
363000.425,70.6167,-427.146,0,0
363260.75,70.4551,-427.14,0,0
363521.075,70.2387,-427.11,0,0
363781.4,70.0419,-427.056,0,0
364041.725,69.8438,-427.003,0,0
364302.05,69.638,-426.954,0,0
364562.375,69.3966,-426.846,0,0
364822.7,69.1709,-426.69,0,0
365083.025,68.9586,-426.582,0,0
365343.35,68.6838,-426.46,0,0
365603.675,68.4131,-426.295,0,0
365864.0,68.1986,-426.14,0,0
366124.325,67.8286,-425.931,0,0
366384.65,67.5404,-425.698,0,0
366644.975,67.2281,-425.42,0,0
366905.3,67.0101,-425.085,0,0
367165.625,66.7615,-424.751,0,0
367425.95,66.5388,-424.387,0,0
367686.275,66.4159,-424.016,0,0
367946.6,66.2693,-423.676,0,0
368206.925,66.1794,-423.314,0,0
368467.25,66.1402,-423.001,0,0
368727.575,66.1134,-422.71,0,0
368987.9,66.0826,-422.454,0,0
369248.225,65.9898,-422.238,0,0
369508.55,65.9422,-422.016,0,0
369768.875,65.911,-421.863,0,0
370029.2,65.859,-421.75,0,0
370289.525,65.7245,-421.627,0,0
370549.85,65.6016,-421.518,0,0
370810.175,65.4553,-421.423,0,0
371070.5,65.2042,-421.335,0,0
371330.825,64.9163,-421.222,0,0
371591.15,64.6591,-421.063,0,0
371851.475,64.3441,-420.871,0,0
372111.8,64.0667,-420.647,0,0
372372.125,63.7982,-420.429,0,0
372632.45,63.516,-420.184,0,0
372892.775,63.2671,-419.882,0,0
373153.1,63.035,-419.563,0,0
373413.425,62.8114,-419.343,0,0
373673.75,62.5908,-419.113,0,0
373934.075,62.3964,-418.866,0,0
374194.4,62.1829,-418.633,0,0
374454.725,61.9399,-418.402,0,0
374715.05,61.699,-418.23,0,0
374975.375,61.4227,-418.053,0,0
375235.7,61.1034,-417.828,0,0
375496.025,60.8143,-417.625,0,0
375756.35,60.4696,-417.394,0,0
376016.675,60.1059,-417.111,0,0
376277.0,59.7649,-416.828,0,0
376537.325,59.4312,-416.591,0,0
376797.65,59.0887,-416.213,0,0
377057.975,58.8324,-415.907,0,0
377318.3,58.5488,-415.609,0,0
377578.625,58.2493,-415.339,0,0
377838.95,57.9899,-415.017,0,0
378099.275,57.7001,-414.799,0,0
378359.6,57.3435,-414.637,0,0
378619.925,56.9483,-414.428,0,0
378880,56.4667,-414.222,0,0
379141,55.9379,-413.973,0,0
379401,55.3354,-413.672,0,0
379661,54.6737,-413.209,0,0
379922,54.0275,-412.742,0,0
380182,53.4725,-412.041,0,0
380442,52.9586,-411.303,0,0
380703,52.6163,-410.479,0,0
380963,52.3721,-409.619,0,0
381223,52.2241,-408.875,0,0
381483,52.1793,-408.163,0,0
381744,52.3156,-407.615,0,0
382004,52.3582,-407.179,0,0
382264,52.2916,-406.845,0,0
382525,52.2346,-406.554,0,0
382785,52.0374,-406.277,0,0
383045,51.8509,-406.052,0,0
383306,51.5827,-405.788,0,0
383566,51.2362,-405.504,0,0
383826,50.9054,-405.169,0,0
384087,50.4769,-404.791,0,0
384347,50.1296,-404.42,0,0
384607,49.6731,-403.976,0,0
384868,49.2776,-403.494,0,0
385128,48.8873,-403,0,0
385388,48.4753,-402.466,0,0
385649,48.0683,-401.914,0,0
385909,47.6909,-401.328,0,0
386169,47.3394,-400.726,0,0
386430,46.9653,-400.059,0,0
386690,46.6419,-399.439,0,0
386950,46.3547,-398.761,0,0
387211,46.0889,-398.091,0,0
387471,45.7756,-397.409,0,0
387731,45.5869,-396.719,0,0
387992,45.3371,-396.021,0,0
388252,45.1477,-395.311,0,0
388512,44.9576,-394.598,0,0
388773,44.7707,-393.913,0,0
389033,44.6676,-393.186,0,0
389293,44.5258,-392.482,0,0
389554,44.5231,-391.752,0,0
389814,44.4731,-391.072,0,0
390074,44.4761,-390.412,0,0
390335,44.5256,-389.754,0,0
390595,44.561,-389.173,0,0
390855,44.616,-388.64,0,0
391116,44.6788,-388.14,0,0
391376,44.7488,-387.708,0,0
391636,44.7365,-387.29,0,0
391896,44.7048,-386.907,0,0
392157,44.619,-386.6,0,0
392417,44.4449,-386.283,0,0
392677,44.254,-385.906,0,0
392938,43.983,-385.518,0,0
393198,43.7045,-385.103,0,0
393458,43.3977,-384.616,0,0
393719,43.0509,-384.109,0,0
393979,42.7191,-383.552,0,0
394239,42.4115,-382.951,0,0
394500,42.0706,-382.3,0,0
394760.05,41.7762,-381.646,0,0
395020.375,41.489,-380.877,0,0
395280.7,41.2261,-380.131,0,0
395541.025,40.9795,-379.363,0,0
395801.35,40.7929,-378.572,0,0
396061.675,40.647,-377.716,0,0
396322.0,40.5204,-376.934,0,0
396582.325,40.4609,-376.103,0,0
396842.65,40.408,-375.295,0,0
397102.975,40.3794,-374.463,0,0
397363.3,40.3681,-373.698,0,0
397623.625,40.4455,-372.895,0,0
397883.95,40.4606,-372.102,0,0
398144.275,40.4943,-371.336,0,0
398404.6,40.6061,-370.635,0,0
398664.925,40.692,-369.888,0,0
398925.25,40.7784,-369.159,0,0
399185.575,40.928,-368.419,0,0
399445.9,41.0499,-367.72,0,0
399706.225,41.1646,-367.042,0,0
399966.55,41.3096,-366.394,0,0
400006.6,41.3117,-366.276,0,0