File: Accelerated corrosion test data/2025-10-11_06-00-04/sample_6.csv
Frequency (Hz),Impedance (ohms),Phase (Radians),Temperature (C),Humidity (%)
10000.0,4226.43,-6511.56,0,0
10260.325,4088.73,-6436.19,0,0
10520.65,3957.23,-6360.79,0,0
10780.975,3832.05,-6286.2,0,0
11041.3,3712.83,-6211.98,0,0
11301.625,3598.33,-6138.17,0,0
11561.95,3489.1,-6065.06,0,0
11822.275,3384.38,-5992.91,0,0
12082.6,3284.05,-5921.32,0,0
12342.925,3187.95,-5850.4,0,0
12603.25,3098.46,-5779.75,0,0
12863.575,3010.71,-5710.75,0,0
13123.9,2928.57,-5644.64,0,0
13384.225,2846.95,-5580.06,0,0
13644.55,2767.91,-5515.03,0,0
13904.875,2693,-5449.97,0,0
14165.2,2621,-5386.33,0,0
14425.525,2551.25,-5323.62,0,0
14685.8,2484.94,-5261.75,0,0
14946.175,2423.12,-5201.27,0,0
15206.5,2361.12,-5141.75,0,0
15466.825,2302.89,-5083.23,0,0
15727.15,2245.93,-5026.28,0,0
15987.5,2191.43,-4969.74,0,0
16247.8,2138.49,-4914.23,0,0
16508.125,2087.73,-4859.76,0,0
16768.45,2038.43,-4805.77,0,0
17028.775,1992.03,-4753.03,0,0
17289.1,1946.31,-4702.15,0,0
17549.425,1901.88,-4651.23,0,0
17809.75,1858.92,-4601.34,0,0
18070.075,1817.78,-4551.78,0,0
18330.4,1777.99,-4503.82,0,0
18590.725,1739.21,-4455.73,0,0
18851.05,1703.52,-4410.05,0,0
19111.375,1667.82,-4363.88,0,0
19371.7,1633.69,-4319.65,0,0
19632.025,1599.26,-4277.11,0,0
19892.35,1566.64,-4233.81,0,0
20152.675,1535.63,-4190.72,0,0
20413.0,1504.48,-4149.68,0,0
20673.3,1474.17,-4108.68,0,0
20933.65,1445.08,-4068.17,0,0
21193.975,1417.59,-4027.69,0,0
21454.3,1390.55,-3989.44,0,0
21714.625,1363.79,-3950.33,0,0
21974.9,1338.65,-3913.41,0,0
22235.275,1313.17,-3875.55,0,0
22495.6,1289.17,-3838.51,0,0
22755.925,1266.9,-3801.25,0,0
23016.25,1246.49,-3765.39,0,0
23276.6,1225.98,-3733.16,0,0
23536.9,1204.24,-3701.59,0,0
23797.225,1182.55,-3668.2,0,0
24057.55,1161.51,-3635.91,0,0
24317.875,1141.34,-3603.51,0,0
24578.2,1121.77,-3571.9,0,0
24838.525,1102.58,-3540.54,0,0
25098.85,1084.11,-3509.03,0,0
25359.175,1066.36,-3478.85,0,0
25619.5,1048.78,-3448.96,0,0
25879.8,1031.74,-3419.83,0,0
26140.1,1014.95,-3390.58,0,0
26400.5,998.942,-3361.63,0,0
26660.8,983.368,-3333.01,0,0
26921.1,968.459,-3305.44,0,0
27181.4,953.687,-3278.09,0,0
27441.8,939.474,-3250.68,0,0
27702.1,925.665,-3224.65,0,0
27962.4,911.521,-3199.04,0,0
28222.7,897.739,-3173.38,0,0
28483.1,884.281,-3148.46,0,0
28743.4,871.126,-3123.12,0,0
29003.7,857.914,-3097.95,0,0
29264,845.564,-3073.11,0,0
29524.4,834.065,-3048.35,0,0
29784.7,822.79,-3024.38,0,0
30045,812.026,-3000.88,0,0
30305.3,801.886,-2977.94,0,0
30565.7,791.203,-2955.83,0,0
30826,780.7,-2933.83,0,0
31086.3,769.853,-2911.46,0,0
31346.6,759.946,-2889.58,0,0
31607,750.137,-2867.66,0,0
31867.3,741.373,-2845.93,0,0
32127.6,732.139,-2825.31,0,0
32387.9,723.84,-2804.07,0,0
32648.3,716.15,-2782.84,0,0
32908.6,709.483,-2764.69,0,0
33168.9,701.712,-2746.35,0,0
33429.2,693.722,-2728.45,0,0
33689.6,685.21,-2710.82,0,0
33949.9,677.088,-2693.71,0,0
34210.2,667.331,-2676.41,0,0
34470.5,658.379,-2658.37,0,0
34730.9,650.407,-2639.68,0,0
34991.2,642.536,-2622.13,0,0
35251.5,635.258,-2604.63,0,0
35511.8,627.94,-2588.17,0,0
35772.2,619.704,-2571.88,0,0
36032.5,610.992,-2555.21,0,0
36292.8,603.031,-2537.82,0,0
36553.1,595.522,-2520.51,0,0
36813.5,588.37,-2503.4,0,0
37073.8,581.852,-2486.71,0,0
37334.1,575.252,-2470.43,0,0
37594.4,568.702,-2454.14,0,0
37854.8,562.224,-2437.69,0,0
38115.1,556.022,-2421.55,0,0
38375.4,549.98,-2405.54,0,0
38635.7,544.256,-2390.18,0,0
38896.1,538.309,-2374.6,0,0
39156.4,533.236,-2358.65,0,0
39416.7,528.55,-2343.13,0,0
39677,524.142,-2328.5,0,0
39937.4,519.775,-2313.95,0,0
40197.7,515.377,-2299.79,0,0
40458,511.091,-2286.15,0,0
40718.3,506.725,-2272.64,0,0
40978.7,502.334,-2259.63,0,0
41239,497.632,-2246.7,0,0
41499.3,493.343,-2233.51,0,0
41759.6,489.282,-2220.88,0,0
42020,484.528,-2209.03,0,0
42280.275,479.582,-2196.68,0,0
42540.6,474.132,-2184.42,0,0
42800.925,468.623,-2170.96,0,0
43061.25,464.218,-2157.64,0,0
43321.575,460.296,-2144.25,0,0
43581.9,456.828,-2131.66,0,0
43842.225,452.779,-2119.14,0,0
44102.55,449.924,-2106.4,0,0
44362.875,447.141,-2094.21,0,0
44623.2,444.272,-2082.67,0,0
44883.525,441.356,-2071.22,0,0
45143.85,438.358,-2059.94,0,0
45404.175,436.12,-2049.07,0,0
45664.5,433.12,-2038.6,0,0
45924.825,430.58,-2027.64,0,0
46185.15,428.653,-2018.17,0,0
46445.475,425.63,-2008.67,0,0
46705.8,422.365,-1998.9,0,0
46966.125,419.617,-1989.34,0,0
47226.45,416.433,-1980.3,0,0
47486.775,413.076,-1971.32,0,0
47747.1,409.515,-1961.9,0,0
48007.425,406.656,-1952.99,0,0
48267.75,403.197,-1944.19,0,0
48528.075,399.317,-1935.69,0,0
48788.4,395.838,-1926.43,0,0
49048.725,392.497,-1917.63,0,0
49309.05,388.564,-1909.52,0,0
49569.375,384.426,-1901,0,0
49829.7,380.344,-1892.65,0,0
50090.025,375.671,-1883.78,0,0
50350.35,371.338,-1874.58,0,0
50610.675,367.121,-1865.6,0,0
50871.0,363.123,-1856.08,0,0
51131.325,358.842,-1846.74,0,0
51391.65,355.571,-1836.84,0,0
51651.975,352.188,-1827.82,0,0
51912.3,348.869,-1818.7,0,0
52172.625,345.181,-1809.69,0,0
52432.95,341.848,-1800.21,0,0
52693.275,339.116,-1790.95,0,0
52953.6,336.343,-1782.23,0,0
53213.925,333.34,-1773.57,0,0
53474.25,330.131,-1765.17,0,0
53734.575,326.738,-1756.63,0,0
53994.9,323.415,-1747.63,0,0
54255.225,320.386,-1738.7,0,0
54515.55,317.507,-1729.66,0,0
54775.875,314.746,-1720.87,0,0
55036.2,312.154,-1712.16,0,0
55296.525,309.455,-1703.43,0,0
55556.85,306.761,-1694.78,0,0
55817.175,304.158,-1685.95,0,0
56077.5,301.663,-1677.18,0,0
56337.825,299.343,-1668.16,0,0
56598.15,297.3,-1659.08,0,0
56858.475,295.761,-1650.13,0,0
57118.8,294.316,-1641.59,0,0
57379.125,293.115,-1633.18,0,0
57639.45,292.054,-1624.97,0,0
57899.775,290.906,-1616.96,0,0
58160.1,289.846,-1609.37,0,0
58420.4,288.72,-1601.78,0,0
58680.7,287.735,-1594.27,0,0
58941.1,286.779,-1587.03,0,0
59201.4,285.714,-1579.87,0,0
59461.7,284.891,-1572.74,0,0
59722,283.973,-1565.92,0,0
59982.4,282.941,-1559.53,0,0
60242.7,281.612,-1552.62,0,0
60503,280.894,-1545.85,0,0
60763.3,280.309,-1539.63,0,0
61023.7,279.41,-1533.62,0,0
61284,278.708,-1528.09,0,0
61544.3,277.312,-1523.11,0,0
61804.6,275.159,-1518.1,0,0
62065,271.988,-1512.62,0,0
62325.3,268.832,-1505.71,0,0
62585.6,266.335,-1498.08,0,0
62845.9,264.934,-1490.01,0,0
63106.3,264.932,-1482.68,0,0
63366.6,264.993,-1476.64,0,0
63626.9,264.497,-1470.93,0,0
63887.2,263.837,-1465.72,0,0
64147.6,262.979,-1460.92,0,0
64407.9,261.481,-1455.99,0,0
64668.2,259.453,-1451.18,0,0
64928.5,257.258,-1445.84,0,0
65188.9,254.896,-1440.14,0,0
65449.2,253.051,-1434.09,0,0
65709.5,251.274,-1428.18,0,0
65969.8,249.503,-1422.08,0,0
66230.2,247.898,-1416.09,0,0
66490.5,246.311,-1410.19,0,0
66750.8,244.905,-1403.94,0,0
67011.1,243.625,-1397.96,0,0
67271.5,242.509,-1392.17,0,0
67531.8,241.549,-1386.23,0,0
67792.1,240.44,-1380.62,0,0
68052.4,239.636,-1374.9,0,0
68312.8,238.76,-1369.41,0,0
68573.1,237.873,-1364.04,0,0
68833.4,237.057,-1358.72,0,0
69093.7,236.194,-1353.68,0,0
69354.1,235.335,-1348.58,0,0
69614.4,234.522,-1343.29,0,0
69874.7,233.733,-1338.51,0,0
70135,232.902,-1333.82,0,0
70395.4,231.986,-1329.13,0,0
70655.7,231.19,-1324.84,0,0
70916,229.604,-1320.15,0,0
71176.3,228.369,-1315.63,0,0
71436.7,227.067,-1311.07,0,0
71697,225.512,-1306.49,0,0
71957.3,223.79,-1301.85,0,0
72217.6,222.187,-1296.89,0,0
72478,220.652,-1291.87,0,0
72738.3,219.317,-1286.9,0,0
72998.6,218.05,-1281.93,0,0
73258.9,216.921,-1276.95,0,0
73519.3,215.759,-1272.07,0,0
73779.6,214.64,-1267.18,0,0
74039.9,213.524,-1262.28,0,0
74300.225,212.488,-1257.33,0,0
74560.55,211.677,-1252.54,0,0
74820.875,210.854,-1247.86,0,0
75081.2,209.994,-1243.32,0,0
75341.525,209.125,-1238.75,0,0
75601.85,208.12,-1234.31,0,0
75862.175,207.17,-1229.94,0,0
76122.5,206.166,-1225.51,0,0
76382.825,205.179,-1221.11,0,0
76643.15,204.252,-1216.82,0,0
76903.475,203.188,-1212.51,0,0
77163.8,202.156,-1208.18,0,0
77424.125,201.086,-1203.88,0,0
77684.45,200.067,-1199.58,0,0
77944.775,199.008,-1195.23,0,0
78205.1,197.931,-1190.94,0,0
78465.425,196.908,-1186.64,0,0
78725.75,195.899,-1182.4,0,0
78986.075,194.934,-1178.11,0,0
79246.4,193.901,-1173.91,0,0
79506.725,192.93,-1169.68,0,0
79767.05,191.929,-1165.51,0,0
80027.375,190.817,-1161.34,0,0
80287.7,189.855,-1157.17,0,0
80548.025,188.756,-1152.99,0,0
80808.35,187.668,-1148.82,0,0
81068.675,186.617,-1144.55,0,0
81329.0,185.558,-1140.3,0,0
81589.325,184.552,-1136.04,0,0
81849.65,183.591,-1131.77,0,0
82109.975,182.605,-1127.47,0,0
82370.3,181.734,-1123.27,0,0
82630.625,180.876,-1118.91,0,0
82890.95,179.983,-1114.68,0,0
83151.275,179.198,-1110.48,0,0
83411.6,178.254,-1106.29,0,0
83671.925,177.481,-1102.04,0,0
83932.25,176.623,-1097.84,0,0
84192.575,175.936,-1093.6,0,0
84452.9,175.162,-1089.32,0,0
84713.225,174.387,-1085.05,0,0
84973.55,173.713,-1080.62,0,0
85233.875,173.288,-1076.33,0,0
85494.2,172.807,-1072.03,0,0
85754.525,172.378,-1067.79,0,0
86014.85,172.059,-1063.59,0,0
86275.175,171.783,-1059.42,0,0
86535.5,171.522,-1055.34,0,0
86795.825,171.492,-1051.27,0,0
87056.15,171.177,-1047.33,0,0
87316.475,171.135,-1043.4,0,0
87576.8,170.934,-1039.57,0,0
87837.125,170.79,-1035.83,0,0
88097.45,170.757,-1031.79,0,0
88357.775,170.943,-1027.99,0,0
88618.1,170.834,-1024.08,0,0
88878.425,170.965,-1020.64,0,0
89138.75,171.22,-1017.1,0,0
89399.075,171.56,-1013.71,0,0
89659.4,171.824,-1010.43,0,0
89919.725,172.076,-1007.34,0,0
90180,172.114,-1004.52,0,0
90440.4,172.117,-1001.67,0,0
90700.7,172.279,-998.885,0,0
90961,172.154,-996.272,0,0
91221.3,171.741,-993.889,0,0
91481.7,171.028,-991.499,0,0
91742,170.11,-988.595,0,0
92002.3,169.051,-985.695,0,0
92262.6,168.133,-982.331,0,0
92523,167.434,-979.077,0,0
92783.3,166.622,-976.004,0,0
93043.6,165.77,-972.487,0,0
93303.9,165.328,-968.848,0,0
93564.3,164.936,-965.367,0,0
93824.6,164.456,-961.994,0,0
94084.9,164.156,-958.443,0,0
94345.2,164.142,-954.867,0,0
94605.6,164.18,-951.564,0,0
94865.9,164.129,-948.529,0,0
95126.2,164.139,-945.441,0,0
95386.5,164.211,-942.431,0,0
95646.9,164.306,-939.631,0,0
95907.2,164.213,-936.877,0,0
96167.5,164.097,-934.196,0,0
96427.8,163.864,-931.555,0,0
96688.2,163.711,-929.06,0,0
96948.5,163.265,-926.661,0,0
97208.8,162.642,-924.198,0,0
97469.1,161.871,-921.525,0,0
97729.5,161.049,-918.664,0,0
97989.8,160.232,-915.619,0,0
98250.1,159.59,-912.378,0,0
98510.4,159.154,-909.032,0,0
98770.8,158.97,-905.757,0,0
99031.1,159.017,-902.587,0,0
99291.4,159.009,-899.677,0,0
99551.7,159.099,-896.806,0,0
99812.1,159.118,-894.076,0,0
100072,159.259,-891.333,0,0
100333,159.429,-888.85,0,0
100593,159.506,-886.585,0,0
100853,159.481,-884.476,0,0
101114,159.162,-882.452,0,0
101374,158.615,-880.378,0,0
101634,157.956,-878.133,0,0
101895,157.323,-875.763,0,0
102155,156.733,-873.302,0,0
102415,156.264,-870.918,0,0
102676,155.758,-868.579,0,0
102936,155.293,-866.298,0,0
103196,154.655,-864.273,0,0
103457,153.861,-862.194,0,0
103717,152.94,-860.001,0,0
103977,152.033,-857.813,0,0
104238,150.99,-855.754,0,0
104498,149.722,-853.734,0,0
104758,148.113,-851.479,0,0
105019,146.418,-848.871,0,0
105279,144.645,-846.205,0,0
105539,142.791,-843.288,0,0
105800,140.906,-840.045,0,0
106060,139.075,-836.446,0,0
106320.175,137.448,-832.445,0,0
106580.5,136.077,-828.286,0,0
106840.825,135.133,-823.92,0,0
107101.15,134.514,-819.657,0,0
107361.475,134.084,-815.468,0,0
107621.8,133.834,-811.287,0,0
107882.125,133.759,-807.09,0,0
108142.45,134.088,-802.941,0,0
108402.775,134.518,-799.185,0,0
108663.1,135.019,-795.554,0,0
108923.425,135.314,-792.163,0,0
109183.75,135.496,-788.752,0,0
109444.075,135.681,-785.08,0,0
109704.4,136.167,-781.223,0,0
109964.725,137.002,-777.774,0,0
110225.05,137.888,-774.494,0,0
110485.375,138.505,-771.267,0,0
110745.7,139.265,-767.862,0,0
111006.025,140.269,-764.443,0,0
111266.35,141.661,-761.197,0,0
111526.675,142.885,-758.328,0,0
111787.0,144.242,-755.795,0,0
112047.325,145.668,-753.249,0,0
112307.65,146.966,-750.82,0,0
112567.975,148.387,-748.987,0,0
112828.3,149.45,-747.281,0,0
113088.625,150.076,-745.48,0,0
113348.95,150.769,-743.417,0,0
113609.275,151.637,-741.459,0,0
113869.6,152.303,-739.785,0,0
114129.925,152.817,-737.909,0,0
114390.25,153.309,-735.959,0,0
114650.575,153.995,-733.94,0,0
114910.9,154.746,-731.878,0,0
115171.225,155.687,-730.011,0,0
115431.55,156.917,-728.311,0,0
115691.875,158.162,-726.94,0,0
115952.2,159.414,-725.987,0,0
116212.525,160.527,-725.418,0,0
116472.85,161.26,-725.399,0,0
116733.175,161.506,-725.612,0,0
116993.5,161.116,-726.056,0,0
117253.825,159.764,-726.387,0,0
117514.15,157.813,-726.077,0,0
117774.475,155.58,-724.975,0,0
118034.8,153.484,-723.273,0,0
118295.125,151.446,-721.224,0,0
118555.45,149.799,-718.704,0,0
118815.775,148.411,-716.14,0,0
119076.1,147.073,-713.399,0,0
119336.425,145.921,-710.392,0,0
119596.75,145.071,-707.231,0,0
119857.075,144.567,-703.987,0,0
120117.4,144.484,-700.81,0,0
120377.725,144.587,-697.777,0,0
120638.05,145.126,-694.882,0,0
120898.375,145.969,-692.585,0,0
121158.7,146.601,-690.792,0,0
121419.025,146.877,-689.376,0,0
121679.35,146.722,-688.097,0,0
121939.675,146.109,-686.696,0,0
122200.0,145.208,-684.956,0,0
122460,144.295,-682.812,0,0
122721,143.591,-680.442,0,0
122981,143.095,-678.088,0,0
123241,142.671,-675.696,0,0
123502,142.291,-673.335,0,0
123762,142,-670.958,0,0
124022,141.907,-668.658,0,0
124283,141.671,-666.6,0,0
124543,141.325,-664.512,0,0
124803,140.896,-662.355,0,0
125064,140.486,-660.202,0,0
125324,139.994,-658.072,0,0
125584,139.45,-655.807,0,0
125845,138.915,-653.473,0,0
126105,138.439,-651.117,0,0
126365,137.921,-648.777,0,0
126626,137.369,-646.307,0,0
126886,136.734,-643.754,0,0
127146,136.227,-641.105,0,0
127406,135.777,-638.258,0,0
127667,135.487,-635.464,0,0
127927,135.3,-632.514,0,0
128187,135.276,-629.58,0,0
128448,135.447,-626.665,0,0
128708,135.791,-624.019,0,0
128968,136.116,-621.395,0,0
129229,136.514,-618.898,0,0
129489,136.987,-616.66,0,0
129749,137.286,-614.544,0,0
130010,137.343,-612.497,0,0
130270,137.338,-610.357,0,0
130530,137.282,-608.188,0,0
130791,137.122,-606.026,0,0
131051,136.97,-603.693,0,0
131311,136.765,-601.317,0,0
131572,136.672,-598.908,0,0
131832,136.561,-596.508,0,0
132092,136.449,-593.979,0,0
132353,136.367,-591.409,0,0
132613,136.396,-588.756,0,0
132873,136.542,-586.207,0,0
133134,136.686,-583.679,0,0
133394,136.857,-581.153,0,0
133654,136.958,-578.696,0,0
133915,137.06,-576.212,0,0
134175,137.237,-573.648,0,0
134435,137.344,-571.119,0,0
134696,137.529,-568.495,0,0
134956,137.791,-565.927,0,0
135216,138.017,-563.31,0,0
135477,138.292,-560.706,0,0
135737,138.537,-558.083,0,0
135997,138.915,-555.411,0,0
136258,139.344,-552.72,0,0
136518,139.862,-549.955,0,0
136778,140.497,-547.35,0,0
137039,141.207,-544.807,0,0
137299,141.898,-542.275,0,0
137559,142.686,-539.806,0,0
137819,143.473,-537.491,0,0
138080,144.236,-535.219,0,0
138340.125,144.868,-532.984,0,0
138600.45,145.563,-530.663,0,0
138860.775,146.144,-528.428,0,0
139121.1,146.817,-526.172,0,0
139381.425,147.534,-523.861,0,0
139641.75,148.193,-521.57,0,0
139902.075,149.068,-519.318,0,0
140162.4,149.875,-517.125,0,0
140422.725,150.728,-514.949,0,0
140683.05,151.595,-512.759,0,0
140943.375,152.573,-510.551,0,0
141203.7,153.616,-508.573,0,0
141464.025,154.713,-506.736,0,0
141724.35,155.643,-505.155,0,0
141984.675,156.353,-503.599,0,0
142245.0,156.956,-502.042,0,0
142505.325,157.479,-500.454,0,0
142765.65,157.779,-498.719,0,0
143025.975,158.18,-496.879,0,0
143286.3,158.482,-495.085,0,0
143546.625,158.841,-493.231,0,0
143806.95,159.181,-491.258,0,0
144067.275,159.496,-489.27,0,0
144327.6,159.937,-487.175,0,0
144587.925,160.336,-485.104,0,0
144848.25,160.765,-482.943,0,0
145108.575,161.444,-480.773,0,0
145368.9,162.211,-478.736,0,0
145629.225,162.852,-476.895,0,0
145889.55,163.577,-475.058,0,0
146149.875,164.179,-473.252,0,0
146410.2,164.738,-471.519,0,0
146670.525,165.288,-469.767,0,0
146930.85,165.756,-468.145,0,0
147191.175,166.143,-466.64,0,0
147451.5,166.248,-465.032,0,0
147711.825,166.181,-463.275,0,0
147972.15,166.066,-461.388,0,0
148232.475,165.918,-459.365,0,0
148492.8,165.772,-457.083,0,0
148753.125,165.779,-454.724,0,0
149013.45,165.747,-452.319,0,0
149273.775,165.805,-449.68,0,0
149534.1,165.924,-447.013,0,0
149794.425,166.242,-444.251,0,0
150054.75,166.679,-441.511,0,0
150315.075,167.146,-438.751,0,0
150575.4,167.689,-435.975,0,0
150835.725,168.171,-433.187,0,0
151096.05,168.927,-430.226,0,0
151356.375,169.657,-427.271,0,0
151616.7,170.554,-424.257,0,0
151877.025,171.634,-421.146,0,0
152137.35,173.091,-418.125,0,0
152397.675,174.75,-415.195,0,0
152658.0,176.643,-412.586,0,0
152918.325,178.616,-410.36,0,0
153178.65,180.396,-408.468,0,0
153438.975,181.934,-406.656,0,0
153699.3,183.366,-404.847,0,0
153959.625,184.878,-403.209,0,0
154219.95,186.026,-401.742,0,0
154480,186.867,-400.218,0,0
154741,187.383,-398.337,0,0
155001,188.023,-396.107,0,0
155261,188.949,-393.671,0,0
155522,190.136,-391.197,0,0
155782,191.498,-388.81,0,0
156042,192.988,-386.576,0,0
156303,194.623,-384.37,0,0
156563,196.46,-382.464,0,0
156823,198.246,-380.891,0,0
157084,199.765,-379.685,0,0
157344,200.946,-378.485,0,0
157604,201.914,-377.134,0,0
157864,202.748,-375.737,0,0
158125,203.464,-374.276,0,0
158385,204.083,-372.646,0,0
158645,204.714,-370.908,0,0
158906,205.299,-369.076,0,0
159166,205.926,-367.157,0,0
159426,206.525,-365.11,0,0
159687,207.234,-362.978,0,0
159947,207.998,-360.93,0,0
160207,208.711,-358.826,0,0
160468,209.473,-356.614,0,0
160728,210.289,-354.32,0,0
160988,211.189,-352.013,0,0
161249,212.109,-349.774,0,0
161509,213.009,-347.537,0,0
161769,213.942,-345.271,0,0
162030,214.879,-343.017,0,0
162290,215.712,-340.68,0,0
162550,216.594,-338.233,0,0
162811,217.525,-335.672,0,0
163071,218.644,-333.063,0,0
163331,219.841,-330.432,0,0
163592,221.146,-327.896,0,0
163852,222.517,-325.531,0,0
164112,223.808,-323.163,0,0
164373,225.027,-320.84,0,0
164633,226.181,-318.407,0,0
164893,227.385,-315.924,0,0
165154,228.618,-313.349,0,0
165414,229.895,-310.753,0,0
165674,231.289,-308.061,0,0
165935,232.679,-305.434,0,0
166195,234.215,-302.791,0,0
166455,235.727,-300.201,0,0
166716,237.241,-297.642,0,0
166976,238.747,-295.045,0,0
167236,240.339,-292.371,0,0
167497,241.866,-289.719,0,0
167757,243.485,-286.961,0,0
168017,245.188,-284.168,0,0
168277,247.064,-281.413,0,0
168538,249.025,-278.755,0,0
168798,250.937,-276.209,0,0
169058,252.814,-273.668,0,0
169319,254.684,-271.094,0,0
169579,256.551,-268.608,0,0
169839,258.358,-266.127,0,0
170100,260.192,-263.578,0,0
170360.075,261.992,-260.999,0,0
170620.4,263.762,-258.363,0,0
170880.725,265.559,-255.717,0,0
171141.05,267.279,-252.983,0,0
171401.375,269.062,-250.203,0,0
171661.7,270.883,-247.385,0,0
171922.025,272.666,-244.511,0,0
172182.35,274.505,-241.528,0,0
172442.675,276.436,-238.494,0,0
172703.0,278.291,-235.445,0,0
172963.325,280.23,-232.32,0,0
173223.65,282.121,-229.108,0,0
173483.975,284.141,-225.826,0,0
173744.3,286.128,-222.406,0,0
174004.625,288.112,-218.845,0,0
174264.95,290.282,-215.19,0,0
174525.275,292.527,-211.372,0,0
174785.6,294.848,-207.458,0,0
175045.925,297.37,-203.442,0,0
175306.25,300.008,-199.31,0,0
175566.575,302.844,-195.073,0,0
175826.9,305.787,-190.822,0,0
176087.225,308.916,-186.457,0,0
176347.55,312.187,-182.016,0,0
176607.875,315.696,-177.574,0,0
176868.2,319.393,-173.024,0,0
177128.525,323.313,-168.425,0,0
177388.85,327.497,-163.82,0,0
177649.175,331.824,-159.236,0,0
177909.5,336.397,-154.618,0,0
178169.825,341.292,-149.957,0,0
178430.15,346.466,-145.44,0,0
178690.475,351.855,-140.956,0,0
178950.8,357.617,-136.618,0,0
179211.125,363.591,-132.477,0,0
179471.45,369.733,-128.604,0,0
179731.775,376.023,-124.927,0,0
179992.1,382.366,-121.502,0,0
180252.425,388.712,-118.22,0,0
180512.75,395.038,-115.038,0,0
180773.075,401.346,-111.914,0,0
181033.4,407.809,-108.779,0,0
181293.725,414.258,-105.612,0,0
181554.05,420.845,-102.458,0,0
181814.375,427.8,-99.3541,0,0
182074.7,434.862,-96.4063,0,0
182335.025,442.099,-93.6231,0,0
182595.35,449.494,-90.987,0,0
182855.675,456.744,-88.6075,0,0
183116.0,463.996,-86.166,0,0
183376.325,471.338,-83.7671,0,0
183636.65,478.665,-81.3375,0,0
183896.975,486.081,-78.8971,0,0
184157.3,493.619,-76.2679,0,0
184417.625,501.247,-73.5617,0,0
184677.95,509.12,-70.7322,0,0
184938.275,517.454,-67.7748,0,0
185198.6,526.021,-64.8562,0,0
185458.925,534.901,-62.0161,0,0
185719.25,544.146,-59.0918,0,0
185979.575,553.831,-56.1635,0,0
186239.9,564.089,-53.2241,0,0
186500,574.821,-50.6901,0,0
186761,585.968,-48.3547,0,0
187021,597.536,-46.2106,0,0
187281,609.64,-44.431,0,0
187542,622.109,-42.9994,0,0
187802,634.998,-41.9519,0,0
188062,648.424,-41.2959,0,0
188322,662.264,-41.2472,0,0
188583,676.401,-41.7645,0,0
188843,690.762,-42.873,0,0
189103,705.518,-44.4768,0,0
189364,720.49,-46.7482,0,0
189624,735.745,-49.663,0,0
189884,751.115,-53.2793,0,0
190145,766.677,-57.7176,0,0
190405,782.384,-62.9142,0,0
190665,797.924,-68.8724,0,0
190926,813.519,-75.6879,0,0
191186,828.64,-83.2314,0,0
191446,843.605,-91.4569,0,0
191707,858.327,-100.245,0,0
191967,872.678,-109.426,0,0
192227,886.891,-119.147,0,0
192488,900.921,-129.233,0,0
192748,914.841,-139.84,0,0
193008,928.69,-150.914,0,0
193269,942.471,-162.496,0,0
193529,956.101,-174.777,0,0
193789,969.655,-187.701,0,0
194050,983.205,-201.281,0,0
194310,996.505,-215.765,0,0
194570,1009.45,-231.294,0,0
194831,1021.99,-247.378,0,0
195091,1034.01,-264.54,0,0
195351,1045.56,-282.372,0,0
195612,1056.4,-301.097,0,0
195872,1066.64,-320.601,0,0
196132,1075.83,-340.789,0,0
196393,1084.37,-361.728,0,0
196653,1091.85,-383.183,0,0
196913,1098.41,-405.278,0,0
197174,1103.79,-427.838,0,0
197434,1108.24,-451.069,0,0
197694,1111.21,-474.491,0,0
197955,1113.01,-498.246,0,0
198215,1113.57,-521.96,0,0
198475,1112.86,-545.506,0,0
198735,1111.16,-568.746,0,0
198996,1108.35,-592.058,0,0
199256,1104.3,-614.787,0,0
199516,1099.72,-637.793,0,0
199777,1093.92,-660.169,0,0
200037,1086.94,-682.053,0,0
200297,1079.14,-704.046,0,0
200558,1070.36,-725.129,0,0
200818,1061.01,-746.234,0,0
201078,1050.21,-766.337,0,0
201339,1038.63,-786.188,0,0
201599,1026.21,-805.152,0,0
201859,1012.73,-823.251,0,0
202120,998.684,-840.238,0,0
202380.025,983.749,-856.624,0,0
202640.35,968.44,-872.3,0,0
202900.675,952.886,-886.765,0,0
203161.0,936.562,-900.016,0,0
203421.325,920.063,-912.389,0,0
203681.65,903.424,-923.874,0,0
203941.975,886.633,-934.427,0,0
204202.3,870.131,-943.919,0,0
204462.625,852.792,-952.666,0,0
204722.95,836.147,-960.695,0,0
204983.275,819.223,-968.058,0,0
205243.6,802.125,-974.163,0,0
205503.925,786.152,-979.935,0,0
205764.25,769.582,-985.011,0,0
206024.575,753.185,-989.133,0,0
206284.9,737.507,-992.723,0,0
206545.225,721.66,-995.451,0,0
206805.55,706.314,-997.983,0,0
207065.875,691.025,-999.857,0,0
207326.2,676.123,-1001.2,0,0
207586.525,661.594,-1002.04,0,0
207846.85,647.287,-1002.59,0,0
208107.175,633.44,-1002.63,0,0
208367.5,619.768,-1002.17,0,0
208627.825,606.404,-1001.51,0,0
208888.15,593.506,-1000.42,0,0
209148.475,580.862,-999.075,0,0
209408.8,568.637,-997.451,0,0
209669.125,556.842,-995.609,0,0
209929.45,545.119,-993.313,0,0
210189.775,533.846,-991.008,0,0
210450.1,522.718,-988.809,0,0
210710.425,512.03,-986.178,0,0
210970.75,501.565,-983.11,0,0
211231.075,491.273,-980.255,0,0
211491.4,481.221,-977.096,0,0
211751.725,471.404,-973.89,0,0
212012.05,462.079,-970.206,0,0
212272.375,452.666,-966.529,0,0
212532.7,444.008,-962.568,0,0
212793.025,435.292,-958.624,0,0
213053.35,427.177,-954.77,0,0
213313.675,419.228,-950.893,0,0
213574.0,411.446,-947.055,0,0
213834.325,403.814,-943.196,0,0
214094.65,396.212,-939.282,0,0
214354.975,388.833,-935.251,0,0
214615.3,381.465,-931.07,0,0
214875.625,374.344,-926.735,0,0
215135.95,367.545,-922.39,0,0
215396.275,360.951,-917.933,0,0
215656.6,354.388,-913.316,0,0
215916.925,348.375,-908.796,0,0
216177.25,342.371,-904.185,0,0
216437.575,336.536,-899.543,0,0
216697.9,331.068,-894.962,0,0
216958.225,325.613,-890.475,0,0
217218.55,320.305,-885.841,0,0
217478.875,315.193,-881.247,0,0
217739.2,310.111,-876.605,0,0
217999.525,305.318,-871.954,0,0
218259.85,300.564,-867.25,0,0
218520,295.95,-862.548,0,0
218780,291.578,-857.818,0,0
219041,287.208,-853.006,0,0
219301,283.103,-848.296,0,0
219561,279.239,-843.498,0,0
219822,275.271,-838.621,0,0
220082,271.703,-833.879,0,0
220342,268.157,-828.901,0,0
220603,264.863,-824.14,0,0
220863,261.603,-819.263,0,0
221123,258.613,-814.409,0,0
221384,255.694,-809.533,0,0
221644,253.008,-804.663,0,0
221904,250.476,-799.899,0,0
222165,248.162,-795.072,0,0
222425,245.953,-790.246,0,0
222685,243.921,-785.45,0,0
222946,242.211,-780.884,0,0
223206,240.559,-776.159,0,0
223466,239.181,-771.598,0,0
223727,237.821,-767.144,0,0
223987,236.805,-762.658,0,0
224247,235.917,-758.527,0,0
224508,235.182,-754.428,0,0
224768,234.577,-750.491,0,0
225028,234.24,-746.862,0,0
225289,233.874,-743.369,0,0
225549,233.454,-740.003,0,0
225809,233.286,-737.068,0,0
226070,232.791,-734.265,0,0
226330,232.456,-731.614,0,0
226590,231.751,-729.021,0,0
226851,231.215,-726.623,0,0
227111,230.482,-724.31,0,0
227371,229.584,-722.087,0,0
227632,228.615,-719.928,0,0
227892,227.459,-717.634,0,0
228152,226.267,-715.286,0,0
228413,225.095,-712.896,0,0
228673,223.763,-710.408,0,0
228933,222.549,-707.929,0,0
229193,221.317,-705.288,0,0
229454,220.061,-702.608,0,0
229714,218.89,-699.887,0,0
229974,217.569,-697.081,0,0
230235,216.603,-694.286,0,0
230495,215.53,-691.476,0,0
230755,214.599,-688.558,0,0
231016,213.655,-685.668,0,0
231276,212.896,-682.733,0,0
231536,212.098,-679.854,0,0
231797,211.423,-676.767,0,0
232057,210.875,-673.904,0,0
232317,210.303,-670.93,0,0
232578,209.924,-668.015,0,0
232838,209.498,-665.104,0,0
233098,209.201,-662.135,0,0
233359,209.031,-659.225,0,0
233619,208.861,-656.335,0,0
233879,208.8,-653.467,0,0
234140,208.783,-650.666,0,0
234400,208.931,-647.828,0,0
234660.3,209.128,-645.047,0,0
234920.625,209.317,-642.326,0,0
235180.95,209.654,-639.552,0,0
235441.275,210.048,-636.937,0,0
235701.6,210.43,-634.33,0,0
235961.925,210.948,-631.808,0,0
236222.25,211.53,-629.257,0,0
236482.575,212.106,-626.827,0,0
236742.9,212.827,-624.417,0,0
237003.225,213.527,-622.048,0,0
237263.55,214.324,-619.731,0,0
237523.875,215.154,-617.462,0,0
237784.2,216.057,-615.303,0,0
238044.525,216.951,-613.136,0,0
238304.85,217.932,-611.06,0,0
238565.175,218.978,-609.052,0,0
238825.5,220.09,-607.051,0,0
239085.825,221.219,-605.166,0,0
239346.15,222.374,-603.283,0,0
239606.475,223.626,-601.569,0,0
239866.8,224.809,-599.948,0,0
240127.125,226.167,-598.356,0,0
240387.45,227.463,-596.712,0,0
240647.775,228.688,-595.268,0,0
240908.1,230.025,-593.879,0,0
241168.425,231.424,-592.488,0,0
241428.75,232.793,-591.236,0,0
241689.075,234.137,-589.989,0,0
241949.4,235.58,-588.876,0,0
242209.725,236.963,-587.723,0,0
242470.05,238.331,-586.641,0,0
242730.375,239.716,-585.583,0,0
242990.7,241.223,-584.543,0,0
243251.025,242.698,-583.489,0,0
243511.35,244.292,-582.551,0,0
243771.675,246.019,-581.64,0,0
244032.0,247.76,-580.864,0,0
244292.325,249.713,-580.188,0,0
244552.65,251.628,-579.545,0,0
244812.975,253.638,-579.312,0,0
245073.3,255.555,-579.133,0,0
245333.625,257.553,-579.046,0,0
245593.95,259.384,-579.205,0,0
245854.275,261.289,-579.475,0,0
246114.6,262.954,-579.939,0,0
246374.925,264.528,-580.296,0,0
246635.25,266.08,-580.829,0,0
246895.575,267.538,-581.354,0,0
247155.9,269.092,-582.222,0,0
247416.225,270.469,-582.84,0,0
247676.55,271.854,-583.566,0,0
247936.875,273.127,-584.384,0,0
248197.2,274.382,-585.28,0,0
248457.525,275.416,-586.196,0,0
248717.85,276.536,-587.105,0,0
248978.175,277.494,-587.98,0,0
249238.5,278.521,-588.827,0,0
249498.825,279.602,-589.639,0,0
249759.15,280.603,-590.488,0,0
250019.475,281.989,-591.304,0,0
250279.8,283.331,-592.311,0,0
250540,284.725,-593.413,0,0
250800,286.261,-594.764,0,0
251061,287.738,-596.524,0,0
251321,289.111,-598.384,0,0
251581,290.25,-600.537,0,0
251842,291.321,-602.824,0,0
252102,292.111,-605.156,0,0
252362,292.726,-607.542,0,0
252623,293.262,-610.097,0,0
252883,293.598,-612.648,0,0
253143,293.814,-615.188,0,0
253404,293.948,-617.834,0,0
253664,293.942,-620.711,0,0
253924,293.766,-623.569,0,0
254185,293.313,-626.538,0,0
254445,292.764,-629.59,0,0
254705,291.887,-632.526,0,0
254966,290.603,-635.566,0,0
255226,289.37,-638.471,0,0
255486,287.734,-641.427,0,0
255747,285.961,-644.117,0,0
256007,283.937,-646.82,0,0
256267,281.8,-649.3,0,0
256528,279.484,-651.65,0,0
256788,277.023,-653.863,0,0
257048,274.489,-655.885,0,0
257309,271.885,-657.793,0,0
257569,269.198,-659.507,0,0
257829,266.439,-661.09,0,0
258090,263.63,-662.472,0,0
258350,260.833,-663.762,0,0
258610,258.016,-664.92,0,0
258871,255.149,-665.959,0,0
259131,252.212,-666.854,0,0
259391,249.484,-667.695,0,0
259651,246.641,-668.361,0,0
259912,243.679,-668.925,0,0
260172,240.854,-669.379,0,0
260432,237.993,-669.765,0,0
260693,235.109,-670.117,0,0
260953,232.308,-670.287,0,0
261213,229.566,-670.355,0,0
261474,226.778,-670.327,0,0
261734,224.012,-670.294,0,0
261994,221.353,-670.112,0,0
262255,218.687,-669.857,0,0
262515,216.046,-669.58,0,0
262775,213.457,-669.148,0,0
263036,210.898,-668.752,0,0
263296,208.422,-668.311,0,0
263556,205.927,-667.733,0,0
263817,203.614,-667.187,0,0
264077,201.161,-666.616,0,0
264337,198.834,-665.905,0,0
264598,196.446,-665.127,0,0
264858,194.125,-664.394,0,0
265118,191.903,-663.616,0,0
265379,189.705,-662.812,0,0
265639,187.524,-661.903,0,0
265899,185.425,-660.911,0,0
266160,183.394,-660.069,0,0
266420,181.37,-659.127,0,0
266680.25,179.392,-658.159,0,0
266940.575,177.4,-657.156,0,0
267200.9,175.488,-656.175,0,0
267461.225,173.644,-655.171,0,0
267721.55,171.664,-654.128,0,0
267981.875,169.921,-653.102,0,0
268242.2,168.032,-651.986,0,0
268502.525,166.255,-650.946,0,0
268762.85,164.543,-649.83,0,0
269023.175,162.765,-648.741,0,0
269283.5,161.05,-647.645,0,0
269543.825,159.415,-646.461,0,0
269804.15,157.767,-645.382,0,0
270064.475,156.135,-644.216,0,0
270324.8,154.543,-642.952,0,0
270585.125,152.988,-641.748,0,0
270845.45,151.425,-640.574,0,0
271105.775,149.967,-639.381,0,0
271366.1,148.454,-638.071,0,0
271626.425,146.988,-636.899,0,0
271886.75,145.587,-635.6,0,0
272147.075,144.147,-634.377,0,0
272407.4,142.772,-633.083,0,0
272667.725,141.486,-631.868,0,0
272928.05,140.102,-630.498,0,0
273188.375,138.788,-629.276,0,0
273448.7,137.536,-627.99,0,0
273709.025,136.316,-626.682,0,0
273969.35,135.085,-625.416,0,0
274229.675,133.964,-624.117,0,0
274490.0,132.717,-622.792,0,0
274750.325,131.559,-621.567,0,0
275010.65,130.423,-620.252,0,0
275270.975,129.293,-618.885,0,0
275531.3,128.203,-617.624,0,0
275791.625,127.142,-616.308,0,0
276051.95,126.055,-614.951,0,0
276312.275,125.028,-613.699,0,0
276572.6,124.033,-612.356,0,0
276832.925,123.026,-611.033,0,0
277093.25,122.059,-609.725,0,0
277353.575,121.092,-608.429,0,0
277613.9,120.149,-607.068,0,0
277874.225,119.252,-605.804,0,0
278134.55,118.339,-604.485,0,0
278394.875,117.455,-603.17,0,0
278655.2,116.588,-601.838,0,0
278915.525,115.72,-600.509,0,0
279175.85,114.869,-599.112,0,0
279436.175,114.058,-597.791,0,0
279696.5,113.286,-596.416,0,0
279956.825,112.628,-594.991,0,0
280217.15,111.883,-593.604,0,0
280477.475,111.273,-592.278,0,0
280737.8,110.702,-590.909,0,0
280998.125,110.178,-589.62,0,0
281258.45,109.681,-588.338,0,0
281518.775,109.176,-587.103,0,0
281779.1,108.723,-585.931,0,0
282039.425,108.199,-584.787,0,0
282299.75,107.686,-583.672,0,0
282560,107.172,-582.586,0,0
282820,106.629,-581.476,0,0
283081,106.071,-580.382,0,0
283341,105.523,-579.231,0,0
283601,104.996,-578.114,0,0
283862,104.474,-576.977,0,0
284122,103.952,-575.805,0,0
284382,103.467,-574.698,0,0
284643,103.015,-573.524,0,0
284903,102.57,-572.36,0,0
285163,102.266,-571.198,0,0
285424,101.896,-570.111,0,0
285684,101.597,-569.019,0,0
285944,101.317,-567.976,0,0
286205,101.05,-567.021,0,0
286465,100.791,-566.127,0,0
286725,100.517,-565.241,0,0
286986,100.186,-564.447,0,0
287246,99.7999,-563.66,0,0
287506,99.4024,-562.856,0,0
287767,98.9267,-562.087,0,0
288027,98.4508,-561.289,0,0
288287,97.9352,-560.468,0,0
288548,97.4168,-559.616,0,0
288808,96.9154,-558.743,0,0
289068,96.3925,-557.872,0,0
289329,95.9083,-556.982,0,0
289589,95.3969,-556.076,0,0
289849,94.9254,-555.162,0,0
290109,94.4775,-554.261,0,0
290370,93.9737,-553.348,0,0
290630,93.5487,-552.401,0,0
290890,93.1498,-551.527,0,0
291151,92.7307,-550.666,0,0
291411,92.3115,-549.756,0,0
291671,91.8736,-548.901,0,0
291932,91.511,-548.027,0,0
292192,91.1019,-547.184,0,0
292452,90.7033,-546.363,0,0
292713,90.2981,-545.563,0,0
292973,89.8698,-544.75,0,0
293233,89.442,-543.967,0,0
293494,88.9803,-543.176,0,0
293754,88.5081,-542.408,0,0
294014,88.036,-541.629,0,0
294275,87.5002,-540.816,0,0
294535,86.9578,-540.03,0,0
294795,86.415,-539.189,0,0
295056,85.8654,-538.358,0,0
295316,85.3125,-537.483,0,0
295576,84.7617,-536.579,0,0
295837,84.2194,-535.638,0,0
296097,83.6672,-534.667,0,0
296357,83.1328,-533.684,0,0
296618,82.6246,-532.67,0,0
296878,82.1528,-531.626,0,0
297138,81.7156,-530.552,0,0
297399,81.3115,-529.459,0,0
297659,80.9738,-528.366,0,0
297919,80.6961,-527.28,0,0
298180,80.4472,-526.213,0,0
298440,80.2727,-525.175,0,0
298700.2,80.1486,-524.259,0,0
298960.525,79.9753,-523.23,0,0
299220.85,79.8015,-522.41,0,0
299481.175,79.6879,-521.605,0,0
299741.5,79.5131,-520.788,0,0
300001.825,79.2624,-520.049,0,0
300262.15,79.1038,-519.291,0,0
300522.475,78.8906,-518.497,0,0
300782.8,78.57,-517.742,0,0
301043.125,78.2462,-517.03,0,0
301303.45,77.9787,-516.237,0,0
301563.775,77.6535,-515.501,0,0
301824.1,77.3625,-514.636,0,0
302084.425,77.0571,-513.842,0,0
302344.75,76.8174,-513.121,0,0
302605.075,76.4577,-512.291,0,0
302865.4,76.2236,-511.477,0,0
303125.725,75.9561,-510.663,0,0
303386.05,75.5816,-509.864,0,0
303646.375,75.3768,-509.008,0,0
303906.7,75.1226,-508.23,0,0
304167.025,74.8781,-507.382,0,0
304427.35,74.5953,-506.616,0,0
304687.675,74.3828,-505.787,0,0
304948.0,74.2385,-505.007,0,0
305208.325,73.9794,-504.274,0,0
305468.65,73.8237,-503.45,0,0
305728.975,73.6326,-502.712,0,0
305989.3,73.391,-502.02,0,0
306249.625,73.2524,-501.257,0,0
306509.95,73.0086,-500.573,0,0
306770.275,72.7963,-499.917,0,0
307030.6,72.6098,-499.216,0,0
307290.925,72.3211,-498.576,0,0
307551.25,72.067,-497.872,0,0
307811.575,71.8037,-497.233,0,0
308071.9,71.4854,-496.504,0,0
308332.225,71.2518,-495.82,0,0
308592.55,70.9965,-495.139,0,0
308852.875,70.6114,-494.395,0,0
309113.2,70.3757,-493.693,0,0
309373.525,70.1335,-492.931,0,0
309633.85,69.8603,-492.218,0,0
309894.175,69.625,-491.542,0,0
310154.5,69.4031,-490.811,0,0
310414.825,69.1256,-490.048,0,0
310675.15,68.8564,-489.37,0,0
310935.475,68.6487,-488.655,0,0
311195.8,68.3414,-487.985,0,0
311456.125,68.1412,-487.263,0,0
311716.45,67.8975,-486.557,0,0
311976.775,67.5729,-485.871,0,0
312237.1,67.3484,-485.177,0,0
312497.425,67.0794,-484.455,0,0
312757.75,66.7947,-483.758,0,0
313018.075,66.5112,-483.074,0,0
313278.4,66.2171,-482.292,0,0
313538.725,65.992,-481.632,0,0
313799.05,65.7616,-480.898,0,0
314059.375,65.4983,-480.161,0,0
314319.7,65.2372,-479.459,0,0
314580,64.9734,-478.7,0,0
314840,64.7665,-477.962,0,0
315101,64.4963,-477.264,0,0
315361,64.2954,-476.492,0,0
315621,64.0923,-475.82,0,0
315882,63.9002,-475.078,0,0
316142,63.6704,-474.364,0,0
316402,63.4412,-473.623,0,0
316663,63.2413,-472.91,0,0
316923,63.0256,-472.227,0,0
317183,62.8343,-471.496,0,0
317444,62.6021,-470.822,0,0
317704,62.3858,-470.132,0,0
317964,62.2285,-469.381,0,0
318225,61.9564,-468.716,0,0
318485,61.7391,-468.04,0,0
318745,61.5393,-467.323,0,0
319006,61.3253,-466.606,0,0
319266,61.1224,-465.871,0,0
319526,60.9301,-465.176,0,0
319787,60.726,-464.429,0,0
320047,60.5886,-463.732,0,0
320307,60.3475,-463.002,0,0
320567,60.1874,-462.341,0,0
320828,60.0189,-461.568,0,0
321088,59.8633,-460.909,0,0
321348,59.6786,-460.206,0,0
321609,59.5476,-459.487,0,0
321869,59.3443,-458.811,0,0
322129,59.1923,-458.119,0,0
322390,59.0908,-457.394,0,0
322650,58.914,-456.712,0,0
322910,58.7723,-456.059,0,0
323171,58.6941,-455.395,0,0
323431,58.5001,-454.723,0,0
323691,58.3611,-454.053,0,0
323952,58.2304,-453.41,0,0
324212,58.0688,-452.733,0,0
324472,57.9107,-452.112,0,0
324733,57.7461,-451.483,0,0
324993,57.6332,-450.812,0,0
325253,57.493,-450.181,0,0
325514,57.3102,-449.52,0,0
325774,57.1611,-448.897,0,0
326034,56.9393,-448.249,0,0
326295,56.7948,-447.621,0,0
326555,56.6051,-446.921,0,0
326815,56.4287,-446.241,0,0
327076,56.2975,-445.661,0,0
327336,56.1352,-444.93,0,0
327596,55.9919,-444.321,0,0
327857,55.8,-443.645,0,0
328117,55.6478,-442.965,0,0
328377,55.4859,-442.347,0,0
328638,55.3336,-441.655,0,0
328898,55.1881,-440.998,0,0
329158,55.0736,-440.332,0,0
329419,54.9266,-439.649,0,0
329679,54.7495,-439.019,0,0
329939,54.6307,-438.287,0,0
330200,54.4879,-437.666,0,0
330460,54.3837,-436.994,0,0
330720.15,54.2414,-436.322,0,0
330980.475,54.1104,-435.629,0,0
331240.8,54.0039,-435.01,0,0
331501.125,53.872,-434.356,0,0
331761.45,53.7622,-433.684,0,0
332021.775,53.6479,-433.009,0,0
332282.1,53.5394,-432.338,0,0
332542.425,53.4767,-431.64,0,0
332802.75,53.3351,-431.034,0,0
333063.075,53.2212,-430.359,0,0
333323.4,53.1731,-429.693,0,0
333583.725,53.0468,-429.075,0,0
333844.05,52.9862,-428.389,0,0
334104.375,52.9164,-427.775,0,0
334364.7,52.855,-427.121,0,0
334625.025,52.7184,-426.445,0,0
334885.35,52.6325,-425.834,0,0
335145.675,52.5955,-425.2,0,0
335406.0,52.5271,-424.59,0,0
335666.325,52.3988,-423.946,0,0
335926.65,52.3901,-423.349,0,0
336186.975,52.3061,-422.718,0,0
336447.3,52.2501,-422.125,0,0
336707.625,52.1658,-421.535,0,0
336967.95,52.1025,-420.915,0,0
337228.275,52.0389,-420.295,0,0
337488.6,51.9551,-419.647,0,0
337748.925,51.8581,-419.086,0,0
338009.25,51.7668,-418.494,0,0
338269.575,51.6948,-417.872,0,0
338529.9,51.6767,-417.271,0,0
338790.225,51.5431,-416.665,0,0
339050.55,51.4933,-416.037,0,0
339310.875,51.4169,-415.419,0,0
339571.2,51.319,-414.787,0,0
339831.525,51.2764,-414.151,0,0
340091.85,51.161,-413.601,0,0
340352.175,51.1551,-412.933,0,0
340612.5,51.1103,-412.336,0,0
340872.825,51.0375,-411.734,0,0
341133.15,51.02,-411.129,0,0
341393.475,50.9656,-410.487,0,0
341653.8,50.929,-409.888,0,0
341914.125,50.889,-409.285,0,0
342174.45,50.8558,-408.703,0,0
342434.775,50.8429,-408.052,0,0
342695.1,50.8761,-407.471,0,0
342955.425,50.8791,-406.919,0,0
343215.75,50.8546,-406.327,0,0
343476.075,50.8462,-405.764,0,0
343736.4,50.8416,-405.281,0,0
343996.725,50.8393,-404.742,0,0
344257.05,50.7942,-404.228,0,0
344517.375,50.7327,-403.695,0,0
344777.7,50.6824,-403.112,0,0
345038.025,50.5808,-402.643,0,0
345298.35,50.4804,-402.067,0,0
345558.675,50.4187,-401.511,0,0
345819.0,50.376,-400.953,0,0
346079.325,50.2637,-400.337,0,0
346339.65,50.2765,-399.73,0,0
346599.975,50.1744,-399.161,0,0
346860,50.1181,-398.593,0,0
347121,50.0803,-398.002,0,0
347381,50.0614,-397.429,0,0
347641,50.0398,-396.802,0,0
347902,50.0059,-396.243,0,0
348162,50.0067,-395.66,0,0
348422,49.9929,-395.065,0,0
348683,50.0028,-394.483,0,0
348943,49.9911,-393.914,0,0
349203,50.0338,-393.362,0,0
349464,49.999,-392.781,0,0
349724,50.0132,-392.233,0,0
349984,50.0648,-391.687,0,0
350245,50.0622,-391.142,0,0
350505,50.0624,-390.55,0,0
350765,50.0932,-390.053,0,0
351025,50.1248,-389.462,0,0
351286,50.14,-388.959,0,0
351546,50.157,-388.419,0,0
351806,50.1748,-387.916,0,0
352067,50.1949,-387.347,0,0
352327,50.2711,-386.839,0,0
352587,50.2947,-386.333,0,0
352848,50.3204,-385.857,0,0
353108,50.3798,-385.339,0,0
353368,50.3778,-384.854,0,0
353629,50.4109,-384.406,0,0
353889,50.4439,-383.911,0,0
354149,50.4806,-383.426,0,0
354410,50.5022,-382.994,0,0
354670,50.5077,-382.51,0,0
354930,50.5193,-382.07,0,0
355191,50.5249,-381.585,0,0
355451,50.5252,-381.167,0,0
355711,50.5109,-380.721,0,0
355972,50.5141,-380.279,0,0
356232,50.4853,-379.792,0,0
356492,50.4614,-379.399,0,0
356753,50.4731,-378.891,0,0
357013,50.4023,-378.461,0,0
357273,50.4034,-378.018,0,0
357534,50.3679,-377.532,0,0
357794,50.3574,-377.053,0,0
358054,50.3111,-376.569,0,0
358315,50.3061,-376.104,0,0
358575,50.2909,-375.674,0,0
358835,50.2697,-375.225,0,0
359096,50.2382,-374.738,0,0
359356,50.2275,-374.291,0,0
359616,50.237,-373.816,0,0
359877,50.2107,-373.395,0,0
360137,50.1454,-372.923,0,0
360397,50.131,-372.473,0,0
360658,50.0967,-372.1,0,0
360918,50.0168,-371.654,0,0
361178,49.96,-371.196,0,0
361438,49.9104,-370.741,0,0
361699,49.8351,-370.299,0,0
361959,49.8197,-369.816,0,0
362219,49.7482,-369.312,0,0
362480,49.6863,-368.889,0,0
362740.1,49.6329,-368.355,0,0
363000.425,49.6028,-367.869,0,0
363260.75,49.5347,-367.426,0,0
363521.075,49.47,-366.915,0,0
363781.4,49.4733,-366.415,0,0
364041.725,49.4211,-365.926,0,0
364302.05,49.3454,-365.443,0,0
364562.375,49.3197,-364.95,0,0
364822.7,49.294,-364.493,0,0
365083.025,49.3013,-363.978,0,0
365343.35,49.2607,-363.474,0,0
365603.675,49.2572,-362.987,0,0
365864.0,49.2055,-362.468,0,0
366124.325,49.2158,-361.977,0,0
366384.65,49.2244,-361.504,0,0
366644.975,49.2001,-361.019,0,0
366905.3,49.1974,-360.593,0,0
367165.625,49.1902,-360.083,0,0
367425.95,49.2165,-359.595,0,0
367686.275,49.1936,-359.157,0,0
367946.6,49.1942,-358.696,0,0
368206.925,49.1881,-358.223,0,0
368467.25,49.1544,-357.763,0,0
368727.575,49.1553,-357.295,0,0
368987.9,49.1745,-356.859,0,0
369248.225,49.1279,-356.373,0,0
369508.55,49.1253,-355.914,0,0
369768.875,49.1493,-355.468,0,0
370029.2,49.11,-354.977,0,0
370289.525,49.1249,-354.524,0,0
370549.85,49.0988,-354.048,0,0
370810.175,49.111,-353.582,0,0
371070.5,49.1428,-353.127,0,0
371330.825,49.1614,-352.679,0,0
371591.15,49.1834,-352.187,0,0
371851.475,49.2132,-351.763,0,0
372111.8,49.2093,-351.298,0,0
372372.125,49.259,-350.852,0,0
372632.45,49.2992,-350.43,0,0
372892.775,49.3056,-350.004,0,0
373153.1,49.3646,-349.608,0,0
373413.425,49.385,-349.207,0,0
373673.75,49.3953,-348.837,0,0
373934.075,49.4034,-348.465,0,0
374194.4,49.3873,-348.087,0,0
374454.725,49.3601,-347.763,0,0
374715.05,49.3033,-347.369,0,0
374975.375,49.2373,-347.032,0,0
375235.7,49.1584,-346.647,0,0
375496.025,49.053,-346.284,0,0
375756.35,48.9511,-345.822,0,0
376016.675,48.8659,-345.415,0,0
376277.0,48.7952,-344.975,0,0
376537.325,48.6884,-344.526,0,0
376797.65,48.609,-344.13,0,0
377057.975,48.5024,-343.646,0,0
377318.3,48.4616,-343.186,0,0
377578.625,48.3432,-342.707,0,0
377838.95,48.2882,-342.25,0,0
378099.275,48.2208,-341.782,0,0
378359.6,48.1466,-341.325,0,0
378619.925,48.0582,-340.827,0,0
378880,48.0042,-340.342,0,0
379141,47.9475,-339.869,0,0
379401,47.8869,-339.378,0,0
379661,47.8141,-338.879,0,0
379922,47.7173,-338.371,0,0
380182,47.6819,-337.886,0,0
380442,47.6295,-337.385,0,0
380703,47.551,-336.866,0,0
380963,47.4664,-336.367,0,0
381223,47.4657,-335.803,0,0
381483,47.4156,-335.293,0,0
381744,47.4314,-334.729,0,0
382004,47.3772,-334.216,0,0
382264,47.408,-333.647,0,0
382525,47.4145,-333.124,0,0
382785,47.4611,-332.612,0,0
383045,47.5791,-332.104,0,0
383306,47.6226,-331.61,0,0
383566,47.693,-331.164,0,0
383826,47.7467,-330.772,0,0
384087,47.7747,-330.369,0,0
384347,47.7646,-329.933,0,0
384607,47.7244,-329.534,0,0
384868,47.7058,-329.123,0,0
385128,47.629,-328.654,0,0
385388,47.5808,-328.214,0,0
385649,47.5208,-327.736,0,0
385909,47.5303,-327.247,0,0
386169,47.4729,-326.76,0,0
386430,47.4359,-326.28,0,0
386690,47.3942,-325.808,0,0
386950,47.3583,-325.292,0,0
387211,47.3445,-324.836,0,0
387471,47.2896,-324.352,0,0
387731,47.2647,-323.85,0,0
387992,47.2614,-323.322,0,0
388252,47.2501,-322.836,0,0
388512,47.2324,-322.309,0,0
388773,47.2102,-321.834,0,0
389033,47.1796,-321.298,0,0
389293,47.2041,-320.81,0,0
389554,47.1749,-320.325,0,0
389814,47.1763,-319.803,0,0
390074,47.169,-319.315,0,0
390335,47.1816,-318.775,0,0
390595,47.1689,-318.297,0,0
390855,47.147,-317.77,0,0
391116,47.1718,-317.279,0,0
391376,47.144,-316.785,0,0
391636,47.157,-316.256,0,0
391896,47.1534,-315.781,0,0
392157,47.137,-315.246,0,0
392417,47.1538,-314.725,0,0
392677,47.1714,-314.219,0,0
392938,47.1505,-313.699,0,0
393198,47.1636,-313.17,0,0
393458,47.1717,-312.659,0,0
393719,47.19,-312.107,0,0
393979,47.1927,-311.596,0,0
394239,47.2241,-311.078,0,0
394500,47.2227,-310.56,0,0
394760.05,47.2361,-310.028,0,0
395020.375,47.2661,-309.509,0,0
395280.7,47.2765,-308.984,0,0
395541.025,47.2966,-308.444,0,0
395801.35,47.3302,-307.908,0,0
396061.675,47.3542,-307.405,0,0
396322.0,47.3898,-306.858,0,0
396582.325,47.3964,-306.309,0,0
396842.65,47.4327,-305.772,0,0
397102.975,47.4766,-305.242,0,0
397363.3,47.4896,-304.71,0,0
397623.625,47.5383,-304.205,0,0
397883.95,47.5814,-303.635,0,0
398144.275,47.6213,-303.092,0,0
398404.6,47.6813,-302.513,0,0
398664.925,47.7013,-301.994,0,0
398925.25,47.7541,-301.464,0,0
399185.575,47.8209,-300.909,0,0
399445.9,47.8692,-300.381,0,0
399706.225,47.9314,-299.833,0,0
399966.55,47.9865,-299.266,0,0
400006.6,47.9866,-299.198,0,0