File: Accelerated corrosion test data/2025-10-11_06-00-04/sample_8.csv
Frequency (Hz),Impedance (ohms),Phase (Radians),Temperature (C),Humidity (%)
10000.0,311.325,-10955.5,0,0
10260.325,303.401,-10680.8,0,0
10520.65,296.637,-10419.6,0,0
10780.975,289.191,-10171,0,0
11041.3,282.703,-9934.19,0,0
11301.625,276.35,-9708.88,0,0
11561.95,270.221,-9492.41,0,0
11822.275,264.007,-9285.63,0,0
12082.6,262.065,-9086.02,0,0
12342.925,259.304,-8900.14,0,0
12603.25,254.309,-8719.17,0,0
12863.575,250.275,-8548.17,0,0
13123.9,242.282,-8383.89,0,0
13384.225,236.346,-8221.77,0,0
13644.55,233.78,-8067.14,0,0
13904.875,226.198,-7918.66,0,0
14165.2,220.464,-7774.75,0,0
14425.525,217.374,-7634.77,0,0
14685.8,212.337,-7500.88,0,0
14946.175,208.67,-7371.29,0,0
15206.5,205.505,-7245.96,0,0
15466.825,202.266,-7125.56,0,0
15727.15,198.769,-7008.86,0,0
15987.5,195.78,-6895.95,0,0
16247.8,192.806,-6786.21,0,0
16508.125,189.682,-6680.25,0,0
16768.45,186.741,-6577.37,0,0
17028.775,183.954,-6477.55,0,0
17289.1,180.803,-6380.88,0,0
17549.425,178.565,-6286.59,0,0
17809.75,176.719,-6194.07,0,0
18070.075,173.874,-6107.48,0,0
18330.4,171.428,-6020.43,0,0
18590.725,169.138,-5935.13,0,0
18851.05,170.011,-5851.96,0,0
19111.375,168.151,-5773.31,0,0
19371.7,170.621,-5696.71,0,0
19632.025,166.73,-5623.91,0,0
19892.35,163.597,-5553.83,0,0
20152.675,160.648,-5481.02,0,0
20413.0,160.259,-5410.97,0,0
20673.3,159.516,-5344.14,0,0
20933.65,157.964,-5280.61,0,0
21193.975,154.638,-5217.26,0,0
21454.3,152.469,-5153.17,0,0
21714.625,150.672,-5090.92,0,0
21974.9,149.847,-5031.64,0,0
22235.275,150.111,-4973.07,0,0
22495.6,148.294,-4916.55,0,0
22755.925,146.655,-4862.02,0,0
23016.25,144.541,-4808.58,0,0
23276.6,141.069,-4755.81,0,0
23536.9,139.813,-4702.89,0,0
23797.225,137.204,-4651.53,0,0
24057.55,135.882,-4600.53,0,0
24317.875,134.735,-4551.59,0,0
24578.2,132.071,-4503.53,0,0
24838.525,130.897,-4455.59,0,0
25098.85,129.591,-4409.45,0,0
25359.175,128.71,-4363.82,0,0
25619.5,127.2,-4319.66,0,0
25879.8,126.13,-4275.44,0,0
26140.1,125.392,-4233.44,0,0
26400.5,124.558,-4191.51,0,0
26660.8,122.757,-4150,0,0
26921.1,122.35,-4108.58,0,0
27181.4,122.163,-4069.69,0,0
27441.8,121.122,-4030.98,0,0
27702.1,120.902,-3993.39,0,0
27962.4,118.806,-3956.6,0,0
28222.7,119.184,-3918.42,0,0
28483.1,118.279,-3883.2,0,0
28743.4,117.97,-3846.87,0,0
29003.7,117.792,-3813.12,0,0
29264,117.758,-3778.45,0,0
29524.4,116.827,-3745.15,0,0
29784.7,117.038,-3711.74,0,0
30045,117.166,-3680.2,0,0
30305.3,116.915,-3649.1,0,0
30565.7,116.112,-3618.56,0,0
30826,115.755,-3588.27,0,0
31086.3,115.05,-3558.37,0,0
31346.6,114.605,-3528.44,0,0
31607,113.966,-3499.5,0,0
31867.3,114.299,-3470.65,0,0
32127.6,113.848,-3442.68,0,0
32387.9,113.012,-3414.85,0,0
32648.3,113.502,-3387.22,0,0
32908.6,114.798,-3360.02,0,0
33168.9,114.419,-3334.42,0,0
33429.2,115.831,-3309.19,0,0
33689.6,117.228,-3285.45,0,0
33949.9,116.573,-3262.82,0,0
34210.2,115.357,-3239.77,0,0
34470.5,113.849,-3216.46,0,0
34730.9,113.126,-3193.18,0,0
34991.2,112.877,-3170.83,0,0
35251.5,111.499,-3149.26,0,0
35511.8,109.376,-3127.21,0,0
35772.2,107.392,-3104.97,0,0
36032.5,105.679,-3083.23,0,0
36292.8,103.595,-3061.44,0,0
36553.1,102.059,-3039.46,0,0
36813.5,100.494,-3018.06,0,0
37073.8,99.4547,-2996.88,0,0
37334.1,97.9276,-2976.03,0,0
37594.4,96.2605,-2955.31,0,0
37854.8,95.0459,-2934.7,0,0
38115.1,93.758,-2914.3,0,0
38375.4,92.3623,-2894.08,0,0
38635.7,91.2961,-2874.08,0,0
38896.1,90.191,-2854.61,0,0
39156.4,88.8843,-2834.69,0,0
39416.7,88.1224,-2815.28,0,0
39677,86.9494,-2796.56,0,0
39937.4,86.1755,-2777.65,0,0
40197.7,85.582,-2758.15,0,0
40458,85.1926,-2739.53,0,0
40718.3,85.151,-2721.77,0,0
40978.7,84.4404,-2704.48,0,0
41239,83.8886,-2686.92,0,0
41499.3,83.3933,-2669.51,0,0
41759.6,83.0022,-2652.26,0,0
42020,82.4283,-2635.54,0,0
42280.275,82.0298,-2618.74,0,0
42540.6,81.5587,-2601.86,0,0
42800.925,81.3111,-2585.51,0,0
43061.25,81.4814,-2569.24,0,0
43321.575,81.3502,-2553.57,0,0
43581.9,81.7868,-2538.4,0,0
43842.225,80.9462,-2523.77,0,0
44102.55,80.3847,-2508.88,0,0
44362.875,79.6699,-2493.79,0,0
44623.2,79.0747,-2478.97,0,0
44883.525,78.3347,-2464.01,0,0
45143.85,77.9359,-2449.52,0,0
45404.175,77.5633,-2435.08,0,0
45664.5,76.9645,-2420.79,0,0
45924.825,76.4926,-2406.8,0,0
46185.15,75.9552,-2392.58,0,0
46445.475,75.4081,-2378.64,0,0
46705.8,75.2222,-2364.74,0,0
46966.125,74.8342,-2351.17,0,0
47226.45,74.6091,-2337.63,0,0
47486.775,74.3456,-2324.4,0,0
47747.1,74.2533,-2311.41,0,0
48007.425,73.8665,-2298.58,0,0
48267.75,73.5399,-2285.9,0,0
48528.075,73.1549,-2273.43,0,0
48788.4,72.8709,-2261.05,0,0
49048.725,72.0373,-2248.58,0,0
49309.05,71.7932,-2236.27,0,0
49569.375,71.3261,-2223.76,0,0
49829.7,70.8653,-2211.75,0,0
50090.025,70.6311,-2199.54,0,0
50350.35,70.379,-2187.6,0,0
50610.675,70.1263,-2175.84,0,0
50871.0,69.8572,-2164.19,0,0
51131.325,69.7361,-2152.48,0,0
51391.65,69.5254,-2141.06,0,0
51651.975,69.5943,-2129.7,0,0
51912.3,69.5048,-2118.7,0,0
52172.625,69.3154,-2107.74,0,0
52432.95,69.0647,-2096.96,0,0
52693.275,69.0059,-2086.11,0,0
52953.6,69.1317,-2075.49,0,0
53213.925,69.1802,-2065.14,0,0
53474.25,69.1013,-2054.76,0,0
53734.575,69.0947,-2044.96,0,0
53994.9,68.5605,-2035.38,0,0
54255.225,67.9252,-2025.44,0,0
54515.55,67.2175,-2015.49,0,0
54775.875,66.9258,-2005.39,0,0
55036.2,66.3539,-1995.71,0,0
55296.525,65.5865,-1986.01,0,0
55556.85,64.9163,-1976.03,0,0
55817.175,64.4403,-1966.09,0,0
56077.5,63.7308,-1956.41,0,0
56337.825,63.3282,-1946.43,0,0
56598.15,62.9681,-1936.61,0,0
56858.475,62.6835,-1927.04,0,0
57118.8,62.4836,-1917.42,0,0
57379.125,62.3079,-1908.04,0,0
57639.45,62.1844,-1898.62,0,0
57899.775,61.9921,-1889.42,0,0
58160.1,61.9118,-1880.27,0,0
58420.4,61.8217,-1871.2,0,0
58680.7,61.7569,-1862.2,0,0
58941.1,62.0021,-1853.41,0,0
59201.4,62.1121,-1844.94,0,0
59461.7,61.7128,-1836.58,0,0
59722,61.3851,-1828.07,0,0
59982.4,61.1108,-1819.49,0,0
60242.7,60.7063,-1810.99,0,0
60503,60.4194,-1802.34,0,0
60763.3,60.2621,-1793.81,0,0
61023.7,60.2648,-1785.28,0,0
61284,60.2478,-1777.02,0,0
61544.3,60.4624,-1768.71,0,0
61804.6,60.4833,-1760.94,0,0
62065,60.1236,-1752.84,0,0
62325.3,60.1088,-1744.74,0,0
62585.6,60.0596,-1736.56,0,0
62845.9,60.2102,-1728.66,0,0
63106.3,60.4733,-1720.79,0,0
63366.6,60.8395,-1713.06,0,0
63626.9,61.1397,-1705.65,0,0
63887.2,61.401,-1698.16,0,0
64147.6,61.7917,-1690.83,0,0
64407.9,62.0757,-1683.95,0,0
64668.2,62.2113,-1677.21,0,0
64928.5,61.91,-1670.41,0,0
65188.9,61.8016,-1663.51,0,0
65449.2,61.5483,-1656.82,0,0
65709.5,61.1403,-1649.74,0,0
65969.8,60.9574,-1643.04,0,0
66230.2,60.6666,-1636.39,0,0
66490.5,60.0095,-1629.62,0,0
66750.8,59.3241,-1622.56,0,0
67011.1,59.0255,-1615.47,0,0
67271.5,58.6571,-1608.33,0,0
67531.8,58.5146,-1601.44,0,0
67792.1,58.4189,-1594.64,0,0
68052.4,58.1736,-1587.91,0,0
68312.8,57.9468,-1581.04,0,0
68573.1,57.8818,-1574.37,0,0
68833.4,57.7163,-1567.52,0,0
69093.7,57.5885,-1560.9,0,0
69354.1,57.5622,-1554.13,0,0
69614.4,57.5949,-1547.6,0,0
69874.7,57.7024,-1541.12,0,0
70135,57.8304,-1534.71,0,0
70395.4,57.7951,-1528.41,0,0
70655.7,57.8218,-1522.19,0,0
70916,57.7825,-1515.94,0,0
71176.3,57.8945,-1509.69,0,0
71436.7,58.0262,-1503.6,0,0
71697,58.1905,-1497.35,0,0
71957.3,58.3415,-1491.75,0,0
72217.6,58.2869,-1485.97,0,0
72478,58.0823,-1480.23,0,0
72738.3,57.8565,-1474.43,0,0
72998.6,57.6766,-1468.57,0,0
73258.9,57.3883,-1462.67,0,0
73519.3,57.3923,-1456.74,0,0
73779.6,57.3524,-1450.85,0,0
74039.9,57.2624,-1445.16,0,0
74300.225,57.1981,-1439.54,0,0
74560.55,56.9314,-1433.8,0,0
74820.875,56.8354,-1428.09,0,0
75081.2,56.7209,-1422.38,0,0
75341.525,56.6222,-1416.7,0,0
75601.85,56.6256,-1410.94,0,0
75862.175,56.6516,-1405.32,0,0
76122.5,56.7027,-1399.82,0,0
76382.825,56.7244,-1394.29,0,0
76643.15,56.8384,-1388.9,0,0
76903.475,56.7896,-1383.55,0,0
77163.8,56.7343,-1378.28,0,0
77424.125,56.7109,-1372.91,0,0
77684.45,56.5978,-1367.58,0,0
77944.775,56.5624,-1362.31,0,0
78205.1,56.4303,-1357.06,0,0
78465.425,56.3558,-1351.78,0,0
78725.75,56.2529,-1346.44,0,0
78986.075,56.2173,-1341.12,0,0
79246.4,56.196,-1335.88,0,0
79506.725,56.1487,-1330.61,0,0
79767.05,56.27,-1325.35,0,0
80027.375,56.3191,-1320.17,0,0
80287.7,56.3926,-1315.02,0,0
80548.025,56.4283,-1309.9,0,0
80808.35,56.4652,-1304.81,0,0
81068.675,56.4659,-1299.59,0,0
81329.0,56.6669,-1294.42,0,0
81589.325,56.8854,-1289.32,0,0
81849.65,57.1265,-1284.19,0,0
82109.975,57.4591,-1279.13,0,0
82370.3,57.8788,-1274.31,0,0
82630.625,58.2173,-1269.54,0,0
82890.95,58.4552,-1264.75,0,0
83151.275,58.7969,-1260.04,0,0
83411.6,59.0212,-1255.29,0,0
83671.925,59.3767,-1250.51,0,0
83932.25,59.7715,-1245.89,0,0
84192.575,60.1787,-1241.33,0,0
84452.9,60.5574,-1236.88,0,0
84713.225,61.0531,-1232.49,0,0
84973.55,61.4886,-1228.39,0,0
85233.875,61.4207,-1224.46,0,0
85494.2,61.1555,-1220.22,0,0
85754.525,60.9038,-1215.76,0,0
86014.85,60.7608,-1211.09,0,0
86275.175,60.8155,-1206.45,0,0
86535.5,60.8564,-1201.84,0,0
86795.825,61.0019,-1197.15,0,0
87056.15,61.3208,-1192.51,0,0
87316.475,61.7643,-1188.08,0,0
87576.8,61.8791,-1183.62,0,0
87837.125,62.2018,-1179.04,0,0
88097.45,62.6552,-1174.58,0,0
88357.775,62.9993,-1170.18,0,0
88618.1,63.4373,-1165.94,0,0
88878.425,63.9578,-1161.61,0,0
89138.75,64.3465,-1157.36,0,0
89399.075,64.6941,-1153.05,0,0
89659.4,65.183,-1148.69,0,0
89919.725,65.8171,-1144.3,0,0
90180,66.4863,-1140.14,0,0
90440.4,67.1073,-1135.94,0,0
90700.7,67.8439,-1131.75,0,0
90961,68.7998,-1127.69,0,0
91221.3,69.8691,-1123.71,0,0
91481.7,71.0349,-1120,0,0
91742,71.974,-1116.72,0,0
92002.3,72.8054,-1113.43,0,0
92262.6,73.5231,-1110.18,0,0
92523,74.2162,-1107.13,0,0
92783.3,74.6012,-1104.12,0,0
93043.6,75.1442,-1101.18,0,0
93303.9,75.1144,-1098.56,0,0
93564.3,74.8083,-1095.44,0,0
93824.6,74.3397,-1092.13,0,0
94084.9,73.9534,-1088.23,0,0
94345.2,74.0993,-1084.42,0,0
94605.6,74.1351,-1080.58,0,0
94865.9,74.6296,-1076.75,0,0
95126.2,75.0064,-1073.14,0,0
95386.5,75.6431,-1069.51,0,0
95646.9,76.1469,-1066.45,0,0
95907.2,76.2549,-1063.17,0,0
96167.5,76.4347,-1059.68,0,0
96427.8,76.7461,-1056.11,0,0
96688.2,77.3148,-1052.71,0,0
96948.5,77.7698,-1049.41,0,0
97208.8,78.2468,-1046.12,0,0
97469.1,78.8306,-1042.93,0,0
97729.5,79.4306,-1039.84,0,0
97989.8,79.9445,-1037,0,0
98250.1,80.2775,-1034.09,0,0
98510.4,80.7079,-1031.21,0,0
98770.8,81.2092,-1028.63,0,0
99031.1,81.2265,-1026.26,0,0
99291.4,80.9017,-1023.61,0,0
99551.7,80.5718,-1020.57,0,0
99812.1,80.493,-1017.36,0,0
100072,80.6275,-1014.28,0,0
100333,80.7944,-1011.3,0,0
100593,80.9038,-1008.42,0,0
100853,80.9672,-1005.64,0,0
101114,80.9458,-1002.9,0,0
101374,80.8127,-1000.09,0,0
101634,80.7399,-997.285,0,0
101895,80.5203,-994.617,0,0
102155,80.0802,-991.772,0,0
102415,79.7164,-988.832,0,0
102676,79.3023,-985.747,0,0
102936,78.9549,-982.602,0,0
103196,78.6433,-979.466,0,0
103457,78.3256,-976.112,0,0
103717,78.2312,-972.748,0,0
103977,78.2057,-969.488,0,0
104238,78.3184,-966.237,0,0
104498,78.3668,-963.212,0,0
104758,78.3277,-960.135,0,0
105019,78.1456,-957.031,0,0
105279,78.0129,-953.682,0,0
105539,78.1665,-950.241,0,0
105800,78.4647,-947.032,0,0
106060,78.7029,-943.901,0,0
106320.175,78.9914,-940.764,0,0
106580.5,79.4011,-937.652,0,0
106840.825,79.8445,-934.78,0,0
107101.15,80.2305,-932.03,0,0
107361.475,80.5077,-929.427,0,0
107621.8,80.6009,-926.851,0,0
107882.125,80.5177,-924.163,0,0
108142.45,80.4377,-921.355,0,0
108402.775,80.368,-918.397,0,0
108663.1,80.4854,-915.439,0,0
108923.425,80.5921,-912.57,0,0
109183.75,80.7394,-909.628,0,0
109444.075,80.8762,-906.755,0,0
109704.4,81.1067,-903.898,0,0
109964.725,81.352,-901.094,0,0
110225.05,81.6105,-898.416,0,0
110485.375,81.821,-895.765,0,0
110745.7,81.9257,-893.167,0,0
111006.025,81.9725,-890.613,0,0
111266.35,81.872,-887.835,0,0
111526.675,81.9947,-885.228,0,0
111787.0,82.1595,-882.395,0,0
112047.325,82.2539,-879.819,0,0
112307.65,82.4142,-877.143,0,0
112567.975,82.4088,-874.519,0,0
112828.3,82.5335,-871.848,0,0
113088.625,82.5771,-869.243,0,0
113348.95,82.727,-866.547,0,0
113609.275,82.8077,-864.06,0,0
113869.6,82.8722,-861.556,0,0
114129.925,82.8147,-859.052,0,0
114390.25,82.7586,-856.447,0,0
114650.575,82.7013,-853.855,0,0
114910.9,82.7056,-851.191,0,0
115171.225,82.7875,-848.624,0,0
115431.55,82.7529,-846.05,0,0
115691.875,82.6541,-843.539,0,0
115952.2,82.5279,-840.878,0,0
116212.525,82.4967,-838.235,0,0
116472.85,82.4171,-835.702,0,0
116733.175,82.2062,-833.107,0,0
116993.5,82.0237,-830.276,0,0
117253.825,81.9909,-827.315,0,0
117514.15,82.1699,-824.471,0,0
117774.475,82.4209,-821.793,0,0
118034.8,82.5286,-819.181,0,0
118295.125,82.6595,-816.549,0,0
118555.45,82.7897,-813.91,0,0
118815.775,83.0224,-811.35,0,0
119076.1,83.2559,-808.887,0,0
119336.425,83.4584,-806.607,0,0
119596.75,83.2386,-804.229,0,0
119857.075,83.0932,-801.745,0,0
120117.4,82.9808,-799.179,0,0
120377.725,82.8929,-796.543,0,0
120638.05,82.7787,-793.882,0,0
120898.375,82.7653,-791.151,0,0
121158.7,82.8909,-788.504,0,0
121419.025,82.9276,-785.963,0,0
121679.35,82.9013,-783.385,0,0
121939.675,82.9163,-780.73,0,0
122200.0,82.975,-778.059,0,0
122460,83.1589,-775.481,0,0
122721,83.2697,-773.006,0,0
122981,83.2408,-770.544,0,0
123241,83.1792,-767.984,0,0
123502,83.0797,-765.393,0,0
123762,83.03,-762.742,0,0
124022,82.9952,-760.054,0,0
124283,82.9959,-757.276,0,0
124543,83.1419,-754.552,0,0
124803,83.2736,-751.831,0,0
125064,83.4936,-749.19,0,0
125324,83.6957,-746.626,0,0
125584,83.8324,-744.074,0,0
125845,83.9678,-741.575,0,0
126105,83.9987,-738.984,0,0
126365,84.0547,-736.351,0,0
126626,84.1746,-733.646,0,0
126886,84.4357,-731.036,0,0
127146,84.7094,-728.54,0,0
127406,84.7342,-725.995,0,0
127667,84.8024,-723.53,0,0
127927,84.8447,-720.885,0,0
128187,84.9884,-718.307,0,0
128448,85.1415,-715.73,0,0
128708,85.3036,-713.209,0,0
128968,85.3168,-710.654,0,0
129229,85.4122,-708.038,0,0
129489,85.468,-705.422,0,0
129749,85.5498,-702.742,0,0
130010,85.7086,-700.022,0,0
130270,85.8477,-697.277,0,0
130530,86.1132,-694.536,0,0
130791,86.4833,-691.86,0,0
131051,86.7644,-689.353,0,0
131311,87.0382,-686.815,0,0
131572,87.3333,-684.315,0,0
131832,87.5049,-681.955,0,0
132092,87.4413,-679.503,0,0
132353,87.4115,-676.858,0,0
132613,87.4443,-674.099,0,0
132873,87.5879,-671.369,0,0
133134,87.7389,-668.657,0,0
133394,87.8703,-665.964,0,0
133654,87.9192,-663.253,0,0
133915,87.9718,-660.385,0,0
134175,88.1185,-657.407,0,0
134435,88.4487,-654.431,0,0
134696,88.7915,-651.469,0,0
134956,89.2286,-648.473,0,0
135216,89.8022,-645.518,0,0
135477,90.574,-642.699,0,0
135737,91.2237,-640.014,0,0
135997,91.9761,-637.346,0,0
136258,92.7528,-635.006,0,0
136518,93.2834,-632.725,0,0
136778,93.7566,-630.527,0,0
137039,93.99,-628.379,0,0
137299,94.0112,-626.079,0,0
137559,93.9882,-623.675,0,0
137819,93.8421,-621.149,0,0
138080,93.6237,-618.452,0,0
138340.125,93.4353,-615.438,0,0
138600.45,93.4919,-612.303,0,0
138860.775,93.6952,-609.191,0,0
139121.1,94.004,-606.04,0,0
139381.425,94.4218,-603.049,0,0
139641.75,94.7245,-600.113,0,0
139902.075,94.9697,-597.007,0,0
140162.4,95.3972,-593.865,0,0
140422.725,95.8372,-590.765,0,0
140683.05,96.229,-587.664,0,0
140943.375,96.6451,-584.414,0,0
141203.7,97.2438,-581.142,0,0
141464.025,97.906,-578.024,0,0
141724.35,98.489,-574.925,0,0
141984.675,98.9942,-571.805,0,0
142245.0,99.4865,-568.51,0,0
142505.325,100.13,-565.189,0,0
142765.65,100.826,-561.819,0,0
143025.975,101.543,-558.486,0,0
143286.3,102.217,-555.08,0,0
143546.625,102.998,-551.576,0,0
143806.95,103.817,-548.065,0,0
144067.275,104.716,-544.453,0,0
144327.6,105.702,-540.786,0,0
144587.925,106.715,-537.025,0,0
144848.25,107.999,-533.07,0,0
145108.575,109.573,-529.182,0,0
145368.9,111.292,-525.426,0,0
145629.225,113.182,-521.772,0,0
145889.55,115.202,-518.334,0,0
146149.875,117.173,-515.062,0,0
146410.2,119.068,-511.838,0,0
146670.525,121.016,-508.526,0,0
146930.85,123.095,-505.347,0,0
147191.175,125.23,-502.228,0,0
147451.5,127.479,-499.356,0,0
147711.825,129.394,-496.842,0,0
147972.15,130.757,-494.099,0,0
148232.475,132.113,-490.793,0,0
148492.8,133.691,-487.188,0,0
148753.125,135.546,-483.321,0,0
149013.45,137.791,-479.35,0,0
149273.775,140.442,-475.367,0,0
149534.1,143.465,-471.443,0,0
149794.425,146.767,-467.727,0,0
150054.75,150.281,-464.31,0,0
150315.075,153.981,-460.891,0,0
150575.4,158.08,-457.715,0,0
150835.725,162.408,-454.718,0,0
151096.05,167.174,-452.065,0,0
151356.375,172.46,-450.177,0,0
151616.7,177.597,-449.282,0,0
151877.025,182.287,-448.954,0,0
152137.35,186.553,-449.047,0,0
152397.675,190.426,-449.743,0,0
152658.0,193.161,-450.791,0,0
152918.325,195.377,-450.966,0,0
153178.65,197.621,-451.074,0,0
153438.975,199.57,-451.387,0,0
153699.3,201.125,-451.183,0,0
153959.625,202.744,-450.773,0,0
154219.95,204.446,-450.422,0,0
154480,205.745,-450.041,0,0
154741,206.822,-449.003,0,0
155001,208.338,-447.387,0,0
155261,210.514,-445.574,0,0
155522,213.469,-444.182,0,0
155782,216.736,-443.41,0,0
156042,220.264,-443.302,0,0
156303,223.883,-444.643,0,0
156563,225.947,-447.593,0,0
156823,225.768,-450.245,0,0
157084,224.19,-451.554,0,0
157344,222.433,-451.228,0,0
157604,220.865,-449.693,0,0
157864,219.921,-447.519,0,0
158125,219.661,-444.634,0,0
158385,220.302,-441.512,0,0
158645,221.806,-438.342,0,0
158906,224.134,-435.637,0,0
159166,226.742,-433.581,0,0
159426,229.665,-432.41,0,0
159687,232.253,-432.177,0,0
159947,233.883,-432.476,0,0
160207,234.805,-432.451,0,0
160468,235.095,-432.231,0,0
160728,234.889,-431.392,0,0
160988,234.477,-429.682,0,0
161249,234.394,-427.219,0,0
161509,234.976,-423.967,0,0
161769,236.743,-420.729,0,0
162030,238.933,-417.939,0,0
162290,241.59,-415.435,0,0
162550,244.587,-413.374,0,0
162811,247.671,-411.839,0,0
163071,250.674,-410.643,0,0
163331,253.783,-409.71,0,0
163592,257.019,-409.451,0,0
163852,259.85,-409.717,0,0
164112,262.137,-410.249,0,0
164373,263.819,-410.516,0,0
164633,265.786,-410.747,0,0
164893,267.639,-411.265,0,0
165154,269.426,-412.051,0,0
165414,271.173,-413.476,0,0
165674,271.862,-415.778,0,0
165935,270.931,-417.617,0,0
166195,269.453,-418.404,0,0
166455,268.078,-418.636,0,0
166716,266.385,-418.55,0,0
166976,264.306,-417.963,0,0
167236,262.216,-416.543,0,0
167497,260.436,-414.501,0,0
167757,258.968,-412.351,0,0
168017,257.515,-409.863,0,0
168277,256.237,-406.982,0,0
168538,255.268,-404.013,0,0
168798,254.319,-400.963,0,0
169058,253.349,-397.415,0,0
169319,252.823,-393.436,0,0
169579,252.849,-389.353,0,0
169839,253.151,-385.534,0,0
170100,253.279,-381.854,0,0
170360.075,253.266,-377.74,0,0
170620.4,253.741,-373.366,0,0
170880.725,254.437,-368.963,0,0
171141.05,255.181,-364.537,0,0
171401.375,255.833,-359.955,0,0
171661.7,256.575,-354.661,0,0
171922.025,258.071,-348.771,0,0
172182.35,260.533,-342.78,0,0
172442.675,263.907,-337.221,0,0
172703.0,267.645,-332.236,0,0
172963.325,271.511,-327.747,0,0
173223.65,275.375,-323.6,0,0
173483.975,279.37,-319.687,0,0
173744.3,283.612,-316.238,0,0
174004.625,287.713,-312.952,0,0
174264.95,291.67,-310.044,0,0
174525.275,295.338,-307.368,0,0
174785.6,298.615,-304.664,0,0
175045.925,301.712,-301.745,0,0
175306.25,304.766,-298.736,0,0
175566.575,307.407,-295.533,0,0
175826.9,310.001,-291.656,0,0
176087.225,312.916,-287.108,0,0
176347.55,316.545,-282.161,0,0
176607.875,320.924,-277.127,0,0
176868.2,326.14,-272.301,0,0
177128.525,331.751,-268.131,0,0
177388.85,337.282,-264.459,0,0
177649.175,342.543,-260.692,0,0
177909.5,348.212,-256.528,0,0
178169.825,354.718,-252.427,0,0
178430.15,361.827,-248.82,0,0
178690.475,369.325,-245.809,0,0
178950.8,376.825,-243.462,0,0
179211.125,384.128,-241.537,0,0
179471.45,391.487,-239.973,0,0
179731.775,398.554,-238.74,0,0
179992.1,405.678,-237.373,0,0
180252.425,413.478,-236.546,0,0
180512.75,420.615,-236.544,0,0
180773.075,427.403,-236.334,0,0
181033.4,434.341,-236.265,0,0
181293.725,440.854,-236.709,0,0
181554.05,446.914,-236.809,0,0
181814.375,453.133,-236.641,0,0
182074.7,459.731,-236.57,0,0
182335.025,466.408,-236.768,0,0
182595.35,473.489,-237.174,0,0
182855.675,480.458,-238.391,0,0
183116.0,486.945,-240.211,0,0
183376.325,492.587,-242.486,0,0
183636.65,497.389,-243.993,0,0
183896.975,501.974,-245.285,0,0
184157.3,506.177,-245.868,0,0
184417.625,510.773,-245.493,0,0
184677.95,515.955,-245.253,0,0
184938.275,521.078,-244.915,0,0
185198.6,526.363,-244.002,0,0
185458.925,532.511,-242.69,0,0
185719.25,539.535,-241.83,0,0
185979.575,546.581,-241.11,0,0
186239.9,554.258,-240.337,0,0
186500,562.869,-240.252,0,0
186761,571.299,-241.174,0,0
187021,579.443,-242.188,0,0
187281,587.723,-243.388,0,0
187542,595.898,-244.658,0,0
187802,604.361,-245.723,0,0
188062,613.712,-246.912,0,0
188322,623.932,-249.153,0,0
188583,634.265,-252.539,0,0
188843,644.31,-257.288,0,0
189103,653.347,-263.15,0,0
189364,660.906,-269.199,0,0
189624,667.737,-274.581,0,0
189884,674.172,-279.78,0,0
190145,680.25,-284.693,0,0
190405,685.922,-289.201,0,0
190665,691.049,-292.239,0,0
190926,697.853,-293.984,0,0
191186,706.613,-296.244,0,0
191446,716.155,-299.798,0,0
191707,725.948,-304.467,0,0
191967,735.6,-310.421,0,0
192227,744.215,-317.221,0,0
192488,751.903,-324.134,0,0
192748,758.313,-330.282,0,0
193008,764.89,-334.252,0,0
193269,774.007,-337.296,0,0
193529,785.115,-341.448,0,0
193789,797.374,-346.774,0,0
194050,810.805,-353.679,0,0
194310,824.81,-362.774,0,0
194570,838.487,-374.062,0,0
194831,851.325,-387.253,0,0
195091,862.916,-401.627,0,0
195351,873.573,-416.603,0,0
195612,884.096,-432.221,0,0
195872,894.341,-449.233,0,0
196132,903.86,-468.336,0,0
196393,911.671,-489.285,0,0
196653,916.936,-511.343,0,0
196913,920.032,-533.449,0,0
197174,920.976,-555.588,0,0
197434,920.705,-577.216,0,0
197694,919.069,-599.055,0,0
197955,915.285,-620.786,0,0
198215,909.813,-641.902,0,0
198475,902.633,-661.821,0,0
198735,894.403,-680.6,0,0
198996,885.458,-698.236,0,0
199256,876.125,-714.719,0,0
199516,866.576,-730.705,0,0
199777,856.379,-746.915,0,0
200037,844.658,-762.826,0,0
200297,831.356,-777.876,0,0
200558,816.46,-790.87,0,0
200818,801.252,-801.634,0,0
201078,786.737,-810.728,0,0
201339,772.996,-819.135,0,0
201599,759.515,-827.324,0,0
201859,745.501,-835.167,0,0
202120,730.896,-842.276,0,0
202380.025,715.484,-848.8,0,0
202640.35,699.311,-853.552,0,0
202900.675,683.147,-856.111,0,0
203161.0,667.989,-856.814,0,0
203421.325,654.036,-856.912,0,0
203681.65,640.754,-855.876,0,0
203941.975,628.601,-854.145,0,0
204202.3,617.447,-852.107,0,0
204462.625,607.129,-850.228,0,0
204722.95,597.404,-847.85,0,0
204983.275,588.368,-845.488,0,0
205243.6,579.614,-843.516,0,0
205503.925,570.842,-841.5,0,0
205764.25,562.041,-839.145,0,0
206024.575,553.18,-836.252,0,0
206284.9,544.382,-832.357,0,0
206545.225,536.636,-827.264,0,0
206805.55,530.183,-821.761,0,0
207065.875,525.055,-816.306,0,0
207326.2,520.966,-811.251,0,0
207586.525,517.546,-806.892,0,0
207846.85,514.439,-802.993,0,0
208107.175,511.586,-799.445,0,0
208367.5,508.969,-796.105,0,0
208627.825,506.565,-793.096,0,0
208888.15,504.426,-790.225,0,0
209148.475,502.332,-787.538,0,0
209408.8,500.539,-784.869,0,0
209669.125,498.965,-782.299,0,0
209929.45,498.044,-779.687,0,0
210189.775,497.252,-777.754,0,0
210450.1,496.598,-776.062,0,0
210710.425,496.193,-774.638,0,0
210970.75,495.991,-773.665,0,0
211231.075,495.829,-772.98,0,0
211491.4,495.744,-772.552,0,0
211751.725,495.87,-772.69,0,0
212012.05,495.735,-773.417,0,0
212272.375,495.262,-774.316,0,0
212532.7,494.596,-775.542,0,0
212793.025,493.773,-776.906,0,0
213053.35,492.662,-778.608,0,0
213313.675,491.134,-780.364,0,0
213574.0,489.221,-782.125,0,0
213834.325,487.107,-783.862,0,0
214094.65,484.669,-785.487,0,0
214354.975,481.959,-787.032,0,0
214615.3,478.985,-788.229,0,0
214875.625,476.001,-789.29,0,0
215135.95,472.967,-790.182,0,0
215396.275,469.766,-791.034,0,0
215656.6,466.367,-791.483,0,0
215916.925,462.879,-791.66,0,0
216177.25,459.407,-791.423,0,0
216437.575,456.076,-790.769,0,0
216697.9,452.968,-789.659,0,0
216958.225,450.348,-788.167,0,0
217218.55,448.367,-786.555,0,0
217478.875,446.97,-785.17,0,0
217739.2,445.933,-784.045,0,0
217999.525,445.244,-783.223,0,0
218259.85,444.706,-782.788,0,0
218520,444.081,-782.84,0,0
218780,443.282,-782.963,0,0
219041,442.322,-783.054,0,0
219301,441.505,-783.06,0,0
219561,440.981,-783.115,0,0
219822,440.664,-783.433,0,0
220082,440.525,-784.005,0,0
220342,440.21,-784.86,0,0
220603,440.001,-785.959,0,0
220863,439.747,-787.392,0,0
221123,439.24,-789.162,0,0
221384,438.504,-790.976,0,0
221644,437.705,-792.868,0,0
221904,436.92,-794.807,0,0
222165,436.007,-797.033,0,0
222425,435.008,-799.476,0,0
222685,433.792,-802.313,0,0
222946,431.876,-805.188,0,0
223206,429.795,-808.003,0,0
223466,427.293,-810.638,0,0
223727,424.633,-812.859,0,0
223987,422.228,-815.036,0,0
224247,419.857,-817.222,0,0
224508,417.438,-819.645,0,0
224768,414.895,-821.96,0,0
225028,412.599,-824.416,0,0
225289,410.189,-827.689,0,0
225549,406.894,-831.157,0,0
225809,402.833,-834.519,0,0
226070,398.227,-837.39,0,0
226330,393.387,-839.824,0,0
226590,388.486,-841.708,0,0
226851,383.684,-843.464,0,0
227111,378.769,-845.177,0,0
227371,373.233,-846.741,0,0
227632,367.85,-847.803,0,0
227892,362.186,-848.346,0,0
228152,356.738,-848.261,0,0
228413,351.682,-847.82,0,0
228673,347.11,-847.143,0,0
228933,342.857,-846.571,0,0
229193,338.871,-846.09,0,0
229454,334.933,-845.88,0,0
229714,330.988,-845.82,0,0
229974,326.903,-845.858,0,0
230235,322.714,-846.007,0,0
230495,318.199,-846.214,0,0
230755,313.262,-846.078,0,0
231016,308.339,-845.551,0,0
231276,303.521,-844.822,0,0
231536,298.621,-844.085,0,0
231797,293.779,-843.116,0,0
232057,288.817,-841.919,0,0
232317,283.955,-840.479,0,0
232578,279.011,-838.789,0,0
232838,274.237,-836.873,0,0
233098,269.67,-834.727,0,0
233359,265.199,-832.501,0,0
233619,260.855,-830.25,0,0
233879,256.515,-827.744,0,0
234140,252.272,-825.042,0,0
234400,248.201,-822.264,0,0
234660.3,244.269,-819.263,0,0
234920.625,240.565,-816.038,0,0
235180.95,236.997,-812.752,0,0
235441.275,233.773,-809.227,0,0
235701.6,230.77,-805.798,0,0
235961.925,228.071,-802.398,0,0
236222.25,225.446,-798.918,0,0
236482.575,223.105,-795.477,0,0
236742.9,220.849,-791.977,0,0
237003.225,218.876,-788.542,0,0
237263.55,217.112,-785.19,0,0
237523.875,215.469,-781.915,0,0
237784.2,214,-778.652,0,0
238044.525,212.729,-775.511,0,0
238304.85,211.597,-772.467,0,0
238565.175,210.621,-769.496,0,0
238825.5,209.828,-766.571,0,0
239085.825,209.303,-763.901,0,0
239346.15,208.919,-761.53,0,0
239606.475,208.647,-759.497,0,0
239866.8,208.221,-757.775,0,0
240127.125,207.631,-756.386,0,0
240387.45,206.904,-755.234,0,0
240647.775,205.99,-754.091,0,0
240908.1,204.767,-753.1,0,0
241168.425,203.309,-752.035,0,0
241428.75,201.637,-751.018,0,0
241689.075,199.793,-749.781,0,0
241949.4,197.746,-748.404,0,0
242209.725,195.692,-746.891,0,0
242470.05,193.596,-745.218,0,0
242730.375,191.399,-743.358,0,0
242990.7,189.248,-741.208,0,0
243251.025,187.342,-738.934,0,0
243511.35,185.504,-736.618,0,0
243771.675,183.684,-734.22,0,0
244032.0,181.958,-731.802,0,0
244292.325,180.379,-729.224,0,0
244552.65,178.853,-726.585,0,0
244812.975,177.508,-723.964,0,0
245073.3,176.182,-721.375,0,0
245333.625,174.982,-718.774,0,0
245593.95,173.795,-716.04,0,0
245854.275,172.765,-713.302,0,0
246114.6,171.948,-710.475,0,0
246374.925,171.256,-707.84,0,0
246635.25,170.744,-705.216,0,0
246895.575,170.433,-702.845,0,0
247155.9,169.998,-700.587,0,0
247416.225,169.489,-698.588,0,0
247676.55,168.845,-696.563,0,0
247936.875,168.138,-694.404,0,0
248197.2,167.342,-692.322,0,0
248457.525,166.412,-690.162,0,0
248717.85,165.54,-687.835,0,0
248978.175,164.649,-685.426,0,0
249238.5,163.827,-682.811,0,0
249498.825,163.131,-680.101,0,0
249759.15,162.508,-677.28,0,0
250019.475,162.125,-674.358,0,0
250279.8,161.864,-671.507,0,0
250540,161.735,-668.525,0,0
250800,161.797,-665.523,0,0
251061,162.052,-662.477,0,0
251321,162.575,-659.496,0,0
251581,163.3,-656.569,0,0
251842,164.358,-653.778,0,0
252102,165.684,-651.193,0,0
252362,167.17,-648.963,0,0
252623,168.727,-647.018,0,0
252883,170.277,-645.464,0,0
253143,171.724,-644.271,0,0
253404,172.919,-643.309,0,0
253664,173.873,-642.476,0,0
253924,174.53,-641.741,0,0
254185,174.981,-640.932,0,0
254445,175.204,-639.943,0,0
254705,175.439,-638.882,0,0
254966,175.616,-637.624,0,0
255226,175.838,-636.307,0,0
255486,176.137,-634.998,0,0
255747,176.39,-633.572,0,0
256007,176.731,-632.077,0,0
256267,177.182,-630.564,0,0
256528,177.772,-629.097,0,0
256788,178.355,-627.642,0,0
257048,178.936,-626.162,0,0
257309,179.63,-624.718,0,0
257569,180.43,-623.176,0,0
257829,181.315,-621.758,0,0
258090,182.29,-620.379,0,0
258350,183.359,-619.13,0,0
258610,184.454,-617.937,0,0
258871,185.551,-616.835,0,0
259131,186.743,-615.798,0,0
259391,187.908,-614.836,0,0
259651,189.226,-613.967,0,0
259912,190.567,-613.141,0,0
260172,191.816,-612.494,0,0
260432,193.044,-612.016,0,0
260693,194.215,-611.564,0,0
260953,195.395,-611.158,0,0
261213,196.564,-610.803,0,0
261474,197.719,-610.504,0,0
261734,198.868,-610.289,0,0
261994,200.024,-610.185,0,0
262255,201.188,-610.209,0,0
262515,202.189,-610.46,0,0
262775,202.879,-610.729,0,0
263036,203.399,-610.843,0,0
263296,203.946,-610.829,0,0
263556,204.521,-610.836,0,0
263817,204.985,-610.862,0,0
264077,205.298,-610.808,0,0
264337,205.621,-610.554,0,0
264598,205.922,-610.089,0,0
264858,206.306,-609.515,0,0
265118,206.921,-608.72,0,0
265379,207.685,-607.934,0,0
265639,208.696,-607.149,0,0
265899,209.774,-606.296,0,0
266160,211.171,-605.483,0,0
266420,212.823,-604.702,0,0
266680.25,214.731,-604.084,0,0
266940.575,216.907,-603.638,0,0
267200.9,219.3,-603.393,0,0
267461.225,221.918,-603.497,0,0
267721.55,224.681,-603.92,0,0
267981.875,227.523,-604.747,0,0
268242.2,230.429,-605.977,0,0
268502.525,233.339,-607.631,0,0
268762.85,236.159,-609.578,0,0
269023.175,238.828,-612.153,0,0
269283.5,241.155,-615.078,0,0
269543.825,243.186,-618.225,0,0
269804.15,244.954,-621.697,0,0
270064.475,246.409,-625.305,0,0
270324.8,247.598,-629.223,0,0
270585.125,248.503,-633.405,0,0
270845.45,248.925,-637.697,0,0
271105.775,248.966,-642.214,0,0
271366.1,248.539,-646.736,0,0
271626.425,247.589,-651.348,0,0
271886.75,246.203,-655.906,0,0
272147.075,244.426,-660.313,0,0
272407.4,242.205,-664.645,0,0
272667.725,239.644,-668.795,0,0
272928.05,236.663,-672.752,0,0
273188.375,233.376,-676.51,0,0
273448.7,229.699,-680.049,0,0
273709.025,225.658,-683.29,0,0
273969.35,221.248,-686.135,0,0
274229.675,216.539,-688.629,0,0
274490.0,211.553,-690.578,0,0
274750.325,206.415,-691.97,0,0
275010.65,201.313,-692.776,0,0
275270.975,196.315,-693.137,0,0
275531.3,191.442,-692.979,0,0
275791.625,186.799,-692.474,0,0
276051.95,182.459,-691.647,0,0
276312.275,178.398,-690.628,0,0
276572.6,174.544,-689.449,0,0
276832.925,170.914,-688.137,0,0
277093.25,167.469,-686.761,0,0
277353.575,164.157,-685.348,0,0
277613.9,160.973,-683.79,0,0
277874.225,157.941,-682.163,0,0
278134.55,155.037,-680.484,0,0
278394.875,152.23,-678.786,0,0
278655.2,149.456,-676.975,0,0
278915.525,146.752,-675.023,0,0
279175.85,144.179,-672.883,0,0
279436.175,141.746,-670.644,0,0
279696.5,139.538,-668.213,0,0
279956.825,137.656,-665.72,0,0
280217.15,136.003,-663.202,0,0
280477.475,134.59,-660.718,0,0
280737.8,133.383,-658.33,0,0
280998.125,132.357,-655.992,0,0
281258.45,131.511,-653.757,0,0
281518.775,130.77,-651.595,0,0
281779.1,130.179,-649.567,0,0
282039.425,129.717,-647.605,0,0
282299.75,129.376,-645.786,0,0
282560,129.181,-644.111,0,0
282820,129.003,-642.702,0,0
283081,128.732,-641.451,0,0
283341,128.386,-640.338,0,0
283601,127.902,-639.207,0,0
283862,127.359,-638.073,0,0
284122,126.792,-636.871,0,0
284382,126.226,-635.651,0,0
284643,125.67,-634.344,0,0
284903,125.181,-632.958,0,0
285163,124.806,-631.45,0,0
285424,124.698,-629.933,0,0
285684,124.816,-628.448,0,0
285944,125.152,-627.159,0,0
286205,125.64,-626.053,0,0
286465,126.281,-625.16,0,0
286725,126.987,-624.584,0,0
286986,127.705,-624.282,0,0
287246,128.405,-624.309,0,0
287506,128.962,-624.683,0,0
287767,129.308,-625.357,0,0
288027,129.313,-626.252,0,0
288287,128.961,-627.297,0,0
288548,128.202,-628.371,0,0
288808,127.121,-629.311,0,0
289068,125.76,-630.086,0,0
289329,124.189,-630.681,0,0
289589,122.468,-631.078,0,0
289849,120.609,-631.228,0,0
290109,118.751,-631.208,0,0
290370,116.904,-630.926,0,0
290630,115.134,-630.506,0,0
290890,113.469,-630.006,0,0
291151,111.863,-629.509,0,0
291411,110.245,-628.993,0,0
291671,108.613,-628.456,0,0
291932,106.928,-627.876,0,0
292192,105.174,-627.237,0,0
292452,103.424,-626.455,0,0
292713,101.656,-625.581,0,0
292973,99.9025,-624.625,0,0
293233,98.2086,-623.546,0,0
293494,96.5681,-622.357,0,0
293754,95.0048,-621.171,0,0
294014,93.4383,-619.913,0,0
294275,91.9231,-618.621,0,0
294535,90.4129,-617.239,0,0
294795,88.9648,-615.805,0,0
295056,87.6323,-614.286,0,0
295316,86.3232,-612.695,0,0
295576,85.1695,-611.095,0,0
295837,84.0578,-609.491,0,0
296097,83.019,-607.866,0,0
296357,82.0763,-606.247,0,0
296618,81.2012,-604.666,0,0
296878,80.3393,-603.122,0,0
297138,79.5365,-601.586,0,0
297399,78.7313,-600.058,0,0
297659,77.9551,-598.524,0,0
297919,77.199,-596.976,0,0
298180,76.4673,-595.435,0,0
298440,75.7922,-593.861,0,0
298700.2,75.1254,-592.298,0,0
298960.525,74.5095,-590.704,0,0
299220.85,73.9237,-589.117,0,0
299481.175,73.3749,-587.524,0,0
299741.5,72.8512,-585.914,0,0
300001.825,72.408,-584.284,0,0
300262.15,71.9882,-582.647,0,0
300522.475,71.6673,-581.004,0,0
300782.8,71.3942,-579.362,0,0
301043.125,71.1946,-577.73,0,0
301303.45,71.0785,-576.116,0,0
301563.775,71.0493,-574.546,0,0
301824.1,71.0729,-573.056,0,0
302084.425,71.1425,-571.618,0,0
302344.75,71.2554,-570.246,0,0
302605.075,71.3639,-568.966,0,0
302865.4,71.4801,-567.722,0,0
303125.725,71.6152,-566.518,0,0
303386.05,71.7397,-565.367,0,0
303646.375,71.8797,-564.253,0,0
303906.7,71.9975,-563.161,0,0
304167.025,72.1523,-562.126,0,0
304427.35,72.2768,-561.087,0,0
304687.675,72.4377,-560.069,0,0
304948.0,72.5865,-559.099,0,0
305208.325,72.7485,-558.165,0,0
305468.65,72.9205,-557.251,0,0
305728.975,73.1188,-556.381,0,0
305989.3,73.3303,-555.553,0,0
306249.625,73.5304,-554.781,0,0
306509.95,73.7169,-554.038,0,0
306770.275,73.8886,-553.36,0,0
307030.6,74.0547,-552.712,0,0
307290.925,74.1892,-552.095,0,0
307551.25,74.301,-551.496,0,0
307811.575,74.4187,-550.916,0,0
308071.9,74.5601,-550.365,0,0
308332.225,74.6976,-549.891,0,0
308592.55,74.812,-549.497,0,0
308852.875,74.858,-549.187,0,0
309113.2,74.8004,-548.945,0,0
309373.525,74.6373,-548.7,0,0
309633.85,74.3725,-548.411,0,0
309894.175,74.0499,-548.072,0,0
310154.5,73.689,-547.65,0,0
310414.825,73.3236,-547.206,0,0
310675.15,72.9749,-546.705,0,0
310935.475,72.6279,-546.211,0,0
311195.8,72.2789,-545.707,0,0
311456.125,71.9265,-545.192,0,0
311716.45,71.5699,-544.671,0,0
311976.775,71.2095,-544.156,0,0
312237.1,70.8142,-543.638,0,0
312497.425,70.4279,-543.118,0,0
312757.75,70.0089,-542.573,0,0
313018.075,69.6027,-542.013,0,0
313278.4,69.1717,-541.452,0,0
313538.725,68.7378,-540.896,0,0
313799.05,68.2693,-540.311,0,0
314059.375,67.7803,-539.726,0,0
314319.7,67.2572,-539.095,0,0
314580,66.7547,-538.353,0,0
314840,66.2411,-537.658,0,0
315101,65.7958,-536.945,0,0
315361,65.3127,-536.221,0,0
315621,64.8139,-535.413,0,0
315882,64.4249,-534.592,0,0
316142,63.9777,-533.762,0,0
316402,63.5558,-532.887,0,0
316663,63.2198,-532.03,0,0
316923,62.8958,-531.147,0,0
317183,62.6029,-530.247,0,0
317444,62.3853,-529.369,0,0
317704,62.1825,-528.557,0,0
317964,61.9929,-527.706,0,0
318225,61.8216,-526.947,0,0
318485,61.6662,-526.171,0,0
318745,61.5058,-525.414,0,0
319006,61.3296,-524.622,0,0
319266,61.2362,-523.91,0,0
319526,61.1118,-523.221,0,0
319787,61.0477,-522.504,0,0
320047,60.9987,-521.878,0,0
320307,60.8586,-521.247,0,0
320567,60.7685,-520.703,0,0
320828,60.6675,-520.162,0,0
321088,60.4899,-519.643,0,0
321348,60.2789,-519.151,0,0
321609,60.0222,-518.69,0,0
321869,59.749,-518.192,0,0
322129,59.4872,-517.643,0,0
322390,59.17,-517.157,0,0
322650,58.9285,-516.651,0,0
322910,58.6008,-516.145,0,0
323171,58.288,-515.547,0,0
323431,57.955,-515.176,0,0
323691,57.6047,-514.639,0,0
323952,57.2575,-514.168,0,0
324212,56.8007,-513.669,0,0
324472,56.3516,-513.094,0,0
324733,55.8534,-512.537,0,0
324993,55.4174,-512.02,0,0
325253,54.9002,-511.396,0,0
325514,54.4228,-510.678,0,0
325774,53.8364,-509.993,0,0
326034,53.3545,-509.238,0,0
326295,52.9206,-508.507,0,0
326555,52.4909,-507.753,0,0
326815,52.0553,-506.969,0,0
327076,51.6832,-506.11,0,0
327336,51.2565,-505.365,0,0
327596,50.9329,-504.629,0,0
327857,50.547,-503.789,0,0
328117,50.1632,-503.024,0,0
328377,49.7713,-502.235,0,0
328638,49.4947,-501.42,0,0
328898,49.0995,-500.612,0,0
329158,48.8238,-499.825,0,0
329419,48.4548,-498.998,0,0
329679,48.1287,-498.226,0,0
329939,47.833,-497.41,0,0
330200,47.4509,-496.539,0,0
330460,47.1043,-495.671,0,0
330720.15,46.8074,-494.861,0,0
330980.475,46.5082,-494.004,0,0
331240.8,46.2238,-493.188,0,0
331501.125,45.9636,-492.281,0,0
331761.45,45.7045,-491.386,0,0
332021.775,45.4579,-490.546,0,0
332282.1,45.1848,-489.598,0,0
332542.425,44.9947,-488.762,0,0
332802.75,44.7347,-487.826,0,0
333063.075,44.5813,-486.861,0,0
333323.4,44.4259,-485.904,0,0
333583.725,44.3145,-485.051,0,0
333844.05,44.2086,-484.121,0,0
334104.375,44.104,-483.179,0,0
334364.7,44.0805,-482.339,0,0
334625.025,44.0739,-481.433,0,0
334885.35,44.0453,-480.572,0,0
335145.675,44.0397,-479.766,0,0
335406.0,44.0865,-478.919,0,0
335666.325,44.0953,-478.184,0,0
335926.65,44.0982,-477.43,0,0
336186.975,44.1653,-476.663,0,0
336447.3,44.1928,-476.007,0,0
336707.625,44.1401,-475.234,0,0
336967.95,44.1616,-474.593,0,0
337228.275,44.2357,-473.97,0,0
337488.6,44.2302,-473.259,0,0
337748.925,44.2065,-472.635,0,0
338009.25,44.1494,-471.997,0,0
338269.575,44.1361,-471.41,0,0
338529.9,44.0513,-470.794,0,0
338790.225,43.9738,-470.168,0,0
339050.55,43.9142,-469.623,0,0
339310.875,43.846,-468.995,0,0
339571.2,43.7144,-468.402,0,0
339831.525,43.577,-467.737,0,0
340091.85,43.4886,-467.125,0,0
340352.175,43.3744,-466.578,0,0
340612.5,43.2705,-465.92,0,0
340872.825,43.0944,-465.306,0,0
341133.15,42.9304,-464.707,0,0
341393.475,42.7365,-464.072,0,0
341653.8,42.601,-463.423,0,0
341914.125,42.3954,-462.745,0,0
342174.45,42.2612,-462.058,0,0
342434.775,42.1134,-461.374,0,0
342695.1,41.9107,-460.681,0,0
342955.425,41.8088,-459.947,0,0
343215.75,41.645,-459.286,0,0
343476.075,41.5073,-458.528,0,0
343736.4,41.3396,-457.825,0,0
343996.725,41.249,-457.123,0,0
344257.05,41.1257,-456.335,0,0
344517.375,40.997,-455.592,0,0
344777.7,40.9481,-454.879,0,0
345038.025,40.8435,-454.153,0,0
345298.35,40.732,-453.354,0,0
345558.675,40.6386,-452.641,0,0
345819.0,40.6046,-451.897,0,0
346079.325,40.5111,-451.187,0,0
346339.65,40.475,-450.428,0,0
346599.975,40.4779,-449.589,0,0
346860,40.4536,-448.864,0,0
347121,40.4396,-448.131,0,0
347381,40.4202,-447.351,0,0
347641,40.455,-446.575,0,0
347902,40.5229,-445.846,0,0
348162,40.5722,-445.131,0,0
348422,40.6188,-444.388,0,0
348683,40.6352,-443.701,0,0
348943,40.7167,-443.083,0,0
349203,40.7778,-442.355,0,0
349464,40.8072,-441.679,0,0
349724,40.9141,-441,0,0
349984,40.9521,-440.293,0,0
350245,41.0709,-439.652,0,0
350505,41.1297,-438.989,0,0
350765,41.2634,-438.325,0,0
351025,41.3517,-437.72,0,0
351286,41.4218,-437.148,0,0
351546,41.5143,-436.539,0,0
351806,41.5682,-435.933,0,0
352067,41.6881,-435.331,0,0
352327,41.7372,-434.745,0,0
352587,41.8236,-434.172,0,0
352848,41.9212,-433.57,0,0
353108,42.0357,-432.968,0,0
353368,42.1547,-432.404,0,0
353629,42.2357,-431.83,0,0
353889,42.3487,-431.33,0,0
354149,42.4617,-430.746,0,0
354410,42.5078,-430.244,0,0
354670,42.5887,-429.751,0,0
354930,42.6677,-429.163,0,0
355191,42.7018,-428.69,0,0
355451,42.8112,-428.192,0,0
355711,42.9265,-427.723,0,0
355972,42.9319,-427.274,0,0
356232,43.0073,-426.777,0,0
356492,43.0432,-426.336,0,0
356753,43.0502,-425.868,0,0
357013,43.0611,-425.433,0,0
357273,43.0162,-424.986,0,0
357534,42.9948,-424.491,0,0
357794,42.9154,-424.04,0,0
358054,42.9095,-423.498,0,0
358315,42.8806,-423.039,0,0
358575,42.7953,-422.546,0,0
358835,42.7526,-421.998,0,0
359096,42.6988,-421.459,0,0
359356,42.6773,-420.927,0,0
359616,42.588,-420.39,0,0
359877,42.619,-419.807,0,0
360137,42.5726,-419.26,0,0
360397,42.5346,-418.676,0,0
360658,42.5157,-418.115,0,0
360918,42.499,-417.583,0,0
361178,42.4756,-416.966,0,0
361438,42.4703,-416.397,0,0
361699,42.4588,-415.87,0,0
361959,42.4929,-415.257,0,0
362219,42.4697,-414.652,0,0
362480,42.4737,-414.047,0,0
362740.1,42.4563,-413.486,0,0
363000.425,42.5364,-412.898,0,0
363260.75,42.5116,-412.307,0,0
363521.075,42.5482,-411.712,0,0
363781.4,42.5769,-411.103,0,0
364041.725,42.6408,-410.526,0,0
364302.05,42.7185,-409.925,0,0
364562.375,42.7923,-409.321,0,0
364822.7,42.8529,-408.673,0,0
365083.025,43.001,-408.076,0,0
365343.35,43.0576,-407.484,0,0
365603.675,43.281,-406.893,0,0
365864.0,43.411,-406.386,0,0
366124.325,43.5335,-405.877,0,0
366384.65,43.672,-405.341,0,0
366644.975,43.7832,-404.88,0,0
366905.3,43.913,-404.363,0,0
367165.625,44.0195,-403.907,0,0
367425.95,44.0868,-403.449,0,0
367686.275,44.169,-402.916,0,0
367946.6,44.2641,-402.433,0,0
368206.925,44.3377,-401.902,0,0
368467.25,44.4209,-401.332,0,0
368727.575,44.5396,-400.812,0,0
368987.9,44.6086,-400.265,0,0
369248.225,44.7352,-399.72,0,0
369508.55,44.8876,-399.121,0,0
369768.875,45.1255,-398.599,0,0
370029.2,45.271,-398.044,0,0
370289.525,45.4783,-397.563,0,0
370549.85,45.7775,-397.048,0,0
370810.175,46.0259,-396.652,0,0
371070.5,46.2677,-396.264,0,0
371330.825,46.4807,-395.833,0,0
371591.15,46.7006,-395.488,0,0
371851.475,46.9293,-395.147,0,0
372111.8,47.1233,-394.85,0,0
372372.125,47.2603,-394.533,0,0
372632.45,47.4284,-394.205,0,0
372892.775,47.5569,-393.883,0,0
373153.1,47.7049,-393.621,0,0
373413.425,47.8242,-393.331,0,0
373673.75,47.8842,-393.042,0,0
373934.075,47.9379,-392.747,0,0
374194.4,48.0088,-392.463,0,0
374454.725,48.0249,-392.12,0,0
374715.05,48.0739,-391.777,0,0
374975.375,48.099,-391.484,0,0
375235.7,48.165,-391.14,0,0
375496.025,48.1894,-390.773,0,0
375756.35,48.2316,-390.443,0,0
376016.675,48.2885,-390.071,0,0
376277.0,48.36,-389.706,0,0
376537.325,48.4283,-389.349,0,0
376797.65,48.5185,-389.034,0,0
377057.975,48.647,-388.682,0,0
377318.3,48.7387,-388.418,0,0
377578.625,48.7924,-388.14,0,0
377838.95,48.8504,-387.939,0,0
378099.275,48.9219,-387.682,0,0
378359.6,48.8913,-387.478,0,0
378619.925,48.8174,-387.234,0,0
378880,48.7276,-386.997,0,0
379141,48.5787,-386.722,0,0
379401,48.4467,-386.35,0,0
379661,48.2795,-385.955,0,0
379922,48.1961,-385.504,0,0
380182,48.1668,-385.002,0,0
380442,48.2141,-384.494,0,0
380703,48.2832,-384.041,0,0
380963,48.4945,-383.563,0,0
381223,48.667,-383.242,0,0
381483,48.8436,-382.981,0,0
381744,49.0348,-382.799,0,0
382004,49.1243,-382.629,0,0
382264,49.161,-382.553,0,0
382525,49.1288,-382.462,0,0
382785,49.0554,-382.409,0,0
383045,48.9083,-382.293,0,0
383306,48.6949,-382.133,0,0
383566,48.4237,-381.984,0,0
383826,48.1771,-381.752,0,0
384087,47.8949,-381.425,0,0
384347,47.5825,-381.159,0,0
384607,47.3207,-380.841,0,0
384868,47.0068,-380.452,0,0
385128,46.7124,-380.036,0,0
385388,46.4108,-379.59,0,0
385649,46.1567,-379.137,0,0
385909,45.9015,-378.64,0,0
386169,45.6511,-378.113,0,0
386430,45.4759,-377.602,0,0
386690,45.2387,-377.072,0,0
386950,45.055,-376.513,0,0
387211,44.8785,-375.931,0,0
387471,44.6777,-375.338,0,0
387731,44.5946,-374.74,0,0
387992,44.4712,-374.165,0,0
388252,44.3783,-373.547,0,0
388512,44.3009,-372.968,0,0
388773,44.2296,-372.381,0,0
389033,44.2425,-371.781,0,0
389293,44.1751,-371.195,0,0
389554,44.1755,-370.628,0,0
389814,44.1908,-370.047,0,0
390074,44.2249,-369.493,0,0
390335,44.2293,-368.986,0,0
390595,44.2519,-368.464,0,0
390855,44.2986,-367.971,0,0
391116,44.2834,-367.474,0,0
391376,44.2876,-366.975,0,0
391636,44.3075,-366.47,0,0
391896,44.3148,-365.972,0,0
392157,44.3026,-365.475,0,0
392417,44.2945,-364.981,0,0
392677,44.2975,-364.488,0,0
392938,44.2604,-363.942,0,0
393198,44.2945,-363.419,0,0
393458,44.2901,-362.931,0,0
393719,44.2675,-362.42,0,0
393979,44.2918,-361.878,0,0
394239,44.2847,-361.348,0,0
394500,44.3447,-360.826,0,0
394760.05,44.3392,-360.287,0,0
395020.375,44.3719,-359.757,0,0
395280.7,44.4223,-359.208,0,0
395541.025,44.501,-358.691,0,0
395801.35,44.544,-358.139,0,0
396061.675,44.6021,-357.618,0,0
396322.0,44.6898,-357.13,0,0
396582.325,44.8061,-356.636,0,0
396842.65,44.8797,-356.155,0,0
397102.975,45.0059,-355.704,0,0
397363.3,45.0852,-355.237,0,0
397623.625,45.149,-354.773,0,0
397883.95,45.2345,-354.355,0,0
398144.275,45.2779,-353.927,0,0
398404.6,45.3123,-353.465,0,0
398664.925,45.345,-353.036,0,0
398925.25,45.3932,-352.6,0,0
399185.575,45.412,-352.134,0,0
399445.9,45.3982,-351.695,0,0
399706.225,45.3959,-351.229,0,0
399966.55,45.4022,-350.76,0,0
400006.6,45.415,-350.653,0,0