File: Accelerated corrosion test data/2025-10-02_18-00-03/sample_6.csv
Frequency (Hz),Impedance (ohms),Phase (Radians),Temperature (C),Humidity (%)
10000.0,4315.21,-6237.53,0,0
10260.325,4180.4,-6173.18,0,0
10520.65,4051.55,-6107.84,0,0
10780.975,3927.73,-6042.79,0,0
11041.3,3810.29,-5977.38,0,0
11301.625,3696.78,-5912.52,0,0
11561.95,3588.2,-5848.05,0,0
11822.275,3484.51,-5784.64,0,0
12082.6,3384.07,-5720.52,0,0
12342.925,3288.74,-5656.96,0,0
12603.25,3198.58,-5593.11,0,0
12863.575,3111.39,-5531.71,0,0
13123.9,3028.78,-5472.19,0,0
13384.225,2946.86,-5413.95,0,0
13644.55,2867.74,-5354.87,0,0
13904.875,2792.08,-5295.82,0,0
14165.2,2718.97,-5237.48,0,0
14425.525,2649.87,-5180.4,0,0
14685.8,2582.38,-5122.58,0,0
14946.175,2518.51,-5067.55,0,0
15206.5,2457.1,-5013.06,0,0
15466.825,2396.68,-4958.98,0,0
15727.15,2338.98,-4905.73,0,0
15987.5,2283.31,-4853.68,0,0
16247.8,2229.38,-4802.03,0,0
16508.125,2177.66,-4751.25,0,0
16768.45,2128.22,-4700.75,0,0
17028.775,2080.33,-4652.27,0,0
17289.1,2033.45,-4604.35,0,0
17549.425,1987.71,-4556.83,0,0
17809.75,1944.09,-4510.4,0,0
18070.075,1901.44,-4463.32,0,0
18330.4,1860.09,-4418.08,0,0
18590.725,1821.33,-4372.76,0,0
18851.05,1783.89,-4328.01,0,0
19111.375,1747.49,-4286.13,0,0
19371.7,1712.27,-4244.99,0,0
19632.025,1676.56,-4202.44,0,0
19892.35,1642.89,-4161.86,0,0
20152.675,1609.95,-4121.7,0,0
20413.0,1578.02,-4082.13,0,0
20673.3,1546.63,-4043.04,0,0
20933.65,1516.6,-4004.03,0,0
21193.975,1487.77,-3966.2,0,0
21454.3,1459.61,-3929.05,0,0
21714.625,1432.07,-3892.62,0,0
21974.9,1405.73,-3856.39,0,0
22235.275,1378.63,-3820.32,0,0
22495.6,1354.12,-3783.89,0,0
22755.925,1330.91,-3747.37,0,0
23016.25,1310.76,-3713.07,0,0
23276.6,1290.69,-3682.65,0,0
23536.9,1268.41,-3652.48,0,0
23797.225,1245.49,-3622.4,0,0
24057.55,1222.75,-3591.26,0,0
24317.875,1201.45,-3560.22,0,0
24578.2,1180,-3528.94,0,0
24838.525,1160.24,-3498.35,0,0
25098.85,1141.41,-3468.58,0,0
25359.175,1122.73,-3439.1,0,0
25619.5,1104.75,-3410.59,0,0
25879.8,1086,-3381.93,0,0
26140.1,1068.95,-3353.45,0,0
26400.5,1051.66,-3325.61,0,0
26660.8,1035.32,-3297.88,0,0
26921.1,1019.25,-3270.52,0,0
27181.4,1004.41,-3243.5,0,0
27441.8,989.611,-3217.73,0,0
27702.1,975.606,-3192.05,0,0
27962.4,960.964,-3167.3,0,0
28222.7,946.779,-3143.27,0,0
28483.1,931.687,-3118.06,0,0
28743.4,917.727,-3093.62,0,0
29003.7,904.405,-3069.38,0,0
29264,891.559,-3044.53,0,0
29524.4,879.525,-3021.08,0,0
29784.7,867.53,-2997.48,0,0
30045,856.195,-2974.2,0,0
30305.3,845.706,-2952.24,0,0
30565.7,834.167,-2930.8,0,0
30826,822.514,-2909,0,0
31086.3,811.487,-2887.29,0,0
31346.6,800.569,-2865.85,0,0
31607,790.396,-2843.81,0,0
31867.3,780.988,-2822.78,0,0
32127.6,771.548,-2801.74,0,0
32387.9,762.936,-2781.23,0,0
32648.3,754.87,-2760.72,0,0
32908.6,746.956,-2741.55,0,0
33168.9,739.442,-2723.36,0,0
33429.2,731.528,-2705.05,0,0
33689.6,724.363,-2687.71,0,0
33949.9,716.236,-2671.31,0,0
34210.2,707.237,-2654.72,0,0
34470.5,698.17,-2637.5,0,0
34730.9,689.664,-2619.8,0,0
34991.2,681.715,-2602.36,0,0
35251.5,674.859,-2585.84,0,0
35511.8,667.294,-2570.43,0,0
35772.2,659.438,-2555.23,0,0
36032.5,650.709,-2539.86,0,0
36292.8,641.873,-2523.72,0,0
36553.1,633.925,-2507.78,0,0
36813.5,625.667,-2491.73,0,0
37073.8,618.169,-2475.9,0,0
37334.1,610.514,-2459.96,0,0
37594.4,603.064,-2443.76,0,0
37854.8,595.976,-2428.06,0,0
38115.1,589.026,-2412.63,0,0
38375.4,582.222,-2397.15,0,0
38635.7,575.77,-2381.75,0,0
38896.1,569.624,-2366.21,0,0
39156.4,563.586,-2351.22,0,0
39416.7,557.93,-2336.47,0,0
39677,552.205,-2321.96,0,0
39937.4,546.689,-2307.42,0,0
40197.7,541.311,-2293.27,0,0
40458,536.222,-2279.62,0,0
40718.3,530.872,-2266.07,0,0
40978.7,525.017,-2252.61,0,0
41239,519.674,-2238.47,0,0
41499.3,515.027,-2224.77,0,0
41759.6,510.473,-2211.4,0,0
42020,506.173,-2198.49,0,0
42280.275,501.333,-2186.58,0,0
42540.6,495.647,-2174.24,0,0
42800.925,490.195,-2160.97,0,0
43061.25,485.142,-2147.26,0,0
43321.575,481.435,-2133.55,0,0
43581.9,478.068,-2120.88,0,0
43842.225,474.752,-2108.88,0,0
44102.55,469.875,-2097,0,0
44362.875,465.868,-2083.97,0,0
44623.2,462.841,-2071.47,0,0
44883.525,459.688,-2059.47,0,0
45143.85,457.075,-2047.41,0,0
45404.175,454.46,-2035.59,0,0
45664.5,452.14,-2024.4,0,0
45924.825,450.172,-2013.4,0,0
46185.15,448.037,-2003.23,0,0
46445.475,445.525,-1993.35,0,0
46705.8,442.773,-1983.72,0,0
46966.125,439.8,-1973.47,0,0
47226.45,437.605,-1963.31,0,0
47486.775,435.369,-1953.52,0,0
47747.1,432.983,-1944.34,0,0
48007.425,430.692,-1934.87,0,0
48267.75,429.092,-1926.08,0,0
48528.075,426.97,-1917.64,0,0
48788.4,424.998,-1909.36,0,0
49048.725,423.18,-1901.73,0,0
49309.05,420.961,-1895.41,0,0
49569.375,417.577,-1888.88,0,0
49829.7,413.349,-1882.46,0,0
50090.025,408.67,-1875.47,0,0
50350.35,403.768,-1868.16,0,0
50610.675,398.525,-1860.12,0,0
50871.0,393.788,-1851.63,0,0
51131.325,389.287,-1842.91,0,0
51391.65,384.7,-1834.37,0,0
51651.975,380.44,-1825.26,0,0
51912.3,376.519,-1816.3,0,0
52172.625,372.904,-1807.29,0,0
52432.95,369.642,-1798.54,0,0
52693.275,366.364,-1789.98,0,0
52953.6,363.404,-1781.8,0,0
53213.925,359.886,-1773.83,0,0
53474.25,356.424,-1765.79,0,0
53734.575,352.603,-1757.75,0,0
53994.9,348.825,-1749.35,0,0
54255.225,345.418,-1740.61,0,0
54515.55,342.625,-1732.28,0,0
54775.875,339.49,-1724.46,0,0
55036.2,336.113,-1716.65,0,0
55296.525,332.363,-1708.65,0,0
55556.85,328.628,-1700.18,0,0
55817.175,324.962,-1691.57,0,0
56077.5,321.53,-1682.45,0,0
56337.825,318.441,-1673.01,0,0
56598.15,316.338,-1663.3,0,0
56858.475,315.035,-1654.3,0,0
57118.8,313.919,-1645.89,0,0
57379.125,312.926,-1637.81,0,0
57639.45,312.108,-1630.51,0,0
57899.775,310.807,-1623.53,0,0
58160.1,309.34,-1616.8,0,0
58420.4,307.738,-1610.27,0,0
58680.7,305.687,-1603.79,0,0
58941.1,303.723,-1597.19,0,0
59201.4,301.576,-1590.86,0,0
59461.7,299.319,-1584.38,0,0
59722,296.914,-1578.09,0,0
59982.4,294.234,-1571.61,0,0
60242.7,291.564,-1564.92,0,0
60503,289.073,-1558.03,0,0
60763.3,286.575,-1551.32,0,0
61023.7,283.962,-1544.64,0,0
61284,281.348,-1537.71,0,0
61544.3,278.58,-1530.75,0,0
61804.6,276.028,-1523.48,0,0
62065,273.56,-1515.81,0,0
62325.3,271.382,-1507.91,0,0
62585.6,270.022,-1499.88,0,0
62845.9,269.27,-1492.2,0,0
63106.3,268.863,-1485.07,0,0
63366.6,268.777,-1478.56,0,0
63626.9,268.749,-1472.93,0,0
63887.2,268.073,-1467.88,0,0
64147.6,267.019,-1463.36,0,0
64407.9,264.503,-1458.7,0,0
64668.2,261.894,-1453.1,0,0
64928.5,259.476,-1447.03,0,0
65188.9,257.423,-1440.72,0,0
65449.2,256.003,-1434.56,0,0
65709.5,254.406,-1428.92,0,0
65969.8,252.618,-1423.69,0,0
66230.2,250.485,-1418.03,0,0
66490.5,248.378,-1412.55,0,0
66750.8,246.02,-1406.96,0,0
67011.1,243.44,-1401.15,0,0
67271.5,240.964,-1394.89,0,0
67531.8,238.893,-1388.48,0,0
67792.1,236.758,-1382.04,0,0
68052.4,234.939,-1375.63,0,0
68312.8,233.256,-1369.26,0,0
68573.1,231.499,-1362.92,0,0
68833.4,229.843,-1356.54,0,0
69093.7,228.379,-1350.19,0,0
69354.1,226.923,-1343.75,0,0
69614.4,225.66,-1337.29,0,0
69874.7,224.34,-1331,0,0
70135,223.323,-1324.57,0,0
70395.4,222.487,-1318.28,0,0
70655.7,221.567,-1311.98,0,0
70916,220.813,-1305.78,0,0
71176.3,220.252,-1299.63,0,0
71436.7,219.846,-1293.75,0,0
71697,219.4,-1287.82,0,0
71957.3,218.944,-1282.07,0,0
72217.6,218.657,-1276.28,0,0
72478,218.496,-1270.54,0,0
72738.3,218.403,-1265.06,0,0
72998.6,218.331,-1259.74,0,0
73258.9,218.268,-1254.49,0,0
73519.3,218.239,-1249.49,0,0
73779.6,218.111,-1244.57,0,0
74039.9,217.918,-1239.91,0,0
74300.225,217.431,-1235.1,0,0
74560.55,217.212,-1230.27,0,0
74820.875,216.948,-1225.49,0,0
75081.2,216.742,-1220.8,0,0
75341.525,216.532,-1216.2,0,0
75601.85,216.293,-1211.67,0,0
75862.175,216.017,-1207.27,0,0
76122.5,215.669,-1202.85,0,0
76382.825,215.282,-1198.5,0,0
76643.15,214.798,-1194.09,0,0
76903.475,214.329,-1189.57,0,0
77163.8,213.969,-1185.04,0,0
77424.125,213.71,-1180.57,0,0
77684.45,213.508,-1176.15,0,0
77944.775,213.395,-1171.79,0,0
78205.1,213.274,-1167.58,0,0
78465.425,213.145,-1163.44,0,0
78725.75,213.071,-1159.37,0,0
78986.075,212.93,-1155.38,0,0
79246.4,212.803,-1151.51,0,0
79506.725,212.724,-1147.64,0,0
79767.05,212.591,-1143.94,0,0
80027.375,212.32,-1140.28,0,0
80287.7,212.118,-1136.69,0,0
80548.025,211.751,-1133.18,0,0
80808.35,211.362,-1129.7,0,0
81068.675,210.818,-1126.2,0,0
81329.0,210.352,-1122.71,0,0
81589.325,209.8,-1119.23,0,0
81849.65,209.288,-1115.84,0,0
82109.975,208.612,-1112.39,0,0
82370.3,207.937,-1108.97,0,0
82630.625,207.23,-1105.53,0,0
82890.95,206.427,-1102.17,0,0
83151.275,205.536,-1098.68,0,0
83411.6,204.624,-1095.19,0,0
83671.925,203.69,-1091.59,0,0
83932.25,202.714,-1088,0,0
84192.575,201.763,-1084.19,0,0
84452.9,200.87,-1080.46,0,0
84713.225,199.985,-1076.54,0,0
84973.55,199.182,-1072.64,0,0
85233.875,198.589,-1068.64,0,0
85494.2,198.141,-1064.64,0,0
85754.525,197.738,-1060.72,0,0
86014.85,197.322,-1056.93,0,0
86275.175,196.968,-1053.15,0,0
86535.5,196.68,-1049.47,0,0
86795.825,196.384,-1045.82,0,0
87056.15,196.218,-1042.3,0,0
87316.475,195.962,-1038.92,0,0
87576.8,195.613,-1035.53,0,0
87837.125,195.154,-1032.03,0,0
88097.45,194.743,-1028.53,0,0
88357.775,194.421,-1024.98,0,0
88618.1,194.039,-1021.45,0,0
88878.425,193.952,-1018.02,0,0
89138.75,193.648,-1014.66,0,0
89399.075,193.45,-1011.37,0,0
89659.4,193.17,-1008.06,0,0
89919.725,192.988,-1004.59,0,0
90180,192.859,-1001.35,0,0
90440.4,192.791,-998.304,0,0
90700.7,192.704,-995.367,0,0
90961,192.34,-992.614,0,0
91221.3,191.852,-989.636,0,0
91481.7,191.342,-986.582,0,0
91742,190.635,-983.667,0,0
92002.3,189.954,-980.537,0,0
92262.6,189.352,-976.789,0,0
92523,189.136,-973.402,0,0
92783.3,189.119,-970.05,0,0
93043.6,188.857,-967.066,0,0
93303.9,188.276,-963.937,0,0
93564.3,187.819,-960.509,0,0
93824.6,187.529,-956.909,0,0
94084.9,187.628,-953.131,0,0
94345.2,187.964,-949.704,0,0
94605.6,188.597,-946.528,0,0
94865.9,189.213,-943.71,0,0
95126.2,189.561,-941.275,0,0
95386.5,189.556,-938.828,0,0
95646.9,189.459,-936.211,0,0
95907.2,189.595,-933.617,0,0
96167.5,189.572,-931.268,0,0
96427.8,189.316,-928.826,0,0
96688.2,189.201,-926.425,0,0
96948.5,188.712,-924.225,0,0
97208.8,187.895,-921.676,0,0
97469.1,187.021,-918.86,0,0
97729.5,186.322,-915.565,0,0
97989.8,185.96,-912.111,0,0
98250.1,185.775,-908.568,0,0
98510.4,186.064,-904.851,0,0
98770.8,186.919,-901.246,0,0
99031.1,188.341,-898.125,0,0
99291.4,189.909,-895.713,0,0
99551.7,191.298,-893.941,0,0
99812.1,192.346,-892.639,0,0
100072,193.032,-891.669,0,0
100333,193.279,-890.856,0,0
100593,192.944,-890.06,0,0
100853,192.248,-889.127,0,0
101114,191.154,-887.93,0,0
101374,189.785,-886.254,0,0
101634,188.585,-884.046,0,0
101895,187.722,-881.56,0,0
102155,187.423,-879.077,0,0
102415,187.373,-877.029,0,0
102676,187.395,-875.388,0,0
102936,187.299,-874.181,0,0
103196,186.637,-873.308,0,0
103457,185.512,-872.369,0,0
103717,184.117,-871.279,0,0
103977,182.584,-870.187,0,0
104238,180.465,-869.13,0,0
104498,177.979,-867.694,0,0
104758,175.282,-865.81,0,0
105019,172.243,-863.639,0,0
105279,169.16,-860.666,0,0
105539,166.168,-857.249,0,0
105800,163.324,-853.164,0,0
106060,161.137,-848.529,0,0
106320.175,159.524,-843.769,0,0
106580.5,158.339,-839.135,0,0
106840.825,157.485,-834.539,0,0
107101.15,156.862,-829.81,0,0
107361.475,156.737,-825.142,0,0
107621.8,156.903,-820.669,0,0
107882.125,157.555,-816.488,0,0
108142.45,158.206,-812.786,0,0
108402.775,158.711,-809.313,0,0
108663.1,159.333,-805.931,0,0
108923.425,159.806,-802.76,0,0
109183.75,160.178,-799.474,0,0
109444.075,160.743,-796.351,0,0
109704.4,161.179,-793.293,0,0
109964.725,161.718,-790.367,0,0
110225.05,162.163,-787.34,0,0
110485.375,162.637,-784.452,0,0
110745.7,162.89,-781.398,0,0
111006.025,163.743,-778.225,0,0
111266.35,164.489,-775.598,0,0
111526.675,165.108,-772.672,0,0
111787.0,165.99,-770.077,0,0
112047.325,166.748,-767.587,0,0
112307.65,167.3,-765.008,0,0
112567.975,168.068,-762.417,0,0
112828.3,168.822,-759.973,0,0
113088.625,169.593,-757.458,0,0
113348.95,170.578,-754.975,0,0
113609.275,171.711,-752.719,0,0
113869.6,172.695,-750.879,0,0
114129.925,173.337,-749.04,0,0
114390.25,174.072,-747.089,0,0
114650.575,174.737,-745.314,0,0
114910.9,175.36,-743.58,0,0
115171.225,175.7,-741.702,0,0
115431.55,176.269,-739.61,0,0
115691.875,177.035,-737.612,0,0
115952.2,177.952,-735.882,0,0
116212.525,178.851,-734.42,0,0
116472.85,179.722,-733.268,0,0
116733.175,180.135,-732.483,0,0
116993.5,180.188,-731.565,0,0
117253.825,179.932,-730.454,0,0
117514.15,179.373,-729.37,0,0
117774.475,178.52,-727.817,0,0
118034.8,177.605,-725.724,0,0
118295.125,177.031,-723.129,0,0
118555.45,176.883,-720.44,0,0
118815.775,177.236,-717.859,0,0
119076.1,177.465,-715.543,0,0
119336.425,177.806,-712.949,0,0
119596.75,177.982,-710.348,0,0
119857.075,178.871,-707.209,0,0
120117.4,180.834,-704.381,0,0
120377.725,183.189,-702.596,0,0
120638.05,185.479,-701.553,0,0
120898.375,187.389,-701.197,0,0
121158.7,188.952,-701.348,0,0
121419.025,189.952,-702.061,0,0
121679.35,189.883,-703.017,0,0
121939.675,188.952,-703.445,0,0
122200.0,187.654,-702.997,0,0
122460,186.545,-702.094,0,0
122721,185.632,-701.006,0,0
122981,184.79,-699.827,0,0
123241,183.956,-698.585,0,0
123502,183.155,-697.085,0,0
123762,182.563,-695.601,0,0
124022,182.251,-694.247,0,0
124283,181.666,-693.136,0,0
124543,180.873,-691.957,0,0
124803,179.898,-690.619,0,0
125064,178.929,-689.056,0,0
125324,178.011,-687.323,0,0
125584,177.314,-685.496,0,0
125845,176.654,-683.746,0,0
126105,175.968,-682.09,0,0
126365,175.126,-680.347,0,0
126626,174.207,-678.406,0,0
126886,173.39,-676.363,0,0
127146,172.616,-674.112,0,0
127406,172.057,-671.626,0,0
127667,171.755,-669.154,0,0
127927,171.606,-666.761,0,0
128187,171.588,-664.339,0,0
128448,171.847,-661.951,0,0
128708,172.41,-659.741,0,0
128968,173.104,-657.924,0,0
129229,173.64,-656.415,0,0
129489,174.072,-655.045,0,0
129749,174.387,-653.744,0,0
130010,174.588,-652.579,0,0
130270,174.694,-651.467,0,0
130530,174.723,-650.441,0,0
130791,174.568,-649.349,0,0
131051,174.481,-648.323,0,0
131311,174.231,-647.36,0,0
131572,173.84,-646.433,0,0
131832,173.328,-645.434,0,0
132092,172.824,-644.404,0,0
132353,172.207,-643.453,0,0
132613,171.496,-642.439,0,0
132873,170.66,-641.446,0,0
133134,169.724,-640.459,0,0
133394,168.667,-639.321,0,0
133654,167.361,-638.017,0,0
133915,166.108,-636.647,0,0
134175,164.798,-635.112,0,0
134435,163.507,-633.421,0,0
134696,162.236,-631.633,0,0
134956,160.986,-629.831,0,0
135216,159.701,-627.923,0,0
135477,158.418,-625.789,0,0
135737,157.171,-623.578,0,0
135997,155.995,-621.383,0,0
136258,154.913,-619.047,0,0
136518,153.808,-616.63,0,0
136778,152.858,-614.119,0,0
137039,151.971,-611.641,0,0
137299,151.141,-609.134,0,0
137559,150.294,-606.572,0,0
137819,149.544,-603.961,0,0
138080,148.874,-601.264,0,0
138340.125,148.232,-598.633,0,0
138600.45,147.717,-595.942,0,0
138860.775,147.151,-593.259,0,0
139121.1,146.707,-590.518,0,0
139381.425,146.361,-587.744,0,0
139641.75,146.046,-585.002,0,0
139902.075,145.815,-582.242,0,0
140162.4,145.621,-579.496,0,0
140422.725,145.484,-576.731,0,0
140683.05,145.458,-574.005,0,0
140943.375,145.499,-571.301,0,0
141203.7,145.567,-568.634,0,0
141464.025,145.718,-566.02,0,0
141724.35,145.899,-563.502,0,0
141984.675,145.978,-561.071,0,0
142245.0,146.011,-558.601,0,0
142505.325,145.977,-556.046,0,0
142765.65,146.028,-553.376,0,0
143025.975,146.174,-550.632,0,0
143286.3,146.384,-547.915,0,0
143546.625,146.805,-545.136,0,0
143806.95,147.368,-542.408,0,0
144067.275,148.102,-539.802,0,0
144327.6,148.971,-537.381,0,0
144587.925,149.879,-535.207,0,0
144848.25,150.632,-533.255,0,0
145108.575,151.301,-531.395,0,0
145368.9,151.827,-529.697,0,0
145629.225,152.134,-528.006,0,0
145889.55,152.299,-526.263,0,0
146149.875,152.343,-524.393,0,0
146410.2,152.416,-522.416,0,0
146670.525,152.492,-520.486,0,0
146930.85,152.458,-518.521,0,0
147191.175,152.441,-516.499,0,0
147451.5,152.334,-514.394,0,0
147711.825,152.223,-512.238,0,0
147972.15,152.051,-510.04,0,0
148232.475,151.883,-507.708,0,0
148492.8,151.744,-505.28,0,0
148753.125,151.617,-502.794,0,0
149013.45,151.536,-500.212,0,0
149273.775,151.496,-497.606,0,0
149534.1,151.437,-494.888,0,0
149794.425,151.374,-492.012,0,0
150054.75,151.455,-489.01,0,0
150315.075,151.735,-485.91,0,0
150575.4,152.078,-482.851,0,0
150835.725,152.511,-479.678,0,0
151096.05,153.043,-476.404,0,0
151356.375,153.789,-473.026,0,0
151616.7,154.748,-469.581,0,0
151877.025,156.023,-466.062,0,0
152137.35,157.756,-462.575,0,0
152397.675,159.838,-459.504,0,0
152658.0,162.289,-456.874,0,0
152918.325,164.569,-454.794,0,0
153178.65,166.649,-453.112,0,0
153438.975,168.48,-451.594,0,0
153699.3,169.963,-450.216,0,0
153959.625,171.2,-448.855,0,0
154219.95,172.103,-447.401,0,0
154480,172.835,-445.628,0,0
154741,173.581,-443.626,0,0
155001,174.423,-441.354,0,0
155261,175.52,-438.867,0,0
155522,176.893,-436.373,0,0
155782,178.65,-433.982,0,0
156042,180.592,-431.775,0,0
156303,182.809,-429.821,0,0
156563,185.086,-428.189,0,0
156823,187.432,-427.056,0,0
157084,189.601,-426.397,0,0
157344,191.328,-426.031,0,0
157604,192.527,-425.764,0,0
157864,193.446,-425.189,0,0
158125,194.248,-424.522,0,0
158385,194.983,-423.789,0,0
158645,195.526,-423.027,0,0
158906,195.987,-422.168,0,0
159166,196.291,-421.086,0,0
159426,196.76,-419.837,0,0
159687,197.26,-418.594,0,0
159947,197.677,-417.348,0,0
160207,198.098,-416.083,0,0
160468,198.599,-414.708,0,0
160728,199.022,-413.318,0,0
160988,199.584,-411.96,0,0
161249,200.125,-410.7,0,0
161509,200.553,-409.459,0,0
161769,200.955,-408.298,0,0
162030,201.122,-407.056,0,0
162290,201.182,-405.62,0,0
162550,201.277,-404.06,0,0
162811,201.384,-402.363,0,0
163071,201.717,-400.653,0,0
163331,202.011,-398.983,0,0
163592,202.303,-397.477,0,0
163852,202.357,-395.917,0,0
164112,202.229,-394.295,0,0
164373,202.032,-392.388,0,0
164633,202.045,-390.257,0,0
164893,201.985,-387.958,0,0
165154,202.079,-385.549,0,0
165414,202.36,-383.001,0,0
165674,202.815,-380.486,0,0
165935,203.425,-377.954,0,0
166195,204.191,-375.564,0,0
166455,204.948,-373.215,0,0
166716,205.708,-371.003,0,0
166976,206.426,-368.762,0,0
167236,207.159,-366.497,0,0
167497,207.848,-364.234,0,0
167757,208.588,-361.866,0,0
168017,209.394,-359.51,0,0
168277,210.224,-357.169,0,0
168538,211.089,-354.808,0,0
168798,212.056,-352.464,0,0
169058,213.057,-350.129,0,0
169319,214.045,-347.925,0,0
169579,215.046,-345.69,0,0
169839,215.989,-343.555,0,0
170100,216.852,-341.41,0,0
170360.075,217.616,-339.158,0,0
170620.4,218.425,-336.857,0,0
170880.725,219.25,-334.449,0,0
171141.05,220.124,-331.978,0,0
171401.375,220.993,-329.592,0,0
171661.7,221.961,-327.108,0,0
171922.025,222.919,-324.618,0,0
172182.35,223.86,-322.107,0,0
172442.675,224.785,-319.681,0,0
172703.0,225.743,-317.128,0,0
172963.325,226.673,-314.558,0,0
173223.65,227.586,-311.921,0,0
173483.975,228.489,-309.257,0,0
173744.3,229.383,-306.559,0,0
174004.625,230.222,-303.721,0,0
174264.95,231.133,-300.725,0,0
174525.275,232.078,-297.643,0,0
174785.6,233.092,-294.511,0,0
175045.925,234.161,-291.263,0,0
175306.25,235.273,-287.921,0,0
175566.575,236.448,-284.428,0,0
175826.9,237.837,-280.871,0,0
176087.225,239.261,-277.212,0,0
176347.55,240.832,-273.53,0,0
176607.875,242.47,-269.712,0,0
176868.2,244.314,-265.811,0,0
177128.525,246.313,-261.904,0,0
177388.85,248.463,-257.986,0,0
177649.175,250.691,-254.064,0,0
177909.5,253.021,-250.072,0,0
178169.825,255.557,-245.995,0,0
178430.15,258.23,-241.851,0,0
178690.475,261.121,-237.651,0,0
178950.8,264.236,-233.43,0,0
179211.125,267.665,-229.234,0,0
179471.45,271.392,-225.163,0,0
179731.775,275.337,-221.296,0,0
179992.1,279.444,-217.55,0,0
180252.425,283.641,-213.998,0,0
180512.75,287.942,-210.639,0,0
180773.075,292.392,-207.384,0,0
181033.4,296.901,-204.296,0,0
181293.725,301.468,-201.339,0,0
181554.05,306.109,-198.578,0,0
181814.375,310.883,-195.889,0,0
182074.7,315.642,-193.47,0,0
182335.025,320.416,-191.249,0,0
182595.35,325.106,-189.186,0,0
182855.675,329.731,-187.202,0,0
183116.0,334.334,-185.282,0,0
183376.325,338.861,-183.315,0,0
183636.65,343.564,-181.413,0,0
183896.975,348.331,-179.662,0,0
184157.3,353.139,-178.132,0,0
184417.625,357.891,-176.738,0,0
184677.95,362.676,-175.566,0,0
184938.275,367.234,-174.767,0,0
185198.6,371.481,-174.027,0,0
185458.925,375.44,-173.341,0,0
185719.25,379.172,-172.64,0,0
185979.575,382.634,-171.875,0,0
186239.9,385.875,-170.949,0,0
186500,389.051,-170.019,0,0
186761,391.746,-168.838,0,0
187021,394.228,-167.288,0,0
187281,396.432,-165.305,0,0
187542,398.541,-162.813,0,0
187802,400.741,-159.727,0,0
188062,403.175,-156.119,0,0
188322,405.928,-152.051,0,0
188583,408.953,-147.689,0,0
188843,412.162,-142.948,0,0
189103,415.814,-137.662,0,0
189364,419.883,-131.943,0,0
189624,424.573,-125.848,0,0
189884,430.017,-119.399,0,0
190145,436.171,-112.671,0,0
190405,443.29,-105.929,0,0
190665,451.208,-99.2413,0,0
190926,460.005,-92.6641,0,0
191186,469.695,-86.4488,0,0
191446,480.128,-80.882,0,0
191707,491.099,-75.855,0,0
191967,502.472,-71.3497,0,0
192227,514.24,-67.4111,0,0
192488,526.15,-63.9325,0,0
192748,538.217,-60.7028,0,0
193008,550.681,-57.694,0,0
193269,563.547,-54.8192,0,0
193529,577.297,-52.116,0,0
193789,591.66,-50.1231,0,0
194050,606.622,-48.7905,0,0
194310,622.088,-48.1946,0,0
194570,638.05,-48.407,0,0
194831,654.415,-49.6043,0,0
195091,670.931,-51.818,0,0
195351,687.433,-55.0359,0,0
195612,703.825,-59.122,0,0
195872,720.148,-63.8815,0,0
196132,736.454,-69.3886,0,0
196393,752.674,-75.7207,0,0
196653,768.696,-82.8619,0,0
196913,784.491,-90.8363,0,0
197174,799.983,-99.3998,0,0
197434,815.186,-108.678,0,0
197694,830.086,-118.391,0,0
197955,844.81,-128.553,0,0
198215,859.524,-139.289,0,0
198475,874.191,-150.741,0,0
198735,888.556,-162.98,0,0
198996,902.836,-176.06,0,0
199256,916.848,-190.039,0,0
199516,930.354,-205.014,0,0
199777,943.157,-220.565,0,0
200037,955.651,-236.777,0,0
200297,967.456,-253.702,0,0
200558,978.797,-271.085,0,0
200818,989.906,-289.523,0,0
201078,1000.38,-308.722,0,0
201339,1010.23,-328.73,0,0
201599,1019.39,-350.227,0,0
201859,1027.49,-372.533,0,0
202120,1034.14,-396.113,0,0
202380.025,1039.12,-420.911,0,0
202640.35,1042.34,-445.703,0,0
202900.675,1043.34,-471.016,0,0
203161.0,1042.31,-495.701,0,0
203421.325,1039.51,-520.033,0,0
203681.65,1035.66,-543.282,0,0
203941.975,1030.7,-565.993,0,0
204202.3,1024.45,-587.841,0,0
204462.625,1017.44,-609.095,0,0
204722.95,1009.57,-629.669,0,0
204983.275,1000.67,-649.661,0,0
205243.6,991.183,-668.886,0,0
205503.925,980.723,-687.17,0,0
205764.25,969.368,-704.843,0,0
206024.575,957.518,-721.557,0,0
206284.9,944.79,-737.157,0,0
206545.225,931.923,-751.776,0,0
206805.55,918.915,-765.247,0,0
207065.875,905.427,-777.942,0,0
207326.2,891.87,-789.606,0,0
207586.525,878.21,-800.394,0,0
207846.85,864.629,-810.195,0,0
208107.175,851.249,-819.398,0,0
208367.5,838.094,-827.676,0,0
208627.825,825.039,-835.498,0,0
208888.15,812.208,-842.558,0,0
209148.475,799.763,-848.987,0,0
209408.8,787.553,-855.16,0,0
209669.125,775.839,-861.064,0,0
209929.45,764.559,-866.514,0,0
210189.775,753.234,-871.859,0,0
210450.1,742.315,-877.095,0,0
210710.425,731.851,-882.49,0,0
210970.75,721.19,-888.083,0,0
211231.075,710.488,-893.801,0,0
211491.4,699.304,-899.738,0,0
211751.725,687.377,-905.71,0,0
212012.05,675.368,-910.997,0,0
212272.375,662.413,-915.997,0,0
212532.7,649.193,-920.22,0,0
212793.025,635.64,-923.65,0,0
213053.35,622.209,-926.312,0,0
213313.675,608.763,-928.158,0,0
213574.0,595.52,-929.356,0,0
213834.325,582.629,-929.962,0,0
214094.65,569.716,-930.185,0,0
214354.975,557.201,-929.61,0,0
214615.3,545.036,-928.609,0,0
214875.625,533.305,-927.154,0,0
215135.95,521.768,-925.24,0,0
215396.275,510.71,-923.082,0,0
215656.6,500.104,-920.722,0,0
215916.925,489.877,-917.942,0,0
216177.25,479.979,-914.989,0,0
216437.575,470.391,-911.93,0,0
216697.9,461.283,-908.758,0,0
216958.225,452.455,-905.346,0,0
217218.55,443.718,-901.99,0,0
217478.875,435.341,-898.344,0,0
217739.2,427.31,-894.728,0,0
217999.525,419.421,-890.917,0,0
218259.85,411.919,-887.074,0,0
218520,404.584,-883.045,0,0
218780,397.593,-879.018,0,0
219041,390.809,-875.077,0,0
219301,384.217,-870.996,0,0
219561,378.019,-866.91,0,0
219822,371.864,-862.708,0,0
220082,366.106,-858.557,0,0
220342,360.462,-854.344,0,0
220603,354.784,-850.252,0,0
220863,349.483,-846.039,0,0
221123,344.25,-841.834,0,0
221384,339.204,-837.6,0,0
221644,334.347,-833.314,0,0
221904,329.473,-828.932,0,0
222165,324.984,-824.485,0,0
222425,320.462,-819.964,0,0
222685,316.229,-815.545,0,0
222946,312.136,-811.019,0,0
223206,308.406,-806.441,0,0
223466,304.637,-801.807,0,0
223727,301.174,-797.145,0,0
223987,298.1,-792.524,0,0
224247,295.06,-787.739,0,0
224508,292.258,-783.138,0,0
224768,289.722,-778.455,0,0
225028,287.296,-773.808,0,0
225289,285.32,-769.152,0,0
225549,283.573,-764.618,0,0
225809,282.141,-760.121,0,0
226070,280.982,-755.677,0,0
226330,280.051,-751.651,0,0
226590,279.27,-747.778,0,0
226851,278.922,-744.049,0,0
227111,278.557,-740.566,0,0
227371,278.569,-737.537,0,0
227632,278.472,-734.726,0,0
227892,278.537,-732.338,0,0
228152,278.561,-730.301,0,0
228413,278.472,-728.648,0,0
228673,278.22,-727.253,0,0
228933,277.737,-726.148,0,0
229193,276.954,-725.21,0,0
229454,275.945,-724.444,0,0
229714,274.612,-723.631,0,0
229974,273.132,-723.013,0,0
230235,271.237,-722.22,0,0
230495,269.148,-721.24,0,0
230755,266.977,-720.239,0,0
231016,264.605,-719.053,0,0
231276,262.126,-717.682,0,0
231536,259.618,-716.147,0,0
231797,257.073,-714.407,0,0
232057,254.53,-712.495,0,0
232317,251.954,-710.38,0,0
232578,249.483,-708.178,0,0
232838,247.067,-705.756,0,0
233098,244.791,-703.182,0,0
233359,242.545,-700.668,0,0
233619,240.464,-697.903,0,0
233879,238.461,-695.117,0,0
234140,236.651,-692.212,0,0
234400,234.982,-689.327,0,0
234660.3,233.376,-686.318,0,0
234920.625,231.973,-683.386,0,0
235180.95,230.637,-680.47,0,0
235441.275,229.339,-677.491,0,0
235701.6,228.23,-674.543,0,0
235961.925,227.141,-671.671,0,0
236222.25,226.258,-668.735,0,0
236482.575,225.409,-665.869,0,0
236742.9,224.648,-662.978,0,0
237003.225,223.977,-660.151,0,0
237263.55,223.356,-657.32,0,0
237523.875,222.868,-654.539,0,0
237784.2,222.399,-651.783,0,0
238044.525,222.04,-649.071,0,0
238304.85,221.724,-646.308,0,0
238565.175,221.539,-643.67,0,0
238825.5,221.345,-641.032,0,0
239085.825,221.245,-638.507,0,0
239346.15,221.226,-635.937,0,0
239606.475,221.169,-633.453,0,0
239866.8,221.229,-630.968,0,0
240127.125,221.343,-628.637,0,0
240387.45,221.555,-626.275,0,0
240647.775,221.703,-623.914,0,0
240908.1,221.893,-621.562,0,0
241168.425,222.149,-619.289,0,0
241428.75,222.495,-617.009,0,0
241689.075,222.844,-614.818,0,0
241949.4,223.229,-612.623,0,0
242209.725,223.682,-610.446,0,0
242470.05,224.137,-608.292,0,0
242730.375,224.694,-606.164,0,0
242990.7,225.324,-604.066,0,0
243251.025,225.955,-601.945,0,0
243511.35,226.683,-599.925,0,0
243771.675,227.436,-597.889,0,0
244032.0,228.257,-596.001,0,0
244292.325,229.045,-593.977,0,0
244552.65,229.916,-592.104,0,0
244812.975,230.861,-590.232,0,0
245073.3,231.79,-588.278,0,0
245333.625,232.832,-586.398,0,0
245593.95,233.974,-584.491,0,0
245854.275,235.195,-582.571,0,0
246114.6,236.505,-580.686,0,0
246374.925,237.964,-578.849,0,0
246635.25,239.567,-577.052,0,0
246895.575,241.299,-575.321,0,0
247155.9,243.163,-573.629,0,0
247416.225,245.196,-572.07,0,0
247676.55,247.453,-570.722,0,0
247936.875,249.742,-569.442,0,0
248197.2,252.063,-568.559,0,0
248457.525,254.547,-567.825,0,0
248717.85,256.862,-567.293,0,0
248978.175,259.294,-566.885,0,0
249238.5,261.678,-566.708,0,0
249498.825,263.874,-566.692,0,0
249759.15,266.018,-566.867,0,0
250019.475,267.972,-566.921,0,0
250279.8,269.871,-567.046,0,0
250540,271.8,-567.085,0,0
250800,273.781,-567.102,0,0
251061,275.897,-567.051,0,0
251321,278.205,-567.027,0,0
251581,280.684,-567.149,0,0
251842,283.461,-567.39,0,0
252102,286.389,-567.958,0,0
252362,289.44,-568.731,0,0
252623,292.61,-569.876,0,0
252883,295.79,-571.405,0,0
253143,298.948,-573.314,0,0
253404,302.093,-575.603,0,0
253664,305.088,-578.307,0,0
253924,307.908,-581.379,0,0
254185,310.505,-584.834,0,0
254445,312.784,-588.679,0,0
254705,314.665,-592.736,0,0
254966,316.273,-597.162,0,0
255226,317.355,-601.632,0,0
255486,317.998,-606.263,0,0
255747,318.358,-610.981,0,0
256007,318.207,-615.694,0,0
256267,317.641,-620.38,0,0
256528,316.762,-624.972,0,0
256788,315.529,-629.505,0,0
257048,313.914,-633.865,0,0
257309,312.116,-638.015,0,0
257569,309.936,-642.139,0,0
257829,307.563,-646.027,0,0
258090,304.976,-649.761,0,0
258350,302.134,-653.263,0,0
258610,299.147,-656.587,0,0
258871,295.983,-659.697,0,0
259131,292.64,-662.597,0,0
259391,289.16,-665.318,0,0
259651,285.591,-667.727,0,0
259912,281.888,-670.047,0,0
260172,278.139,-672.044,0,0
260432,274.308,-673.848,0,0
260693,270.451,-675.471,0,0
260953,266.495,-676.793,0,0
261213,262.577,-677.934,0,0
261474,258.727,-678.896,0,0
261734,254.842,-679.645,0,0
261994,251.028,-680.128,0,0
262255,247.265,-680.475,0,0
262515,243.581,-680.666,0,0
262775,240.008,-680.768,0,0
263036,236.497,-680.722,0,0
263296,233.066,-680.591,0,0
263556,229.663,-680.382,0,0
263817,226.36,-680.108,0,0
264077,223.088,-679.696,0,0
264337,219.869,-679.231,0,0
264598,216.713,-678.602,0,0
264858,213.543,-678.058,0,0
265118,210.533,-677.294,0,0
265379,207.543,-676.473,0,0
265639,204.608,-675.616,0,0
265899,201.829,-674.762,0,0
266160,199.037,-673.832,0,0
266420,196.307,-672.822,0,0
266680.25,193.65,-671.748,0,0
266940.575,191.049,-670.644,0,0
267200.9,188.501,-669.499,0,0
267461.225,186.09,-668.406,0,0
267721.55,183.734,-667.132,0,0
267981.875,181.349,-665.916,0,0
268242.2,179.078,-664.664,0,0
268502.525,176.898,-663.415,0,0
268762.85,174.685,-662.198,0,0
269023.175,172.541,-660.845,0,0
269283.5,170.472,-659.613,0,0
269543.825,168.473,-658.344,0,0
269804.15,166.441,-657.009,0,0
270064.475,164.48,-655.666,0,0
270324.8,162.501,-654.368,0,0
270585.125,160.652,-652.976,0,0
270845.45,158.7,-651.65,0,0
271105.775,156.96,-650.278,0,0
271366.1,155.105,-648.924,0,0
271626.425,153.304,-647.47,0,0
271886.75,151.571,-646.062,0,0
272147.075,149.901,-644.692,0,0
272407.4,148.217,-643.278,0,0
272667.725,146.539,-641.798,0,0
272928.05,144.948,-640.398,0,0
273188.375,143.367,-638.95,0,0
273448.7,141.801,-637.459,0,0
273709.025,140.254,-635.989,0,0
273969.35,138.765,-634.521,0,0
274229.675,137.286,-633.006,0,0
274490.0,135.828,-631.528,0,0
274750.325,134.408,-630.008,0,0
275010.65,133.107,-628.41,0,0
275270.975,131.72,-626.883,0,0
275531.3,130.434,-625.386,0,0
275791.625,129.155,-623.808,0,0
276051.95,127.907,-622.236,0,0
276312.275,126.658,-620.708,0,0
276572.6,125.502,-619.156,0,0
276832.925,124.319,-617.596,0,0
277093.25,123.213,-616.052,0,0
277353.575,122.102,-614.484,0,0
277613.9,121.01,-612.915,0,0
277874.225,119.954,-611.344,0,0
278134.55,118.919,-609.739,0,0
278394.875,117.921,-608.153,0,0
278655.2,116.918,-606.541,0,0
278915.525,116.01,-604.917,0,0
279175.85,115.091,-603.255,0,0
279436.175,114.255,-601.612,0,0
279696.5,113.468,-599.971,0,0
279956.825,112.779,-598.258,0,0
280217.15,112.099,-596.641,0,0
280477.475,111.556,-595.034,0,0
280737.8,111.049,-593.46,0,0
280998.125,110.56,-591.97,0,0
281258.45,110.101,-590.537,0,0
281518.775,109.658,-589.139,0,0
281779.1,109.207,-587.812,0,0
282039.425,108.749,-586.527,0,0
282299.75,108.275,-585.251,0,0
282560,107.767,-583.973,0,0
282820,107.261,-582.734,0,0
283081,106.755,-581.463,0,0
283341,106.255,-580.205,0,0
283601,105.788,-578.938,0,0
283862,105.305,-577.671,0,0
284122,104.869,-576.418,0,0
284382,104.43,-575.142,0,0
284643,104.003,-573.905,0,0
284903,103.641,-572.701,0,0
285163,103.283,-571.433,0,0
285424,102.948,-570.246,0,0
285684,102.659,-569.071,0,0
285944,102.371,-567.926,0,0
286205,102.116,-566.849,0,0
286465,101.876,-565.808,0,0
286725,101.615,-564.823,0,0
286986,101.286,-563.874,0,0
287246,100.927,-562.969,0,0
287506,100.522,-562.037,0,0
287767,100.114,-561.073,0,0
288027,99.6773,-560.076,0,0
288287,99.2892,-559.073,0,0
288548,98.8955,-558.048,0,0
288808,98.5177,-557.025,0,0
289068,98.168,-556.014,0,0
289329,97.8137,-554.997,0,0
289589,97.5214,-554.029,0,0
289849,97.2045,-553.048,0,0
290109,96.8839,-552.063,0,0
290370,96.5923,-551.13,0,0
290630,96.3236,-550.207,0,0
290890,96.0431,-549.28,0,0
291151,95.7359,-548.399,0,0
291411,95.4867,-547.519,0,0
291671,95.2065,-546.651,0,0
291932,94.9288,-545.802,0,0
292192,94.684,-544.97,0,0
292452,94.4259,-544.187,0,0
292713,94.1489,-543.415,0,0
292973,93.8867,-542.655,0,0
293233,93.5914,-541.964,0,0
293494,93.2311,-541.26,0,0
293754,92.8789,-540.589,0,0
294014,92.475,-539.922,0,0
294275,92.047,-539.312,0,0
294535,91.6122,-538.629,0,0
294795,91.0598,-537.956,0,0
295056,90.5251,-537.289,0,0
295316,89.9275,-536.564,0,0
295576,89.3371,-535.81,0,0
295837,88.6736,-535.035,0,0
296097,88.0361,-534.201,0,0
296357,87.3665,-533.355,0,0
296618,86.7015,-532.405,0,0
296878,86.0369,-531.44,0,0
297138,85.3738,-530.409,0,0
297399,84.7614,-529.308,0,0
297659,84.1856,-528.152,0,0
297919,83.6627,-526.957,0,0
298180,83.2216,-525.716,0,0
298440,82.8752,-524.471,0,0
298700.2,82.5668,-523.23,0,0
298960.525,82.457,-522.017,0,0
299220.85,82.2804,-520.862,0,0
299481.175,82.2046,-519.72,0,0
299741.5,82.078,-518.71,0,0
300001.825,82.0762,-517.707,0,0
300262.15,81.9831,-516.82,0,0
300522.475,81.8999,-515.862,0,0
300782.8,81.8241,-515.045,0,0
301043.125,81.7165,-514.179,0,0
301303.45,81.6175,-513.351,0,0
301563.775,81.4956,-512.52,0,0
301824.1,81.4257,-511.75,0,0
302084.425,81.236,-510.995,0,0
302344.75,81.1058,-510.192,0,0
302605.075,80.8872,-509.437,0,0
302865.4,80.7564,-508.611,0,0
303125.725,80.6416,-507.896,0,0
303386.05,80.419,-507.11,0,0
303646.375,80.151,-506.347,0,0
303906.7,79.9506,-505.507,0,0
304167.025,79.7606,-504.732,0,0
304427.35,79.5578,-503.893,0,0
304687.675,79.4026,-503.014,0,0
304948.0,79.2998,-502.109,0,0
305208.325,79.2114,-501.211,0,0
305468.65,79.0771,-500.375,0,0
305728.975,79.1702,-499.494,0,0
305989.3,79.2052,-498.699,0,0
306249.625,79.259,-497.971,0,0
306509.95,79.3572,-497.29,0,0
306770.275,79.4567,-496.686,0,0
307030.6,79.5258,-496.136,0,0
307290.925,79.523,-495.604,0,0
307551.25,79.5178,-495.198,0,0
307811.575,79.4246,-494.754,0,0
308071.9,79.3309,-494.271,0,0
308332.225,79.1303,-493.815,0,0
308592.55,78.9433,-493.378,0,0
308852.875,78.7204,-492.902,0,0
309113.2,78.4892,-492.409,0,0
309373.525,78.2514,-491.847,0,0
309633.85,78.06,-491.34,0,0
309894.175,77.8288,-490.832,0,0
310154.5,77.5198,-490.314,0,0
310414.825,77.2704,-489.807,0,0
310675.15,77.031,-489.272,0,0
310935.475,76.7645,-488.811,0,0
311195.8,76.4758,-488.244,0,0
311456.125,76.1915,-487.744,0,0
311716.45,75.8753,-487.251,0,0
311976.775,75.4924,-486.634,0,0
312237.1,75.2838,-486.128,0,0
312497.425,74.8814,-485.58,0,0
312757.75,74.5556,-484.943,0,0
313018.075,74.1818,-484.417,0,0
313278.4,73.8798,-483.773,0,0
313538.725,73.4986,-483.162,0,0
313799.05,73.2215,-482.581,0,0
314059.375,72.8585,-481.871,0,0
314319.7,72.591,-481.271,0,0
314580,72.2701,-480.657,0,0
314840,71.9518,-480.016,0,0
315101,71.6781,-479.331,0,0
315361,71.3415,-478.727,0,0
315621,71.0949,-478.105,0,0
315882,70.7752,-477.469,0,0
316142,70.5139,-476.824,0,0
316402,70.1885,-476.202,0,0
316663,69.95,-475.585,0,0
316923,69.6921,-474.938,0,0
317183,69.3267,-474.339,0,0
317444,69.1372,-473.695,0,0
317704,68.7847,-473.11,0,0
317964,68.5213,-472.432,0,0
318225,68.2357,-471.829,0,0
318485,67.9195,-471.228,0,0
318745,67.6468,-470.589,0,0
319006,67.3125,-469.971,0,0
319266,67.0303,-469.361,0,0
319526,66.6632,-468.673,0,0
319787,66.3703,-468.05,0,0
320047,66.0823,-467.327,0,0
320307,65.7429,-466.711,0,0
320567,65.4355,-466.035,0,0
320828,65.0766,-465.409,0,0
321088,64.7663,-464.653,0,0
321348,64.5169,-463.9,0,0
321609,64.1745,-463.185,0,0
321869,64.0036,-462.497,0,0
322129,63.7005,-461.814,0,0
322390,63.495,-461.072,0,0
322650,63.2454,-460.33,0,0
322910,63.0852,-459.652,0,0
323171,62.8408,-458.937,0,0
323431,62.6221,-458.254,0,0
323691,62.4885,-457.638,0,0
323952,62.2329,-456.925,0,0
324212,62.0194,-456.246,0,0
324472,61.8569,-455.603,0,0
324733,61.6051,-454.966,0,0
324993,61.405,-454.263,0,0
325253,61.182,-453.667,0,0
325514,60.9473,-453.007,0,0
325774,60.7043,-452.32,0,0
326034,60.4644,-451.61,0,0
326295,60.254,-450.952,0,0
326555,60.0486,-450.25,0,0
326815,59.8193,-449.572,0,0
327076,59.6213,-448.921,0,0
327336,59.4196,-448.257,0,0
327596,59.2372,-447.525,0,0
327857,59.0702,-446.88,0,0
328117,58.8715,-446.159,0,0
328377,58.6706,-445.518,0,0
328638,58.5352,-444.801,0,0
328898,58.321,-444.134,0,0
329158,58.1344,-443.47,0,0
329419,57.9349,-442.799,0,0
329679,57.8351,-442.105,0,0
329939,57.628,-441.435,0,0
330200,57.4923,-440.752,0,0
330460,57.3227,-440.089,0,0
330720.15,57.1432,-439.439,0,0
330980.475,56.982,-438.732,0,0
331240.8,56.8406,-438.079,0,0
331501.125,56.6555,-437.441,0,0
331761.45,56.5238,-436.73,0,0
332021.775,56.3631,-436.055,0,0
332282.1,56.2023,-435.379,0,0
332542.425,56.0698,-434.746,0,0
332802.75,55.9148,-433.975,0,0
333063.075,55.7663,-433.357,0,0
333323.4,55.6667,-432.614,0,0
333583.725,55.559,-431.992,0,0
333844.05,55.4233,-431.286,0,0
334104.375,55.2988,-430.596,0,0
334364.7,55.1976,-429.934,0,0
334625.025,55.0925,-429.24,0,0
334885.35,55.0247,-428.561,0,0
335145.675,54.9581,-427.925,0,0
335406.0,54.8413,-427.242,0,0
335666.325,54.7929,-426.609,0,0
335926.65,54.7069,-425.933,0,0
336186.975,54.6528,-425.322,0,0
336447.3,54.5217,-424.683,0,0
336707.625,54.4904,-424.046,0,0
336967.95,54.4177,-423.443,0,0
337228.275,54.3542,-422.825,0,0
337488.6,54.2936,-422.216,0,0
337748.925,54.1868,-421.613,0,0
338009.25,54.1238,-420.947,0,0
338269.575,54.0226,-420.326,0,0
338529.9,53.8926,-419.735,0,0
338790.225,53.857,-419.093,0,0
339050.55,53.8044,-418.476,0,0
339310.875,53.777,-417.812,0,0
339571.2,53.6579,-417.202,0,0
339831.525,53.6581,-416.574,0,0
340091.85,53.5969,-415.904,0,0
340352.175,53.5521,-415.355,0,0
340612.5,53.5275,-414.692,0,0
340872.825,53.4981,-414.075,0,0
341133.15,53.3842,-413.46,0,0
341393.475,53.4095,-412.883,0,0
341653.8,53.408,-412.213,0,0
341914.125,53.3697,-411.637,0,0
342174.45,53.3787,-411.053,0,0
342434.775,53.4032,-410.407,0,0
342695.1,53.4141,-409.864,0,0
342955.425,53.506,-409.243,0,0
343215.75,53.5502,-408.766,0,0
343476.075,53.5912,-408.268,0,0
343736.4,53.6561,-407.771,0,0
343996.725,53.6561,-407.367,0,0
344257.05,53.6402,-406.975,0,0
344517.375,53.585,-406.539,0,0
344777.7,53.4609,-406.063,0,0
345038.025,53.3493,-405.675,0,0
345298.35,53.2082,-405.199,0,0
345558.675,53.038,-404.697,0,0
345819.0,52.878,-404.173,0,0
346079.325,52.7411,-403.656,0,0
346339.65,52.5907,-403.104,0,0
346599.975,52.4442,-402.53,0,0
346860,52.3235,-401.96,0,0
347121,52.2272,-401.336,0,0
347381,52.1212,-400.767,0,0
347641,52.0341,-400.177,0,0
347902,51.9315,-399.583,0,0
348162,51.8709,-399.007,0,0
348422,51.813,-398.399,0,0
348683,51.7644,-397.796,0,0
348943,51.7016,-397.227,0,0
349203,51.6427,-396.65,0,0
349464,51.6036,-396.085,0,0
349724,51.5431,-395.518,0,0
349984,51.5457,-394.939,0,0
350245,51.5294,-394.377,0,0
350505,51.4931,-393.817,0,0
350765,51.4616,-393.216,0,0
351025,51.4501,-392.636,0,0
351286,51.45,-392.068,0,0
351546,51.4424,-391.554,0,0
351806,51.4437,-390.956,0,0
352067,51.428,-390.427,0,0
352327,51.4482,-389.862,0,0
352587,51.4628,-389.343,0,0
352848,51.5016,-388.808,0,0
353108,51.5274,-388.332,0,0
353368,51.5238,-387.811,0,0
353629,51.5455,-387.315,0,0
353889,51.5106,-386.831,0,0
354149,51.5535,-386.365,0,0
354410,51.5303,-385.909,0,0
354670,51.4955,-385.398,0,0
354930,51.4754,-384.904,0,0
355191,51.4403,-384.402,0,0
355451,51.4189,-383.943,0,0
355711,51.3588,-383.439,0,0
355972,51.3623,-382.936,0,0
356232,51.2761,-382.423,0,0
356492,51.2728,-381.898,0,0
356753,51.2462,-381.387,0,0
357013,51.2299,-380.872,0,0
357273,51.2763,-380.34,0,0
357534,51.2588,-379.848,0,0
357794,51.2956,-379.314,0,0
358054,51.3096,-378.835,0,0
358315,51.3441,-378.354,0,0
358575,51.3863,-377.838,0,0
358835,51.389,-377.41,0,0
359096,51.4428,-376.949,0,0
359356,51.4729,-376.548,0,0
359616,51.4799,-376.071,0,0
359877,51.5221,-375.702,0,0
360137,51.5057,-375.228,0,0
360397,51.4869,-374.804,0,0
360658,51.4829,-374.443,0,0
360918,51.4639,-374.034,0,0
361178,51.3927,-373.624,0,0
361438,51.3864,-373.213,0,0
361699,51.3377,-372.778,0,0
361959,51.3058,-372.352,0,0
362219,51.2045,-371.919,0,0
362480,51.1426,-371.475,0,0
362740.1,51.0582,-371.041,0,0
363000.425,51.0122,-370.611,0,0
363260.75,50.9062,-370.174,0,0
363521.075,50.8381,-369.702,0,0
363781.4,50.7934,-369.275,0,0
364041.725,50.7155,-368.808,0,0
364302.05,50.6421,-368.345,0,0
364562.375,50.5843,-367.866,0,0
364822.7,50.5055,-367.338,0,0
365083.025,50.4471,-366.91,0,0
365343.35,50.3631,-366.432,0,0
365603.675,50.3483,-365.936,0,0
365864.0,50.3005,-365.437,0,0
366124.325,50.2431,-364.979,0,0
366384.65,50.2303,-364.477,0,0
366644.975,50.1985,-364.006,0,0
366905.3,50.1447,-363.52,0,0
367165.625,50.0891,-363.061,0,0
367425.95,50.1074,-362.575,0,0
367686.275,50.0707,-362.124,0,0
367946.6,49.9977,-361.607,0,0
368206.925,49.9828,-361.128,0,0
368467.25,49.9875,-360.662,0,0
368727.575,49.9309,-360.164,0,0
368987.9,49.8916,-359.701,0,0
369248.225,49.9136,-359.221,0,0
369508.55,49.8792,-358.714,0,0
369768.875,49.8702,-358.224,0,0
370029.2,49.8846,-357.739,0,0
370289.525,49.8645,-357.237,0,0
370549.85,49.871,-356.802,0,0
370810.175,49.9075,-356.302,0,0
371070.5,49.8987,-355.857,0,0
371330.825,49.9335,-355.353,0,0
371591.15,49.9739,-354.88,0,0
371851.475,50.0157,-354.442,0,0
372111.8,50.0501,-353.984,0,0
372372.125,50.1397,-353.532,0,0
372632.45,50.1866,-353.097,0,0
372892.775,50.2618,-352.693,0,0
373153.1,50.326,-352.313,0,0
373413.425,50.4018,-351.96,0,0
373673.75,50.4431,-351.612,0,0
373934.075,50.4656,-351.313,0,0
374194.4,50.4805,-350.971,0,0
374454.725,50.426,-350.666,0,0
374715.05,50.3772,-350.366,0,0
374975.375,50.3243,-350.067,0,0
375235.7,50.2288,-349.726,0,0
375496.025,50.1188,-349.352,0,0
375756.35,49.979,-348.994,0,0
376016.675,49.8877,-348.615,0,0
376277.0,49.7749,-348.212,0,0
376537.325,49.6469,-347.826,0,0
376797.65,49.5645,-347.414,0,0
377057.975,49.4738,-346.993,0,0
377318.3,49.3452,-346.585,0,0
377578.625,49.2271,-346.147,0,0
377838.95,49.1217,-345.741,0,0
378099.275,49.0267,-345.317,0,0
378359.6,48.9371,-344.891,0,0
378619.925,48.7912,-344.446,0,0
378880,48.6863,-344,0,0
379141,48.544,-343.59,0,0
379401,48.4311,-343.097,0,0
379661,48.2753,-342.664,0,0
379922,48.1115,-342.187,0,0
380182,47.9915,-341.677,0,0
380442,47.859,-341.161,0,0
380703,47.6929,-340.622,0,0
380963,47.6206,-340.08,0,0
381223,47.4814,-339.533,0,0
381483,47.4016,-338.954,0,0
381744,47.3376,-338.38,0,0
382004,47.3009,-337.769,0,0
382264,47.2814,-337.194,0,0
382525,47.3076,-336.594,0,0
382785,47.3468,-336.047,0,0
383045,47.4265,-335.509,0,0
383306,47.5363,-334.993,0,0
383566,47.6083,-334.565,0,0
383826,47.6745,-334.136,0,0
384087,47.6993,-333.768,0,0
384347,47.7258,-333.397,0,0
384607,47.7225,-332.999,0,0
384868,47.61,-332.603,0,0
385128,47.5653,-332.169,0,0
385388,47.5117,-331.727,0,0
385649,47.4092,-331.309,0,0
385909,47.3443,-330.857,0,0
386169,47.2514,-330.421,0,0
386430,47.1662,-329.922,0,0
386690,47.1068,-329.458,0,0
386950,47.024,-328.976,0,0
387211,46.9574,-328.461,0,0
387471,46.8756,-327.959,0,0
387731,46.7887,-327.478,0,0
387992,46.7271,-326.961,0,0
388252,46.6741,-326.426,0,0
388512,46.6109,-325.906,0,0
388773,46.5708,-325.383,0,0
389033,46.5329,-324.87,0,0
389293,46.493,-324.361,0,0
389554,46.4623,-323.826,0,0
389814,46.4041,-323.278,0,0
390074,46.413,-322.748,0,0
390335,46.3584,-322.229,0,0
390595,46.3585,-321.707,0,0
390855,46.3408,-321.179,0,0
391116,46.314,-320.65,0,0
391376,46.3184,-320.101,0,0
391636,46.3107,-319.578,0,0
391896,46.2936,-319.055,0,0
392157,46.2977,-318.515,0,0
392417,46.2961,-318.03,0,0
392677,46.2774,-317.478,0,0
392938,46.2861,-316.951,0,0
393198,46.28,-316.405,0,0
393458,46.2908,-315.871,0,0
393719,46.3106,-315.35,0,0
393979,46.3078,-314.815,0,0
394239,46.3276,-314.291,0,0
394500,46.3134,-313.735,0,0
394760.05,46.3193,-313.23,0,0
395020.375,46.3529,-312.66,0,0
395280.7,46.3715,-312.146,0,0
395541.025,46.378,-311.582,0,0
395801.35,46.4105,-311.036,0,0
396061.675,46.4267,-310.513,0,0
396322.0,46.4553,-309.971,0,0
396582.325,46.5006,-309.415,0,0
396842.65,46.5146,-308.895,0,0
397102.975,46.5764,-308.321,0,0
397363.3,46.5885,-307.787,0,0
397623.625,46.642,-307.24,0,0
397883.95,46.6779,-306.71,0,0
398144.275,46.7411,-306.169,0,0
398404.6,46.7796,-305.621,0,0
398664.925,46.8535,-305.074,0,0
398925.25,46.906,-304.536,0,0
399185.575,46.9577,-304.012,0,0
399445.9,47.0047,-303.464,0,0
399706.225,47.0653,-302.933,0,0
399966.55,47.1264,-302.409,0,0
400006.6,47.1503,-302.292,0,0