File: Accelerated corrosion test data/2025-10-02_18-00-03/sample_3.csv
Frequency (Hz),Impedance (ohms),Phase (Radians),Temperature (C),Humidity (%)
10000.0,256.688,-11673.1,0,0
10260.325,249.751,-11379.1,0,0
10520.65,243.687,-11099.5,0,0
10780.975,239.631,-10832.3,0,0
11041.3,233.714,-10582.6,0,0
11301.625,228.507,-10340.1,0,0
11561.95,223.234,-10108.8,0,0
11822.275,218.893,-9887.5,0,0
12082.6,215.416,-9676.18,0,0
12342.925,213.121,-9472.56,0,0
12603.25,206.514,-9280.42,0,0
12863.575,203.278,-9092.73,0,0
13123.9,203.031,-8911.4,0,0
13384.225,196.147,-8743.61,0,0
13644.55,192.472,-8577.35,0,0
13904.875,188.842,-8417.04,0,0
14165.2,188.167,-8260.65,0,0
14425.525,183.479,-8113.05,0,0
14685.8,181.328,-7971.58,0,0
14946.175,179.071,-7833.23,0,0
15206.5,176.348,-7694.96,0,0
15466.825,179.118,-7559,0,0
15727.15,198.991,-7450.96,0,0
15987.5,175.974,-7344.03,0,0
16247.8,170.438,-7216.22,0,0
16508.125,164.546,-7105.34,0,0
16768.45,166.323,-6986.03,0,0
17028.775,160.77,-6888.39,0,0
17289.1,163.3,-6776.33,0,0
17549.425,158.508,-6685.08,0,0
17809.75,160.833,-6581.68,0,0
18070.075,164.941,-6493.8,0,0
18330.4,152.862,-6403.71,0,0
18590.725,150.759,-6312.24,0,0
18851.05,147.078,-6222.8,0,0
19111.375,148.671,-6134.71,0,0
19371.7,147.591,-6052.97,0,0
19632.025,147.808,-5970.86,0,0
19892.35,150.159,-5888.93,0,0
20152.675,150.158,-5817.55,0,0
20413.0,159.202,-5738.21,0,0
20673.3,165.226,-5670.51,0,0
20933.65,162.503,-5619.9,0,0
21193.975,163.564,-5556.79,0,0
21454.3,145.859,-5493.86,0,0
21714.625,139.674,-5419.9,0,0
21974.9,144.193,-5355.43,0,0
22235.275,140.132,-5296.52,0,0
22495.6,139.632,-5235.56,0,0
22755.925,131.367,-5176.19,0,0
23016.25,129.725,-5117.54,0,0
23276.6,129.734,-5056.05,0,0
23536.9,130.513,-5010.39,0,0
23797.225,123.188,-4952.4,0,0
24057.55,120.839,-4895.62,0,0
24317.875,120.955,-4841.29,0,0
24578.2,118.879,-4791.82,0,0
24838.525,120.016,-4739.18,0,0
25098.85,118.223,-4693.49,0,0
25359.175,115.994,-4644.38,0,0
25619.5,114.871,-4596.12,0,0
25879.8,112.522,-4550.49,0,0
26140.1,110.238,-4503.46,0,0
26400.5,109.53,-4457.23,0,0
26660.8,109.385,-4412.16,0,0
26921.1,110.139,-4368.64,0,0
27181.4,109.712,-4328.63,0,0
27441.8,108.565,-4285.04,0,0
27702.1,110.074,-4246.13,0,0
27962.4,106.771,-4206.93,0,0
28222.7,105.091,-4164.3,0,0
28483.1,112.002,-4122.71,0,0
28743.4,115.348,-4088.73,0,0
29003.7,115.136,-4058.3,0,0
29264,107.399,-4023.57,0,0
29524.4,111.286,-3987.58,0,0
29784.7,105.906,-3954.36,0,0
30045,103.609,-3920.27,0,0
30305.3,101.522,-3883.19,0,0
30565.7,103.547,-3850.56,0,0
30826,101.999,-3817.31,0,0
31086.3,103.624,-3785.85,0,0
31346.6,99.5475,-3755.61,0,0
31607,98.4061,-3721.66,0,0
31867.3,99.2335,-3688.26,0,0
32127.6,102.493,-3655.86,0,0
32387.9,109.469,-3626.79,0,0
32648.3,112.729,-3610.11,0,0
32908.6,103.911,-3584.48,0,0
33168.9,102.356,-3556.62,0,0
33429.2,100.781,-3531.4,0,0
33689.6,95.5294,-3504,0,0
33949.9,92.3811,-3474.77,0,0
34210.2,92.135,-3447.11,0,0
34470.5,91.2539,-3421.42,0,0
34730.9,89.0883,-3394.89,0,0
34991.2,87.7282,-3368.73,0,0
35251.5,87.3891,-3343.03,0,0
35511.8,85.9682,-3318.14,0,0
35772.2,85.612,-3292.91,0,0
36032.5,84.674,-3268.81,0,0
36292.8,84.1307,-3244.68,0,0
36553.1,83.7101,-3220.99,0,0
36813.5,83.0367,-3197.77,0,0
37073.8,82.2963,-3174.83,0,0
37334.1,81.9586,-3152.01,0,0
37594.4,81.3408,-3129.57,0,0
37854.8,80.7697,-3107.78,0,0
38115.1,80.1387,-3085.95,0,0
38375.4,79.6207,-3064.65,0,0
38635.7,79.2712,-3043.2,0,0
38896.1,79.0112,-3022.38,0,0
39156.4,78.6293,-3001.89,0,0
39416.7,78.164,-2981.79,0,0
39677,77.5767,-2961.67,0,0
39937.4,76.9322,-2942,0,0
40197.7,76.8265,-2921.86,0,0
40458,76.3879,-2902.74,0,0
40718.3,75.9682,-2883.57,0,0
40978.7,75.6241,-2864.73,0,0
41239,75.4733,-2846,0,0
41499.3,75.3678,-2827.49,0,0
41759.6,75.3012,-2809.6,0,0
42020,75.0001,-2791.73,0,0
42280.275,74.919,-2774.23,0,0
42540.6,74.4188,-2757.01,0,0
42800.925,74.2545,-2739.83,0,0
43061.25,73.6077,-2722.85,0,0
43321.575,73.1589,-2705.99,0,0
43581.9,72.7704,-2688.88,0,0
43842.225,73.1377,-2672.4,0,0
44102.55,72.9127,-2656.03,0,0
44362.875,73.0043,-2640.31,0,0
44623.2,72.5479,-2624.64,0,0
44883.525,72.1005,-2608.86,0,0
45143.85,71.863,-2593.37,0,0
45404.175,71.5891,-2577.89,0,0
45664.5,71.3278,-2562.21,0,0
45924.825,71.9936,-2547.33,0,0
46185.15,71.5056,-2533.18,0,0
46445.475,71.0259,-2518.23,0,0
46705.8,70.7879,-2503.59,0,0
46966.125,71.1391,-2489.09,0,0
47226.45,70.7026,-2475.01,0,0
47486.775,70.6947,-2460.58,0,0
47747.1,71.0485,-2446.3,0,0
48007.425,71.7665,-2433.57,0,0
48267.75,71.5411,-2420.94,0,0
48528.075,70.491,-2407.49,0,0
48788.4,70.5183,-2394.59,0,0
49048.725,69.6118,-2381.61,0,0
49309.05,69.0474,-2368.13,0,0
49569.375,68.9429,-2355.01,0,0
49829.7,68.7912,-2342.32,0,0
50090.025,68.2816,-2329.68,0,0
50350.35,67.7257,-2316.98,0,0
50610.675,67.6287,-2304.02,0,0
50871.0,67.6086,-2291.54,0,0
51131.325,67.4986,-2279.3,0,0
51391.65,67.3922,-2267.13,0,0
51651.975,67.3738,-2254.88,0,0
51912.3,67.3208,-2243.14,0,0
52172.625,67.0885,-2231.24,0,0
52432.95,67.0471,-2219.2,0,0
52693.275,67.4842,-2207.29,0,0
52953.6,67.8978,-2195.6,0,0
53213.925,68.6196,-2184.13,0,0
53474.25,69.3185,-2173.7,0,0
53734.575,69.4456,-2162.94,0,0
53994.9,69.8284,-2152.09,0,0
54255.225,70.8209,-2141.75,0,0
54515.55,71.7115,-2132.44,0,0
54775.875,70.894,-2123.64,0,0
55036.2,70.0032,-2113.64,0,0
55296.525,69.299,-2104.33,0,0
55556.85,67.9728,-2095.11,0,0
55817.175,66.2398,-2084.24,0,0
56077.5,65.4019,-2073.95,0,0
56337.825,64.5067,-2063.46,0,0
56598.15,63.571,-2053.05,0,0
56858.475,62.7627,-2042.37,0,0
57118.8,62.3938,-2031.54,0,0
57379.125,62.1769,-2020.97,0,0
57639.45,62.199,-2010.75,0,0
57899.775,62.2807,-2000.74,0,0
58160.1,62.3687,-1990.66,0,0
58420.4,62.2506,-1980.82,0,0
58680.7,62.3592,-1970.97,0,0
58941.1,62.4405,-1961.25,0,0
59201.4,62.6049,-1951.53,0,0
59461.7,62.8955,-1941.98,0,0
59722,63.2003,-1932.61,0,0
59982.4,63.4317,-1923.34,0,0
60242.7,63.5997,-1914.12,0,0
60503,63.9261,-1904.79,0,0
60763.3,64.3667,-1895.74,0,0
61023.7,64.7933,-1886.6,0,0
61284,65.2246,-1877.56,0,0
61544.3,65.9896,-1868.76,0,0
61804.6,66.2247,-1860.46,0,0
62065,66.5571,-1851.48,0,0
62325.3,67.049,-1842.79,0,0
62585.6,67.6774,-1834.13,0,0
62845.9,68.4338,-1825.15,0,0
63106.3,69.721,-1816.74,0,0
63366.6,70.2967,-1808.51,0,0
63626.9,71.4357,-1799.73,0,0
63887.2,72.9731,-1791.25,0,0
64147.6,74.9134,-1783.02,0,0
64407.9,76.8357,-1775.22,0,0
64668.2,79.3745,-1767.67,0,0
64928.5,82.1833,-1760.25,0,0
65188.9,86.0172,-1754.51,0,0
65449.2,88.554,-1750.26,0,0
65709.5,90.7035,-1745.89,0,0
65969.8,93.3204,-1743.61,0,0
66230.2,92.1007,-1743.63,0,0
66490.5,87.2479,-1740.62,0,0
66750.8,81.4854,-1735.01,0,0
67011.1,78.6326,-1725.65,0,0
67271.5,77.3751,-1717.87,0,0
67531.8,75.732,-1709.7,0,0
67792.1,75.6109,-1701.77,0,0
68052.4,75.8987,-1693.74,0,0
68312.8,77.1891,-1687.24,0,0
68573.1,76.9287,-1681.28,0,0
68833.4,76.7302,-1674.92,0,0
69093.7,77.0309,-1668.69,0,0
69354.1,77.0514,-1663.09,0,0
69614.4,76.7571,-1657.83,0,0
69874.7,75.9043,-1652.13,0,0
70135,74.6728,-1646.53,0,0
70395.4,73.429,-1640.31,0,0
70655.7,72.4344,-1634.21,0,0
70916,71.1883,-1627.86,0,0
71176.3,70.3015,-1621.06,0,0
71436.7,69.6652,-1614.61,0,0
71697,68.9968,-1607.72,0,0
71957.3,68.9267,-1601.1,0,0
72217.6,68.8851,-1594.93,0,0
72478,68.9235,-1588.79,0,0
72738.3,68.8238,-1583.04,0,0
72998.6,68.5053,-1577.47,0,0
73258.9,67.9416,-1571.8,0,0
73519.3,67.4004,-1565.97,0,0
73779.6,66.9268,-1560.29,0,0
74039.9,66.3097,-1554.76,0,0
74300.225,65.5544,-1548.97,0,0
74560.55,64.8582,-1543.19,0,0
74820.875,64.1367,-1537.43,0,0
75081.2,63.4974,-1531.71,0,0
75341.525,62.691,-1525.8,0,0
75601.85,62.1353,-1520.02,0,0
75862.175,61.4554,-1514.1,0,0
76122.5,60.7941,-1508.26,0,0
76382.825,60.2919,-1502.31,0,0
76643.15,59.8468,-1496.46,0,0
76903.475,59.3578,-1490.64,0,0
77163.8,58.9697,-1484.89,0,0
77424.125,58.6303,-1479.16,0,0
77684.45,58.1534,-1473.56,0,0
77944.775,57.6983,-1467.88,0,0
78205.1,57.2775,-1462.19,0,0
78465.425,56.9553,-1456.54,0,0
78725.75,56.5768,-1450.88,0,0
78986.075,56.1983,-1445.3,0,0
79246.4,55.9037,-1439.68,0,0
79506.725,55.6156,-1434.04,0,0
79767.05,55.3377,-1428.59,0,0
80027.375,55.072,-1423.02,0,0
80287.7,54.9021,-1417.53,0,0
80548.025,54.6969,-1412.1,0,0
80808.35,54.4724,-1406.74,0,0
81068.675,54.3242,-1401.31,0,0
81329.0,54.1387,-1395.96,0,0
81589.325,54.0395,-1390.56,0,0
81849.65,53.9222,-1385.33,0,0
82109.975,53.7628,-1379.99,0,0
82370.3,53.6908,-1374.77,0,0
82630.625,53.5806,-1369.56,0,0
82890.95,53.5299,-1364.4,0,0
83151.275,53.4965,-1359.23,0,0
83411.6,53.3997,-1354.17,0,0
83671.925,53.3902,-1349.09,0,0
83932.25,53.3401,-1343.93,0,0
84192.575,53.3583,-1338.92,0,0
84452.9,53.3197,-1333.9,0,0
84713.225,53.3116,-1329.02,0,0
84973.55,53.3487,-1324.06,0,0
85233.875,53.3738,-1319.07,0,0
85494.2,53.3789,-1314.15,0,0
85754.525,53.4654,-1309.26,0,0
86014.85,53.5902,-1304.46,0,0
86275.175,53.5432,-1299.7,0,0
86535.5,53.67,-1294.95,0,0
86795.825,53.6791,-1290.1,0,0
87056.15,53.6667,-1285.2,0,0
87316.475,53.734,-1280.48,0,0
87576.8,54.0022,-1275.71,0,0
87837.125,54.1491,-1271,0,0
88097.45,54.3263,-1266.26,0,0
88357.775,54.4141,-1261.69,0,0
88618.1,54.5456,-1256.86,0,0
88878.425,54.7875,-1252.05,0,0
89138.75,55.2719,-1247.33,0,0
89399.075,55.6107,-1242.77,0,0
89659.4,56.2504,-1238.19,0,0
89919.725,56.7594,-1233.78,0,0
90180,57.464,-1229.49,0,0
90440.4,57.7666,-1225.35,0,0
90700.7,58.1708,-1220.99,0,0
90961,58.6486,-1216.79,0,0
91221.3,59.3565,-1212.47,0,0
91481.7,59.914,-1208.48,0,0
91742,60.4622,-1204.51,0,0
92002.3,61.0975,-1200.48,0,0
92262.6,61.8529,-1196.57,0,0
92523,62.6385,-1192.94,0,0
92783.3,63.3416,-1189.5,0,0
93043.6,63.7496,-1185.9,0,0
93303.9,64.4833,-1182.4,0,0
93564.3,65.0992,-1179.34,0,0
93824.6,65.6647,-1176.31,0,0
94084.9,65.9537,-1173.73,0,0
94345.2,65.8859,-1170.95,0,0
94605.6,65.6974,-1168.45,0,0
94865.9,65.112,-1166.22,0,0
95126.2,63.4943,-1163.5,0,0
95386.5,61.6634,-1159.88,0,0
95646.9,60.4635,-1155.46,0,0
95907.2,59.7779,-1151.21,0,0
96167.5,59.1288,-1146.91,0,0
96427.8,58.8752,-1142.45,0,0
96688.2,58.9093,-1138.26,0,0
96948.5,58.8321,-1134.37,0,0
97208.8,58.7523,-1130.39,0,0
97469.1,58.7429,-1126.52,0,0
97729.5,58.7566,-1122.7,0,0
97989.8,58.7129,-1119.03,0,0
98250.1,58.603,-1115.28,0,0
98510.4,58.4583,-1111.54,0,0
98770.8,58.4144,-1107.85,0,0
99031.1,58.3185,-1104.16,0,0
99291.4,58.0623,-1100.6,0,0
99551.7,57.7832,-1096.78,0,0
99812.1,57.4759,-1093.01,0,0
100072,57.2772,-1089.16,0,0
100333,57.1077,-1085.38,0,0
100593,56.8925,-1081.45,0,0
100853,56.7344,-1077.48,0,0
101114,56.647,-1073.42,0,0
101374,56.6318,-1069.26,0,0
101634,56.8632,-1065.11,0,0
101895,57.183,-1061.11,0,0
102155,57.4626,-1057.05,0,0
102415,57.9987,-1052.9,0,0
102676,58.878,-1048.94,0,0
102936,59.8735,-1045.41,0,0
103196,60.599,-1042.18,0,0
103457,61.2162,-1038.86,0,0
103717,61.7966,-1035.57,0,0
103977,62.4348,-1032.17,0,0
104238,63.5516,-1028.88,0,0
104498,64.7064,-1026.36,0,0
104758,65.1378,-1024.35,0,0
105019,65.056,-1022,0,0
105279,64.7931,-1019.44,0,0
105539,64.639,-1016.64,0,0
105800,64.541,-1014.07,0,0
106060,64.0462,-1011.41,0,0
106320.175,63.39,-1008.54,0,0
106580.5,62.8758,-1005.48,0,0
106840.825,62.3166,-1002.37,0,0
107101.15,61.7453,-999.196,0,0
107361.475,61.1252,-995.825,0,0
107621.8,60.6399,-992.333,0,0
107882.125,60.1365,-988.819,0,0
108142.45,59.7937,-985.192,0,0
108402.775,59.5879,-981.625,0,0
108663.1,59.2224,-978.078,0,0
108923.425,58.9586,-974.298,0,0
109183.75,58.8743,-970.454,0,0
109444.075,58.8791,-966.639,0,0
109704.4,59.0263,-962.921,0,0
109964.725,59.2059,-959.222,0,0
110225.05,59.2748,-955.445,0,0
110485.375,59.5955,-951.664,0,0
110745.7,60.1102,-947.933,0,0
111006.025,60.7693,-944.3,0,0
111266.35,61.4067,-940.97,0,0
111526.675,61.9862,-937.699,0,0
111787.0,62.4203,-934.439,0,0
112047.325,62.8719,-931.254,0,0
112307.65,63.4063,-927.921,0,0
112567.975,63.8732,-924.883,0,0
112828.3,64.1495,-921.736,0,0
113088.625,64.5197,-918.536,0,0
113348.95,64.8896,-915.299,0,0
113609.275,65.3098,-912.113,0,0
113869.6,65.6695,-908.691,0,0
114129.925,66.1542,-905.528,0,0
114390.25,66.5821,-902.314,0,0
114650.575,67.0531,-899.026,0,0
114910.9,67.6857,-895.745,0,0
115171.225,68.3421,-892.494,0,0
115431.55,68.9374,-889.268,0,0
115691.875,69.6223,-886.069,0,0
115952.2,70.4218,-882.925,0,0
116212.525,71.1127,-879.709,0,0
116472.85,71.9622,-876.469,0,0
116733.175,73.0112,-873.317,0,0
116993.5,74.0512,-870.41,0,0
117253.825,74.8695,-867.489,0,0
117514.15,75.8487,-864.263,0,0
117774.475,77.2596,-861.192,0,0
118034.8,78.7183,-858.332,0,0
118295.125,80.369,-855.789,0,0
118555.45,81.9293,-853.69,0,0
118815.775,83.1151,-851.703,0,0
119076.1,84.1057,-849.564,0,0
119336.425,85.3483,-847.272,0,0
119596.75,87.017,-845.202,0,0
119857.075,88.7649,-843.972,0,0
120117.4,89.764,-843.433,0,0
120377.725,89.8272,-842.613,0,0
120638.05,89.678,-841.298,0,0
120898.375,89.6386,-839.797,0,0
121158.7,89.4701,-838.409,0,0
121419.025,88.8113,-836.881,0,0
121679.35,88.0912,-834.81,0,0
121939.675,87.6264,-832.329,0,0
122200.0,87.4201,-829.761,0,0
122460,87.3898,-827.231,0,0
122721,87.4532,-824.767,0,0
122981,87.6116,-822.286,0,0
123241,87.9536,-819.914,0,0
123502,88.2029,-817.849,0,0
123762,88.2845,-815.668,0,0
124022,88.4094,-813.452,0,0
124283,88.5674,-811.264,0,0
124543,88.7431,-809.111,0,0
124803,88.8812,-807.029,0,0
125064,88.9955,-804.936,0,0
125324,89.0531,-802.931,0,0
125584,89.03,-800.918,0,0
125845,89.0206,-798.897,0,0
126105,88.9696,-796.957,0,0
126365,88.722,-795.032,0,0
126626,88.4272,-793.013,0,0
126886,88.0397,-790.911,0,0
127146,87.7431,-788.648,0,0
127406,87.3051,-786.65,0,0
127667,86.8405,-784.364,0,0
127927,86.3951,-781.934,0,0
128187,85.9372,-779.529,0,0
128448,85.3803,-777.105,0,0
128708,84.8613,-774.401,0,0
128968,84.5357,-771.617,0,0
129229,84.3506,-768.827,0,0
129489,84.2144,-766.112,0,0
129749,84.0182,-763.297,0,0
130010,83.9559,-760.326,0,0
130270,84.2356,-757.357,0,0
130530,84.6577,-754.671,0,0
130791,85.1965,-752.215,0,0
131051,85.5138,-750.1,0,0
131311,85.5498,-747.919,0,0
131572,85.5606,-745.638,0,0
131832,85.5258,-743.452,0,0
132092,85.389,-741.251,0,0
132353,85.081,-738.824,0,0
132613,84.9681,-736.328,0,0
132873,84.9903,-733.898,0,0
133134,84.8496,-731.57,0,0
133394,84.6608,-729.249,0,0
133654,84.3987,-726.868,0,0
133915,84.1242,-724.416,0,0
134175,83.7924,-721.872,0,0
134435,83.5873,-719.282,0,0
134696,83.3112,-716.77,0,0
134956,82.8901,-714.17,0,0
135216,82.5568,-711.38,0,0
135477,82.3899,-708.618,0,0
135737,82.1687,-705.916,0,0
135997,81.8273,-703.132,0,0
136258,81.5949,-700.132,0,0
136518,81.3508,-697.223,0,0
136778,81.1908,-694.096,0,0
137039,81.2344,-690.985,0,0
137299,81.4207,-687.923,0,0
137559,81.6891,-684.987,0,0
137819,81.8524,-682.147,0,0
138080,82.0618,-679.187,0,0
138340.125,82.4694,-676.33,0,0
138600.45,82.937,-673.754,0,0
138860.775,83.0893,-671.408,0,0
139121.1,82.9191,-668.864,0,0
139381.425,82.8149,-666.132,0,0
139641.75,82.6942,-663.389,0,0
139902.075,82.5071,-660.531,0,0
140162.4,82.3872,-657.499,0,0
140422.725,82.4132,-654.469,0,0
140683.05,82.5268,-651.467,0,0
140943.375,82.6376,-648.569,0,0
141203.7,82.6346,-645.68,0,0
141464.025,82.5892,-642.741,0,0
141724.35,82.4627,-639.714,0,0
141984.675,82.3578,-636.538,0,0
142245.0,82.3679,-633.29,0,0
142505.325,82.4384,-630.125,0,0
142765.65,82.4519,-626.852,0,0
143025.975,82.4844,-623.482,0,0
143286.3,82.5766,-620.074,0,0
143546.625,82.6911,-616.663,0,0
143806.95,82.9018,-613.11,0,0
144067.275,83.2019,-609.573,0,0
144327.6,83.5415,-606.063,0,0
144587.925,83.9273,-602.539,0,0
144848.25,84.3014,-599.023,0,0
145108.575,84.6766,-595.391,0,0
145368.9,85.1255,-591.756,0,0
145629.225,85.5728,-588.048,0,0
145889.55,86.0915,-584.297,0,0
146149.875,86.6584,-580.471,0,0
146410.2,87.3003,-576.608,0,0
146670.525,88.0658,-572.666,0,0
146930.85,88.92,-568.726,0,0
147191.175,89.8425,-564.752,0,0
147451.5,90.8716,-560.746,0,0
147711.825,91.9871,-556.776,0,0
147972.15,93.1514,-552.784,0,0
148232.475,94.4351,-548.777,0,0
148492.8,95.7786,-544.754,0,0
148753.125,97.1858,-540.686,0,0
149013.45,98.7133,-536.588,0,0
149273.775,100.383,-532.438,0,0
149534.1,102.236,-528.275,0,0
149794.425,104.3,-524.146,0,0
150054.75,106.505,-520.101,0,0
150315.075,108.902,-516.128,0,0
150575.4,111.521,-512.333,0,0
150835.725,114.216,-508.778,0,0
151096.05,116.917,-505.362,0,0
151356.375,119.743,-502.124,0,0
151616.7,122.515,-499.17,0,0
151877.025,125.138,-496.321,0,0
152137.35,127.7,-493.481,0,0
152397.675,130.338,-490.694,0,0
152658.0,132.956,-488.089,0,0
152918.325,135.58,-485.654,0,0
153178.65,137.984,-483.465,0,0
153438.975,140.012,-481.257,0,0
153699.3,141.895,-478.813,0,0
153959.625,143.835,-476.231,0,0
154219.95,145.983,-473.64,0,0
154480,147.968,-471.458,0,0
154741,149.244,-469.088,0,0
155001,150.378,-466.212,0,0
155261,151.746,-462.531,0,0
155522,154.017,-458.709,0,0
155782,156.648,-455.499,0,0
156042,158.912,-452.688,0,0
156303,160.92,-449.567,0,0
156563,162.943,-446.117,0,0
156823,165.324,-442.391,0,0
157084,168.215,-438.655,0,0
157344,171.431,-435.26,0,0
157604,174.852,-432.237,0,0
157864,178.189,-429.602,0,0
158125,181.279,-427.356,0,0
158385,183.884,-425.367,0,0
158645,186.146,-423.246,0,0
158906,187.554,-420.867,0,0
159166,189.07,-417.25,0,0
159426,191.138,-413.889,0,0
159687,192.463,-410.246,0,0
159947,193.918,-405.275,0,0
160207,196.461,-399.76,0,0
160468,199.579,-394.169,0,0
160728,203.252,-388.115,0,0
160988,208.345,-382.029,0,0
161249,214.245,-377.027,0,0
161509,219.673,-372.795,0,0
161769,224.626,-367.899,0,0
162030,231.035,-362.119,0,0
162290,238.819,-357.369,0,0
162550,246.867,-353.654,0,0
162811,254.673,-350.465,0,0
163071,262.7,-347.434,0,0
163331,270.922,-344.702,0,0
163592,279.74,-342.132,0,0
163852,289.098,-340.324,0,0
164112,298.575,-339.585,0,0
164373,307.422,-339.093,0,0
164633,316.867,-338.207,0,0
164893,327.688,-337.845,0,0
165154,339.485,-339.464,0,0
165414,350.545,-343.337,0,0
165674,360.085,-348.111,0,0
165935,368.975,-352.821,0,0
166195,378.056,-358.091,0,0
166455,386.26,-364.969,0,0
166716,393.029,-371.814,0,0
166976,399.646,-378.783,0,0
167236,405.063,-386.569,0,0
167497,409.609,-394.026,0,0
167757,413.893,-401.242,0,0
168017,418.076,-408.863,0,0
168277,421.375,-417.702,0,0
168538,422.681,-426.617,0,0
168798,422.535,-434.186,0,0
169058,422.746,-440.191,0,0
169319,424.17,-446.645,0,0
169579,425.003,-455.106,0,0
169839,422.848,-464.18,0,0
170100,418.088,-471.275,0,0
170360.075,413.141,-475.552,0,0
170620.4,409.23,-478.54,0,0
170880.725,405.606,-481.169,0,0
171141.05,401.834,-483.076,0,0
171401.375,398.168,-483.706,0,0
171661.7,395.703,-483.1,0,0
171922.025,394.565,-482.695,0,0
172182.35,393.816,-482.395,0,0
172442.675,393.668,-482.198,0,0
172703.0,393.668,-482.162,0,0
172963.325,394.323,-481.809,0,0
173223.65,395.77,-482.106,0,0
173483.975,397.223,-482.969,0,0
173744.3,398.869,-483.871,0,0
174004.625,401.184,-485.153,0,0
174264.95,404.086,-487.874,0,0
174525.275,405.981,-492.036,0,0
174785.6,406.659,-496.439,0,0
175045.925,406.385,-500.784,0,0
175306.25,405.564,-504.483,0,0
175566.575,404.845,-508.271,0,0
175826.9,403.555,-512.419,0,0
176087.225,401.027,-516.385,0,0
176347.55,397.93,-519.118,0,0
176607.875,395.613,-521.147,0,0
176868.2,393.49,-523.771,0,0
177128.525,390.685,-526.79,0,0
177388.85,386.954,-529.384,0,0
177649.175,382.962,-531.239,0,0
177909.5,378.576,-533.05,0,0
178169.825,373,-533.875,0,0
178430.15,367.355,-532.687,0,0
178690.475,362.898,-530.191,0,0
178950.8,359.763,-527.151,0,0
179211.125,357.868,-524.56,0,0
179471.45,355.77,-522.708,0,0
179731.775,353.364,-520.241,0,0
179992.1,351.713,-516.956,0,0
180252.425,351.152,-513.45,0,0
180512.75,351.893,-510.417,0,0
180773.075,353.146,-508.588,0,0
181033.4,354.078,-507.608,0,0
181293.725,354.701,-506.789,0,0
181554.05,355.678,-505.949,0,0
181814.375,357.024,-505.93,0,0
182074.7,358.027,-507.395,0,0
182335.025,357.469,-509.782,0,0
182595.35,355.127,-511.47,0,0
182855.675,352.308,-511.907,0,0
183116.0,349.562,-511.559,0,0
183376.325,346.861,-510.685,0,0
183636.65,344.315,-509.491,0,0
183896.975,341.825,-507.932,0,0
184157.3,339.52,-506.105,0,0
184417.625,337.225,-504.05,0,0
184677.95,335.092,-501.615,0,0
184938.275,332.963,-498.945,0,0
185198.6,331.047,-495.804,0,0
185458.925,329.543,-492.401,0,0
185719.25,328.308,-488.924,0,0
185979.575,327.245,-485.31,0,0
186239.9,326.309,-481.377,0,0
186500,325.732,-477.081,0,0
186761,325.814,-472.271,0,0
187021,326.762,-467.629,0,0
187281,328.392,-463.571,0,0
187542,330.103,-460.103,0,0
187802,331.818,-456.732,0,0
188062,333.704,-453.526,0,0
188322,335.897,-450.561,0,0
188583,338.326,-448.179,0,0
188843,340.276,-446.545,0,0
189103,341.529,-444.79,0,0
189364,342.311,-442.563,0,0
189624,343.396,-439.549,0,0
189884,345.032,-436.483,0,0
190145,347.19,-433.746,0,0
190405,349.391,-431.352,0,0
190665,351.495,-429.296,0,0
190926,353.308,-427.214,0,0
191186,354.937,-425.112,0,0
191446,356.371,-422.7,0,0
191707,357.96,-419.982,0,0
191967,359.855,-417.052,0,0
192227,361.928,-414.116,0,0
192488,364.011,-411.2,0,0
192748,366.036,-408.015,0,0
193008,368.424,-404.368,0,0
193269,371.368,-400.586,0,0
193529,374.862,-396.907,0,0
193789,378.575,-393.177,0,0
194050,382.646,-389.209,0,0
194310,387.799,-385.085,0,0
194570,393.885,-381.626,0,0
194831,400.913,-378.93,0,0
195091,408.328,-377.447,0,0
195351,415.753,-377.294,0,0
195612,422.579,-378.152,0,0
195872,428.856,-379.348,0,0
196132,434.687,-380.812,0,0
196393,440.404,-382.657,0,0
196653,445.747,-385.125,0,0
196913,450.799,-388.097,0,0
197174,454.865,-391.831,0,0
197434,457.685,-395.362,0,0
197694,460.017,-398.434,0,0
197955,462.18,-400.953,0,0
198215,464.188,-403.692,0,0
198475,465.498,-406.504,0,0
198735,465.669,-408.851,0,0
198996,465.276,-409.687,0,0
199256,465.813,-409.35,0,0
199516,467.397,-408.988,0,0
199777,469.547,-409.032,0,0
200037,471.456,-409.908,0,0
200297,472.252,-410.884,0,0
200558,472.373,-410.832,0,0
200818,472.843,-409.458,0,0
201078,474.352,-407.673,0,0
201339,476.348,-406.062,0,0
201599,478.494,-404.455,0,0
201859,480.705,-402.57,0,0
202120,483.323,-400.112,0,0
202380.025,486.899,-397.36,0,0
202640.35,491.52,-394.809,0,0
202900.675,496.796,-392.815,0,0
203161.0,502.456,-391.256,0,0
203421.325,508.726,-390.217,0,0
203681.65,515.444,-389.914,0,0
203941.975,522.272,-390.525,0,0
204202.3,528.991,-391.986,0,0
204462.625,535.207,-394.014,0,0
204722.95,541.141,-396.261,0,0
204983.275,547.332,-398.755,0,0
205243.6,553.273,-402.319,0,0
205503.925,558.294,-406.673,0,0
205764.25,562.207,-411.219,0,0
206024.575,565.092,-415.427,0,0
206284.9,567.264,-418.879,0,0
206545.225,569.239,-421.354,0,0
206805.55,571.606,-423.181,0,0
207065.875,574.258,-424.659,0,0
207326.2,577.208,-425.907,0,0
207586.525,580.469,-426.981,0,0
207846.85,584.094,-427.81,0,0
208107.175,588.182,-428.501,0,0
208367.5,593.028,-429.133,0,0
208627.825,598.492,-430.216,0,0
208888.15,604.227,-431.738,0,0
209148.475,610.404,-433.69,0,0
209408.8,616.956,-436.2,0,0
209669.125,623.682,-439.456,0,0
209929.45,630.319,-443.392,0,0
210189.775,636.647,-447.939,0,0
210450.1,642.79,-452.821,0,0
210710.425,648.766,-458.07,0,0
210970.75,654.45,-463.781,0,0
211231.075,659.774,-469.736,0,0
211491.4,664.882,-475.869,0,0
211751.725,669.798,-482.262,0,0
212012.05,674.543,-488.754,0,0
212272.375,679.039,-495.493,0,0
212532.7,683.308,-502.295,0,0
212793.025,687.588,-509.135,0,0
213053.35,691.925,-516.378,0,0
213313.675,696.12,-524.033,0,0
213574.0,700.101,-532.121,0,0
213834.325,703.794,-540.51,0,0
214094.65,707.019,-549.54,0,0
214354.975,709.503,-558.681,0,0
214615.3,711.507,-567.637,0,0
214875.625,713.558,-576.563,0,0
215135.95,715.371,-585.887,0,0
215396.275,716.474,-595.477,0,0
215656.6,717.181,-604.968,0,0
215916.925,717.828,-614.253,0,0
216177.25,718.304,-623.862,0,0
216437.575,718.489,-633.893,0,0
216697.9,718.07,-644.559,0,0
216958.225,716.576,-655.403,0,0
217218.55,713.82,-665.777,0,0
217478.875,710.801,-675.345,0,0
217739.2,707.757,-684.606,0,0
217999.525,704.397,-694.05,0,0
218259.85,700.258,-703.257,0,0
218520,695.74,-712.024,0,0
218780,690.696,-720.412,0,0
219041,685.026,-728.092,0,0
219301,679.463,-734.597,0,0
219561,674.483,-740.245,0,0
219822,670.285,-745.899,0,0
220082,666.857,-751.799,0,0
220342,663.73,-758.631,0,0
220603,660.188,-766.398,0,0
220863,655.626,-774.628,0,0
221123,649.891,-782.836,0,0
221384,643.466,-790.328,0,0
221644,636.725,-797.264,0,0
221904,629.731,-804.037,0,0
222165,622.081,-810.507,0,0
222425,613.901,-816.309,0,0
222685,605.701,-821.431,0,0
222946,597.344,-826.474,0,0
223206,588.207,-830.908,0,0
223466,578.521,-834.107,0,0
223727,568.894,-836.121,0,0
223987,559.707,-836.675,0,0
224247,551.617,-836.477,0,0
224508,544.565,-835.92,0,0
224768,538.132,-835.074,0,0
225028,532.418,-834.271,0,0
225289,527.323,-833.28,0,0
225549,523.269,-832.506,0,0
225809,519.92,-832.142,0,0
226070,517.018,-832.388,0,0
226330,514.472,-833.594,0,0
226590,511.548,-835.552,0,0
226851,508.242,-837.934,0,0
227111,504.504,-840.603,0,0
227371,500.364,-843.284,0,0
227632,495.769,-846.011,0,0
227892,490.99,-848.383,0,0
228152,486.187,-850.791,0,0
228413,481.25,-853.269,0,0
228673,475.867,-855.844,0,0
228933,469.956,-858.19,0,0
229193,463.936,-860.152,0,0
229454,457.628,-861.752,0,0
229714,451.491,-862.921,0,0
229974,445.37,-864.063,0,0
230235,439.049,-864.707,0,0
230495,433.048,-865.33,0,0
230755,426.778,-865.649,0,0
231016,420.492,-865.647,0,0
231276,414.496,-865.367,0,0
231536,408.603,-864.955,0,0
231797,402.852,-864.27,0,0
232057,397.324,-863.501,0,0
232317,391.957,-862.66,0,0
232578,386.751,-861.83,0,0
232838,381.567,-861.029,0,0
233098,376.426,-860.129,0,0
233359,371.352,-859.072,0,0
233619,366.355,-857.976,0,0
233879,361.592,-856.87,0,0
234140,356.784,-855.947,0,0
234400,351.904,-854.84,0,0
234660.3,346.876,-853.695,0,0
234920.625,342.021,-852.388,0,0
235180.95,337.343,-851.079,0,0
235441.275,332.55,-849.901,0,0
235701.6,327.598,-848.649,0,0
235961.925,322.557,-847.269,0,0
236222.25,317.419,-845.551,0,0
236482.575,312.336,-843.633,0,0
236742.9,307.306,-841.469,0,0
237003.225,302.455,-839.122,0,0
237263.55,297.718,-836.733,0,0
237523.875,293.026,-834.246,0,0
237784.2,288.343,-831.584,0,0
238044.525,283.64,-828.751,0,0
238304.85,279.077,-825.625,0,0
238565.175,274.727,-822.271,0,0
238825.5,270.48,-818.783,0,0
239085.825,266.611,-815.07,0,0
239346.15,262.783,-811.31,0,0
239606.475,259.381,-807.356,0,0
239866.8,256.274,-803.477,0,0
240127.125,253.318,-799.455,0,0
240387.45,250.713,-795.58,0,0
240647.775,248.256,-791.624,0,0
240908.1,245.909,-787.84,0,0
241168.425,243.887,-783.956,0,0
241428.75,241.9,-780.371,0,0
241689.075,240.003,-776.661,0,0
241949.4,238.19,-772.909,0,0
242209.725,236.783,-769.089,0,0
242470.05,235.72,-765.368,0,0
242730.375,234.8,-761.991,0,0
242990.7,233.949,-758.735,0,0
243251.025,233.063,-755.627,0,0
243511.35,232.357,-752.499,0,0
243771.675,231.713,-749.625,0,0
244032.0,231.323,-746.88,0,0
244292.325,230.961,-744.48,0,0
244552.65,230.524,-742.325,0,0
244812.975,229.915,-740.254,0,0
245073.3,228.943,-738.089,0,0
245333.625,228.165,-736.154,0,0
245593.95,227.315,-733.903,0,0
245854.275,226.494,-731.714,0,0
246114.6,225.814,-729.566,0,0
246374.925,225.027,-727.537,0,0
246635.25,224.277,-725.481,0,0
246895.575,223.544,-723.501,0,0
247155.9,222.753,-721.546,0,0
247416.225,221.931,-719.504,0,0
247676.55,221.18,-717.509,0,0
247936.875,220.376,-715.427,0,0
248197.2,219.632,-713.239,0,0
248457.525,219.142,-711.04,0,0
248717.85,218.839,-708.907,0,0
248978.175,218.606,-707.062,0,0
249238.5,218.36,-705.283,0,0
249498.825,218.042,-703.669,0,0
249759.15,217.736,-702.098,0,0
250019.475,217.411,-700.584,0,0
250279.8,217.052,-699.368,0,0
250540,216.473,-698.26,0,0
250800,215.759,-697.118,0,0
251061,214.898,-695.957,0,0
251321,213.828,-694.804,0,0
251581,212.626,-693.558,0,0
251842,211.296,-692.133,0,0
252102,209.917,-690.569,0,0
252362,208.398,-688.843,0,0
252623,206.851,-686.867,0,0
252883,205.383,-684.66,0,0
253143,203.94,-682.24,0,0
253404,202.656,-679.538,0,0
253664,201.591,-676.65,0,0
253924,200.75,-673.741,0,0
254185,200.159,-670.714,0,0
254445,199.787,-667.66,0,0
254705,199.501,-664.566,0,0
254966,199.417,-661.487,0,0
255226,199.599,-658.307,0,0
255486,199.923,-655.15,0,0
255747,200.573,-651.914,0,0
256007,201.539,-648.746,0,0
256267,202.913,-645.786,0,0
256528,204.413,-643.077,0,0
256788,206.125,-640.483,0,0
257048,208.038,-638.214,0,0
257309,210.09,-636.235,0,0
257569,212.208,-634.586,0,0
257829,214.247,-633.258,0,0
258090,216.178,-632.208,0,0
258350,217.876,-631.292,0,0
258610,219.392,-630.308,0,0
258871,220.883,-629.205,0,0
259131,222.559,-627.978,0,0
259391,224.556,-626.754,0,0
259651,226.857,-625.719,0,0
259912,229.484,-625.06,0,0
260172,232.195,-624.873,0,0
260432,234.835,-625.157,0,0
260693,237.254,-625.736,0,0
260953,239.702,-626.533,0,0
261213,242.098,-627.685,0,0
261474,244.384,-629.277,0,0
261734,246.414,-631.351,0,0
261994,248.003,-633.738,0,0
262255,249.162,-636.425,0,0
262515,249.822,-639.259,0,0
262775,249.981,-642.183,0,0
263036,249.627,-645.016,0,0
263296,248.843,-647.716,0,0
263556,247.716,-650.251,0,0
263817,246.244,-652.581,0,0
264077,244.58,-654.682,0,0
264337,242.611,-656.642,0,0
264598,240.475,-658.258,0,0
264858,238.074,-659.761,0,0
265118,235.553,-660.949,0,0
265379,232.801,-661.986,0,0
265639,229.955,-662.468,0,0
265899,226.93,-662.792,0,0
266160,224.012,-662.644,0,0
266420,221.182,-662.219,0,0
266680.25,218.422,-661.566,0,0
266940.575,215.706,-660.588,0,0
267200.9,213.107,-659.354,0,0
267461.225,210.744,-657.862,0,0
267721.55,208.603,-656.165,0,0
267981.875,206.733,-654.372,0,0
268242.2,205.084,-652.538,0,0
268502.525,203.615,-650.643,0,0
268762.85,202.266,-648.796,0,0
269023.175,201.044,-646.866,0,0
269283.5,200.008,-644.851,0,0
269543.825,199.182,-642.8,0,0
269804.15,198.54,-640.8,0,0
270064.475,198.076,-638.925,0,0
270324.8,197.705,-637.021,0,0
270585.125,197.473,-635.182,0,0
270845.45,197.345,-633.442,0,0
271105.775,197.31,-631.675,0,0
271366.1,197.416,-630.056,0,0
271626.425,197.615,-628.523,0,0
271886.75,197.828,-627.073,0,0
272147.075,198.213,-625.699,0,0
272407.4,198.653,-624.529,0,0
272667.725,199.095,-623.443,0,0
272928.05,199.395,-622.509,0,0
273188.375,199.667,-621.695,0,0
273448.7,199.789,-620.832,0,0
273709.025,199.848,-619.798,0,0
273969.35,200.041,-618.684,0,0
274229.675,200.297,-617.493,0,0
274490.0,200.772,-616.311,0,0
274750.325,201.43,-615.166,0,0
275010.65,202.142,-614.147,0,0
275270.975,203.009,-613.178,0,0
275531.3,203.997,-612.353,0,0
275791.625,205.034,-611.638,0,0
276051.95,206.196,-611.028,0,0
276312.275,207.496,-610.567,0,0
276572.6,208.953,-610.324,0,0
276832.925,210.452,-610.377,0,0
277093.25,211.965,-610.795,0,0
277353.575,213.397,-611.488,0,0
277613.9,214.632,-612.531,0,0
277874.225,215.634,-613.691,0,0
278134.55,216.48,-615.058,0,0
278394.875,217.122,-616.604,0,0
278655.2,217.515,-618.335,0,0
278915.525,217.643,-620.215,0,0
279175.85,217.434,-622.202,0,0
279436.175,216.8,-624.188,0,0
279696.5,215.84,-626.077,0,0
279956.825,214.521,-627.776,0,0
280217.15,213.011,-629.275,0,0
280477.475,211.258,-630.586,0,0
280737.8,209.391,-631.56,0,0
280998.125,207.453,-632.238,0,0
281258.45,205.631,-632.683,0,0
281518.775,203.868,-633.092,0,0
281779.1,202.065,-633.448,0,0
282039.425,200.253,-633.698,0,0
282299.75,198.369,-633.879,0,0
282560,196.38,-633.946,0,0
282820,194.333,-633.845,0,0
283081,192.268,-633.521,0,0
283341,190.281,-633.008,0,0
283601,188.36,-632.337,0,0
283862,186.535,-631.567,0,0
284122,184.786,-630.697,0,0
284382,183.189,-629.733,0,0
284643,181.618,-628.806,0,0
284903,180.078,-627.771,0,0
285163,178.535,-626.701,0,0
285424,177.011,-625.529,0,0
285684,175.553,-624.212,0,0
285944,174.199,-622.814,0,0
286205,172.968,-621.319,0,0
286465,171.788,-619.733,0,0
286725,170.749,-618.08,0,0
286986,169.838,-616.303,0,0
287246,169.139,-614.468,0,0
287506,168.666,-612.606,0,0
287767,168.377,-610.786,0,0
288027,168.3,-609.044,0,0
288287,168.391,-607.385,0,0
288548,168.67,-605.826,0,0
288808,169.069,-604.494,0,0
289068,169.547,-603.349,0,0
289329,169.997,-602.433,0,0
289589,170.478,-601.714,0,0
289849,170.815,-601.105,0,0
290109,171.06,-600.532,0,0
290370,171.242,-600.007,0,0
290630,171.412,-599.503,0,0
290890,171.584,-599.066,0,0
291151,171.685,-598.684,0,0
291411,171.696,-598.345,0,0
291671,171.631,-598.023,0,0
291932,171.468,-597.65,0,0
292192,171.315,-597.178,0,0
292452,171.148,-596.648,0,0
292713,171.045,-596.071,0,0
292973,170.961,-595.434,0,0
293233,170.953,-594.744,0,0
293494,171.067,-594.045,0,0
293754,171.338,-593.352,0,0
294014,171.738,-592.738,0,0
294275,172.232,-592.256,0,0
294535,172.787,-591.878,0,0
294795,173.416,-591.626,0,0
295056,174.131,-591.521,0,0
295316,174.858,-591.63,0,0
295576,175.597,-591.968,0,0
295837,176.207,-592.539,0,0
296097,176.645,-593.294,0,0
296357,176.928,-594.131,0,0
296618,177.041,-595.032,0,0
296878,177.037,-596.025,0,0
297138,176.874,-597.106,0,0
297399,176.514,-598.189,0,0
297659,175.974,-599.322,0,0
297919,175.231,-600.436,0,0
298180,174.276,-601.502,0,0
298440,173.168,-602.444,0,0
298700.2,171.905,-603.264,0,0
298960.525,170.534,-603.916,0,0
299220.85,169.141,-604.43,0,0
299481.175,167.721,-604.847,0,0
299741.5,166.268,-605.17,0,0
300001.825,164.804,-605.402,0,0
300262.15,163.334,-605.552,0,0
300522.475,161.81,-605.657,0,0
300782.8,160.279,-605.638,0,0
301043.125,158.744,-605.543,0,0
301303.45,157.194,-605.39,0,0
301563.775,155.605,-605.154,0,0
301824.1,154.04,-604.803,0,0
302084.425,152.495,-604.347,0,0
302344.75,150.979,-603.82,0,0
302605.075,149.538,-603.186,0,0
302865.4,148.146,-602.53,0,0
303125.725,146.81,-601.804,0,0
303386.05,145.523,-601.085,0,0
303646.375,144.272,-600.332,0,0
303906.7,143.021,-599.539,0,0
304167.025,141.786,-598.689,0,0
304427.35,140.617,-597.78,0,0
304687.675,139.512,-596.843,0,0
304948.0,138.479,-595.879,0,0
305208.325,137.499,-594.914,0,0
305468.65,136.562,-593.966,0,0
305728.975,135.677,-593.031,0,0
305989.3,134.79,-592.056,0,0
306249.625,133.957,-591.085,0,0
306509.95,133.141,-590.095,0,0
306770.275,132.382,-589.06,0,0
307030.6,131.71,-588.033,0,0
307290.925,131.09,-587.015,0,0
307551.25,130.572,-586.058,0,0
307811.575,130.075,-585.139,0,0
308071.9,129.636,-584.272,0,0
308332.225,129.218,-583.494,0,0
308592.55,128.78,-582.81,0,0
308852.875,128.327,-582.174,0,0
309113.2,127.819,-581.593,0,0
309373.525,127.239,-581.035,0,0
309633.85,126.618,-580.499,0,0
309894.175,125.942,-579.95,0,0
310154.5,125.207,-579.373,0,0
310414.825,124.412,-578.779,0,0
310675.15,123.603,-578.116,0,0
310935.475,122.79,-577.437,0,0
311195.8,121.966,-576.692,0,0
311456.125,121.137,-575.922,0,0
311716.45,120.332,-575.128,0,0
311976.775,119.484,-574.331,0,0
312237.1,118.608,-573.501,0,0
312497.425,117.7,-572.582,0,0
312757.75,116.79,-571.588,0,0
313018.075,115.875,-570.493,0,0
313278.4,115.042,-569.279,0,0
313538.725,114.268,-568.007,0,0
313799.05,113.615,-566.674,0,0
314059.375,113.031,-565.305,0,0
314319.7,112.545,-563.922,0,0
314580,112.164,-562.536,0,0
314840,111.897,-561.075,0,0
315101,111.674,-559.654,0,0
315361,111.607,-558.286,0,0
315621,111.714,-556.967,0,0
315882,111.893,-555.757,0,0
316142,112.101,-554.619,0,0
316402,112.428,-553.563,0,0
316663,112.764,-552.66,0,0
316923,113.009,-551.853,0,0
317183,113.387,-551.179,0,0
317444,113.659,-550.559,0,0
317704,113.956,-550.067,0,0
317964,114.164,-549.69,0,0
318225,114.212,-549.309,0,0
318485,114.218,-548.978,0,0
318745,114.154,-548.525,0,0
319006,114.032,-548.175,0,0
319266,113.991,-547.731,0,0
319526,113.825,-547.449,0,0
319787,113.601,-546.96,0,0
320047,113.38,-546.532,0,0
320307,113.226,-546.011,0,0
320567,113.002,-545.53,0,0
320828,112.825,-544.967,0,0
321088,112.797,-544.417,0,0
321348,112.669,-543.914,0,0
321609,112.624,-543.47,0,0
321869,112.709,-543.018,0,0
322129,112.637,-542.627,0,0
322390,112.619,-542.237,0,0
322650,112.747,-542.006,0,0
322910,112.744,-541.745,0,0
323171,112.766,-541.672,0,0
323431,112.712,-541.608,0,0
323691,112.543,-541.559,0,0
323952,112.345,-541.544,0,0
324212,112.144,-541.613,0,0
324472,111.791,-541.62,0,0
324733,111.405,-541.68,0,0
324993,110.926,-541.677,0,0
325253,110.402,-541.73,0,0
325514,109.829,-541.727,0,0
325774,109.161,-541.808,0,0
326034,108.456,-541.714,0,0
326295,107.674,-541.636,0,0
326555,106.961,-541.411,0,0
326815,106.122,-541.268,0,0
327076,105.291,-541.02,0,0
327336,104.469,-540.701,0,0
327596,103.585,-540.333,0,0
327857,102.745,-539.893,0,0
328117,101.864,-539.469,0,0
328377,101.138,-538.935,0,0
328638,100.268,-538.526,0,0
328898,99.6282,-537.964,0,0
329158,98.8312,-537.414,0,0
329419,98.1167,-536.928,0,0
329679,97.3087,-536.455,0,0
329939,96.6059,-535.906,0,0
330200,95.7604,-535.415,0,0
330460,94.8741,-534.838,0,0
330720.15,94.1399,-534.357,0,0
330980.475,93.2928,-533.688,0,0
331240.8,92.4091,-533.085,0,0
331501.125,91.5753,-532.421,0,0
331761.45,90.6024,-531.803,0,0
332021.775,89.7213,-531.034,0,0
332282.1,88.8357,-530.141,0,0
332542.425,87.9652,-529.416,0,0
332802.75,87.119,-528.557,0,0
333063.075,86.3477,-527.632,0,0
333323.4,85.523,-526.742,0,0
333583.725,84.6888,-525.78,0,0
333844.05,83.8612,-524.789,0,0
334104.375,83.0659,-523.755,0,0
334364.7,82.2634,-522.718,0,0
334625.025,81.4696,-521.601,0,0
334885.35,80.7283,-520.456,0,0
335145.675,80.0799,-519.24,0,0
335406.0,79.4889,-517.939,0,0
335666.325,78.8693,-516.668,0,0
335926.65,78.4037,-515.383,0,0
336186.975,77.936,-514.063,0,0
336447.3,77.5003,-512.757,0,0
336707.625,77.1577,-511.492,0,0
336967.95,76.8288,-510.255,0,0
337228.275,76.6222,-508.953,0,0
337488.6,76.3438,-507.733,0,0
337748.925,76.1427,-506.51,0,0
338009.25,75.9958,-505.272,0,0
338269.575,75.6419,-504.018,0,0
338529.9,75.5776,-502.746,0,0
338790.225,75.4974,-501.478,0,0
339050.55,75.4214,-500.219,0,0
339310.875,75.375,-498.924,0,0
339571.2,75.4472,-497.632,0,0
339831.525,75.5314,-496.353,0,0
340091.85,75.6866,-495.125,0,0
340352.175,75.9819,-493.819,0,0
340612.5,76.295,-492.612,0,0
340872.825,76.6662,-491.571,0,0
341133.15,77.162,-490.491,0,0
341393.475,77.5677,-489.565,0,0
341653.8,78.0156,-488.601,0,0
341914.125,78.6107,-487.754,0,0
342174.45,79.1282,-487.041,0,0
342434.775,79.6011,-486.392,0,0
342695.1,80.0946,-485.811,0,0
342955.425,80.4915,-485.389,0,0
343215.75,80.8657,-484.919,0,0
343476.075,81.2395,-484.532,0,0
343736.4,81.5673,-484.133,0,0
343996.725,81.7245,-483.851,0,0
344257.05,81.9208,-483.525,0,0
344517.375,82.0424,-483.203,0,0
344777.7,82.1389,-482.921,0,0
345038.025,82.1827,-482.555,0,0
345298.35,82.0612,-482.242,0,0
345558.675,82.0234,-481.913,0,0
345819.0,81.9389,-481.585,0,0
346079.325,81.8268,-481.124,0,0
346339.65,81.6897,-480.756,0,0
346599.975,81.5489,-480.254,0,0
346860,81.4218,-479.855,0,0
347121,81.2094,-479.351,0,0
347381,81.0691,-478.832,0,0
347641,80.9166,-478.303,0,0
347902,80.7572,-477.777,0,0
348162,80.5619,-477.121,0,0
348422,80.3861,-476.508,0,0
348683,80.2919,-475.871,0,0
348943,80.201,-475.196,0,0
349203,80.1302,-474.468,0,0
349464,80.1396,-473.716,0,0
349724,80.2117,-473.044,0,0
349984,80.344,-472.343,0,0
350245,80.4712,-471.688,0,0
350505,80.6358,-471.074,0,0
350765,80.8889,-470.521,0,0
351025,81.1744,-469.956,0,0
351286,81.4539,-469.607,0,0
351546,81.6994,-469.216,0,0
351806,81.9614,-468.975,0,0
352067,82.1388,-468.771,0,0
352327,82.2829,-468.647,0,0
352587,82.3322,-468.527,0,0
352848,82.3056,-468.419,0,0
353108,82.2481,-468.399,0,0
353368,82.0287,-468.301,0,0
353629,81.7821,-468.254,0,0
353889,81.4177,-468.079,0,0
354149,81.0294,-467.921,0,0
354410,80.6158,-467.651,0,0
354670,80.1297,-467.353,0,0
354930,79.7157,-466.921,0,0
355191,79.1727,-466.466,0,0
355451,78.7909,-465.984,0,0
355711,78.3827,-465.445,0,0
355972,78.0077,-464.816,0,0
356232,77.6382,-464.174,0,0
356492,77.3247,-463.562,0,0
356753,77.0292,-462.914,0,0
357013,76.7389,-462.254,0,0
357273,76.4526,-461.572,0,0
357534,76.2874,-460.927,0,0
357794,76.0163,-460.261,0,0
358054,75.7665,-459.578,0,0
358315,75.5623,-458.88,0,0
358575,75.4264,-458.139,0,0
358835,75.2196,-457.424,0,0
359096,75.1106,-456.694,0,0
359356,75.0295,-455.968,0,0
359616,74.9054,-455.233,0,0
359877,74.8555,-454.433,0,0
360137,74.858,-453.749,0,0
360397,74.8579,-453.012,0,0
360658,74.8443,-452.325,0,0
360918,74.8598,-451.607,0,0
361178,74.9426,-450.938,0,0
361438,74.9961,-450.234,0,0
361699,75.1025,-449.601,0,0
361959,75.1945,-448.938,0,0
362219,75.3294,-448.332,0,0
362480,75.4564,-447.687,0,0
362740.1,75.6748,-447.145,0,0
363000.425,75.786,-446.524,0,0
363260.75,75.9932,-445.941,0,0
363521.075,76.1472,-445.365,0,0
363781.4,76.4338,-444.857,0,0
364041.725,76.7032,-444.402,0,0
364302.05,76.9937,-443.956,0,0
364562.375,77.308,-443.605,0,0
364822.7,77.6252,-443.329,0,0
365083.025,77.9209,-443.099,0,0
365343.35,78.1688,-442.966,0,0
365603.675,78.382,-442.927,0,0
365864.0,78.4888,-442.976,0,0
366124.325,78.5109,-443.087,0,0
366384.65,78.3861,-443.165,0,0
366644.975,78.1439,-443.269,0,0
366905.3,77.7484,-443.271,0,0
367165.625,77.2908,-443.169,0,0
367425.95,76.798,-443.056,0,0
367686.275,76.2195,-442.76,0,0
367946.6,75.6843,-442.522,0,0
368206.925,75.0253,-442.052,0,0
368467.25,74.3947,-441.512,0,0
368727.575,73.7898,-440.81,0,0
368987.9,73.2448,-439.951,0,0
369248.225,72.7976,-439.046,0,0
369508.55,72.504,-438.037,0,0
369768.875,72.4053,-436.971,0,0
370029.2,72.403,-435.923,0,0
370289.525,72.5532,-434.945,0,0
370549.85,72.7947,-434.091,0,0
370810.175,73.1916,-433.371,0,0
371070.5,73.5628,-432.68,0,0
371330.825,74.0284,-432.214,0,0
371591.15,74.3557,-431.853,0,0
371851.475,74.7156,-431.606,0,0
372111.8,74.9753,-431.427,0,0
372372.125,75.0658,-431.301,0,0
372632.45,75.1321,-431.252,0,0
372892.775,75.1029,-431.113,0,0
373153.1,74.9622,-430.967,0,0
373413.425,74.7572,-430.849,0,0
373673.75,74.5219,-430.676,0,0
373934.075,74.171,-430.412,0,0
374194.4,73.8551,-430.125,0,0
374454.725,73.5064,-429.76,0,0
374715.05,73.1369,-429.285,0,0
374975.375,72.7681,-428.831,0,0
375235.7,72.3927,-428.292,0,0
375496.025,72.083,-427.681,0,0
375756.35,71.7738,-427.016,0,0
376016.675,71.5027,-426.289,0,0
376277.0,71.2688,-425.556,0,0
376537.325,71.1221,-424.748,0,0
376797.65,71.059,-424.003,0,0
377057.975,71.0349,-423.216,0,0
377318.3,71.0768,-422.551,0,0
377578.625,71.1329,-421.886,0,0
377838.95,71.2183,-421.182,0,0
378099.275,71.3131,-420.523,0,0
378359.6,71.4319,-419.914,0,0
378619.925,71.5928,-419.302,0,0
378880,71.7071,-418.743,0,0
379141,71.9299,-418.198,0,0
379401,72.1049,-417.648,0,0
379661,72.2979,-417.143,0,0
379922,72.4794,-416.741,0,0
380182,72.6437,-416.295,0,0
380442,72.8477,-415.888,0,0
380703,72.9536,-415.51,0,0
380963,73.1265,-415.129,0,0
381223,73.2829,-414.785,0,0
381483,73.4339,-414.418,0,0
381744,73.5693,-414.171,0,0
382004,73.7253,-413.88,0,0
382264,73.8307,-413.627,0,0
382525,73.9033,-413.448,0,0
382785,73.9303,-413.239,0,0
383045,73.9061,-413.077,0,0
383306,73.8584,-412.873,0,0
383566,73.7476,-412.732,0,0
383826,73.6648,-412.475,0,0
384087,73.4963,-412.271,0,0
384347,73.2702,-412.059,0,0
384607,73.0518,-411.805,0,0
384868,72.8302,-411.489,0,0
385128,72.5694,-411.2,0,0
385388,72.2503,-410.812,0,0
385649,72.0244,-410.432,0,0
385909,71.6944,-410.003,0,0
386169,71.3757,-409.568,0,0
386430,71.1586,-408.988,0,0
386690,70.8925,-408.459,0,0
386950,70.635,-407.945,0,0
387211,70.4124,-407.384,0,0
387471,70.1949,-406.816,0,0
387731,70.0133,-406.199,0,0
387992,69.7643,-405.588,0,0
388252,69.55,-404.9,0,0
388512,69.3883,-404.304,0,0
388773,69.2223,-403.58,0,0
389033,69.0603,-402.856,0,0
389293,68.9622,-402.094,0,0
389554,68.8597,-401.282,0,0
389814,68.7602,-400.523,0,0
390074,68.8105,-399.697,0,0
390335,68.8783,-398.876,0,0
390595,68.9637,-398.019,0,0
390855,69.0825,-397.203,0,0
391116,69.2986,-396.442,0,0
391376,69.5041,-395.622,0,0
391636,69.7706,-394.844,0,0
391896,70.0885,-394.037,0,0
392157,70.4851,-393.351,0,0
392417,70.8827,-392.606,0,0
392677,71.3376,-391.963,0,0
392938,71.8139,-391.413,0,0
393198,72.3136,-390.845,0,0
393458,72.834,-390.328,0,0
393719,73.377,-389.896,0,0
393979,73.9022,-389.483,0,0
394239,74.4434,-389.097,0,0
394500,74.9483,-388.884,0,0
394760.05,75.47,-388.619,0,0
395020.375,75.9903,-388.41,0,0
395280.7,76.5137,-388.261,0,0
395541.025,76.9542,-388.177,0,0
395801.35,77.3933,-388.151,0,0
396061.675,77.7568,-388.133,0,0
396322.0,78.1107,-388.18,0,0
396582.325,78.462,-388.227,0,0
396842.65,78.7343,-388.319,0,0
397102.975,78.9354,-388.417,0,0
397363.3,79.157,-388.549,0,0
397623.625,79.303,-388.72,0,0
397883.95,79.3574,-388.92,0,0
398144.275,79.3608,-389.096,0,0
398404.6,79.2788,-389.243,0,0
398664.925,79.1454,-389.394,0,0
398925.25,78.9591,-389.489,0,0
399185.575,78.761,-389.561,0,0
399445.9,78.5033,-389.554,0,0
399706.225,78.2227,-389.5,0,0
399966.55,78.0044,-389.431,0,0
400006.6,77.9376,-389.385,0,0