File: Accelerated corrosion test data/2025-10-02_18-00-03/sample_7.csv
Frequency (Hz),Impedance (ohms),Phase (Radians),Temperature (C),Humidity (%)
10000.0,278.305,-12001.1,0,0
10260.325,278.815,-11712.4,0,0
10520.65,262.135,-11415.5,0,0
10780.975,256.184,-11136.4,0,0
11041.3,253.321,-10870.5,0,0
11301.625,250.216,-10617.3,0,0
11561.95,252.365,-10370.7,0,0
11822.275,260.49,-10143.2,0,0
12082.6,265.899,-9920.25,0,0
12342.925,325.507,-9740.78,0,0
12603.25,264.552,-9578.95,0,0
12863.575,270.597,-9379.9,0,0
13123.9,242.189,-9204.06,0,0
13384.225,235.729,-9032.69,0,0
13644.55,226.298,-8849.66,0,0
13904.875,211.525,-8687.15,0,0
14165.2,208.477,-8516.6,0,0
14425.525,209.967,-8378.73,0,0
14685.8,207.654,-8227.56,0,0
14946.175,201.342,-8082.69,0,0
15206.5,201.165,-7952.5,0,0
15466.825,188.356,-7813.13,0,0
15727.15,187.863,-7686.31,0,0
15987.5,182.442,-7558.01,0,0
16247.8,182.385,-7438.77,0,0
16508.125,174.891,-7318.53,0,0
16768.45,174.075,-7200.99,0,0
17028.775,173.63,-7092,0,0
17289.1,170.182,-6984.16,0,0
17549.425,169.332,-6875.82,0,0
17809.75,172.196,-6768.13,0,0
18070.075,172.753,-6671.93,0,0
18330.4,181.93,-6566.38,0,0
18590.725,200.555,-6483.7,0,0
18851.05,195.02,-6417.25,0,0
19111.375,183.429,-6334.3,0,0
19371.7,204.733,-6258.26,0,0
19632.025,172.428,-6189.27,0,0
19892.35,159.636,-6092.91,0,0
20152.675,171.49,-6009.12,0,0
20413.0,173.596,-5936.69,0,0
20673.3,170.988,-5860.44,0,0
20933.65,178.714,-5799.08,0,0
21193.975,161.547,-5738.29,0,0
21454.3,154.108,-5663.86,0,0
21714.625,157.295,-5596.6,0,0
21974.9,149.071,-5534.19,0,0
22235.275,143.721,-5466.88,0,0
22495.6,142.633,-5403.63,0,0
22755.925,137.171,-5341.26,0,0
23016.25,133.668,-5278.39,0,0
23276.6,131.033,-5215.9,0,0
23536.9,131.383,-5156.36,0,0
23797.225,131.064,-5101.64,0,0
24057.55,127.362,-5045.08,0,0
24317.875,125.398,-4988.14,0,0
24578.2,126.615,-4933.54,0,0
24838.525,124.661,-4880.45,0,0
25098.85,123.875,-4829.73,0,0
25359.175,122.893,-4777.27,0,0
25619.5,121.535,-4726.21,0,0
25879.8,121.769,-4676.59,0,0
26140.1,122.157,-4625.14,0,0
26400.5,125.913,-4577.4,0,0
26660.8,125.097,-4533.62,0,0
26921.1,125.22,-4483.44,0,0
27181.4,131.638,-4435.37,0,0
27441.8,135.172,-4391.94,0,0
27702.1,146.818,-4344.05,0,0
27962.4,161.906,-4304.33,0,0
28222.7,181.805,-4280.91,0,0
28483.1,179.582,-4263.58,0,0
28743.4,173.133,-4242.9,0,0
29003.7,158.609,-4214.25,0,0
29264,144.685,-4178.18,0,0
29524.4,136.554,-4137.26,0,0
29784.7,133.033,-4100.05,0,0
30045,129.035,-4058.15,0,0
30305.3,132.923,-4020.46,0,0
30565.7,134.48,-3988.47,0,0
30826,137.039,-3956.8,0,0
31086.3,137.429,-3929.4,0,0
31346.6,133.468,-3901.47,0,0
31607,131.78,-3874.99,0,0
31867.3,122.972,-3844.38,0,0
32127.6,119.909,-3812.78,0,0
32387.9,116.468,-3782.67,0,0
32648.3,112.552,-3752.63,0,0
32908.6,109.598,-3721.8,0,0
33168.9,106.918,-3692.02,0,0
33429.2,104.186,-3662.92,0,0
33689.6,101.625,-3633.04,0,0
33949.9,100.069,-3604.22,0,0
34210.2,97.8856,-3575.75,0,0
34470.5,96.3276,-3547.57,0,0
34730.9,94.9988,-3519.69,0,0
34991.2,93.7846,-3492.12,0,0
35251.5,92.7951,-3465.56,0,0
35511.8,91.7323,-3438.97,0,0
35772.2,91.0693,-3412.68,0,0
36032.5,90.9343,-3387.05,0,0
36292.8,90.3978,-3362.11,0,0
36553.1,89.2776,-3337.36,0,0
36813.5,88.8284,-3312.72,0,0
37073.8,88.3865,-3288.1,0,0
37334.1,88.3827,-3264.71,0,0
37594.4,88.2231,-3241.31,0,0
37854.8,87.5558,-3218.18,0,0
38115.1,87.2302,-3194.15,0,0
38375.4,87.7856,-3171.23,0,0
38635.7,88.5373,-3148.71,0,0
38896.1,90.0275,-3126.2,0,0
39156.4,91.3639,-3105.02,0,0
39416.7,94.2399,-3083.73,0,0
39677,97.5953,-3065.01,0,0
39937.4,98.8049,-3049.16,0,0
40197.7,98.4967,-3032.72,0,0
40458,96.8583,-3016.66,0,0
40718.3,94.022,-2998.78,0,0
40978.7,91.1701,-2980.45,0,0
41239,88.7225,-2961.7,0,0
41499.3,86.8716,-2942.25,0,0
41759.6,85.7954,-2923.38,0,0
42020,84.1823,-2905.28,0,0
42280.275,82.8323,-2885.82,0,0
42540.6,81.9542,-2866.48,0,0
42800.925,82.444,-2848.2,0,0
43061.25,82.435,-2830.15,0,0
43321.575,83.1179,-2813.47,0,0
43581.9,81.814,-2796.5,0,0
43842.225,81.6384,-2778.53,0,0
44102.55,82.9142,-2761.05,0,0
44362.875,84.6569,-2745.8,0,0
44623.2,84.6484,-2730.99,0,0
44883.525,83.8271,-2717.45,0,0
45143.85,82.0298,-2701.88,0,0
45404.175,81.1086,-2686.17,0,0
45664.5,81.2492,-2669.45,0,0
45924.825,82.2608,-2656.06,0,0
46185.15,81.2506,-2642.63,0,0
46445.475,79.3708,-2629.27,0,0
46705.8,76.7849,-2614.63,0,0
46966.125,74.7705,-2599.25,0,0
47226.45,73.7123,-2583.66,0,0
47486.775,73.4362,-2568.44,0,0
47747.1,72.9875,-2553.65,0,0
48007.425,72.7741,-2539.54,0,0
48267.75,72.2841,-2525.41,0,0
48528.075,71.5777,-2511.56,0,0
48788.4,70.8573,-2497.94,0,0
49048.725,70.2638,-2484.04,0,0
49309.05,69.8257,-2470.58,0,0
49569.375,69.2907,-2457.13,0,0
49829.7,68.8729,-2443.45,0,0
50090.025,68.7138,-2430.54,0,0
50350.35,68.3099,-2417.47,0,0
50610.675,68.1608,-2404.6,0,0
50871.0,67.6631,-2391.85,0,0
51131.325,67.2121,-2379.38,0,0
51391.65,66.8535,-2366.79,0,0
51651.975,66.6134,-2354.35,0,0
51912.3,66.3654,-2342.06,0,0
52172.625,66.1957,-2329.8,0,0
52432.95,66.0749,-2317.93,0,0
52693.275,65.7221,-2306.06,0,0
52953.6,65.7584,-2294.19,0,0
53213.925,65.6989,-2282.65,0,0
53474.25,65.4932,-2271.41,0,0
53734.575,65.214,-2260.31,0,0
53994.9,64.7962,-2248.93,0,0
54255.225,64.3433,-2237.81,0,0
54515.55,64.2186,-2226.76,0,0
54775.875,63.8721,-2215.68,0,0
55036.2,63.6731,-2204.82,0,0
55296.525,63.5028,-2193.99,0,0
55556.85,63.2697,-2183.33,0,0
55817.175,63.1179,-2172.82,0,0
56077.5,62.8351,-2162.27,0,0
56337.825,62.8899,-2151.71,0,0
56598.15,62.7841,-2141.59,0,0
56858.475,62.5136,-2131.5,0,0
57118.8,62.3603,-2121.33,0,0
57379.125,62.1652,-2111.29,0,0
57639.45,61.9345,-2101.48,0,0
57899.775,61.8205,-2091.39,0,0
58160.1,61.8403,-2081.31,0,0
58420.4,62.177,-2071.63,0,0
58680.7,62.42,-2062.61,0,0
58941.1,62.1884,-2053.4,0,0
59201.4,61.8664,-2044.14,0,0
59461.7,61.886,-2034.54,0,0
59722,62.0989,-2025.61,0,0
59982.4,62.0288,-2016.74,0,0
60242.7,62.0775,-2008,0,0
60503,61.8074,-1999.43,0,0
60763.3,61.3446,-1990.92,0,0
61023.7,60.9764,-1982.16,0,0
61284,60.5651,-1973.48,0,0
61544.3,60.3759,-1964.89,0,0
61804.6,59.9491,-1956.43,0,0
62065,59.4277,-1947.72,0,0
62325.3,59.1189,-1939.12,0,0
62585.6,58.8882,-1930.7,0,0
62845.9,58.7137,-1922.22,0,0
63106.3,58.5236,-1913.87,0,0
63366.6,58.3484,-1905.6,0,0
63626.9,58.399,-1897.54,0,0
63887.2,58.0625,-1889.46,0,0
64147.6,57.6903,-1881.38,0,0
64407.9,57.4586,-1873.24,0,0
64668.2,57.3385,-1865.18,0,0
64928.5,57.2966,-1857.24,0,0
65188.9,57.4396,-1849.22,0,0
65449.2,57.5011,-1841.55,0,0
65709.5,57.7345,-1834.37,0,0
65969.8,57.465,-1827.03,0,0
66230.2,57.1715,-1819.67,0,0
66490.5,56.914,-1812.39,0,0
66750.8,56.5054,-1805.08,0,0
67011.1,56.1999,-1797.85,0,0
67271.5,55.6905,-1790.53,0,0
67531.8,55.3567,-1783.05,0,0
67792.1,55.1276,-1775.76,0,0
68052.4,54.8815,-1768.43,0,0
68312.8,54.6615,-1761.19,0,0
68573.1,54.4728,-1753.9,0,0
68833.4,54.2739,-1746.81,0,0
69093.7,54.1379,-1739.82,0,0
69354.1,54.1588,-1732.69,0,0
69614.4,54.1207,-1725.73,0,0
69874.7,54.0213,-1718.85,0,0
70135,54.0641,-1712.1,0,0
70395.4,53.8826,-1705.42,0,0
70655.7,53.7889,-1698.64,0,0
70916,53.7781,-1692.1,0,0
71176.3,53.6661,-1685.77,0,0
71436.7,53.567,-1679.14,0,0
71697,53.3313,-1672.79,0,0
71957.3,53.0652,-1666.29,0,0
72217.6,52.8576,-1659.89,0,0
72478,52.6619,-1653.59,0,0
72738.3,52.4194,-1647.12,0,0
72998.6,52.2698,-1640.74,0,0
73258.9,52.066,-1634.43,0,0
73519.3,51.8692,-1628.15,0,0
73779.6,51.7586,-1621.88,0,0
74039.9,51.6521,-1615.74,0,0
74300.225,51.5296,-1609.53,0,0
74560.55,51.4982,-1603.41,0,0
74820.875,51.3872,-1597.31,0,0
75081.2,51.3383,-1591.29,0,0
75341.525,51.1928,-1585.3,0,0
75601.85,51.1918,-1579.37,0,0
75862.175,51.0617,-1573.49,0,0
76122.5,50.8965,-1567.62,0,0
76382.825,50.82,-1561.78,0,0
76643.15,50.7711,-1555.93,0,0
76903.475,50.692,-1550.22,0,0
77163.8,50.6361,-1544.45,0,0
77424.125,50.5341,-1538.67,0,0
77684.45,50.4739,-1533.04,0,0
77944.775,50.4422,-1527.46,0,0
78205.1,50.4071,-1521.9,0,0
78465.425,50.2749,-1516.32,0,0
78725.75,50.2729,-1510.72,0,0
78986.075,50.2115,-1505.24,0,0
79246.4,50.1594,-1499.84,0,0
79506.725,50.087,-1494.41,0,0
79767.05,50.0566,-1489.03,0,0
80027.375,50.0945,-1483.63,0,0
80287.7,50.0769,-1478.33,0,0
80548.025,50.0217,-1473.14,0,0
80808.35,49.9798,-1467.92,0,0
81068.675,49.8849,-1462.64,0,0
81329.0,49.8683,-1457.44,0,0
81589.325,49.7491,-1452.26,0,0
81849.65,49.8172,-1447.12,0,0
82109.975,49.7224,-1442.01,0,0
82370.3,49.6446,-1436.9,0,0
82630.625,49.6978,-1431.78,0,0
82890.95,49.644,-1426.83,0,0
83151.275,49.6372,-1421.84,0,0
83411.6,49.5415,-1416.88,0,0
83671.925,49.5402,-1411.84,0,0
83932.25,49.5493,-1406.88,0,0
84192.575,49.6016,-1401.95,0,0
84452.9,49.6578,-1397.05,0,0
84713.225,49.7561,-1392.28,0,0
84973.55,49.7518,-1387.47,0,0
85233.875,49.8355,-1382.75,0,0
85494.2,49.9202,-1378.04,0,0
85754.525,49.8847,-1373.35,0,0
86014.85,49.7663,-1368.73,0,0
86275.175,49.8803,-1363.96,0,0
86535.5,49.9595,-1359.34,0,0
86795.825,49.8339,-1354.82,0,0
87056.15,49.8002,-1350.18,0,0
87316.475,49.8677,-1345.52,0,0
87576.8,49.9626,-1340.97,0,0
87837.125,50.0514,-1336.53,0,0
88097.45,50.1241,-1332.1,0,0
88357.775,50.1343,-1327.69,0,0
88618.1,50.1426,-1323.27,0,0
88878.425,50.0281,-1318.89,0,0
89138.75,50.0713,-1314.41,0,0
89399.075,49.9563,-1310.1,0,0
89659.4,49.9666,-1305.65,0,0
89919.725,49.9801,-1301.22,0,0
90180,49.9649,-1296.76,0,0
90440.4,50.1739,-1292.43,0,0
90700.7,50.3272,-1288.16,0,0
90961,50.3456,-1283.94,0,0
91221.3,50.3844,-1279.7,0,0
91481.7,50.568,-1275.42,0,0
91742,50.6035,-1271.28,0,0
92002.3,50.5901,-1267.13,0,0
92262.6,50.8698,-1262.87,0,0
92523,50.8987,-1258.91,0,0
92783.3,50.7556,-1254.85,0,0
93043.6,50.5992,-1250.58,0,0
93303.9,50.6739,-1246.2,0,0
93564.3,51.0498,-1241.84,0,0
93824.6,51.571,-1237.44,0,0
94084.9,52.1825,-1233.31,0,0
94345.2,52.9363,-1229.82,0,0
94605.6,53.3334,-1226.43,0,0
94865.9,53.3536,-1223.18,0,0
95126.2,53.1579,-1219.56,0,0
95386.5,53.1625,-1215.94,0,0
95646.9,52.8924,-1212.54,0,0
95907.2,52.3816,-1208.77,0,0
96167.5,52.2705,-1204.62,0,0
96427.8,52.1627,-1200.81,0,0
96688.2,52.0001,-1196.89,0,0
96948.5,51.9888,-1192.91,0,0
97208.8,52.0012,-1188.99,0,0
97469.1,51.9237,-1185.05,0,0
97729.5,52.0906,-1180.94,0,0
97989.8,52.4415,-1177.04,0,0
98250.1,52.6859,-1173.38,0,0
98510.4,52.9469,-1169.73,0,0
98770.8,53.0785,-1166.39,0,0
99031.1,52.975,-1162.76,0,0
99291.4,52.8963,-1159.02,0,0
99551.7,52.79,-1155.37,0,0
99812.1,52.6785,-1151.4,0,0
100072,52.9816,-1147.35,0,0
100333,53.2777,-1143.62,0,0
100593,53.5755,-1140.11,0,0
100853,53.5843,-1136.39,0,0
101114,53.8524,-1132.49,0,0
101374,54.4115,-1128.84,0,0
101634,54.7728,-1125.48,0,0
101895,54.9249,-1122.03,0,0
102155,55.1382,-1118.44,0,0
102415,55.3995,-1114.74,0,0
102676,55.8558,-1111.19,0,0
102936,56.2646,-1107.65,0,0
103196,56.9474,-1104.13,0,0
103457,57.5909,-1100.95,0,0
103717,58.2615,-1097.98,0,0
103977,58.5894,-1095.21,0,0
104238,58.3653,-1092.2,0,0
104498,58.5997,-1088.73,0,0
104758,59.2088,-1085.58,0,0
105019,59.4262,-1082.94,0,0
105279,59.3264,-1080.03,0,0
105539,59.2169,-1076.94,0,0
105800,59.1837,-1073.8,0,0
106060,59.0087,-1070.58,0,0
106320.175,58.8711,-1067.2,0,0
106580.5,58.9623,-1063.72,0,0
106840.825,59.166,-1060.18,0,0
107101.15,59.6613,-1056.91,0,0
107361.475,60.0018,-1053.86,0,0
107621.8,60.2121,-1050.74,0,0
107882.125,60.4686,-1047.6,0,0
108142.45,60.7098,-1044.49,0,0
108402.775,60.9411,-1041.55,0,0
108663.1,61.0291,-1038.53,0,0
108923.425,61.067,-1035.52,0,0
109183.75,61.0177,-1032.24,0,0
109444.075,61.2535,-1029.01,0,0
109704.4,61.1549,-1025.82,0,0
109964.725,61.2956,-1022.54,0,0
110225.05,61.2989,-1018.98,0,0
110485.375,61.588,-1015.26,0,0
110745.7,62.2465,-1011.86,0,0
111006.025,62.8806,-1008.3,0,0
111266.35,63.6648,-1005.09,0,0
111526.675,64.29,-1002.03,0,0
111787.0,64.9078,-998.774,0,0
112047.325,65.649,-995.616,0,0
112307.65,66.4069,-992.334,0,0
112567.975,67.3571,-989.282,0,0
112828.3,68.3414,-986.084,0,0
113088.625,69.5824,-983.152,0,0
113348.95,70.853,-980.6,0,0
113609.275,71.7861,-978.2,0,0
113869.6,72.5878,-975.672,0,0
114129.925,73.4552,-973.063,0,0
114390.25,74.4019,-970.408,0,0
114650.575,75.4412,-968.054,0,0
114910.9,76.2525,-965.688,0,0
115171.225,77.2409,-963.071,0,0
115431.55,78.2845,-960.741,0,0
115691.875,79.3958,-958.24,0,0
115952.2,80.7912,-955.901,0,0
116212.525,82.4438,-953.886,0,0
116472.85,84.0342,-952.376,0,0
116733.175,85.3026,-951.117,0,0
116993.5,86.4082,-950.107,0,0
117253.825,87.0869,-949.137,0,0
117514.15,87.6385,-948.117,0,0
117774.475,87.9929,-947.256,0,0
118034.8,87.9401,-946.156,0,0
118295.125,88.0344,-944.547,0,0
118555.45,88.6634,-942.957,0,0
118815.775,89.5278,-942.111,0,0
119076.1,89.7645,-941.551,0,0
119336.425,89.9212,-940.898,0,0
119596.75,90.1263,-940.688,0,0
119857.075,89.5355,-941.077,0,0
120117.4,87.8752,-940.941,0,0
120377.725,86.2518,-940.18,0,0
120638.05,84.4893,-939.321,0,0
120898.375,82.4529,-938.023,0,0
121158.7,80.1851,-936.523,0,0
121419.025,77.913,-934.187,0,0
121679.35,76.1971,-931.461,0,0
121939.675,74.9396,-928.904,0,0
122200.0,73.5531,-926.526,0,0
122460,72.1082,-923.902,0,0
122721,70.8869,-921.129,0,0
122981,69.8026,-918.424,0,0
123241,68.7198,-915.666,0,0
123502,67.5346,-912.861,0,0
123762,66.5412,-909.813,0,0
124022,65.815,-906.755,0,0
124283,65.23,-903.86,0,0
124543,64.7261,-900.925,0,0
124803,64.3525,-898.177,0,0
125064,63.9177,-895.729,0,0
125324,63.185,-893.326,0,0
125584,62.2129,-890.657,0,0
125845,61.3734,-887.716,0,0
126105,60.8065,-884.728,0,0
126365,60.2373,-881.908,0,0
126626,59.6236,-879.031,0,0
126886,59.0305,-876.074,0,0
127146,58.5026,-873.118,0,0
127406,57.8622,-870.094,0,0
127667,57.685,-867.122,0,0
127927,57.4126,-864.098,0,0
128187,57.0976,-861.206,0,0
128448,56.7747,-858.31,0,0
128708,56.461,-855.404,0,0
128968,56.1355,-852.439,0,0
129229,55.99,-849.413,0,0
129489,55.8923,-846.531,0,0
129749,55.672,-843.777,0,0
130010,55.3879,-840.815,0,0
130270,55.2197,-837.793,0,0
130530,55.1663,-834.856,0,0
130791,55.1613,-832.007,0,0
131051,55.0548,-829.246,0,0
131311,54.785,-826.477,0,0
131572,54.5304,-823.464,0,0
131832,54.3554,-820.358,0,0
132092,54.3298,-817.253,0,0
132353,54.4313,-814.209,0,0
132613,54.4865,-811.166,0,0
132873,54.5291,-808.037,0,0
133134,54.7102,-804.98,0,0
133394,54.9552,-801.851,0,0
133654,55.2935,-798.748,0,0
133915,55.744,-795.67,0,0
134175,56.2437,-792.632,0,0
134435,56.8453,-789.64,0,0
134696,57.5446,-786.715,0,0
134956,58.2578,-783.859,0,0
135216,59.1108,-781.033,0,0
135477,60.1042,-778.506,0,0
135737,61.0509,-776.043,0,0
135997,62.1358,-773.793,0,0
136258,63.1475,-771.896,0,0
136518,63.8324,-770.274,0,0
136778,64.1821,-768.604,0,0
137039,64.3579,-767.017,0,0
137299,64.1605,-765.261,0,0
137559,64.016,-763.18,0,0
137819,63.9103,-761.132,0,0
138080,63.6842,-759.053,0,0
138340.125,63.3693,-756.834,0,0
138600.45,63.0215,-754.458,0,0
138860.775,62.6836,-751.973,0,0
139121.1,62.427,-749.256,0,0
139381.425,62.422,-746.497,0,0
139641.75,62.4875,-743.9,0,0
139902.075,62.485,-741.306,0,0
140162.4,62.5467,-738.59,0,0
140422.725,62.727,-736,0,0
140683.05,62.8524,-733.469,0,0
140943.375,62.8742,-730.916,0,0
141203.7,62.957,-728.3,0,0
141464.025,63.0297,-725.717,0,0
141724.35,63.0052,-723.079,0,0
141984.675,63.0849,-720.241,0,0
142245.0,63.3265,-717.452,0,0
142505.325,63.5184,-714.733,0,0
142765.65,63.6753,-711.975,0,0
143025.975,64.0195,-709.135,0,0
143286.3,64.419,-706.324,0,0
143546.625,64.8811,-703.581,0,0
143806.95,65.3759,-700.948,0,0
144067.275,65.8473,-698.374,0,0
144327.6,66.2986,-695.85,0,0
144587.925,66.6976,-693.359,0,0
144848.25,67.0177,-690.865,0,0
145108.575,67.3763,-688.3,0,0
145368.9,67.7361,-685.867,0,0
145629.225,67.9498,-683.453,0,0
145889.55,67.9911,-680.857,0,0
146149.875,68.1483,-678.025,0,0
146410.2,68.4735,-675.184,0,0
146670.525,68.9084,-672.446,0,0
146930.85,69.2507,-669.724,0,0
147191.175,69.7336,-666.958,0,0
147451.5,70.1629,-664.377,0,0
147711.825,70.4718,-661.729,0,0
147972.15,70.8572,-658.927,0,0
148232.475,71.3228,-656.217,0,0
148492.8,71.7651,-653.554,0,0
148753.125,72.1642,-650.953,0,0
149013.45,72.4109,-648.339,0,0
149273.775,72.5532,-645.626,0,0
149534.1,72.655,-642.715,0,0
149794.425,72.8522,-639.676,0,0
150054.75,73.1306,-636.569,0,0
150315.075,73.4748,-633.418,0,0
150575.4,73.8622,-630.226,0,0
150835.725,74.2608,-626.998,0,0
151096.05,74.7244,-623.676,0,0
151356.375,75.2517,-620.277,0,0
151616.7,75.8939,-616.776,0,0
151877.025,76.6417,-613.267,0,0
152137.35,77.5072,-609.749,0,0
152397.675,78.441,-606.2,0,0
152658.0,79.5189,-602.633,0,0
152918.325,80.7086,-599.057,0,0
153178.65,82.0257,-595.565,0,0
153438.975,83.4183,-592.17,0,0
153699.3,84.7623,-588.811,0,0
153959.625,86.0976,-585.338,0,0
154219.95,87.6176,-581.782,0,0
154480,89.3132,-578.2,0,0
154741,91.107,-574.827,0,0
155001,92.978,-571.545,0,0
155261,94.9793,-568.191,0,0
155522,96.9768,-564.979,0,0
155782,99.179,-561.741,0,0
156042,101.418,-558.661,0,0
156303,103.695,-555.758,0,0
156563,106.083,-552.945,0,0
156823,108.401,-550.172,0,0
157084,110.672,-547.595,0,0
157344,113.066,-545.092,0,0
157604,115.378,-542.625,0,0
157864,117.719,-540.508,0,0
158125,119.83,-538.365,0,0
158385,121.818,-536.333,0,0
158645,123.755,-534.236,0,0
158906,125.557,-532.362,0,0
159166,127.109,-530.555,0,0
159426,128.234,-528.673,0,0
159687,129.037,-526.501,0,0
159947,129.497,-523.899,0,0
160207,130.068,-520.69,0,0
160468,130.902,-517.102,0,0
160728,131.925,-513.123,0,0
160988,133.105,-508.944,0,0
161249,134.562,-504.525,0,0
161509,136.374,-499.672,0,0
161769,138.738,-494.646,0,0
162030,141.739,-489.758,0,0
162290,145.039,-484.876,0,0
162550,148.743,-480.26,0,0
162811,152.49,-475.884,0,0
163071,156.349,-471.295,0,0
163331,160.471,-466.506,0,0
163592,165.391,-461.699,0,0
163852,170.833,-457.279,0,0
164112,176.496,-453.42,0,0
164373,182.197,-449.785,0,0
164633,188.155,-446.235,0,0
164893,194.401,-443.078,0,0
165154,200.334,-440.384,0,0
165414,206.195,-437.285,0,0
165674,212.35,-433.948,0,0
165935,218.884,-430.43,0,0
166195,226.275,-426.663,0,0
166455,234.751,-423.005,0,0
166716,244.414,-420.206,0,0
166976,254.529,-418.659,0,0
167236,264.733,-418.057,0,0
167497,275.254,-418.263,0,0
167757,285.669,-419.353,0,0
168017,296.05,-421.133,0,0
168277,306.592,-423.789,0,0
168538,317.222,-427.405,0,0
168798,327.399,-432.318,0,0
169058,336.809,-437.933,0,0
169319,345.928,-444.412,0,0
169579,353.911,-451.73,0,0
169839,360.985,-458.774,0,0
170100,368.013,-465.629,0,0
170360.075,375.422,-472.867,0,0
170620.4,383.354,-481.456,0,0
170880.725,390.365,-492.346,0,0
171141.05,394.968,-504.179,0,0
171401.375,397.701,-515.771,0,0
171661.7,399.052,-526.737,0,0
171922.025,399.877,-536.634,0,0
172182.35,401.289,-546.648,0,0
172442.675,402.031,-558.157,0,0
172703.0,400.43,-570.321,0,0
172963.325,396.814,-581.443,0,0
173223.65,392.071,-591.448,0,0
173483.975,386.433,-600.421,0,0
173744.3,380.065,-608.168,0,0
174004.625,373.425,-614.688,0,0
174264.95,366.535,-620.513,0,0
174525.275,358.991,-625.123,0,0
174785.6,351.55,-628.357,0,0
175045.925,344.08,-630.443,0,0
175306.25,337.196,-631.073,0,0
175566.575,330.967,-631.021,0,0
175826.9,324.762,-629.514,0,0
176087.225,320.572,-625.982,0,0
176347.55,319.326,-622.582,0,0
176607.875,319.891,-620.638,0,0
176868.2,321.186,-620.298,0,0
177128.525,322.46,-621.144,0,0
177388.85,323.758,-622.738,0,0
177649.175,325.256,-625.207,0,0
177909.5,326.587,-628.541,0,0
178169.825,328.228,-632.849,0,0
178430.15,329.53,-639.209,0,0
178690.475,328.894,-647.465,0,0
178950.8,325.368,-656.062,0,0
179211.125,319.56,-663.646,0,0
179471.45,312.353,-669.588,0,0
179731.775,304.677,-674,0,0
179992.1,296.756,-677.088,0,0
180252.425,289.187,-678.635,0,0
180512.75,282.513,-679.685,0,0
180773.075,276.354,-680.787,0,0
181033.4,270.469,-682.14,0,0
181293.725,264.048,-684.273,0,0
181554.05,255.801,-686.035,0,0
181814.375,246.997,-685.796,0,0
182074.7,238.794,-684.42,0,0
182335.025,231.011,-682.522,0,0
182595.35,223.37,-680.104,0,0
182855.675,215.852,-676.842,0,0
183116.0,208.878,-672.655,0,0
183376.325,202.974,-667.945,0,0
183636.65,197.831,-663.494,0,0
183896.975,192.689,-659.107,0,0
184157.3,187.71,-654.223,0,0
184417.625,183.323,-648.803,0,0
184677.95,179.826,-643.11,0,0
184938.275,177.493,-637.664,0,0
185198.6,175.659,-633.421,0,0
185458.925,173.234,-629.835,0,0
185719.25,170.2,-626.231,0,0
185979.575,166.729,-622.101,0,0
186239.9,163.421,-617.144,0,0
186500,160.835,-611.701,0,0
186761,158.913,-606.411,0,0
187021,157.171,-601.32,0,0
187281,155.57,-595.975,0,0
187542,154.606,-590.442,0,0
187802,154.336,-585.204,0,0
188062,154.485,-580.426,0,0
188322,155.043,-576.275,0,0
188583,155.518,-573.088,0,0
188843,155.209,-570.598,0,0
189103,153.911,-567.97,0,0
189364,152.116,-564.688,0,0
189624,150.356,-560.753,0,0
189884,148.837,-556.474,0,0
190145,147.466,-551.9,0,0
190405,146.462,-547.067,0,0
190665,145.791,-542.331,0,0
190926,144.994,-537.566,0,0
191186,144.386,-532.336,0,0
191446,144.385,-526.947,0,0
191707,144.809,-521.765,0,0
191967,145.449,-516.893,0,0
192227,146.073,-512.234,0,0
192488,146.571,-507.519,0,0
192748,147.2,-502.613,0,0
193008,148.114,-497.691,0,0
193269,149.217,-492.835,0,0
193529,150.471,-488.025,0,0
193789,151.813,-483.275,0,0
194050,153.298,-478.501,0,0
194310,154.97,-473.706,0,0
194570,156.889,-468.946,0,0
194831,159.022,-464.261,0,0
195091,161.401,-459.742,0,0
195351,163.823,-455.451,0,0
195612,166.318,-451.4,0,0
195872,168.686,-447.309,0,0
196132,171.239,-443.159,0,0
196393,174.048,-439.151,0,0
196653,176.816,-435.409,0,0
196913,179.686,-431.672,0,0
197174,182.474,-428.127,0,0
197434,185.235,-424.619,0,0
197694,187.993,-420.969,0,0
197955,190.83,-417.364,0,0
198215,193.693,-413.786,0,0
198475,196.624,-409.963,0,0
198735,199.753,-406.217,0,0
198996,203.07,-402.579,0,0
199256,206.478,-399.05,0,0
199516,209.747,-395.487,0,0
199777,213.119,-391.694,0,0
200037,216.66,-387.858,0,0
200297,220.573,-383.872,0,0
200558,224.928,-379.958,0,0
200818,229.596,-376.309,0,0
201078,234.3,-373.039,0,0
201339,238.807,-369.815,0,0
201599,243.418,-366.296,0,0
201859,248.485,-362.637,0,0
202120,254.076,-359.098,0,0
202380.025,260.129,-355.886,0,0
202640.35,266.44,-353.168,0,0
202900.675,272.685,-350.732,0,0
203161.0,279.187,-348.438,0,0
203421.325,285.93,-346.432,0,0
203681.65,292.846,-344.842,0,0
203941.975,299.837,-343.608,0,0
204202.3,306.794,-342.735,0,0
204462.625,313.875,-342.163,0,0
204722.95,320.937,-342.044,0,0
204983.275,327.844,-342.216,0,0
205243.6,334.718,-342.452,0,0
205503.925,341.92,-342.788,0,0
205764.25,349.375,-343.792,0,0
206024.575,356.701,-345.79,0,0
206284.9,363.384,-348.354,0,0
206545.225,369.447,-351.057,0,0
206805.55,375.032,-353.832,0,0
207065.875,379.915,-356.76,0,0
207326.2,384.228,-359.308,0,0
207586.525,388.307,-361.304,0,0
207846.85,392.045,-362.758,0,0
208107.175,395.864,-363.327,0,0
208367.5,400.188,-362.895,0,0
208627.825,405.713,-361.694,0,0
208888.15,413.169,-360.25,0,0
209148.475,422.588,-359.742,0,0
209408.8,433.127,-361.06,0,0
209669.125,444.288,-364.411,0,0
209929.45,454.95,-369.726,0,0
210189.775,464.639,-376.344,0,0
210450.1,473.812,-383.789,0,0
210710.425,482.555,-392.53,0,0
210970.75,489.998,-402.626,0,0
211231.075,495.972,-413.385,0,0
211491.4,500.493,-424.597,0,0
211751.725,503.227,-435.887,0,0
212012.05,504.472,-446.359,0,0
212272.375,505.013,-455.924,0,0
212532.7,505.207,-464.671,0,0
212793.025,505.576,-472.951,0,0
213053.35,505.911,-481.564,0,0
213313.675,505.548,-490.471,0,0
213574.0,504.379,-499.083,0,0
213834.325,502.784,-507.308,0,0
214094.65,500.713,-515.518,0,0
214354.975,497.886,-523.414,0,0
214615.3,494.295,-530.895,0,0
214875.625,489.87,-537.505,0,0
215135.95,485.267,-542.712,0,0
215396.275,481.117,-546.872,0,0
215656.6,477.786,-550.528,0,0
215916.925,475.095,-554.363,0,0
216177.25,472.673,-558.46,0,0
216437.575,470.193,-562.858,0,0
216697.9,467.5,-567.569,0,0
216958.225,464.286,-572.49,0,0
217218.55,460.474,-577.35,0,0
217478.875,456.038,-581.893,0,0
217739.2,451.039,-585.928,0,0
217999.525,445.773,-589.213,0,0
218259.85,440.483,-591.895,0,0
218520,435.306,-594.051,0,0
218780,430.17,-596.036,0,0
219041,424.717,-597.755,0,0
219301,418.882,-598.88,0,0
219561,412.884,-599.021,0,0
219822,407.212,-598.113,0,0
220082,402.067,-596.549,0,0
220342,397.55,-594.357,0,0
220603,393.764,-591.832,0,0
220863,390.639,-589.042,0,0
221123,388.144,-586.179,0,0
221384,386.22,-583.341,0,0
221644,384.639,-580.524,0,0
221904,383.509,-577.622,0,0
222165,382.958,-574.723,0,0
222425,383.014,-571.961,0,0
222685,383.562,-569.576,0,0
222946,384.375,-567.629,0,0
223206,385.273,-565.979,0,0
223466,386.193,-564.467,0,0
223727,387.169,-563.036,0,0
223987,388.409,-561.681,0,0
224247,389.832,-560.419,0,0
224508,391.545,-559.255,0,0
224768,393.265,-558.239,0,0
225028,395.288,-557.253,0,0
225289,397.663,-556.194,0,0
225549,400.617,-555.269,0,0
225809,404.115,-554.875,0,0
226070,407.99,-555.061,0,0
226330,412.128,-555.879,0,0
226590,416.377,-557.617,0,0
226851,420.467,-560.237,0,0
227111,423.66,-563.232,0,0
227371,426.577,-566.101,0,0
227632,429.505,-569.046,0,0
227892,432.466,-572.225,0,0
228152,435.638,-575.662,0,0
228413,438.996,-579.686,0,0
228673,442.247,-584.609,0,0
228933,445.054,-590.159,0,0
229193,447.349,-596.411,0,0
229454,448.761,-603.201,0,0
229714,449.129,-610.044,0,0
229974,448.96,-616.522,0,0
230235,448.714,-622.704,0,0
230495,448.501,-629.382,0,0
230755,447.675,-636.706,0,0
231016,445.526,-644.335,0,0
231276,442.292,-651.328,0,0
231536,438.665,-657.444,0,0
231797,435.209,-663.197,0,0
232057,431.588,-668.818,0,0
232317,427.82,-674.424,0,0
232578,423.829,-680.01,0,0
232838,419.466,-685.719,0,0
233098,414.656,-691.394,0,0
233359,409.412,-697.193,0,0
233619,403.418,-703.127,0,0
233879,396.09,-709.008,0,0
234140,387.481,-713.915,0,0
234400,378.227,-717.48,0,0
234660.3,368.634,-719.839,0,0
234920.625,358.915,-720.821,0,0
235180.95,349.427,-720.604,0,0
235441.275,340.377,-719.094,0,0
235701.6,332.211,-716.53,0,0
235961.925,325.141,-713.488,0,0
236222.25,318.941,-710.194,0,0
236482.575,313.497,-706.836,0,0
236742.9,308.883,-703.52,0,0
237003.225,305.026,-700.764,0,0
237263.55,301.136,-698.695,0,0
237523.875,296.663,-696.816,0,0
237784.2,291.954,-694.541,0,0
238044.525,287.162,-691.908,0,0
238304.85,282.255,-688.671,0,0
238565.175,277.606,-684.651,0,0
238825.5,273.764,-679.879,0,0
239085.825,271.025,-674.833,0,0
239346.15,269.232,-670.004,0,0
239606.475,268.085,-665.673,0,0
239866.8,267.467,-661.685,0,0
240127.125,267.36,-658.014,0,0
240387.45,267.913,-655.015,0,0
240647.775,268.575,-653.422,0,0
240908.1,268.423,-652.693,0,0
241168.425,267.354,-651.95,0,0
241428.75,265.978,-650.859,0,0
241689.075,264.579,-649.691,0,0
241949.4,263.057,-648.634,0,0
242209.725,261.097,-647.683,0,0
242470.05,258.482,-646.479,0,0
242730.375,255.497,-644.419,0,0
242990.7,252.78,-641.409,0,0
243251.025,250.833,-637.868,0,0
243511.35,249.532,-634.364,0,0
243771.675,248.431,-630.98,0,0
244032.0,247.595,-627.318,0,0
244292.325,247.335,-623.414,0,0
244552.65,247.765,-619.637,0,0
244812.975,248.798,-616.174,0,0
245073.3,250.41,-613.205,0,0
245333.625,252.299,-610.836,0,0
245593.95,254.26,-609.241,0,0
245854.275,255.97,-608.312,0,0
246114.6,257.222,-607.707,0,0
246374.925,258.134,-607.105,0,0
246635.25,258.867,-606.475,0,0
246895.575,259.634,-605.871,0,0
247155.9,260.287,-605.502,0,0
247416.225,260.682,-605.167,0,0
247676.55,260.881,-604.643,0,0
247936.875,261.17,-604.022,0,0
248197.2,261.618,-603.396,0,0
248457.525,262.096,-602.864,0,0
248717.85,262.613,-602.391,0,0
248978.175,263.108,-602.063,0,0
249238.5,263.582,-601.784,0,0
249498.825,264.039,-601.52,0,0
249759.15,264.558,-601.324,0,0
250019.475,265.141,-601.369,0,0
250279.8,265.611,-601.622,0,0
250540,265.774,-601.921,0,0
250800,265.847,-602.207,0,0
251061,265.78,-602.27,0,0
251321,265.911,-602.307,0,0
251581,266.157,-602.439,0,0
251842,266.446,-602.689,0,0
252102,266.71,-603.189,0,0
252362,266.84,-603.911,0,0
252623,266.79,-604.738,0,0
252883,266.516,-605.56,0,0
253143,266.061,-606.359,0,0
253404,265.615,-607.099,0,0
253664,265.13,-607.942,0,0
253924,264.499,-608.938,0,0
254185,263.608,-610.102,0,0
254445,262.335,-611.156,0,0
254705,260.734,-612.036,0,0
254966,259.056,-612.67,0,0
255226,257.344,-613.144,0,0
255486,255.463,-613.549,0,0
255747,253.372,-613.725,0,0
256007,251.175,-613.586,0,0
256267,249.026,-613.108,0,0
256528,246.977,-612.39,0,0
256788,245.095,-611.518,0,0
257048,243.339,-610.584,0,0
257309,241.573,-609.631,0,0
257569,239.738,-608.507,0,0
257829,237.934,-607.08,0,0
258090,236.356,-605.434,0,0
258350,234.961,-603.655,0,0
258610,233.712,-601.775,0,0
258871,232.716,-599.792,0,0
259131,232.005,-597.821,0,0
259391,231.411,-595.95,0,0
259651,230.832,-594.13,0,0
259912,230.256,-592.27,0,0
260172,229.772,-590.264,0,0
260432,229.385,-588.099,0,0
260693,229.132,-585.806,0,0
260953,229.179,-583.376,0,0
261213,229.527,-580.882,0,0
261474,230.135,-578.307,0,0
261734,231.17,-575.709,0,0
261994,232.664,-573.197,0,0
262255,234.596,-570.897,0,0
262515,236.938,-568.911,0,0
262775,239.602,-567.388,0,0
263036,242.467,-566.352,0,0
263296,245.422,-565.814,0,0
263556,248.426,-565.754,0,0
263817,251.353,-566.248,0,0
264077,254.092,-567.268,0,0
264337,256.437,-568.821,0,0
264598,258.241,-570.564,0,0
264858,259.645,-572.336,0,0
265118,260.73,-574.089,0,0
265379,261.573,-575.757,0,0
265639,262.221,-577.329,0,0
265899,262.791,-578.754,0,0
266160,263.361,-580.169,0,0
266420,263.902,-581.619,0,0
266680.25,264.432,-583.113,0,0
266940.575,264.895,-584.718,0,0
267200.9,265.272,-586.393,0,0
267461.225,265.521,-588.194,0,0
267721.55,265.579,-590.079,0,0
267981.875,265.378,-592.002,0,0
268242.2,264.906,-593.855,0,0
268502.525,264.283,-595.464,0,0
268762.85,263.613,-596.913,0,0
269023.175,262.874,-598.202,0,0
269283.5,262.215,-599.2,0,0
269543.825,261.839,-599.974,0,0
269804.15,261.725,-600.886,0,0
270064.475,261.916,-601.888,0,0
270324.8,262.198,-603.195,0,0
270585.125,262.566,-604.752,0,0
270845.45,262.857,-606.544,0,0
271105.775,263.113,-608.62,0,0
271366.1,263.317,-610.785,0,0
271626.425,263.664,-613.152,0,0
271886.75,264.177,-615.958,0,0
272147.075,264.627,-619.435,0,0
272407.4,264.796,-623.724,0,0
272667.725,264.207,-628.777,0,0
272928.05,262.478,-634.248,0,0
273188.375,259.642,-639.656,0,0
273448.7,256.003,-644.729,0,0
273709.025,251.641,-649.562,0,0
273969.35,246.42,-654.036,0,0
274229.675,240.386,-657.881,0,0
274490.0,233.782,-660.898,0,0
274750.325,226.752,-662.946,0,0
275010.65,219.73,-664.163,0,0
275270.975,212.711,-664.663,0,0
275531.3,205.681,-664.484,0,0
275791.625,198.709,-663.68,0,0
276051.95,191.88,-662.146,0,0
276312.275,185.323,-659.931,0,0
276572.6,179.211,-657.124,0,0
276832.925,173.499,-653.963,0,0
277093.25,168.166,-650.404,0,0
277353.575,163.184,-646.482,0,0
277613.9,158.675,-642.169,0,0
277874.225,154.702,-637.557,0,0
278134.55,151.321,-632.748,0,0
278394.875,148.56,-627.875,0,0
278655.2,146.303,-623.074,0,0
278915.525,144.578,-618.433,0,0
279175.85,143.198,-614.023,0,0
279436.175,142.091,-609.759,0,0
279696.5,141.25,-605.671,0,0
279956.825,140.696,-601.753,0,0
280217.15,140.357,-598.018,0,0
280477.475,140.183,-594.499,0,0
280737.8,140.198,-591.2,0,0
280998.125,140.404,-588.194,0,0
281258.45,140.628,-585.529,0,0
281518.775,140.765,-583.115,0,0
281779.1,140.762,-580.927,0,0
282039.425,140.617,-578.778,0,0
282299.75,140.336,-576.69,0,0
282560,139.945,-574.668,0,0
282820,139.383,-572.476,0,0
283081,138.812,-570.15,0,0
283341,138.291,-567.587,0,0
283601,137.829,-565.025,0,0
283862,137.455,-562.285,0,0
284122,137.252,-559.415,0,0
284382,137.322,-556.54,0,0
284643,137.615,-553.59,0,0
284903,138.159,-550.718,0,0
285163,138.881,-548.098,0,0
285424,139.769,-545.621,0,0
285684,140.665,-543.288,0,0
285944,141.687,-541.178,0,0
286205,142.588,-539.168,0,0
286465,143.529,-537.399,0,0
286725,144.522,-535.622,0,0
286986,145.324,-534.065,0,0
287246,146.097,-532.411,0,0
287506,146.807,-530.911,0,0
287767,147.45,-529.344,0,0
288027,148.01,-527.688,0,0
288287,148.528,-526.016,0,0
288548,149.151,-524.145,0,0
288808,149.798,-522.178,0,0
289068,150.75,-520.283,0,0
289329,151.718,-518.346,0,0
289589,152.79,-516.429,0,0
289849,154.093,-514.673,0,0
290109,155.442,-512.977,0,0
290370,156.767,-511.387,0,0
290630,158.244,-509.826,0,0
290890,159.797,-508.315,0,0
291151,161.459,-507.099,0,0
291411,163.011,-505.814,0,0
291671,164.614,-504.819,0,0
291932,166.097,-503.794,0,0
292192,167.532,-502.816,0,0
292452,169.081,-501.874,0,0
292713,170.652,-501.035,0,0
292973,172.207,-500.215,0,0
293233,173.6,-499.499,0,0
293494,175.073,-498.759,0,0
293754,176.455,-497.931,0,0
294014,177.934,-497.2,0,0
294275,179.411,-496.279,0,0
294535,180.926,-495.51,0,0
294795,182.472,-494.635,0,0
295056,184.121,-493.779,0,0
295316,185.854,-492.92,0,0
295576,187.76,-492.018,0,0
295837,189.828,-491.151,0,0
296097,192.058,-490.44,0,0
296357,194.384,-489.936,0,0
296618,196.791,-489.537,0,0
296878,199.343,-489.154,0,0
297138,202.021,-489.089,0,0
297399,204.663,-489.069,0,0
297659,207.383,-489.309,0,0
297919,210.133,-489.644,0,0
298180,212.941,-490.229,0,0
298440,215.765,-490.957,0,0
298700.2,218.612,-491.955,0,0
298960.525,221.322,-492.977,0,0
299220.85,224.17,-494.239,0,0
299481.175,226.957,-495.614,0,0
299741.5,229.811,-497.105,0,0
300001.825,232.668,-498.982,0,0
300262.15,235.56,-501.01,0,0
300522.475,238.478,-503.183,0,0
300782.8,241.4,-505.809,0,0
301043.125,244.337,-508.718,0,0
301303.45,247.198,-512.095,0,0
301563.775,249.875,-515.746,0,0
301824.1,252.432,-519.881,0,0
302084.425,254.663,-524.602,0,0
302344.75,256.55,-529.79,0,0
302605.075,257.84,-535.516,0,0
302865.4,258.294,-541.591,0,0
303125.725,257.822,-547.703,0,0
303386.05,256.507,-553.621,0,0
303646.375,254.519,-559.13,0,0
303906.7,252.026,-564.153,0,0
304167.025,249.265,-568.74,0,0
304427.35,246.302,-572.953,0,0
304687.675,243.157,-576.922,0,0
304948.0,239.801,-580.616,0,0
305208.325,236.194,-584.028,0,0
305468.65,232.383,-587.108,0,0
305728.975,228.465,-589.834,0,0
305989.3,224.442,-592.257,0,0
306249.625,220.3,-594.401,0,0
306509.95,216.054,-596.194,0,0
306770.275,211.748,-597.635,0,0
307030.6,207.452,-598.683,0,0
307290.925,203.276,-599.401,0,0
307551.25,199.22,-599.859,0,0
307811.575,195.237,-600.097,0,0
308071.9,191.411,-600.119,0,0
308332.225,187.64,-599.938,0,0
308592.55,183.986,-599.579,0,0
308852.875,180.425,-599.026,0,0
309113.2,177.02,-598.298,0,0
309373.525,173.793,-597.422,0,0
309633.85,170.72,-596.41,0,0
309894.175,167.809,-595.296,0,0
310154.5,165.052,-594.1,0,0
310414.825,162.449,-592.844,0,0
310675.15,160.011,-591.571,0,0
310935.475,157.683,-590.291,0,0
311195.8,155.474,-588.978,0,0
311456.125,153.357,-587.659,0,0
311716.45,151.378,-586.304,0,0
311976.775,149.534,-584.994,0,0
312237.1,147.777,-583.73,0,0
312497.425,146.041,-582.529,0,0
312757.75,144.314,-581.357,0,0
313018.075,142.576,-580.161,0,0
313278.4,140.862,-578.921,0,0
313538.725,139.174,-577.664,0,0
313799.05,137.509,-576.365,0,0
314059.375,135.899,-575.007,0,0
314319.7,134.322,-573.609,0,0
314580,132.744,-572.18,0,0
314840,131.326,-570.617,0,0
315101,130.084,-569.061,0,0
315361,128.761,-567.445,0,0
315621,127.754,-565.821,0,0
315882,126.731,-564.277,0,0
316142,125.793,-562.697,0,0
316402,124.979,-561.241,0,0
316663,124.117,-559.804,0,0
316923,123.455,-558.382,0,0
317183,122.765,-557.003,0,0
317444,122.161,-555.814,0,0
317704,121.56,-554.549,0,0
317964,120.972,-553.184,0,0
318225,120.395,-552.063,0,0
318485,119.806,-550.897,0,0
318745,119.23,-549.667,0,0
319006,118.716,-548.394,0,0
319266,118.22,-547.254,0,0
319526,117.918,-546.108,0,0
319787,117.671,-544.945,0,0
320047,117.375,-543.931,0,0
320307,117.193,-542.974,0,0
320567,116.953,-542.192,0,0
320828,116.787,-541.413,0,0
321088,116.493,-540.802,0,0
321348,116.104,-540.111,0,0
321609,115.736,-539.489,0,0
321869,115.369,-538.855,0,0
322129,114.865,-538.274,0,0
322390,114.347,-537.709,0,0
322650,113.914,-537.128,0,0
322910,113.312,-536.558,0,0
323171,112.642,-535.956,0,0
323431,112.049,-535.379,0,0
323691,111.415,-534.725,0,0
323952,110.806,-534.03,0,0
324212,110.1,-533.313,0,0
324472,109.532,-532.597,0,0
324733,108.918,-531.891,0,0
324993,108.238,-531.148,0,0
325253,107.7,-530.36,0,0
325514,107.067,-529.63,0,0
325774,106.541,-528.76,0,0
326034,106.109,-528.038,0,0
326295,105.593,-527.339,0,0
326555,105.16,-526.583,0,0
326815,104.647,-525.984,0,0
327076,104.091,-525.296,0,0
327336,103.65,-524.732,0,0
327596,103.067,-524.087,0,0
327857,102.584,-523.478,0,0
328117,101.934,-522.896,0,0
328377,101.387,-522.353,0,0
328638,100.76,-521.653,0,0
328898,100.074,-521.053,0,0
329158,99.4418,-520.281,0,0
329419,98.8605,-519.648,0,0
329679,98.2417,-518.957,0,0
329939,97.609,-518.271,0,0
330200,97.0663,-517.511,0,0
330460,96.4251,-516.832,0,0
330720.15,95.7789,-516.158,0,0
330980.475,95.2513,-515.505,0,0
331240.8,94.7131,-514.81,0,0
331501.125,94.1186,-514.176,0,0
331761.45,93.4795,-513.633,0,0
332021.775,92.7835,-513.07,0,0
332282.1,91.9774,-512.471,0,0
332542.425,91.1861,-511.852,0,0
332802.75,90.3799,-511.171,0,0
333063.075,89.42,-510.447,0,0
333323.4,88.5624,-509.661,0,0
333583.725,87.6609,-508.805,0,0
333844.05,86.6904,-507.904,0,0
334104.375,85.9304,-506.924,0,0
334364.7,85.0956,-505.921,0,0
334625.025,84.2067,-504.83,0,0
334885.35,83.4087,-503.789,0,0
335145.675,82.7039,-502.722,0,0
335406.0,81.975,-501.564,0,0
335666.325,81.274,-500.514,0,0
335926.65,80.5755,-499.293,0,0
336186.975,79.954,-498.137,0,0
336447.3,79.3293,-496.989,0,0
336707.625,78.7301,-495.699,0,0
336967.95,78.137,-494.442,0,0
337228.275,77.6177,-493.182,0,0
337488.6,77.1092,-491.904,0,0
337748.925,76.6829,-490.669,0,0
338009.25,76.2883,-489.42,0,0
338269.575,75.8858,-488.143,0,0
338529.9,75.554,-486.817,0,0
338790.225,75.1833,-485.642,0,0
339050.55,74.9134,-484.417,0,0
339310.875,74.6558,-483.18,0,0
339571.2,74.4679,-481.928,0,0
339831.525,74.1818,-480.69,0,0
340091.85,73.9533,-479.494,0,0
340352.175,73.7645,-478.313,0,0
340612.5,73.5492,-477.098,0,0
340872.825,73.3819,-475.875,0,0
341133.15,73.261,-474.611,0,0
341393.475,73.1356,-473.409,0,0
341653.8,73.0268,-472.183,0,0
341914.125,72.9646,-470.938,0,0
342174.45,72.9863,-469.763,0,0
342434.775,72.9892,-468.562,0,0
342695.1,73.0202,-467.416,0,0
342955.425,73.0457,-466.234,0,0
343215.75,73.1372,-465.109,0,0
343476.075,73.2384,-464.028,0,0
343736.4,73.3713,-462.863,0,0
343996.725,73.4891,-461.773,0,0
344257.05,73.7409,-460.715,0,0
344517.375,73.9754,-459.693,0,0
344777.7,74.2607,-458.761,0,0
345038.025,74.464,-457.836,0,0
345298.35,74.7483,-456.919,0,0
345558.675,74.9462,-456.069,0,0
345819.0,75.1769,-455.299,0,0
346079.325,75.3876,-454.589,0,0
346339.65,75.5717,-453.826,0,0
346599.975,75.7696,-453.132,0,0
346860,75.9345,-452.431,0,0
347121,76.0229,-451.82,0,0
347381,76.0878,-451.179,0,0
347641,76.1276,-450.533,0,0
347902,76.1457,-449.929,0,0
348162,76.0638,-449.305,0,0
348422,75.957,-448.595,0,0
348683,75.8706,-447.961,0,0
348943,75.6922,-447.198,0,0
349203,75.5566,-446.405,0,0
349464,75.4039,-445.619,0,0
349724,75.3245,-444.724,0,0
349984,75.249,-443.908,0,0
350245,75.1233,-443.085,0,0
350505,75.0747,-442.162,0,0
350765,74.9692,-441.278,0,0
351025,74.8974,-440.227,0,0
351286,74.875,-439.274,0,0
351546,74.9059,-438.176,0,0
351806,75.0041,-437.18,0,0
352067,75.1271,-436.118,0,0
352327,75.291,-435.172,0,0
352587,75.5334,-434.163,0,0
352848,75.8198,-433.133,0,0
353108,76.1722,-432.211,0,0
353368,76.5098,-431.34,0,0
353629,76.9186,-430.469,0,0
353889,77.3187,-429.689,0,0
354149,77.7566,-428.911,0,0
354410,78.2051,-428.227,0,0
354670,78.5903,-427.665,0,0
354930,79.0203,-427.037,0,0
355191,79.3436,-426.521,0,0
355451,79.7813,-426.023,0,0
355711,80.0841,-425.611,0,0
355972,80.3667,-425.275,0,0
356232,80.6324,-424.923,0,0
356492,80.7575,-424.64,0,0
356753,80.8498,-424.273,0,0
357013,80.8329,-423.969,0,0
357273,80.7776,-423.649,0,0
357534,80.6107,-423.313,0,0
357794,80.4056,-422.851,0,0
358054,80.2295,-422.344,0,0
358315,79.9098,-421.8,0,0
358575,79.5872,-421.173,0,0
358835,79.3096,-420.441,0,0
359096,79.0101,-419.572,0,0
359356,78.7948,-418.734,0,0
359616,78.5755,-417.765,0,0
359877,78.4858,-416.812,0,0
360137,78.4507,-415.71,0,0
360397,78.4697,-414.655,0,0
360658,78.584,-413.574,0,0
360918,78.7387,-412.554,0,0
361178,78.9635,-411.566,0,0
361438,79.2362,-410.561,0,0
361699,79.5436,-409.601,0,0
361959,79.8733,-408.655,0,0
362219,80.2354,-407.724,0,0
362480,80.6281,-406.858,0,0
362740.1,81.0457,-406.014,0,0
363000.425,81.4438,-405.189,0,0
363260.75,81.8983,-404.408,0,0
363521.075,82.2813,-403.651,0,0
363781.4,82.749,-402.875,0,0
364041.725,83.1745,-402.101,0,0
364302.05,83.6812,-401.358,0,0
364562.375,84.1984,-400.631,0,0
364822.7,84.7016,-399.971,0,0
365083.025,85.2688,-399.312,0,0
365343.35,85.8563,-398.739,0,0
365603.675,86.4459,-398.183,0,0
365864.0,87.0148,-397.706,0,0
366124.325,87.5791,-397.236,0,0
366384.65,88.0646,-396.895,0,0
366644.975,88.5633,-396.511,0,0
366905.3,88.9924,-396.125,0,0
367165.625,89.4014,-395.781,0,0
367425.95,89.83,-395.388,0,0
367686.275,90.242,-394.991,0,0
367946.6,90.692,-394.628,0,0
368206.925,91.1488,-394.272,0,0
368467.25,91.5691,-394.016,0,0
368727.575,92.0435,-393.741,0,0
368987.9,92.4798,-393.601,0,0
369248.225,92.8789,-393.449,0,0
369508.55,93.2403,-393.354,0,0
369768.875,93.5023,-393.333,0,0
370029.2,93.6711,-393.391,0,0
370289.525,93.7092,-393.41,0,0
370549.85,93.6746,-393.46,0,0
370810.175,93.4726,-393.385,0,0
371070.5,93.2421,-393.24,0,0
371330.825,92.9237,-393.013,0,0
371591.15,92.5121,-392.611,0,0
371851.475,92.1633,-392.123,0,0
372111.8,91.8338,-391.514,0,0
372372.125,91.5433,-390.78,0,0
372632.45,91.3066,-390.025,0,0
372892.775,91.2288,-389.191,0,0
373153.1,91.2077,-388.316,0,0
373413.425,91.2246,-387.439,0,0
373673.75,91.3084,-386.564,0,0
373934.075,91.4848,-385.747,0,0
374194.4,91.6773,-384.904,0,0
374454.725,91.883,-384.13,0,0
374715.05,92.1254,-383.312,0,0
374975.375,92.4023,-382.545,0,0
375235.7,92.7168,-381.816,0,0
375496.025,93.0123,-381.035,0,0
375756.35,93.3159,-380.316,0,0
376016.675,93.6371,-379.584,0,0
376277.0,94.027,-378.831,0,0
376537.325,94.3754,-378.165,0,0
376797.65,94.7774,-377.471,0,0
377057.975,95.1242,-376.796,0,0
377318.3,95.5124,-376.109,0,0
377578.625,95.8515,-375.408,0,0
377838.95,96.1849,-374.688,0,0
378099.275,96.5694,-373.95,0,0
378359.6,96.9971,-373.192,0,0
378619.925,97.4564,-372.427,0,0
378880,97.9448,-371.624,0,0
379141,98.5494,-370.898,0,0
379401,99.1586,-370.167,0,0
379661,99.8014,-369.464,0,0
379922,100.501,-368.861,0,0
380182,101.191,-368.295,0,0
380442,101.849,-367.702,0,0
380703,102.519,-367.205,0,0
380963,103.18,-366.684,0,0
381223,103.813,-366.181,0,0
381483,104.51,-365.699,0,0
381744,105.169,-365.237,0,0
382004,105.843,-364.743,0,0
382264,106.571,-364.304,0,0
382525,107.298,-363.902,0,0
382785,108.032,-363.472,0,0
383045,108.781,-363.119,0,0
383306,109.569,-362.802,0,0
383566,110.291,-362.531,0,0
383826,111.026,-362.263,0,0
384087,111.678,-362.074,0,0
384347,112.369,-361.835,0,0
384607,113.026,-361.6,0,0
384868,113.692,-361.431,0,0
385128,114.341,-361.296,0,0
385388,114.947,-361.124,0,0
385649,115.552,-360.987,0,0
385909,116.074,-360.885,0,0
386169,116.533,-360.676,0,0
386430,117.05,-360.411,0,0
386690,117.573,-360.144,0,0
386950,118.148,-359.843,0,0
387211,118.795,-359.57,0,0
387471,119.369,-359.386,0,0
387731,120.004,-359.163,0,0
387992,120.523,-358.947,0,0
388252,121.103,-358.72,0,0
388512,121.654,-358.438,0,0
388773,122.257,-358.13,0,0
389033,122.901,-357.825,0,0
389293,123.624,-357.519,0,0
389554,124.355,-357.24,0,0
389814,125.14,-357.001,0,0
390074,125.899,-356.8,0,0
390335,126.717,-356.606,0,0
390595,127.491,-356.42,0,0
390855,128.337,-356.24,0,0
391116,129.151,-356.137,0,0
391376,130.033,-356.062,0,0
391636,130.831,-356.006,0,0
391896,131.631,-355.948,0,0
392157,132.482,-355.894,0,0
392417,133.305,-355.82,0,0
392677,134.236,-355.754,0,0
392938,135.12,-355.721,0,0
393198,136.077,-355.717,0,0
393458,137.084,-355.738,0,0
393719,138.07,-355.818,0,0
393979,139.093,-355.938,0,0
394239,140.119,-356.101,0,0
394500,141.148,-356.264,0,0
394760.05,142.259,-356.513,0,0
395020.375,143.336,-356.758,0,0
395280.7,144.47,-357.102,0,0
395541.025,145.642,-357.549,0,0
395801.35,146.788,-358.084,0,0
396061.675,147.903,-358.64,0,0
396322.0,149,-359.295,0,0
396582.325,150.072,-359.993,0,0
396842.65,151.189,-360.715,0,0
397102.975,152.344,-361.548,0,0
397363.3,153.446,-362.504,0,0
397623.625,154.545,-363.562,0,0
397883.95,155.543,-364.764,0,0
398144.275,156.494,-366.091,0,0
398404.6,157.318,-367.453,0,0
398664.925,158.072,-368.907,0,0
398925.25,158.671,-370.441,0,0
399185.575,159.165,-372.066,0,0
399445.9,159.564,-373.73,0,0
399706.225,159.791,-375.413,0,0
399966.55,159.859,-377.215,0,0
400006.6,159.842,-377.432,0,0