File: Accelerated corrosion test data/2025-10-02_18-00-03/sample_8.csv
Frequency (Hz),Impedance (ohms),Phase (Radians),Temperature (C),Humidity (%)
10000.0,320.357,-10854.5,0,0
10260.325,312.071,-10583.2,0,0
10520.65,304.541,-10324.1,0,0
10780.975,296.827,-10078.7,0,0
11041.3,290.034,-9843.4,0,0
11301.625,283.318,-9620.5,0,0
11561.95,277.096,-9405.18,0,0
11822.275,271.661,-9201.09,0,0
12082.6,269.74,-9003.71,0,0
12342.925,265.528,-8819.49,0,0
12603.25,260.14,-8639.75,0,0
12863.575,256.291,-8471.35,0,0
13123.9,247.089,-8308.12,0,0
13384.225,241.473,-8146.53,0,0
13644.55,238.169,-7992.8,0,0
13904.875,230.724,-7845.94,0,0
14165.2,225.679,-7703.73,0,0
14425.525,222.469,-7565.31,0,0
14685.8,217.919,-7432.93,0,0
14946.175,214.199,-7304.72,0,0
15206.5,210.765,-7180.71,0,0
15466.825,207.383,-7061.61,0,0
15727.15,203.967,-6946.04,0,0
15987.5,200.417,-6834.03,0,0
16247.8,197.351,-6725.68,0,0
16508.125,194.079,-6620.39,0,0
16768.45,191.031,-6518.85,0,0
17028.775,188.158,-6419.63,0,0
17289.1,185.188,-6323.58,0,0
17549.425,182.463,-6230.73,0,0
17809.75,180.678,-6139.35,0,0
18070.075,178.665,-6052.64,0,0
18330.4,175.009,-5966.22,0,0
18590.725,172.944,-5882.19,0,0
18851.05,172.834,-5800.02,0,0
19111.375,171.269,-5722.18,0,0
19371.7,173.506,-5645.82,0,0
19632.025,169.329,-5573.99,0,0
19892.35,166.696,-5504.16,0,0
20152.675,163.967,-5432.27,0,0
20413.0,163.099,-5363.09,0,0
20673.3,162.332,-5296.18,0,0
20933.65,160.614,-5233.17,0,0
21193.975,158.102,-5170.47,0,0
21454.3,155.687,-5106.75,0,0
21714.625,154.042,-5045.59,0,0
21974.9,153.683,-4986.91,0,0
22235.275,153.813,-4928.7,0,0
22495.6,152.157,-4873.01,0,0
22755.925,149.867,-4819.88,0,0
23016.25,146.978,-4765.92,0,0
23276.6,143.976,-4713.78,0,0
23536.9,143.049,-4661.43,0,0
23797.225,140.569,-4610.69,0,0
24057.55,138.496,-4560.21,0,0
24317.875,137.053,-4511.87,0,0
24578.2,134.747,-4464.06,0,0
24838.525,133.593,-4416.53,0,0
25098.85,131.995,-4371.13,0,0
25359.175,130.888,-4326.11,0,0
25619.5,129.886,-4282.03,0,0
25879.8,128.6,-4238.23,0,0
26140.1,127.824,-4196.55,0,0
26400.5,126.759,-4155.04,0,0
26660.8,125.012,-4114.29,0,0
26921.1,124.339,-4073.2,0,0
27181.4,124.526,-4034.51,0,0
27441.8,123.119,-3995.93,0,0
27702.1,122.564,-3958.9,0,0
27962.4,120.811,-3922.57,0,0
28222.7,121.251,-3884.78,0,0
28483.1,119.727,-3849.86,0,0
28743.4,119.639,-3814.33,0,0
29003.7,119.223,-3780.52,0,0
29264,119.147,-3745.92,0,0
29524.4,118.441,-3713.32,0,0
29784.7,118.104,-3680.76,0,0
30045,117.963,-3649.49,0,0
30305.3,117.79,-3618.42,0,0
30565.7,116.53,-3587.74,0,0
30826,115.91,-3557.62,0,0
31086.3,115.083,-3528.01,0,0
31346.6,114.351,-3498.36,0,0
31607,113.961,-3469.08,0,0
31867.3,113.604,-3440.73,0,0
32127.6,113.132,-3412.94,0,0
32387.9,112.628,-3385.03,0,0
32648.3,112.666,-3357.91,0,0
32908.6,113.193,-3330.68,0,0
33168.9,113.004,-3304.99,0,0
33429.2,113.943,-3279.32,0,0
33689.6,115.047,-3255.1,0,0
33949.9,114.484,-3232.04,0,0
34210.2,113.853,-3208.51,0,0
34470.5,112.968,-3185.18,0,0
34730.9,112.139,-3161.59,0,0
34991.2,112.129,-3139,0,0
35251.5,111.458,-3117.06,0,0
35511.8,110.525,-3095.53,0,0
35772.2,109.183,-3073.99,0,0
36032.5,108.002,-3052.35,0,0
36292.8,106.199,-3031.34,0,0
36553.1,104.979,-3009.82,0,0
36813.5,103.392,-2989.07,0,0
37073.8,102.239,-2968.16,0,0
37334.1,100.962,-2947.7,0,0
37594.4,99.7258,-2927.58,0,0
37854.8,98.3078,-2907.37,0,0
38115.1,97.0177,-2887.52,0,0
38375.4,95.6134,-2867.76,0,0
38635.7,94.3108,-2847.84,0,0
38896.1,93.1684,-2828.84,0,0
39156.4,91.8158,-2809.57,0,0
39416.7,90.8301,-2790.26,0,0
39677,89.8306,-2771.55,0,0
39937.4,88.6768,-2752.97,0,0
40197.7,87.9291,-2734.03,0,0
40458,87.7756,-2715.34,0,0
40718.3,87.6669,-2697.66,0,0
40978.7,86.7663,-2680.4,0,0
41239,86.2546,-2663.04,0,0
41499.3,85.6358,-2645.56,0,0
41759.6,85.2214,-2628.78,0,0
42020,84.6717,-2612.31,0,0
42280.275,84.061,-2595.66,0,0
42540.6,83.7241,-2578.98,0,0
42800.925,83.5161,-2562.68,0,0
43061.25,83.6376,-2546.53,0,0
43321.575,83.6937,-2531.14,0,0
43581.9,83.583,-2516.2,0,0
43842.225,82.7149,-2501.61,0,0
44102.55,82.0934,-2486.59,0,0
44362.875,81.3954,-2471.64,0,0
44623.2,80.6971,-2456.83,0,0
44883.525,80.2749,-2442.24,0,0
45143.85,79.8005,-2427.79,0,0
45404.175,79.2466,-2413.35,0,0
45664.5,78.7676,-2399.11,0,0
45924.825,78.305,-2385.31,0,0
46185.15,77.8824,-2371.53,0,0
46445.475,77.4741,-2357.65,0,0
46705.8,76.9132,-2343.86,0,0
46966.125,76.6995,-2330.47,0,0
47226.45,76.5237,-2317.11,0,0
47486.775,76.1933,-2304.22,0,0
47747.1,75.898,-2291.22,0,0
48007.425,75.6158,-2278.52,0,0
48267.75,75.147,-2265.93,0,0
48528.075,74.6841,-2253.38,0,0
48788.4,74.4662,-2241.02,0,0
49048.725,73.8565,-2228.67,0,0
49309.05,73.3511,-2216.4,0,0
49569.375,73.2328,-2204.16,0,0
49829.7,72.7626,-2192.33,0,0
50090.025,72.2228,-2180.36,0,0
50350.35,72.064,-2168.54,0,0
50610.675,71.7692,-2156.83,0,0
50871.0,71.5186,-2145.19,0,0
51131.325,71.3747,-2133.65,0,0
51391.65,71.0432,-2122.32,0,0
51651.975,71.1098,-2111.01,0,0
51912.3,71.0964,-2100.15,0,0
52172.625,70.936,-2089.32,0,0
52432.95,70.6983,-2078.55,0,0
52693.275,70.5589,-2067.77,0,0
52953.6,70.6728,-2057.19,0,0
53213.925,70.8241,-2047.03,0,0
53474.25,70.5627,-2036.86,0,0
53734.575,70.6971,-2027.14,0,0
53994.9,69.9848,-2017.49,0,0
54255.225,69.3838,-2007.66,0,0
54515.55,68.6193,-1997.78,0,0
54775.875,68.206,-1987.66,0,0
55036.2,67.4874,-1978.22,0,0
55296.525,67.0074,-1968.47,0,0
55556.85,66.1319,-1958.59,0,0
55817.175,65.7141,-1948.83,0,0
56077.5,65.2111,-1939.04,0,0
56337.825,64.6902,-1929.23,0,0
56598.15,64.296,-1919.63,0,0
56858.475,64.0855,-1909.96,0,0
57118.8,63.899,-1900.48,0,0
57379.125,63.6831,-1891.09,0,0
57639.45,63.554,-1881.87,0,0
57899.775,63.3838,-1872.72,0,0
58160.1,63.2326,-1863.65,0,0
58420.4,63.2479,-1854.58,0,0
58680.7,63.1516,-1845.67,0,0
58941.1,63.3373,-1836.94,0,0
59201.4,63.4205,-1828.51,0,0
59461.7,63.2491,-1820.31,0,0
59722,62.9494,-1811.95,0,0
59982.4,62.4773,-1803.58,0,0
60242.7,62.1104,-1795.05,0,0
60503,61.7841,-1786.53,0,0
60763.3,61.6878,-1778.03,0,0
61023.7,61.5464,-1769.7,0,0
61284,61.4936,-1761.37,0,0
61544.3,61.5718,-1753.22,0,0
61804.6,61.6557,-1745.26,0,0
62065,61.4919,-1737.35,0,0
62325.3,61.3261,-1729.3,0,0
62585.6,61.3606,-1721.32,0,0
62845.9,61.4329,-1713.56,0,0
63106.3,61.5226,-1705.67,0,0
63366.6,61.7904,-1697.97,0,0
63626.9,62.0629,-1690.52,0,0
63887.2,62.1697,-1683.13,0,0
64147.6,62.5186,-1675.58,0,0
64407.9,62.9775,-1668.43,0,0
64668.2,63.2547,-1661.81,0,0
64928.5,63.3389,-1655.04,0,0
65188.9,63.2162,-1648.36,0,0
65449.2,63.2068,-1641.72,0,0
65709.5,62.5445,-1635.17,0,0
65969.8,62.1648,-1628.39,0,0
66230.2,61.8338,-1621.7,0,0
66490.5,61.2066,-1614.87,0,0
66750.8,60.6244,-1607.91,0,0
67011.1,60.2379,-1600.95,0,0
67271.5,60.0054,-1593.91,0,0
67531.8,59.7972,-1587,0,0
67792.1,59.7313,-1580.21,0,0
68052.4,59.4471,-1573.32,0,0
68312.8,59.3173,-1566.59,0,0
68573.1,59.2581,-1559.97,0,0
68833.4,59.1035,-1553.3,0,0
69093.7,59.0979,-1546.79,0,0
69354.1,58.9593,-1540.12,0,0
69614.4,58.8854,-1533.56,0,0
69874.7,58.9786,-1527.18,0,0
70135,59.0844,-1520.7,0,0
70395.4,59.2648,-1514.42,0,0
70655.7,59.3338,-1508.22,0,0
70916,59.4195,-1502.13,0,0
71176.3,59.4512,-1495.92,0,0
71436.7,59.5297,-1489.94,0,0
71697,59.6403,-1483.86,0,0
71957.3,59.7847,-1477.99,0,0
72217.6,59.8807,-1472.24,0,0
72478,59.9988,-1466.67,0,0
72738.3,59.7108,-1461.15,0,0
72998.6,59.3525,-1455.51,0,0
73258.9,59.0873,-1449.61,0,0
73519.3,58.9247,-1443.74,0,0
73779.6,58.8082,-1437.85,0,0
74039.9,58.8629,-1432.06,0,0
74300.225,58.8893,-1426.56,0,0
74560.55,58.6967,-1420.98,0,0
74820.875,58.4677,-1415.34,0,0
75081.2,58.3761,-1409.58,0,0
75341.525,58.3044,-1403.96,0,0
75601.85,58.2638,-1398.35,0,0
75862.175,58.3931,-1392.7,0,0
76122.5,58.446,-1387.3,0,0
76382.825,58.4567,-1381.92,0,0
76643.15,58.5245,-1376.53,0,0
76903.475,58.5088,-1371.31,0,0
77163.8,58.4275,-1366.04,0,0
77424.125,58.3291,-1360.79,0,0
77684.45,58.2624,-1355.47,0,0
77944.775,58.2095,-1350.24,0,0
78205.1,58.1628,-1345.09,0,0
78465.425,58.0013,-1339.84,0,0
78725.75,57.8822,-1334.69,0,0
78986.075,57.8094,-1329.37,0,0
79246.4,57.8708,-1324.16,0,0
79506.725,57.7224,-1319,0,0
79767.05,57.7572,-1313.79,0,0
80027.375,57.8,-1308.56,0,0
80287.7,57.8322,-1303.49,0,0
80548.025,57.9766,-1298.38,0,0
80808.35,58.0753,-1293.41,0,0
81068.675,58.1118,-1288.37,0,0
81329.0,58.2023,-1283.35,0,0
81589.325,58.2825,-1278.33,0,0
81849.65,58.4082,-1273.36,0,0
82109.975,58.4394,-1268.35,0,0
82370.3,58.6834,-1263.2,0,0
82630.625,59.0908,-1258.23,0,0
82890.95,59.4761,-1253.37,0,0
83151.275,59.7866,-1248.72,0,0
83411.6,60.0962,-1243.97,0,0
83671.925,60.3709,-1239.18,0,0
83932.25,60.9539,-1234.45,0,0
84192.575,61.4973,-1230,0,0
84452.9,61.9337,-1225.69,0,0
84713.225,62.1722,-1221.32,0,0
84973.55,62.535,-1217.02,0,0
85233.875,62.879,-1212.88,0,0
85494.2,62.8728,-1208.78,0,0
85754.525,62.8349,-1204.67,0,0
86014.85,62.6802,-1200.16,0,0
86275.175,62.7221,-1195.73,0,0
86535.5,62.698,-1191.24,0,0
86795.825,62.7814,-1186.58,0,0
87056.15,63.116,-1182.02,0,0
87316.475,63.4474,-1177.7,0,0
87576.8,63.5921,-1173.39,0,0
87837.125,63.8474,-1168.77,0,0
88097.45,64.2857,-1164.27,0,0
88357.775,64.7046,-1159.98,0,0
88618.1,65.2224,-1155.72,0,0
88878.425,65.6695,-1151.44,0,0
89138.75,66.1272,-1147.27,0,0
89399.075,66.5267,-1143.1,0,0
89659.4,67.0832,-1139.03,0,0
89919.725,67.4633,-1134.74,0,0
90180,68.0834,-1130.58,0,0
90440.4,68.7756,-1126.54,0,0
90700.7,69.4434,-1122.49,0,0
90961,70.1226,-1118.37,0,0
91221.3,71.09,-1114.31,0,0
91481.7,72.1371,-1110.51,0,0
91742,73.1298,-1107.02,0,0
92002.3,74.3338,-1103.58,0,0
92262.6,75.1973,-1100.54,0,0
92523,76.0121,-1097.53,0,0
92783.3,76.6021,-1094.77,0,0
93043.6,77.0036,-1092.08,0,0
93303.9,77.143,-1089.46,0,0
93564.3,76.8669,-1086.65,0,0
93824.6,76.4419,-1083.6,0,0
94084.9,76.0697,-1080.33,0,0
94345.2,75.6516,-1076.75,0,0
94605.6,75.4928,-1072.9,0,0
94865.9,75.7513,-1069.04,0,0
95126.2,76.0754,-1065.78,0,0
95386.5,76.1753,-1062.34,0,0
95646.9,76.5254,-1058.76,0,0
95907.2,76.7052,-1055.63,0,0
96167.5,76.596,-1052.31,0,0
96427.8,76.5798,-1048.69,0,0
96688.2,76.9095,-1045.07,0,0
96948.5,77.2797,-1041.69,0,0
97208.8,77.5536,-1038.28,0,0
97469.1,77.9931,-1034.83,0,0
97729.5,78.6042,-1031.62,0,0
97989.8,79.0261,-1028.64,0,0
98250.1,79.3135,-1025.64,0,0
98510.4,79.658,-1022.56,0,0
98770.8,80.0615,-1019.61,0,0
99031.1,80.3989,-1016.88,0,0
99291.4,80.4739,-1014.27,0,0
99551.7,80.2277,-1011.43,0,0
99812.1,80.0665,-1008.33,0,0
100072,80.1074,-1005.05,0,0
100333,80.4135,-1001.99,0,0
100593,80.637,-999.127,0,0
100853,80.7321,-996.441,0,0
101114,80.6051,-993.741,0,0
101374,80.3178,-990.844,0,0
101634,80.1322,-987.764,0,0
101895,80.0754,-984.692,0,0
102155,79.9251,-981.583,0,0
102415,79.9767,-978.414,0,0
102676,80.0834,-975.36,0,0
102936,80.2378,-972.369,0,0
103196,80.3161,-969.486,0,0
103457,80.4095,-966.654,0,0
103717,80.3104,-963.87,0,0
103977,80.1729,-961.05,0,0
104238,79.989,-958.009,0,0
104498,79.923,-954.932,0,0
104758,79.9568,-951.894,0,0
105019,80.0368,-949.018,0,0
105279,79.9624,-946.034,0,0
105539,79.9757,-943.111,0,0
105800,79.957,-940.198,0,0
106060,80.0251,-937.193,0,0
106320.175,80.1101,-934.346,0,0
106580.5,80.1921,-931.482,0,0
106840.825,80.203,-928.67,0,0
107101.15,80.1491,-925.837,0,0
107361.475,80.1361,-922.957,0,0
107621.8,80.1618,-920.128,0,0
107882.125,80.1145,-917.293,0,0
108142.45,79.9476,-914.346,0,0
108402.775,80.0234,-911.265,0,0
108663.1,80.176,-908.303,0,0
108923.425,80.4229,-905.504,0,0
109183.75,80.5897,-902.655,0,0
109444.075,80.7886,-899.971,0,0
109704.4,80.9194,-897.257,0,0
109964.725,81.0382,-894.666,0,0
110225.05,81.1429,-892.053,0,0
110485.375,81.1597,-889.466,0,0
110745.7,81.0888,-886.853,0,0
111006.025,81.046,-884.218,0,0
111266.35,80.8503,-881.569,0,0
111526.675,80.8835,-878.913,0,0
111787.0,80.7851,-876.161,0,0
112047.325,80.8227,-873.447,0,0
112307.65,80.8342,-870.774,0,0
112567.975,80.7642,-868.096,0,0
112828.3,80.8217,-865.488,0,0
113088.625,80.7674,-862.899,0,0
113348.95,80.6642,-860.243,0,0
113609.275,80.6713,-857.503,0,0
113869.6,80.6631,-854.91,0,0
114129.925,80.6824,-852.345,0,0
114390.25,80.6087,-849.785,0,0
114650.575,80.389,-847.258,0,0
114910.9,80.2111,-844.67,0,0
115171.225,80.0099,-842.009,0,0
115431.55,79.8723,-839.33,0,0
115691.875,79.709,-836.604,0,0
115952.2,79.6305,-833.884,0,0
116212.525,79.4495,-831.221,0,0
116472.85,79.3358,-828.565,0,0
116733.175,79.2009,-825.856,0,0
116993.5,79.0028,-823.159,0,0
117253.825,78.8936,-820.404,0,0
117514.15,78.6914,-817.64,0,0
117774.475,78.5939,-814.797,0,0
118034.8,78.4966,-812.038,0,0
118295.125,78.3502,-809.152,0,0
118555.45,78.366,-806.289,0,0
118815.775,78.4907,-803.371,0,0
119076.1,78.6753,-800.718,0,0
119336.425,78.6608,-798.181,0,0
119596.75,78.6171,-795.492,0,0
119857.075,78.5396,-792.743,0,0
120117.4,78.4692,-789.994,0,0
120377.725,78.4828,-787.17,0,0
120638.05,78.494,-784.426,0,0
120898.375,78.4839,-781.599,0,0
121158.7,78.5863,-778.773,0,0
121419.025,78.7233,-776.071,0,0
121679.35,78.7587,-773.363,0,0
121939.675,78.8067,-770.617,0,0
122200.0,78.8646,-767.868,0,0
122460,78.9488,-765.106,0,0
122721,79.0725,-762.363,0,0
122981,79.1954,-759.643,0,0
123241,79.3166,-756.977,0,0
123502,79.2956,-754.237,0,0
123762,79.4024,-751.458,0,0
124022,79.3965,-748.589,0,0
124283,79.5292,-745.679,0,0
124543,79.8455,-742.824,0,0
124803,80.1574,-740.026,0,0
125064,80.4851,-737.256,0,0
125324,80.8059,-734.564,0,0
125584,81.157,-731.927,0,0
125845,81.4258,-729.25,0,0
126105,81.7287,-726.626,0,0
126365,82.0348,-723.937,0,0
126626,82.4458,-721.274,0,0
126886,82.8885,-718.711,0,0
127146,83.2702,-716.276,0,0
127406,83.5923,-713.86,0,0
127667,83.8811,-711.508,0,0
127927,83.9811,-709.104,0,0
128187,84.1812,-706.605,0,0
128448,84.4022,-704.132,0,0
128708,84.5092,-701.794,0,0
128968,84.5027,-699.413,0,0
129229,84.4631,-696.871,0,0
129489,84.4493,-694.317,0,0
129749,84.4445,-691.704,0,0
130010,84.4662,-689.077,0,0
130270,84.3894,-686.436,0,0
130530,84.1776,-683.642,0,0
130791,84.0496,-680.62,0,0
131051,84.0266,-677.414,0,0
131311,84.3694,-674.013,0,0
131572,85.1779,-670.844,0,0
131832,86.0335,-668.156,0,0
132092,86.5904,-665.647,0,0
132353,87.004,-663.101,0,0
132613,87.2742,-660.52,0,0
132873,87.5095,-657.662,0,0
133134,88.072,-654.746,0,0
133394,88.8012,-652.045,0,0
133654,89.3455,-649.499,0,0
133915,89.8324,-646.924,0,0
134175,90.3601,-644.278,0,0
134435,90.9205,-641.673,0,0
134696,91.536,-639.248,0,0
134956,91.9644,-636.805,0,0
135216,92.3434,-634.309,0,0
135477,92.7484,-631.724,0,0
135737,93.2143,-629.146,0,0
135997,93.7466,-626.624,0,0
136258,94.2551,-624.094,0,0
136518,94.7587,-621.706,0,0
136778,95.2334,-619.246,0,0
137039,95.7985,-617.019,0,0
137299,96.1017,-614.868,0,0
137559,96.2263,-612.744,0,0
137819,96.0484,-610.511,0,0
138080,95.7862,-608.02,0,0
138340.125,95.4587,-605.26,0,0
138600.45,95.2294,-602.164,0,0
138860.775,95.2885,-598.968,0,0
139121.1,95.5189,-595.808,0,0
139381.425,95.8542,-592.682,0,0
139641.75,96.2647,-589.652,0,0
139902.075,96.6239,-586.639,0,0
140162.4,96.9493,-583.675,0,0
140422.725,97.3475,-580.612,0,0
140683.05,97.6491,-577.535,0,0
140943.375,97.9654,-574.323,0,0
141203.7,98.3957,-571.081,0,0
141464.025,98.8411,-567.769,0,0
141724.35,99.3707,-564.353,0,0
141984.675,100.106,-560.991,0,0
142245.0,100.816,-557.72,0,0
142505.325,101.504,-554.41,0,0
142765.65,102.246,-551.053,0,0
143025.975,103.013,-547.768,0,0
143286.3,103.643,-544.399,0,0
143546.625,104.324,-540.827,0,0
143806.95,105.125,-537.117,0,0
144067.275,106.095,-533.308,0,0
144327.6,107.246,-529.454,0,0
144587.925,108.557,-525.558,0,0
144848.25,110.115,-521.626,0,0
145108.575,111.89,-517.856,0,0
145368.9,113.738,-514.185,0,0
145629.225,115.766,-510.508,0,0
145889.55,118.086,-507.027,0,0
146149.875,120.43,-503.929,0,0
146410.2,122.584,-501.079,0,0
146670.525,124.586,-498.202,0,0
146930.85,126.543,-495.299,0,0
147191.175,128.606,-492.259,0,0
147451.5,130.876,-489.4,0,0
147711.825,133.219,-486.852,0,0
147972.15,135.225,-484.756,0,0
148232.475,136.492,-482.626,0,0
148492.8,137.42,-479.852,0,0
148753.125,138.514,-476.4,0,0
149013.45,139.981,-472.655,0,0
149273.775,141.744,-468.655,0,0
149534.1,144.162,-464.359,0,0
149794.425,147.161,-460.444,0,0
150054.75,150.334,-456.733,0,0
150315.075,153.806,-453.15,0,0
150575.4,157.593,-449.806,0,0
150835.725,161.453,-446.894,0,0
151096.05,165.355,-444.043,0,0
151356.375,169.867,-440.928,0,0
151616.7,175.182,-438.682,0,0
151877.025,180.659,-437.716,0,0
152137.35,185.505,-437.935,0,0
152397.675,189.326,-438.6,0,0
152658.0,192.371,-439.326,0,0
152918.325,194.827,-439.988,0,0
153178.65,196.587,-440.207,0,0
153438.975,198.164,-440.034,0,0
153699.3,199.82,-439.521,0,0
153959.625,201.571,-439.073,0,0
154219.95,202.872,-438.706,0,0
154480,203.837,-437.865,0,0
154741,204.828,-436.412,0,0
155001,206.253,-434.487,0,0
155261,208.241,-432.421,0,0
155522,210.79,-430.51,0,0
155782,213.982,-429.059,0,0
156042,217.26,-428.333,0,0
156303,220.631,-428.75,0,0
156563,222.88,-430.196,0,0
156823,223.622,-431.665,0,0
157084,223.131,-432.6,0,0
157344,221.57,-432.203,0,0
157604,220.171,-429.8,0,0
157864,219.943,-426.48,0,0
158125,220.694,-422.869,0,0
158385,222.267,-419.379,0,0
158645,224.348,-415.861,0,0
158906,227.202,-412.364,0,0
159166,231.135,-409.113,0,0
159426,236.251,-407.111,0,0
159687,241.268,-406.992,0,0
159947,245.148,-408.229,0,0
160207,247.547,-409.872,0,0
160468,248.564,-411.032,0,0
160728,248.968,-411.634,0,0
160988,248.501,-411.302,0,0
161249,248.329,-409.324,0,0
161509,249.177,-406.646,0,0
161769,251.141,-403.972,0,0
162030,253.762,-401.629,0,0
162290,256.701,-399.837,0,0
162550,260.067,-398.382,0,0
162811,263.685,-397.581,0,0
163071,267.115,-397.506,0,0
163331,270.217,-397.841,0,0
163592,273.203,-398.699,0,0
163852,275.644,-399.903,0,0
164112,277.457,-401.387,0,0
164373,278.645,-403.068,0,0
164633,278.789,-404.145,0,0
164893,278.939,-404.715,0,0
165154,279.174,-404.937,0,0
165414,279.55,-404.848,0,0
165674,280.439,-404.901,0,0
165935,281.216,-405.799,0,0
166195,281.206,-407.142,0,0
166455,280.29,-408.437,0,0
166716,278.323,-409.353,0,0
166976,275.693,-409.246,0,0
167236,272.904,-408.209,0,0
167497,270.333,-406.217,0,0
167757,267.999,-403.716,0,0
168017,265.807,-400.681,0,0
168277,263.882,-396.932,0,0
168538,262.72,-392.698,0,0
168798,262.069,-388.528,0,0
169058,261.552,-384.093,0,0
169319,261.481,-379.407,0,0
169579,261.956,-374.532,0,0
169839,262.933,-369.799,0,0
170100,264.191,-365.312,0,0
170360.075,265.509,-360.96,0,0
170620.4,266.766,-356.386,0,0
170880.725,268.558,-351.589,0,0
171141.05,270.719,-347.017,0,0
171401.375,273.035,-342.592,0,0
171661.7,275.403,-338.209,0,0
171922.025,277.936,-333.61,0,0
172182.35,280.834,-328.966,0,0
172442.675,284.109,-324.44,0,0
172703.0,287.654,-319.931,0,0
172963.325,291.658,-315.738,0,0
173223.65,295.867,-311.846,0,0
173483.975,300.173,-308.122,0,0
173744.3,304.848,-304.815,0,0
174004.625,309.305,-301.829,0,0
174264.95,313.844,-299.011,0,0
174525.275,318.439,-296.511,0,0
174785.6,322.869,-294.5,0,0
175045.925,326.724,-292.526,0,0
175306.25,330.378,-290.421,0,0
175566.575,333.75,-288.136,0,0
175826.9,336.892,-285.631,0,0
176087.225,340.049,-282.347,0,0
176347.55,343.744,-278.529,0,0
176607.875,348.335,-274.664,0,0
176868.2,353.446,-271.226,0,0
177128.525,358.777,-268.07,0,0
177388.85,364.216,-265.353,0,0
177649.175,369.502,-262.93,0,0
177909.5,374.665,-260.621,0,0
178169.825,379.669,-257.892,0,0
178430.15,385.191,-254.985,0,0
178690.475,391.132,-252.142,0,0
178950.8,397.462,-249.581,0,0
179211.125,404.165,-247.524,0,0
179471.45,410.729,-245.969,0,0
179731.775,417.29,-244.53,0,0
179992.1,423.756,-243.25,0,0
180252.425,430.212,-242.045,0,0
180512.75,436.842,-240.785,0,0
180773.075,443.798,-239.968,0,0
181033.4,450.659,-239.511,0,0
181293.725,457.13,-239.492,0,0
181554.05,463.236,-239.116,0,0
181814.375,469.688,-238.318,0,0
182074.7,476.781,-237.91,0,0
182335.025,483.769,-237.958,0,0
182595.35,490.834,-237.895,0,0
182855.675,498.116,-238.266,0,0
183116.0,505.546,-239.506,0,0
183376.325,512.208,-241.272,0,0
183636.65,518.003,-242.407,0,0
183896.975,524.087,-243.118,0,0
184157.3,530.375,-243.8,0,0
184417.625,536.783,-244.5,0,0
184677.95,543.436,-245.445,0,0
184938.275,549.828,-246.714,0,0
185198.6,555.66,-247.658,0,0
185458.925,561.689,-247.767,0,0
185719.25,568.61,-247.547,0,0
185979.575,576.137,-247.469,0,0
186239.9,584.384,-247.443,0,0
186500,593.711,-247.949,0,0
186761,603.54,-250.03,0,0
187021,612.655,-253.256,0,0
187281,621.073,-256.696,0,0
187542,629.108,-260.185,0,0
187802,637.081,-263.203,0,0
188062,645.66,-266.302,0,0
188322,654.665,-269.852,0,0
188583,663.978,-274.324,0,0
188843,672.8,-279.726,0,0
189103,681.093,-285.69,0,0
189364,688.534,-292.268,0,0
189624,694.802,-298.734,0,0
189884,700.265,-304.167,0,0
190145,705.925,-308.42,0,0
190405,712.497,-312.22,0,0
190665,719.663,-315.935,0,0
190926,727.31,-319.551,0,0
191186,736.397,-323.013,0,0
191446,746.77,-327.398,0,0
191707,757.857,-333.478,0,0
191967,769.027,-340.734,0,0
192227,780.268,-349.516,0,0
192488,790.63,-360.061,0,0
192748,799.298,-371.193,0,0
193008,806.679,-382.129,0,0
193269,813.965,-392.327,0,0
193529,821.87,-402.443,0,0
193789,830.343,-412.989,0,0
194050,839.433,-424.637,0,0
194310,848.484,-437.734,0,0
194570,857.427,-452.487,0,0
194831,865.28,-469.295,0,0
195091,870.902,-487.492,0,0
195351,874.21,-505.689,0,0
195612,876.229,-523.033,0,0
195872,877.9,-539.871,0,0
196132,879.302,-557.167,0,0
196393,880.078,-575.085,0,0
196653,879.55,-593.977,0,0
196913,877.429,-613.204,0,0
197174,873.439,-632.325,0,0
197434,867.86,-651.088,0,0
197694,860.503,-668.986,0,0
197955,851.719,-685.725,0,0
198215,842.078,-701.117,0,0
198475,831.698,-715.048,0,0
198735,821.244,-727.741,0,0
198996,811.311,-739.588,0,0
199256,801.489,-751.268,0,0
199516,790.972,-763.062,0,0
199777,779.624,-774.75,0,0
200037,766.77,-785.772,0,0
200297,752.662,-795.497,0,0
200558,737.692,-803.214,0,0
200818,722.901,-808.665,0,0
201078,709.202,-812.264,0,0
201339,696.836,-815.022,0,0
201599,685.666,-817.548,0,0
201859,675.133,-820.497,0,0
202120,664.562,-823.61,0,0
202380.025,653.734,-826.711,0,0
202640.35,642.253,-829.625,0,0
202900.675,630.307,-831.295,0,0
203161.0,618.363,-831.787,0,0
203421.325,607.179,-831.152,0,0
203681.65,596.775,-829.994,0,0
203941.975,587.037,-828.509,0,0
204202.3,578.112,-827.286,0,0
204462.625,569.013,-825.718,0,0
204722.95,560.045,-823.638,0,0
204983.275,551.615,-820.832,0,0
205243.6,543.91,-818.067,0,0
205503.925,536.481,-815.413,0,0
205764.25,529.051,-812.508,0,0
206024.575,521.727,-809.298,0,0
206284.9,514.397,-805.46,0,0
206545.225,507.644,-800.698,0,0
206805.55,501.854,-795.278,0,0
207065.875,497.269,-789.661,0,0
207326.2,493.872,-784.164,0,0
207586.525,491.219,-779.293,0,0
207846.85,489.157,-774.762,0,0
208107.175,487.642,-770.778,0,0
208367.5,486.349,-767.619,0,0
208627.825,484.948,-764.831,0,0
208888.15,483.321,-762.307,0,0
209148.475,481.59,-759.699,0,0
209408.8,479.939,-756.965,0,0
209669.125,478.598,-754.118,0,0
209929.45,477.54,-751.182,0,0
210189.775,476.941,-748.292,0,0
210450.1,476.755,-745.542,0,0
210710.425,477.013,-743.064,0,0
210970.75,477.613,-741.013,0,0
211231.075,478.393,-739.285,0,0
211491.4,479.269,-737.896,0,0
211751.725,480.435,-736.717,0,0
212012.05,481.958,-736.169,0,0
212272.375,483.523,-736.085,0,0
212532.7,485.112,-736.517,0,0
212793.025,486.726,-737.578,0,0
213053.35,488.135,-739.361,0,0
213313.675,488.941,-741.845,0,0
213574.0,488.943,-744.445,0,0
213834.325,488.473,-747.318,0,0
214094.65,487.264,-750.085,0,0
214354.975,485.621,-752.628,0,0
214615.3,483.557,-754.89,0,0
214875.625,481.136,-756.812,0,0
215135.95,478.615,-758.266,0,0
215396.275,476.037,-759.523,0,0
215656.6,473.226,-760.361,0,0
215916.925,470.332,-760.725,0,0
216177.25,467.701,-760.715,0,0
216437.575,465.21,-760.25,0,0
216697.9,463.072,-759.358,0,0
216958.225,461.35,-758.061,0,0
217218.55,460.408,-756.482,0,0
217478.875,460.423,-755.039,0,0
217739.2,461.011,-754.177,0,0
217999.525,461.934,-753.917,0,0
218259.85,462.957,-754.142,0,0
218520,464.081,-754.848,0,0
218780,465.298,-756.058,0,0
219041,466.35,-757.736,0,0
219301,467.166,-759.704,0,0
219561,467.845,-761.904,0,0
219822,468.38,-764.307,0,0
220082,468.88,-766.973,0,0
220342,469.33,-769.892,0,0
220603,469.62,-773.107,0,0
220863,469.746,-776.591,0,0
221123,469.804,-780.525,0,0
221384,469.304,-784.934,0,0
221644,468.335,-789.595,0,0
221904,466.91,-794.221,0,0
222165,464.979,-798.983,0,0
222425,462.621,-803.68,0,0
222685,459.824,-808.362,0,0
222946,456.642,-812.877,0,0
223206,452.901,-817.268,0,0
223466,448.793,-821.257,0,0
223727,444.496,-825.058,0,0
223987,440.103,-828.373,0,0
224247,435.703,-831.552,0,0
224508,431.246,-834.506,0,0
224768,426.626,-837.542,0,0
225028,421.857,-840.509,0,0
225289,416.769,-843.135,0,0
225549,411.475,-845.709,0,0
225809,406.043,-848.088,0,0
226070,400.465,-850.181,0,0
226330,394.671,-851.749,0,0
226590,388.788,-853.262,0,0
226851,382.934,-854.357,0,0
227111,376.973,-855.136,0,0
227371,371.066,-855.587,0,0
227632,365.328,-855.775,0,0
227892,359.619,-855.856,0,0
228152,353.816,-855.627,0,0
228413,348.109,-854.958,0,0
228673,342.824,-853.862,0,0
228933,337.797,-852.775,0,0
229193,333.108,-851.678,0,0
229454,328.535,-850.671,0,0
229714,324.043,-849.673,0,0
229974,319.5,-848.676,0,0
230235,315.166,-847.797,0,0
230495,310.658,-846.872,0,0
230755,306.044,-846.003,0,0
231016,301.323,-844.835,0,0
231276,296.646,-843.459,0,0
231536,292.079,-841.979,0,0
231797,287.551,-840.499,0,0
232057,283.073,-838.862,0,0
232317,278.518,-837.056,0,0
232578,274.044,-835.244,0,0
232838,269.481,-833.139,0,0
233098,265.061,-830.838,0,0
233359,260.847,-828.316,0,0
233619,256.815,-825.74,0,0
233879,252.854,-823.116,0,0
234140,248.931,-820.407,0,0
234400,245.108,-817.508,0,0
234660.3,241.443,-814.437,0,0
234920.625,237.949,-811.389,0,0
235180.95,234.527,-808.095,0,0
235441.275,231.325,-804.624,0,0
235701.6,228.453,-801.033,0,0
235961.925,225.847,-797.462,0,0
236222.25,223.408,-793.952,0,0
236482.575,221.224,-790.463,0,0
236742.9,219.268,-787.028,0,0
237003.225,217.551,-783.74,0,0
237263.55,215.985,-780.544,0,0
237523.875,214.49,-777.551,0,0
237784.2,213.097,-774.658,0,0
238044.525,211.703,-771.807,0,0
238304.85,210.35,-769.138,0,0
238565.175,209.131,-766.386,0,0
238825.5,207.993,-763.776,0,0
239085.825,206.934,-761.198,0,0
239346.15,206.017,-758.803,0,0
239606.475,205.05,-756.627,0,0
239866.8,204.03,-754.619,0,0
240127.125,203.015,-752.786,0,0
240387.45,201.749,-750.956,0,0
240647.775,200.361,-749.097,0,0
240908.1,198.974,-747.117,0,0
241168.425,197.515,-745.241,0,0
241428.75,195.982,-743.22,0,0
241689.075,194.544,-741.172,0,0
241949.4,192.99,-739.128,0,0
242209.725,191.536,-736.989,0,0
242470.05,189.973,-734.725,0,0
242730.375,188.5,-732.418,0,0
242990.7,187.204,-729.972,0,0
243251.025,185.884,-727.564,0,0
243511.35,184.619,-725.115,0,0
243771.675,183.515,-722.57,0,0
244032.0,182.643,-720.006,0,0
244292.325,181.894,-717.705,0,0
244552.65,181.053,-715.355,0,0
244812.975,180.222,-713.254,0,0
245073.3,179.317,-711.074,0,0
245333.625,178.254,-708.891,0,0
245593.95,177.195,-706.641,0,0
245854.275,176.167,-704.17,0,0
246114.6,175.246,-701.619,0,0
246374.925,174.444,-698.959,0,0
246635.25,173.893,-696.332,0,0
246895.575,173.439,-693.727,0,0
247155.9,173.073,-691.205,0,0
247416.225,172.883,-688.787,0,0
247676.55,172.559,-686.426,0,0
247936.875,172.274,-684.154,0,0
248197.2,172.124,-681.882,0,0
248457.525,171.912,-679.701,0,0
248717.85,171.608,-677.581,0,0
248978.175,171.283,-675.361,0,0
249238.5,171.014,-673.022,0,0
249498.825,170.787,-670.612,0,0
249759.15,170.636,-668.111,0,0
250019.475,170.609,-665.661,0,0
250279.8,170.696,-663.12,0,0
250540,170.851,-660.472,0,0
250800,171.269,-657.858,0,0
251061,171.982,-655.377,0,0
251321,172.704,-652.989,0,0
251581,173.616,-650.652,0,0
251842,174.692,-648.539,0,0
252102,175.929,-646.477,0,0
252362,177.286,-644.671,0,0
252623,178.73,-643.19,0,0
252883,180.047,-642.064,0,0
253143,181.184,-641.144,0,0
253404,182.074,-640.353,0,0
253664,182.757,-639.567,0,0
253924,183.223,-638.704,0,0
254185,183.553,-637.681,0,0
254445,183.886,-636.562,0,0
254705,184.212,-635.285,0,0
254966,184.596,-633.901,0,0
255226,185.11,-632.453,0,0
255486,185.761,-630.957,0,0
255747,186.556,-629.49,0,0
256007,187.519,-628.076,0,0
256267,188.609,-626.771,0,0
256528,189.813,-625.658,0,0
256788,190.979,-624.744,0,0
257048,192.045,-623.961,0,0
257309,193.057,-623.196,0,0
257569,194.04,-622.387,0,0
257829,195.078,-621.591,0,0
258090,196.192,-620.829,0,0
258350,197.368,-620.177,0,0
258610,198.634,-619.707,0,0
258871,199.803,-619.367,0,0
259131,200.898,-619.082,0,0
259391,201.98,-618.837,0,0
259651,203.056,-618.626,0,0
259912,204.256,-618.565,0,0
260172,205.196,-618.605,0,0
260432,206.111,-618.664,0,0
260693,206.989,-618.704,0,0
260953,207.881,-618.846,0,0
261213,208.77,-619.088,0,0
261474,209.547,-619.545,0,0
261734,210.075,-619.976,0,0
261994,210.478,-620.357,0,0
262255,210.77,-620.684,0,0
262515,211.01,-620.965,0,0
262775,211.154,-621.131,0,0
263036,211.241,-621.189,0,0
263296,211.363,-621.117,0,0
263556,211.565,-620.966,0,0
263817,211.84,-620.816,0,0
264077,212.119,-620.608,0,0
264337,212.413,-620.359,0,0
264598,212.78,-620.027,0,0
264858,213.25,-619.523,0,0
265118,213.929,-619,0,0
265379,214.772,-618.433,0,0
265639,215.78,-617.855,0,0
265899,217.072,-617.403,0,0
266160,218.594,-617.042,0,0
266420,220.34,-616.934,0,0
266680.25,222.216,-617.03,0,0
266940.575,224.333,-617.335,0,0
267200.9,226.561,-617.989,0,0
267461.225,228.854,-619.028,0,0
267721.55,231.145,-620.352,0,0
267981.875,233.428,-622.156,0,0
268242.2,235.591,-624.287,0,0
268502.525,237.674,-626.927,0,0
268762.85,239.355,-629.789,0,0
269023.175,240.799,-632.993,0,0
269283.5,242.017,-636.431,0,0
269543.825,242.757,-640.205,0,0
269804.15,243.012,-644.144,0,0
270064.475,242.858,-648.013,0,0
270324.8,242.676,-651.905,0,0
270585.125,241.871,-655.757,0,0
270845.45,240.772,-659.618,0,0
271105.775,239.414,-663.483,0,0
271366.1,237.726,-667.382,0,0
271626.425,235.589,-671.221,0,0
271886.75,233.202,-674.941,0,0
272147.075,230.467,-678.557,0,0
272407.4,227.265,-682.067,0,0
272667.725,223.838,-685.235,0,0
272928.05,219.885,-688.271,0,0
273188.375,215.621,-690.954,0,0
273448.7,211.08,-693.15,0,0
273709.025,206.393,-694.884,0,0
273969.35,201.616,-696.137,0,0
274229.675,196.873,-696.991,0,0
274490.0,192.142,-697.549,0,0
274750.325,187.448,-697.724,0,0
275010.65,182.754,-697.567,0,0
275270.975,178.195,-697.043,0,0
275531.3,173.773,-696.15,0,0
275791.625,169.526,-694.923,0,0
276051.95,165.555,-693.425,0,0
276312.275,161.877,-691.744,0,0
276572.6,158.526,-689.927,0,0
276832.925,155.439,-688.115,0,0
277093.25,152.397,-686.365,0,0
277353.575,149.599,-684.474,0,0
277613.9,146.931,-682.593,0,0
277874.225,144.422,-680.669,0,0
278134.55,141.974,-678.738,0,0
278394.875,139.622,-676.774,0,0
278655.2,137.358,-674.756,0,0
278915.525,135.176,-672.705,0,0
279175.85,133.109,-670.534,0,0
279436.175,131.103,-668.324,0,0
279696.5,129.27,-665.989,0,0
279956.825,127.598,-663.601,0,0
280217.15,126.127,-661.151,0,0
280477.475,124.946,-658.659,0,0
280737.8,124.028,-656.277,0,0
280998.125,123.282,-654.045,0,0
281258.45,122.713,-652.02,0,0
281518.775,122.1,-650.185,0,0
281779.1,121.476,-648.424,0,0
282039.425,120.852,-646.676,0,0
282299.75,120.278,-644.965,0,0
282560,119.775,-643.243,0,0
282820,119.376,-641.583,0,0
283081,119.018,-640.049,0,0
283341,118.717,-638.573,0,0
283601,118.409,-637.198,0,0
283862,118.085,-635.813,0,0
284122,117.81,-634.491,0,0
284382,117.602,-633.153,0,0
284643,117.477,-631.956,0,0
284903,117.29,-630.809,0,0
285163,117.169,-629.753,0,0
285424,117.01,-628.633,0,0
285684,116.953,-627.576,0,0
285944,116.995,-626.542,0,0
286205,117.151,-625.649,0,0
286465,117.289,-624.936,0,0
286725,117.514,-624.318,0,0
286986,117.802,-623.975,0,0
287246,118.011,-623.844,0,0
287506,118.033,-623.962,0,0
287767,117.86,-624.224,0,0
288027,117.416,-624.538,0,0
288287,116.77,-624.822,0,0
288548,115.948,-625.085,0,0
288808,114.982,-625.254,0,0
289068,113.9,-625.377,0,0
289329,112.704,-625.409,0,0
289589,111.428,-625.337,0,0
289849,110.092,-625.168,0,0
290109,108.701,-624.926,0,0
290370,107.246,-624.543,0,0
290630,105.835,-624.051,0,0
290890,104.46,-623.478,0,0
291151,103.167,-622.906,0,0
291411,101.836,-622.36,0,0
291671,100.509,-621.814,0,0
291932,99.0934,-621.289,0,0
292192,97.5677,-620.711,0,0
292452,95.9546,-620.015,0,0
292713,94.2855,-619.179,0,0
292973,92.6255,-618.241,0,0
293233,90.9881,-617.15,0,0
293494,89.3977,-615.949,0,0
293754,87.8649,-614.652,0,0
294014,86.466,-613.254,0,0
294275,85.0881,-611.806,0,0
294535,83.8321,-610.32,0,0
294795,82.6392,-608.804,0,0
295056,81.5606,-607.259,0,0
295316,80.5368,-605.774,0,0
295576,79.5442,-604.278,0,0
295837,78.5648,-602.777,0,0
296097,77.6294,-601.253,0,0
296357,76.7444,-599.716,0,0
296618,75.9255,-598.173,0,0
296878,75.1314,-596.646,0,0
297138,74.3929,-595.099,0,0
297399,73.6643,-593.577,0,0
297659,72.9774,-592.023,0,0
297919,72.3146,-590.458,0,0
298180,71.6988,-588.885,0,0
298440,71.1392,-587.306,0,0
298700.2,70.5724,-585.746,0,0
298960.525,70.1739,-584.222,0,0
299220.85,69.7157,-582.627,0,0
299481.175,69.4048,-581.055,0,0
299741.5,69.0339,-579.643,0,0
300001.825,68.71,-578.056,0,0
300262.15,68.3957,-576.568,0,0
300522.475,68.238,-575.119,0,0
300782.8,67.99,-573.679,0,0
301043.125,67.769,-572.167,0,0
301303.45,67.7308,-570.721,0,0
301563.775,67.5324,-569.3,0,0
301824.1,67.5416,-567.784,0,0
302084.425,67.6018,-566.462,0,0
302344.75,67.6638,-565.161,0,0
302605.075,67.7706,-563.953,0,0
302865.4,67.8782,-562.683,0,0
303125.725,67.9829,-561.552,0,0
303386.05,68.135,-560.466,0,0
303646.375,68.2508,-559.301,0,0
303906.7,68.4115,-558.353,0,0
304167.025,68.4683,-557.399,0,0
304427.35,68.6523,-556.452,0,0
304687.675,68.7473,-555.535,0,0
304948.0,68.8168,-554.697,0,0
305208.325,68.8521,-553.73,0,0
305468.65,68.9834,-552.894,0,0
305728.975,69.0773,-551.938,0,0
305989.3,69.1723,-551.178,0,0
306249.625,69.2205,-550.42,0,0
306509.95,69.3318,-549.587,0,0
306770.275,69.3934,-548.868,0,0
307030.6,69.561,-548.176,0,0
307290.925,69.693,-547.452,0,0
307551.25,69.6603,-546.833,0,0
307811.575,69.743,-546.172,0,0
308071.9,69.7357,-545.609,0,0
308332.225,69.8353,-545.074,0,0
308592.55,69.7841,-544.599,0,0
308852.875,69.7858,-544.048,0,0
309113.2,69.7012,-543.711,0,0
309373.525,69.5507,-543.202,0,0
309633.85,69.2979,-542.729,0,0
309894.175,69.0397,-542.312,0,0
310154.5,68.6884,-541.79,0,0
310414.825,68.4218,-541.235,0,0
310675.15,68.0689,-540.626,0,0
310935.475,67.8424,-540.029,0,0
311195.8,67.6227,-539.408,0,0
311456.125,67.3125,-538.809,0,0
311716.45,67.0634,-538.254,0,0
311976.775,66.7896,-537.695,0,0
312237.1,66.4441,-537.039,0,0
312497.425,66.0554,-536.441,0,0
312757.75,65.7658,-535.89,0,0
313018.075,65.4735,-535.312,0,0
313278.4,65.0042,-534.637,0,0
313538.725,64.6988,-534.054,0,0
313799.05,64.3743,-533.394,0,0
314059.375,63.9238,-532.7,0,0
314319.7,63.5373,-532.023,0,0
314580,63.0628,-531.3,0,0
314840,62.6087,-530.521,0,0
315101,62.2533,-529.674,0,0
315361,61.9123,-528.849,0,0
315621,61.6095,-527.981,0,0
315882,61.3788,-527.124,0,0
316142,61.0479,-526.309,0,0
316402,60.8151,-525.365,0,0
316663,60.6662,-524.534,0,0
316923,60.5065,-523.714,0,0
317183,60.3631,-522.867,0,0
317444,60.3249,-522.049,0,0
317704,60.1597,-521.354,0,0
317964,60.1316,-520.507,0,0
318225,60.0636,-519.76,0,0
318485,59.914,-519.101,0,0
318745,59.9559,-518.442,0,0
319006,59.8211,-517.745,0,0
319266,59.8286,-517.12,0,0
319526,59.7426,-516.567,0,0
319787,59.6288,-515.911,0,0
320047,59.5375,-515.334,0,0
320307,59.4469,-514.871,0,0
320567,59.3547,-514.324,0,0
320828,59.3049,-513.85,0,0
321088,59.098,-513.347,0,0
321348,58.969,-512.901,0,0
321609,58.7573,-512.489,0,0
321869,58.4904,-512.052,0,0
322129,58.2646,-511.606,0,0
322390,57.9493,-511.052,0,0
322650,57.6319,-510.542,0,0
322910,57.3621,-510.055,0,0
323171,57.0865,-509.543,0,0
323431,56.7166,-509.084,0,0
323691,56.411,-508.624,0,0
323952,56.0808,-508.109,0,0
324212,55.673,-507.674,0,0
324472,55.2075,-507.172,0,0
324733,54.7937,-506.638,0,0
324993,54.343,-506.03,0,0
325253,53.8218,-505.477,0,0
325514,53.3545,-504.765,0,0
325774,52.8686,-504.128,0,0
326034,52.4671,-503.408,0,0
326295,51.9963,-502.645,0,0
326555,51.5864,-501.975,0,0
326815,51.1854,-501.294,0,0
327076,50.829,-500.553,0,0
327336,50.4183,-499.759,0,0
327596,50.0288,-498.994,0,0
327857,49.6398,-498.264,0,0
328117,49.3002,-497.436,0,0
328377,48.9129,-496.676,0,0
328638,48.553,-495.906,0,0
328898,48.1918,-495.033,0,0
329158,47.8817,-494.251,0,0
329419,47.526,-493.414,0,0
329679,47.2382,-492.588,0,0
329939,46.9004,-491.766,0,0
330200,46.6907,-490.915,0,0
330460,46.4159,-490.058,0,0
330720.15,46.0976,-489.238,0,0
330980.475,45.8607,-488.446,0,0
331240.8,45.6807,-487.569,0,0
331501.125,45.3989,-486.744,0,0
331761.45,45.1578,-485.891,0,0
332021.775,44.9951,-485.029,0,0
332282.1,44.7398,-484.191,0,0
332542.425,44.6083,-483.318,0,0
332802.75,44.3773,-482.431,0,0
333063.075,44.2344,-481.535,0,0
333323.4,44.1312,-480.685,0,0
333583.725,43.9758,-479.789,0,0
333844.05,43.8942,-479.013,0,0
334104.375,43.8425,-478.164,0,0
334364.7,43.7723,-477.257,0,0
334625.025,43.7067,-476.394,0,0
334885.35,43.6483,-475.599,0,0
335145.675,43.6416,-474.736,0,0
335406.0,43.6655,-473.936,0,0
335666.325,43.6944,-473.229,0,0
335926.65,43.6963,-472.487,0,0
336186.975,43.6858,-471.774,0,0
336447.3,43.6679,-471.057,0,0
336707.625,43.7083,-470.367,0,0
336967.95,43.7421,-469.716,0,0
337228.275,43.7312,-469.052,0,0
337488.6,43.7014,-468.396,0,0
337748.925,43.7097,-467.747,0,0
338009.25,43.6412,-467.074,0,0
338269.575,43.631,-466.501,0,0
338529.9,43.6233,-465.893,0,0
338790.225,43.5013,-465.273,0,0
339050.55,43.413,-464.628,0,0
339310.875,43.4351,-464.058,0,0
339571.2,43.3142,-463.456,0,0
339831.525,43.2521,-462.851,0,0
340091.85,43.149,-462.267,0,0
340352.175,43.0181,-461.643,0,0
340612.5,42.9111,-461.065,0,0
340872.825,42.8025,-460.463,0,0
341133.15,42.6681,-459.825,0,0
341393.475,42.5474,-459.205,0,0
341653.8,42.3603,-458.596,0,0
341914.125,42.26,-457.959,0,0
342174.45,42.1059,-457.307,0,0
342434.775,41.9497,-456.642,0,0
342695.1,41.8301,-455.967,0,0
342955.425,41.7017,-455.301,0,0
343215.75,41.501,-454.688,0,0
343476.075,41.3903,-453.993,0,0
343736.4,41.1822,-453.261,0,0
343996.725,41.0488,-452.558,0,0
344257.05,40.9362,-451.796,0,0
344517.375,40.8166,-451.103,0,0
344777.7,40.7332,-450.361,0,0
345038.025,40.6148,-449.625,0,0
345298.35,40.5573,-448.85,0,0
345558.675,40.4384,-448.121,0,0
345819.0,40.3756,-447.374,0,0
346079.325,40.3035,-446.648,0,0
346339.65,40.292,-445.87,0,0
346599.975,40.2341,-445.124,0,0
346860,40.1906,-444.386,0,0
347121,40.2142,-443.57,0,0
347381,40.228,-442.885,0,0
347641,40.2828,-442.145,0,0
347902,40.3338,-441.415,0,0
348162,40.3971,-440.697,0,0
348422,40.3861,-439.978,0,0
348683,40.403,-439.31,0,0
348943,40.4564,-438.577,0,0
349203,40.5628,-437.903,0,0
349464,40.5813,-437.225,0,0
349724,40.7174,-436.497,0,0
349984,40.7932,-435.876,0,0
350245,40.8079,-435.253,0,0
350505,40.9692,-434.599,0,0
350765,41.0682,-433.944,0,0
351025,41.1421,-433.352,0,0
351286,41.2494,-432.697,0,0
351546,41.3161,-432.117,0,0
351806,41.4224,-431.534,0,0
352067,41.5197,-430.91,0,0
352327,41.5742,-430.36,0,0
352587,41.6873,-429.792,0,0
352848,41.7379,-429.219,0,0
353108,41.8037,-428.668,0,0
353368,41.8679,-428.055,0,0
353629,41.9435,-427.492,0,0
353889,42.0551,-426.93,0,0
354149,42.1056,-426.364,0,0
354410,42.1991,-425.86,0,0
354670,42.3105,-425.27,0,0
354930,42.3745,-424.731,0,0
355191,42.4666,-424.251,0,0
355451,42.5482,-423.699,0,0
355711,42.6222,-423.186,0,0
355972,42.692,-422.67,0,0
356232,42.754,-422.215,0,0
356492,42.8081,-421.778,0,0
356753,42.82,-421.293,0,0
357013,42.8209,-420.803,0,0
357273,42.8106,-420.327,0,0
357534,42.7768,-419.821,0,0
357794,42.7988,-419.365,0,0
358054,42.7667,-418.849,0,0
358315,42.7684,-418.27,0,0
358575,42.7391,-417.784,0,0
358835,42.7102,-417.261,0,0
359096,42.6562,-416.673,0,0
359356,42.6834,-416.132,0,0
359616,42.6496,-415.559,0,0
359877,42.6402,-415.003,0,0
360137,42.6353,-414.418,0,0
360397,42.6204,-413.838,0,0
360658,42.6504,-413.276,0,0
360918,42.6326,-412.701,0,0
361178,42.6586,-412.149,0,0
361438,42.6518,-411.575,0,0
361699,42.7164,-410.99,0,0
361959,42.6894,-410.382,0,0
362219,42.7175,-409.738,0,0
362480,42.7488,-409.15,0,0
362740.1,42.8283,-408.527,0,0
363000.425,42.8925,-407.921,0,0
363260.75,42.9889,-407.293,0,0
363521.075,43.1183,-406.678,0,0
363781.4,43.2104,-406.058,0,0
364041.725,43.3322,-405.462,0,0
364302.05,43.4515,-404.829,0,0
364562.375,43.631,-404.229,0,0
364822.7,43.765,-403.673,0,0
365083.025,43.9309,-403.093,0,0
365343.35,44.1353,-402.506,0,0
365603.675,44.3393,-401.973,0,0
365864.0,44.5279,-401.412,0,0
366124.325,44.7273,-400.909,0,0
366384.65,44.924,-400.409,0,0
366644.975,45.1466,-399.907,0,0
366905.3,45.3533,-399.427,0,0
367165.625,45.5595,-399.018,0,0
367425.95,45.7539,-398.607,0,0
367686.275,45.94,-398.111,0,0
367946.6,46.0939,-397.691,0,0
368206.925,46.2191,-397.248,0,0
368467.25,46.4359,-396.816,0,0
368727.575,46.5948,-396.317,0,0
368987.9,46.7701,-395.9,0,0
369248.225,46.9718,-395.445,0,0
369508.55,47.1604,-394.986,0,0
369768.875,47.3793,-394.548,0,0
370029.2,47.6341,-394.127,0,0
370289.525,47.9177,-393.738,0,0
370549.85,48.1717,-393.381,0,0
370810.175,48.4563,-393.055,0,0
371070.5,48.6803,-392.737,0,0
371330.825,48.9497,-392.451,0,0
371591.15,49.1812,-392.222,0,0
371851.475,49.4116,-392.007,0,0
372111.8,49.5589,-391.8,0,0
372372.125,49.7132,-391.605,0,0
372632.45,49.8472,-391.442,0,0
372892.775,49.9372,-391.301,0,0
373153.1,50.0114,-391.108,0,0
373413.425,50.0638,-390.963,0,0
373673.75,50.044,-390.77,0,0
373934.075,49.9971,-390.58,0,0
374194.4,49.945,-390.343,0,0
374454.725,49.9009,-390.087,0,0
374715.05,49.823,-389.855,0,0
374975.375,49.7523,-389.497,0,0
375235.7,49.7213,-389.189,0,0
375496.025,49.6498,-388.87,0,0
375756.35,49.6233,-388.504,0,0
376016.675,49.6009,-388.169,0,0
376277.0,49.5828,-387.803,0,0
376537.325,49.6151,-387.466,0,0
376797.65,49.6603,-387.133,0,0
377057.975,49.6828,-386.804,0,0
377318.3,49.722,-386.509,0,0
377578.625,49.7326,-386.241,0,0
377838.95,49.7899,-386.004,0,0
378099.275,49.7185,-385.777,0,0
378359.6,49.6413,-385.52,0,0
378619.925,49.5707,-385.309,0,0
378880,49.4156,-384.99,0,0
379141,49.2662,-384.615,0,0
379401,49.1509,-384.213,0,0
379661,49.0148,-383.807,0,0
379922,49.0358,-383.288,0,0
380182,49.049,-382.841,0,0
380442,49.0992,-382.382,0,0
380703,49.2634,-381.973,0,0
380963,49.4593,-381.661,0,0
381223,49.6722,-381.418,0,0
381483,49.8444,-381.311,0,0
381744,49.9396,-381.263,0,0
382004,49.9021,-381.281,0,0
382264,49.8071,-381.285,0,0
382525,49.5367,-381.281,0,0
382785,49.2693,-381.206,0,0
383045,48.9553,-381.072,0,0
383306,48.5588,-380.838,0,0
383566,48.1529,-380.53,0,0
383826,47.7642,-380.202,0,0
384087,47.4089,-379.772,0,0
384347,47.0878,-379.365,0,0
384607,46.7267,-378.888,0,0
384868,46.4444,-378.432,0,0
385128,46.1526,-377.883,0,0
385388,45.9146,-377.403,0,0
385649,45.6608,-376.829,0,0
385909,45.4186,-376.228,0,0
386169,45.2486,-375.673,0,0
386430,45.0394,-375.067,0,0
386690,44.9302,-374.493,0,0
386950,44.7687,-373.919,0,0
387211,44.6355,-373.317,0,0
387471,44.5109,-372.703,0,0
387731,44.4103,-372.133,0,0
387992,44.3293,-371.522,0,0
388252,44.2835,-370.916,0,0
388512,44.2566,-370.287,0,0
388773,44.224,-369.712,0,0
389033,44.2337,-369.088,0,0
389293,44.2248,-368.518,0,0
389554,44.295,-367.962,0,0
389814,44.3308,-367.419,0,0
390074,44.3661,-366.908,0,0
390335,44.4069,-366.396,0,0
390595,44.4566,-365.878,0,0
390855,44.4998,-365.389,0,0
391116,44.4806,-364.932,0,0
391376,44.5232,-364.453,0,0
391636,44.5172,-364.023,0,0
391896,44.5001,-363.524,0,0
392157,44.5574,-363.002,0,0
392417,44.4804,-362.554,0,0
392677,44.5277,-362.072,0,0
392938,44.4834,-361.586,0,0
393198,44.4787,-361.118,0,0
393458,44.4678,-360.622,0,0
393719,44.4586,-360.082,0,0
393979,44.4997,-359.594,0,0
394239,44.4599,-359.095,0,0
394500,44.4406,-358.562,0,0
394760.05,44.4462,-358.083,0,0
395020.375,44.4958,-357.524,0,0
395280.7,44.5075,-356.997,0,0
395541.025,44.5539,-356.467,0,0
395801.35,44.5772,-355.955,0,0
396061.675,44.6213,-355.426,0,0
396322.0,44.6998,-354.936,0,0
396582.325,44.7359,-354.403,0,0
396842.65,44.8347,-353.917,0,0
397102.975,44.8937,-353.422,0,0
397363.3,44.9716,-352.972,0,0
397623.625,45.0264,-352.497,0,0
397883.95,45.1077,-352.008,0,0
398144.275,45.1371,-351.561,0,0
398404.6,45.2044,-351.077,0,0
398664.925,45.2493,-350.627,0,0
398925.25,45.2773,-350.15,0,0
399185.575,45.3229,-349.664,0,0
399445.9,45.3548,-349.221,0,0
399706.225,45.4015,-348.748,0,0
399966.55,45.4161,-348.256,0,0
400006.6,45.4277,-348.213,0,0