File: Accelerated corrosion test data/2025-10-02_18-00-03/sample_4.csv
Frequency (Hz),Impedance (ohms),Phase (Radians),Temperature (C),Humidity (%)
10000.0,265.94,-11770.8,0,0
10260.325,262.62,-11474,0,0
10520.65,252.994,-11193.7,0,0
10780.975,247.274,-10925.1,0,0
11041.3,242.282,-10669.6,0,0
11301.625,237.237,-10428.4,0,0
11561.95,231.691,-10194.4,0,0
11822.275,226.908,-9971.36,0,0
12082.6,222.148,-9758.01,0,0
12342.925,217.895,-9553.93,0,0
12603.25,214.925,-9356.19,0,0
12863.575,211.457,-9171.22,0,0
13123.9,211.105,-8993.18,0,0
13384.225,201.628,-8816.91,0,0
13644.55,198.612,-8647.64,0,0
13904.875,195.694,-8483.16,0,0
14165.2,198.125,-8322.76,0,0
14425.525,203.855,-8171.57,0,0
14685.8,202.583,-8062.76,0,0
14946.175,184.464,-7907.57,0,0
15206.5,182.921,-7765,0,0
15466.825,191.143,-7622.2,0,0
15727.15,191.96,-7523.15,0,0
15987.5,188.674,-7408.68,0,0
16247.8,172.987,-7281.76,0,0
16508.125,187.518,-7154.35,0,0
16768.45,180.713,-7057.52,0,0
17028.775,172.743,-6967.97,0,0
17289.1,162.479,-6855.91,0,0
17549.425,160.471,-6752.66,0,0
17809.75,157.747,-6652.26,0,0
18070.075,155.041,-6554.21,0,0
18330.4,155.451,-6458.99,0,0
18590.725,155.718,-6372.33,0,0
18851.05,151.652,-6287.92,0,0
19111.375,146.868,-6200.07,0,0
19371.7,144.666,-6115.72,0,0
19632.025,143.479,-6031.86,0,0
19892.35,145.404,-5951.85,0,0
20152.675,145.353,-5876.07,0,0
20413.0,142.511,-5803.78,0,0
20673.3,141.872,-5728.56,0,0
20933.65,139.026,-5656.3,0,0
21193.975,141.805,-5582.31,0,0
21454.3,153.044,-5517.6,0,0
21714.625,145.475,-5460.18,0,0
21974.9,151.594,-5391.63,0,0
22235.275,148.758,-5343.63,0,0
22495.6,136.898,-5288.27,0,0
22755.925,130.278,-5224.69,0,0
23016.25,126.571,-5163.32,0,0
23276.6,124.072,-5103.53,0,0
23536.9,123.093,-5046.61,0,0
23797.225,120.414,-4990.7,0,0
24057.55,118.487,-4934.97,0,0
24317.875,118.157,-4880.96,0,0
24578.2,116.161,-4828.45,0,0
24838.525,116.013,-4776.75,0,0
25098.85,116.538,-4726.74,0,0
25359.175,114.696,-4679.63,0,0
25619.5,114.02,-4630.44,0,0
25879.8,111.972,-4586.18,0,0
26140.1,109.581,-4538.05,0,0
26400.5,108.429,-4492.03,0,0
26660.8,108.687,-4446.5,0,0
26921.1,107.623,-4403.61,0,0
27181.4,106.959,-4358.68,0,0
27441.8,107.422,-4314.47,0,0
27702.1,110.137,-4270.25,0,0
27962.4,118.869,-4231.24,0,0
28222.7,120.888,-4198.94,0,0
28483.1,115.733,-4167.48,0,0
28743.4,111.304,-4127.61,0,0
29003.7,113.153,-4088.02,0,0
29264,116.888,-4054.16,0,0
29524.4,113.577,-4023.81,0,0
29784.7,108.295,-3991.42,0,0
30045,108.645,-3956.21,0,0
30305.3,102.628,-3922.04,0,0
30565.7,101.586,-3886.85,0,0
30826,99.9863,-3853.31,0,0
31086.3,99.8167,-3819.61,0,0
31346.6,100.59,-3786.83,0,0
31607,99.5952,-3756.62,0,0
31867.3,98.068,-3725.88,0,0
32127.6,100.188,-3694.57,0,0
32387.9,98.7226,-3668.47,0,0
32648.3,98.2283,-3638.19,0,0
32908.6,95.7023,-3611.69,0,0
33168.9,93.4702,-3582.81,0,0
33429.2,91.269,-3554.3,0,0
33689.6,89.9035,-3525.9,0,0
33949.9,88.9466,-3497.45,0,0
34210.2,89.2038,-3470.1,0,0
34470.5,87.5812,-3444.29,0,0
34730.9,86.4265,-3417.52,0,0
34991.2,85.99,-3391.07,0,0
35251.5,85.6784,-3365.63,0,0
35511.8,84.5232,-3340.59,0,0
35772.2,84.0236,-3315.89,0,0
36032.5,83.2439,-3290.97,0,0
36292.8,82.4268,-3266.56,0,0
36553.1,81.9895,-3242.42,0,0
36813.5,82.1123,-3218.38,0,0
37073.8,81.7981,-3196.2,0,0
37334.1,80.903,-3173.22,0,0
37594.4,80.5448,-3150.46,0,0
37854.8,80.2735,-3128.29,0,0
38115.1,79.3711,-3106.82,0,0
38375.4,78.6908,-3084.38,0,0
38635.7,78.6772,-3062.36,0,0
38896.1,78.8291,-3041.41,0,0
39156.4,78.3253,-3020.74,0,0
39416.7,77.5981,-2999.58,0,0
39677,77.4123,-2978.59,0,0
39937.4,78.1383,-2957.82,0,0
40197.7,79.5369,-2937.36,0,0
40458,81.8291,-2919.4,0,0
40718.3,80.01,-2902.11,0,0
40978.7,80.0404,-2882.23,0,0
41239,80.6204,-2863.31,0,0
41499.3,83.4292,-2847.04,0,0
41759.6,80.3649,-2831.71,0,0
42020,78.7251,-2813.28,0,0
42280.275,78.3225,-2794.1,0,0
42540.6,79.5763,-2777.16,0,0
42800.925,78.3455,-2762.14,0,0
43061.25,76.5312,-2744.14,0,0
43321.575,76.9192,-2727.76,0,0
43581.9,75.4595,-2711.27,0,0
43842.225,74.8351,-2693.73,0,0
44102.55,74.7356,-2678.39,0,0
44362.875,73.1818,-2661.5,0,0
44623.2,73.3368,-2645.15,0,0
44883.525,72.8562,-2629.31,0,0
45143.85,72.1537,-2613.45,0,0
45404.175,71.6338,-2597.13,0,0
45664.5,72.4797,-2581.04,0,0
45924.825,73.3855,-2566.91,0,0
46185.15,72.1963,-2553.11,0,0
46445.475,71.5247,-2536.98,0,0
46705.8,72.622,-2522.1,0,0
46966.125,72.62,-2508.33,0,0
47226.45,73.1042,-2494.2,0,0
47486.775,72.4346,-2482.13,0,0
47747.1,70.9842,-2467.75,0,0
48007.425,70.1491,-2453.99,0,0
48267.75,69.3116,-2439.94,0,0
48528.075,69.0048,-2426.36,0,0
48788.4,68.2437,-2412.94,0,0
49048.725,67.0757,-2399.13,0,0
49309.05,67.2823,-2385.07,0,0
49569.375,66.5926,-2372.28,0,0
49829.7,66.108,-2358.75,0,0
50090.025,65.6629,-2345.39,0,0
50350.35,65.5573,-2332.11,0,0
50610.675,65.6601,-2319.16,0,0
50871.0,65.2155,-2306.7,0,0
51131.325,64.8193,-2293.62,0,0
51391.65,64.7464,-2280.59,0,0
51651.975,65.2223,-2268.05,0,0
51912.3,65.0242,-2255.61,0,0
52172.625,65.5953,-2243.07,0,0
52432.95,65.4619,-2230.94,0,0
52693.275,65.8833,-2218.04,0,0
52953.6,67.2202,-2205.8,0,0
53213.925,67.8843,-2194.46,0,0
53474.25,68.6517,-2182.47,0,0
53734.575,70.1767,-2170.43,0,0
53994.9,72.8627,-2159.59,0,0
54255.225,74.7244,-2150.21,0,0
54515.55,77.142,-2141.47,0,0
54775.875,76.9398,-2134.63,0,0
55036.2,74.8819,-2125.65,0,0
55296.525,74.2402,-2116.03,0,0
55556.85,72.6583,-2106.69,0,0
55817.175,71.5752,-2096.76,0,0
56077.5,69.5929,-2086.82,0,0
56337.825,68.1867,-2076.04,0,0
56598.15,67.2473,-2064.79,0,0
56858.475,66.858,-2053.67,0,0
57118.8,66.8516,-2042.82,0,0
57379.125,67.2165,-2032.34,0,0
57639.45,67.361,-2022.1,0,0
57899.775,67.5834,-2011.88,0,0
58160.1,67.8187,-2001.61,0,0
58420.4,68.7106,-1991.51,0,0
58680.7,68.9553,-1982.65,0,0
58941.1,68.8754,-1972.06,0,0
59201.4,70.1263,-1961.32,0,0
59461.7,72.41,-1951.55,0,0
59722,74.9753,-1942.71,0,0
59982.4,77.7276,-1935.66,0,0
60242.7,78.239,-1928.92,0,0
60503,79.4616,-1920.93,0,0
60763.3,81.9827,-1914.79,0,0
61023.7,81.8749,-1911.18,0,0
61284,79.4035,-1906.36,0,0
61544.3,75.2033,-1899.85,0,0
61804.6,72.5046,-1889.98,0,0
62065,71.2208,-1881.56,0,0
62325.3,69.5742,-1873.62,0,0
62585.6,66.8363,-1864.79,0,0
62845.9,66.1218,-1854.45,0,0
63106.3,65.6064,-1845.09,0,0
63366.6,65.7427,-1836.02,0,0
63626.9,65.973,-1827.54,0,0
63887.2,65.53,-1819.62,0,0
64147.6,64.6296,-1810.64,0,0
64407.9,65.0558,-1801.54,0,0
64668.2,65.8086,-1793.15,0,0
64928.5,66.2095,-1785.3,0,0
65188.9,66.1992,-1777.21,0,0
65449.2,66.8762,-1769.38,0,0
65709.5,66.9849,-1761.45,0,0
65969.8,67.9684,-1753.29,0,0
66230.2,68.9363,-1746.14,0,0
66490.5,69.5568,-1738.99,0,0
66750.8,70.2921,-1732.04,0,0
67011.1,70.7457,-1724.91,0,0
67271.5,71.7454,-1717.91,0,0
67531.8,72.7676,-1711.44,0,0
67792.1,73.7153,-1705.44,0,0
68052.4,74.5588,-1699.95,0,0
68312.8,74.6937,-1694.81,0,0
68573.1,74.3019,-1689.79,0,0
68833.4,73.4268,-1684.75,0,0
69093.7,71.5708,-1679.47,0,0
69354.1,69.6321,-1673.2,0,0
69614.4,67.7756,-1666.25,0,0
69874.7,66.7029,-1658.87,0,0
70135,66.0017,-1651.71,0,0
70395.4,64.9563,-1644.69,0,0
70655.7,65.0066,-1636.48,0,0
70916,66.2996,-1630.27,0,0
71176.3,66.0224,-1625.1,0,0
71436.7,65.1927,-1619,0,0
71697,64.9107,-1613.12,0,0
71957.3,63.4757,-1607.88,0,0
72217.6,61.2976,-1601.26,0,0
72478,59.9501,-1593.88,0,0
72738.3,59.3184,-1586.59,0,0
72998.6,58.3959,-1579.51,0,0
73258.9,58.0047,-1571.66,0,0
73519.3,58.4384,-1564.4,0,0
73779.6,58.7187,-1557.55,0,0
74039.9,59.2104,-1550.79,0,0
74300.225,59.5297,-1544.49,0,0
74560.55,59.9393,-1538.01,0,0
74820.875,60.3415,-1531.64,0,0
75081.2,60.8853,-1525.4,0,0
75341.525,61.5573,-1519.5,0,0
75601.85,62.047,-1513.83,0,0
75862.175,62.287,-1508.09,0,0
76122.5,62.7073,-1502.37,0,0
76382.825,63.0328,-1497.03,0,0
76643.15,62.8204,-1491.65,0,0
76903.475,62.7211,-1485.44,0,0
77163.8,63.6153,-1479.14,0,0
77424.125,65.019,-1474,0,0
77684.45,65.7806,-1469.44,0,0
77944.775,66.1548,-1465.22,0,0
78205.1,65.9221,-1460.88,0,0
78465.425,65.5566,-1456.39,0,0
78725.75,65.0136,-1451.73,0,0
78986.075,64.1226,-1447.02,0,0
79246.4,63.1496,-1441.88,0,0
79506.725,62.4644,-1436.53,0,0
79767.05,61.9084,-1431,0,0
80027.375,61.4867,-1425.54,0,0
80287.7,61.1597,-1420.13,0,0
80548.025,60.9843,-1414.74,0,0
80808.35,60.8276,-1409.42,0,0
81068.675,60.7523,-1404.19,0,0
81329.0,60.6235,-1399.2,0,0
81589.325,60.448,-1394.15,0,0
81849.65,60.2551,-1389.16,0,0
82109.975,59.9838,-1384.12,0,0
82370.3,59.7228,-1379.1,0,0
82630.625,59.4808,-1373.99,0,0
82890.95,59.2811,-1369.07,0,0
83151.275,59.0498,-1364.08,0,0
83411.6,58.7503,-1359.16,0,0
83671.925,58.6271,-1354.11,0,0
83932.25,58.4477,-1349.2,0,0
84192.575,58.1886,-1344.28,0,0
84452.9,58.1296,-1339.4,0,0
84713.225,57.9438,-1334.44,0,0
84973.55,57.8509,-1329.6,0,0
85233.875,57.8008,-1324.84,0,0
85494.2,57.5871,-1320.08,0,0
85754.525,57.4407,-1315.32,0,0
86014.85,57.3577,-1310.59,0,0
86275.175,57.2636,-1305.84,0,0
86535.5,57.2066,-1301.21,0,0
86795.825,57.1681,-1296.69,0,0
87056.15,57.1156,-1292.11,0,0
87316.475,56.8768,-1287.68,0,0
87576.8,56.6658,-1283.25,0,0
87837.125,56.471,-1278.91,0,0
88097.45,55.8301,-1274.51,0,0
88357.775,55.1801,-1269.97,0,0
88618.1,54.7243,-1264.97,0,0
88878.425,54.4215,-1260.18,0,0
89138.75,54.1197,-1255.26,0,0
89399.075,54.175,-1250.4,0,0
89659.4,54.2405,-1245.65,0,0
89919.725,54.1865,-1240.97,0,0
90180,54.2671,-1236.55,0,0
90440.4,54.0727,-1231.97,0,0
90700.7,54.0732,-1227.32,0,0
90961,53.9615,-1222.76,0,0
91221.3,53.9606,-1218.21,0,0
91481.7,54.0296,-1213.62,0,0
91742,54.084,-1208.96,0,0
92002.3,54.3714,-1204.45,0,0
92262.6,54.6798,-1200.17,0,0
92523,55.0107,-1195.85,0,0
92783.3,55.2253,-1191.75,0,0
93043.6,55.4079,-1187.74,0,0
93303.9,55.3184,-1183.77,0,0
93564.3,55.2675,-1179.76,0,0
93824.6,55.0542,-1175.76,0,0
94084.9,54.7773,-1171.63,0,0
94345.2,54.4029,-1167.34,0,0
94605.6,54.1379,-1163.03,0,0
94865.9,53.8494,-1158.53,0,0
95126.2,53.7781,-1154.05,0,0
95386.5,53.7694,-1149.62,0,0
95646.9,53.7991,-1145.11,0,0
95907.2,53.9658,-1140.58,0,0
96167.5,54.2013,-1136.26,0,0
96427.8,54.4525,-1131.98,0,0
96688.2,54.6511,-1127.72,0,0
96948.5,54.768,-1123.48,0,0
97208.8,54.9997,-1119.17,0,0
97469.1,55.3408,-1114.98,0,0
97729.5,55.4776,-1110.77,0,0
97989.8,55.7199,-1106.47,0,0
98250.1,56.0931,-1102.15,0,0
98510.4,56.4492,-1097.93,0,0
98770.8,56.8733,-1093.62,0,0
99031.1,57.4521,-1089.39,0,0
99291.4,58.187,-1085.19,0,0
99551.7,58.9349,-1081.34,0,0
99812.1,59.4086,-1077.48,0,0
100072,59.9345,-1073.37,0,0
100333,60.8528,-1069.25,0,0
100593,62.1374,-1065.46,0,0
100853,63.3198,-1062.35,0,0
101114,64.0458,-1059.44,0,0
101374,64.6552,-1056.53,0,0
101634,65.0968,-1054,0,0
101895,64.8245,-1051.66,0,0
102155,63.7326,-1048.88,0,0
102415,62.6,-1045.18,0,0
102676,61.8675,-1041.32,0,0
102936,60.9105,-1037.27,0,0
103196,60.1037,-1032.68,0,0
103457,59.643,-1027.73,0,0
103717,59.7632,-1022.64,0,0
103977,60.2773,-1017.6,0,0
104238,61.0047,-1012.94,0,0
104498,61.7478,-1008.28,0,0
104758,62.75,-1003.58,0,0
105019,64.0777,-999.149,0,0
105279,65.4059,-995,0,0
105539,66.69,-990.966,0,0
105800,68.069,-986.994,0,0
106060,69.4418,-983.186,0,0
106320.175,70.7848,-979.481,0,0
106580.5,72.1661,-975.773,0,0
106840.825,73.6482,-972.248,0,0
107101.15,75.0535,-968.88,0,0
107361.475,76.3103,-965.434,0,0
107621.8,77.5991,-961.992,0,0
107882.125,79.0859,-958.475,0,0
108142.45,80.681,-955.112,0,0
108402.775,82.4135,-951.837,0,0
108663.1,84.2122,-948.801,0,0
108923.425,86.0063,-945.957,0,0
109183.75,87.7538,-943.306,0,0
109444.075,89.4325,-940.785,0,0
109704.4,91.039,-938.476,0,0
109964.725,92.3771,-936.156,0,0
110225.05,93.7205,-933.934,0,0
110485.375,95.1309,-931.574,0,0
110745.7,96.4707,-929.524,0,0
111006.025,97.6414,-927.474,0,0
111266.35,98.7468,-925.507,0,0
111526.675,99.7328,-923.545,0,0
111787.0,100.766,-921.533,0,0
112047.325,101.744,-919.566,0,0
112307.65,102.775,-917.776,0,0
112567.975,103.641,-915.939,0,0
112828.3,104.445,-914.237,0,0
113088.625,105.233,-912.591,0,0
113348.95,105.918,-910.96,0,0
113609.275,106.412,-909.422,0,0
113869.6,106.938,-907.756,0,0
114129.925,107.33,-906.099,0,0
114390.25,107.671,-904.446,0,0
114650.575,107.946,-902.859,0,0
114910.9,108.216,-901.298,0,0
115171.225,108.343,-899.824,0,0
115431.55,108.409,-898.349,0,0
115691.875,108.208,-896.79,0,0
115952.2,107.931,-895.167,0,0
116212.525,107.713,-893.396,0,0
116472.85,107.429,-891.818,0,0
116733.175,106.863,-890.115,0,0
116993.5,106.199,-888.225,0,0
117253.825,105.502,-886.152,0,0
117514.15,104.816,-883.809,0,0
117774.475,104.149,-881.423,0,0
118034.8,103.626,-878.762,0,0
118295.125,103.154,-876.002,0,0
118555.45,102.857,-873.014,0,0
118815.775,102.907,-869.871,0,0
119076.1,103.377,-866.668,0,0
119336.425,104.437,-863.766,0,0
119596.75,105.892,-861.319,0,0
119857.075,107.419,-859.639,0,0
120117.4,108.816,-858.508,0,0
120377.725,109.625,-858.405,0,0
120638.05,109.492,-858.472,0,0
120898.375,108.266,-858.224,0,0
121158.7,106.631,-857.116,0,0
121419.025,105.024,-855.53,0,0
121679.35,103.582,-853.537,0,0
121939.675,102.302,-851.331,0,0
122200.0,101.06,-848.982,0,0
122460,99.965,-846.52,0,0
122721,99.0221,-843.942,0,0
122981,98.1924,-841.317,0,0
123241,97.4446,-838.734,0,0
123502,96.7324,-836.096,0,0
123762,96.1368,-833.55,0,0
124022,95.5338,-831.021,0,0
124283,94.9275,-828.519,0,0
124543,94.2524,-825.983,0,0
124803,93.5727,-823.334,0,0
125064,93.0053,-820.659,0,0
125324,92.5618,-818.028,0,0
125584,92.0269,-815.458,0,0
125845,91.5497,-812.875,0,0
126105,91.1775,-810.36,0,0
126365,90.743,-807.991,0,0
126626,90.0578,-805.746,0,0
126886,89.2138,-803.3,0,0
127146,88.4049,-800.744,0,0
127406,87.5855,-798.057,0,0
127667,86.8458,-795.401,0,0
127927,86.1668,-792.761,0,0
128187,85.304,-790.178,0,0
128448,84.3247,-787.53,0,0
128708,83.3028,-784.707,0,0
128968,82.3755,-781.841,0,0
129229,81.3061,-778.889,0,0
129489,80.1829,-775.789,0,0
129749,79.1275,-772.436,0,0
130010,78.2898,-769.013,0,0
130270,77.4677,-765.528,0,0
130530,76.7736,-762.008,0,0
130791,76.1364,-758.455,0,0
131051,75.4925,-754.879,0,0
131311,75.0079,-751.229,0,0
131572,74.6232,-747.492,0,0
131832,74.3266,-743.856,0,0
132092,74.0234,-740.267,0,0
132353,73.7504,-736.589,0,0
132613,73.5228,-732.798,0,0
132873,73.4631,-729.104,0,0
133134,73.442,-725.39,0,0
133394,73.4491,-721.748,0,0
133654,73.4531,-718.037,0,0
133915,73.5392,-714.307,0,0
134175,73.7068,-710.513,0,0
134435,73.9657,-706.811,0,0
134696,74.2002,-703.129,0,0
134956,74.5115,-699.434,0,0
135216,74.9001,-695.705,0,0
135477,75.4434,-692,0,0
135737,75.9687,-688.411,0,0
135997,76.542,-684.905,0,0
136258,77.0177,-681.441,0,0
136518,77.5479,-677.832,0,0
136778,78.1975,-674.314,0,0
137039,78.8854,-670.85,0,0
137299,79.5598,-667.578,0,0
137559,80.1133,-664.346,0,0
137819,80.5608,-661.077,0,0
138080,80.8474,-657.727,0,0
138340.125,81.1784,-654.195,0,0
138600.45,81.6018,-650.534,0,0
138860.775,82.1147,-646.939,0,0
139121.1,82.616,-643.243,0,0
139381.425,83.2342,-639.5,0,0
139641.75,83.9124,-635.749,0,0
139902.075,84.6458,-632.007,0,0
140162.4,85.4116,-628.232,0,0
140422.725,86.2759,-624.412,0,0
140683.05,87.2261,-620.569,0,0
140943.375,88.2533,-616.787,0,0
141203.7,89.3943,-613.005,0,0
141464.025,90.5689,-609.323,0,0
141724.35,91.7402,-605.695,0,0
141984.675,92.8935,-602.06,0,0
142245.0,94.0687,-598.379,0,0
142505.325,95.2902,-594.686,0,0
142765.65,96.5438,-591.033,0,0
143025.975,97.8349,-587.342,0,0
143286.3,99.1541,-583.6,0,0
143546.625,100.558,-579.895,0,0
143806.95,101.996,-576.162,0,0
144067.275,103.485,-572.409,0,0
144327.6,105.031,-568.654,0,0
144587.925,106.665,-564.889,0,0
144848.25,108.399,-561.143,0,0
145108.575,110.197,-557.412,0,0
145368.9,112.009,-553.737,0,0
145629.225,113.894,-550.036,0,0
145889.55,115.832,-546.404,0,0
146149.875,117.835,-542.738,0,0
146410.2,119.877,-539.076,0,0
146670.525,121.982,-535.316,0,0
146930.85,124.253,-531.751,0,0
147191.175,126.459,-528.226,0,0
147451.5,128.734,-524.657,0,0
147711.825,131.097,-521.11,0,0
147972.15,133.452,-517.655,0,0
148232.475,135.779,-514.076,0,0
148492.8,138.258,-510.393,0,0
148753.125,140.911,-506.734,0,0
149013.45,143.688,-503.116,0,0
149273.775,146.591,-499.54,0,0
149534.1,149.579,-495.974,0,0
149794.425,152.726,-492.475,0,0
150054.75,155.983,-489.027,0,0
150315.075,159.361,-485.66,0,0
150575.4,162.845,-482.345,0,0
150835.725,166.514,-479.074,0,0
151096.05,170.339,-475.931,0,0
151356.375,174.365,-472.956,0,0
151616.7,178.5,-470.222,0,0
151877.025,182.594,-467.716,0,0
152137.35,186.719,-465.272,0,0
152397.675,190.991,-462.869,0,0
152658.0,195.498,-460.716,0,0
152918.325,200.071,-458.933,0,0
153178.65,204.642,-457.478,0,0
153438.975,209.072,-456.359,0,0
153699.3,213.31,-455.498,0,0
153959.625,217.369,-454.82,0,0
154219.95,221.17,-454.272,0,0
154480,224.706,-453.821,0,0
154741,228.035,-453.527,0,0
155001,231.042,-452.902,0,0
155261,234.045,-452.073,0,0
155522,237.232,-451.156,0,0
155782,240.443,-450.368,0,0
156042,243.719,-449.715,0,0
156303,246.747,-449.116,0,0
156563,249.808,-448.63,0,0
156823,252.376,-448.136,0,0
157084,254.923,-447.137,0,0
157344,257.784,-445.96,0,0
157604,260.783,-444.982,0,0
157864,263.598,-443.65,0,0
158125,266.922,-441.93,0,0
158385,270.904,-440.44,0,0
158645,275.094,-439.523,0,0
158906,279.337,-438.716,0,0
159166,283.984,-438.339,0,0
159426,288.742,-438.584,0,0
159687,293.151,-439.214,0,0
159947,297.399,-440.528,0,0
160207,301.398,-442.157,0,0
160468,304.612,-443.979,0,0
160728,307.688,-445.714,0,0
160988,310.369,-447.748,0,0
161249,312.473,-450.01,0,0
161509,313.886,-452.118,0,0
161769,314.734,-453.659,0,0
162030,315.353,-454.62,0,0
162290,315.874,-455.049,0,0
162550,316.542,-454.807,0,0
162811,317.65,-454.502,0,0
163071,318.845,-454.104,0,0
163331,320.105,-453.468,0,0
163592,321.556,-452.669,0,0
163852,323.079,-451.679,0,0
164112,324.752,-450.283,0,0
164373,327.221,-448.76,0,0
164633,330.141,-447.273,0,0
164893,333.64,-446.281,0,0
165154,337.096,-445.557,0,0
165414,340.613,-445.327,0,0
165674,343.901,-444.96,0,0
165935,347.48,-444.479,0,0
166195,351.318,-444.189,0,0
166455,355.575,-443.881,0,0
166716,360.361,-443.85,0,0
166976,365.612,-444.461,0,0
167236,371.049,-445.728,0,0
167497,376.512,-447.481,0,0
167757,382.256,-450.036,0,0
168017,387.952,-453.541,0,0
168277,393.22,-458.122,0,0
168538,397.604,-463.462,0,0
168798,401.186,-469.077,0,0
169058,404.175,-474.997,0,0
169319,406.561,-481.048,0,0
169579,408.414,-487.38,0,0
169839,409.498,-493.953,0,0
170100,409.948,-500.478,0,0
170360.075,410.014,-507.137,0,0
170620.4,409.334,-514.365,0,0
170880.725,407.382,-521.828,0,0
171141.05,403.918,-528.895,0,0
171401.375,399.371,-534.934,0,0
171661.7,394.435,-539.947,0,0
171922.025,389.224,-544.332,0,0
172182.35,383.641,-548.083,0,0
172442.675,377.755,-551.235,0,0
172703.0,371.485,-553.822,0,0
172963.325,364.643,-555.521,0,0
173223.65,357.808,-555.955,0,0
173483.975,351.395,-555.576,0,0
173744.3,345.141,-554.623,0,0
174004.625,339.164,-552.913,0,0
174264.95,333.675,-550.782,0,0
174525.275,328.36,-548.173,0,0
174785.6,323.431,-544.971,0,0
175045.925,319.074,-541.427,0,0
175306.25,315.121,-537.747,0,0
175566.575,311.347,-533.739,0,0
175826.9,308.017,-529.321,0,0
176087.225,305.317,-524.733,0,0
176347.55,303.067,-520.105,0,0
176607.875,301.185,-515.444,0,0
176868.2,299.711,-510.816,0,0
177128.525,298.542,-506.169,0,0
177388.85,297.719,-501.549,0,0
177649.175,297.245,-496.965,0,0
177909.5,297.169,-492.564,0,0
178169.825,297.244,-488.479,0,0
178430.15,297.385,-484.569,0,0
178690.475,297.497,-480.696,0,0
178950.8,297.756,-476.823,0,0
179211.125,298.107,-473.014,0,0
179471.45,298.568,-469.229,0,0
179731.775,299.132,-465.48,0,0
179992.1,299.837,-461.801,0,0
180252.425,300.595,-458.223,0,0
180512.75,301.335,-454.728,0,0
180773.075,302.071,-451.214,0,0
181033.4,302.864,-447.67,0,0
181293.725,303.711,-444.133,0,0
181554.05,304.59,-440.606,0,0
181814.375,305.481,-437.059,0,0
182074.7,306.373,-433.493,0,0
182335.025,307.246,-429.823,0,0
182595.35,308.143,-426.061,0,0
182855.675,309.118,-422.161,0,0
183116.0,310.129,-418.116,0,0
183376.325,311.267,-413.916,0,0
183636.65,312.576,-409.572,0,0
183896.975,314.061,-405.105,0,0
184157.3,315.778,-400.561,0,0
184417.625,317.685,-395.974,0,0
184677.95,319.763,-391.394,0,0
184938.275,321.965,-386.764,0,0
185198.6,324.333,-382.022,0,0
185458.925,326.911,-377.212,0,0
185719.25,329.737,-372.268,0,0
185979.575,332.851,-367.324,0,0
186239.9,336.229,-362.415,0,0
186500,339.823,-357.555,0,0
186761,343.627,-352.693,0,0
187021,347.618,-347.917,0,0
187281,351.916,-343.068,0,0
187542,356.344,-338.24,0,0
187802,361.127,-333.434,0,0
188062,366.139,-328.702,0,0
188322,371.517,-323.985,0,0
188583,377.08,-319.449,0,0
188843,382.952,-314.989,0,0
189103,389.189,-310.544,0,0
189364,395.577,-306.332,0,0
189624,402.318,-302.18,0,0
189884,409.299,-298.18,0,0
190145,416.639,-294.329,0,0
190405,424.344,-290.807,0,0
190665,432.44,-287.468,0,0
190926,440.809,-284.513,0,0
191186,449.339,-281.909,0,0
191446,458.137,-279.607,0,0
191707,467.103,-277.68,0,0
191967,476.231,-276.07,0,0
192227,485.513,-274.916,0,0
192488,494.993,-274.16,0,0
192748,504.445,-273.645,0,0
193008,513.939,-273.627,0,0
193269,523.515,-273.979,0,0
193529,533.174,-274.76,0,0
193789,542.665,-275.866,0,0
194050,552.091,-277.164,0,0
194310,561.539,-278.654,0,0
194570,571.14,-280.42,0,0
194831,580.803,-282.599,0,0
195091,590.397,-285.126,0,0
195351,599.882,-287.963,0,0
195612,609.357,-290.937,0,0
195872,618.898,-294.18,0,0
196132,628.542,-297.654,0,0
196393,638.266,-301.483,0,0
196653,648.025,-305.605,0,0
196913,657.922,-310.012,0,0
197174,668.046,-314.846,0,0
197434,678.33,-320.211,0,0
197694,688.715,-326.255,0,0
197955,699.087,-332.997,0,0
198215,709.28,-340.452,0,0
198475,719.205,-348.622,0,0
198735,728.841,-357.339,0,0
198996,738.281,-366.656,0,0
199256,747.428,-376.826,0,0
199516,756.02,-387.82,0,0
199777,763.825,-399.445,0,0
200037,770.848,-411.474,0,0
200297,776.979,-423.781,0,0
200558,782.495,-436.384,0,0
200818,787.36,-449.17,0,0
201078,791.509,-462.292,0,0
201339,794.729,-475.592,0,0
201599,796.886,-488.892,0,0
201859,798.291,-501.902,0,0
202120,799.077,-514.618,0,0
202380.025,799.359,-527.131,0,0
202640.35,798.749,-539.441,0,0
202900.675,797.323,-551.18,0,0
203161.0,795.494,-562.009,0,0
203421.325,793.887,-572.061,0,0
203681.65,792.562,-582.094,0,0
203941.975,791.213,-592.177,0,0
204202.3,789.639,-602.307,0,0
204462.625,787.681,-612.464,0,0
204722.95,785.171,-622.141,0,0
204983.275,782.809,-631.505,0,0
205243.6,780.612,-640.993,0,0
205503.925,778.231,-650.635,0,0
205764.25,775.301,-660.335,0,0
206024.575,772.042,-669.822,0,0
206284.9,768.629,-679.032,0,0
206545.225,764.841,-688.083,0,0
206805.55,761.445,-697.176,0,0
207065.875,757.676,-706.508,0,0
207326.2,753.634,-716.222,0,0
207586.525,748.728,-726.077,0,0
207846.85,743.108,-735.849,0,0
208107.175,736.836,-745.378,0,0
208367.5,729.537,-754.614,0,0
208627.825,721.485,-763.124,0,0
208888.15,712.951,-770.699,0,0
209148.475,704.131,-777.505,0,0
209408.8,695.115,-783.364,0,0
209669.125,686.018,-788.502,0,0
209929.45,676.97,-792.579,0,0
210189.775,668.377,-796.146,0,0
210450.1,660.001,-799.019,0,0
210710.425,652.01,-801.529,0,0
210970.75,644.286,-803.692,0,0
211231.075,636.698,-805.663,0,0
211491.4,629.233,-807.092,0,0
211751.725,622.025,-808.074,0,0
212012.05,615.275,-808.494,0,0
212272.375,608.674,-808.659,0,0
212532.7,602.716,-808.468,0,0
212793.025,597.21,-808.109,0,0
213053.35,592.248,-807.649,0,0
213313.675,587.749,-806.942,0,0
213574.0,583.644,-806.287,0,0
213834.325,580.031,-805.522,0,0
214094.65,577.158,-804.851,0,0
214354.975,574.792,-804.396,0,0
214615.3,572.917,-804.427,0,0
214875.625,571.439,-804.954,0,0
215135.95,569.984,-806.11,0,0
215396.275,568.637,-807.766,0,0
215656.6,567.161,-809.927,0,0
215916.925,565.428,-812.471,0,0
216177.25,563.403,-815.262,0,0
216437.575,561.065,-818.272,0,0
216697.9,558.512,-821.364,0,0
216958.225,555.663,-824.444,0,0
217218.55,552.625,-827.63,0,0
217478.875,549.393,-830.852,0,0
217739.2,545.924,-834.085,0,0
217999.525,542.085,-837.275,0,0
218259.85,538.114,-840.257,0,0
218520,533.879,-843.084,0,0
218780,529.64,-845.592,0,0
219041,525.482,-847.992,0,0
219301,521.563,-850.229,0,0
219561,517.765,-852.77,0,0
219822,513.907,-855.536,0,0
220082,509.687,-858.471,0,0
220342,505.076,-861.392,0,0
220603,500.391,-864.279,0,0
220863,495.389,-866.896,0,0
221123,490.202,-869.484,0,0
221384,484.861,-872.021,0,0
221644,479.273,-874.272,0,0
221904,473.386,-876.402,0,0
222165,467.394,-878.098,0,0
222425,461.195,-879.395,0,0
222685,455.321,-880.444,0,0
222946,449.549,-881.213,0,0
223206,444.04,-882.123,0,0
223466,438.262,-882.804,0,0
223727,432.528,-883.582,0,0
223987,426.759,-884.161,0,0
224247,420.827,-884.36,0,0
224508,415.13,-884.66,0,0
224768,409.299,-884.962,0,0
225028,403.426,-885.007,0,0
225289,397.48,-885.018,0,0
225549,391.468,-884.88,0,0
225809,385.305,-884.561,0,0
226070,378.935,-883.991,0,0
226330,372.519,-882.971,0,0
226590,366.277,-881.654,0,0
226851,360.185,-879.922,0,0
227111,354.27,-878.03,0,0
227371,348.568,-876.085,0,0
227632,342.924,-873.943,0,0
227892,337.338,-871.811,0,0
228152,331.655,-869.418,0,0
228413,326.206,-866.672,0,0
228673,320.846,-863.706,0,0
228933,315.789,-860.56,0,0
229193,310.867,-857.193,0,0
229454,306.216,-853.75,0,0
229714,301.725,-850.18,0,0
229974,297.485,-846.313,0,0
230235,293.555,-842.409,0,0
230495,290.013,-838.517,0,0
230755,286.615,-834.562,0,0
231016,283.528,-830.65,0,0
231276,280.74,-826.756,0,0
231536,278.149,-822.968,0,0
231797,275.728,-819.372,0,0
232057,273.337,-815.84,0,0
232317,270.997,-812.327,0,0
232578,268.821,-808.752,0,0
232838,266.795,-805.229,0,0
233098,264.936,-801.678,0,0
233359,263.249,-798.211,0,0
233619,261.75,-794.796,0,0
233879,260.384,-791.493,0,0
234140,259.141,-788.292,0,0
234400,258.055,-785.21,0,0
234660.3,256.978,-782.239,0,0
234920.625,256.026,-779.381,0,0
235180.95,255.082,-776.62,0,0
235441.275,254.232,-773.919,0,0
235701.6,253.521,-771.39,0,0
235961.925,252.775,-769.024,0,0
236222.25,251.961,-766.701,0,0
236482.575,251.105,-764.396,0,0
236742.9,250.27,-762.121,0,0
237003.225,249.461,-759.856,0,0
237263.55,248.772,-757.588,0,0
237523.875,248.128,-755.313,0,0
237784.2,247.643,-753.106,0,0
238044.525,247.137,-751.02,0,0
238304.85,246.772,-749.005,0,0
238565.175,246.484,-747.111,0,0
238825.5,246.278,-745.474,0,0
239085.825,246.025,-743.917,0,0
239346.15,245.702,-742.541,0,0
239606.475,245.226,-741.207,0,0
239866.8,244.86,-739.917,0,0
240127.125,244.356,-738.751,0,0
240387.45,243.756,-737.616,0,0
240647.775,243.16,-736.593,0,0
240908.1,242.477,-735.652,0,0
241168.425,241.685,-734.713,0,0
241428.75,240.701,-733.795,0,0
241689.075,239.63,-732.843,0,0
241949.4,238.637,-731.761,0,0
242209.725,237.522,-730.748,0,0
242470.05,236.433,-729.744,0,0
242730.375,235.213,-728.735,0,0
242990.7,233.893,-727.61,0,0
243251.025,232.588,-726.399,0,0
243511.35,231.347,-725.132,0,0
243771.675,230.035,-723.891,0,0
244032.0,228.77,-722.646,0,0
244292.325,227.461,-721.366,0,0
244552.65,226.001,-720.028,0,0
244812.975,224.605,-718.625,0,0
245073.3,223.24,-717.089,0,0
245333.625,221.879,-715.505,0,0
245593.95,220.461,-713.811,0,0
245854.275,219.15,-712.101,0,0
246114.6,217.901,-710.211,0,0
246374.925,216.805,-708.275,0,0
246635.25,215.848,-706.44,0,0
246895.575,214.852,-704.553,0,0
247155.9,213.973,-702.703,0,0
247416.225,213.279,-700.827,0,0
247676.55,212.762,-699.058,0,0
247936.875,212.162,-697.449,0,0
248197.2,211.549,-695.977,0,0
248457.525,210.875,-694.584,0,0
248717.85,210.117,-693.23,0,0
248978.175,209.367,-691.862,0,0
249238.5,208.48,-690.546,0,0
249498.825,207.508,-689.239,0,0
249759.15,206.477,-687.82,0,0
250019.475,205.39,-686.366,0,0
250279.8,204.288,-684.808,0,0
250540,203.336,-683.164,0,0
250800,202.388,-681.716,0,0
251061,201.343,-680.307,0,0
251321,200.156,-678.89,0,0
251581,198.941,-677.412,0,0
251842,197.492,-675.859,0,0
252102,195.962,-674.232,0,0
252362,194.26,-672.439,0,0
252623,192.51,-670.367,0,0
252883,190.738,-668.031,0,0
253143,188.97,-665.363,0,0
253404,187.446,-662.425,0,0
253664,186.154,-659.301,0,0
253924,185.121,-656.169,0,0
254185,184.233,-652.904,0,0
254445,183.439,-649.668,0,0
254705,182.863,-646.33,0,0
254966,182.341,-642.963,0,0
255226,182.021,-639.46,0,0
255486,181.784,-635.875,0,0
255747,181.713,-632.255,0,0
256007,181.859,-628.521,0,0
256267,182.283,-624.677,0,0
256528,182.997,-620.828,0,0
256788,183.941,-617.012,0,0
257048,185.157,-613.28,0,0
257309,186.553,-609.647,0,0
257569,188.123,-606.089,0,0
257829,189.899,-602.589,0,0
258090,191.884,-599.19,0,0
258350,194.023,-595.875,0,0
258610,196.322,-592.613,0,0
258871,198.877,-589.361,0,0
259131,201.721,-586.257,0,0
259391,204.891,-583.312,0,0
259651,208.304,-580.627,0,0
259912,211.888,-578.246,0,0
260172,215.649,-576.119,0,0
260432,219.554,-574.235,0,0
260693,223.59,-572.662,0,0
260953,227.788,-571.443,0,0
261213,232.067,-570.571,0,0
261474,236.331,-570.086,0,0
261734,240.547,-569.931,0,0
261994,244.628,-570.102,0,0
262255,248.568,-570.424,0,0
262515,252.55,-570.932,0,0
262775,256.587,-571.692,0,0
263036,260.567,-572.744,0,0
263296,264.508,-574.123,0,0
263556,268.39,-575.814,0,0
263817,272.309,-578.167,0,0
264077,275.596,-580.653,0,0
264337,278.593,-583.084,0,0
264598,281.579,-585.619,0,0
264858,284.577,-588.402,0,0
265118,287.391,-591.513,0,0
265379,290.023,-594.876,0,0
265639,292.438,-598.582,0,0
265899,294.468,-602.589,0,0
266160,296.133,-606.789,0,0
266420,297.392,-611.208,0,0
266680.25,298.298,-615.805,0,0
266940.575,298.525,-620.512,0,0
267200.9,298.114,-625.139,0,0
267461.225,297.228,-629.394,0,0
267721.55,296.115,-633.335,0,0
267981.875,294.841,-637.071,0,0
268242.2,293.36,-640.642,0,0
268502.525,291.708,-644.046,0,0
268762.85,289.827,-647.292,0,0
269023.175,287.85,-650.481,0,0
269283.5,285.696,-653.601,0,0
269543.825,283.016,-656.646,0,0
269804.15,279.985,-659.357,0,0
270064.475,276.558,-661.368,0,0
270324.8,273.169,-662.725,0,0
270585.125,270.152,-663.529,0,0
270845.45,267.509,-664.041,0,0
271105.775,265.193,-664.451,0,0
271366.1,263.283,-664.738,0,0
271626.425,261.679,-665.183,0,0
271886.75,260.295,-665.9,0,0
272147.075,258.966,-666.813,0,0
272407.4,257.633,-668.027,0,0
272667.725,256.086,-669.491,0,0
272928.05,254.284,-670.927,0,0
273188.375,252.297,-672.368,0,0
273448.7,250.321,-673.705,0,0
273709.025,248.109,-675.191,0,0
273969.35,245.802,-676.642,0,0
274229.675,243.306,-678.118,0,0
274490.0,240.57,-679.605,0,0
274750.325,237.583,-681.039,0,0
275010.65,234.192,-682.313,0,0
275270.975,230.566,-683.346,0,0
275531.3,226.725,-684.005,0,0
275791.625,222.714,-684.338,0,0
276051.95,218.608,-684.285,0,0
276312.275,214.532,-683.873,0,0
276572.6,210.487,-683.1,0,0
276832.925,206.473,-681.935,0,0
277093.25,202.629,-680.414,0,0
277353.575,198.993,-678.609,0,0
277613.9,195.566,-676.526,0,0
277874.225,192.344,-674.179,0,0
278134.55,189.422,-671.603,0,0
278394.875,186.816,-668.898,0,0
278655.2,184.475,-666.054,0,0
278915.525,182.424,-663.069,0,0
279175.85,180.762,-660.02,0,0
279436.175,179.491,-656.91,0,0
279696.5,178.673,-653.942,0,0
279956.825,178.139,-651.182,0,0
280217.15,177.88,-648.747,0,0
280477.475,177.715,-646.565,0,0
280737.8,177.584,-644.628,0,0
280998.125,177.46,-642.896,0,0
281258.45,177.287,-641.321,0,0
281518.775,177.075,-639.918,0,0
281779.1,176.704,-638.607,0,0
282039.425,176.187,-637.249,0,0
282299.75,175.654,-635.756,0,0
282560,175.126,-634.11,0,0
282820,174.826,-632.343,0,0
283081,174.798,-630.572,0,0
283341,175.015,-628.983,0,0
283601,175.386,-627.658,0,0
283862,175.768,-626.603,0,0
284122,176.042,-625.848,0,0
284382,176.116,-625.229,0,0
284643,175.959,-624.575,0,0
284903,175.716,-623.908,0,0
285163,175.481,-623.207,0,0
285424,175.231,-622.498,0,0
285684,174.997,-621.894,0,0
285944,174.65,-621.321,0,0
286205,174.181,-620.819,0,0
286465,173.483,-620.292,0,0
286725,172.616,-619.644,0,0
286986,171.654,-618.791,0,0
287246,170.628,-617.802,0,0
287506,169.49,-616.555,0,0
287767,168.337,-614.96,0,0
288027,167.368,-613.004,0,0
288287,166.7,-610.809,0,0
288548,166.324,-608.429,0,0
288808,166.295,-605.929,0,0
289068,166.658,-603.387,0,0
289329,167.405,-600.862,0,0
289589,168.568,-598.406,0,0
289849,170.119,-596.192,0,0
290109,172.012,-594.25,0,0
290370,174.169,-592.686,0,0
290630,176.511,-591.512,0,0
290890,178.917,-590.684,0,0
291151,181.395,-590.241,0,0
291411,183.904,-590.179,0,0
291671,186.358,-590.536,0,0
291932,188.718,-591.24,0,0
292192,190.879,-592.272,0,0
292452,192.876,-593.541,0,0
292713,194.701,-595.051,0,0
292973,196.434,-596.843,0,0
293233,197.948,-598.936,0,0
293494,199.188,-601.394,0,0
293754,200.017,-604.119,0,0
294014,200.382,-606.986,0,0
294275,200.257,-609.89,0,0
294535,199.733,-612.752,0,0
294795,198.811,-615.573,0,0
295056,197.482,-618.26,0,0
295316,195.749,-620.734,0,0
295576,193.717,-622.903,0,0
295837,191.453,-624.783,0,0
296097,189.055,-626.326,0,0
296357,186.54,-627.572,0,0
296618,183.992,-628.535,0,0
296878,181.434,-629.201,0,0
297138,178.893,-629.644,0,0
297399,176.424,-629.844,0,0
297659,174.052,-629.856,0,0
297919,171.762,-629.699,0,0
298180,169.591,-629.404,0,0
298440,167.54,-629.015,0,0
298700.2,165.613,-628.579,0,0
298960.525,163.796,-628.113,0,0
299220.85,162.008,-627.649,0,0
299481.175,160.269,-627.157,0,0
299741.5,158.572,-626.623,0,0
300001.825,156.926,-626.084,0,0
300262.15,155.288,-625.541,0,0
300522.475,153.633,-625.018,0,0
300782.8,151.947,-624.432,0,0
301043.125,150.234,-623.774,0,0
301303.45,148.534,-623.048,0,0
301563.775,146.837,-622.225,0,0
301824.1,145.172,-621.321,0,0
302084.425,143.569,-620.313,0,0
302344.75,142.058,-619.218,0,0
302605.075,140.615,-618.08,0,0
302865.4,139.28,-616.93,0,0
303125.725,137.993,-615.785,0,0
303386.05,136.752,-614.639,0,0
303646.375,135.53,-613.435,0,0
303906.7,134.375,-612.179,0,0
304167.025,133.29,-610.904,0,0
304427.35,132.293,-609.605,0,0
304687.675,131.379,-608.318,0,0
304948.0,130.486,-607.047,0,0
305208.325,129.708,-605.747,0,0
305468.65,128.976,-604.432,0,0
305728.975,128.35,-603.155,0,0
305989.3,127.818,-601.914,0,0
306249.625,127.335,-600.731,0,0
306509.95,126.901,-599.604,0,0
306770.275,126.51,-598.549,0,0
307030.6,126.153,-597.57,0,0
307290.925,125.807,-596.672,0,0
307551.25,125.427,-595.815,0,0
307811.575,125.063,-595,0,0
308071.9,124.68,-594.246,0,0
308332.225,124.296,-593.508,0,0
308592.55,123.885,-592.826,0,0
308852.875,123.431,-592.195,0,0
309113.2,122.937,-591.55,0,0
309373.525,122.435,-590.94,0,0
309633.85,121.887,-590.33,0,0
309894.175,121.336,-589.695,0,0
310154.5,120.767,-589.081,0,0
310414.825,120.15,-588.485,0,0
310675.15,119.54,-587.853,0,0
310935.475,118.888,-587.265,0,0
311195.8,118.186,-586.646,0,0
311456.125,117.452,-586.008,0,0
311716.45,116.676,-585.293,0,0
311976.775,115.924,-584.541,0,0
312237.1,115.166,-583.707,0,0
312497.425,114.452,-582.871,0,0
312757.75,113.769,-581.976,0,0
313018.075,113.136,-581.059,0,0
313278.4,112.535,-580.136,0,0
313538.725,112.009,-579.204,0,0
313799.05,111.497,-578.271,0,0
314059.375,111.031,-577.377,0,0
314319.7,110.597,-576.497,0,0
314580,110.176,-575.645,0,0
314840,109.848,-574.661,0,0
315101,109.5,-573.827,0,0
315361,109.162,-573.125,0,0
315621,108.919,-572.305,0,0
315882,108.566,-571.512,0,0
316142,108.332,-570.937,0,0
316402,108.086,-570.225,0,0
316663,107.787,-569.712,0,0
316923,107.493,-569.202,0,0
317183,107.221,-568.571,0,0
317444,106.905,-568.067,0,0
317704,106.451,-567.581,0,0
317964,106.125,-567.247,0,0
318225,105.83,-566.891,0,0
318485,105.264,-566.558,0,0
318745,104.838,-566.194,0,0
319006,104.347,-565.801,0,0
319266,103.669,-565.522,0,0
319526,102.994,-565.236,0,0
319787,102.408,-564.909,0,0
320047,101.571,-564.608,0,0
320307,100.915,-564.283,0,0
320567,100.125,-563.947,0,0
320828,99.1896,-563.563,0,0
321088,98.253,-563.283,0,0
321348,97.1827,-562.979,0,0
321609,96.08,-562.494,0,0
321869,94.8325,-562.006,0,0
322129,93.5077,-561.474,0,0
322390,92.1631,-560.714,0,0
322650,90.8441,-559.845,0,0
322910,89.4179,-558.898,0,0
323171,88.11,-557.681,0,0
323431,86.8428,-556.422,0,0
323691,85.7398,-555,0,0
323952,84.6716,-553.53,0,0
324212,83.8125,-552.075,0,0
324472,83.115,-550.539,0,0
324733,82.3317,-549.054,0,0
324993,81.7593,-547.688,0,0
325253,81.2236,-546.208,0,0
325514,80.7084,-544.784,0,0
325774,80.2322,-543.396,0,0
326034,79.7378,-542.077,0,0
326295,79.3888,-540.702,0,0
326555,78.9417,-539.423,0,0
326815,78.4877,-538.108,0,0
327076,78.105,-536.69,0,0
327336,77.7068,-535.385,0,0
327596,77.4041,-534.016,0,0
327857,77.072,-532.647,0,0
328117,76.785,-531.242,0,0
328377,76.5343,-529.873,0,0
328638,76.3744,-528.504,0,0
328898,76.2017,-527.002,0,0
329158,76.1455,-525.593,0,0
329419,76.167,-524.233,0,0
329679,76.1576,-522.766,0,0
329939,76.275,-521.363,0,0
330200,76.5626,-520.057,0,0
330460,76.8471,-518.787,0,0
330720.15,77.1365,-517.639,0,0
330980.475,77.5496,-516.592,0,0
331240.8,77.9017,-515.564,0,0
331501.125,78.2456,-514.697,0,0
331761.45,78.5766,-513.924,0,0
332021.775,78.8078,-513.093,0,0
332282.1,79.1281,-512.407,0,0
332542.425,79.3483,-511.704,0,0
332802.75,79.4974,-511.102,0,0
333063.075,79.6564,-510.565,0,0
333323.4,79.6832,-510.009,0,0
333583.725,79.7053,-509.474,0,0
333844.05,79.5818,-508.98,0,0
334104.375,79.5396,-508.415,0,0
334364.7,79.3207,-507.822,0,0
334625.025,79.1315,-507.228,0,0
334885.35,78.8974,-506.601,0,0
335145.675,78.5932,-505.945,0,0
335406.0,78.2946,-505.209,0,0
335666.325,77.9794,-504.449,0,0
335926.65,77.6631,-503.71,0,0
336186.975,77.2934,-502.819,0,0
336447.3,76.9495,-502.03,0,0
336707.625,76.6293,-501.06,0,0
336967.95,76.3238,-500.058,0,0
337228.275,75.9905,-499.021,0,0
337488.6,75.6507,-497.835,0,0
337748.925,75.3825,-496.684,0,0
338009.25,75.2667,-495.482,0,0
338269.575,75.1489,-494.255,0,0
338529.9,75.0441,-492.933,0,0
338790.225,75.1227,-491.687,0,0
339050.55,75.2337,-490.378,0,0
339310.875,75.4256,-489.104,0,0
339571.2,75.6806,-487.775,0,0
339831.525,76.0144,-486.605,0,0
340091.85,76.3652,-485.395,0,0
340352.175,76.7551,-484.236,0,0
340612.5,77.2545,-483.038,0,0
340872.825,77.8284,-481.886,0,0
341133.15,78.4569,-480.738,0,0
341393.475,79.2054,-479.739,0,0
341653.8,79.983,-478.773,0,0
341914.125,80.9151,-477.876,0,0
342174.45,81.8144,-477.196,0,0
342434.775,82.7584,-476.543,0,0
342695.1,83.7503,-476.021,0,0
342955.425,84.6962,-475.76,0,0
343215.75,85.6154,-475.533,0,0
343476.075,86.428,-475.436,0,0
343736.4,87.1358,-475.444,0,0
343996.725,87.8413,-475.521,0,0
344257.05,88.2922,-475.705,0,0
344517.375,88.772,-475.902,0,0
344777.7,89.094,-476.042,0,0
345038.025,89.3134,-476.324,0,0
345298.35,89.4935,-476.524,0,0
345558.675,89.4538,-476.699,0,0
345819.0,89.3848,-476.893,0,0
346079.325,89.3301,-476.963,0,0
346339.65,89.1864,-477.074,0,0
346599.975,88.9184,-477.114,0,0
346860,88.6783,-477.084,0,0
347121,88.4252,-477.078,0,0
347381,88.1227,-477.019,0,0
347641,87.8434,-476.924,0,0
347902,87.4219,-476.786,0,0
348162,87.0458,-476.628,0,0
348422,86.5813,-476.346,0,0
348683,86.1992,-476.11,0,0
348943,85.7571,-475.822,0,0
349203,85.3538,-475.49,0,0
349464,84.8749,-475.182,0,0
349724,84.3999,-474.719,0,0
349984,83.9256,-474.29,0,0
350245,83.4471,-473.781,0,0
350505,83.0411,-473.268,0,0
350765,82.6037,-472.698,0,0
351025,82.1386,-472.073,0,0
351286,81.7061,-471.396,0,0
351546,81.3785,-470.72,0,0
351806,81.0587,-470.014,0,0
352067,80.6971,-469.243,0,0
352327,80.4143,-468.45,0,0
352587,80.1314,-467.674,0,0
352848,79.9946,-466.84,0,0
353108,79.8341,-465.976,0,0
353368,79.7554,-465.158,0,0
353629,79.7515,-464.309,0,0
353889,79.7809,-463.49,0,0
354149,79.8311,-462.7,0,0
354410,80.0143,-461.993,0,0
354670,80.2126,-461.342,0,0
354930,80.3596,-460.851,0,0
355191,80.4476,-460.368,0,0
355451,80.5742,-459.906,0,0
355711,80.6302,-459.444,0,0
355972,80.6948,-458.965,0,0
356232,80.6558,-458.591,0,0
356492,80.6955,-458.178,0,0
356753,80.5805,-457.777,0,0
357013,80.5592,-457.42,0,0
357273,80.4395,-457.11,0,0
357534,80.3142,-456.73,0,0
357794,80.004,-456.395,0,0
358054,79.7258,-455.976,0,0
358315,79.4233,-455.497,0,0
358575,78.9842,-455.051,0,0
358835,78.6341,-454.346,0,0
359096,78.2349,-453.665,0,0
359356,77.8742,-452.836,0,0
359616,77.604,-451.986,0,0
359877,77.3436,-451.075,0,0
360137,77.2368,-450.149,0,0
360397,77.2111,-449.291,0,0
360658,77.2439,-448.331,0,0
360918,77.1934,-447.499,0,0
361178,77.2946,-446.599,0,0
361438,77.3672,-445.72,0,0
361699,77.5635,-444.878,0,0
361959,77.7798,-444.033,0,0
362219,78.0009,-443.292,0,0
362480,78.2934,-442.528,0,0
362740.1,78.5973,-441.833,0,0
363000.425,78.8707,-441.176,0,0
363260.75,79.1889,-440.598,0,0
363521.075,79.4557,-440.089,0,0
363781.4,79.7544,-439.598,0,0
364041.725,79.9503,-439.11,0,0
364302.05,80.0837,-438.691,0,0
364562.375,80.1429,-438.303,0,0
364822.7,80.1875,-437.856,0,0
365083.025,80.112,-437.339,0,0
365343.35,80.0403,-436.746,0,0
365603.675,79.9807,-436.102,0,0
365864.0,79.9219,-435.396,0,0
366124.325,79.9723,-434.621,0,0
366384.65,79.9887,-433.792,0,0
366644.975,80.0826,-432.915,0,0
366905.3,80.2778,-431.99,0,0
367165.625,80.5073,-431.166,0,0
367425.95,80.7775,-430.26,0,0
367686.275,81.1144,-429.312,0,0
367946.6,81.5482,-428.449,0,0
368206.925,82.0377,-427.532,0,0
368467.25,82.59,-426.657,0,0
368727.575,83.2443,-425.824,0,0
368987.9,83.9689,-424.977,0,0
369248.225,84.7731,-424.304,0,0
369508.55,85.6181,-423.618,0,0
369768.875,86.5188,-423.096,0,0
370029.2,87.4356,-422.594,0,0
370289.525,88.3816,-422.191,0,0
370549.85,89.3106,-421.834,0,0
370810.175,90.3201,-421.583,0,0
371070.5,91.3313,-421.354,0,0
371330.825,92.4268,-421.324,0,0
371591.15,93.4823,-421.401,0,0
371851.475,94.4746,-421.595,0,0
372111.8,95.4716,-421.858,0,0
372372.125,96.3979,-422.386,0,0
372632.45,97.226,-422.921,0,0
372892.775,97.8947,-423.63,0,0
373153.1,98.4271,-424.391,0,0
373413.425,98.8203,-425.224,0,0
373673.75,99.0194,-426.033,0,0
373934.075,99.0055,-426.842,0,0
374194.4,98.8929,-427.599,0,0
374454.725,98.6885,-428.205,0,0
374715.05,98.478,-428.685,0,0
374975.375,98.1619,-429.082,0,0
375235.7,97.8043,-429.408,0,0
375496.025,97.4404,-429.674,0,0
375756.35,97.1584,-429.817,0,0
376016.675,96.8485,-429.967,0,0
376277.0,96.6126,-430.107,0,0
376537.325,96.3331,-430.192,0,0
376797.65,96.1191,-430.343,0,0
377057.975,95.8762,-430.445,0,0
377318.3,95.5753,-430.593,0,0
377578.625,95.2739,-430.67,0,0
377838.95,94.9972,-430.754,0,0
378099.275,94.6566,-430.846,0,0
378359.6,94.3234,-430.867,0,0
378619.925,93.9697,-430.85,0,0
378880,93.7418,-430.788,0,0
379141,93.3957,-430.8,0,0
379401,93.1175,-430.673,0,0
379661,92.8228,-430.681,0,0
379922,92.5581,-430.641,0,0
380182,92.2687,-430.552,0,0
380442,91.9365,-430.532,0,0
380703,91.6295,-430.431,0,0
380963,91.2482,-430.408,0,0
381223,90.9593,-430.316,0,0
381483,90.5465,-430.158,0,0
381744,90.2276,-429.944,0,0
382004,89.9873,-429.703,0,0
382264,89.7207,-429.501,0,0
382525,89.6818,-429.314,0,0
382785,89.6204,-429.153,0,0
383045,89.596,-429.107,0,0
383306,89.585,-429.184,0,0
383566,89.527,-429.367,0,0
383826,89.4088,-429.706,0,0
384087,89.1529,-430.108,0,0
384347,88.7385,-430.52,0,0
384607,88.1556,-430.896,0,0
384868,87.4829,-431.2,0,0
385128,86.7068,-431.498,0,0
385388,85.8118,-431.662,0,0
385649,84.9471,-431.611,0,0
385909,83.9303,-431.663,0,0
386169,82.9202,-431.506,0,0
386430,81.9805,-431.222,0,0
386690,80.906,-430.95,0,0
386950,79.9564,-430.462,0,0
387211,79.0047,-429.972,0,0
387471,78.0804,-429.338,0,0
387731,77.1397,-428.56,0,0
387992,76.3781,-427.714,0,0
388252,75.646,-426.768,0,0
388512,75.0764,-425.798,0,0
388773,74.6493,-424.779,0,0
389033,74.3457,-423.796,0,0
389293,74.1686,-422.879,0,0
389554,74.0927,-421.969,0,0
389814,74.1186,-421.147,0,0
390074,74.1995,-420.411,0,0
390335,74.3041,-419.794,0,0
390595,74.4943,-419.232,0,0
390855,74.7208,-418.889,0,0
391116,74.8999,-418.607,0,0
391376,74.9626,-418.514,0,0
391636,75.0307,-418.472,0,0
391896,74.9401,-418.51,0,0
392157,74.7778,-418.568,0,0
392417,74.4252,-418.69,0,0
392677,73.9897,-418.779,0,0
392938,73.4742,-418.807,0,0
393198,72.791,-418.81,0,0
393458,72.0615,-418.678,0,0
393719,71.2228,-418.554,0,0
393979,70.4215,-418.212,0,0
394239,69.524,-417.83,0,0
394500,68.7318,-417.337,0,0
394760.05,67.8659,-416.753,0,0
395020.375,67.1303,-416.113,0,0
395280.7,66.4092,-415.394,0,0
395541.025,65.6503,-414.657,0,0
395801.35,65.0056,-413.918,0,0
396061.675,64.3692,-413.091,0,0
396322.0,63.812,-412.257,0,0
396582.325,63.2578,-411.392,0,0
396842.65,62.7396,-410.513,0,0
397102.975,62.2952,-409.544,0,0
397363.3,61.852,-408.687,0,0
397623.625,61.4775,-407.735,0,0
397883.95,61.0819,-406.834,0,0
398144.275,60.7999,-405.919,0,0
398404.6,60.4835,-405.017,0,0
398664.925,60.1741,-404.125,0,0
398925.25,59.866,-403.22,0,0
399185.575,59.6173,-402.238,0,0
399445.9,59.3779,-401.336,0,0
399706.225,59.1646,-400.376,0,0
399966.55,58.9869,-399.402,0,0
400006.6,58.9167,-399.255,0,0